File: Figure_codes/Fig_3-5/rawdata_trumpetplot_data/before 10th/20221101_1-115_002_TrumpetPlot_ParaChange_05_CV_C01_6.csv
mode,ox/red,error,control changes,counter inc.,time/s,control/V,Ewe/V,<I>/mA,cycle number,(Q-Qo)/C,I Range,P/W,log(|I|),Tafel slope mV/dec,alpha_eff,dI/d(E-IR),E-IR/V,
2,0,0,1,0,8348.66,2.44065e-05,-0.000306236,-0.0273888,7,0.0000000E+000,11,8.38744e-09,-4.56243, , , ,-0.000306236,
2,1,0,0,0,8348.91,0.00129787,0.000954587,0.156952,7,3.5701e-05,11,1.49825e-07,-3.80423, , , ,0.0009545873,
2,1,0,0,0,8349.21,0.00279606,0.00248687,0.183682,7,9.36002e-05,11,4.56794e-07,-3.73593,0.031232,1.88909,12.4339,0.002486875,
2,1,0,1,0,8349.51,0.00429469,0.00397398,0.190765,7,0.000154663,11,7.58097e-07,-3.7195,0.129935,0.454073,3.46905,0.00397398,
2,1,0,1,0,8349.81,0.00579255,0.00546789,0.197965,7,0.000218299,11,1.08245e-06,-3.70341,0.0800865,0.736703,5.68657,0.00546789,
2,1,0,1,0,8350.11,0.00729041,0.0069628,0.20677,7,0.000284352,11,1.4397e-06,-3.68451,0.106381,0.554609,4.42731,0.0069628,
2,1,0,1,0,8350.41,0.00878882,0.00849302,0.21354,7,0.000352502,11,1.81359e-06,-3.67052,0.132295,0.445972,3.67835,0.00849302,
2,1,0,1,0,8350.71,0.010287,0.00997653,0.218304,7,0.000422279,11,2.17791e-06,-3.66094,0.158898,0.371308,3.13684,0.00997653,
2,1,0,1,0,8351.01,0.0117852,0.0115109,0.22125,7,0.000493376,11,2.5468e-06,-3.65512,0.183405,0.321693,2.79276,0.0115109,
2,1,0,1,0,8351.31,0.0132836,0.0129533,0.225433,7,0.000565585,11,2.9201e-06,-3.64698,0.162941,0.362094,3.20788,0.0129533,
2,1,0,1,0,8351.61,0.0147815,0.0144641,0.230611,7,0.000639229,11,3.33558e-06,-3.63712,0.21219,0.278052,2.50475,0.0144641,
2,1,0,1,0,8351.91,0.0162793,0.0160023,0.233425,7,0.000714147,11,3.73533e-06,-3.63185,0.314959,0.187326,1.70513,0.01600226,
2,1,0,0,0,8352.21,0.017778,0.0174916,0.237159,7,0.000790057,11,4.14829e-06,-3.62496,0.283086,0.208417,1.93104,0.0174916,
2,1,0,0,0,8352.51,0.0192761,0.018972,0.241679,7,0.000866474,11,4.58512e-06,-3.61676,0.289292,0.203946,1.91427,0.018972,
2,1,0,1,0,8352.81,0.0207747,0.0204792,0.244579,7,0.000944283,11,5.00878e-06,-3.61158,0.22548,0.261664,2.48289,0.0204792,
2,1,0,1,0,8353.11,0.0222725,0.021955,0.247053,7,0.001023,11,5.42405e-06,-3.60721,0.268384,0.219834,2.11544,0.021955,
2,1,0,1,0,8353.41,0.0237704,0.0234955,0.249479,7,0.00110266,11,5.86164e-06,-3.60297,0.248362,0.237557,2.32519,0.0234955,
2,1,0,1,0,8353.71,0.0252689,0.0250301,0.252213,7,0.00118297,11,6.31291e-06,-3.59823,0.283156,0.208366,2.05789,0.0250301,
2,1,0,1,0,8354.01,0.0267671,0.0264733,0.255755,7,0.00126456,11,6.77067e-06,-3.59218,0.208243,0.283322,2.81648,0.0264733,
2,1,0,1,0,8354.3,0.0282657,0.0279625,0.260107,7,0.00134715,11,7.27325e-06,-3.58485,0.217378,0.271417,2.75856,0.0279625,
2,1,0,1,0,8354.6,0.0297635,0.0294678,0.263458,7,0.00143081,11,7.76354e-06,-3.57929,0.272534,0.216487,2.22587,0.0294678,
2,1,0,1,0,8354.9,0.0312613,0.0309287,0.263814,7,0.00151533,11,8.15943e-06,-3.5787,0.261397,0.225711,2.35285,0.0309287,
2,1,0,0,0,8355.2,0.0327599,0.0324858,0.270291,7,0.00160101,11,8.7806e-06,-3.56817,0.227596,0.259232,2.72782,0.0324858,
2,1,0,0,0,8355.5,0.034258,0.0339481,0.274383,7,0.00168797,11,9.31478e-06,-3.56164,0.246077,0.239762,2.56706,0.0339481,
2,1,0,1,0,8355.8,0.0357567,0.0354427,0.278009,7,0.00177607,11,9.85338e-06,-3.55594,0.299196,0.197195,2.14031,0.0354427,
2,1,0,1,0,8356.1,0.0372545,0.0369416,0.283009,7,0.00186537,11,1.04548e-05,-3.5482,0.243044,0.242755,2.68572,0.0369416,
2,1,0,1,0,8356.4,0.0387524,0.0384353,0.286227,7,0.00195572,11,1.10012e-05,-3.54329,0.193027,0.305656,3.44628,0.03843534,
2,1,0,1,0,8356.7,0.0402508,0.0399563,0.291233,7,0.00204776,11,1.16366e-05,-3.53576,0.223406,0.264093,3.01419,0.0399563,
2,1,0,1,0,8357,0.041749,0.0414388,0.297252,7,0.00214151,11,1.23178e-05,-3.52688,0.217421,0.271363,3.1346,0.0414388,
2,1,0,1,0,8357.3,0.0432472,0.0429912,0.302317,7,0.00223646,11,1.2997e-05,-3.51954,0.228347,0.258379,3.04641,0.0429912,
2,1,0,1,0,8357.6,0.0447456,0.0444303,0.307589,7,0.00233272,11,1.36663e-05,-3.51203,0.190181,0.310232,3.71225,0.0444303,
2,1,0,1,0,8357.9,0.0462435,0.0458903,0.312235,7,0.00243091,11,1.43286e-05,-3.50552,0.189585,0.311207,3.78942,0.0458903,
2,1,0,1,0,8358.2,0.0477413,0.0474126,0.318656,7,0.00253079,11,1.51083e-05,-3.49668,0.184171,0.320355,3.98926,0.0474126,
2,1,0,0,0,8358.5,0.0492399,0.048974,0.323811,7,0.00263255,11,1.58583e-05,-3.48971,0.195221,0.302221,3.84593,0.048974,
2,1,0,0,0,8358.8,0.0507381,0.050413,0.328953,7,0.00273567,11,1.65835e-05,-3.48287,0.186041,0.317135,4.10083,0.050413,
2,1,0,1,0,8359.1,0.0522367,0.0519171,0.336453,7,0.00284105,11,1.74676e-05,-3.47308,0.148793,0.396524,5.19595,0.0519171,
2,1,0,1,0,8359.4,0.0537345,0.0534161,0.345379,7,0.00294849,11,1.84488e-05,-3.4617,0.181091,0.325803,4.37685,0.0534161,
2,1,0,1,0,8359.7,0.0552323,0.0549691,0.349888,7,0.00305785,11,1.9233e-05,-3.45607,0.20022,0.294676,4.01857,0.0549691,
2,1,0,1,0,8360,0.0567309,0.0563863,0.354535,7,0.00316909,11,1.99909e-05,-3.45034,0.187482,0.314697,4.38902,0.0563863,
2,1,0,1,0,8360.3,0.0582291,0.0579005,0.36353,7,0.00328212,11,2.10486e-05,-3.43946,0.187666,0.314388,4.46524,0.0579005,
2,1,0,1,0,8360.6,0.0597277,0.0594174,0.372046,7,0.00339761,11,2.2106e-05,-3.4294,0.177112,0.333123,4.82001,0.0594174,
2,1,0,1,0,8360.9,0.0612255,0.0609365,0.377794,7,0.00351518,11,2.30214e-05,-3.42275,0.228273,0.258463,3.80235,0.0609365,
2,1,0,1,0,8361.2,0.0627233,0.0624144,0.382764,7,0.00363462,11,2.389e-05,-3.41707,0.214221,0.275417,4.14939,0.0624144,
2,1,0,0,0,8361.5,0.0642218,0.0639141,0.391303,7,0.00375586,11,2.50098e-05,-3.40749,0.177144,0.333063,5.11284,0.0639141,
2,1,0,0,0,8361.8,0.06572,0.0653944,0.398435,7,0.00387941,11,2.60554e-05,-3.39964,0.213267,0.276649,4.29766,0.0653944,
2,1,0,1,0,8362.1,0.0672187,0.0669442,0.406975,7,0.00400538,11,2.72446e-05,-3.39043,0.20715,0.284818,4.48939,0.0669442,
2,1,0,1,0,8362.4,0.0687165,0.0684231,0.412776,7,0.00413297,11,2.82434e-05,-3.38429,0.233781,0.252373,4.05217,0.0684231,
2,1,0,1,0,8362.69,0.0702144,0.0699454,0.417294,7,0.00426196,11,2.91878e-05,-3.37956,0.206822,0.28527,4.65268,0.06994538,
2,1,0,1,0,8362.99,0.0717128,0.071426,0.424783,7,0.00439335,11,3.03405e-05,-3.37183,0.194888,0.302737,4.99656,0.071426,
2,1,0,1,0,8363.29,0.073211,0.0728798,0.429049,7,0.00452655,11,3.1269e-05,-3.36749,0.276157,0.213647,3.58656,0.0728798,
2,1,0,1,0,8363.59,0.0747092,0.0743687,0.435737,7,0.00466152,11,3.24052e-05,-3.36078,0.27027,0.218301,3.71076,0.0743687,
2,1,0,1,0,8363.89,0.0762076,0.075898,0.439112,7,0.00479789,11,3.33277e-05,-3.35742,0.284796,0.207166,3.56448,0.075898,
2,1,0,1,0,8364.19,0.0777054,0.0773866,0.447133,7,0.00493607,11,3.46021e-05,-3.34956,0.240532,0.245289,4.26889,0.07738658,
2,1,0,1,0,8364.49,0.0792033,0.0789025,0.454466,7,0.00507607,11,3.58585e-05,-3.3425,0.299564,0.196953,3.47391,0.0789025,
2,1,0,0,0,8364.79,0.0807019,0.0804278,0.457303,7,0.00521786,11,3.67799e-05,-3.3398,0.308643,0.19116,3.40883,0.0804278,
2,1,0,0,0,8365.09,0.0822001,0.0818689,0.459552,7,0.00536086,11,3.7623e-05,-3.33767,0.288507,0.204501,3.69057,0.0818689,
2,1,0,1,0,8365.39,0.0836986,0.0833888,0.467203,7,0.00550525,11,3.89595e-05,-3.33049,0.315697,0.186888,3.41589,0.0833888,
2,1,0,1,0,8365.69,0.0851965,0.0848985,0.472588,7,0.00565147,11,4.0122e-05,-3.32552,0.352267,0.167487,3.09819,0.0848985,
2,1,0,1,0,8365.99,0.0866944,0.0864316,0.477404,7,0.00579929,11,4.12628e-05,-3.32111,0.548265,0.107612,2.00329,0.08643157,
2,1,0,1,0,8366.29,0.0881929,0.0879259,0.483142,7,0.00594862,11,4.24808e-05,-3.31592,0.324768,0.181668,3.43099,0.0879259,
2,1,0,1,0,8366.59,0.0896911,0.0893957,0.487904,7,0.00609888,11,4.36165e-05,-3.31167,0.274958,0.214578,4.09948,0.0893957,
2,1,0,1,0,8366.89,0.0911897,0.090832,0.494695,7,0.00625134,11,4.49341e-05,-3.30566,0.272573,0.216456,4.16583,0.09083201,
2,1,0,1,0,8367.19,0.0926875,0.0923607,0.501161,7,0.00640579,11,4.62876e-05,-3.30002,0.292462,0.201736,3.92885,0.0923607,
2,1,0,1,0,8367.49,0.0941853,0.0938606,0.50569,7,0.00656171,11,4.74643e-05,-3.29612,0.296344,0.199093,3.93568,0.0938606,
2,1,0,0,0,8367.79,0.0956838,0.0953594,0.51143,7,0.00671901,11,4.87697e-05,-3.29121,0.256831,0.229723,4.59582,0.0953594,
2,1,0,0,0,8368.09,0.097182,0.0968874,0.518153,7,0.00687861,11,5.02025e-05,-3.28554,0.20144,0.292891,5.92902,0.0968874,
2,1,0,1,0,8368.39,0.0986807,0.0983354,0.527549,7,0.00704068,11,5.18768e-05,-3.27774,0.242378,0.243422,5.0047,0.09833543,
2,1,0,1,0,8368.69,0.100179,0.0998662,0.535081,7,0.00720494,11,5.34366e-05,-3.27158,0.236252,0.249733,5.22633,0.0998662,
2,1,0,1,0,8368.99,0.101676,0.101363,0.540947,7,0.00737144,11,5.48322e-05,-3.26685,0.192428,0.306608,6.51605,0.101363,
2,1,0,1,0,8369.29,0.103175,0.102904,0.553653,7,0.00754087,11,5.69733e-05,-3.25676,0.191772,0.307657,6.65917,0.102904,
2,1,0,1,0,8369.59,0.104673,0.104405,0.566233,7,0.00771368,11,5.91174e-05,-3.247,0.187258,0.315074,6.93677,0.104405,
2,1,0,1,0,8369.89,0.106171,0.105889,0.575872,7,0.00788996,11,6.09786e-05,-3.23967,0.186933,0.315621,7.08441,0.105889,
2,1,0,1,0,8370.19,0.10767,0.107321,0.585665,7,0.00806948,11,6.28543e-05,-3.23235,0.172732,0.34157,7.84609,0.107321,
2,1,0,1,0,8370.49,0.109167,0.108889,0.599974,7,0.00825226,11,6.53305e-05,-3.22187,0.164322,0.35905,8.43224,0.108889,
2,1,0,1,0,8370.78,0.110665,0.110336,0.613002,7,0.00843937,11,6.76363e-05,-3.21254,0.158103,0.373175,8.94558,0.110336,
2,1,0,0,0,8371.08,0.112164,0.111897,0.626366,7,0.00863081,11,7.00888e-05,-3.20317,0.164493,0.358678,8.76757,0.1118975,
2,1,0,0,0,8371.38,0.113662,0.113376,0.643377,7,0.00882641,11,7.29433e-05,-3.19153,0.152386,0.387174,9.69707,0.113376,
2,1,0,1,0,8371.68,0.115161,0.114847,0.658832,7,0.00902582,11,7.56647e-05,-3.18123,0.156046,0.378093,9.67005,0.114847,
2,1,0,1,0,8371.98,0.116658,0.116358,0.671553,7,0.00923011,11,7.81403e-05,-3.17292,0.146651,0.402315,10.514,0.116358,
2,1,0,1,0,8372.28,0.118156,0.117809,0.688551,7,0.00943916,11,8.11175e-05,-3.16206,0.167502,0.352236,9.41721,0.117809,
2,1,0,1,0,8372.58,0.119655,0.119368,0.699446,7,0.00965223,11,8.34915e-05,-3.15525,0.187624,0.314459,8.60108,0.119368,
2,1,0,1,0,8372.88,0.121153,0.120859,0.710843,7,0.00986874,11,8.59117e-05,-3.14823,0.173614,0.339834,9.46153,0.120859,
2,1,0,1,0,8373.18,0.122652,0.122348,0.72712,7,0.0100898,11,8.89618e-05,-3.13839,0.156716,0.376478,10.6538,0.1223482,
2,1,0,1,0,8373.48,0.124149,0.123857,0.741506,7,0.010315,11,9.18405e-05,-3.12989,0.183075,0.322273,9.30983,0.123857,
2,1,0,1,0,8373.78,0.125647,0.125327,0.7537,7,0.0105443,11,9.44592e-05,-3.1228,0.215864,0.27332,8.02442,0.125327,
2,1,0,0,0,8374.08,0.127146,0.126804,0.760525,7,0.0107771,11,9.64374e-05,-3.11889,0.223816,0.26361,7.85981,0.126804,
2,1,0,0,0,8374.38,0.128644,0.128361,0.779012,7,0.011013,11,9.99951e-05,-3.10846,0.233358,0.252831,7.67183,0.128361,
2,1,0,1,0,8374.68,0.130143,0.129829,0.79042,7,0.011253,11,0.00010262,-3.10214,0.259844,0.227059,6.97006,0.129829,
2,1,0,1,0,8374.98,0.131641,0.13136,0.800311,7,0.0114964,11,0.000105129,-3.09674,0.335486,0.175864,5.46525,0.13136,
2,1,0,1,0,8375.28,0.133138,0.13288,0.806794,7,0.0117424,11,0.000107206,-3.09324,0.353691,0.166812,5.25149,0.1328795,
2,1,0,1,0,8375.58,0.134637,0.134343,0.814604,7,0.0119904,11,0.000109436,-3.08905,0.466939,0.126355,4.01806,0.134343,
2,1,0,1,0,8375.88,0.136135,0.135817,0.820656,7,0.0122409,11,0.000111459,-3.08584,0.491855,0.119954,3.83829,0.135817,
2,1,0,1,0,8376.18,0.137633,0.137314,0.827433,7,0.0124931,11,0.000113618,-3.08227,1.74918,0.0337302,1.08178,0.137314,
2,1,0,1,0,8376.48,0.139132,0.138828,0.828035,7,0.0127462,11,0.000114954,-3.08195,-5.83529,-0.0101109,-0.32481,0.138828,
2,1,0,1,0,8376.78,0.140629,0.140326,0.826543,7,0.0129985,11,0.000115985,-3.08273,-1.02756,-0.0574176,-1.84069,0.140326,
2,1,0,1,0,8377.08,0.142127,0.141805,0.821226,7,0.0132505,11,0.000116454,-3.08554,-0.565658,-0.104303,-3.32179,0.141805,
2,1,0,0,0,8377.38,0.143626,0.143334,0.813935,7,0.013501,11,0.000116665,-3.08941,-0.280006,-0.21071,-6.65385,0.143334,
2,1,0,0,0,8377.68,0.145124,0.1448,0.800268,7,0.0137481,11,0.000115879,-3.09676,-0.167326,-0.352604,-10.9779,0.1448,
2,1,0,1,0,8377.98,0.146623,0.146283,0.780303,7,0.0139901,11,0.000114145,-3.10774,-0.151371,-0.389771,-11.8564,0.1462827,
2,1,0,1,0,8378.28,0.14812,0.147802,0.762609,7,0.0142267,11,0.000112715,-3.1177,-0.126701,-0.465663,-13.7601,0.147802,
2,1,0,1,0,8378.58,0.149618,0.149308,0.740066,7,0.014457,11,0.000110498,-3.13073,-0.0995333,-0.592766,-17.0152,0.1493082,
2,1,0,1,0,8378.88,0.151117,0.150785,0.713036,7,0.0146798,11,0.000107515,-3.14689,-0.0853213,-0.691504,-19.1184,0.150785,
2,1,0,1,0,8379.17,0.152615,0.152315,0.680662,7,0.0148939,11,0.000103675,-3.16707,-0.0802813,-0.734916,-19.5601,0.152315,
2,1,0,1,0,8379.47,0.154114,0.153831,0.654534,7,0.0150992,11,0.000100687,-3.18407,-0.0797794,-0.73954,-18.8672,0.153831,
2,1,0,1,0,8379.77,0.155612,0.155306,0.625152,7,0.015296,11,9.70895e-05,-3.20401,-0.0743977,-0.793035,-19.3502,0.155306,
2,1,0,1,0,8380.07,0.157109,0.156786,0.594534,7,0.0154841,11,9.32148e-05,-3.22582,-0.0672766,-0.876976,-20.3579,0.156786,
2,1,0,0,0,8380.37,0.158608,0.158359,0.565997,7,0.0156634,11,8.96308e-05,-3.24719,-0.0709097,-0.832044,-18.4367,0.158359,
2,1,0,0,0,8380.67,0.160106,0.159822,0.54013,7,0.0158339,11,8.63244e-05,-3.2675,-0.072713,-0.811409,-17.1547,0.159822,
2,1,0,1,0,8380.97,0.161605,0.161292,0.518001,7,0.0159973,11,8.35492e-05,-3.28567,-0.0768901,-0.767329,-15.4399,0.1612916,
2,1,0,1,0,8381.27,0.163102,0.162784,0.4947,7,0.0161537,11,8.05295e-05,-3.30566,-0.0791138,-0.745761,-14.3852,0.162784,
2,1,0,1,0,8381.57,0.1646,0.16433,0.474087,7,0.0163038,11,7.79067e-05,-3.32414,-0.0855141,-0.689945,-12.7772,0.16433,
2,1,0,1,0,8381.87,0.166099,0.165803,0.454271,7,0.0164477,11,7.53195e-05,-3.34269,-0.0917438,-0.643095,-11.4553,0.165803,
2,1,0,1,0,8382.17,0.167597,0.167296,0.439612,7,0.0165868,11,7.35454e-05,-3.35693,-0.105609,-0.558667,-9.57701,0.167296,
2,1,0,1,0,8382.47,0.169095,0.168791,0.425351,7,0.0167216,11,7.17956e-05,-3.37125,-0.110576,-0.533568,-8.86614,0.168791,
2,1,0,1,0,8382.77,0.170594,0.17026,0.410436,7,0.0168522,11,6.9881e-05,-3.38675,-0.114253,-0.516396,-8.33074,0.17026,
2,1,0,1,0,8383.07,0.172091,0.171818,0.398615,7,0.0169788,11,6.84892e-05,-3.39945,-0.126268,-0.46726,-7.32597,0.171818,
2,1,0,1,0,8383.37,0.173589,0.173313,0.390664,7,0.0171024,11,6.7707e-05,-3.4082,-0.159747,-0.369334,-5.62974,0.173313,
2,1,0,0,0,8383.67,0.175088,0.174779,0.381211,7,0.0172232,11,6.66276e-05,-3.41883,-0.160569,-0.367444,-5.45788,0.174779,
2,1,0,0,0,8383.97,0.176586,0.176326,0.372707,7,0.0173413,11,6.57178e-05,-3.42863,-0.160481,-0.367645,-5.34576,0.176326,
2,1,0,1,0,8384.27,0.178085,0.17776,0.362804,7,0.017457,11,6.4492e-05,-3.44033,-0.184817,-0.319235,-4.55268,0.17776,
2,1,0,1,0,8384.57,0.179582,0.179306,0.358112,7,0.0175704,11,6.42114e-05,-3.44598,-0.199777,-0.295329,-4.14768,0.179306,
2,1,0,1,0,8384.87,0.18108,0.180759,0.352365,7,0.0176822,11,6.36932e-05,-3.45301,-0.212286,-0.277927,-3.83029,0.180759,
2,1,0,1,0,8385.17,0.182579,0.182304,0.345927,7,0.0177923,11,6.3064e-05,-3.46102,-0.189871,-0.310738,-4.2013,0.182304,
2,1,0,1,0,8385.47,0.184077,0.183752,0.340713,7,0.0179007,11,6.26065e-05,-3.46761,-0.239187,-0.246669,-3.29646,0.183752,
2,1,0,1,0,8385.77,0.185576,0.185301,0.337306,7,0.0180073,11,6.25032e-05,-3.47198,-0.261811,-0.225353,-2.96789,0.1853012,
2,1,0,1,0,8386.07,0.187074,0.18676,0.334124,7,0.0181129,11,6.24012e-05,-3.47609,-0.329357,-0.179137,-2.32015,0.18676,
2,1,0,1,0,8386.37,0.188571,0.188254,0.329159,7,0.0182173,11,6.19654e-05,-3.48259,-0.286593,-0.205867,-2.64253,0.188254,
2,1,0,0,0,8386.67,0.19007,0.189726,0.326422,7,0.0183205,11,6.19307e-05,-3.48622,-0.384177,-0.153575,-1.94887,0.189726,
2,1,0,0,0,8386.97,0.191568,0.19127,0.321403,7,0.0184225,11,6.14747e-05,-3.49295,-0.312065,-0.189063,-2.37868,0.19127,
2,1,0,1,0,8387.27,0.193067,0.192762,0.318811,7,0.0185237,11,6.14548e-05,-3.49647,-0.667137,-0.0884376,-1.09892,0.192762,
2,1,0,1,0,8387.56,0.194564,0.194278,0.315981,7,0.0186241,11,6.13883e-05,-3.50034,-0.440469,-0.133948,-1.65475,0.1942784,
2,1,0,1,0,8387.86,0.196062,0.195757,0.311447,7,0.0187236,11,6.09681e-05,-3.50662,-0.357351,-0.165104,-2.0263,0.1957574,
2,1,0,1,0,8388.16,0.197561,0.197241,0.308543,7,0.0188222,11,6.08574e-05,-3.51068,-0.416868,-0.141532,-1.71618,0.197241,
2,1,0,1,0,8388.46,0.199059,0.198759,0.30771,7,0.0189201,11,6.116e-05,-3.51186,-0.607306,-0.0971503,-1.16814,0.198759,
2,1,0,1,0,8388.76,0.200557,0.200248,0.305896,7,0.0190174,11,6.12552e-05,-3.51443,-0.409976,-0.143911,-1.71649,0.200248,
2,1,0,1,0,8389.06,0.202056,0.201759,0.304194,7,0.0191141,11,6.13737e-05,-3.51685,-0.452038,-0.13052,-1.54428,0.201759,
2,1,0,1,0,8389.36,0.203553,0.203269,0.300611,7,0.0192101,11,6.1105e-05,-3.52199,-0.674304,-0.0874976,-1.03132,0.203269,
2,1,0,1,0,8389.66,0.205051,0.20473,0.299152,7,0.0193054,11,6.12454e-05,-3.52411,-1.02644,-0.0574803,-0.677468,0.20473,
2,1,0,0,0,8389.96,0.20655,0.206257,0.298483,7,0.0194003,11,6.1564e-05,-3.52508,-0.519823,-0.1135,-1.32499,0.206257,
2,1,0,0,0,8390.26,0.208048,0.207778,0.296311,7,0.0194951,11,6.15669e-05,-3.52825,-0.409426,-0.144104,-1.66193,0.207778,
2,1,0,1,0,8390.56,0.209547,0.209253,0.295197,7,0.0195891,11,6.17709e-05,-3.52989,-0.577188,-0.10222,-1.17854,0.209253,
2,1,0,1,0,8390.86,0.211044,0.210773,0.294068,7,0.0196823,11,6.19816e-05,-3.53155,-0.72383,-0.0815108,-0.933132,0.210773,
2,1,0,1,0,8391.16,0.212542,0.212194,0.292942,7,0.0197753,11,6.21603e-05,-3.53322,-0.97528,-0.0604955,-0.689913,0.212194,
2,1,0,1,0,8391.46,0.214041,0.21375,0.290684,7,0.0198679,11,6.21336e-05,-3.53658,-0.705768,-0.0835968,-0.948792,0.21375,
2,1,0,1,0,8391.76,0.215539,0.215264,0.289418,7,0.0199601,11,6.23012e-05,-3.53847,-0.746477,-0.0790379,-0.895872,0.215264,
2,1,0,1,0,8392.06,0.217038,0.216721,0.288336,7,0.0200517,11,6.24884e-05,-3.5401,-0.788943,-0.0747836,-0.842483,0.216721,
2,1,0,1,0,8392.36,0.218535,0.218271,0.287324,7,0.0201432,11,6.27146e-05,-3.54163,-1.70577,-0.0345885,-0.387405,0.218271,
2,1,0,1,0,8392.66,0.220033,0.219777,0.286055,7,0.0202344,11,6.28682e-05,-3.54355,-0.751105,-0.0785509,-0.876649,0.219777,
2,1,0,0,0,8392.96,0.221532,0.221219,0.286175,7,0.0203253,11,6.33073e-05,-3.54337,-0.536623,-0.109947,-1.22652,0.221219,
2,1,0,0,0,8393.26,0.22303,0.222711,0.281693,7,0.0204156,11,6.27361e-05,-3.55022,-1.1557,-0.0510513,-0.565525,0.222711,
2,1,0,1,0,8393.56,0.224529,0.224251,0.283419,7,0.0205057,11,6.35571e-05,-3.54757,-0.864952,-0.0682119,-0.753331,0.224251,
2,1,0,1,0,8393.86,0.226026,0.225686,0.282595,7,0.0205956,11,6.37777e-05,-3.54884,-0.848121,-0.0695656,-0.764475,0.225686,
2,1,0,1,0,8394.16,0.227524,0.227249,0.280604,7,0.0206851,11,6.3767e-05,-3.55191,-0.693612,-0.0850619,-0.931415,0.227249,
2,1,0,1,0,8394.46,0.229023,0.228737,0.279217,7,0.0207744,11,6.38674e-05,-3.55406,-0.702263,-0.0840142,-0.916918,0.228737,
2,1,0,1,0,8394.76,0.230521,0.230222,0.278928,7,0.0208632,11,6.42153e-05,-3.55451,-1.48187,-0.0398146,-0.434505,0.230222,
2,1,0,1,0,8395.06,0.232019,0.231695,0.279004,7,0.020952,11,6.46438e-05,-3.55439,-0.834533,-0.0706982,-0.768105,0.231695,
2,1,0,1,0,8395.36,0.233518,0.233198,0.277094,7,0.0210407,11,6.46177e-05,-3.55737,-0.48388,-0.121931,-1.31575,0.233198,
2,1,0,1,0,8395.65,0.235015,0.23471,0.277159,7,0.0211289,11,6.50521e-05,-3.55727,-1.16772,-0.050526,-0.545368,0.23471,
2,1,0,1,0,8395.95,0.236513,0.236256,0.275981,7,0.0212167,11,6.52021e-05,-3.55912,-1.24692,-0.0473167,-0.509549,0.236256,
2,1,0,0,0,8396.25,0.238012,0.237732,0.275593,7,0.0213046,11,6.55173e-05,-3.55973,-0.975342,-0.0604916,-0.649447,0.2377317,
2,1,0,0,0,8396.55,0.23951,0.239205,0.274976,7,0.0213922,11,6.57756e-05,-3.5607,-1.17855,-0.0500614,-0.537,0.2392046,
2,1,0,1,0,8396.85,0.241009,0.240739,0.273519,7,0.0214796,11,6.58467e-05,-3.56301,-1.21869,-0.0484128,-0.518515,0.240739,
2,1,0,1,0,8397.15,0.242506,0.242179,0.273763,7,0.0215666,11,6.62996e-05,-3.56263,-1.17008,-0.0504238,-0.539634,0.242179,
2,1,0,1,0,8397.45,0.244004,0.243721,0.272961,7,0.0216536,11,6.65263e-05,-3.5639,-6.07468,-0.00971244,-0.103395,0.243721,
2,1,0,1,0,8397.75,0.245503,0.245226,0.272587,7,0.0217406,11,6.68454e-05,-3.56449,-1.46803,-0.0401898,-0.428316,0.245226,
2,1,0,1,0,8398.05,0.247001,0.246713,0.272553,7,0.0218272,11,6.72425e-05,-3.56455,-0.963367,-0.0612435,-0.649205,0.246713,
2,1,0,1,0,8398.35,0.2485,0.2482,0.269823,7,0.0219137,11,6.69701e-05,-3.56892,-0.91765,-0.0642947,-0.678308,0.2482003,
2,1,0,1,0,8398.65,0.249997,0.249687,0.271532,7,0.0219999,11,6.77979e-05,-3.56618,-1.59427,-0.0370075,-0.389622,0.249687,
2,1,0,1,0,8398.95,0.251495,0.251215,0.269636,7,0.022086,11,6.77367e-05,-3.56922,-1.72822,-0.0341392,-0.359228,0.251215,
2,1,0,0,0,8399.25,0.252994,0.252654,0.268207,7,0.022172,11,6.77635e-05,-3.57153,-0.702585,-0.0839757,-0.880142,0.252654,
2,1,0,0,0,8399.55,0.254492,0.254227,0.268524,7,0.0222578,11,6.82661e-05,-3.57102,-1.6838,-0.0350398,-0.367589,0.254227,
2,1,0,1,0,8399.85,0.255991,0.255715,0.267549,7,0.0223433,11,6.84164e-05,-3.5726,4.5878,0.0128602,0.134788,0.255715,
2,1,0,1,0,8400.15,0.257488,0.257223,0.267293,7,0.0224288,11,6.87537e-05,-3.57301,-1.2548,-0.0470193,-0.490948,0.257223,
2,1,0,1,0,8400.45,0.258986,0.2587,0.267097,7,0.0225142,11,6.90981e-05,-3.57333,-1.04485,-0.0564674,-0.587367,0.2587,
2,1,0,1,0,8400.75,0.260485,0.260232,0.266419,7,0.0225994,11,6.93309e-05,-3.57443,-3.34997,-0.0176121,-0.182819,0.260232,
2,1,0,1,0,8401.05,0.261983,0.261679,0.266309,7,0.0226843,11,6.96874e-05,-3.57461,-1.0891,-0.054173,-0.561265,0.261679,
2,1,0,1,0,8401.35,0.263481,0.263206,0.266013,7,0.0227692,11,7.00162e-05,-3.5751,-2.60823,-0.0226207,-0.23409,0.263206,
2,1,0,1,0,8401.65,0.26498,0.264702,0.264835,7,0.022854,11,7.01024e-05,-3.57702,4.64104,0.0127127,0.131655,0.264702,
2,1,0,1,0,8401.95,0.266477,0.266165,0.264586,7,0.0229387,11,7.04237e-05,-3.57743,-0.948656,-0.0621933,-0.644752,0.266165,
2,1,0,0,0,8402.25,0.267976,0.267695,0.264167,7,0.023023,11,7.07159e-05,-3.57812,-2.09911,-0.0281071,-0.290647,0.267695,
2,1,0,0,0,8402.55,0.269474,0.26916,0.263959,7,0.0231074,11,7.10473e-05,-3.57846,1.86207,0.0316851,0.325824,0.26916,
2,1,0,0,0,8402.85,0.270972,0.270666,0.265163,7,0.0231916,11,7.17706e-05,-3.57649,-1.9794,-0.029807,-0.30665,0.270666,
2,1,0,1,0,8403.15,0.27247,0.272134,0.263398,7,0.0232758,11,7.16794e-05,-3.57939,-1.8342,-0.0321665,-0.329893,0.272134,
2,1,0,1,0,8403.45,0.273968,0.273624,0.261203,7,0.0233597,11,7.14714e-05,-3.58302,-2.06933,-0.0285117,-0.292114,0.273624,
2,1,0,1,0,8403.75,0.275466,0.275195,0.262616,7,0.0234434,11,7.22706e-05,-3.58068,-2.15029,-0.0274382,-0.280481,0.275195,
2,1,0,1,0,8404.04,0.276965,0.276727,0.261622,7,0.0235272,11,7.23978e-05,-3.58233,-1.61861,-0.0364509,-0.373,0.276727,
2,1,0,1,0,8404.34,0.278463,0.278185,0.261262,7,0.0236109,11,7.26793e-05,-3.58292,-0.714582,-0.0825658,-0.840909,0.278185,
2,1,0,1,0,8404.64,0.279962,0.279661,0.261601,7,0.0236944,11,7.31594e-05,-3.58236,-3.21987,-0.0183237,-0.186964,0.279661,
2,1,0,1,0,8404.94,0.281459,0.281169,0.261091,7,0.0237776,11,7.34107e-05,-3.58321,-2.75204,-0.0214387,-0.218179,0.281169,
2,1,0,1,0,8405.24,0.282957,0.282699,0.260457,7,0.0238609,11,7.3631e-05,-3.58426,-1.97107,-0.029933,-0.304225,0.282699,
2,1,0,0,0,8405.54,0.284456,0.284187,0.260624,7,0.0239442,11,7.4066e-05,-3.58399,-1.6084,-0.0366823,-0.371275,0.284187,
2,1,0,0,0,8405.84,0.285954,0.285659,0.259453,7,0.0240272,11,7.41151e-05,-3.58594,-1.85942,-0.0317303,-0.32065,0.2856589,
2,1,0,0,0,8406.14,0.287452,0.287178,0.258639,7,0.0241099,11,7.42754e-05,-3.58731,-1.74914,-0.0337309,-0.340403,0.287178,
2,1,0,1,0,8406.44,0.28895,0.288646,0.258633,7,0.0241927,11,7.46534e-05,-3.58732,1.93515,0.0304886,0.30665,0.288646,
2,1,0,1,0,8406.74,0.290448,0.290138,0.257391,7,0.0242754,11,7.4679e-05,-3.58941,-2.98434,-0.0197699,-0.199555,0.2901378,
2,1,0,1,0,8407.04,0.291947,0.291629,0.256958,7,0.024358,11,7.49365e-05,-3.59014,-1.58147,-0.037307,-0.376925,0.291629,
2,1,0,1,0,8407.34,0.293445,0.293142,0.256659,7,0.0244403,11,7.52377e-05,-3.59064,-1.85446,-0.0318152,-0.320404,0.2931422,
2,1,0,1,0,8407.64,0.294943,0.294613,0.257288,7,0.0245225,11,7.58003e-05,-3.58958,-2.49592,-0.0236386,-0.236555,0.294613,
2,1,0,1,0,8407.94,0.296442,0.296165,0.258448,7,0.0246048,11,7.65431e-05,-3.58763,-4.36402,-0.0135197,-0.135112,0.2961646,
2,1,0,1,0,8408.24,0.297939,0.297654,0.256638,7,0.0246869,11,7.63893e-05,-3.59068,4.83819,0.0121946,0.122208,0.297654,
2,1,0,1,0,8408.54,0.299437,0.299112,0.254513,7,0.0247689,11,7.61279e-05,-3.59429,-0.00181463,-32.5134,-128.343,0.299112,
2,1,0,1,0,8408.71,0.299737,0.29944,0.0642789,7,0.024804,11,1.92477e-05,-4.19193,0.000368999,159.892,219.377,0.29944,
2,1,0,1,0,8409.01,0.29824,0.298008,0.00664812,7,0.024806,11,1.98119e-06,-5.1773,0.00298677,19.7538,74.6024,0.298008,
2,0,0,0,0,8409.31,0.296741,0.296457,-0.00935848,7,0.0248001,11,-2.77439e-06,-5.02879,-0.0190324,-3.09998,9.11298,0.296457,
2,0,0,0,0,8409.61,0.295243,0.294922,-0.0204061,7,0.0247901,11,-6.0182e-06,-4.69024,-0.00505965,-11.6609,6.41998,0.294922,
2,0,0,1,0,8409.91,0.293744,0.293466,-0.0288421,7,0.0247773,11,-8.4642e-06,-4.53997,-0.0105559,-5.58931,5.584,0.293466,
2,0,0,1,0,8410.21,0.292246,0.291929,-0.0366959,7,0.0247623,11,-1.07126e-05,-4.43538,-0.017152,-3.43983,4.61103,0.291929,
2,0,0,1,0,8410.51,0.290749,0.290425,-0.0427516,7,0.0247453,11,-1.24161e-05,-4.36905,-0.0228769,-2.57902,4.19441,0.290425,
2,0,0,1,0,8410.81,0.28925,0.288999,-0.048524,7,0.0247263,11,-1.40234e-05,-4.31404,-0.0294201,-2.00543,3.71033,0.288999,
2,0,0,1,0,8411.11,0.287752,0.287441,-0.053369,7,0.0247059,11,-1.53405e-05,-4.27271,-0.0382023,-1.54441,3.19246,0.287441,
2,0,0,1,0,8411.41,0.286253,0.285947,-0.0577386,7,0.0246842,11,-1.65102e-05,-4.23853,-0.0439414,-1.3427,3.01469,0.2859467,
2,0,0,1,0,8411.71,0.284755,0.284472,-0.0615766,7,0.0246609,11,-1.75168e-05,-4.21058,-0.0425931,-1.3852,3.31339,0.284472,
2,0,0,1,0,8412.01,0.283257,0.282933,-0.0664601,7,0.0246363,11,-1.88038e-05,-4.17744,-0.0573178,-1.02935,2.64974,0.282933,
2,0,0,0,0,8412.31,0.281759,0.281454,-0.0704449,7,0.0246106,11,-1.9827e-05,-4.15215,-0.0580871,-1.01572,2.76626,0.281454,
2,0,0,0,0,8412.61,0.280261,0.279987,-0.0716927,7,0.0245839,11,-2.0073e-05,-4.14453,-0.0688488,-0.85695,2.46369,0.279987,
2,0,0,0,0,8412.9,0.278763,0.278473,-0.0770079,7,0.0245562,11,-2.14446e-05,-4.11346,-0.0865856,-0.681407,2.05109,0.278473,
2,0,0,1,0,8413.2,0.277264,0.276976,-0.0809553,7,0.0245273,11,-2.24227e-05,-4.09175,-0.100315,-0.588148,1.85258,0.276976,
2,0,0,1,0,8413.5,0.275766,0.275433,-0.0831227,7,0.0244974,11,-2.28948e-05,-4.08028,-0.121307,-0.486367,1.56749,0.275433,
2,0,0,1,0,8413.8,0.274269,0.273951,-0.0860676,7,0.0244667,11,-2.35783e-05,-4.06516,-0.0979977,-0.602055,2.02355,0.273951,
2,0,0,1,0,8414.1,0.27277,0.27244,-0.0899244,7,0.0244352,11,-2.4499e-05,-4.04612,-0.0933554,-0.631994,2.22653,0.27244,
2,0,0,1,0,8414.4,0.271272,0.27096,-0.0912152,7,0.0244027,11,-2.47156e-05,-4.03993,-0.129338,-0.45617,1.64597,0.27096,
2,0,0,1,0,8414.7,0.269773,0.26948,-0.0953781,7,0.0243692,11,-2.57025e-05,-4.02055,-0.108947,-0.541546,1.99836,0.2694799,
2,0,0,1,0,8415,0.268275,0.267972,-0.0976185,7,0.024335,11,-2.6159e-05,-4.01047,-0.120241,-0.490681,1.86263,0.267972,
2,0,0,1,0,8415.3,0.266778,0.266449,-0.10028,7,0.0243002,11,-2.67195e-05,-3.99879,-0.125286,-0.470922,1.83585,0.266449,
2,0,0,0,0,8415.6,0.265279,0.265018,-0.102924,7,0.0242645,11,-2.72768e-05,-3.98748,-0.114988,-0.513095,2.05064,0.265018,
2,0,0,0,0,8415.9,0.263781,0.263484,-0.105017,7,0.024228,11,-2.76702e-05,-3.97874,-0.155059,-0.380501,1.57137,0.263484,
2,0,0,1,0,8416.2,0.262282,0.262001,-0.107653,7,0.0241907,11,-2.82052e-05,-3.96797,-0.138576,-0.42576,1.79852,0.262001,
2,0,0,1,0,8416.5,0.260784,0.260502,-0.108991,7,0.024153,11,-2.83924e-05,-3.96261,-0.131379,-0.449081,1.94103,0.260502,
2,0,0,1,0,8416.8,0.259286,0.258989,-0.112159,7,0.0241143,11,-2.90479e-05,-3.95017,-0.126812,-0.465257,2.0426,0.258989,
2,0,0,1,0,8417.1,0.257788,0.25749,-0.11627,7,0.0240749,11,-2.99384e-05,-3.93453,-0.17934,-0.328984,1.47481,0.25749,
2,0,0,1,0,8417.4,0.25629,0.25601,-0.117312,7,0.0240347,11,-3.00329e-05,-3.93066,-0.201087,-0.293405,1.33817,0.25601,
2,0,0,1,0,8417.7,0.254791,0.254444,-0.118111,7,0.0239941,11,-3.00528e-05,-3.92771,-0.199323,-0.296002,1.37373,0.254444,
2,0,0,1,0,8418,0.253293,0.252995,-0.122517,7,0.0239528,11,-3.09961e-05,-3.91181,-0.186598,-0.316188,1.49527,0.252995,
2,0,0,1,0,8418.3,0.251795,0.251517,-0.12384,7,0.0239108,11,-3.11479e-05,-3.90714,-0.195782,-0.301355,1.46513,0.251517,
2,0,0,0,0,8418.6,0.250297,0.250004,-0.125245,7,0.0238681,11,-3.13117e-05,-3.90224,-0.287345,-0.205328,1.00541,0.250004,
2,0,0,0,0,8418.9,0.248799,0.248469,-0.127895,7,0.0238248,11,-3.17779e-05,-3.89315,-0.272364,-0.216622,1.08358,0.248469,
2,0,0,0,0,8419.2,0.247301,0.247012,-0.130478,7,0.023781,11,-3.22296e-05,-3.88446,-0.193839,-0.304376,1.5602,0.247012,
2,0,0,1,0,8419.5,0.245802,0.245512,-0.133678,7,0.0237364,11,-3.28194e-05,-3.87394,-0.225164,-0.262031,1.35039,0.245512,
2,0,0,1,0,8419.8,0.244304,0.244019,-0.13476,7,0.0236911,11,-3.2884e-05,-3.87044,-0.234237,-0.251882,1.31261,0.244019,
2,0,0,1,0,8420.1,0.242806,0.242505,-0.137407,7,0.0236452,11,-3.33219e-05,-3.86199,-0.275303,-0.214309,1.13758,0.242505,
2,0,0,1,0,8420.4,0.241308,0.240983,-0.139034,7,0.0235989,11,-3.35049e-05,-3.85688,-0.209395,-0.281765,1.52923,0.240983,
2,0,0,1,0,8420.7,0.23981,0.239517,-0.140125,7,0.0235519,11,-3.35623e-05,-3.85349,-0.202395,-0.29151,1.58936,0.239517,
2,0,0,1,0,8420.99,0.238311,0.238005,-0.141854,7,0.0235042,11,-3.3762e-05,-3.84816,-0.264894,-0.222731,1.24199,0.238005,
2,0,0,1,0,8421.29,0.236813,0.236492,-0.14389,7,0.0234559,11,-3.4029e-05,-3.84197,-0.228041,-0.258726,1.45738,0.236492,
2,0,0,1,0,8421.59,0.235316,0.235003,-0.145146,7,0.0234072,11,-3.41097e-05,-3.8382,-0.236632,-0.249332,1.42352,0.235003,
2,0,0,0,0,8421.89,0.233817,0.233523,-0.148555,7,0.0233577,11,-3.46909e-05,-3.82811,-0.218143,-0.270465,1.55917,0.233523,
2,0,0,0,0,8422.19,0.232319,0.231978,-0.151188,7,0.0233076,11,-3.50724e-05,-3.82048,-0.247444,-0.238438,1.39752,0.231978,
2,0,0,1,0,8422.49,0.23082,0.230517,-0.152878,7,0.0232569,11,-3.52411e-05,-3.81565,-0.313897,-0.18796,1.11444,0.230517,
2,0,0,1,0,8422.79,0.229322,0.22904,-0.152696,7,0.0232056,11,-3.49735e-05,-3.81617,-0.271073,-0.217653,1.30985,0.22904,
2,0,0,1,0,8423.09,0.227825,0.22753,-0.155414,7,0.0231539,11,-3.53614e-05,-3.80851,-0.225963,-0.261105,1.60247,0.22753,
2,0,0,1,0,8423.39,0.226326,0.226018,-0.15791,7,0.0231014,11,-3.56905e-05,-3.80159,-0.234157,-0.251967,1.55852,0.226018,
2,0,0,1,0,8423.69,0.224828,0.224538,-0.159955,7,0.0230482,11,-3.5916e-05,-3.796,-0.493144,-0.11964,0.749399,0.224538,
2,0,0,1,0,8423.99,0.223329,0.22301,-0.162798,7,0.0229944,11,-3.63056e-05,-3.78835,-0.292793,-0.201508,1.28018,0.22301,
2,0,0,1,0,8424.29,0.221831,0.221522,-0.16564,7,0.0229403,11,-3.66929e-05,-3.78083,-0.248905,-0.237038,1.5273,0.221522,
2,0,0,1,0,8424.59,0.220333,0.220012,-0.167524,7,0.0228852,11,-3.68574e-05,-3.77592,-0.267023,-0.220955,1.43647,0.220012,
2,0,0,0,0,8424.89,0.218835,0.218554,-0.170123,7,0.0228294,11,-3.71811e-05,-3.76924,-0.256071,-0.230405,1.51922,0.218554,
2,0,0,0,0,8425.19,0.217337,0.217038,-0.170823,7,0.0227731,11,-3.7075e-05,-3.76745,-0.216242,-0.272842,1.82685,0.217038,
2,0,0,0,0,8425.49,0.215839,0.215524,-0.173121,7,0.0227164,11,-3.73116e-05,-3.76165,-0.227533,-0.259303,1.76503,0.215524,
2,0,0,1,0,8425.79,0.21434,0.214048,-0.176496,7,0.0226587,11,-3.77787e-05,-3.75327,-0.197274,-0.299076,2.04733,0.214048,
2,0,0,1,0,8426.09,0.212842,0.212507,-0.178337,7,0.0226003,11,-3.78979e-05,-3.74876,-0.207503,-0.284333,1.98551,0.212507,
2,0,0,1,0,8426.39,0.211344,0.211035,-0.179564,7,0.0225412,11,-3.78943e-05,-3.74578,-0.24216,-0.24364,1.71927,0.211035,
2,0,0,1,0,8426.69,0.209846,0.209539,-0.181621,7,0.0224816,11,-3.80567e-05,-3.74083,-0.239926,-0.245909,1.76082,0.209539,
2,0,0,1,0,8426.99,0.208348,0.208102,-0.185663,7,0.0224213,11,-3.86369e-05,-3.73127,-0.250952,-0.235105,1.70243,0.208102,
2,0,0,1,0,8427.29,0.206849,0.206542,-0.191008,7,0.0223599,11,-3.94512e-05,-3.71895,-0.249913,-0.236082,1.7275,0.206542,
2,0,0,1,0,8427.59,0.205351,0.205031,-0.19077,7,0.0222977,11,-3.91137e-05,-3.71949,-0.297524,-0.198303,1.46769,0.2050308,
2,0,0,1,0,8427.89,0.203854,0.203495,-0.193307,7,0.022235,11,-3.93371e-05,-3.71375,-0.300783,-0.196155,1.48543,0.203495,
2,0,0,0,0,8428.19,0.202355,0.202041,-0.194593,7,0.0221715,11,-3.93158e-05,-3.71087,-0.25285,-0.23334,1.79597,0.202041,
2,0,0,0,0,8428.49,0.200857,0.20057,-0.199094,7,0.0221071,11,-3.99323e-05,-3.70094,-0.255893,-0.230565,1.79658,0.20057,
2,0,0,1,0,8428.79,0.199358,0.199064,-0.202561,7,0.0220418,11,-4.03226e-05,-3.69344,-0.280102,-0.210637,1.65904,0.199064,
2,0,0,1,0,8429.09,0.19786,0.197578,-0.205157,7,0.0219758,11,-4.05345e-05,-3.68791,-0.190194,-0.31021,2.47096,0.197578,
2,0,0,1,0,8429.38,0.196363,0.196071,-0.208213,7,0.0219089,11,-4.08245e-05,-3.68149,-0.205883,-0.28657,2.31546,0.196071,
2,0,0,1,0,8429.68,0.194864,0.194584,-0.211191,7,0.0218409,11,-4.10943e-05,-3.67533,-0.207588,-0.284216,2.32742,0.194584,
2,0,0,1,0,8429.98,0.193366,0.193035,-0.214519,7,0.0217716,11,-4.14096e-05,-3.66853,-0.214292,-0.275325,2.30376,0.193035,
2,0,0,1,0,8430.28,0.191867,0.191553,-0.217307,7,0.0217015,11,-4.16258e-05,-3.66293,-0.243198,-0.2426,2.08388,0.191553,
2,0,0,1,0,8430.58,0.190369,0.190102,-0.220282,7,0.0216305,11,-4.18761e-05,-3.65702,-0.230959,-0.255457,2.21539,0.190102,
2,0,0,1,0,8430.88,0.188871,0.188542,-0.225988,7,0.0215581,11,-4.26081e-05,-3.64592,-0.169034,-0.349042,3.07988,0.188542,
2,0,0,0,0,8431.18,0.187373,0.18707,-0.229416,7,0.0214845,11,-4.29168e-05,-3.63938,-0.204601,-0.288366,2.59543,0.18707,
2,0,0,0,0,8431.48,0.185875,0.185577,-0.234442,7,0.0214095,11,-4.3507e-05,-3.62996,-0.172468,-0.342092,3.12548,0.185577,
2,0,0,0,0,8431.78,0.184377,0.184105,-0.237944,7,0.0213333,11,-4.38066e-05,-3.62353,-0.161333,-0.365704,3.40498,0.184105,
2,0,0,1,0,8432.08,0.182878,0.182616,-0.244956,7,0.0212556,11,-4.47329e-05,-3.61091,-0.162777,-0.362458,3.45924,0.182616,
2,0,0,1,0,8432.38,0.181381,0.181114,-0.25033,7,0.0211761,11,-4.53382e-05,-3.60149,-0.139906,-0.421712,4.1215,0.181114,
2,0,0,1,0,8432.68,0.179882,0.179566,-0.255599,7,0.021095,11,-4.5897e-05,-3.59244,-0.182142,-0.323923,3.23503,0.179566,
2,0,0,1,0,8432.98,0.178384,0.178042,-0.261586,7,0.0210121,11,-4.65734e-05,-3.58239,-0.143205,-0.411996,4.21844,0.178042,
2,0,0,1,0,8433.28,0.176886,0.17658,-0.268586,7,0.0209275,11,-4.7427e-05,-3.57092,-0.134076,-0.44005,4.62766,0.17658,
2,0,0,1,0,8433.58,0.175387,0.175051,-0.275315,7,0.0208406,11,-4.81941e-05,-3.56017,-0.121446,-0.485812,5.23606,0.175051,
2,0,0,1,0,8433.88,0.173889,0.173601,-0.284069,7,0.0207514,11,-4.93146e-05,-3.54658,-0.128172,-0.46032,5.11651,0.173601,
2,0,0,1,0,8434.18,0.172392,0.172073,-0.292961,7,0.0206597,11,-5.04105e-05,-3.53319,-0.113389,-0.520332,5.94687,0.172073,
2,0,0,0,0,8434.48,0.170893,0.170602,-0.301756,7,0.0205655,11,-5.148e-05,-3.52034,-0.105494,-0.559276,6.60184,0.170602,
2,0,0,0,0,8434.78,0.169395,0.169077,-0.312404,7,0.0204683,11,-5.28203e-05,-3.50528,-0.0933135,-0.632277,7.69531,0.169077,
2,0,0,1,0,8435.08,0.167896,0.167622,-0.322941,7,0.0203676,11,-5.41321e-05,-3.49088,-0.0925932,-0.637196,8.08496,0.167622,
2,0,0,1,0,8435.38,0.166398,0.166089,-0.33689,7,0.0202635,11,-5.59535e-05,-3.47251,-0.092432,-0.638307,8.40647,0.166089,
2,0,0,1,0,8435.68,0.164901,0.164585,-0.347791,7,0.0201557,11,-5.72414e-05,-3.45868,-0.0820304,-0.719245,9.85319,0.164585,
2,0,0,1,0,8435.98,0.163402,0.163076,-0.363576,7,0.0200436,11,-5.92905e-05,-3.4394,-0.0755757,-0.780675,11.1141,0.163076,
2,0,0,1,0,8436.28,0.161904,0.161609,-0.381556,7,0.0199266,11,-6.1663e-05,-3.41844,-0.0745473,-0.791444,11.786,0.161609,
2,0,0,1,0,8436.58,0.160405,0.160138,-0.39987,7,0.0198043,11,-6.40344e-05,-3.39808,-0.074659,-0.79026,12.3006,0.1601382,
2,0,0,1,0,8436.88,0.158907,0.158613,-0.417338,7,0.0196764,11,-6.6195e-05,-3.37951,-0.0675914,-0.872892,14.3359,0.158613,
2,0,0,1,0,8437.18,0.157409,0.157083,-0.440857,7,0.0195425,11,-6.9251e-05,-3.3557,-0.0641712,-0.919416,15.9151,0.157083,
2,0,0,0,0,8437.48,0.155911,0.155614,-0.464941,7,0.0194013,11,-7.23513e-05,-3.3326,-0.0640942,-0.92052,16.8224,0.155614,
2,0,0,0,0,8437.77,0.154413,0.154118,-0.490808,7,0.0192524,11,-7.56421e-05,-3.30909,-0.0662145,-0.891044,17.0699,0.1541176,
2,0,0,0,0,8438.07,0.152915,0.152563,-0.519727,7,0.0190958,11,-7.92912e-05,-3.28422,-0.0642477,-0.918321,18.6319,0.152563,
2,0,0,1,0,8438.37,0.151416,0.151115,-0.546408,7,0.0189311,11,-8.25707e-05,-3.26248,-0.0653482,-0.902856,19.2933,0.151115,
2,0,0,1,0,8438.67,0.149919,0.149571,-0.577925,7,0.0187573,11,-8.64407e-05,-3.23813,-0.0642252,-0.918642,20.6436,0.1495707,
2,0,0,1,0,8438.97,0.14842,0.148171,-0.607756,7,0.0185742,11,-9.00517e-05,-3.21627,-0.0696897,-0.84661,20.0502,0.148171,
2,0,0,1,0,8439.27,0.146922,0.146644,-0.638959,7,0.0183822,11,-9.36994e-05,-3.19453,-0.0735951,-0.801684,19.9226,0.146644,
2,0,0,1,0,8439.57,0.145424,0.145123,-0.66694,7,0.0181815,11,-9.67885e-05,-3.17591,-0.0781055,-0.755388,19.6716,0.145123,
2,0,0,1,0,8439.87,0.143925,0.14361,-0.696819,7,0.0179716,11,-0.00010007,-3.15688,-0.0823179,-0.716734,19.4016,0.14361,
2,0,0,1,0,8440.17,0.142427,0.142115,-0.725319,7,0.0177527,11,-0.000103079,-3.13947,-0.0944075,-0.62495,17.623,0.142115,
2,0,0,1,0,8440.47,0.14093,0.140613,-0.74825,7,0.0175264,11,-0.000105213,-3.12595,-0.118892,-0.49625,14.4771,0.140613,
2,0,0,0,0,8440.77,0.139431,0.139122,-0.767277,7,0.0172933,11,-0.000106745,-3.11505,-0.128308,-0.459833,13.7973,0.139122,
2,0,0,0,0,8441.07,0.137933,0.137627,-0.792777,7,0.0170542,11,-0.000109108,-3.10085,-0.154068,-0.382948,11.776,0.1376272,
2,0,0,1,0,8441.37,0.136434,0.136137,-0.809115,7,0.016809,11,-0.000110151,-3.09199,-0.186136,-0.316972,9.93813,0.136137,
2,0,0,1,0,8441.67,0.134936,0.134648,-0.822471,7,0.0165596,11,-0.000110744,-3.08488,-0.285709,-0.206504,6.5751,0.134648,
2,0,0,1,0,8441.97,0.133439,0.133131,-0.828311,7,0.0163069,11,-0.000110274,-3.08181,-0.351651,-0.16778,5.42243,0.133131,
2,0,0,1,0,8442.27,0.13194,0.13164,-0.835822,7,0.0160522,11,-0.000110028,-3.07789,-0.459435,-0.128419,4.19401,0.13164,
2,0,0,1,0,8442.57,0.130442,0.130143,-0.840048,7,0.0157955,11,-0.000109326,-3.0757,-0.841194,-0.0701384,2.29525,0.130143,
2,0,0,1,0,8442.87,0.128943,0.128632,-0.842458,7,0.0155374,11,-0.000108367,-3.07445,2.01342,0.0293033,-0.958454,0.128632,
2,0,0,1,0,8443.17,0.127445,0.127122,-0.841107,7,0.0152797,11,-0.000106924,-3.07515,1.09556,0.0538536,-1.76403,0.127122,
2,0,0,1,0,8443.47,0.125947,0.125643,-0.838503,7,0.0150235,11,-0.000105352,-3.0765,0.695234,0.0848635,-2.76711,0.125643,
2,0,0,0,0,8443.77,0.124449,0.124166,-0.833222,7,0.0147677,11,-0.000103458,-3.07924,0.564762,0.104469,-3.38308,0.1241664,
2,0,0,0,0,8444.07,0.122951,0.122649,-0.826637,7,0.0145138,11,-0.000101386,-3.08269,0.388709,0.151784,-4.88496,0.122649,
2,0,0,0,0,8444.37,0.121453,0.121195,-0.818829,7,0.0142622,11,-9.92381e-05,-3.08681,0.301407,0.195749,-6.23818,0.121195,
2,0,0,1,0,8444.67,0.119954,0.119684,-0.806644,7,0.0140135,11,-9.65422e-05,-3.09332,0.307548,0.19184,-6.06126,0.119684,
2,0,0,1,0,8444.97,0.118456,0.118165,-0.800162,7,0.0137673,11,-9.45507e-05,-3.09682,0.316047,0.186681,-5.81135,0.118165,
2,0,0,1,0,8445.27,0.116958,0.116642,-0.790057,7,0.0135236,11,-9.21537e-05,-3.10234,0.23746,0.248463,-7.64652,0.116642,
2,0,0,1,0,8445.57,0.11546,0.115129,-0.777191,7,0.0132836,11,-8.94769e-05,-3.10947,0.206036,0.286358,-8.67354,0.115129,
2,0,0,1,0,8445.86,0.113962,0.113625,-0.762342,7,0.0130474,11,-8.66211e-05,-3.11785,0.227,0.259912,-7.75388,0.113625,
2,0,0,1,0,8446.16,0.112463,0.112146,-0.753707,7,0.012815,11,-8.45255e-05,-3.1228,0.206238,0.286077,-8.4001,0.112146,
2,0,0,1,0,8446.46,0.110965,0.110652,-0.739717,7,0.012586,11,-8.18509e-05,-3.13093,0.19512,0.302377,-8.72358,0.110652,
2,0,0,1,0,8446.76,0.109468,0.109154,-0.727937,7,0.0123607,11,-7.94569e-05,-3.13791,0.173852,0.339369,-9.61843,0.109154,
2,0,0,0,0,8447.06,0.107969,0.107669,-0.713304,7,0.0121394,11,-7.68005e-05,-3.14673,0.188944,0.312261,-8.73075,0.107669,
2,0,0,0,0,8447.36,0.106471,0.106204,-0.702235,7,0.0119223,11,-7.45803e-05,-3.15352,0.211914,0.278415,-7.65125,0.106204,
2,0,0,1,0,8447.66,0.104972,0.104682,-0.689742,7,0.0117084,11,-7.22038e-05,-3.16131,0.199493,0.29575,-7.97133,0.104682,
2,0,0,1,0,8447.96,0.103474,0.103164,-0.67908,7,0.0114978,11,-7.00566e-05,-3.16808,0.18645,0.316439,-8.36568,0.103164,
2,0,0,1,0,8448.26,0.101977,0.101676,-0.669138,7,0.011291,11,-6.80355e-05,-3.17448,0.202635,0.291163,-7.58797,0.101676,
2,0,0,1,0,8448.56,0.100478,0.100175,-0.65593,7,0.0110879,11,-6.57076e-05,-3.18314,0.225478,0.261667,-6.70768,0.1001747,
2,0,0,1,0,8448.86,0.0989799,0.0987166,-0.647497,7,0.0108874,11,-6.39187e-05,-3.18876,0.294571,0.200291,-5.05455,0.0987166,
2,0,0,1,0,8449.16,0.0974812,0.0971543,-0.639744,7,0.0106895,11,-6.21539e-05,-3.19399,0.24798,0.237922,-5.93173,0.09715426,
2,0,0,1,0,8449.46,0.0959834,0.0956635,-0.629121,7,0.0104942,11,-6.01839e-05,-3.20127,0.259326,0.227513,-5.59914,0.0956635,
2,0,0,1,0,8449.76,0.0944855,0.0941306,-0.619492,7,0.010302,11,-5.83132e-05,-3.20796,0.310421,0.190064,-4.62195,0.09413065,
2,0,0,0,0,8450.06,0.0929871,0.0926882,-0.614342,7,0.0101117,11,-5.69423e-05,-3.21159,0.395324,0.149245,-3.5794,0.0926882,
2,0,0,0,0,8450.36,0.0914889,0.0911899,-0.611169,7,0.00992315,11,-5.57325e-05,-3.21384,0.328004,0.179876,-4.27657,0.0911899,
2,0,0,0,0,8450.66,0.0899907,0.0897011,-0.603522,7,0.00973659,11,-5.41366e-05,-3.21931,0.305298,0.193254,-4.53172,0.0897011,
2,0,0,1,0,8450.96,0.0884923,0.0881867,-0.593654,7,0.00955189,11,-5.23524e-05,-3.22647,0.377129,0.156445,-3.63929,0.0881867,
2,0,0,1,0,8451.26,0.0869946,0.0866643,-0.590777,7,0.00936921,11,-5.11993e-05,-3.22858,0.420868,0.140186,-3.23219,0.0866643,
2,0,0,1,0,8451.56,0.0854962,0.0851615,-0.587031,7,0.00918772,11,-4.99924e-05,-3.23134,0.425305,0.138724,-3.17671,0.08516147,
2,0,0,1,0,8451.86,0.083998,0.0837119,-0.580893,7,0.00900776,11,-4.86276e-05,-3.2359,0.326891,0.180489,-4.07762,0.0837119,
2,0,0,1,0,8452.16,0.0824998,0.0821701,-0.57521,7,0.00882926,11,-4.7265e-05,-3.24017,0.408389,0.14447,-3.25123,0.0821701,
2,0,0,1,0,8452.46,0.0810014,0.0807404,-0.571114,7,0.00865268,11,-4.6112e-05,-3.24328,0.465092,0.126857,-2.83413,0.0807404,
2,0,0,1,0,8452.76,0.0795035,0.0792201,-0.567087,7,0.00847704,11,-4.49246e-05,-3.24635,0.452863,0.130282,-2.8807,0.0792201,
2,0,0,1,0,8453.06,0.0780056,0.0776808,-0.563807,7,0.0083026,11,-4.3797e-05,-3.24887,0.38935,0.151535,-3.32183,0.0776808,
2,0,0,0,0,8453.36,0.076507,0.0761915,-0.558242,7,0.00812972,11,-4.25333e-05,-3.25318,0.430428,0.137073,-2.97988,0.0761915,
2,0,0,0,0,8453.66,0.0750088,0.0746847,-0.552493,7,0.00795867,11,-4.12628e-05,-3.25767,0.399821,0.147566,-3.17965,0.0746847,
2,0,0,1,0,8453.96,0.0735103,0.0731774,-0.548328,7,0.00778864,11,-4.01252e-05,-3.26096,0.49766,0.118555,-2.5297,0.07317736,
2,0,0,1,0,8454.25,0.0720124,0.0716879,-0.541844,7,0.00762001,11,-3.88437e-05,-3.26613,0.432688,0.136357,-2.88894,0.0716879,
2,0,0,1,0,8454.55,0.0705146,0.0702069,-0.536908,7,0.00745296,11,-3.76946e-05,-3.2701,0.37821,0.155998,-3.27822,0.0702069,
2,0,0,1,0,8454.85,0.0690161,0.0687347,-0.529195,7,0.0072878,11,-3.6374e-05,-3.27638,0.365065,0.161615,-3.35665,0.0687347,
2,0,0,1,0,8455.15,0.0675179,0.0672024,-0.525758,7,0.00712408,11,-3.53322e-05,-3.27921,0.360474,0.163673,-3.35742,0.0672024,
2,0,0,1,0,8455.45,0.0660192,0.0656687,-0.525164,7,0.00696167,11,-3.44868e-05,-3.27971,0.29842,0.197708,-4.01938,0.0656687,
2,0,0,1,0,8455.75,0.0645214,0.0641981,-0.516881,7,0.0068008,11,-3.31828e-05,-3.28661,0.284902,0.207089,-4.15321,0.0641981,
2,0,0,1,0,8456.05,0.0630235,0.0627277,-0.50738,7,0.00664211,11,-3.18268e-05,-3.29467,0.288029,0.204841,-4.07891,0.06272772,
2,0,0,0,0,8456.35,0.0615251,0.0612196,-0.502809,7,0.0064853,11,-3.07817e-05,-3.2986,0.285609,0.206576,-4.0658,0.06121961,
2,0,0,0,0,8456.65,0.0600269,0.0597223,-0.498036,7,0.00633002,11,-2.97439e-05,-3.30274,0.300479,0.196353,-3.82098,0.0597223,
2,0,0,0,0,8456.95,0.0585287,0.0582049,-0.49068,7,0.00617651,11,-2.856e-05,-3.3092,0.234417,0.251688,-4.8207,0.0582049,
2,0,0,1,0,8457.25,0.0570303,0.0566852,-0.485594,7,0.00602475,11,-2.7526e-05,-3.31373,0.265188,0.222484,-4.21927,0.0566852,
2,0,0,1,0,8457.55,0.0555325,0.0552274,-0.479296,7,0.00587541,11,-2.64703e-05,-3.3194,0.28771,0.205068,-3.8506,0.0552274,
2,0,0,1,0,8457.85,0.0540342,0.05373,-0.474005,7,0.00572738,11,-2.54683e-05,-3.32422,0.301868,0.195449,-3.60479,0.05373,
2,0,0,1,0,8458.15,0.052536,0.0522454,-0.468453,7,0.00558088,11,-2.44745e-05,-3.32933,0.260619,0.226384,-4.13165,0.05224539,
2,0,0,1,0,8458.45,0.0510378,0.0507067,-0.462664,7,0.00543646,11,-2.34602e-05,-3.33473,0.256193,0.230295,-4.15555,0.0507067,
2,0,0,1,0,8458.75,0.0495394,0.0492294,-0.456333,7,0.00529408,11,-2.2465e-05,-3.34072,0.283479,0.208128,-3.70384,0.0492294,
2,0,0,1,0,8459.05,0.0480415,0.047743,-0.450621,7,0.005153,11,-2.1514e-05,-3.34619,0.455478,0.129534,-2.27245,0.047743,
2,0,0,1,0,8459.35,0.0465436,0.0462503,-0.445423,7,0.00501354,11,-2.06009e-05,-3.35123,0.343158,0.171933,-2.99061,0.04625028,
2,0,0,0,0,8459.65,0.045045,0.0447398,-0.439494,7,0.00487547,11,-1.96629e-05,-3.35705,0.309967,0.190343,-3.27611,0.0447398,
2,0,0,0,0,8459.95,0.0435468,0.0432521,-0.433437,7,0.00473912,11,-1.8747e-05,-3.36307,0.342788,0.172118,-2.93214,0.0432521,
2,0,0,1,0,8460.25,0.0420483,0.041764,-0.432895,7,0.00460403,11,-1.80794e-05,-3.36362,0.390362,0.151142,-2.5424,0.041764,
2,0,0,1,0,8460.55,0.0405504,0.0402489,-0.430247,7,0.0044698,11,-1.7317e-05,-3.36628,0.384658,0.153383,-2.55645,0.0402489,
2,0,0,1,0,8460.85,0.0390526,0.0387235,-0.42389,7,0.00433674,11,-1.64145e-05,-3.37275,0.365276,0.161522,-2.67076,0.0387235,
2,0,0,1,0,8461.15,0.0375541,0.0372523,-0.419882,7,0.00420493,11,-1.56416e-05,-3.37687,0.478218,0.123375,-2.02942,0.0372523,
2,0,0,1,0,8461.45,0.0360559,0.0357508,-0.417391,7,0.00407435,11,-1.4922e-05,-3.37946,0.449283,0.13132,-2.14648,0.0357508,
2,0,0,1,0,8461.75,0.0345572,0.0342372,-0.415243,7,0.00394433,11,-1.42167e-05,-3.3817,0.528998,0.111532,-1.80937,0.03423715,
2,0,0,1,0,8462.05,0.0330594,0.0327379,-0.412836,7,0.003815,11,-1.35154e-05,-3.38422,0.382934,0.154073,-2.47607,0.0327379,
2,0,0,1,0,8462.34,0.0315615,0.0312105,-0.410775,7,0.00368643,11,-1.28205e-05,-3.3864,0.714463,0.0825795,-1.3268,0.0312105,
2,0,0,0,0,8462.64,0.0300631,0.0297796,-0.409575,7,0.00355875,11,-1.2197e-05,-3.38767,0.991243,0.0595212,-0.949744,0.0297796,
2,0,0,0,0,8462.94,0.0285649,0.0282834,-0.407197,7,0.00343117,11,-1.15169e-05,-3.3902,1.14023,0.051744,-0.82314,0.0282834,
2,0,0,0,0,8463.24,0.0270667,0.0267808,-0.408009,7,0.00330395,11,-1.09268e-05,-3.38933,1.40473,0.0420009,-0.666939,0.02678079,
2,0,0,1,0,8463.54,0.0255683,0.025226,-0.405621,7,0.00317715,11,-1.02322e-05,-3.39188,1.41333,0.0417455,-0.661352,0.025226,
2,0,0,1,0,8463.84,0.0240706,0.0237768,-0.403333,7,0.00305088,11,-9.58997e-06,-3.39434,-17.563,-0.00335933,0.0531844,0.0237768,
2,0,0,1,0,8464.14,0.0225722,0.022221,-0.403579,7,0.00292447,11,-8.96795e-06,-3.39407,-1.32551,-0.0445112,0.700443,0.022221,
2,0,0,1,0,8464.44,0.021074,0.020745,-0.403647,7,0.00279812,11,-8.37364e-06,-3.394,-3.27186,-0.0180326,0.284956,0.020745,
2,0,0,1,0,8464.74,0.0195758,0.0192614,-0.403659,7,0.00267181,11,-7.77505e-06,-3.39399,20.532,0.00287356,-0.045336,0.0192614,
2,0,0,1,0,8465.04,0.0180774,0.0177374,-0.401888,7,0.00254564,11,-7.12846e-06,-3.39589,39.4705,0.00149479,-0.0235684,0.01773742,
2,0,0,1,0,8465.34,0.0165795,0.016282,-0.4048,7,0.00241933,11,-6.59095e-06,-3.39276,-1.11874,-0.052738,0.8324,0.016282,
2,0,0,1,0,8465.64,0.0150817,0.0147946,-0.406707,7,0.00229258,11,-6.01707e-06,-3.39072,-3.26553,-0.0180675,0.285643,0.0147946,
2,0,0,0,0,8465.94,0.013583,0.0132574,-0.406141,7,0.00216555,11,-5.38439e-06,-3.39132,3.21136,0.0183723,-0.29126,0.0132574,
2,0,0,0,0,8466.24,0.0120848,0.0117379,-0.406829,7,0.00203848,11,-4.7753e-06,-3.39059,-1.52216,-0.0387608,0.617213,0.0117379,
2,0,0,1,0,8466.54,0.0105863,0.0102667,-0.408198,7,0.00191125,11,-4.19086e-06,-3.38913,-1.22185,-0.0482875,0.771455,0.0102667,
2,0,0,1,0,8466.84,0.00908846,0.00878364,-0.410123,7,0.00178344,11,-3.60237e-06,-3.38709,-0.862406,-0.0684132,1.0956,0.00878364,
2,0,0,1,0,8467.14,0.0075906,0.00729283,-0.411816,7,0.0016552,11,-3.00331e-06,-3.3853,-1.2987,-0.0454299,0.729677,0.00729283,
2,0,0,1,0,8467.44,0.00609208,0.0057752,-0.413878,7,0.00152646,11,-2.39023e-06,-3.38313,-0.753362,-0.0783156,1.26235,0.0057752,
2,0,0,1,0,8467.74,0.00459389,0.004262,-0.415489,7,0.00139749,11,-1.77081e-06,-3.38144,-0.974932,-0.0605171,0.979047,0.004262,
2,0,0,1,0,8468.04,0.00309525,0.00281316,-0.416588,7,0.00126771,11,-1.17193e-06,-3.38029,-0.465526,-0.126738,2.05676,0.00281316,
2,0,0,1,0,8468.34,0.00159739,0.00129691,-0.420729,7,0.00113515,11,-5.45647e-07,-3.376, , , ,0.00129691,
2,0,0,0,0,8468.62,0.000199195,-0.000191712,-0.42091,7,0.00101256,11,8.06936e-08,-3.37581, , , ,-0.0001917123,