File: Figure_codes/Fig_3-5/rawdata_trumpetplot_data/before 10th/20221101_1-115_002_TrumpetPlot_ParaChange_10_CV_C01_6.csv
mode,ox/red,error,control changes,counter inc.,time/s,control/V,Ewe/V,<I>/mA,cycle number,(Q-Qo)/C,I Range,P/W,log(|I|),Tafel slope mV/dec,alpha_eff,dI/d(E-IR),E-IR/V,
2,0,0,0,0,8584.16,2.44065e-05,0.000113685,-6.19692,7,0.0000000E+000,11,-7.04496e-07,-2.20782, , , ,0.000113685,
2,0,0,1,0,8584.18,0.0012943,0.000903764,-2.63275,7,-6.87546e-05,11,-2.37938e-06,-2.57959, , , ,0.000903764,
2,0,0,1,0,8584.19,0.00279784,0.00249108,-0.175078,7,-9.2841e-05,11,-4.36134e-07,-3.75677,-0.00925076,-6.37786,1306.05,0.00249108,
2,1,0,1,0,8584.21,0.00429425,0.00400783,1.11907,7,-8.2882e-05,11,4.48505e-06,-2.95114,0.0102484,5.757,719.801,0.00400783,
2,1,0,1,0,8584.23,0.00579065,0.0054837,1.86856,7,-5.4296e-05,11,1.02466e-05,-2.72849,0.00780404,7.56018,423.122,0.0054837,
2,1,0,1,0,8584.25,0.0072942,0.00704204,2.33397,7,-1.44749e-05,11,1.64359e-05,-2.6319,0.0189788,3.10873,259.958,0.00704204,
2,1,0,1,0,8584.27,0.00878347,0.00846643,2.63309,7,3.18651e-05,11,2.22929e-05,-2.57953,0.0335991,1.756,172.795,0.00846643,
2,1,0,1,0,8584.29,0.010287,0.00997331,2.82744,7,8.33107e-05,11,2.81989e-05,-2.54861,0.0552691,1.0675,114.944,0.00997331,
2,1,0,1,0,8584.31,0.0117905,0.0114846,2.96127,7,0.000137861,11,3.40091e-05,-2.52852,0.0833361,0.707976,80.8639,0.0114846,
2,1,0,1,0,8584.33,0.013278,0.0129768,3.05313,7,0.000193857,11,3.962e-05,-2.51525,0.109376,0.539424,64.135,0.0129768,
2,1,0,1,0,8584.34,0.0147816,0.0144636,3.13248,7,0.000252144,11,4.53069e-05,-2.50411,0.136602,0.43191,52.6656,0.0144636,
2,1,0,1,0,8584.36,0.0162851,0.0159862,3.20019,7,0.000311938,11,5.11587e-05,-2.49482,0.172965,0.34111,42.4515,0.01598615,
2,1,0,1,0,8584.38,0.0177744,0.0175012,3.25805,7,0.000372154,11,5.70199e-05,-2.48704,0.23575,0.250265,31.7674,0.0175012,
2,1,0,1,0,8584.4,0.0192779,0.0189651,3.29998,7,0.00043388,11,6.25845e-05,-2.48149,0.264504,0.223059,28.7469,0.0189651,
2,1,0,1,0,8584.42,0.0207743,0.0204828,3.34646,7,0.000496159,11,6.85449e-05,-2.47541,0.267919,0.220216,28.7708,0.0204828,
2,1,0,1,0,8584.44,0.0222707,0.0219864,3.3941,7,0.000559278,11,7.46241e-05,-2.46927,0.30325,0.194559,25.7739,0.0219864,
2,1,0,1,0,8584.46,0.0237743,0.0234667,3.43946,7,0.000623557,11,8.07128e-05,-2.46351,0.328693,0.179499,24.0848,0.0234667,
2,1,0,1,0,8584.48,0.0252636,0.0250076,3.47419,7,0.00068788,11,8.68812e-05,-2.45915,0.3166,0.186355,25.2832,0.0250076,
2,1,0,1,0,8584.49,0.0267671,0.0265159,3.52571,7,0.000753661,11,9.34873e-05,-2.45275,0.274749,0.214742,29.5184,0.0265159,
2,1,0,1,0,8584.51,0.0282706,0.02799,3.57242,7,0.000820292,11,9.99922e-05,-2.44704,0.265613,0.222128,30.9028,0.02799003,
2,1,0,1,0,8584.53,0.0297581,0.0294158,3.61727,7,0.000887123,11,0.000106405,-2.44162,0.279817,0.210852,29.6813,0.0294158,
2,1,0,1,0,8584.55,0.0312617,0.0309929,3.65392,7,0.000955485,11,0.000113245,-2.43724,0.274274,0.215113,30.6857,0.0309929,
2,1,0,1,0,8584.57,0.0327652,0.0324919,3.70388,7,0.0010246,11,0.000120346,-2.43134,0.255466,0.23095,33.3786,0.0324919,
2,1,0,1,0,8584.59,0.0342545,0.0339882,3.74921,7,0.00109391,11,0.000127429,-2.42606,0.236885,0.249066,36.4212,0.0339882,
2,1,0,1,0,8584.61,0.035758,0.0354753,3.7987,7,0.00116492,11,0.00013476,-2.42037,0.256109,0.23037,34.1504,0.0354753,
2,1,0,1,0,8584.63,0.0372544,0.0369548,3.84842,7,0.00123652,11,0.000142218,-2.41472,0.251786,0.234326,35.2095,0.0369548,
2,1,0,1,0,8584.64,0.0387508,0.0384717,3.89567,7,0.001309,11,0.000149873,-2.40942,0.232488,0.253776,38.726,0.0384717,
2,1,0,1,0,8584.66,0.0402544,0.0400035,3.95577,7,0.00138292,11,0.000158245,-2.40277,0.221552,0.266303,41.197,0.0400035,
2,1,0,1,0,8584.68,0.0417437,0.0415021,4.02414,7,0.00145728,11,0.000167011,-2.39533,0.224075,0.263304,41.3074,0.0415021,
2,1,0,1,0,8584.7,0.0432472,0.0429691,4.08307,7,0.00153357,11,0.000175446,-2.38901,0.251133,0.234935,37.4245,0.0429691,
2,1,0,1,0,8584.72,0.0447507,0.0444685,4.13628,7,0.00161093,11,0.000183934,-2.38339,0.235392,0.250646,40.5659,0.0444685,
2,1,0,1,0,8584.74,0.0462382,0.0459444,4.20743,7,0.00168862,11,0.000193308,-2.37598,0.224308,0.263031,43.2236,0.0459444,
2,1,0,1,0,8584.76,0.0477418,0.0474376,4.2762,7,0.00176844,11,0.000202853,-2.36894,0.220816,0.26719,44.6333,0.0474376,
2,1,0,1,0,8584.78,0.0492453,0.0489649,4.35206,7,0.00184962,11,0.000213099,-2.3613,0.223458,0.264031,44.8188,0.0489649,
2,1,0,1,0,8584.79,0.0507346,0.0504705,4.42275,7,0.00193122,11,0.000223218,-2.35431,0.218451,0.270083,46.6272,0.05047046,
2,1,0,1,0,8584.81,0.0522381,0.0519027,4.49838,7,0.00201503,11,0.000233478,-2.34694,0.202908,0.290772,51.0396,0.0519027,
2,1,0,1,0,8584.83,0.0537345,0.0534338,4.58451,7,0.00209989,11,0.000244968,-2.33871,0.192795,0.306024,54.6162,0.0534338,
2,1,0,1,0,8584.85,0.0552309,0.0549679,4.66344,7,0.00218626,11,0.00025634,-2.33129,0.200341,0.294498,53.4456,0.0549679,
2,1,0,1,0,8584.87,0.0567345,0.0564383,4.73324,7,0.00227459,11,0.000267136,-2.32484,0.19464,0.303123,55.9847,0.0564383,
2,1,0,1,0,8584.89,0.0582237,0.0579459,4.81574,7,0.00236337,11,0.000279052,-2.31734,0.187351,0.314916,59.2332,0.05794587,
2,1,0,1,0,8584.91,0.0597273,0.0594306,4.89657,7,0.0024547,11,0.000291006,-2.31011,0.188545,0.312922,59.819,0.0594306,
2,1,0,1,0,8584.93,0.0612308,0.060914,4.98095,7,0.00254771,11,0.000303409,-2.30269,0.19804,0.29792,57.9185,0.060914,
2,1,0,1,0,8584.94,0.0627183,0.0624195,5.06255,7,0.00264125,11,0.000316001,-2.29563,0.205577,0.286997,56.7927,0.0624195,
2,1,0,1,0,8584.96,0.0642219,0.0639338,5.14303,7,0.00273733,11,0.000328814,-2.28878,0.198704,0.296923,59.7563,0.0639338,
2,1,0,1,0,8584.98,0.0657254,0.0654547,5.23702,7,0.00283509,11,0.000342788,-2.28092,0.204975,0.287839,58.8466,0.0654547,
2,1,0,1,0,8585,0.0672147,0.0669169,5.33134,7,0.00293355,11,0.000356757,-2.27316,0.211466,0.279004,58.0005,0.0669169,
2,1,0,1,0,8585.02,0.0687182,0.0684705,5.41606,7,0.00303468,11,0.00037084,-2.26632,0.238671,0.247202,52.2565,0.0684705,
2,1,0,1,0,8585.04,0.0702146,0.0698916,5.49723,7,0.00313681,11,0.000384211,-2.25986,0.239824,0.246014,52.819,0.0698916,
2,1,0,1,0,8585.06,0.071711,0.0714041,5.58736,7,0.0032405,11,0.000398961,-2.25279,0.235392,0.250646,54.6114,0.0714041,
2,1,0,1,0,8585.08,0.0732146,0.0729219,5.67485,7,0.00334637,11,0.000413821,-2.24605,0.241147,0.244664,54.1518,0.0729219,
2,1,0,1,0,8585.09,0.0747038,0.0743974,5.75898,7,0.00345265,11,0.000428454,-2.23965,0.252947,0.233251,52.3397,0.0743974,
2,1,0,1,0,8585.11,0.0762074,0.0758995,5.83614,7,0.00356163,11,0.000442961,-2.23387,0.25099,0.235069,53.4732,0.0758995,
2,1,0,1,0,8585.13,0.0777109,0.0774068,5.9184,7,0.00367207,11,0.000458124,-2.2278,0.248699,0.237235,54.7803,0.0774068,
2,1,0,1,0,8585.15,0.0791984,0.0789266,6.00093,7,0.00378281,11,0.000473633,-2.22178,0.251321,0.234759,54.8896,0.0789266,
2,1,0,1,0,8585.17,0.0807019,0.0804024,6.07296,7,0.00389631,11,0.000488281,-2.2166,0.270264,0.218305,51.6499,0.0804024,
2,1,0,1,0,8585.19,0.0822055,0.0819005,6.14187,7,0.00401123,11,0.000503022,-2.2117,0.275477,0.214174,51.3367,0.0819005,
2,1,0,1,0,8585.21,0.0836947,0.0833927,6.21187,7,0.00412616,11,0.000518024,-2.20678,0.287285,0.205371,49.8381,0.08339268,
2,1,0,1,0,8585.22,0.0851983,0.0848808,6.2843,7,0.00424377,11,0.000533416,-2.20174,0.28741,0.205282,50.3712,0.0848808,
2,1,0,1,0,8585.24,0.0866947,0.0864186,6.35949,7,0.00436217,11,0.000549579,-2.19658,0.305542,0.193099,47.93,0.0864186,
2,1,0,1,0,8585.26,0.0881911,0.0878836,6.43334,7,0.00448188,11,0.000565385,-2.19156,0.330726,0.178395,44.7829,0.0878836,
2,1,0,1,0,8585.28,0.0896946,0.0893783,6.4931,7,0.00460347,11,0.000580342,-2.18755,0.337993,0.17456,44.2895,0.0893783,
2,1,0,1,0,8585.3,0.0911839,0.0908633,6.56942,7,0.00472502,11,0.00059692,-2.18247,0.311838,0.189201,48.5161,0.0908633,
2,1,0,1,0,8585.32,0.0926857,0.0924162,6.63884,7,0.00484926,11,0.000613536,-2.17791,0.319325,0.184765,47.8783,0.0924162,
2,1,0,1,0,8585.34,0.0941892,0.0939033,6.71238,7,0.0049749,11,0.000630314,-2.17312,0.340723,0.173161,45.3735,0.0939033,
2,1,0,1,0,8585.36,0.0956785,0.0953533,6.78443,7,0.00510047,11,0.000646918,-2.16849,0.331108,0.17819,47.2179,0.0953533,
2,1,0,1,0,8585.37,0.097182,0.0968533,6.86699,7,0.0052288,11,0.00066509,-2.16323,0.311258,0.189553,50.7604,0.0968533,
2,1,0,1,0,8585.39,0.0986856,0.0983663,6.94545,7,0.00535862,11,0.000683199,-2.1583,0.310609,0.189949,51.4656,0.0983663,
2,1,0,1,0,8585.41,0.100175,0.0998834,7.02599,7,0.00548852,11,0.00070178,-2.15329,0.314171,0.187796,51.4306,0.0998834,
2,1,0,1,0,8585.43,0.101678,0.101366,7.09593,7,0.00562128,11,0.000719289,-2.14899,0.30207,0.195319,54.1232,0.101366,
2,1,0,1,0,8585.45,0.103175,0.102843,7.18685,7,0.00575477,11,0.000739117,-2.14346,0.264449,0.223106,62.6296,0.102843,
2,1,0,1,0,8585.47,0.104671,0.104376,7.28034,7,0.00588993,11,0.000759891,-2.13785,0.234982,0.251083,71.3873,0.104376,
2,1,0,1,0,8585.49,0.106175,0.105884,7.3865,7,0.00602785,11,0.000782115,-2.13156,0.226303,0.260712,75.1127,0.105884,
2,1,0,1,0,8585.51,0.107662,0.10734,7.49167,7,0.00616631,11,0.000804159,-2.12542,0.225328,0.261841,76.6514,0.10734,
2,1,0,1,0,8585.52,0.109166,0.108922,7.60325,7,0.00630827,11,0.000828163,-2.119,0.215937,0.273228,81.2319,0.1089223,
2,1,0,1,0,8585.54,0.110669,0.110401,7.7276,7,0.00645256,11,0.000853131,-2.11196,0.204131,0.289031,87.2705,0.110401,
2,1,0,1,0,8585.56,0.112159,0.111883,7.85962,7,0.00659769,11,0.000879359,-2.1046,0.206447,0.285787,87.7633,0.111883,
2,1,0,1,0,8585.58,0.113662,0.113355,8.00228,7,0.00674692,11,0.000907095,-2.09679,0.19894,0.296572,92.6265,0.113355,
2,1,0,1,0,8585.6,0.115166,0.114797,8.13591,7,0.0068987,11,0.000933976,-2.08959,0.193848,0.304361,96.8161,0.114797,
2,1,0,1,0,8585.62,0.116655,0.116369,8.28832,7,0.00705156,11,0.000964501,-2.08153,0.186103,0.317029,102.681,0.116369,
2,1,0,1,0,8585.64,0.118158,0.117889,8.45693,7,0.00720907,11,0.000996978,-2.07279,0.186051,0.317117,104.641,0.117889,
2,1,0,1,0,8585.66,0.119655,0.11938,8.62111,7,0.00736879,11,0.00102919,-2.06444,0.193789,0.304454,102.313,0.11938,
2,1,0,1,0,8585.67,0.121151,0.120875,8.77056,7,0.00753139,11,0.00106014,-2.05697,0.189683,0.311045,106.534,0.120875,
2,1,0,1,0,8585.69,0.122655,0.122362,8.94147,7,0.00769785,11,0.0010941,-2.04859,0.184535,0.319722,111.469,0.122362,
2,1,0,1,0,8585.71,0.124142,0.123876,9.11036,7,0.00786568,11,0.00112856,-2.04046,0.187262,0.315066,111.877,0.1238762,
2,1,0,1,0,8585.73,0.125646,0.125362,9.26984,7,0.00803839,11,0.00116208,-2.03293,0.200469,0.29431,106.306,0.125362,
2,1,0,1,0,8585.75,0.127149,0.126886,9.4222,7,0.00821415,11,0.00119555,-2.02585,0.204352,0.288717,106.098,0.126886,
2,1,0,1,0,8585.77,0.128639,0.128351,9.58034,7,0.00839086,11,0.00122965,-2.01862,0.207836,0.283877,106.135,0.128351,
2,1,0,1,0,8585.79,0.130142,0.129845,9.7355,7,0.00857242,11,0.0012641,-2.01164,0.208972,0.282334,107.208,0.129845,
2,1,0,1,0,8585.81,0.131646,0.131357,9.88725,7,0.00875702,11,0.00129876,-2.00492,0.225551,0.261582,100.848,0.131357,
2,1,0,1,0,8585.82,0.133135,0.132859,10.0309,7,0.00894235,11,0.0013327,-1.99866,0.235546,0.250482,98.0557,0.1328595,
2,1,0,1,0,8585.84,0.134639,0.134317,10.1631,7,0.00913228,11,0.00136507,-1.99297,0.251397,0.234688,93.1347,0.134317,
2,1,0,1,0,8585.86,0.136135,0.135807,10.3039,7,0.00932386,11,0.00139935,-1.987,0.26716,0.220841,88.7632,0.135807,
2,1,0,1,0,8585.88,0.137631,0.13737,10.4342,7,0.00951792,11,0.00143334,-1.98154,0.2841,0.207673,84.5281,0.1373699,
2,1,0,1,0,8585.9,0.139135,0.13886,10.5574,7,0.00971534,11,0.001466,-1.97644,0.322509,0.182941,75.326,0.13886,
2,1,0,1,0,8585.92,0.140622,0.140369,10.6662,7,0.00991284,11,0.00149721,-1.97199,0.342465,0.172281,71.7035,0.140369,
2,1,0,1,0,8585.94,0.142126,0.141868,10.779,7,0.0101145,11,0.00152919,-1.96742,0.373759,0.157856,66.3431,0.141868,
2,1,0,1,0,8585.96,0.143629,0.143344,10.8795,7,0.0103182,11,0.00155952,-1.96339,0.431684,0.136674,57.9565,0.143344,
2,1,0,1,0,8585.97,0.145119,0.144822,10.9654,7,0.0105214,11,0.00158803,-1.95998,0.543504,0.108555,46.3686,0.144822,
2,1,0,1,0,8585.99,0.146622,0.146355,11.0254,7,0.0107281,11,0.00161362,-1.95761,0.733743,0.0804096,34.5492,0.146355,
2,1,0,1,0,8586.01,0.148126,0.147825,11.0779,7,0.0109359,11,0.00163759,-1.95554,0.97791,0.0603328,26.0261,0.147825,
2,1,0,1,0,8586.03,0.149615,0.14929,11.1057,7,0.0111421,11,0.00165797,-1.95445,2.52443,0.0233717,10.1025,0.14929,
2,1,0,1,0,8586.05,0.151119,0.150846,11.107,7,0.0113509,11,0.00167545,-1.9544,-2.4215,-0.0243651,-10.5223,0.150846,
2,1,0,1,0,8586.07,0.152615,0.15231,11.0708,7,0.0115583,11,0.00168619,-1.95582,-0.812823,-0.0725865,-31.2655,0.15231,
2,1,0,1,0,8586.09,0.154111,0.153791,10.9993,7,0.0117646,11,0.00169158,-1.95864,-0.447918,-0.13172,-56.3847,0.153791,
2,1,0,1,0,8586.11,0.155615,0.155308,10.8878,7,0.0119705,11,0.00169097,-1.96306,-0.30766,-0.19177,-81.1888,0.155308,
2,1,0,1,0,8586.12,0.157103,0.156821,10.737,7,0.0121718,11,0.00168378,-1.96912,-0.21589,-0.273288,-114.046,0.156821,
2,1,0,1,0,8586.14,0.158606,0.158353,10.535,7,0.012372,11,0.00166826,-1.97736,-0.156514,-0.376963,-154.336,0.158353,
2,1,0,1,0,8586.16,0.16011,0.159845,10.2731,7,0.0125678,11,0.0016421,-1.9883,-0.125721,-0.469294,-187.485,0.159845,
2,1,0,1,0,8586.18,0.161599,0.161326,9.97887,7,0.0127563,11,0.00160985,-2.00092,-0.105484,-0.559325,-216.871,0.161326,
2,1,0,1,0,8586.2,0.163102,0.162817,9.63334,7,0.0129408,11,0.00156847,-2.01622,-0.088506,-0.666621,-249.523,0.162817,
2,1,0,1,0,8586.22,0.164606,0.164311,9.24103,7,0.0131183,11,0.0015184,-2.03428,-0.0778251,-0.75811,-272.274,0.164311,
2,1,0,1,0,8586.24,0.166095,0.165764,8.82109,7,0.0132864,11,0.00146222,-2.05448,-0.0703972,-0.838101,-287.897,0.165764,
2,1,0,1,0,8586.25,0.167599,0.167279,8.39337,7,0.0134482,11,0.00140403,-2.07606,-0.0657645,-0.89714,-293.262,0.167279,
2,1,0,1,0,8586.27,0.169095,0.168797,7.96562,7,0.013601,11,0.00134457,-2.09878,-0.0654057,-0.902061,-280.075,0.168797,
2,1,0,1,0,8586.29,0.170592,0.17033,7.54214,7,0.0137459,11,0.00128465,-2.12251,-0.0615342,-0.958817,-282.087,0.17033,
2,1,0,1,0,8586.31,0.172095,0.171834,7.12837,7,0.0138837,11,0.0012249,-2.14701,-0.0646976,-0.911935,-254.273,0.171834,
2,1,0,1,0,8586.33,0.173583,0.173285,6.75844,7,0.0140127,11,0.00117114,-2.17015,-0.0663281,-0.889517,-235.328,0.173285,
2,1,0,1,0,8586.35,0.175086,0.174795,6.42805,7,0.0141365,11,0.00112359,-2.19192,-0.0718861,-0.820743,-206.46,0.174795,
2,1,0,1,0,8586.37,0.17659,0.176372,6.12762,7,0.0142545,11,0.00108074,-2.21271,-0.0765684,-0.770553,-184.706,0.176372,
2,1,0,1,0,8586.39,0.178079,0.177822,5.85987,7,0.014366,11,0.00104201,-2.23211,-0.0830106,-0.710753,-163.261,0.177822,
2,1,0,1,0,8586.4,0.179582,0.179307,5.6265,7,0.0144739,11,0.00100887,-2.24976,-0.0912993,-0.646226,-142.725,0.179307,
2,1,0,1,0,8586.42,0.181086,0.180807,5.42568,7,0.0145779,11,0.000981,-2.26555,-0.100403,-0.587632,-124.964,0.180807,
2,1,0,1,0,8586.44,0.182575,0.182294,5.25087,7,0.0146772,11,0.0009572,-2.27977,-0.10818,-0.545387,-112.1,0.182294,
2,1,0,1,0,8586.46,0.184079,0.183803,5.09145,7,0.0147746,11,0.000935822,-2.29316,-0.116412,-0.506819,-100.963,0.183803,
2,1,0,1,0,8586.48,0.185582,0.185302,4.94783,7,0.014869,11,0.000916844,-2.30559,-0.124011,-0.475765,-92.1929,0.185302,
2,1,0,1,0,8586.5,0.18707,0.186808,4.82414,7,0.0149599,11,0.000901189,-2.31658,-0.137458,-0.429222,-80.9435,0.186808,
2,1,0,1,0,8586.52,0.188573,0.188268,4.70689,7,0.0150496,11,0.000886155,-2.32727,-0.144525,-0.408235,-75.1663,0.188268,
2,1,0,1,0,8586.54,0.19007,0.189785,4.60854,7,0.0151367,11,0.00087463,-2.33644,-0.149307,-0.395158,-71.0973,0.189785,
2,1,0,1,0,8586.55,0.191566,0.191293,4.50107,7,0.0152219,11,0.000861025,-2.34668,-0.158055,-0.373288,-65.7666,0.191293,
2,1,0,1,0,8586.57,0.19307,0.19278,4.4218,7,0.0153058,11,0.000852433,-2.3544,-0.188923,-0.312297,-53.9087,0.1927797,
2,1,0,1,0,8586.59,0.194559,0.194268,4.34763,7,0.0153873,11,0.000844606,-2.36175,-0.187229,-0.315123,-53.4196,0.194268,
2,1,0,1,0,8586.61,0.196063,0.195806,4.27248,7,0.0154682,11,0.00083658,-2.36932,-0.197925,-0.298092,-49.6107,0.195806,
2,1,0,1,0,8586.63,0.197566,0.197276,4.19051,7,0.0155477,11,0.00082669,-2.37773,-0.223656,-0.263798,-43.2123,0.197276,
2,1,0,1,0,8586.65,0.199055,0.198812,4.13277,7,0.015625,11,0.000821644,-2.38376,-0.244607,-0.241203,-38.8958,0.198812,
2,1,0,1,0,8586.67,0.200559,0.20026,4.0752,7,0.0157021,11,0.0008161,-2.38985,-0.270953,-0.21775,-34.5975,0.20026,
2,1,0,1,0,8586.69,0.202062,0.201751,4.01458,7,0.0157782,11,0.000809944,-2.39636,-0.275966,-0.213795,-33.497,0.201751,
2,1,0,1,0,8586.7,0.20355,0.203242,3.96044,7,0.0158524,11,0.000804928,-2.40226,-0.294818,-0.200124,-30.991,0.203242,
2,1,0,1,0,8586.72,0.205053,0.204779,3.90778,7,0.0159265,11,0.00080023,-2.40807,-0.361081,-0.163398,-25.0534,0.204779,
2,1,0,1,0,8586.74,0.20655,0.206302,3.86956,7,0.0159993,11,0.000798297,-2.41234,-0.376981,-0.156507,-23.6807,0.206302,
2,1,0,1,0,8586.76,0.208046,0.207798,3.83739,7,0.0160716,11,0.000797402,-2.41596,-0.342591,-0.172217,-25.7683,0.207798,
2,1,0,1,0,8586.78,0.20955,0.209293,3.79583,7,0.0161435,11,0.000794441,-2.42069,-0.301311,-0.195811,-29.0526,0.209293,
2,1,0,1,0,8586.8,0.211039,0.210781,3.75667,7,0.0162138,11,0.000791834,-2.4252,-0.322954,-0.182689,-26.8652,0.210781,
2,1,0,1,0,8586.82,0.212543,0.21226,3.72679,7,0.0162842,11,0.000791047,-2.42867,-0.385405,-0.153086,-22.269,0.21226,
2,1,0,1,0,8586.84,0.214046,0.213796,3.7024,7,0.0163541,11,0.000791557,-2.43152,-0.383638,-0.153791,-22.2209,0.213796,
2,1,0,1,0,8586.85,0.215535,0.215281,3.67626,7,0.0164227,11,0.000791427,-2.43459,-0.384358,-0.153503,-21.9986,0.215281,
2,1,0,1,0,8586.87,0.217039,0.216759,3.64345,7,0.0164914,11,0.00078975,-2.43849,-0.460162,-0.128216,-18.2413,0.216759,
2,1,0,1,0,8586.89,0.218543,0.218264,3.62153,7,0.0165597,11,0.000790451,-2.44111,-0.597011,-0.0988256,-13.966,0.218264,
2,1,0,1,0,8586.91,0.22003,0.219733,3.60587,7,0.0166269,11,0.000792328,-2.44299,-0.648784,-0.0909394,-12.7685,0.219733,
2,1,0,1,0,8586.93,0.221534,0.221277,3.57872,7,0.0166944,11,0.000791889,-2.44627,-0.561126,-0.105146,-14.6618,0.2212771,
2,1,0,1,0,8586.95,0.22303,0.22275,3.55144,7,0.0167611,11,0.000791082,-2.4496,-0.652951,-0.090359,-12.5356,0.22275,
2,1,0,1,0,8586.97,0.224526,0.224287,3.53946,7,0.0168274,11,0.000793856,-2.45106,-0.659882,-0.0894099,-12.3413,0.224287,
2,1,0,1,0,8586.99,0.22603,0.225758,3.52034,7,0.0168937,11,0.000794747,-2.45341,-0.877314,-0.0672507,-9.23045,0.225758,
2,1,0,1,0,8587,0.227519,0.227216,3.49728,7,0.016959,11,0.000794639,-2.45627,-0.776406,-0.0759911,-10.3769,0.227216,
2,1,0,1,0,8587.02,0.229023,0.228754,3.47928,7,0.0170247,11,0.000795899,-2.45851,-0.786596,-0.0750068,-10.1987,0.228754,
2,1,0,1,0,8587.04,0.230526,0.230256,3.4577,7,0.01709,11,0.000796156,-2.46121,-0.847815,-0.0695906,-9.42546,0.230256,
2,1,0,1,0,8587.06,0.232016,0.231747,3.44996,7,0.0171544,11,0.000799517,-2.46219,-1.20766,-0.048855,-6.58366,0.231747,
2,1,0,1,0,8587.08,0.233519,0.233275,3.43742,7,0.0172192,11,0.000801865,-2.46377,-0.757769,-0.0778602,-10.4436,0.233275,
2,1,0,1,0,8587.1,0.235023,0.234775,3.42436,7,0.0172838,11,0.000803954,-2.46542,-0.727194,-0.0811338,-10.8459,0.2347752,
2,1,0,1,0,8587.12,0.23651,0.236186,3.40689,7,0.0173474,11,0.00080466,-2.46764,-0.745863,-0.079103,-10.539,0.236186,
2,1,0,1,0,8587.14,0.238014,0.237727,3.3996,7,0.0174115,11,0.000808176,-2.46857,-0.884632,-0.0666944,-8.83973,0.237727,
2,1,0,1,0,8587.15,0.23951,0.239235,3.39091,7,0.017475,11,0.000811223,-2.46968,-0.871861,-0.0676714,-8.95255,0.239235,
2,1,0,1,0,8587.17,0.241006,0.240741,3.38043,7,0.0175383,11,0.000813806,-2.47103,-0.669758,-0.0880915,-11.6052,0.240741,
2,1,0,1,0,8587.19,0.24251,0.242207,3.36322,7,0.0176017,11,0.000814596,-2.47324,-0.876343,-0.0673252,-8.84373,0.242207,
2,1,0,1,0,8587.21,0.243999,0.243694,3.35512,7,0.0176641,11,0.000817621,-2.47429,-1.48837,-0.0396406,-5.19036,0.243694,
2,1,0,1,0,8587.23,0.245503,0.245252,3.3554,7,0.0177271,11,0.000822918,-2.47426,-1.67649,-0.0351926,-4.58936,0.245252,
2,1,0,1,0,8587.25,0.247006,0.246739,3.34049,7,0.01779,11,0.000824229,-2.47619,-1.35774,-0.0434547,-5.6476,0.246739,
2,1,0,1,0,8587.27,0.248496,0.248225,3.32166,7,0.017852,11,0.00082452,-2.47864,-1.4582,-0.0404608,-5.25447,0.248225,
2,1,0,1,0,8587.28,0.249999,0.249762,3.31169,7,0.0179143,11,0.000827135,-2.47995,-1.59022,-0.0371017,-4.80246,0.249762,
2,1,0,1,0,8587.3,0.251503,0.251238,3.30169,7,0.0179766,11,0.000829512,-2.48126,-4.1017,-0.0143843,-1.85493,0.251238,
2,1,0,1,0,8587.32,0.25299,0.252721,3.28954,7,0.018038,11,0.000831336,-2.48287,-1.46961,-0.0401467,-5.15854,0.2527214,
2,1,0,1,0,8587.34,0.254494,0.254222,3.28077,7,0.0180999,11,0.000834043,-2.48402,-1.35815,-0.0434416,-5.57507,0.2542218,
2,1,0,1,0,8587.36,0.25599,0.255651,3.26969,7,0.0181613,11,0.0008359,-2.48549,-1.48017,-0.0398602,-5.09692,0.255651,
2,1,0,1,0,8587.38,0.257487,0.25721,3.25778,7,0.0182225,11,0.000837931,-2.48708,-1.59465,-0.0369988,-4.71451,0.25721,
2,1,0,1,0,8587.4,0.25899,0.25875,3.25858,7,0.0182839,11,0.000843159,-2.48697,-1.00173,-0.0588978,-7.4908,0.25875,
2,1,0,1,0,8587.42,0.260479,0.26022,3.25234,7,0.0183445,11,0.000846324,-2.4878,-0.768506,-0.0767724,-9.7419,0.2602196,
2,1,0,1,0,8587.43,0.261983,0.261695,3.23908,7,0.0184056,11,0.000847651,-2.48958,-0.839962,-0.0702413,-8.89139,0.261695,
2,1,0,1,0,8587.45,0.263486,0.263211,3.23579,7,0.0184664,11,0.000851695,-2.49002,-2.08758,-0.0282624,-3.56643,0.263211,
2,1,0,1,0,8587.47,0.264974,0.264732,3.23138,7,0.0185266,11,0.00085545,-2.49061,-1.2421,-0.0475002,-5.98393,0.264732,
2,1,0,1,0,8587.49,0.266477,0.266229,3.22352,7,0.0185872,11,0.000858195,-2.49167,-1.11158,-0.0530777,-6.66424,0.266229,
2,1,0,1,0,8587.51,0.267981,0.267725,3.20887,7,0.0186477,11,0.000859094,-2.49365,-1.35891,-0.043417,-5.44206,0.267725,
2,1,0,1,0,8587.53,0.26947,0.269181,3.20723,7,0.0187073,11,0.000863325,-2.49387,-2.46435,-0.0239414,-2.9914,0.269181,
2,1,0,1,0,8587.55,0.270974,0.270677,3.20306,7,0.0187675,11,0.000866995,-2.49443,-6.60642,-0.0089307,-1.11289,0.270677,
2,1,0,1,0,8587.57,0.27247,0.272203,3.19547,7,0.0188273,11,0.000869817,-2.49547,-1.81843,-0.0324456,-4.02996,0.272203,
2,1,0,1,0,8587.58,0.273967,0.273719,3.17566,7,0.0188869,11,0.000869238,-2.49817,-1.85128,-0.0318698,-3.96011,0.273719,
2,1,0,1,0,8587.6,0.27547,0.27517,3.16434,7,0.0189466,11,0.000870733,-2.49972,-1.73485,-0.0340088,-4.21191,0.27517,
2,1,0,1,0,8587.62,0.276959,0.276678,3.16081,7,0.0190055,11,0.000874528,-2.5002,-2.7819,-0.0212085,-2.6201,0.276678,
2,1,0,1,0,8587.64,0.278463,0.278181,3.15459,7,0.019065,11,0.000877547,-2.50106,-1.35903,-0.0434132,-5.34245,0.278181,
2,1,0,1,0,8587.66,0.279967,0.279734,3.14385,7,0.0191244,11,0.000879444,-2.50254,-1.25838,-0.0468859,-5.76379,0.279734,
2,1,0,1,0,8587.68,0.281454,0.281173,3.13394,7,0.0191828,11,0.000881178,-2.50391,-1.0878,-0.0542379,-6.6521,0.281173,
2,1,0,1,0,8587.7,0.282958,0.282663,3.12828,7,0.0192418,11,0.000884248,-2.50469,-1.48484,-0.0397348,-4.85263,0.282663,
2,1,0,1,0,8587.72,0.284461,0.284171,3.13031,7,0.0193008,11,0.000889544,-2.50441,-1.1853,-0.0497763,-6.07366,0.284171,
2,1,0,1,0,8587.73,0.28595,0.285648,3.12026,7,0.0193589,11,0.000891294,-2.50581,-0.797267,-0.0740028,-9.01509,0.285648,
2,1,0,1,0,8587.75,0.287454,0.287162,3.10578,7,0.0194175,11,0.000891861,-2.50783,-0.950212,-0.0620914,-7.5431,0.287162,
2,1,0,1,0,8587.77,0.28895,0.288684,3.10975,7,0.0194756,11,0.000897733,-2.50728,-1.69731,-0.0347608,-4.21414,0.288684,
2,1,0,1,0,8587.79,0.290447,0.29016,3.10503,7,0.0195337,11,0.000900957,-2.50793,-1.16567,-0.0506147,-6.11806,0.29016,
2,1,0,1,0,8587.81,0.29195,0.291632,3.09695,7,0.0195919,11,0.000903169,-2.50907,-1.11615,-0.0528602,-6.36751,0.291632,
2,1,0,1,0,8587.83,0.29344,0.293178,3.0813,7,0.0196494,11,0.00090337,-2.51127,-1.75477,-0.0336227,-4.04684,0.293178,
2,1,0,1,0,8587.85,0.294943,0.294668,3.07942,7,0.0197072,11,0.000907407,-2.51153,-5.78784,-0.0101938,-1.2243,0.2946685,
2,1,0,1,0,8587.87,0.296447,0.29618,3.07583,7,0.019765,11,0.000911,-2.51204,8.08596,0.0072966,0.873172,0.29618,
2,1,0,1,0,8587.88,0.297934,0.297676,3.06376,7,0.0198221,11,0.00091201,-2.51374,-2.551,-0.0231282,-2.76166,0.297676,
2,1,0,1,0,8587.9,0.299438,0.299218,3.04799,7,0.0198797,11,0.000912015,-2.51599,-0.0212029,-2.78263,-293.893,0.299218,
2,1,0,1,0,8587.91,0.300012,0.299689,3.04662,7,0.0199011,11,0.000913039,-2.51618,0.000551798,106.923,4060.22,0.2996892,
2,1,0,1,0,8587.93,0.298737,0.298484,0.628996,7,0.0199269,11,0.000187745,-3.20135,0.00448636,13.151,1162.65,0.298484,
2,0,0,1,0,8587.94,0.29724,0.296953,-0.434523,7,0.0199271,11,-0.000129033,-3.36199,0.0258748,2.28021,561.394,0.296953,
2,0,0,1,0,8587.96,0.295744,0.295397,-0.84773,7,0.0199145,11,-0.000250417,-3.07174,-0.00540181,-10.9223,219.023,0.295397,
2,0,0,1,0,8587.98,0.29424,0.293949,-1.03843,7,0.0198966,11,-0.000305246,-2.98362,-0.021077,-2.79926,103.449,0.293949,
2,0,0,1,0,8588,0.292751,0.292449,-1.14335,7,0.0198763,11,-0.00033437,-2.94182,-0.0396275,-1.48887,64.5135,0.292449,
2,0,0,1,0,8588.02,0.291248,0.290941,-1.22879,7,0.019854,11,-0.000357504,-2.91052,-0.0559391,-1.05472,49.7105,0.290941,
2,0,0,1,0,8588.04,0.289744,0.289461,-1.30005,7,0.0198303,11,-0.000376313,-2.88604,-0.0664876,-0.887384,44.3781,0.289461,
2,0,0,1,0,8588.06,0.288257,0.287977,-1.35287,7,0.0198057,11,-0.000389596,-2.86874,-0.0828521,-0.712112,37.2549,0.287977,
2,0,0,1,0,8588.08,0.286753,0.286445,-1.40023,7,0.0197798,11,-0.00040109,-2.8538,-0.0912853,-0.646325,35.2024,0.286445,
2,0,0,1,0,8588.09,0.285249,0.284918,-1.44618,7,0.0197531,11,-0.000412042,-2.83978,-0.098738,-0.597541,33.7536,0.284918,
2,0,0,1,0,8588.11,0.28376,0.283463,-1.49209,7,0.0197257,11,-0.000422951,-2.82621,-0.108178,-0.545399,31.6943,0.283463,
2,0,0,1,0,8588.13,0.282257,0.281986,-1.53201,7,0.0196972,11,-0.000432006,-2.81474,-0.126476,-0.466492,27.845,0.281986,
2,0,0,1,0,8588.15,0.28076,0.280454,-1.57015,7,0.019668,11,-0.000440356,-2.80406,-0.141717,-0.416321,25.536,0.280454,
2,0,0,1,0,8588.17,0.279264,0.278972,-1.60472,7,0.0196383,11,-0.000447672,-2.7946,-0.157531,-0.374528,23.516,0.278972,
2,0,0,1,0,8588.19,0.27776,0.277484,-1.64092,7,0.0196077,11,-0.000455329,-2.78491,-0.163201,-0.361517,23.1297,0.277484,
2,0,0,1,0,8588.21,0.276271,0.27597,-1.67837,7,0.0195767,11,-0.000463181,-2.77511,-0.185318,-0.318372,20.8042,0.27597,
2,0,0,1,0,8588.23,0.274767,0.274503,-1.70933,7,0.0195449,11,-0.000469216,-2.76717,-0.233358,-0.25283,16.8435,0.274503,
2,0,0,1,0,8588.24,0.273264,0.272947,-1.73516,7,0.0195125,11,-0.000473608,-2.76066,-0.218661,-0.269824,18.2885,0.272947,
2,0,0,1,0,8588.26,0.271776,0.271444,-1.76886,7,0.0194799,11,-0.000480147,-2.75231,-0.201898,-0.292227,20.1656,0.271444,
2,0,0,1,0,8588.28,0.270273,0.269963,-1.80235,7,0.0194463,11,-0.000486566,-2.74416,-0.22905,-0.257585,18.0538,0.269963,
2,0,0,1,0,8588.3,0.268769,0.268457,-1.83001,7,0.0194122,11,-0.00049128,-2.73755,-0.286611,-0.205854,14.6401,0.268457,
2,0,0,1,0,8588.32,0.26728,0.266926,-1.85159,7,0.019378,11,-0.000494238,-2.73246,-0.27273,-0.216331,15.6079,0.266926,
2,0,0,1,0,8588.34,0.265777,0.265473,-1.87631,7,0.019343,11,-0.000498109,-2.7267,-0.266094,-0.221726,16.2215,0.265473,
2,0,0,1,0,8588.36,0.26428,0.264031,-1.90482,7,0.0193077,11,-0.00050293,-2.72015,-0.222249,-0.265468,19.6748,0.264031,
2,0,0,1,0,8588.38,0.262784,0.262526,-1.92996,7,0.0192719,11,-0.000506665,-2.71445,-0.263582,-0.22384,16.759,0.262526,
2,0,0,1,0,8588.39,0.26128,0.260977,-1.94664,7,0.0192354,11,-0.000508027,-2.71072,-0.254217,-0.232086,17.6402,0.260977,
2,0,0,1,0,8588.41,0.259791,0.259519,-1.96523,7,0.0191991,11,-0.000510013,-2.70659,-0.254875,-0.231486,17.8534,0.259519,
2,0,0,1,0,8588.43,0.258287,0.257982,-1.99336,7,0.0191618,11,-0.00051425,-2.70041,-0.242406,-0.243393,18.9328,0.257982,
2,0,0,1,0,8588.45,0.256786,0.25644,-2.00959,7,0.019124,11,-0.000515338,-2.69689,-0.299421,-0.197047,15.4746,0.25644,
2,0,0,1,0,8588.47,0.255296,0.255022,-2.03571,7,0.0190863,11,-0.000519152,-2.69128,-0.420624,-0.140268,11.1497,0.255022,
2,0,0,1,0,8588.49,0.253793,0.253455,-2.04723,7,0.0190478,11,-0.000518882,-2.68883,-0.402338,-0.146643,11.7749,0.253455,
2,0,0,1,0,8588.51,0.252289,0.25197,-2.0768,7,0.0190089,11,-0.000523293,-2.6826,-0.330565,-0.178482,14.4732,0.2519705,
2,0,0,1,0,8588.53,0.2508,0.250455,-2.0994,7,0.01897,11,-0.000525805,-2.67791,-0.425169,-0.138768,11.3704,0.250455,
2,0,0,1,0,8588.54,0.249296,0.248986,-2.12144,7,0.0189303,11,-0.000528208,-2.67337,-0.511321,-0.115387,9.53866,0.248986,
2,0,0,1,0,8588.56,0.2478,0.247521,-2.13716,7,0.0188905,11,-0.000528992,-2.67016,-0.465144,-0.126842,10.5897,0.247521,
2,0,0,1,0,8588.58,0.246304,0.246005,-2.16444,7,0.0188504,11,-0.000532463,-2.66465,-0.347462,-0.169803,14.31,0.246005,
2,0,0,1,0,8588.6,0.2448,0.24448,-2.1917,7,0.0188096,11,-0.000535827,-2.65922,-0.368026,-0.160315,13.619,0.24448,
2,0,0,1,0,8588.62,0.243313,0.243006,-2.20514,7,0.0187688,11,-0.000535861,-2.65656,-0.37579,-0.157002,13.4454,0.243006,
2,0,0,1,0,8588.64,0.241809,0.241545,-2.21642,7,0.0187272,11,-0.000535365,-2.65435,-0.375148,-0.157271,13.6228,0.241545,
2,0,0,1,0,8588.66,0.240306,0.240006,-2.23605,7,0.0186854,11,-0.000536666,-2.65052,-0.379164,-0.155605,13.5783,0.240006,
2,0,0,1,0,8588.67,0.238816,0.238522,-2.2585,7,0.0186436,11,-0.000538702,-2.64618,-0.344493,-0.171266,15.0842,0.238522,
2,0,0,1,0,8588.69,0.237313,0.237006,-2.27402,7,0.018601,11,-0.000538957,-2.64321,-0.387471,-0.152269,13.4872,0.237006,
2,0,0,1,0,8588.71,0.235809,0.235508,-2.29455,7,0.018558,11,-0.000540386,-2.6393,-0.360319,-0.163744,14.6671,0.235508,
2,0,0,1,0,8588.73,0.23432,0.233999,-2.30746,7,0.0185152,11,-0.000539942,-2.63687,-0.397947,-0.148261,13.396,0.233999,
2,0,0,1,0,8588.75,0.232816,0.232531,-2.32649,7,0.0184715,11,-0.000540982,-2.6333,-0.369133,-0.159834,14.543,0.232531,
2,0,0,1,0,8588.77,0.23132,0.230992,-2.34978,7,0.0184277,11,-0.000542782,-2.62897,-0.446868,-0.13203,12.1149,0.230992,
2,0,0,1,0,8588.79,0.229824,0.229478,-2.36728,7,0.0183835,11,-0.000543237,-2.62575,-0.535246,-0.11023,10.1851,0.229478,
2,0,0,1,0,8588.81,0.22832,0.228021,-2.38421,7,0.0183387,11,-0.00054365,-2.62266,-0.499452,-0.11813,11.0236,0.228021,
2,0,0,1,0,8588.82,0.226833,0.226548,-2.40412,7,0.0182942,11,-0.000544649,-2.61904,-0.42562,-0.138621,13.0183,0.226548,
2,0,0,1,0,8588.84,0.225329,0.22501,-2.43073,7,0.0182487,11,-0.000546939,-2.61426,-0.446465,-0.132149,12.5228,0.22501,
2,0,0,1,0,8588.86,0.223825,0.223508,-2.44946,7,0.0182028,11,-0.000547474,-2.61093,-0.573598,-0.102859,9.81779,0.223508,
2,0,0,1,0,8588.88,0.222336,0.22198,-2.4642,7,0.0181571,11,-0.000547002,-2.60832,-0.489605,-0.120505,11.6017,0.22198,
2,0,0,1,0,8588.9,0.220833,0.22053,-2.4906,7,0.0181106,11,-0.000549251,-2.6037,-0.39198,-0.150518,14.6176,0.2205296,
2,0,0,1,0,8588.92,0.219329,0.219053,-2.51841,7,0.0180636,11,-0.000551665,-2.59887,-0.392045,-0.150493,14.7338,0.219053,
2,0,0,1,0,8588.94,0.21784,0.217519,-2.53789,7,0.0180166,11,-0.000552038,-2.59553,-0.457451,-0.128976,12.708,0.217519,
2,0,0,1,0,8588.96,0.216336,0.216053,-2.54887,7,0.0179689,11,-0.000550691,-2.59365,-0.379532,-0.155454,15.465,0.216053,
2,0,0,1,0,8588.97,0.21484,0.214552,-2.57232,7,0.017921,11,-0.000551898,-2.58967,-0.35988,-0.163944,16.4509,0.214552,
2,0,0,1,0,8588.99,0.213343,0.213059,-2.59324,7,0.0178727,11,-0.000552513,-2.58616,-0.332658,-0.17736,17.9509,0.213059,
2,0,0,1,0,8589.01,0.21184,0.211523,-2.61272,7,0.0178238,11,-0.000552651,-2.58291,-0.391888,-0.150553,15.3552,0.211523,
2,0,0,1,0,8589.03,0.210352,0.210047,-2.63436,7,0.0177749,11,-0.000553338,-2.57933,-0.353613,-0.166849,17.1871,0.210047,
2,0,0,1,0,8589.05,0.208849,0.208543,-2.65137,7,0.0177251,11,-0.000552924,-2.57653,-0.314865,-0.187382,19.5003,0.208543,
2,0,0,1,0,8589.07,0.207345,0.207072,-2.67818,7,0.0176748,11,-0.000554576,-2.57216,-0.319022,-0.18494,19.3992,0.207072,
2,0,0,1,0,8589.09,0.205856,0.205495,-2.72178,7,0.0176244,11,-0.000559311,-2.56515,-0.390175,-0.151214,15.9991,0.205495,
2,0,0,1,0,8589.11,0.204353,0.204054,-2.73937,7,0.0175731,11,-0.000558981,-2.56235,-0.542269,-0.108802,11.6562,0.2040545,
2,0,0,1,0,8589.12,0.202849,0.20252,-2.75902,7,0.0175213,11,-0.000558758,-2.55924,-0.440668,-0.133888,14.4578,0.20252,
2,0,0,1,0,8589.14,0.20136,0.201022,-2.79361,7,0.0174697,11,-0.000561578,-2.55383,-0.386883,-0.152501,16.6093,0.201022,
2,0,0,1,0,8589.16,0.199856,0.199517,-2.82466,7,0.0174169,11,-0.000563567,-2.54903,-0.368388,-0.160157,17.6418,0.199517,
2,0,0,1,0,8589.18,0.19836,0.198041,-2.85752,7,0.0173638,11,-0.000565906,-2.54401,-0.381286,-0.15474,17.2051,0.198041,
2,0,0,1,0,8589.2,0.196863,0.196539,-2.88006,7,0.0173102,11,-0.000566043,-2.5406,-0.333621,-0.176847,19.9017,0.196539,
2,0,0,1,0,8589.22,0.19536,0.195013,-2.91972,7,0.0172558,11,-0.000569383,-2.53466,-0.274607,-0.214852,24.4718,0.195013,
2,0,0,1,0,8589.24,0.193872,0.19355,-2.95817,7,0.0172013,11,-0.000572555,-2.52898,-0.253111,-0.2331,26.8264,0.19355,
2,0,0,1,0,8589.26,0.192369,0.192014,-2.99353,7,0.0171454,11,-0.000574801,-2.52382,-0.273163,-0.215988,25.157,0.192014,
2,0,0,1,0,8589.27,0.190865,0.19053,-3.02208,7,0.0170889,11,-0.000575797,-2.51969,-0.246999,-0.238867,28.1877,0.19053,
2,0,0,1,0,8589.29,0.189376,0.189044,-3.05589,7,0.0170323,11,-0.000577696,-2.51486,-0.244122,-0.241682,28.9267,0.189044,
2,0,0,1,0,8589.31,0.187872,0.187521,-3.0969,7,0.0169744,11,-0.000580735,-2.50907,-0.229041,-0.257596,31.2299,0.187521,
2,0,0,1,0,8589.33,0.186369,0.186036,-3.14874,7,0.0169155,11,-0.000585778,-2.50186,-0.232605,-0.253649,31.1631,0.186036,
2,0,0,1,0,8589.35,0.18488,0.184555,-3.19001,7,0.0168564,11,-0.000588733,-2.49621,-0.230616,-0.255836,31.9301,0.184555,
2,0,0,1,0,8589.37,0.183376,0.183076,-3.23891,7,0.0167959,11,-0.000592966,-2.4896,-0.218819,-0.269629,34.2169,0.183076,
2,0,0,1,0,8589.39,0.18188,0.181529,-3.29824,7,0.0167347,11,-0.000598727,-2.48172,-0.201376,-0.292985,37.7634,0.1815294,
2,0,0,1,0,8589.41,0.180383,0.18005,-3.35436,7,0.0166724,11,-0.000603955,-2.47439,-0.202972,-0.29068,38.1357,0.18005,
2,0,0,1,0,8589.42,0.17888,0.178584,-3.42261,7,0.0166086,11,-0.000611222,-2.46564,-0.20334,-0.290154,38.7418,0.178584,
2,0,0,1,0,8589.44,0.177392,0.177086,-3.47617,7,0.0165444,11,-0.000615581,-2.4589,-0.183901,-0.320826,43.7312,0.177086,
2,0,0,1,0,8589.46,0.175889,0.175556,-3.55535,7,0.0164783,11,-0.000624164,-2.44912,-0.173561,-0.339938,47.1701,0.175556,
2,0,0,1,0,8589.48,0.174385,0.174075,-3.63634,7,0.0164107,11,-0.000632997,-2.43934,-0.162627,-0.362793,51.4554,0.174075,
2,0,0,1,0,8589.5,0.172896,0.17257,-3.71877,7,0.0163424,11,-0.000641749,-2.4296,-0.158864,-0.371387,53.8475,0.17257,
2,0,0,1,0,8589.52,0.171392,0.17105,-3.79913,7,0.0162718,11,-0.000649842,-2.42032,-0.14708,-0.401142,59.5484,0.1710505,
2,0,0,1,0,8589.54,0.169889,0.169596,-3.89603,7,0.0161995,11,-0.000660753,-2.40938,-0.128024,-0.460852,70.2257,0.169596,
2,0,0,1,0,8589.56,0.1684,0.168126,-4.00746,7,0.0161261,11,-0.00067376,-2.39713,-0.122019,-0.48353,75.5184,0.168126,
2,0,0,1,0,8589.57,0.166896,0.166561,-4.11614,7,0.0160498,11,-0.000685586,-2.38551,-0.118884,-0.496282,79.6188,0.166561,
2,0,0,1,0,8589.59,0.165392,0.165105,-4.22473,7,0.0159713,11,-0.000697525,-2.3742,-0.112187,-0.525909,86.9596,0.165105,
2,0,0,1,0,8589.61,0.163905,0.163594,-4.34903,7,0.0158916,11,-0.000711476,-2.36161,-0.109471,-0.538958,91.9074,0.163594,
2,0,0,1,0,8589.63,0.162401,0.162079,-4.49183,7,0.0158083,11,-0.00072803,-2.34758,-0.101916,-0.578908,101.828,0.162079,
2,0,0,1,0,8589.65,0.160905,0.160609,-4.64664,7,0.0157227,11,-0.000746291,-2.33286,-0.100511,-0.586999,106.748,0.160609,
2,0,0,1,0,8589.67,0.159409,0.159061,-4.81583,7,0.0156341,11,-0.000766011,-2.31733,-0.0976175,-0.6044,113.815,0.159061,
2,0,0,1,0,8589.69,0.157905,0.157571,-4.99126,7,0.0155418,11,-0.000786478,-2.30179,-0.0932282,-0.632855,123.686,0.157571,
2,0,0,1,0,8589.7,0.156416,0.156114,-5.19077,7,0.015447,11,-0.000810352,-2.28477,-0.0903015,-0.653366,132.658,0.156114,
2,0,0,1,0,8589.72,0.154912,0.154583,-5.4056,7,0.0153474,11,-0.000835613,-2.26716,-0.0875632,-0.673799,142.269,0.1545829,
2,0,0,1,0,8589.74,0.153409,0.153092,-5.63431,7,0.0152436,11,-0.00086257,-2.24916,-0.0886586,-0.665474,146.361,0.153092,
2,0,0,1,0,8589.76,0.151919,0.151636,-5.86155,7,0.0151367,11,-0.00088882,-2.23199,-0.0825331,-0.714864,163.793,0.151636,
2,0,0,1,0,8589.78,0.150416,0.150103,-6.12655,7,0.0150242,11,-0.000919613,-2.21278,-0.0818751,-0.72061,172.076,0.150103,
2,0,0,1,0,8589.8,0.148912,0.148625,-6.38496,7,0.0149067,11,-0.000948965,-2.19484,-0.0810559,-0.727892,181.248,0.148625,
2,0,0,1,0,8589.82,0.147425,0.147124,-6.659,7,0.0147854,11,-0.000979696,-2.17659,-0.0798324,-0.739049,191.894,0.147124,
2,0,0,1,0,8589.84,0.145921,0.145602,-6.93679,7,0.0146576,11,-0.00101001,-2.15884,-0.0825734,-0.714515,193.324,0.145602,
2,0,0,1,0,8589.85,0.144425,0.144093,-7.22807,7,0.0145251,11,-0.00104151,-2.14098,-0.0845541,-0.697778,196.725,0.144093,
2,0,0,1,0,8589.87,0.142929,0.142637,-7.50452,7,0.0143874,11,-0.00107042,-2.12468,-0.0847863,-0.695867,204.249,0.142637,
2,0,0,1,0,8589.89,0.141425,0.141119,-7.82116,7,0.0142432,11,-0.00110372,-2.10673,-0.0856619,-0.688755,209.814,0.1411192,
2,0,0,1,0,8589.91,0.139936,0.139666,-8.12423,7,0.0140947,11,-0.00113468,-2.09022,-0.0936371,-0.630092,199.536,0.139666,
2,0,0,1,0,8589.93,0.138432,0.138155,-8.41574,7,0.0139392,11,-0.00116267,-2.07491,-0.099494,-0.593001,194.764,0.138155,
2,0,0,1,0,8589.95,0.136929,0.136627,-8.71035,7,0.013778,11,-0.00119007,-2.05996,-0.10348,-0.570156,193.618,0.1366272,
2,0,0,1,0,8589.97,0.135439,0.135151,-8.99947,7,0.0136132,11,-0.00121628,-2.04578,-0.112683,-0.523594,183.534,0.135151,
2,0,0,1,0,8589.99,0.133936,0.133649,-9.26877,7,0.0134413,11,-0.00123876,-2.03298,-0.12164,-0.485039,175.12,0.133649,
2,0,0,1,0,8590,0.132432,0.132105,-9.52117,7,0.0132646,11,-0.00125779,-2.02131,-0.133348,-0.44245,164.199,0.132105,
2,0,0,1,0,8590.02,0.130945,0.13067,-9.7684,7,0.0130851,11,-0.00127644,-2.01018,-0.142988,-0.412622,157.025,0.13067,
2,0,0,1,0,8590.04,0.129441,0.129135,-10.0056,7,0.0128992,11,-0.00129207,-1.99976,-0.159023,-0.371015,144.547,0.129135,
2,0,0,1,0,8590.06,0.127945,0.127639,-10.2207,7,0.0127101,11,-0.00130455,-1.99052,-0.176768,-0.333771,132.777,0.127639,
2,0,0,1,0,8590.08,0.126448,0.126127,-10.4019,7,0.0125173,11,-0.00131196,-1.98289,-0.195036,-0.302508,122.629,0.126127,
2,0,0,1,0,8590.1,0.124945,0.124614,-10.5841,7,0.0123201,11,-0.00131893,-1.97535,-0.222221,-0.265501,109.401,0.124614,
2,0,0,1,0,8590.12,0.123456,0.123181,-10.7376,7,0.0121218,11,-0.00132266,-1.96909,-0.248922,-0.237022,99.1032,0.123181,
2,0,0,1,0,8590.14,0.121952,0.121654,-10.8684,7,0.0119187,11,-0.00132218,-1.96384,-0.317372,-0.185902,78.6416,0.121654,
2,0,0,1,0,8590.15,0.120449,0.120163,-10.9728,7,0.0117133,11,-0.00131853,-1.95968,-0.378563,-0.155853,66.6202,0.120163,
2,0,0,1,0,8590.17,0.118959,0.118634,-11.0586,7,0.0115084,11,-0.00131192,-1.9563,-0.484892,-0.121677,52.4436,0.118634,
2,0,0,1,0,8590.19,0.117456,0.117163,-11.1207,7,0.0112999,11,-0.00130293,-1.95387,-0.622288,-0.0948114,41.0878,0.117163,
2,0,0,1,0,8590.21,0.115952,0.11566,-11.1673,7,0.0110902,11,-0.00129161,-1.95205,-1.09196,-0.0540315,23.4988,0.11566,
2,0,0,1,0,8590.23,0.114465,0.114115,-11.1854,7,0.0108822,11,-0.00127642,-1.95135,-4.19857,-0.0140524,6.12472,0.114115,
2,0,0,1,0,8590.25,0.112961,0.112667,-11.1789,7,0.0106719,11,-0.00125949,-1.9516,3.41413,0.0172811,-7.53256,0.112667,
2,0,0,1,0,8590.27,0.111465,0.111144,-11.1637,7,0.0104629,11,-0.00124079,-1.95219,1.21144,0.0487023,-21.1824,0.111144,
2,0,0,1,0,8590.29,0.109968,0.109644,-11.1191,7,0.0102545,11,-0.00121914,-1.95393,0.689536,0.0855648,-37.064,0.109644,
2,0,0,1,0,8590.3,0.108465,0.108167,-11.0567,7,0.0100459,11,-0.00119598,-1.95637,0.478658,0.123261,-53.0734,0.108167,
2,0,0,1,0,8590.32,0.106976,0.106606,-10.9638,7,0.00984112,11,-0.0011688,-1.96004,0.381565,0.154627,-66.1034,0.106606,
2,0,0,1,0,8590.34,0.105472,0.105139,-10.8624,7,0.00963591,11,-0.00114207,-1.96407,0.337119,0.175013,-74.1015,0.105139,
2,0,0,1,0,8590.36,0.103968,0.103671,-10.7505,7,0.00943269,11,-0.00111451,-1.96857,0.285422,0.206711,-86.584,0.103671,
2,0,0,1,0,8590.38,0.102479,0.102173,-10.6208,7,0.00923401,11,-0.00108516,-1.97384,0.249606,0.236372,-97.7628,0.102173,
2,0,0,1,0,8590.4,0.100976,0.10067,-10.458,7,0.00903594,11,-0.0010528,-1.98055,0.226393,0.260608,-106.213,0.10067,
2,0,0,1,0,8590.42,0.0994721,0.0991666,-10.2927,7,0.00884091,11,-0.0010207,-1.98747,0.212854,0.277185,-111.252,0.0991666,
2,0,0,1,0,8590.44,0.0979846,0.097654,-10.1253,7,0.00865113,11,-0.00098878,-1.99459,0.205203,0.28752,-113.486,0.097654,
2,0,0,1,0,8590.45,0.0964811,0.09616,-9.94253,7,0.00846252,11,-0.000956074,-2.0025,0.19317,0.30543,-118.382,0.09616,
2,0,0,1,0,8590.47,0.0949847,0.0946749,-9.75641,7,0.00827832,11,-0.000923687,-2.01071,0.189713,0.310996,-118.434,0.0946749,
2,0,0,1,0,8590.49,0.0934883,0.0931838,-9.57352,7,0.00809763,11,-0.000892097,-2.01893,0.189387,0.311532,-116.519,0.0931838,
2,0,0,1,0,8590.51,0.0919847,0.0916469,-9.39487,7,0.00791927,11,-0.000861011,-2.02711,0.194327,0.303612,-111.417,0.0916469,
2,0,0,1,0,8590.53,0.0904955,0.0901878,-9.23501,7,0.00774592,11,-0.000832885,-2.03456,0.191995,0.3073,-110.759,0.0901878,
2,0,0,1,0,8590.55,0.0889919,0.0886707,-9.07128,7,0.00757383,11,-0.000804357,-2.04233,0.196115,0.300844,-106.565,0.0886707,
2,0,0,1,0,8590.57,0.0874884,0.0871801,-8.91176,7,0.00740481,11,-0.000776929,-2.05004,0.206637,0.285524,-99.4221,0.0871801,
2,0,0,1,0,8590.59,0.0860009,0.0857074,-8.76945,7,0.00724036,11,-0.000751607,-2.05703,0.21863,0.269862,-92.4518,0.0857074,
2,0,0,1,0,8590.6,0.0844973,0.0841572,-8.63887,7,0.0070767,11,-0.000727023,-2.06354,0.228673,0.258011,-87.0553,0.0841572,
2,0,0,1,0,8590.62,0.0829938,0.0827055,-8.51651,7,0.00691542,11,-0.000704362,-2.06974,0.241735,0.244069,-81.1846,0.0827055,
2,0,0,1,0,8590.64,0.0815045,0.0811762,-8.40129,7,0.00675808,11,-0.000681984,-2.07565,0.256083,0.230394,-75.6409,0.0811762,
2,0,0,1,0,8590.66,0.080001,0.0796812,-8.29869,7,0.0066011,11,-0.000661249,-2.08099,0.289404,0.203867,-66.0984,0.0796812,
2,0,0,1,0,8590.68,0.0785046,0.0782035,-8.21523,7,0.00644674,11,-0.00064246,-2.08538,0.307857,0.191647,-61.4379,0.0782035,
2,0,0,1,0,8590.7,0.0770082,0.0766661,-8.1283,7,0.00629405,11,-0.000623165,-2.09,0.311373,0.189483,-60.0561,0.0766661,
2,0,0,1,0,8590.72,0.0755046,0.0752015,-8.03536,7,0.00614216,11,-0.000604271,-2.09499,0.339754,0.173655,-54.4938,0.0752015,
2,0,0,1,0,8590.73,0.0740154,0.0737079,-7.96335,7,0.00599351,11,-0.000586962,-2.0989,0.369358,0.159737,-49.6471,0.0737079,
2,0,0,1,0,8590.75,0.0725118,0.0721615,-7.88899,7,0.00584459,11,-0.000569281,-2.10298,0.417596,0.141285,-43.4782,0.0721615,
2,0,0,1,0,8590.77,0.0710083,0.0706829,-7.8195,7,0.00569698,11,-0.000552705,-2.10682,0.403309,0.14629,-44.6048,0.0706829,
2,0,0,1,0,8590.79,0.0695208,0.0692531,-7.7424,7,0.00555223,11,-0.000536185,-2.11112,0.41974,0.140563,-42.5063,0.0692531,
2,0,0,1,0,8590.81,0.0680173,0.0677128,-7.67146,7,0.0054073,11,-0.000519456,-2.11512,0.433217,0.13619,-40.8431,0.0677128,
2,0,0,1,0,8590.83,0.0665137,0.066167,-7.60743,7,0.00526354,11,-0.000503361,-2.11876,0.430584,0.137023,-40.7075,0.066167,
2,0,0,1,0,8590.85,0.0650244,0.0647133,-7.5479,7,0.00512244,11,-0.00048845,-2.12217,0.399124,0.147824,-43.5313,0.0647133,
2,0,0,1,0,8590.87,0.0635209,0.0632075,-7.47957,7,0.00498107,11,-0.000472765,-2.12612,0.354557,0.166405,-48.5859,0.0632075,
2,0,0,1,0,8590.88,0.0620245,0.0616838,-7.40742,7,0.0048418,11,-0.000456918,-2.13033,0.35326,0.167016,-48.3352,0.06168377,
2,0,0,1,0,8590.9,0.0605281,0.0602295,-7.34025,7,0.00470383,11,-0.0004421,-2.13429,0.351256,0.167969,-48.1204,0.0602295,
2,0,0,1,0,8590.92,0.0590246,0.0586889,-7.27788,7,0.00456637,11,-0.000427131,-2.138,0.328819,0.17943,-50.9224,0.0586889,
2,0,0,1,0,8590.94,0.0575353,0.0572114,-7.20641,7,0.00443172,11,-0.000412288,-2.14228,0.306422,0.192545,-54.0724,0.0572114,
2,0,0,1,0,8590.96,0.0560317,0.0557413,-7.12403,7,0.00429708,11,-0.000397103,-2.14727,0.302523,0.195027,-54.207,0.05574128,
2,0,0,1,0,8590.98,0.0545282,0.0541884,-7.05098,7,0.00416393,11,-0.000382081,-2.15175,0.315816,0.186818,-51.3626,0.0541884,
2,0,0,1,0,8591,0.0530407,0.0527217,-6.97553,7,0.00403363,11,-0.000367762,-2.15642,0.29635,0.199089,-54.1011,0.0527217,
2,0,0,1,0,8591.02,0.0515372,0.0511791,-6.88791,7,0.00390338,11,-0.000352517,-2.16191,0.281509,0.209585,-56.2357,0.0511791,
2,0,0,1,0,8591.03,0.0500336,0.0497158,-6.79208,7,0.0037748,11,-0.000337674,-2.168,0.26798,0.220166,-58.3531,0.0497158,
2,0,0,1,0,8591.05,0.0485444,0.0482359,-6.70355,7,0.00364933,11,-0.000323352,-2.1737,0.252651,0.233524,-61.0695,0.0482359,
2,0,0,1,0,8591.07,0.0470408,0.0467137,-6.60716,7,0.0035242,11,-0.000308645,-2.17999,0.257316,0.22929,-59.1151,0.0467137,
2,0,0,1,0,8591.09,0.0455444,0.0452088,-6.51425,7,0.00340147,11,-0.000294501,-2.18614,0.244087,0.241717,-61.4205,0.0452088,
2,0,0,1,0,8591.11,0.044048,0.0437122,-6.41962,7,0.00328045,11,-0.000280616,-2.19249,0.235078,0.250981,-62.8775,0.0437122,
2,0,0,1,0,8591.13,0.0425445,0.042221,-6.31552,7,0.0031607,11,-0.000266648,-2.19959,0.233296,0.252898,-62.4629,0.042221,
2,0,0,1,0,8591.15,0.0410552,0.0407288,-6.22478,7,0.00304397,11,-0.000253528,-2.20588,0.235294,0.25075,-60.9632,0.04072877,
2,0,0,1,0,8591.17,0.0395517,0.0392338,-6.13728,7,0.00292765,11,-0.000240789,-2.21202,0.228279,0.258455,-61.899,0.0392338,
2,0,0,1,0,8591.18,0.0380481,0.0377062,-6.04836,7,0.00281303,11,-0.00022806,-2.21836,0.229489,0.257093,-60.7132,0.0377062,
2,0,0,1,0,8591.2,0.0365606,0.0362661,-5.95106,7,0.00270141,11,-0.000215822,-2.22541,0.229238,0.257374,-59.9265,0.0362661,
2,0,0,1,0,8591.22,0.0350571,0.034735,-5.87392,7,0.0025902,11,-0.000204031,-2.23107,0.245796,0.240036,-55.0732,0.034735,
2,0,0,1,0,8591.24,0.0335535,0.0332288,-5.79955,7,0.00248042,11,-0.000192712,-2.23661,0.257089,0.229493,-51.9403,0.0332288,
2,0,0,1,0,8591.26,0.0320643,0.0317011,-5.73046,7,0.00237323,11,-0.000181662,-2.24181,0.263046,0.224296,-50.143,0.0317011,
2,0,0,1,0,8591.28,0.0305607,0.0302546,-5.64874,7,0.0022663,11,-0.000170901,-2.24805,0.274411,0.215006,-47.4797,0.0302546,
2,0,0,1,0,8591.3,0.0290643,0.0288059,-5.59342,7,0.00216124,11,-0.000161123,-2.25232,0.319346,0.184753,-40.3318,0.0288059,
2,0,0,1,0,8591.32,0.0275679,0.0272691,-5.54057,7,0.0020573,11,-0.000151086,-2.25645,0.36142,0.163245,-35.2529,0.0272691,
2,0,0,1,0,8591.33,0.0260644,0.0257609,-5.4831,7,0.00195378,11,-0.000141249,-2.26097,0.378846,0.155736,-33.2874,0.0257609,
2,0,0,1,0,8591.35,0.0245751,0.0242591,-5.42866,7,0.00185234,11,-0.000131695,-2.26531,0.431589,0.136704,-28.9821,0.0242591,
2,0,0,1,0,8591.37,0.0230716,0.0227622,-5.38329,7,0.00175076,11,-0.000122535,-2.26895,0.487611,0.120998,-25.4504,0.0227622,
2,0,0,1,0,8591.39,0.021568,0.0212686,-5.34337,7,0.00164991,11,-0.000113646,-2.27218,0.59026,0.0999559,-20.8576,0.0212686,
2,0,0,1,0,8591.41,0.0200805,0.0197109,-5.30619,7,0.00155078,11,-0.00010459,-2.27522,0.58163,0.101439,-21.0305,0.0197109,
2,0,0,1,0,8591.43,0.018577,0.0182388,-5.27373,7,0.00145118,11,-9.61866e-05,-2.27788,0.632175,0.0933286,-19.2508,0.0182388,
2,0,0,1,0,8591.45,0.0170735,0.0167606,-5.24385,7,0.00135222,11,-8.78898e-05,-2.28035,0.694805,0.0849159,-17.4318,0.0167606,
2,0,0,1,0,8591.47,0.0155842,0.0152193,-5.22765,7,0.00125475,11,-7.9561e-05,-2.28169,0.951867,0.0619834,-12.6589,0.0152193,
2,0,0,1,0,8591.48,0.0140806,0.0137611,-5.21499,7,0.00115648,11,-7.1764e-05,-2.28275,1.0098,0.0584272,-11.8892,0.0137611,
2,0,0,1,0,8591.5,0.0125842,0.0122493,-5.20304,7,0.001059,11,-6.37334e-05,-2.28374,0.900109,0.0655476,-13.3119,0.0122493,
2,0,0,1,0,8591.52,0.0110878,0.0107603,-5.18307,7,0.000961932,11,-5.57714e-05,-2.28541,1.02798,0.0573941,-11.6351,0.0107603,
2,0,0,1,0,8591.54,0.00958429,0.00928616,-5.18023,7,0.000864531,11,-4.81044e-05,-2.28565,2.50353,0.0235668,-4.76329,0.00928616,
2,0,0,1,0,8591.56,0.0080968,0.00778781,-5.17766,7,0.000768227,11,-4.03226e-05,-2.28587,3.98725,0.0147972,-2.98852,0.00778781,
2,0,0,1,0,8591.58,0.00659326,0.00626185,-5.17236,7,0.000671002,11,-3.23885e-05,-2.28631,3.33869,0.0176716,-3.56666,0.00626185,
2,0,0,1,0,8591.6,0.00508972,0.0047928,-5.16524,7,0.000573829,11,-2.4756e-05,-2.28691,74.1604,0.000795573,-0.160441,0.0047928,
2,0,0,1,0,8591.62,0.00360044,0.00329275,-5.17638,7,0.000477721,11,-1.70445e-05,-2.28597,-0.733875,-0.0803951,16.3093,0.00329275,
2,0,0,1,0,8591.63,0.0020969,0.00172656,-5.23687,7,0.000380346,11,-9.04178e-06,-2.28093,-0.811619,-0.0726942,14.7282,0.00172656,
2,0,0,1,0,8591.65,0.000593362,0.00025684,-5.21699,7,0.000282089,11,-1.33993e-06,-2.28258, , , ,0.00025684,
2,0,0,1,0,8591.66,0.000199195,-0.000163081,-5.22081,7,0.00025652,11,8.51417e-07,-2.28226, , , ,-0.000163081,