File: Figure_codes/Fig_3-5/rawdata_trumpetplot_data/before 10th/20221101_1-115_002_TrumpetPlot_ParaChange_12_CV_C01_7.csv
mode,ox/red,error,control changes,counter inc.,time/s,control/V,Ewe/V,<I>/mA,cycle number,(Q-Qo)/C,I Range,P/W,log(|I|),Tafel slope mV/dec,alpha_eff,dI/d(E-IR),E-IR/V,
2,1,0,0,0,9831.49,2.44065e-05,-0.000268062,8.01574,8,0.0000000E+000,10,-2.14871e-06,-2.09606, , , ,-0.000268062,
2,1,0,1,0,9831.5,0.00179726,0.00144582,7.61831,8,6.65994e-05,10,1.10147e-05,-2.11814, , , ,0.00144582,
2,1,0,1,0,9831.51,0.00379485,0.00353986,8.15516,8,0.000145657,10,2.88681e-05,-2.08857,0.0764454,0.771792,243.991,0.00353986,
2,1,0,1,0,9831.52,0.00579244,0.00547961,8.60251,8,0.000229594,10,4.71384e-05,-2.06537,0.0950521,0.620712,207.232,0.00547961,
2,1,0,1,0,9831.53,0.00779002,0.00745753,8.96703,8,0.000317518,10,6.68719e-05,-2.04735,0.11763,0.501572,175.115,0.00745753,
2,1,0,1,0,9831.54,0.00977853,0.00945346,9.2984,8,0.000408121,10,8.7902e-05,-2.03159,0.153721,0.383812,138.431,0.00945346,
2,1,0,1,0,9831.55,0.0117761,0.0114654,9.52185,8,0.000502295,10,0.000109172,-2.02128,0.201771,0.29241,108.579,0.0114654,
2,1,0,1,0,9831.56,0.0137737,0.0134653,9.73399,8,0.000598633,10,0.000131071,-2.01171,0.24537,0.240453,91.0579,0.0134653,
2,1,0,1,0,9831.57,0.0157713,0.0154781,9.88723,8,0.000696722,10,0.000153036,-2.00493,0.29013,0.203357,78.4871,0.0154781,
2,1,0,1,0,9831.58,0.017778,0.0174493,10.0467,8,0.000796501,10,0.000175308,-1.99798,0.365921,0.161237,62.9977,0.0174493,
2,1,0,1,0,9831.59,0.0197755,0.0194379,10.1367,8,0.000897404,10,0.000197035,-1.9941,0.453195,0.130187,51.566,0.0194379,
2,1,0,1,0,9831.6,0.0217731,0.0214403,10.2525,8,0.000999427,10,0.000219816,-1.98917,0.489758,0.120468,48.1108,0.02144029,
2,1,0,1,0,9831.61,0.0237707,0.0234601,10.3302,8,0.00110239,10,0.000242347,-1.98589,0.505392,0.116741,47.1414,0.0234601,
2,1,0,1,0,9831.62,0.0257774,0.0254634,10.4421,8,0.00120626,10,0.000265892,-1.98121,0.555144,0.106279,43.2016,0.0254634,
2,1,0,1,0,9831.63,0.027775,0.0274311,10.5018,8,0.00131097,10,0.000288075,-1.97874,0.600118,0.098314,40.3752,0.0274311,
2,1,0,1,0,9831.64,0.0297726,0.0294743,10.6041,8,0.00141654,10,0.000312548,-1.97453,0.641728,0.0919392,37.9544,0.0294743,
2,1,0,1,0,9831.65,0.0317701,0.0314507,10.6543,8,0.00152284,10,0.000335086,-1.97247,0.557631,0.105805,44.1463,0.0314507,
2,1,0,1,0,9831.66,0.0337586,0.0334306,10.7787,8,0.00162897,10,0.00036034,-1.96743,0.512774,0.11506,48.2745,0.0334306,
2,1,0,1,0,9831.67,0.0357562,0.0354475,10.8473,8,0.0017371,10,0.000384508,-1.96468,0.594793,0.0991942,42.0535,0.0354475,
2,1,0,1,0,9831.68,0.0377538,0.0374509,10.9478,8,0.0018462,10,0.000410005,-1.96067,0.503755,0.117121,50.0365,0.0374509,
2,1,0,1,0,9831.69,0.0397514,0.0394415,11.0471,8,0.00195617,10,0.000435715,-1.95675,0.414538,0.142327,61.4911,0.0394415,
2,1,0,1,0,9831.7,0.0417399,0.0414516,11.1938,8,0.00206624,10,0.000464002,-1.95102,0.420021,0.140469,61.2231,0.0414516,
2,1,0,1,0,9831.71,0.0437375,0.0434011,11.2895,8,0.00217863,10,0.000489978,-1.94732,0.465019,0.126877,55.9748,0.0434011,
2,1,0,1,0,9831.72,0.0457351,0.0454157,11.4157,8,0.00229214,10,0.000518452,-1.9425,0.420144,0.140428,62.5597,0.0454157,
2,1,0,1,0,9831.73,0.0477327,0.0474285,11.5415,8,0.00240693,10,0.000547395,-1.93774,0.356157,0.165657,74.7697,0.0474285,
2,1,0,1,0,9831.74,0.0497393,0.049431,11.7159,8,0.00252323,10,0.00057913,-1.93122,0.350711,0.16823,76.7612,0.049431,
2,1,0,1,0,9831.75,0.0517369,0.0513579,11.8431,8,0.00264095,10,0.000608237,-1.92653,0.34979,0.168672,78.1337,0.0513579,
2,1,0,1,0,9831.76,0.0537345,0.0533777,12.0243,8,0.0027603,10,0.00064183,-1.91994,0.339043,0.174019,81.5455,0.0533777,
2,1,0,1,0,9831.77,0.0557321,0.0553992,12.1727,8,0.0028813,10,0.000674356,-1.91461,0.337908,0.174604,83.0683,0.0553992,
2,1,0,1,0,9831.78,0.0577297,0.0573956,12.3581,8,0.003004,10,0.000709298,-1.90805,0.30266,0.194938,94.0266,0.0573956,
2,1,0,1,0,9831.79,0.0597364,0.0593876,12.5477,8,0.00312863,10,0.000745176,-1.90144,0.287185,0.205442,100.697,0.0593876,
2,1,0,1,0,9831.8,0.0617339,0.0614135,12.7626,8,0.00325525,10,0.000783798,-1.89406,0.312107,0.189038,93.9485,0.0614135,
2,1,0,1,0,9831.81,0.0637315,0.0633821,12.9229,8,0.00338367,10,0.000819083,-1.88864,0.311486,0.189414,95.7517,0.0633821,
2,1,0,1,0,9831.82,0.0657291,0.0654088,13.1452,8,0.00351408,10,0.000859812,-1.88123,0.28546,0.206684,105.946,0.0654088,
2,1,0,1,0,9831.83,0.0677176,0.0673973,13.3483,8,0.00364529,10,0.000899641,-1.87457,0.295398,0.199731,104.073,0.0673973,
2,1,0,1,0,9831.84,0.0697152,0.0693943,13.56,8,0.00377992,10,0.000940985,-1.86774,0.31072,0.189882,100.398,0.0693943,
2,1,0,1,0,9831.85,0.0717128,0.0713953,13.7497,8,0.00391645,10,0.000981665,-1.86171,0.29282,0.201489,108.329,0.0713953,
2,1,0,1,0,9831.86,0.0737104,0.0734066,13.9946,8,0.00405524,10,0.0010273,-1.85404,0.27324,0.215928,117.82,0.0734066,
2,1,0,1,0,9831.87,0.0756989,0.0753481,14.2154,8,0.00419494,10,0.00107111,-1.84724,0.287782,0.205016,113.779,0.0753481,
2,1,0,1,0,9831.88,0.0776965,0.0773948,14.4484,8,0.00433829,10,0.00111823,-1.84018,0.30167,0.195578,110.177,0.0773948,
2,1,0,1,0,9831.89,0.0796941,0.0793477,14.6561,8,0.00448384,10,0.00116293,-1.83398,0.307969,0.191578,109.656,0.0793477,
2,1,0,1,0,9831.9,0.0816916,0.0813901,14.8865,8,0.00463161,10,0.00121161,-1.82721,0.313604,0.188135,109.216,0.0813901,
2,1,0,1,0,9831.91,0.0836983,0.0833734,15.0958,8,0.00478154,10,0.00125859,-1.82114,0.320832,0.183897,108.382,0.0833734,
2,1,0,1,0,9831.92,0.0856959,0.0853767,15.3186,8,0.0049337,10,0.00130785,-1.81478,0.336015,0.175587,104.884,0.0853767,
2,1,0,1,0,9831.93,0.0876935,0.0873948,15.5176,8,0.00508791,10,0.00135615,-1.80918,0.343671,0.171676,104.024,0.0873948,
2,1,0,1,0,9831.94,0.0896911,0.0893816,15.7352,8,0.00524421,10,0.00140644,-1.80313,0.336102,0.175542,107.765,0.0893816,
2,1,0,1,0,9831.95,0.0916978,0.091358,15.9447,8,0.00540258,10,0.00145667,-1.79738,0.34252,0.172253,107.209,0.091358,
2,1,0,1,0,9831.96,0.0936953,0.0933656,16.1623,8,0.00556328,10,0.00150901,-1.7915,0.370677,0.159168,100.29,0.0933656,
2,1,0,1,0,9831.97,0.0956929,0.0953707,16.3471,8,0.00572588,10,0.00155903,-1.78656,0.375537,0.157108,100.332,0.09537068,
2,1,0,1,0,9831.98,0.0976905,0.0973939,16.5665,8,0.00589052,10,0.00161348,-1.78077,0.357715,0.164936,106.602,0.09739393,
2,1,0,1,0,9831.99,0.099679,0.0994011,16.7767,8,0.00605554,10,0.00166763,-1.77529,0.367555,0.16052,105.094,0.0994011,
2,1,0,1,0,9832,0.101677,0.101396,16.9871,8,0.00622443,10,0.00172242,-1.76988,0.37847,0.155891,103.294,0.101396,
2,1,0,1,0,9832.01,0.103674,0.103316,17.1812,8,0.00639527,10,0.0017751,-1.76495,0.366642,0.16092,108.026,0.103316,
2,1,0,1,0,9832.02,0.105672,0.105373,17.4167,8,0.00656829,10,0.00183525,-1.75903,0.356818,0.16535,112.329,0.105373,
2,1,0,1,0,9832.03,0.107656,0.107355,17.6348,8,0.00674177,10,0.00189318,-1.75363,0.348524,0.169285,116.576,0.107355,
2,1,0,1,0,9832.04,0.109658,0.10931,17.8757,8,0.00691938,10,0.001954,-1.74774,0.341815,0.172608,120.411,0.10931,
2,1,0,1,0,9832.05,0.111655,0.11136,18.117,8,0.00709937,10,0.00201751,-1.74191,0.322231,0.183099,129.595,0.11136,
2,1,0,1,0,9832.06,0.113653,0.113345,18.3986,8,0.00728199,10,0.00208538,-1.73522,0.314202,0.187777,134.719,0.113345,
2,1,0,1,0,9832.07,0.115651,0.115331,18.652,8,0.00746721,10,0.00215115,-1.72927,0.292365,0.201803,147.218,0.115331,
2,1,0,1,0,9832.08,0.117657,0.117361,18.9898,8,0.0076555,10,0.00222866,-1.72148,0.278204,0.212075,156.974,0.117361,
2,1,0,1,0,9832.09,0.119655,0.119354,19.2835,8,0.00784689,10,0.00230156,-1.71481,0.279486,0.211102,159.06,0.1193539,
2,1,0,1,0,9832.1,0.121652,0.121366,19.6268,8,0.00804149,10,0.00238203,-1.70715,0.266917,0.221042,169.259,0.121366,
2,1,0,1,0,9832.11,0.12365,0.12336,19.9617,8,0.00823943,10,0.00246248,-1.6998,0.25274,0.233442,182.105,0.1233605,
2,1,0,1,0,9832.12,0.125657,0.125362,20.3545,8,0.00844114,10,0.00255169,-1.69134,0.252738,0.233443,185.215,0.125362,
2,1,0,1,0,9832.13,0.127654,0.127358,20.7022,8,0.00864647,10,0.00263659,-1.68398,0.256497,0.230023,186.038,0.127358,
2,1,0,1,0,9832.14,0.129652,0.129355,21.0973,8,0.00885555,10,0.00272904,-1.67577,0.249953,0.236045,194.255,0.129355,
2,1,0,1,0,9832.15,0.131649,0.131345,21.4766,8,0.00906849,10,0.00282084,-1.66803,0.250809,0.235239,197.283,0.131345,
2,1,0,1,0,9832.16,0.133638,0.13335,21.8856,8,0.0092833,10,0.00291845,-1.65984,0.254628,0.23171,197.71,0.13335,
2,1,0,1,0,9832.17,0.135636,0.135282,22.255,8,0.00950401,10,0.0030107,-1.65257,0.262089,0.225114,195.641,0.135282,
2,1,0,1,0,9832.18,0.137633,0.137289,22.6561,8,0.00972861,10,0.00311042,-1.64482,0.27435,0.215054,189.968,0.137289,
2,1,0,1,0,9832.19,0.139631,0.139299,23.0181,8,0.00995703,10,0.0032064,-1.63793,0.283606,0.208035,186.97,0.1392992,
2,1,0,1,0,9832.2,0.141619,0.141297,23.4056,8,0.0101868,10,0.00330715,-1.63068,0.296128,0.199238,181.826,0.141297,
2,1,0,1,0,9832.21,0.143617,0.143345,23.7537,8,0.0104226,10,0.00340497,-1.62427,0.309287,0.190761,176.862,0.143345,
2,1,0,1,0,9832.22,0.145614,0.145284,24.1107,8,0.010662,10,0.0035029,-1.61779,0.329327,0.179153,168.392,0.145284,
2,1,0,1,0,9832.23,0.147612,0.147288,24.4177,8,0.0109047,10,0.00359644,-1.61229,0.342762,0.172131,164.176,0.147288,
2,1,0,1,0,9832.24,0.149619,0.149304,24.7706,8,0.0111507,10,0.00369834,-1.60606,0.363232,0.162431,156.773,0.149304,
2,1,0,1,0,9832.25,0.151616,0.151301,25.0468,8,0.0113999,10,0.0037896,-1.60125,0.409312,0.144144,140.924,0.151301,
2,1,0,1,0,9832.26,0.153614,0.153297,25.3334,8,0.0116518,10,0.00388354,-1.59631,0.46054,0.12811,126.482,0.1532972,
2,1,0,1,0,9832.27,0.155611,0.155281,25.5502,8,0.0119062,10,0.00396744,-1.59261,0.518798,0.113724,113.439,0.155281,
2,1,0,1,0,9832.28,0.157618,0.157286,25.7858,8,0.012163,10,0.00405574,-1.58862,0.686252,0.0859742,86.3133,0.157286,
2,1,0,1,0,9832.29,0.159616,0.159328,25.8995,8,0.0124215,10,0.00412651,-1.58671,1.13692,0.0518948,52.4372,0.159328,
2,1,0,1,0,9832.3,0.161613,0.161309,25.9968,8,0.012681,10,0.00419351,-1.58508,3.23297,0.0182495,18.4722,0.161309,
2,1,0,1,0,9832.31,0.163611,0.163287,25.9726,8,0.0129409,10,0.00424099,-1.58548,-2.17084,-0.0271784,-27.5165,0.163287,
2,1,0,1,0,9832.32,0.165618,0.165282,25.8875,8,0.0132004,10,0.00427874,-1.58691,-0.804034,-0.07338,-73.9539,0.165282,
2,1,0,1,0,9832.33,0.167597,0.167304,25.6755,8,0.0134557,10,0.00429563,-1.59048,-0.441295,-0.133698,-133.684,0.167304,
2,1,0,1,0,9832.34,0.169595,0.169258,25.3559,8,0.0137109,10,0.0042917,-1.59592,-0.283957,-0.207778,-204.849,0.169258,
2,1,0,1,0,9832.35,0.171592,0.171317,24.8534,8,0.013962,10,0.00425783,-1.60461,-0.201797,-0.292372,-282.864,0.171317,
2,1,0,1,0,9832.36,0.173572,0.17323,24.2326,8,0.014205,10,0.0041978,-1.6156,-0.157796,-0.3739,-352.349,0.17323,
2,1,0,1,0,9832.37,0.175578,0.175292,23.453,8,0.0144435,10,0.00411113,-1.6298,-0.128903,-0.45771,-417.602,0.175292,
2,1,0,1,0,9832.38,0.177576,0.177273,22.5439,8,0.0146734,10,0.00399643,-1.64697,-0.105962,-0.556802,-488.012,0.177273,
2,1,0,1,0,9832.39,0.179573,0.179312,21.491,8,0.0148935,10,0.0038536,-1.66774,-0.0922763,-0.639384,-535.191,0.179312,
2,1,0,1,0,9832.4,0.181571,0.181302,20.3879,8,0.0151028,10,0.00369637,-1.69063,-0.0825487,-0.71473,-567.401,0.181302,
2,1,0,1,0,9832.41,0.183578,0.18329,19.2339,8,0.0153008,10,0.00352538,-1.71593,-0.0759956,-0.77636,-581.957,0.18329,
2,1,0,1,0,9832.42,0.185575,0.18528,18.0729,8,0.0154872,10,0.00334855,-1.74297,-0.0722389,-0.816735,-575.656,0.18528,
2,1,0,1,0,9832.43,0.187573,0.187284,16.935,8,0.015662,10,0.00317164,-1.77122,-0.0703242,-0.838971,-554.965,0.187284,
2,1,0,1,0,9832.44,0.18957,0.189243,15.8735,8,0.0158259,10,0.00300395,-1.79933,-0.0718791,-0.820823,-509.056,0.189243,
2,1,0,1,0,9832.45,0.191577,0.191299,14.891,8,0.0159795,10,0.00284863,-1.82708,-0.0747921,-0.788853,-459.564,0.1912992,
2,1,0,1,0,9832.46,0.193575,0.193276,14.0198,8,0.0161239,10,0.0027097,-1.85326,-0.0782052,-0.754426,-413.715,0.193276,
2,1,0,1,0,9832.47,0.195572,0.19528,13.2441,8,0.0162601,10,0.00258631,-1.87798,-0.0851151,-0.693179,-359.458,0.19528,
2,1,0,1,0,9832.48,0.19757,0.19728,12.5809,8,0.0163891,10,0.00248195,-1.90029,-0.0946023,-0.623663,-307.306,0.19728,
2,1,0,1,0,9832.49,0.199558,0.199241,12.027,8,0.0165108,10,0.00239626,-1.91984,-0.10813,-0.545639,-256.87,0.199241,
2,1,0,1,0,9832.5,0.201556,0.201258,11.5589,8,0.0166286,10,0.00232632,-1.93708,-0.120166,-0.490988,-221.851,0.201258,
2,1,0,1,0,9832.51,0.203553,0.203239,11.14,8,0.016742,10,0.00226408,-1.95311,-0.13689,-0.431002,-188.048,0.203239,
2,1,0,1,0,9832.52,0.205551,0.205247,10.8087,8,0.0168516,10,0.00221846,-1.96623,-0.164556,-0.358541,-151.614,0.205247,
2,1,0,1,0,9832.53,0.20754,0.207222,10.536,8,0.0169571,10,0.00218329,-1.97732,-0.189143,-0.311933,-128.433,0.207222,
2,1,0,1,0,9832.54,0.209537,0.209244,10.2954,8,0.0170613,10,0.00215426,-1.98735,-0.198592,-0.297092,-119.356,0.209244,
2,1,0,1,0,9832.55,0.211535,0.211245,10.0559,8,0.0171629,10,0.00212426,-1.99758,-0.224973,-0.262253,-103.246,0.211245,
2,1,0,1,0,9832.56,0.213532,0.213242,9.88268,8,0.0172626,10,0.0021074,-2.00513,-0.268729,-0.219552,-84.7032,0.213242,
2,1,0,1,0,9832.57,0.215539,0.215246,9.71699,8,0.0173605,10,0.00209154,-2.01247,-0.295252,-0.199829,-75.8756,0.215246,
2,1,0,1,0,9832.58,0.217537,0.217265,9.57743,8,0.017457,10,0.00208084,-2.01875,-0.301264,-0.195841,-73.1471,0.217265,
2,1,0,1,0,9832.59,0.219534,0.219234,9.42525,8,0.0175519,10,0.00206634,-2.02571,-0.349065,-0.169023,-62.3467,0.219234,
2,1,0,1,0,9832.6,0.221532,0.221285,9.32682,8,0.0176457,10,0.00206388,-2.03027,-0.376525,-0.156696,-56.9435,0.221285,
2,1,0,1,0,9832.61,0.223534,0.223211,9.19878,8,0.0177383,10,0.00205327,-2.03627,-0.40537,-0.145546,-52.3886,0.223211,
2,1,0,1,0,9832.62,0.225536,0.225233,9.11996,8,0.0178299,10,0.00205412,-2.04001,-0.435453,-0.135491,-48.1225,0.225233,
2,1,0,1,0,9832.63,0.227534,0.227274,9.00326,8,0.0179205,10,0.00204621,-2.0456,-0.428604,-0.137656,-48.4679,0.227274,
2,1,0,1,0,9832.64,0.229531,0.229267,8.92442,8,0.0180102,10,0.00204608,-2.04942,-0.478035,-0.123422,-42.9479,0.229267,
2,1,0,1,0,9832.65,0.231529,0.23131,8.82996,8,0.0180989,10,0.00204245,-2.05404,-0.576503,-0.102341,-35.3645,0.23131,
2,1,0,1,0,9832.66,0.233517,0.233225,8.78447,8,0.0181862,10,0.00204876,-2.05628,-0.578827,-0.10193,-34.8541,0.233225,
2,1,0,1,0,9832.67,0.235515,0.235219,8.69372,8,0.0182736,10,0.00204492,-2.06079,-0.553072,-0.106677,-36.2717,0.235219,
2,1,0,1,0,9832.68,0.237512,0.237192,8.64058,8,0.0183602,10,0.00204947,-2.06346,-0.594713,-0.0992075,-33.4017,0.237192,
2,1,0,1,0,9832.69,0.23951,0.239202,8.56066,8,0.0184462,10,0.00204773,-2.06749,-0.663525,-0.0889191,-29.7776,0.239202,
2,1,0,1,0,9832.7,0.241499,0.241194,8.5214,8,0.0185308,10,0.00205531,-2.06949,-0.680619,-0.0866858,-28.7683,0.241194,
2,1,0,1,0,9832.71,0.243496,0.243161,8.44676,8,0.0186156,10,0.00205393,-2.07331,-0.730804,-0.080733,-26.6799,0.243161,
2,1,0,1,0,9832.72,0.245494,0.245205,8.41438,8,0.0186999,10,0.00206325,-2.07498,-0.824775,-0.0715346,-23.4486,0.245205,
2,1,0,1,0,9832.73,0.247491,0.247212,8.35178,8,0.0187837,10,0.00206466,-2.07822,-0.773798,-0.0762473,-24.8903,0.247212,
2,1,0,1,0,9832.74,0.249498,0.249201,8.31492,8,0.018867,10,0.00207209,-2.08014,-0.808713,-0.0729554,-23.6446,0.249201,
2,1,0,1,0,9832.75,0.251496,0.251209,8.25727,8,0.0189499,10,0.0020743,-2.08316,-0.848668,-0.0695207,-22.4394,0.251209,
2,1,0,1,0,9832.76,0.253493,0.253152,8.22628,8,0.0190323,10,0.0020825,-2.0848,-0.77844,-0.0757926,-24.2823,0.253152,
2,1,0,1,0,9832.77,0.255491,0.255162,8.16129,8,0.0191142,10,0.00208245,-2.08824,-0.974154,-0.0605654,-19.352,0.255162,
2,1,0,1,0,9832.78,0.257497,0.257181,8.14831,8,0.0191958,10,0.00209559,-2.08893,-1.3446,-0.0438793,-13.928,0.257181,
2,1,0,1,0,9832.79,0.259495,0.259182,8.1053,8,0.019277,10,0.00210074,-2.09123,-0.935975,-0.0630359,-19.947,0.2591815,
2,1,0,1,0,9832.8,0.261493,0.261193,8.06828,8,0.019358,10,0.00210738,-2.09322,-0.872196,-0.0676454,-21.2851,0.261193,
2,1,0,1,0,9832.81,0.26349,0.263189,8.02,8,0.0194384,10,0.00211078,-2.09583,-1.3836,-0.0426423,-13.3833,0.263189,
2,1,0,1,0,9832.82,0.265479,0.265135,8.01552,8,0.0195178,10,0.00212519,-2.09607,-1.38483,-0.0426045,-13.2912,0.265135,
2,1,0,1,0,9832.83,0.267476,0.267148,7.96739,8,0.0195977,10,0.00212847,-2.09868,-0.9982,-0.0591064,-18.4046,0.267148,
2,1,0,1,0,9832.84,0.269474,0.26914,7.94181,8,0.0196772,10,0.00213746,-2.10008,-1.1289,-0.0522632,-16.1847,0.26914,
2,1,0,1,0,9832.85,0.271471,0.271149,7.90263,8,0.0197564,10,0.00214279,-2.10223,-1.56543,-0.0376894,-11.6474,0.2711488,
2,1,0,1,0,9832.86,0.27346,0.273133,7.8953,8,0.0198346,10,0.00215647,-2.10263,-1.20983,-0.0487673,-14.9832,0.273133,
2,1,0,1,0,9832.87,0.275458,0.275165,7.84245,8,0.0199132,10,0.00215797,-2.10555,-1.12098,-0.0526324,-16.1508,0.275165,
2,1,0,1,0,9832.88,0.277455,0.277153,7.83038,8,0.0199916,10,0.00217021,-2.10622,-1.26285,-0.0467197,-14.2474,0.277153,
2,1,0,1,0,9832.89,0.279453,0.27916,7.78554,8,0.0200697,10,0.00217341,-2.10871,-1.39806,-0.0422014,-12.8541,0.27916,
2,1,0,1,0,9832.9,0.281455,0.281155,7.77893,8,0.0201474,10,0.00218709,-2.10908,-1.37533,-0.0428988,-12.9912,0.281155,
2,1,0,1,0,9832.91,0.283457,0.283142,7.7338,8,0.020225,10,0.00218977,-2.11161,-1.4627,-0.0403364,-12.2068,0.283142,
2,1,0,1,0,9832.92,0.285455,0.285192,7.72965,8,0.0203023,10,0.00220444,-2.11184,-1.11441,-0.052943,-15.9134,0.285192,
2,1,0,1,0,9832.93,0.287452,0.287164,7.66981,8,0.0203793,10,0.00220249,-2.11522,-0.945508,-0.0624003,-18.7336,0.287164,
2,1,0,1,0,9832.94,0.28945,0.289147,7.65557,8,0.020456,10,0.00221358,-2.11602,-2.13406,-0.0276469,-8.25777,0.289147,
2,1,0,1,0,9832.95,0.291456,0.291141,7.63697,8,0.0205325,10,0.00222343,-2.11708,-1.35517,-0.0435371,-12.9635,0.291141,
2,1,0,1,0,9832.96,0.293454,0.293158,7.60357,8,0.0206087,10,0.00222905,-2.11898,-1.07042,-0.0551184,-16.3561,0.293158,
2,1,0,1,0,9832.97,0.295452,0.295215,7.57033,8,0.0206846,10,0.00223487,-2.12089,-2.07224,-0.0284717,-8.43005,0.295215,
2,1,0,1,0,9832.98,0.297449,0.297155,7.56988,8,0.0207604,10,0.00224943,-2.12091,-1.85035,-0.0318859,-9.39752,0.297155,
2,1,0,1,0,9832.99,0.299438,0.299151,7.53333,8,0.0208351,10,0.00225361,-2.12301,-0.046721,-1.26282,-352.534,0.299151,
2,1,0,1,0,9832.99,0.299746,0.299475,6.752,8,0.0208665,10,0.00202205,-2.17057,0.00352197,16.752,2983.5,0.299475,
2,1,0,1,0,9833,0.29774,0.297465,2.50047,8,0.0209102,10,0.000743802,-2.60198,0.00253383,23.2849,1628.91,0.297465,
2,1,0,1,0,9833.01,0.295742,0.295435,0.171859,8,0.0209222,10,5.07732e-05,-3.76483,0.0128216,4.6016,916.958,0.295435,
2,0,0,1,0,9833.02,0.293745,0.293419,-1.20918,8,0.0209163,10,-0.000354797,-2.91751,-0.00372253,-15.8494,554.536,0.293419,
2,0,0,1,0,9833.03,0.291747,0.291427,-2.0509,8,0.0208995,10,-0.000597687,-2.68806,-0.0119633,-4.93175,350.471,0.291427,
2,0,0,1,0,9833.04,0.289745,0.28942,-2.61065,8,0.020876,10,-0.000755575,-2.58325,-0.0247233,-2.38641,231.476,0.28942,
2,0,0,1,0,9833.05,0.287743,0.287425,-2.97732,8,0.0208478,10,-0.000855756,-2.52617,-0.0426364,-1.38379,157.335,0.287425,
2,0,0,1,0,9833.06,0.285745,0.285429,-3.23857,8,0.0208166,10,-0.000924383,-2.48965,-0.0640972,-0.920477,115.032,0.285429,
2,0,0,1,0,9833.07,0.283748,0.28342,-3.43801,8,0.0207832,10,-0.000974401,-2.46369,-0.0862985,-0.683674,91.1542,0.28342,
2,0,0,1,0,9833.08,0.28175,0.281458,-3.60055,8,0.0207479,10,-0.0010134,-2.44363,-0.110784,-0.53257,74.48,0.281458,
2,0,0,1,0,9833.09,0.279761,0.279461,-3.7329,8,0.0207115,10,-0.0010432,-2.42795,-0.137081,-0.430403,62.5762,0.279461,
2,0,0,1,0,9833.1,0.277764,0.277423,-3.85306,8,0.0206736,10,-0.00106893,-2.41419,-0.164492,-0.35868,53.7574,0.277423,
2,0,0,1,0,9833.11,0.275766,0.275426,-3.94979,8,0.0206346,10,-0.00108787,-2.40343,-0.190444,-0.309802,47.7229,0.275426,
2,0,0,1,0,9833.12,0.273769,0.27345,-4.04267,8,0.0205946,10,-0.00110547,-2.39333,-0.198592,-0.297092,46.8701,0.27345,
2,0,0,1,0,9833.13,0.27178,0.271442,-4.13649,8,0.0205541,10,-0.00112282,-2.38337,-0.201928,-0.292183,47.1538,0.2714425,
2,0,0,1,0,9833.14,0.269783,0.269495,-4.22916,8,0.0205122,10,-0.00113974,-2.37375,-0.23717,-0.248767,40.9397,0.269495,
2,0,0,1,0,9833.15,0.267785,0.267491,-4.29825,8,0.0204695,10,-0.00114974,-2.36671,-0.271367,-0.217418,36.503,0.267491,
2,0,0,1,0,9833.16,0.265787,0.265482,-4.37564,8,0.0204262,10,-0.00116165,-2.35896,-0.257589,-0.229047,39.122,0.265482,
2,0,0,1,0,9833.17,0.263781,0.263464,-4.45581,8,0.020382,10,-0.00117395,-2.35107,-0.265246,-0.222435,38.6508,0.263464,
2,0,0,1,0,9833.18,0.261783,0.261488,-4.52999,8,0.0203371,10,-0.00118454,-2.3439,-0.330942,-0.178279,31.4347,0.261488,
2,0,0,1,0,9833.19,0.259786,0.25949,-4.58074,8,0.0202914,10,-0.00118866,-2.33906,-0.317878,-0.185606,33.2933,0.25949,
2,0,0,1,0,9833.2,0.257788,0.257491,-4.6631,8,0.0202452,10,-0.0012007,-2.33133,-0.276474,-0.213402,38.7968,0.257491,
2,0,0,1,0,9833.21,0.255781,0.255466,-4.73686,8,0.0201982,10,-0.0012101,-2.32451,-0.331092,-0.178198,32.8839,0.255466,
2,0,0,1,0,9833.22,0.253784,0.253499,-4.79437,8,0.0201505,10,-0.00121537,-2.31927,-0.408923,-0.144281,26.9786,0.253499,
2,0,0,1,0,9833.23,0.251786,0.251421,-4.84598,8,0.0201023,10,-0.00121838,-2.31462,-0.373388,-0.158013,29.9369,0.251421,
2,0,0,1,0,9833.24,0.249789,0.249459,-4.9153,8,0.0200534,10,-0.00122617,-2.30845,-0.329919,-0.178832,34.2918,0.249459,
2,0,0,1,0,9833.25,0.2478,0.24747,-4.98146,8,0.0200044,10,-0.00123276,-2.30264,-0.357824,-0.164886,32.0401,0.24747,
2,0,0,1,0,9833.26,0.245802,0.245462,-5.04336,8,0.0199543,10,-0.00123795,-2.29728,-0.389699,-0.151399,29.7801,0.245462,
2,0,0,1,0,9833.27,0.243805,0.243516,-5.09921,8,0.0199036,10,-0.00124174,-2.2925,-0.42167,-0.13992,27.8382,0.243516,
2,0,0,1,0,9833.28,0.241807,0.241524,-5.153,8,0.0198523,10,-0.00124457,-2.28794,-0.382008,-0.154447,31.1077,0.241524,
2,0,0,1,0,9833.29,0.239819,0.239535,-5.22307,8,0.019801,10,-0.0012511,-2.28207,-0.386336,-0.152717,31.0791,0.239535,
2,0,0,1,0,9833.3,0.237821,0.237546,-5.27662,8,0.0197485,10,-0.00125344,-2.27764,-0.45542,-0.129551,26.6778,0.237546,
2,0,0,1,0,9833.31,0.235824,0.235514,-5.33032,8,0.0196954,10,-0.00125537,-2.27325,-0.488003,-0.120901,25.1341,0.2355141,
2,0,0,1,0,9833.32,0.233826,0.233537,-5.37739,8,0.0196419,10,-0.00125582,-2.26943,-0.413804,-0.14258,29.9943,0.233537,
2,0,0,1,0,9833.33,0.231824,0.231496,-5.45084,8,0.0195878,10,-0.00126185,-2.26354,-0.374503,-0.157542,33.4708,0.231496,
2,0,0,1,0,9833.34,0.229822,0.229549,-5.51086,8,0.019533,10,-0.00126501,-2.25878,-0.501406,-0.117669,25.2595,0.229549,
2,0,0,1,0,9833.35,0.227824,0.227556,-5.55038,8,0.0194776,10,-0.00126302,-2.25568,-0.460098,-0.128234,27.8557,0.227556,
2,0,0,1,0,9833.36,0.225827,0.225572,-5.62164,8,0.0194218,10,-0.00126809,-2.25014,-0.447372,-0.131881,28.8645,0.2255722,
2,0,0,1,0,9833.37,0.223829,0.223541,-5.66625,8,0.0193653,10,-0.00126664,-2.2467,-0.461988,-0.127709,28.3032,0.223541,
2,0,0,1,0,9833.38,0.221822,0.221526,-5.73617,8,0.0193082,10,-0.00127071,-2.24138,-0.409601,-0.144043,32.2144,0.2215257,
2,0,0,1,0,9833.39,0.219825,0.219535,-5.79529,8,0.0192505,10,-0.00127227,-2.23692,-0.429675,-0.137313,31.0721,0.219535,
2,0,0,1,0,9833.4,0.217827,0.217517,-5.86072,8,0.0191922,10,-0.00127481,-2.23205,-0.508722,-0.115977,26.4734,0.217517,
2,0,0,1,0,9833.41,0.21583,0.215472,-5.90285,8,0.0191333,10,-0.0012719,-2.22894,-0.417287,-0.14139,32.6971,0.215472,
2,0,0,1,0,9833.42,0.213841,0.213538,-5.99084,8,0.0190744,10,-0.00127927,-2.22251,-0.371694,-0.158733,37.0146,0.213538,
2,0,0,1,0,9833.43,0.211844,0.211554,-6.04788,8,0.0190141,10,-0.00127946,-2.2184,-0.461168,-0.127936,30.211,0.211554,
2,0,0,1,0,9833.44,0.209846,0.20956,-6.11102,8,0.0189534,10,-0.00128062,-2.21389,-0.448584,-0.131525,31.3662,0.2095596,
2,0,0,1,0,9833.45,0.207848,0.207536,-6.17391,8,0.0188919,10,-0.00128131,-2.20944,-0.354385,-0.166486,40.2209,0.207536,
2,0,0,1,0,9833.46,0.20586,0.205601,-6.27025,8,0.0188303,10,-0.00128917,-2.20272,-0.351493,-0.167855,40.9743,0.205601,
2,0,0,1,0,9833.47,0.203862,0.203571,-6.33637,8,0.0187671,10,-0.0012899,-2.19816,-0.436752,-0.135088,33.4117,0.203571,
2,0,0,1,0,9833.48,0.201865,0.20156,-6.40525,8,0.0187035,10,-0.00129104,-2.19346,-0.403058,-0.146381,36.6162,0.20156,
2,0,0,1,0,9833.49,0.199867,0.199561,-6.48323,8,0.018639,10,-0.0012938,-2.18821,-0.345509,-0.170762,43.2688,0.199561,
2,0,0,1,0,9833.5,0.19786,0.197504,-6.58075,8,0.0185737,10,-0.00129973,-2.18172,-0.368697,-0.160023,41.0001,0.1975043,
2,0,0,1,0,9833.51,0.195863,0.195552,-6.64757,8,0.0185075,10,-0.00129995,-2.17734,-0.346304,-0.17037,44.3401,0.195552,
2,0,0,1,0,9833.52,0.193865,0.193521,-6.75736,8,0.0184406,10,-0.00130769,-2.17022,-0.310424,-0.190062,50.0514,0.193521,
2,0,0,1,0,9833.53,0.191868,0.191531,-6.84885,8,0.0183725,10,-0.00131177,-2.16438,-0.315044,-0.187275,50.1202,0.191531,
2,0,0,1,0,9833.54,0.189861,0.189504,-6.95869,8,0.0183035,10,-0.0013187,-2.15747,-0.302954,-0.194749,52.8543,0.189504,
2,0,0,1,0,9833.55,0.187863,0.187528,-7.06043,8,0.0182334,10,-0.00132403,-2.15117,-0.290771,-0.202909,55.9744,0.187528,
2,0,0,1,0,9833.56,0.185866,0.185562,-7.17937,8,0.0181622,10,-0.00133222,-2.14391,-0.288493,-0.204511,57.2579,0.185562,
2,0,0,1,0,9833.57,0.183868,0.183544,-7.28855,8,0.0180898,10,-0.00133777,-2.13736,-0.251052,-0.235011,67.0707,0.183544,
2,0,0,1,0,9833.58,0.18188,0.18156,-7.44776,8,0.0180169,10,-0.00135222,-2.12797,-0.22586,-0.261224,75.8292,0.18156,
2,0,0,1,0,9833.59,0.179882,0.179573,-7.58961,8,0.0179417,10,-0.00136289,-2.11978,-0.245599,-0.240229,71.1436,0.179573,
2,0,0,1,0,9833.6,0.177885,0.177584,-7.73066,8,0.0178651,10,-0.00137284,-2.11178,-0.23802,-0.247878,74.8745,0.177584,
2,0,0,1,0,9833.61,0.175887,0.175534,-7.89206,8,0.017787,10,-0.00138532,-2.10281,-0.210299,-0.280553,86.5317,0.175534,
2,0,0,1,0,9833.62,0.173908,0.173569,-8.07807,8,0.0177079,10,-0.0014021,-2.09269,-0.189843,-0.310783,98.0605,0.173569,
2,0,0,1,0,9833.63,0.171901,0.17157,-8.28079,8,0.017626,10,-0.00142073,-2.08193,-0.182933,-0.322523,104.267,0.17157,
2,0,0,1,0,9833.64,0.169903,0.169593,-8.49266,8,0.0175422,10,-0.00144029,-2.07096,-0.17419,-0.33871,112.394,0.169593,
2,0,0,1,0,9833.65,0.167906,0.167588,-8.72828,8,0.017456,10,-0.00146276,-2.05907,-0.166376,-0.354619,120.885,0.167588,
2,0,0,1,0,9833.66,0.165908,0.165551,-8.98119,8,0.0173675,10,-0.00148685,-2.04667,-0.154976,-0.380704,133.622,0.165551,
2,0,0,1,0,9833.67,0.163901,0.16358,-9.26388,8,0.0172762,10,-0.00151539,-2.03321,-0.143801,-0.410289,148.452,0.16358,
2,0,0,1,0,9833.68,0.161904,0.161604,-9.56722,8,0.0171821,10,-0.0015461,-2.01921,-0.139764,-0.422141,157.732,0.161604,
2,0,0,1,0,9833.69,0.159906,0.159603,-9.89119,8,0.0170847,10,-0.00157866,-2.00475,-0.133191,-0.442973,171.214,0.159603,
2,0,0,1,0,9833.7,0.157909,0.157627,-10.248,8,0.016984,10,-0.00161537,-1.98936,-0.123788,-0.47662,191.017,0.157627,
2,0,0,1,0,9833.71,0.155902,0.155595,-10.6567,8,0.0168794,10,-0.00165813,-1.97238,-0.11931,-0.49451,205.725,0.1555955,
2,0,0,1,0,9833.72,0.153904,0.153571,-11.0824,8,0.0167706,10,-0.00170195,-1.95536,-0.116319,-0.507227,219.513,0.153571,
2,0,0,1,0,9833.73,0.151907,0.151604,-11.533,8,0.0166575,10,-0.00174844,-1.93806,-0.109855,-0.537073,242.219,0.151604,
2,0,0,1,0,9833.74,0.149909,0.149606,-12.043,8,0.0165396,10,-0.0018017,-1.91926,-0.10394,-0.567633,267.086,0.149606,
2,0,0,1,0,9833.75,0.147921,0.147625,-12.5955,8,0.0164175,10,-0.00185942,-1.89978,-0.103018,-0.572713,281.488,0.147625,
2,0,0,1,0,9833.76,0.145923,0.145633,-13.1613,8,0.0162887,10,-0.00191671,-1.8807,-0.104675,-0.563648,289.61,0.145633,
2,0,0,1,0,9833.77,0.143926,0.14363,-13.7527,8,0.0161541,10,-0.00197529,-1.86161,-0.103235,-0.571512,307.183,0.14363,
2,0,0,1,0,9833.78,0.141928,0.141594,-14.4021,8,0.0160133,10,-0.00203924,-1.84157,-0.100421,-0.587526,330.089,0.141594,
2,0,0,1,0,9833.79,0.139939,0.139672,-15.059,8,0.0158674,10,-0.00210332,-1.82221,-0.10252,-0.575499,338.158,0.139672,
2,0,0,1,0,9833.8,0.137942,0.137668,-15.7295,8,0.0157135,10,-0.00216545,-1.80328,-0.107741,-0.547607,336.185,0.137668,
2,0,0,1,0,9833.81,0.135944,0.135618,-16.422,8,0.0155526,10,-0.00222711,-1.78458,-0.112708,-0.523479,334.826,0.135618,
2,0,0,1,0,9833.82,0.133947,0.133674,-17.067,8,0.0153851,10,-0.0022814,-1.76784,-0.11317,-0.521342,347.831,0.133674,
2,0,0,1,0,9833.83,0.13194,0.131693,-17.7872,8,0.0152107,10,-0.00234245,-1.74989,-0.114506,-0.515257,357.509,0.131693,
2,0,0,1,0,9833.84,0.129942,0.129638,-18.5099,8,0.0150292,10,-0.00239958,-1.7326,-0.122783,-0.480521,346.502,0.129638,
2,0,0,1,0,9833.85,0.127945,0.127661,-19.1842,8,0.0148406,10,-0.00244908,-1.71706,-0.132274,-0.446045,333.639,0.127661,
2,0,0,1,0,9833.86,0.125947,0.125658,-19.8377,8,0.0146454,10,-0.00249276,-1.70251,-0.139636,-0.422528,327.026,0.1256579,
2,0,0,1,0,9833.87,0.123941,0.123656,-20.4939,8,0.0144436,10,-0.0025342,-1.68838,-0.148882,-0.396286,316.453,0.123656,
2,0,0,1,0,9833.88,0.121943,0.121675,-21.0982,8,0.0142356,10,-0.00256712,-1.67576,-0.165663,-0.356144,292.84,0.121675,
2,0,0,1,0,9833.89,0.119945,0.119693,-21.6545,8,0.0140216,10,-0.0025919,-1.66445,-0.181216,-0.325578,274.999,0.119693,
2,0,0,1,0,9833.9,0.117948,0.11768,-22.1966,8,0.0138023,10,-0.00261211,-1.65371,-0.195499,-0.301791,261.209,0.11768,
2,0,0,1,0,9833.91,0.115946,0.115654,-22.7094,8,0.0135777,10,-0.00262645,-1.64379,-0.215314,-0.274018,242.541,0.115654,
2,0,0,1,0,9833.92,0.113962,0.113667,-23.1702,8,0.0133504,10,-0.00263367,-1.63507,-0.239862,-0.245975,222.227,0.1136665,
2,0,0,1,0,9833.93,0.111964,0.111669,-23.5952,8,0.0131164,10,-0.00263484,-1.62718,-0.269528,-0.218901,201.349,0.111669,
2,0,0,1,0,9833.94,0.109967,0.109684,-23.9719,8,0.0128786,10,-0.00262935,-1.6203,-0.317438,-0.185863,173.661,0.109684,
2,0,0,1,0,9833.95,0.107969,0.107664,-24.2906,8,0.0126371,10,-0.00261523,-1.61456,-0.378569,-0.15585,147.579,0.107664,
2,0,0,1,0,9833.96,0.10598,0.105718,-24.5573,8,0.0123953,10,-0.00259615,-1.60982,-0.465238,-0.126817,121.425,0.105718,
2,0,0,1,0,9833.97,0.103983,0.103643,-24.7788,8,0.0121485,10,-0.00256816,-1.60592,-0.591361,-0.0997699,96.3733,0.1036433,
2,0,0,1,0,9833.98,0.101985,0.101687,-24.9458,8,0.0118999,10,-0.00253666,-1.603,-0.866296,-0.068106,66.2056,0.101687,
2,0,0,1,0,9833.99,0.0999877,0.0997235,-25.0384,8,0.0116499,10,-0.00249691,-1.60139,-1.39262,-0.0423661,41.3815,0.0997235,
2,0,0,1,0,9834,0.0979811,0.0977158,-25.1101,8,0.0113992,10,-0.00245366,-1.60015,-3.78996,-0.0155675,15.2308,0.09771581,
2,0,0,1,0,9834.01,0.0959835,0.0956691,-25.1001,8,0.011148,10,-0.00240131,-1.60032,2.76785,0.0213162,-20.8543,0.0956691,
2,0,0,1,0,9834.02,0.0939859,0.0936858,-25.0261,8,0.0108974,10,-0.00234459,-1.60161,1.2364,0.0477193,-46.5708,0.0936858,
2,0,0,1,0,9834.03,0.0919883,0.0916617,-24.9135,8,0.0106476,10,-0.00228361,-1.60357,0.847428,0.0696225,-67.6273,0.0916617,
2,0,0,1,0,9834.04,0.0899816,0.0896419,-24.7526,8,0.0103993,10,-0.00221887,-1.60638,0.560098,0.105339,-101.584,0.0896419,
2,0,0,1,0,9834.05,0.087984,0.0876672,-24.5077,8,0.0101529,10,-0.00214852,-1.6107,0.430509,0.137047,-130.996,0.0876672,
2,0,0,1,0,9834.06,0.0859865,0.0856769,-24.2332,8,0.00990918,10,-0.00207623,-1.61559,0.369871,0.159515,-150.701,0.0856769,
2,0,0,1,0,9834.07,0.0839889,0.0836988,-23.9097,8,0.00966839,10,-0.00200121,-1.62143,0.326806,0.180535,-168.356,0.0836988,
2,0,0,1,0,9834.08,0.0820004,0.0816746,-23.5594,8,0.00943344,10,-0.0019242,-1.62784,0.295713,0.199518,-183.287,0.0816746,
2,0,0,1,0,9834.09,0.0800028,0.0796744,-23.172,8,0.00919977,10,-0.00184622,-1.63504,0.276753,0.213186,-192.758,0.0796744,
2,0,0,1,0,9834.1,0.0780052,0.077636,-22.7809,8,0.0089701,10,-0.00176862,-1.64243,0.260839,0.226193,-201.003,0.077636,
2,0,0,1,0,9834.11,0.0760076,0.0756955,-22.3723,8,0.00874436,10,-0.00169348,-1.65029,0.251059,0.235004,-205.221,0.0756955,
2,0,0,1,0,9834.12,0.0740191,0.0737135,-21.976,8,0.00852504,10,-0.00161992,-1.65805,0.253828,0.232441,-199.342,0.0737135,
2,0,0,1,0,9834.13,0.0720215,0.071731,-21.582,8,0.00830727,10,-0.0015481,-1.66591,0.25527,0.231128,-194.717,0.071731,
2,0,0,1,0,9834.14,0.0700239,0.0697399,-21.2022,8,0.00809345,10,-0.00147864,-1.67362,0.267311,0.220717,-182.68,0.0697399,
2,0,0,1,0,9834.15,0.0680263,0.0676559,-20.8375,8,0.0078833,10,-0.00140978,-1.68115,0.279439,0.211138,-171.864,0.0676559,
2,0,0,1,0,9834.16,0.0660197,0.0657472,-20.516,8,0.00767675,10,-0.00134887,-1.68791,0.287031,0.205553,-164.558,0.0657472,
2,0,0,1,0,9834.17,0.0640221,0.0637343,-20.1922,8,0.00747319,10,-0.00128694,-1.69482,0.295788,0.199467,-157.219,0.0637343,
2,0,0,1,0,9834.18,0.0620245,0.0617006,-19.8798,8,0.0072729,10,-0.0012266,-1.70159,0.311018,0.189699,-147.271,0.0617006,
2,0,0,1,0,9834.19,0.0600269,0.0596826,-19.5955,8,0.0070755,10,-0.00116951,-1.70784,0.329355,0.179138,-137.055,0.0596826,
2,0,0,1,0,9834.2,0.0580248,0.0576932,-19.3306,8,0.00688096,10,-0.00111524,-1.71375,0.32828,0.179725,-135.557,0.0576932,
2,0,0,1,0,9834.21,0.0560227,0.0557307,-19.0598,8,0.00668891,10,-0.00106221,-1.71988,0.333399,0.176965,-131.7,0.05573066,
2,0,0,1,0,9834.22,0.0540251,0.0537438,-18.8105,8,0.00649962,10,-0.00101095,-1.7256,0.3526,0.167328,-122.84,0.0537438,
2,0,0,1,0,9834.23,0.0520275,0.0516937,-18.5639,8,0.0063127,10,-0.000959636,-1.73133,0.341113,0.172963,-125.283,0.0516937,
2,0,0,1,0,9834.24,0.0500299,0.0497624,-18.3116,8,0.00612836,10,-0.000911231,-1.73727,0.344593,0.171216,-122.408,0.0497624,
2,0,0,1,0,9834.25,0.0480414,0.0477103,-18.0763,8,0.00594817,10,-0.000862425,-1.74289,0.347178,0.169942,-119.843,0.0477103,
2,0,0,1,0,9834.26,0.0460438,0.0457403,-17.8296,8,0.00576868,10,-0.000815533,-1.74886,0.331771,0.177833,-123.731,0.0457403,
2,0,0,1,0,9834.27,0.0440462,0.0437147,-17.5819,8,0.00559162,10,-0.000768588,-1.75493,0.311907,0.189159,-129.692,0.04371468,
2,0,0,1,0,9834.28,0.0420486,0.0417248,-17.3089,8,0.00541728,10,-0.000722209,-1.76173,0.308843,0.191035,-129.163,0.0417248,
2,0,0,1,0,9834.29,0.0400601,0.0397494,-17.0697,8,0.0052471,10,-0.000678511,-1.76777,0.297431,0.198365,-131.945,0.0397494,
2,0,0,1,0,9834.3,0.0380625,0.037727,-16.7814,8,0.00507793,10,-0.00063311,-1.77517,0.269606,0.218838,-143.306,0.037727,
2,0,0,1,0,9834.31,0.036065,0.0357219,-16.4926,8,0.00491157,10,-0.000589147,-1.78271,0.259735,0.227154,-146.164,0.0357219,
2,0,0,1,0,9834.32,0.0340674,0.0337299,-16.1971,8,0.0047482,10,-0.000546328,-1.79056,0.254267,0.23204,-146.677,0.0337299,
2,0,0,1,0,9834.33,0.0320607,0.0317162,-15.905,8,0.00458767,10,-0.000504447,-1.79847,0.240693,0.245126,-152.018,0.0317162,
2,0,0,1,0,9834.34,0.0300631,0.0297233,-15.5881,8,0.00443028,10,-0.000463329,-1.80721,0.226413,0.260586,-158.52,0.0297233,
2,0,0,1,0,9834.35,0.0280655,0.0277339,-15.2738,8,0.004276,10,-0.000423601,-1.81605,0.225518,0.26162,-155.974,0.0277339,
2,0,0,1,0,9834.36,0.0260679,0.0257523,-14.9687,8,0.00412482,10,-0.000385478,-1.82482,0.227553,0.259281,-151.468,0.0257523,
2,0,0,1,0,9834.37,0.0240613,0.0237342,-14.6679,8,0.00397662,10,-0.000348132,-1.83363,0.2272,0.259683,-148.69,0.02373424,
2,0,0,1,0,9834.38,0.0220637,0.0217821,-14.3784,8,0.00383149,10,-0.000313191,-1.84229,0.233253,0.252944,-141.978,0.0217821,
2,0,0,1,0,9834.39,0.0200661,0.0197381,-14.1006,8,0.00368914,10,-0.000278318,-1.85076,0.240899,0.244916,-134.822,0.01973805,
2,0,0,1,0,9834.4,0.0180685,0.0177556,-13.8355,8,0.00354951,10,-0.000245657,-1.85901,0.253645,0.232608,-125.723,0.0177556,
2,0,0,1,0,9834.41,0.01608,0.0157629,-13.6008,8,0.00341376,10,-0.000214388,-1.86644,0.282364,0.20895,-111.015,0.0157629,
2,0,0,1,0,9834.42,0.0140824,0.013781,-13.3942,8,0.00327882,10,-0.000184586,-1.87308,0.305082,0.19339,-101.113,0.013781,
2,0,0,1,0,9834.43,0.0120848,0.011753,-13.1953,8,0.0031459,10,-0.000155085,-1.87958,0.321175,0.183701,-94.6638,0.011753,
2,0,0,1,0,9834.44,0.0100873,0.009783,-13.0158,8,0.00301493,10,-0.000127333,-1.88553,0.375433,0.157152,-79.9481,0.009783,
2,0,0,1,0,9834.45,0.00810328,0.00776857,-12.8768,8,0.00288682,10,-0.000100034,-1.89019,0.445049,0.13257,-66.65,0.00776857,
2,0,0,1,0,9834.46,0.00610116,0.00579043,-12.7497,8,0.00275873,10,-7.38261e-05,-1.8945,0.462216,0.127646,-63.5202,0.00579043,
2,0,0,1,0,9834.47,0.00410357,0.00381749,-12.6258,8,0.00263188,10,-4.8199e-05,-1.89874,0.78089,0.0755549,-37.3709,0.00381749,
2,0,0,1,0,9834.48,0.00210598,0.00173784,-12.5982,8,0.00250604,10,-2.18937e-05,-1.89969,1.06679,0.0553059,-27.1323,0.001737842,
2,0,0,1,0,9834.49,0.00010174,-0.00025765,-12.5153,8,0.00238042,10,3.22456e-06,-1.90256,0.721538,0.0817698,-39.9464,-0.00025765,
2,0,0,1,0,9834.5,-0.00189827,-0.00229045,-12.4373,8,0.00225567,10,2.84871e-05,-1.90527,0.863796,0.0683031,-33.1844,-0.00229045,
2,0,0,1,0,9834.51,-0.00389586,-0.00425124,-12.3827,8,0.00213154,10,5.2642e-05,-1.90718,1.16919,0.0504621,-24.3985,-0.00425124,
2,0,0,1,0,9834.52,-0.00589345,-0.00625107,-12.3407,8,0.00200795,10,7.71425e-05,-1.90866,1.64063,0.0359618,-17.3299,-0.00625107,
2,0,0,1,0,9834.53,-0.00789103,-0.00827259,-12.313,8,0.00188461,10,0.000101861,-1.90963,3.55963,0.0165747,-7.97244,-0.008272592,
2,0,0,1,0,9834.54,-0.0098977,-0.0102273,-12.309,8,0.00176151,10,0.000125888,-1.90978,-50.3609,-0.00117154,0.563024,-0.0102273,
2,0,0,1,0,9834.55,-0.0118953,-0.0122523,-12.3153,8,0.00163832,10,0.000150891,-1.90956,-38.2369,-0.00154301,0.741324,-0.0122523,
2,0,0,1,0,9834.56,-0.0138929,-0.0142443,-12.312,8,0.00151523,10,0.000175376,-1.90967,-11.5446,-0.00511062,2.45727,-0.0142443,
2,0,0,1,0,9834.57,-0.0158905,-0.0162173,-12.325,8,0.001392,10,0.000199878,-1.90921,-2.66273,-0.0221577,10.6651,-0.0162173,
2,0,0,1,0,9834.58,-0.017879,-0.0182229,-12.3544,8,0.00126983,10,0.000225132,-1.90818,-1.7329,-0.034047,16.4206,-0.0182229,
2,0,0,1,0,9834.59,-0.0198766,-0.0202262,-12.3909,8,0.00114603,10,0.000250621,-1.9069,-1.89455,-0.031142,15.0522,-0.0202262,
2,0,0,1,0,9834.6,-0.0218741,-0.022267,-12.4153,8,0.00102209,10,0.000276451,-1.90604,-1.59949,-0.0368868,17.8889,-0.022267,
2,0,0,1,0,9834.61,-0.0238717,-0.0242203,-12.4623,8,0.000897676,10,0.00030184,-1.9044,-1.05611,-0.0558652,27.1857,-0.0242203,
2,0,0,1,0,9834.62,-0.0258602,-0.0262355,-12.5232,8,0.000774024,10,0.000328551,-1.90229,-1.13421,-0.0520185,25.4042,-0.0262355,
2,0,0,1,0,9834.63,-0.0278578,-0.0282683,-12.5651,8,0.000648612,10,0.000355195,-1.90083,-1.25727,-0.0469269,23.0196,-0.0282683,
2,0,0,1,0,9834.64,-0.0298554,-0.0302525,-12.6156,8,0.000522747,10,0.000381654,-1.89909,-1.04383,-0.0565226,27.8375,-0.0302525,
2,0,0,1,0,9834.65,-0.031853,-0.0321847,-12.6742,8,0.00039624,10,0.000407914,-1.89708,-0.965229,-0.0611254,30.2365,-0.0321847,
2,0,0,1,0,9834.66,-0.0338597,-0.0341828,-12.7345,8,0.000269211,10,0.000435299,-1.89502,-0.940272,-0.0627478,31.191,-0.0341828,
2,0,0,1,0,9834.67,-0.0358573,-0.0362199,-12.8,8,0.000141444,10,0.000463616,-1.89279,-0.864101,-0.0682791,34.117,-0.03621991,
2,0,0,1,0,9834.68,-0.0378549,-0.0382206,-12.8722,8,1.30214e-05,10,0.000491984,-1.89035,-0.866232,-0.0681111,34.2045,-0.03822061,
2,0,0,1,0,9834.69,-0.0398524,-0.0401849,-12.9356,8,-0.000116148,10,0.000519817,-1.88821,-0.742708,-0.0794391,40.1518,-0.0401849,
2,0,0,1,0,9834.7,-0.0418591,-0.0421595,-13.0304,8,-0.00024595,10,0.000549354,-1.88504,-0.70878,-0.0832417,42.3,-0.0421595,
2,0,0,1,0,9834.71,-0.0438567,-0.0442166,-13.1062,8,-0.000376692,10,0.000579512,-1.88252,-0.841417,-0.0701198,35.8561,-0.0442166,
2,0,0,1,0,9834.72,-0.0458543,-0.0461982,-13.1752,8,-0.000508093,10,0.00060867,-1.88024,-0.795307,-0.0741852,38.1645,-0.0461982,
2,0,0,1,0,9834.73,-0.0478519,-0.0481929,-13.2579,8,-0.000640287,10,0.000638938,-1.87752,-0.667159,-0.0884347,45.7904,-0.0481929,
2,0,0,1,0,9834.74,-0.0498585,-0.0502387,-13.3602,8,-0.000773311,10,0.000671199,-1.87419,-0.644999,-0.0914731,47.6672,-0.0502387,
2,0,0,1,0,9834.75,-0.051838,-0.0521697,-13.4475,8,-0.000906058,10,0.000701552,-1.87136,-0.746034,-0.0790848,41.4885,-0.0521697,
2,0,0,1,0,9834.76,-0.0538355,-0.0542009,-13.5246,8,-0.0010408,10,0.000733044,-1.86888,-0.753644,-0.0782863,41.3381,-0.0542009,
2,0,0,1,0,9834.77,-0.0558331,-0.0561748,-13.6131,8,-0.00117649,10,0.000764712,-1.86604,-0.681408,-0.0865854,46.0076,-0.0561748,
2,0,0,1,0,9834.78,-0.0578126,-0.0581443,-13.706,8,-0.00131167,10,0.000796926,-1.86309,-0.652226,-0.0904595,48.3972,-0.0581443,
2,0,0,1,0,9834.79,-0.0598192,-0.0601441,-13.8052,8,-0.00144931,10,0.0008303,-1.85996,-0.622167,-0.0948298,51.1052,-0.0601441,
2,0,0,1,0,9834.8,-0.0618168,-0.0621778,-13.9121,8,-0.00158783,10,0.000865026,-1.85661,-0.630754,-0.0935388,50.7688,-0.0621778,
2,0,0,1,0,9834.81,-0.0638144,-0.064175,-14.0098,8,-0.00172749,10,0.000899081,-1.85357,-0.648976,-0.0909125,49.7114,-0.06417504,
2,0,0,1,0,9834.82,-0.065812,-0.0661644,-14.1103,8,-0.00186807,10,0.000933602,-1.85046,-0.598657,-0.0985539,54.306,-0.0661644,
2,0,0,1,0,9834.83,-0.0678187,-0.0682146,-14.2292,8,-0.00200985,10,0.000970639,-1.84682,-0.573005,-0.102966,57.1601,-0.06821461,
2,0,0,1,0,9834.84,-0.0698163,-0.0701685,-14.3392,8,-0.00215268,10,0.00100616,-1.84348,-0.598081,-0.0986489,55.2008,-0.0701685,
2,0,0,1,0,9834.85,-0.0718138,-0.0721683,-14.4474,8,-0.0022967,10,0.00104265,-1.84021,-0.589637,-0.100062,56.4395,-0.0721683,
2,0,0,1,0,9834.86,-0.0738114,-0.0742054,-14.567,8,-0.00244177,10,0.00108095,-1.83663,-0.500893,-0.11779,67.028,-0.0742054,
2,0,0,1,0,9834.87,-0.0758181,-0.0761636,-14.7152,8,-0.00258829,10,0.00112077,-1.83223,-0.515787,-0.114388,65.6099,-0.0761636,
2,0,0,1,0,9834.88,-0.0778157,-0.0781739,-14.8274,8,-0.00273604,10,0.00115912,-1.82893,-0.537923,-0.109681,63.5299,-0.0781739,
2,0,0,1,0,9834.89,-0.0798133,-0.0801555,-14.9688,8,-0.00288509,10,0.00119983,-1.82481,-0.481275,-0.122591,71.6214,-0.0801555,
2,0,0,1,0,9834.9,-0.0818109,-0.0821674,-15.1134,8,-0.0030355,10,0.00124183,-1.82064,-0.462713,-0.127509,75.2434,-0.0821674,
2,0,0,1,0,9834.91,-0.0837994,-0.084199,-15.2731,8,-0.00318595,10,0.00128598,-1.81607,-0.473276,-0.124663,74.242,-0.084199,
2,0,0,1,0,9834.92,-0.0857969,-0.0861229,-15.4071,8,-0.00333926,10,0.0013269,-1.81228,-0.479872,-0.122949,73.9901,-0.0861229,
2,0,0,1,0,9834.93,-0.0877945,-0.0881819,-15.5678,8,-0.00349418,10,0.0013728,-1.80777,-0.457292,-0.12902,78.3777,-0.0881819,
2,0,0,1,0,9834.94,-0.0897921,-0.0901861,-15.7256,8,-0.00365062,10,0.00141823,-1.80339,-0.440273,-0.134008,82.2606,-0.0901861,
2,0,0,1,0,9834.95,-0.0917806,-0.0921128,-15.8911,8,-0.0038071,10,0.00146378,-1.79884,-0.439785,-0.134157,83.1929,-0.0921128,
2,0,0,1,0,9834.96,-0.0937782,-0.0941413,-16.0546,8,-0.00396681,10,0.0015114,-1.7944,-0.43909,-0.134369,84.2075,-0.09414126,
2,0,0,1,0,9834.97,-0.0957758,-0.0960873,-16.2258,8,-0.0041283,10,0.0015591,-1.78979,-0.440225,-0.134022,84.8533,-0.0960873,
2,0,0,1,0,9834.98,-0.0977734,-0.098121,-16.3923,8,-0.00429137,10,0.00160843,-1.78536,-0.424873,-0.138865,88.9023,-0.098121,
2,0,0,1,0,9834.99,-0.0997412,-0.100116,-16.584,8,-0.00445295,10,0.00166032,-1.78031,0.0957483,0.616199,-384.902,-0.100116,
2,0,0,1,1,9834.99,-0.0996711,-0.100116,-15.6246,8,-0.00450149,10,0.00156426,-1.80619,-0.010781,-5.47259,2875.15,-0.1001156,
2,0,0,1,1,9835,-0.0976826,-0.0980898,-10.7585,8,-0.0046299,10,0.0010553,-1.96825,-0.0118202,-4.99148,2105.77,-0.0980898,
2,0,0,1,1,9835.01,-0.095685,-0.0960689,-7.10322,8,-0.00471807,10,0.000682399,-2.14854,-0.009949,-5.93024,1614.25,-0.0960689,
2,0,0,1,1,9835.02,-0.0936874,-0.094029,-4.20326,8,-0.00477369,10,0.000395228,-2.37641,-0.00680353,-8.67197,1313.24,-0.09402898,
2,0,0,1,1,9835.03,-0.0916898,-0.0920463,-1.82052,8,-0.00480315,10,0.000167572,-2.7398,-0.00252596,-23.3575,1087.98,-0.0920463,
2,0,0,1,1,9835.04,-0.0897013,-0.0900618,0.112983,8,-0.00481102,10,-1.01754e-05,-3.94699,-0.261954,-0.22523,907.358,-0.0900618,
2,1,0,1,1,9835.05,-0.0877037,-0.0881019,1.75848,8,-0.00480126,10,-0.000154926,-2.75486,0.00276704,21.3224,757.199,-0.0881019,
2,1,0,1,1,9835.06,-0.0857062,-0.0860673,3.13757,8,-0.00477637,10,-0.000270043,-2.50341,0.0102969,5.72986,634.909,-0.0860673,
2,1,0,1,1,9835.07,-0.0837086,-0.0841117,4.29184,8,-0.0047389,10,-0.000360994,-2.36736,0.0176537,3.34208,537.77,-0.08411175,
2,1,0,1,1,9835.08,-0.0817019,-0.0820538,5.29593,8,-0.00469064,10,-0.000434551,-2.27606,0.0249947,2.3605,476.837,-0.0820538,
2,1,0,1,1,9835.09,-0.0797043,-0.0801641,6.17421,8,-0.0046331,10,-0.00049495,-2.20942,0.0346391,1.70328,402.925,-0.0801641,
2,1,0,1,1,9835.1,-0.0777067,-0.0780793,6.89736,8,-0.00456754,10,-0.000538541,-2.16132,0.0472291,1.24923,333.123,-0.0780793,
2,1,0,1,1,9835.11,-0.0757091,-0.0760742,7.53665,8,-0.00449524,10,-0.000573345,-2.12282,0.0576141,1.02405,298.97,-0.07607425,
2,1,0,1,1,9835.12,-0.0737025,-0.0740701,8.09599,8,-0.00441692,10,-0.000599671,-2.09173,0.0713025,0.827461,259.796,-0.0740701,
2,1,0,1,1,9835.13,-0.0717049,-0.0720754,8.57552,8,-0.00433349,10,-0.000618084,-2.06674,0.0911903,0.646999,215.142,-0.0720754,
2,1,0,1,1,9835.14,-0.0697073,-0.0700574,8.95929,8,-0.0042457,10,-0.000627664,-2.04773,0.111212,0.530516,185.155,-0.0700574,
2,1,0,1,1,9835.15,-0.0677097,-0.0680524,9.32041,8,-0.00415425,10,-0.000634276,-2.03056,0.127618,0.462317,167.578,-0.0680524,
2,1,0,1,1,9835.16,-0.0657212,-0.0660891,9.62429,8,-0.00406041,10,-0.000636061,-2.01663,0.156683,0.376557,141.062,-0.0660891,
2,1,0,1,1,9835.17,-0.0637236,-0.0640675,9.88253,8,-0.0039629,10,-0.000633148,-2.00513,0.194674,0.303071,116.585,-0.0640675,
2,1,0,1,1,9835.18,-0.061726,-0.0620688,10.093,8,-0.00386296,10,-0.00062646,-1.99598,0.218916,0.26951,106.143,-0.0620688,
2,1,0,1,1,9835.19,-0.0597284,-0.0601029,10.3033,8,-0.00376095,10,-0.00061926,-1.98702,0.257448,0.229172,91.9053,-0.0601029,
2,1,0,1,1,9835.2,-0.0577399,-0.0580671,10.4608,8,-0.00365814,10,-0.000607427,-1.98044,0.313727,0.188062,76.7382,-0.0580671,
2,1,0,1,1,9835.21,-0.0557423,-0.0561158,10.6093,8,-0.00355279,10,-0.00059535,-1.97431,0.36367,0.162235,67.071,-0.05611584,
2,1,0,1,1,9835.22,-0.0537447,-0.0541021,10.7267,8,-0.00344607,10,-0.000580338,-1.96953,0.456646,0.129203,54.0426,-0.05410213,
2,1,0,1,1,9835.23,-0.0517472,-0.0520919,10.8268,8,-0.00333831,10,-0.000563987,-1.9655,0.541768,0.108903,45.9785,-0.0520919,
2,1,0,1,1,9835.24,-0.049745,-0.0501137,10.9101,8,-0.0032296,10,-0.000546745,-1.96217,0.577586,0.102149,43.5072,-0.0501137,
2,1,0,1,1,9835.25,-0.0477429,-0.0480966,11.0006,8,-0.00312002,10,-0.000529091,-1.95858,0.75172,0.0784867,33.6262,-0.0480966,
2,1,0,1,1,9835.26,-0.0457453,-0.0460733,11.046,8,-0.00300969,10,-0.000508923,-1.9568,1.09581,0.0538417,23.2131,-0.0460733,
2,1,0,1,1,9835.27,-0.0437477,-0.0440769,11.0939,8,-0.00289897,10,-0.000488985,-1.95492,1.17118,0.0503765,21.8019,-0.0440769,
2,1,0,1,1,9835.28,-0.0417501,-0.0420945,11.1327,8,-0.00278775,10,-0.000468625,-1.9534,1.15704,0.0509923,22.1654,-0.0420945,
2,1,0,1,1,9835.29,-0.0397435,-0.0400929,11.1822,8,-0.00267614,10,-0.000448327,-1.95147,1.78841,0.0329902,14.3702,-0.0400929,
2,1,0,1,1,9835.3,-0.0377459,-0.038113,11.1899,8,-0.00256427,10,-0.000426481,-1.95117,3.25386,0.0181323,7.92433,-0.038113,
2,1,0,1,1,9835.31,-0.0357483,-0.0360724,11.2141,8,-0.00245231,10,-0.000404518,-1.95024,4.66831,0.0126384,5.52476,-0.0360724,
2,1,0,1,1,9835.32,-0.0337507,-0.0340917,11.2121,8,-0.00234012,10,-0.00038224,-1.95031,9.51006,0.00620396,2.71645,-0.0340917,
2,1,0,1,1,9835.33,-0.0317622,-0.0321519,11.2247,8,-0.00222903,10,-0.000360895,-1.94982,11.182,0.00527633,2.30972,-0.0321519,
2,1,0,1,1,9835.34,-0.0297646,-0.030162,11.2212,8,-0.00211678,10,-0.000338454,-1.94996,-74.2679,-0.000794422,-0.347987,-0.030162,
2,1,0,1,1,9835.35,-0.027767,-0.0281109,11.2233,8,-0.00200461,10,-0.000315497,-1.94988,-3.30344,-0.0178602,-7.81045,-0.0281109,
2,1,0,1,1,9835.36,-0.0257694,-0.0261123,11.1896,8,-0.00189253,10,-0.000292186,-1.95119,-4.51875,-0.0130567,-5.71321,-0.0261123,
2,1,0,1,1,9835.37,-0.0237809,-0.0241524,11.2007,8,-0.0017817,10,-0.000270523,-1.95076,-6.8286,-0.00864013,-3.77056,-0.0241524,
2,1,0,1,1,9835.38,-0.0217833,-0.0221378,11.1746,8,-0.0016698,10,-0.000247381,-1.95177,-2.01552,-0.0292729,-12.7664,-0.0221378,
2,1,0,1,1,9835.39,-0.0197858,-0.020092,11.1489,8,-0.00155815,10,-0.000224003,-1.95277,-1.86331,-0.031664,-13.7753,-0.020092,
2,1,0,1,1,9835.4,-0.0177882,-0.0181806,11.1201,8,-0.00144676,10,-0.00020217,-1.95389,-4.30322,-0.0137107,-5.95929,-0.01818065,
2,1,0,1,1,9835.41,-0.0157815,-0.0161478,11.1254,8,-0.00133557,10,-0.000179651,-1.95369,-2.93505,-0.0201019,-8.70997,-0.01614785,
2,1,0,1,1,9835.42,-0.0137839,-0.0141229,11.0847,8,-0.00122446,10,-0.000156548,-1.95527,-1.56605,-0.0376744,-16.3098,-0.0141229,
2,1,0,1,1,9835.43,-0.0117863,-0.0121543,11.0602,8,-0.00111383,10,-0.000134429,-1.95624,-1.7629,-0.0334676,-14.4407,-0.01215426,
2,1,0,1,1,9835.44,-0.00978874,-0.0101518,11.0274,8,-0.00100337,10,-0.000111948,-1.95753,-2.84502,-0.020738,-8.93689,-0.0101518,
2,1,0,1,1,9835.45,-0.00778208,-0.0081251,11.0242,8,-0.000893171,10,-8.95728e-05,-1.95765,-1.80711,-0.0326489,-14.015,-0.0081251,
2,1,0,1,1,9835.46,-0.00578449,-0.00613655,10.9711,8,-0.000783205,10,-6.73248e-05,-1.95975,-1.40657,-0.0419462,-17.988,-0.00613655,
2,1,0,1,1,9835.47,-0.0037869,-0.00412717,10.9523,8,-0.000673596,10,-4.5202e-05,-1.96049,-1.76457,-0.0334359,-14.279,-0.00412717,
2,1,0,1,1,9835.48,-0.00178931,-0.00214383,10.9141,8,-0.000564228,10,-2.33979e-05,-1.96201,-1.18696,-0.0497066,-21.1697,-0.00214383,
2,1,0,1,1,9835.49,-2.55332e-05,-0.000401673,10.8734,8,-0.000469427,10,-4.36756e-06,-1.96363, , , ,-0.000401673,