File: Figure_codes/Fig_3-5/rawdata_trumpetplot_data/before 10th/20221101_1-115_002_TrumpetPlot_ParaChange_05_CV_C01.mpt
EC-Lab ASCII FILE
Nb header lines : 68

Cyclic Voltammetry

Run on channel : 1 (SN 65296)
User :
CE vs. WE compliance from -10 V to 10 V
Electrode connection : standard
Potential control : Ewe
Ewe ctrl range : min = -1.00 V, max = 1.00 V
Safety Limits :
	Do not start on E overload
Acquisition started on : 11/08/2022 17:30:03.488
Loaded Setting File :  NONE
Saved on :
	File : 20221101_1-115_002_TrumpetPlot_ParaChange_05_CV_C01.mpr
	Directory : C:\Users\NakamuraT\Documents\EC-Lab\Data\Yatsuzuka\20221108_1-115_001_TrumpetPlot\
	Host : 192.109.209.100
Device : SP-50e (SN .003219)
Address : 192.109.209.128
EC-Lab for windows v11.43 (software)
Internet server v11.40 (firmware)
Command interpretor v11.40 (firmware)
Electrode material : Au/Pd
Initial state :
Electrolyte : NaCl (0.2M)
Comments : Fe(CN)63-/Fe(CN)64- 5.10-3 M
Reference electrode : SCE Saturated Calomel Electrode (0.241 V)
Electrode surface area : 0.001 cm2
Characteristic mass : 0.001 g
Equivalent Weight : 0.000 g/eq.
Density : 0.000 g/cm3
Volume (V) : 0.001 cm3
Cycle Definition : Charge/Discharge alternance
Ei (V)              0.000
vs.                 Ref
dE/dt               5.000
dE/dt unit          mV/s
E1 (V)              0.300
vs.                 Ref
Step percent        50
N                   10
E range min (V)     -1.000
E range max (V)     1.000
I Range             10 mA
I Range min         Unset
I Range max         Unset
I Range init        Unset
Bandwidth           5
E2 (V)              0.000
vs.                 Ref
nc cycles           0
Reverse Scan        0
Ef (V)              0.000
vs.                 Eoc

Number of loops : 8
Loop 0 from point number 0 to 1204
Loop 1 from point number 1205 to 2409
Loop 2 from point number 2410 to 3614
Loop 3 from point number 3615 to 4819
Loop 4 from point number 4820 to 6024
Loop 5 from point number 6025 to 7229
Loop 6 from point number 7230 to 8434
Loop 7 from point number 8435 to 9639

mode	ox/red	error	control changes	counter inc.	time/s	control/V	Ewe/V	<I>/mA	cycle number	(Q-Qo)/C	I Range	P/W
2	1	0	0	0	958.886	2.44065e-05	-0.000401673	0.0161509	1	0.0000000E+000	11	-6.48739e-09
2	1	0	1	0	960.34	0.0072904	0.00700306	0.209306	1	0.000301697	11	1.46578e-06
2	1	0	1	0	961.838	0.0147815	0.0144726	0.22871	1	0.000661661	11	3.31002e-06
2	1	0	1	0	963.336	0.0222725	0.0219751	0.239964	1	0.00104296	11	5.27322e-06
2	1	0	1	0	964.834	0.0297635	0.0294329	0.248119	1	0.00143821	11	7.30287e-06
2	1	0	1	0	966.332	0.0372545	0.0369503	0.254186	1	0.00184552	11	9.39227e-06
2	1	0	1	0	967.831	0.0447456	0.0444377	0.267162	1	0.00226606	11	1.18721e-05
2	1	0	1	0	969.329	0.0522367	0.0519382	0.278337	1	0.00270301	11	1.44563e-05
2	1	0	1	0	970.827	0.0597277	0.0594312	0.2952	1	0.0031623	11	1.75441e-05
2	1	0	1	0	972.325	0.0672187	0.0669164	0.319502	1	0.00365146	11	2.13799e-05
2	1	0	0	0	973.823	0.0747092	0.0744111	0.346322	1	0.00417903	11	2.57702e-05
2	1	0	1	0	975.322	0.0822001	0.0818774	0.376651	1	0.00475221	11	3.08392e-05
2	1	0	0	0	976.82	0.0896911	0.0894413	0.41235	1	0.00537456	11	3.68811e-05
2	1	0	1	0	978.318	0.097182	0.0969055	0.447665	1	0.00604969	11	4.33812e-05
2	1	0	0	0	979.816	0.104673	0.104409	0.49509	1	0.00678315	11	5.16918e-05
2	1	0	1	0	981.314	0.112164	0.111879	0.556748	1	0.00759545	11	6.22886e-05
2	1	0	0	0	982.813	0.119655	0.119374	0.656449	1	0.00852874	11	7.83633e-05
2	1	0	1	0	984.311	0.127146	0.126856	0.787445	1	0.00964113	11	9.98918e-05
2	1	0	0	0	985.809	0.134637	0.134371	0.925175	1	0.0109637	11	0.000124316
2	1	0	1	0	987.307	0.142127	0.141878	0.991151	1	0.0124413	11	0.000140622
2	1	0	1	0	988.805	0.149618	0.149316	0.954908	1	0.0139438	11	0.000142583
2	1	0	1	0	990.303	0.157109	0.156813	0.807738	1	0.0153062	11	0.000126664
2	1	0	1	0	991.802	0.1646	0.164313	0.629552	1	0.016408	11	0.000103444
2	1	0	1	0	993.3	0.172091	0.171815	0.494332	1	0.0172702	11	8.49335e-05
2	1	0	1	0	994.798	0.179582	0.179278	0.418763	1	0.017981	11	7.5075e-05
2	1	0	1	0	996.296	0.187074	0.18679	0.372708	1	0.0186018	11	6.96181e-05
2	1	0	1	0	997.794	0.194564	0.194324	0.340219	1	0.0191655	11	6.61127e-05
2	1	0	1	0	999.293	0.202056	0.201787	0.320666	1	0.0196906	11	6.47062e-05
2	1	0	1	0	1000.79	0.209547	0.209288	0.306422	1	0.0201893	11	6.41303e-05
2	1	0	1	0	1002.29	0.217038	0.216732	0.2948	1	0.0206678	11	6.38924e-05
2	1	0	1	0	1003.79	0.224529	0.224241	0.285017	1	0.0211323	11	6.39124e-05
2	1	0	0	0	1005.29	0.232019	0.23173	0.278389	1	0.0215856	11	6.45111e-05
2	1	0	1	0	1006.78	0.23951	0.239219	0.273899	1	0.0220305	11	6.5522e-05
2	1	0	0	0	1008.28	0.247001	0.246741	0.270658	1	0.0224685	11	6.67825e-05
2	1	0	1	0	1009.78	0.254492	0.254213	0.265931	1	0.0229008	11	6.76029e-05
2	1	0	0	0	1011.28	0.261983	0.261706	0.263474	1	0.0233281	11	6.89529e-05
2	1	0	1	0	1012.78	0.269474	0.269219	0.260938	1	0.0237515	11	7.02494e-05
2	1	0	0	0	1014.27	0.276965	0.276719	0.258412	1	0.0241713	11	7.15074e-05
2	1	0	1	0	1015.77	0.284456	0.284174	0.25685	1	0.0245877	11	7.29902e-05
2	1	0	0	0	1017.27	0.291947	0.291652	0.254664	1	0.0250011	11	7.42734e-05
2	1	0	1	0	1018.77	0.299437	0.299194	0.251356	1	0.0254119	11	7.52042e-05
2	0	0	1	0	1020.14	0.293744	0.293473	-0.0320196	1	0.0254108	11	-9.39688e-06
2	0	0	1	0	1021.64	0.286253	0.285902	-0.0598254	1	0.0253098	11	-1.71042e-05
2	0	0	1	0	1023.13	0.278763	0.278479	-0.0795827	1	0.025174	11	-2.21621e-05
2	0	0	0	0	1024.63	0.271272	0.271013	-0.0953253	1	0.0250125	11	-2.58344e-05
2	0	0	1	0	1026.13	0.263781	0.26349	-0.108395	1	0.0248291	11	-2.8561e-05
2	0	0	0	0	1027.63	0.25629	0.256016	-0.120759	1	0.0246267	11	-3.09163e-05
2	0	0	1	0	1029.13	0.248799	0.248508	-0.130513	1	0.0244065	11	-3.24334e-05
2	0	0	0	0	1030.63	0.241308	0.241018	-0.143911	1	0.0241692	11	-3.4685e-05
2	0	0	1	0	1032.12	0.233817	0.233555	-0.155722	1	0.0239151	11	-3.63695e-05
2	0	0	0	0	1033.62	0.226326	0.226039	-0.164976	1	0.0236432	11	-3.72909e-05
2	0	0	1	0	1035.12	0.218835	0.218567	-0.180154	1	0.0233525	11	-3.93757e-05
2	0	0	0	0	1036.62	0.211344	0.211	-0.194045	1	0.0230414	11	-4.09434e-05
2	0	0	1	0	1038.12	0.203854	0.203504	-0.211124	1	0.0227057	11	-4.29647e-05
2	0	0	1	0	1039.61	0.196363	0.196047	-0.235621	1	0.0223411	11	-4.61929e-05
2	0	0	1	0	1041.11	0.188871	0.188562	-0.263436	1	0.0219383	11	-4.96741e-05
2	0	0	1	0	1042.61	0.181381	0.181062	-0.304652	1	0.0214849	11	-5.51608e-05
2	0	0	1	0	1044.11	0.173889	0.173544	-0.362789	1	0.0209594	11	-6.296e-05
2	0	0	1	0	1045.61	0.166398	0.166115	-0.449983	1	0.0203256	11	-7.47489e-05
2	0	0	1	0	1047.11	0.158907	0.158628	-0.586917	1	0.0195221	11	-9.31017e-05
2	0	0	1	0	1048.6	0.151416	0.151153	-0.770166	1	0.0184751	11	-0.000116413
2	0	0	1	0	1050.1	0.143925	0.143628	-0.922473	1	0.01717	11	-0.000132493
2	0	0	1	0	1051.6	0.136434	0.13615	-0.990773	1	0.0156955	11	-0.000134894
2	0	0	1	0	1053.1	0.128943	0.128669	-0.949039	1	0.0142014	11	-0.000122112
2	0	0	1	0	1054.6	0.121453	0.121138	-0.831674	1	0.0128343	11	-0.000100747
2	0	0	0	0	1056.09	0.113962	0.113654	-0.705361	1	0.0116543	11	-8.01667e-05
2	0	0	1	0	1057.59	0.106471	0.106205	-0.624561	1	0.0106301	11	-6.63317e-05
2	0	0	0	0	1059.09	0.0989798	0.0986795	-0.571404	1	0.00970678	11	-5.63858e-05
2	0	0	1	0	1060.59	0.0914889	0.0912132	-0.537746	1	0.00884963	11	-4.90495e-05
2	0	0	0	0	1062.09	0.083998	0.0836949	-0.50167	1	0.0080434	11	-4.19872e-05
2	0	0	1	0	1063.59	0.076507	0.0761894	-0.471466	1	0.00728417	11	-3.59207e-05
2	0	0	0	0	1065.08	0.069016	0.0687252	-0.441119	1	0.00657026	11	-3.0316e-05
2	0	0	1	0	1066.58	0.0615251	0.0612482	-0.419952	1	0.00589464	11	-2.57213e-05
2	0	0	0	0	1068.08	0.0540341	0.0537618	-0.405136	1	0.00524879	11	-2.17808e-05
2	0	0	1	0	1069.58	0.0465436	0.0462407	-0.393927	1	0.00462183	11	-1.82155e-05
2	0	0	1	0	1071.08	0.0390526	0.0387425	-0.390698	1	0.00400443	11	-1.51366e-05
2	0	0	1	0	1072.57	0.0315615	0.0312824	-0.391941	1	0.00338917	11	-1.22609e-05
2	0	0	1	0	1074.07	0.0240706	0.0238033	-0.396203	1	0.00276977	11	-9.43092e-06
2	0	0	1	0	1075.57	0.0165795	0.0162542	-0.404648	1	0.00214079	11	-6.57722e-06
2	0	0	1	0	1077.07	0.00908845	0.00882173	-0.414775	1	0.00149803	11	-3.65903e-06
2	0	0	1	0	1078.57	0.00159739	0.00120693	-0.429046	1	0.000835919	11	-5.1783e-07
2	1	0	1	0	2191.47	0.00479342	0.00449826	0.200694	2	0.000193294	11	9.02774e-07
2	1	0	1	0	2192.97	0.0122845	0.0119965	0.225058	2	0.000545404	11	2.69991e-06
2	1	0	1	0	2194.47	0.0197754	0.0194744	0.238318	2	0.000924645	11	4.64109e-06
2	1	0	1	0	2195.96	0.0272665	0.0269737	0.249298	2	0.00132062	11	6.72449e-06
2	1	0	1	0	2197.46	0.0347576	0.0344721	0.256422	2	0.00173111	11	8.83942e-06
2	1	0	1	0	2198.96	0.0422486	0.0419788	0.26879	2	0.00215654	11	1.12835e-05
2	1	0	1	0	2200.46	0.0497397	0.0494546	0.282592	2	0.00260094	11	1.39755e-05
2	1	0	1	0	2201.96	0.0572306	0.0569263	0.302101	2	0.00307064	11	1.71975e-05
2	1	0	1	0	2203.45	0.0647217	0.0644119	0.329534	2	0.00357481	11	2.12259e-05
2	1	0	0	0	2204.95	0.0722122	0.0719615	0.360989	2	0.00412278	11	2.59773e-05
2	1	0	1	0	2206.45	0.0797031	0.0793674	0.395167	2	0.00472038	11	3.13634e-05
2	1	0	0	0	2207.95	0.0871941	0.0868867	0.429055	2	0.00536885	11	3.72792e-05
2	1	0	1	0	2209.45	0.094685	0.0943456	0.461824	2	0.00606781	11	4.35711e-05
2	1	0	0	0	2210.95	0.102176	0.1019	0.500116	2	0.00681755	11	5.09618e-05
2	1	0	1	0	2212.44	0.109667	0.109395	0.553804	2	0.0076352	11	6.05833e-05
2	1	0	0	0	2213.94	0.117158	0.116857	0.637743	2	0.00855411	11	7.45247e-05
2	1	0	1	0	2215.44	0.124649	0.124377	0.757954	2	0.00962639	11	9.42723e-05
2	1	0	0	0	2216.94	0.13214	0.131878	0.882289	2	0.0108867	11	0.000116354
2	1	0	1	0	2218.44	0.139631	0.13931	0.955882	2	0.0123044	11	0.000133164
2	1	0	1	0	2219.93	0.147121	0.146827	0.949597	2	0.0137766	11	0.000139426
2	1	0	1	0	2221.43	0.154612	0.154308	0.83095	2	0.015155	11	0.000128222
2	1	0	1	0	2222.93	0.162103	0.161799	0.656618	2	0.0163014	11	0.00010624
2	1	0	1	0	2224.43	0.169594	0.169281	0.511652	2	0.0171988	11	8.6613e-05
2	1	0	1	0	2225.93	0.177085	0.176799	0.42595	2	0.017927	11	7.53077e-05
2	1	0	1	0	2227.43	0.184576	0.184313	0.372489	2	0.0185562	11	6.86544e-05
2	1	0	1	0	2228.92	0.192067	0.191739	0.344263	2	0.0191246	11	6.60084e-05
2	1	0	1	0	2230.42	0.199559	0.199265	0.320969	2	0.0196531	11	6.39578e-05
2	1	0	1	0	2231.92	0.207049	0.206763	0.310229	2	0.0201539	11	6.41439e-05
2	1	0	1	0	2233.42	0.214541	0.214296	0.295306	2	0.020635	11	6.32829e-05
2	1	0	1	0	2234.92	0.222032	0.221774	0.286736	2	0.0211014	11	6.35906e-05
2	1	0	0	0	2236.41	0.229522	0.22922	0.278309	2	0.0215562	11	6.37938e-05
2	1	0	1	0	2237.91	0.237013	0.236708	0.275013	2	0.0220027	11	6.50978e-05
2	1	0	0	0	2239.41	0.244504	0.2442	0.269995	2	0.0224422	11	6.59328e-05
2	1	0	1	0	2240.91	0.251995	0.251711	0.266314	2	0.0228762	11	6.70342e-05
2	1	0	0	0	2242.41	0.259486	0.259197	0.263581	2	0.0233053	11	6.83196e-05
2	1	0	1	0	2243.91	0.266977	0.26669	0.26171	2	0.0237302	11	6.97956e-05
2	1	0	0	0	2245.4	0.274468	0.274153	0.258466	2	0.0241514	11	7.08595e-05
2	1	0	1	0	2246.9	0.281959	0.281637	0.255488	2	0.0245694	11	7.19549e-05
2	1	0	0	0	2248.4	0.28945	0.289103	0.254536	2	0.0249845	11	7.35872e-05
2	1	0	1	0	2249.9	0.296941	0.296661	0.25221	2	0.0253969	11	7.48208e-05
2	1	0	1	0	2251.27	0.296241	0.295942	-0.0177511	2	0.025555	11	-5.25331e-06
2	0	0	1	0	2252.77	0.28875	0.288447	-0.0506767	2	0.0254697	11	-1.46176e-05
2	0	0	1	0	2254.26	0.28126	0.280957	-0.0719749	2	0.0253446	11	-2.02219e-05
2	0	0	0	0	2255.76	0.273769	0.27347	-0.0870881	2	0.0251919	11	-2.38159e-05
2	0	0	1	0	2257.26	0.266278	0.265981	-0.10371	2	0.0250167	11	-2.75849e-05
2	0	0	0	0	2258.76	0.258787	0.258516	-0.116271	2	0.0248218	11	-3.00579e-05
2	0	0	1	0	2260.26	0.251296	0.250982	-0.125779	2	0.0246086	11	-3.15682e-05
2	0	0	0	0	2261.75	0.243805	0.243514	-0.136774	2	0.0243787	11	-3.33065e-05
2	0	0	1	0	2263.25	0.236314	0.236003	-0.148768	2	0.0241322	11	-3.51098e-05
2	0	0	0	0	2264.75	0.228823	0.228502	-0.15938	2	0.023869	11	-3.64187e-05
2	0	0	1	0	2266.25	0.221332	0.221049	-0.172243	2	0.0235884	11	-3.80742e-05
2	0	0	0	0	2267.75	0.213841	0.213551	-0.18453	2	0.0232886	11	-3.94066e-05
2	0	0	1	0	2269.25	0.206351	0.206059	-0.20044	2	0.0229668	11	-4.13025e-05
2	0	0	1	0	2270.74	0.198859	0.198559	-0.220236	2	0.0226195	11	-4.37298e-05
2	0	0	1	0	2272.24	0.191369	0.191059	-0.244503	2	0.0222398	11	-4.67145e-05
2	0	0	1	0	2273.74	0.183877	0.183571	-0.278913	2	0.0218178	11	-5.12002e-05
2	0	0	1	0	2275.24	0.176386	0.176084	-0.326155	2	0.021336	11	-5.74307e-05
2	0	0	1	0	2276.74	0.168895	0.16859	-0.396674	2	0.0207665	11	-6.68754e-05
2	0	0	1	0	2278.23	0.161404	0.161082	-0.513139	2	0.0200582	11	-8.26575e-05
2	0	0	1	0	2279.73	0.153913	0.153603	-0.680364	2	0.0191376	11	-0.000104506
2	0	0	1	0	2281.23	0.146422	0.146155	-0.846438	2	0.0179579	11	-0.000123711
2	0	0	1	0	2282.73	0.138931	0.138602	-0.950735	2	0.0165678	11	-0.000131773
2	0	0	1	0	2284.23	0.13144	0.131148	-0.95761	2	0.0150955	11	-0.000125588
2	0	0	1	0	2285.73	0.12395	0.123628	-0.875103	2	0.0136846	11	-0.000108187
2	0	0	0	0	2287.22	0.116459	0.116154	-0.763394	2	0.0124277	11	-8.86713e-05
2	0	0	1	0	2288.72	0.108968	0.108676	-0.669103	2	0.0113304	11	-7.27154e-05
2	0	0	0	0	2290.22	0.101477	0.101205	-0.604849	2	0.0103476	11	-6.1214e-05
2	0	0	1	0	2291.72	0.0939859	0.0936935	-0.569734	2	0.00943868	11	-5.33804e-05
2	0	0	0	0	2293.22	0.0864949	0.0861752	-0.536005	2	0.00858003	11	-4.61903e-05
2	0	0	1	0	2294.71	0.079004	0.0787227	-0.508753	2	0.0077675	11	-4.00504e-05
2	0	0	0	0	2296.21	0.071513	0.0712076	-0.47376	2	0.00700188	11	-3.37353e-05
2	0	0	1	0	2297.71	0.0640221	0.0636808	-0.443348	2	0.00628308	11	-2.82327e-05
2	0	0	0	0	2299.21	0.0565311	0.0562007	-0.418269	2	0.00560535	11	-2.3507e-05
2	0	0	1	0	2300.71	0.0490406	0.0487339	-0.404971	2	0.00495739	11	-1.97358e-05
2	0	0	1	0	2302.21	0.0415496	0.0412408	-0.396268	2	0.00432785	11	-1.63424e-05
2	0	0	1	0	2303.7	0.0340586	0.0337437	-0.394731	2	0.0037065	11	-1.33197e-05
2	0	0	1	0	2305.2	0.0265676	0.0262666	-0.394538	2	0.00308533	11	-1.03632e-05
2	0	0	1	0	2306.7	0.0190765	0.0187821	-0.401443	2	0.00245862	11	-7.53996e-06
2	0	0	1	0	2308.2	0.0115854	0.011284	-0.407599	2	0.00182087	11	-4.59935e-06
2	0	0	1	0	2309.7	0.00409438	0.00381418	-0.420462	2	0.00116854	11	-1.60372e-06
2	1	0	1	0	3422.6	0.00229644	0.00195127	0.197762	3	7.93373e-05	11	3.85888e-07
2	1	0	1	0	3424.1	0.00978739	0.00950014	0.219293	3	0.000412814	11	2.08331e-06
2	1	0	1	0	3425.59	0.0172784	0.0169995	0.234592	3	0.000781538	11	3.98794e-06
2	1	0	1	0	3427.09	0.0247695	0.0244776	0.24518	3	0.0011704	11	6.00141e-06
2	1	0	1	0	3428.59	0.0322606	0.0319282	0.256738	3	0.00157587	11	8.19719e-06
2	1	0	1	0	3430.09	0.0397516	0.0394228	0.270531	3	0.00199872	11	1.06651e-05
2	1	0	1	0	3431.59	0.0472426	0.0469437	0.287251	3	0.00244275	11	1.34846e-05
2	1	0	1	0	3433.09	0.0547336	0.0544831	0.307345	3	0.00291526	11	1.67451e-05
2	1	0	1	0	3434.58	0.0622247	0.0619719	0.336235	3	0.003425	11	2.08371e-05
2	1	0	1	0	3436.08	0.0697152	0.0694346	0.367766	3	0.00398116	11	2.55357e-05
2	1	0	0	0	3437.58	0.0772062	0.0769465	0.405225	3	0.0045892	11	3.11807e-05
2	1	0	1	0	3439.08	0.0846971	0.0844001	0.43954	3	0.00524894	11	3.70972e-05
2	1	0	0	0	3440.58	0.0921881	0.0918993	0.470263	3	0.00595686	11	4.32168e-05
2	1	0	1	0	3442.07	0.099679	0.0993826	0.502577	3	0.00671169	11	4.99474e-05
2	1	0	0	0	3443.57	0.10717	0.106857	0.550127	3	0.00752401	11	5.87851e-05
2	1	0	1	0	3445.07	0.114661	0.114368	0.615432	3	0.00842151	11	7.03858e-05
2	1	0	0	0	3446.57	0.122152	0.121848	0.719838	3	0.00944912	11	8.77111e-05
2	1	0	1	0	3448.07	0.129643	0.129286	0.831759	3	0.0106391	11	0.000107535
2	1	0	0	0	3449.57	0.137134	0.136845	0.912754	3	0.0119807	11	0.000124905
2	1	0	1	0	3451.06	0.144624	0.144321	0.930522	3	0.0134014	11	0.000134294
2	1	0	1	0	3452.56	0.152115	0.151851	0.847266	3	0.0147744	11	0.000128658
2	1	0	1	0	3454.06	0.159606	0.15932	0.685822	3	0.0159559	11	0.000109265
2	1	0	1	0	3455.56	0.167097	0.166807	0.533617	3	0.016891	11	8.90111e-05
2	1	0	1	0	3457.06	0.174588	0.174245	0.439253	3	0.0176412	11	7.65377e-05
2	1	0	1	0	3458.55	0.182079	0.181771	0.38524	3	0.0182821	11	7.00255e-05
2	1	0	1	0	3460.05	0.189571	0.189346	0.350026	3	0.0188578	11	6.62763e-05
2	1	0	1	0	3461.55	0.197062	0.196769	0.326416	3	0.0193917	11	6.42286e-05
2	1	0	1	0	3463.05	0.204553	0.204252	0.310465	3	0.019897	11	6.34131e-05
2	1	0	1	0	3464.55	0.212044	0.21174	0.300086	3	0.0203827	11	6.35403e-05
2	1	0	1	0	3466.05	0.219535	0.219199	0.291676	3	0.020853	11	6.39352e-05
2	1	0	1	0	3467.54	0.227025	0.226717	0.286034	3	0.0213118	11	6.48487e-05
2	1	0	0	0	3469.04	0.234516	0.234229	0.279031	3	0.0217617	11	6.53572e-05
2	1	0	1	0	3470.54	0.242007	0.241755	0.273168	3	0.0222042	11	6.60397e-05
2	1	0	0	0	3472.04	0.249498	0.249221	0.269775	3	0.0226408	11	6.72336e-05
2	1	0	1	0	3473.54	0.256989	0.256666	0.266391	3	0.0230724	11	6.83735e-05
2	1	0	0	0	3475.03	0.26448	0.264199	0.266142	3	0.0235001	11	7.03146e-05
2	1	0	1	0	3476.53	0.271971	0.27172	0.263524	3	0.0239237	11	7.16048e-05
2	1	0	0	0	3478.03	0.279462	0.279212	0.260547	3	0.0243438	11	7.27477e-05
2	1	0	1	0	3479.53	0.286953	0.286657	0.255964	3	0.0247605	11	7.33738e-05
2	1	0	0	0	3481.03	0.294444	0.29418	0.256759	3	0.0251743	11	7.55336e-05
2	1	0	1	0	3482.4	0.298738	0.298475	0.0128646	3	0.0254849	11	3.83975e-06
2	0	0	1	0	3483.89	0.291247	0.29095	-0.0415504	3	0.0254253	11	-1.20891e-05
2	0	0	1	0	3485.39	0.283756	0.283472	-0.0663627	3	0.025315	11	-1.88119e-05
2	0	0	1	0	3486.89	0.276266	0.276016	-0.0841136	3	0.0251739	11	-2.32167e-05
2	0	0	0	0	3488.39	0.268775	0.268511	-0.0975036	3	0.0250088	11	-2.61808e-05
2	0	0	1	0	3489.89	0.261284	0.260996	-0.108917	3	0.0248235	11	-2.84268e-05
2	0	0	0	0	3491.39	0.253793	0.253505	-0.123482	3	0.0246195	11	-3.13033e-05
2	0	0	1	0	3492.88	0.246302	0.24605	-0.133856	3	0.0243985	11	-3.29352e-05
2	0	0	0	0	3494.38	0.238811	0.238533	-0.145517	3	0.0241609	11	-3.47105e-05
2	0	0	1	0	3495.88	0.23132	0.23106	-0.15575	3	0.0239071	11	-3.59874e-05
2	0	0	0	0	3497.38	0.223829	0.223566	-0.16668	3	0.0236368	11	-3.72638e-05
2	0	0	1	0	3498.88	0.216338	0.216056	-0.177602	3	0.0233484	11	-3.83719e-05
2	0	0	1	0	3500.37	0.208848	0.208556	-0.193832	3	0.0230406	11	-4.04249e-05
2	0	0	1	0	3501.87	0.201357	0.201062	-0.210212	3	0.0227096	11	-4.22656e-05
2	0	0	1	0	3503.37	0.193866	0.193574	-0.233145	3	0.0223512	11	-4.51307e-05
2	0	0	1	0	3504.87	0.186374	0.186082	-0.257344	3	0.0219572	11	-4.7887e-05
2	0	0	1	0	3506.37	0.178883	0.178583	-0.2972	3	0.0215149	11	-5.3075e-05
2	0	0	1	0	3507.87	0.171392	0.171085	-0.351843	3	0.0210028	11	-6.01952e-05
2	0	0	1	0	3509.36	0.163901	0.163583	-0.442264	3	0.0203824	11	-7.23468e-05
2	0	0	1	0	3510.86	0.15641	0.156135	-0.58495	3	0.019591	11	-9.13314e-05
2	0	0	1	0	3512.36	0.148919	0.14864	-0.752778	3	0.0185624	11	-0.000111893
2	0	0	1	0	3513.86	0.141428	0.141116	-0.886127	3	0.0172977	11	-0.000125046
2	0	0	1	0	3515.36	0.133937	0.133665	-0.940587	3	0.0158914	11	-0.000125724
2	0	0	1	0	3516.85	0.126446	0.126168	-0.897386	3	0.0144767	11	-0.000113221
2	0	0	1	0	3518.35	0.118956	0.118668	-0.812111	3	0.0131633	11	-9.63718e-05
2	0	0	0	0	3519.85	0.111465	0.111151	-0.71477	3	0.0119948	11	-7.94473e-05
2	0	0	1	0	3521.35	0.103974	0.10367	-0.645695	3	0.0109524	11	-6.6939e-05
2	0	0	0	0	3522.85	0.0964829	0.0962067	-0.60057	3	0.00999569	11	-5.77788e-05
2	0	0	1	0	3524.35	0.0889919	0.0886597	-0.568321	3	0.00909464	11	-5.03872e-05
2	0	0	0	0	3525.84	0.081501	0.0812337	-0.539421	3	0.00823775	11	-4.38192e-05
2	0	0	1	0	3527.34	0.07401	0.0736889	-0.508577	3	0.00742409	11	-3.74765e-05
2	0	0	0	0	3528.84	0.0665191	0.0661993	-0.475494	3	0.00665833	11	-3.14773e-05
2	0	0	1	0	3530.34	0.0590281	0.0587319	-0.446379	3	0.00594033	11	-2.62167e-05
2	0	0	1	0	3531.84	0.0515376	0.0512066	-0.422834	3	0.0052629	11	-2.16519e-05
2	0	0	1	0	3533.33	0.0440467	0.0437721	-0.406127	3	0.00461522	11	-1.7777e-05
2	0	0	1	0	3534.83	0.0365556	0.0362665	-0.400448	3	0.00398471	11	-1.45229e-05
2	0	0	1	0	3536.33	0.0290645	0.0287173	-0.397405	3	0.00336129	11	-1.14124e-05
2	0	0	1	0	3537.83	0.0215735	0.0212765	-0.400854	3	0.00273674	11	-8.52875e-06
2	0	0	1	0	3539.33	0.0140824	0.0137591	-0.408503	3	0.00210513	11	-5.62061e-06
2	0	0	1	0	3540.83	0.00659147	0.00628626	-0.415689	3	0.00146168	11	-2.61313e-06
2	0	0	1	0	4653.77	2.44065e-05	-0.000287149	-0.0147852	4	0.0000000E+000	11	4.24555e-09
2	1	0	1	0	4655.22	0.00729041	0.00700395	0.209858	4	0.000294354	11	1.46984e-06
2	1	0	1	0	4656.72	0.0147815	0.0144703	0.2307	4	0.000653912	11	3.33831e-06
2	1	0	1	0	4658.22	0.0222725	0.0220028	0.244843	4	0.00103805	11	5.38723e-06
2	1	0	1	0	4659.72	0.0297635	0.0294625	0.257041	4	0.00144085	11	7.57305e-06
2	1	0	1	0	4661.22	0.0372545	0.0369958	0.268539	4	0.00186216	11	9.93482e-06
2	1	0	1	0	4662.72	0.0447456	0.0444727	0.288511	4	0.00230612	11	1.28309e-05
2	1	0	1	0	4664.21	0.0522367	0.051901	0.310253	4	0.00278001	11	1.61024e-05
2	1	0	1	0	4665.71	0.0597277	0.0594366	0.339599	4	0.00329333	11	2.01846e-05
2	1	0	1	0	4667.21	0.0672187	0.0669134	0.374646	4	0.00385453	11	2.50689e-05
2	1	0	1	0	4668.71	0.0747092	0.0744195	0.40718	4	0.0044683	11	3.03022e-05
2	1	0	0	0	4670.21	0.0822001	0.0819506	0.438315	4	0.00513322	11	3.59202e-05
2	1	0	1	0	4671.7	0.0896911	0.0893745	0.471804	4	0.00584427	11	4.21672e-05
2	1	0	0	0	4673.2	0.097182	0.0968949	0.500567	4	0.00660006	11	4.85024e-05
2	1	0	1	0	4674.7	0.104673	0.104347	0.545533	4	0.00740776	11	5.6925e-05
2	1	0	0	0	4676.2	0.112164	0.111897	0.604134	4	0.00829126	11	6.76011e-05
2	1	0	1	0	4677.7	0.119655	0.119366	0.693392	4	0.00928857	11	8.27674e-05
2	1	0	0	0	4679.2	0.127146	0.126877	0.786792	4	0.010428	11	9.98256e-05
2	1	0	1	0	4680.69	0.134637	0.134324	0.871886	4	0.0117063	11	0.000117115
2	1	0	1	0	4682.19	0.142127	0.141811	0.906691	4	0.0130752	11	0.000128579
2	1	0	1	0	4683.69	0.149618	0.149337	0.852028	4	0.0144315	11	0.000127239
2	1	0	1	0	4685.19	0.157109	0.156801	0.70836	4	0.0156348	11	0.000111072
2	1	0	1	0	4686.69	0.1646	0.164305	0.555416	4	0.016603	11	9.12575e-05
2	1	0	1	0	4688.18	0.172091	0.171822	0.446278	4	0.0173738	11	7.66804e-05
2	1	0	1	0	4689.68	0.179582	0.179211	0.388579	4	0.018024	11	6.96378e-05
2	1	0	1	0	4691.18	0.187074	0.186799	0.353452	4	0.0186039	11	6.60247e-05
2	1	0	1	0	4692.68	0.194564	0.194296	0.32798	4	0.0191403	11	6.37251e-05
2	1	0	1	0	4694.18	0.202056	0.201758	0.312829	4	0.0196472	11	6.31156e-05
2	1	0	1	0	4695.68	0.209547	0.209224	0.300679	4	0.020134	11	6.29093e-05
2	1	0	1	0	4697.17	0.217038	0.216776	0.290935	4	0.0206052	11	6.30679e-05
2	1	0	1	0	4698.67	0.224529	0.224275	0.285886	4	0.021065	11	6.4117e-05
2	1	0	1	0	4700.17	0.232019	0.231721	0.279775	4	0.0215158	11	6.48297e-05
2	1	0	0	0	4701.67	0.23951	0.239241	0.275079	4	0.0219594	11	6.58101e-05
2	1	0	1	0	4703.17	0.247001	0.246731	0.2704	4	0.0223971	11	6.6716e-05
2	1	0	0	0	4704.67	0.254492	0.254218	0.267729	4	0.0228297	11	6.80614e-05
2	1	0	1	0	4706.16	0.261983	0.261713	0.265889	4	0.0232579	11	6.95866e-05
2	1	0	0	0	4707.66	0.269474	0.269216	0.263828	4	0.0236824	11	7.10269e-05
2	1	0	1	0	4709.16	0.276965	0.276688	0.261106	4	0.0241035	11	7.22448e-05
2	1	0	0	0	4710.66	0.284456	0.2842	0.258876	4	0.0245214	11	7.35725e-05
2	1	0	1	0	4712.16	0.291947	0.291669	0.256831	4	0.0249363	11	7.49098e-05
2	1	0	1	0	4713.65	0.299437	0.299162	0.254937	4	0.0253484	11	7.62673e-05
2	0	0	1	0	4715.02	0.293744	0.293443	-0.0307822	4	0.0253528	11	-9.03282e-06
2	0	0	1	0	4716.52	0.286253	0.28596	-0.0582993	4	0.025256	11	-1.66712e-05
2	0	0	0	0	4718.02	0.278763	0.278484	-0.0787034	4	0.0251246	11	-2.19176e-05
2	0	0	1	0	4719.52	0.271272	0.270977	-0.0934745	4	0.0249677	11	-2.53294e-05
2	0	0	0	0	4721.02	0.263781	0.263511	-0.105786	4	0.0247893	11	-2.78759e-05
2	0	0	1	0	4722.51	0.25629	0.255983	-0.118904	4	0.0245922	11	-3.04375e-05
2	0	0	0	0	4724.01	0.248799	0.248553	-0.129432	4	0.0243778	11	-3.21706e-05
2	0	0	1	0	4725.51	0.241308	0.241032	-0.139927	4	0.0241472	11	-3.37269e-05
2	0	0	0	0	4727.01	0.233817	0.233528	-0.151073	4	0.0239006	11	-3.52799e-05
2	0	0	1	0	4728.51	0.226326	0.226017	-0.16203	4	0.0236378	11	-3.66215e-05
2	0	0	0	0	4730.01	0.218835	0.21854	-0.174913	4	0.0233582	11	-3.82256e-05
2	0	0	1	0	4731.5	0.211344	0.211076	-0.185299	4	0.0230606	11	-3.91123e-05
2	0	0	1	0	4733	0.203854	0.203557	-0.199552	4	0.0227422	11	-4.06203e-05
2	0	0	1	0	4734.5	0.196363	0.196044	-0.219645	4	0.0224004	11	-4.30602e-05
2	0	0	1	0	4736	0.188871	0.188591	-0.240972	4	0.022028	11	-4.54451e-05
2	0	0	1	0	4737.5	0.181381	0.181081	-0.274307	4	0.0216157	11	-4.96718e-05
2	0	0	1	0	4738.99	0.173889	0.173625	-0.319082	4	0.0211474	11	-5.54005e-05
2	0	0	1	0	4740.49	0.166398	0.1661	-0.388007	4	0.0205941	11	-6.44481e-05
2	0	0	1	0	4741.99	0.158907	0.158605	-0.495986	4	0.0199064	11	-7.8666e-05
2	0	0	1	0	4743.49	0.151416	0.151147	-0.657819	4	0.0190147	11	-9.94273e-05
2	0	0	1	0	4744.99	0.143925	0.143664	-0.81255	4	0.0178814	11	-0.000116734
2	0	0	1	0	4746.49	0.136434	0.13616	-0.904488	4	0.0165583	11	-0.000123155
2	0	0	1	0	4747.98	0.128943	0.128643	-0.90488	4	0.0151654	11	-0.000116406
2	0	0	0	0	4749.48	0.121453	0.121141	-0.846353	4	0.0138202	11	-0.000102528
2	0	0	1	0	4750.98	0.113962	0.113682	-0.751502	4	0.0125924	11	-8.54324e-05
2	0	0	0	0	4752.48	0.106471	0.106179	-0.679122	4	0.0114933	11	-7.21083e-05
2	0	0	1	0	4753.98	0.0989799	0.0986806	-0.623815	4	0.0104936	11	-6.15584e-05
2	0	0	0	0	4755.47	0.0914889	0.0911602	-0.592439	4	0.00955922	11	-5.40068e-05
2	0	0	1	0	4756.97	0.083998	0.0837236	-0.561541	4	0.00867058	11	-4.70142e-05
2	0	0	0	0	4758.47	0.076507	0.0762106	-0.534359	4	0.00782237	11	-4.07238e-05
2	0	0	1	0	4759.97	0.0690161	0.0687389	-0.501173	4	0.00701829	11	-3.44501e-05
2	0	0	0	0	4761.47	0.0615251	0.0612217	-0.469603	4	0.00626201	11	-2.87499e-05
2	0	0	1	0	4762.97	0.0540342	0.0537395	-0.440781	4	0.00555298	11	-2.36873e-05
2	0	0	1	0	4764.46	0.0465436	0.0462249	-0.416936	4	0.0048823	11	-1.92728e-05
2	0	0	1	0	4765.96	0.0390526	0.0387955	-0.405953	4	0.00423795	11	-1.57491e-05
2	0	0	1	0	4767.46	0.0315615	0.0312559	-0.400672	4	0.00360802	11	-1.25234e-05
2	0	0	1	0	4768.96	0.0240706	0.0237852	-0.398963	4	0.00298293	11	-9.48942e-06
2	0	0	1	0	4770.46	0.0165795	0.0162914	-0.404643	4	0.0023544	11	-6.59219e-06
2	0	0	1	0	4771.95	0.00908846	0.00874976	-0.410809	4	0.0017165	11	-3.59448e-06
2	0	0	1	0	4773.45	0.00159739	0.00123739	-0.424614	4	0.00106262	11	-5.25414e-07
2	1	0	1	0	5886.35	0.00479342	0.0045334	0.199708	5	0.000182297	11	9.05357e-07
2	1	0	1	0	5887.85	0.0122845	0.0119986	0.224908	5	0.000530387	11	2.69857e-06
2	1	0	1	0	5889.35	0.0197754	0.0194788	0.241826	5	0.000908819	11	4.71048e-06
2	1	0	1	0	5890.85	0.0272665	0.0269875	0.257072	5	0.0013081	11	6.93771e-06
2	1	0	1	0	5892.35	0.0347576	0.0344656	0.26822	5	0.00172761	11	9.24439e-06
2	1	0	1	0	5893.84	0.0422486	0.0419384	0.287175	5	0.00217137	11	1.20437e-05
2	1	0	1	0	5895.34	0.0497397	0.0494484	0.310951	5	0.00264591	11	1.5376e-05
2	1	0	1	0	5896.84	0.0572306	0.0569317	0.339779	5	0.00316026	11	1.93442e-05
2	1	0	1	0	5898.34	0.0647217	0.0644319	0.375575	5	0.00372322	11	2.4199e-05
2	1	0	0	0	5899.84	0.0722122	0.0719371	0.411076	5	0.00433916	11	2.95716e-05
2	1	0	1	0	5901.34	0.0797031	0.0794236	0.443004	5	0.00500565	11	3.51849e-05
2	1	0	0	0	5902.83	0.0871941	0.0869133	0.47075	5	0.00571759	11	4.09145e-05
2	1	0	1	0	5904.33	0.0946851	0.0944146	0.499926	5	0.00647202	11	4.72003e-05
2	1	0	0	0	5905.83	0.102176	0.101872	0.535452	5	0.00727327	11	5.45478e-05
2	1	0	1	0	5907.33	0.109667	0.109342	0.591275	5	0.00814327	11	6.46512e-05
2	1	0	0	0	5908.83	0.117158	0.116833	0.670704	5	0.00911431	11	7.83601e-05
2	1	0	1	0	5910.32	0.124649	0.124315	0.760739	5	0.0102139	11	9.45712e-05
2	1	0	0	0	5911.82	0.13214	0.131797	0.837959	5	0.0114417	11	0.000110441
2	1	0	1	0	5913.32	0.139631	0.139351	0.879949	5	0.0127644	11	0.000122622
2	1	0	1	0	5914.82	0.147121	0.146832	0.851187	5	0.014101	11	0.000124982
2	1	0	1	0	5916.32	0.154612	0.154289	0.72532	5	0.0153184	11	0.000111909
2	1	0	1	0	5917.82	0.162103	0.161821	0.569967	5	0.0163146	11	9.22328e-05
2	1	0	1	0	5919.31	0.169594	0.169321	0.457088	5	0.0171034	11	7.73948e-05
2	1	0	1	0	5920.81	0.177085	0.176743	0.390471	5	0.0177608	11	6.90132e-05
2	1	0	1	0	5922.31	0.184576	0.1843	0.35067	5	0.0183428	11	6.46285e-05
2	1	0	1	0	5923.81	0.192068	0.191765	0.328499	5	0.0188791	11	6.29947e-05
2	1	0	1	0	5925.31	0.199559	0.199229	0.311316	5	0.0193857	11	6.2023e-05
2	1	0	1	0	5926.8	0.20705	0.206753	0.303716	5	0.0198717	11	6.27942e-05
2	1	0	1	0	5928.3	0.214541	0.214239	0.292252	5	0.0203429	11	6.26117e-05
2	1	0	1	0	5929.8	0.222032	0.221739	0.285951	5	0.0208026	11	6.34064e-05
2	1	0	0	0	5931.3	0.229522	0.229238	0.279296	5	0.0212531	11	6.40253e-05
2	1	0	1	0	5932.8	0.237013	0.23672	0.275127	5	0.0216967	11	6.51282e-05
2	1	0	0	0	5934.3	0.244504	0.244234	0.272159	5	0.0221344	11	6.64706e-05
2	1	0	1	0	5935.79	0.251995	0.251709	0.269045	5	0.0225675	11	6.77211e-05
2	1	0	0	0	5937.29	0.259486	0.259261	0.266766	5	0.0229963	11	6.91621e-05
2	1	0	1	0	5938.79	0.266977	0.266722	0.264353	5	0.0234213	11	7.05087e-05
2	1	0	0	0	5940.29	0.274468	0.274206	0.261344	5	0.0238428	11	7.16621e-05
2	1	0	1	0	5941.79	0.281959	0.281664	0.259027	5	0.0242612	11	7.29586e-05
2	1	0	0	0	5943.29	0.28945	0.289138	0.257403	5	0.0246768	11	7.44249e-05
2	1	0	1	0	5944.78	0.296941	0.296671	0.255106	5	0.0250896	11	7.56827e-05
2	0	0	1	0	5946.15	0.296241	0.295954	-0.0169453	5	0.0252519	11	-5.01504e-06
2	0	0	1	0	5947.65	0.28875	0.288452	-0.0512097	5	0.02517	11	-1.47715e-05
2	0	0	1	0	5949.15	0.28126	0.280955	-0.0732645	5	0.0250485	11	-2.0584e-05
2	0	0	0	0	5950.65	0.273769	0.273454	-0.0871811	5	0.0248995	11	-2.384e-05
2	0	0	1	0	5952.14	0.266278	0.26598	-0.102773	5	0.0247283	11	-2.73356e-05
2	0	0	0	0	5953.64	0.258787	0.258525	-0.116023	5	0.0245377	11	-2.99949e-05
2	0	0	1	0	5955.14	0.251296	0.250988	-0.125991	5	0.0243296	11	-3.16221e-05
2	0	0	0	0	5956.64	0.243805	0.243485	-0.13638	5	0.024105	11	-3.32065e-05
2	0	0	1	0	5958.14	0.236314	0.236028	-0.147262	5	0.0238648	11	-3.4758e-05
2	0	0	0	0	5959.64	0.228823	0.228549	-0.15647	5	0.0236091	11	-3.57609e-05
2	0	0	1	0	5961.13	0.221332	0.221058	-0.168538	5	0.0233373	11	-3.72566e-05
2	0	0	0	0	5962.63	0.213841	0.213544	-0.180235	5	0.0230484	11	-3.8488e-05
2	0	0	1	0	5964.13	0.206351	0.206016	-0.193223	5	0.0227406	11	-3.9807e-05
2	0	0	1	0	5965.63	0.198859	0.198525	-0.208821	5	0.0224117	11	-4.14562e-05
2	0	0	1	0	5967.13	0.191369	0.191098	-0.229019	5	0.0220566	11	-4.37653e-05
2	0	0	1	0	5968.62	0.183877	0.183574	-0.253704	5	0.0216685	11	-4.65734e-05
2	0	0	1	0	5970.12	0.176386	0.176069	-0.29053	5	0.0212344	11	-5.11533e-05
2	0	0	1	0	5971.62	0.168895	0.16859	-0.345222	5	0.0207335	11	-5.82009e-05
2	0	0	1	0	5973.12	0.161404	0.161059	-0.433578	5	0.0201268	11	-6.98317e-05
2	0	0	1	0	5974.62	0.153913	0.153617	-0.569908	5	0.0193529	11	-8.75475e-05
2	0	0	1	0	5976.12	0.146422	0.14612	-0.728165	5	0.0183514	11	-0.000106399
2	0	0	1	0	5977.61	0.138931	0.13865	-0.852372	5	0.0171313	11	-0.000118182
2	0	0	1	0	5979.11	0.13144	0.131111	-0.893225	5	0.0157865	11	-0.000117111
2	0	0	1	0	5980.61	0.12395	0.123653	-0.861362	5	0.0144368	11	-0.00010651
2	0	0	0	0	5982.11	0.116459	0.116141	-0.793752	5	0.0131676	11	-9.21873e-05
2	0	0	1	0	5983.61	0.108968	0.108678	-0.712281	5	0.0120147	11	-7.74093e-05
2	0	0	0	0	5985.11	0.101477	0.101193	-0.647538	5	0.0109708	11	-6.55261e-05
2	0	0	1	0	5986.6	0.0939859	0.0936543	-0.606962	5	0.0100052	11	-5.68446e-05
2	0	0	0	0	5988.1	0.0864949	0.0861795	-0.57661	5	0.00909067	11	-4.9692e-05
2	0	0	1	0	5989.6	0.079004	0.0786962	-0.555067	5	0.00821639	11	-4.36817e-05
2	0	0	0	0	5991.1	0.071513	0.071197	-0.525356	5	0.00738142	11	-3.74037e-05
2	0	0	1	0	5992.6	0.0640221	0.0636829	-0.492999	5	0.00659075	11	-3.13956e-05
2	0	0	0	0	5994.09	0.0565311	0.0562018	-0.459615	5	0.00584849	11	-2.58312e-05
2	0	0	1	0	5995.59	0.0490406	0.0487509	-0.434965	5	0.0051506	11	-2.12049e-05
2	0	0	1	0	5997.09	0.0415496	0.0412505	-0.41486	5	0.00448733	11	-1.71132e-05
2	0	0	1	0	5998.59	0.0340586	0.0337545	-0.404713	5	0.00384622	11	-1.36609e-05
2	0	0	1	0	6000.09	0.0265676	0.0262796	-0.401284	5	0.003216	11	-1.05456e-05
2	0	0	1	0	6001.59	0.0190765	0.018778	-0.403609	5	0.00258747	11	-7.57895e-06
2	0	0	1	0	6003.08	0.0115854	0.0112913	-0.406794	5	0.00195326	11	-4.59324e-06
2	0	0	1	0	6004.58	0.00409438	0.0038091	-0.416438	5	0.00130768	11	-1.58625e-06
2	1	0	1	0	7117.48	0.00229644	0.00201247	0.19496	6	7.73389e-05	11	3.92351e-07
2	1	0	1	0	7118.98	0.00978739	0.00949905	0.217802	6	0.000408858	11	2.06891e-06
2	1	0	1	0	7120.48	0.0172784	0.0170229	0.237198	6	0.000777674	11	4.03779e-06
2	1	0	1	0	7121.98	0.0247695	0.0244808	0.249617	6	0.00117026	11	6.11082e-06
2	1	0	1	0	7123.48	0.0322606	0.0319738	0.266496	6	0.0015849	11	8.52088e-06
2	1	0	1	0	7124.97	0.0397516	0.0394528	0.285835	6	0.00202494	11	1.1277e-05
2	1	0	1	0	7126.47	0.0472426	0.0469636	0.309788	6	0.00249719	11	1.45487e-05
2	1	0	1	0	7127.97	0.0547336	0.0544175	0.339394	6	0.00301047	11	1.8469e-05
2	1	0	1	0	7129.47	0.0622247	0.0619442	0.374436	6	0.00357198	11	2.31942e-05
2	1	0	1	0	7130.97	0.0697152	0.0694229	0.405394	6	0.00418564	11	2.81436e-05
2	1	0	0	0	7132.46	0.0772062	0.0768797	0.43944	6	0.00484906	11	3.3784e-05
2	1	0	1	0	7133.96	0.0846971	0.084415	0.46859	6	0.00555733	11	3.9556e-05
2	1	0	0	0	7135.46	0.0921881	0.0919099	0.497314	6	0.00630598	11	4.5708e-05
2	1	0	1	0	7136.96	0.099679	0.0993518	0.527977	6	0.00709886	11	5.24555e-05
2	1	0	0	0	7138.46	0.10717	0.106924	0.57989	6	0.0079534	11	6.20043e-05
2	1	0	1	0	7139.96	0.114661	0.114367	0.648051	6	0.00889928	11	7.41158e-05
2	1	0	0	0	7141.45	0.122152	0.121864	0.730407	6	0.00996182	11	8.90105e-05
2	1	0	1	0	7142.95	0.129643	0.129355	0.804315	6	0.0111396	11	0.000104042
2	1	0	0	0	7144.45	0.137134	0.136867	0.851914	6	0.0124117	11	0.000116599
2	1	0	1	0	7145.95	0.144624	0.144333	0.839936	6	0.0137155	11	0.00012123
2	1	0	1	0	7147.45	0.152115	0.151803	0.733115	6	0.0149296	11	0.000111289
2	1	0	1	0	7148.94	0.159606	0.159277	0.579755	6	0.0159384	11	9.23418e-05
2	1	0	1	0	7150.44	0.167097	0.16682	0.461385	6	0.0167377	11	7.69682e-05
2	1	0	1	0	7151.94	0.174588	0.174261	0.390354	6	0.0173987	11	6.80234e-05
2	1	0	1	0	7153.44	0.182079	0.181796	0.352568	6	0.0179806	11	6.40956e-05
2	1	0	1	0	7154.94	0.189571	0.189289	0.328071	6	0.0185153	11	6.21002e-05
2	1	0	1	0	7156.44	0.197062	0.196748	0.309841	6	0.0190201	11	6.09606e-05
2	1	0	1	0	7157.93	0.204553	0.204253	0.300775	6	0.0195043	11	6.14341e-05
2	1	0	1	0	7159.43	0.212044	0.211775	0.291223	6	0.0199746	11	6.16739e-05
2	1	0	1	0	7160.93	0.219535	0.219241	0.286727	6	0.0204337	11	6.28623e-05
2	1	0	1	0	7162.43	0.227025	0.226725	0.281702	6	0.0208842	11	6.38687e-05
2	1	0	0	0	7163.93	0.234516	0.234282	0.275895	6	0.0213279	11	6.46374e-05
2	1	0	1	0	7165.42	0.242007	0.241715	0.270336	6	0.0217657	11	6.53441e-05
2	1	0	0	0	7166.92	0.249498	0.249212	0.269365	6	0.0221989	11	6.71289e-05
2	1	0	1	0	7168.42	0.256989	0.256711	0.26648	6	0.0226278	11	6.84084e-05
2	1	0	0	0	7169.92	0.26448	0.264184	0.265173	6	0.0230531	11	7.00543e-05
2	1	0	1	0	7171.42	0.271971	0.271691	0.261532	6	0.0234749	11	7.10561e-05
2	1	0	0	0	7172.92	0.279462	0.279162	0.25996	6	0.0238936	11	7.2571e-05
2	1	0	1	0	7174.41	0.286953	0.286674	0.257414	6	0.0243093	11	7.37937e-05
2	1	0	0	0	7175.91	0.294444	0.294121	0.255497	6	0.0247222	11	7.5147e-05
2	1	0	1	0	7177.28	0.298738	0.29845	0.0109311	6	0.0250324	11	3.26237e-06
2	0	0	1	0	7178.78	0.291247	0.291001	-0.0414547	6	0.0249731	11	-1.20634e-05
2	0	0	1	0	7180.28	0.283756	0.283453	-0.064884	6	0.0248642	11	-1.83916e-05
2	0	0	1	0	7181.78	0.276266	0.275957	-0.0839358	6	0.0247249	11	-2.31627e-05
2	0	0	0	0	7183.27	0.268775	0.268563	-0.09626	6	0.024562	11	-2.58519e-05
2	0	0	1	0	7184.77	0.261284	0.261028	-0.107505	6	0.0243792	11	-2.80618e-05
2	0	0	0	0	7186.27	0.253793	0.253509	-0.121144	6	0.0241786	11	-3.07111e-05
2	0	0	1	0	7187.77	0.246302	0.245986	-0.131891	6	0.0239615	11	-3.24434e-05
2	0	0	0	0	7189.27	0.238811	0.23853	-0.142355	6	0.0237283	11	-3.39561e-05
2	0	0	1	0	7190.76	0.23132	0.230995	-0.152189	6	0.02348	11	-3.5155e-05
2	0	0	0	0	7192.26	0.223829	0.223529	-0.163317	6	0.0232161	11	-3.6506e-05
2	0	0	1	0	7193.76	0.216338	0.216045	-0.171888	6	0.0229363	11	-3.71355e-05
2	0	0	1	0	7195.26	0.208848	0.20856	-0.185226	6	0.0226393	11	-3.86308e-05
2	0	0	1	0	7196.76	0.201357	0.201055	-0.199383	6	0.0223225	11	-4.00869e-05
2	0	0	1	0	7198.26	0.193866	0.193542	-0.218437	6	0.0219833	11	-4.22767e-05
2	0	0	1	0	7199.75	0.186374	0.186024	-0.238715	6	0.0216158	11	-4.44068e-05
2	0	0	1	0	7201.25	0.178883	0.178564	-0.26732	6	0.0212107	11	-4.77339e-05
2	0	0	1	0	7202.75	0.171392	0.171095	-0.308223	6	0.0207528	11	-5.27353e-05
2	0	0	1	0	7204.25	0.163901	0.163604	-0.377001	6	0.0202136	11	-6.16789e-05
2	0	0	1	0	7205.75	0.15641	0.156122	-0.487377	6	0.0195435	11	-7.60901e-05
2	0	0	1	0	7207.24	0.148919	0.148599	-0.639615	6	0.0186751	11	-9.50461e-05
2	0	0	1	0	7208.74	0.141428	0.141126	-0.782416	6	0.0175779	11	-0.000110419
2	0	0	1	0	7210.24	0.133937	0.133658	-0.861997	6	0.0163101	11	-0.000115212
2	0	0	1	0	7211.74	0.126446	0.126144	-0.85692	6	0.0149865	11	-0.000108096
2	0	0	1	0	7213.24	0.118956	0.118629	-0.810192	6	0.0137044	11	-9.61122e-05
2	0	0	0	0	7214.74	0.111465	0.111182	-0.741594	6	0.012514	11	-8.24517e-05
2	0	0	1	0	7216.23	0.103974	0.10369	-0.672922	6	0.0114294	11	-6.97752e-05
2	0	0	0	0	7217.73	0.0964829	0.0961908	-0.62439	6	0.0104325	11	-6.00606e-05
2	0	0	1	0	7219.23	0.0889919	0.0886651	-0.591247	6	0.00949601	11	-5.24229e-05
2	0	0	0	0	7220.73	0.081501	0.0811871	-0.566567	6	0.00860259	11	-4.59979e-05
2	0	0	1	0	7222.23	0.07401	0.0737377	-0.543097	6	0.00774513	11	-4.00467e-05
2	0	0	0	0	7223.73	0.0665191	0.0662523	-0.512057	6	0.00692695	11	-3.3925e-05
2	0	0	1	0	7225.22	0.0590281	0.0587086	-0.48353	6	0.00615329	11	-2.83873e-05
2	0	0	1	0	7226.72	0.0515376	0.0512024	-0.452594	6	0.00542595	11	-2.31739e-05
2	0	0	1	0	7228.22	0.0440467	0.043785	-0.427624	6	0.00474001	11	-1.87235e-05
2	0	0	1	0	7229.72	0.0365556	0.0362801	-0.413299	6	0.0040844	11	-1.49945e-05
2	0	0	1	0	7231.22	0.0290645	0.0288244	-0.403974	6	0.00344673	11	-1.16443e-05
2	0	0	1	0	7232.71	0.0215735	0.0212647	-0.40141	6	0.00281646	11	-8.53586e-06
2	0	0	1	0	7234.21	0.0140824	0.0137578	-0.405931	6	0.00218474	11	-5.58473e-06
2	0	0	1	0	7235.71	0.00659147	0.00629698	-0.412694	6	0.00154473	11	-2.59872e-06
2	0	0	1	0	8348.66	2.44065e-05	-0.000306236	-0.0273888	7	0.0000000E+000	11	8.38744e-09
2	1	0	1	0	8350.11	0.00729041	0.0069628	0.20677	7	0.000284352	11	1.4397e-06
2	1	0	1	0	8351.61	0.0147815	0.0144641	0.230611	7	0.000639229	11	3.33558e-06
2	1	0	1	0	8353.11	0.0222725	0.021955	0.247053	7	0.001023	11	5.42405e-06
2	1	0	1	0	8354.6	0.0297635	0.0294678	0.263458	7	0.00143081	11	7.76354e-06
2	1	0	1	0	8356.1	0.0372545	0.0369416	0.283009	7	0.00186537	11	1.04548e-05
2	1	0	1	0	8357.6	0.0447456	0.0444303	0.307589	7	0.00233272	11	1.36663e-05
2	1	0	1	0	8359.1	0.0522367	0.0519171	0.336453	7	0.00284105	11	1.74676e-05
2	1	0	1	0	8360.6	0.0597277	0.0594174	0.372046	7	0.00339761	11	2.2106e-05
2	1	0	1	0	8362.1	0.0672187	0.0669442	0.406975	7	0.00400538	11	2.72446e-05
2	1	0	1	0	8363.59	0.0747092	0.0743687	0.435737	7	0.00466152	11	3.24052e-05
2	1	0	0	0	8365.09	0.0822001	0.0818689	0.459552	7	0.00536086	11	3.7623e-05
2	1	0	1	0	8366.59	0.0896911	0.0893957	0.487904	7	0.00609888	11	4.36165e-05
2	1	0	0	0	8368.09	0.097182	0.0968874	0.518153	7	0.00687861	11	5.02025e-05
2	1	0	1	0	8369.59	0.104673	0.104405	0.566233	7	0.00771368	11	5.91174e-05
2	1	0	0	0	8371.08	0.112164	0.111897	0.626366	7	0.00863081	11	7.00888e-05
2	1	0	1	0	8372.58	0.119655	0.119368	0.699446	7	0.00965223	11	8.34915e-05
2	1	0	0	0	8374.08	0.127146	0.126804	0.760525	7	0.0107771	11	9.64374e-05
2	1	0	1	0	8375.58	0.134637	0.134343	0.814604	7	0.0119904	11	0.000109436
2	1	0	1	0	8377.08	0.142127	0.141805	0.821226	7	0.0132505	11	0.000116454
2	1	0	1	0	8378.58	0.149618	0.149308	0.740066	7	0.014457	11	0.000110498
2	1	0	1	0	8380.07	0.157109	0.156786	0.594534	7	0.0154841	11	9.32148e-05
2	1	0	1	0	8381.57	0.1646	0.16433	0.474087	7	0.0163038	11	7.79067e-05
2	1	0	1	0	8383.07	0.172091	0.171818	0.398615	7	0.0169788	11	6.84892e-05
2	1	0	1	0	8384.57	0.179582	0.179306	0.358112	7	0.0175704	11	6.42114e-05
2	1	0	1	0	8386.07	0.187074	0.18676	0.334124	7	0.0181129	11	6.24012e-05
2	1	0	1	0	8387.56	0.194564	0.194278	0.315981	7	0.0186241	11	6.13883e-05
2	1	0	1	0	8389.06	0.202056	0.201759	0.304194	7	0.0191141	11	6.13737e-05
2	1	0	1	0	8390.56	0.209547	0.209253	0.295197	7	0.0195891	11	6.17709e-05
2	1	0	1	0	8392.06	0.217038	0.216721	0.288336	7	0.0200517	11	6.24884e-05
2	1	0	1	0	8393.56	0.224529	0.224251	0.283419	7	0.0205057	11	6.35571e-05
2	1	0	1	0	8395.06	0.232019	0.231695	0.279004	7	0.020952	11	6.46438e-05
2	1	0	0	0	8396.55	0.23951	0.239205	0.274976	7	0.0213922	11	6.57756e-05
2	1	0	1	0	8398.05	0.247001	0.246713	0.272553	7	0.0218272	11	6.72425e-05
2	1	0	0	0	8399.55	0.254492	0.254227	0.268524	7	0.0222578	11	6.82661e-05
2	1	0	1	0	8401.05	0.261983	0.261679	0.266309	7	0.0226843	11	6.96874e-05
2	1	0	0	0	8402.55	0.269474	0.26916	0.263959	7	0.0231074	11	7.10473e-05
2	1	0	1	0	8404.04	0.276965	0.276727	0.261622	7	0.0235272	11	7.23978e-05
2	1	0	0	0	8405.54	0.284456	0.284187	0.260624	7	0.0239442	11	7.4066e-05
2	1	0	1	0	8407.04	0.291947	0.291629	0.256958	7	0.024358	11	7.49365e-05
2	1	0	1	0	8408.54	0.299437	0.299112	0.254513	7	0.0247689	11	7.61279e-05
2	0	0	1	0	8409.91	0.293744	0.293466	-0.0288421	7	0.0247773	11	-8.4642e-06
2	0	0	1	0	8411.41	0.286253	0.285947	-0.0577386	7	0.0246842	11	-1.65102e-05
2	0	0	0	0	8412.9	0.278763	0.278473	-0.0770079	7	0.0245562	11	-2.14446e-05
2	0	0	1	0	8414.4	0.271272	0.27096	-0.0912152	7	0.0244027	11	-2.47156e-05
2	0	0	0	0	8415.9	0.263781	0.263484	-0.105017	7	0.024228	11	-2.76702e-05
2	0	0	1	0	8417.4	0.25629	0.25601	-0.117312	7	0.0240347	11	-3.00329e-05
2	0	0	0	0	8418.9	0.248799	0.248469	-0.127895	7	0.0238248	11	-3.17779e-05
2	0	0	1	0	8420.4	0.241308	0.240983	-0.139034	7	0.0235989	11	-3.35049e-05
2	0	0	0	0	8421.89	0.233817	0.233523	-0.148555	7	0.0233577	11	-3.46909e-05
2	0	0	1	0	8423.39	0.226326	0.226018	-0.15791	7	0.0231014	11	-3.56905e-05
2	0	0	0	0	8424.89	0.218835	0.218554	-0.170123	7	0.0228294	11	-3.71811e-05
2	0	0	1	0	8426.39	0.211344	0.211035	-0.179564	7	0.0225412	11	-3.78943e-05
2	0	0	1	0	8427.89	0.203854	0.203495	-0.193307	7	0.022235	11	-3.93371e-05
2	0	0	1	0	8429.38	0.196363	0.196071	-0.208213	7	0.0219089	11	-4.08245e-05
2	0	0	1	0	8430.88	0.188871	0.188542	-0.225988	7	0.0215581	11	-4.26081e-05
2	0	0	1	0	8432.38	0.181381	0.181114	-0.25033	7	0.0211761	11	-4.53382e-05
2	0	0	1	0	8433.88	0.173889	0.173601	-0.284069	7	0.0207514	11	-4.93146e-05
2	0	0	1	0	8435.38	0.166398	0.166089	-0.33689	7	0.0202635	11	-5.59535e-05
2	0	0	1	0	8436.88	0.158907	0.158613	-0.417338	7	0.0196764	11	-6.6195e-05
2	0	0	1	0	8438.37	0.151416	0.151115	-0.546408	7	0.0189311	11	-8.25707e-05
2	0	0	1	0	8439.87	0.143925	0.14361	-0.696819	7	0.0179716	11	-0.00010007
2	0	0	1	0	8441.37	0.136434	0.136137	-0.809115	7	0.016809	11	-0.000110151
2	0	0	1	0	8442.87	0.128943	0.128632	-0.842458	7	0.0155374	11	-0.000108367
2	0	0	0	0	8444.37	0.121453	0.121195	-0.818829	7	0.0142622	11	-9.92381e-05
2	0	0	1	0	8445.86	0.113962	0.113625	-0.762342	7	0.0130474	11	-8.66211e-05
2	0	0	0	0	8447.36	0.106471	0.106204	-0.702235	7	0.0119223	11	-7.45803e-05
2	0	0	1	0	8448.86	0.0989799	0.0987166	-0.647497	7	0.0108874	11	-6.39187e-05
2	0	0	0	0	8450.36	0.0914889	0.0911899	-0.611169	7	0.00992315	11	-5.57325e-05
2	0	0	1	0	8451.86	0.083998	0.0837119	-0.580893	7	0.00900776	11	-4.86276e-05
2	0	0	0	0	8453.36	0.076507	0.0761915	-0.558242	7	0.00812972	11	-4.25333e-05
2	0	0	1	0	8454.85	0.0690161	0.0687347	-0.529195	7	0.0072878	11	-3.6374e-05
2	0	0	0	0	8456.35	0.0615251	0.0612196	-0.502809	7	0.0064853	11	-3.07817e-05
2	0	0	1	0	8457.85	0.0540342	0.05373	-0.474005	7	0.00572738	11	-2.54683e-05
2	0	0	1	0	8459.35	0.0465436	0.0462503	-0.445423	7	0.00501354	11	-2.06009e-05
2	0	0	1	0	8460.85	0.0390526	0.0387235	-0.42389	7	0.00433674	11	-1.64145e-05
2	0	0	1	0	8462.34	0.0315615	0.0312105	-0.410775	7	0.00368643	11	-1.28205e-05
2	0	0	1	0	8463.84	0.0240706	0.0237768	-0.403333	7	0.00305088	11	-9.58997e-06
2	0	0	1	0	8465.34	0.0165795	0.016282	-0.4048	7	0.00241933	11	-6.59095e-06
2	0	0	1	0	8466.84	0.00908846	0.00878364	-0.410123	7	0.00178344	11	-3.60237e-06
2	0	0	1	0	8468.34	0.00159739	0.00129691	-0.420729	7	0.00113515	11	-5.45647e-07
2	1	0	1	0	9581.24	0.00479342	0.00446959	0.19709	8	0.000179813	11	8.80912e-07
2	1	0	1	0	9582.74	0.0122845	0.0119604	0.223088	8	0.0005256	11	2.66822e-06
2	1	0	1	0	9584.24	0.0197754	0.0194279	0.244049	8	0.000905374	11	4.74137e-06
2	1	0	1	0	9585.73	0.0272665	0.027011	0.261961	8	0.00131108	11	7.07582e-06
2	1	0	1	0	9587.23	0.0347576	0.034435	0.28149	8	0.00174489	11	9.69311e-06
2	1	0	1	0	9588.73	0.0422486	0.0419586	0.305855	8	0.00221182	11	1.28333e-05
2	1	0	1	0	9590.23	0.0497397	0.0494442	0.335738	8	0.00271904	11	1.66003e-05
2	1	0	1	0	9591.73	0.0572306	0.0568797	0.36793	8	0.00327326	11	2.09278e-05
2	1	0	1	0	9593.22	0.0647217	0.06438	0.400999	8	0.00387738	11	2.58163e-05
2	1	0	0	0	9594.72	0.0722122	0.0719202	0.432378	8	0.00452951	11	3.10967e-05
2	1	0	1	0	9596.22	0.0797031	0.0793897	0.459031	8	0.00522474	11	3.64423e-05
2	1	0	0	0	9597.72	0.0871941	0.0868698	0.48542	8	0.00595818	11	4.21684e-05
2	1	0	1	0	9599.22	0.0946851	0.094369	0.513391	8	0.00673122	11	4.84482e-05
2	1	0	0	0	9600.72	0.102176	0.10185	0.553135	8	0.00755481	11	5.63369e-05
2	1	0	1	0	9602.21	0.109667	0.109349	0.614577	8	0.00845476	11	6.72036e-05
2	1	0	0	0	9603.71	0.117158	0.116837	0.68005	8	0.00945106	11	7.9455e-05
2	1	0	1	0	9605.21	0.124649	0.124355	0.745661	8	0.0105461	11	9.27268e-05
2	1	0	0	0	9606.71	0.13214	0.13183	0.794608	8	0.0117277	11	0.000104753
2	1	0	1	0	9608.21	0.139631	0.139323	0.812184	8	0.0129669	11	0.000113156
2	1	0	1	0	9609.7	0.147121	0.146824	0.753142	8	0.014179	11	0.000110579
2	1	0	1	0	9611.2	0.154612	0.154317	0.614191	8	0.0152343	11	9.47799e-05
2	1	0	1	0	9612.7	0.162103	0.161809	0.484884	8	0.0160788	11	7.84589e-05
2	1	0	1	0	9614.2	0.169594	0.169307	0.405212	8	0.0167657	11	6.86051e-05
2	1	0	1	0	9615.7	0.177085	0.176785	0.358583	8	0.0173606	11	6.3392e-05
2	1	0	1	0	9617.2	0.184576	0.184232	0.329655	8	0.0179029	11	6.0733e-05
2	1	0	1	0	9618.69	0.192068	0.191782	0.314551	8	0.0184125	11	6.03252e-05
2	1	0	1	0	9620.19	0.199559	0.199237	0.302397	8	0.0189008	11	6.02486e-05
2	1	0	1	0	9621.69	0.20705	0.206746	0.298259	8	0.0193737	11	6.16638e-05
2	1	0	1	0	9623.19	0.214541	0.214231	0.286989	8	0.0198355	11	6.14821e-05
2	1	0	1	0	9624.69	0.222032	0.221748	0.282988	8	0.0202882	11	6.27519e-05
2	1	0	0	0	9626.18	0.229522	0.229201	0.275914	8	0.0207336	11	6.32397e-05
2	1	0	1	0	9627.68	0.237013	0.236715	0.274079	8	0.0211733	11	6.48785e-05
2	1	0	0	0	9629.18	0.244504	0.244205	0.270872	8	0.021608	11	6.61484e-05
2	1	0	1	0	9630.68	0.251995	0.251691	0.268232	8	0.0220388	11	6.75117e-05
2	1	0	0	0	9632.18	0.259486	0.259181	0.266509	8	0.0224659	11	6.9074e-05
2	1	0	1	0	9633.68	0.266977	0.266703	0.264848	8	0.0228896	11	7.06358e-05
2	1	0	0	0	9635.17	0.274468	0.274143	0.261825	8	0.0233102	11	7.17774e-05
2	1	0	1	0	9636.67	0.281959	0.281639	0.26139	8	0.023728	11	7.36176e-05
2	1	0	0	0	9638.17	0.28945	0.289171	0.259014	8	0.024143	11	7.48994e-05
2	1	0	1	0	9639.67	0.296941	0.296652	0.256325	8	0.0245553	11	7.60393e-05
2	0	0	1	0	9641.04	0.296241	0.29595	-0.015731	8	0.024718	11	-4.65558e-06
2	0	0	1	0	9642.54	0.28875	0.288446	-0.0511997	8	0.0246385	11	-1.47683e-05
2	0	0	1	0	9644.03	0.28126	0.280956	-0.0716706	8	0.0245191	11	-2.01363e-05
2	0	0	0	0	9645.53	0.273769	0.273495	-0.0868252	8	0.0243725	11	-2.37463e-05
2	0	0	1	0	9647.03	0.266278	0.265961	-0.101609	8	0.0242037	11	-2.7024e-05
2	0	0	0	0	9648.53	0.258787	0.258503	-0.11406	8	0.0240158	11	-2.94848e-05
2	0	0	1	0	9650.03	0.251296	0.250992	-0.124954	8	0.0238105	11	-3.13626e-05
2	0	0	0	0	9651.52	0.243805	0.243494	-0.134159	8	0.0235893	11	-3.2667e-05
2	0	0	1	0	9653.02	0.236314	0.236033	-0.145336	8	0.023353	11	-3.43042e-05
2	0	0	0	0	9654.52	0.228823	0.228535	-0.154515	8	0.0231019	11	-3.5312e-05
2	0	0	1	0	9656.02	0.221332	0.221065	-0.164958	8	0.0228356	11	-3.64664e-05
2	0	0	0	0	9657.52	0.213841	0.213512	-0.176227	8	0.0225537	11	-3.76266e-05
2	0	0	1	0	9659.02	0.206351	0.206012	-0.186799	8	0.0222547	11	-3.84828e-05
2	0	0	1	0	9660.51	0.198859	0.198529	-0.20194	8	0.0219373	11	-4.00909e-05
2	0	0	1	0	9662.01	0.191369	0.191057	-0.216143	8	0.021598	11	-4.12956e-05
2	0	0	1	0	9663.51	0.183877	0.183574	-0.23707	8	0.021232	11	-4.35199e-05
2	0	0	1	0	9665.01	0.176386	0.176047	-0.26585	8	0.0208296	11	-4.68021e-05
2	0	0	1	0	9666.51	0.168895	0.168594	-0.306415	8	0.0203763	11	-5.16598e-05
2	0	0	1	0	9668	0.161404	0.161065	-0.372411	8	0.0198442	11	-5.99825e-05
2	0	0	1	0	9669.5	0.153913	0.153629	-0.479249	8	0.019185	11	-7.36263e-05
2	0	0	1	0	9671	0.146422	0.146114	-0.623085	8	0.018335	11	-9.10416e-05
2	0	0	1	0	9672.5	0.138931	0.138657	-0.758115	8	0.0172673	11	-0.000105118
2	0	0	1	0	9674	0.13144	0.131132	-0.825971	8	0.0160447	11	-0.000108311
2	0	0	1	0	9675.5	0.12395	0.123652	-0.822259	8	0.014777	11	-0.000101674
2	0	0	0	0	9676.99	0.116459	0.116157	-0.783117	8	0.013546	11	-9.09646e-05
2	0	0	1	0	9678.49	0.108968	0.108627	-0.725645	8	0.0123898	11	-7.88248e-05
2	0	0	0	0	9679.99	0.101477	0.10113	-0.665969	8	0.0113194	11	-6.73496e-05
2	0	0	1	0	9681.49	0.0939859	0.0937084	-0.623359	8	0.0103275	11	-5.8414e-05
2	0	0	0	0	9682.99	0.0864949	0.0861869	-0.59183	8	0.00939192	11	-5.1008e-05
2	0	0	1	0	9684.48	0.079004	0.0786803	-0.569264	8	0.00849785	11	-4.47898e-05
2	0	0	0	0	9685.98	0.071513	0.0711705	-0.545503	8	0.00763818	11	-3.88237e-05
2	0	0	1	0	9687.48	0.0640221	0.0636935	-0.517668	8	0.00681444	11	-3.29721e-05
2	0	0	0	0	9688.98	0.0565311	0.0562346	-0.487781	8	0.00603157	11	-2.74302e-05
2	0	0	1	0	9690.48	0.0490406	0.0487571	-0.462166	8	0.00529162	11	-2.25339e-05
2	0	0	1	0	9691.98	0.0415496	0.041279	-0.437588	8	0.00459171	11	-1.80632e-05
2	0	0	1	0	9693.47	0.0340586	0.0337534	-0.420681	8	0.00392341	11	-1.41994e-05
2	0	0	1	0	9694.97	0.0265676	0.0262496	-0.41048	8	0.00327578	11	-1.07749e-05
2	0	0	1	0	9696.47	0.0190765	0.0187461	-0.407201	8	0.0026384	11	-7.63344e-06
2	0	0	1	0	9697.97	0.0115854	0.0112757	-0.4064	8	0.0020014	11	-4.58245e-06
2	0	0	1	0	9699.47	0.00409438	0.00380389	-0.415935	8	0.0013573	11	-1.58217e-06
2	0	0	1	0	9700.28	2.44065e-05	-0.000306236	-0.417126	8	0.00099941	11	1.27739e-07