File: Figure_codes/Fig_3-5/rawdata_trumpetplot_data/before 10th/20221101_1-115_002_TrumpetPlot_ParaChange_07_CV_C01_1.csv
mode,ox/red,error,control changes,counter inc.,time/s,control/V,Ewe/V,<I>/mA,cycle number,(Q-Qo)/C,I Range,P/W,log(|I|),Tafel slope mV/dec,alpha_eff,dI/d(E-IR),E-IR/V,
2,0,0,0,0,2370.72,2.44065e-05,-0.000439847,-1.08768,2,0.0000000E+000,11,4.78415e-07,-2.9635, , , ,-0.000439847,
2,1,0,1,0,2370.78,0.00129787,0.000979962,0.598425,2,6.16032e-06,11,5.86434e-07,-3.22299, , , ,0.000979962,
2,1,0,1,0,2370.86,0.00279606,0.00251749,0.810887,2,6.20281e-05,11,2.0414e-06,-3.09104,0.0102693,5.74531,120.067,0.00251749,
2,1,0,1,0,2370.93,0.00429425,0.00401282,0.806923,2,0.000123061,11,3.23804e-06,-3.09317,0.192367,0.306706,9.70967,0.00401282,
2,1,0,1,0,2371.01,0.00579244,0.00549648,0.818809,2,0.000184852,11,4.50057e-06,-3.08682,0.173559,0.339942,10.992,0.00549648,
2,1,0,1,0,2371.08,0.00729063,0.00701696,0.847939,2,0.000247978,11,5.94995e-06,-3.07164,0.167945,0.351305,11.5878,0.00701696,
2,1,0,1,0,2371.16,0.00878882,0.00852156,0.865513,2,0.000312629,11,7.37553e-06,-3.06273,0.189425,0.311469,10.4565,0.00852156,
2,1,0,1,0,2371.23,0.010287,0.00999154,0.879824,2,0.000378504,11,8.7908e-06,-3.0556,0.284591,0.207315,7.05755,0.00999154,
2,1,0,1,0,2371.3,0.0117852,0.0115042,0.889665,2,0.000445411,11,1.02349e-05,-3.05077,0.23712,0.248819,8.64727,0.0115042,
2,1,0,1,0,2371.38,0.0132847,0.0129875,0.904355,2,0.000513072,11,1.17453e-05,-3.04366,0.240898,0.244917,8.66828,0.0129875,
2,1,0,1,0,2371.45,0.0147802,0.0145264,0.913222,2,0.000581605,11,1.32658e-05,-3.03942,0.296826,0.198769,7.09016,0.0145264,
2,1,0,1,0,2371.53,0.0162798,0.0159597,0.921403,2,0.000651231,11,1.47053e-05,-3.03555,0.457012,0.129099,4.63038,0.0159597,
2,1,0,1,0,2371.6,0.017778,0.017482,0.929225,2,0.000721281,11,1.62447e-05,-3.03188,0.45835,0.128722,4.67061,0.017482,
2,1,0,1,0,2371.68,0.0192761,0.018972,0.937586,2,0.000791614,11,1.77879e-05,-3.02799,0.502828,0.117336,4.2985,0.018972,
2,1,0,1,0,2371.75,0.0207743,0.0205046,0.948853,2,0.000862763,11,1.94559e-05,-3.0228,0.460291,0.12818,4.71697,0.0205046,
2,1,0,1,0,2371.83,0.0222725,0.0219781,0.953955,2,0.00093458,11,2.09661e-05,-3.02047,0.575109,0.102589,3.81015,0.0219781,
2,1,0,1,0,2371.9,0.0237707,0.0234969,0.958164,2,0.00100684,11,2.25139e-05,-3.01856,0.851317,0.0693044,2.59566,0.0234969,
2,1,0,1,0,2371.98,0.0252689,0.0249757,0.966044,2,0.00107929,11,2.41276e-05,-3.015,0.537385,0.109791,4.1561,0.0249757,
2,1,0,1,0,2372.05,0.0267671,0.026519,0.970616,2,0.00115234,11,2.57397e-05,-3.01295,0.370022,0.15945,6.03548,0.026519,
2,1,0,1,0,2372.13,0.0282653,0.0279928,0.98176,2,0.00122608,11,2.74823e-05,-3.00799,0.580735,0.101595,3.87792,0.0279928,
2,1,0,1,0,2372.2,0.0297644,0.0295031,0.985642,2,0.00130042,11,2.90795e-05,-3.00628,0.577978,0.10208,3.92166,0.0295031,
2,1,0,1,0,2372.28,0.0312599,0.0309936,0.982518,2,0.00137478,11,3.04517e-05,-3.00766,0.513597,0.114876,4.44368,0.0309936,
2,1,0,1,0,2372.35,0.0327599,0.0324921,0.995694,2,0.00144962,11,3.23522e-05,-3.00187,0.526692,0.11202,4.3652,0.0324921,
2,1,0,1,0,2372.43,0.034258,0.0339643,1.00351,2,0.00152514,11,3.40834e-05,-2.99848,0.485464,0.121533,4.74073,0.03396428,
2,1,0,1,0,2372.5,0.0357562,0.0355238,1.00966,2,0.00160118,11,3.58669e-05,-2.99583,0.978026,0.0603256,2.36751,0.0355238,
2,1,0,1,0,2372.58,0.0372544,0.0370117,1.01689,2,0.00167763,11,3.76368e-05,-2.99273,0.43138,0.13677,5.43538,0.0370117,
2,1,0,1,0,2372.65,0.0387526,0.03844,1.02378,2,0.00175442,11,3.93539e-05,-2.9898,0.40861,0.144392,5.79696,0.03844,
2,1,0,1,0,2372.73,0.0402508,0.0399373,1.03021,2,0.00183212,11,4.11439e-05,-2.98707,0.514014,0.114783,4.62597,0.0399373,
2,1,0,1,0,2372.8,0.041749,0.0414995,1.04535,2,0.00191062,11,4.33814e-05,-2.98074,0.578583,0.101973,4.14145,0.0414995,
2,1,0,1,0,2372.88,0.0432472,0.0430239,1.05278,2,0.00198948,11,4.52948e-05,-2.97766,0.466963,0.126348,5.18838,0.0430239,
2,1,0,1,0,2372.95,0.0447449,0.0444586,1.06132,2,0.00206877,11,4.71849e-05,-2.97415,0.33752,0.174804,7.22682,0.0444586,
2,1,0,1,0,2373.03,0.0462445,0.0459712,1.07064,2,0.00214917,11,4.92188e-05,-2.97035,0.274278,0.21511,8.95006,0.0459712,
2,1,0,1,0,2373.1,0.04774,0.0474945,1.07935,2,0.00223018,11,5.1263e-05,-2.96684,0.302909,0.194778,8.2238,0.0474945,
2,1,0,1,0,2373.18,0.0492399,0.0489389,1.09059,2,0.00231222,11,5.33722e-05,-2.96234,0.30447,0.193779,8.27436,0.04893887,
2,1,0,1,0,2373.25,0.0507381,0.0504757,1.09808,2,0.00239484,11,5.54265e-05,-2.95936,0.296847,0.198756,8.58144,0.0504757,
2,1,0,1,0,2373.33,0.0522363,0.0519316,1.11576,2,0.00247851,11,5.7943e-05,-2.95243,0.225361,0.261802,11.4016,0.0519316,
2,1,0,1,0,2373.4,0.0537345,0.0534394,1.1376,2,0.00256342,11,6.07927e-05,-2.94401,0.24341,0.24239,10.7023,0.0534394,
2,1,0,1,0,2373.48,0.0552327,0.05496,1.1466,2,0.00264941,11,6.30173e-05,-2.94059,0.28922,0.203997,9.11085,0.05496,
2,1,0,1,0,2373.55,0.0567309,0.0564561,1.15499,2,0.00273636,11,6.52061e-05,-2.93742,0.267371,0.220667,10.0017,0.0564561,
2,1,0,1,0,2373.63,0.0582291,0.0579346,1.18018,2,0.00282441,11,6.83731e-05,-2.92805,0.243275,0.242524,11.1543,0.0579346,
2,1,0,1,0,2373.7,0.0597291,0.0594871,1.2007,2,0.00291405,11,7.14262e-05,-2.92057,0.217197,0.271643,12.7023,0.05948709,
2,1,0,1,0,2373.78,0.0612246,0.0609511,1.21469,2,0.00300481,11,7.40366e-05,-2.91554,0.250904,0.23515,11.1297,0.0609511,
2,1,0,1,0,2373.85,0.0627241,0.0624403,1.23243,2,0.00309732,11,7.69533e-05,-2.90924,0.205367,0.28729,13.8575,0.0624403,
2,1,0,1,0,2373.93,0.0642219,0.0639934,1.25125,2,0.00319088,11,8.00721e-05,-2.90265,0.19828,0.29756,14.6171,0.0639934,
2,1,0,1,0,2374,0.06572,0.0654465,1.27593,2,0.00328621,11,8.3505e-05,-2.89417,0.192438,0.306592,15.2713,0.0654465,
2,1,0,1,0,2374.08,0.0672182,0.0669459,1.30317,2,0.00338346,11,8.72422e-05,-2.885,0.198485,0.297252,15.0452,0.0669459,
2,1,0,1,0,2374.15,0.0687164,0.068421,1.32315,2,0.00348223,11,9.0531e-05,-2.87839,0.212777,0.277285,14.3081,0.068421,
2,1,0,1,0,2374.23,0.0702146,0.0699434,1.34113,2,0.00358242,11,9.38032e-05,-2.87253,0.195545,0.301721,15.8258,0.0699434,
2,1,0,1,0,2374.3,0.0717128,0.0714472,1.37013,2,0.00368464,11,9.78916e-05,-2.86324,0.178862,0.329863,17.5794,0.0714472,
2,1,0,1,0,2374.38,0.073211,0.0729391,1.39756,2,0.00378873,11,0.000101937,-2.85463,0.194907,0.302709,16.5098,0.0729391,
2,1,0,1,0,2374.45,0.0747092,0.0744493,1.42065,2,0.00389467,11,0.000105767,-2.84751,0.210283,0.280574,15.5244,0.0744493,
2,1,0,1,0,2374.53,0.0762087,0.0759187,1.43851,2,0.00400256,11,0.00010921,-2.84209,0.187086,0.315364,17.7652,0.0759187,
2,1,0,1,0,2374.6,0.0777042,0.0774067,1.47069,2,0.00411191,11,0.000113841,-2.83248,0.174491,0.338125,19.4025,0.0774067,
2,1,0,1,0,2374.68,0.0792037,0.078898,1.49875,2,0.00422376,11,0.000118248,-2.82427,0.18676,0.315913,18.4308,0.078898,
2,1,0,1,0,2374.75,0.0807019,0.0804161,1.5205,2,0.00433753,11,0.000122272,-2.81801,0.217801,0.27089,16.0555,0.0804161,
2,1,0,1,0,2374.83,0.0822001,0.0819431,1.54072,2,0.00445304,11,0.000126251,-2.81228,0.225649,0.261469,15.7768,0.0819431,
2,1,0,1,0,2374.9,0.0836983,0.0834011,1.57126,2,0.00457017,11,0.000131045,-2.80375,0.213769,0.275999,16.9383,0.0834011,
2,1,0,1,0,2374.98,0.0851965,0.0849407,1.59548,2,0.00468939,11,0.000135521,-2.79711,0.219249,0.269101,16.7386,0.0849407,
2,1,0,1,0,2375.05,0.0866947,0.0864404,1.61878,2,0.00481051,11,0.000139928,-2.79081,0.260759,0.226262,14.3008,0.0864404,
2,1,0,1,0,2375.13,0.0881929,0.0878783,1.64533,2,0.00493341,11,0.000144589,-2.78375,0.241821,0.243982,15.6677,0.0878783,
2,1,0,1,0,2375.2,0.0896911,0.0894254,1.67216,2,0.00505795,11,0.000149534,-2.77672,0.227599,0.259228,16.9309,0.0894254,
2,1,0,1,0,2375.28,0.0911893,0.0909235,1.70282,2,0.0051845,11,0.000154827,-2.76883,0.224396,0.262928,17.3639,0.0909235,
2,1,0,1,0,2375.35,0.0926884,0.0924219,1.72274,2,0.00531348,11,0.000159219,-2.76378,0.220876,0.267118,17.9259,0.0924219,
2,1,0,1,0,2375.42,0.0941839,0.0939339,1.74526,2,0.00544373,11,0.000163939,-2.75814,0.281859,0.209324,14.2486,0.0939339,
2,1,0,1,0,2375.5,0.0956838,0.0954231,1.76251,2,0.00557587,11,0.000168185,-2.75387,0.251521,0.234573,16.2219,0.0954231,
2,1,0,1,0,2375.57,0.097182,0.0969067,1.79417,2,0.00570962,11,0.000173867,-2.74614,0.203653,0.289708,20.2711,0.0969067,
2,1,0,1,0,2375.65,0.0986802,0.0984196,1.82064,2,0.00584565,11,0.000179187,-2.73978,0.21388,0.275856,19.6143,0.0984196,
2,1,0,1,0,2375.72,0.100178,0.0999476,1.8504,2,0.00598379,11,0.000184943,-2.73273,0.25646,0.230056,16.5696,0.0999476,
2,1,0,1,0,2375.8,0.101677,0.101408,1.87102,2,0.0061239,11,0.000189737,-2.72792,0.223654,0.2638,19.3606,0.101408,
2,1,0,1,0,2375.87,0.103175,0.1029,1.90781,2,0.00626591,11,0.000196313,-2.71947,0.200205,0.294698,21.9932,0.1029,
2,1,0,1,0,2375.95,0.104673,0.104438,1.94687,2,0.00641066,11,0.000203326,-2.71066,0.192822,0.305982,23.1941,0.104438,
2,1,0,1,0,2376.02,0.106171,0.105892,1.97683,2,0.00655821,11,0.000209332,-2.70403,0.191999,0.307293,23.689,0.105892,
2,1,0,1,0,2376.1,0.107669,0.107396,2.01499,2,0.00670833,11,0.000216401,-2.69573,0.180085,0.327623,25.8281,0.107396,
2,1,0,1,0,2376.17,0.109168,0.108866,2.05721,2,0.00686135,11,0.00022396,-2.68672,0.158074,0.373242,30.0737,0.108866,
2,1,0,1,0,2376.25,0.110664,0.110373,2.1021,2,0.00701753,11,0.000232015,-2.67735,0.141396,0.417268,34.2938,0.110373,
2,1,0,1,0,2376.32,0.112164,0.111842,2.1541,2,0.00717803,11,0.000240919,-2.66674,0.14373,0.410491,34.5307,0.111842,
2,1,0,1,0,2376.4,0.113662,0.113391,2.21099,2,0.00734221,11,0.000250705,-2.65541,0.139063,0.424269,36.6573,0.113391,
2,1,0,1,0,2376.47,0.11516,0.114856,2.26584,2,0.00751011,11,0.000260246,-2.64477,0.127239,0.463693,41.1623,0.114856,
2,1,0,1,0,2376.55,0.116658,0.116342,2.33568,2,0.00768312,11,0.000271737,-2.63159,0.111865,0.527423,48.0624,0.116342,
2,1,0,1,0,2376.62,0.118157,0.117871,2.41162,2,0.00786154,11,0.00028426,-2.61769,0.116986,0.504332,47.481,0.117871,
2,1,0,1,0,2376.7,0.119655,0.119403,2.48606,2,0.00804544,11,0.000296844,-2.60449,0.118121,0.499488,48.49,0.119403,
2,1,0,1,0,2376.77,0.121153,0.120876,2.55616,2,0.00823462,11,0.000308978,-2.59241,0.109882,0.53694,53.7609,0.1208759,
2,1,0,1,0,2376.85,0.122653,0.122348,2.64409,2,0.00843019,11,0.000323499,-2.57772,0.103073,0.572407,59.0319,0.122348,
2,1,0,1,0,2376.92,0.124149,0.12385,2.73608,2,0.00863198,11,0.000338865,-2.56287,0.100949,0.584454,62.3086,0.12385,
2,1,0,1,0,2377,0.125648,0.125387,2.82304,2,0.00884096,11,0.000353973,-2.54928,0.109374,0.539433,59.3743,0.125387,
2,1,0,1,0,2377.07,0.127146,0.126861,2.90406,2,0.00905634,11,0.000368412,-2.53699,0.110913,0.531947,60.4142,0.1268609,
2,1,0,1,0,2377.15,0.128644,0.128336,3.0038,2,0.00927821,11,0.000385495,-2.52233,0.114537,0.515118,60.3589,0.1283358,
2,1,0,1,0,2377.22,0.130142,0.129884,3.09698,2,0.00950723,11,0.000402249,-2.50906,0.118627,0.497355,59.9465,0.1298843,
2,1,0,1,0,2377.3,0.13164,0.131361,3.18577,2,0.00974321,11,0.000418487,-2.49679,0.135179,0.436458,54.0551,0.131361,
2,1,0,1,0,2377.37,0.133139,0.132927,3.26518,2,0.00998546,11,0.000434032,-2.48609,0.144577,0.408087,51.9808,0.132927,
2,1,0,1,0,2377.45,0.134637,0.13431,3.34165,2,0.0102332,11,0.000448818,-2.47604,0.155753,0.378805,49.3841,0.13431,
2,1,0,1,0,2377.52,0.136135,0.13588,3.4168,2,0.0104869,11,0.000464277,-2.46638,0.1687,0.349733,46.4868,0.1358805,
2,1,0,1,0,2377.6,0.137633,0.137368,3.48505,2,0.0107459,11,0.000478736,-2.45779,0.205221,0.287494,38.9242,0.137368,
2,1,0,1,0,2377.67,0.139133,0.138809,3.53761,2,0.0110096,11,0.000491051,-2.45129,0.251915,0.234206,32.1855,0.138809,
2,1,0,1,0,2377.75,0.140628,0.140387,3.5728,2,0.011276,11,0.000501573,-2.44699,0.313371,0.188275,26.2135,0.140387,
2,1,0,1,0,2377.82,0.142128,0.141884,3.61091,2,0.011546,11,0.000512329,-2.44238,0.372975,0.158188,22.2258,0.141884,
2,1,0,1,0,2377.9,0.143626,0.143339,3.64127,2,0.0118182,11,0.000521934,-2.43875,0.661956,0.0891298,12.609,0.143339,
2,1,0,1,0,2377.97,0.145124,0.144894,3.64466,2,0.0120917,11,0.000528089,-2.43834,-5.81126,-0.0101527,-1.43904,0.144894,
2,1,0,1,0,2378.05,0.146622,0.146332,3.62885,2,0.0123652,11,0.000531018,-2.44023,-0.958155,-0.0615767,-8.7202,0.146332,
2,1,0,1,0,2378.12,0.14812,0.147842,3.61639,2,0.0126373,11,0.000534654,-2.44173,-0.481097,-0.122636,-17.268,0.147842,
2,1,0,1,0,2378.2,0.149619,0.149328,3.58438,2,0.0129076,11,0.000535246,-2.44559,-0.283629,-0.208018,-28.9638,0.149328,
2,1,0,1,0,2378.27,0.151117,0.150839,3.53197,2,0.0131748,11,0.000532759,-2.45198,-0.18647,-0.316406,-43.355,0.150839,
2,1,0,1,0,2378.35,0.152615,0.152313,3.45493,2,0.0134373,11,0.00052623,-2.46156,-0.149607,-0.394367,-53.0213,0.1523129,
2,1,0,1,0,2378.42,0.154113,0.153842,3.37534,2,0.0136935,11,0.000519269,-2.47168,-0.121687,-0.484852,-63.6287,0.153842,
2,1,0,1,0,2378.5,0.155613,0.155357,3.27378,2,0.0139433,11,0.000508606,-2.48495,-0.105057,-0.561598,-71.351,0.155357,
2,1,0,1,0,2378.57,0.157108,0.156844,3.15458,2,0.0141844,11,0.000494777,-2.50106,-0.0847806,-0.695914,-85.1041,0.1568439,
2,1,0,1,0,2378.65,0.158608,0.158338,3.01894,2,0.0144166,11,0.000478012,-2.52015,-0.0753286,-0.783235,-92.0206,0.158338,
2,1,0,1,0,2378.72,0.160106,0.15985,2.87536,2,0.0146377,11,0.000459627,-2.54131,-0.0698406,-0.844781,-94.7105,0.15985,
2,1,0,1,0,2378.8,0.161604,0.161315,2.7379,2,0.0148483,11,0.000441663,-2.56258,-0.0670191,-0.880346,-93.7466,0.1613147,
2,1,0,1,0,2378.87,0.163102,0.162845,2.59532,2,0.0150483,11,0.000422635,-2.58581,-0.0639624,-0.922417,-93.1785,0.162845,
2,1,0,1,0,2378.95,0.164601,0.164343,2.45494,2,0.0152377,11,0.000403452,-2.60996,-0.0610325,-0.966699,-92.4925,0.164343,
2,1,0,1,0,2379.02,0.166099,0.165823,2.31427,2,0.0154165,11,0.000383759,-2.63559,-0.0636953,-0.926285,-84.0204,0.165823,
2,1,0,1,0,2379.1,0.167597,0.167338,2.19887,2,0.0155858,11,0.000367954,-2.6578,-0.0687626,-0.858025,-73.7028,0.167338,
2,1,0,1,0,2379.17,0.169095,0.168781,2.09138,2,0.0157469,11,0.000352985,-2.67957,-0.0695182,-0.848698,-69.3523,0.168781,
2,1,0,1,0,2379.25,0.170593,0.170296,1.98568,2,0.0159,11,0.000338154,-2.70209,-0.0690464,-0.854497,-66.4275,0.170296,
2,1,0,1,0,2379.32,0.172092,0.171817,1.88743,2,0.0160459,11,0.000324293,-2.72413,-0.0769388,-0.766844,-56.9408,0.171817,
2,1,0,1,0,2379.4,0.173588,0.173279,1.81078,2,0.0161847,11,0.000313769,-2.74214,-0.0826445,-0.713901,-50.6485,0.1732786,
2,1,0,1,0,2379.47,0.175088,0.174808,1.73667,2,0.0163184,11,0.000303584,-2.76028,-0.0881086,-0.669628,-45.5087,0.1748078,
2,1,0,1,0,2379.55,0.176586,0.176315,1.67431,2,0.0164469,11,0.000295206,-2.77617,-0.0893411,-0.660391,-43.2153,0.176315,
2,1,0,1,0,2379.62,0.178084,0.177833,1.61172,2,0.0165705,11,0.000286618,-2.79271,-0.0974823,-0.605238,-38.2822,0.177833,
2,1,0,1,0,2379.69,0.179582,0.179296,1.5623,2,0.0166898,11,0.000280115,-2.80623,-0.109581,-0.538415,-32.9952,0.179296,
2,1,0,1,0,2379.77,0.181081,0.180796,1.51369,2,0.0168055,11,0.00027367,-2.81996,-0.115074,-0.512714,-30.3493,0.180796,
2,1,0,1,0,2379.84,0.182579,0.182297,1.47042,2,0.016918,11,0.000268053,-2.83256,-0.11693,-0.504574,-28.9564,0.1822968,
2,1,0,1,0,2379.92,0.184077,0.183824,1.43321,2,0.0170272,11,0.000263457,-2.84369,-0.127707,-0.461994,-25.9074,0.183824,
2,1,0,1,0,2379.99,0.185577,0.185325,1.39733,2,0.0171336,11,0.00025896,-2.8547,-0.145153,-0.406469,-22.1878,0.185325,
2,1,0,1,0,2380.07,0.187073,0.186786,1.36489,2,0.0172373,11,0.000254942,-2.8649,-0.157057,-0.37566,-19.9869,0.186786,
2,1,0,1,0,2380.14,0.188572,0.188285,1.33444,2,0.0173392,11,0.000251256,-2.8747,-0.167358,-0.352538,-18.3722,0.188285,
2,1,0,1,0,2380.22,0.19007,0.189783,1.30766,2,0.0174386,11,0.000248172,-2.8835,-0.173753,-0.339563,-17.3442,0.189783,
2,1,0,1,0,2380.29,0.191568,0.191292,1.27754,2,0.0175359,11,0.000244384,-2.89363,-0.18719,-0.315188,-15.8044,0.191292,
2,1,0,1,0,2380.37,0.193066,0.192744,1.25898,2,0.0176316,11,0.00024266,-2.89998,-0.226615,-0.260353,-12.7645,0.192744,
2,1,0,1,0,2380.44,0.194564,0.194328,1.23898,2,0.0177259,11,0.00024077,-2.90693,-0.216025,-0.273116,-13.2168,0.194328,
2,1,0,1,0,2380.52,0.196063,0.195796,1.21772,2,0.0178185,11,0.000238424,-2.91445,-0.203081,-0.290525,-13.8631,0.195796,
2,1,0,1,0,2380.59,0.197561,0.197295,1.19502,2,0.0179095,11,0.00023577,-2.92263,-0.217198,-0.271642,-12.7667,0.197295,
2,1,0,1,0,2380.67,0.199059,0.198782,1.18749,2,0.0179993,11,0.000236052,-2.92537,-0.257703,-0.228946,-10.5817,0.198782,
2,1,0,1,0,2380.74,0.200557,0.200276,1.1705,2,0.0180881,11,0.000234424,-2.93163,-0.276171,-0.213636,-9.74649,0.200276,
2,1,0,1,0,2380.82,0.202057,0.201722,1.15864,2,0.0181758,11,0.000233723,-2.93605,-0.265106,-0.222552,-10.0285,0.201722,
2,1,0,1,0,2380.89,0.203552,0.203245,1.13758,2,0.0182622,11,0.000231207,-2.94402,-0.350252,-0.16845,-7.52509,0.203245,
2,1,0,1,0,2380.97,0.205052,0.204827,1.12729,2,0.0183478,11,0.000230899,-2.94796,-0.55386,-0.106525,-4.72616,0.204827,
2,1,0,1,0,2381.04,0.20655,0.2063,1.11672,2,0.0184326,11,0.000230379,-2.95206,-0.386754,-0.152552,-6.66188,0.2063,
2,1,0,1,0,2381.12,0.208048,0.207782,1.10688,2,0.0185168,11,0.000229989,-2.9559,-0.285415,-0.206717,-8.92654,0.207782,
2,1,0,1,0,2381.19,0.209546,0.209276,1.09868,2,0.0186,11,0.000229928,-2.95913,-0.342283,-0.172372,-7.38662,0.209276,
2,1,0,1,0,2381.27,0.211044,0.210763,1.08814,2,0.0186822,11,0.00022934,-2.96331,-0.439778,-0.134159,-5.6975,0.210763,
2,1,0,1,0,2381.34,0.212543,0.212274,1.07844,2,0.0187638,11,0.000228924,-2.9672,-0.481984,-0.122411,-5.14766,0.2122736,
2,1,0,1,0,2381.42,0.214041,0.213764,1.07283,2,0.0188449,11,0.000229333,-2.96947,-0.477932,-0.123448,-5.1622,0.213764,
2,1,0,1,0,2381.49,0.215539,0.215273,1.06182,2,0.0189253,11,0.000228582,-2.97395,-0.44942,-0.13128,-5.44832,0.215273,
2,1,0,1,0,2381.57,0.217037,0.216791,1.05362,2,0.0190051,11,0.000228414,-2.97732,-0.578818,-0.101932,-4.20614,0.2167906,
2,1,0,1,0,2381.64,0.218536,0.218246,1.04707,2,0.0190845,11,0.000228518,-2.98003,-0.923667,-0.0638758,-2.61216,0.218246,
2,1,0,1,0,2381.72,0.220032,0.219761,1.04532,2,0.0191633,11,0.000229722,-2.98075,-0.813214,-0.0725516,-2.95299,0.219761,
2,1,0,1,0,2381.79,0.221532,0.221275,1.03372,2,0.0192417,11,0.000228735,-2.9856,-0.524735,-0.112438,-4.54225,0.2212746,
2,1,0,1,0,2381.87,0.22303,0.222745,1.02049,2,0.0193196,11,0.00022731,-2.99119,-0.636884,-0.0926386,-3.71685,0.222745,
2,1,0,1,0,2381.94,0.224528,0.224274,1.02384,2,0.0193968,11,0.000229621,-2.98977,-0.536369,-0.109999,-4.38899,0.224274,
2,1,0,1,0,2382.02,0.226026,0.225754,1.01872,2,0.0194738,11,0.00022998,-2.99195,-0.721963,-0.0817216,-3.24527,0.225754,
2,1,0,1,0,2382.09,0.227525,0.22728,1.01044,2,0.0195504,11,0.000229654,-2.99549,-0.411147,-0.143501,-5.65049,0.2272802,
2,1,0,1,0,2382.17,0.229023,0.228747,1.00412,2,0.0196266,11,0.000229688,-2.99822,-0.594133,-0.0993044,-3.90933,0.228747,
2,1,0,1,0,2382.24,0.230521,0.230259,1.00114,2,0.0197022,11,0.00023052,-2.99951,-0.791729,-0.0745205,-2.92668,0.230259,
2,1,0,1,0,2382.32,0.232019,0.231714,0.998571,2,0.0197777,11,0.000231383,-3.00062,-0.852943,-0.0691723,-2.69934,0.231714,
2,1,0,1,0,2382.39,0.233517,0.233257,0.993318,2,0.0198529,11,0.000231699,-3.00291,-0.648674,-0.0909548,-3.51909,0.233257,
2,1,0,1,0,2382.47,0.235016,0.234771,0.989905,2,0.0199279,11,0.000232401,-3.00441,-1.07093,-0.0550924,-2.1285,0.234771,
2,1,0,1,0,2382.54,0.236512,0.236226,0.985995,2,0.0200021,11,0.000232918,-3.00613,-1.08486,-0.0543848,-2.09275,0.236226,
2,1,0,1,0,2382.62,0.238012,0.237737,0.981402,2,0.0200764,11,0.000233316,-3.00815,-1.53871,-0.0383439,-1.46581,0.237737,
2,1,0,1,0,2382.69,0.23951,0.239222,0.977511,2,0.0201504,11,0.000233842,-3.00988,-1.23914,-0.0476137,-1.81616,0.239222,
2,1,0,1,0,2382.77,0.241008,0.240729,0.971172,2,0.0202241,11,0.000233789,-3.0127,-0.788778,-0.0747992,-2.8472,0.240729,
2,1,0,1,0,2382.84,0.242506,0.242257,0.967202,2,0.0202973,11,0.000234311,-3.01448,-0.892515,-0.0661054,-2.506,0.242257,
2,1,0,1,0,2382.92,0.244005,0.243747,0.969001,2,0.0203704,11,0.000236191,-3.01368,-2.83216,-0.0208321,-0.785303,0.243747,
2,1,0,1,0,2382.99,0.245503,0.245276,0.970015,2,0.0204434,11,0.000237922,-3.01322,-0.674357,-0.0874908,-3.28645,0.245276,
2,1,0,1,0,2383.07,0.247001,0.246735,0.962987,2,0.0205161,11,0.000237602,-3.01638,-0.819999,-0.0719513,-2.69157,0.246735,
2,1,0,1,0,2383.14,0.248501,0.248213,0.95402,2,0.0205885,11,0.0002368,-3.02044,-1.0987,-0.0536998,-2.00671,0.248213,
2,1,0,1,0,2383.22,0.249997,0.249736,0.955206,2,0.0206604,11,0.000238549,-3.0199,-0.994699,-0.0593144,-2.20973,0.249736,
2,1,0,1,0,2383.29,0.251496,0.251258,0.950696,2,0.0207325,11,0.00023887,-3.02196,-1.38171,-0.0427007,-1.58638,0.251258,
2,1,0,1,0,2383.37,0.252994,0.25271,0.945571,2,0.0208042,11,0.000238955,-3.02431,-0.649113,-0.0908933,-3.36034,0.25271,
2,1,0,1,0,2383.44,0.254492,0.254206,0.943847,2,0.0208757,11,0.000239932,-3.0251,-1.24202,-0.0475033,-1.7584,0.254206,
2,1,0,1,0,2383.52,0.25599,0.255692,0.94158,2,0.0209468,11,0.000240755,-3.02614,-1.38743,-0.0425248,-1.56684,0.255692,
2,1,0,1,0,2383.59,0.257488,0.257201,0.939891,2,0.0210179,11,0.00024174,-3.02692,-1.32434,-0.0445505,-1.63231,0.2572006,
2,1,0,1,0,2383.67,0.258987,0.258713,0.938208,2,0.0210889,11,0.000242727,-3.0277,-1.20183,-0.0490917,-1.79278,0.258713,
2,1,0,1,0,2383.74,0.260485,0.260225,0.937395,2,0.0211596,11,0.000243934,-3.02808,-1.00333,-0.058804,-2.14772,0.260225,
2,1,0,1,0,2383.81,0.261983,0.261712,0.931817,2,0.0212299,11,0.000243867,-3.03067,-1.27576,-0.0462469,-1.68354,0.261712,
2,1,0,1,0,2383.89,0.263481,0.263192,0.931222,2,0.0213003,11,0.00024509,-3.03095,4.94695,0.0119265,0.432018,0.263192,
2,1,0,1,0,2383.96,0.264981,0.264706,0.928007,2,0.0213705,11,0.000245649,-3.03245,-1.54492,-0.0381898,-1.38416,0.264706,
2,1,0,1,0,2384.04,0.266476,0.26623,0.924723,2,0.0214404,11,0.000246189,-3.03399,-2.84401,-0.0207454,-0.750488,0.2662302,
2,1,0,1,0,2384.11,0.267976,0.267718,0.91767,2,0.0215101,11,0.000245676,-3.03731,-1.543,-0.0382373,-1.37802,0.267718,
2,1,0,1,0,2384.19,0.269474,0.269188,0.91889,2,0.0215797,11,0.000247354,-3.03674,-30.7055,-0.00192148,-0.0688524,0.269188,
2,1,0,1,0,2384.26,0.270972,0.270721,0.924002,2,0.0216492,11,0.000250146,-3.03433,-1.13914,-0.0517936,-1.85383,0.270721,
2,1,0,1,0,2384.34,0.27247,0.272192,0.91701,2,0.0217185,11,0.000249603,-3.03763,-1.34295,-0.043933,-1.56766,0.2721917,
2,1,0,1,0,2384.41,0.273968,0.273727,0.906133,2,0.0217875,11,0.000248033,-3.04281,-1.33855,-0.0440775,-1.56911,0.2737273,
2,1,0,1,0,2384.49,0.275467,0.275212,0.910565,2,0.0218563,11,0.000250599,-3.04069,-1.0346,-0.057027,-2.03497,0.275212,
2,1,0,1,0,2384.56,0.276965,0.276695,0.908725,2,0.0219251,11,0.00025144,-3.04157,-0.953865,-0.0618536,-2.19862,0.276695,
2,1,0,1,0,2384.64,0.278463,0.278188,0.907712,2,0.0219936,11,0.000252515,-3.04205,-0.771128,-0.0765113,-2.7016,0.278188,
2,1,0,1,0,2384.71,0.279961,0.279664,0.90539,2,0.022062,11,0.000253205,-3.04316,-1.73528,-0.0340003,-1.19991,0.279664,
2,1,0,1,0,2384.79,0.28146,0.281175,0.902286,2,0.0221302,11,0.000253701,-3.04466,-2.6521,-0.0222465,-0.784003,0.281175,
2,1,0,1,0,2384.86,0.282956,0.282671,0.901312,2,0.0221982,11,0.000254775,-3.04513,13.6617,0.00431866,0.151532,0.282671,
2,1,0,1,0,2384.94,0.284456,0.284211,0.900024,2,0.0222664,11,0.000255797,-3.04575,-2.52913,-0.0233282,-0.819151,0.284211,
2,1,0,1,0,2385.01,0.285954,0.285694,0.895466,2,0.0223341,11,0.000255829,-3.04795,-1.05861,-0.0557337,-1.95319,0.285694,
2,1,0,1,0,2385.09,0.287452,0.287204,0.891821,2,0.0224017,11,0.000256135,-3.04972,-1.44163,-0.040926,-1.42768,0.287204,
2,1,0,1,0,2385.16,0.28895,0.288682,0.893582,2,0.0224692,11,0.000257961,-3.04887,1.91013,0.0308879,1.07371,0.288682,
2,1,0,1,0,2385.24,0.290449,0.290181,0.890404,2,0.0225365,11,0.000258378,-3.05041,-2.50968,-0.023509,-0.819082,0.290181,
2,1,0,1,0,2385.31,0.291947,0.291688,0.887332,2,0.0226038,11,0.000258824,-3.05191,-0.987284,-0.0597599,-2.07633,0.291688,
2,1,0,1,0,2385.39,0.293445,0.293153,0.881861,2,0.0226708,11,0.00025852,-3.0546,-1.09737,-0.0537648,-1.85868,0.293153,
2,1,0,1,0,2385.46,0.294943,0.294709,0.888058,2,0.0227376,11,0.000261719,-3.05156,-9.61887,-0.00613378,-0.21195,0.294709,
2,1,0,1,0,2385.54,0.296441,0.296236,0.889327,2,0.0228045,11,0.00026345,-3.05094,-2.02293,-0.0291656,-1.00268,0.296236,
2,1,0,1,0,2385.61,0.29794,0.297694,0.880838,2,0.0228713,11,0.000262221,-3.0551,-6.11923,-0.00964173,-0.331856,0.297694,
2,1,0,1,0,2385.69,0.299436,0.299202,0.874596,2,0.0229377,11,0.000261681,-3.05819,-0.00202179,-29.1821,-576.085,0.299202,
2,1,0,1,0,2385.73,0.299739,0.299434,0.223776,2,0.0229674,11,6.70062e-05,-3.65019,0.00194744,30.2961,886.826,0.299434,
2,0,0,1,0,2385.81,0.298239,0.297938,-0.19134,2,0.0229592,11,-5.70073e-05,-3.71819,0.00687961,8.57607,294.271,0.297938,
2,0,0,1,0,2385.88,0.296741,0.296456,-0.22565,2,0.0229429,11,-6.68954e-05,-3.64656,-0.0218188,-2.70409,23.2315,0.296456,
2,0,0,1,0,2385.96,0.295243,0.294966,-0.260172,2,0.0229238,11,-7.6742e-05,-3.58474,-0.0318248,-1.8539,18.3058,0.294966,
2,0,0,1,0,2386.03,0.293745,0.293409,-0.287435,2,0.0229028,11,-8.43362e-05,-3.54146,-0.0406247,-1.45232,15.8877,0.293409,
2,0,0,1,0,2386.1,0.292246,0.291984,-0.30864,2,0.0228802,11,-9.01179e-05,-3.51055,-0.0481226,-1.22603,14.4847,0.291984,
2,0,0,1,0,2386.18,0.290748,0.29045,-0.326346,2,0.0228558,11,-9.47871e-05,-3.48632,-0.0566779,-1.04097,13.0728,0.29045,
2,0,0,1,0,2386.25,0.28925,0.288926,-0.344147,2,0.0228301,11,-9.9433e-05,-3.46326,-0.0729342,-0.808948,10.8036,0.288926,
2,0,0,1,0,2386.33,0.287752,0.287426,-0.358231,2,0.0228033,11,-0.000102965,-3.44584,-0.0850306,-0.693868,9.70767,0.287426,
2,0,0,1,0,2386.4,0.286254,0.285982,-0.371216,2,0.0227755,11,-0.000106161,-3.43037,-0.0892576,-0.661008,9.59433,0.285982,
2,0,0,1,0,2386.48,0.284754,0.284483,-0.386986,2,0.0227464,11,-0.000110091,-3.4123,-0.0918083,-0.642644,9.54678,0.2844826,
2,0,0,1,0,2386.55,0.283259,0.282962,-0.40245,2,0.0227164,11,-0.000113878,-3.39529,-0.104263,-0.565876,8.80401,0.282962,
2,0,0,1,0,2386.63,0.281759,0.281477,-0.410976,2,0.0226856,11,-0.00011568,-3.38618,-0.125563,-0.469885,7.50589,0.281477,
2,0,0,1,0,2386.7,0.280261,0.279986,-0.41422,2,0.022654,11,-0.000115976,-3.38277,-0.11628,-0.507394,8.29883,0.279986,
2,0,0,1,0,2386.78,0.278763,0.278484,-0.428831,2,0.0226216,11,-0.000119423,-3.36771,-0.150581,-0.391815,6.54842,0.278484,
2,0,0,1,0,2386.85,0.277264,0.277013,-0.442618,2,0.0225884,11,-0.000122611,-3.35397,-0.14858,-0.397093,6.80265,0.277013,
2,0,0,1,0,2386.93,0.275766,0.275477,-0.448985,2,0.0225545,11,-0.000123685,-3.34777,-0.21858,-0.269924,4.70643,0.275477,
2,0,0,1,0,2387,0.274268,0.273979,-0.459335,2,0.0225199,11,-0.000125848,-3.33787,-0.196753,-0.299869,5.36529,0.273979,
2,0,0,1,0,2387.08,0.27277,0.272447,-0.466754,2,0.0224847,11,-0.000127166,-3.33091,-0.186722,-0.315978,5.78318,0.272447,
2,0,0,1,0,2387.15,0.271272,0.270978,-0.479298,2,0.0224488,11,-0.000129879,-3.31939,-0.211971,-0.27834,5.1825,0.270978,
2,0,0,1,0,2387.23,0.269774,0.269462,-0.487993,2,0.0224122,11,-0.000131496,-3.31159,-0.213464,-0.276393,5.21684,0.2694625,
2,0,0,1,0,2387.3,0.268274,0.267982,-0.495395,2,0.022375,11,-0.000132757,-3.30505,-0.243453,-0.242346,4.64268,0.267982,
2,0,0,1,0,2387.38,0.266779,0.266502,-0.500627,2,0.0223374,11,-0.000133418,-3.30049,-0.18546,-0.318129,6.20016,0.266502,
2,0,0,1,0,2387.45,0.265279,0.264971,-0.508516,2,0.022299,11,-0.000134742,-3.2937,-0.180575,-0.326735,6.44888,0.264971,
2,0,0,1,0,2387.53,0.263781,0.263464,-0.515502,2,0.0222601,11,-0.000135816,-3.28777,-0.254711,-0.231635,4.67479,0.263464,
2,0,0,1,0,2387.6,0.262283,0.261974,-0.522314,2,0.0222206,11,-0.000136833,-3.28207,-0.232082,-0.254221,5.17048,0.261974,
2,0,0,1,0,2387.68,0.260784,0.260503,-0.522738,2,0.0221807,11,-0.000136175,-3.28172,-0.265302,-0.222388,4.60124,0.260503,
2,0,0,1,0,2387.75,0.259286,0.259015,-0.539378,2,0.0221402,11,-0.000139707,-3.26811,-0.250473,-0.235554,4.94262,0.259015,
2,0,0,1,0,2387.83,0.257788,0.257472,-0.548817,2,0.0220991,11,-0.000141305,-3.26057,-0.357015,-0.165259,3.5156,0.2574715,
2,0,0,1,0,2387.9,0.25629,0.255994,-0.552475,2,0.0220574,11,-0.00014143,-3.25769,-0.447988,-0.1317,2.82176,0.255994,
2,0,0,1,0,2387.98,0.25479,0.254465,-0.55428,2,0.0220153,11,-0.000141044,-3.25627,-0.265322,-0.222372,4.83384,0.254465,
2,0,0,1,0,2388.05,0.253294,0.252976,-0.566341,2,0.0219729,11,-0.000143271,-3.24692,-0.250859,-0.235192,5.19199,0.252976,
2,0,0,1,0,2388.13,0.251795,0.251499,-0.569316,2,0.0219297,11,-0.000143182,-3.24465,-0.288198,-0.20472,4.58884,0.251499,
2,0,0,1,0,2388.2,0.250297,0.249975,-0.574648,2,0.0218861,11,-0.000143648,-3.2406,-0.475299,-0.124132,2.79062,0.249975,
2,0,0,1,0,2388.28,0.248799,0.248491,-0.58499,2,0.0218419,11,-0.000145365,-3.23285,-0.329138,-0.179256,4.09328,0.248491,
2,0,0,1,0,2388.35,0.247301,0.246962,-0.593987,2,0.0217975,11,-0.000146692,-3.22622,-0.288905,-0.204219,4.71337,0.246962,
2,0,0,1,0,2388.43,0.245802,0.245519,-0.600541,2,0.0217524,11,-0.000147444,-3.22146,-0.263691,-0.223747,5.20738,0.245519,
2,0,0,1,0,2388.5,0.244304,0.244045,-0.606268,2,0.0217066,11,-0.000147957,-3.21734,-0.34263,-0.172198,4.04791,0.244045,
2,0,0,1,0,2388.58,0.242806,0.242496,-0.609983,2,0.0216605,11,-0.000147918,-3.21468,-0.3923,-0.150395,3.59474,0.242496,
2,0,0,1,0,2388.65,0.241308,0.241006,-0.618017,2,0.021614,11,-0.000148946,-3.209,-0.306116,-0.192737,4.65607,0.241006,
2,0,0,1,0,2388.73,0.23981,0.239518,-0.623033,2,0.021567,11,-0.000149228,-3.20549,-0.236917,-0.249032,6.05356,0.239518,
2,0,0,1,0,2388.8,0.23831,0.238,-0.631767,2,0.0215193,11,-0.00015036,-3.19944,-0.272246,-0.216716,5.33859,0.238,
2,0,0,1,0,2388.88,0.236815,0.236527,-0.636991,2,0.0214713,11,-0.000150665,-3.19587,-0.3941,-0.149708,3.72744,0.236527,
2,0,0,1,0,2388.95,0.235315,0.23498,-0.640493,2,0.0214227,11,-0.000150503,-3.19349,-0.291821,-0.202179,5.09768,0.23498,
2,0,0,1,0,2389.03,0.233817,0.233541,-0.648903,2,0.0213737,11,-0.000151546,-3.18782,-0.274503,-0.214934,5.4571,0.2335411,
2,0,0,1,0,2389.1,0.232319,0.232008,-0.659683,2,0.021324,11,-0.000153052,-3.18066,-0.356004,-0.165728,4.24768,0.232008,
2,0,0,1,0,2389.18,0.230821,0.230519,-0.664926,2,0.0212738,11,-0.000153278,-3.17723,-0.5002,-0.117953,3.05358,0.230519,
2,0,0,1,0,2389.25,0.229322,0.229031,-0.670691,2,0.0212232,11,-0.000153609,-3.17348,-0.322029,-0.183213,4.81158,0.229031,
2,0,0,1,0,2389.33,0.227824,0.227495,-0.680632,2,0.0211722,11,-0.000154841,-3.16709,-0.296864,-0.198744,5.2826,0.227495,
2,0,0,1,0,2389.4,0.226326,0.226037,-0.685914,2,0.0211205,11,-0.000155042,-3.16373,-0.34088,-0.173081,4.63463,0.226037,
2,0,0,1,0,2389.48,0.224828,0.224539,-0.695256,2,0.0210681,11,-0.000156112,-3.15786,-0.460121,-0.128227,3.45942,0.224539,
2,0,0,1,0,2389.55,0.22333,0.223088,-0.707355,2,0.0210152,11,-0.000157802,-3.15036,-0.322729,-0.182816,5.01056,0.223088,
2,0,0,1,0,2389.63,0.22183,0.221541,-0.71352,2,0.020962,11,-0.000158074,-3.14659,-0.296328,-0.199104,5.5047,0.221541,
2,0,0,1,0,2389.7,0.220335,0.220078,-0.718713,2,0.020908,11,-0.000158173,-3.14344,-0.223247,-0.264282,7.36551,0.220078,
2,0,0,1,0,2389.78,0.218835,0.218561,-0.72898,2,0.0208531,11,-0.000159326,-3.13728,-0.266846,-0.221101,6.27587,0.218561,
2,0,0,1,0,2389.85,0.217337,0.217055,-0.73294,2,0.0207978,11,-0.000159088,-3.13493,-0.355348,-0.166034,4.78087,0.217055,
2,0,0,1,0,2389.93,0.215839,0.215482,-0.738799,2,0.0207421,11,-0.000159198,-3.13147,-0.283978,-0.207763,6.02796,0.215482,
2,0,0,1,0,2390,0.21434,0.214017,-0.75052,2,0.0206856,11,-0.000160624,-3.12464,-0.205904,-0.286541,8.38321,0.214017,
2,0,0,1,0,2390.08,0.212842,0.21252,-0.758203,2,0.0206282,11,-0.000161134,-3.12021,-0.291093,-0.202685,6.04845,0.21252,
2,0,0,1,0,2390.15,0.211344,0.211066,-0.773006,2,0.0205703,11,-0.000163155,-3.11182,-0.318272,-0.185376,5.58408,0.211066,
2,0,0,1,0,2390.22,0.209846,0.209546,-0.774828,2,0.0205116,11,-0.000162362,-3.11079,-0.269021,-0.219314,6.67747,0.209546,
2,0,0,1,0,2390.3,0.208348,0.208072,-0.793234,2,0.0204522,11,-0.00016505,-3.1006,-0.21024,-0.280631,8.69992,0.208072,
2,0,0,1,0,2390.37,0.20685,0.206551,-0.813278,2,0.0203918,11,-0.000167984,-3.08976,-0.241151,-0.24466,7.67672,0.206551,
2,0,0,1,0,2390.45,0.20535,0.205033,-0.814562,2,0.0203303,11,-0.000167012,-3.08908,-0.261968,-0.225218,7.14948,0.205033,
2,0,0,1,0,2390.52,0.203855,0.203508,-0.824467,2,0.0202684,11,-0.000167785,-3.08383,-0.245361,-0.240462,7.76312,0.203508,
2,0,0,1,0,2390.6,0.202355,0.202067,-0.834358,2,0.0202055,11,-0.000168596,-3.07865,-0.220347,-0.267759,8.7824,0.202067,
2,0,0,1,0,2390.67,0.200857,0.200542,-0.854511,2,0.0201416,11,-0.000171365,-3.06828,-0.224766,-0.262495,8.74807,0.200542,
2,0,0,1,0,2390.75,0.199359,0.19906,-0.867545,2,0.0200767,11,-0.000172693,-3.06171,-0.2505,-0.235529,7.94521,0.19906,
2,0,0,1,0,2390.82,0.19786,0.197524,-0.88048,2,0.0200107,11,-0.000173916,-3.05528,-0.201491,-0.292816,10.0476,0.197524,
2,0,0,1,0,2390.9,0.196362,0.196065,-0.89528,2,0.0199438,11,-0.000175533,-3.04804,-0.196712,-0.29993,10.4827,0.196065,
2,0,0,1,0,2390.97,0.194864,0.19458,-0.914908,2,0.0198755,11,-0.000178023,-3.03862,-0.173218,-0.34061,12.1508,0.19458,
2,0,0,1,0,2391.05,0.193366,0.193067,-0.933929,2,0.0198058,11,-0.000180311,-3.02969,-0.189805,-0.310846,11.3063,0.193067,
2,0,0,1,0,2391.12,0.191866,0.191555,-0.948394,2,0.0197346,11,-0.000181669,-3.02301,-0.184841,-0.319193,11.8577,0.191555,
2,0,0,1,0,2391.2,0.19037,0.190067,-0.963472,2,0.0196625,11,-0.000183124,-3.01616,-0.171778,-0.343467,13.0065,0.190067,
2,0,0,1,0,2391.27,0.188871,0.188544,-0.989914,2,0.0195885,11,-0.000186642,-3.0044,-0.134281,-0.439376,16.9856,0.188544,
2,0,0,1,0,2391.35,0.187373,0.187068,-1.01166,2,0.019513,11,-0.000189249,-2.99497,-0.149208,-0.39542,15.6194,0.187068,
2,0,0,1,0,2391.42,0.185875,0.185548,-1.03786,2,0.0194357,11,-0.000192573,-2.98386,-0.149019,-0.395922,15.9879,0.185548,
2,0,0,1,0,2391.5,0.184377,0.184077,-1.05489,2,0.0193566,11,-0.000194181,-2.97679,-0.140272,-0.420612,17.4192,0.184077,
2,0,0,1,0,2391.57,0.182878,0.182566,-1.09182,2,0.0192755,11,-0.000199329,-2.96185,-0.127629,-0.462278,19.7445,0.182566,
2,0,0,1,0,2391.65,0.18138,0.181098,-1.11905,2,0.0191922,11,-0.000202658,-2.95115,-0.126711,-0.465628,20.4371,0.181098,
2,0,0,1,0,2391.72,0.179882,0.179591,-1.15054,2,0.0191064,11,-0.000206627,-2.9391,-0.138289,-0.426642,19.1564,0.179591,
2,0,0,1,0,2391.8,0.178384,0.178003,-1.18783,2,0.0190181,11,-0.000211438,-2.92525,-0.118097,-0.499588,23.1934,0.178003,
2,0,0,1,0,2391.87,0.176886,0.176573,-1.22776,2,0.0189275,11,-0.000216789,-2.91089,-0.109971,-0.536504,25.7567,0.176573,
2,0,0,1,0,2391.95,0.175386,0.175113,-1.26869,2,0.0188335,11,-0.000222164,-2.89665,-0.0963281,-0.61249,30.2879,0.175113,
2,0,0,1,0,2392.02,0.173891,0.173574,-1.31044,2,0.0187365,11,-0.000227458,-2.88258,-0.0956798,-0.61664,31.5601,0.173574,
2,0,0,1,0,2392.1,0.172391,0.172067,-1.35998,2,0.0186357,11,-0.000234007,-2.86647,-0.0888386,-0.664126,35.2985,0.172067,
2,0,0,1,0,2392.17,0.170893,0.170556,-1.41187,2,0.0185315,11,-0.000240802,-2.85021,-0.0882738,-0.668375,36.9842,0.170556,
2,0,0,1,0,2392.25,0.169395,0.169087,-1.47016,2,0.018423,11,-0.000248585,-2.83264,-0.0769693,-0.766539,44.0629,0.169087,
2,0,0,1,0,2392.32,0.167897,0.167594,-1.54112,2,0.0183095,11,-0.000258283,-2.81216,-0.0797358,-0.739944,44.4564,0.167594,
2,0,0,1,0,2392.4,0.166398,0.166065,-1.60839,2,0.018191,11,-0.000267097,-2.79361,-0.0792767,-0.744229,46.8309,0.1660652,
2,0,0,1,0,2392.47,0.1649,0.164579,-1.67755,2,0.0180674,11,-0.000276091,-2.77532,-0.0731208,-0.806884,53.2528,0.164579,
2,0,0,1,0,2392.55,0.163402,0.163119,-1.76525,2,0.0179379,11,-0.000287944,-2.75319,-0.0685996,-0.860063,59.4567,0.163119,
2,0,0,1,0,2392.62,0.161904,0.161588,-1.86314,2,0.0178015,11,-0.000301061,-2.72975,-0.0675934,-0.872866,63.3314,0.161588,
2,0,0,1,0,2392.7,0.160406,0.160109,-1.95808,2,0.0176579,11,-0.000313506,-2.70817,-0.0682041,-0.865051,66.0339,0.160109,
2,0,0,1,0,2392.77,0.158906,0.158615,-2.05695,2,0.0175067,11,-0.000326262,-2.68678,-0.066184,-0.891455,71.8122,0.158615,
2,0,0,1,0,2392.85,0.157411,0.1571,-2.17057,2,0.0173481,11,-0.000340997,-2.66343,-0.0640952,-0.920505,78.2617,0.1571,
2,0,0,1,0,2392.92,0.155911,0.155583,-2.28703,2,0.0171803,11,-0.000355824,-2.64073,-0.0666444,-0.885295,79.0369,0.1555832,
2,0,0,1,0,2393,0.154413,0.15412,-2.41054,2,0.0170034,11,-0.000371512,-2.61789,-0.0698269,-0.844947,79.2785,0.1541198,
2,0,0,1,0,2393.07,0.152915,0.152578,-2.5365,2,0.0168176,11,-0.000387015,-2.59576,-0.0729186,-0.809121,79.8438,0.152578,
2,0,0,1,0,2393.15,0.151417,0.151102,-2.64954,2,0.016623,11,-0.000400349,-2.57683,-0.0733775,-0.804061,83.2368,0.151102,
2,0,0,1,0,2393.22,0.149918,0.149617,-2.78221,2,0.0164191,11,-0.000416266,-2.55561,-0.0770551,-0.765686,82.8456,0.149617,
2,0,0,1,0,2393.3,0.14842,0.148109,-2.90502,2,0.0162056,11,-0.000430261,-2.53685,-0.082405,-0.715976,80.8871,0.148109,
2,0,0,1,0,2393.37,0.146922,0.146657,-3.02312,2,0.0159832,11,-0.000443362,-2.51954,-0.0930503,-0.634066,74.4414,0.146657,
2,0,0,1,0,2393.45,0.145424,0.145095,-3.1216,2,0.0157525,11,-0.000452928,-2.50562,-0.100274,-0.588389,71.6275,0.145095,
2,0,0,1,0,2393.52,0.143926,0.143638,-3.22716,2,0.0155139,11,-0.000463544,-2.49118,-0.106216,-0.555473,69.7835,0.143638,
2,0,0,1,0,2393.6,0.142426,0.142117,-3.32527,2,0.0152674,11,-0.000472577,-2.47817,-0.125501,-0.470117,60.845,0.1421171,
2,0,0,1,0,2393.67,0.140931,0.140674,-3.41009,2,0.0150148,11,-0.000479713,-2.46723,-0.159079,-0.370886,49.1214,0.140674,
2,0,0,1,0,2393.75,0.139431,0.139181,-3.4677,2,0.014756,11,-0.000482637,-2.45996,-0.187646,-0.314421,42.5173,0.139181,
2,0,0,1,0,2393.82,0.137933,0.137656,-3.5353,2,0.0144931,11,-0.000486654,-2.45157,-0.226312,-0.260702,35.8619,0.137656,
2,0,0,1,0,2393.9,0.136435,0.136177,-3.58588,2,0.0142258,11,-0.000488314,-2.4454,-0.283808,-0.207887,28.96,0.136177,
2,0,0,1,0,2393.97,0.134936,0.134611,-3.6201,2,0.0139554,11,-0.000487307,-2.44128,-0.548282,-0.107609,15.1193,0.134611,
2,0,0,1,0,2394.05,0.133438,0.133108,-3.63143,2,0.013683,11,-0.000483371,-2.43992,-1.1326,-0.0520924,7.36633,0.133108,
2,0,0,1,0,2394.12,0.13194,0.131669,-3.63784,2,0.0134102,11,-0.00047899,-2.43916,4.0109,0.0147099,-2.08484,0.131669,
2,0,0,1,0,2394.2,0.130442,0.130163,-3.62966,2,0.0131373,11,-0.000472446,-2.44013,0.921214,0.0640459,-9.04963,0.130163,
2,0,0,1,0,2394.27,0.128942,0.128658,-3.61195,2,0.0128651,11,-0.000464705,-2.44226,0.374246,0.15765,-22.1121,0.128658,
2,0,0,1,0,2394.34,0.127446,0.127104,-3.57398,2,0.0125959,11,-0.000454267,-2.44685,0.26874,0.219543,-30.4852,0.127104,
2,0,0,1,0,2394.42,0.125947,0.125632,-3.51414,2,0.0123297,11,-0.000441489,-2.45418,0.21323,0.276697,-37.8608,0.1256323,
2,0,0,1,0,2394.49,0.124449,0.124149,-3.45383,2,0.0120682,11,-0.000428791,-2.4617,0.180076,0.327639,-44.0106,0.1241494,
2,0,0,1,0,2394.57,0.122951,0.12262,-3.38231,2,0.0118116,11,-0.000414739,-2.47079,0.150809,0.391224,-51.4472,0.12262,
2,0,0,1,0,2394.64,0.121453,0.121145,-3.29751,2,0.0115608,11,-0.000399478,-2.48181,0.128225,0.460128,-59.0597,0.121145,
2,0,0,1,0,2394.72,0.119955,0.119649,-3.19733,2,0.0113169,11,-0.000382557,-2.49521,0.120898,0.488015,-61.0634,0.119649,
2,0,0,1,0,2394.79,0.118456,0.118134,-3.11198,2,0.0110799,11,-0.00036763,-2.50696,0.122008,0.483576,-58.7473,0.118134,
2,0,0,1,0,2394.87,0.116958,0.116683,-3.02627,2,0.0108495,11,-0.000353114,-2.51909,0.114739,0.514211,-60.6119,0.116683,
2,0,0,1,0,2394.94,0.11546,0.115176,-2.92945,2,0.0106259,11,-0.000337403,-2.53321,0.106801,0.55243,-63.0784,0.115176,
2,0,0,1,0,2395.02,0.113962,0.113656,-2.83025,2,0.0104095,11,-0.000321674,-2.54817,0.108952,0.541524,-60.0156,0.113656,
2,0,0,1,0,2395.09,0.112462,0.112178,-2.7537,2,0.0101997,11,-0.000308904,-2.56008,0.114142,0.516901,-55.6169,0.112178,
2,0,0,1,0,2395.17,0.110967,0.110674,-2.67409,2,0.00999637,11,-0.000295953,-2.57282,0.121912,0.483954,-50.5571,0.110674,
2,0,0,1,0,2395.24,0.109467,0.109178,-2.59644,2,0.0097982,11,-0.000283473,-2.58562,0.121364,0.48614,-49.338,0.109178,
2,0,0,1,0,2395.32,0.107969,0.107698,-2.53064,2,0.00960558,11,-0.000272544,-2.59677,0.133744,0.44114,-43.6344,0.107698,
2,0,0,1,0,2395.39,0.106471,0.106187,-2.46588,2,0.00941822,11,-0.000261844,-2.60803,0.151662,0.389024,-37.6109,0.106187,
2,0,0,1,0,2395.47,0.104973,0.104682,-2.41148,2,0.00923512,11,-0.000252438,-2.61772,0.163451,0.360965,-34.0005,0.1046816,
2,0,0,1,0,2395.54,0.103474,0.103179,-2.36254,2,0.00905555,11,-0.000243764,-2.62662,0.165937,0.355557,-32.734,0.103179,
2,0,0,1,0,2395.62,0.101976,0.101671,-2.3162,2,0.00887982,11,-0.000235489,-2.63522,0.16693,0.353441,-31.9664,0.101671,
2,0,0,1,0,2395.69,0.100478,0.100185,-2.26795,2,0.0087079,11,-0.000227215,-2.64437,0.187395,0.314843,-27.9359,0.100185,
2,0,0,1,0,2395.77,0.0989799,0.0986797,-2.23523,2,0.00853883,11,-0.000220572,-2.65068,0.236041,0.249957,-21.7966,0.0986797,
2,0,0,1,0,2395.84,0.0974817,0.0971897,-2.20241,2,0.0083723,11,-0.000214052,-2.6571,0.245444,0.240381,-20.649,0.0971897,
2,0,0,1,0,2395.92,0.0959821,0.0956546,-2.16866,2,0.00820795,11,-0.000207442,-2.66381,0.24474,0.241072,-20.4197,0.0956546,
2,0,0,1,0,2395.99,0.0944866,0.0941947,-2.13208,2,0.00804658,11,-0.00020083,-2.6712,0.259573,0.227296,-18.9676,0.0941947,
2,0,0,1,0,2396.07,0.0929871,0.0926914,-2.10584,2,0.00788688,11,-0.000195193,-2.67658,0.321246,0.18366,-15.1279,0.0926914,
2,0,0,1,0,2396.14,0.0914889,0.0911728,-2.09213,2,0.00772907,11,-0.000190745,-2.67941,0.287644,0.205115,-16.6748,0.0911728,
2,0,0,1,0,2396.22,0.0899907,0.0896883,-2.06312,2,0.00757302,11,-0.000185038,-2.68548,0.256117,0.230363,-18.517,0.0896883,
2,0,0,1,0,2396.29,0.0884925,0.0882005,-2.03088,2,0.00741911,11,-0.000179124,-2.69232,0.282071,0.209168,-16.6303,0.0882005,
2,0,0,1,0,2396.37,0.0869943,0.0866938,-2.01233,2,0.00726713,11,-0.000174457,-2.6963,0.302575,0.194993,-15.3311,0.0866938,
2,0,0,1,0,2396.44,0.0854961,0.0852134,-1.99031,2,0.00711659,11,-0.000169601,-2.70108,0.305089,0.193386,-15.0285,0.0852134,
2,0,0,1,0,2396.52,0.083998,0.0837035,-1.96962,2,0.00696767,11,-0.000164864,-2.70562,0.258943,0.22785,-17.4865,0.0837035,
2,0,0,1,0,2396.59,0.0824998,0.0822083,-1.94737,2,0.00682055,11,-0.00016009,-2.71055,0.277498,0.212614,-16.1469,0.0822083,
2,0,0,1,0,2396.67,0.081002,0.0807076,-1.92025,2,0.00667542,11,-0.000154979,-2.71664,0.322765,0.182796,-13.7134,0.0807076,
2,0,0,1,0,2396.74,0.0795025,0.0792317,-1.89842,2,0.00653155,11,-0.000150415,-2.72161,0.314479,0.187612,-13.8856,0.0792317,
2,0,0,1,0,2396.82,0.078007,0.0776675,-1.88412,2,0.00638956,11,-0.000146335,-2.72489,0.279907,0.210784,-15.4399,0.0776675,
2,0,0,1,0,2396.89,0.076507,0.0761715,-1.85523,2,0.00624904,11,-0.000141315,-2.7316,0.254226,0.232077,-16.7754,0.07617145,
2,0,0,1,0,2396.97,0.0750088,0.0747089,-1.82487,2,0.00611081,11,-0.000136334,-2.73877,0.26274,0.224556,-16.0218,0.0747089,
2,0,0,1,0,2397.04,0.0735106,0.073218,-1.80366,2,0.00597423,11,-0.00013206,-2.74385,0.29551,0.199655,-14.0259,0.073218,
2,0,0,1,0,2397.12,0.0720124,0.0717062,-1.78096,2,0.00583936,11,-0.000127706,-2.74935,0.250079,0.235926,-16.4052,0.0717062,
2,0,0,1,0,2397.19,0.0705142,0.0702136,-1.75454,2,0.00570634,11,-0.000123192,-2.75584,0.231366,0.255007,-17.4883,0.0702136,
2,0,0,1,0,2397.27,0.0690161,0.0687549,-1.7227,2,0.00557532,11,-0.000118444,-2.76379,0.236308,0.249674,-16.8809,0.0687549,
2,0,0,1,0,2397.34,0.0675179,0.0672057,-1.70693,2,0.00544607,11,-0.000114716,-2.76778,0.272637,0.216405,-14.4199,0.06720569,
2,0,0,1,0,2397.42,0.0660179,0.0657205,-1.69145,2,0.00531833,11,-0.000111163,-2.77174,0.247068,0.238801,-15.6878,0.0657205,
2,0,0,1,0,2397.49,0.0645224,0.0642251,-1.66537,2,0.00519249,11,-0.000106958,-2.77849,0.23919,0.246665,-15.9646,0.0642251,
2,0,0,1,0,2397.57,0.0630229,0.0627402,-1.63335,2,0.0050682,11,-0.000102477,-2.78692,0.253289,0.232935,-14.885,0.0627402,
2,0,0,1,0,2397.64,0.0615251,0.0612093,-1.61485,2,0.00494589,11,-9.88438e-05,-2.79187,0.270579,0.218051,-13.7841,0.0612093,
2,0,0,1,0,2397.72,0.0600269,0.0597881,-1.59559,2,0.004825,11,-9.53972e-05,-2.79708,0.276805,0.213147,-13.2946,0.0597881,
2,0,0,1,0,2397.79,0.0585287,0.0582124,-1.57518,2,0.00470552,11,-9.1695e-05,-2.80267,0.238001,0.247898,-15.2433,0.0582124,
2,0,0,1,0,2397.87,0.0570305,0.0567104,-1.55802,2,0.00458757,11,-8.83561e-05,-2.80743,0.271682,0.217165,-13.2146,0.0567104,
2,0,0,1,0,2397.94,0.0555323,0.0552394,-1.53798,2,0.00447126,11,-8.49569e-05,-2.81305,0.321972,0.183246,-11.0326,0.0552394,
2,0,0,1,0,2398.02,0.0540342,0.0537022,-1.53015,2,0.00435595,11,-8.21723e-05,-2.81527,0.388674,0.151798,-9.02718,0.0537022,
2,0,0,1,0,2398.09,0.052536,0.0522107,-1.51263,2,0.00424154,11,-7.89753e-05,-2.82027,0.373255,0.158069,-9.31756,0.0522107,
2,0,0,1,0,2398.17,0.0510378,0.0507663,-1.49749,2,0.00412837,11,-7.60222e-05,-2.82463,0.311334,0.189507,-11.084,0.0507663,
2,0,0,1,0,2398.24,0.0495382,0.0492263,-1.47784,2,0.00401636,11,-7.27485e-05,-2.83037,0.475913,0.123972,-7.18362,0.0492263,
2,0,0,1,0,2398.32,0.0480427,0.0477584,-1.47309,2,0.00390541,11,-7.03527e-05,-2.83177,0.764803,0.077144,-4.42695,0.0477584,
2,0,0,1,0,2398.39,0.0465432,0.0462309,-1.45825,2,0.00379486,11,-6.7416e-05,-2.83617,0.512109,0.11521,-6.58029,0.04623086,
2,0,0,1,0,2398.47,0.045045,0.0447311,-1.44907,2,0.00368518,11,-6.48187e-05,-2.83891,0.498014,0.118471,-6.7069,0.0447311,
2,0,0,1,0,2398.54,0.0435468,0.043287,-1.43393,2,0.00357631,11,-6.20705e-05,-2.84347,0.580357,0.101662,-5.72755,0.043287,
2,0,0,1,0,2398.61,0.0420486,0.0417577,-1.4364,2,0.00346809,11,-5.99809e-05,-2.84272,0.856126,0.0689151,-3.86905,0.0417577,
2,0,0,1,0,2398.69,0.0405504,0.0402593,-1.43444,2,0.00336019,11,-5.77495e-05,-2.84332,0.716475,0.0823476,-4.59681,0.0402593,
2,0,0,1,0,2398.76,0.0390523,0.0387253,-1.42422,2,0.00325246,11,-5.51534e-05,-2.84642,0.621631,0.0949115,-5.2629,0.0387253,
2,0,0,1,0,2398.84,0.0375541,0.0372491,-1.41981,2,0.00314538,11,-5.28868e-05,-2.84777,0.695689,0.084808,-4.70354,0.0372491,
2,0,0,1,0,2398.91,0.0360559,0.0357276,-1.41742,2,0.00303891,11,-5.06411e-05,-2.8485,1.54803,0.038113,-2.11121,0.0357276,
2,0,0,1,0,2398.99,0.0345577,0.0342513,-1.41331,2,0.00293245,11,-4.84078e-05,-2.84976,4.4691,0.0132018,-0.727204,0.0342513,
2,0,0,1,0,2399.06,0.0330582,0.0327354,-1.4101,2,0.00282591,11,-4.61601e-05,-2.85075,1.09054,0.0541019,-2.97221,0.0327354,
2,0,0,1,0,2399.14,0.0315626,0.0312475,-1.41149,2,0.00271987,11,-4.41055e-05,-2.85032,4.40841,0.0133835,-0.736763,0.0312475,
2,0,0,1,0,2399.21,0.0300631,0.0297692,-1.40976,2,0.00261404,11,-4.19675e-05,-2.85085,-8.5588,-0.00689349,0.379161,0.0297692,
2,0,0,1,0,2399.29,0.0285649,0.0282741,-1.40821,2,0.00250802,11,-3.98158e-05,-2.85133,-1.52492,-0.0386906,2.11837,0.0282741,
2,0,0,1,0,2399.36,0.0270667,0.0267814,-1.40752,2,0.00240178,11,-3.76954e-05,-2.85154,-4.28074,-0.0137827,0.756791,0.0267814,
2,0,0,1,0,2399.44,0.0255685,0.0253015,-1.40832,2,0.00229563,11,-3.56326e-05,-2.8513,3.63945,0.0162112,-0.893169,0.0253015,
2,0,0,1,0,2399.51,0.0240704,0.0237671,-1.40612,2,0.00218971,11,-3.34195e-05,-2.85198,-7.54274,-0.0078221,0.431671,0.0237671,
2,0,0,1,0,2399.59,0.0225722,0.0223028,-1.41335,2,0.00208346,11,-3.15216e-05,-2.84975,-1.01917,-0.0578905,3.18794,0.0223028,
2,0,0,1,0,2399.66,0.021074,0.020732,-1.41405,2,0.00197693,11,-2.9316e-05,-2.84954,-2.01338,-0.029304,1.61929,0.020732,
2,0,0,1,0,2399.74,0.0195758,0.0192641,-1.42131,2,0.00187026,11,-2.73802e-05,-2.84731,-2.79362,-0.0211196,1.16836,0.0192641,
2,0,0,1,0,2399.81,0.018078,0.0177916,-1.41498,2,0.00176347,11,-2.51747e-05,-2.84925,-1.01666,-0.0580334,3.22007,0.0177916,
2,0,0,1,0,2399.89,0.0165785,0.0162746,-1.42416,2,0.00165637,11,-2.31776e-05,-2.84644,-0.838165,-0.0703919,3.91694,0.0162746,
2,0,0,1,0,2399.96,0.015083,0.0147887,-1.43002,2,0.00154895,11,-2.11481e-05,-2.84466,-0.84353,-0.0699442,3.90001,0.01478868,
2,0,0,1,0,2400.04,0.013583,0.013284,-1.4346,2,0.00144081,11,-1.90573e-05,-2.84327,-1.9698,-0.0299523,1.67453,0.013284,
2,0,0,1,0,2400.11,0.0120848,0.0117474,-1.43605,2,0.00133271,11,-1.68699e-05,-2.84283,-1.15506,-0.0510798,2.87199,0.0117474,
2,0,0,1,0,2400.19,0.0105866,0.0102837,-1.439,2,0.00122449,11,-1.47983e-05,-2.84194,-1.03517,-0.0569957,3.21171,0.0102837,
2,0,0,1,0,2400.26,0.00908846,0.00876159,-1.45228,2,0.00111552,11,-1.27242e-05,-2.83795,-0.750804,-0.0785825,4.43897,0.00876159,
2,0,0,1,0,2400.34,0.00759027,0.00732119,-1.45789,2,0.00100614,11,-1.06735e-05,-2.83628,-1.67,-0.0353294,2.00403,0.00732119,
2,0,0,1,0,2400.41,0.00609208,0.00576134,-1.46599,2,0.000896377,11,-8.44607e-06,-2.83387,-0.912567,-0.0646528,3.68683,0.00576134,
2,0,0,1,0,2400.49,0.00459389,0.00429594,-1.46842,2,0.000786408,11,-6.30826e-06,-2.83315,-0.676527,-0.0872101,4.99345,0.00429594,
2,0,0,1,0,2400.56,0.00309391,0.00281292,-1.475,2,0.0006755,11,-4.14907e-06,-2.83121,-0.391742,-0.150609,8.6656,0.00281292,
2,0,0,1,0,2400.64,0.0015984,0.00125483,-1.50668,2,0.000562577,11,-1.89063e-06,-2.82198, , , ,0.00125483,
2,0,0,1,0,2400.71,0.000199195,-0.000119673,-1.4919,2,0.000457514,11,1.7854e-07,-2.82626, , , ,-0.000119673,