File: Figure_codes/Fig_3-5/rawdata_trumpetplot_data/before 10th/20221101_1-115_002_TrumpetPlot_ParaChange_16_CV_C01_0.csv
mode,ox/red,error,control changes,counter inc.,time/s,control/V,Ewe/V,<I>/mA,cycle number,(Q-Qo)/C,I Range,P/W,log(|I|),Tafel slope mV/dec,alpha_eff,dI/d(E-IR),E-IR/V,
2,1,0,0,0,1219.08,2.44065e-05,-0.00145148,57.7662,1,0.0000000E+000,10,-8.38462e-05,-1.23833, , , ,-0.00145148,
2,1,0,1,0,1219.08,0.00312067,0.00283257,57.3347,1,0.000179783,10,0.000162405,-1.24158, , , ,0.00283257,
2,1,0,1,0,1219.09,0.00711584,0.00678258,56.6673,1,0.000407498,10,0.00038435,-1.24667, , , ,0.00678258,
2,1,0,1,0,1219.09,0.011111,0.0108249,56.5146,1,0.000633785,10,0.000611762,-1.24784,-2.98421,-0.0197708,-43.9683,0.0108249,
2,1,0,1,0,1219.09,0.0151062,0.0147346,56.532,1,0.000859838,10,0.000832975,-1.24771,9.01284,0.00654622,14.507,0.0147346,
2,1,0,1,0,1219.1,0.0191014,0.0187578,56.6345,1,0.00108616,10,0.00106234,-1.24692,4.32147,0.0136528,30.2408,0.0187578,
2,1,0,1,0,1219.1,0.0231465,0.0228435,56.9003,1,0.0013133,10,0.0012998,-1.24489,3.82215,0.0154363,34.222,0.0228435,
2,1,0,1,0,1219.11,0.0271416,0.0267882,56.9974,1,0.00154112,10,0.00152686,-1.24415,3.82305,0.0154327,34.2761,0.0267882,
2,1,0,1,0,1219.11,0.0311368,0.0307944,57.0816,1,0.00176929,10,0.0017578,-1.2435,6.1993,0.00951721,21.197,0.0307944,
2,1,0,1,0,1219.11,0.035132,0.0348367,57.1857,1,0.00199783,10,0.00199216,-1.24271,8.03451,0.00734332,16.3724,0.0348367,
2,1,0,1,0,1219.12,0.0391272,0.0388016,57.2385,1,0.00222672,10,0.00222094,-1.24231,13.2028,0.00446874,9.96903,0.0388016,
2,1,0,1,0,1219.12,0.0431223,0.0428714,57.2607,1,0.00245573,10,0.00245485,-1.24214,-272.198,-0.000216754,-0.483713,0.04287139,
2,1,0,1,0,1219.13,0.0471175,0.0468405,57.2416,1,0.00268474,10,0.00268122,-1.24229,-15.5354,-0.00379777,-8.47361,0.0468405,
2,1,0,1,0,1219.13,0.0511127,0.0507629,57.178,1,0.00291359,10,0.00290252,-1.24277,-16.0392,-0.00367848,-8.21097,0.05076294,
2,1,0,1,0,1219.13,0.0551079,0.0547267,57.1036,1,0.00314216,10,0.00312509,-1.24334,212.225,0.000278007,0.621111,0.0547267,
2,1,0,1,0,1219.14,0.059103,0.0587255,57.1305,1,0.00337058,10,0.00335502,-1.24313,18.3672,0.00321225,7.1753,0.0587255,
2,1,0,1,0,1219.14,0.0631481,0.0628229,57.2515,1,0.00359928,10,0.00359671,-1.24221,10.4094,0.00566797,12.6541,0.0628229,
2,1,0,1,0,1219.15,0.0671433,0.0668514,57.2934,1,0.00382839,10,0.00383015,-1.2419,7.88552,0.00748207,16.7215,0.0668514,
2,1,0,1,0,1219.15,0.0711385,0.0708555,57.3077,1,0.00405759,10,0.00406057,-1.24179,8.00188,0.00737327,16.5125,0.0708555,
2,1,0,1,0,1219.15,0.0751337,0.0748405,57.4,1,0.00428701,10,0.00429584,-1.24109,5.65247,0.0104379,23.4151,0.0748405,
2,1,0,1,0,1219.16,0.0791288,0.0788743,57.5166,1,0.00451682,10,0.00453658,-1.24021,3.51738,0.0167739,37.7124,0.0788743,
2,1,0,1,0,1219.16,0.083124,0.082837,57.6677,1,0.00474722,10,0.00477702,-1.23907,2.58088,0.0228605,51.5774,0.082837,
2,1,0,1,0,1219.17,0.0871192,0.0868412,57.9105,1,0.00497837,10,0.00502902,-1.23724,1.864,0.0316523,71.7516,0.0868412,
2,1,0,1,0,1219.17,0.0911143,0.0908209,58.2242,1,0.00521062,10,0.00528797,-1.2349,1.42103,0.0415191,94.661,0.0908209,
2,1,0,1,0,1219.17,0.0951095,0.0947666,58.6569,1,0.00544441,10,0.00555871,-1.23168,1.14469,0.0515423,118.376,0.0947666,
2,1,0,1,0,1219.18,0.0991047,0.098794,59.1782,1,0.00568011,10,0.00584645,-1.22784,0.930296,0.0634207,147.013,0.098794,
2,1,0,1,0,1219.18,0.103114,0.102776,59.7968,1,0.00591809,10,0.00614567,-1.22332,0.813103,0.0725615,169.936,0.102776,
2,1,0,1,0,1219.19,0.107145,0.106879,60.5849,1,0.006159,10,0.00647523,-1.21764,0.712004,0.0828647,196.418,0.106879,
2,1,0,1,0,1219.19,0.11114,0.110801,61.3817,1,0.00640298,10,0.00680116,-1.21196,0.633599,0.0931189,223.775,0.110801,
2,1,0,1,0,1219.19,0.115135,0.114796,62.3212,1,0.00665047,10,0.0071542,-1.20536,0.583066,0.101189,246.943,0.114796,
2,1,0,1,0,1219.2,0.119131,0.118833,63.3899,1,0.00690197,10,0.00753278,-1.19798,0.534554,0.110372,273.732,0.118833,
2,1,0,1,0,1219.2,0.123126,0.12281,64.5191,1,0.00715786,10,0.0079236,-1.19031,0.497484,0.118597,299.408,0.12281,
2,1,0,1,0,1219.21,0.127121,0.126813,65.7647,1,0.00741855,10,0.00833984,-1.18201,0.466198,0.126556,325.765,0.126813,
2,1,0,1,0,1219.21,0.131116,0.130806,67.1147,1,0.00768441,10,0.00877898,-1.17318,0.438456,0.134563,353.476,0.1308056,
2,1,0,1,0,1219.21,0.135111,0.134801,68.5919,1,0.00795594,10,0.00924628,-1.16373,0.415325,0.142058,381.198,0.134801,
2,1,0,1,0,1219.22,0.139106,0.138817,70.1771,1,0.00823362,10,0.00974177,-1.1538,0.393503,0.149935,411.689,0.138817,
2,1,0,1,0,1219.22,0.143102,0.142752,71.8406,1,0.00851779,10,0.0102554,-1.14363,0.380213,0.155176,436.18,0.142752,
2,1,0,1,0,1219.23,0.147147,0.146802,73.7002,1,0.00880906,10,0.0108193,-1.13253,0.367433,0.160574,462.557,0.146802,
2,1,0,1,0,1219.23,0.151142,0.150796,75.5687,1,0.00910775,10,0.0113955,-1.12166,0.356516,0.16549,488.927,0.150796,
2,1,0,1,0,1219.23,0.155137,0.1548,77.5704,1,0.00941419,10,0.0120079,-1.1103,0.348236,0.169425,514.046,0.1548,
2,1,0,1,0,1219.24,0.159132,0.158826,79.6995,1,0.00972893,10,0.0126583,-1.09854,0.338116,0.174497,543.668,0.158826,
2,1,0,1,0,1219.24,0.163127,0.162813,81.9306,1,0.0100524,10,0.0133394,-1.08655,0.330019,0.178777,572.513,0.162813,
2,1,0,1,0,1219.25,0.167123,0.166774,84.255,1,0.0103849,10,0.0140515,-1.0744,0.323152,0.182577,601.386,0.166774,
2,1,0,1,0,1219.25,0.171118,0.170766,86.7108,1,0.0107271,10,0.0148073,-1.06193,0.317941,0.185569,628.911,0.170766,
2,1,0,1,0,1219.25,0.175113,0.17476,89.2824,1,0.0110793,10,0.015603,-1.04923,0.315227,0.187167,652.78,0.17476,
2,1,0,1,0,1219.26,0.179108,0.178731,91.9415,1,0.011442,10,0.0164328,-1.03649,0.314048,0.18787,674.59,0.178731,
2,1,0,1,0,1219.26,0.183103,0.182744,94.6804,1,0.0118155,10,0.0173023,-1.02374,0.318051,0.185505,685.445,0.182744,
2,1,0,1,0,1219.27,0.187146,0.18678,97.5139,1,0.0122001,10,0.0182137,-1.01093,0.322826,0.182761,694.734,0.18678,
2,1,0,1,0,1219.27,0.191143,0.190818,100.289,1,0.012596,10,0.019137,-0.998746,0.332847,0.177258,692.741,0.190818,
2,1,0,1,0,1219.27,0.195139,0.194758,103.076,1,0.013003,10,0.0200748,-0.986843,0.346843,0.170106,682.972,0.194758,
2,1,0,1,0,1219.28,0.199134,0.198799,105.802,1,0.0134211,10,0.0210333,-0.975506,0.366348,0.161049,663.141,0.198799,
2,1,0,1,0,1219.28,0.203129,0.202769,108.434,1,0.0138498,10,0.021987,-0.964835,0.395507,0.149176,629.038,0.202769,
2,1,0,1,0,1219.29,0.207124,0.206825,110.904,1,0.0142888,10,0.0229377,-0.955053,0.431549,0.136717,589.287,0.206825,
2,1,0,1,0,1219.29,0.211119,0.210815,113.177,1,0.0147372,10,0.0238594,-0.946242,0.488939,0.12067,530.392,0.210815,
2,1,0,1,0,1219.29,0.215115,0.214779,115.219,1,0.0151943,10,0.0247466,-0.938476,0.576246,0.102387,457.632,0.214779,
2,1,0,1,0,1219.3,0.21911,0.218775,116.923,1,0.0156589,10,0.0255798,-0.9321,0.734479,0.080329,363.875,0.2187748,
2,1,0,1,0,1219.3,0.223105,0.222831,118.229,1,0.0161295,10,0.026345,-0.927277,1.08136,0.054561,249.603,0.222831,
2,1,0,1,0,1219.31,0.227108,0.226846,119.01,1,0.0166041,10,0.0269969,-0.924417,2.43909,0.0241894,111.223,0.226846,
2,1,0,1,0,1219.31,0.231145,0.23091,119.245,1,0.0170809,10,0.027535,-0.923559,-5.22273,-0.0112968,-51.9403,0.23091,
2,1,0,1,0,1219.31,0.23514,0.234873,118.714,1,0.017557,10,0.0278826,-0.9255,-1.14671,-0.0514515,-235.155,0.234873,
2,1,0,1,0,1219.32,0.239136,0.238883,117.395,1,0.0180293,10,0.0280437,-0.930351,-0.605339,-0.097466,-440.066,0.238883,
2,1,0,1,0,1219.32,0.243131,0.242921,115.23,1,0.0184946,10,0.0279917,-0.938436,-0.402744,-0.146495,-648.509,0.242921,
2,1,0,1,0,1219.33,0.247126,0.2469,112.209,1,0.0189494,10,0.0277043,-0.949973,-0.297604,-0.19825,-853.989,0.2469,
2,1,0,1,0,1219.33,0.251121,0.250921,108.306,1,0.0193903,10,0.0271763,-0.965347,-0.232755,-0.253485,-1054.06,0.250921,
2,1,0,1,0,1219.33,0.255116,0.254987,103.643,1,0.0198139,10,0.0264275,-0.984461,-0.190514,-0.309689,-1232.88,0.254987,
2,1,0,1,0,1219.34,0.259111,0.258967,98.316,1,0.0202175,10,0.0254606,-1.00738,-0.162307,-0.363508,-1373.85,0.258967,
2,1,0,1,0,1219.34,0.263107,0.262932,92.443,1,0.0205985,10,0.0243062,-1.03413,-0.141722,-0.416309,-1482.95,0.262932,
2,1,0,1,0,1219.35,0.267102,0.267,86.2161,1,0.0209553,10,0.0230197,-1.06441,-0.127267,-0.463593,-1544.09,0.267,
2,1,0,1,0,1219.35,0.271147,0.270976,79.9306,1,0.0212869,10,0.0216593,-1.09729,-0.117064,-0.503998,-1559.28,0.270976,
2,1,0,1,0,1219.35,0.275142,0.274996,73.5657,1,0.0215932,10,0.0202303,-1.13332,-0.109465,-0.538987,-1540.66,0.274996,
2,1,0,1,0,1219.36,0.279137,0.27898,67.4194,1,0.0218745,10,0.0188087,-1.17122,-0.105546,-0.558996,-1471.7,0.27898,
2,1,0,1,0,1219.36,0.283132,0.282951,61.6416,1,0.0221319,10,0.0174415,-1.21013,-0.104137,-0.566562,-1370.6,0.282951,
2,1,0,1,0,1219.37,0.287128,0.286993,56.3593,1,0.0223673,10,0.0161747,-1.24903,-0.106016,-0.55652,-1237.21,0.286993,
2,1,0,1,0,1219.37,0.291123,0.290956,51.6921,1,0.0225827,10,0.0150401,-1.28658,-0.110593,-0.533485,-1094.19,0.290956,
2,1,0,1,0,1219.37,0.295118,0.29496,47.6496,1,0.0227808,10,0.0140547,-1.32194,-0.114938,-0.513319,-995.268,0.29496,
2,1,0,1,0,1219.38,0.298913,0.298702,44.4065,1,0.0229554,10,0.0132643,-1.35255,-0.0601635,-0.980661,-1708.8,0.298702,
2,1,0,0,0,1219.38,0.300012,0.299861,43.5521,1,0.0230039,10,0.0130596,-1.36099,0.000645244,91.4383,120664,0.299861,
2,1,0,1,0,1219.38,0.298714,0.298807,38.2759,1,0.023055,10,0.0114371,-1.41707,0.0134275,4.39398,4146.5,0.298807,
2,1,0,1,0,1219.38,0.294718,0.294755,22.9558,1,0.0231748,10,0.00676634,-1.63911,0.0103481,5.70154,3126.36,0.294755,
2,1,0,1,0,1219.39,0.290723,0.290715,11.2878,1,0.0232413,10,0.00328154,-1.94739,0.017642,3.34429,2648.37,0.290715,
2,1,0,1,0,1219.39,0.286728,0.28667,2.31382,1,0.023267,10,0.000663303,-2.63567,0.0444033,1.32873,2034.26,0.28667,
2,0,0,1,0,1219.4,0.282733,0.282609,-4.62162,1,0.0232612,10,-0.00130611,-2.33521,-0.17107,-0.344889,1563.43,0.282609,
2,0,0,1,0,1219.4,0.278738,0.27859,-9.92768,1,0.0232312,10,-0.00276575,-2.00315,-0.0184861,-3.19158,1210.82,0.27859,
2,0,0,1,0,1219.4,0.274742,0.274516,-14.0379,1,0.0231826,10,-0.00385363,-1.8527,-0.0255476,-2.30942,937.093,0.274516,
2,0,0,1,0,1219.41,0.270747,0.27058,-17.1689,1,0.0231196,10,-0.00464555,-1.76526,-0.0478336,-1.23344,722.21,0.27058,
2,0,0,1,0,1219.41,0.266702,0.266527,-19.6921,1,0.0230454,10,-0.00524847,-1.70571,-0.074255,-0.79456,563.579,0.266527,
2,0,0,1,0,1219.42,0.262707,0.262471,-21.5692,1,0.0229626,10,-0.00566128,-1.66617,-0.10709,-0.550939,441.009,0.262471,
2,0,0,1,0,1219.42,0.258712,0.258519,-23.0536,1,0.0228731,10,-0.0059598,-1.63726,-0.14906,-0.395815,345.133,0.258519,
2,0,0,1,0,1219.42,0.254717,0.2545,-24.2603,1,0.0227783,10,-0.00617424,-1.6151,-0.196256,-0.300628,278.311,0.2545,
2,0,0,1,0,1219.43,0.250722,0.250508,-25.2206,1,0.0226792,10,-0.00631797,-1.59824,-0.251478,-0.234613,227.351,0.250508,
2,0,0,1,0,1219.43,0.246726,0.246508,-26.012,1,0.0225766,10,-0.00641215,-1.58483,-0.311854,-0.189191,190.139,0.246508,
2,0,0,1,0,1219.44,0.242731,0.242498,-26.6959,1,0.0224711,10,-0.00647372,-1.57355,-0.369992,-0.159463,165.028,0.2424982,
2,0,0,1,0,1219.44,0.238736,0.238496,-27.3032,1,0.022363,10,-0.00651172,-1.56379,-0.423028,-0.139471,147.911,0.238496,
2,0,0,1,0,1219.44,0.234741,0.234524,-27.8585,1,0.0222526,10,-0.00653349,-1.55504,-0.453488,-0.130103,141.217,0.234524,
2,0,0,1,0,1219.45,0.230746,0.230563,-28.3703,1,0.0221401,10,-0.00654115,-1.54714,-0.493087,-0.119654,132.386,0.230563,
2,0,0,1,0,1219.45,0.226701,0.22647,-28.9594,1,0.0220255,10,-0.00655844,-1.53821,-0.514942,-0.114576,129.137,0.22647,
2,0,0,1,0,1219.46,0.222705,0.222485,-29.4229,1,0.0219087,10,-0.00654615,-1.53132,-0.523496,-0.112704,129.304,0.222485,
2,0,0,1,0,1219.46,0.21871,0.218518,-29.9254,1,0.0217899,10,-0.00653925,-1.52396,-0.538601,-0.109543,128.129,0.2185182,
2,0,0,1,0,1219.46,0.214715,0.214488,-30.449,1,0.0216691,10,-0.00653092,-1.51643,-0.514866,-0.114593,136.402,0.214488,
2,0,0,1,0,1219.47,0.21072,0.210498,-31.0058,1,0.0215462,10,-0.00652668,-1.50856,-0.495935,-0.118967,144.238,0.210498,
2,0,0,1,0,1219.47,0.206725,0.206503,-31.6029,1,0.0214209,10,-0.00652608,-1.50027,-0.463701,-0.127237,157.361,0.206503,
2,0,0,1,0,1219.48,0.202729,0.202502,-32.2356,1,0.0212932,10,-0.00652777,-1.49166,-0.435252,-0.135554,171.181,0.2025018,
2,0,0,1,0,1219.48,0.198734,0.198505,-32.964,1,0.0211627,10,-0.00654352,-1.48196,-0.403976,-0.146048,188.599,0.198505,
2,0,0,1,0,1219.48,0.194739,0.194476,-33.7486,1,0.0210292,10,-0.00656328,-1.47174,-0.371644,-0.158754,209.952,0.194476,
2,0,0,1,0,1219.49,0.190744,0.190504,-34.6202,1,0.0208924,10,-0.00659529,-1.46067,-0.344532,-0.171247,232.56,0.190504,
2,0,0,1,0,1219.49,0.186735,0.186508,-35.5936,1,0.0207519,10,-0.00663848,-1.44863,-0.318286,-0.185368,258.853,0.186508,
2,0,0,1,0,1219.5,0.182704,0.18245,-36.6979,1,0.0206071,10,-0.00669551,-1.43536,-0.296623,-0.198906,286.149,0.18245,
2,0,0,1,0,1219.5,0.178709,0.178462,-37.8937,1,0.0204579,10,-0.0067626,-1.42143,-0.27834,-0.211971,314.806,0.178462,
2,0,0,1,0,1219.5,0.174713,0.174503,-39.199,1,0.0203036,10,-0.00684034,-1.40673,-0.262126,-0.225083,346.061,0.174503,
2,0,0,1,0,1219.51,0.170718,0.170523,-40.6256,1,0.0201438,10,-0.00692761,-1.3912,-0.247971,-0.237931,379.236,0.170523,
2,0,0,1,0,1219.51,0.166723,0.166486,-42.2222,1,0.019978,10,-0.00702941,-1.37446,-0.235122,-0.250933,415.532,0.166486,
2,0,0,1,0,1219.52,0.162728,0.162527,-43.9371,1,0.0198056,10,-0.00714095,-1.35717,-0.222708,-0.264921,456.741,0.162527,
2,0,0,1,0,1219.52,0.158733,0.158531,-45.8358,1,0.0196259,10,-0.0072664,-1.3388,-0.213763,-0.276007,496.302,0.158531,
2,0,0,1,0,1219.52,0.154737,0.154534,-47.9284,1,0.0194382,10,-0.00740658,-1.31941,-0.20545,-0.287174,539.267,0.154534,
2,0,0,1,0,1219.53,0.150742,0.150503,-50.1548,1,0.0192419,10,-0.00754843,-1.29969,-0.198493,-0.297239,584.267,0.150503,
2,0,0,1,0,1219.53,0.146747,0.146549,-52.553,1,0.0190362,10,-0.00770162,-1.2794,-0.194846,-0.302803,623.356,0.146549,
2,0,0,1,0,1219.54,0.142702,0.142527,-55.1862,1,0.0188205,10,-0.00786554,-1.25817,-0.190628,-0.309503,668.201,0.142527,
2,0,0,1,0,1219.54,0.138707,0.138567,-57.8819,1,0.0185942,10,-0.0080205,-1.23746,-0.18896,-0.312235,707.001,0.138567,
2,0,0,1,0,1219.54,0.134712,0.134531,-60.8272,1,0.0183565,10,-0.00818314,-1.2159,-0.189635,-0.311124,739.435,0.134531,
2,0,0,1,0,1219.55,0.130717,0.130567,-63.8526,1,0.0181069,10,-0.00833705,-1.19482,-0.191142,-0.308671,769.157,0.130567,
2,0,0,1,0,1219.55,0.126721,0.126563,-66.9909,1,0.0178449,10,-0.00847856,-1.17398,-0.194917,-0.302693,790.593,0.126563,
2,0,0,1,0,1219.56,0.122726,0.122534,-70.2133,1,0.0175702,10,-0.00860354,-1.15358,-0.200268,-0.294605,805.398,0.122534,
2,0,0,1,0,1219.56,0.118731,0.118607,-73.4167,1,0.0172825,10,-0.00870772,-1.1342,-0.20564,-0.286909,821.02,0.118607,
2,0,0,1,0,1219.56,0.114736,0.114696,-76.6352,1,0.0169822,10,-0.00878974,-1.11557,-0.212283,-0.277931,831.042,0.114696,
2,0,0,1,0,1219.57,0.110741,0.110664,-80.044,1,0.0166684,10,-0.00885801,-1.09667,-0.21989,-0.268316,836.671,0.110664,
2,0,0,1,0,1219.57,0.106745,0.10667,-83.3975,1,0.0163411,10,-0.00889599,-1.07885,-0.230863,-0.255563,828.96,0.10667,
2,0,0,1,0,1219.58,0.102703,0.102667,-86.7533,1,0.0160005,10,-0.00890667,-1.06171,-0.243223,-0.242576,818.216,0.102667,
2,0,0,1,0,1219.58,0.0987052,0.0986371,-89.9473,1,0.0156468,10,-0.00887214,-1.04601,-0.25736,-0.229251,802.423,0.0986371,
2,0,0,1,0,1219.58,0.09471,0.0946542,-93.1437,1,0.0152803,10,-0.00881644,-1.03085,-0.276171,-0.213636,774.123,0.0946542,
2,0,0,1,0,1219.59,0.0907148,0.0906098,-96.2843,1,0.0149011,10,-0.0087243,-1.01644,-0.2954,-0.199729,746.895,0.0906098,
2,0,0,1,0,1219.59,0.0867197,0.0865601,-99.2217,1,0.0145097,10,-0.00858865,-1.00339,-0.322817,-0.182766,703.943,0.0865601,
2,0,0,1,0,1219.6,0.0827245,0.0825773,-101.942,1,0.0141071,10,-0.00841812,-0.991645,-0.359378,-0.164172,649.758,0.0825773,
2,0,0,1,0,1219.6,0.0787293,0.0785859,-104.455,1,0.013694,10,-0.00820868,-0.981071,-0.405477,-0.145508,589.901,0.0785859,
2,0,0,1,0,1219.6,0.0747341,0.0745521,-106.718,1,0.0132713,10,-0.00795605,-0.971763,-0.471274,-0.125193,518.145,0.0745521,
2,0,0,1,0,1219.61,0.070739,0.0705257,-108.68,1,0.0128402,10,-0.00766477,-0.963849,-0.565968,-0.104246,439.129,0.0705257,
2,0,0,1,0,1219.61,0.0667438,0.0665132,-110.266,1,0.0124021,10,-0.00733413,-0.957559,-0.713594,-0.0826801,353.438,0.0665132,
2,0,0,1,0,1219.62,0.0627403,0.0625547,-111.495,1,0.0119583,10,-0.00697451,-0.952746,-1.00156,-0.0589081,254.525,0.06255465,
2,0,0,1,0,1219.62,0.0587035,0.0584785,-112.399,1,0.0115103,10,-0.00657292,-0.949238,-1.70552,-0.0345937,150.49,0.05847846,
2,0,0,1,0,1219.62,0.0547083,0.0544691,-112.767,1,0.0110598,10,-0.00614233,-0.947817,-6.80658,-0.00866809,37.8203,0.05446906,
2,0,0,1,0,1219.63,0.0507132,0.0504915,-112.677,1,0.0106088,10,-0.00568923,-0.948165,3.08104,0.0191494,-83.5,0.0504915,
2,0,0,1,0,1219.63,0.046718,0.0464503,-112.104,1,0.0101591,10,-0.00520725,-0.95038,1.32543,0.0445137,-193.2,0.0464503,
2,0,0,1,0,1219.64,0.0427228,0.0424769,-111.063,1,0.0097128,10,-0.00471761,-0.954431,0.85546,0.0689688,-296.836,0.0424769,
2,0,0,1,0,1219.64,0.0387276,0.0384378,-109.67,1,0.00927137,10,-0.00421548,-0.959912,0.643614,0.0916699,-389.817,0.0384378,
2,0,0,1,0,1219.64,0.0347325,0.0344634,-107.919,1,0.00883629,10,-0.00371927,-0.966901,0.528702,0.111594,-467.222,0.0344634,
2,0,0,1,0,1219.65,0.0307373,0.0304774,-105.877,1,0.00840881,10,-0.00322686,-0.975198,0.451111,0.130788,-537.624,0.0304774,
2,0,0,1,0,1219.65,0.0267421,0.026469,-103.584,1,0.00799006,10,-0.00274176,-0.984709,0.410835,0.14361,-578.419,0.026469,
2,0,0,1,0,1219.66,0.022747,0.0225042,-101.104,1,0.0075809,10,-0.00227525,-0.995233,0.378287,0.155966,-613.92,0.0225042,
2,0,0,1,0,1219.66,0.0187018,0.0183983,-98.6269,1,0.00718167,10,-0.00181456,-1.006,0.355885,0.165784,-636.465,0.0183983,
2,0,0,1,0,1219.66,0.0147067,0.0143942,-96.0034,1,0.00679269,10,-0.00138189,-1.01771,0.338527,0.174285,-651.507,0.0143942,
2,0,0,1,0,1219.67,0.0107115,0.0103699,-93.3371,1,0.00641425,10,-0.0009679,-1.02995,0.323201,0.182549,-664.06,0.0103699,
2,0,0,1,0,1219.67,0.00671632,0.00646764,-90.6558,1,0.00604654,10,-0.000586329,-1.0426,0.315835,0.186807,-660.573,0.00646764,
2,0,0,1,0,1219.68,0.00272115,0.00238932,-87.996,1,0.00568954,10,-0.00021025,-1.05554,0.309081,0.190889,-655.502,0.00238932,
2,0,0,1,0,1219.68,-0.00127403,-0.00163068,-85.4178,1,0.00534289,10,0.000139289,-1.06845,0.305293,0.193257,-643.912,-0.00163068,
2,0,0,1,0,1219.68,-0.0052692,-0.00562842,-82.8501,1,0.00500663,10,0.000466315,-1.08171,0.301602,0.195622,-632.389,-0.00562842,
2,0,0,1,0,1219.69,-0.00926438,-0.00961131,-80.3023,1,0.00468059,10,0.00077181,-1.09527,0.299033,0.197303,-618.909,-0.00961131,
2,0,0,1,0,1219.69,-0.0132596,-0.0136133,-77.8761,1,0.00436448,10,0.00106015,-1.1086,0.304593,0.193701,-589.98,-0.0136133,
2,0,0,1,0,1219.7,-0.0172547,-0.0175941,-75.5379,1,0.00405793,10,0.00132902,-1.12183,0.317212,0.185996,-550.274,-0.0175941,
2,0,0,1,0,1219.7,-0.0212915,-0.0215981,-73.4283,1,0.00376032,10,0.00158592,-1.13414,0.332104,0.177655,-511.085,-0.0215981,
2,0,0,1,0,1219.7,-0.025295,-0.0256372,-71.4837,1,0.00347071,10,0.00183264,-1.14579,0.358877,0.164402,-460.612,-0.0256372,
2,0,0,1,0,1219.71,-0.0292902,-0.0296042,-69.7034,1,0.00318857,10,0.00206351,-1.15675,0.39223,0.150422,-411.454,-0.0296042,
2,0,0,1,0,1219.71,-0.0332854,-0.0335935,-68.1684,1,0.002913,10,0.00229001,-1.16642,0.439611,0.13421,-359.189,-0.0335935,
2,0,0,1,0,1219.72,-0.0372805,-0.0375827,-66.8514,1,0.00264318,10,0.00251246,-1.17489,0.51144,0.115361,-302.794,-0.0375827,
2,0,0,1,0,1219.72,-0.0412757,-0.0416017,-65.7494,1,0.00237814,10,0.00273529,-1.18211,0.605723,0.0974043,-251.433,-0.0416017,
2,0,0,1,0,1219.72,-0.0452709,-0.0455824,-64.8652,1,0.00211707,10,0.00295672,-1.18799,0.737751,0.0799728,-203.547,-0.0455824,
2,0,0,1,0,1219.73,-0.0492661,-0.0495462,-64.1573,1,0.00185915,10,0.00317875,-1.19275,0.925939,0.0637191,-160.305,-0.0495462,
2,0,0,1,0,1219.73,-0.0532612,-0.0535132,-63.6088,1,0.00160369,10,0.00340391,-1.19648,1.20344,0.0490263,-122.232,-0.0535132,
2,0,0,1,0,1219.74,-0.0572564,-0.0575417,-63.1942,1,0.00135017,10,0.0036363,-1.19932,1.80188,0.0327436,-81.1511,-0.0575417,
2,0,0,1,0,1219.74,-0.0612544,-0.0615575,-62.9126,1,0.00109803,10,0.00387274,-1.20126,2.86859,0.0205676,-50.7303,-0.0615575,
2,0,0,1,0,1219.74,-0.0652967,-0.0655838,-62.8559,1,0.000846398,10,0.00412233,-1.20165,6.02565,0.00979147,-24.0746,-0.0655838,
2,0,0,1,0,1219.75,-0.0692919,-0.0695752,-62.794,1,0.000595135,10,0.0043689,-1.20208,3289.3,1.7937e-05,-0.0440401,-0.0695752,
2,0,0,1,0,1219.75,-0.0732871,-0.0735708,-62.8083,1,0.000343936,10,0.00462086,-1.20198,-10.8751,-0.00542523,13.331,-0.07357081,
2,0,0,1,0,1219.76,-0.0772822,-0.0775633,-62.9119,1,9.24956e-05,10,0.00487965,-1.20127,-4.57505,-0.012896,31.7312,-0.0775633,
2,0,0,1,0,1219.76,-0.0812774,-0.0815642,-63.0689,1,-0.00015946,10,0.00514416,-1.20018,-2.9279,-0.020151,49.706,-0.0815642,
2,0,0,1,0,1219.76,-0.0852726,-0.0855672,-63.3014,1,-0.000412225,10,0.00541653,-1.19859,-2.31025,-0.0255383,63.2049,-0.0855672,
2,0,0,1,0,1219.77,-0.0892678,-0.0895543,-63.6028,1,-0.00066606,10,0.0056959,-1.19652,-1.95054,-0.0302481,75.1605,-0.0895543,
2,0,0,1,0,1219.77,-0.0932629,-0.0935372,-63.9215,1,-0.000921142,10,0.00597904,-1.19435,-1.71068,-0.0344892,86.1268,-0.0935372,
2,0,0,1,0,1219.78,-0.0972581,-0.0975848,-64.273,1,-0.00117757,10,0.00627207,-1.19197,-1.4753,-0.039992,100.521,-0.0975848,
2,0,0,1,0,1219.78,-0.101253,-0.101544,-64.6775,1,-0.0014355,10,0.00656763,-1.18925,-1.37744,-0.042833,108.3,-0.101544,
2,0,0,1,0,1219.78,-0.105298,-0.105578,-65.2135,1,-0.0016953,10,0.00688512,-1.18566,-1.27158,-0.0463991,118.084,-0.105578,
2,0,0,1,0,1219.79,-0.109294,-0.109583,-65.6593,1,-0.0019571,10,0.00719516,-1.1827,-1.23165,-0.0479031,122.749,-0.1095833,
2,0,0,1,0,1219.79,-0.113289,-0.113544,-66.1576,1,-0.00222076,10,0.00751179,-1.17942,-1.23865,-0.0476325,123.049,-0.113544,
2,0,0,1,0,1219.8,-0.117284,-0.11761,-66.6495,1,-0.00248641,10,0.00783861,-1.1762,-1.17659,-0.0501449,130.528,-0.1176095,
2,0,0,1,0,1219.8,-0.121279,-0.121576,-67.1821,1,-0.00275413,10,0.00816776,-1.17275,-1.13948,-0.051778,135.867,-0.121576,
2,0,0,1,0,1219.8,-0.125274,-0.12558,-67.7473,1,-0.00302402,10,0.00850767,-1.16911,-1.08917,-0.0541697,143.299,-0.12558,
2,0,0,1,0,1219.81,-0.129269,-0.129512,-68.327,1,-0.00329624,10,0.00884914,-1.16541,-1.06296,-0.0555053,148.072,-0.129512,
2,0,0,1,0,1219.81,-0.133265,-0.133525,-68.9302,1,-0.00357081,10,0.00920391,-1.16159,-1.03567,-0.056968,153.323,-0.133525,
2,0,0,1,0,1219.82,-0.13726,-0.137524,-69.5434,1,-0.0038478,10,0.00956389,-1.15774,-0.993165,-0.0594061,161.396,-0.137524,
2,0,0,1,0,1219.82,-0.141255,-0.141524,-70.1919,1,-0.00412734,10,0.00993382,-1.15371,-0.961821,-0.061342,168.222,-0.141524,
2,0,0,1,0,1219.82,-0.145286,-0.145564,-70.9178,1,-0.00440954,10,0.0103231,-1.14924,-0.941399,-0.0626727,173.475,-0.145564,
2,0,0,1,0,1219.83,-0.149295,-0.149539,-71.6241,1,-0.00469474,10,0.0107106,-1.14494,-0.938141,-0.0628904,175.719,-0.149539,
2,0,0,1,0,1219.83,-0.15329,-0.153549,-72.3234,1,-0.0049827,10,0.0111052,-1.14072,-0.94769,-0.0622567,175.698,-0.153549,
2,0,0,1,0,1219.84,-0.157286,-0.157575,-73.0124,1,-0.00527342,10,0.0115049,-1.1366,-0.937258,-0.0629496,179.464,-0.157575,
2,0,0,1,0,1219.84,-0.161281,-0.161553,-73.727,1,-0.00556699,10,0.0119108,-1.13237,-0.929435,-0.0634794,182.773,-0.1615528,
2,0,0,1,0,1219.84,-0.165276,-0.165537,-74.4951,1,-0.00586349,10,0.0123317,-1.12787,-0.899017,-0.0656273,190.86,-0.165537,
2,0,0,1,0,1219.85,-0.169271,-0.16955,-75.248,1,-0.00616306,10,0.0127583,-1.12351,-0.882703,-0.0668402,196.389,-0.16955,
2,0,0,1,0,1219.85,-0.173266,-0.173469,-76.0458,1,-0.00646576,10,0.0131916,-1.11892,-0.87352,-0.0675428,200.557,-0.173469,
2,0,0,1,0,1219.86,-0.177261,-0.177542,-76.8671,1,-0.00677164,10,0.0136471,-1.11426,-0.842753,-0.0700087,210.144,-0.1775416,
2,0,0,1,0,1219.86,-0.181257,-0.181496,-77.6958,1,-0.00708086,10,0.0141015,-1.1096,-0.806803,-0.0731282,222.087,-0.181496,
2,0,0,1,0,1219.86,-0.185252,-0.185517,-78.6033,1,-0.00739354,10,0.0145822,-1.10456,-0.780594,-0.0755835,232.18,-0.185517,
2,0,0,1,0,1219.87,-0.189297,-0.189543,-79.6158,1,-0.00771014,10,0.0150906,-1.099,-0.755914,-0.0780512,242.556,-0.189543,
2,0,0,1,0,1219.87,-0.193292,-0.193551,-80.584,1,-0.00803065,10,0.0155971,-1.09375,-0.732995,-0.0804917,252.691,-0.193551,
2,0,0,1,0,1219.88,-0.197287,-0.197564,-81.5932,1,-0.00835509,10,0.0161199,-1.08835,-0.845898,-0.0697484,219.981,-0.1975642,
2,0,0,0,0,1219.88,-0.199984,-0.20017,-82.3059,1,-0.00857631,10,0.0164751,-1.08457,0.0652385,0.904374,-2667.89,-0.20017,
2,0,0,0,1,1219.88,-0.199984,-0.200494,-82.0247,1,-0.00862558,10,0.0164455,-1.08606,-0.0304564,-1.9372,5257.18,-0.200494,
2,0,0,1,1,1219.88,-0.196688,-0.197216,-70.804,1,-0.00885886,10,0.0139637,-1.14994,-0.0467656,-1.26161,3131.05,-0.197216,
2,0,0,1,1,1219.89,-0.192693,-0.193215,-58.7311,1,-0.00911631,10,0.0113478,-1.23113,-0.0462503,-1.27567,2853.41,-0.193215,
2,0,0,1,1,1219.89,-0.188698,-0.189199,-47.9554,1,-0.00932831,10,0.00907309,-1.31916,-0.0419968,-1.40487,2579.31,-0.189199,
2,0,0,1,1,1219.89,-0.184653,-0.185117,-38.1481,1,-0.00949931,10,0.00706187,-1.41853,-0.0365362,-1.61484,2323.22,-0.185117,
2,0,0,1,1,1219.9,-0.180657,-0.181128,-29.3068,1,-0.00963313,10,0.00530828,-1.53303,-0.0298734,-1.975,2116.9,-0.181128,
2,0,0,1,1,1219.9,-0.176662,-0.177079,-21.2431,1,-0.00973326,10,0.00376172,-1.67278,-0.0218764,-2.69697,1937.62,-0.177079,
2,0,0,1,1,1219.91,-0.172667,-0.17309,-13.855,1,-0.00980254,10,0.00239816,-1.85839,-0.010136,-5.82086,1783.82,-0.17309,
2,0,0,1,1,1219.91,-0.168672,-0.169063,-7.04041,1,-0.0098435,10,0.00119027,-2.1524,-0.025329,-2.32935,1652.04,-0.169063,
2,0,0,1,1,1219.91,-0.164677,-0.165133,-0.774295,1,-0.00985835,10,0.000127861,-3.11109,-0.128308,-0.459832,1526.94,-0.165133,
2,1,0,1,1,1219.92,-0.160682,-0.161188,5.00985,1,-0.00984917,10,-0.000807528,-2.30018,0.046838,1.25966,1410.87,-0.161188,
2,1,0,1,1,1219.92,-0.156686,-0.157194,10.4165,1,-0.00981766,10,-0.00163741,-1.98228,0.0112775,5.23166,1302.64,-0.1571945,
2,1,0,1,1,1219.93,-0.152691,-0.153176,15.3741,1,-0.00976547,10,-0.00235493,-1.81321,0.0232288,2.53995,1213.3,-0.153176,
2,1,0,1,1,1219.93,-0.148696,-0.149218,19.9566,1,-0.00969427,10,-0.00297789,-1.69991,0.0366786,1.60857,1126.54,-0.149218,
2,1,0,1,1,1219.93,-0.14467,-0.145227,24.3756,1,-0.00960516,10,-0.00353999,-1.61304,0.0502015,1.17526,1043.72,-0.145227,
2,1,0,1,1,1219.94,-0.140656,-0.141194,28.4417,1,-0.00949897,10,-0.0040158,-1.54604,0.0642447,0.918364,968.832,-0.141194,
2,1,0,1,1,1219.94,-0.136661,-0.137065,32.1892,1,-0.00937726,10,-0.004412,-1.49229,0.0801731,0.735908,890.428,-0.1370648,
2,1,0,1,1,1219.95,-0.132665,-0.133063,35.6084,1,-0.00924123,10,-0.00473816,-1.44845,0.0974308,0.605558,818.027,-0.133063,
2,1,0,1,1,1219.95,-0.12867,-0.129099,38.7362,1,-0.00909214,10,-0.0050008,-1.41188,0.115878,0.509158,753.048,-0.129099,
2,1,0,1,1,1219.95,-0.124675,-0.125084,41.6199,1,-0.00893109,10,-0.00520599,-1.3807,0.136371,0.432644,690.337,-0.125084,
2,1,0,1,1,1219.96,-0.12068,-0.121058,44.2431,1,-0.00875903,10,-0.00535598,-1.35415,0.159135,0.370754,630.871,-0.121058,
2,1,0,1,1,1219.96,-0.116685,-0.117055,46.6593,1,-0.00857693,10,-0.0054617,-1.33106,0.183845,0.320922,577.206,-0.117055,
2,1,0,1,1,1219.97,-0.112689,-0.113058,48.8558,1,-0.00838566,10,-0.00552356,-1.31108,0.21122,0.279329,527.04,-0.113058,
2,1,0,1,1,1219.97,-0.108694,-0.109075,50.8604,1,-0.00818595,10,-0.00554761,-1.29362,0.239833,0.246005,484.312,-0.109075,
2,1,0,1,1,1219.97,-0.104699,-0.10502,52.6956,1,-0.00797861,10,-0.00553411,-1.27823,0.27392,0.215392,439.693,-0.10502,
2,1,0,1,1,1219.98,-0.100654,-0.10101,54.4301,1,-0.00776407,10,-0.00549797,-1.26416,0.311735,0.189263,398.843,-0.1010099,
2,1,0,1,1,1219.98,-0.0966588,-0.0970005,55.9163,1,-0.00754317,10,-0.00542391,-1.25246,0.355919,0.165768,359.18,-0.0970005,
2,1,0,1,1,1219.99,-0.0926637,-0.0930282,57.2606,1,-0.00731667,10,-0.00532686,-1.24214,0.410856,0.143603,319.155,-0.0930282,
2,1,0,1,1,1219.99,-0.0886685,-0.0890178,58.4434,1,-0.0070851,10,-0.0052025,-1.23326,0.466375,0.126508,287.232,-0.0890178,
2,1,0,1,1,1219.99,-0.0846733,-0.0849935,59.5418,1,-0.006849,10,-0.00506066,-1.22518,0.537019,0.109866,254.161,-0.0849935,
2,1,0,1,1,1220,-0.0806781,-0.0810488,60.4982,1,-0.00660882,10,-0.0049033,-1.21826,0.605347,0.0974648,229.217,-0.0810488,
2,1,0,1,1,1220,-0.076683,-0.0769811,61.3392,1,-0.00636501,10,-0.00472196,-1.21226,0.692508,0.0851976,203.323,-0.07698109,
2,1,0,1,1,1220.01,-0.0726878,-0.0729971,62.1156,1,-0.00611802,10,-0.00453426,-1.2068,0.788925,0.0747853,180.757,-0.0729971,
2,1,0,1,1,1220.01,-0.0686926,-0.0690344,62.7866,1,-0.00586813,10,-0.00433444,-1.20213,0.862325,0.0684197,167.336,-0.06903439,
2,1,0,1,1,1220.01,-0.0646974,-0.0650579,63.3886,1,-0.00561568,10,-0.00412393,-1.19799,0.995945,0.0592402,146.299,-0.0650579,
2,1,0,1,1,1220.02,-0.0606523,-0.0609891,64.0152,1,-0.00536088,10,-0.00390423,-1.19372,1.1378,0.0518543,129.149,-0.0609891,
2,1,0,1,1,1220.02,-0.0566571,-0.0569924,64.4571,1,-0.00510385,10,-0.00367356,-1.19073,1.3152,0.0448602,112.551,-0.0569924,
2,1,0,1,1,1220.03,-0.052662,-0.0529798,64.8601,1,-0.00484516,10,-0.00343627,-1.18802,1.61526,0.0365266,92.3042,-0.0529798,
2,1,0,1,1,1220.03,-0.0486668,-0.0490118,65.1946,1,-0.004585,10,-0.00319531,-1.18579,1.86534,0.0316296,80.3571,-0.0490118,
2,1,0,1,1,1220.03,-0.0446716,-0.044978,65.4931,1,-0.00432355,10,-0.00294575,-1.1838,2.24925,0.026231,66.942,-0.044978,
2,1,0,1,1,1220.04,-0.0406764,-0.0409898,65.743,1,-0.00406104,10,-0.00269479,-1.18215,2.70965,0.021774,55.7788,-0.0409898,
2,1,0,1,1,1220.04,-0.0366813,-0.0370621,65.9256,1,-0.00379769,10,-0.00244334,-1.18095,3.40731,0.0173157,44.4984,-0.0370621,
2,1,0,1,1,1220.05,-0.0326861,-0.0330155,66.0869,1,-0.00353362,10,-0.0021819,-1.17988,4.56489,0.0129247,33.2956,-0.0330155,
2,1,0,1,1,1220.05,-0.0286909,-0.0290178,66.2033,1,-0.00326902,10,-0.00192108,-1.17912,5.53927,0.0106512,27.496,-0.0290178,
2,1,0,1,1,1220.05,-0.0246957,-0.0249999,66.2754,1,-0.00300404,10,-0.00165688,-1.17865,7.83714,0.00752826,19.4625,-0.0249999,
2,1,0,1,1,1220.06,-0.0206756,-0.0209778,66.3679,1,-0.00273876,10,-0.00139225,-1.17804,17.5776,0.00335655,8.68147,-0.0209778,
2,1,0,1,1,1220.06,-0.0166554,-0.0169536,66.3995,1,-0.00247315,10,-0.00112571,-1.17784,8617.14,6.84682e-06,0.0177095,-0.0169536,
2,1,0,1,1,1220.07,-0.0126603,-0.0129611,66.3427,1,-0.00220766,10,-0.000859877,-1.17821,-11.9386,-0.00494196,-12.7807,-0.0129611,
2,1,0,1,1,1220.07,-0.0086651,-0.00900157,66.2757,1,-0.00194241,10,-0.000596585,-1.17865,-6.30313,-0.00936043,-24.1874,-0.00900157,
2,1,0,1,1,1220.07,-0.00466992,-0.00503353,66.1641,1,-0.00167753,10,-0.000333039,-1.17938, , , ,-0.00503353,
2,1,0,1,1,1220.08,-0.000974387,-0.00137035,66.0226,1,-0.00143297,10,-9.04743e-05,-1.18031, , , ,-0.00137035,
2,1,0,0,1,1220.08,-0.000175352,-0.000497109,65.9824,1,-0.00138016,10,-3.28005e-05,-1.18057, , , ,-0.000497109,