File: Figure_codes/Fig_3-5/rawdata_trumpetplot_data/before 10th/20221101_1-115_002_TrumpetPlot_ParaChange_08_CV_C01.mpt
EC-Lab ASCII FILE
Nb header lines : 68

Cyclic Voltammetry

Run on channel : 1 (SN 65296)
User :
CE vs. WE compliance from -10 V to 10 V
Electrode connection : standard
Potential control : Ewe
Ewe ctrl range : min = -1.00 V, max = 1.00 V
Safety Limits :
	Do not start on E overload
Acquisition started on : 11/08/2022 17:30:03.488
Loaded Setting File :  NONE
Saved on :
	File : 20221101_1-115_002_TrumpetPlot_ParaChange_08_CV_C01.mpr
	Directory : C:\Users\NakamuraT\Documents\EC-Lab\Data\Yatsuzuka\20221108_1-115_001_TrumpetPlot\
	Host : 192.109.209.100
Device : SP-50e (SN .003219)
Address : 192.109.209.128
EC-Lab for windows v11.43 (software)
Internet server v11.40 (firmware)
Command interpretor v11.40 (firmware)
Electrode material : Au/Pd
Initial state :
Electrolyte : NaCl (0.2M)
Comments : Fe(CN)63-/Fe(CN)64- 5.10-3 M
Reference electrode : SCE Saturated Calomel Electrode (0.241 V)
Electrode surface area : 0.001 cm2
Characteristic mass : 0.001 g
Equivalent Weight : 0.000 g/eq.
Density : 0.000 g/cm3
Volume (V) : 0.001 cm3
Cycle Definition : Charge/Discharge alternance
Ei (V)              0.000
vs.                 Ref
dE/dt               40.000
dE/dt unit          mV/s
E1 (V)              0.300
vs.                 Ref
Step percent        50
N                   10
E range min (V)     -1.000
E range max (V)     1.000
I Range             10 mA
I Range min         Unset
I Range max         Unset
I Range init        Unset
Bandwidth           5
E2 (V)              0.000
vs.                 Ref
nc cycles           0
Reverse Scan        0
Ef (V)              0.000
vs.                 Eoc

Number of loops : 8
Loop 0 from point number 0 to 1205
Loop 1 from point number 1206 to 2411
Loop 2 from point number 2412 to 3617
Loop 3 from point number 3618 to 4823
Loop 4 from point number 4824 to 6029
Loop 5 from point number 6030 to 7235
Loop 6 from point number 7236 to 8441
Loop 7 from point number 8442 to 9647

mode	ox/red	error	control changes	counter inc.	time/s	control/V	Ewe/V	<I>/mA	cycle number	(Q-Qo)/C	I Range	P/W
2	0	0	1	0	1169.19	2.44065e-05	-0.000268062	-2.18649	1	0.0000000E+000	11	5.86113e-07
2	1	0	1	0	1169.37	0.00729063	0.00700318	1.70305	1	0.000202942	11	1.19267e-05
2	1	0	1	0	1169.56	0.014778	0.0145101	1.79418	1	0.000531997	11	2.60338e-05
2	1	0	1	0	1169.75	0.0222743	0.0219845	1.85359	1	0.000874925	11	4.07503e-05
2	1	0	1	0	1169.93	0.0297626	0.0295024	1.89065	1	0.00122624	11	5.57786e-05
2	1	0	1	0	1170.12	0.0372544	0.0369812	1.93934	1	0.00158579	11	7.1719e-05
2	1	0	1	0	1170.31	0.0447472	0.0444414	1.98717	1	0.00195444	11	8.83126e-05
2	1	0	1	0	1170.49	0.0522345	0.051971	2.06856	1	0.00233511	11	0.000107505
2	1	0	1	0	1170.68	0.0597309	0.0594425	2.18693	1	0.00273393	11	0.000129996
2	1	0	1	0	1170.87	0.0672182	0.0669749	2.33093	1	0.00315673	11	0.000156114
2	1	0	1	0	1171.06	0.0747074	0.0744387	2.52809	1	0.00361165	11	0.000188188
2	1	0	1	0	1171.24	0.0822019	0.0819441	2.74404	1	0.00410593	11	0.000224858
2	1	0	1	0	1171.43	0.0896911	0.0894318	2.95043	1	0.00464203	11	0.000263862
2	1	0	1	0	1171.62	0.097182	0.0968984	3.22784	1	0.00522309	11	0.000312773
2	1	0	1	0	1171.81	0.104675	0.10445	3.51702	1	0.00585422	11	0.000367353
2	1	0	1	0	1171.99	0.112162	0.111901	3.89204	1	0.00654625	11	0.000435524
2	1	0	1	0	1172.18	0.119655	0.119352	4.46547	1	0.00732615	11	0.000532961
2	1	0	1	0	1172.37	0.127146	0.126881	5.23638	1	0.00823283	11	0.000664398
2	1	0	1	0	1172.55	0.134635	0.134339	6.14788	1	0.00930043	11	0.0008259
2	1	0	1	0	1172.74	0.14213	0.141844	6.90771	1	0.0105293	11	0.000979817
2	1	0	1	0	1172.93	0.149619	0.149342	7.22872	1	0.0118619	11	0.00107955
2	1	0	1	0	1173.12	0.157106	0.156827	6.8672	1	0.0131948	11	0.00107696
2	1	0	1	0	1173.3	0.164602	0.164301	5.61026	1	0.0143764	11	0.000921773
2	1	0	1	0	1173.49	0.172091	0.171801	4.10339	1	0.0152806	11	0.000704968
2	1	0	1	0	1173.68	0.179582	0.179308	3.23681	1	0.0159601	11	0.000580388
2	1	0	1	0	1173.87	0.187074	0.186822	2.75764	1	0.0165179	11	0.000515187
2	1	0	1	0	1174.05	0.194563	0.194296	2.44875	1	0.0170033	11	0.000475783
2	1	0	1	0	1174.24	0.202059	0.201845	2.25273	1	0.0174427	11	0.000454701
2	1	0	1	0	1174.43	0.209546	0.209275	2.10777	1	0.0178508	11	0.000441104
2	1	0	1	0	1174.61	0.217035	0.21677	2.00356	1	0.0182368	11	0.00043431
2	1	0	1	0	1174.8	0.22453	0.224263	1.9466	1	0.0186079	11	0.00043655
2	1	0	1	0	1174.99	0.232019	0.231744	1.8865	1	0.0189668	11	0.000437186
2	1	0	1	0	1175.18	0.23951	0.239243	1.84756	1	0.0193171	11	0.000442016
2	1	0	1	0	1175.36	0.247003	0.246733	1.81642	1	0.0196601	11	0.000448171
2	1	0	1	0	1175.55	0.25449	0.254237	1.77595	1	0.0199968	11	0.000451512
2	1	0	1	0	1175.74	0.261983	0.26175	1.75561	1	0.0203283	11	0.000459532
2	1	0	1	0	1175.93	0.269474	0.269207	1.72824	1	0.020655	11	0.000465256
2	1	0	1	0	1176.11	0.276963	0.276685	1.70376	1	0.0209772	11	0.000471403
2	1	0	1	0	1176.3	0.284458	0.284194	1.69035	1	0.0212955	11	0.000480386
2	1	0	1	0	1176.49	0.291947	0.291677	1.66368	1	0.0216097	11	0.000485256
2	1	0	1	0	1176.67	0.299434	0.299209	1.64117	1	0.0219202	11	0.000491054
2	0	0	1	0	1176.83	0.294196	0.293879	-0.597607	1	0.0218947	11	-0.000175624
2	0	0	1	0	1177.02	0.286701	0.286419	-0.739905	1	0.0217667	11	-0.000211922
2	0	0	1	0	1177.21	0.279212	0.278931	-0.861837	1	0.0216148	11	-0.000240394
2	0	0	1	0	1177.4	0.271725	0.271457	-0.943255	1	0.0214451	11	-0.000256054
2	0	0	1	0	1177.58	0.264228	0.263946	-1.01494	1	0.0212604	11	-0.000267888
2	0	0	1	0	1177.77	0.256741	0.256471	-1.08676	1	0.0210631	11	-0.000278723
2	0	0	1	0	1177.96	0.249248	0.248953	-1.14145	1	0.0208538	11	-0.000284166
2	0	0	1	0	1178.14	0.241756	0.241475	-1.19475	1	0.020633	11	-0.000288502
2	0	0	1	0	1178.33	0.234268	0.233961	-1.27063	1	0.0204009	11	-0.000297278
2	0	0	1	0	1178.52	0.226772	0.22649	-1.3334	1	0.0201562	11	-0.000302002
2	0	0	1	0	1178.71	0.219284	0.21902	-1.41654	1	0.0198984	11	-0.00031025
2	0	0	1	0	1178.89	0.211796	0.21149	-1.50241	1	0.0196255	11	-0.000317745
2	0	0	1	0	1179.08	0.204301	0.204002	-1.60519	1	0.0193335	11	-0.000327462
2	0	0	1	0	1179.27	0.196812	0.196513	-1.74182	1	0.0190196	11	-0.00034229
2	0	0	1	0	1179.46	0.189321	0.189026	-1.93152	1	0.0186752	11	-0.000365108
2	0	0	1	0	1179.64	0.181828	0.181532	-2.18222	1	0.0182903	11	-0.000396144
2	0	0	1	0	1179.83	0.174341	0.174062	-2.55509	1	0.0178483	11	-0.000444744
2	0	0	1	0	1180.02	0.166848	0.166574	-3.10264	1	0.017322	11	-0.00051682
2	0	0	1	0	1180.2	0.159357	0.159069	-3.88568	1	0.0166717	11	-0.00061809
2	0	0	1	0	1180.39	0.151868	0.151555	-4.94599	1	0.0158455	11	-0.000749591
2	0	0	1	0	1180.58	0.144373	0.144104	-6.02265	1	0.0148138	11	-0.000867885
2	0	0	1	0	1180.77	0.136884	0.136594	-6.83846	1	0.013601	11	-0.000934091
2	0	0	1	0	1180.95	0.129393	0.129113	-7.14946	1	0.0122813	11	-0.000923091
2	0	0	1	0	1181.14	0.1219	0.121599	-6.76091	1	0.0109672	11	-0.000822118
2	0	0	1	0	1181.33	0.114413	0.114117	-5.79512	1	0.00978631	11	-0.000661323
2	0	0	1	0	1181.52	0.10692	0.106584	-4.83492	1	0.00879533	11	-0.000515326
2	0	0	1	0	1181.7	0.0994284	0.099129	-4.23529	1	0.00794979	11	-0.00041984
2	0	0	1	0	1181.89	0.0919401	0.0916663	-3.88214	1	0.00719167	11	-0.000355862
2	0	0	1	0	1182.08	0.0844447	0.0841678	-3.62752	1	0.00648852	11	-0.00030532
2	0	0	1	0	1182.26	0.0769565	0.0766528	-3.388	1	0.00583163	11	-0.0002597
2	0	0	1	0	1182.45	0.0694682	0.069168	-3.16759	1	0.00521777	11	-0.000219096
2	0	0	1	0	1182.64	0.0619728	0.0616797	-2.9621	1	0.00464362	11	-0.000182702
2	0	0	1	0	1182.83	0.0544836	0.0542274	-2.80303	1	0.00410375	11	-0.000152001
2	0	0	1	0	1183.01	0.0469927	0.0466738	-2.71244	1	0.00358716	11	-0.0001266
2	0	0	1	0	1183.2	0.0394999	0.039204	-2.65319	1	0.00308516	11	-0.000104016
2	0	0	1	0	1183.39	0.0320125	0.0316626	-2.62816	1	0.00259049	11	-8.32146e-05
2	0	0	1	0	1183.58	0.0245198	0.0242272	-2.63534	1	0.0020968	11	-6.38467e-05
2	0	0	1	0	1183.76	0.0170289	0.0167416	-2.65445	1	0.00159985	11	-4.44399e-05
2	0	0	1	0	1183.95	0.0095397	0.00926452	-2.71161	1	0.00109601	11	-2.51218e-05
2	0	0	1	0	1184.14	0.00204518	0.00168788	-2.84521	1	0.000581582	11	-4.80237e-06
2	1	0	1	0	2400.92	0.00429425	0.00403194	1.64176	2	8.10015e-05	11	6.61948e-06
2	1	0	1	0	2401.11	0.011787	0.0115231	1.77751	2	0.00040623	11	2.04825e-05
2	1	0	1	0	2401.3	0.0192744	0.0190217	1.84685	2	0.000746826	11	3.51302e-05
2	1	0	1	0	2401.49	0.0267671	0.0265076	1.89942	2	0.00109885	11	5.03492e-05
2	1	0	1	0	2401.67	0.034258	0.0339969	1.95892	2	0.0014608	11	6.65971e-05
2	1	0	1	0	2401.86	0.0417472	0.0414999	2.02913	2	0.00183356	11	8.42086e-05
2	1	0	1	0	2402.05	0.0492417	0.0489651	2.10663	2	0.00222119	11	0.000103151
2	1	0	1	0	2402.24	0.0567309	0.0564555	2.23731	2	0.0026289	11	0.000126309
2	1	0	1	0	2402.42	0.0642219	0.063942	2.40211	2	0.00306443	11	0.000153596
2	1	0	1	0	2402.61	0.0717146	0.0714357	2.62194	2	0.00353654	11	0.0001873
2	1	0	1	0	2402.8	0.079202	0.0789625	2.86999	2	0.00405069	11	0.000226622
2	1	0	1	0	2402.98	0.0866947	0.0864218	3.10284	2	0.00461015	11	0.000268153
2	1	0	1	0	2403.17	0.0941856	0.0939287	3.34238	2	0.00521459	11	0.000313945
2	1	0	1	0	2403.36	0.101675	0.101411	3.58491	2	0.00586301	11	0.000363547
2	1	0	1	0	2403.55	0.10917	0.108887	3.9014	2	0.00656484	11	0.000424809
2	1	0	1	0	2403.73	0.116658	0.116405	4.38291	2	0.00733884	11	0.000510194
2	1	0	1	0	2403.92	0.124147	0.123927	5.06647	2	0.00822132	11	0.000627872
2	1	0	1	0	2404.11	0.131642	0.131374	5.88268	2	0.00924715	11	0.000772832
2	1	0	1	0	2404.3	0.13913	0.138862	6.62393	2	0.0104208	11	0.000919813
2	1	0	1	0	2404.48	0.146622	0.146358	7.01609	2	0.0117057	11	0.00102686
2	1	0	1	0	2404.67	0.154115	0.153844	6.84242	2	0.0130166	11	0.00105267
2	1	0	1	0	2404.86	0.161602	0.161336	5.85286	2	0.0142189	11	0.000944276
2	1	0	1	0	2405.04	0.169095	0.168826	4.36535	2	0.0151737	11	0.000736985
2	1	0	1	0	2405.23	0.176586	0.176327	3.34705	2	0.0158859	11	0.000590175
2	1	0	1	0	2405.42	0.184075	0.183856	2.8186	2	0.0164589	11	0.000518215
2	1	0	1	0	2405.61	0.19157	0.191282	2.47645	2	0.0169536	11	0.000473699
2	1	0	1	0	2405.79	0.199059	0.198806	2.27077	2	0.0173981	11	0.000451442
2	1	0	1	0	2405.98	0.20655	0.206283	2.12702	2	0.0178098	11	0.000438767
2	1	0	1	0	2406.17	0.214043	0.213763	2.02332	2	0.0181994	11	0.00043251
2	1	0	1	0	2406.36	0.22153	0.221318	1.9598	2	0.0185723	11	0.000433738
2	1	0	1	0	2406.54	0.229023	0.228748	1.89906	2	0.0189333	11	0.000434407
2	1	0	1	0	2406.73	0.236514	0.236293	1.84523	2	0.019285	11	0.000436015
2	1	0	1	0	2406.92	0.244003	0.243744	1.82258	2	0.0196291	11	0.000444241
2	1	0	1	0	2407.1	0.251498	0.251257	1.78545	2	0.0199676	11	0.000448607
2	1	0	1	0	2407.29	0.258987	0.258775	1.75942	2	0.0203002	11	0.000455294
2	1	0	1	0	2407.48	0.266474	0.266243	1.74006	2	0.020628	11	0.000463279
2	1	0	1	0	2407.67	0.27397	0.273728	1.70586	2	0.0209518	11	0.000466942
2	1	0	1	0	2407.85	0.281459	0.281208	1.68755	2	0.0212708	11	0.000474553
2	1	0	1	0	2408.04	0.28895	0.288668	1.66973	2	0.0215863	11	0.000481999
2	1	0	1	0	2408.23	0.296443	0.296227	1.65266	2	0.021898	11	0.000489562
2	0	0	1	0	2408.39	0.297189	0.296924	-0.523716	2	0.0220352	11	-0.000155504
2	0	0	1	0	2408.57	0.2897	0.289402	-0.710159	2	0.0219184	11	-0.000205522
2	0	0	1	0	2408.76	0.282208	0.281907	-0.823329	2	0.0217734	11	-0.000232102
2	0	0	1	0	2408.95	0.274716	0.274439	-0.920528	2	0.021609	11	-0.000252629
2	0	0	1	0	2409.14	0.267228	0.26695	-0.983472	2	0.0214293	11	-0.000262538
2	0	0	1	0	2409.32	0.259736	0.259449	-1.0566	2	0.0212363	11	-0.000274134
2	0	0	1	0	2409.51	0.252245	0.251927	-1.12706	2	0.0210311	11	-0.000283938
2	0	0	1	0	2409.7	0.244756	0.244456	-1.18588	2	0.0208148	11	-0.000289896
2	0	0	1	0	2409.89	0.237261	0.236965	-1.23801	2	0.020587	11	-0.000293367
2	0	0	1	0	2410.07	0.229772	0.229459	-1.30834	2	0.0203482	11	-0.000300211
2	0	0	1	0	2410.26	0.222281	0.221977	-1.35975	2	0.0200973	11	-0.000301832
2	0	0	1	0	2410.45	0.214788	0.21452	-1.4516	2	0.0198327	11	-0.000311397
2	0	0	1	0	2410.63	0.207301	0.206995	-1.54223	2	0.0195525	11	-0.000319233
2	0	0	1	0	2410.82	0.199808	0.19951	-1.65084	2	0.0192524	11	-0.000329358
2	0	0	1	0	2411.01	0.192317	0.192019	-1.80944	2	0.0189279	11	-0.000347447
2	0	0	1	0	2411.2	0.184828	0.184523	-2.01944	2	0.0185705	11	-0.000372632
2	0	0	1	0	2411.38	0.177333	0.177025	-2.29659	2	0.0181666	11	-0.000406552
2	0	0	1	0	2411.57	0.169844	0.169556	-2.74407	2	0.017696	11	-0.000465275
2	0	0	1	0	2411.76	0.162357	0.162046	-3.40323	2	0.0171237	11	-0.000551478
2	0	0	1	0	2411.95	0.154861	0.154582	-4.35374	2	0.0164005	11	-0.000673012
2	0	0	1	0	2412.13	0.147372	0.147079	-5.45443	2	0.0154838	11	-0.000802232
2	0	0	1	0	2412.32	0.13988	0.139579	-6.3981	2	0.0143689	11	-0.000893039
2	0	0	1	0	2412.51	0.132389	0.13211	-6.9406	2	0.0131098	11	-0.00091692
2	0	0	1	0	2412.69	0.1249	0.12462	-6.91135	2	0.0118021	11	-0.00086129
2	0	0	1	0	2412.88	0.117404	0.117108	-6.24491	2	0.0105606	11	-0.000731327
2	0	0	1	0	2413.07	0.109917	0.109577	-5.30888	2	0.00947841	11	-0.000581733
2	0	0	1	0	2413.26	0.102427	0.10216	-4.60241	2	0.00855615	11	-0.000470182
2	0	0	1	0	2413.44	0.094933	0.0946423	-4.16569	2	0.00773711	11	-0.00039425
2	0	0	1	0	2413.63	0.0874438	0.0870881	-3.90927	2	0.00698094	11	-0.000340451
2	0	0	1	0	2413.82	0.0799528	0.0796479	-3.69131	2	0.00626862	11	-0.000294005
2	0	0	1	0	2414.01	0.0724601	0.0721262	-3.46488	2	0.00559712	11	-0.000249908
2	0	0	1	0	2414.19	0.0649727	0.0646728	-3.2363	2	0.00496955	11	-0.0002093
2	0	0	1	0	2414.38	0.05748	0.0571781	-3.01668	2	0.00438485	11	-0.000172488
2	0	0	1	0	2414.57	0.049989	0.0496673	-2.83347	2	0.00383627	11	-0.000140731
2	0	0	1	0	2414.75	0.0424999	0.0421787	-2.74121	2	0.00331388	11	-0.000115621
2	0	0	1	0	2414.94	0.0350054	0.0347345	-2.68114	2	0.00280583	11	-9.31279e-05
2	0	0	1	0	2415.13	0.0275162	0.0272095	-2.66521	2	0.00230546	11	-7.2519e-05
2	0	0	1	0	2415.32	0.0200288	0.019692	-2.67442	2	0.00180589	11	-5.26645e-05
2	0	0	1	0	2415.5	0.0125325	0.0121883	-2.70074	2	0.00130175	11	-3.29174e-05
2	0	0	1	0	2415.69	0.00504513	0.00471288	-2.74383	2	0.000791108	11	-1.29313e-05
2	0	0	1	0	3632.48	0.00129787	0.000972955	0.239382	3	-2.40202e-05	11	2.32908e-07
2	1	0	1	0	3632.67	0.00878703	0.00848023	1.67676	3	0.000239807	11	1.42193e-05
2	1	0	1	0	3632.85	0.0162816	0.0160574	1.77684	3	0.000564957	11	2.85313e-05
2	1	0	1	0	3633.04	0.0237707	0.0234938	1.8528	3	0.000905817	11	4.35294e-05
2	1	0	1	0	3633.23	0.0312581	0.0309256	1.90908	3	0.00125913	11	5.90394e-05
2	1	0	1	0	3633.41	0.0387544	0.0384131	1.98392	3	0.00162549	11	7.62085e-05
2	1	0	1	0	3633.6	0.0462427	0.0459972	2.09279	3	0.00200784	11	9.62627e-05
2	1	0	1	0	3633.79	0.0537345	0.0534535	2.23415	3	0.00241217	11	0.000119423
2	1	0	1	0	3633.98	0.0612264	0.0609247	2.40354	3	0.00284623	11	0.000146435
2	1	0	1	0	3634.16	0.0687146	0.0684591	2.63004	3	0.00331778	11	0.00018005
2	1	0	1	0	3634.35	0.0762109	0.0758816	2.86054	3	0.0038331	11	0.000217063
2	1	0	1	0	3634.54	0.0836983	0.0833612	3.10109	3	0.00439324	11	0.000258511
2	1	0	1	0	3634.73	0.0911875	0.0909254	3.34032	3	0.00499674	11	0.00030372
2	1	0	1	0	3634.91	0.098682	0.0984018	3.55088	3	0.00564238	11	0.000349413
2	1	0	1	0	3635.1	0.106171	0.105912	3.81904	3	0.00633171	11	0.000404481
2	1	0	1	0	3635.29	0.113662	0.113386	4.18968	3	0.0070794	11	0.00047505
2	1	0	1	0	3635.47	0.121155	0.120902	4.7236	3	0.00791284	11	0.000571092
2	1	0	1	0	3635.66	0.128642	0.128357	5.40776	3	0.00886162	11	0.000694127
2	1	0	1	0	3635.85	0.136135	0.135834	6.08638	3	0.00994069	11	0.000826738
2	1	0	1	0	3636.04	0.143626	0.143357	6.57411	3	0.0111314	11	0.000942441
2	1	0	1	0	3636.22	0.151115	0.15084	6.67691	3	0.0123795	11	0.00100714
2	1	0	1	0	3636.41	0.15861	0.158334	6.11063	3	0.0135901	11	0.000967518
2	1	0	1	0	3636.6	0.166099	0.16579	4.85753	3	0.0146246	11	0.000805329
2	1	0	1	0	3636.79	0.173586	0.173316	3.67911	3	0.0154173	11	0.000637647
2	1	0	1	0	3636.97	0.181082	0.180808	2.98204	3	0.0160357	11	0.000539178
2	1	0	1	0	3637.16	0.18857	0.18832	2.57755	3	0.0165536	11	0.000485404
2	1	0	1	0	3637.35	0.196063	0.195808	2.32358	3	0.0170112	11	0.000454976
2	1	0	1	0	3637.53	0.203554	0.203303	2.14909	3	0.0174301	11	0.000436916
2	1	0	1	0	3637.72	0.211043	0.210783	2.04674	3	0.0178237	11	0.000431419
2	1	0	1	0	3637.91	0.218538	0.218229	1.96663	3	0.0181999	11	0.000429175
2	1	0	1	0	3638.1	0.226026	0.225752	1.90679	3	0.0185632	11	0.000430461
2	1	0	1	0	3638.28	0.233515	0.233231	1.86926	3	0.0189166	11	0.00043597
2	1	0	1	0	3638.47	0.24101	0.240737	1.82231	3	0.0192628	11	0.000438698
2	1	0	1	0	3638.66	0.248499	0.248215	1.78928	3	0.0196024	11	0.000444126
2	1	0	1	0	3638.85	0.25599	0.25573	1.76785	3	0.0199365	11	0.00045209
2	1	0	1	0	3639.03	0.263483	0.263211	1.7388	3	0.020266	11	0.000457671
2	1	0	1	0	3639.22	0.27097	0.270708	1.72719	3	0.0205909	11	0.000467564
2	1	0	1	0	3639.41	0.278463	0.278164	1.7003	3	0.020912	11	0.000472963
2	1	0	1	0	3639.59	0.285954	0.285646	1.67356	3	0.0212292	11	0.000478045
2	1	0	1	0	3639.78	0.293443	0.293219	1.65716	3	0.0215425	11	0.00048591
2	1	0	0	0	3639.95	0.299962	0.299632	1.55723	3	0.021815	11	0.000466595
2	0	0	1	0	3640.13	0.292696	0.292416	-0.595115	3	0.021753	11	-0.000174021
2	0	0	1	0	3640.32	0.285205	0.284908	-0.753615	3	0.0216245	11	-0.000214711
2	0	0	1	0	3640.5	0.277716	0.277409	-0.855458	3	0.0214729	11	-0.000237312
2	0	0	1	0	3640.69	0.270221	0.269955	-0.939907	3	0.0213041	11	-0.000253733
2	0	0	1	0	3640.88	0.262732	0.262447	-1.01083	3	0.0211212	11	-0.000265288
2	0	0	1	0	3641.06	0.255241	0.254927	-1.06777	3	0.0209257	11	-0.000272204
2	0	0	1	0	3641.25	0.247748	0.247453	-1.12868	3	0.020719	11	-0.000279297
2	0	0	1	0	3641.44	0.240261	0.239924	-1.18646	3	0.0205012	11	-0.00028466
2	0	0	1	0	3641.63	0.232768	0.232472	-1.24712	3	0.0202724	11	-0.000289921
2	0	0	1	0	3641.81	0.225276	0.224986	-1.3137	3	0.0200322	11	-0.000295564
2	0	0	1	0	3642	0.217788	0.21745	-1.37823	3	0.0197799	11	-0.000299696
2	0	0	1	0	3642.19	0.210293	0.209996	-1.45687	3	0.0195137	11	-0.000305938
2	0	0	1	0	3642.38	0.202804	0.202535	-1.55137	3	0.0192315	11	-0.000314206
2	0	0	1	0	3642.56	0.195316	0.194972	-1.6682	3	0.0189295	11	-0.000325252
2	0	0	1	0	3642.75	0.187821	0.187503	-1.83402	3	0.0186009	11	-0.000343885
2	0	0	1	0	3642.94	0.180332	0.180032	-2.06239	3	0.0182373	11	-0.000371295
2	0	0	1	0	3643.12	0.172841	0.172522	-2.37557	3	0.0178231	11	-0.000409838
2	0	0	1	0	3643.31	0.165348	0.165056	-2.86893	3	0.0173339	11	-0.000473535
2	0	0	1	0	3643.5	0.157861	0.157609	-3.59755	3	0.0167319	11	-0.000567007
2	0	0	1	0	3643.69	0.150368	0.150103	-4.54993	3	0.0159692	11	-0.000682959
2	0	0	1	0	3643.87	0.142877	0.142574	-5.56857	3	0.0150186	11	-0.000793932
2	0	0	1	0	3644.06	0.135388	0.13509	-6.32828	3	0.0138995	11	-0.000854886
2	0	0	1	0	3644.25	0.127893	0.127593	-6.67106	3	0.0126728	11	-0.000851178
2	0	0	1	0	3644.44	0.120404	0.120097	-6.48863	3	0.011432	11	-0.000779265
2	0	0	1	0	3644.62	0.112913	0.112624	-5.84418	3	0.0102702	11	-0.000658195
2	0	0	1	0	3644.81	0.10542	0.105102	-5.0926	3	0.00924624	11	-0.000535242
2	0	0	1	0	3645	0.0979329	0.0976139	-4.53399	3	0.00834841	11	-0.00044258
2	0	0	1	0	3645.18	0.0904402	0.0901579	-4.1924	3	0.0075333	11	-0.000377978
2	0	0	1	0	3645.37	0.0829492	0.0826856	-3.9613	3	0.00677071	11	-0.000327542
2	0	0	1	0	3645.56	0.0754601	0.0751539	-3.74056	3	0.00604874	11	-0.000281118
2	0	0	1	0	3645.75	0.0679646	0.0676409	-3.52222	3	0.00536615	11	-0.000238246
2	0	0	1	0	3645.93	0.0604764	0.0601317	-3.28276	3	0.00472832	11	-0.000197398
2	0	0	1	0	3646.12	0.0529881	0.052697	-3.05096	3	0.0041358	11	-0.000160777
2	0	0	1	0	3646.31	0.0454927	0.0452177	-2.87406	3	0.00358103	11	-0.000129958
2	0	0	1	0	3646.5	0.0380044	0.0376608	-2.76632	3	0.0030542	11	-0.000104182
2	0	0	1	0	3646.68	0.0305126	0.0301983	-2.68708	3	0.00254351	11	-8.11454e-05
2	0	0	1	0	3646.87	0.0230198	0.0227197	-2.67657	3	0.0020403	11	-6.08109e-05
2	0	0	1	0	3647.06	0.0155325	0.0152187	-2.68592	3	0.00153833	11	-4.08763e-05
2	0	0	1	0	3647.24	0.00803616	0.00775628	-2.71369	3	0.00103157	11	-2.10482e-05
2	0	0	1	0	3647.43	0.000548773	0.000183217	-2.78634	3	0.000516223	11	-5.10506e-07
2	1	0	1	0	4864.22	0.00579422	0.00550125	1.54697	4	0.0001096	11	8.51029e-06
2	1	0	1	0	4864.41	0.0132825	0.012993	1.73266	4	0.000421247	11	2.25125e-05
2	1	0	1	0	4864.59	0.0207743	0.0205076	1.82792	4	0.000755897	11	3.74863e-05
2	1	0	1	0	4864.78	0.0282671	0.028003	1.90143	4	0.00110585	11	5.32458e-05
2	1	0	1	0	4864.97	0.0357545	0.0355219	1.98948	4	0.0014703	11	7.06698e-05
2	1	0	1	0	4865.16	0.0432472	0.0429764	2.09388	4	0.00185254	11	8.99874e-05
2	1	0	1	0	4865.34	0.0507381	0.0504732	2.22059	4	0.00225743	11	0.00011208
2	1	0	1	0	4865.53	0.0582273	0.0579431	2.4152	4	0.00269248	11	0.000139944
2	1	0	1	0	4865.72	0.0657218	0.0654543	2.63799	4	0.00316615	11	0.000172668
2	1	0	1	0	4865.9	0.073211	0.072927	2.87757	4	0.00368325	11	0.000209853
2	1	0	1	0	4866.09	0.0807019	0.0804385	3.12069	4	0.00424551	11	0.000251023
2	1	0	1	0	4866.28	0.0881947	0.0879448	3.3334	4	0.00485038	11	0.000293156
2	1	0	1	0	4866.47	0.0956821	0.0954071	3.53128	4	0.00549437	11	0.000336909
2	1	0	1	0	4866.65	0.103175	0.102895	3.77779	4	0.00617938	11	0.000388715
2	1	0	1	0	4866.84	0.110666	0.110345	4.0937	4	0.00691575	11	0.00045172
2	1	0	1	0	4867.03	0.118155	0.117858	4.57415	4	0.00772566	11	0.000539099
2	1	0	1	0	4867.22	0.12565	0.12535	5.16133	4	0.00863725	11	0.000646973
2	1	0	1	0	4867.4	0.133139	0.132853	5.76183	4	0.00966169	11	0.000765479
2	1	0	1	0	4867.59	0.140626	0.140379	6.23613	4	0.0107888	11	0.000875421
2	1	0	1	0	4867.78	0.148122	0.147858	6.43117	4	0.0119831	11	0.000950901
2	1	0	1	0	4867.96	0.155611	0.15536	6.08577	4	0.0131661	11	0.000945485
2	1	0	1	0	4868.15	0.163102	0.162844	5.0866	4	0.0142214	11	0.000828323
2	1	0	1	0	4868.34	0.170595	0.170343	3.93124	4	0.0150619	11	0.00066966
2	1	0	1	0	4868.53	0.178083	0.177796	3.16348	4	0.0157208	11	0.000562455
2	1	0	1	0	4868.71	0.185579	0.185303	2.70874	4	0.0162687	11	0.000501938
2	1	0	1	0	4868.9	0.193066	0.1928	2.39632	4	0.0167453	11	0.000462012
2	1	0	1	0	4869.09	0.200555	0.200294	2.21067	4	0.017176	11	0.000442784
2	1	0	1	0	4869.28	0.20805	0.207816	2.08101	4	0.0175773	11	0.000432468
2	1	0	1	0	4869.46	0.215539	0.215244	1.98585	4	0.0179579	11	0.000427443
2	1	0	1	0	4869.65	0.22303	0.222771	1.91644	4	0.0183245	11	0.000426928
2	1	0	1	0	4869.84	0.230523	0.230271	1.87767	4	0.0186805	11	0.000432374
2	1	0	1	0	4870.02	0.23801	0.23772	1.8301	4	0.0190283	11	0.000435051
2	1	0	1	0	4870.21	0.245503	0.245248	1.81135	4	0.0193697	11	0.00044423
2	1	0	1	0	4870.4	0.252994	0.252753	1.77226	4	0.0197055	11	0.000447945
2	1	0	1	0	4870.59	0.260483	0.260221	1.74927	4	0.0200363	11	0.000455197
2	1	0	1	0	4870.77	0.267977	0.26768	1.72352	4	0.0203627	11	0.00046135
2	1	0	1	0	4870.96	0.275467	0.275185	1.70383	4	0.0206848	11	0.000468868
2	1	0	1	0	4871.15	0.282954	0.282681	1.68485	4	0.0210028	11	0.000476276
2	1	0	1	0	4871.34	0.29045	0.290176	1.67076	4	0.0213176	11	0.000484814
2	1	0	1	0	4871.52	0.297939	0.29765	1.64384	4	0.0216284	11	0.000489288
2	0	0	1	0	4871.68	0.295692	0.295398	-0.501739	4	0.0216966	11	-0.000148213
2	0	0	1	0	4871.87	0.288205	0.287935	-0.700977	4	0.0215814	11	-0.000201836
2	0	0	1	0	4872.06	0.280709	0.280399	-0.813346	4	0.0214376	11	-0.000228061
2	0	0	1	0	4872.24	0.27322	0.272926	-0.908629	4	0.0212751	11	-0.000247989
2	0	0	1	0	4872.43	0.265728	0.265421	-0.982129	4	0.0210972	11	-0.000260677
2	0	0	1	0	4872.62	0.258236	0.257928	-1.04431	4	0.0209064	11	-0.000269356
2	0	0	1	0	4872.81	0.250748	0.250483	-1.10924	4	0.020704	11	-0.000277846
2	0	0	1	0	4872.99	0.243252	0.242907	-1.16264	4	0.0204905	11	-0.000282413
2	0	0	1	0	4873.18	0.235765	0.235465	-1.21453	4	0.0202668	11	-0.00028598
2	0	0	1	0	4873.37	0.228275	0.227947	-1.2834	4	0.0200324	11	-0.000292548
2	0	0	1	0	4873.55	0.220781	0.220499	-1.33603	4	0.0197865	11	-0.000294593
2	0	0	1	0	4873.74	0.213292	0.21299	-1.4099	4	0.0195284	11	-0.000300296
2	0	0	1	0	4873.93	0.205801	0.205539	-1.49842	4	0.0192562	11	-0.000307984
2	0	0	1	0	4874.12	0.198308	0.198014	-1.58518	4	0.0189674	11	-0.000313887
2	0	0	1	0	4874.3	0.190821	0.190507	-1.71233	4	0.0186576	11	-0.000326211
2	0	0	1	0	4874.49	0.183328	0.183029	-1.89167	4	0.01832	11	-0.000346231
2	0	0	1	0	4874.68	0.175837	0.175532	-2.1336	4	0.0179432	11	-0.000374516
2	0	0	1	0	4874.87	0.168348	0.168044	-2.51584	4	0.0175098	11	-0.000422771
2	0	0	1	0	4875.05	0.160853	0.160566	-3.07519	4	0.0169895	11	-0.000493772
2	0	0	1	0	4875.24	0.153364	0.153065	-3.88409	4	0.0163407	11	-0.000594518
2	0	0	1	0	4875.43	0.145877	0.14559	-4.85553	4	0.0155222	11	-0.000706917
2	0	0	1	0	4875.61	0.13838	0.138062	-5.75132	4	0.014523	11	-0.000794036
2	0	0	1	0	4875.8	0.130893	0.130606	-6.32579	4	0.0133853	11	-0.00082619
2	0	0	1	0	4875.99	0.1234	0.123116	-6.46085	4	0.0121793	11	-0.000795434
2	0	0	1	0	4876.18	0.115909	0.11556	-6.14579	4	0.0109923	11	-0.000710208
2	0	0	1	0	4876.36	0.10842	0.108095	-5.51379	4	0.00989797	11	-0.000596013
2	0	0	1	0	4876.55	0.100924	0.100636	-4.88101	4	0.00892549	11	-0.000491208
2	0	0	1	0	4876.74	0.0934366	0.0930814	-4.43719	4	0.00805505	11	-0.00041302
2	0	0	1	0	4876.93	0.0859483	0.0856198	-4.1661	4	0.00725009	11	-0.000356701
2	0	0	1	0	4877.11	0.0784529	0.0781508	-3.96299	4	0.00648867	11	-0.000309711
2	0	0	1	0	4877.3	0.0709637	0.0705864	-3.75917	4	0.00576508	11	-0.000265346
2	0	0	1	0	4877.49	0.0634727	0.0631839	-3.53917	4	0.00508071	11	-0.000223618
2	0	0	1	0	4877.67	0.05598	0.0556511	-3.28045	4	0.0044417	11	-0.000182561
2	0	0	1	0	4877.86	0.0484926	0.0481868	-3.04792	4	0.00384875	11	-0.000146869
2	0	0	1	0	4878.05	0.0409999	0.0406774	-2.87991	4	0.00329394	11	-0.000117147
2	0	0	1	0	4878.24	0.033509	0.0332046	-2.76755	4	0.00276556	11	-9.18955e-05
2	0	0	1	0	4878.42	0.0260198	0.0257442	-2.71048	4	0.00225313	11	-6.97791e-05
2	0	0	1	0	4878.61	0.0185253	0.0182376	-2.69083	4	0.00174693	11	-4.90743e-05
2	0	0	1	0	4878.8	0.0110361	0.0107247	-2.70082	4	0.00124139	11	-2.89654e-05
2	0	0	1	0	4878.99	0.00354515	0.0032512	-2.7352	4	0.000731015	11	-8.89268e-06
2	1	0	1	0	6095.77	0.00279427	0.00249841	1.11382	5	-9.73934e-07	11	2.78278e-06
2	1	0	1	0	6095.96	0.010287	0.0100177	1.67726	5	0.000284726	11	1.68022e-05
2	1	0	1	0	6096.15	0.017778	0.0174905	1.80893	5	0.00061282	11	3.1639e-05
2	1	0	1	0	6096.33	0.0252671	0.0249517	1.88223	5	0.000959515	11	4.6965e-05
2	1	0	1	0	6096.52	0.0327616	0.0324525	1.97744	5	0.001323	11	6.41731e-05
2	1	0	1	0	6096.71	0.0402508	0.039936	2.09336	5	0.00170437	11	8.36002e-05
2	1	0	1	0	6096.9	0.0477382	0.0474281	2.22838	5	0.0021093	11	0.000105688
2	1	0	1	0	6097.08	0.0552345	0.0549565	2.42105	5	0.00254503	11	0.000133052
2	1	0	1	0	6097.27	0.0627219	0.0624358	2.63706	5	0.00301821	11	0.000164647
2	1	0	1	0	6097.46	0.0702146	0.069962	2.86814	5	0.00353522	11	0.000200661
2	1	0	1	0	6097.65	0.0777064	0.0773553	3.1099	5	0.00409675	11	0.000240567
2	1	0	1	0	6097.83	0.0851947	0.084914	3.32278	5	0.00470016	11	0.000282151
2	1	0	1	0	6098.02	0.0926901	0.0923971	3.51732	5	0.00534272	11	0.00032499
2	1	0	1	0	6098.21	0.100178	0.0998676	3.73967	5	0.00602236	11	0.000373471
2	1	0	1	0	6098.39	0.107667	0.107355	4.0121	5	0.00674705	11	0.000430721
2	1	0	1	0	6098.58	0.115162	0.114873	4.42054	5	0.00753663	11	0.000507801
2	1	0	1	0	6098.77	0.122651	0.122363	4.95425	5	0.00841443	11	0.000606217
2	1	0	1	0	6098.96	0.130142	0.129863	5.50228	5	0.00939544	11	0.000714544
2	1	0	1	0	6099.14	0.137635	0.137343	5.98547	5	0.0104741	11	0.000822061
2	1	0	1	0	6099.33	0.145122	0.144837	6.24631	5	0.0116229	11	0.000904696
2	1	0	1	0	6099.52	0.152615	0.152299	6.11177	5	0.0127902	11	0.000930817
2	1	0	1	0	6099.71	0.160106	0.159803	5.33555	5	0.0138739	11	0.000852637
2	1	0	1	0	6099.89	0.167595	0.167312	4.17884	5	0.0147653	11	0.000699171
2	1	0	1	0	6100.08	0.17509	0.174806	3.3117	5	0.0154618	11	0.000578906
2	1	0	1	0	6100.27	0.182579	0.182282	2.78307	5	0.0160289	11	0.000507303
2	1	0	1	0	6100.45	0.19007	0.189713	2.43794	5	0.0165165	11	0.000462509
2	1	0	1	0	6100.64	0.197563	0.197261	2.22337	5	0.016953	11	0.000438585
2	1	0	1	0	6100.83	0.20505	0.204742	2.08283	5	0.0173563	11	0.000426443
2	1	0	1	0	6101.02	0.212543	0.212267	1.99382	5	0.0177391	11	0.000423222
2	1	0	1	0	6101.2	0.220034	0.219816	1.93541	5	0.0181067	11	0.000425433
2	1	0	1	0	6101.39	0.227523	0.22723	1.87602	5	0.0184635	11	0.000426286
2	1	0	1	0	6101.58	0.235018	0.23473	1.83925	5	0.0188124	11	0.000431727
2	1	0	1	0	6101.77	0.242506	0.242178	1.80249	5	0.019154	11	0.000436523
2	1	0	1	0	6101.95	0.249995	0.249748	1.77154	5	0.0194902	11	0.000442439
2	1	0	1	0	6102.14	0.25749	0.257199	1.75185	5	0.0198216	11	0.000450575
2	1	0	1	0	6102.33	0.264978	0.26472	1.73015	5	0.0201483	11	0.000458005
2	1	0	1	0	6102.51	0.27247	0.272201	1.70313	5	0.020471	11	0.000463595
2	1	0	1	0	6102.7	0.279963	0.279691	1.69074	5	0.0207896	11	0.000472886
2	1	0	1	0	6102.89	0.28745	0.287167	1.66198	5	0.0211042	11	0.000477265
2	1	0	1	0	6103.08	0.294943	0.294688	1.64695	5	0.0214154	11	0.000485335
2	0	0	1	0	6103.23	0.298689	0.298376	-0.118047	5	0.0216381	11	-3.52224e-05
2	0	0	1	0	6103.42	0.291196	0.290858	-0.643548	5	0.0215434	11	-0.000187181
2	0	0	1	0	6103.61	0.283708	0.283403	-0.788009	5	0.0214075	11	-0.000223324
2	0	0	1	0	6103.8	0.276216	0.275957	-0.88741	5	0.0212497	11	-0.000244887
2	0	0	1	0	6103.98	0.268725	0.268388	-0.960335	5	0.0210757	11	-0.000257742
2	0	0	1	0	6104.17	0.261236	0.260941	-1.0301	5	0.0208886	11	-0.000268794
2	0	0	1	0	6104.36	0.253741	0.25344	-1.08563	5	0.0206894	11	-0.000275142
2	0	0	1	0	6104.55	0.246252	0.24593	-1.14419	5	0.0204797	11	-0.00028139
2	0	0	1	0	6104.73	0.238761	0.238448	-1.20268	5	0.0202593	11	-0.000286777
2	0	0	1	0	6104.92	0.231268	0.230959	-1.25442	5	0.0200287	11	-0.000289721
2	0	0	1	0	6105.11	0.223781	0.223434	-1.30976	5	0.0197879	11	-0.000292646
2	0	0	1	0	6105.29	0.216288	0.216002	-1.36722	5	0.0195356	11	-0.000295321
2	0	0	1	0	6105.48	0.208797	0.208503	-1.43992	5	0.0192713	11	-0.000300229
2	0	0	1	0	6105.67	0.201308	0.200948	-1.53537	5	0.0189923	11	-0.00030853
2	0	0	1	0	6105.86	0.193813	0.19349	-1.64037	5	0.0186957	11	-0.000317394
2	0	0	1	0	6106.04	0.186324	0.186002	-1.77251	5	0.0183767	11	-0.000329691
2	0	0	1	0	6106.23	0.178836	0.178506	-1.97151	5	0.018027	11	-0.000351926
2	0	0	1	0	6106.42	0.171341	0.171028	-2.23695	5	0.0176332	11	-0.000382581
2	0	0	1	0	6106.61	0.163852	0.163581	-2.67586	5	0.017174	11	-0.00043772
2	0	0	1	0	6106.79	0.156361	0.156055	-3.33482	5	0.016614	11	-0.000520416
2	0	0	1	0	6106.98	0.148868	0.148571	-4.21339	5	0.0159085	11	-0.000625987
2	0	0	1	0	6107.17	0.14138	0.141082	-5.16456	5	0.0150297	11	-0.000728625
2	0	0	1	0	6107.35	0.133888	0.133578	-5.90754	5	0.0139883	11	-0.000789117
2	0	0	1	0	6107.54	0.126397	0.126052	-6.27656	5	0.0128397	11	-0.000791175
2	0	0	1	0	6107.73	0.118908	0.118655	-6.24093	5	0.011661	11	-0.00074052
2	0	0	1	0	6107.92	0.111413	0.111095	-5.83095	5	0.0105247	11	-0.000647788
2	0	0	1	0	6108.1	0.103924	0.103609	-5.24598	5	0.00948688	11	-0.000543533
2	0	0	1	0	6108.29	0.0964329	0.0961313	-4.71734	5	0.00855625	11	-0.000453484
2	0	0	1	0	6108.48	0.0889402	0.0886001	-4.36094	5	0.00770793	11	-0.00038638
2	0	0	1	0	6108.67	0.0814528	0.0811329	-4.12347	5	0.00691414	11	-0.000334549
2	0	0	1	0	6108.85	0.0739601	0.0736611	-3.93142	5	0.00615868	11	-0.000289593
2	0	0	1	0	6109.04	0.0664691	0.0661471	-3.73172	5	0.0054394	11	-0.000246842
2	0	0	1	0	6109.23	0.05898	0.0586705	-3.50775	5	0.00476043	11	-0.000205801
2	0	0	1	0	6109.42	0.0514846	0.0511835	-3.24851	5	0.00412689	11	-0.00016627
2	0	0	1	0	6109.6	0.0439963	0.0436638	-3.02473	5	0.00353948	11	-0.000132071
2	0	0	1	0	6109.79	0.0365089	0.0362037	-2.86327	5	0.00298879	11	-0.000103661
2	0	0	1	0	6109.98	0.0290126	0.0287256	-2.75632	5	0.00246224	11	-7.91769e-05
2	0	0	1	0	6110.16	0.0215243	0.0212355	-2.71317	5	0.00194978	11	-5.76155e-05
2	0	0	1	0	6110.35	0.0140325	0.0137553	-2.7114	5	0.00144218	11	-3.7296e-05
2	0	0	1	0	6110.54	0.00654064	0.00625827	-2.72298	5	0.000933427	11	-1.70412e-05
2	0	0	0	0	7327.33	2.44065e-05	-0.000268062	-2.34257	6	0.0000000E+000	11	6.27953e-07
2	1	0	1	0	7327.51	0.00729063	0.00700642	1.61773	6	0.000167391	11	1.13345e-05
2	1	0	1	0	7327.7	0.014778	0.0144939	1.76998	6	0.000487461	11	2.56539e-05
2	1	0	1	0	7327.89	0.0222743	0.0219869	1.86733	6	0.000829279	11	4.10568e-05
2	1	0	1	0	7328.07	0.0297626	0.0294991	1.96412	6	0.00118826	11	5.79397e-05
2	1	0	1	0	7328.26	0.0372544	0.0369934	2.07425	6	0.00156641	11	7.67336e-05
2	1	0	1	0	7328.45	0.0447472	0.0444414	2.21061	6	0.00196867	11	9.82427e-05
2	1	0	1	0	7328.64	0.0522345	0.0519555	2.40364	6	0.00240164	11	0.000124882
2	1	0	1	0	7328.82	0.0597309	0.0594504	2.6261	6	0.00287322	11	0.000156122
2	1	0	1	0	7329.01	0.0672182	0.0669264	2.86846	6	0.00338762	11	0.000191976
2	1	0	1	0	7329.2	0.0747074	0.0744344	3.10088	6	0.00394632	11	0.000230812
2	1	0	1	0	7329.39	0.0822019	0.0819114	3.30059	6	0.00454716	11	0.000270356
2	1	0	1	0	7329.57	0.0896911	0.0894318	3.49101	6	0.00518461	11	0.000312208
2	1	0	1	0	7329.76	0.097182	0.0968917	3.69724	6	0.00585898	11	0.000358232
2	1	0	1	0	7329.95	0.104675	0.104399	3.95392	6	0.00657452	11	0.000412783
2	1	0	1	0	7330.13	0.112162	0.111837	4.33304	6	0.00734828	11	0.000484595
2	1	0	1	0	7330.32	0.119655	0.119379	4.82166	6	0.00820413	11	0.000575606
2	1	0	1	0	7330.51	0.127146	0.126841	5.316	6	0.00915526	11	0.000674286
2	1	0	1	0	7330.7	0.134635	0.134341	5.77022	6	0.0101961	11	0.000775179
2	1	0	1	0	7330.88	0.14213	0.141828	6.06342	6	0.0113093	11	0.000859963
2	1	0	1	0	7331.07	0.149619	0.149347	6.03613	6	0.0124506	11	0.000901478
2	1	0	1	0	7331.26	0.157106	0.156811	5.4045	6	0.0135329	11	0.000847483
2	1	0	1	0	7331.45	0.164602	0.164339	4.25724	6	0.0144412	11	0.00069963
2	1	0	1	0	7331.63	0.172091	0.171844	3.31373	6	0.0151443	11	0.000569444
2	1	0	1	0	7331.82	0.179582	0.179282	2.76239	6	0.01571	11	0.000495247
2	1	0	1	0	7332.01	0.187074	0.186795	2.42236	6	0.0161939	11	0.000452485
2	1	0	1	0	7332.19	0.194563	0.19427	2.21498	6	0.0166266	11	0.000430305
2	1	0	1	0	7332.38	0.202059	0.201798	2.07186	6	0.0170276	11	0.000418097
2	1	0	1	0	7332.57	0.209546	0.209292	1.97979	6	0.0174076	11	0.000414355
2	1	0	1	0	7332.76	0.217035	0.216799	1.91673	6	0.0177727	11	0.000415545
2	1	0	1	0	7332.94	0.22453	0.22422	1.86519	6	0.018128	11	0.000418213
2	1	0	1	0	7333.13	0.232019	0.231714	1.83378	6	0.0184747	11	0.000424911
2	1	0	1	0	7333.32	0.23951	0.239262	1.7972	6	0.0188153	11	0.000430003
2	1	0	1	0	7333.51	0.247003	0.246708	1.76888	6	0.0191503	11	0.000436396
2	1	0	1	0	7333.69	0.25449	0.254255	1.74971	6	0.0194801	11	0.000444871
2	1	0	1	0	7333.88	0.261983	0.261716	1.72179	6	0.0198058	11	0.000450619
2	1	0	1	0	7334.07	0.269474	0.269188	1.70088	6	0.0201274	11	0.000457855
2	1	0	1	0	7334.25	0.276963	0.276683	1.68636	6	0.0204452	11	0.000466587
2	1	0	1	0	7334.44	0.284458	0.284163	1.6607	6	0.0207596	11	0.000471911
2	1	0	1	0	7334.63	0.291947	0.291665	1.64674	6	0.0210702	11	0.000480296
2	1	0	1	0	7334.82	0.299434	0.299152	1.62542	6	0.0213774	11	0.000486248
2	0	0	1	0	7334.98	0.294196	0.293857	-0.574919	6	0.0213618	11	-0.000168944
2	0	0	1	0	7335.16	0.286701	0.286385	-0.738146	6	0.0212362	11	-0.000211394
2	0	0	1	0	7335.35	0.279212	0.278895	-0.846164	6	0.0210862	11	-0.000235991
2	0	0	1	0	7335.54	0.271725	0.271403	-0.927136	6	0.0209188	11	-0.000251627
2	0	0	1	0	7335.72	0.264228	0.263963	-1.0031	6	0.0207371	11	-0.000264781
2	0	0	1	0	7335.91	0.256741	0.256424	-1.05761	6	0.0205435	11	-0.000271197
2	0	0	1	0	7336.1	0.249248	0.248912	-1.11631	6	0.0203388	11	-0.000277861
2	0	0	1	0	7336.29	0.241756	0.24141	-1.16306	6	0.020124	11	-0.000280775
2	0	0	1	0	7336.47	0.234268	0.233939	-1.21724	6	0.0198994	11	-0.00028476
2	0	0	1	0	7336.66	0.226772	0.226487	-1.2818	6	0.0196644	11	-0.000290311
2	0	0	1	0	7336.85	0.219284	0.218942	-1.33911	6	0.0194193	11	-0.000293187
2	0	0	1	0	7337.04	0.211796	0.211487	-1.39461	6	0.0191629	11	-0.000294941
2	0	0	1	0	7337.22	0.204301	0.203942	-1.47567	6	0.0188934	11	-0.000300951
2	0	0	1	0	7337.41	0.196812	0.196489	-1.55209	6	0.0186095	11	-0.000304969
2	0	0	1	0	7337.6	0.189321	0.189022	-1.671	6	0.0183066	11	-0.000315855
2	0	0	1	0	7337.78	0.181828	0.181531	-1.83048	6	0.0179792	11	-0.00033229
2	0	0	1	0	7337.97	0.174341	0.174026	-2.04149	6	0.0176173	11	-0.000355272
2	0	0	1	0	7338.16	0.166848	0.166537	-2.3779	6	0.0172046	11	-0.000396007
2	0	0	1	0	7338.35	0.159357	0.159095	-2.88644	6	0.0167145	11	-0.000459217
2	0	0	1	0	7338.53	0.151868	0.151565	-3.63619	6	0.0161061	11	-0.00055112
2	0	0	1	0	7338.72	0.144373	0.144108	-4.57449	6	0.0153369	11	-0.000659218
2	0	0	1	0	7338.91	0.136884	0.136598	-5.43965	6	0.0143956	11	-0.000743046
2	0	0	1	0	7339.1	0.129393	0.129093	-6.01549	6	0.013316	11	-0.000776554
2	0	0	1	0	7339.28	0.1219	0.121622	-6.18712	6	0.0121661	11	-0.000752493
2	0	0	1	0	7339.47	0.114413	0.114113	-5.96953	6	0.0110222	11	-0.0006812
2	0	0	1	0	7339.66	0.10692	0.106614	-5.48103	6	0.00994592	11	-0.000584356
2	0	0	1	0	7339.84	0.0994284	0.0991143	-4.92391	6	0.00897122	11	-0.00048803
2	0	0	1	0	7340.03	0.0919401	0.0916202	-4.49415	6	0.00809147	11	-0.000411754
2	0	0	1	0	7340.22	0.0844447	0.0841323	-4.22717	6	0.00727556	11	-0.000355641
2	0	0	1	0	7340.41	0.0769565	0.0766129	-4.02971	6	0.00650341	11	-0.000308728
2	0	0	1	0	7340.59	0.0694682	0.0692036	-3.85094	6	0.00576462	11	-0.000266499
2	0	0	1	0	7340.78	0.0619728	0.0616604	-3.65448	6	0.00505977	11	-0.000225337
2	0	0	1	0	7340.97	0.0544836	0.0541995	-3.41828	6	0.00439635	11	-0.000185269
2	0	0	1	0	7341.16	0.0469927	0.0466474	-3.17467	6	0.00377808	11	-0.00014809
2	0	0	1	0	7341.34	0.0394999	0.0391839	-2.97342	6	0.00320332	11	-0.00011651
2	0	0	1	0	7341.53	0.0320125	0.0317155	-2.81743	6	0.00266188	11	-8.9356e-05
2	0	0	1	0	7341.72	0.0245198	0.0242236	-2.73513	6	0.00214145	11	-6.62547e-05
2	0	0	1	0	7341.9	0.0170289	0.0166902	-2.69838	6	0.00163219	11	-4.50364e-05
2	0	0	1	0	7342.09	0.0095397	0.00924288	-2.70292	6	0.00112581	11	-2.49828e-05
2	0	0	1	0	7342.28	0.00204518	0.00165976	-2.80137	6	0.00061557	11	-4.6496e-06
2	1	0	1	0	8559.07	0.00429425	0.00398724	1.33005	7	3.7837e-05	11	5.30322e-06
2	1	0	1	0	8559.25	0.011787	0.0115221	1.66343	7	0.000329191	11	1.91662e-05
2	1	0	1	0	8559.44	0.0192744	0.0189747	1.7917	7	0.000654789	11	3.3997e-05
2	1	0	1	0	8559.63	0.0267671	0.0264532	1.90426	7	0.00100171	11	5.03738e-05
2	1	0	1	0	8559.82	0.034258	0.0339448	2.01744	7	0.00136974	11	6.84815e-05
2	1	0	1	0	8560	0.0417472	0.0414575	2.17461	7	0.00176248	11	9.0154e-05
2	1	0	1	0	8560.19	0.0492417	0.0489479	2.35077	7	0.00218638	11	0.000115065
2	1	0	1	0	8560.38	0.0567309	0.0564531	2.5595	7	0.00264706	11	0.000144492
2	1	0	1	0	8560.56	0.0642218	0.0639035	2.79348	7	0.00314972	11	0.000178513
2	1	0	1	0	8560.75	0.0717146	0.0714256	3.02074	7	0.00369589	11	0.000215758
2	1	0	1	0	8560.94	0.079202	0.0788898	3.22844	7	0.00428214	11	0.000254691
2	1	0	1	0	8561.13	0.0866947	0.0864009	3.41755	7	0.00490584	11	0.000295279
2	1	0	1	0	8561.31	0.0941856	0.0938939	3.60138	7	0.00556383	11	0.000338147
2	1	0	1	0	8561.5	0.101675	0.101367	3.81574	7	0.00625856	11	0.000386791
2	1	0	1	0	8561.69	0.10917	0.108883	4.14352	7	0.00700433	11	0.000451157
2	1	0	1	0	8561.88	0.116658	0.116333	4.57328	7	0.00782034	11	0.000532026
2	1	0	1	0	8562.06	0.124147	0.123871	5.0429	7	0.00872199	11	0.000624671
2	1	0	1	0	8562.25	0.131642	0.131381	5.45387	7	0.00970692	11	0.000716535
2	1	0	1	0	8562.44	0.13913	0.138848	5.76439	7	0.0107593	11	0.000800372
2	1	0	1	0	8562.62	0.146622	0.146339	5.85432	7	0.0118536	11	0.000856713
2	1	0	1	0	8562.81	0.154115	0.15384	5.45627	7	0.0129241	11	0.000839394
2	1	0	1	0	8563	0.161602	0.16131	4.47489	7	0.0138616	11	0.000721845
2	1	0	1	0	8563.19	0.169095	0.168778	3.48924	7	0.0146021	11	0.000588907
2	1	0	1	0	8563.37	0.176586	0.176351	2.85645	7	0.0151916	11	0.000503739
2	1	0	1	0	8563.56	0.184075	0.18381	2.48804	7	0.01569	11	0.000457327
2	1	0	1	0	8563.75	0.19157	0.191303	2.24815	7	0.0161328	11	0.000430076
2	1	0	1	0	8563.94	0.199059	0.198758	2.10214	7	0.0165406	11	0.000417817
2	1	0	1	0	8564.12	0.20655	0.2063	2.01112	7	0.016926	11	0.000414894
2	1	0	1	0	8564.31	0.214043	0.21379	1.94206	7	0.0172967	11	0.000415194
2	1	0	1	0	8564.5	0.22153	0.221311	1.89025	7	0.0176559	11	0.000418332
2	1	0	1	0	8564.68	0.229023	0.228775	1.85144	7	0.0180067	11	0.000423563
2	1	0	1	0	8564.87	0.236514	0.236227	1.80996	7	0.0183507	11	0.000427562
2	1	0	1	0	8565.06	0.244003	0.243732	1.78689	7	0.0186886	11	0.000435523
2	1	0	1	0	8565.25	0.251498	0.251208	1.76326	7	0.019022	11	0.000442946
2	1	0	1	0	8565.43	0.258987	0.258712	1.73833	7	0.0193505	11	0.000449726
2	1	0	1	0	8565.62	0.266474	0.266204	1.71807	7	0.0196748	11	0.000457359
2	1	0	1	0	8565.81	0.27397	0.273664	1.69258	7	0.0199956	11	0.000463198
2	1	0	1	0	8566	0.281459	0.281178	1.67454	7	0.020312	11	0.000470843
2	1	0	1	0	8566.18	0.28895	0.288686	1.66038	7	0.0206252	11	0.000479329
2	1	0	1	0	8566.37	0.296443	0.296151	1.64303	7	0.0209349	11	0.000486583
2	0	0	1	0	8566.53	0.297189	0.296904	-0.375119	7	0.0210871	11	-0.000111374
2	0	0	1	0	8566.72	0.2897	0.289403	-0.648927	7	0.0209851	11	-0.000187802
2	0	0	1	0	8566.9	0.282208	0.281927	-0.775679	7	0.0208501	11	-0.000218684
2	0	0	1	0	8567.09	0.274716	0.274399	-0.875662	7	0.0206946	11	-0.000240281
2	0	0	1	0	8567.28	0.267228	0.266936	-0.941818	7	0.0205235	11	-0.000251405
2	0	0	1	0	8567.47	0.259736	0.259466	-1.01083	7	0.0203393	11	-0.000262276
2	0	0	1	0	8567.65	0.252245	0.251951	-1.07569	7	0.0201434	11	-0.000271021
2	0	0	1	0	8567.84	0.244756	0.244434	-1.12629	7	0.0199369	11	-0.000275304
2	0	0	1	0	8568.03	0.237261	0.236947	-1.17706	7	0.0197202	11	-0.000278902
2	0	0	1	0	8568.21	0.229772	0.229472	-1.23413	7	0.0194938	11	-0.000283199
2	0	0	1	0	8568.4	0.222281	0.221988	-1.27462	7	0.0192574	11	-0.00028295
2	0	0	1	0	8568.59	0.214788	0.214481	-1.34509	7	0.0190105	11	-0.000288496
2	0	0	1	0	8568.78	0.207301	0.207024	-1.40872	7	0.0187522	11	-0.000291637
2	0	0	1	0	8568.96	0.199808	0.199511	-1.48441	7	0.0184804	11	-0.000296156
2	0	0	1	0	8569.15	0.192317	0.191992	-1.58117	7	0.0181932	11	-0.000303572
2	0	0	1	0	8569.34	0.184828	0.184526	-1.69838	7	0.0178862	11	-0.000313397
2	0	0	1	0	8569.53	0.177333	0.177063	-1.86146	7	0.0175525	11	-0.000329595
2	0	0	1	0	8569.71	0.169844	0.169521	-2.11687	7	0.017181	11	-0.000358854
2	0	0	1	0	8569.9	0.162357	0.162057	-2.47864	7	0.0167524	11	-0.000401679
2	0	0	1	0	8570.09	0.154861	0.154537	-3.06679	7	0.016235	11	-0.000473933
2	0	0	1	0	8570.27	0.147372	0.147051	-3.87898	7	0.0155874	11	-0.000570407
2	0	0	1	0	8570.46	0.13988	0.139564	-4.76301	7	0.0147771	11	-0.000664746
2	0	0	1	0	8570.65	0.132389	0.132055	-5.48681	7	0.0138115	11	-0.000724559
2	0	0	1	0	8570.84	0.1249	0.124557	-5.87763	7	0.0127407	11	-0.000732098
2	0	0	1	0	8571.02	0.117404	0.117097	-5.90672	7	0.01163	11	-0.000691659
2	0	0	1	0	8571.21	0.109917	0.10962	-5.63837	7	0.0105451	11	-0.000618077
2	0	0	1	0	8571.4	0.102427	0.102082	-5.17416	7	0.00953161	11	-0.000528188
2	0	0	1	0	8571.59	0.094933	0.0946389	-4.70235	7	0.00860678	11	-0.000445025
2	0	0	1	0	8571.77	0.0874438	0.0871375	-4.37201	7	0.00775879	11	-0.000380967
2	0	0	1	0	8571.96	0.0799528	0.0796636	-4.14576	7	0.00696171	11	-0.000330266
2	0	0	1	0	8572.15	0.0724601	0.0721165	-3.98245	7	0.00620033	11	-0.0002872
2	0	0	1	0	8572.33	0.0649727	0.0646881	-3.8145	7	0.00547045	11	-0.000246753
2	0	0	1	0	8572.52	0.05748	0.0571794	-3.60916	7	0.00477416	11	-0.00020637
2	0	0	1	0	8572.71	0.049989	0.0496664	-3.37568	7	0.00411838	11	-0.000167658
2	0	0	1	0	8572.9	0.0424999	0.0421724	-3.13981	7	0.00350771	11	-0.000132414
2	0	0	1	0	8573.08	0.0350054	0.0346818	-2.94757	7	0.00293687	11	-0.000102227
2	0	0	1	0	8573.27	0.0275162	0.0272034	-2.82556	7	0.0023972	11	-7.68648e-05
2	0	0	1	0	8573.46	0.0200288	0.0197317	-2.74127	7	0.00187658	11	-5.409e-05
2	0	0	1	0	8573.65	0.0125325	0.0122089	-2.71778	7	0.00136486	11	-3.31811e-05
2	0	0	1	0	8573.83	0.00504513	0.00471492	-2.71504	7	0.000855922	11	-1.28012e-05
2	0	0	1	0	9790.62	0.00129787	0.000993917	0.0653125	8	-2.768e-05	11	6.49151e-08
2	1	0	1	0	9790.81	0.00878703	0.0084407	1.6564	8	0.000219274	11	1.39812e-05
2	1	0	1	0	9790.99	0.0162816	0.0160332	1.80596	8	0.000545329	11	2.89554e-05
2	1	0	1	0	9791.18	0.0237707	0.0234887	1.91185	8	0.00089374	11	4.49069e-05
2	1	0	1	0	9791.37	0.0312581	0.0309738	2.02295	8	0.00126341	11	6.26585e-05
2	1	0	1	0	9791.56	0.0387544	0.0384465	2.17768	8	0.00165806	11	8.37241e-05
2	1	0	1	0	9791.74	0.0462427	0.045972	2.35184	8	0.00208287	11	0.000108119
2	1	0	1	0	9791.93	0.0537345	0.0534701	2.56858	8	0.00254407	11	0.000137342
2	1	0	1	0	9792.12	0.0612264	0.0609446	2.79126	8	0.00304619	11	0.000170112
2	1	0	1	0	9792.31	0.0687146	0.0684349	3.00789	8	0.00359023	11	0.000205844
2	1	0	1	0	9792.49	0.0762109	0.0759016	3.21136	8	0.0041748	11	0.000243747
2	1	0	1	0	9792.68	0.0836983	0.0834068	3.40027	8	0.00479555	11	0.000283606
2	1	0	1	0	9792.87	0.0911875	0.090916	3.58343	8	0.00544977	11	0.000325791
2	1	0	1	0	9793.05	0.098682	0.0983616	3.79282	8	0.00614063	11	0.000373068
2	1	0	1	0	9793.24	0.106171	0.105869	4.08865	8	0.00687671	11	0.00043286
2	1	0	1	0	9793.43	0.113662	0.113328	4.48635	8	0.00767894	11	0.000508429
2	1	0	1	0	9793.62	0.121155	0.120846	4.93125	8	0.00856186	11	0.000595922
2	1	0	1	0	9793.8	0.128642	0.128335	5.3255	8	0.00952403	11	0.000683448
2	1	0	1	0	9793.99	0.136135	0.135844	5.65159	8	0.0105548	11	0.000767734
2	1	0	1	0	9794.18	0.143626	0.143353	5.82502	8	0.0116335	11	0.000835036
2	1	0	1	0	9794.37	0.151115	0.150836	5.56922	8	0.0127089	11	0.000840037
2	1	0	1	0	9794.55	0.15861	0.158273	4.69719	8	0.0136804	11	0.00074344
2	1	0	1	0	9794.74	0.166099	0.165765	3.63877	8	0.0144579	11	0.00060318
2	1	0	1	0	9794.93	0.173586	0.173311	2.93215	8	0.0150688	11	0.000508174
2	1	0	1	0	9795.11	0.181082	0.180807	2.52064	8	0.0155772	11	0.00045575
2	1	0	1	0	9795.3	0.18857	0.188275	2.26312	8	0.0160232	11	0.000426088
2	1	0	1	0	9795.49	0.196063	0.195757	2.10525	8	0.016432	11	0.000412117
2	1	0	1	0	9795.68	0.203554	0.20328	2.00577	8	0.0168171	11	0.000407733
2	1	0	1	0	9795.86	0.211043	0.210771	1.9344	8	0.0171866	11	0.000407716
2	1	0	1	0	9796.05	0.218538	0.218238	1.88288	8	0.0175452	11	0.000410914
2	1	0	1	0	9796.24	0.226026	0.225765	1.84861	8	0.0178952	11	0.000417352
2	1	0	1	0	9796.43	0.233515	0.233217	1.81291	8	0.0182384	11	0.000422801
2	1	0	1	0	9796.61	0.24101	0.24072	1.78556	8	0.0185763	11	0.000429821
2	1	0	1	0	9796.8	0.248499	0.248245	1.75894	8	0.018909	11	0.000436648
2	1	0	1	0	9796.99	0.25599	0.255725	1.73338	8	0.0192374	11	0.000443268
2	1	0	1	0	9797.17	0.263483	0.263174	1.71788	8	0.0195618	11	0.000452103
2	1	0	1	0	9797.36	0.27097	0.270674	1.70252	8	0.0198822	11	0.000460827
2	1	0	1	0	9797.55	0.278463	0.278173	1.67679	8	0.0201992	11	0.000466437
2	1	0	1	0	9797.74	0.285954	0.285684	1.66417	8	0.0205127	11	0.000475425
2	1	0	1	0	9797.92	0.293443	0.293176	1.63656	8	0.0208224	11	0.000479802
2	1	0	0	0	9798.09	0.299962	0.299746	1.5387	8	0.0210919	11	0.000461221
2	0	0	1	0	9798.27	0.292696	0.292384	-0.608699	8	0.0210332	11	-0.000177974
2	0	0	1	0	9798.46	0.285205	0.28493	-0.755366	8	0.0209028	11	-0.000215226
2	0	0	1	0	9798.64	0.277716	0.277392	-0.862742	8	0.0207496	11	-0.000239318
2	0	0	1	0	9798.83	0.270221	0.269928	-0.942744	8	0.0205797	11	-0.000254473
2	0	0	1	0	9799.02	0.262732	0.262455	-1.00669	8	0.0203964	11	-0.00026421
2	0	0	1	0	9799.21	0.255241	0.25489	-1.07101	8	0.0202012	11	-0.000272989
2	0	0	1	0	9799.39	0.247748	0.247444	-1.11683	8	0.0199954	11	-0.000276353
2	0	0	1	0	9799.58	0.240261	0.239966	-1.17283	8	0.0197797	11	-0.000281439
2	0	0	1	0	9799.77	0.232768	0.232446	-1.22794	8	0.0195543	11	-0.00028543
2	0	0	1	0	9799.96	0.225276	0.22496	-1.27457	8	0.0193192	11	-0.000286728
2	0	0	1	0	9800.14	0.217788	0.217486	-1.33123	8	0.0190743	11	-0.000289523
2	0	0	1	0	9800.33	0.210293	0.210012	-1.39173	8	0.0188186	11	-0.000292279
2	0	0	1	0	9800.52	0.202804	0.202512	-1.44974	8	0.0185513	11	-0.00029359
2	0	0	1	0	9800.7	0.195316	0.194968	-1.53957	8	0.0182703	11	-0.000300167
2	0	0	1	0	9800.89	0.187821	0.187521	-1.63922	8	0.0179719	11	-0.000307387
2	0	0	1	0	9801.08	0.180332	0.180009	-1.77694	8	0.0176518	11	-0.000319865
2	0	0	1	0	9801.27	0.172841	0.172531	-1.97723	8	0.0173009	11	-0.000341134
2	0	0	1	0	9801.45	0.165348	0.165046	-2.26555	8	0.0169048	11	-0.00037392
2	0	0	1	0	9801.64	0.157861	0.157547	-2.71952	8	0.0164399	11	-0.000428452
2	0	0	1	0	9801.83	0.150368	0.150008	-3.42011	8	0.0158675	11	-0.000513042
2	0	0	1	0	9802.02	0.142877	0.142558	-4.30106	8	0.0151459	11	-0.00061315
2	0	0	1	0	9802.2	0.135388	0.135101	-5.1469	8	0.0142587	11	-0.000695351
2	0	0	1	0	9802.39	0.127893	0.127557	-5.72595	8	0.013234	11	-0.000730387
2	0	0	1	0	9802.58	0.120404	0.120147	-5.91809	8	0.0121375	11	-0.00071104
2	0	0	1	0	9802.76	0.112913	0.112596	-5.78129	8	0.0110357	11	-0.00065095
2	0	0	1	0	9802.95	0.10542	0.10507	-5.40688	8	0.00998427	11	-0.000568102
2	0	0	1	0	9803.14	0.0979329	0.0976161	-4.92782	8	0.00901578	11	-0.000481035
2	0	0	1	0	9803.33	0.0904402	0.0900973	-4.52836	8	0.00813197	11	-0.000407993
2	0	0	1	0	9803.51	0.0829492	0.0826527	-4.24851	8	0.00731184	11	-0.000351151
2	0	0	1	0	9803.7	0.0754601	0.0751263	-4.05382	8	0.00653435	11	-0.000304549
2	0	0	1	0	9803.89	0.0679646	0.0676956	-3.89722	8	0.00578801	11	-0.000263825
2	0	0	1	0	9804.08	0.0604764	0.0601898	-3.72351	8	0.00507309	11	-0.000224117
2	0	0	1	0	9804.26	0.0529881	0.0526537	-3.5281	8	0.00439346	11	-0.000185767
2	0	0	1	0	9804.45	0.0454927	0.0451587	-3.29218	8	0.00375431	11	-0.000148671
2	0	0	1	0	9804.64	0.0380044	0.037662	-3.06816	8	0.00315883	11	-0.000115553
2	0	0	1	0	9804.82	0.0305126	0.0302425	-2.89587	8	0.00259984	11	-8.75783e-05
2	0	0	1	0	9805.01	0.0230198	0.0226926	-2.79759	8	0.00206662	11	-6.34845e-05
2	0	0	1	0	9805.2	0.0155325	0.0151867	-2.73567	8	0.00154877	11	-4.15458e-05
2	0	0	1	0	9805.39	0.00803616	0.00769766	-2.73101	8	0.00103606	11	-2.10224e-05
2	0	0	1	0	9805.57	0.000548773	0.000168561	-2.76554	8	0.000521644	11	-4.66161e-07
2	0	0	1	0	9805.59	-2.44065e-05	-0.000306236	-2.76685	8	0.0004851	11	8.47309e-07