File: Figure_codes/Fig_3-5/rawdata_trumpetplot_data/before 10th/20221101_1-115_002_TrumpetPlot_ParaChange_14_CV_C01_2.csv
mode,ox/red,error,control changes,counter inc.,time/s,control/V,Ewe/V,<I>/mA,cycle number,(Q-Qo)/C,I Range,P/W,log(|I|),Tafel slope mV/dec,alpha_eff,dI/d(E-IR),E-IR/V,
2,1,0,1,0,3679.55,2.44065e-05,-0.000649808,23.0611,3,0.0000000E+000,10,-1.49853e-05,-1.63712, , , ,-0.000649808,
2,1,0,1,0,3679.55,0.00188327,0.00151342,23.0952,3,7.16853e-05,10,3.49528e-05,-1.63648, , , ,0.00151342,
2,1,0,1,0,3679.56,0.00428592,0.00394281,23.7187,3,0.000165363,10,9.35185e-05,-1.62491, , , ,0.00394281,
2,1,0,1,0,3679.56,0.0066858,0.006351,24.3925,3,0.000261654,10,0.000154916,-1.61274,0.207723,0.284032,270.214,0.006351,
2,1,0,1,0,3679.56,0.00908291,0.00874433,25.072,3,0.000360655,10,0.000219238,-1.60081,0.214056,0.275629,268.747,0.00874433,
2,1,0,1,0,3679.57,0.01148,0.0111716,25.705,3,0.000462298,10,0.000287166,-1.58998,0.23515,0.250903,250.434,0.0111716,
2,1,0,1,0,3679.57,0.0138882,0.0135204,26.2927,3,0.000566351,10,0.000355488,-1.58017,0.267834,0.220285,224.697,0.0135204,
2,1,0,1,0,3679.58,0.0162853,0.0159487,26.7961,3,0.000672598,10,0.000427363,-1.57193,0.305652,0.19303,200.817,0.0159487,
2,1,0,1,0,3679.58,0.0186824,0.0183516,27.2308,3,0.000780731,10,0.000499728,-1.56494,0.354591,0.166389,176.206,0.0183516,
2,1,0,1,0,3679.58,0.0210878,0.0207693,27.6324,3,0.000890488,10,0.000573906,-1.55858,0.411557,0.143358,154.021,0.0207693,
2,1,0,1,0,3679.59,0.023485,0.0231839,27.9954,3,0.00100179,10,0.000649043,-1.55291,0.475639,0.124044,134.947,0.0231839,
2,1,0,1,0,3679.59,0.0258821,0.025556,28.2758,3,0.00111437,10,0.000722616,-1.54859,0.550095,0.107254,118.026,0.025556,
2,1,0,1,0,3679.6,0.0282792,0.0279844,28.5307,3,0.00122802,10,0.000798412,-1.54469,0.653144,0.0903323,100.377,0.0279844,
2,1,0,1,0,3679.6,0.0306874,0.0303978,28.7688,3,0.00134269,10,0.000874509,-1.54108,0.736084,0.0801539,89.7936,0.0303978,
2,1,0,1,0,3679.6,0.0330845,0.0327445,28.9551,3,0.00145814,10,0.000948121,-1.53827,0.838197,0.0703892,79.4162,0.0327445,
2,1,0,1,0,3679.61,0.0354816,0.0351633,29.1385,3,0.00157436,10,0.0010246,-1.53553,0.982117,0.0600743,68.2108,0.0351633,
2,1,0,1,0,3679.61,0.0378898,0.0375651,29.2915,3,0.00169123,10,0.00110034,-1.53326,1.08317,0.0544695,62.1876,0.03756512,
2,1,0,1,0,3679.62,0.0402869,0.0399638,29.4213,3,0.00180868,10,0.00117579,-1.53134,1.27273,0.0463571,53.1783,0.0399638,
2,1,0,1,0,3679.62,0.042684,0.0423931,29.5551,3,0.00192665,10,0.00125293,-1.52937,1.28556,0.0458945,52.9171,0.0423931,
2,1,0,1,0,3679.62,0.0450811,0.0447907,29.6504,3,0.00204509,10,0.00132806,-1.52797,1.34399,0.0438992,50.8233,0.0447907,
2,1,0,1,0,3679.63,0.0474865,0.0471406,29.7982,3,0.00216403,10,0.00140471,-1.52581,1.4015,0.0420978,48.9407,0.0471406,
2,1,0,1,0,3679.63,0.0498836,0.0495763,29.9098,3,0.00228347,10,0.00148282,-1.52419,1.25474,0.0470218,54.8938,0.0495763,
2,1,0,1,0,3679.64,0.0522807,0.0519517,30.0229,3,0.00240335,10,0.00155974,-1.52255,1.33504,0.0441934,51.8232,0.0519517,
2,1,0,1,0,3679.64,0.0546889,0.0543863,30.1772,3,0.00252374,10,0.00164123,-1.52032,1.21605,0.0485179,57.1496,0.0543863,
2,1,0,1,0,3679.64,0.057086,0.0567723,30.2974,3,0.00264473,10,0.00172005,-1.51859,1.10887,0.0532072,62.9679,0.0567723,
2,1,0,1,0,3679.65,0.0594831,0.0591295,30.4558,3,0.00276625,10,0.00180084,-1.51633,1.06393,0.0554545,65.9895,0.0591295,
2,1,0,1,0,3679.65,0.061883,0.061543,30.6269,3,0.00288843,10,0.00188487,-1.5139,0.931409,0.0633449,75.7952,0.061543,
2,1,0,1,0,3679.66,0.0642857,0.0639353,30.8073,3,0.00301135,10,0.00196967,-1.51135,0.860866,0.0685357,82.5164,0.0639353,
2,1,0,1,0,3679.66,0.0666828,0.0663679,31.0247,3,0.00313502,10,0.00205904,-1.50829,0.764071,0.077218,93.6498,0.0663679,
2,1,0,1,0,3679.66,0.0690799,0.0687336,31.2483,3,0.00325959,10,0.00214781,-1.50517,0.689913,0.0855181,104.486,0.0687336,
2,1,0,1,0,3679.67,0.0714881,0.0711811,31.5295,3,0.00338516,10,0.0022443,-1.50128,0.637559,0.0925404,114.002,0.0711811,
2,1,0,1,0,3679.67,0.0738852,0.0735447,31.8113,3,0.00351186,10,0.00233956,-1.49742,0.576939,0.102264,127.125,0.0735447,
2,1,0,1,0,3679.68,0.0762823,0.0759147,32.113,3,0.00363975,10,0.00243785,-1.49332,0.539195,0.109422,137.437,0.0759147,
2,1,0,1,0,3679.68,0.0786849,0.0783006,32.4645,3,0.00376894,10,0.00254199,-1.48859,0.502302,0.117459,149.068,0.0783006,
2,1,0,1,0,3679.68,0.0810876,0.080764,32.8465,3,0.00389961,10,0.00265282,-1.48351,0.474897,0.124237,159.405,0.080764,
2,1,0,1,0,3679.69,0.0834847,0.0831064,33.2367,3,0.00403181,10,0.00276218,-1.47838,0.453176,0.130192,169.055,0.0831064,
2,1,0,1,0,3679.69,0.0858818,0.0855697,33.6521,3,0.0041656,10,0.0028796,-1.47299,0.439969,0.1341,176.28,0.0855697,
2,1,0,1,0,3679.7,0.0882872,0.0879323,34.0928,3,0.00430114,10,0.00299785,-1.46734,0.429726,0.137297,182.768,0.0879323,
2,1,0,1,0,3679.7,0.0906843,0.090332,34.5332,3,0.00443841,10,0.00311945,-1.46176,0.404931,0.145704,196.626,0.090332,
2,1,0,1,0,3679.7,0.0930814,0.0927402,34.9974,3,0.00457752,10,0.00324567,-1.45596,0.38536,0.153104,209.642,0.0927402,
2,1,0,1,0,3679.71,0.0954841,0.0950784,35.5217,3,0.0047186,10,0.00337735,-1.44951,0.367244,0.160656,223.189,0.0950784,
2,1,0,1,0,3679.71,0.0978867,0.0974961,36.0977,3,0.00486189,10,0.00351939,-1.44252,0.352073,0.167579,236.22,0.0974961,
2,1,0,1,0,3679.72,0.100284,0.0999605,36.6821,3,0.00500752,10,0.00366677,-1.43555,0.346407,0.17032,243.904,0.0999605,
2,1,0,1,0,3679.72,0.102681,0.102336,37.2641,3,0.00515546,10,0.00381345,-1.42871,0.343101,0.171961,250.282,0.1023358,
2,1,0,1,0,3679.72,0.105086,0.104792,37.8909,3,0.00530584,10,0.00397065,-1.42147,0.343244,0.171889,254.175,0.104792,
2,1,0,1,0,3679.73,0.107483,0.107159,38.5161,3,0.00545872,10,0.00412733,-1.41436,0.339752,0.173656,260.98,0.107159,
2,1,0,1,0,3679.73,0.109881,0.109565,39.1233,3,0.00561405,10,0.00428653,-1.40756,0.34034,0.173356,264.798,0.1095646,
2,1,0,1,0,3679.74,0.112289,0.111975,39.7797,3,0.00577194,10,0.00445433,-1.40034,0.33979,0.173636,269.642,0.1119749,
2,1,0,1,0,3679.74,0.114686,0.114323,40.4146,3,0.0059324,10,0.00462031,-1.39346,0.335602,0.175804,277.448,0.114323,
2,1,0,1,0,3679.74,0.117083,0.116717,41.0935,3,0.00609546,10,0.00479631,-1.38623,0.334944,0.176149,282.657,0.116717,
2,1,0,1,0,3679.75,0.11948,0.119147,41.782,3,0.00626128,10,0.00497822,-1.37901,0.333474,0.176925,288.522,0.119147,
2,1,0,1,0,3679.75,0.121888,0.121539,42.483,3,0.00642989,10,0.00516333,-1.37178,0.335089,0.176073,291.936,0.121539,
2,1,0,1,0,3679.76,0.124285,0.123931,43.1868,3,0.0066013,10,0.00535219,-1.36465,0.331862,0.177785,299.778,0.123931,
2,1,0,1,0,3679.76,0.126682,0.126354,43.9068,3,0.00677554,10,0.0055478,-1.35747,0.329071,0.179292,307.481,0.126354,
2,1,0,1,0,3679.76,0.129088,0.128753,44.6614,3,0.00695272,10,0.00575028,-1.35007,0.326371,0.180776,315.273,0.128753,
2,1,0,1,0,3679.77,0.131485,0.131145,45.4367,3,0.00713299,10,0.0059588,-1.34259,0.321884,0.183296,325.136,0.131145,
2,1,0,1,0,3679.77,0.133882,0.133557,46.2218,3,0.00731639,10,0.00617326,-1.33515,0.31537,0.187082,337.743,0.133557,
2,1,0,1,0,3679.78,0.136279,0.135967,47.0322,3,0.00750296,10,0.00639481,-1.3276,0.312532,0.188781,346.854,0.135967,
2,1,0,1,0,3679.78,0.138687,0.138321,47.893,3,0.00769289,10,0.00662459,-1.31973,0.306852,0.192275,359.677,0.138321,
2,1,0,1,0,3679.78,0.141085,0.140726,48.7599,3,0.00788626,10,0.00686177,-1.31194,0.298241,0.197826,376.899,0.1407257,
2,1,0,1,0,3679.79,0.143482,0.143184,49.6842,3,0.00808322,10,0.00711396,-1.30378,0.297696,0.198189,384.607,0.143184,
2,1,0,1,0,3679.79,0.145887,0.145559,50.6476,3,0.00828397,10,0.00737222,-1.29544,0.290802,0.202887,401.157,0.145559,
2,1,0,1,0,3679.8,0.148284,0.147967,51.6031,3,0.00848855,10,0.00763557,-1.28732,0.286483,0.205946,415.093,0.147967,
2,1,0,1,0,3679.8,0.150681,0.150339,52.6164,3,0.00869707,10,0.00791032,-1.27888,0.282491,0.208857,429.366,0.150339,
2,1,0,1,0,3679.8,0.153084,0.152754,53.6567,3,0.00890972,10,0.00819627,-1.27038,0.277578,0.212553,445.505,0.152754,
2,1,0,1,0,3679.81,0.155487,0.155133,54.7585,3,0.00912665,10,0.00849488,-1.26155,0.277562,0.212565,454.34,0.155133,
2,1,0,1,0,3679.81,0.157884,0.157533,55.8648,3,0.00934801,10,0.00880055,-1.25286,0.276115,0.213679,465.868,0.157533,
2,1,0,1,0,3679.82,0.160281,0.159937,56.9771,3,0.0095738,10,0.00911275,-1.2443,0.277809,0.212376,472.404,0.159937,
2,1,0,1,0,3679.82,0.162689,0.162361,58.1324,3,0.00980412,10,0.00943844,-1.23558,0.280509,0.210332,477.17,0.162361,
2,1,0,1,0,3679.82,0.165086,0.164733,59.2935,3,0.0100391,10,0.00976762,-1.22699,0.280724,0.210171,486.273,0.164733,
2,1,0,1,0,3679.83,0.167483,0.167156,60.4567,3,0.0102787,10,0.0101057,-1.21856,0.284237,0.207573,489.62,0.167156,
2,1,0,1,0,3679.83,0.169886,0.169555,61.654,3,0.010523,10,0.0104537,-1.21004,0.291651,0.202296,486.286,0.169555,
2,1,0,1,0,3679.84,0.172286,0.17191,62.8078,3,0.0107721,10,0.0107973,-1.20199,0.299334,0.197104,482.631,0.17191,
2,1,0,1,0,3679.84,0.174683,0.174316,63.9536,3,0.0110257,10,0.0111481,-1.19414,0.308438,0.191287,477.113,0.1743162,
2,1,0,1,0,3679.84,0.17708,0.176742,65.0832,3,0.0112839,10,0.011503,-1.18653,0.322249,0.183088,464.646,0.1767424,
2,1,0,1,0,3679.85,0.179488,0.179128,66.2216,3,0.0115466,10,0.0118622,-1.179,0.336381,0.175396,452.518,0.1791283,
2,1,0,1,0,3679.85,0.181885,0.181577,67.2993,3,0.0118138,10,0.01222,-1.17199,0.355813,0.165817,434.585,0.1815768,
2,1,0,1,0,3679.86,0.184282,0.183943,68.3097,3,0.0120851,10,0.0125651,-1.16552,0.381939,0.154475,410.99,0.183943,
2,1,0,1,0,3679.86,0.186688,0.186379,69.2713,3,0.0123604,10,0.0129107,-1.15945,0.416914,0.141516,381.683,0.186379,
2,1,0,1,0,3679.86,0.189085,0.188714,70.1613,3,0.0126394,10,0.0132405,-1.1539,0.465215,0.126823,346.235,0.1887144,
2,1,0,1,0,3679.87,0.191482,0.191143,70.9505,3,0.0129217,10,0.0135617,-1.14904,0.537039,0.109862,303.187,0.191143,
2,1,0,1,0,3679.87,0.193879,0.193514,71.6236,3,0.013207,10,0.0138601,-1.14494,0.676074,0.0872686,242.94,0.1935138,
2,1,0,1,0,3679.88,0.196287,0.195957,72.1751,3,0.0134947,10,0.0141432,-1.14161,0.923061,0.0639178,179.118,0.195957,
2,1,0,1,0,3679.88,0.198684,0.198395,72.5131,3,0.0137842,10,0.0143862,-1.13958,1.6091,0.0366665,103.203,0.198395,
2,1,0,1,0,3679.88,0.201081,0.200722,72.6664,3,0.0140746,10,0.0145858,-1.13867,15.7494,0.00374616,10.5595,0.200722,
2,1,0,1,0,3679.89,0.20349,0.203167,72.6198,3,0.0143652,10,0.0147539,-1.13895,-1.87802,-0.031416,-88.3861,0.203167,
2,1,0,1,0,3679.89,0.205887,0.205591,72.2768,3,0.014655,10,0.0148594,-1.141,-0.819546,-0.0719911,-201.411,0.205591,
2,1,0,1,0,3679.9,0.208284,0.207972,71.6666,3,0.0149429,10,0.0149047,-1.14468,-0.503807,-0.117108,-324.703,0.207972,
2,1,0,1,0,3679.9,0.210681,0.210402,70.7168,3,0.0152277,10,0.014879,-1.15048,-0.359078,-0.16431,-449.453,0.210402,
2,1,0,1,0,3679.9,0.213086,0.212794,69.4937,3,0.0155081,10,0.0147879,-1.15805,-0.272376,-0.216612,-581.895,0.212794,
2,1,0,1,0,3679.91,0.215484,0.215221,67.9483,3,0.0157829,10,0.0146239,-1.16782,-0.220271,-0.267852,-703.23,0.215221,
2,1,0,1,0,3679.91,0.217881,0.217581,66.0755,3,0.0160509,10,0.0143768,-1.17996,-0.182412,-0.323443,-825.88,0.217581,
2,1,0,1,0,3679.92,0.220289,0.220036,63.9421,3,0.0163107,10,0.0140695,-1.19421,-0.155441,-0.379565,-937.912,0.220036,
2,1,0,1,0,3679.92,0.222686,0.222447,61.5216,3,0.0165615,10,0.0136853,-1.21097,-0.136359,-0.432682,-1029.5,0.222447,
2,1,0,1,0,3679.92,0.225083,0.22487,58.8987,3,0.0168021,10,0.0132446,-1.22989,-0.120854,-0.488191,-1113.21,0.22487,
2,1,0,1,0,3679.93,0.227483,0.227242,56.1291,3,0.0170319,10,0.0127549,-1.25081,-0.109267,-0.539962,-1174.19,0.227242,
2,1,0,1,0,3679.93,0.229886,0.229648,53.2412,3,0.0172504,10,0.0122268,-1.27375,-0.101058,-0.583821,-1205.81,0.2296482,
2,1,0,1,0,3679.94,0.232283,0.232008,50.2956,3,0.0174572,10,0.011669,-1.29847,-0.0954645,-0.618031,-1208.31,0.232008,
2,1,0,1,0,3679.94,0.23468,0.234436,47.364,3,0.0176522,10,0.0111038,-1.32455,-0.0911744,-0.647112,-1194.01,0.234436,
2,1,0,1,0,3679.94,0.237088,0.236857,44.5116,3,0.0178357,10,0.0105429,-1.35153,-0.0887882,-0.664502,-1154.27,0.236857,
2,1,0,1,0,3679.95,0.239485,0.239248,41.7789,3,0.0180079,10,0.00999552,-1.37904,-0.0869754,-0.678353,-1107.81,0.239248,
2,1,0,1,0,3679.95,0.241882,0.241634,39.1841,3,0.0181696,10,0.00946822,-1.40689,-0.08722,-0.676451,-1038.67,0.241634,
2,1,0,1,0,3679.96,0.244285,0.243997,36.7726,3,0.0183212,10,0.0089724,-1.43448,-0.0886254,-0.665724,-961.558,0.243997,
2,1,0,1,0,3679.96,0.246687,0.246407,34.5923,3,0.0184636,10,0.00852379,-1.46102,-0.0927023,-0.636446,-866.199,0.246407,
2,1,0,1,0,3679.96,0.249085,0.248775,32.6184,3,0.0185978,10,0.00811464,-1.48654,-0.0993309,-0.593974,-763.733,0.248775,
2,1,0,1,0,3679.97,0.251482,0.251208,30.8908,3,0.0187246,10,0.00776003,-1.51017,-0.105374,-0.559909,-681.945,0.251208,
2,1,0,1,0,3679.97,0.253887,0.253656,29.3956,3,0.018845,10,0.00745636,-1.53172,-0.115503,-0.51081,-591.865,0.253656,
2,1,0,1,0,3679.98,0.256284,0.255997,28.0523,3,0.0189597,10,0.0071813,-1.55203,-0.128265,-0.459985,-509.368,0.255997,
2,1,0,1,0,3679.98,0.258681,0.258367,26.941,3,0.0190695,10,0.00696067,-1.56959,-0.143402,-0.411432,-437.536,0.258367,
2,1,0,1,0,3679.98,0.261084,0.260814,25.9982,3,0.0191752,10,0.00678069,-1.58506,-0.165073,-0.357417,-366.245,0.260814,
2,1,0,1,0,3679.99,0.263487,0.263223,25.2097,3,0.0192775,10,0.00663577,-1.59843,-0.188988,-0.312189,-309.737,0.263223,
2,1,0,1,0,3679.99,0.265884,0.265591,24.5387,3,0.0193769,10,0.00651724,-1.61015,-0.219397,-0.268919,-259.566,0.2655907,
2,1,0,1,0,3680,0.268281,0.267987,23.9613,3,0.0194739,10,0.00642133,-1.62049,-0.25391,-0.232366,-218.982,0.267987,
2,1,0,1,0,3680,0.270686,0.270408,23.5078,3,0.0195687,10,0.0063567,-1.62879,-0.298039,-0.197961,-182.73,0.270408,
2,1,0,1,0,3680,0.273083,0.272786,23.1156,3,0.0196619,10,0.00630561,-1.63609,-0.360494,-0.163664,-148.447,0.272786,
2,1,0,1,0,3680.01,0.27548,0.275177,22.787,3,0.0197537,10,0.00627046,-1.64231,-0.415375,-0.14204,-126.909,0.275177,
2,1,0,1,0,3680.01,0.277889,0.277593,22.5353,3,0.0198443,10,0.00625566,-1.64714,-0.481598,-0.122509,-108.026,0.2775934,
2,1,0,1,0,3680.02,0.280286,0.280001,22.2904,3,0.0199339,10,0.00624134,-1.65188,-0.567119,-0.104035,-90.7394,0.280001,
2,1,0,1,0,3680.02,0.282683,0.282365,22.0808,3,0.0200226,10,0.00623484,-1.65599,-0.65287,-0.0903702,-78.1512,0.282365,
2,1,0,1,0,3680.02,0.28508,0.284773,21.9162,3,0.0201106,10,0.00624116,-1.65923,-0.762713,-0.0773554,-66.328,0.284773,
2,1,0,1,0,3680.03,0.287488,0.287174,21.7866,3,0.020198,10,0.00625654,-1.66181,-0.874711,-0.0674508,-57.3947,0.2871742,
2,1,0,1,0,3680.03,0.289885,0.289598,21.6538,3,0.0202849,10,0.00627092,-1.66446,-0.977349,-0.0603674,-51.0509,0.289598,
2,1,0,1,0,3680.04,0.292282,0.291996,21.528,3,0.0203712,10,0.00628609,-1.667,-1.03961,-0.056752,-47.7424,0.291996,
2,1,0,1,0,3680.04,0.294688,0.294424,21.4235,3,0.0204571,10,0.00630761,-1.66911,-1.13879,-0.0518093,-43.3658,0.294424,
2,1,0,1,0,3680.04,0.297085,0.296816,21.3262,3,0.0205426,10,0.00632997,-1.67109,-1.23674,-0.047706,-39.7906,0.296816,
2,1,0,1,0,3680.05,0.299363,0.299087,21.2424,3,0.0206235,10,0.00635331,-1.6728,-0.083482,-0.706739,-554.03,0.299087,
2,1,0,1,0,3680.05,0.300012,0.299823,21.2166,3,0.0206468,10,0.00636121,-1.67332,0.000303375,194.479,122396,0.299823,
2,1,0,1,0,3680.05,0.299243,0.299147,18.8068,3,0.0206719,10,0.00562601,-1.72568,0.00945351,6.24107,3040.22,0.299147,
2,1,0,1,0,3680.06,0.296846,0.296739,11.8491,3,0.020732,10,0.00351609,-1.92631,0.00849839,6.94249,2347.89,0.296739,
2,1,0,1,0,3680.06,0.294449,0.294251,6.54233,3,0.0207678,10,0.00192509,-2.18427,0.00701088,8.41549,2014.91,0.294251,
2,1,0,1,0,3680.06,0.292041,0.29182,2.42643,3,0.0207851,10,0.00070808,-2.61503,0.017546,3.36259,1551.33,0.29182,
2,0,0,1,0,3680.07,0.289644,0.28943,-0.773128,3,0.0207879,10,-0.000223766,-3.11175,0.103204,0.571683,1225.97,0.28943,
2,0,0,1,0,3680.07,0.287247,0.286979,-3.29181,3,0.0207793,10,-0.000944682,-2.48256,-0.0212532,-2.77605,967.653,0.286979,
2,0,0,1,0,3680.08,0.284841,0.284611,-5.27623,3,0.0207619,10,-0.00150168,-2.27768,-0.00944176,-6.24884,762.62,0.2846112,
2,0,0,1,0,3680.08,0.282444,0.282209,-6.87317,3,0.0207373,10,-0.00193967,-2.16284,-0.0216292,-2.72779,609.832,0.282209,
2,0,0,1,0,3680.08,0.280047,0.279781,-8.13138,3,0.0207071,10,-0.00227501,-2.08984,-0.0347521,-1.69774,489.554,0.279781,
2,0,0,1,0,3680.09,0.27765,0.277381,-9.14483,3,0.0206724,10,-0.0025366,-2.03882,-0.0504004,-1.17062,394.651,0.277381,
2,0,0,1,0,3680.09,0.275242,0.274959,-10.0013,3,0.0206339,10,-0.00274996,-1.99994,-0.0676655,-0.871937,327.355,0.274959,
2,0,0,1,0,3680.1,0.272845,0.272557,-10.6827,3,0.0205925,10,-0.00291163,-1.97132,-0.0878951,-0.671255,272.632,0.272557,
2,0,0,1,0,3680.1,0.270448,0.270163,-11.2798,3,0.0205485,10,-0.0030474,-1.9477,-0.11131,-0.530052,228.806,0.270163,
2,0,0,1,0,3680.1,0.268039,0.267715,-11.7803,3,0.0205023,10,-0.00315375,-1.92885,-0.13703,-0.430563,194.816,0.267715,
2,0,0,1,0,3680.11,0.265642,0.265383,-12.1925,3,0.0204543,10,-0.00323568,-1.91391,-0.16637,-0.354632,166.95,0.265383,
2,0,0,1,0,3680.11,0.263245,0.262945,-12.5552,3,0.0204047,10,-0.00330132,-1.90118,-0.195632,-0.301587,146.763,0.262945,
2,0,0,1,0,3680.12,0.260843,0.260573,-12.8809,3,0.0203538,10,-0.00335643,-1.89005,-0.223699,-0.263747,131.913,0.260573,
2,0,0,1,0,3680.12,0.258443,0.258146,-13.1847,3,0.0203016,10,-0.00340356,-1.87993,-0.253988,-0.232294,118.893,0.258146,
2,0,0,1,0,3680.12,0.256046,0.255779,-13.4594,3,0.0202483,10,-0.00344262,-1.87097,-0.280642,-0.210232,109.962,0.255779,
2,0,0,1,0,3680.13,0.253649,0.253397,-13.6903,3,0.020194,10,-0.00346909,-1.86359,-0.310675,-0.189909,101.261,0.253397,
2,0,0,1,0,3680.13,0.25124,0.250964,-13.9375,3,0.0201387,10,-0.00349782,-1.85582,-0.341505,-0.172765,93.7626,0.250964,
2,0,0,1,0,3680.14,0.248843,0.248592,-14.152,3,0.0200825,10,-0.00351808,-1.84918,-0.349668,-0.168731,93.0736,0.248592,
2,0,0,1,0,3680.14,0.246446,0.246142,-14.363,3,0.0200254,10,-0.00353533,-1.84276,-0.380131,-0.15521,86.9275,0.246142,
2,0,0,1,0,3680.14,0.244041,0.24376,-14.5873,3,0.0199675,10,-0.0035558,-1.83603,-0.397971,-0.148252,84.2019,0.24376,
2,0,0,1,0,3680.15,0.241644,0.241364,-14.7721,3,0.0199088,10,-0.00356544,-1.83056,-0.409434,-0.144101,82.986,0.241364,
2,0,0,1,0,3680.15,0.239247,0.238974,-14.9619,3,0.0198493,10,-0.00357551,-1.82501,-0.428894,-0.137563,80.3701,0.238974,
2,0,0,1,0,3680.16,0.236849,0.23658,-15.1565,3,0.019789,10,-0.00358572,-1.8194,-0.426387,-0.138372,81.8738,0.23658,
2,0,0,1,0,3680.16,0.234441,0.234148,-15.3598,3,0.019728,10,-0.00359647,-1.81361,-0.437273,-0.134927,80.8173,0.2341475,
2,0,0,1,0,3680.16,0.232044,0.231776,-15.557,3,0.0196661,10,-0.00360575,-1.80807,-0.439974,-0.134099,81.35,0.231776,
2,0,0,1,0,3680.17,0.229647,0.229346,-15.74,3,0.0196035,10,-0.00360991,-1.80299,-0.443988,-0.132887,81.6679,0.229346,
2,0,0,1,0,3680.17,0.227239,0.226966,-15.9385,3,0.0195402,10,-0.00361751,-1.79755,-0.449478,-0.131263,81.6907,0.226966,
2,0,0,1,0,3680.18,0.224842,0.224579,-16.1412,3,0.019476,10,-0.00362499,-1.79206,-0.440083,-0.134066,84.4538,0.224579,
2,0,0,1,0,3680.18,0.222445,0.222162,-16.3424,3,0.019411,10,-0.00363067,-1.78668,-0.434832,-0.135685,86.5878,0.222162,
2,0,0,1,0,3680.18,0.220047,0.219763,-16.5493,3,0.0193452,10,-0.00363693,-1.78122,-0.439545,-0.13423,86.725,0.219763,
2,0,0,1,0,3680.19,0.217642,0.217342,-16.7719,3,0.0192785,10,-0.00364524,-1.77542,-0.431186,-0.136832,89.5507,0.217342,
2,0,0,1,0,3680.19,0.215245,0.214954,-16.976,3,0.019211,10,-0.00364906,-1.77016,-0.411214,-0.143478,95.2026,0.214954,
2,0,0,1,0,3680.2,0.212848,0.212544,-17.2037,3,0.0191426,10,-0.00365655,-1.76438,-0.411943,-0.143224,96.3,0.212544,
2,0,0,1,0,3680.2,0.21044,0.210166,-17.463,3,0.0190733,10,-0.00367013,-1.75788,-0.39288,-0.150173,102.349,0.210166,
2,0,0,1,0,3680.2,0.208042,0.207773,-17.6934,3,0.019003,10,-0.00367621,-1.75219,-0.385929,-0.152878,105.638,0.207773,
2,0,0,1,0,3680.21,0.205645,0.205342,-17.9598,3,0.0189317,10,-0.0036879,-1.7457,-0.381066,-0.154829,108.644,0.205342,
2,0,0,1,0,3680.21,0.203246,0.202949,-18.2173,3,0.0188593,10,-0.00369719,-1.73952,-0.361728,-0.163106,116.151,0.202949,
2,0,0,1,0,3680.22,0.200843,0.200556,-18.5071,3,0.0187858,10,-0.0037117,-1.73266,-0.353873,-0.166726,120.583,0.200556,
2,0,0,1,0,3680.22,0.198446,0.198145,-18.8117,3,0.0187111,10,-0.00372744,-1.72557,-0.336648,-0.175257,128.779,0.198145,
2,0,0,1,0,3680.22,0.196049,0.195755,-19.1158,3,0.0186352,10,-0.00374201,-1.71861,-0.327139,-0.180351,134.781,0.195755,
2,0,0,1,0,3680.23,0.19364,0.19336,-19.4522,3,0.0185581,10,-0.00376128,-1.71103,-0.315738,-0.186864,142.089,0.19336,
2,0,0,1,0,3680.23,0.191243,0.190921,-19.8057,3,0.0184795,10,-0.00378132,-1.70321,-0.297502,-0.198318,153.57,0.190921,
2,0,0,1,0,3680.24,0.188846,0.188575,-20.1714,3,0.0183996,10,-0.00380383,-1.69526,-0.286231,-0.206127,162.673,0.188575,
2,0,0,1,0,3680.24,0.186444,0.186183,-20.5858,3,0.018318,10,-0.00383272,-1.68643,-0.274777,-0.21472,172.763,0.1861832,
2,0,0,1,0,3680.24,0.184041,0.183777,-21.0111,3,0.0182348,10,-0.00386135,-1.67755,-0.263038,-0.224302,184.237,0.183777,
2,0,0,1,0,3680.25,0.181644,0.181408,-21.4491,3,0.0181498,10,-0.00389105,-1.66859,-0.252349,-0.233803,196.37,0.1814082,
2,0,0,1,0,3680.25,0.179247,0.178941,-21.9465,3,0.018063,10,-0.00392712,-1.65863,-0.23958,-0.246264,211.579,0.178941,
2,0,0,1,0,3680.26,0.176841,0.176517,-22.484,3,0.0179741,10,-0.0039688,-1.64813,-0.227032,-0.259875,228.533,0.176517,
2,0,0,1,0,3680.26,0.174444,0.174143,-23.0494,3,0.017883,10,-0.00401389,-1.63734,-0.21729,-0.271527,244.771,0.174143,
2,0,0,1,0,3680.26,0.172047,0.171765,-23.653,3,0.0177895,10,-0.00406275,-1.62611,-0.207263,-0.284663,263.494,0.171765,
2,0,0,1,0,3680.27,0.169644,0.169366,-24.29,3,0.0176936,10,-0.00411391,-1.61457,-0.200425,-0.294375,279.909,0.169366,
2,0,0,1,0,3680.27,0.167242,0.166982,-24.9962,3,0.017595,10,-0.00417392,-1.60213,-0.192586,-0.306356,299.649,0.166982,
2,0,0,1,0,3680.28,0.164845,0.164573,-25.7282,3,0.0174935,10,-0.00423416,-1.58959,-0.184349,-0.320045,322.421,0.164573,
2,0,0,1,0,3680.28,0.162448,0.162175,-26.5267,3,0.0173889,10,-0.00430195,-1.57632,-0.179594,-0.328518,341.079,0.162175,
2,0,0,1,0,3680.28,0.160042,0.159722,-27.3996,3,0.017281,10,-0.00437631,-1.56226,-0.172373,-0.34228,366.692,0.159722,
2,0,0,1,0,3680.29,0.157645,0.157362,-28.2774,3,0.0171695,10,-0.0044498,-1.54856,-0.166703,-0.353923,391.812,0.157362,
2,0,0,1,0,3680.29,0.155248,0.154972,-29.2487,3,0.0170544,10,-0.00453274,-1.53389,-0.162175,-0.363805,416.577,0.154972,
2,0,0,1,0,3680.3,0.152845,0.152571,-30.2893,3,0.0169352,10,-0.00462128,-1.51871,-0.157369,-0.374915,444.018,0.1525715,
2,0,0,1,0,3680.3,0.150443,0.15019,-31.3704,3,0.0168118,10,-0.00471151,-1.50348,-0.154619,-0.381583,468.151,0.15019,
2,0,0,1,0,3680.3,0.148046,0.147822,-32.5135,3,0.016684,10,-0.00480621,-1.48794,-0.151471,-0.389514,495.6,0.147822,
2,0,0,1,0,3680.31,0.145648,0.145399,-33.7305,3,0.0165514,10,-0.00490438,-1.47198,-0.149583,-0.39443,520.414,0.145399,
2,0,0,1,0,3680.31,0.14324,0.143007,-35.0296,3,0.0164137,10,-0.00500947,-1.45556,-0.14856,-0.397147,543.431,0.143007,
2,0,0,1,0,3680.32,0.140843,0.140587,-36.3679,3,0.0162708,10,-0.00511285,-1.43928,-0.147865,-0.399012,566.665,0.140587,
2,0,0,1,0,3680.32,0.138446,0.138206,-37.739,3,0.0161225,10,-0.00521577,-1.42321,-0.149059,-0.395816,583.281,0.138206,
2,0,0,1,0,3680.32,0.136041,0.135774,-39.1848,3,0.0159685,10,-0.00532026,-1.40688,-0.150946,-0.390869,597.469,0.1357736,
2,0,0,1,0,3680.33,0.133644,0.133411,-40.6266,3,0.0158088,10,-0.00542003,-1.39119,-0.151782,-0.388716,616.084,0.133411,
2,0,0,1,0,3680.33,0.131246,0.130983,-42.1061,3,0.0156432,10,-0.00551517,-1.37566,-0.157067,-0.375637,616.514,0.1309827,
2,0,0,1,0,3680.34,0.128849,0.128652,-43.6252,3,0.0154715,10,-0.00561247,-1.36026,-0.159926,-0.368921,626.895,0.128652,
2,0,0,1,0,3680.34,0.126441,0.126243,-45.0608,3,0.015294,10,-0.00568859,-1.3462,-0.162211,-0.363723,639.979,0.126243,
2,0,0,1,0,3680.34,0.124044,0.123896,-46.5915,3,0.0151105,10,-0.0057725,-1.33169,-0.169134,-0.348836,634.466,0.123896,
2,0,0,1,0,3680.35,0.121647,0.121459,-48.2009,3,0.0149208,10,-0.00585445,-1.31694,-0.171792,-0.343439,644.678,0.121459,
2,0,0,1,0,3680.35,0.119241,0.119053,-49.7154,3,0.0147248,10,-0.00591877,-1.30351,-0.178722,-0.330122,639.261,0.119053,
2,0,0,1,0,3680.36,0.116844,0.116612,-51.2694,3,0.0145227,10,-0.00597863,-1.29014,-0.188121,-0.313628,626.122,0.116612,
2,0,0,1,0,3680.36,0.114447,0.114226,-52.773,3,0.0143144,10,-0.00602806,-1.27759,-0.194846,-0.302803,621.949,0.114226,
2,0,0,1,0,3680.36,0.11205,0.111837,-54.2256,3,0.0141003,10,-0.00606443,-1.2658,-0.20557,-0.287007,606.054,0.111837,
2,0,0,1,0,3680.37,0.109642,0.109502,-55.6556,3,0.0138803,10,-0.00609441,-1.25449,-0.216596,-0.272397,590.535,0.109502,
2,0,0,1,0,3680.37,0.107245,0.107078,-57.0476,3,0.0136548,10,-0.00610854,-1.24376,-0.225713,-0.261394,581.083,0.107078,
2,0,0,1,0,3680.38,0.104848,0.104661,-58.4214,3,0.0134237,10,-0.00611446,-1.23343,-0.24079,-0.245026,557.671,0.104661,
2,0,0,1,0,3680.38,0.10244,0.102266,-59.7872,3,0.0131872,10,-0.00611419,-1.22339,-0.25439,-0.231927,539.645,0.102266,
2,0,0,1,0,3680.38,0.100042,0.0998046,-61.0636,3,0.0129453,10,-0.00609443,-1.21422,-0.271892,-0.216998,515.537,0.0998046,
2,0,0,1,0,3680.39,0.0976454,0.0974028,-62.2688,3,0.0126985,10,-0.00606515,-1.20573,-0.298856,-0.197419,478.295,0.0974028,
2,0,0,1,0,3680.39,0.0952427,0.0950105,-63.3968,3,0.0124471,10,-0.00602336,-1.19793,-0.322694,-0.182836,450.993,0.0950105,
2,0,0,1,0,3680.4,0.0928428,0.0925631,-64.428,3,0.0121913,10,-0.00596366,-1.19093,-0.359365,-0.164178,411.536,0.0925631,
2,0,0,1,0,3680.4,0.0904457,0.0902026,-65.394,3,0.0119315,10,-0.00589871,-1.18446,-0.40417,-0.145978,371.285,0.0902026,
2,0,0,1,0,3680.4,0.0880486,0.0877796,-66.229,3,0.0116682,10,-0.00581356,-1.17895,-0.459748,-0.128331,330.549,0.0877796,
2,0,0,1,0,3680.41,0.0856404,0.085364,-66.9784,3,0.0114017,10,-0.00571754,-1.17407,-0.549028,-0.107463,279.866,0.085364,
2,0,0,1,0,3680.41,0.0832433,0.0829781,-67.5963,3,0.0111324,10,-0.00560901,-1.17008,-0.663987,-0.0888572,233.556,0.0829781,
2,0,0,1,0,3680.42,0.0808462,0.0805816,-68.0866,3,0.010861,10,-0.00548653,-1.16694,-0.865819,-0.0681436,180.422,0.0805816,
2,0,0,1,0,3680.42,0.0784408,0.078131,-68.4825,3,0.0105878,10,-0.00535061,-1.16442,-1.27816,-0.04616,122.84,0.078131,
2,0,0,1,0,3680.42,0.0760437,0.0757461,-68.7136,3,0.0103134,10,-0.00520479,-1.16296,-2.33164,-0.0253041,67.5586,0.0757461,
2,0,0,1,0,3680.43,0.0736466,0.0733061,-68.7844,3,0.0100383,10,-0.00504232,-1.16251,-26.6847,-0.002211,5.91171,0.0733061,
2,0,0,1,0,3680.43,0.0712495,0.0709658,-68.7363,3,0.00976324,10,-0.00487792,-1.16281,2.94983,0.0200012,-53.4364,0.0709658,
2,0,0,1,0,3680.44,0.0688413,0.0685375,-68.5393,3,0.00948867,10,-0.00469751,-1.16406,1.43465,0.0411251,-109.552,0.0685375,
2,0,0,1,0,3680.44,0.0664442,0.0661579,-68.2013,3,0.00921521,10,-0.00451205,-1.16621,0.942156,0.0626223,-166.03,0.0661579,
2,0,0,1,0,3680.44,0.0640471,0.0637147,-67.7337,3,0.00894334,10,-0.00431563,-1.1692,0.707374,0.0834071,-219.655,0.0637147,
2,0,0,1,0,3680.45,0.0616389,0.06135,-67.1398,3,0.00867365,10,-0.00411903,-1.17302,0.576927,0.102266,-267.025,0.06135,
2,0,0,1,0,3680.45,0.0592417,0.0589408,-66.4313,3,0.00840657,10,-0.00391551,-1.17763,0.486652,0.121236,-313.334,0.0589408,
2,0,0,1,0,3680.46,0.0568446,0.0565082,-65.6246,3,0.00814252,10,-0.00370833,-1.18293,0.437856,0.134747,-344.305,0.0565082,
2,0,0,1,0,3680.46,0.0544475,0.0541456,-64.7354,3,0.00788187,10,-0.00350514,-1.18886,0.398757,0.14796,-373.121,0.0541456,
2,0,0,1,0,3680.46,0.0520421,0.0517459,-63.833,3,0.00762479,10,-0.0033031,-1.19495,0.369352,0.159739,-397.161,0.0517459,
2,0,0,1,0,3680.47,0.049645,0.0493017,-62.8347,3,0.00737154,10,-0.00309786,-1.2018,0.356814,0.165352,-405.034,0.0493017,
2,0,0,1,0,3680.47,0.0472479,0.0469497,-61.8283,3,0.00712233,10,-0.00290282,-1.20881,0.338808,0.17414,-419.959,0.0469497,
2,0,0,1,0,3680.48,0.0448397,0.0445161,-60.8351,3,0.00687713,10,-0.00270814,-1.21585,0.33138,0.178044,-422.386,0.0445161,
2,0,0,1,0,3680.48,0.0424426,0.0421387,-59.7984,3,0.00663597,10,-0.00251982,-1.22331,0.324225,0.181972,-424.466,0.0421387,
2,0,0,1,0,3680.48,0.0400455,0.0397177,-58.7866,3,0.00639892,10,-0.00233487,-1.23072,0.314614,0.187531,-430.042,0.0397177,
2,0,0,1,0,3680.49,0.0376456,0.0373541,-57.7553,3,0.00616595,10,-0.0021574,-1.23841,0.312836,0.188597,-424.938,0.0373541,
2,0,0,1,0,3680.49,0.035243,0.0349714,-56.7304,3,0.00593708,10,-0.00198394,-1.24618,0.303989,0.194086,-429.511,0.0349714,
2,0,0,1,0,3680.5,0.0328459,0.0325324,-55.7163,3,0.00571228,10,-0.00181259,-1.25402,0.300857,0.196106,-426.132,0.0325324,
2,0,0,1,0,3680.5,0.0304488,0.030138,-54.672,3,0.00549159,10,-0.00164771,-1.26223,0.292051,0.202019,-430.712,0.030138,
2,0,0,1,0,3680.5,0.0280406,0.0277256,-53.6523,3,0.00527507,10,-0.00148754,-1.27041,0.280571,0.210286,-439.698,0.0277256,
2,0,0,1,0,3680.51,0.0256435,0.0253397,-52.582,3,0.0050627,10,-0.00133241,-1.27916,0.27231,0.216665,-444.08,0.0253397,
2,0,0,1,0,3680.51,0.0232463,0.0229294,-51.4939,3,0.00485465,10,-0.00118072,-1.28824,0.262755,0.224543,-450.94,0.0229294,
2,0,0,1,0,3680.52,0.0208437,0.0205668,-50.4216,3,0.00465094,10,-0.00103701,-1.29738,0.254289,0.23202,-456.009,0.0205668,
2,0,0,1,0,3680.52,0.018441,0.0181289,-49.3248,3,0.00445153,10,-0.000894205,-1.30693,0.246417,0.239431,-460.215,0.01812893,
2,0,0,1,0,3680.52,0.0160439,0.0157335,-48.2014,3,0.00425659,10,-0.000758376,-1.31694,0.238472,0.247408,-464.979,0.0157335,
2,0,0,1,0,3680.53,0.0136468,0.0133263,-47.0744,3,0.00406615,10,-0.00062733,-1.32722,0.232337,0.253942,-466.36,0.0133263,
2,0,0,1,0,3680.53,0.0112414,0.0109722,-45.9604,3,0.00388017,10,-0.000504288,-1.33762,0.230505,0.25596,-459.101,0.0109722,
2,0,0,1,0,3680.54,0.00884431,0.00855452,-44.8596,3,0.00369867,10,-0.000383753,-1.34814,0.229348,0.257251,-450.568,0.00855452,
2,0,0,1,0,3680.54,0.0064472,0.00611983,-43.7878,3,0.00352149,10,-0.000267974,-1.35865,0.238875,0.246991,-422.871,0.00611983,
2,0,0,1,0,3680.54,0.00404455,0.00373391,-42.7524,3,0.00334854,10,-0.000159634,-1.36904,0.242259,0.243541,-407.315,0.00373391,
2,0,0,1,0,3680.55,0.0016419,0.00123559,-41.843,3,0.00317954,10,-5.1701e-05,-1.37838,0.248216,0.237697,-388.631,0.00123559,
2,0,0,1,0,3680.55,-0.000755207,-0.0011429,-40.9097,3,0.00301415,10,4.67556e-05,-1.38817,0.26408,0.223417,-357.534,-0.0011429,
2,0,0,1,0,3680.56,-0.00315231,-0.00348428,-40.0553,3,0.00285235,10,0.000139564,-1.39734,0.272011,0.216903,-340.309,-0.00348428,
2,0,0,1,0,3680.56,-0.00555774,-0.00590518,-39.3061,3,0.00269373,10,0.00023211,-1.40554,0.295547,0.19963,-307.134,-0.00590518,
2,0,0,1,0,3680.56,-0.00795485,-0.00828262,-38.6039,3,0.00253801,10,0.000319741,-1.41337,0.3297,0.17895,-270.546,-0.00828262,
2,0,0,1,0,3680.57,-0.010352,-0.010712,-37.9707,3,0.00238495,10,0.000406743,-1.42055,0.364717,0.161769,-240.775,-0.01071201,
2,0,0,1,0,3680.57,-0.0127546,-0.0131096,-37.4512,3,0.00223418,10,0.000490971,-1.42653,0.418922,0.140838,-206.651,-0.01310959,
2,0,0,1,0,3680.58,-0.0151573,-0.0155157,-36.9921,3,0.00208537,10,0.000573957,-1.43189,0.486005,0.121398,-175.869,-0.0155157,
2,0,0,1,0,3680.58,-0.0175544,-0.0179408,-36.608,3,0.00193823,10,0.000656777,-1.43642,0.561491,0.105077,-150.605,-0.0179408,
2,0,0,1,0,3680.58,-0.0199515,-0.0203066,-36.2834,3,0.00179251,10,0.000736791,-1.44029,0.672086,0.0877864,-124.681,-0.0203066,
2,0,0,1,0,3680.59,-0.0223597,-0.0226861,-36.009,3,0.00164797,10,0.000816904,-1.44359,0.805527,0.0732439,-103.226,-0.0226861,
2,0,0,1,0,3680.59,-0.0247568,-0.0250848,-35.799,3,0.00150439,10,0.00089801,-1.44613,1.06781,0.0552534,-77.4356,-0.0250848,
2,0,0,1,0,3680.6,-0.0271539,-0.0275014,-35.6211,3,0.00136157,10,0.000979631,-1.44829,1.42196,0.0414921,-57.8572,-0.0275014,
2,0,0,1,0,3680.6,-0.0295593,-0.0299107,-35.5397,3,0.00121929,10,0.00106302,-1.44929,1.89891,0.0310705,-43.1567,-0.0299107,
2,0,0,1,0,3680.6,-0.0319564,-0.0323167,-35.4518,3,0.00107733,10,0.00114569,-1.45036,3.17474,0.0185842,-25.7454,-0.0323167,
2,0,0,1,0,3680.61,-0.0343535,-0.0347175,-35.3833,3,0.000935674,10,0.00122842,-1.4512,5.96074,0.0098981,-13.7033,-0.0347175,
2,0,0,1,0,3680.61,-0.0367506,-0.037132,-35.3732,3,0.000794176,10,0.00131348,-1.45133,-149.304,-0.000395167,0.546783,-0.037132,
2,0,0,1,0,3680.62,-0.0391588,-0.0394798,-35.4085,3,0.000652592,10,0.00139792,-1.45089,-5.37816,-0.0109703,15.1798,-0.0394798,
2,0,0,1,0,3680.62,-0.0415559,-0.0418848,-35.457,3,0.000510871,10,0.00148511,-1.4503,-3.3452,-0.0176372,24.4287,-0.0418848,
2,0,0,1,0,3680.62,-0.043953,-0.044259,-35.5281,3,0.0003689,10,0.00157244,-1.44943,-2.64758,-0.0222845,30.9239,-0.044259,
2,0,0,1,0,3680.63,-0.0463585,-0.0467075,-35.6071,3,0.000226613,10,0.00166312,-1.44846,-2.09767,-0.0281265,39.1262,-0.0467075,
2,0,0,1,0,3680.63,-0.0487556,-0.0491146,-35.7065,3,8.39933e-05,10,0.00175371,-1.44725,-1.80282,-0.0327265,45.657,-0.0491146,
2,0,0,1,0,3680.64,-0.0511527,-0.0514677,-35.8319,3,-5.91082e-05,10,0.00184419,-1.44573,-1.51201,-0.0390208,54.6238,-0.0514677,
2,0,0,1,0,3680.64,-0.0535498,-0.0538844,-35.9676,3,-0.00020272,10,0.00193809,-1.44409,-1.385,-0.0425993,59.8373,-0.0538844,
2,0,0,1,0,3680.64,-0.055958,-0.0563286,-36.1326,3,-0.000346947,10,0.0020353,-1.4421,-1.32649,-0.0444783,62.7216,-0.0563286,
2,0,0,1,0,3680.65,-0.0583551,-0.0586816,-36.2789,3,-0.000491783,10,0.00212891,-1.44035,-1.16727,-0.0505451,71.6284,-0.0586816,
2,0,0,1,0,3680.65,-0.0607522,-0.0610972,-36.4359,3,-0.00063721,10,0.00222613,-1.43847,-1.14881,-0.0513575,73.1208,-0.0610972,
2,0,0,1,0,3680.66,-0.0631604,-0.0635118,-36.6572,3,-0.000783407,10,0.00232816,-1.43584,-1.08262,-0.0544975,77.9551,-0.0635118,
2,0,0,1,0,3680.66,-0.0655575,-0.0659041,-36.8328,3,-0.000930402,10,0.00242743,-1.43377,-1.01673,-0.0580289,83.4194,-0.0659041,
2,0,0,1,0,3680.66,-0.0679546,-0.0683006,-37.0288,3,-0.00107815,10,0.00252909,-1.43146,-1.05423,-0.055965,80.9058,-0.06830059,
2,0,0,1,0,3680.67,-0.0703573,-0.070696,-37.2367,3,-0.00122668,10,0.00263248,-1.42903,-0.989437,-0.0596299,86.6823,-0.070696,
2,0,0,1,0,3680.67,-0.0727571,-0.0730682,-37.4304,3,-0.00137605,10,0.00273497,-1.42678,-0.959488,-0.0614912,89.8935,-0.0730682,
2,0,0,1,0,3680.68,-0.0751542,-0.0755198,-37.6663,3,-0.00152625,10,0.00284455,-1.42405,-0.924689,-0.0638052,93.8381,-0.0755198,
2,0,0,1,0,3680.68,-0.0775514,-0.0779015,-37.8918,3,-0.0016774,10,0.00295183,-1.42145,-0.895621,-0.0658761,97.4332,-0.0779015,
2,0,0,1,0,3680.68,-0.0799595,-0.0802726,-38.1353,3,-0.00182945,10,0.00306122,-1.41867,-0.906742,-0.0650681,96.8199,-0.0802726,
2,0,0,1,0,3680.69,-0.0823567,-0.0827062,-38.3694,3,-0.00198247,10,0.00317339,-1.41601,-0.865954,-0.068133,102.05,-0.0827062,
2,0,0,1,0,3680.69,-0.0847538,-0.0850752,-38.5914,3,-0.00213641,10,0.00328317,-1.41351,-0.85662,-0.0688753,103.841,-0.0850752,
2,0,0,1,0,3680.7,-0.0871592,-0.0874855,-38.8699,3,-0.00229134,10,0.00340055,-1.41039,-0.832559,-0.0708658,107.536,-0.0874855,
2,0,0,1,0,3680.7,-0.0895563,-0.0898682,-39.1317,3,-0.00244738,10,0.0035167,-1.40747,-0.810578,-0.0727876,111.134,-0.08986821,
2,0,0,1,0,3680.7,-0.0919534,-0.0922859,-39.3996,3,-0.00260447,10,0.00363603,-1.40451,-0.802135,-0.0735537,113.134,-0.0922859,
2,0,0,1,0,3680.71,-0.0943505,-0.094675,-39.6583,3,-0.0027626,10,0.00375465,-1.40167,-0.792996,-0.0744014,115.226,-0.094675,
2,0,0,1,0,3680.71,-0.0967587,-0.0971087,-39.9586,3,-0.00292187,10,0.00388033,-1.39839,-0.768936,-0.0767294,119.393,-0.0971087,
2,0,0,1,0,3680.72,-0.0991558,-0.0994829,-40.2396,3,-0.00308227,10,0.00400315,-1.39535,-1.0554,-0.0559029,87.0567,-0.0994829,
2,0,0,0,0,3680.72,-0.0999548,-0.100209,-40.3456,3,-0.00313462,10,0.004043,-1.3942,0.0186849,3.15763,-4530.66,-0.100209,
2,0,0,0,1,3680.72,-0.0999548,-0.100305,-40.1484,3,-0.00315874,10,0.00402708,-1.39633,-0.0197843,-2.98216,3860.18,-0.100305,
2,0,0,1,1,3680.72,-0.0979573,-0.0984798,-33.7465,3,-0.00327118,10,0.00332335,-1.47177,-0.0233009,-2.53209,2927.4,-0.0984798,
2,0,0,1,1,3680.72,-0.0955546,-0.0960472,-26.9771,3,-0.00339172,10,0.00259108,-1.569,-0.0223041,-2.64526,2687.5,-0.0960472,
2,0,0,1,1,3680.73,-0.0931519,-0.0935987,-20.9939,3,-0.00348685,10,0.001965,-1.67791,-0.0197664,-2.98487,2360.06,-0.0935987,
2,0,0,1,1,3680.73,-0.0907548,-0.0912043,-15.6911,3,-0.00355953,10,0.0014311,-1.80435,-0.0159206,-3.70588,2101.22,-0.0912043,
2,0,0,1,1,3680.74,-0.0883577,-0.0888237,-10.9577,3,-0.00361222,10,0.000973303,-1.96028,-0.011017,-5.35536,1895.41,-0.0888237,
2,0,0,1,1,3680.74,-0.0859523,-0.0863805,-6.66526,3,-0.00364694,10,0.000575748,-2.17618,-0.00693726,-8.5048,1701.21,-0.0863805,
2,0,0,1,1,3680.74,-0.0835552,-0.0840179,-2.83437,3,-0.00366544,10,0.000238138,-2.54754,-0.0209627,-2.81452,1537.8,-0.08401794,
2,0,0,1,1,3680.75,-0.0811581,-0.0816002,0.647484,3,-0.00366936,10,-5.28348e-05,-3.18877,10.157,0.00580881,1389.36,-0.0816002,
2,1,0,1,1,3680.75,-0.0787554,-0.0792175,3.81475,3,-0.00366008,10,-0.000302195,-2.41853,0.018653,3.16303,1260.89,-0.0792175,
2,1,0,1,1,3680.76,-0.0763528,-0.0767754,6.67979,3,-0.00363871,10,-0.000512843,-2.17524,0.0076343,7.72828,1146.19,-0.0767754,
2,1,0,1,1,3680.76,-0.0739557,-0.0744128,9.27674,3,-0.00360648,10,-0.000690308,-2.0326,0.0170788,3.45458,1046.57,-0.0744128,
2,1,0,1,1,3680.76,-0.0715586,-0.0720269,11.6204,3,-0.00356439,10,-0.000836979,-1.93478,0.0255737,2.30706,954.01,-0.0720269,
2,1,0,1,1,3680.77,-0.0691532,-0.0696855,13.7907,3,-0.00351336,10,-0.000961011,-1.86041,0.0345811,1.70613,865.497,-0.0696855,
2,1,0,1,1,3680.77,-0.0667561,-0.0672094,15.8058,3,-0.0034539,10,-0.0010623,-1.80118,0.0440477,1.33946,790.625,-0.06720943,
2,1,0,1,1,3680.78,-0.0643589,-0.0647928,17.6028,3,-0.00338684,10,-0.00114054,-1.75442,0.0545483,1.08161,719.551,-0.0647928,
2,1,0,1,1,3680.78,-0.0619563,-0.0623506,19.2706,3,-0.0033129,10,-0.00120154,-1.7151,0.0660688,0.893009,655.157,-0.0623506,
2,1,0,1,1,3680.78,-0.0595536,-0.0599753,20.7776,3,-0.00323261,10,-0.00124615,-1.6824,0.078183,0.75464,599.488,-0.05997533,
2,1,0,1,1,3680.79,-0.0571565,-0.05753,22.1473,3,-0.00314658,10,-0.00127414,-1.65468,0.0924009,0.638522,542.694,-0.05753,
2,1,0,1,1,3680.79,-0.0547594,-0.0551547,23.3807,3,-0.00305536,10,-0.00128956,-1.63114,0.108153,0.545525,490.728,-0.0551547,
2,1,0,1,1,3680.8,-0.0523512,-0.0527264,24.4937,3,-0.00295946,10,-0.00129146,-1.61095,0.126452,0.46658,440.682,-0.0527264,
2,1,0,1,1,3680.8,-0.0499541,-0.0503903,25.4813,3,-0.00285941,10,-0.00128401,-1.59378,0.146272,0.403357,397.295,-0.0503903,
2,1,0,1,1,3680.8,-0.047557,-0.0479291,26.3783,3,-0.00275558,10,-0.00126429,-1.57875,0.168433,0.350288,357.77,-0.0479291,
2,1,0,1,1,3680.81,-0.0451544,-0.0455623,27.1917,3,-0.00264834,10,-0.00123892,-1.56556,0.194465,0.303397,319.639,-0.0455623,
2,1,0,1,1,3680.81,-0.0427545,-0.0431424,27.9225,3,-0.00253801,10,-0.00120464,-1.55405,0.221191,0.266738,288.731,-0.0431424,
2,1,0,1,1,3680.82,-0.0403574,-0.0407342,28.5677,3,-0.00242492,10,-0.00116368,-1.54412,0.255909,0.230551,255.656,-0.04073425,
2,1,0,1,1,3680.82,-0.0379603,-0.0383653,29.1396,3,-0.00230944,10,-0.00111795,-1.53552,0.289499,0.2038,230.801,-0.0383653,
2,1,0,1,1,3680.82,-0.0355521,-0.0358627,29.6715,3,-0.00219174,10,-0.0010641,-1.52766,0.331654,0.177896,205.101,-0.0358627,
2,1,0,1,1,3680.83,-0.033155,-0.0335256,30.1421,3,-0.00207204,10,-0.00101053,-1.52083,0.38095,0.154876,181.371,-0.0335256,
2,1,0,1,1,3680.83,-0.0307579,-0.031128,30.538,3,-0.00195065,10,-0.000950587,-1.51516,0.437184,0.134955,160.265,-0.031128,
2,1,0,1,1,3680.84,-0.0283524,-0.0287082,30.8912,3,-0.00182774,10,-0.000886829,-1.51017,0.520938,0.113257,136.097,-0.0287082,
2,1,0,1,1,3680.84,-0.0259553,-0.0263307,31.1991,3,-0.00170351,10,-0.000821496,-1.50586,0.596665,0.0988829,120.058,-0.0263307,
2,1,0,1,1,3680.84,-0.0235582,-0.0239257,31.4486,3,-0.00157819,10,-0.000752431,-1.5024,0.693829,0.0850353,104.161,-0.02392574,
2,1,0,1,1,3680.85,-0.0211611,-0.0215324,31.69,3,-0.00145186,10,-0.000682362,-1.49908,0.837075,0.0704836,86.9713,-0.0215324,
2,1,0,1,1,3680.85,-0.0187529,-0.0191465,31.8871,3,-0.00132467,10,-0.000610526,-1.49638,0.986728,0.0597936,74.2171,-0.0191465,
2,1,0,1,1,3680.86,-0.0163558,-0.0166726,32.0391,3,-0.00119679,10,-0.000534174,-1.49432,1.23914,0.0476138,59.4152,-0.0166726,
2,1,0,1,1,3680.86,-0.0139587,-0.0143047,32.1626,3,-0.00106838,10,-0.000460076,-1.49265,1.5766,0.0374222,46.9004,-0.0143047,
2,1,0,1,1,3680.86,-0.0115505,-0.0119325,32.2604,3,-0.000939552,10,-0.000384948,-1.49133,2.10682,0.0280043,35.1988,-0.0119325,
2,1,0,1,1,3680.87,-0.0091534,-0.00948406,32.3403,3,-0.000810328,10,-0.000306717,-1.49026,3.0055,0.0196307,24.7314,-0.00948406,
2,1,0,1,1,3680.87,-0.00675629,-0.00716283,32.3738,3,-0.000680872,10,-0.000231888,-1.48981,4.67868,0.0126104,15.9143,-0.00716283,
2,1,0,1,1,3680.88,-0.00435919,-0.00470056,32.4002,3,-0.000551309,10,-0.000152299,-1.48945,-28.7416,-0.00205277,-2.58994,-0.00470056,
2,1,0,1,1,3680.88,-0.00195376,-0.00232737,32.4132,3,-0.000421664,10,-7.54377e-05,-1.48928, , , ,-0.00232737,
2,1,0,1,1,3680.88,-7.54729e-05,-0.000344411,32.3166,3,-0.000321224,10,-1.11302e-05,-1.49057, , , ,-0.000344411,