File: Figure_codes/Fig_3-5/rawdata_trumpetplot_data/before 10th/20221101_1-115_002_TrumpetPlot_ParaChange_08_CV_C01_6.csv
mode,ox/red,error,control changes,counter inc.,time/s,control/V,Ewe/V,<I>/mA,cycle number,(Q-Qo)/C,I Range,P/W,log(|I|),Tafel slope mV/dec,alpha_eff,dI/d(E-IR),E-IR/V,
2,0,0,0,0,8558.96,2.44065e-05,-0.000248974,-2.46084,7,0.0000000E+000,11,6.12686e-07,-2.60892, , , ,-0.000248974,
2,0,0,1,0,8558.99,0.00129787,0.000958469,0.0195524,7,-2.93045e-05,11,1.87404e-08,-4.7088, , , ,0.000958469,
2,1,0,1,0,8559.03,0.00279427,0.00248477,1.01001,7,-6.99575e-06,11,2.50965e-06,-2.99567,0.011926,4.94717,492.193,0.00248477,
2,1,0,1,0,8559.07,0.00429425,0.00398724,1.33005,7,3.7837e-05,11,5.30322e-06,-2.87613,0.0144054,4.09569,175.738,0.00398724,
2,1,0,1,0,8559.1,0.00579422,0.00550278,1.46369,7,9.07309e-05,11,8.05438e-06,-2.83455,0.0414331,1.42398,77.6459,0.00550278,
2,1,0,1,0,8559.14,0.00729063,0.006972,1.54572,7,0.000147252,11,1.07767e-05,-2.81087,0.0788252,0.748491,44.3974,0.006972,
2,1,0,1,0,8559.18,0.00878703,0.00845246,1.59428,7,0.000206192,11,1.34756e-05,-2.79744,0.117343,0.5028,31.1108,0.00845246,
2,1,0,1,0,8559.22,0.010287,0.0100034,1.63441,7,0.000267029,11,1.63497e-05,-2.78664,0.160538,0.367515,23.3868,0.0100034,
2,1,0,1,0,8559.25,0.011787,0.0115221,1.66343,7,0.000329191,11,1.91662e-05,-2.779,0.188208,0.313483,20.3906,0.0115221,
2,1,0,1,0,8559.29,0.0132825,0.0130114,1.69628,7,0.0003922,11,2.2071e-05,-2.7705,0.191095,0.308747,20.4732,0.0130114,
2,1,0,1,0,8559.33,0.014778,0.0145277,1.72515,7,0.000456366,11,2.50624e-05,-2.76317,0.212213,0.278022,18.655,0.0145277,
2,1,0,1,0,8559.37,0.0162816,0.0159911,1.75234,7,0.000521945,11,2.80218e-05,-2.75638,0.267903,0.220229,14.9825,0.0159911,
2,1,0,1,0,8559.4,0.017778,0.0175063,1.77577,7,0.000588036,11,3.10872e-05,-2.75061,0.277765,0.21241,14.6688,0.0175063,
2,1,0,1,0,8559.44,0.0192744,0.0189747,1.7917,7,0.000654789,11,3.3997e-05,-2.74673,0.28226,0.209027,14.6265,0.01897468,
2,1,0,1,0,8559.48,0.0207743,0.0204795,1.81337,7,0.000722651,11,3.71368e-05,-2.74151,0.265474,0.222244,15.738,0.0204795,
2,1,0,1,0,8559.52,0.0222743,0.0219961,1.83448,7,0.000791372,11,4.03514e-05,-2.73649,0.294637,0.200247,14.3912,0.0219961,
2,1,0,1,0,8559.55,0.0237707,0.0234779,1.85791,7,0.000860657,11,4.36198e-05,-2.73098,0.334971,0.176135,12.7922,0.0234779,
2,1,0,1,0,8559.59,0.0252671,0.0250075,1.87678,7,0.000930686,11,4.69334e-05,-2.72659,0.291581,0.202345,14.8385,0.02500747,
2,1,0,1,0,8559.63,0.0267671,0.0264532,1.90426,7,0.00100171,11,5.03738e-05,-2.72027,0.273341,0.215847,15.9925,0.0264532,
2,1,0,1,0,8559.67,0.0282671,0.0280112,1.9309,7,0.00107368,11,5.40868e-05,-2.71424,0.277122,0.212903,15.9654,0.0280112,
2,1,0,1,0,8559.7,0.0297626,0.0294655,1.95104,7,0.00114635,11,5.74885e-05,-2.70973,0.293966,0.200703,15.2578,0.0294655,
2,1,0,1,0,8559.74,0.0312581,0.0309441,1.96346,7,0.00121981,11,6.07575e-05,-2.70698,0.291806,0.202189,15.5722,0.0309441,
2,1,0,1,0,8559.78,0.0327616,0.0324861,1.99052,7,0.00129444,11,6.46641e-05,-2.70103,0.274836,0.214673,16.7494,0.0324861,
2,1,0,1,0,8559.82,0.034258,0.0339448,2.01744,7,0.00136974,11,6.84815e-05,-2.6952,0.246237,0.239607,18.9256,0.03394476,
2,1,0,1,0,8559.85,0.0357545,0.0354596,2.04961,7,0.00144606,11,7.26785e-05,-2.68833,0.284963,0.207044,16.5421,0.0354596,
2,1,0,1,0,8559.89,0.0372544,0.036984,2.07632,7,0.00152361,11,7.67905e-05,-2.68271,0.260742,0.226277,18.35,0.036984,
2,1,0,1,0,8559.93,0.0387544,0.0384434,2.10872,7,0.0016021,11,8.10663e-05,-2.67598,0.227285,0.259586,21.3444,0.0384434,
2,1,0,1,0,8559.97,0.0402508,0.0399649,2.13988,7,0.00168164,11,8.55203e-05,-2.66961,0.220971,0.267003,22.254,0.0399649,
2,1,0,1,0,8560,0.0417472,0.0414575,2.17461,7,0.00176248,11,9.0154e-05,-2.66262,0.240345,0.245481,20.7683,0.0414575,
2,1,0,1,0,8560.04,0.0432472,0.0430183,2.20831,7,0.00184475,11,9.49976e-05,-2.65594,0.234753,0.251328,21.6404,0.0430183,
2,1,0,1,0,8560.08,0.0447472,0.0444796,2.23405,7,0.00192809,11,9.93694e-05,-2.65091,0.217785,0.27091,23.7023,0.0444796,
2,1,0,1,0,8560.12,0.0462427,0.0459302,2.27015,7,0.00201259,11,0.000104269,-2.64395,0.19357,0.304799,27.0684,0.0459302,
2,1,0,1,0,8560.15,0.0477382,0.0474715,2.31014,7,0.00209848,11,0.000109666,-2.63636,0.200847,0.293757,26.5212,0.0474715,
2,1,0,1,0,8560.19,0.0492417,0.0489479,2.35077,7,0.00218638,11,0.000115065,-2.62879,0.205886,0.286567,26.2613,0.0489479,
2,1,0,1,0,8560.23,0.0507381,0.0504521,2.38406,7,0.00227517,11,0.000120281,-2.62268,0.204674,0.288263,26.9007,0.0504521,
2,1,0,1,0,8560.27,0.0522345,0.051949,2.43482,7,0.0023655,11,0.000126487,-2.61353,0.195578,0.30167,28.6145,0.051949,
2,1,0,1,0,8560.3,0.0537345,0.0534063,2.4835,7,0.0024578,11,0.000132635,-2.60494,0.197405,0.298877,28.8921,0.0534063,
2,1,0,1,0,8560.34,0.0552345,0.0549406,2.52288,7,0.00255177,11,0.000138609,-2.5981,0.203998,0.289218,28.4573,0.0549406,
2,1,0,1,0,8560.38,0.0567309,0.0564531,2.5595,7,0.00264706,11,0.000144492,-2.59185,0.202789,0.290942,29.1536,0.0564531,
2,1,0,1,0,8560.41,0.0582273,0.0579448,2.60692,7,0.00274393,11,0.000151058,-2.58387,0.199339,0.295978,30.1925,0.0579448,
2,1,0,1,0,8560.45,0.0597309,0.0594066,2.65636,7,0.00284309,11,0.000157805,-2.57571,0.199262,0.296093,30.6854,0.0594066,
2,1,0,1,0,8560.49,0.0612264,0.0609819,2.70587,7,0.00294351,11,0.000165009,-2.56769,0.213773,0.275994,29.0566,0.0609819,
2,1,0,1,0,8560.53,0.0627219,0.0623835,2.75278,7,0.00304569,11,0.000171728,-2.56023,0.200679,0.294002,31.5041,0.0623835,
2,1,0,1,0,8560.56,0.0642218,0.0639035,2.79348,7,0.00314972,11,0.000178513,-2.55385,0.203963,0.289268,31.5481,0.0639035,
2,1,0,1,0,8560.6,0.0657218,0.0654008,2.84067,7,0.00325557,11,0.000185782,-2.54658,0.200758,0.293886,32.5795,0.0654008,
2,1,0,1,0,8560.64,0.0672182,0.0669367,2.89543,7,0.00336304,11,0.000193811,-2.53829,0.211771,0.278603,31.4208,0.0669367,
2,1,0,1,0,8560.68,0.0687146,0.0684555,2.93473,7,0.00347226,11,0.000200898,-2.53243,0.238159,0.247734,28.3839,0.0684555,
2,1,0,1,0,8560.71,0.0702146,0.069923,2.97248,7,0.00358325,11,0.000207845,-2.52688,0.238358,0.247527,28.798,0.069923,
2,1,0,1,0,8560.75,0.0717146,0.0714256,3.02074,7,0.00369589,11,0.000215758,-2.51989,0.223638,0.26382,31.0848,0.0714256,
2,1,0,1,0,8560.79,0.073211,0.0729393,3.07031,7,0.00380991,11,0.000223947,-2.51282,0.246472,0.239378,28.6269,0.0729393,
2,1,0,1,0,8560.83,0.0747074,0.0744257,3.11252,7,0.00392558,11,0.000231651,-2.50689,0.268064,0.220097,26.6348,0.0744257,
2,1,0,1,0,8560.86,0.0762109,0.0759306,3.14583,7,0.00404335,11,0.000238865,-2.50226,0.260325,0.22664,27.8121,0.0759306,
2,1,0,1,0,8560.9,0.0777064,0.07741,3.18928,7,0.00416192,11,0.000246882,-2.49631,0.253808,0.232459,28.9316,0.07740999,
2,1,0,1,0,8560.94,0.079202,0.0788898,3.22844,7,0.00428214,11,0.000254691,-2.49101,0.26653,0.221363,27.9003,0.0788898,
2,1,0,1,0,8560.98,0.0807019,0.0804048,3.26908,7,0.00440431,11,0.00026285,-2.48557,0.306657,0.192397,24.5384,0.0804048,
2,1,0,1,0,8561.01,0.0822019,0.0818764,3.30108,7,0.0045279,11,0.000270281,-2.48134,0.316208,0.186586,24.0979,0.0818764,
2,1,0,1,0,8561.05,0.0836983,0.0834234,3.34088,7,0.00465232,11,0.000278708,-2.47614,0.329624,0.178992,23.3581,0.0834234,
2,1,0,1,0,8561.09,0.0851947,0.0849314,3.38207,7,0.00477824,11,0.000287244,-2.47082,0.32398,0.18211,23.9919,0.0849314,
2,1,0,1,0,8561.13,0.0866947,0.0864009,3.41755,7,0.00490584,11,0.000295279,-2.46629,0.352904,0.167184,22.2578,0.0864009,
2,1,0,1,0,8561.16,0.0881947,0.0879037,3.45424,7,0.00503475,11,0.00030364,-2.46165,0.328361,0.17968,24.1987,0.0879037,
2,1,0,1,0,8561.2,0.0896911,0.0893738,3.48609,7,0.00516458,11,0.000311565,-2.45766,0.30786,0.191646,26.1019,0.08937382,
2,1,0,1,0,8561.24,0.0911875,0.0908176,3.52483,7,0.00529594,11,0.000320117,-2.45286,0.30365,0.194303,26.7335,0.0908176,
2,1,0,1,0,8561.28,0.0926901,0.0923908,3.56459,7,0.00542956,11,0.000329336,-2.44799,0.311207,0.189585,26.4063,0.0923908,
2,1,0,1,0,8561.31,0.0941856,0.0938939,3.60138,7,0.00556383,11,0.000338147,-2.44353,0.339881,0.17359,24.4305,0.0938939,
2,1,0,1,0,8561.35,0.0956821,0.0953546,3.63651,7,0.0056994,11,0.000346758,-2.43932,0.317587,0.185776,26.4259,0.0953546,
2,1,0,1,0,8561.39,0.097182,0.0968557,3.68057,7,0.00583679,11,0.000356485,-2.43408,0.278187,0.212088,30.4628,0.0968557,
2,1,0,1,0,8561.43,0.098682,0.0983808,3.7279,7,0.00597586,11,0.000366753,-2.42854,0.270711,0.217944,31.693,0.0983808,
2,1,0,1,0,8561.46,0.100178,0.0998822,3.77672,7,0.00611634,11,0.000377228,-2.42288,0.281623,0.2095,30.8391,0.0998822,
2,1,0,1,0,8561.5,0.101675,0.101367,3.81574,7,0.00625856,11,0.000386791,-2.41842,0.263967,0.223513,33.385,0.101367,
2,1,0,1,0,8561.54,0.103175,0.102912,3.8758,7,0.006403,11,0.000398868,-2.41164,0.233874,0.252272,38.2572,0.102912,
2,1,0,1,0,8561.58,0.104675,0.104409,3.93995,7,0.00654968,11,0.000411366,-2.40451,0.213587,0.276233,42.5382,0.104409,
2,1,0,1,0,8561.61,0.106171,0.105892,4.00652,7,0.00669849,11,0.000424257,-2.39723,0.209785,0.281241,43.9464,0.105892,
2,1,0,1,0,8561.65,0.107667,0.107396,4.07223,7,0.00684978,11,0.000437342,-2.39017,0.202789,0.290942,46.2954,0.107396,
2,1,0,1,0,8561.69,0.10917,0.108883,4.14352,7,0.00700433,11,0.000451157,-2.38263,0.185201,0.318573,51.6097,0.108883,
2,1,0,1,0,8561.73,0.110666,0.110374,4.22793,7,0.00716099,11,0.000466654,-2.37387,0.176413,0.334442,55.1563,0.110374,
2,1,0,1,0,8561.76,0.112162,0.111893,4.31127,7,0.00732081,11,0.0004824,-2.3654,0.178515,0.330505,55.5378,0.111893,
2,1,0,1,0,8561.8,0.113662,0.113338,4.39608,7,0.00748428,11,0.000498242,-2.35693,0.180499,0.326872,56.0724,0.113338,
2,1,0,1,0,8561.84,0.115162,0.114846,4.47903,7,0.0076508,11,0.000514398,-2.34882,0.171209,0.344609,60.3697,0.114846,
2,1,0,1,0,8561.88,0.116658,0.116333,4.57328,7,0.00782034,11,0.000532026,-2.33977,0.161372,0.365616,65.3377,0.116333,
2,1,0,1,0,8561.91,0.118155,0.117851,4.6737,7,0.00799356,11,0.000550802,-2.33034,0.169827,0.347412,63.3599,0.117851,
2,1,0,1,0,8561.95,0.119655,0.119365,4.77136,7,0.00817083,11,0.000569532,-2.32136,0.183277,0.321918,59.8555,0.119365,
2,1,0,1,0,8561.99,0.121155,0.120906,4.85438,7,0.00835147,11,0.000586923,-2.31387,0.180701,0.326506,61.8678,0.120906,
2,1,0,1,0,8562.03,0.122651,0.122373,4.9534,7,0.00853495,11,0.00060616,-2.3051,0.17904,0.329536,63.5921,0.122373,
2,1,0,1,0,8562.06,0.124147,0.123871,5.0429,7,0.00872199,11,0.000624671,-2.29732,0.192625,0.306295,60.1572,0.123871,
2,1,0,1,0,8562.1,0.12565,0.125389,5.12771,7,0.00891342,11,0.000642956,-2.29008,0.209162,0.282078,56.3858,0.125389,
2,1,0,1,0,8562.14,0.127146,0.126856,5.20161,7,0.00910695,11,0.000659857,-2.28386,0.213026,0.276961,56.314,0.126856,
2,1,0,1,0,8562.18,0.128642,0.128353,5.28922,7,0.00930341,11,0.000678885,-2.27661,0.225152,0.262045,54.1738,0.128353,
2,1,0,1,0,8562.21,0.130142,0.129871,5.37482,7,0.00950364,11,0.000698034,-2.26964,0.235863,0.250145,52.4147,0.129871,
2,1,0,1,0,8562.25,0.131642,0.131381,5.45387,7,0.00970692,11,0.000716535,-2.2633,0.268924,0.219393,46.6085,0.131381,
2,1,0,1,0,8562.29,0.133139,0.132845,5.52523,7,0.00991241,11,0.000733999,-2.25765,0.278072,0.212176,45.6924,0.132845,
2,1,0,1,0,8562.33,0.134635,0.134377,5.58859,7,0.0101202,11,0.000750976,-2.2527,0.308355,0.191338,41.7028,0.1343766,
2,1,0,1,0,8562.36,0.136135,0.135849,5.65856,7,0.0103312,11,0.000768712,-2.24729,0.30405,0.194047,42.7413,0.135849,
2,1,0,1,0,8562.4,0.137635,0.137361,5.71198,7,0.0105445,11,0.000784602,-2.24321,0.356623,0.165441,36.8349,0.137361,
2,1,0,1,0,8562.44,0.13913,0.138848,5.76439,7,0.0107593,11,0.000800372,-2.23925,0.422487,0.139649,31.3588,0.138848,
2,1,0,1,0,8562.47,0.140626,0.14032,5.79779,7,0.0109758,11,0.000813544,-2.23674,0.519237,0.113628,25.7307,0.14032,
2,1,0,1,0,8562.51,0.14213,0.141883,5.83481,7,0.0111948,11,0.000827858,-2.23397,0.629514,0.093723,21.3225,0.141883,
2,1,0,1,0,8562.55,0.143626,0.143374,5.86348,7,0.0114138,11,0.000840672,-2.23184,1.21367,0.048613,11.0934,0.143374,
2,1,0,1,0,8562.59,0.145122,0.144793,5.87224,7,0.0116335,11,0.000850257,-2.2312,-4.13693,-0.0142618,-3.25585,0.144793,
2,1,0,1,0,8562.62,0.146622,0.146339,5.85432,7,0.0118536,11,0.000856713,-2.23252,-0.864167,-0.0682739,-15.5533,0.146339,
2,1,0,1,0,8562.66,0.148122,0.147812,5.82477,7,0.0120728,11,0.00086097,-2.23472,-0.508189,-0.116099,-26.3004,0.147812,
2,1,0,1,0,8562.7,0.149619,0.149299,5.77354,7,0.0122899,11,0.000861986,-2.23856,-0.309513,-0.190622,-42.8116,0.149299,
2,1,0,1,0,8562.74,0.151115,0.150835,5.69856,7,0.0125048,11,0.000859543,-2.24423,-0.209753,-0.281284,-62.2848,0.150835,
2,1,0,1,0,8562.77,0.152615,0.152312,5.58702,7,0.0127168,11,0.000850971,-2.25282,-0.15995,-0.368864,-80.1988,0.152312,
2,1,0,1,0,8562.81,0.154115,0.15384,5.45627,7,0.0129241,11,0.000839394,-2.2631,-0.132304,-0.445942,-94.7004,0.15384,
2,1,0,1,0,8562.85,0.155611,0.155332,5.30433,7,0.0131256,11,0.000823934,-2.27537,-0.110942,-0.531807,-109.581,0.155332,
2,1,0,1,0,8562.89,0.157106,0.156855,5.12629,7,0.0133209,11,0.000804084,-2.2902,-0.0910184,-0.648221,-128.838,0.156855,
2,1,0,1,0,8562.92,0.15861,0.158334,4.92293,7,0.01351,11,0.000779467,-2.30778,-0.0800931,-0.736643,-140.83,0.158334,
2,1,0,1,0,8562.96,0.160106,0.159813,4.69839,7,0.0136899,11,0.000750864,-2.32805,-0.0739259,-0.798096,-146.092,0.159813,
2,1,0,1,0,8563,0.161602,0.16131,4.47489,7,0.0138616,11,0.000721845,-2.34922,-0.0697543,-0.845826,-147.503,0.16131,
2,1,0,1,0,8563.04,0.163102,0.162825,4.25222,7,0.0140254,11,0.000692369,-2.37138,-0.0671248,-0.87896,-146.042,0.162825,
2,1,0,1,0,8563.07,0.164602,0.16432,4.03637,7,0.014181,11,0.000663257,-2.39401,-0.0665242,-0.886895,-140.012,0.16432,
2,1,0,1,0,8563.11,0.166099,0.165788,3.82701,7,0.0143282,11,0.000634472,-2.41714,-0.0687091,-0.858692,-128.876,0.165788,
2,1,0,1,0,8563.15,0.167595,0.167311,3.65326,7,0.0144682,11,0.00061123,-2.43732,-0.0730272,-0.807918,-115.284,0.167311,
2,1,0,1,0,8563.19,0.169095,0.168778,3.48924,7,0.0146021,11,0.000588907,-2.45727,-0.0759055,-0.777283,-105.938,0.168778,
2,1,0,1,0,8563.22,0.170595,0.170326,3.33472,7,0.0147299,11,0.000567989,-2.47694,-0.0793942,-0.743127,-96.7439,0.170326,
2,1,0,1,0,8563.26,0.172091,0.171839,3.18693,7,0.014852,11,0.000547639,-2.49663,-0.0855613,-0.689564,-86.1284,0.171839,
2,1,0,1,0,8563.3,0.173586,0.173288,3.06666,7,0.0149691,11,0.000531416,-2.51333,-0.0917067,-0.643355,-77.3384,0.173288,
2,1,0,1,0,8563.34,0.17509,0.174812,2.95936,7,0.0150826,11,0.000517332,-2.5288,-0.0977911,-0.603327,-69.8931,0.174812,
2,1,0,1,0,8563.37,0.176586,0.176351,2.85645,7,0.0151916,11,0.000503739,-2.54417,-0.10132,-0.582313,-65.1473,0.176351,
2,1,0,1,0,8563.41,0.178083,0.177824,2.76433,7,0.015297,11,0.000491563,-2.55841,-0.108831,-0.542125,-58.7819,0.1778236,
2,1,0,1,0,8563.45,0.179582,0.179288,2.68693,7,0.0153994,11,0.000481733,-2.57074,-0.121097,-0.487212,-51.2621,0.179288,
2,1,0,1,0,8563.49,0.181082,0.18082,2.61778,7,0.0154989,11,0.000473347,-2.58207,-0.129174,-0.456748,-46.6308,0.18082,
2,1,0,1,0,8563.52,0.182579,0.182321,2.55392,7,0.0155957,11,0.000465633,-2.59279,-0.133482,-0.442008,-43.8854,0.182321,
2,1,0,1,0,8563.56,0.184075,0.18381,2.48804,7,0.01569,11,0.000457327,-2.60414,-0.137574,-0.428861,-41.6459,0.18381,
2,1,0,1,0,8563.6,0.185579,0.18535,2.42903,7,0.0157824,11,0.000450222,-2.61457,-0.15808,-0.373228,-35.4697,0.18535,
2,1,0,1,0,8563.64,0.187074,0.186795,2.37575,7,0.0158724,11,0.000443779,-2.6242,-0.178818,-0.329945,-30.6767,0.186795,
2,1,0,1,0,8563.67,0.18857,0.188326,2.33093,7,0.0159607,11,0.000438974,-2.63247,-0.18499,-0.318936,-29.1093,0.188326,
2,1,0,1,0,8563.71,0.19007,0.189785,2.29011,7,0.0160476,11,0.000434629,-2.64014,-0.18951,-0.31133,-27.8888,0.189785,
2,1,0,1,0,8563.75,0.19157,0.191303,2.24815,7,0.0161328,11,0.000430076,-2.64818,-0.218633,-0.269859,-23.7587,0.191303,
2,1,0,1,0,8563.79,0.193066,0.192788,2.21843,7,0.0162165,11,0.000427686,-2.65396,-0.249834,-0.236156,-20.4162,0.192788,
2,1,0,1,0,8563.82,0.194563,0.194278,2.19095,7,0.0162992,11,0.000425652,-2.65937,-0.240949,-0.244865,-20.8738,0.194278,
2,1,0,1,0,8563.86,0.196063,0.195776,2.15907,7,0.0163808,11,0.000422696,-2.66573,-0.236844,-0.249109,-20.9851,0.195776,
2,1,0,1,0,8563.9,0.197563,0.197256,2.12255,7,0.0164613,11,0.000418685,-2.67314,-0.270052,-0.218476,-18.193,0.197256,
2,1,0,1,0,8563.94,0.199059,0.198758,2.10214,7,0.0165406,11,0.000417817,-2.67734,-0.30204,-0.195338,-16.0854,0.198758,
2,1,0,1,0,8563.97,0.200555,0.200254,2.07994,7,0.016619,11,0.000416517,-2.68195,-0.331044,-0.178224,-14.5102,0.200254,
2,1,0,1,0,8564.01,0.202059,0.20178,2.06448,7,0.0166972,11,0.000416571,-2.68519,-0.338028,-0.174542,-14.0374,0.20178,
2,1,0,1,0,8564.05,0.203554,0.203278,2.04067,7,0.0167741,11,0.000414823,-2.69023,-0.394694,-0.149483,-11.9264,0.203278,
2,1,0,1,0,8564.09,0.20505,0.204741,2.02556,7,0.0168502,11,0.000414716,-2.69345,-0.560676,-0.10523,-8.34261,0.204741,
2,1,0,1,0,8564.12,0.20655,0.2063,2.01112,7,0.016926,11,0.000414894,-2.69656,-0.545777,-0.108103,-8.46412,0.2063,
2,1,0,1,0,8564.16,0.20805,0.207797,1.99713,7,0.0170015,11,0.000414999,-2.69959,-0.438676,-0.134496,-10.4558,0.207797,
2,1,0,1,0,8564.2,0.209546,0.209306,1.97707,7,0.017076,11,0.000413813,-2.70398,-0.401109,-0.147092,-11.3718,0.2093059,
2,1,0,1,0,8564.24,0.211043,0.210772,1.96222,7,0.0171499,11,0.000413581,-2.70725,-0.426546,-0.13832,-10.6288,0.210772,
2,1,0,1,0,8564.27,0.212543,0.212276,1.95146,7,0.0172235,11,0.000414248,-2.70964,-0.622843,-0.094727,-7.22232,0.212276,
2,1,0,1,0,8564.31,0.214043,0.21379,1.94206,7,0.0172967,11,0.000415194,-2.71174,-0.584386,-0.100961,-7.65153,0.2137904,
2,1,0,1,0,8564.35,0.215539,0.215243,1.93284,7,0.0173692,11,0.000416029,-2.7138,-0.510492,-0.115575,-8.70395,0.215243,
2,1,0,1,0,8564.39,0.217035,0.216734,1.91705,7,0.0174413,11,0.000415491,-2.71737,-0.579147,-0.101874,-7.61988,0.216734,
2,1,0,1,0,8564.42,0.218538,0.218261,1.91073,7,0.0175133,11,0.000417037,-2.7188,-1.29068,-0.0457124,-3.3989,0.218261,
2,1,0,1,0,8564.46,0.220034,0.219745,1.90237,7,0.0175847,11,0.000418037,-2.7207,-0.749803,-0.0786874,-5.83221,0.219745,
2,1,0,1,0,8564.5,0.22153,0.221311,1.89025,7,0.0176559,11,0.000418332,-2.72348,-0.571639,-0.103212,-7.61079,0.221311,
2,1,0,1,0,8564.53,0.22303,0.222764,1.87247,7,0.0177267,11,0.000417119,-2.72759,-0.612519,-0.0963236,-7.08454,0.222764,
2,1,0,1,0,8564.57,0.22453,0.224249,1.86858,7,0.0177972,11,0.000419028,-2.72849,-0.779426,-0.0756967,-5.54012,0.224249,
2,1,0,1,0,8564.61,0.226026,0.22576,1.86426,7,0.0178672,11,0.000420876,-2.72949,-0.759658,-0.0776666,-5.65524,0.22576,
2,1,0,1,0,8564.65,0.227523,0.227288,1.85972,7,0.017937,11,0.000422693,-2.73055,-0.580981,-0.101552,-7.34176,0.227288,
2,1,0,1,0,8564.68,0.229023,0.228775,1.85144,7,0.0180067,11,0.000423563,-2.73249,-0.866061,-0.0681245,-4.91182,0.2287752,
2,1,0,1,0,8564.72,0.230523,0.230218,1.84422,7,0.018076,11,0.000424571,-2.73419,-1.09524,-0.0538694,-3.87174,0.230218,
2,1,0,1,0,8564.76,0.232019,0.231789,1.83697,7,0.0181449,11,0.000425789,-2.7359,-1.26525,-0.0466313,-3.3394,0.231789,
2,1,0,1,0,8564.8,0.233515,0.233264,1.82885,7,0.0182137,11,0.000426605,-2.73782,-0.937589,-0.0629274,-4.49265,0.233264,
2,1,0,1,0,8564.83,0.235018,0.234769,1.8201,7,0.0182826,11,0.000427302,-2.73991,-0.916253,-0.0643927,-4.5897,0.234769,
2,1,0,1,0,8564.87,0.236514,0.236227,1.80996,7,0.0183507,11,0.000427562,-2.74233,-0.973715,-0.0605927,-4.30279,0.236227,
2,1,0,1,0,8564.91,0.23801,0.237699,1.80936,7,0.0184186,11,0.000430085,-2.74247,-2.04237,-0.028888,-2.03903,0.237699,
2,1,0,1,0,8564.95,0.23951,0.239235,1.80439,7,0.0184866,11,0.000431673,-2.74367,-1.23918,-0.0476122,-3.34806,0.2392347,
2,1,0,1,0,8564.98,0.24101,0.240712,1.80068,7,0.0185543,11,0.000433445,-2.74456,-0.93186,-0.0633142,-4.43853,0.2407117,
2,1,0,1,0,8565.02,0.242506,0.242211,1.7893,7,0.0186215,11,0.000433389,-2.74732,-1.0983,-0.0537192,-3.75329,0.242211,
2,1,0,1,0,8565.06,0.244003,0.243732,1.78689,7,0.0186886,11,0.000435523,-2.7479,-2.67322,-0.0220707,-1.5391,0.243732,
2,1,0,1,0,8565.1,0.245503,0.245248,1.78333,7,0.0187558,11,0.000437357,-2.74877,-1.15624,-0.0510275,-3.55314,0.245248,
2,1,0,1,0,8565.13,0.247003,0.246721,1.77775,7,0.0188228,11,0.000438609,-2.75013,-0.730718,-0.0807425,-5.60534,0.246721,
2,1,0,1,0,8565.17,0.248499,0.248251,1.76572,7,0.0188893,11,0.000438342,-2.75308,-1.23725,-0.0476864,-3.30396,0.248251,
2,1,0,1,0,8565.21,0.249995,0.249727,1.76714,7,0.0189555,11,0.000441302,-2.75273,-1.48428,-0.0397498,-2.73852,0.249727,
2,1,0,1,0,8565.25,0.251498,0.251208,1.76326,7,0.019022,11,0.000442946,-2.75368,-1.77354,-0.0332667,-2.28467,0.251208,
2,1,0,1,0,8565.28,0.252994,0.252717,1.75869,7,0.019088,11,0.00044445,-2.75481,-0.764548,-0.0771698,-5.27212,0.252717,
2,1,0,1,0,8565.32,0.25449,0.254204,1.75389,7,0.0191539,11,0.000445844,-2.756,-1.17308,-0.0502948,-3.43634,0.254204,
2,1,0,1,0,8565.36,0.25599,0.255737,1.7459,7,0.0192195,11,0.00044649,-2.75798,-2.18026,-0.027061,-1.84747,0.255737,
2,1,0,1,0,8565.4,0.25749,0.257222,1.74285,7,0.0192852,11,0.000448301,-2.75874,-1.43344,-0.0411598,-2.80028,0.257222,
2,1,0,1,0,8565.43,0.258987,0.258712,1.73833,7,0.0193505,11,0.000449726,-2.75987,-1.32705,-0.0444594,-3.02156,0.258712,
2,1,0,1,0,8565.47,0.260483,0.260243,1.73273,7,0.0194157,11,0.000450933,-2.76127,-0.982565,-0.0600469,-4.07059,0.260243,
2,1,0,1,0,8565.51,0.261983,0.261767,1.72993,7,0.0194807,11,0.000452837,-2.76197,-1.42699,-0.0413457,-2.79545,0.261767,
2,1,0,1,0,8565.55,0.263483,0.263226,1.72679,7,0.0195456,11,0.000454536,-2.76276,-5.47647,-0.0107734,-0.72388,0.263226,
2,1,0,1,0,8565.58,0.264978,0.26471,1.72457,7,0.0196103,11,0.000456511,-2.76332,-2.03146,-0.0290431,-1.94707,0.26471,
2,1,0,1,0,8565.62,0.266474,0.266204,1.71807,7,0.0196748,11,0.000457359,-2.76496,-1.55534,-0.0379337,-2.53885,0.266204,
2,1,0,1,0,8565.66,0.267977,0.267651,1.70552,7,0.0197394,11,0.000456486,-2.76814,-1.85652,-0.0317799,-2.12471,0.267651,
2,1,0,1,0,8565.7,0.269474,0.269219,1.70649,7,0.0198035,11,0.00045942,-2.7679,-3.79994,-0.0155266,-1.03663,0.2692191,
2,1,0,1,0,8565.73,0.27097,0.270684,1.70561,7,0.0198675,11,0.000461681,-2.76812,-1.34926,-0.0437277,-2.90962,0.270684,
2,1,0,1,0,8565.77,0.27247,0.272175,1.69975,7,0.0199317,11,0.000462628,-2.76962,-0.777982,-0.0758372,-5.03296,0.272175,
2,1,0,1,0,8565.81,0.27397,0.273664,1.69258,7,0.0199956,11,0.000463198,-2.77145,-0.958663,-0.0615441,-4.07721,0.273664,
2,1,0,1,0,8565.85,0.275467,0.275182,1.69482,7,0.020059,11,0.000466384,-2.77088,-1.68753,-0.0349624,-2.31193,0.275182,
2,1,0,1,0,8565.88,0.276963,0.276672,1.69259,7,0.0201224,11,0.000468294,-2.77145,-1.2647,-0.0466514,-3.07073,0.276672,
2,1,0,1,0,8565.92,0.278463,0.278187,1.68881,7,0.0201859,11,0.000469806,-2.77242,-0.841699,-0.0700963,-4.59464,0.278187,
2,1,0,1,0,8565.96,0.279963,0.279706,1.68217,7,0.0202492,11,0.000470513,-2.77413,-1.73033,-0.0340976,-2.2363,0.279706,
2,1,0,1,0,8566,0.281459,0.281178,1.67454,7,0.020312,11,0.000470843,-2.77611,-2.14983,-0.027444,-1.79988,0.281178,
2,1,0,1,0,8566.03,0.282954,0.282711,1.66909,7,0.0203748,11,0.000471871,-2.77752,-7.55823,-0.00780606,-0.510373,0.2827113,
2,1,0,1,0,8566.07,0.284458,0.284209,1.66684,7,0.0204379,11,0.000473729,-2.77811,-2.32697,-0.0253549,-1.65415,0.284209,
2,1,0,1,0,8566.11,0.285954,0.285699,1.66636,7,0.0205005,11,0.000476076,-2.77823,-1.0777,-0.054746,-3.55778,0.285699,
2,1,0,1,0,8566.15,0.28745,0.28711,1.65978,7,0.0205628,11,0.000476539,-2.77995,-1.31081,-0.0450105,-2.91681,0.28711,
2,1,0,1,0,8566.18,0.28895,0.288686,1.66038,7,0.0206252,11,0.000479329,-2.77979,-4.20711,-0.0140239,-0.904028,0.288686,
2,1,0,1,0,8566.22,0.29045,0.290138,1.65744,7,0.0206876,11,0.000480886,-2.78056,-1.75183,-0.0336791,-2.17274,0.290138,
2,1,0,1,0,8566.26,0.291947,0.291663,1.6494,7,0.0207496,11,0.000481069,-2.78267,-0.858511,-0.0687237,-4.42525,0.291663,
2,1,0,1,0,8566.3,0.293443,0.293154,1.64074,7,0.0208114,11,0.000480988,-2.78496,-1.07188,-0.0550435,-3.54254,0.293154,
2,1,0,1,0,8566.33,0.294943,0.294662,1.64142,7,0.0208731,11,0.000483665,-2.78478,-2.22815,-0.0264794,-1.70327,0.294662,
2,1,0,1,0,8566.37,0.296443,0.296151,1.64303,7,0.0209349,11,0.000486583,-2.78436,-2.04428,-0.028861,-1.84704,0.296151,
2,1,0,1,0,8566.41,0.297939,0.297683,1.63547,7,0.0209964,11,0.000486853,-2.78636,-0.696534,-0.0847051,-5.39255,0.297683,
2,1,0,1,0,8566.45,0.299434,0.299141,1.63398,7,0.0210577,11,0.000488788,-2.78675,-0.00878364,-6.71703,-324.687,0.299141,
2,1,0,0,0,8566.46,0.299962,0.299689,1.53845,7,0.0210818,11,0.000461057,-2.81292,0.000923917,63.8585,2313.2,0.2996892,
2,1,0,1,0,8566.49,0.298689,0.298382,-0.0617539,7,0.0210968,11,-1.84263e-05,-4.20934,0.00545721,10.8114,624.693,0.298382,
2,0,0,1,0,8566.53,0.297189,0.296904,-0.375119,7,0.0210871,11,-0.000111374,-3.42583,-0.015047,-3.92104,185.006,0.296904,
2,0,0,1,0,8566.57,0.295692,0.2954,-0.470397,7,0.0210708,11,-0.000138955,-3.32754,-0.0173451,-3.40155,55.9174,0.2954,
2,0,0,1,0,8566.6,0.294196,0.293892,-0.523975,7,0.0210519,11,-0.000153992,-3.28069,-0.0357247,-1.65152,33.3209,0.293892,
2,0,0,1,0,8566.64,0.292696,0.292416,-0.566195,7,0.0210312,11,-0.000165564,-3.24703,-0.0464564,-1.27001,28.2179,0.292416,
2,0,0,1,0,8566.68,0.291196,0.290908,-0.614564,7,0.0210089,11,-0.000178782,-3.21143,-0.055408,-1.06483,25.1928,0.290908,
2,0,0,1,0,8566.72,0.2897,0.289403,-0.648927,7,0.0209851,11,-0.000187802,-3.1878,-0.0650482,-0.90702,22.6631,0.289403,
2,0,0,1,0,8566.75,0.288205,0.287899,-0.683574,7,0.0209602,11,-0.0001968,-3.16521,-0.0818279,-0.721026,18.8049,0.287899,
2,0,0,1,0,8566.79,0.286701,0.286421,-0.705193,7,0.020934,11,-0.000201982,-3.15169,-0.0890654,-0.662434,18.0644,0.286421,
2,0,0,1,0,8566.83,0.285205,0.2849,-0.73081,7,0.020907,11,-0.000208208,-3.1362,-0.0998107,-0.591119,16.8529,0.2849,
2,0,0,1,0,8566.87,0.283708,0.283448,-0.753433,7,0.0208791,11,-0.000213559,-3.12296,-0.111872,-0.527388,15.5157,0.283448,
2,0,0,1,0,8566.9,0.282208,0.281927,-0.775679,7,0.0208501,11,-0.000218684,-3.11032,-0.143172,-0.412092,12.4521,0.281927,
2,0,0,1,0,8566.94,0.280709,0.280428,-0.795839,7,0.0208204,11,-0.000223175,-3.09917,-0.150897,-0.390995,12.2145,0.280428,
2,0,0,1,0,8566.98,0.279212,0.278919,-0.816307,7,0.0207901,11,-0.000227683,-3.08815,-0.156492,-0.377017,12.0371,0.278919,
2,0,0,1,0,8567.02,0.277716,0.277417,-0.838061,7,0.0207591,11,-0.000232492,-3.07672,-0.147904,-0.398908,12.9421,0.277417,
2,0,0,1,0,8567.05,0.276216,0.275887,-0.86181,7,0.0207272,11,-0.000237763,-3.06459,-0.166115,-0.355176,11.7813,0.2758874,
2,0,0,1,0,8567.09,0.274716,0.274399,-0.875662,7,0.0206946,11,-0.000240281,-3.05766,-0.189609,-0.311167,10.5247,0.274399,
2,0,0,1,0,8567.13,0.27322,0.272893,-0.88669,7,0.0206617,11,-0.000241972,-3.05223,-0.171261,-0.344504,11.8961,0.2728931,
2,0,0,1,0,8567.17,0.271725,0.271417,-0.899895,7,0.0206281,11,-0.000244246,-3.04581,-0.166973,-0.353351,12.4481,0.271417,
2,0,0,1,0,8567.2,0.270221,0.269929,-0.915208,7,0.0205936,11,-0.000247042,-3.03848,-0.187734,-0.314274,11.2761,0.269929,
2,0,0,1,0,8567.24,0.268725,0.268466,-0.929829,7,0.0205588,11,-0.000249627,-3.0316,-0.25278,-0.233404,8.51286,0.268466,
2,0,0,1,0,8567.28,0.267228,0.266936,-0.941818,7,0.0205235,11,-0.000251405,-3.02603,-0.246543,-0.239309,8.83836,0.266936,
2,0,0,1,0,8567.32,0.265728,0.265407,-0.961792,7,0.0204877,11,-0.000255266,-3.01692,-0.235986,-0.250015,9.34764,0.265407,
2,0,0,1,0,8567.35,0.264228,0.263907,-0.978005,7,0.0204512,11,-0.000258102,-3.00966,-0.241332,-0.244476,9.2537,0.263907,
2,0,0,1,0,8567.39,0.262732,0.262442,-0.991104,7,0.0204144,11,-0.000260107,-3.00388,-0.364444,-0.16189,6.18985,0.262442,
2,0,0,1,0,8567.43,0.261236,0.260982,-0.99499,7,0.0203771,11,-0.000259674,-3.00218,-0.320697,-0.183974,7.16481,0.260982,
2,0,0,1,0,8567.47,0.259736,0.259466,-1.01083,7,0.0203393,11,-0.000262276,-2.99532,-0.243397,-0.242402,9.61613,0.259466,
2,0,0,1,0,8567.5,0.258236,0.257972,-1.01969,7,0.020301,11,-0.000263052,-2.99153,-0.259202,-0.227622,9.13876,0.257972,
2,0,0,1,0,8567.54,0.256741,0.256433,-1.03396,7,0.0202622,11,-0.000265141,-2.9855,-0.336396,-0.175389,7.10356,0.256433,
2,0,0,1,0,8567.58,0.255241,0.254933,-1.04818,7,0.0202229,11,-0.000267215,-2.97957,-0.322185,-0.183124,7.48553,0.2549327,
2,0,0,1,0,8567.62,0.253741,0.25345,-1.0573,7,0.0201834,11,-0.000267972,-2.9758,-0.347062,-0.169998,7.01056,0.25345,
2,0,0,1,0,8567.65,0.252245,0.251951,-1.07569,7,0.0201434,11,-0.000271021,-2.96831,-0.303021,-0.194706,8.07785,0.251951,
2,0,0,1,0,8567.69,0.250748,0.250443,-1.08772,7,0.0201029,11,-0.000272413,-2.96348,-0.330896,-0.178304,7.49928,0.250443,
2,0,0,1,0,8567.73,0.249248,0.248942,-1.0948,7,0.0200619,11,-0.000272541,-2.96067,-0.468335,-0.125978,5.37398,0.248942,
2,0,0,1,0,8567.77,0.247748,0.247452,-1.09883,7,0.0200207,11,-0.000271907,-2.95907,-0.447076,-0.131969,5.70905,0.247452,
2,0,0,1,0,8567.8,0.246252,0.245924,-1.11317,7,0.0199791,11,-0.000273754,-2.95344,-0.270985,-0.217724,9.49427,0.245924,
2,0,0,1,0,8567.84,0.244756,0.244434,-1.12629,7,0.0199369,11,-0.000275304,-2.94835,-0.315413,-0.187057,8.24317,0.244434,
2,0,0,1,0,8567.88,0.243252,0.242984,-1.14034,7,0.0198942,11,-0.000277084,-2.94297,-0.446623,-0.132103,5.85883,0.242984,
2,0,0,1,0,8567.92,0.241756,0.24145,-1.14099,7,0.0198513,11,-0.000275491,-2.94272,-0.381859,-0.154507,6.90853,0.24145,
2,0,0,1,0,8567.95,0.240261,0.239941,-1.16094,7,0.0198082,11,-0.000278558,-2.93519,-0.378463,-0.155894,7.01762,0.239941,
2,0,0,1,0,8567.99,0.238761,0.238444,-1.17133,7,0.0197643,11,-0.000279296,-2.93132,-0.365568,-0.161393,7.33658,0.2384436,
2,0,0,1,0,8568.03,0.237261,0.236947,-1.17706,7,0.0197202,11,-0.000278902,-2.9292,-0.542911,-0.108673,4.98657,0.236947,
2,0,0,1,0,8568.06,0.235765,0.23545,-1.188,7,0.0196757,11,-0.000279715,-2.92518,-0.458318,-0.128732,5.99117,0.23545,
2,0,0,1,0,8568.1,0.234268,0.233957,-1.19441,7,0.019631,11,-0.000279441,-2.92285,-0.422106,-0.139775,6.57669,0.233957,
2,0,0,1,0,8568.14,0.232768,0.232467,-1.208,7,0.0195856,11,-0.00028082,-2.91793,-0.344875,-0.171076,8.09158,0.232467,
2,0,0,1,0,8568.18,0.231268,0.231003,-1.22173,7,0.0195399,11,-0.000282222,-2.91303,-0.472216,-0.124943,5.95099,0.231003,
2,0,0,1,0,8568.21,0.229772,0.229472,-1.23413,7,0.0194938,11,-0.000283199,-2.90864,-0.402617,-0.146541,7.02812,0.229472,
2,0,0,1,0,8568.25,0.228275,0.22796,-1.24498,7,0.0194475,11,-0.000283805,-2.90484,-0.389686,-0.151404,7.31426,0.2279595,
2,0,0,1,0,8568.29,0.226772,0.226439,-1.25738,7,0.0194004,11,-0.000284719,-2.90053,-0.28895,-0.204187,9.95311,0.226439,
2,0,0,1,0,8568.33,0.225276,0.224959,-1.26332,7,0.0193532,11,-0.000284195,-2.89849,-0.350193,-0.168478,8.31213,0.2249589,
2,0,0,1,0,8568.36,0.223781,0.223476,-1.27077,7,0.0193055,11,-0.000283985,-2.89593,-0.444594,-0.132705,6.61294,0.223476,
2,0,0,1,0,8568.4,0.222281,0.221988,-1.27462,7,0.0192574,11,-0.00028295,-2.89462,-0.414166,-0.142455,7.17302,0.221988,
2,0,0,1,0,8568.44,0.220781,0.220495,-1.29283,7,0.0192089,11,-0.000285062,-2.88846,-0.319964,-0.184396,9.34515,0.220495,
2,0,0,1,0,8568.48,0.219284,0.218956,-1.31055,7,0.0191599,11,-0.000286952,-2.88255,-0.38782,-0.152132,7.76142,0.218956,
2,0,0,1,0,8568.51,0.217788,0.217426,-1.32129,7,0.0191106,11,-0.000287283,-2.879,-0.590993,-0.0998319,5.13331,0.217426,
2,0,0,1,0,8568.55,0.216288,0.21598,-1.32928,7,0.0190607,11,-0.000287098,-2.87638,-0.44231,-0.133391,6.91052,0.21598,
2,0,0,1,0,8568.59,0.214788,0.214481,-1.34509,7,0.0190105,11,-0.000288496,-2.87125,-0.415395,-0.142034,7.45195,0.214481,
2,0,0,1,0,8568.63,0.213292,0.212995,-1.35607,7,0.0189598,11,-0.000288836,-2.86772,-0.387595,-0.152221,8.05411,0.212995,
2,0,0,1,0,8568.66,0.211796,0.211496,-1.36786,7,0.0189087,11,-0.000289298,-2.86396,-0.470385,-0.125429,6.7045,0.211496,
2,0,0,1,0,8568.7,0.210293,0.210019,-1.3798,7,0.0188568,11,-0.000289784,-2.86018,-0.345544,-0.170745,9.23593,0.2100188,
2,0,0,1,0,8568.74,0.208797,0.208503,-1.38868,7,0.0188048,11,-0.000289543,-2.8574,-0.264539,-0.22303,12.2103,0.208503,
2,0,0,1,0,8568.78,0.207301,0.207024,-1.40872,7,0.0187522,11,-0.000291637,-2.85118,-0.301726,-0.195542,10.7402,0.207024,
2,0,0,1,0,8568.81,0.205801,0.205519,-1.4312,7,0.0186987,11,-0.00029414,-2.8443,-0.372259,-0.158492,8.77734,0.205519,
2,0,0,1,0,8568.85,0.204301,0.20399,-1.44383,7,0.0186448,11,-0.000294527,-2.84048,-0.481408,-0.122557,6.86708,0.20399,
2,0,0,1,0,8568.89,0.202804,0.202517,-1.44924,7,0.0185907,11,-0.000293497,-2.83886,-0.341616,-0.172709,9.7749,0.2025173,
2,0,0,1,0,8568.93,0.201308,0.201005,-1.46865,7,0.018536,11,-0.000295207,-2.83308,-0.283623,-0.208022,11.9198,0.201005,
2,0,0,1,0,8568.96,0.199808,0.199511,-1.48441,7,0.0184804,11,-0.000296156,-2.82845,-0.320741,-0.183949,10.6807,0.199511,
2,0,0,1,0,8569,0.198308,0.198024,-1.49828,7,0.0184242,11,-0.000296697,-2.82441,-0.32619,-0.180876,10.6309,0.198024,
2,0,0,1,0,8569.04,0.196812,0.196499,-1.5103,7,0.0183677,11,-0.000296773,-2.82094,-0.286607,-0.205857,12.2339,0.196499,
2,0,0,1,0,8569.08,0.195316,0.195002,-1.53647,7,0.0183104,11,-0.000299614,-2.81348,-0.236766,-0.249192,14.9337,0.195002,
2,0,0,1,0,8569.11,0.193813,0.193443,-1.56579,7,0.018252,11,-0.000302891,-2.80527,-0.253102,-0.233108,14.1536,0.193443,
2,0,0,1,0,8569.15,0.192317,0.191992,-1.58117,7,0.0181932,11,-0.000303572,-2.80102,-0.280767,-0.210138,12.8743,0.191992,
2,0,0,1,0,8569.19,0.190821,0.190475,-1.59539,7,0.0181336,11,-0.000303883,-2.79713,-0.265332,-0.222363,13.8708,0.190475,
2,0,0,1,0,8569.23,0.189321,0.189021,-1.62166,7,0.0180731,11,-0.000306527,-2.79004,-0.245064,-0.240754,15.2618,0.189021,
2,0,0,1,0,8569.26,0.187821,0.187511,-1.64044,7,0.0180117,11,-0.000307601,-2.78504,-0.212441,-0.277724,17.8729,0.187511,
2,0,0,1,0,8569.3,0.186324,0.186007,-1.66876,7,0.0179495,11,-0.000310402,-2.77761,-0.253685,-0.232571,15.1936,0.186007,
2,0,0,1,0,8569.34,0.184828,0.184526,-1.69838,7,0.0178862,11,-0.000313397,-2.76996,-0.230847,-0.255581,16.9733,0.184526,
2,0,0,1,0,8569.38,0.183328,0.183038,-1.72692,7,0.017822,11,-0.000316092,-2.76273,-0.197021,-0.299461,20.2124,0.183038,
2,0,0,1,0,8569.41,0.181828,0.181544,-1.76554,7,0.0177565,11,-0.000320524,-2.75312,-0.177365,-0.332646,22.7766,0.181544,
2,0,0,1,0,8569.45,0.180332,0.180024,-1.79752,7,0.0176899,11,-0.000323596,-2.74533,-0.16979,-0.347487,24.2587,0.180024,
2,0,0,1,0,8569.49,0.178836,0.17849,-1.83136,7,0.017622,11,-0.000326881,-2.73723,-0.173201,-0.340644,24.2795,0.17849,
2,0,0,1,0,8569.53,0.177333,0.177063,-1.86146,7,0.0175525,11,-0.000329595,-2.73015,-0.161231,-0.365936,26.7149,0.1770625,
2,0,0,1,0,8569.56,0.175837,0.17553,-1.90294,7,0.0174818,11,-0.000334023,-2.72058,-0.140595,-0.419644,31.2701,0.17553,
2,0,0,1,0,8569.6,0.174341,0.174044,-1.94848,7,0.0174094,11,-0.000339121,-2.7103,-0.145202,-0.40633,31.0734,0.174044,
2,0,0,1,0,8569.64,0.172841,0.172568,-1.99721,7,0.0173351,11,-0.000344655,-2.69958,-0.144975,-0.406966,31.8308,0.172568,
2,0,0,1,0,8569.68,0.171341,0.171042,-2.04728,7,0.017259,11,-0.000350171,-2.68882,-0.131211,-0.449659,36.0748,0.171042,
2,0,0,1,0,8569.71,0.169844,0.169521,-2.11687,7,0.017181,11,-0.000358854,-2.67431,-0.118879,-0.496303,40.9529,0.169521,
2,0,0,1,0,8569.75,0.168348,0.168008,-2.18218,7,0.0171007,11,-0.000366624,-2.66111,-0.113475,-0.519938,44.0634,0.168008,
2,0,0,1,0,8569.79,0.166848,0.16654,-2.24888,7,0.0170176,11,-0.000374528,-2.64803,-0.11068,-0.533069,46.6471,0.16654,
2,0,0,1,0,8569.83,0.165348,0.165026,-2.31234,7,0.016932,11,-0.000381597,-2.63595,-0.105914,-0.557054,50.5068,0.165026,
2,0,0,1,0,8569.86,0.163852,0.16355,-2.39121,7,0.0168438,11,-0.000391082,-2.62138,-0.0955315,-0.617598,57.9927,0.16355,
2,0,0,1,0,8569.9,0.162357,0.162057,-2.47864,7,0.0167524,11,-0.000401679,-2.60579,-0.0873976,-0.675075,65.7496,0.162057,
2,0,0,1,0,8569.94,0.160853,0.160543,-2.58364,7,0.0166569,11,-0.000414785,-2.58777,-0.0891787,-0.661593,66.8222,0.160543,
2,0,0,1,0,8569.98,0.159357,0.159042,-2.69089,7,0.016558,11,-0.000427964,-2.5701,-0.0860771,-0.685432,71.9959,0.159042,
2,0,0,1,0,8570.01,0.157861,0.157571,-2.80612,7,0.0164553,11,-0.000442162,-2.55189,-0.0818522,-0.720812,79.0058,0.157571,
2,0,0,1,0,8570.05,0.156361,0.156075,-2.93462,7,0.0163477,11,-0.000458023,-2.53245,-0.0756863,-0.779534,89.103,0.156075,
2,0,0,1,0,8570.09,0.154861,0.154537,-3.06679,7,0.016235,11,-0.000473933,-2.51332,-0.0748986,-0.787731,94.3706,0.154537,
2,0,0,1,0,8570.12,0.153364,0.153064,-3.21068,7,0.0161174,11,-0.000491441,-2.4934,-0.0757197,-0.779189,97.8555,0.1530641,
2,0,0,1,0,8570.16,0.151868,0.151579,-3.35804,7,0.0159943,11,-0.000509007,-2.47391,-0.0729817,-0.808422,106.399,0.151579,
2,0,0,1,0,8570.2,0.150368,0.150071,-3.52278,7,0.015865,11,-0.000528667,-2.45311,-0.0715087,-0.825075,113.725,0.150071,
2,0,0,1,0,8570.24,0.148868,0.148557,-3.70154,7,0.0157293,11,-0.000549889,-2.43162,-0.0725738,-0.812966,117.305,0.148557,
2,0,0,1,0,8570.27,0.147372,0.147051,-3.87898,7,0.0155874,11,-0.000570407,-2.41128,-0.075693,-0.779464,117.622,0.147051,
2,0,0,1,0,8570.31,0.145877,0.145545,-4.04648,7,0.015439,11,-0.000588944,-2.39292,-0.0784871,-0.751716,118.689,0.145545,
2,0,0,1,0,8570.35,0.144373,0.144043,-4.23159,7,0.0152833,11,-0.000609531,-2.3735,-0.0797936,-0.739408,122.029,0.144043,
2,0,0,1,0,8570.39,0.142877,0.142618,-4.41637,7,0.0151214,11,-0.000629854,-2.35493,-0.0858563,-0.687195,117.976,0.142618,
2,0,0,1,0,8570.42,0.14138,0.141079,-4.58613,7,0.0149526,11,-0.000647009,-2.33855,-0.0920471,-0.640976,114.553,0.141079,
2,0,0,1,0,8570.46,0.13988,0.139564,-4.76301,7,0.0147771,11,-0.000664746,-2.32212,-0.0990382,-0.59573,110.736,0.139564,
2,0,0,1,0,8570.5,0.13838,0.138097,-4.92269,7,0.0145953,11,-0.000679811,-2.3078,-0.105138,-0.561169,107.823,0.138097,
2,0,0,1,0,8570.54,0.136884,0.136581,-5.09079,7,0.0144077,11,-0.000695306,-2.29322,-0.114149,-0.51687,102.357,0.136581,
2,0,0,1,0,8570.57,0.135388,0.135038,-5.24096,7,0.0142143,11,-0.000707729,-2.28059,-0.129017,-0.457305,93.1541,0.135038,
2,0,0,1,0,8570.61,0.133888,0.133597,-5.37692,7,0.0140152,11,-0.000718341,-2.26947,-0.144219,-0.4091,85.4798,0.133597,
2,0,0,1,0,8570.65,0.132389,0.132055,-5.48681,7,0.0138115,11,-0.000724559,-2.26068,-0.16526,-0.357014,76.2561,0.132055,
2,0,0,1,0,8570.69,0.130893,0.130597,-5.59713,7,0.013604,11,-0.000730968,-2.25203,-0.186536,-0.316292,68.907,0.130597,
2,0,0,1,0,8570.72,0.129393,0.129098,-5.6884,7,0.0133921,11,-0.000734362,-2.24501,-0.225438,-0.261713,57.9786,0.129098,
2,0,0,1,0,8570.76,0.127893,0.127582,-5.76175,7,0.0131769,11,-0.000735096,-2.23945,-0.297277,-0.198468,44.6064,0.127582,
2,0,0,1,0,8570.8,0.126397,0.126119,-5.82017,7,0.0129598,11,-0.000734032,-2.23506,-0.375052,-0.157312,35.751,0.126119,
2,0,0,1,0,8570.84,0.1249,0.124557,-5.87763,7,0.0127407,11,-0.000732098,-2.2308,-0.471327,-0.125178,28.6687,0.124557,
2,0,0,1,0,8570.87,0.1234,0.123128,-5.91569,7,0.0125193,11,-0.000728385,-2.22799,-0.738731,-0.0798667,18.3887,0.123128,
2,0,0,1,0,8570.91,0.1219,0.121604,-5.94382,7,0.0122969,11,-0.000722794,-2.22593,-2.4474,-0.0241072,5.56454,0.1216043,
2,0,0,1,0,8570.95,0.120404,0.120122,-5.9371,7,0.0120746,11,-0.000713179,-2.22643,4.56055,0.012937,-2.9899,0.120122,
2,0,0,1,0,8570.99,0.118908,0.11862,-5.92759,7,0.0118527,11,-0.000703128,-2.22712,1.37357,0.0429537,-9.92848,0.11862,
2,0,0,1,0,8571.02,0.117404,0.117097,-5.90672,7,0.01163,11,-0.000691659,-2.22865,0.841487,0.070114,-16.1405,0.117097,
2,0,0,1,0,8571.06,0.115909,0.115607,-5.87325,7,0.0114093,11,-0.000678988,-2.23112,0.501971,0.117537,-26.8976,0.115607,
2,0,0,1,0,8571.1,0.114413,0.114065,-5.82717,7,0.0111902,11,-0.000664675,-2.23454,0.374134,0.157697,-35.8385,0.1140648,
2,0,0,1,0,8571.14,0.112913,0.112599,-5.77047,7,0.0109726,11,-0.00064975,-2.23879,0.321602,0.183457,-41.2614,0.1125991,
2,0,0,1,0,8571.17,0.111413,0.111132,-5.70599,7,0.0107573,11,-0.000634119,-2.24367,0.282339,0.208969,-46.4314,0.111132,
2,0,0,1,0,8571.21,0.109917,0.10962,-5.63837,7,0.0105451,11,-0.000618077,-2.24885,0.249472,0.236499,-51.878,0.10962,
2,0,0,1,0,8571.25,0.10842,0.108094,-5.55648,7,0.0103358,11,-0.000600623,-2.2552,0.216006,0.273141,-59.0441,0.108094,
2,0,0,1,0,8571.29,0.10692,0.106607,-5.45489,7,0.0101293,11,-0.000581527,-2.26321,0.207036,0.284974,-60.6687,0.106607,
2,0,0,1,0,8571.32,0.10542,0.105106,-5.35994,7,0.00992623,11,-0.000563364,-2.27084,0.204786,0.288106,-60.3285,0.105106,
2,0,0,1,0,8571.36,0.103924,0.103607,-5.26872,7,0.00972716,11,-0.000545876,-2.27829,0.191909,0.307438,-63.275,0.103607,
2,0,0,1,0,8571.4,0.102427,0.102082,-5.17416,7,0.00953161,11,-0.000528188,-2.28616,0.17734,0.332694,-67.1554,0.102082,
2,0,0,1,0,8571.44,0.100924,0.100562,-5.06802,7,0.00933883,11,-0.000509651,-2.29516,0.17781,0.331815,-65.7016,0.100562,
2,0,0,1,0,8571.47,0.0994284,0.0991082,-4.97602,7,0.00915099,11,-0.000493164,-2.30312,0.184906,0.31908,-61.9489,0.0991082,
2,0,0,1,0,8571.51,0.0979329,0.0976374,-4.88491,7,0.00896659,11,-0.00047695,-2.31114,0.191744,0.307702,-58.594,0.0976374,
2,0,0,1,0,8571.55,0.0964329,0.0961066,-4.79589,7,0.00878502,11,-0.000460917,-2.31913,0.187837,0.314101,-58.6725,0.0961066,
2,0,0,1,0,8571.59,0.094933,0.0946389,-4.70235,7,0.00860678,11,-0.000445025,-2.32769,0.196054,0.300938,-55.3317,0.0946389,
2,0,0,1,0,8571.62,0.0934366,0.0931381,-4.62092,7,0.00843232,11,-0.000430384,-2.33527,0.218872,0.269564,-48.7849,0.0931381,
2,0,0,1,0,8571.66,0.0919401,0.0916311,-4.55137,7,0.00826053,11,-0.000417047,-2.34186,0.233613,0.252554,-44.9805,0.0916311,
2,0,0,1,0,8571.7,0.0904402,0.0901052,-4.49098,7,0.00809068,11,-0.000404661,-2.34766,0.229881,0.256655,-44.9893,0.0901052,
2,0,0,1,0,8571.74,0.0889402,0.0886139,-4.42905,7,0.00792326,11,-0.000392476,-2.35369,0.251117,0.234951,-40.6335,0.0886139,
2,0,0,1,0,8571.77,0.0874438,0.0871375,-4.37201,7,0.00775879,11,-0.000380967,-2.35932,0.271348,0.217433,-37.1072,0.0871375,
2,0,0,1,0,8571.81,0.0859483,0.085645,-4.32324,7,0.00759623,11,-0.000370264,-2.36419,0.327961,0.179899,-30.3051,0.085645,
2,0,0,1,0,8571.85,0.0844447,0.0841078,-4.27797,7,0.0074346,11,-0.000359811,-2.36876,0.343307,0.171858,-28.65,0.0841078,
2,0,0,1,0,8571.89,0.0829492,0.0826887,-4.22845,7,0.00727546,11,-0.000349645,-2.37382,0.337502,0.174814,-28.8441,0.0826887,
2,0,0,1,0,8571.92,0.0814528,0.0811489,-4.18014,7,0.00711806,11,-0.000339214,-2.37881,0.352253,0.167493,-27.3948,0.0811489,
2,0,0,1,0,8571.96,0.0799528,0.0796636,-4.14576,7,0.00696171,11,-0.000330266,-2.3824,0.428266,0.137765,-22.3128,0.0796636,
2,0,0,1,0,8572,0.0784529,0.0781413,-4.11058,7,0.00680667,11,-0.000321206,-2.3861,0.397964,0.148255,-23.8099,0.07814128,
2,0,0,1,0,8572.04,0.0769565,0.0766559,-4.07768,7,0.00665328,11,-0.000312578,-2.38959,0.38286,0.154104,-24.5272,0.07665588,
2,0,0,1,0,8572.07,0.0754601,0.07515,-4.03508,7,0.00650134,11,-0.000303236,-2.39415,0.396803,0.148688,-23.4567,0.07515002,
2,0,0,1,0,8572.11,0.0739601,0.0736804,-4.01747,7,0.00635029,11,-0.000296009,-2.39605,0.41736,0.141365,-22.1095,0.0736804,
2,0,0,1,0,8572.15,0.0724601,0.0721165,-3.98245,7,0.00620033,11,-0.0002872,-2.39985,0.434749,0.135711,-21.0568,0.0721165,
2,0,0,1,0,8572.18,0.0709637,0.0706458,-3.94869,7,0.00605196,11,-0.000278958,-2.40355,0.370563,0.159217,-24.4823,0.0706458,
2,0,0,1,0,8572.22,0.0694682,0.069159,-3.90846,7,0.00590481,11,-0.000270305,-2.40799,0.383961,0.153661,-23.4736,0.069159,
2,0,0,1,0,8572.26,0.0679646,0.0676985,-3.87073,7,0.00575838,11,-0.000262043,-2.41221,0.427189,0.138112,-20.9442,0.0676985,
2,0,0,1,0,8572.3,0.0664691,0.0661521,-3.83881,7,0.00561387,11,-0.000253945,-2.4158,0.424808,0.138886,-20.8479,0.0661521,
2,0,0,1,0,8572.33,0.0649727,0.0646881,-3.8145,7,0.00547045,11,-0.000246753,-2.41856,0.358342,0.164647,-24.4478,0.0646881,
2,0,0,1,0,8572.37,0.0634727,0.0631671,-3.77915,7,0.00532795,11,-0.000238718,-2.42261,0.330313,0.178618,-26.2676,0.0631671,
2,0,0,1,0,8572.41,0.0619728,0.0616706,-3.73519,7,0.00518716,11,-0.000230351,-2.42769,0.322102,0.183172,-26.6679,0.0616706,
2,0,0,1,0,8572.45,0.0604764,0.0601622,-3.6966,7,0.00504814,11,-0.000222396,-2.4322,0.330781,0.178366,-25.676,0.06016222,
2,0,0,1,0,8572.48,0.05898,0.0586247,-3.6571,7,0.00491058,11,-0.000214396,-2.43686,0.302505,0.195038,-27.8156,0.0586247,
2,0,0,1,0,8572.52,0.05748,0.0571794,-3.60916,7,0.00477416,11,-0.00020637,-2.44259,0.282682,0.208715,-29.4109,0.0571794,
2,0,0,1,0,8572.56,0.05598,0.0556607,-3.55552,7,0.00463953,11,-0.000197902,-2.4491,0.278016,0.212218,-29.5722,0.0556607,
2,0,0,1,0,8572.6,0.0544836,0.0541558,-3.5218,7,0.00450693,11,-0.000190726,-2.45324,0.290352,0.203202,-27.918,0.0541558,
2,0,0,1,0,8572.63,0.0529881,0.0526169,-3.48283,7,0.00437585,11,-0.000183256,-2.45807,0.268416,0.219808,-29.7855,0.0526169,
2,0,0,1,0,8572.67,0.0514846,0.0511729,-3.43321,7,0.00424581,11,-0.000175687,-2.4643,0.23922,0.246635,-32.9136,0.0511729,
2,0,0,1,0,8572.71,0.049989,0.0496664,-3.37568,7,0.00411838,11,-0.000167658,-2.47164,0.237977,0.247923,-32.6357,0.0496664,
2,0,0,1,0,8572.75,0.0484926,0.0482226,-3.33055,7,0.0039929,11,-0.000160608,-2.47748,0.234049,0.252083,-32.7407,0.0482226,
2,0,0,1,0,8572.78,0.0469927,0.0466804,-3.28181,7,0.00386879,11,-0.000153196,-2.48389,0.246208,0.239635,-30.7192,0.0466804,
2,0,0,1,0,8572.82,0.0454927,0.0451662,-3.23145,7,0.00374644,11,-0.000145953,-2.4906,0.226084,0.260965,-32.9487,0.0451662,
2,0,0,1,0,8572.86,0.0439963,0.0436871,-3.18493,7,0.0036261,11,-0.00013914,-2.4969,0.228345,0.258381,-32.1871,0.0436871,
2,0,0,1,0,8572.9,0.0424999,0.0421724,-3.13981,7,0.00350771,11,-0.000132414,-2.5031,0.245383,0.24044,-29.5613,0.0421724,
2,0,0,1,0,8572.93,0.0409999,0.040705,-3.10268,7,0.00339055,11,-0.000126295,-2.50826,0.275785,0.213935,-25.8839,0.040705,
2,0,0,1,0,8572.97,0.0394999,0.0391583,-3.06948,7,0.00327475,11,-0.000120196,-2.51293,0.268786,0.219505,-26.1999,0.0391583,
2,0,0,1,0,8573.01,0.0380044,0.0376291,-3.02789,7,0.00316083,11,-0.000113937,-2.51886,0.262594,0.224681,-26.4875,0.0376291,
2,0,0,1,0,8573.05,0.0365089,0.0361947,-2.9811,7,0.00304848,11,-0.0001079,-2.52562,0.299046,0.197294,-22.977,0.0361947,
2,0,0,1,0,8573.08,0.0350054,0.0346818,-2.94757,7,0.00293687,11,-0.000102227,-2.53054,0.346377,0.170335,-19.6084,0.0346818,
2,0,0,1,0,8573.12,0.033509,0.0332019,-2.91601,7,0.00282694,11,-9.68171e-05,-2.53521,0.351669,0.167771,-19.1274,0.0332019,
2,0,0,1,0,8573.16,0.0320125,0.031662,-2.88867,7,0.00271811,11,-9.14609e-05,-2.5393,0.333039,0.177156,-20.0107,0.031662,
2,0,0,1,0,8573.2,0.0305126,0.0302238,-2.85449,7,0.00261017,11,-8.62734e-05,-2.54447,0.387159,0.152392,-17.0564,0.0302238,
2,0,0,1,0,8573.23,0.0290126,0.028723,-2.83637,7,0.00250318,11,-8.1469e-05,-2.54724,0.501165,0.117726,-13.0496,0.028723,
2,0,0,1,0,8573.27,0.0275162,0.0272034,-2.82556,7,0.0023972,11,-7.68648e-05,-2.54889,0.484082,0.12188,-13.403,0.0272034,
2,0,0,1,0,8573.31,0.0260198,0.0257234,-2.80378,7,0.00229188,11,-7.21229e-05,-2.55226,0.462746,0.1275,-13.9052,0.0257234,
2,0,0,1,0,8573.35,0.0245198,0.0242081,-2.77967,7,0.00218707,11,-6.72906e-05,-2.55601,0.569158,0.103662,-11.2551,0.0242081,
2,0,0,1,0,8573.38,0.0230198,0.0227335,-2.76636,7,0.00208299,11,-6.2889e-05,-2.55809,0.677417,0.0870956,-9.4166,0.0227335,
2,0,0,1,0,8573.42,0.0215243,0.0211832,-2.75293,7,0.00197957,11,-5.83159e-05,-2.5602,0.909181,0.0648936,-6.98808,0.0211832,
2,0,0,1,0,8573.46,0.0200288,0.0197317,-2.74127,7,0.00187658,11,-5.409e-05,-2.56205,0.77629,0.0760026,-8.14515,0.0197317,
2,0,0,1,0,8573.5,0.0185253,0.0181648,-2.73309,7,0.00177341,11,-4.96461e-05,-2.56335,1.12849,0.0522824,-5.58398,0.0181648,
2,0,0,1,0,8573.53,0.0170289,0.0166726,-2.727,7,0.00167125,11,-4.54663e-05,-2.56431,1.74687,0.0337747,-3.59764,0.0166726,
2,0,0,1,0,8573.57,0.0155325,0.0152336,-2.72112,7,0.00156924,11,-4.14523e-05,-2.56525,3.14945,0.0187334,-1.98743,0.0152336,
2,0,0,1,0,8573.61,0.0140325,0.0136762,-2.72626,7,0.00146699,11,-3.72849e-05,-2.56443,2.60571,0.0226426,-2.39767,0.0136762,
2,0,0,1,0,8573.65,0.0125325,0.0122089,-2.71778,7,0.00136486,11,-3.31811e-05,-2.56579,1.91203,0.0308572,-3.27013,0.0122089,
2,0,0,1,0,8573.68,0.0110361,0.010709,-2.71001,7,0.00126329,11,-2.90216e-05,-2.56703,4.07498,0.0144786,-1.5354,0.01070902,
2,0,0,1,0,8573.72,0.0095397,0.00923095,-2.70933,7,0.00116173,11,-2.50097e-05,-2.56714,-3.07005,-0.0192179,2.037,0.00923095,
2,0,0,1,0,8573.76,0.00803616,0.00771385,-2.71224,7,0.00105951,11,-2.09218e-05,-2.56667,-2.5501,-0.0231363,2.45543,0.007713845,
2,0,0,1,0,8573.8,0.00654064,0.00622708,-2.71667,7,0.000957723,11,-1.69169e-05,-2.56596,-2.93327,-0.0201141,2.13507,0.00622708,
2,0,0,1,0,8573.83,0.00504513,0.00471492,-2.71504,7,0.000855922,11,-1.28012e-05,-2.56622,-2.06652,-0.0285504,3.03273,0.00471492,
2,0,0,1,0,8573.87,0.00354515,0.00324719,-2.72747,7,0.000753687,11,-8.8566e-06,-2.56424,-0.457046,-0.12909,13.8113,0.00324719,
2,0,0,1,0,8573.91,0.00204518,0.00168396,-2.79187,7,0.000650788,11,-4.7014e-06,-2.5541,-0.738772,-0.0798623,8.52839,0.00168396,
2,0,0,1,0,8573.95,0.000548773,0.000144702,-2.75676,7,0.000547028,11,-3.98907e-07,-2.5596, , , ,0.0001447017,
2,0,0,1,0,8573.95,0.000177222,-0.00018904,-2.75307,7,0.000521352,11,5.20441e-07,-2.56018, , , ,-0.00018904,