File: Figure_codes/Fig_3-5/rawdata_trumpetplot_data/before 10th/20221101_1-115_002_TrumpetPlot_ParaChange_13_CV_C01_4.csv
mode,ox/red,error,control changes,counter inc.,time/s,control/V,Ewe/V,<I>/mA,cycle number,(Q-Qo)/C,I Range,P/W,log(|I|),Tafel slope mV/dec,alpha_eff,dI/d(E-IR),E-IR/V,
2,1,0,0,0,6140.71,2.44065e-05,-0.000535284,13.92,5,0.0000000E+000,10,-7.45117e-06,-1.85636, , , ,-0.000535284,
2,1,0,1,0,6140.71,0.00206084,0.0016746,13.8208,5,6.99624e-05,10,2.31444e-05,-1.85947, , , ,0.0016746,
2,1,0,1,0,6140.72,0.00446904,0.00413475,14.6735,5,0.000155574,10,6.06714e-05,-1.83347,0.105313,0.560234,320.327,0.00413475,
2,1,0,1,0,6140.72,0.00686614,0.00651112,15.4635,5,0.000246108,10,0.000100685,-1.81069,0.114465,0.515441,309.063,0.00651112,
2,1,0,1,0,6140.73,0.00926324,0.00894687,16.164,5,0.00034112,10,0.000144617,-1.79145,0.134743,0.43787,274.605,0.00894687,
2,1,0,1,0,6140.73,0.0116603,0.0113678,16.779,5,0.000440064,10,0.00019074,-1.77523,0.161299,0.365781,238.425,0.0113678,
2,1,0,1,0,6140.74,0.0140685,0.0137463,17.3243,5,0.000542452,10,0.000238144,-1.76134,0.192166,0.307027,206.548,0.01374627,
2,1,0,1,0,6140.75,0.0164657,0.0161725,17.7775,5,0.000647852,10,0.000287507,-1.75013,0.236246,0.24974,172.501,0.01617248,
2,1,0,1,0,6140.75,0.0188628,0.0185467,18.1396,5,0.000755671,10,0.00033643,-1.74137,0.280103,0.210637,148.917,0.0185467,
2,1,0,1,0,6140.76,0.0212682,0.0209454,18.4951,5,0.000865592,10,0.000387388,-1.73294,0.328679,0.179506,129.162,0.02094537,
2,1,0,1,0,6140.76,0.0236653,0.0233695,18.7685,5,0.000977458,10,0.000438609,-1.72657,0.390359,0.151143,110.418,0.0233695,
2,1,0,1,0,6140.77,0.0260624,0.0257395,18.9958,5,0.00109081,10,0.000488941,-1.72134,0.456747,0.129174,95.7604,0.0257395,
2,1,0,1,0,6140.78,0.0284595,0.0281604,19.2068,5,0.00120547,10,0.00054087,-1.71655,0.519146,0.113648,85.133,0.0281604,
2,1,0,1,0,6140.78,0.0308677,0.0305558,19.4299,5,0.00132146,10,0.000593698,-1.71153,0.594967,0.0991652,75.0094,0.0305558,
2,1,0,1,0,6140.79,0.0332648,0.0329524,19.58,5,0.00143848,10,0.000645208,-1.70819,0.68189,0.0865242,66.0939,0.0329524,
2,1,0,1,0,6140.79,0.0356619,0.0353139,19.7301,5,0.00155643,10,0.000696746,-1.70487,0.693117,0.0851227,65.5719,0.0353139,
2,1,0,1,0,6140.8,0.0380673,0.0377496,19.8971,5,0.00167534,10,0.000751109,-1.70121,0.721509,0.081773,63.467,0.0377496,
2,1,0,1,0,6140.81,0.0404644,0.0401461,20.0451,5,0.00179519,10,0.000804734,-1.69799,0.758692,0.0777654,60.8309,0.04014615,
2,1,0,1,0,6140.81,0.0428615,0.0425533,20.1886,5,0.0019159,10,0.000859091,-1.69489,0.738552,0.079886,62.9736,0.0425533,
2,1,0,1,0,6140.82,0.0452586,0.0449487,20.3372,5,0.00203748,10,0.000914131,-1.69171,0.701861,0.0840622,66.7711,0.0449487,
2,1,0,1,0,6140.82,0.0476668,0.0473346,20.5198,5,0.00216008,10,0.000971296,-1.68783,0.682249,0.0864787,69.1832,0.0473346,
2,1,0,1,0,6140.83,0.0500639,0.0497492,20.6667,5,0.00228366,10,0.00102815,-1.68473,0.692211,0.0852341,68.7944,0.0497492,
2,1,0,1,0,6140.84,0.0524611,0.0520916,20.8445,5,0.00240819,10,0.00108583,-1.68101,0.598987,0.0984997,80.2462,0.0520916,
2,1,0,1,0,6140.84,0.0548693,0.0545475,21.0681,5,0.00253392,10,0.00114921,-1.67638,0.562044,0.104974,86.2514,0.0545475,
2,1,0,1,0,6140.85,0.0572664,0.0569175,21.2604,5,0.00266094,10,0.00121009,-1.67243,0.548838,0.1075,89.2833,0.0569175,
2,1,0,1,0,6140.85,0.0596635,0.0592992,21.4828,5,0.00278917,10,0.00127391,-1.66791,0.498731,0.1183,99.3459,0.0592992,
2,1,0,1,0,6140.86,0.0620633,0.0617095,21.7411,5,0.00291886,10,0.00134163,-1.66272,0.465506,0.126744,107.567,0.0617095,
2,1,0,1,0,6140.87,0.064466,0.0641453,22.0104,5,0.00305017,10,0.00141186,-1.65737,0.437031,0.135002,116.029,0.0641453,
2,1,0,1,0,6140.87,0.0668631,0.0665365,22.2922,5,0.00318308,10,0.00148324,-1.65185,0.418059,0.141128,122.9,0.0665365,
2,1,0,1,0,6140.88,0.0692602,0.0689351,22.6103,5,0.00331781,10,0.00155864,-1.64569,0.379932,0.155291,137.124,0.0689351,
2,1,0,1,0,6140.88,0.0716684,0.0713115,22.9649,5,0.00345452,10,0.00163766,-1.63894,0.372737,0.158289,141.791,0.0713115,
2,1,0,1,0,6140.89,0.0740655,0.0737133,23.2923,5,0.00359329,10,0.00171695,-1.63279,0.372748,0.158284,143.929,0.0737133,
2,1,0,1,0,6140.9,0.0764626,0.0761257,23.6271,5,0.00373411,10,0.00179863,-1.62659,0.349327,0.168896,156.005,0.0761257,
2,1,0,1,0,6140.9,0.0788653,0.078553,24.0306,5,0.00387711,10,0.00188768,-1.61923,0.346462,0.170293,159.69,0.078553,
2,1,0,1,0,6140.91,0.0812651,0.0809612,24.4181,5,0.00402253,10,0.00197692,-1.61229,0.347948,0.169566,161.484,0.08096119,
2,1,0,1,0,6140.91,0.0836622,0.083275,24.7799,5,0.00417017,10,0.00206354,-1.6059,0.335986,0.175602,170.219,0.083275,
2,1,0,1,0,6140.92,0.0860593,0.0856842,25.2155,5,0.00432019,10,0.00216057,-1.59833,0.31712,0.18605,183.289,0.0856842,
2,1,0,1,0,6140.93,0.0884675,0.0881518,25.6955,5,0.00447303,10,0.00226511,-1.59014,0.310336,0.190117,190.492,0.0881518,
2,1,0,1,0,6140.93,0.0908647,0.0905632,26.1355,5,0.00462853,10,0.00236691,-1.58277,0.32081,0.18391,187.72,0.0905632,
2,1,0,1,0,6140.94,0.0932618,0.0929788,26.6147,5,0.00478683,10,0.0024746,-1.57488,0.309626,0.190553,197.865,0.0929788,
2,1,0,1,0,6140.94,0.09567,0.0953435,27.088,5,0.00494796,10,0.00258267,-1.56722,0.32468,0.181717,191.979,0.0953435,
2,1,0,1,0,6140.95,0.0980671,0.0977199,27.5423,5,0.00511189,10,0.00269143,-1.56,0.327905,0.17993,193.391,0.0977199,
2,1,0,1,0,6140.96,0.100464,0.100145,28.0069,5,0.00527856,10,0.00280475,-1.55274,0.325338,0.18135,198.264,0.100145,
2,1,0,1,0,6140.96,0.102861,0.102557,28.477,5,0.00544807,10,0.00292052,-1.54551,0.326066,0.180945,201.13,0.102557,
2,1,0,1,0,6140.97,0.105267,0.104973,28.9691,5,0.00562049,10,0.00304098,-1.53806,0.334805,0.176222,199.09,0.104973,
2,1,0,1,0,6140.97,0.107664,0.107354,29.4346,5,0.00579576,10,0.00315992,-1.53114,0.340468,0.173291,199.134,0.107354,
2,1,0,1,0,6140.98,0.110061,0.109744,29.9239,5,0.00597386,10,0.00328396,-1.52398,0.340457,0.173297,202.41,0.109744,
2,1,0,1,0,6140.99,0.112469,0.112159,30.4293,5,0.00615497,10,0.00341294,-1.51671,0.340443,0.173304,205.644,0.112159,
2,1,0,1,0,6140.99,0.114866,0.114536,30.897,5,0.00633901,10,0.00353881,-1.51008,0.341832,0.172599,208.302,0.114536,
2,1,0,1,0,6141,0.117263,0.116906,31.4119,5,0.00652596,10,0.00367223,-1.50291,0.338866,0.17411,213.556,0.116906,
2,1,0,1,0,6141,0.11966,0.119377,31.9373,5,0.00671608,10,0.00381257,-1.4957,0.336819,0.175168,218.242,0.119377,
2,1,0,1,0,6141.01,0.122066,0.121744,32.4529,5,0.00690932,10,0.00395096,-1.48875,0.335658,0.175774,222.743,0.121744,
2,1,0,1,0,6141.02,0.124463,0.124159,32.9916,5,0.00710569,10,0.00409621,-1.4816,0.32783,0.179971,231.876,0.124159,
2,1,0,1,0,6141.02,0.12686,0.126533,33.5661,5,0.00730543,10,0.00424723,-1.4741,0.317637,0.185747,243.443,0.126533,
2,1,0,1,0,6141.03,0.129268,0.12895,34.1639,5,0.00750865,10,0.00440542,-1.46643,0.314323,0.187705,250.343,0.12895,
2,1,0,1,0,6141.03,0.131665,0.13134,34.7792,5,0.00771553,10,0.0045679,-1.45868,0.304886,0.193515,262.766,0.13134,
2,1,0,1,0,6141.04,0.134062,0.133748,35.4165,5,0.00792619,10,0.0047369,-1.45079,0.296691,0.19886,275.13,0.133748,
2,1,0,1,0,6141.05,0.13646,0.136146,36.0994,5,0.0081408,10,0.00491478,-1.4425,0.289501,0.203799,287.264,0.1361458,
2,1,0,1,0,6141.05,0.138868,0.138491,36.8087,5,0.00835961,10,0.00509769,-1.43405,0.283874,0.207839,298.653,0.138491,
2,1,0,1,0,6141.06,0.141265,0.140919,37.5334,5,0.00858266,10,0.00528915,-1.42558,0.282472,0.20887,306.151,0.1409187,
2,1,0,1,0,6141.06,0.143662,0.143341,38.3022,5,0.00881022,10,0.00549026,-1.41678,0.273494,0.215727,322.434,0.143341,
2,1,0,1,0,6141.07,0.146067,0.145731,39.0759,5,0.00904245,10,0.00569456,-1.40809,0.276808,0.213144,325.099,0.145731,
2,1,0,1,0,6141.08,0.148465,0.148196,39.8633,5,0.00927933,10,0.0059076,-1.39943,0.274549,0.214898,334.464,0.148196,
2,1,0,1,0,6141.08,0.150862,0.150512,40.6723,5,0.00952105,10,0.00612168,-1.3907,0.278515,0.211838,336.227,0.150512,
2,1,0,1,0,6141.09,0.153264,0.152994,41.484,5,0.00976764,10,0.00634679,-1.38212,0.28244,0.208894,338.207,0.152994,
2,1,0,1,0,6141.09,0.155667,0.155337,42.3022,5,0.0100191,10,0.00657109,-1.37364,0.285834,0.206414,340.695,0.155337,
2,1,0,1,0,6141.1,0.158064,0.157758,43.1297,5,0.0102755,10,0.00680406,-1.36522,0.2981,0.19792,332.833,0.157758,
2,1,0,1,0,6141.11,0.160461,0.160147,43.9109,5,0.0105367,10,0.00703219,-1.35743,0.308752,0.191092,327.378,0.160147,
2,1,0,1,0,6141.11,0.162867,0.162571,44.7066,5,0.0108026,10,0.00726801,-1.34963,0.320067,0.184336,321.38,0.162571,
2,1,0,1,0,6141.12,0.165264,0.164938,45.4679,5,0.0110732,10,0.00749938,-1.3423,0.334984,0.176128,312.239,0.164938,
2,1,0,1,0,6141.12,0.167661,0.167353,46.1894,5,0.0113482,10,0.00772991,-1.33546,0.359754,0.164001,295.443,0.167353,
2,1,0,1,0,6141.13,0.170069,0.16977,46.8954,5,0.0116275,10,0.00796144,-1.32887,0.389317,0.151547,276.956,0.16977,
2,1,0,1,0,6141.14,0.172466,0.172139,47.513,5,0.0119109,10,0.00817884,-1.32319,0.431799,0.136638,253.057,0.172139,
2,1,0,1,0,6141.14,0.174863,0.174583,48.0923,5,0.0121978,10,0.00839611,-1.31792,0.510578,0.115555,216.503,0.174583,
2,1,0,1,0,6141.15,0.17726,0.176958,48.5698,5,0.0124879,10,0.00859481,-1.31363,0.635759,0.0928025,175.571,0.176958,
2,1,0,1,0,6141.15,0.179668,0.179384,48.9503,5,0.0127805,10,0.0087809,-1.31024,0.870183,0.0678018,129.236,0.179384,
2,1,0,1,0,6141.16,0.182066,0.181764,49.2031,5,0.0130751,10,0.00894337,-1.30801,1.64207,0.0359303,68.7935,0.1817645,
2,1,0,1,0,6141.17,0.184463,0.184173,49.2975,5,0.0133707,10,0.00907925,-1.30718,-66.3134,-0.000889714,-1.70598,0.184173,
2,1,0,1,0,6141.17,0.186868,0.186593,49.2136,5,0.0136663,10,0.00918288,-1.30792,-1.31853,-0.0447468,-85.6195,0.186593,
2,1,0,1,0,6141.18,0.189265,0.18899,48.9066,5,0.0139607,10,0.00924286,-1.31063,-0.645638,-0.0913825,-173.63,0.18899,
2,1,0,1,0,6141.18,0.191662,0.191404,48.3678,5,0.0142526,10,0.00925777,-1.31544,-0.405112,-0.145639,-273.655,0.191404,
2,1,0,1,0,6141.19,0.194059,0.193768,47.5709,5,0.0145404,10,0.00921773,-1.32266,-0.289645,-0.203698,-376.327,0.193768,
2,1,0,1,0,6141.2,0.196468,0.196165,46.5389,5,0.0148228,10,0.0091293,-1.33218,-0.21828,-0.270295,-488.155,0.196165,
2,1,0,1,0,6141.2,0.198865,0.198557,45.2197,5,0.015098,10,0.00897869,-1.34467,-0.172996,-0.341049,-598.57,0.198557,
2,1,0,1,0,6141.21,0.201262,0.200999,43.6568,5,0.0153646,10,0.00877499,-1.35995,-0.144218,-0.409102,-693.402,0.2009992,
2,1,0,1,0,6141.21,0.203667,0.203368,41.8892,5,0.0156212,10,0.00851892,-1.3779,-0.12485,-0.472567,-768.937,0.203368,
2,1,0,1,0,6141.22,0.206064,0.205845,39.9457,5,0.0158665,10,0.00822264,-1.39853,-0.111014,-0.531463,-825.17,0.205845,
2,1,0,1,0,6141.23,0.208461,0.208182,37.8961,5,0.0160999,10,0.00788931,-1.42141,-0.100852,-0.585015,-862.215,0.208182,
2,1,0,1,0,6141.23,0.210859,0.210586,35.7579,5,0.0163207,10,0.00753012,-1.44663,-0.0930163,-0.634297,-883.793,0.210586,
2,1,0,1,0,6141.24,0.213267,0.212983,33.6595,5,0.0165287,10,0.00716889,-1.47289,-0.089211,-0.661353,-867.752,0.212983,
2,1,0,1,0,6141.24,0.215664,0.215401,31.5907,5,0.0167242,10,0.00680466,-1.50044,-0.0873002,-0.675829,-833.561,0.215401,
2,1,0,1,0,6141.25,0.218061,0.217771,29.6242,5,0.0169076,10,0.00645128,-1.52835,-0.0877785,-0.672146,-779.292,0.217771,
2,1,0,1,0,6141.26,0.220469,0.220198,27.8406,5,0.0170797,10,0.00613043,-1.55532,-0.0897533,-0.657357,-716.007,0.220198,
2,1,0,1,0,6141.26,0.222866,0.222585,26.2022,5,0.0172416,10,0.00583222,-1.58166,-0.0948347,-0.622135,-638.461,0.222585,
2,1,0,1,0,6141.27,0.225263,0.22496,24.7317,5,0.0173942,10,0.00556364,-1.60675,-0.100056,-0.589668,-572.262,0.22496,
2,1,0,1,0,6141.27,0.227663,0.227359,23.4633,5,0.0175385,10,0.00533459,-1.62961,-0.110571,-0.533594,-491.145,0.2273588,
2,1,0,1,0,6141.28,0.230066,0.22979,22.3715,5,0.0176759,10,0.00514075,-1.65031,-0.120904,-0.487992,-428.064,0.22979,
2,1,0,1,0,6141.29,0.232463,0.232157,21.4293,5,0.0178071,10,0.00497496,-1.66899,-0.135336,-0.435952,-366.4,0.232157,
2,1,0,1,0,6141.29,0.23486,0.234561,20.6283,5,0.0179332,10,0.00483859,-1.68554,-0.155452,-0.379538,-307.209,0.234561,
2,1,0,1,0,6141.3,0.237268,0.236968,19.9744,5,0.0180549,10,0.00473331,-1.69953,-0.179184,-0.329271,-257.63,0.236968,
2,1,0,1,0,6141.3,0.239665,0.239342,19.414,5,0.0181729,10,0.0046466,-1.71188,-0.200741,-0.293911,-223.355,0.239342,
2,1,0,1,0,6141.31,0.242063,0.241746,18.9193,5,0.0182878,10,0.00457368,-1.72309,-0.239582,-0.246262,-182.62,0.2417464,
2,1,0,1,0,6141.32,0.244465,0.244168,18.5286,5,0.0184001,10,0.00452409,-1.73216,-0.277852,-0.212343,-153.975,0.244168,
2,1,0,1,0,6141.32,0.246865,0.246567,18.1978,5,0.0185102,10,0.00448698,-1.73998,-0.318941,-0.184987,-131.468,0.246567,
2,1,0,1,0,6141.33,0.249262,0.248995,17.881,5,0.0186184,10,0.0044523,-1.74761,-0.346848,-0.170103,-119.025,0.248995,
2,1,0,1,0,6141.33,0.251659,0.251408,17.6195,5,0.0187249,10,0.00442967,-1.75401,-0.402175,-0.146702,-101.115,0.251408,
2,1,0,1,0,6141.34,0.254067,0.2538,17.4151,5,0.01883,10,0.00441995,-1.75907,-0.448979,-0.131409,-89.3102,0.2538,
2,1,0,1,0,6141.35,0.256465,0.25619,17.1918,5,0.0189338,10,0.00440436,-1.76468,-0.481623,-0.122502,-82.3531,0.25619,
2,1,0,1,0,6141.35,0.258862,0.258526,17.0127,5,0.0190364,10,0.00439824,-1.76923,-0.564502,-0.104517,-69.4949,0.258526,
2,1,0,1,0,6141.36,0.26127,0.26098,16.8671,5,0.019138,10,0.00440197,-1.77296,-0.595225,-0.0991223,-65.2324,0.26098,
2,1,0,1,0,6141.36,0.263667,0.26339,16.7104,5,0.0192387,10,0.00440137,-1.77701,-0.615508,-0.0958558,-62.4971,0.26339,
2,1,0,1,0,6141.37,0.266064,0.265796,16.5553,5,0.0193384,10,0.00440033,-1.78106,-0.64332,-0.0917118,-59.3191,0.265796,
2,1,0,1,0,6141.38,0.268461,0.268146,16.4092,5,0.0194373,10,0.00440007,-1.78491,-0.74438,-0.0792605,-50.8491,0.268146,
2,1,0,1,0,6141.38,0.270867,0.270519,16.3123,5,0.0195355,10,0.00441279,-1.78749,-0.755268,-0.0781179,-49.6752,0.270519,
2,1,0,1,0,6141.39,0.273264,0.272966,16.189,5,0.019633,10,0.00441904,-1.79078,-0.729202,-0.0809103,-51.1116,0.272966,
2,1,0,1,0,6141.39,0.275661,0.275384,16.0528,5,0.0197297,10,0.00442067,-1.79445,-0.838606,-0.0703549,-44.1501,0.275384,
2,1,0,1,0,6141.4,0.278069,0.277804,15.9685,5,0.0198258,10,0.00443613,-1.79673,-0.810112,-0.0728294,-45.3457,0.277804,
2,1,0,1,0,6141.41,0.280466,0.280163,15.8494,5,0.0199212,10,0.00444041,-1.79999,-0.798438,-0.0738943,-45.7125,0.280163,
2,1,0,1,0,6141.41,0.282863,0.282553,15.7386,5,0.020016,10,0.004447,-1.80303,-0.868368,-0.0679436,-41.8145,0.282553,
2,1,0,1,0,6141.42,0.28526,0.285019,15.6523,5,0.0201101,10,0.00446122,-1.80542,-0.927965,-0.06358,-38.826,0.285019,
2,1,0,1,0,6141.42,0.287666,0.287376,15.561,5,0.0202038,10,0.00447186,-1.80796,-0.891672,-0.0661678,-40.1702,0.287376,
2,1,0,1,0,6141.43,0.290063,0.289769,15.4561,5,0.0202968,10,0.00447871,-1.8109,-0.876807,-0.0672896,-40.6178,0.289769,
2,1,0,1,0,6141.44,0.29246,0.292142,15.3686,5,0.0203893,10,0.00448982,-1.81337,-1.00864,-0.0584944,-35.1006,0.292142,
2,1,0,1,0,6141.44,0.294868,0.294568,15.293,5,0.0204813,10,0.00450485,-1.81551,-1.00707,-0.0585856,-34.9426,0.294568,
2,1,0,1,0,6141.45,0.297265,0.296958,15.1977,5,0.0205727,10,0.00451308,-1.81822,-1.04156,-0.0566455,-33.6243,0.296958,
2,1,0,1,0,6141.45,0.29958,0.299329,15.1098,5,0.0206606,10,0.00452281,-1.82074,-0.0623646,-0.946049,-530.975,0.299329,
2,1,0,1,0,6141.46,0.299962,0.299766,14.965,5,0.0206803,10,0.004486,-1.82492,0.005488,10.7507,4571.06,0.299766,
2,1,0,1,0,6141.46,0.297903,0.297684,9.27275,5,0.0207402,10,0.00276035,-2.03279,0.00801095,7.36492,2254.56,0.297684,
2,1,0,1,0,6141.47,0.295506,0.295262,4.60593,5,0.0207806,10,0.00135996,-2.33668,0.00483592,12.2004,1649.99,0.295262,
2,1,0,1,0,6141.47,0.293101,0.292874,1.35486,5,0.0207977,10,0.000396802,-2.86811,0.0111728,5.28068,1159.49,0.292874,
2,0,0,1,0,6141.48,0.290704,0.290449,-0.943479,5,0.0207983,10,-0.000274032,-3.02527,-0.051278,-1.15059,840.984,0.290449,
2,0,0,1,0,6141.48,0.288307,0.288031,-2.61787,5,0.0207872,10,-0.000754027,-2.58205,-0.00527847,-11.1775,619.476,0.288031,
2,0,0,1,0,6141.49,0.28591,0.285624,-3.86096,5,0.0207675,10,-0.00110278,-2.41331,-0.0167976,-3.5124,463.391,0.285624,
2,0,0,1,0,6141.5,0.283501,0.283263,-4.81716,5,0.0207412,10,-0.00136453,-2.31721,-0.0296657,-1.98883,350.558,0.283263,
2,0,0,1,0,6141.5,0.281104,0.280827,-5.53358,5,0.02071,10,-0.00155398,-2.25699,-0.0457377,-1.28996,269.719,0.2808266,
2,0,0,1,0,6141.51,0.278707,0.278403,-6.10004,5,0.020675,10,-0.00169827,-2.21467,-0.0625493,-0.943255,220.371,0.278403,
2,0,0,1,0,6141.51,0.276302,0.276007,-6.59038,5,0.0206368,10,-0.00181899,-2.18109,-0.0849353,-0.694646,175.625,0.276007,
2,0,0,1,0,6141.52,0.273905,0.273594,-6.95214,5,0.0205962,10,-0.00190206,-2.15788,-0.105701,-0.55818,150.35,0.273594,
2,0,0,1,0,6141.53,0.271508,0.271237,-7.27454,5,0.0205534,10,-0.00197313,-2.13819,-0.127092,-0.464232,131.371,0.271237,
2,0,0,1,0,6141.53,0.269105,0.268836,-7.58305,5,0.0205088,10,-0.00203859,-2.12016,-0.152051,-0.388027,114.023,0.268836,
2,0,0,1,0,6141.54,0.266702,0.266473,-7.81859,5,0.0204625,10,-0.00208344,-2.10687,-0.178455,-0.330616,100.729,0.266473,
2,0,0,1,0,6141.54,0.264305,0.264032,-8.04693,5,0.0204149,10,-0.00212465,-2.09437,-0.20183,-0.292325,91.6385,0.264032,
2,0,0,1,0,6141.55,0.261908,0.261649,-8.26512,5,0.0203659,10,-0.00216256,-2.08275,-0.220759,-0.26726,85.973,0.261649,
2,0,0,1,0,6141.56,0.2595,0.259206,-8.46268,5,0.0203157,10,-0.00219358,-2.07249,-0.244966,-0.24085,79.3856,0.259206,
2,0,0,1,0,6141.56,0.257103,0.256811,-8.64667,5,0.0202644,10,-0.00222056,-2.06315,-0.275571,-0.214101,72.1725,0.256811,
2,0,0,1,0,6141.57,0.254706,0.254424,-8.81688,5,0.020212,10,-0.00224322,-2.05468,-0.274387,-0.215025,73.96,0.254424,
2,0,0,1,0,6141.57,0.2523,0.252013,-8.99978,5,0.0201585,10,-0.00226806,-2.04577,-0.295987,-0.199333,69.8578,0.252013,
2,0,0,1,0,6141.58,0.249903,0.249601,-9.15956,5,0.0201041,10,-0.00228623,-2.03813,-0.31783,-0.185634,66.2356,0.249601,
2,0,0,1,0,6141.59,0.247506,0.247196,-9.30239,5,0.0200487,10,-0.00229951,-2.03141,-0.316468,-0.186433,67.748,0.247196,
2,0,0,1,0,6141.59,0.245109,0.244837,-9.46581,5,0.0199924,10,-0.00231759,-2.02384,-0.333779,-0.176763,65.2213,0.244837,
2,0,0,1,0,6141.6,0.242701,0.242405,-9.62125,5,0.019935,10,-0.00233224,-2.01677,-0.353228,-0.167031,62.6369,0.242405,
2,0,0,1,0,6141.6,0.240304,0.24001,-9.75139,5,0.0198769,10,-0.00234044,-2.01093,-0.37981,-0.155341,59.2141,0.2400105,
2,0,0,1,0,6141.61,0.237906,0.237659,-9.91609,5,0.0198179,10,-0.00235664,-2.00366,-0.364363,-0.161927,62.5868,0.237659,
2,0,0,1,0,6141.62,0.235501,0.235182,-10.0612,5,0.0197579,10,-0.00236621,-1.99735,-0.401572,-0.146923,57.6315,0.235182,
2,0,0,1,0,6141.62,0.233104,0.232842,-10.1907,5,0.0196972,10,-0.00237282,-1.9918,-0.394899,-0.149405,59.469,0.232842,
2,0,0,1,0,6141.63,0.230707,0.230428,-10.3448,5,0.0196356,10,-0.00238373,-1.98528,-0.384586,-0.153412,61.9162,0.230428,
2,0,0,1,0,6141.63,0.22831,0.228023,-10.4826,5,0.0195731,10,-0.00239026,-1.97953,-0.410586,-0.143697,58.8092,0.228023,
2,0,0,1,0,6141.64,0.225902,0.225595,-10.633,5,0.0195097,10,-0.00239875,-1.97335,-0.402358,-0.146636,60.82,0.225595,
2,0,0,1,0,6141.65,0.223504,0.223221,-10.7834,5,0.0194454,10,-0.00240707,-1.96725,-0.407475,-0.144794,60.92,0.223221,
2,0,0,1,0,6141.65,0.221107,0.220835,-10.9191,5,0.0193803,10,-0.00241132,-1.96181,-0.391271,-0.150791,64.3028,0.220835,
2,0,0,1,0,6141.66,0.218699,0.218376,-11.0868,5,0.0193143,10,-0.0024211,-1.95519,-0.397287,-0.148507,64.2107,0.218376,
2,0,0,1,0,6141.66,0.216302,0.216028,-11.2296,5,0.0192473,10,-0.00242592,-1.94963,-0.407163,-0.144905,63.5379,0.216028,
2,0,0,1,0,6141.67,0.213905,0.213613,-11.3918,5,0.0191795,10,-0.00243344,-1.94341,-0.391504,-0.150701,67.004,0.213613,
2,0,0,1,0,6141.68,0.211505,0.211205,-11.5506,5,0.0191106,10,-0.00243954,-1.93739,-0.401279,-0.14703,66.2613,0.211205,
2,0,0,1,0,6141.68,0.209102,0.208827,-11.6984,5,0.0190408,10,-0.00244293,-1.93188,-0.371405,-0.158856,72.7121,0.208827,
2,0,0,1,0,6141.69,0.206705,0.206423,-11.9065,5,0.01897,10,-0.00245778,-1.92422,-0.365779,-0.161299,74.843,0.206423,
2,0,0,1,0,6141.69,0.204308,0.204005,-12.083,5,0.0188981,10,-0.002465,-1.91782,-0.361083,-0.163397,76.9945,0.204005,
2,0,0,1,0,6141.7,0.2019,0.201604,-12.2604,5,0.0188251,10,-0.00247175,-1.91149,-0.356835,-0.165342,79.209,0.201604,
2,0,0,1,0,6141.71,0.199503,0.19924,-12.4657,5,0.0187509,10,-0.00248367,-1.90428,-0.335765,-0.175718,85.4363,0.19924,
2,0,0,1,0,6141.71,0.197106,0.196846,-12.6568,5,0.0186755,10,-0.00249144,-1.89768,-0.334095,-0.176596,87.3642,0.196846,
2,0,0,1,0,6141.72,0.194709,0.194436,-12.87,5,0.0185989,10,-0.0025024,-1.89042,-0.316438,-0.18645,93.8466,0.194436,
2,0,0,1,0,6141.72,0.192303,0.192024,-13.1152,5,0.0185209,10,-0.00251844,-1.88222,-0.297931,-0.198032,101.359,0.192024,
2,0,0,1,0,6141.73,0.189906,0.18958,-13.3579,5,0.0184414,10,-0.00253239,-1.87426,-0.289932,-0.203496,106.21,0.18958,
2,0,0,1,0,6141.74,0.187509,0.187234,-13.6157,5,0.0183605,10,-0.00254932,-1.86596,-0.281377,-0.209683,111.569,0.187234,
2,0,0,1,0,6141.74,0.185101,0.184752,-13.91,5,0.0182779,10,-0.00256989,-1.85667,-0.259758,-0.227135,123.361,0.184752,
2,0,0,1,0,6141.75,0.182704,0.182444,-14.2059,5,0.0181935,10,-0.00259178,-1.84753,-0.251599,-0.2345,130.2,0.182444,
2,0,0,1,0,6141.75,0.180307,0.180006,-14.5428,5,0.0181073,10,-0.0026178,-1.83735,-0.234994,-0.251071,142.583,0.180006,
2,0,0,1,0,6141.76,0.177904,0.177577,-14.8835,5,0.018019,10,-0.00264297,-1.82729,-0.225357,-0.261806,152.393,0.177577,
2,0,0,1,0,6141.77,0.175501,0.175203,-15.2746,5,0.0179285,10,-0.00267615,-1.81603,-0.211154,-0.279416,166.728,0.1752027,
2,0,0,1,0,6141.77,0.173104,0.172811,-15.6791,5,0.0178356,10,-0.00270953,-1.80468,-0.204016,-0.289193,177.159,0.172811,
2,0,0,1,0,6141.78,0.170707,0.170454,-16.1127,5,0.0177402,10,-0.00274648,-1.79283,-0.192816,-0.305992,192.932,0.1704542,
2,0,0,1,0,6141.78,0.168302,0.167981,-16.606,5,0.017642,10,-0.0027895,-1.77973,-0.182031,-0.324121,210.355,0.167981,
2,0,0,1,0,6141.79,0.165905,0.165598,-17.1401,5,0.0175407,10,-0.00283835,-1.76599,-0.173744,-0.339581,227.455,0.165598,
2,0,0,1,0,6141.8,0.163507,0.163201,-17.6956,5,0.0174362,10,-0.00288793,-1.75214,-0.164093,-0.359552,248.962,0.163201,
2,0,0,1,0,6141.8,0.161099,0.16081,-18.3285,5,0.0173281,10,-0.0029474,-1.73687,-0.157231,-0.375244,268.81,0.16081,
2,0,0,1,0,6141.81,0.158702,0.158409,-18.9982,5,0.017216,10,-0.00300948,-1.72129,-0.150867,-0.391074,290.376,0.158409,
2,0,0,1,0,6141.81,0.156305,0.155987,-19.715,5,0.0170998,10,-0.00307528,-1.7052,-0.145366,-0.405872,312.897,0.155987,
2,0,0,1,0,6141.82,0.153908,0.153606,-20.4917,5,0.0169792,10,-0.00314766,-1.68842,-0.140403,-0.42022,336.642,0.153606,
2,0,0,1,0,6141.83,0.151503,0.151215,-21.326,5,0.0168536,10,-0.00322481,-1.67109,-0.136489,-0.432268,360.435,0.151215,
2,0,0,1,0,6141.83,0.149105,0.148823,-22.2271,5,0.0167229,10,-0.0033079,-1.65312,-0.13255,-0.445114,386.612,0.148823,
2,0,0,1,0,6141.84,0.146708,0.146426,-23.1858,5,0.0165866,10,-0.00339501,-1.63478,-0.130366,-0.452572,410.016,0.146426,
2,0,0,1,0,6141.84,0.1443,0.143999,-24.2038,5,0.0164444,10,-0.00348532,-1.61612,-0.127191,-0.463871,438.553,0.143999,
2,0,0,1,0,6141.85,0.141903,0.141623,-25.2896,5,0.0162958,10,-0.00358159,-1.59706,-0.128349,-0.459684,453.448,0.1416228,
2,0,0,1,0,6141.86,0.139506,0.139202,-26.3847,5,0.0161407,10,-0.0036728,-1.57865,-0.130079,-0.453571,467.308,0.139202,
2,0,0,1,0,6141.86,0.137109,0.136844,-27.5309,5,0.0159789,10,-0.00376742,-1.56018,-0.131,-0.450381,484.192,0.136844,
2,0,0,1,0,6141.87,0.134701,0.134405,-28.7184,5,0.01581,10,-0.00385988,-1.54184,-0.13219,-0.446328,499.923,0.134405,
2,0,0,1,0,6141.87,0.132303,0.132017,-29.9243,5,0.0156339,10,-0.00395051,-1.52398,-0.137493,-0.429113,500.22,0.132017,
2,0,0,1,0,6141.88,0.129906,0.129671,-31.1087,5,0.0154507,10,-0.0040339,-1.50712,-0.143968,-0.409814,496.936,0.129671,
2,0,0,1,0,6141.89,0.127501,0.127313,-32.2717,5,0.0152606,10,-0.00410859,-1.49118,-0.146947,-0.401505,506.166,0.127313,
2,0,0,1,0,6141.89,0.125104,0.124865,-33.5166,5,0.0150632,10,-0.00418506,-1.47474,-0.152012,-0.388128,506.763,0.1248652,
2,0,0,1,0,6141.9,0.122707,0.122528,-34.7192,5,0.0148582,10,-0.00425407,-1.45943,-0.158422,-0.372423,503.963,0.122528,
2,0,0,1,0,6141.9,0.12031,0.120098,-35.8999,5,0.0146462,10,-0.0043115,-1.44491,-0.16944,-0.348206,487.463,0.120098,
2,0,0,1,0,6141.91,0.117901,0.11764,-37.0742,5,0.0144272,10,-0.00436139,-1.43093,-0.18103,-0.325912,470.695,0.11764,
2,0,0,1,0,6141.92,0.115504,0.115275,-38.183,5,0.0142012,10,-0.00440155,-1.41813,-0.193145,-0.30547,454.35,0.115275,
2,0,0,1,0,6141.92,0.113107,0.112841,-39.2294,5,0.0139689,10,-0.00442669,-1.40639,-0.208423,-0.283078,433.013,0.112841,
2,0,0,1,0,6141.93,0.110702,0.110498,-40.2659,5,0.0137303,10,-0.00444929,-1.39506,-0.221141,-0.266798,418.649,0.110498,
2,0,0,1,0,6141.93,0.108305,0.108078,-41.2462,5,0.0134856,10,-0.0044578,-1.38462,-0.238729,-0.247143,397.177,0.108078,
2,0,0,1,0,6141.94,0.105908,0.105687,-42.1638,5,0.0132353,10,-0.00445615,-1.37506,-0.257882,-0.228787,376.053,0.105687,
2,0,0,1,0,6141.95,0.103505,0.103251,-43.05,5,0.0129796,10,-0.00444495,-1.36603,-0.288673,-0.204384,342.683,0.103251,
2,0,0,1,0,6141.95,0.101102,0.100789,-43.8467,5,0.0127187,10,-0.00441925,-1.35806,-0.325577,-0.181217,309.324,0.100789,
2,0,0,1,0,6141.96,0.0987052,0.0983794,-44.5306,5,0.0124535,10,-0.0043809,-1.35134,-0.379127,-0.155621,269.986,0.0983794,
2,0,0,1,0,6141.96,0.0963081,0.0960052,-45.1382,5,0.0121844,10,-0.0043335,-1.34546,-0.430805,-0.136953,240.847,0.0960052,
2,0,0,1,0,6141.97,0.0938999,0.0936458,-45.6779,5,0.0119119,10,-0.00427755,-1.34029,-0.51935,-0.113604,202.117,0.0936458,
2,0,0,1,0,6141.98,0.0915028,0.0911878,-46.1159,5,0.0116364,10,-0.0042052,-1.33615,-0.682223,-0.086482,155.291,0.0911878,
2,0,0,1,0,6141.98,0.0891057,0.0888146,-46.4364,5,0.0113587,10,-0.00412423,-1.33314,-0.918745,-0.064218,116.158,0.0888146,
2,0,0,1,0,6141.99,0.0867002,0.0864149,-46.6684,5,0.0110794,10,-0.00403284,-1.33098,-1.50849,-0.039112,71.0843,0.0864149,
2,0,0,1,0,6141.99,0.0843031,0.0839484,-46.788,5,0.0107989,10,-0.00392778,-1.32987,-4.57442,-0.0128978,23.4894,0.0839484,
2,0,0,1,0,6142,0.081906,0.0815752,-46.7702,5,0.0105182,10,-0.00381529,-1.33003,4.41666,0.0133585,-24.336,0.08157517,
2,0,0,1,0,6142.01,0.0795089,0.0791585,-46.6518,5,0.0102379,10,-0.00369288,-1.33113,1.53482,0.038441,-69.8569,0.0791585,
2,0,0,1,0,6142.01,0.0771007,0.0768161,-46.4481,5,0.00995856,10,-0.00356796,-1.33303,0.901489,0.0654473,-118.318,0.07681606,
2,0,0,1,0,6142.02,0.0747036,0.0744217,-46.0876,5,0.00968096,10,-0.00342992,-1.33642,0.64042,0.092127,-165.408,0.0744217,
2,0,0,1,0,6142.02,0.0723065,0.0720156,-45.636,5,0.0094058,10,-0.00328651,-1.34069,0.52242,0.112936,-200.821,0.0720156,
2,0,0,1,0,6142.03,0.0699011,0.0696042,-45.1337,5,0.00913353,10,-0.00314149,-1.3455,0.444168,0.132832,-233.504,0.06960424,
2,0,0,1,0,6142.04,0.067504,0.0671971,-44.5103,5,0.00886466,10,-0.00299096,-1.35154,0.389697,0.151399,-262.709,0.0671971,
2,0,0,1,0,6142.04,0.0651069,0.0647815,-43.8554,5,0.00859959,10,-0.00284102,-1.35798,0.364246,0.161979,-277.062,0.0647815,
2,0,0,1,0,6142.05,0.0627098,0.0624465,-43.164,5,0.00833857,10,-0.00269544,-1.36488,0.341576,0.172729,-290.896,0.0624465,
2,0,0,1,0,6142.05,0.0603016,0.0599683,-42.4696,5,0.00808169,10,-0.00254683,-1.37192,0.334947,0.176147,-291.847,0.05996833,
2,0,0,1,0,6142.06,0.0579045,0.0576068,-41.7578,5,0.00782909,10,-0.00240553,-1.37926,0.328483,0.179614,-292.717,0.0576068,
2,0,0,1,0,6142.07,0.0555074,0.0551848,-41.0456,5,0.00758076,10,-0.0022651,-1.38673,0.334601,0.176329,-282.68,0.05518483,
2,0,0,1,0,6142.07,0.0530992,0.0527788,-40.3934,5,0.00733654,10,-0.00213192,-1.39369,0.331677,0.177884,-280.342,0.0527788,
2,0,0,1,0,6142.08,0.0507021,0.0504141,-39.7245,5,0.00709626,10,-0.00200267,-1.40094,0.335404,0.175907,-272.698,0.0504141,
2,0,0,1,0,6142.08,0.048305,0.0479826,-39.0576,5,0.00686001,10,-0.00187408,-1.40829,0.342451,0.172288,-262.815,0.0479826,
2,0,0,1,0,6142.09,0.0459051,0.0456147,-38.4431,5,0.00662757,10,-0.00175357,-1.41518,0.339115,0.173982,-260.965,0.0456147,
2,0,0,1,0,6142.1,0.0435024,0.0431853,-37.817,5,0.00639878,10,-0.00163314,-1.42231,0.337221,0.174959,-258.22,0.0431853,
2,0,0,1,0,6142.1,0.0411053,0.0408078,-37.1907,5,0.00617383,10,-0.00151767,-1.42957,0.326017,0.180972,-262.765,0.0408078,
2,0,0,1,0,6142.11,0.0387082,0.038405,-36.5845,5,0.00595255,10,-0.00140503,-1.4367,0.329816,0.178887,-255.331,0.038405,
2,0,0,1,0,6142.11,0.0363,0.035983,-35.9737,5,0.00573494,10,-0.00129444,-1.44401,0.313309,0.188312,-264.13,0.035983,
2,0,0,1,0,6142.12,0.0339029,0.0335865,-35.3152,5,0.00552114,10,-0.00118611,-1.45204,0.297198,0.198521,-273.438,0.0335865,
2,0,0,1,0,6142.13,0.0315058,0.0312059,-34.6678,5,0.00531125,10,-0.00108184,-1.46007,0.290464,0.203124,-274.651,0.0312059,
2,0,0,1,0,6142.13,0.0291087,0.0287775,-33.9812,5,0.0051054,10,-0.000977894,-1.46876,0.271111,0.217623,-288.385,0.02877753,
2,0,0,1,0,6142.14,0.0267033,0.0264096,-33.2879,5,0.0049036,10,-0.00087912,-1.47771,0.257794,0.228865,-296.971,0.0264096,
2,0,0,1,0,6142.14,0.0243062,0.024011,-32.5543,5,0.00470614,10,-0.000781662,-1.48739,0.24286,0.242938,-308.49,0.024011,
2,0,0,1,0,6142.15,0.0219091,0.0215519,-31.8229,5,0.00451308,10,-0.000685845,-1.49726,0.236467,0.249506,-309.673,0.0215519,
2,0,0,1,0,6142.16,0.0195009,0.0191872,-31.0771,5,0.00432446,10,-0.000596283,-1.50756,0.227763,0.259041,-313.982,0.0191872,
2,0,0,1,0,6142.16,0.0171038,0.0168119,-30.3154,5,0.00414038,10,-0.000509659,-1.51834,0.226661,0.260301,-308.149,0.0168119,
2,0,0,1,0,6142.17,0.0147067,0.0144037,-29.5986,5,0.00396073,10,-0.000426329,-1.52873,0.230651,0.255798,-295.571,0.0144037,
2,0,0,1,0,6142.17,0.012304,0.0119711,-28.9076,5,0.00378532,10,-0.000346057,-1.53899,0.235152,0.250901,-283.143,0.01197115,
2,0,0,1,0,6142.18,0.00990136,0.00958311,-28.2212,5,0.00361404,10,-0.000270447,-1.54942,0.241856,0.243947,-269.102,0.00958311,
2,0,0,1,0,6142.19,0.00750426,0.00721523,-27.6119,5,0.00344663,10,-0.000199226,-1.5589,0.25784,0.228824,-246.952,0.00721523,
2,0,0,1,0,6142.19,0.00510715,0.00482613,-27.0447,5,0.00328271,10,-0.000130521,-1.56792,0.297469,0.19834,-210.003,0.00482613,
2,0,0,1,0,6142.2,0.00270173,0.00238508,-26.5415,5,0.003122,10,-6.33036e-05,-1.57607,0.323168,0.182567,-189.713,0.00238508,
2,0,0,1,0,6142.2,0.000304623,-4.64366e-05,-26.1502,5,0.00296382,10,1.21432e-06,-1.58253,0.358723,0.164472,-167.957,-0.00004643658,
2,0,0,1,0,6142.21,-0.00209248,-0.00247159,-25.7548,5,0.00280814,10,6.36553e-05,-1.58914,0.384563,0.153421,-154.504,-0.00247159,
2,0,0,1,0,6142.22,-0.00450068,-0.00482993,-25.4213,5,0.0026547,10,0.000122783,-1.5948,0.438056,0.134686,-133.774,-0.00482993,
2,0,0,1,0,6142.22,-0.00689779,-0.0072519,-25.1174,5,0.00250316,10,0.000182149,-1.60002,0.522513,0.112916,-110.882,-0.007251902,
2,0,0,1,0,6142.23,-0.00929489,-0.00962615,-24.8787,5,0.00235324,10,0.000239486,-1.60417,0.637409,0.0925622,-90.0107,-0.00962615,
2,0,0,1,0,6142.23,-0.011692,-0.0120354,-24.6834,5,0.0022046,10,0.000297074,-1.6076,0.749388,0.0787309,-75.9149,-0.0120354,
2,0,0,1,0,6142.24,-0.0140974,-0.0144118,-24.5166,5,0.002057,10,0.000353327,-1.61054,0.960951,0.0613975,-58.839,-0.0144118,
2,0,0,1,0,6142.25,-0.0164945,-0.0168655,-24.3977,5,0.00191031,10,0.00041148,-1.61265,1.27338,0.0463335,-44.1864,-0.01686555,
2,0,0,1,0,6142.25,-0.0188916,-0.0192451,-24.3167,5,0.00176421,10,0.000467977,-1.6141,1.79934,0.0327898,-31.1362,-0.0192451,
2,0,0,1,0,6142.26,-0.0212998,-0.0216268,-24.2446,5,0.00161855,10,0.000524332,-1.61539,2.84093,0.0207678,-19.6718,-0.02162678,
2,0,0,1,0,6142.26,-0.0236969,-0.0240275,-24.2119,5,0.00147319,10,0.000581752,-1.61597,5.9799,0.00986638,-9.32897,-0.0240275,
2,0,0,1,0,6142.27,-0.026094,-0.0264675,-24.2137,5,0.00132793,10,0.000640877,-1.61594,-50.4185,-0.00117021,1.10622,-0.0264675,
2,0,0,1,0,6142.28,-0.0284912,-0.0288566,-24.2049,5,0.0011827,10,0.000698471,-1.6161,-6.67435,-0.00883982,8.36112,-0.0288566,
2,0,0,1,0,6142.28,-0.0308994,-0.0312468,-24.2433,5,0.00103733,10,0.000757524,-1.61541,-3.44831,-0.0171098,16.1982,-0.0312468,
2,0,0,1,0,6142.29,-0.0332965,-0.0336422,-24.2916,5,0.000891717,10,0.000817223,-1.61454,-2.65131,-0.0222531,21.1071,-0.0336422,
2,0,0,1,0,6142.29,-0.0356936,-0.0360335,-24.3536,5,0.000745795,10,0.000877544,-1.61344,-2.08629,-0.0282799,26.8921,-0.03603347,
2,0,0,1,0,6142.3,-0.038099,-0.0384406,-24.4265,5,0.000599458,10,0.00093897,-1.61214,-1.70813,-0.0345407,32.938,-0.0384406,
2,0,0,1,0,6142.31,-0.0404961,-0.0408445,-24.5053,5,0.000452662,10,0.00100091,-1.61074,-1.51084,-0.0390512,37.3779,-0.0408445,
2,0,0,1,0,6142.31,-0.0428932,-0.0432326,-24.6049,5,0.000305298,10,0.00106373,-1.60898,-1.33257,-0.0442755,42.5253,-0.0432326,
2,0,0,1,0,6142.32,-0.0452903,-0.04568,-24.7023,5,0.000157342,10,0.0011284,-1.60726,-1.2432,-0.0474581,45.7876,-0.04568,
2,0,0,1,0,6142.32,-0.0476985,-0.0480256,-24.8192,5,8.75193e-06,10,0.00119196,-1.60521,-1.13074,-0.0521784,50.5653,-0.0480256,
2,0,0,1,0,6142.33,-0.0500956,-0.0504179,-24.9491,5,-0.00014059,10,0.00125788,-1.60294,-1.14398,-0.0515744,50.2049,-0.0504179,
2,0,0,1,0,6142.34,-0.0524927,-0.0528261,-25.0661,5,-0.000290676,10,0.00132414,-1.60091,-1.09126,-0.0540657,52.9329,-0.0528261,
2,0,0,1,0,6142.34,-0.0548981,-0.0552162,-25.2096,5,-0.00044149,10,0.00139198,-1.59843,-1.04443,-0.0564902,55.5975,-0.0552162,
2,0,0,1,0,6142.35,-0.0572953,-0.0576499,-25.354,5,-0.000593202,10,0.00146165,-1.59595,-1.00358,-0.0587896,58.1472,-0.0576499,
2,0,0,1,0,6142.35,-0.0596924,-0.060057,-25.4918,5,-0.000745736,10,0.00153096,-1.5936,-0.952895,-0.0619166,61.6274,-0.060057,
2,0,0,1,0,6142.36,-0.062095,-0.0624153,-25.6379,5,-0.000899103,10,0.0016002,-1.59112,-0.928171,-0.0635659,63.6123,-0.0624153,
2,0,0,1,0,6142.37,-0.0644977,-0.0648097,-25.8138,5,-0.00105349,10,0.00167299,-1.58815,-0.869658,-0.0678427,68.2966,-0.0648097,
2,0,0,1,0,6142.37,-0.0668948,-0.0672041,-25.9595,5,-0.00120878,10,0.00174459,-1.5857,-0.916112,-0.0644026,65.257,-0.0672041,
2,0,0,1,0,6142.38,-0.0692919,-0.0696378,-26.1185,5,-0.00136503,10,0.00181884,-1.58305,-0.852451,-0.0692122,70.5878,-0.0696378,
2,0,0,1,0,6142.38,-0.0717001,-0.0720672,-26.293,5,-0.0015223,10,0.00189486,-1.58016,-0.809941,-0.0728448,74.7742,-0.0720672,
2,0,0,1,0,6142.39,-0.0740972,-0.0744244,-26.4817,5,-0.00168064,10,0.00197089,-1.57705,-0.844389,-0.069873,72.2221,-0.0744244,
2,0,0,1,0,6142.4,-0.0764943,-0.0767955,-26.656,5,-0.00184008,10,0.00204706,-1.5742,-0.797582,-0.0739736,76.9765,-0.0767955,
2,0,0,1,0,6142.4,-0.0788997,-0.079261,-26.8396,5,-0.00200056,10,0.00212733,-1.57122,-0.780224,-0.0756193,79.2605,-0.079261,
2,0,0,1,0,6142.41,-0.0812968,-0.0816607,-27.0448,5,-0.00216225,10,0.00220849,-1.56792,-0.754406,-0.0782072,82.4984,-0.0816607,
2,0,0,1,0,6142.41,-0.0836939,-0.0840476,-27.2459,5,-0.00232515,10,0.00228995,-1.5647,-0.750602,-0.0786036,83.5823,-0.0840476,
2,0,0,1,0,6142.42,-0.086091,-0.0864282,-27.436,5,-0.00248918,10,0.00237124,-1.56168,-0.701096,-0.084154,90.2081,-0.0864282,
2,0,0,1,0,6142.43,-0.0884992,-0.0888523,-27.6816,5,-0.00265456,10,0.00245957,-1.55781,-0.677917,-0.0870313,93.9669,-0.0888523,
2,0,0,1,0,6142.43,-0.0908963,-0.091252,-27.8925,5,-0.00282132,10,0.00254525,-1.55451,-0.702867,-0.0839419,91.3891,-0.091252,
2,0,0,1,0,6142.44,-0.0932934,-0.0936528,-28.1109,5,-0.00298935,10,0.00263267,-1.55113,-0.658363,-0.0896163,98.4148,-0.0936528,
2,0,0,1,0,6142.44,-0.0956989,-0.0960122,-28.3672,5,-0.00315879,10,0.00272359,-1.54718,-0.63043,-0.0935869,103.6,-0.0960122,
2,0,0,1,0,6142.45,-0.098096,-0.0984055,-28.6101,5,-0.00332975,10,0.00281539,-1.54348,-0.698762,-0.0844351,93.9705,-0.09840554,
2,0,0,0,0,6142.46,-0.0999548,-0.100324,-28.7813,5,-0.00346469,10,0.00288744,-1.54089,0.0229339,2.57261,-2664.38,-0.1003238,
2,0,0,1,1,6142.46,-0.0994555,-0.0999262,-27.0298,5,-0.00351176,10,0.00270098,-1.56816,-0.01688,-3.49526,3178.81,-0.0999262,
2,0,0,1,1,6142.46,-0.0970583,-0.0974745,-20.4501,5,-0.00365279,10,0.00199337,-1.6893,-0.0184957,-3.18993,2506.95,-0.0974745,
2,0,0,1,1,6142.47,-0.0946501,-0.0950091,-15.0935,5,-0.0037585,10,0.00143402,-1.82121,-0.0163736,-3.60336,2087.63,-0.0950091,
2,0,0,1,1,6142.48,-0.092253,-0.0926327,-10.5378,5,-0.00383465,10,0.000976145,-1.97725,-0.0131076,-4.50122,1769.3,-0.0926327,
2,0,0,1,1,6142.48,-0.0898559,-0.0902553,-6.63522,5,-0.00388551,10,0.000598864,-2.17814,-0.00868432,-6.79385,1528.04,-0.0902553,
2,0,0,1,1,6142.49,-0.0874588,-0.0879001,-3.23754,5,-0.00391457,10,0.00028458,-2.48978,-0.00582383,-10.1308,1329.69,-0.0879001,
2,0,0,1,1,6142.49,-0.0850534,-0.0854389,-0.268932,5,-0.00392457,10,2.29772e-05,-3.57036,-0.0452792,-1.30303,1165.77,-0.0854389,
2,1,0,1,1,6142.5,-0.0826563,-0.0830943,2.32643,5,-0.003918,10,-0.000193313,-2.63331,0.00987965,5.97187,1030.31,-0.0830943,
2,1,0,1,1,6142.51,-0.0802592,-0.080683,4.62403,5,-0.00389679,10,-0.00037308,-2.33498,0.00929634,6.34658,902.694,-0.080683,
2,1,0,1,1,6142.51,-0.077851,-0.0782705,6.64579,5,-0.00386268,10,-0.00052017,-2.17745,0.0176926,3.33473,791.146,-0.07827054,
2,1,0,1,1,6142.52,-0.0754539,-0.0758931,8.42163,5,-0.00381723,10,-0.000639144,-2.0746,0.0261225,2.25859,709.872,-0.0758931,
2,1,0,1,1,6142.52,-0.0730568,-0.0734902,10.0307,5,-0.00376164,10,-0.00073716,-1.99867,0.0351603,1.67803,637.636,-0.0734902,
2,1,0,1,1,6142.53,-0.0706597,-0.0711001,11.4484,5,-0.00369694,10,-0.000813979,-1.94126,0.0462053,1.27691,559.742,-0.0711001,
2,1,0,1,1,6142.54,-0.0682542,-0.0686325,12.7425,5,-0.00362414,10,-0.00087455,-1.89474,0.0575328,1.0255,502.16,-0.0686325,
2,1,0,1,1,6142.54,-0.0658571,-0.0662222,13.8781,5,-0.00354408,10,-0.000919041,-1.85767,0.0712388,0.8282,442.882,-0.0662222,
2,1,0,1,1,6142.55,-0.06346,-0.0638373,14.8713,5,-0.00345767,10,-0.000949347,-1.82765,0.0865058,0.682036,392.445,-0.0638373,
2,1,0,1,1,6142.55,-0.0610518,-0.061462,15.7751,5,-0.00336559,10,-0.00096957,-1.80203,0.103529,0.569891,347.917,-0.061462,
2,1,0,1,1,6142.56,-0.0586547,-0.0590199,16.5592,5,-0.00326847,10,-0.000977324,-1.78096,0.125452,0.470299,301.94,-0.0590199,
2,1,0,1,1,6142.57,-0.0562576,-0.0565926,17.2336,5,-0.00316698,10,-0.000975293,-1.76362,0.145348,0.405921,271.809,-0.0565926,
2,1,0,1,1,6142.57,-0.053855,-0.0542078,17.8362,5,-0.00306167,10,-0.000966863,-1.7487,0.171368,0.344288,238.814,-0.0542078,
2,1,0,1,1,6142.58,-0.0514523,-0.0518303,18.3719,5,-0.00295291,10,-0.000952223,-1.73585,0.199021,0.296452,211.883,-0.0518303,
2,1,0,1,1,6142.58,-0.0490552,-0.0494253,18.8589,5,-0.00284115,10,-0.000932108,-1.72448,0.234716,0.251368,184.377,-0.0494253,
2,1,0,1,1,6142.59,-0.0466581,-0.0470564,19.2487,5,-0.00272676,10,-0.000905774,-1.7156,0.271281,0.217487,163.075,-0.0470564,
2,1,0,1,1,6142.6,-0.0442527,-0.0446376,19.6172,5,-0.00261008,10,-0.000875667,-1.70736,0.318619,0.185174,141.484,-0.0446376,
2,1,0,1,1,6142.6,-0.0418556,-0.0422019,19.9407,5,-0.00249133,10,-0.000841536,-1.70026,0.377852,0.156146,121.158,-0.0422019,
2,1,0,1,1,6142.61,-0.0394585,-0.0397809,20.2122,5,-0.00237082,10,-0.00080406,-1.69439,0.440076,0.134068,105.569,-0.0397809,
2,1,0,1,1,6142.61,-0.0370558,-0.0374215,20.437,5,-0.00224888,10,-0.000764786,-1.68958,0.507927,0.116158,92.5593,-0.0374215,
2,1,0,1,1,6142.62,-0.0346532,-0.0350144,20.651,5,-0.00212555,10,-0.000723083,-1.68506,0.603491,0.0977645,78.6234,-0.0350144,
2,1,0,1,1,6142.63,-0.0322561,-0.0325967,20.8131,5,-0.00200107,10,-0.000678438,-1.68166,0.779478,0.0756917,61.4168,-0.0325967,
2,1,0,1,1,6142.63,-0.0298589,-0.0302055,20.9523,5,-0.00187577,10,-0.000632873,-1.67877,0.917298,0.0643194,52.5864,-0.03020547,
2,1,0,1,1,6142.64,-0.0274535,-0.0277962,21.0792,5,-0.00174966,10,-0.000585922,-1.67615,1.08018,0.0546204,44.86,-0.0277962,
2,1,0,1,1,6142.64,-0.0250564,-0.0254146,21.1754,5,-0.00162288,10,-0.000538164,-1.67417,1.55216,0.0380116,31.3673,-0.0254146,
2,1,0,1,1,6142.65,-0.0226593,-0.0230191,21.2412,5,-0.00149564,10,-0.000488954,-1.67282,1.82814,0.0322732,26.7312,-0.02301909,
2,1,0,1,1,6142.66,-0.0202511,-0.0206003,21.3022,5,-0.00136806,10,-0.000438832,-1.67157,2.43421,0.0242378,20.1292,-0.0206003,
2,1,0,1,1,6142.66,-0.017854,-0.0182345,21.3385,5,-0.00124015,10,-0.000389097,-1.67084,3.64386,0.0161916,13.4667,-0.0182345,
2,1,0,1,1,6142.67,-0.0154569,-0.0157977,21.3538,5,-0.00111205,10,-0.000337341,-1.67053,9.00901,0.006549,5.45456,-0.0157977,
2,1,0,1,1,6142.67,-0.0130598,-0.0134532,21.3421,5,-0.000983911,10,-0.000287118,-1.67076,13.2294,0.00445975,3.71883,-0.0134532,
2,1,0,1,1,6142.68,-0.0106516,-0.010992,21.3755,5,-0.000855721,10,-0.000234959,-1.67008,-16.1624,-0.00365046,-3.04215,-0.010992,
2,1,0,1,1,6142.69,-0.00825448,-0.00861134,21.3533,5,-0.000727505,10,-0.00018388,-1.67054,-4.66773,-0.01264,-10.5282,-0.00861134,
2,1,0,1,1,6142.69,-0.00585738,-0.00622543,21.3196,5,-0.000599496,10,-0.000132724,-1.67122,-4.46719,-0.0132074,-10.997,-0.00622543,
2,1,0,1,1,6142.7,-0.00345195,-0.00379073,21.3089,5,-0.00047165,10,-8.07764e-05,-1.67144,-3.42732,-0.0172146,-14.2995,-0.00379073,
2,1,0,1,1,6142.7,-0.00105485,-0.00142178,21.2678,5,-0.000343894,10,-3.02383e-05,-1.67228, , , ,-0.00142178,
2,1,0,0,1,6142.71,-7.54729e-05,-0.000458935,21.2261,5,-0.000290772,10,-9.7414e-06,-1.67313, , , ,-0.000458935,