File: Figure_codes/Fig_3-5/rawdata_trumpetplot_data/before 10th/20221101_1-115_002_TrumpetPlot_ParaChange_11_CV_C01.mpt
EC-Lab ASCII FILE
Nb header lines : 68

Cyclic Voltammetry

Run on channel : 1 (SN 65296)
User :
CE vs. WE compliance from -10 V to 10 V
Electrode connection : standard
Potential control : Ewe
Ewe ctrl range : min = -1.00 V, max = 1.00 V
Safety Limits :
	Do not start on E overload
Acquisition started on : 11/08/2022 17:30:03.488
Loaded Setting File :  NONE
Saved on :
	File : 20221101_1-115_002_TrumpetPlot_ParaChange_11_CV_C01.mpr
	Directory : C:\Users\NakamuraT\Documents\EC-Lab\Data\Yatsuzuka\20221108_1-115_001_TrumpetPlot\
	Host : 192.109.209.100
Device : SP-50e (SN .003219)
Address : 192.109.209.128
EC-Lab for windows v11.43 (software)
Internet server v11.40 (firmware)
Command interpretor v11.40 (firmware)
Electrode material : Au/Pd
Initial state :
Electrolyte : NaCl (0.2M)
Comments : Fe(CN)63-/Fe(CN)64- 5.10-3 M
Reference electrode : SCE Saturated Calomel Electrode (0.241 V)
Electrode surface area : 0.001 cm2
Characteristic mass : 0.001 g
Equivalent Weight : 0.000 g/eq.
Density : 0.000 g/cm3
Volume (V) : 0.001 cm3
Cycle Definition : Charge/Discharge alternance
Ei (V)              0.000
vs.                 Ref
dE/dt               100.000
dE/dt unit          mV/s
E1 (V)              0.300
vs.                 Ref
Step percent        50
N                   10
E range min (V)     -1.000
E range max (V)     1.000
I Range             10 mA
I Range min         Unset
I Range max         Unset
I Range init        Unset
Bandwidth           5
E2 (V)              -0.100
vs.                 Ref
nc cycles           0
Reverse Scan        1
Ef (V)              0.000
vs.                 Ref

Number of loops : 8
Loop 0 from point number 0 to 1608
Loop 1 from point number 1609 to 3217
Loop 2 from point number 3218 to 4826
Loop 3 from point number 4827 to 6435
Loop 4 from point number 6436 to 8044
Loop 5 from point number 8045 to 9653
Loop 6 from point number 9654 to 11262
Loop 7 from point number 11263 to 12871

mode	ox/red	error	control changes	counter inc.	time/s	control/V	Ewe/V	<I>/mA	cycle number	(Q-Qo)/C	I Range	P/W
2	0	0	0	0	1201.99	2.44065e-05	0.000686305	-6.24498	1	0.0000000E+000	11	-4.28596e-06
2	1	0	1	0	1202.08	0.00928821	0.00898495	3.90661	1	8.15259e-05	11	3.51007e-05
2	1	0	1	0	1202.18	0.0187767	0.0185051	4.34323	1	0.000482861	11	8.03721e-05
2	1	0	1	0	1202.27	0.0282653	0.0279894	4.43375	1	0.000899117	11	0.000124098
2	1	0	1	0	1202.37	0.0377538	0.0374647	4.52821	1	0.00132413	11	0.000169648
2	1	0	1	0	1202.46	0.0472424	0.0469448	4.69221	1	0.00176159	11	0.000220275
2	1	0	1	0	1202.56	0.0567309	0.056452	4.93279	1	0.00221803	11	0.000278466
2	1	0	1	0	1202.65	0.0662262	0.0659367	5.33378	1	0.00270363	11	0.000351692
2	1	0	1	0	1202.75	0.075708	0.0754062	5.84528	1	0.00323161	11	0.00044077
2	1	0	1	0	1202.84	0.0851965	0.084912	6.46204	1	0.00381495	11	0.000548705
2	1	0	1	0	1202.94	0.094685	0.0944107	7.18173	1	0.00446218	11	0.000678032
2	1	0	1	0	1203.03	0.104174	0.103892	7.94581	1	0.00517867	11	0.000825508
2	1	0	1	0	1203.13	0.113662	0.113406	8.9155	1	0.00597606	11	0.00101107
2	1	0	1	0	1203.22	0.123151	0.122871	10.3185	1	0.00688556	11	0.00126785
2	1	0	1	0	1203.32	0.132639	0.132316	12.3774	1	0.00795835	11	0.00163772
2	1	0	1	0	1203.41	0.142128	0.141822	14.63	1	0.00923942	11	0.00207485
2	1	0	1	0	1203.51	0.151616	0.151322	16.4099	1	0.0107191	11	0.00248318
2	1	0	1	0	1203.6	0.161105	0.160851	16.8163	1	0.0123113	11	0.00270491
2	1	0	1	0	1203.7	0.170593	0.170317	14.4245	1	0.0138217	11	0.00245674
2	1	0	1	0	1203.79	0.180082	0.179813	9.52362	1	0.0149599	11	0.00171247
2	1	0	1	0	1203.89	0.18957	0.189284	6.52693	1	0.0156973	11	0.00123544
2	1	0	1	0	1203.98	0.199059	0.198755	5.5392	1	0.0162621	11	0.00110094
2	1	0	1	0	1204.08	0.208547	0.208296	5.03038	1	0.0167611	11	0.00104781
2	1	0	1	0	1204.17	0.218036	0.217768	4.66068	1	0.0172189	11	0.00101495
2	1	0	1	0	1204.27	0.227525	0.227228	4.4272	1	0.0176496	11	0.00100599
2	1	0	1	0	1204.36	0.237013	0.236709	4.25329	1	0.0180618	11	0.00100679
2	1	0	1	0	1204.46	0.246502	0.246239	4.15681	1	0.0184608	11	0.00102357
2	1	0	1	0	1204.55	0.25599	0.255754	4.05268	1	0.01885	11	0.00103649
2	1	0	1	0	1204.65	0.265479	0.265217	3.98681	1	0.0192309	11	0.00105737
2	1	0	1	0	1204.74	0.274967	0.274722	3.90472	1	0.0196054	11	0.00107271
2	1	0	1	0	1204.83	0.284456	0.28421	3.85978	1	0.0199735	11	0.00109699
2	1	0	1	0	1204.93	0.293944	0.293666	3.79398	1	0.020336	11	0.00111416
2	0	0	1	0	1205.01	0.29774	0.297487	-0.633124	1	0.0205878	11	-0.000188346
2	0	0	1	0	1205.11	0.288251	0.287963	-1.88615	1	0.0204351	11	-0.000543143
2	0	0	1	0	1205.2	0.278763	0.278465	-2.16314	1	0.0202426	11	-0.000602359
2	0	0	1	0	1205.3	0.269274	0.269019	-2.38949	1	0.0200266	11	-0.000642819
2	0	0	1	0	1205.39	0.259786	0.259536	-2.56281	1	0.0197912	11	-0.000665141
2	0	0	1	0	1205.49	0.250297	0.250001	-2.74818	1	0.0195386	11	-0.000687048
2	0	0	1	0	1205.58	0.240808	0.240519	-2.91875	1	0.0192697	11	-0.000702015
2	0	0	1	0	1205.68	0.23132	0.231076	-3.1133	1	0.0189847	11	-0.000719408
2	0	0	1	0	1205.77	0.221831	0.221515	-3.29215	1	0.0186816	11	-0.000729261
2	0	0	1	0	1205.87	0.212343	0.212071	-3.54261	1	0.0183577	11	-0.000751286
2	0	0	1	0	1205.96	0.202854	0.202531	-3.84048	1	0.0180078	11	-0.000777815
2	0	0	1	0	1206.06	0.193366	0.19303	-4.27518	1	0.0176239	11	-0.000825238
2	0	0	1	0	1206.15	0.183877	0.183579	-4.85945	1	0.0171916	11	-0.000892091
2	0	0	1	0	1206.25	0.174389	0.174047	-5.7914	1	0.0166882	11	-0.00100797
2	0	0	1	0	1206.34	0.1649	0.164629	-7.20194	1	0.0160773	11	-0.00118565
2	0	0	1	0	1206.44	0.155412	0.155114	-9.30276	1	0.0153013	11	-0.00144299
2	0	0	1	0	1206.53	0.145923	0.145634	-11.9542	1	0.0142944	11	-0.00174093
2	0	0	1	0	1206.63	0.136435	0.136144	-14.5751	1	0.0130313	11	-0.0019843
2	0	0	1	0	1206.72	0.126946	0.12665	-16.3068	1	0.0115567	11	-0.00206526
2	0	0	1	0	1206.82	0.117458	0.117147	-16.4248	1	0.00998764	11	-0.00192411
2	0	0	1	0	1206.91	0.107969	0.107646	-14.3653	1	0.00850952	11	-0.00154637
2	0	0	1	0	1207.01	0.0984804	0.0981727	-11.3926	1	0.0072924	11	-0.00111844
2	0	0	1	0	1207.1	0.0889919	0.0886372	-9.48476	1	0.00631392	11	-0.000840703
2	0	0	1	0	1207.2	0.0795034	0.0791787	-8.50074	1	0.00546537	11	-0.000673078
2	0	0	1	0	1207.29	0.0700148	0.069723	-7.79479	1	0.00469216	11	-0.000543476
2	0	0	1	0	1207.39	0.0605263	0.0601865	-7.13158	1	0.00398421	11	-0.000429225
2	0	0	1	0	1207.48	0.0510378	0.0507237	-6.59685	1	0.00333459	11	-0.000334616
2	0	0	1	0	1207.57	0.0415583	0.0412577	-6.25477	1	0.00272689	11	-0.000258057
2	0	0	1	0	1207.67	0.0320607	0.0317667	-6.1371	1	0.00213965	11	-0.000194955
2	0	0	1	0	1207.76	0.0225722	0.0222992	-6.12473	1	0.00155922	11	-0.000136577
2	0	0	1	0	1207.86	0.0130836	0.0128005	-6.19904	1	0.000975463	11	-7.93509e-05
2	0	0	1	0	1207.95	0.00359509	0.00331124	-6.3205	1	0.00038154	11	-2.09287e-05
2	0	0	1	0	1208.05	-0.00589345	-0.00627434	-6.51813	1	-0.000230225	11	4.0897e-05
2	0	0	1	0	1208.14	-0.015382	-0.0157171	-6.74239	1	-0.000859408	11	0.000105971
2	0	0	1	0	1208.24	-0.024866	-0.0252039	-7.00892	1	-0.0015106	11	0.000176652
2	0	0	1	0	1208.33	-0.0343591	-0.0347012	-7.28006	1	-0.00218834	11	0.000252627
2	0	0	1	0	1208.43	-0.0438476	-0.0442088	-7.61525	1	-0.00289515	11	0.000336661
2	0	0	1	0	1208.52	-0.0533361	-0.0536404	-7.98267	1	-0.0036348	11	0.000428193
2	0	0	1	0	1208.62	-0.0628247	-0.0631513	-8.44197	1	-0.00441356	11	0.000533121
2	0	0	1	0	1208.71	-0.0723132	-0.0726567	-8.99545	1	-0.00524078	11	0.00065358
2	0	0	1	0	1208.81	-0.0818018	-0.0821332	-9.70254	1	-0.00612788	11	0.0007969
2	0	0	1	0	1208.9	-0.0912903	-0.0916296	-10.4692	1	-0.00708354	11	0.000959289
2	0	0	1	1	1208.99	-0.0997301	-0.100208	-10.2283	1	-0.00805061	11	0.00102496
2	1	0	1	1	1209.09	-0.0902416	-0.0905826	2.53034	1	-0.00820617	11	-0.000229205
2	1	0	1	1	1209.18	-0.080753	-0.0810855	4.54967	1	-0.00784906	11	-0.000368912
2	1	0	1	1	1209.28	-0.0712645	-0.0716148	5.22149	1	-0.00738107	11	-0.000373936
2	1	0	1	1	1209.37	-0.061776	-0.0621015	5.57443	1	-0.00686763	11	-0.00034618
2	1	0	1	1	1209.47	-0.0522874	-0.0525827	5.75661	1	-0.00632852	11	-0.000302698
2	1	0	1	1	1209.56	-0.0427989	-0.04313	5.84993	1	-0.00577639	11	-0.000252307
2	1	0	1	1	1209.66	-0.0333194	-0.0335889	5.88694	1	-0.00521958	11	-0.000197736
2	1	0	1	1	1209.75	-0.0238218	-0.0241106	5.87059	1	-0.00466223	11	-0.000141544
2	1	0	1	1	1209.85	-0.0143333	-0.0146686	5.80667	1	-0.00410845	11	-8.51757e-05
2	1	0	1	1	1209.94	-0.00484471	-0.00513159	5.72873	1	-0.00356077	11	-2.93975e-05
2	0	0	1	0	2433.65	0.00279606	0.00241371	0.216268	2	-8.61136e-05	11	5.22009e-07
2	1	0	1	0	2433.74	0.0122846	0.0120242	4.27306	2	0.000222825	11	5.138e-05
2	1	0	1	0	2433.84	0.0217731	0.0215367	4.43391	2	0.000638897	11	9.54918e-05
2	1	0	1	0	2433.93	0.0312617	0.0309952	4.53185	2	0.00106395	11	0.000140466
2	1	0	1	0	2434.03	0.0407502	0.040439	4.69457	2	0.00150107	11	0.000189843
2	1	0	1	0	2434.12	0.0502387	0.0499706	4.9443	2	0.00195715	11	0.000247069
2	1	0	1	0	2434.22	0.0597273	0.0594097	5.32279	2	0.00244296	11	0.000316226
2	1	0	1	0	2434.31	0.0692158	0.0689351	5.86189	2	0.00297205	11	0.00040409
2	1	0	1	0	2434.41	0.0787044	0.0784034	6.5049	2	0.00355761	11	0.000510006
2	1	0	1	0	2434.5	0.0881929	0.0879465	7.21044	2	0.00420898	11	0.000634133
2	1	0	1	0	2434.6	0.0976814	0.0974408	7.93348	2	0.00492808	11	0.000773044
2	1	0	1	0	2434.69	0.10717	0.106889	8.71479	2	0.0057167	11	0.000931512
2	1	0	1	0	2434.79	0.116658	0.11633	9.75843	2	0.00658972	11	0.0011352
2	1	0	1	0	2434.88	0.126147	0.125836	11.3715	2	0.00758902	11	0.00143095
2	1	0	1	0	2434.98	0.135636	0.135328	13.4061	2	0.00876277	11	0.00181423
2	1	0	1	0	2435.07	0.145124	0.144832	15.3764	2	0.0101315	11	0.002227
2	1	0	1	0	2435.16	0.154613	0.154331	16.5	2	0.0116541	11	0.00254647
2	1	0	1	0	2435.26	0.164101	0.163833	15.7225	2	0.0132057	11	0.00257588
2	1	0	1	0	2435.35	0.173581	0.173294	11.7898	2	0.0145323	11	0.00204311
2	1	0	1	0	2435.45	0.183078	0.18278	7.50058	2	0.0154284	11	0.00137096
2	1	0	1	0	2435.54	0.192567	0.192293	5.81333	2	0.0160431	11	0.00111786
2	1	0	1	0	2435.64	0.202055	0.201798	5.1979	2	0.0165631	11	0.00104893
2	1	0	1	0	2435.73	0.211544	0.211287	4.80573	2	0.017037	11	0.00101539
2	1	0	1	0	2435.83	0.221032	0.220792	4.54759	2	0.0174797	11	0.00100407
2	1	0	1	0	2435.92	0.230521	0.230205	4.33992	2	0.0179011	11	0.000999072
2	1	0	1	0	2436.02	0.240003	0.239743	4.21671	2	0.0183073	11	0.00101093
2	1	0	1	0	2436.11	0.249498	0.249198	4.13138	2	0.0187029	11	0.00102953
2	1	0	1	0	2436.21	0.258987	0.258757	4.04722	2	0.0190898	11	0.00104725
2	1	0	1	0	2436.3	0.268475	0.268178	3.9468	2	0.0194694	11	0.00105844
2	1	0	1	0	2436.4	0.277964	0.277712	3.88987	2	0.0198423	11	0.00108026
2	1	0	1	0	2436.49	0.287452	0.287187	3.83392	2	0.0202091	11	0.00110105
2	1	0	1	0	2436.59	0.296941	0.296674	3.78496	2	0.0205703	11	0.0011229
2	0	0	1	0	2436.67	0.294743	0.29447	-1.66004	2	0.0206659	11	-0.000488832
2	0	0	1	0	2436.77	0.285255	0.285008	-1.99488	2	0.0204902	11	-0.000568557
2	0	0	1	0	2436.86	0.275766	0.275505	-2.25418	2	0.0202883	11	-0.000621037
2	0	0	1	0	2436.96	0.266278	0.265949	-2.44629	2	0.0200647	11	-0.000650588
2	0	0	1	0	2437.05	0.256796	0.256559	-2.6359	2	0.0198232	11	-0.000676263
2	0	0	1	0	2437.15	0.247301	0.247014	-2.81048	2	0.019565	11	-0.000694227
2	0	0	1	0	2437.24	0.237812	0.237508	-2.97535	2	0.0192911	11	-0.000706669
2	0	0	1	0	2437.34	0.228324	0.228061	-3.13651	2	0.0190011	11	-0.000715317
2	0	0	1	0	2437.43	0.218835	0.218543	-3.3414	2	0.0186936	11	-0.00073024
2	0	0	1	0	2437.53	0.209346	0.209053	-3.57537	2	0.0183654	11	-0.000747442
2	0	0	1	0	2437.62	0.199858	0.199563	-3.9073	2	0.0180108	11	-0.000779753
2	0	0	1	0	2437.72	0.190374	0.190061	-4.32633	2	0.0176214	11	-0.000822266
2	0	0	1	0	2437.81	0.180881	0.180582	-4.98872	2	0.0171811	11	-0.000900875
2	0	0	1	0	2437.9	0.171392	0.17114	-5.9726	2	0.0166645	11	-0.00102215
2	0	0	1	0	2438	0.161904	0.16165	-7.5313	2	0.0160291	11	-0.00121743
2	0	0	1	0	2438.09	0.152415	0.152139	-9.8155	2	0.0152118	11	-0.00149332
2	0	0	1	0	2438.19	0.142927	0.142648	-12.5396	2	0.0141507	11	-0.00178875
2	0	0	1	0	2438.28	0.133438	0.133098	-14.9812	2	0.0128383	11	-0.00199397
2	0	0	1	0	2438.38	0.12395	0.123672	-16.319	2	0.0113441	11	-0.0020182
2	0	0	1	0	2438.47	0.114461	0.114117	-15.9172	2	0.00979944	11	-0.00181643
2	0	0	1	0	2438.57	0.104973	0.104692	-13.6005	2	0.00838838	11	-0.00142387
2	0	0	1	0	2438.66	0.0954841	0.0952034	-11.0166	2	0.00722728	11	-0.00104882
2	0	0	1	0	2438.76	0.0859955	0.0856847	-9.53846	2	0.00626119	11	-0.0008173
2	0	0	1	0	2438.85	0.076507	0.0762123	-8.75183	2	0.0053958	11	-0.000666997
2	0	0	1	0	2438.95	0.0670185	0.0666972	-8.07345	2	0.00459667	11	-0.000538476
2	0	0	1	0	2439.04	0.0575299	0.057275	-7.39232	2	0.00386408	11	-0.000423395
2	0	0	1	0	2439.14	0.0480414	0.047715	-6.75938	2	0.00319545	11	-0.000322524
2	0	0	1	0	2439.23	0.0385529	0.0382619	-6.38868	2	0.0025738	11	-0.000244443
2	0	0	1	0	2439.33	0.0290643	0.0287886	-6.21379	2	0.00197704	11	-0.000178887
2	0	0	1	0	2439.42	0.0195758	0.0192652	-6.21289	2	0.00138832	11	-0.000119693
2	0	0	1	0	2439.52	0.0100872	0.00982083	-6.27401	2	0.000796916	11	-6.1616e-05
2	0	0	1	0	2439.61	0.000598713	0.000217797	-6.45778	2	0.000194025	11	-1.40649e-06
2	0	0	1	0	2439.71	-0.00888983	-0.00928205	-6.60864	2	-0.000423966	11	6.13418e-05
2	0	0	1	0	2439.8	-0.0183784	-0.0187417	-6.84579	2	-0.00106155	11	0.000128302
2	0	0	1	0	2439.9	-0.0278669	-0.0281833	-7.08523	2	-0.00172187	11	0.000199685
2	0	0	1	0	2439.99	-0.0373554	-0.0377381	-7.37202	2	-0.00240803	11	0.000278206
2	0	0	1	0	2440.09	-0.046844	-0.047196	-7.69263	2	-0.00312313	11	0.000363061
2	0	0	1	0	2440.18	-0.0563325	-0.0566433	-8.08483	2	-0.0038712	11	0.000457951
2	0	0	1	0	2440.28	-0.0658211	-0.0661684	-8.52617	2	-0.00465867	11	0.000564162
2	0	0	1	0	2440.37	-0.0753096	-0.0756912	-9.11619	2	-0.00549415	11	0.000690015
2	0	0	1	0	2440.47	-0.0847982	-0.0851407	-9.78387	2	-0.00639029	11	0.000833006
2	0	0	1	0	2440.56	-0.0942867	-0.094608	-10.4953	2	-0.00735275	11	0.000992944
2	0	0	1	1	2440.65	-0.0967337	-0.0971315	-2.52818	2	-0.0081603	11	0.000245566
2	1	0	1	1	2440.75	-0.0872452	-0.0876	3.74591	2	-0.0080092	11	-0.000328142
2	1	0	1	1	2440.84	-0.0777567	-0.0781144	4.93233	2	-0.00758486	11	-0.000385286
2	1	0	1	1	2440.94	-0.0682681	-0.0685766	5.39872	2	-0.00709141	11	-0.000370226
2	1	0	1	1	2441.03	-0.0587796	-0.0591026	5.67584	2	-0.00656484	11	-0.000335457
2	1	0	1	1	2441.13	-0.049291	-0.0496604	5.80807	2	-0.00602073	11	-0.000288431
2	1	0	1	1	2441.22	-0.0398025	-0.0401203	5.86413	2	-0.00546651	11	-0.000235271
2	1	0	1	1	2441.32	-0.030314	-0.0306429	5.85829	2	-0.00490992	11	-0.000179515
2	1	0	1	1	2441.41	-0.0208254	-0.0211533	5.83025	2	-0.00435508	11	-0.000123329
2	1	0	1	1	2441.51	-0.0113369	-0.0116519	5.75699	2	-0.0038051	11	-6.708e-05
2	1	0	1	1	2441.6	-0.00184833	-0.00219215	5.6787	2	-0.00326119	11	-1.24486e-05
2	1	0	1	0	3665.31	0.00579244	0.00544859	2.32137	3	-6.77023e-05	11	1.26482e-05
2	1	0	1	0	3665.4	0.015281	0.0149693	4.08429	3	0.000270398	11	6.11388e-05
2	1	0	1	0	3665.49	0.024765	0.0244674	4.30629	3	0.000670307	11	0.000105364
2	1	0	1	0	3665.59	0.034258	0.0339617	4.50274	3	0.00108803	11	0.000152921
2	1	0	1	0	3665.68	0.0437466	0.0434501	4.73744	3	0.00152539	11	0.000205842
2	1	0	1	0	3665.78	0.0532351	0.0529486	5.06698	3	0.00198986	11	0.000268289
2	1	0	1	0	3665.87	0.0627237	0.0624463	5.56221	3	0.00249397	11	0.00034734
2	1	0	1	0	3665.97	0.0722122	0.0719405	6.18528	3	0.00305066	11	0.000444972
2	1	0	1	0	3666.06	0.0817007	0.0814231	6.8819	3	0.00367045	11	0.000560346
2	1	0	1	0	3666.16	0.0911893	0.0909116	7.56816	3	0.00435538	11	0.000688034
2	1	0	1	0	3666.25	0.100678	0.100363	8.23266	3	0.00510547	11	0.000826252
2	1	0	1	0	3666.35	0.110166	0.109859	8.99264	3	0.00592068	11	0.000987921
2	1	0	1	0	3666.44	0.119655	0.119341	10.0657	3	0.00682034	11	0.00120126
2	1	0	1	0	3666.54	0.129143	0.128865	11.5667	3	0.00784417	11	0.00149055
2	1	0	1	0	3666.63	0.138632	0.13832	13.3456	3	0.00902724	11	0.00184597
2	1	0	1	0	3666.73	0.14812	0.147849	14.8852	3	0.010371	11	0.00220077
2	1	0	1	0	3666.82	0.157609	0.157355	15.5931	3	0.0118246	11	0.00245365
2	1	0	1	0	3666.92	0.167098	0.166826	14.322	3	0.0132645	11	0.00238929
2	1	0	1	0	3667.01	0.176586	0.176362	10.4816	3	0.0144552	11	0.00184855
2	1	0	1	0	3667.11	0.186075	0.185769	7.13114	3	0.0152722	11	0.00132474
2	1	0	1	0	3667.2	0.195563	0.195299	5.78074	3	0.0158743	11	0.00112897
2	1	0	1	0	3667.3	0.205052	0.204769	5.11609	3	0.0163886	11	0.00104762
2	1	0	1	0	3667.39	0.21454	0.214295	4.72786	3	0.0168552	11	0.00101316
2	1	0	1	0	3667.49	0.224029	0.22374	4.4883	3	0.0172909	11	0.00100421
2	1	0	1	0	3667.58	0.233517	0.233267	4.3166	3	0.0177071	11	0.00100692
2	1	0	1	0	3667.68	0.243006	0.242739	4.16889	3	0.0181095	11	0.00101195
2	1	0	1	0	3667.77	0.252494	0.252202	4.08267	3	0.0185016	11	0.00102966
2	1	0	1	0	3667.87	0.261983	0.261717	4.00315	3	0.0188855	11	0.00104769
2	1	0	1	0	3667.96	0.271471	0.271195	3.94146	3	0.0192623	11	0.00106891
2	1	0	1	0	3668.06	0.28096	0.280657	3.85442	3	0.0196328	11	0.00108177
2	1	0	1	0	3668.15	0.290449	0.290153	3.82139	3	0.0199972	11	0.00110879
2	1	0	1	0	3668.25	0.299807	0.299556	3.76324	3	0.0203517	11	0.0011273
2	0	0	1	0	3668.33	0.291747	0.291433	-1.6301	3	0.0203111	11	-0.000475067
2	0	0	1	0	3668.42	0.282258	0.281972	-1.98265	3	0.0201377	11	-0.000559052
2	0	0	1	0	3668.52	0.27277	0.27249	-2.24621	3	0.0199368	11	-0.000612071
2	0	0	1	0	3668.61	0.263281	0.26295	-2.4512	3	0.0197143	11	-0.000644542
2	0	0	1	0	3668.71	0.253793	0.253549	-2.61261	3	0.0194744	11	-0.000662424
2	0	0	1	0	3668.8	0.244304	0.243967	-2.7778	3	0.0192184	11	-0.000677691
2	0	0	1	0	3668.9	0.234816	0.234475	-2.92857	3	0.0189471	11	-0.000686675
2	0	0	1	0	3668.99	0.225327	0.225057	-3.11468	3	0.0186601	11	-0.000700981
2	0	0	1	0	3669.09	0.215839	0.215561	-3.29371	3	0.018356	11	-0.000709995
2	0	0	1	0	3669.18	0.20635	0.20607	-3.55735	3	0.0180321	11	-0.000733061
2	0	0	1	0	3669.28	0.196862	0.196574	-3.83908	3	0.0176824	11	-0.000754664
2	0	0	1	0	3669.37	0.187373	0.187081	-4.2782	3	0.0172988	11	-0.000800372
2	0	0	1	0	3669.47	0.177885	0.177583	-4.88983	3	0.0168661	11	-0.00086835
2	0	0	1	0	3669.56	0.168396	0.168098	-5.86255	3	0.016359	11	-0.000985481
2	0	0	1	0	3669.66	0.158907	0.158605	-7.38129	3	0.0157347	11	-0.00117071
2	0	0	1	0	3669.75	0.149419	0.149163	-9.57627	3	0.0149348	11	-0.00142842
2	0	0	1	0	3669.85	0.13993	0.139657	-12.0682	3	0.0139085	11	-0.0016854
2	0	0	1	0	3669.94	0.130442	0.130161	-14.1851	3	0.0126575	11	-0.00184635
2	0	0	1	0	3670.04	0.120953	0.120671	-15.3543	3	0.011246	11	-0.00185281
2	0	0	1	0	3670.13	0.111465	0.111137	-15.0815	3	0.00978981	11	-0.00167611
2	0	0	1	0	3670.23	0.101976	0.1017	-13.3101	3	0.00843395	11	-0.00135363
2	0	0	1	0	3670.32	0.0924877	0.0921714	-11.2292	3	0.0072734	11	-0.00103501
2	0	0	1	0	3670.42	0.0829992	0.0827119	-9.94247	3	0.0062743	11	-0.00082236
2	0	0	1	0	3670.51	0.0735106	0.0732151	-9.18293	3	0.00537017	11	-0.000672329
2	0	0	1	0	3670.61	0.0640221	0.0637317	-8.51018	3	0.00453108	11	-0.000542368
2	0	0	1	0	3670.7	0.0545336	0.0542167	-7.72859	3	0.00376028	11	-0.000419018
2	0	0	1	0	3670.8	0.045045	0.0446958	-7.02314	3	0.00306127	11	-0.000313905
2	0	0	1	0	3670.89	0.0355565	0.0352469	-6.54388	3	0.00241999	11	-0.000230652
2	0	0	1	0	3670.99	0.0260679	0.0257733	-6.30522	3	0.00181204	11	-0.000162506
2	0	0	1	0	3671.08	0.0165749	0.0162216	-6.23082	3	0.00121787	11	-0.000101074
2	0	0	1	0	3671.18	0.00709087	0.0067795	-6.29393	3	0.000624598	11	-4.26696e-05
2	0	0	1	0	3671.27	-0.00239767	-0.0027656	-6.42753	3	2.1027e-05	11	1.7776e-05
2	0	0	1	0	3671.37	-0.0118862	-0.0122046	-6.59174	3	-0.000595539	11	8.04494e-05
2	0	0	1	0	3671.46	-0.0213747	-0.0216828	-6.7894	3	-0.00123039	11	0.000147213
2	0	0	1	0	3671.56	-0.0308633	-0.0312225	-7.05094	3	-0.00188726	11	0.000220148
2	0	0	1	0	3671.65	-0.0403518	-0.0407046	-7.32425	3	-0.00256938	11	0.00029813
2	0	0	1	0	3671.75	-0.0498495	-0.0502404	-7.65487	3	-0.00327932	11	0.000384584
2	0	0	1	0	3671.84	-0.0593289	-0.0596891	-8.01283	3	-0.00402126	11	0.000478278
2	0	0	1	0	3671.94	-0.0688175	-0.0691911	-8.47375	3	-0.00480263	11	0.000586308
2	0	0	1	0	3672.03	-0.078306	-0.0786437	-9.02192	3	-0.00563183	11	0.000709517
2	0	0	1	0	3672.13	-0.0877945	-0.0881532	-9.67303	3	-0.00651851	11	0.000852709
2	0	0	1	0	3672.22	-0.0972831	-0.0976473	-10.2986	3	-0.00746759	11	0.00100563
2	0	0	1	1	3672.31	-0.0937374	-0.094074	0.00688052	3	-0.00799878	11	-6.47278e-07
2	1	0	1	1	3672.4	-0.0842488	-0.0845689	3.68546	3	-0.00778017	11	-0.000311676
2	1	0	1	1	3672.5	-0.0747603	-0.0750917	4.74534	3	-0.007372	11	-0.000356335
2	1	0	1	1	3672.59	-0.0652717	-0.0656261	5.23993	3	-0.00689628	11	-0.000343876
2	1	0	1	1	3672.69	-0.0557832	-0.0561483	5.50436	3	-0.00638525	11	-0.000309061
2	1	0	1	1	3672.78	-0.0462947	-0.0466212	5.6559	3	-0.0058548	11	-0.000263685
2	1	0	1	1	3672.88	-0.0368061	-0.0371261	5.71653	3	-0.00531488	11	-0.000212232
2	1	0	1	1	3672.97	-0.0273176	-0.0276475	5.72009	3	-0.00477155	11	-0.000158146
2	1	0	1	1	3673.07	-0.017829	-0.0181363	5.67848	3	-0.00422974	11	-0.000102986
2	1	0	1	1	3673.16	-0.00833595	-0.00867776	5.64341	3	-0.0036919	11	-4.89722e-05
2	1	0	1	1	3673.25	-2.44065e-05	-0.000401673	5.5739	3	-0.00322514	11	-2.23888e-06
2	1	0	1	0	4896.96	0.00878882	0.0084466	3.2724	4	4.5818e-06	11	2.76406e-05
2	1	0	1	0	4897.06	0.0182774	0.0179782	4.11644	4	0.000368739	11	7.40061e-05
2	1	0	1	0	4897.15	0.0277659	0.0274567	4.34633	4	0.000771209	11	0.000119336
2	1	0	1	0	4897.25	0.0372544	0.0369837	4.60187	4	0.00119543	11	0.000170194
2	1	0	1	0	4897.34	0.046743	0.0464312	4.91679	4	0.00164602	11	0.000228292
2	1	0	1	0	4897.44	0.0562315	0.0559478	5.36013	4	0.00213314	11	0.000299888
2	1	0	1	0	4897.53	0.06572	0.0654201	5.93986	4	0.00266909	11	0.000388586
2	1	0	1	0	4897.63	0.0752086	0.0749212	6.63987	4	0.00326491	11	0.000497467
2	1	0	1	0	4897.72	0.0846971	0.0844211	7.31312	4	0.00392632	11	0.000617381
2	1	0	1	0	4897.82	0.0941856	0.0938836	7.9579	4	0.0046514	11	0.000747116
2	1	0	1	0	4897.91	0.103674	0.103388	8.59002	4	0.00543638	11	0.000888106
2	1	0	1	0	4898.01	0.113163	0.112886	9.41604	4	0.00628953	11	0.00106294
2	1	0	1	0	4898.1	0.122651	0.122336	10.6124	4	0.00723713	11	0.00129827
2	1	0	1	0	4898.2	0.13214	0.131863	12.1285	4	0.00831567	11	0.00159931
2	1	0	1	0	4898.29	0.141628	0.141344	13.6498	4	0.00953975	11	0.00192932
2	1	0	1	0	4898.39	0.151117	0.150852	14.7448	4	0.0108922	11	0.00222428
2	1	0	1	0	4898.48	0.160605	0.16035	14.6621	4	0.0123003	11	0.00235106
2	1	0	1	0	4898.58	0.170094	0.169845	12.3242	4	0.0136006	11	0.00209321
2	1	0	1	0	4898.67	0.179582	0.179335	8.65907	4	0.014593	11	0.00155287
2	1	0	1	0	4898.77	0.189071	0.188765	6.56423	4	0.0153005	11	0.0012391
2	1	0	1	0	4898.86	0.198562	0.198278	5.63784	4	0.0158746	11	0.00111786
2	1	0	1	0	4898.96	0.208048	0.207818	5.11115	4	0.0163823	11	0.00106219
2	1	0	1	0	4899.05	0.217537	0.217257	4.72278	4	0.0168478	11	0.00102606
2	1	0	1	0	4899.15	0.227025	0.22675	4.48667	4	0.0172841	11	0.00101735
2	1	0	1	0	4899.24	0.236514	0.23623	4.2989	4	0.0177003	11	0.00101553
2	1	0	1	0	4899.34	0.246002	0.245775	4.17618	4	0.0181022	11	0.0010264
2	1	0	1	0	4899.43	0.255491	0.255196	4.06657	4	0.0184938	11	0.00103777
2	1	0	1	0	4899.53	0.264986	0.26476	4.01023	4	0.018877	11	0.00106175
2	1	0	1	0	4899.62	0.274468	0.274195	3.93137	4	0.0192529	11	0.00107796
2	1	0	1	0	4899.71	0.283956	0.283693	3.86347	4	0.0196228	11	0.00109604
2	1	0	1	0	4899.81	0.293445	0.293202	3.79322	4	0.0199868	11	0.00111218
2	1	0	1	0	4899.89	0.298239	0.298004	0.241615	4	0.0202651	11	7.20024e-05
2	0	0	1	0	4899.99	0.288751	0.288464	-1.73312	4	0.0201438	11	-0.000499944
2	0	0	1	0	4900.08	0.279262	0.278969	-2.0455	4	0.0199634	11	-0.000570631
2	0	0	1	0	4900.18	0.269774	0.269505	-2.30338	4	0.0197568	11	-0.000620771
2	0	0	1	0	4900.27	0.260285	0.259989	-2.48316	4	0.0195301	11	-0.000645593
2	0	0	1	0	4900.37	0.250796	0.250481	-2.64809	4	0.0192861	11	-0.000663295
2	0	0	1	0	4900.46	0.241308	0.241026	-2.80082	4	0.0190267	11	-0.00067507
2	0	0	1	0	4900.56	0.231815	0.231531	-2.97893	4	0.0187523	11	-0.000689715
2	0	0	1	0	4900.65	0.222331	0.222069	-3.14027	4	0.0184628	11	-0.000697356
2	0	0	1	0	4900.75	0.212842	0.212537	-3.32757	4	0.0181561	11	-0.000707232
2	0	0	1	0	4900.84	0.203354	0.203041	-3.54843	4	0.0178294	11	-0.000720476
2	0	0	1	0	4900.94	0.193865	0.193527	-3.87123	4	0.017478	11	-0.000749186
2	0	0	1	0	4901.03	0.184377	0.184085	-4.287	4	0.0170925	11	-0.000789172
2	0	0	1	0	4901.13	0.174888	0.174612	-4.9162	4	0.0166575	11	-0.000858426
2	0	0	1	0	4901.22	0.165391	0.165109	-5.92954	4	0.016146	11	-0.000979022
2	0	0	1	0	4901.32	0.155911	0.155606	-7.50256	4	0.0155149	11	-0.00116744
2	0	0	1	0	4901.41	0.146423	0.146153	-9.70165	4	0.0147032	11	-0.00141793
2	0	0	1	0	4901.51	0.136934	0.136668	-12.0565	4	0.0136692	11	-0.00164773
2	0	0	1	0	4901.6	0.127445	0.127188	-13.9796	4	0.0124274	11	-0.00177803
2	0	0	1	0	4901.7	0.117957	0.117619	-14.8782	4	0.0110488	11	-0.00174996
2	0	0	1	0	4901.79	0.108468	0.108167	-14.4748	4	0.00964515	11	-0.0015657
2	0	0	1	0	4901.89	0.0989798	0.0986412	-12.8772	4	0.00834253	11	-0.00127022
2	0	0	1	0	4901.98	0.0894913	0.0891755	-11.1312	4	0.00720794	11	-0.000992632
2	0	0	1	0	4902.08	0.0800028	0.0796962	-10.033	4	0.00620957	11	-0.000799596
2	0	0	1	0	4902.17	0.0705142	0.0702136	-9.34752	4	0.00529231	11	-0.000656323
2	0	0	1	0	4902.27	0.0610257	0.0607275	-8.69355	4	0.00443577	11	-0.000527938
2	0	0	1	0	4902.36	0.0515372	0.0512065	-7.94897	4	0.00364488	11	-0.000407039
2	0	0	1	0	4902.46	0.0420486	0.041785	-7.21271	4	0.00292672	11	-0.000301383
2	0	0	1	0	4902.55	0.0325601	0.0322484	-6.69961	4	0.00227019	11	-0.000216052
2	0	0	1	0	4902.64	0.0230716	0.0227595	-6.40696	4	0.00165067	11	-0.000145819
2	0	0	1	0	4902.74	0.013583	0.0132877	-6.31918	4	0.00104801	11	-8.39671e-05
2	0	0	1	0	4902.83	0.00409449	0.0037663	-6.34849	4	0.000447866	11	-2.39104e-05
2	0	0	1	0	4902.93	-0.00539405	-0.00575359	-6.47226	4	-0.000161513	11	3.72388e-05
2	0	0	1	0	4903.02	-0.0148826	-0.0152082	-6.62711	4	-0.000783057	11	0.000100787
2	0	0	1	0	4903.12	-0.0243711	-0.024721	-6.85535	4	-0.00142308	11	0.000169471
2	0	0	1	0	4903.21	-0.0338597	-0.0342302	-7.11444	4	-0.00208469	11	0.000243529
2	0	0	1	0	4903.31	-0.0433482	-0.0436982	-7.39941	4	-0.00277258	11	0.000323341
2	0	0	1	0	4903.4	-0.0528368	-0.0531976	-7.70482	4	-0.00348923	11	0.000409878
2	0	0	1	0	4903.5	-0.0623253	-0.0626476	-8.10155	4	-0.00423918	11	0.000507543
2	0	0	1	0	4903.59	-0.0718138	-0.0721771	-8.56932	4	-0.00502987	11	0.000618508
2	0	0	1	0	4903.69	-0.0813024	-0.0816573	-9.15253	4	-0.0058701	11	0.000747371
2	0	0	1	0	4903.78	-0.0907909	-0.0911304	-9.77467	4	-0.00676901	11	0.000890769
2	0	0	0	1	4903.88	-0.100005	-0.100362	-10.396	4	-0.00769891	11	0.00104336
2	1	0	1	1	4903.97	-0.090741	-0.0910744	1.64421	4	-0.00792904	11	-0.000149745
2	1	0	1	1	4904.06	-0.0812524	-0.0815731	4.01426	4	-0.00763855	11	-0.000327456
2	1	0	1	1	4904.16	-0.0717639	-0.0721194	4.84628	4	-0.00721333	11	-0.000349511
2	1	0	1	1	4904.25	-0.0622754	-0.0626116	5.25673	4	-0.00673204	11	-0.000329132
2	1	0	1	1	4904.35	-0.0527868	-0.0531275	5.5034	4	-0.00621968	11	-0.000292382
2	1	0	1	1	4904.44	-0.0432983	-0.0436392	5.63367	4	-0.00569041	11	-0.000245849
2	1	0	1	1	4904.54	-0.0338097	-0.0341086	5.68189	4	-0.00515285	11	-0.000193801
2	1	0	1	1	4904.63	-0.0243212	-0.0246691	5.68438	4	-0.00461371	11	-0.000140229
2	1	0	1	1	4904.73	-0.0148327	-0.0151375	5.65084	4	-0.00407561	11	-8.55398e-05
2	1	0	1	1	4904.82	-0.00534411	-0.00567807	5.59848	4	-0.00354193	11	-3.17886e-05
2	0	0	1	0	6128.53	0.00229666	0.00190582	-1.80632	5	-0.000104243	11	-3.44251e-06
2	1	0	1	0	6128.62	0.0117852	0.0115119	3.63337	5	9.07382e-05	11	4.18268e-05
2	1	0	1	0	6128.72	0.0212737	0.0209761	4.19993	5	0.00046842	11	8.80982e-05
2	1	0	1	0	6128.81	0.0307623	0.0304907	4.47183	5	0.00087986	11	0.000136349
2	1	0	1	0	6128.91	0.0402508	0.0399684	4.76134	5	0.00131786	11	0.000190303
2	1	0	1	0	6129	0.0497484	0.0494566	5.18892	5	0.0017894	11	0.000256626
2	1	0	1	0	6129.1	0.0592279	0.0589317	5.72517	5	0.00230492	11	0.000337394
2	1	0	1	0	6129.19	0.0687164	0.0684226	6.36689	5	0.00287711	11	0.000435639
2	1	0	1	0	6129.29	0.0782049	0.0779123	7.02877	5	0.00351255	11	0.000547627
2	1	0	1	0	6129.38	0.0876935	0.0873971	7.68863	5	0.00421197	11	0.000671964
2	1	0	1	0	6129.48	0.097182	0.0968452	8.28988	5	0.00497046	11	0.000802835
2	1	0	1	0	6129.57	0.106671	0.106369	8.94971	5	0.00578716	11	0.000951972
2	1	0	1	0	6129.67	0.116159	0.11582	9.85122	5	0.00667531	11	0.00114097
2	1	0	1	0	6129.76	0.125648	0.125351	11.132	5	0.00766915	11	0.00139541
2	1	0	1	0	6129.86	0.135136	0.134817	12.554	5	0.00879284	11	0.00169248
2	1	0	1	0	6129.95	0.144625	0.144336	13.8163	5	0.0100463	11	0.00199419
2	1	0	1	0	6130.04	0.154113	0.153815	14.485	5	0.0113968	11	0.002228
2	1	0	1	0	6130.14	0.163602	0.163361	13.7351	5	0.0127532	11	0.00224377
2	1	0	1	0	6130.23	0.17309	0.17281	10.7592	5	0.0139294	11	0.0018593
2	1	0	1	0	6130.33	0.182579	0.182313	7.68858	5	0.0147913	11	0.00140173
2	1	0	1	0	6130.42	0.192067	0.191758	6.1504	5	0.0154376	11	0.00117939
2	1	0	1	0	6130.52	0.201556	0.201281	5.39259	5	0.0159823	11	0.00108543
2	1	0	1	0	6130.61	0.211044	0.210778	4.91365	5	0.0164698	11	0.00103569
2	1	0	1	0	6130.71	0.220533	0.220279	4.60006	5	0.0169198	11	0.0010133
2	1	0	1	0	6130.8	0.230022	0.229738	4.36926	5	0.0173451	11	0.00100379
2	1	0	1	0	6130.9	0.23951	0.239226	4.2342	5	0.0177537	11	0.00101293
2	1	0	1	0	6130.99	0.248999	0.24873	4.13977	5	0.0181502	11	0.00102968
2	1	0	1	0	6131.09	0.258487	0.258217	4.05288	5	0.0185378	11	0.00104652
2	1	0	1	0	6131.18	0.267976	0.267704	3.95788	5	0.0189181	11	0.00105954
2	1	0	1	0	6131.28	0.277464	0.277181	3.905	5	0.0192917	11	0.00108239
2	1	0	1	0	6131.37	0.286953	0.286709	3.83783	5	0.0196594	11	0.00110034
2	1	0	1	0	6131.47	0.296441	0.29616	3.78996	5	0.0200213	11	0.00112244
2	0	0	1	0	6131.55	0.295243	0.294927	-1.14784	5	0.0201692	11	-0.000338529
2	0	0	1	0	6131.65	0.285754	0.285451	-1.84443	5	0.0200179	11	-0.000526493
2	0	0	1	0	6131.74	0.276266	0.275981	-2.14876	5	0.0198275	11	-0.000593017
2	0	0	1	0	6131.84	0.266777	0.266471	-2.3621	5	0.0196129	11	-0.000629431
2	0	0	1	0	6131.93	0.257289	0.256979	-2.54594	5	0.0193794	11	-0.000654252
2	0	0	1	0	6132.03	0.2478	0.247511	-2.71913	5	0.0191297	11	-0.000673014
2	0	0	1	0	6132.12	0.238312	0.238008	-2.87518	5	0.0188648	11	-0.000684318
2	0	0	1	0	6132.22	0.228823	0.228516	-3.0133	5	0.0185853	11	-0.000688586
2	0	0	1	0	6132.31	0.219334	0.219026	-3.18669	5	0.018291	11	-0.000697967
2	0	0	1	0	6132.41	0.209846	0.209552	-3.3655	5	0.0179799	11	-0.000705246
2	0	0	1	0	6132.5	0.200357	0.200026	-3.60875	5	0.0176492	11	-0.000721845
2	0	0	1	0	6132.6	0.190869	0.19055	-3.89937	5	0.0172937	11	-0.000743025
2	0	0	1	0	6132.69	0.18138	0.18107	-4.34509	5	0.0169041	11	-0.000786765
2	0	0	1	0	6132.79	0.171892	0.171622	-5.00012	5	0.0164633	11	-0.000858132
2	0	0	1	0	6132.88	0.162403	0.16212	-6.04584	5	0.0159434	11	-0.000980151
2	0	0	1	0	6132.97	0.152915	0.152643	-7.68248	5	0.0152972	11	-0.00117267
2	0	0	1	0	6133.07	0.143426	0.143154	-9.8639	5	0.0144678	11	-0.00141206
2	0	0	1	0	6133.16	0.133938	0.133659	-12.1233	5	0.0134213	11	-0.00162038
2	0	0	1	0	6133.26	0.124449	0.124147	-13.814	5	0.0121838	11	-0.00171496
2	0	0	1	0	6133.35	0.114961	0.114663	-14.5105	5	0.0108327	11	-0.00166382
2	0	0	1	0	6133.45	0.105472	0.105148	-14.0169	5	0.00946995	11	-0.00147385
2	0	0	1	0	6133.54	0.0959835	0.0956544	-12.5827	5	0.00820313	11	-0.00120359
2	0	0	1	0	6133.64	0.0864949	0.0861932	-11.0718	5	0.0070849	11	-0.000954316
2	0	0	1	0	6133.73	0.0770064	0.0766978	-10.0949	5	0.00608478	11	-0.000774258
2	0	0	1	0	6133.83	0.0675179	0.0672134	-9.43057	5	0.00515908	11	-0.000633861
2	0	0	1	0	6133.92	0.0580361	0.0577357	-8.82134	5	0.0042931	11	-0.000509306
2	0	0	1	0	6134.02	0.0485408	0.0482648	-8.07211	5	0.00349131	11	-0.000389599
2	0	0	1	0	6134.11	0.0390523	0.0387334	-7.3076	5	0.00276308	11	-0.000283048
2	0	0	1	0	6134.21	0.0295637	0.0292949	-6.74339	5	0.00209839	11	-0.000197547
2	0	0	1	0	6134.3	0.0200752	0.0197433	-6.45994	5	0.00147348	11	-0.00012754
2	0	0	1	0	6134.4	0.0105866	0.0102569	-6.35301	5	0.000866701	11	-6.51624e-05
2	0	0	1	0	6134.49	0.00109811	0.000731854	-6.43476	5	0.000262132	11	-4.7093e-06
2	0	0	1	0	6134.59	-0.00838816	-0.00869165	-6.50851	5	-0.000349811	11	5.65696e-05
2	0	0	1	0	6134.68	-0.017879	-0.0181757	-6.69451	5	-0.000975525	11	0.000121678
2	0	0	1	0	6134.78	-0.0273675	-0.0277521	-6.91146	5	-0.00162026	11	0.000191807
2	0	0	1	0	6134.87	-0.0368561	-0.0371975	-7.16774	5	-0.00228772	11	0.000266622
2	0	0	1	0	6134.97	-0.0463446	-0.0466993	-7.44742	5	-0.00298161	11	0.000347789
2	0	0	1	0	6135.06	-0.0558331	-0.0561981	-7.80394	5	-0.00370545	11	0.000438566
2	0	0	1	0	6135.16	-0.0653217	-0.0656552	-8.20497	5	-0.00446481	11	0.000538699
2	0	0	1	0	6135.25	-0.0748102	-0.0751485	-8.72993	5	-0.00526635	11	0.000656041
2	0	0	1	0	6135.35	-0.0842988	-0.084612	-9.31647	5	-0.00612185	11	0.000788286
2	0	0	1	0	6135.44	-0.0937873	-0.0941374	-9.97816	5	-0.00703749	11	0.000939317
2	0	0	1	1	6135.53	-0.0972331	-0.0976121	-4.34885	5	-0.0078624	11	0.000424501
2	1	0	1	1	6135.63	-0.0877446	-0.088076	2.41557	5	-0.00787018	11	-0.000212753
2	1	0	1	1	6135.72	-0.0782561	-0.0786285	4.19413	5	-0.00754182	11	-0.000329778
2	1	0	1	1	6135.82	-0.0687675	-0.069087	4.93766	5	-0.00710357	11	-0.000341128
2	1	0	1	1	6135.91	-0.059279	-0.0595689	5.34918	5	-0.00661328	11	-0.000318645
2	1	0	1	1	6136.01	-0.0497972	-0.0501411	5.57097	5	-0.00609505	11	-0.000279334
2	1	0	1	1	6136.1	-0.0403019	-0.0406216	5.68319	5	-0.00556041	11	-0.00023086
2	1	0	1	1	6136.2	-0.0308134	-0.0311036	5.71162	5	-0.00501919	11	-0.000177652
2	1	0	1	1	6136.29	-0.0213248	-0.0216907	5.70917	5	-0.00447711	11	-0.000123836
2	1	0	1	1	6136.39	-0.0118363	-0.0121703	5.65695	5	-0.00393785	11	-6.88468e-05
2	1	0	1	1	6136.48	-0.00234773	-0.00271871	5.59834	5	-0.00340326	11	-1.52203e-05
2	1	0	1	0	7360.19	0.00529304	0.00495398	1.75723	6	-8.85931e-05	11	8.70526e-06
2	1	0	1	0	7360.28	0.0147816	0.014424	4.02056	6	0.000225589	11	5.79924e-05
2	1	0	1	0	7360.37	0.0242701	0.0239633	4.37341	6	0.000626875	11	0.000104801
2	1	0	1	0	7360.47	0.0337586	0.0334609	4.66351	6	0.00105466	11	0.000156045
2	1	0	1	0	7360.56	0.0432472	0.0429482	5.03077	6	0.0015131	11	0.000216063
2	1	0	1	0	7360.66	0.0527357	0.0524241	5.50181	6	0.00201156	11	0.000288428
2	1	0	1	0	7360.75	0.0622243	0.061934	6.11173	6	0.00256257	11	0.000378524
2	1	0	1	0	7360.85	0.0717128	0.0714563	6.78889	6	0.00317497	11	0.000485108
2	1	0	1	0	7360.94	0.0812013	0.0809316	7.45617	6	0.00385132	11	0.000603439
2	1	0	1	0	7361.04	0.0906899	0.090366	8.0434	6	0.0045879	11	0.00072685
2	1	0	1	0	7361.13	0.100178	0.0999146	8.64795	6	0.00537928	11	0.000864057
2	1	0	1	0	7361.23	0.109667	0.109379	9.37595	6	0.00623255	11	0.00102553
2	1	0	1	0	7361.32	0.119155	0.118805	10.4682	6	0.00717095	11	0.00124368
2	1	0	1	0	7361.42	0.128644	0.128352	11.7634	6	0.00822488	11	0.00150986
2	1	0	1	0	7361.51	0.138133	0.137841	13.0449	6	0.00940471	11	0.00179811
2	1	0	1	0	7361.61	0.147621	0.147297	14.0063	6	0.0106929	11	0.00206309
2	1	0	1	0	7361.7	0.157101	0.156881	14.1043	6	0.0120362	11	0.0022127
2	1	0	1	0	7361.8	0.166598	0.166331	12.2082	6	0.0133041	11	0.0020306
2	1	0	1	0	7361.89	0.176087	0.175797	8.71281	6	0.0142976	11	0.00153169
2	1	0	1	0	7361.99	0.185575	0.18533	6.43429	6	0.015001	11	0.00119247
2	1	0	1	0	7362.08	0.195064	0.19482	5.4712	6	0.0155594	11	0.0010659
2	1	0	1	0	7362.18	0.204552	0.204236	4.92633	6	0.0160509	11	0.00100613
2	1	0	1	0	7362.27	0.214041	0.213744	4.60157	6	0.0165029	11	0.000983559
2	1	0	1	0	7362.37	0.223525	0.223259	4.38801	6	0.0169285	11	0.000979665
2	1	0	1	0	7362.46	0.233018	0.232727	4.24762	6	0.0173373	11	0.000988539
2	1	0	1	0	7362.56	0.242506	0.242243	4.12078	6	0.0177342	11	0.00099823
2	1	0	1	0	7362.65	0.251995	0.251749	4.04161	6	0.018122	11	0.00101747
2	1	0	1	0	7362.75	0.261484	0.261214	3.9656	6	0.0185023	11	0.00103587
2	1	0	1	0	7362.84	0.270972	0.27071	3.91464	6	0.0188761	11	0.00105973
2	1	0	1	0	7362.94	0.280461	0.280181	3.83492	6	0.0192442	11	0.00107447
2	1	0	1	0	7363.03	0.289949	0.289638	3.79535	6	0.0196064	11	0.00109928
2	1	0	1	0	7363.13	0.299438	0.299161	3.74495	6	0.0199638	11	0.00112034
2	0	0	1	0	7363.21	0.292246	0.291916	-1.59706	6	0.019951	11	-0.000466208
2	0	0	1	0	7363.3	0.282758	0.282466	-1.98807	6	0.019778	11	-0.000561563
2	0	0	1	0	7363.4	0.273276	0.272968	-2.24003	6	0.0195767	11	-0.000611455
2	0	0	1	0	7363.49	0.263781	0.263507	-2.44733	6	0.0193542	11	-0.000644887
2	0	0	1	0	7363.59	0.254292	0.253972	-2.59764	6	0.0191145	11	-0.00065973
2	0	0	1	0	7363.68	0.244804	0.244498	-2.75911	6	0.0188597	11	-0.000674595
2	0	0	1	0	7363.78	0.235315	0.234982	-2.90139	6	0.0185907	11	-0.000681773
2	0	0	1	0	7363.87	0.225827	0.225547	-3.06258	6	0.0183078	11	-0.000690755
2	0	0	1	0	7363.97	0.216338	0.216012	-3.20743	6	0.0180101	11	-0.000692842
2	0	0	1	0	7364.06	0.206852	0.206541	-3.4102	6	0.0176966	11	-0.000704346
2	0	0	1	0	7364.16	0.197361	0.197069	-3.644	6	0.0173627	11	-0.000718122
2	0	0	1	0	7364.25	0.187872	0.187545	-3.94828	6	0.0170039	11	-0.000740482
2	0	0	1	0	7364.35	0.178384	0.178082	-4.39259	6	0.0166095	11	-0.000782239
2	0	0	1	0	7364.44	0.168895	0.168591	-5.08096	6	0.016162	11	-0.000856602
2	0	0	1	0	7364.54	0.159407	0.159088	-6.2257	6	0.0156295	11	-0.000990436
2	0	0	1	0	7364.63	0.149918	0.149618	-7.96272	6	0.0149618	11	-0.00119137
2	0	0	1	0	7364.73	0.14043	0.140157	-10.2227	6	0.0141026	11	-0.00143279
2	0	0	1	0	7364.82	0.130941	0.130667	-12.3755	6	0.0130269	11	-0.00161707
2	0	0	1	0	7364.92	0.121453	0.121145	-13.8757	6	0.0117738	11	-0.00168097
2	0	0	1	0	7365.01	0.111964	0.111659	-14.3031	6	0.0104282	11	-0.00159707
2	0	0	1	0	7365.11	0.102476	0.102171	-13.6269	6	0.00909428	11	-0.00139227
2	0	0	1	0	7365.2	0.0929871	0.0926909	-12.1379	6	0.007868	11	-0.00112507
2	0	0	1	0	7365.3	0.0834986	0.0832424	-10.7581	6	0.00678542	11	-0.000895534
2	0	0	1	0	7365.39	0.07401	0.0736992	-9.8951	6	0.00581069	11	-0.000729261
2	0	0	1	0	7365.49	0.0645215	0.0642425	-9.30208	6	0.00490142	11	-0.000597589
2	0	0	1	0	7365.58	0.0550329	0.0547676	-8.68126	6	0.0040477	11	-0.000475452
2	0	0	1	0	7365.68	0.0455444	0.045273	-7.95293	6	0.00325768	11	-0.000360053
2	0	0	1	0	7365.77	0.0360559	0.0357232	-7.19366	6	0.00254031	11	-0.000256981
2	0	0	1	0	7365.87	0.0265673	0.0262629	-6.66406	6	0.00188453	11	-0.000175018
2	0	0	1	0	7365.96	0.0170788	0.0167982	-6.39603	6	0.00126592	11	-0.000107442
2	0	0	1	0	7366.06	0.00759027	0.0072723	-6.346	6	0.000663327	11	-4.615e-05
2	0	0	1	0	7366.15	-0.00189827	-0.00225937	-6.39914	6	5.93797e-05	11	1.4458e-05
2	0	0	1	0	7366.25	-0.0113868	-0.0117291	-6.5188	6	-0.000552473	11	7.64599e-05
2	0	0	1	0	7366.34	-0.0208754	-0.021201	-6.70613	6	-0.00117976	11	0.000142177
2	0	0	1	0	7366.44	-0.0303639	-0.0307366	-6.9515	6	-0.00182738	11	0.000213666
2	0	0	1	0	7366.53	-0.0398524	-0.0402087	-7.20901	6	-0.00249945	11	0.000289865
2	0	0	1	0	7366.63	-0.049341	-0.0497211	-7.53103	6	-0.00319936	11	0.000374452
2	0	0	1	0	7366.72	-0.0588295	-0.0592119	-7.90799	6	-0.00393091	11	0.000468247
2	0	0	1	0	7366.82	-0.0683181	-0.0686642	-8.36682	6	-0.00470171	11	0.000574501
2	0	0	1	0	7366.91	-0.0778066	-0.0781326	-8.89211	6	-0.00551979	11	0.000694764
2	0	0	1	0	7367.01	-0.0872951	-0.0876428	-9.53697	6	-0.00639428	11	0.000835847
2	0	0	1	0	7367.1	-0.0967837	-0.097141	-10.1811	6	-0.00733074	11	0.000989
2	0	0	1	1	7367.19	-0.0942368	-0.0945668	-0.861749	6	-0.00792597	11	8.14929e-05
2	1	0	1	1	7367.28	-0.0847482	-0.0850996	3.36235	6	-0.00776177	11	-0.000286134
2	1	0	1	1	7367.38	-0.0752597	-0.0756001	4.64114	6	-0.00737206	11	-0.00035087
2	1	0	1	1	7367.47	-0.0657711	-0.0661272	5.21529	6	-0.00690139	11	-0.000344872
2	1	0	1	1	7367.57	-0.0562826	-0.0566151	5.50852	6	-0.00639119	11	-0.000311865
2	1	0	1	1	7367.66	-0.046794	-0.0471422	5.66123	6	-0.00586049	11	-0.000266883
2	1	0	1	1	7367.76	-0.0373055	-0.0376195	5.70362	6	-0.00532039	11	-0.000214567
2	1	0	1	1	7367.85	-0.027817	-0.0281733	5.70843	6	-0.00477762	11	-0.000160825
2	1	0	1	1	7367.95	-0.0183284	-0.0186666	5.67503	6	-0.00423711	11	-0.000105933
2	1	0	1	1	7368.04	-0.00883989	-0.00915928	5.6206	6	-0.00370118	11	-5.14806e-05
2	1	0	0	1	7368.13	-2.55332e-05	-0.000401673	5.55435	6	-0.00320924	11	-2.23103e-06
2	1	0	1	0	8591.84	0.00828715	0.00794295	2.73928	7	-4.48251e-05	11	2.1758e-05
2	1	0	1	0	8591.94	0.017778	0.0174674	3.96322	7	0.000290122	11	6.9227e-05
2	1	0	1	0	8592.03	0.0272665	0.02697	4.32151	7	0.00068445	11	0.000116551
2	1	0	1	0	8592.13	0.036755	0.0364016	4.68956	7	0.00111164	11	0.000170707
2	1	0	1	0	8592.22	0.0462436	0.045971	5.13078	7	0.00157662	11	0.000235867
2	1	0	1	0	8592.32	0.0557321	0.0554287	5.68395	7	0.00208934	11	0.000315054
2	1	0	1	0	8592.41	0.0652206	0.064909	6.31487	7	0.00265905	11	0.000409892
2	1	0	1	0	8592.51	0.0747092	0.0744124	6.99558	7	0.0032904	11	0.000520558
2	1	0	1	0	8592.6	0.0841977	0.0838647	7.59874	7	0.00398259	11	0.000637266
2	1	0	1	0	8592.7	0.0936862	0.0933383	8.14594	7	0.00473002	11	0.000760328
2	1	0	1	0	8592.79	0.103175	0.102826	8.73519	7	0.00553061	11	0.000898204
2	1	0	1	0	8592.89	0.112663	0.112394	9.56595	7	0.00639629	11	0.00107516
2	1	0	1	0	8592.98	0.122152	0.121849	10.6709	7	0.00735453	11	0.00130024
2	1	0	1	0	8593.08	0.13164	0.131285	11.8676	7	0.00842499	11	0.00155803
2	1	0	1	0	8593.17	0.141129	0.140811	12.9154	7	0.00960243	11	0.00181862
2	1	0	1	0	8593.27	0.150617	0.150339	13.5833	7	0.0108645	11	0.0020421
2	1	0	1	0	8593.36	0.160106	0.159823	13.0926	7	0.0121432	11	0.0020925
2	1	0	1	0	8593.46	0.169595	0.169338	10.5314	7	0.0132793	11	0.00178338
2	1	0	1	0	8593.55	0.179083	0.1788	7.51004	7	0.0141264	11	0.0013428
2	1	0	1	0	8593.65	0.188572	0.188284	5.98913	7	0.014757	11	0.00112766
2	1	0	1	0	8593.74	0.19806	0.197772	5.23603	7	0.0152862	11	0.00103554
2	1	0	1	0	8593.84	0.207549	0.207271	4.81417	7	0.0157605	11	0.00099784
2	1	0	1	0	8593.93	0.217037	0.216754	4.51208	7	0.0162019	11	0.000978012
2	1	0	1	0	8594.03	0.226526	0.226234	4.33858	7	0.0166214	11	0.000981535
2	1	0	1	0	8594.12	0.236014	0.235725	4.1995	7	0.0170262	11	0.000989925
2	1	0	1	0	8594.22	0.245503	0.245206	4.10601	7	0.0174202	11	0.00100682
2	1	0	1	0	8594.31	0.254991	0.254732	4.01344	7	0.0178064	11	0.00102235
2	1	0	1	0	8594.41	0.26448	0.264222	3.96747	7	0.0181855	11	0.00104829
2	1	0	1	0	8594.5	0.273968	0.273649	3.9102	7	0.0185584	11	0.00107002
2	1	0	1	0	8594.6	0.283457	0.283178	3.83932	7	0.0189259	11	0.00108721
2	1	0	1	0	8594.69	0.292946	0.292685	3.78297	7	0.0192881	11	0.00110722
2	1	0	1	0	8594.77	0.298739	0.298493	1.10802	7	0.0195827	11	0.000330736
2	0	0	1	0	8594.87	0.28925	0.288933	-1.63284	7	0.0194892	11	-0.000471782
2	0	0	1	0	8594.96	0.279761	0.279486	-1.96419	7	0.0193171	11	-0.000548964
2	0	0	1	0	8595.06	0.270273	0.270004	-2.21819	7	0.0191177	11	-0.00059892
2	0	0	1	0	8595.15	0.260784	0.260507	-2.40755	7	0.0188977	11	-0.000627184
2	0	0	1	0	8595.25	0.251296	0.250985	-2.57967	7	0.0186608	11	-0.000647459
2	0	0	1	0	8595.34	0.241807	0.241484	-2.72019	7	0.0184087	11	-0.000656883
2	0	0	1	0	8595.44	0.232319	0.231997	-2.88132	7	0.0181425	11	-0.000668457
2	0	0	1	0	8595.53	0.22283	0.222552	-3.03947	7	0.0178625	11	-0.000676439
2	0	0	1	0	8595.63	0.213342	0.212993	-3.19131	7	0.0175676	11	-0.000679728
2	0	0	1	0	8595.72	0.203853	0.203506	-3.37072	7	0.0172562	11	-0.00068596
2	0	0	1	0	8595.82	0.194365	0.194041	-3.59744	7	0.0169258	11	-0.000698051
2	0	0	1	0	8595.91	0.184876	0.184575	-3.91628	7	0.01657	11	-0.000722846
2	0	0	1	0	8596.01	0.175388	0.175059	-4.35928	7	0.016179	11	-0.000763133
2	0	0	1	0	8596.1	0.165899	0.165553	-5.06509	7	0.0157341	11	-0.000838543
2	0	0	1	0	8596.2	0.15641	0.156139	-6.22137	7	0.0152036	11	-0.000971396
2	0	0	1	0	8596.29	0.146922	0.146604	-7.97333	7	0.0145354	11	-0.00116892
2	0	0	1	0	8596.39	0.137433	0.137161	-10.1214	7	0.0136786	11	-0.00138826
2	0	0	1	0	8596.48	0.127945	0.127665	-12.0803	7	0.0126205	11	-0.00154223
2	0	0	1	0	8596.58	0.118456	0.118148	-13.3336	7	0.0114068	11	-0.00157535
2	0	0	1	0	8596.67	0.108968	0.108667	-13.6493	7	0.0101183	11	-0.00148323
2	0	0	1	0	8596.77	0.099477	0.0991795	-12.9918	7	0.00884725	11	-0.00128852
2	0	0	1	0	8596.86	0.0899907	0.0896601	-11.7105	7	0.00767448	11	-0.00104996
2	0	0	1	0	8596.96	0.0805022	0.08017	-10.5545	7	0.0066218	11	-0.000846158
2	0	0	1	0	8597.05	0.0710136	0.0707289	-9.82083	7	0.00565819	11	-0.000694617
2	0	0	1	0	8597.15	0.0615251	0.0612209	-9.25836	7	0.00475376	11	-0.000566805
2	0	0	1	0	8597.24	0.0520366	0.0517371	-8.68178	7	0.00390139	11	-0.00044917
2	0	0	1	0	8597.34	0.042548	0.0422502	-7.97633	7	0.00310969	11	-0.000337001
2	0	0	1	0	8597.43	0.0330527	0.0327122	-7.26942	7	0.00238725	11	-0.000237799
2	0	0	1	0	8597.53	0.023571	0.0232553	-6.73714	7	0.00172575	11	-0.000156674
2	0	0	1	0	8597.62	0.0140824	0.0137478	-6.46097	7	0.00110147	11	-8.88244e-05
2	0	0	1	0	8597.71	0.00459389	0.00429164	-6.3629	7	0.00049408	11	-2.73073e-05
2	0	0	1	0	8597.81	-0.00489465	-0.00527558	-6.41762	7	-0.000112971	11	3.38567e-05
2	0	0	1	0	8597.9	-0.0143832	-0.0147354	-6.53252	7	-0.00072689	11	9.62592e-05
2	0	0	1	0	8598	-0.0238717	-0.0241907	-6.71752	7	-0.00135564	11	0.000162502
2	0	0	1	0	8598.09	-0.0333603	-0.0336862	-6.96407	7	-0.00200411	11	0.000234593
2	0	0	1	0	8598.19	-0.0428488	-0.043172	-7.24398	7	-0.00267733	11	0.000312737
2	0	0	1	0	8598.28	-0.0523374	-0.0526723	-7.54718	7	-0.00337858	11	0.000397528
2	0	0	1	0	8598.38	-0.0618259	-0.0622112	-7.93138	7	-0.00411245	11	0.000493421
2	0	0	1	0	8598.47	-0.0713144	-0.0716559	-8.38385	7	-0.00488609	11	0.000600752
2	0	0	1	0	8598.57	-0.080803	-0.0811445	-8.94944	7	-0.00570781	11	0.000726198
2	0	0	1	0	8598.66	-0.0902915	-0.0906287	-9.56784	7	-0.00658626	11	0.000867121
2	0	0	1	0	8598.76	-0.0997501	-0.100152	-10.1702	7	-0.00751948	11	0.00101856
2	1	0	1	1	8598.85	-0.0912381	-0.0915693	0.70513	7	-0.00782574	11	-6.45682e-05
2	1	0	1	1	8598.94	-0.0817518	-0.0821002	3.52241	7	-0.00760002	11	-0.000289191
2	1	0	1	1	8599.04	-0.0722633	-0.0725953	4.58533	7	-0.00720879	11	-0.000332873
2	1	0	1	1	8599.13	-0.0627748	-0.0631113	5.08698	7	-0.00674747	11	-0.000321046
2	1	0	1	1	8599.23	-0.0532862	-0.0536267	5.37046	7	-0.0062493	11	-0.000288
2	1	0	1	1	8599.32	-0.0437977	-0.0441425	5.51305	7	-0.00573158	11	-0.000243359
2	1	0	1	1	8599.42	-0.0343091	-0.034629	5.58025	7	-0.00520473	11	-0.000193239
2	1	0	1	1	8599.51	-0.0248138	-0.0251302	5.57164	7	-0.00467537	11	-0.000140016
2	1	0	1	1	8599.61	-0.015332	-0.0156785	5.54022	7	-0.0041482	11	-8.68621e-05
2	1	0	1	1	8599.7	-0.00584351	-0.00620173	5.49238	7	-0.00362459	11	-3.40623e-05
2	0	0	1	0	9823.41	0.00179726	0.00135644	-2.80446	8	-9.08641e-05	11	-3.80406e-06
2	1	0	1	0	9823.5	0.0112858	0.0109995	3.59491	8	6.91419e-05	11	3.95423e-05
2	1	0	1	0	9823.6	0.0207743	0.0204736	4.2969	8	0.0004511	11	8.79731e-05
2	1	0	1	0	9823.69	0.0302629	0.0299146	4.63293	8	0.000875125	11	0.000138592
2	1	0	1	0	9823.79	0.0397514	0.0394311	5.01915	8	0.00133303	11	0.00019791
2	1	0	1	0	9823.88	0.0492399	0.0489416	5.5351	8	0.00183358	11	0.000270897
2	1	0	1	0	9823.98	0.0587285	0.0584094	6.13389	8	0.00238573	11	0.000358277
2	1	0	1	0	9824.07	0.068217	0.0679181	6.76894	8	0.00299776	11	0.000459733
2	1	0	1	0	9824.17	0.0777056	0.0774481	7.38737	8	0.00367023	11	0.000572138
2	1	0	1	0	9824.26	0.0871941	0.0868867	7.96673	8	0.00439927	11	0.000692203
2	1	0	1	0	9824.36	0.0966826	0.0963389	8.49754	8	0.00518027	11	0.000818644
2	1	0	1	0	9824.45	0.106171	0.105862	9.15611	8	0.00601731	11	0.00096928
2	1	0	1	0	9824.55	0.11566	0.115344	10.111	8	0.00693026	11	0.00116624
2	1	0	1	0	9824.64	0.125148	0.124837	11.2975	8	0.00794503	11	0.00141034
2	1	0	1	0	9824.74	0.134637	0.134347	12.3906	8	0.00907001	11	0.00166464
2	1	0	1	0	9824.83	0.144125	0.143838	13.2509	8	0.0102893	11	0.00190598
2	1	0	1	0	9824.93	0.153614	0.153298	13.4894	8	0.0115668	11	0.00206789
2	1	0	1	0	9825.02	0.163102	0.16283	12.09	8	0.0127982	11	0.00196862
2	1	0	1	0	9825.11	0.172591	0.172241	8.93421	8	0.0138004	11	0.00153883
2	1	0	1	0	9825.21	0.182084	0.181775	6.57228	8	0.014523	11	0.00119468
2	1	0	1	0	9825.3	0.191568	0.191292	5.49214	8	0.0150887	11	0.0010506
2	1	0	1	0	9825.4	0.201057	0.20077	4.93195	8	0.0155807	11	0.00099019
2	1	0	1	0	9825.49	0.210545	0.210238	4.5874	8	0.0160311	11	0.000964445
2	1	0	1	0	9825.59	0.220034	0.219767	4.37306	8	0.0164556	11	0.000961053
2	1	0	1	0	9825.68	0.229522	0.229264	4.21847	8	0.0168635	11	0.000967143
2	1	0	1	0	9825.78	0.239011	0.238734	4.13059	8	0.0172597	11	0.000986113
2	1	0	1	0	9825.87	0.248508	0.248212	4.04927	8	0.0176475	11	0.00100507
2	1	0	1	0	9825.97	0.257988	0.257662	3.97886	8	0.0180278	11	0.0010252
2	1	0	1	0	9826.06	0.267476	0.267169	3.9179	8	0.0184027	11	0.00104674
2	1	0	1	0	9826.16	0.276965	0.276639	3.86935	8	0.0187719	11	0.00107041
2	1	0	1	0	9826.25	0.286453	0.286156	3.80741	8	0.0191361	11	0.00108951
2	1	0	1	0	9826.35	0.295942	0.295675	3.74768	8	0.0194949	11	0.0011081
2	0	0	1	0	9826.43	0.295742	0.295421	-1.03964	8	0.0196672	11	-0.00030713
2	0	0	1	0	9826.53	0.286254	0.28593	-1.85809	8	0.0195157	11	-0.000531283
2	0	0	1	0	9826.62	0.276765	0.27647	-2.13768	8	0.0193247	11	-0.000591005
2	0	0	1	0	9826.72	0.267276	0.266941	-2.34119	8	0.0191107	11	-0.00062496
2	0	0	1	0	9826.81	0.257788	0.257462	-2.53987	8	0.0188789	11	-0.000653921
2	0	0	1	0	9826.91	0.248293	0.248003	-2.68954	8	0.0186312	11	-0.000667014
2	0	0	1	0	9827	0.238811	0.238514	-2.82933	8	0.0183696	11	-0.000674834
2	0	0	1	0	9827.1	0.229322	0.229009	-2.97067	8	0.0180943	11	-0.000680312
2	0	0	1	0	9827.19	0.219834	0.219528	-3.11864	8	0.0178055	11	-0.000684629
2	0	0	1	0	9827.29	0.210345	0.210031	-3.27731	8	0.0175022	11	-0.000688337
2	0	0	1	0	9827.38	0.200857	0.200532	-3.45861	8	0.0171823	11	-0.000693562
2	0	0	1	0	9827.48	0.191368	0.191064	-3.69904	8	0.0168427	11	-0.000706751
2	0	0	1	0	9827.57	0.18188	0.18158	-4.0423	8	0.0164773	11	-0.000734001
2	0	0	1	0	9827.67	0.172391	0.172066	-4.52295	8	0.0160735	11	-0.000778247
2	0	0	1	0	9827.76	0.162903	0.162619	-5.28259	8	0.0156113	11	-0.000859049
2	0	0	1	0	9827.86	0.153414	0.153088	-6.55021	8	0.0150542	11	-0.00100276
2	0	0	1	0	9827.95	0.143926	0.143685	-8.40086	8	0.0143484	11	-0.00120708
2	0	0	1	0	9828.04	0.134437	0.134132	-10.6269	8	0.0134445	11	-0.0014254
2	0	0	1	0	9828.14	0.124948	0.124672	-12.4695	8	0.0123431	11	-0.0015546
2	0	0	1	0	9828.23	0.11546	0.1151	-13.5576	8	0.0111015	11	-0.00156049
2	0	0	1	0	9828.33	0.105971	0.105643	-13.6325	8	0.00980487	11	-0.00144018
2	0	0	1	0	9828.42	0.0964829	0.0961818	-12.8147	8	0.0085443	11	-0.00123254
2	0	0	1	0	9828.52	0.0869943	0.0866373	-11.4838	8	0.00739041	11	-0.000994923
2	0	0	1	0	9828.61	0.0775058	0.0771982	-10.4029	8	0.00635512	11	-0.000803083
2	0	0	1	0	9828.71	0.0680173	0.0677058	-9.70617	8	0.00540329	11	-0.000657163
2	0	0	1	0	9828.8	0.0585287	0.0582221	-9.16332	8	0.00450832	11	-0.000533508
2	0	0	1	0	9828.9	0.0490402	0.0487345	-8.58431	8	0.00366633	11	-0.000418352
2	0	0	1	0	9828.99	0.0395517	0.039234	-7.88829	8	0.00288432	11	-0.000309489
2	0	0	1	0	9829.09	0.0300631	0.0297472	-7.18003	8	0.00217096	11	-0.000213585
2	0	0	1	0	9829.18	0.0205746	0.0202469	-6.68806	8	0.00151565	11	-0.000135413
2	0	0	1	0	9829.28	0.011086	0.0108005	-6.42623	8	0.000894791	11	-6.94065e-05
2	0	0	1	0	9829.37	0.00159751	0.00121381	-6.43763	8	0.000287266	11	-7.81405e-06
2	0	0	1	0	9829.47	-0.00789103	-0.00824449	-6.45002	8	-0.000322556	11	5.31771e-05
2	0	0	1	0	9829.56	-0.0173796	-0.0177346	-6.61821	8	-0.000941294	11	0.000117372
2	0	0	1	0	9829.66	-0.0268681	-0.0272181	-6.81301	8	-0.00157808	11	0.000185437
2	0	0	1	0	9829.75	-0.0363567	-0.0367481	-7.08503	8	-0.00223707	11	0.000260361
2	0	0	1	0	9829.85	-0.0458452	-0.0462316	-7.3674	8	-0.00292234	11	0.000340607
2	0	0	1	0	9829.94	-0.0553337	-0.0556811	-7.71191	8	-0.0036375	11	0.000429408
2	0	0	1	0	9830.04	-0.0648223	-0.0652127	-8.11167	8	-0.00438822	11	0.000528984
2	0	0	1	0	9830.13	-0.0743017	-0.0746509	-8.6083	8	-0.0051804	11	0.000642618
2	0	0	1	0	9830.23	-0.0837994	-0.0841515	-9.20058	8	-0.00602458	11	0.000774243
2	0	0	1	0	9830.32	-0.0932879	-0.0936454	-9.80985	8	-0.0069263	11	0.000918647
2	0	0	1	1	9830.41	-0.0977325	-0.098085	-5.23588	8	-0.00776735	11	0.000513561
2	1	0	1	1	9830.51	-0.088244	-0.0886117	2.17612	8	-0.00782365	11	-0.00019283
2	1	0	1	1	9830.6	-0.0787554	-0.0790961	4.21053	8	-0.00750363	11	-0.000333037
2	1	0	1	1	9830.7	-0.0692669	-0.0696065	5.01189	8	-0.00706088	11	-0.00034886
2	1	0	1	1	9830.79	-0.0597784	-0.0601185	5.40712	8	-0.00656431	11	-0.000325068
2	1	0	1	1	9830.89	-0.0502898	-0.0506055	5.59558	8	-0.00604059	11	-0.000283167
2	1	0	1	1	9830.98	-0.0408013	-0.0411477	5.70076	8	-0.00550429	11	-0.000234573
2	1	0	1	1	9831.08	-0.0313128	-0.031639	5.70966	8	-0.00496306	11	-0.000180648
2	1	0	1	1	9831.17	-0.0218242	-0.0221554	5.675	8	-0.00442294	11	-0.000125732
2	1	0	1	1	9831.27	-0.0123357	-0.0126553	5.60574	8	-0.00388698	11	-7.09423e-05
2	1	0	1	1	9831.36	-0.00284713	-0.00320295	5.56262	8	-0.00335637	11	-1.78168e-05
2	1	0	1	1	9831.39	-2.44065e-05	-0.000306236	5.5478	8	-0.00319929	11	-1.69894e-06