File: Figure_codes/Fig_3-5/rawdata_trumpetplot_data/before 10th/20221101_1-115_002_TrumpetPlot_ParaChange_05_CV_C01_7.csv
mode,ox/red,error,control changes,counter inc.,time/s,control/V,Ewe/V,<I>/mA,cycle number,(Q-Qo)/C,I Range,P/W,log(|I|),Tafel slope mV/dec,alpha_eff,dI/d(E-IR),E-IR/V,
2,0,0,1,0,9580.29,2.44065e-05,-0.000363498,-0.0413291,8,0.0000000E+000,11,1.50231e-08,-4.38374, , , ,-0.000363498,
2,1,0,0,0,9580.54,0.00129787,0.000906869,0.161645,8,3.7075e-05,11,1.46591e-07,-3.79144, , , ,0.000906869,
2,1,0,0,0,9580.84,0.00279606,0.00247097,0.186717,8,9.6409e-05,11,4.61372e-07,-3.72882,0.0346651,1.702,11.4926,0.00247097,
2,1,0,1,0,9581.14,0.00429469,0.00399198,0.193701,8,0.00015853,11,7.73252e-07,-3.71287,0.165131,0.357291,2.78271,0.00399198,
2,1,0,1,0,9581.44,0.00579255,0.00551875,0.200429,8,0.000223044,11,1.10612e-06,-3.69804,0.0909777,0.648511,5.07807,0.00551875,
2,1,0,1,0,9581.74,0.00729041,0.00696378,0.208599,8,0.000289975,11,1.45264e-06,-3.68069,0.108956,0.541502,4.36997,0.00696378,
2,1,0,1,0,9582.04,0.00878882,0.00850786,0.215231,8,0.000359002,11,1.83116e-06,-3.6671,0.138476,0.426066,3.55406,0.00850786,
2,1,0,1,0,9582.34,0.010287,0.00999773,0.220438,8,0.000429576,11,2.20388e-06,-3.65671,0.20196,0.292136,2.48669,0.00999773,
2,1,0,1,0,9582.64,0.0117852,0.011494,0.223817,8,0.000501518,11,2.57255e-06,-3.65011,0.17304,0.340962,2.97694,0.011494,
2,1,0,1,0,9582.94,0.0132836,0.0129683,0.228537,8,0.000574516,11,2.96373e-06,-3.64104,0.160739,0.367054,3.29391,0.01296827,
2,1,0,1,0,9583.24,0.0147815,0.0144639,0.231963,8,0.000649078,11,3.3551e-06,-3.63458,0.215775,0.273433,2.47892,0.0144639,
2,1,0,1,0,9583.54,0.0162793,0.0159971,0.235593,8,0.000725,11,3.7688e-06,-3.62784,0.258591,0.228159,2.09701,0.0159971,
2,1,0,0,0,9583.84,0.017778,0.0175022,0.239421,8,0.000801692,11,4.1904e-06,-3.62084,0.253893,0.232382,2.17451,0.0175022,
2,1,0,0,0,9584.14,0.0192761,0.0189592,0.244498,8,0.000879187,11,4.63549e-06,-3.61172,0.24046,0.245363,2.32422,0.0189592,
2,1,0,1,0,9584.44,0.0207747,0.020475,0.246847,8,0.000958003,11,5.05419e-06,-3.60757,0.253191,0.233026,2.23683,0.020475,
2,1,0,1,0,9584.73,0.0222725,0.0219316,0.25036,8,0.00103786,11,5.49081e-06,-3.60143,0.258036,0.228651,2.22719,0.0219316,
2,1,0,1,0,9585.03,0.0237704,0.0234327,0.25338,8,0.00111869,11,5.93738e-06,-3.59623,0.249902,0.236093,2.33668,0.0234327,
2,1,0,1,0,9585.33,0.0252689,0.0249399,0.255727,8,0.00120028,11,6.37781e-06,-3.59222,0.254772,0.23158,2.32499,0.0249399,
2,1,0,1,0,9585.63,0.0267671,0.0264362,0.259648,8,0.00128319,11,6.86409e-06,-3.58562,0.20084,0.293767,2.97732,0.0264362,
2,1,0,1,0,9585.93,0.0282657,0.0279486,0.264021,8,0.00136743,11,7.37901e-06,-3.57836,0.221155,0.266782,2.75882,0.0279486,
2,1,0,1,0,9586.23,0.0297635,0.0294774,0.268536,8,0.00145258,11,7.91574e-06,-3.571,0.26501,0.222633,2.33114,0.0294774,
2,1,0,1,0,9586.53,0.0312613,0.0309436,0.268604,8,0.00153882,11,8.31157e-06,-3.57089,0.247524,0.238361,2.52844,0.0309436,
2,1,0,0,0,9586.83,0.0327599,0.0324784,0.277053,8,0.00162617,11,8.99822e-06,-3.55744,0.233533,0.252641,2.72159,0.0324784,
2,1,0,0,0,9587.13,0.034258,0.0339661,0.281044,8,0.00171499,11,9.54599e-06,-3.55122,0.197876,0.298167,3.25805,0.0339661,
2,1,0,1,0,9587.43,0.0357567,0.0354766,0.285367,8,0.0018051,11,1.01239e-05,-3.5446,0.261726,0.225426,2.50101,0.0354766,
2,1,0,1,0,9587.73,0.0372545,0.0369355,0.287878,8,0.00189652,11,1.06329e-05,-3.54079,0.232612,0.253641,2.86866,0.03693546,
2,1,0,1,0,9588.03,0.0387524,0.0384483,0.293947,8,0.00198909,11,1.13018e-05,-3.53173,0.166214,0.354963,4.10875,0.03844833,
2,1,0,1,0,9588.33,0.0402508,0.0399097,0.298083,8,0.00208338,11,1.18964e-05,-3.52566,0.217072,0.2718,3.17587,0.0399097,
2,1,0,1,0,9588.63,0.041749,0.04146,0.304053,8,0.00217953,11,1.26061e-05,-3.51705,0.255874,0.230582,2.73109,0.04146,
2,1,0,1,0,9588.93,0.0432472,0.0429711,0.311529,8,0.002277,11,1.33867e-05,-3.5065,0.207806,0.283918,3.43303,0.0429711,
2,1,0,1,0,9589.23,0.0447456,0.0444496,0.316254,8,0.00237577,11,1.40574e-05,-3.49996,0.187282,0.315033,3.87959,0.0444496,
2,1,0,1,0,9589.53,0.0462435,0.0459349,0.321814,8,0.00247665,11,1.47825e-05,-3.4924,0.161812,0.36462,4.5498,0.0459349,
2,1,0,1,0,9589.83,0.0477413,0.0474487,0.327225,8,0.00257933,11,1.55264e-05,-3.48515,0.204996,0.287811,3.68755,0.0474487,
2,1,0,0,0,9590.13,0.0492399,0.0489136,0.333724,8,0.0026838,11,1.63237e-05,-3.47661,0.175235,0.33669,4.39862,0.0489136,
2,1,0,0,0,9590.43,0.0507381,0.0504279,0.338313,8,0.00278979,11,1.70604e-05,-3.47068,0.193611,0.304734,4.04503,0.0504279,
2,1,0,1,0,9590.73,0.0522367,0.0519138,0.345114,8,0.00289802,11,1.79162e-05,-3.46204,0.143284,0.411771,5.56671,0.0519138,
2,1,0,1,0,9591.03,0.0537345,0.0534702,0.354497,8,0.00300846,11,1.8955e-05,-3.45039,0.175846,0.335522,4.62383,0.0534702,
2,1,0,1,0,9591.33,0.0552323,0.0549138,0.360398,8,0.00312085,11,1.97908e-05,-3.44322,0.188631,0.31278,4.38558,0.0549138,
2,1,0,1,0,9591.63,0.0567309,0.0564011,0.363986,8,0.00323497,11,2.05292e-05,-3.43892,0.188573,0.312877,4.46725,0.0564011,
2,1,0,1,0,9591.93,0.0582291,0.0579292,0.372878,8,0.00335099,11,2.16005e-05,-3.42843,0.192074,0.307173,4.46831,0.0579292,
2,1,0,1,0,9592.23,0.0597277,0.0594364,0.381371,8,0.00346926,11,2.26673e-05,-3.41865,0.192187,0.306993,4.55252,0.0594364,
2,1,0,1,0,9592.53,0.0612255,0.0609579,0.386187,8,0.00358958,11,2.35412e-05,-3.4132,0.259805,0.227094,3.41453,0.0609579,
2,1,0,1,0,9592.82,0.0627233,0.0624419,0.392665,8,0.00371176,11,2.45188e-05,-3.40598,0.245383,0.24044,3.69345,0.0624419,
2,1,0,0,0,9593.12,0.0642218,0.0639088,0.39868,8,0.00383562,11,2.54792e-05,-3.39938,0.208118,0.283494,4.43173,0.0639088,
2,1,0,0,0,9593.42,0.06572,0.0654019,0.407059,8,0.00396159,11,2.66224e-05,-3.39034,0.227656,0.259163,4.10703,0.06540186,
2,1,0,1,0,9593.72,0.0672187,0.0668985,0.412956,8,0.00408992,11,2.76261e-05,-3.3841,0.24725,0.238625,3.8293,0.0668985,
2,1,0,1,0,9594.02,0.0687165,0.0684146,0.419757,8,0.00421996,11,2.87175e-05,-3.377,0.28341,0.208179,3.40053,0.0684146,
2,1,0,1,0,9594.32,0.0702144,0.0699105,0.424812,8,0.00435128,11,2.96989e-05,-3.3718,0.239338,0.246513,4.08146,0.0699105,
2,1,0,1,0,9594.62,0.0717128,0.0713974,0.430638,8,0.00448466,11,3.07464e-05,-3.36589,0.226168,0.260868,4.37099,0.0713974,
2,1,0,1,0,9594.92,0.073211,0.0728798,0.435369,8,0.00461991,11,3.17296e-05,-3.36114,0.250999,0.23506,4.00656,0.0728798,
2,1,0,1,0,9595.22,0.0747092,0.0744047,0.441153,8,0.00475682,11,3.28239e-05,-3.35541,0.296268,0.199144,3.4281,0.0744047,
2,1,0,1,0,9595.52,0.0762076,0.0758821,0.444322,8,0.00489519,11,3.37161e-05,-3.3523,0.304092,0.19402,3.38432,0.0758821,
2,1,0,1,0,9595.82,0.0777054,0.0773886,0.452673,8,0.00503525,11,3.50318e-05,-3.34422,0.287009,0.205568,3.62408,0.0773886,
2,1,0,1,0,9596.12,0.0792033,0.0789023,0.459201,8,0.00517702,11,3.6232e-05,-3.338,0.351705,0.167754,2.99362,0.0789023,
2,1,0,0,0,9596.42,0.0807019,0.0804045,0.46221,8,0.00532045,11,3.71637e-05,-3.33516,0.345546,0.170744,3.07165,0.0804045,
2,1,0,0,0,9596.72,0.0822001,0.0818944,0.464618,8,0.00546499,11,3.80496e-05,-3.3329,0.3331,0.177124,3.23403,0.08189436,
2,1,0,1,0,9597.02,0.0836986,0.0834131,0.4741,8,0.00561093,11,3.95461e-05,-3.32413,0.350673,0.168248,3.10631,0.0834131,
2,1,0,1,0,9597.32,0.0851965,0.0848909,0.476963,8,0.0057587,11,4.04898e-05,-3.32152,0.314874,0.187376,3.49854,0.0848909,
2,1,0,1,0,9597.62,0.0866944,0.0864176,0.481692,8,0.00590806,11,4.16267e-05,-3.31723,0.491808,0.119965,2.25622,0.0864176,
2,1,0,1,0,9597.92,0.0881929,0.0879408,0.4884,8,0.00605898,11,4.29503e-05,-3.31122,0.384248,0.153547,2.92874,0.0879408,
2,1,0,1,0,9598.22,0.0896911,0.0894349,0.492555,8,0.00621089,11,4.40516e-05,-3.30755,0.318465,0.185264,3.57086,0.0894349,
2,1,0,1,0,9598.52,0.0911897,0.0908606,0.499515,8,0.00636475,11,4.53863e-05,-3.30145,0.279884,0.210801,4.09694,0.0908606,
2,1,0,1,0,9598.82,0.0926875,0.0923818,0.505057,8,0.00652071,11,4.66581e-05,-3.29666,0.261186,0.225893,4.44695,0.0923818,
2,1,0,1,0,9599.12,0.0941853,0.0938893,0.510523,8,0.00667827,11,4.79327e-05,-3.29198,0.275487,0.214166,4.28418,0.0938893,
2,1,0,0,0,9599.42,0.0956838,0.0953806,0.515686,8,0.00683723,11,4.91865e-05,-3.28761,0.254892,0.231471,4.68693,0.0953806,
2,1,0,0,0,9599.72,0.097182,0.0969002,0.524181,8,0.00699873,11,5.07932e-05,-3.28052,0.182982,0.322435,6.60177,0.0969002,
2,1,0,1,0,9600.02,0.0986807,0.098397,0.531923,8,0.00716272,11,5.23396e-05,-3.27415,0.215075,0.274322,5.71511,0.098397,
2,1,0,1,0,9600.32,0.100179,0.0998856,0.541397,8,0.00732929,11,5.40777e-05,-3.26648,0.215272,0.274072,5.79171,0.0998856,
2,1,0,1,0,9600.62,0.101676,0.10139,0.546977,8,0.00749806,11,5.54579e-05,-3.26203,0.201696,0.29252,6.30782,0.10139,
2,1,0,1,0,9600.92,0.103175,0.102851,0.561726,8,0.00766969,11,5.77742e-05,-3.25048,0.182665,0.322996,7.08743,0.102851,
2,1,0,1,0,9601.21,0.104673,0.104361,0.57473,8,0.00784511,11,5.99795e-05,-3.24054,0.16555,0.356387,7.96162,0.104361,
2,1,0,1,0,9601.51,0.106171,0.105901,0.585642,8,0.00802404,11,6.202e-05,-3.23237,0.188835,0.312441,7.11476,0.1059009,
2,1,0,1,0,9601.81,0.10767,0.107404,0.593269,8,0.00820635,11,6.37193e-05,-3.22675,0.160085,0.368555,8.5911,0.1074037,
2,1,0,1,0,9602.11,0.109167,0.108874,0.608704,8,0.00839188,11,6.6272e-05,-3.21559,0.162798,0.362412,8.64246,0.1088739,
2,1,0,1,0,9602.41,0.110665,0.110343,0.622745,8,0.00858173,11,6.87154e-05,-3.20569,0.153422,0.384561,9.35249,0.1103426,
2,1,0,0,0,9602.71,0.112164,0.111857,0.636405,8,0.00877579,11,7.11865e-05,-3.19627,0.167792,0.351626,8.69957,0.111857,
2,1,0,0,0,9603.01,0.113662,0.113363,0.65101,8,0.00897386,11,7.38004e-05,-3.18641,0.159616,0.369637,9.36546,0.113363,
2,1,0,1,0,9603.31,0.115161,0.114844,0.662893,8,0.00917523,11,7.61291e-05,-3.17856,0.167108,0.353064,9.12033,0.114844,
2,1,0,1,0,9603.61,0.116658,0.116332,0.677555,8,0.00938144,11,7.88213e-05,-3.16906,0.151337,0.389858,10.2514,0.116332,
2,1,0,1,0,9603.91,0.118156,0.117835,0.689806,8,0.00959202,11,8.12836e-05,-3.16127,0.196901,0.299643,8.05381,0.117835,
2,1,0,1,0,9604.21,0.119655,0.119351,0.702723,8,0.00980616,11,8.38708e-05,-3.15322,0.226688,0.26027,7.1506,0.1193511,
2,1,0,1,0,9604.51,0.121153,0.120882,0.71322,8,0.0100234,11,8.62157e-05,-3.14678,0.198276,0.297565,8.31203,0.120882,
2,1,0,1,0,9604.81,0.122652,0.122364,0.725257,8,0.0102448,11,8.87454e-05,-3.13951,0.171592,0.343838,9.743,0.122364,
2,1,0,1,0,9605.11,0.124149,0.12385,0.740773,8,0.0104701,11,9.17451e-05,-3.13031,0.207874,0.283826,8.1933,0.12385,
2,1,0,1,0,9605.41,0.125647,0.125354,0.750784,8,0.010699,11,9.41137e-05,-3.12449,0.243876,0.241926,7.0809,0.125354,
2,1,0,0,0,9605.71,0.127146,0.126845,0.756876,8,0.010931,11,9.60059e-05,-3.12098,0.250028,0.235974,7.01166,0.126845,
2,1,0,0,0,9606.01,0.128644,0.12834,0.774642,8,0.0111661,11,9.94177e-05,-3.1109,0.244513,0.241296,7.27941,0.12834,
2,1,0,1,0,9606.31,0.130143,0.129802,0.785539,8,0.0114048,11,0.000101964,-3.10483,0.290769,0.20291,6.19363,0.129802,
2,1,0,1,0,9606.61,0.131641,0.131332,0.79174,8,0.0116467,11,0.000103981,-3.10142,0.413505,0.142683,4.39678,0.131332,
2,1,0,1,0,9606.91,0.133138,0.132835,0.801499,8,0.0118909,11,0.000106467,-3.0961,0.383237,0.153952,4.80957,0.132835,
2,1,0,1,0,9607.21,0.134637,0.134314,0.807637,8,0.0121367,11,0.000108477,-3.09278,0.533225,0.110648,3.48285,0.134314,
2,1,0,1,0,9607.51,0.136135,0.135836,0.813524,8,0.0123849,11,0.000110506,-3.08963,0.668891,0.0882057,2.78795,0.135836,
2,1,0,1,0,9607.81,0.137633,0.13736,0.815205,8,0.0126341,11,0.000111977,-3.08873,4.66301,0.0126528,0.400659,0.13736,
2,1,0,1,0,9608.11,0.139132,0.138833,0.815612,8,0.0128838,11,0.000113234,-3.08852,-1.53537,-0.0384271,-1.21713,0.138833,
2,1,0,1,0,9608.41,0.140629,0.140334,0.810928,8,0.0131324,11,0.000113801,-3.09102,-0.534091,-0.110468,-3.48341,0.140334,
2,1,0,1,0,9608.71,0.142127,0.141865,0.803569,8,0.0133799,11,0.000113998,-3.09498,-0.355614,-0.16591,-5.1866,0.141865,
2,1,0,0,0,9609.01,0.143626,0.143336,0.796175,8,0.0136252,11,0.000114121,-3.09899,-0.209743,-0.281297,-8.69106,0.143336,
2,1,0,0,0,9609.31,0.145124,0.144797,0.777232,8,0.0138663,11,0.000112541,-3.10945,-0.142731,-0.413366,-12.5503,0.144797,
2,1,0,1,0,9609.6,0.146623,0.146309,0.757806,8,0.0141019,11,0.000110874,-3.12044,-0.13042,-0.452384,-13.3636,0.146309,
2,1,0,1,0,9609.9,0.14812,0.147806,0.737429,8,0.0143314,11,0.000108996,-3.13228,-0.109753,-0.537569,-15.3818,0.147806,
2,1,0,1,0,9610.2,0.149618,0.149328,0.712002,8,0.0145539,11,0.000106322,-3.14752,-0.0935302,-0.630812,-17.4703,0.149328,
2,1,0,1,0,9610.5,0.151117,0.150803,0.684086,8,0.0147684,11,0.000103162,-3.16489,-0.0811782,-0.726796,-19.307,0.150803,
2,1,0,1,0,9610.8,0.152615,0.152326,0.651287,8,0.0149739,11,9.92076e-05,-3.18623,-0.0755934,-0.780491,-19.8954,0.152326,
2,1,0,1,0,9611.1,0.154114,0.153805,0.625437,8,0.0151706,11,9.61956e-05,-3.20382,-0.0736923,-0.800627,-19.5017,0.1538053,
2,1,0,1,0,9611.4,0.155612,0.155275,0.596339,8,0.0153587,11,9.25963e-05,-3.22451,-0.0720572,-0.818794,-19.0163,0.155275,
2,1,0,1,0,9611.7,0.157109,0.156833,0.566287,8,0.0155383,11,8.88125e-05,-3.24696,-0.0675385,-0.873576,-19.3042,0.156833,
2,1,0,0,0,9612,0.158608,0.15834,0.539204,8,0.0157094,11,8.53777e-05,-3.26825,-0.0712455,-0.828122,-17.4911,0.15834,
2,1,0,0,0,9612.3,0.160106,0.159792,0.513802,8,0.0158722,11,8.21014e-05,-3.2892,-0.0742069,-0.795075,-16.0268,0.159792,
2,1,0,1,0,9612.6,0.161605,0.161304,0.492239,8,0.0160282,11,7.94003e-05,-3.30782,-0.0776256,-0.760058,-14.6209,0.161304,
2,1,0,1,0,9612.9,0.163102,0.162801,0.471992,8,0.0161779,11,7.68409e-05,-3.32607,-0.081707,-0.722092,-13.3135,0.162801,
2,1,0,1,0,9613.2,0.1646,0.164288,0.454326,8,0.0163216,11,7.46401e-05,-3.34263,-0.0889209,-0.663511,-11.7723,0.164288,
2,1,0,1,0,9613.5,0.166099,0.165798,0.43539,8,0.0164597,11,7.21868e-05,-3.36112,-0.094492,-0.624391,-10.6513,0.165798,
2,1,0,1,0,9613.8,0.167597,0.167292,0.421823,8,0.0165935,11,7.05676e-05,-3.37487,-0.114416,-0.515661,-8.49539,0.167292,
2,1,0,1,0,9614.1,0.169095,0.168777,0.40804,8,0.0167233,11,6.88677e-05,-3.3893,-0.111938,-0.527078,-8.42684,0.168777,
2,1,0,1,0,9614.4,0.170594,0.170285,0.395757,8,0.0168492,11,6.73914e-05,-3.40257,-0.122196,-0.482831,-7.5088,0.170285,
2,1,0,1,0,9614.7,0.172091,0.171809,0.385525,8,0.0169716,11,6.62368e-05,-3.41395,-0.140505,-0.419915,-6.3393,0.171809,
2,1,0,1,0,9615,0.173589,0.173267,0.377682,8,0.0170912,11,6.54397e-05,-3.42287,-0.15916,-0.370697,-5.45834,0.173267,
2,1,0,0,0,9615.3,0.175088,0.174802,0.370269,8,0.0172083,11,6.47237e-05,-3.43148,-0.161287,-0.365808,-5.26804,0.174802,
2,1,0,0,0,9615.6,0.176586,0.176312,0.361053,8,0.0173229,11,6.36579e-05,-3.44243,-0.163033,-0.361889,-5.10124,0.176312,
2,1,0,1,0,9615.9,0.178085,0.177794,0.352649,8,0.0174354,11,6.26987e-05,-3.45266,-0.178696,-0.330169,-4.5589,0.177794,
2,1,0,1,0,9616.2,0.179582,0.179312,0.346821,8,0.0175458,11,6.21892e-05,-3.45989,-0.216047,-0.273089,-3.72411,0.179312,
2,1,0,1,0,9616.5,0.18108,0.180785,0.343416,8,0.0176547,11,6.20846e-05,-3.46418,-0.230039,-0.256478,-3.43343,0.180785,
2,1,0,1,0,9616.8,0.182579,0.182297,0.337398,8,0.0177622,11,6.15065e-05,-3.47186,-0.196266,-0.300612,-3.95879,0.182297,
2,1,0,1,0,9617.1,0.184077,0.183794,0.332722,8,0.017868,11,6.11523e-05,-3.47792,-0.258607,-0.228146,-2.96475,0.183794,
2,1,0,1,0,9617.4,0.185576,0.185285,0.327784,8,0.0179724,11,6.07333e-05,-3.48441,-0.29781,-0.198113,-2.54486,0.185285,
2,1,0,1,0,9617.69,0.187074,0.186796,0.324775,8,0.0180757,11,6.06668e-05,-3.48842,-0.287685,-0.205085,-2.59461,0.186796,
2,1,0,1,0,9617.99,0.188571,0.188242,0.321654,8,0.018178,11,6.05489e-05,-3.49261,-0.336062,-0.175563,-2.20002,0.188242,
2,1,0,0,0,9618.29,0.19007,0.189771,0.318698,8,0.0182792,11,6.04795e-05,-3.49662,-0.410129,-0.143857,-1.78592,0.189771,
2,1,0,0,0,9618.59,0.191568,0.191234,0.315085,8,0.0183792,11,6.02549e-05,-3.50157,-0.348623,-0.169237,-2.08666,0.191234,
2,1,0,1,0,9618.89,0.193067,0.192749,0.312311,8,0.0184787,11,6.01974e-05,-3.50541,-0.481618,-0.122504,-1.48979,0.192749,
2,1,0,1,0,9619.19,0.194564,0.194237,0.310359,8,0.0185774,11,6.02833e-05,-3.50814,-0.454028,-0.129948,-1.57124,0.194237,
2,1,0,1,0,9619.49,0.196062,0.195782,0.307707,8,0.0186753,11,6.02434e-05,-3.51186,-0.333203,-0.177069,-2.13706,0.195782,
2,1,0,1,0,9619.79,0.197561,0.19725,0.304044,8,0.0187723,11,5.99726e-05,-3.51706,-0.523115,-0.112786,-1.34274,0.19725,
2,1,0,1,0,9620.09,0.199059,0.198756,0.303383,8,0.0188687,11,6.02993e-05,-3.51801,-0.495078,-0.119173,-1.41012,0.198756,
2,1,0,1,0,9620.39,0.200557,0.200208,0.30243,8,0.0189646,11,6.0549e-05,-3.51937,-0.538891,-0.109484,-1.2863,0.200208,
2,1,0,1,0,9620.69,0.202056,0.201768,0.299811,8,0.01906,11,6.04922e-05,-3.52315,-0.461122,-0.127949,-1.49027,0.201768,
2,1,0,1,0,9620.99,0.203553,0.203241,0.296296,8,0.0191546,11,6.02195e-05,-3.52827,-0.731475,-0.080659,-0.937244,0.203241,
2,1,0,1,0,9621.29,0.205051,0.204739,0.294696,8,0.0192487,11,6.03358e-05,-3.53063,-10.46,-0.00564054,-0.0656853,0.204739,
2,1,0,0,0,9621.59,0.20655,0.206224,0.294226,8,0.0193424,11,6.06763e-05,-3.53132,-0.584103,-0.10101,-1.16336,0.206224,
2,1,0,0,0,9621.89,0.208048,0.207771,0.293039,8,0.0194361,11,6.0885e-05,-3.53307,-0.678833,-0.0869138,-0.991958,0.207771,
2,1,0,1,0,9622.19,0.209547,0.209289,0.29206,8,0.019529,11,6.11248e-05,-3.53453,-0.52123,-0.113194,-1.29042,0.209289,
2,1,0,1,0,9622.49,0.211044,0.210736,0.290057,8,0.0196213,11,6.11253e-05,-3.53752,-0.898075,-0.0656961,-0.742908,0.210736,
2,1,0,1,0,9622.79,0.212542,0.212236,0.288836,8,0.0197133,11,6.13013e-05,-3.53935,-1.2186,-0.0484163,-0.544317,0.212236,
2,1,0,1,0,9623.09,0.214041,0.213775,0.288237,8,0.019805,11,6.16178e-05,-3.54025,-0.618357,-0.0954141,-1.06968,0.213775,
2,1,0,1,0,9623.39,0.215539,0.21525,0.286504,8,0.0198963,11,6.167e-05,-3.54287,-0.967444,-0.0609854,-0.681221,0.21525,
2,1,0,1,0,9623.69,0.217038,0.21673,0.284661,8,0.0199871,11,6.16945e-05,-3.54567,-1.08596,-0.0543298,-0.604493,0.21673,
2,1,0,1,0,9623.99,0.218535,0.218272,0.283409,8,0.0200777,11,6.18604e-05,-3.54759,-1.63173,-0.0361579,-0.398965,0.218272,
2,1,0,1,0,9624.29,0.220033,0.219775,0.283522,8,0.0201682,11,6.23113e-05,-3.54741,-1.2337,-0.0478234,-0.530164,0.219775,
2,1,0,0,0,9624.59,0.221532,0.221237,0.282067,8,0.0202583,11,6.24036e-05,-3.54965,-0.765182,-0.0771058,-0.850758,0.221237,
2,1,0,0,0,9624.89,0.22303,0.222711,0.280887,8,0.020348,11,6.25566e-05,-3.55147,-0.821747,-0.0717983,-0.786489,0.222711,
2,1,0,1,0,9625.19,0.224529,0.224226,0.280695,8,0.0204374,11,6.29391e-05,-3.55177,-1.07209,-0.0550325,-0.601055,0.224226,
2,1,0,1,0,9625.49,0.226026,0.225731,0.280505,8,0.0205266,11,6.33188e-05,-3.55206,-1.5965,-0.0369559,-0.401912,0.225731,
2,1,0,1,0,9625.79,0.227524,0.227192,0.278621,8,0.0206155,11,6.33004e-05,-3.55499,-0.618381,-0.0954104,-1.03493,0.227192,
2,1,0,1,0,9626.08,0.229023,0.228716,0.277078,8,0.0207042,11,6.33723e-05,-3.5574,-1.48259,-0.0397953,-0.433125,0.228716,
2,1,0,1,0,9626.38,0.230521,0.230265,0.276215,8,0.0207925,11,6.36028e-05,-3.55875,-2.29182,-0.0257437,-0.279351,0.230265,
2,1,0,1,0,9626.68,0.232019,0.231691,0.276393,8,0.0208807,11,6.40377e-05,-3.55847,-0.6793,-0.0868542,-0.939835,0.231691,
2,1,0,1,0,9626.98,0.233518,0.233209,0.276214,8,0.0209688,11,6.44157e-05,-3.55875,-0.772643,-0.0763613,-0.819305,0.233209,
2,1,0,1,0,9627.28,0.235015,0.234724,0.275434,8,0.0210567,11,6.46511e-05,-3.55998,-1.20615,-0.048916,-0.525239,0.234724,
2,1,0,1,0,9627.58,0.236513,0.236193,0.274995,8,0.0211441,11,6.49518e-05,-3.56068,-1.22817,-0.0480391,-0.515363,0.236193,
2,1,0,0,0,9627.88,0.238012,0.237713,0.274271,8,0.0212315,11,6.51976e-05,-3.56182,-1.23862,-0.0476335,-0.50837,0.237713,
2,1,0,0,0,9628.18,0.23951,0.239222,0.273232,8,0.0213188,11,6.5363e-05,-3.56347,-1.55958,-0.0378307,-0.403099,0.239222,
2,1,0,1,0,9628.48,0.241009,0.240695,0.27302,8,0.0214058,11,6.57145e-05,-3.56381,-2.30111,-0.0256398,-0.272851,0.240695,
2,1,0,1,0,9628.78,0.242506,0.242202,0.271741,8,0.0214925,11,6.58162e-05,-3.56585,-1.38046,-0.0427394,-0.453324,0.2422024,
2,1,0,1,0,9629.08,0.244004,0.243702,0.270577,8,0.0215792,11,6.59402e-05,-3.56771,2.02283,0.029167,0.308333,0.243702,
2,1,0,1,0,9629.38,0.245503,0.245248,0.271585,8,0.0216659,11,6.66056e-05,-3.56609,-2.27955,-0.0258823,-0.273719,0.245248,
2,1,0,1,0,9629.68,0.247001,0.246718,0.269656,8,0.0217523,11,6.65288e-05,-3.56919,-1.58579,-0.0372054,-0.391728,0.246718,
2,1,0,1,0,9629.98,0.2485,0.248206,0.267965,8,0.0218384,11,6.65105e-05,-3.57192,-1.08424,-0.0544159,-0.57045,0.248206,
2,1,0,1,0,9630.28,0.249997,0.249765,0.269454,8,0.0219243,11,6.73003e-05,-3.56951,-2.71594,-0.0217236,-0.227792,0.249765,
2,1,0,1,0,9630.58,0.251495,0.251189,0.269027,8,0.0220102,11,6.75766e-05,-3.5702,33.2052,0.00177683,0.0186099,0.251189,
2,1,0,0,0,9630.88,0.252994,0.252697,0.268179,8,0.022096,11,6.77681e-05,-3.57158,-0.600005,-0.0983325,-1.02657,0.252697,
2,1,0,0,0,9631.18,0.254492,0.254205,0.266722,8,0.0221816,11,6.78021e-05,-3.57394,-1.51123,-0.0390411,-0.408252,0.254205,
2,1,0,1,0,9631.48,0.255991,0.255657,0.26755,8,0.0222669,11,6.84011e-05,-3.57259,-3.23104,-0.0182604,-0.191169,0.255657,
2,1,0,1,0,9631.78,0.257488,0.257168,0.267243,8,0.0223522,11,6.87264e-05,-3.57309,-1.7223,-0.0342566,-0.357263,0.257168,
2,1,0,1,0,9632.08,0.258986,0.258703,0.267426,8,0.0224375,11,6.91838e-05,-3.5728,-77.2753,-0.000763504,-0.00794736,0.258703,
2,1,0,1,0,9632.38,0.260485,0.260174,0.266947,8,0.0225226,11,6.94528e-05,-3.57357,-4.57641,-0.0128922,-0.133614,0.260174,
2,1,0,1,0,9632.68,0.261983,0.261681,0.265653,8,0.0226074,11,6.95164e-05,-3.57568,-5.38809,-0.0109501,-0.113487,0.261681,
2,1,0,1,0,9632.98,0.263481,0.263151,0.265311,8,0.0226922,11,6.98167e-05,-3.57625,-1.72444,-0.034214,-0.353659,0.263151,
2,1,0,1,0,9633.28,0.26498,0.264704,0.265038,8,0.0227769,11,7.01568e-05,-3.57669,-1.67549,-0.0352137,-0.364976,0.264704,
2,1,0,1,0,9633.58,0.266477,0.266173,0.264109,8,0.0228615,11,7.02987e-05,-3.57822,-4.78114,-0.0123402,-0.127099,0.2661728,
2,1,0,0,0,9633.88,0.267976,0.267692,0.263016,8,0.0229458,11,7.04075e-05,-3.58002,-2.9202,-0.0202041,-0.208051,0.267692,
2,1,0,0,0,9634.18,0.269474,0.269188,0.262063,8,0.02303,11,7.05441e-05,-3.58159,6.16298,0.0095733,0.098184,0.2691876,
2,1,0,0,0,9634.47,0.270972,0.270701,0.264329,8,0.0231142,11,7.15541e-05,-3.57785,-1.77755,-0.0331917,-0.340057,0.270701,
2,1,0,1,0,9634.77,0.27247,0.272158,0.262616,8,0.0231985,11,7.1473e-05,-3.58068,-7.55533,-0.00780906,-0.0798427,0.272158,
2,1,0,1,0,9635.07,0.273968,0.273724,0.260063,8,0.0232824,11,7.11855e-05,-3.58492,-6.72426,-0.0087742,-0.0895693,0.273724,
2,1,0,1,0,9635.37,0.275466,0.275149,0.261462,8,0.0233661,11,7.19409e-05,-3.58259,9.70685,0.00607818,0.0620721,0.275149,
2,1,0,1,0,9635.67,0.276965,0.276684,0.26157,8,0.0234499,11,7.23721e-05,-3.58241,-3.59121,-0.016429,-0.16785,0.2766836,
2,1,0,1,0,9635.97,0.278463,0.278169,0.261115,8,0.0235335,11,7.2634e-05,-3.58317,-0.57457,-0.102685,-1.04577,0.278169,
2,1,0,1,0,9636.27,0.279962,0.279645,0.261121,8,0.0236171,11,7.30212e-05,-3.58316,53.9983,0.00109263,0.0111452,0.279645,
2,1,0,1,0,9636.57,0.281459,0.281158,0.26001,8,0.0237002,11,7.3104e-05,-3.58501,-18.2529,-0.00323237,-0.0329667,0.281158,
2,1,0,1,0,9636.87,0.282957,0.282645,0.26108,8,0.0237835,11,7.37929e-05,-3.58323,-38.8607,-0.00151824,-0.0154363,0.282645,
2,1,0,0,0,9637.17,0.284456,0.284161,0.260351,8,0.0238668,11,7.39814e-05,-3.58444,-1.65315,-0.0356893,-0.361479,0.284161,
2,1,0,0,0,9637.47,0.285954,0.285642,0.260478,8,0.0239499,11,7.44035e-05,-3.58423,13.8341,0.00426484,0.0430985,0.285642,
2,1,0,0,0,9637.77,0.287452,0.287124,0.259976,8,0.0240326,11,7.46454e-05,-3.58507,-6.33542,-0.00931272,-0.0942067,0.287124,
2,1,0,1,0,9638.07,0.28895,0.288693,0.257617,8,0.0241154,11,7.43723e-05,-3.58902,5.41425,0.0108972,0.109582,0.288693,
2,1,0,1,0,9638.37,0.290448,0.290155,0.258103,8,0.0241981,11,7.48898e-05,-3.58821,-3.55988,-0.0165736,-0.167222,0.290155,
2,1,0,1,0,9638.67,0.291947,0.291681,0.256827,8,0.0242807,11,7.49116e-05,-3.59036,-3.04093,-0.0194019,-0.195401,0.2916809,
2,1,0,1,0,9638.97,0.293445,0.293123,0.256608,8,0.0243631,11,7.52178e-05,-3.59073,-0.9431,-0.0625596,-0.628299,0.2931231,
2,1,0,1,0,9639.27,0.294943,0.294638,0.257067,8,0.0244454,11,7.57417e-05,-3.58995,-4.19255,-0.0140726,-0.140931,0.294638,
2,1,0,1,0,9639.57,0.296442,0.296187,0.258329,8,0.0245278,11,7.65137e-05,-3.58783,-0.964666,-0.0611611,-0.610996,0.296187,
2,1,0,1,0,9639.87,0.297939,0.297685,0.256619,8,0.02461,11,7.63916e-05,-3.59071,-1.47263,-0.0400643,-0.398541,0.297685,
2,1,0,1,0,9640.17,0.299437,0.299146,0.254836,8,0.024692,11,7.62332e-05,-3.59374,-0.00162048,-36.409,-135.188,0.299146,
2,1,0,1,0,9640.34,0.299737,0.299478,0.0596128,8,0.0247268,11,1.78527e-05,-4.22466,0.000603141,97.8212,214.506,0.299478,
2,1,0,1,0,9640.64,0.29824,0.297969,0.00485485,8,0.0247278,11,1.4466e-06,-5.31382,0.00314235,18.7758,71.6472,0.297969,
2,0,0,0,0,9640.94,0.296741,0.296473,-0.0103311,8,0.0247212,11,-3.0629e-06,-4.98585,-0.0116424,-5.06767,8.85316,0.296473,
2,0,0,0,0,9641.24,0.295243,0.294983,-0.0220748,8,0.0247106,11,-6.5117e-06,-4.6561,-0.00605555,-9.74312,6.174,0.294983,
2,0,0,1,0,9641.54,0.293744,0.293435,-0.030253,8,0.0246974,11,-8.87728e-06,-4.51923,-0.0125303,-4.7086,4.96584,0.293435,
2,0,0,1,0,9641.84,0.292246,0.291952,-0.0381161,8,0.0246821,11,-1.11281e-05,-4.41889,-0.0192213,-3.06951,4.30845,0.291952,
2,0,0,1,0,9642.14,0.290749,0.290453,-0.043843,8,0.0246646,11,-1.27343e-05,-4.3581,-0.0237778,-2.4813,4.11095,0.290453,
2,0,0,1,0,9642.44,0.28925,0.288913,-0.0493585,8,0.0246453,11,-1.42603e-05,-4.30664,-0.0337801,-1.74659,3.30751,0.288913,
2,0,0,1,0,9642.74,0.287752,0.287455,-0.0544634,8,0.0246245,11,-1.56558e-05,-4.2639,-0.0378039,-1.56069,3.26424,0.2874552,
2,0,0,1,0,9643.03,0.286253,0.285902,-0.0581774,8,0.0246024,11,-1.66331e-05,-4.23525,-0.0469875,-1.25565,2.86058,0.285902,
2,0,0,1,0,9643.33,0.284755,0.284429,-0.062816,8,0.0245789,11,-1.78667e-05,-4.20193,-0.0437376,-1.34895,3.26754,0.284429,
2,0,0,1,0,9643.63,0.283257,0.282973,-0.0675829,8,0.024554,11,-1.91242e-05,-4.17016,-0.0616669,-0.956753,2.48466,0.282973,
2,0,0,0,0,9643.93,0.281759,0.281485,-0.0705705,8,0.024528,11,-1.98645e-05,-4.15138,-0.0685715,-0.860415,2.35612,0.281485,
2,0,0,0,0,9644.23,0.280261,0.279952,-0.07263,8,0.0245011,11,-2.03329e-05,-4.13888,-0.0795864,-0.741332,2.13964,0.279952,
2,0,0,0,0,9644.53,0.278763,0.278436,-0.0783702,8,0.0244731,11,-2.18211e-05,-4.10585,-0.0827476,-0.713012,2.14666,0.278436,
2,0,0,1,0,9644.83,0.277264,0.276978,-0.0806499,8,0.024444,11,-2.23383e-05,-4.0934,-0.102398,-0.576182,1.80394,0.276978,
2,0,0,1,0,9645.13,0.275766,0.275453,-0.0833681,8,0.0244139,11,-2.2964e-05,-4.079,-0.101355,-0.582111,1.88644,0.275453,
2,0,0,1,0,9645.43,0.274269,0.273945,-0.0866015,8,0.0243829,11,-2.37241e-05,-4.06247,-0.0943987,-0.625009,2.13477,0.273945,
2,0,0,1,0,9645.73,0.27277,0.272448,-0.0897903,8,0.0243512,11,-2.44632e-05,-4.04677,-0.0935816,-0.630466,2.22369,0.272448,
2,0,0,1,0,9646.03,0.271272,0.27096,-0.0920792,8,0.0243186,11,-2.49497e-05,-4.03584,-0.0997203,-0.591655,2.14746,0.27096,
2,0,0,1,0,9646.33,0.269773,0.269458,-0.0962441,8,0.0242849,11,-2.59337e-05,-4.01663,-0.120335,-0.4903,1.8119,0.269458,
2,0,0,1,0,9646.63,0.268275,0.267966,-0.0999599,8,0.0242504,11,-2.67858e-05,-4.00017,-0.125691,-0.469405,1.79477,0.267966,
2,0,0,1,0,9646.93,0.266778,0.266499,-0.101667,8,0.0242155,11,-2.7094e-05,-3.99282,-0.159442,-0.370041,1.45446,0.266499,
2,0,0,0,0,9647.23,0.265279,0.265018,-0.103879,8,0.0241796,11,-2.75298e-05,-3.98347,-0.112594,-0.524005,2.09741,0.265018,
2,0,0,0,0,9647.53,0.263781,0.263489,-0.105622,8,0.0241429,11,-2.78302e-05,-3.97625,-0.154299,-0.382374,1.58504,0.263489,
2,0,0,1,0,9647.83,0.262282,0.262,-0.10735,8,0.0241056,11,-2.81257e-05,-3.9692,-0.193715,-0.304571,1.29614,0.262,
2,0,0,1,0,9648.13,0.260784,0.260475,-0.110235,8,0.0240677,11,-2.87136e-05,-3.95768,-0.171708,-0.343608,1.48921,0.260475,
2,0,0,1,0,9648.43,0.259286,0.258986,-0.113418,8,0.0240289,11,-2.93736e-05,-3.94532,-0.142337,-0.414509,1.81357,0.258986,
2,0,0,1,0,9648.73,0.257788,0.257542,-0.116785,8,0.0239893,11,-3.00771e-05,-3.93261,-0.149982,-0.393382,1.76301,0.257542,
2,0,0,1,0,9649.03,0.25629,0.25601,-0.117816,8,0.0239491,11,-3.01621e-05,-3.9288,-0.198021,-0.297949,1.35546,0.25601,
2,0,0,1,0,9649.33,0.254791,0.254506,-0.118152,8,0.0239083,11,-3.00703e-05,-3.92756,-0.185411,-0.318213,1.47993,0.254506,
2,0,0,1,0,9649.63,0.253293,0.252977,-0.120847,8,0.0238669,11,-3.05715e-05,-3.91776,-0.180341,-0.327159,1.55525,0.252977,
2,0,0,1,0,9649.93,0.251795,0.251495,-0.123967,8,0.0238248,11,-3.11771e-05,-3.90669,-0.204698,-0.288229,1.39258,0.251495,
2,0,0,0,0,9650.23,0.250297,0.249989,-0.125534,8,0.023782,11,-3.1382e-05,-3.90124,-0.232346,-0.253932,1.24268,0.249989,
2,0,0,0,0,9650.53,0.248799,0.248495,-0.12815,8,0.0237385,11,-3.18446e-05,-3.89228,-0.208166,-0.283428,1.42033,0.248495,
2,0,0,0,0,9650.83,0.247301,0.24698,-0.130523,8,0.0236946,11,-3.22365e-05,-3.88431,-0.189572,-0.311227,1.5898,0.24698,
2,0,0,1,0,9651.13,0.245802,0.245565,-0.132581,8,0.02365,11,-3.25572e-05,-3.87752,-0.224207,-0.263149,1.35,0.245565,
2,0,0,1,0,9651.42,0.244304,0.244015,-0.135316,8,0.0236046,11,-3.30192e-05,-3.86865,-0.184337,-0.320066,1.67491,0.244015,
2,0,0,1,0,9651.72,0.242806,0.242535,-0.136687,8,0.0235587,11,-3.31513e-05,-3.86427,-0.223624,-0.263835,1.40205,0.242535,
2,0,0,1,0,9652.02,0.241308,0.241016,-0.138483,8,0.0235123,11,-3.33767e-05,-3.8586,-0.285753,-0.206472,1.11392,0.241016,
2,0,0,1,0,9652.32,0.23981,0.239518,-0.140506,8,0.0234653,11,-3.36537e-05,-3.85231,-0.166097,-0.355214,1.94336,0.239518,
2,0,0,1,0,9652.62,0.238311,0.238018,-0.142317,8,0.0234175,11,-3.3874e-05,-3.84674,-0.295694,-0.199531,1.11453,0.238018,
2,0,0,1,0,9652.92,0.236813,0.236483,-0.144373,8,0.0233693,11,-3.41416e-05,-3.84052,-0.292424,-0.201762,1.14042,0.236483,
2,0,0,1,0,9653.22,0.235316,0.235006,-0.145402,8,0.0233205,11,-3.41704e-05,-3.83743,-0.28567,-0.206532,1.17947,0.235006,
2,0,0,0,0,9653.52,0.233817,0.23352,-0.148578,8,0.0232711,11,-3.46959e-05,-3.82805,-0.269037,-0.2193,1.26745,0.23352,
2,0,0,0,0,9653.82,0.232319,0.231992,-0.150852,8,0.023221,11,-3.49963e-05,-3.82145,-0.24979,-0.236198,1.37954,0.231992,
2,0,0,1,0,9654.12,0.23082,0.230564,-0.151932,8,0.0231702,11,-3.503e-05,-3.81835,-0.262528,-0.224738,1.33198,0.230564,
2,0,0,1,0,9654.42,0.229322,0.229037,-0.152767,8,0.023119,11,-3.49893e-05,-3.81597,-0.31182,-0.189212,1.13872,0.2290373,
2,0,0,1,0,9654.72,0.227825,0.227556,-0.156803,8,0.0230673,11,-3.56816e-05,-3.80464,-0.24359,-0.242211,1.47464,0.227556,
2,0,0,1,0,9655.02,0.226326,0.226044,-0.157595,8,0.0230148,11,-3.56234e-05,-3.80246,-0.278872,-0.211566,1.30674,0.226044,
2,0,0,1,0,9655.32,0.224828,0.224501,-0.159856,8,0.0229618,11,-3.58877e-05,-3.79627,-0.316675,-0.186311,1.15917,0.224501,
2,0,0,1,0,9655.62,0.223329,0.22301,-0.162846,8,0.022908,11,-3.63162e-05,-3.78822,-0.246407,-0.239441,1.51322,0.22301,
2,0,0,1,0,9655.92,0.221831,0.221531,-0.165437,8,0.0228539,11,-3.66493e-05,-3.78137,-0.261962,-0.225223,1.44169,0.221531,
2,0,0,1,0,9656.22,0.220333,0.220042,-0.167199,8,0.022799,11,-3.67908e-05,-3.77677,-0.282737,-0.208674,1.35217,0.220042,
2,0,0,0,0,9656.52,0.218835,0.218528,-0.168781,8,0.0227433,11,-3.68834e-05,-3.77268,-0.215549,-0.273719,1.80124,0.218528,
2,0,0,0,0,9656.82,0.217337,0.217053,-0.170947,8,0.0226871,11,-3.71045e-05,-3.76714,-0.361882,-0.163036,1.08528,0.217053,
2,0,0,0,0,9657.12,0.215839,0.215527,-0.172103,8,0.0226304,11,-3.70928e-05,-3.76421,-0.303875,-0.194159,1.31516,0.215527,
2,0,0,1,0,9657.42,0.21434,0.214033,-0.174288,8,0.0225729,11,-3.73034e-05,-3.75873,-0.192143,-0.307063,2.07782,0.214033,
2,0,0,1,0,9657.72,0.212842,0.21255,-0.177407,8,0.0225148,11,-3.77079e-05,-3.75103,-0.266024,-0.221784,1.54018,0.2125504,
2,0,0,1,0,9658.02,0.211344,0.21104,-0.179904,8,0.0224559,11,-3.7967e-05,-3.74496,-0.317232,-0.185984,1.30373,0.2110402,
2,0,0,1,0,9658.32,0.209846,0.209598,-0.179313,8,0.0223965,11,-3.75837e-05,-3.74639,-0.271553,-0.217269,1.53832,0.209598,
2,0,0,1,0,9658.62,0.208348,0.208012,-0.18479,8,0.0223364,11,-3.84385e-05,-3.73332,-0.248465,-0.237458,1.69917,0.208012,
2,0,0,1,0,9658.92,0.206849,0.206556,-0.190839,8,0.0222753,11,-3.94191e-05,-3.71933,-0.283389,-0.208194,1.51404,0.206556,
2,0,0,1,0,9659.22,0.205351,0.205045,-0.188677,8,0.0222134,11,-3.86872e-05,-3.72428,-0.314077,-0.187852,1.3813,0.205045,
2,0,0,1,0,9659.51,0.203854,0.203516,-0.191082,8,0.022151,11,-3.88882e-05,-3.71878,-0.226103,-0.260943,1.96076,0.203516,
2,0,0,0,0,9659.81,0.202355,0.202032,-0.193345,8,0.022088,11,-3.90619e-05,-3.71367,-0.312315,-0.188912,1.43771,0.202032,
2,0,0,0,0,9660.11,0.200857,0.200555,-0.197238,8,0.022024,11,-3.9557e-05,-3.70501,-0.218126,-0.270486,2.08717,0.200555,
2,0,0,1,0,9660.41,0.199358,0.19908,-0.200181,8,0.0219591,11,-3.9852e-05,-3.69858,-0.273101,-0.216037,1.68238,0.19908,
2,0,0,1,0,9660.71,0.19786,0.197505,-0.203131,8,0.0218934,11,-4.01194e-05,-3.69222,-0.240159,-0.245671,1.94565,0.197505,
2,0,0,1,0,9661.01,0.196363,0.196035,-0.205825,8,0.0218271,11,-4.03489e-05,-3.6865,-0.24157,-0.244235,1.95705,0.1960348,
2,0,0,1,0,9661.31,0.194864,0.194554,-0.208828,8,0.0217595,11,-4.06284e-05,-3.68021,-0.208385,-0.28313,2.29546,0.194554,
2,0,0,1,0,9661.61,0.193366,0.193038,-0.212742,8,0.0216909,11,-4.10673e-05,-3.67215,-0.225261,-0.261918,2.16496,0.193038,
2,0,0,1,0,9661.91,0.191867,0.1916,-0.215823,8,0.0216214,11,-4.13518e-05,-3.6659,-0.29484,-0.200109,1.69288,0.1916,
2,0,0,1,0,9662.21,0.190369,0.190042,-0.217702,8,0.0215511,11,-4.13725e-05,-3.66214,-0.182151,-0.323907,2.77105,0.190042,
2,0,0,1,0,9662.51,0.188871,0.188593,-0.223057,8,0.0214795,11,-4.20669e-05,-3.65158,-0.164135,-0.35946,3.12404,0.188593,
2,0,0,0,0,9662.81,0.187373,0.187069,-0.226273,8,0.0214066,11,-4.23287e-05,-3.64537,-0.187006,-0.315498,2.80095,0.187069,
2,0,0,0,0,9663.11,0.185875,0.185559,-0.231441,8,0.0213326,11,-4.29458e-05,-3.63556,-0.187228,-0.315124,2.84509,0.185559,
2,0,0,0,0,9663.41,0.184377,0.184077,-0.234061,8,0.0212573,11,-4.30852e-05,-3.63067,-0.181694,-0.324722,2.98931,0.184077,
2,0,0,1,0,9663.71,0.182878,0.182599,-0.241395,8,0.0211806,11,-4.40784e-05,-3.61727,-0.161795,-0.364659,3.43191,0.182599,
2,0,0,1,0,9664.01,0.181381,0.181094,-0.246295,8,0.0211023,11,-4.46026e-05,-3.60854,-0.164497,-0.358669,3.44524,0.181094,
2,0,0,1,0,9664.31,0.179882,0.179615,-0.251292,8,0.0210224,11,-4.51358e-05,-3.59982,-0.188571,-0.31288,3.06423,0.179615,
2,0,0,1,0,9664.61,0.178384,0.178074,-0.256465,8,0.0209409,11,-4.56699e-05,-3.59097,-0.154499,-0.381879,3.84713,0.1780743,
2,0,0,1,0,9664.91,0.176886,0.176538,-0.263144,8,0.0208579,11,-4.64548e-05,-3.57981,-0.137153,-0.430177,4.44498,0.176538,
2,0,0,1,0,9665.21,0.175387,0.175051,-0.270397,8,0.0207725,11,-4.73332e-05,-3.568,-0.134869,-0.437462,4.62062,0.175051,
2,0,0,1,0,9665.51,0.173889,0.173572,-0.278467,8,0.0206851,11,-4.83342e-05,-3.55523,-0.128062,-0.460714,4.98748,0.173572,
2,0,0,1,0,9665.81,0.172392,0.172114,-0.285161,8,0.0205954,11,-4.90802e-05,-3.54491,-0.121044,-0.487426,5.428,0.172114,
2,0,0,0,0,9666.11,0.170893,0.170608,-0.293279,8,0.0205035,11,-5.00358e-05,-3.53272,-0.112827,-0.522925,6.00419,0.170608,
2,0,0,0,0,9666.41,0.169395,0.169115,-0.30427,8,0.0204086,11,-5.14566e-05,-3.51674,-0.092776,-0.635941,7.53081,0.169115,
2,0,0,1,0,9666.71,0.167896,0.167565,-0.313956,8,0.0203106,11,-5.26081e-05,-3.50313,-0.0914292,-0.645308,7.9214,0.167565,
2,0,0,1,0,9667.01,0.166398,0.166106,-0.324744,8,0.0202094,11,-5.39417e-05,-3.48846,-0.0958236,-0.615715,7.86119,0.166106,
2,0,0,1,0,9667.31,0.164901,0.164588,-0.336832,8,0.0201048,11,-5.54386e-05,-3.47259,-0.0856816,-0.688596,9.12393,0.1645882,
2,0,0,1,0,9667.61,0.163402,0.163071,-0.352132,8,0.0199961,11,-5.74224e-05,-3.45329,-0.0795511,-0.741661,10.1758,0.1630706,
2,0,0,1,0,9667.9,0.161904,0.161599,-0.368308,8,0.0198829,11,-5.95182e-05,-3.43379,-0.0806607,-0.731459,10.4902,0.161599,
2,0,0,1,0,9668.2,0.160405,0.160132,-0.384756,8,0.0197649,11,-6.16116e-05,-3.41481,-0.0784798,-0.751786,11.2607,0.160132,
2,0,0,1,0,9668.5,0.158907,0.158603,-0.401742,8,0.0196418,11,-6.37174e-05,-3.39605,-0.0715224,-0.824916,13.0212,0.158603,
2,0,0,1,0,9668.8,0.157409,0.157111,-0.422604,8,0.0195129,11,-6.63959e-05,-3.37407,-0.0651777,-0.905218,15.0408,0.1571112,
2,0,0,0,0,9669.1,0.155911,0.155613,-0.446547,8,0.0193772,11,-6.94885e-05,-3.35013,-0.066738,-0.884054,15.4595,0.155613,
2,0,0,0,0,9669.4,0.154413,0.154102,-0.470218,8,0.0192342,11,-7.24614e-05,-3.3277,-0.0689036,-0.856269,15.704,0.154102,
2,0,0,0,0,9669.7,0.152915,0.152613,-0.496832,8,0.019084,11,-7.58229e-05,-3.30379,-0.0662509,-0.890554,17.2748,0.152613,
2,0,0,1,0,9670,0.151416,0.15109,-0.52426,8,0.018926,11,-7.92104e-05,-3.28045,-0.063756,-0.925403,18.9024,0.15109,
2,0,0,1,0,9670.3,0.149919,0.149585,-0.55395,8,0.0187593,11,-8.28628e-05,-3.25653,-0.0628641,-0.938533,20.266,0.149585,
2,0,0,1,0,9670.6,0.14842,0.14815,-0.583335,8,0.0185835,11,-8.64209e-05,-3.23408,-0.0652177,-0.904662,20.529,0.14815,
2,0,0,1,0,9670.9,0.146922,0.146663,-0.612974,8,0.0183986,11,-8.99005e-05,-3.21256,-0.070668,-0.83489,19.9568,0.146663,
2,0,0,1,0,9671.2,0.145424,0.145126,-0.643727,8,0.0182051,11,-9.34218e-05,-3.1913,-0.0762045,-0.774233,19.4043,0.1451264,
2,0,0,1,0,9671.5,0.143925,0.143604,-0.67239,8,0.0180024,11,-9.65582e-05,-3.17238,-0.0763941,-0.772311,20.1983,0.143604,
2,0,0,1,0,9671.8,0.142427,0.142111,-0.702489,8,0.0177907,11,-9.98313e-05,-3.15336,-0.0875441,-0.673946,18.4005,0.142111,
2,0,0,1,0,9672.1,0.14093,0.140641,-0.726469,8,0.0175709,11,-0.000102172,-3.13878,-0.105757,-0.557884,15.8156,0.140641,
2,0,0,0,0,9672.4,0.139431,0.139131,-0.746599,8,0.0173442,11,-0.000103875,-3.12691,-0.11731,-0.502943,14.6764,0.139131,
2,0,0,0,0,9672.7,0.137933,0.137629,-0.771681,8,0.0171111,11,-0.000106206,-3.11256,-0.134217,-0.439587,13.1638,0.137629,
2,0,0,1,0,9673,0.136434,0.136135,-0.790064,8,0.0168715,11,-0.000107555,-3.10234,-0.167547,-0.35214,10.7995,0.136135,
2,0,0,1,0,9673.3,0.134936,0.134621,-0.804627,8,0.0166273,11,-0.00010832,-3.09441,-0.2372,-0.248735,7.76648,0.1346209,
2,0,0,1,0,9673.6,0.133439,0.133147,-0.813474,8,0.0163794,11,-0.000108312,-3.08966,-0.288498,-0.204507,6.48766,0.133147,
2,0,0,1,0,9673.9,0.13194,0.131628,-0.82258,8,0.0161288,11,-0.000108275,-3.08482,-0.381818,-0.154524,4.9641,0.131628,
2,0,0,1,0,9674.2,0.130442,0.130152,-0.828363,8,0.0158759,11,-0.000107813,-3.08178,-0.631446,-0.0934363,3.01643,0.130152,
2,0,0,1,0,9674.5,0.128943,0.128605,-0.832617,8,0.0156215,11,-0.000107078,-3.07955,4.94873,0.0119223,-0.384586,0.128605,
2,0,0,1,0,9674.8,0.127445,0.127192,-0.831714,8,0.015367,11,-0.000105787,-3.08003,1.72412,0.0342204,-1.10582,0.127192,
2,0,0,1,0,9675.1,0.125947,0.125672,-0.828138,8,0.0151139,11,-0.000104074,-3.0819,0.9702,0.0608122,-1.96072,0.1256724,
2,0,0,0,0,9675.4,0.124449,0.124113,-0.823357,8,0.014861,11,-0.00010219,-3.08441,0.820558,0.0719023,-2.30306,0.124113,
2,0,0,0,0,9675.7,0.122951,0.12268,-0.819889,8,0.0146094,11,-0.000100584,-3.08624,0.421906,0.139841,-4.46087,0.12268,
2,0,0,0,0,9676,0.121453,0.121138,-0.811101,8,0.0143597,11,-9.8255e-05,-3.09093,0.354354,0.1665,-5.26218,0.121138,
2,0,0,1,0,9676.29,0.119954,0.119656,-0.800583,8,0.0141129,11,-9.57947e-05,-3.09659,0.351087,0.16805,-5.26606,0.1196562,
2,0,0,1,0,9676.59,0.118456,0.118142,-0.793346,8,0.0138685,11,-9.37276e-05,-3.10054,0.404376,0.145904,-4.50989,0.118142,
2,0,0,1,0,9676.89,0.116958,0.116587,-0.786552,8,0.0136262,11,-9.17015e-05,-3.10427,0.29179,0.2022,-6.18819,0.116587,
2,0,0,1,0,9677.19,0.11546,0.115104,-0.773693,8,0.0133869,11,-8.90553e-05,-3.11143,0.239641,0.246202,-7.43066,0.115104,
2,0,0,1,0,9677.49,0.113962,0.113662,-0.758513,8,0.0131514,11,-8.62142e-05,-3.12004,0.248017,0.237887,-7.08342,0.113662,
2,0,0,1,0,9677.79,0.112463,0.112152,-0.753412,8,0.0129193,11,-8.44963e-05,-3.12297,0.232962,0.25326,-7.43058,0.112152,
2,0,0,1,0,9678.09,0.110965,0.110601,-0.74173,8,0.0126901,11,-8.2036e-05,-3.12975,0.227215,0.259666,-7.50691,0.110601,
2,0,0,1,0,9678.39,0.109468,0.109163,-0.729917,8,0.0124643,11,-7.96801e-05,-3.13673,0.199387,0.295907,-8.4015,0.109163,
2,0,0,0,0,9678.69,0.107969,0.107658,-0.717169,8,0.0122421,11,-7.72089e-05,-3.14438,0.2008,0.293824,-8.23089,0.107658,
2,0,0,0,0,9678.99,0.106471,0.106189,-0.705788,8,0.0120239,11,-7.49471e-05,-3.15133,0.235535,0.250494,-6.91735,0.106189,
2,0,0,1,0,9679.29,0.104972,0.104681,-0.695718,8,0.0118087,11,-7.28287e-05,-3.15757,0.217022,0.271862,-7.37201,0.104681,
2,0,0,1,0,9679.59,0.103474,0.103173,-0.683964,8,0.0115965,11,-7.05663e-05,-3.16497,0.201015,0.29351,-7.80785,0.103173,
2,0,0,1,0,9679.89,0.101977,0.101707,-0.672708,8,0.0113881,11,-6.84193e-05,-3.17217,0.212212,0.278023,-7.29885,0.101707,
2,0,0,1,0,9680.19,0.100478,0.100158,-0.661414,8,0.0111834,11,-6.62457e-05,-3.17953,0.232393,0.25388,-6.56551,0.100158,
2,0,0,1,0,9680.49,0.0989799,0.0986477,-0.652915,8,0.0109813,11,-6.44086e-05,-3.18514,0.253694,0.232563,-5.91657,0.0986477,
2,0,0,1,0,9680.79,0.0974812,0.0971701,-0.643295,8,0.0107817,11,-6.2509e-05,-3.19159,0.253489,0.232751,-5.84642,0.0971701,
2,0,0,1,0,9681.09,0.0959834,0.0956977,-0.634638,8,0.0105852,11,-6.07334e-05,-3.19747,0.239466,0.246382,-6.11055,0.0956977,
2,0,0,1,0,9681.39,0.0944855,0.0941657,-0.623331,8,0.0103915,11,-5.86964e-05,-3.20528,0.290862,0.202845,-4.96527,0.0941657,
2,0,0,0,0,9681.69,0.0929871,0.0926776,-0.619866,8,0.0101999,11,-5.74478e-05,-3.2077,0.34263,0.172198,-4.15325,0.0926776,
2,0,0,0,0,9681.99,0.0914889,0.09114,-0.614411,8,0.0100099,11,-5.59974e-05,-3.21154,0.32818,0.179779,-4.29389,0.09114,
2,0,0,0,0,9682.29,0.0899907,0.0896746,-0.605761,8,0.00982217,11,-5.43213e-05,-3.2177,0.302736,0.194889,-4.6019,0.0896746,
2,0,0,1,0,9682.59,0.0884923,0.0881653,-0.596856,8,0.00963648,11,-5.2622e-05,-3.22413,0.359799,0.16398,-3.83583,0.0881653,
2,0,0,1,0,9682.89,0.0869946,0.0866846,-0.593093,8,0.00945289,11,-5.1412e-05,-3.22688,0.355089,0.166156,-3.8549,0.0866846,
2,0,0,1,0,9683.19,0.0854962,0.0852018,-0.587554,8,0.00927047,11,-5.00606e-05,-3.23095,0.410024,0.143894,-3.30535,0.08520177,
2,0,0,1,0,9683.49,0.083998,0.0837119,-0.581116,8,0.00908963,11,-4.86463e-05,-3.23574,0.325843,0.181069,-4.11505,0.0837119,
2,0,0,1,0,9683.79,0.0824998,0.0821764,-0.57722,8,0.00891033,11,-4.74338e-05,-3.23866,0.360643,0.163597,-3.69919,0.0821764,
2,0,0,1,0,9684.09,0.0810014,0.0806864,-0.573147,8,0.00873292,11,-4.62452e-05,-3.24173,0.474838,0.124253,-2.7876,0.0806864,
2,0,0,1,0,9684.38,0.0795035,0.0791809,-0.57016,8,0.00855647,11,-4.51458e-05,-3.244,0.460358,0.128161,-2.84166,0.0791809,
2,0,0,1,0,9684.68,0.0780056,0.0776766,-0.565729,8,0.00838114,11,-4.39439e-05,-3.24739,0.407198,0.144893,-3.19384,0.0776766,
2,0,0,0,0,9684.98,0.076507,0.0762074,-0.560654,8,0.00820723,11,-4.2726e-05,-3.2513,0.453292,0.130159,-2.84837,0.0762074,
2,0,0,0,0,9685.28,0.0750088,0.07469,-0.555543,8,0.00803533,11,-4.14935e-05,-3.25528,0.40153,0.146938,-3.18842,0.07469,
2,0,0,1,0,9685.58,0.0735103,0.0732443,-0.550743,8,0.00786422,11,-4.03388e-05,-3.25905,0.615977,0.0957828,-2.05461,0.0732443,
2,0,0,1,0,9685.88,0.0720124,0.0717081,-0.546399,8,0.00769449,11,-3.91813e-05,-3.26249,0.394769,0.149454,-3.18976,0.0717081,
2,0,0,1,0,9686.18,0.0705146,0.070208,-0.54152,8,0.00752615,11,-3.80191e-05,-3.26639,0.406727,0.14506,-3.06946,0.070208,
2,0,0,1,0,9686.48,0.0690161,0.0687347,-0.533191,8,0.00735964,11,-3.66487e-05,-3.27312,0.350375,0.168391,-3.52855,0.0687347,
2,0,0,1,0,9686.78,0.0675179,0.0672204,-0.532102,8,0.00719448,11,-3.57681e-05,-3.27401,0.452173,0.130481,-2.70339,0.0672204,
2,0,0,1,0,9687.08,0.0660192,0.0656834,-0.529848,8,0.00703062,11,-3.48022e-05,-3.27585,0.335728,0.175738,-3.59977,0.0656834,
2,0,0,1,0,9687.38,0.0645214,0.06423,-0.522871,8,0.00686814,11,-3.3584e-05,-3.28161,0.323626,0.182309,-3.70089,0.06423,
2,0,0,1,0,9687.68,0.0630235,0.0627585,-0.513667,8,0.00670774,11,-3.2237e-05,-3.28932,0.30881,0.191056,-3.84139,0.0627585,
2,0,0,0,0,9687.98,0.0615251,0.0611973,-0.510728,8,0.00654902,11,-3.12552e-05,-3.29181,0.321228,0.18367,-3.65955,0.0611973,
2,0,0,0,0,9688.28,0.0600269,0.0597435,-0.503828,8,0.00639178,11,-3.01004e-05,-3.29772,0.320155,0.184286,-3.63391,0.05974352,
2,0,0,0,0,9688.58,0.0585287,0.0582028,-0.498316,8,0.00623628,11,-2.90034e-05,-3.3025,0.222334,0.265367,-5.1566,0.0582028,
2,0,0,1,0,9688.88,0.0570303,0.0567126,-0.493677,8,0.00608232,11,-2.79977e-05,-3.30656,0.295792,0.199464,-3.83845,0.0567126,
2,0,0,1,0,9689.18,0.0555325,0.0552158,-0.486327,8,0.00593065,11,-2.68529e-05,-3.31307,0.347049,0.170005,-3.23879,0.0552158,
2,0,0,1,0,9689.48,0.0540342,0.0537851,-0.48088,8,0.00578036,11,-2.58642e-05,-3.31796,0.294065,0.200636,-3.7585,0.0537851,
2,0,0,1,0,9689.78,0.052536,0.0522221,-0.476697,8,0.00563134,11,-2.48941e-05,-3.32176,0.319517,0.184654,-3.42441,0.0522221,
2,0,0,1,0,9690.08,0.0510378,0.0507237,-0.470294,8,0.00548449,11,-2.3855e-05,-3.32763,0.276688,0.213237,-3.91047,0.0507237,
2,0,0,1,0,9690.38,0.0495394,0.0492388,-0.464737,8,0.00533963,11,-2.28831e-05,-3.33279,0.283866,0.207844,-3.76557,0.04923882,
2,0,0,1,0,9690.68,0.0480415,0.0477324,-0.45862,8,0.0051961,11,-2.1891e-05,-3.33855,0.415979,0.141834,-2.52919,0.0477324,
2,0,0,1,0,9690.98,0.0465436,0.0462184,-0.454389,8,0.00505415,11,-2.10011e-05,-3.34257,0.288353,0.20461,-3.62772,0.0462184,
2,0,0,0,0,9691.28,0.045045,0.0447504,-0.448352,8,0.00491356,11,-2.00639e-05,-3.34838,0.364932,0.161674,-2.83518,0.0447504,
2,0,0,0,0,9691.58,0.0435468,0.0432775,-0.440308,8,0.00477485,11,-1.90554e-05,-3.35624,0.299242,0.197165,-3.41867,0.0432775,
2,0,0,1,0,9691.88,0.0420483,0.041746,-0.44053,8,0.0046373,11,-1.83904e-05,-3.35602,0.357934,0.164835,-2.8232,0.041746,
2,0,0,1,0,9692.18,0.0405504,0.0402099,-0.437473,8,0.00450087,11,-1.75907e-05,-3.35905,0.390179,0.151213,-2.56199,0.0402099,
2,0,0,1,0,9692.48,0.0390526,0.0387393,-0.432177,8,0.00436566,11,-1.67422e-05,-3.36434,0.335609,0.1758,-2.95513,0.0387393,
2,0,0,1,0,9692.77,0.0375541,0.0372078,-0.424506,8,0.00423177,11,-1.57949e-05,-3.37212,0.358012,0.164799,-2.75308,0.0372078,
2,0,0,1,0,9693.07,0.0360559,0.0357518,-0.423693,8,0.00409913,11,-1.51478e-05,-3.37295,0.399736,0.147597,-2.45132,0.0357518,
2,0,0,1,0,9693.37,0.0345572,0.0342838,-0.420583,8,0.00396715,11,-1.44192e-05,-3.37615,0.527515,0.111845,-1.84238,0.03428375,
2,0,0,1,0,9693.67,0.0330594,0.0327508,-0.418931,8,0.00383603,11,-1.37203e-05,-3.37786,0.406092,0.145287,-2.37377,0.0327508,
2,0,0,1,0,9693.97,0.0315615,0.0312294,-0.417099,8,0.00370566,11,-1.30257e-05,-3.37976,0.594303,0.099276,-1.61386,0.03122939,
2,0,0,0,0,9694.27,0.0300631,0.0297351,-0.414254,8,0.00357634,11,-1.23179e-05,-3.38273,0.7738,0.0762471,-1.23121,0.0297351,
2,0,0,0,0,9694.57,0.0285649,0.0282972,-0.412169,8,0.00344725,11,-1.16632e-05,-3.38493,1.25096,0.0471638,-0.758349,0.0282972,
2,0,0,0,0,9694.87,0.0270667,0.0267458,-0.411681,8,0.00331859,11,-1.10107e-05,-3.38544,1.14737,0.0514221,-0.82568,0.0267458,
2,0,0,1,0,9695.17,0.0255683,0.02528,-0.409923,8,0.0031904,11,-1.03628e-05,-3.3873,1.07661,0.0548017,-0.876,0.02528,
2,0,0,1,0,9695.47,0.0240706,0.0237747,-0.40733,8,0.00306297,11,-9.68414e-06,-3.39005,5.93611,0.00993918,-0.158753,0.0237747,
2,0,0,1,0,9695.77,0.0225722,0.0223122,-0.407273,8,0.00293549,11,-9.08718e-06,-3.39011,-2.332,-0.0253002,0.401817,0.0223122,
2,0,0,1,0,9696.07,0.021074,0.0207959,-0.407446,8,0.00280812,11,-8.47319e-06,-3.38993,2.92808,0.0201497,-0.320725,0.0207959,
2,0,0,1,0,9696.37,0.0195758,0.0192402,-0.407811,8,0.00268082,11,-7.84639e-06,-3.38954,42.052,0.00140303,-0.0222893,0.0192402,
2,0,0,1,0,9696.67,0.0180774,0.0177108,-0.404677,8,0.00255373,11,-7.16715e-06,-3.39289,8.86903,0.00665236,-0.105579,0.0177108,
2,0,0,1,0,9696.97,0.0165795,0.016248,-0.407811,8,0.00242668,11,-6.6261e-06,-3.38954,-2.56832,-0.0229722,0.365661,0.016248,
2,0,0,1,0,9697.27,0.0150817,0.0147828,-0.409403,8,0.00229927,11,-6.05211e-06,-3.38785,-2.39015,-0.0246847,0.392849,0.0147828,
2,0,0,0,0,9697.57,0.013583,0.0132839,-0.408797,8,0.00217148,11,-5.43043e-06,-3.38849,2.21088,0.0266862,-0.424145,0.0132839,
2,0,0,0,0,9697.87,0.0120848,0.0117919,-0.408225,8,0.00204384,11,-4.81377e-06,-3.3891,-1.61007,-0.0366443,0.586203,0.0117919,
2,0,0,1,0,9698.17,0.0105863,0.0102792,-0.409651,8,0.0019161,11,-4.21088e-06,-3.38759,-1.20029,-0.0491549,0.787872,0.0102792,
2,0,0,1,0,9698.47,0.00908846,0.00876766,-0.410262,8,0.00178775,11,-3.59704e-06,-3.38694,-0.989558,-0.0596226,0.95858,0.00876766,
2,0,0,1,0,9698.77,0.0075906,0.00726743,-0.413184,8,0.00165903,11,-3.00278e-06,-3.38386,-1.51067,-0.0390555,0.628759,0.00726743,
2,0,0,1,0,9699.07,0.00609208,0.00580595,-0.414349,8,0.00152985,11,-2.40569e-06,-3.38263,-0.797552,-0.0739763,1.194,0.00580595,
2,0,0,1,0,9699.37,0.00459389,0.00429275,-0.415931,8,0.00140065,11,-1.78548e-06,-3.38098,-0.868535,-0.0679305,1.10168,0.00429275,
2,0,0,1,0,9699.67,0.00309525,0.00280138,-0.418759,8,0.00127039,11,-1.1731e-06,-3.37804,-0.505967,-0.116608,1.89414,0.00280138,
2,0,0,1,0,9699.97,0.00159739,0.00127901,-0.421796,8,0.00113746,11,-5.39482e-07,-3.3749, , , ,0.00127901,
2,0,0,0,0,9700.25,0.000199195,-0.000206982,-0.421863,8,0.00101469,11,8.7318e-08,-3.37483, , , ,-0.000206982,