File: Figure_codes/Fig_3-5/rawdata_trumpetplot_data/before 10th/20221101_1-115_002_TrumpetPlot_ParaChange_18_CV_C01.mpt
EC-Lab ASCII FILE
Nb header lines : 67

Cyclic Voltammetry

Run on channel : 1 (SN 65296)
User :
CE vs. WE compliance from -10 V to 10 V
Electrode connection : standard
Potential control : Ewe
Ewe ctrl range : min = -1.00 V, max = 1.00 V
Safety Limits :
	Do not start on E overload
Acquisition started on : 11/08/2022 17:30:03.488
Loaded Setting File :  NONE
Saved on :
	File : 20221101_1-115_002_TrumpetPlot_ParaChange_18_CV_C01.mpr
	Directory : C:\Users\NakamuraT\Documents\EC-Lab\Data\Yatsuzuka\20221108_1-115_001_TrumpetPlot\
	Host : 192.109.209.100
Device : SP-50e (SN .003219)
Address : 192.109.209.128
EC-Lab for windows v11.43 (software)
Internet server v11.40 (firmware)
Command interpretor v11.40 (firmware)
Electrode material : Au/Pd
Initial state :
Electrolyte : NaCl (0.2M)
Comments : Fe(CN)63-/Fe(CN)64- 5.10-3 M
Reference electrode : SCE Saturated Calomel Electrode (0.241 V)
Electrode surface area : 0.001 cm2
Characteristic mass : 0.001 g
Equivalent Weight : 0.000 g/eq.
Density : 0.000 g/cm3
Volume (V) : 0.001 cm3
Cycle Definition : Charge/Discharge alternance
Ei (V)              0.000
vs.                 Ref
dE/dt               5.000
dE/dt unit          mV/s
E1 (V)              0.850
vs.                 Ref
Step percent        50
N                   10
E range min (V)     -1.000
E range max (V)     1.000
I Range             100 mA
I Range min         Unset
I Range max         Unset
I Range init        Unset
Bandwidth           5
E2 (V)              0.000
vs.                 Ref
nc cycles           0
Reverse Scan        0
Ef (V)              0.000
vs.                 Eoc

Number of loops : 7
Loop 0 from point number 0 to 3406
Loop 1 from point number 3407 to 6813
Loop 2 from point number 6814 to 10220
Loop 3 from point number 10221 to 13627
Loop 4 from point number 13628 to 17034
Loop 5 from point number 17035 to 20441
Loop 6 from point number 20442 to 23848

mode	ox/red	error	control changes	counter inc.	time/s	control/V	Ewe/V	<I>/mA	cycle number	(Q-Qo)/C	I Range	P/W
2	1	0	1	0	1250.29	2.44065e-05	-0.000363498	0.120037	1	0.0000000E+000	10	-4.36332e-08
2	1	0	1	0	1253.64	0.0167792	0.0164906	0.26444	1	0.000892909	10	4.36077e-06
2	1	0	1	0	1257.04	0.0337584	0.033474	0.283491	1	0.00190456	10	9.48957e-06
2	1	0	0	0	1260.43	0.0507381	0.0504703	0.307416	1	0.00298762	10	1.55154e-05
2	1	0	1	0	1263.83	0.0677174	0.0674248	0.35649	1	0.00419057	10	2.40363e-05
2	1	0	1	0	1267.22	0.0846971	0.0844128	0.431292	1	0.00560391	10	3.64066e-05
2	1	0	1	0	1270.62	0.101676	0.10138	0.506823	1	0.00727853	10	5.13818e-05
2	1	0	0	0	1274.02	0.118656	0.118355	0.673987	1	0.00932549	10	7.977e-05
2	1	0	1	0	1277.41	0.135635	0.135352	0.964053	1	0.0121998	10	0.000130487
2	1	0	1	0	1280.81	0.152615	0.15234	0.932051	1	0.0156618	10	0.000141989
2	1	0	1	0	1284.2	0.169594	0.169293	0.565486	1	0.018284	10	9.57327e-05
2	1	0	0	0	1287.6	0.186574	0.186278	0.393001	1	0.0199419	10	7.32072e-05
2	1	0	1	0	1291	0.203553	0.203261	0.330852	1	0.0212413	10	6.72493e-05
2	1	0	1	0	1294.39	0.220533	0.220268	0.304139	1	0.0223956	10	6.6992e-05
2	1	0	1	0	1297.79	0.237512	0.237233	0.288586	1	0.0234792	10	6.84621e-05
2	1	0	0	0	1301.18	0.254492	0.254209	0.278104	1	0.0245254	10	7.06967e-05
2	1	0	1	0	1304.58	0.271471	0.271199	0.27381	1	0.0255467	10	7.4257e-05
2	1	0	1	0	1307.97	0.288451	0.288141	0.268888	1	0.0265499	10	7.74776e-05
2	1	0	1	0	1311.37	0.30543	0.305166	0.264417	1	0.0275389	10	8.0691e-05
2	1	0	0	0	1314.77	0.32241	0.322136	0.261126	1	0.0285149	10	8.41179e-05
2	1	0	1	0	1318.16	0.339389	0.339126	0.25952	1	0.0294794	10	8.80102e-05
2	1	0	1	0	1321.56	0.356369	0.356086	0.255459	1	0.030434	10	9.09652e-05
2	1	0	1	0	1324.95	0.373348	0.373095	0.252707	1	0.0313772	10	9.42838e-05
2	1	0	0	0	1328.35	0.390328	0.390059	0.246891	1	0.0323089	10	9.63022e-05
2	1	0	1	0	1331.75	0.407307	0.407069	0.246953	1	0.0332323	10	0.000100527
2	1	0	1	0	1335.14	0.424287	0.424	0.246612	1	0.0341505	10	0.000104563
2	1	0	1	0	1338.54	0.441266	0.441006	0.244864	1	0.0350654	10	0.000107987
2	1	0	0	0	1341.93	0.458246	0.458013	0.245332	1	0.0359802	10	0.000112365
2	1	0	1	0	1345.33	0.475225	0.474979	0.248492	1	0.036899	10	0.000118028
2	1	0	1	0	1348.73	0.492205	0.491948	0.252075	1	0.037828	10	0.000124008
2	1	0	1	0	1352.12	0.509184	0.50892	0.260442	1	0.0387767	10	0.000132544
2	1	0	0	0	1355.52	0.526164	0.525893	0.270195	1	0.0397578	10	0.000142094
2	1	0	1	0	1358.91	0.543143	0.542871	0.292196	1	0.0407917	10	0.000158625
2	1	0	1	0	1362.31	0.560123	0.559893	0.323932	1	0.0419129	10	0.000181367
2	1	0	1	0	1365.71	0.577102	0.576869	0.373148	1	0.0431692	10	0.000215257
2	1	0	0	0	1369.1	0.594082	0.593811	0.466053	1	0.0446551	10	0.000276747
2	1	0	1	0	1372.5	0.611061	0.61078	0.64735	1	0.0465894	10	0.000395388
2	1	0	1	0	1375.89	0.628041	0.6278	1.01515	1	0.0494225	10	0.00063731
2	1	0	1	0	1379.29	0.64502	0.644766	1.75139	1	0.0540584	10	0.00112924
2	1	0	0	0	1382.68	0.662	0.661765	3.19304	1	0.0622788	10	0.00211304
2	1	0	1	0	1386.08	0.678979	0.678754	5.7833	1	0.077226	10	0.00392544
2	1	0	1	0	1389.48	0.695959	0.6957	9.75844	1	0.10333	10	0.00678894
2	1	0	1	0	1392.87	0.712938	0.712712	14.761	1	0.144862	10	0.0105204
2	1	0	0	0	1396.27	0.729918	0.729665	20.4907	1	0.204531	10	0.0149513
2	1	0	1	0	1399.66	0.746897	0.746678	27.3275	1	0.285616	10	0.0204049
2	1	0	1	0	1403.06	0.763876	0.763631	34.717	1	0.391055	10	0.026511
2	1	0	1	0	1406.46	0.780856	0.780592	42.9873	1	0.523526	10	0.0335555
2	1	0	1	0	1409.85	0.797835	0.797604	49.9326	1	0.681463	10	0.0398265
2	1	0	1	0	1413.25	0.814815	0.814544	55.3999	1	0.860444	10	0.0451257
2	1	0	1	0	1416.64	0.831794	0.831569	60.4121	1	1.05703	10	0.0502369
2	1	0	1	0	1420.04	0.848774	0.848544	63.4784	1	1.26774	10	0.0538642
2	1	0	1	0	1423.34	0.834741	0.834528	58.3018	1	1.46888	10	0.0486545
2	1	0	1	0	1426.73	0.817761	0.817527	53.1921	1	1.65859	10	0.043486
2	1	0	1	0	1430.13	0.800782	0.800597	47.4207	1	1.83042	10	0.0379648
2	1	0	1	0	1433.52	0.783802	0.783589	39.791	1	1.97869	10	0.0311798
2	1	0	1	0	1436.92	0.766823	0.766582	31.6861	1	2.1	10	0.02429
2	1	0	0	0	1440.32	0.749843	0.749574	23.7543	1	2.19386	10	0.0178056
2	1	0	1	0	1443.71	0.732865	0.732607	16.5035	1	2.26205	10	0.0120906
2	1	0	1	0	1447.11	0.715885	0.71561	10.9802	1	2.30856	10	0.00785755
2	1	0	1	0	1450.5	0.698905	0.698662	6.57624	1	2.33785	10	0.00459457
2	1	0	0	0	1453.9	0.681926	0.681665	3.58807	1	2.35464	10	0.00244586
2	1	0	1	0	1457.3	0.664946	0.66468	1.8042	1	2.36342	10	0.00119921
2	1	0	1	0	1460.69	0.647967	0.647703	0.851687	1	2.36768	10	0.00055164
2	1	0	1	0	1464.09	0.630987	0.630715	0.374518	1	2.36959	10	0.000236214
2	1	0	0	0	1467.48	0.614008	0.61373	0.141259	1	2.37034	10	8.66946e-05
2	1	0	1	0	1470.88	0.597028	0.596773	0.029795	1	2.37053	10	1.77808e-05
2	0	0	1	0	1474.27	0.580049	0.579775	-0.0291434	1	2.37044	10	-1.68966e-05
2	0	0	1	0	1477.67	0.563069	0.562801	-0.0573067	1	2.37021	10	-3.22523e-05
2	0	0	0	0	1481.07	0.54609	0.545823	-0.073514	1	2.3699	10	-4.01257e-05
2	0	0	1	0	1484.46	0.52911	0.528851	-0.0816824	1	2.36955	10	-4.31978e-05
2	0	0	1	0	1487.86	0.512131	0.51184	-0.0903806	1	2.36918	10	-4.62605e-05
2	0	0	1	0	1491.25	0.495151	0.494923	-0.0960522	1	2.36878	10	-4.75384e-05
2	0	0	0	0	1494.65	0.478172	0.477904	-0.101859	1	2.36836	10	-4.86787e-05
2	0	0	1	0	1498.05	0.461192	0.460914	-0.108932	1	2.36792	10	-5.02085e-05
2	0	0	1	0	1501.44	0.444213	0.443938	-0.116009	1	2.36746	10	-5.15008e-05
2	0	0	1	0	1504.84	0.427233	0.426974	-0.122792	1	2.36698	10	-5.24292e-05
2	0	0	0	0	1508.23	0.410254	0.409995	-0.133525	1	2.36646	10	-5.47445e-05
2	0	0	1	0	1511.63	0.393274	0.392995	-0.142241	1	2.36591	10	-5.59002e-05
2	0	0	1	0	1515.03	0.376295	0.376025	-0.152725	1	2.36532	10	-5.74284e-05
2	0	0	1	0	1518.42	0.359315	0.35902	-0.164792	1	2.3647	10	-5.91635e-05
2	0	0	0	0	1521.82	0.342336	0.342081	-0.174615	1	2.36404	10	-5.97325e-05
2	0	0	1	0	1525.21	0.325356	0.325067	-0.186424	1	2.36334	10	-6.06004e-05
2	0	0	1	0	1528.61	0.308377	0.308107	-0.197894	1	2.36261	10	-6.09723e-05
2	0	0	1	0	1532	0.291397	0.291146	-0.208985	1	2.36183	10	-6.08454e-05
2	0	0	0	0	1535.4	0.274418	0.274128	-0.219837	1	2.36102	10	-6.02634e-05
2	0	0	1	0	1538.8	0.257438	0.257151	-0.230985	1	2.36017	10	-5.93979e-05
2	0	0	1	0	1542.19	0.240459	0.24017	-0.244559	1	2.35928	10	-5.87357e-05
2	0	0	1	0	1545.59	0.223479	0.22317	-0.262836	1	2.35833	10	-5.86571e-05
2	0	0	0	0	1548.98	0.2065	0.206199	-0.288907	1	2.35732	10	-5.95724e-05
2	0	0	1	0	1552.38	0.18952	0.18926	-0.3333	1	2.35618	10	-6.30805e-05
2	0	0	1	0	1555.78	0.172541	0.172271	-0.435836	1	2.35482	10	-7.50817e-05
2	0	0	1	0	1559.17	0.155561	0.1553	-0.719527	1	2.35285	10	-0.000111743
2	0	0	0	0	1562.57	0.138582	0.138278	-1.03116	1	2.34972	10	-0.000142587
2	0	0	1	0	1565.96	0.121602	0.121328	-0.917658	1	2.3462	10	-0.000111337
2	0	0	1	0	1569.36	0.104623	0.104312	-0.709511	1	2.3434	10	-7.40108e-05
2	0	0	1	0	1572.76	0.0876433	0.0873551	-0.626955	1	2.34107	10	-5.47677e-05
2	0	0	0	0	1576.15	0.0706641	0.070372	-0.56017	1	2.33897	10	-3.94203e-05
2	0	0	1	0	1579.55	0.0536843	0.0533765	-0.506029	1	2.33708	10	-2.70101e-05
2	0	0	1	0	1582.94	0.0367051	0.036404	-0.480465	1	2.33533	10	-1.74909e-05
2	0	0	1	0	1586.34	0.0197253	0.0194126	-0.478798	1	2.33363	10	-9.29469e-06
2	0	0	0	0	1589.74	0.00274612	0.00243385	-0.493054	1	2.3319	10	-1.20002e-06
2	1	0	1	0	2484.57	0.0132836	0.0130031	0.254845	2	0.00069603	10	3.31377e-06
2	1	0	0	0	2487.97	0.0302629	0.0299768	0.281308	2	0.00169903	10	8.43272e-06
2	1	0	1	0	2491.36	0.0472426	0.0469329	0.308908	2	0.00278141	10	1.4498e-05
2	1	0	1	0	2494.76	0.0642218	0.0639671	0.359507	2	0.00399321	10	2.29966e-05
2	1	0	1	0	2498.15	0.0812017	0.0809327	0.436736	2	0.00543187	10	3.53462e-05
2	1	0	0	0	2501.55	0.0981808	0.0979118	0.511834	2	0.00712803	10	5.01146e-05
2	1	0	1	0	2504.95	0.115161	0.114866	0.64181	2	0.00913311	10	7.37221e-05
2	1	0	1	0	2508.34	0.13214	0.131892	0.901515	2	0.0118269	10	0.000118903
2	1	0	1	0	2511.74	0.14912	0.148841	0.947667	2	0.0151809	10	0.000141052
2	1	0	0	0	2515.13	0.166099	0.165811	0.600025	2	0.0179317	10	9.94905e-05
2	1	0	1	0	2518.53	0.183079	0.18284	0.402805	2	0.0196547	10	7.3649e-05
2	1	0	1	0	2521.92	0.200058	0.199765	0.335263	2	0.0209719	10	6.69738e-05
2	1	0	1	0	2525.32	0.217038	0.216748	0.303512	2	0.0221339	10	6.57855e-05
2	1	0	0	0	2528.72	0.234017	0.233747	0.28836	2	0.0232221	10	6.74032e-05
2	1	0	1	0	2532.11	0.250997	0.250734	0.278668	2	0.0242697	10	6.98715e-05
2	1	0	1	0	2535.51	0.267976	0.267669	0.271127	2	0.0252923	10	7.25723e-05
2	1	0	1	0	2538.9	0.284956	0.284726	0.267963	2	0.0262976	10	7.62961e-05
2	1	0	1	0	2542.3	0.301934	0.301653	0.265263	2	0.0272882	10	8.00172e-05
2	1	0	1	0	2545.7	0.318915	0.318627	0.260374	2	0.0282662	10	8.29622e-05
2	1	0	1	0	2549.09	0.335893	0.335644	0.258165	2	0.0292328	10	8.66516e-05
2	1	0	0	0	2552.49	0.352873	0.352603	0.2545	2	0.0301879	10	8.97375e-05
2	1	0	1	0	2555.88	0.369852	0.369562	0.249473	2	0.0311317	10	9.21956e-05
2	1	0	1	0	2559.28	0.386832	0.386536	0.248325	2	0.032065	10	9.59867e-05
2	1	0	1	0	2562.68	0.403811	0.403547	0.246157	2	0.032991	10	9.9336e-05
2	1	0	0	0	2566.07	0.420791	0.420546	0.244945	2	0.0339121	10	0.000103011
2	1	0	1	0	2569.47	0.43777	0.437491	0.246063	2	0.0348294	10	0.00010765
2	1	0	1	0	2572.86	0.45475	0.454456	0.244303	2	0.0357456	10	0.000111025
2	1	0	1	0	2576.26	0.471729	0.471465	0.246855	2	0.0366647	10	0.000116383
2	1	0	0	0	2579.65	0.488709	0.488447	0.249761	2	0.0375915	10	0.000121995
2	1	0	1	0	2583.05	0.505688	0.505455	0.256275	2	0.038534	10	0.000129536
2	1	0	1	0	2586.45	0.522668	0.522443	0.266519	2	0.0395025	10	0.000139241
2	1	0	1	0	2589.84	0.539647	0.539394	0.282673	2	0.0405135	10	0.000152472
2	1	0	0	0	2593.24	0.556627	0.556374	0.308294	2	0.0415952	10	0.000171527
2	1	0	1	0	2596.63	0.573606	0.57332	0.348755	2	0.0427865	10	0.000199948
2	1	0	1	0	2600.03	0.590586	0.590328	0.418253	2	0.044155	10	0.000246907
2	1	0	1	0	2603.43	0.607565	0.607297	0.552083	2	0.0458589	10	0.000335278
2	1	0	0	0	2606.82	0.624545	0.624308	0.828581	2	0.0482306	10	0.00051729
2	1	0	1	0	2610.22	0.641524	0.641266	1.38323	2	0.0519563	10	0.00088702
2	1	0	1	0	2613.61	0.658504	0.658241	2.509	2	0.058432	10	0.00165153
2	1	0	1	0	2617.01	0.675483	0.675228	4.63472	2	0.0702955	10	0.00312949
2	1	0	0	0	2620.41	0.692463	0.692194	8.14042	2	0.0916701	10	0.00563475
2	1	0	1	0	2623.8	0.709442	0.709234	12.8866	2	0.127199	10	0.00913963
2	1	0	1	0	2627.2	0.726422	0.726192	18.4071	2	0.180204	10	0.0133671
2	1	0	1	0	2630.59	0.743401	0.743152	24.7845	2	0.253705	10	0.0184187
2	1	0	0	0	2633.99	0.760381	0.760108	32.2892	2	0.35064	10	0.0245433
2	1	0	1	0	2637.39	0.77736	0.777134	40.0248	2	0.473764	10	0.0311047
2	1	0	1	0	2640.78	0.79434	0.794083	47.1662	2	0.621894	10	0.0374539
2	1	0	1	0	2644.18	0.811319	0.811088	53.3334	2	0.792738	10	0.0432581
2	1	0	0	0	2647.57	0.828299	0.828049	58.324	2	0.98311	10	0.0482952
2	1	0	1	0	2650.97	0.845278	0.845043	62.0431	2	1.18821	10	0.0524291
2	1	0	0	0	2654.27	0.838237	0.837993	58.2644	2	1.3887	10	0.0488251
2	1	0	1	0	2657.66	0.821257	0.821063	51.2964	2	1.57185	10	0.0421176
2	1	0	1	0	2661.06	0.804278	0.80405	45.1574	2	1.73633	10	0.0363088
2	1	0	1	0	2664.45	0.787298	0.787052	37.6214	2	1.87655	10	0.02961
2	1	0	0	0	2667.85	0.770319	0.770117	30.1012	2	1.99132	10	0.0231815
2	1	0	1	0	2671.24	0.753339	0.753118	22.6058	2	2.08053	10	0.0170248
2	1	0	1	0	2674.64	0.73636	0.736116	15.9054	2	2.14565	10	0.0117083
2	1	0	1	0	2678.04	0.71938	0.719144	10.4782	2	2.19002	10	0.00753536
2	1	0	0	0	2681.43	0.702401	0.702184	6.34038	2	2.21811	10	0.00445211
2	1	0	1	0	2684.83	0.685421	0.685187	3.49517	2	2.23439	10	0.00239484
2	1	0	1	0	2688.22	0.668442	0.668207	1.7661	2	2.24298	10	0.00118012
2	1	0	1	0	2691.62	0.651462	0.651218	0.828174	2	2.24714	10	0.000539322
2	1	0	0	0	2695.02	0.634483	0.634269	0.369684	2	2.24902	10	0.000234479
2	1	0	1	0	2698.41	0.617503	0.617271	0.13925	2	2.24976	10	8.59551e-05
2	1	0	1	0	2701.81	0.600524	0.600263	0.0246719	2	2.24994	10	1.48097e-05
2	0	0	1	0	2705.2	0.583544	0.583272	-0.0301913	2	2.24985	10	-1.76098e-05
2	0	0	0	0	2708.6	0.566565	0.566275	-0.0587484	2	2.24963	10	-3.32677e-05
2	0	0	1	0	2712	0.549585	0.549323	-0.0746111	2	2.24932	10	-4.09856e-05
2	0	0	1	0	2715.39	0.532606	0.532322	-0.0837067	2	2.24898	10	-4.45589e-05
2	0	0	1	0	2718.79	0.515626	0.515365	-0.0912118	2	2.24861	10	-4.70073e-05
2	0	0	0	0	2722.18	0.498647	0.498384	-0.0972489	2	2.24821	10	-4.84673e-05
2	0	0	1	0	2725.58	0.481667	0.481389	-0.103984	2	2.2478	10	-5.00566e-05
2	0	0	1	0	2728.98	0.464688	0.464418	-0.108017	2	2.24737	10	-5.0165e-05
2	0	0	1	0	2732.37	0.447708	0.447448	-0.117052	2	2.24691	10	-5.23747e-05
2	0	0	1	0	2735.77	0.430729	0.430474	-0.124606	2	2.24643	10	-5.36398e-05
2	0	0	1	0	2739.16	0.41375	0.413448	-0.133302	2	2.24593	10	-5.51135e-05
2	0	0	1	0	2742.56	0.396771	0.396491	-0.142597	2	2.24538	10	-5.65386e-05
2	0	0	0	0	2745.95	0.379791	0.379486	-0.154078	2	2.24481	10	-5.84706e-05
2	0	0	1	0	2749.35	0.362812	0.362555	-0.163987	2	2.2442	10	-5.94543e-05
2	0	0	1	0	2752.75	0.345832	0.345545	-0.17576	2	2.24355	10	-6.07329e-05
2	0	0	1	0	2756.14	0.328852	0.328554	-0.185615	2	2.24286	10	-6.09846e-05
2	0	0	0	0	2759.54	0.311873	0.311594	-0.196528	2	2.24214	10	-6.1237e-05
2	0	0	1	0	2762.93	0.294893	0.294588	-0.207437	2	2.24138	10	-6.11084e-05
2	0	0	1	0	2766.33	0.277914	0.277625	-0.220411	2	2.24058	10	-6.11916e-05
2	0	0	1	0	2769.73	0.260934	0.260688	-0.230694	2	2.23974	10	-6.01392e-05
2	0	0	0	0	2773.12	0.243955	0.243649	-0.242863	2	2.23886	10	-5.91734e-05
2	0	0	1	0	2776.52	0.226976	0.226702	-0.258887	2	2.23793	10	-5.86901e-05
2	0	0	1	0	2779.91	0.209996	0.209687	-0.278464	2	2.23695	10	-5.83902e-05
2	0	0	1	0	2783.31	0.193016	0.192698	-0.317018	2	2.23586	10	-6.10885e-05
2	0	0	0	0	2786.71	0.176037	0.175762	-0.395658	2	2.2346	10	-6.95415e-05
2	0	0	1	0	2790.1	0.159057	0.158801	-0.604814	2	2.23288	10	-9.60448e-05
2	0	0	1	0	2793.5	0.142078	0.14177	-0.957859	2	2.23013	10	-0.000135796
2	0	0	1	0	2796.89	0.125099	0.124771	-0.964847	2	2.22666	10	-0.000120385
2	0	0	0	0	2800.29	0.108119	0.107858	-0.753551	2	2.22368	10	-8.12768e-05
2	0	0	1	0	2803.68	0.0911395	0.0907893	-0.657456	2	2.22124	10	-5.969e-05
2	0	0	1	0	2807.08	0.0741598	0.0738448	-0.59634	2	2.21903	10	-4.40366e-05
2	0	0	1	0	2810.48	0.0571805	0.0569133	-0.528926	2	2.21705	10	-3.01029e-05
2	0	0	0	0	2813.87	0.0402009	0.039897	-0.487745	2	2.21526	10	-1.94595e-05
2	0	0	1	0	2817.27	0.0232215	0.0229591	-0.47803	2	2.21355	10	-1.09752e-05
2	0	0	1	0	2820.66	0.00624189	0.00593956	-0.489101	2	2.21184	10	-2.90504e-06
2	1	0	1	0	3715.5	0.00978739	0.00949806	0.248197	3	0.000487181	10	2.35739e-06
2	1	0	0	0	3718.89	0.0267671	0.0264669	0.276159	3	0.00145767	10	7.30908e-06
2	1	0	1	0	3722.29	0.0437465	0.043482	0.306061	3	0.00251703	10	1.33081e-05
2	1	0	1	0	3725.69	0.0607261	0.0604593	0.361253	3	0.0037099	10	2.18411e-05
2	1	0	1	0	3729.08	0.0777054	0.077395	0.438221	3	0.00513394	10	3.39161e-05
2	1	0	0	0	3732.48	0.094685	0.0944305	0.506869	3	0.00681544	10	4.78639e-05
2	1	0	1	0	3735.87	0.111664	0.111347	0.61247	3	0.00876112	10	6.81966e-05
2	1	0	1	0	3739.27	0.128644	0.128356	0.835717	3	0.011268	10	0.000107269
2	1	0	1	0	3742.67	0.145623	0.145358	0.939204	3	0.0144485	10	0.000136521
2	1	0	0	0	3746.06	0.162603	0.162299	0.637515	3	0.0172813	10	0.000103468
2	1	0	1	0	3749.46	0.179582	0.179352	0.415106	3	0.019069	10	7.44502e-05
2	1	0	1	0	3752.85	0.196562	0.196251	0.341931	3	0.0204039	10	6.71042e-05
2	1	0	1	0	3756.25	0.213541	0.213251	0.309509	3	0.0215739	10	6.60032e-05
2	1	0	0	0	3759.65	0.230521	0.230231	0.293454	3	0.0226681	10	6.75624e-05
2	1	0	1	0	3763.04	0.2475	0.247206	0.284929	3	0.0237209	10	7.04363e-05
2	1	0	1	0	3766.44	0.26448	0.264188	0.27874	3	0.0247473	10	7.36397e-05
2	1	0	1	0	3769.83	0.281459	0.281163	0.272781	3	0.0257541	10	7.66958e-05
2	1	0	0	0	3773.23	0.298439	0.298173	0.26791	3	0.0267458	10	7.98834e-05
2	1	0	1	0	3776.63	0.315418	0.315136	0.264356	3	0.0277238	10	8.33082e-05
2	1	0	1	0	3780.02	0.332398	0.332092	0.260972	3	0.0286895	10	8.66669e-05
2	1	0	1	0	3783.42	0.349377	0.349131	0.257261	3	0.0296427	10	8.98175e-05
2	1	0	0	0	3786.81	0.366357	0.366063	0.253664	3	0.0305821	10	9.2857e-05
2	1	0	1	0	3790.21	0.383336	0.383033	0.250647	3	0.0315112	10	9.60062e-05
2	1	0	1	0	3793.6	0.400316	0.40006	0.250543	3	0.0324322	10	0.000100232
2	1	0	1	0	3797	0.417295	0.417047	0.24776	3	0.0333463	10	0.000103327
2	1	0	0	0	3800.4	0.434275	0.433977	0.246924	3	0.0342553	10	0.000107159
2	1	0	1	0	3803.79	0.451254	0.451015	0.248332	3	0.035163	10	0.000112001
2	1	0	1	0	3807.19	0.468234	0.467973	0.248601	3	0.0360727	10	0.000116339
2	1	0	1	0	3810.58	0.485213	0.484978	0.251097	3	0.0369908	10	0.000121776
2	1	0	0	0	3813.98	0.502193	0.501893	0.255027	3	0.0379215	10	0.000127996
2	1	0	1	0	3817.38	0.519172	0.51894	0.26371	3	0.0388717	10	0.00013685
2	1	0	1	0	3820.77	0.536152	0.535918	0.274132	3	0.0398542	10	0.000146912
2	1	0	1	0	3824.17	0.553131	0.552879	0.296071	3	0.0408904	10	0.000163692
2	1	0	0	0	3827.56	0.570111	0.569863	0.326663	3	0.0420116	10	0.000186153
2	1	0	1	0	3830.96	0.58709	0.586845	0.380616	3	0.0432729	10	0.000223363
2	1	0	1	0	3834.36	0.60407	0.603819	0.485692	3	0.0447961	10	0.00029327
2	1	0	1	0	3837.75	0.621049	0.620793	0.691135	3	0.0468226	10	0.000429052
2	1	0	1	0	3841.15	0.638028	0.637759	1.10749	3	0.0498643	10	0.000706312
2	1	0	1	0	3844.54	0.655008	0.654763	1.95659	3	0.0549722	10	0.0012811
2	1	0	1	0	3847.94	0.671987	0.671753	3.60213	3	0.0641984	10	0.00241974
2	1	0	1	0	3851.34	0.688968	0.688754	6.4227	3	0.0809261	10	0.00442366
2	1	0	0	0	3854.73	0.705947	0.705696	10.4486	3	0.109351	10	0.00737352
2	1	0	1	0	3858.13	0.722927	0.722691	15.2647	3	0.152919	10	0.0110317
2	1	0	1	0	3861.52	0.739905	0.739651	20.9494	3	0.214172	10	0.0154952
2	1	0	1	0	3864.92	0.756885	0.756663	27.6321	3	0.296433	10	0.0209082
2	1	0	1	0	3868.31	0.773864	0.773629	34.8726	3	0.402492	10	0.0269785
2	1	0	1	0	3871.71	0.790844	0.790619	42.3965	3	0.533735	10	0.0335195
2	1	0	1	0	3875.11	0.807823	0.807587	49.1111	3	0.688999	10	0.0396615
2	1	0	1	0	3878.5	0.824803	0.824613	54.3226	3	0.864862	10	0.0447951
2	1	0	1	0	3881.9	0.841782	0.841516	58.7881	3	1.05659	10	0.0494711
2	1	0	0	0	3885.19	0.841732	0.841538	56.8209	3	1.25045	10	0.0478169
2	1	0	1	0	3888.59	0.824753	0.824515	51.1221	3	1.43402	10	0.0421509
2	1	0	1	0	3891.99	0.807773	0.807528	46.298	3	1.59903	10	0.0373869
2	1	0	1	0	3895.38	0.790794	0.790534	38.7922	3	1.74372	10	0.0306665
2	1	0	0	0	3898.78	0.773814	0.773577	31.0703	3	1.86212	10	0.0240353
2	1	0	1	0	3902.17	0.756835	0.756575	23.3782	3	1.95419	10	0.0176874
2	1	0	1	0	3905.57	0.739855	0.739635	16.6361	3	2.02172	10	0.0123046
2	1	0	1	0	3908.97	0.722876	0.722616	11.0205	3	2.06816	10	0.00796359
2	1	0	0	0	3912.36	0.705897	0.705655	6.70043	3	2.09779	10	0.00472819
2	1	0	1	0	3915.76	0.688917	0.688698	3.72066	3	2.11503	10	0.00256242
2	1	0	1	0	3919.15	0.671938	0.671674	1.89025	3	2.1242	10	0.00126963
2	1	0	1	0	3922.55	0.654958	0.654716	0.885897	3	2.12866	10	0.000580012
2	1	0	0	0	3925.95	0.637979	0.637746	0.384033	3	2.13065	10	0.000244915
2	1	0	1	0	3929.34	0.620999	0.620758	0.141617	3	2.13142	10	8.79101e-05
2	1	0	1	0	3932.74	0.60402	0.603786	0.0259926	3	2.13161	10	1.5694e-05
2	0	0	1	0	3936.13	0.58704	0.586813	-0.0294809	3	2.13153	10	-1.72998e-05
2	0	0	0	0	3939.53	0.570061	0.569814	-0.0573997	3	2.1313	10	-3.27072e-05
2	0	0	1	0	3942.92	0.553081	0.552829	-0.0749109	3	2.131	10	-4.1413e-05
2	0	0	1	0	3946.32	0.536102	0.535873	-0.0841764	3	2.13066	10	-4.51079e-05
2	0	0	1	0	3949.72	0.519122	0.518855	-0.0904356	3	2.1303	10	-4.69229e-05
2	0	0	0	0	3953.11	0.502143	0.5019	-0.0946783	3	2.12991	10	-4.7519e-05
2	0	0	1	0	3956.51	0.485163	0.4849	-0.101327	3	2.1295	10	-4.91333e-05
2	0	0	1	0	3959.9	0.468184	0.467913	-0.108749	3	2.12908	10	-5.08851e-05
2	0	0	1	0	3963.3	0.451204	0.450922	-0.114826	3	2.12863	10	-5.17775e-05
2	0	0	0	0	3966.7	0.434225	0.433968	-0.122082	3	2.12816	10	-5.29798e-05
2	0	0	1	0	3970.09	0.417245	0.416937	-0.129893	3	2.12766	10	-5.4157e-05
2	0	0	1	0	3973.49	0.400266	0.400005	-0.139583	3	2.12712	10	-5.5834e-05
2	0	0	1	0	3976.88	0.383286	0.382979	-0.150474	3	2.12656	10	-5.76282e-05
2	0	0	0	0	3980.28	0.366307	0.366033	-0.160723	3	2.12596	10	-5.88298e-05
2	0	0	1	0	3983.68	0.349327	0.34909	-0.170688	3	2.12532	10	-5.95857e-05
2	0	0	1	0	3987.07	0.332348	0.33206	-0.181589	3	2.12465	10	-6.02986e-05
2	0	0	1	0	3990.47	0.315368	0.315083	-0.193285	3	2.12394	10	-6.09009e-05
2	0	0	0	0	3993.86	0.298389	0.298125	-0.203846	3	2.12319	10	-6.07716e-05
2	0	0	1	0	3997.26	0.281409	0.28113	-0.214548	3	2.12241	10	-6.03158e-05
2	0	0	1	0	4000.66	0.26443	0.26413	-0.227101	3	2.12158	10	-5.99843e-05
2	0	0	1	0	4004.05	0.24745	0.247168	-0.238962	3	2.12072	10	-5.90638e-05
2	0	0	0	0	4007.45	0.230471	0.23017	-0.253034	3	2.1198	10	-5.82408e-05
2	0	0	1	0	4010.84	0.213491	0.213259	-0.272204	3	2.11884	10	-5.80499e-05
2	0	0	1	0	4014.24	0.196512	0.196267	-0.30085	3	2.1178	10	-5.90468e-05
2	0	0	1	0	4017.63	0.179532	0.179204	-0.361468	3	2.11661	10	-6.47767e-05
2	0	0	0	0	4021.03	0.162553	0.162302	-0.517261	3	2.11509	10	-8.39524e-05
2	0	0	1	0	4024.43	0.145573	0.145266	-0.855352	3	2.1127	10	-0.000124254
2	0	0	1	0	4027.82	0.128594	0.128304	-0.978511	3	2.10937	10	-0.000125547
2	0	0	1	0	4031.22	0.111614	0.11131	-0.799548	3	2.10625	10	-8.89975e-05
2	0	0	0	0	4034.61	0.0946351	0.0943552	-0.676889	3	2.1037	10	-6.3868e-05
2	0	0	1	0	4038.01	0.0776553	0.0773734	-0.621532	3	2.10142	10	-4.80901e-05
2	0	0	1	0	4041.41	0.0606761	0.0604052	-0.55166	3	2.09935	10	-3.33231e-05
2	0	0	1	0	4044.8	0.0436963	0.0433738	-0.493648	3	2.09751	10	-2.14114e-05
2	0	0	0	0	4048.2	0.0267172	0.026398	-0.475633	3	2.09579	10	-1.25558e-05
2	0	0	1	0	4051.59	0.00973723	0.00944054	-0.480479	3	2.09409	10	-4.53598e-06
2	1	0	1	0	4946.43	0.00629183	0.00599894	0.238258	4	0.000300514	10	1.4293e-06
2	1	0	1	0	4949.82	0.0232717	0.0229848	0.274534	4	0.00125254	10	6.31012e-06
2	1	0	0	0	4953.22	0.0402508	0.0399532	0.302986	4	0.00230268	10	1.21052e-05
2	1	0	1	0	4956.62	0.0572306	0.0569125	0.356181	4	0.00348917	10	2.02712e-05
2	1	0	1	0	4960.01	0.0742098	0.0739116	0.436963	4	0.00490724	10	3.22967e-05
2	1	0	1	0	4963.41	0.0911897	0.090888	0.506227	4	0.00657948	10	4.601e-05
2	1	0	0	0	4966.8	0.108169	0.1079	0.58933	4	0.00849318	10	6.35886e-05
2	1	0	1	0	4970.2	0.125149	0.124859	0.784412	4	0.0108797	10	9.79413e-05
2	1	0	1	0	4973.6	0.142127	0.141855	0.920137	4	0.0139089	10	0.000130526
2	1	0	1	0	4976.99	0.159108	0.158835	0.675457	4	0.0168074	10	0.000107286
2	1	0	1	0	4980.39	0.176086	0.17577	0.426575	4	0.0186854	10	7.49788e-05
2	1	0	1	0	4983.78	0.193067	0.19277	0.345157	4	0.020044	10	6.65358e-05
2	1	0	1	0	4987.18	0.210045	0.209751	0.30924	4	0.0212248	10	6.48634e-05
2	1	0	0	0	4990.57	0.227025	0.226758	0.295598	4	0.0223244	10	6.7029e-05
2	1	0	1	0	4993.97	0.244004	0.243725	0.286228	4	0.0233823	10	6.97609e-05
2	1	0	1	0	4997.37	0.260984	0.260718	0.278861	4	0.0244132	10	7.2704e-05
2	1	0	1	0	5000.76	0.277963	0.27767	0.273319	4	0.0254238	10	7.58926e-05
2	1	0	0	0	5004.16	0.294943	0.294666	0.270641	4	0.0264196	10	7.97486e-05
2	1	0	1	0	5007.55	0.311922	0.311627	0.266335	4	0.027403	10	8.29972e-05
2	1	0	1	0	5010.95	0.328902	0.328612	0.262302	4	0.0283735	10	8.61956e-05
2	1	0	1	0	5014.35	0.345881	0.345614	0.258852	4	0.0293311	10	8.94629e-05
2	1	0	0	0	5017.74	0.362861	0.362577	0.255042	4	0.0302759	10	9.24723e-05
2	1	0	1	0	5021.14	0.37984	0.379578	0.252279	4	0.0312096	10	9.57595e-05
2	1	0	1	0	5024.53	0.39682	0.396528	0.249494	4	0.0321344	10	9.89314e-05
2	1	0	1	0	5027.93	0.413799	0.413558	0.248396	4	0.0330532	10	0.000102726
2	1	0	0	0	5031.33	0.430779	0.430501	0.248507	4	0.0339661	10	0.000106982
2	1	0	1	0	5034.72	0.447758	0.447446	0.246912	4	0.0348775	10	0.00011048
2	1	0	1	0	5038.12	0.464738	0.464485	0.249257	4	0.0357909	10	0.000115776
2	1	0	1	0	5041.51	0.481717	0.481445	0.252259	4	0.0367102	10	0.000121449
2	1	0	0	0	5044.91	0.498697	0.498409	0.25494	4	0.037639	10	0.000127065
2	1	0	1	0	5048.31	0.515676	0.515425	0.261171	4	0.0385845	10	0.000134614
2	1	0	1	0	5051.7	0.532656	0.532377	0.271803	4	0.0395577	10	0.000144702
2	1	0	1	0	5055.1	0.549635	0.549366	0.288774	4	0.0405754	10	0.000158642
2	1	0	0	0	5058.49	0.566615	0.566368	0.315097	4	0.0416646	10	0.000178461
2	1	0	1	0	5061.89	0.583594	0.583318	0.359308	4	0.0428688	10	0.000209591
2	1	0	1	0	5065.28	0.600574	0.600282	0.440626	4	0.044283	10	0.0002645
2	1	0	1	0	5068.68	0.617553	0.617284	0.603964	4	0.0460967	10	0.000372817
2	1	0	0	0	5072.08	0.634533	0.634291	0.931989	4	0.0487071	10	0.000591152
2	1	0	1	0	5075.47	0.651512	0.651267	1.60347	4	0.0529469	10	0.00104428
2	1	0	1	0	5078.87	0.668492	0.668222	2.94173	4	0.0604948	10	0.00196573
2	1	0	1	0	5082.26	0.685471	0.685187	5.34225	4	0.0742866	10	0.00366044
2	1	0	0	0	5085.66	0.702451	0.702156	8.97277	4	0.0983431	10	0.00630028
2	1	0	1	0	5089.06	0.71943	0.719187	13.5398	4	0.136457	10	0.00973762
2	1	0	1	0	5092.45	0.73641	0.736132	18.8558	4	0.191267	10	0.0138804
2	1	0	1	0	5095.85	0.753389	0.753146	25.2138	4	0.265952	10	0.0189897
2	1	0	0	0	5099.24	0.770369	0.770131	32.3515	4	0.363563	10	0.0249149
2	1	0	1	0	5102.64	0.787348	0.78708	39.7433	4	0.48595	10	0.0312811
2	1	0	1	0	5106.04	0.804328	0.804094	46.7649	4	0.633382	10	0.0376033
2	1	0	1	0	5109.43	0.821307	0.821127	52.8231	4	0.802954	10	0.0433745
2	1	0	0	0	5112.83	0.838287	0.838056	57.8262	4	0.991038	10	0.0484616
2	1	0	1	0	5116.12	0.845228	0.845012	59.5981	4	1.18849	10	0.0503611
2	1	0	0	0	5119.52	0.828249	0.828041	53.0481	4	1.37877	10	0.043926
2	1	0	1	0	5122.92	0.811269	0.810985	45.5665	4	1.54797	10	0.0369537
2	1	0	1	0	5126.31	0.79429	0.794053	39.8946	4	1.69158	10	0.0316784
2	1	0	1	0	5129.71	0.77731	0.777061	30.4723	4	1.81143	10	0.0236788
2	1	0	0	0	5133.1	0.760331	0.760083	23.14	4	1.90243	10	0.0175883
2	1	0	1	0	5136.5	0.743351	0.743076	16.6357	4	1.96965	10	0.0123615
2	1	0	1	0	5139.9	0.726372	0.726124	11.2106	4	2.01654	10	0.00814029
2	1	0	1	0	5143.29	0.709392	0.70915	6.98075	4	2.047	10	0.0049504
2	1	0	0	0	5146.69	0.692413	0.69216	3.96382	4	2.06518	10	0.0027436
2	1	0	1	0	5150.08	0.675433	0.675186	2.05304	4	2.07506	10	0.00138619
2	1	0	1	0	5153.48	0.658454	0.658196	0.972755	4	2.07993	10	0.000640263
2	1	0	1	0	5156.87	0.641474	0.641233	0.422139	4	2.08213	10	0.00027069
2	1	0	0	0	5160.27	0.624495	0.624238	0.159137	4	2.083	10	9.93392e-05
2	1	0	1	0	5163.67	0.607515	0.607234	0.0331523	4	2.08324	10	2.01312e-05
2	0	0	1	0	5167.06	0.590536	0.590232	-0.0269567	4	2.08317	10	-1.59107e-05
2	0	0	1	0	5170.46	0.573556	0.573287	-0.056404	4	2.08296	10	-3.23357e-05
2	0	0	0	0	5173.85	0.556577	0.556282	-0.0745314	4	2.08267	10	-4.14605e-05
2	0	0	1	0	5177.25	0.539597	0.539284	-0.0841418	4	2.08234	10	-4.53763e-05
2	0	0	1	0	5180.65	0.522619	0.522331	-0.0906523	4	2.08197	10	-4.73505e-05
2	0	0	1	0	5184.04	0.505638	0.505341	-0.0976995	4	2.08159	10	-4.93715e-05
2	0	0	1	0	5187.44	0.488659	0.488352	-0.102734	4	2.08118	10	-5.01703e-05
2	0	0	1	0	5190.83	0.47168	0.471394	-0.108247	4	2.08076	10	-5.10269e-05
2	0	0	1	0	5194.23	0.4547	0.45444	-0.115045	4	2.08032	10	-5.2281e-05
2	0	0	0	0	5197.63	0.437721	0.437395	-0.121688	4	2.07985	10	-5.32255e-05
2	0	0	1	0	5201.02	0.420741	0.420455	-0.129307	4	2.07936	10	-5.43679e-05
2	0	0	1	0	5204.42	0.403762	0.403484	-0.13924	4	2.07884	10	-5.61813e-05
2	0	0	1	0	5207.81	0.386782	0.386481	-0.149328	4	2.07828	10	-5.77122e-05
2	0	0	0	0	5211.21	0.369803	0.369501	-0.157027	4	2.07769	10	-5.80217e-05
2	0	0	1	0	5214.6	0.352824	0.352548	-0.170669	4	2.07707	10	-6.0169e-05
2	0	0	1	0	5218	0.335844	0.335573	-0.181137	4	2.0764	10	-6.07849e-05
2	0	0	1	0	5221.4	0.318864	0.318553	-0.192603	4	2.0757	10	-6.13544e-05
2	0	0	0	0	5224.79	0.301885	0.301622	-0.203351	4	2.07496	10	-6.13353e-05
2	0	0	1	0	5228.19	0.284905	0.284656	-0.213414	4	2.07418	10	-6.07497e-05
2	0	0	1	0	5231.58	0.267926	0.267626	-0.224217	4	2.07337	10	-6.00062e-05
2	0	0	1	0	5234.98	0.250946	0.250677	-0.236939	4	2.07251	10	-5.93952e-05
2	0	0	0	0	5238.38	0.233967	0.233652	-0.251475	4	2.07162	10	-5.87577e-05
2	0	0	1	0	5241.77	0.216987	0.216741	-0.266042	4	2.07068	10	-5.76622e-05
2	0	0	1	0	5245.17	0.200008	0.199701	-0.290634	4	2.06966	10	-5.80399e-05
2	0	0	1	0	5248.56	0.183028	0.182739	-0.338087	4	2.06854	10	-6.17817e-05
2	0	0	0	0	5251.96	0.166049	0.16574	-0.452941	4	2.06716	10	-7.50703e-05
2	0	0	1	0	5255.36	0.149069	0.148778	-0.75391	4	2.0651	10	-0.000112165
2	0	0	1	0	5258.75	0.13209	0.131799	-0.964997	4	2.06201	10	-0.000127186
2	0	0	1	0	5262.15	0.11511	0.114798	-0.847275	4	2.0588	10	-9.72655e-05
2	0	0	0	0	5265.54	0.0981309	0.0978206	-0.706164	4	2.05613	10	-6.90774e-05
2	0	0	1	0	5268.94	0.0811515	0.080883	-0.646593	4	2.05377	10	-5.22983e-05
2	0	0	1	0	5272.34	0.0641719	0.0638844	-0.580199	4	2.05161	10	-3.70657e-05
2	0	0	1	0	5275.73	0.0471924	0.046885	-0.515883	4	2.04969	10	-2.41872e-05
2	0	0	0	0	5279.13	0.0302129	0.0299164	-0.483013	4	2.04794	10	-1.445e-05
2	0	0	1	0	5282.52	0.0132334	0.0129807	-0.481691	4	2.04624	10	-6.25269e-06
2	1	0	1	0	6177.36	0.00279606	0.00249642	0.223987	5	0.000122309	10	5.59165e-07
2	1	0	1	0	6180.75	0.0197754	0.019486	0.269365	5	0.00104393	10	5.24886e-06
2	1	0	0	0	6184.15	0.036755	0.0364135	0.300342	5	0.00207919	10	1.09365e-05
2	1	0	1	0	6187.55	0.0537345	0.0534107	0.355039	5	0.00325073	10	1.89629e-05
2	1	0	1	0	6190.94	0.070714	0.0703995	0.430451	5	0.00465029	10	3.03036e-05
2	1	0	1	0	6194.34	0.0876935	0.0874297	0.497386	5	0.00630521	10	4.34863e-05
2	1	0	0	0	6197.73	0.104673	0.10437	0.577513	5	0.00818314	10	6.02749e-05
2	1	0	1	0	6201.13	0.121652	0.121336	0.742996	5	0.0104658	10	9.01522e-05
2	1	0	1	0	6204.52	0.138632	0.138363	0.891625	5	0.0133526	10	0.000123368
2	1	0	1	0	6207.92	0.155612	0.155294	0.716608	5	0.0162806	10	0.000111285
2	1	0	0	0	6211.32	0.172591	0.17229	0.438702	5	0.0182437	10	7.55839e-05
2	1	0	1	0	6214.71	0.189571	0.189254	0.347373	5	0.0196198	10	6.57417e-05
2	1	0	1	0	6218.11	0.20655	0.206264	0.311397	5	0.0208014	10	6.42301e-05
2	1	0	1	0	6221.5	0.223529	0.223235	0.29447	5	0.0219013	10	6.57359e-05
2	1	0	0	0	6224.9	0.240509	0.240224	0.286078	5	0.0229579	10	6.87227e-05
2	1	0	1	0	6228.3	0.257488	0.257218	0.279408	5	0.0239867	10	7.18687e-05
2	1	0	1	0	6231.69	0.274468	0.274163	0.271817	5	0.0249952	10	7.45223e-05
2	1	0	1	0	6235.09	0.291448	0.291189	0.271697	5	0.0259892	10	7.91153e-05
2	1	0	0	0	6238.48	0.308427	0.308166	0.266632	5	0.0269708	10	8.21669e-05
2	1	0	1	0	6241.88	0.325407	0.325131	0.262385	5	0.0279394	10	8.53094e-05
2	1	0	1	0	6245.28	0.342386	0.34215	0.258377	5	0.0288962	10	8.84036e-05
2	1	0	1	0	6248.67	0.359366	0.35907	0.256903	5	0.0298413	10	9.22462e-05
2	1	0	0	0	6252.07	0.376345	0.376032	0.251523	5	0.0307765	10	9.45808e-05
2	1	0	1	0	6255.46	0.393324	0.393049	0.250791	5	0.0317023	10	9.8573e-05
2	1	0	1	0	6258.86	0.410304	0.410048	0.249352	5	0.032621	10	0.000102246
2	1	0	1	0	6262.25	0.427283	0.426993	0.246518	5	0.0335347	10	0.000105261
2	1	0	0	0	6265.65	0.444263	0.444007	0.248056	5	0.0344442	10	0.000110139
2	1	0	1	0	6269.05	0.461243	0.46096	0.248913	5	0.0353542	10	0.000114739
2	1	0	1	0	6272.44	0.478222	0.477906	0.250504	5	0.0362689	10	0.000119718
2	1	0	1	0	6275.84	0.495201	0.494927	0.253704	5	0.037192	10	0.000125565
2	1	0	0	0	6279.23	0.512181	0.511924	0.259394	5	0.0381295	10	0.00013279
2	1	0	1	0	6282.63	0.529161	0.528897	0.269396	5	0.039091	10	0.000142482
2	1	0	1	0	6286.03	0.54614	0.545877	0.281505	5	0.0400904	10	0.000153667
2	1	0	1	0	6289.42	0.56312	0.562855	0.304504	5	0.0411496	10	0.000171392
2	1	0	0	0	6292.82	0.580099	0.579847	0.342108	5	0.0423059	10	0.00019837
2	1	0	1	0	6296.21	0.597078	0.596788	0.408899	5	0.0436329	10	0.000244026
2	1	0	1	0	6299.61	0.614057	0.613786	0.537758	5	0.0452825	10	0.000330068
2	1	0	1	0	6303.01	0.631037	0.630805	0.798509	5	0.0475646	10	0.000503703
2	1	0	1	0	6306.4	0.648016	0.647779	1.33275	5	0.0511397	10	0.00086333
2	1	0	1	0	6309.8	0.664996	0.664748	2.41353	5	0.0573648	10	0.00160439
2	1	0	1	0	6313.19	0.681975	0.681749	4.41162	5	0.0687141	10	0.00300762
2	1	0	0	0	6316.59	0.698955	0.698687	7.58268	5	0.0888203	10	0.00529792
2	1	0	1	0	6319.99	0.715934	0.715657	11.7612	5	0.121516	10	0.00841701
2	1	0	1	0	6323.38	0.732914	0.732643	16.6452	5	0.169596	10	0.012195
2	1	0	1	0	6326.78	0.749893	0.749663	22.5315	5	0.235898	10	0.016891
2	1	0	0	0	6330.17	0.766873	0.766671	29.3737	5	0.323932	10	0.02252
2	1	0	1	0	6333.57	0.783852	0.783628	36.6443	5	0.436095	10	0.0287154
2	1	0	1	0	6336.96	0.800832	0.800617	43.4306	5	0.571846	10	0.0347712
2	1	0	1	0	6340.36	0.817811	0.81757	50.0016	5	0.730841	10	0.0408798
2	1	0	0	0	6343.76	0.834791	0.834531	57.1704	5	0.91045	10	0.0477104
2	1	0	1	0	6347.05	0.848724	0.84851	60.0047	5	1.10527	10	0.0509146
2	1	0	0	0	6350.45	0.831744	0.831479	53.1445	5	1.29692	10	0.0441885
2	1	0	1	0	6353.84	0.814765	0.814497	46.6113	5	1.46624	10	0.0379647
2	1	0	1	0	6357.24	0.797786	0.797591	39.1287	5	1.61168	10	0.0312087
2	1	0	1	0	6360.64	0.780806	0.780547	31.6353	5	1.73151	10	0.0246929
2	1	0	0	0	6364.03	0.763827	0.763588	24.1533	5	1.82588	10	0.0184432
2	1	0	1	0	6367.43	0.746847	0.746612	17.4418	5	1.89619	10	0.0130223
2	1	0	1	0	6370.82	0.729868	0.729564	11.7673	5	1.94538	10	0.00858502
2	1	0	1	0	6374.22	0.712888	0.712642	7.37728	5	1.97744	10	0.00525736
2	1	0	0	0	6377.62	0.695909	0.695691	4.32528	5	1.99696	10	0.00300906
2	1	0	1	0	6381.01	0.678929	0.67868	2.25469	5	2.00776	10	0.00153021
2	1	0	1	0	6384.41	0.66195	0.661709	1.07598	5	2.01314	10	0.000711988
2	1	0	1	0	6387.8	0.64497	0.644703	0.470235	5	2.01557	10	0.000303162
2	1	0	0	0	6391.2	0.627991	0.627767	0.179618	5	2.01655	10	0.000112758
2	1	0	1	0	6394.6	0.611011	0.610741	0.0404848	5	2.01683	10	2.47257e-05
2	0	0	1	0	6397.99	0.594032	0.59379	-0.023029	5	2.01678	10	-1.36744e-05
2	0	0	1	0	6401.39	0.577052	0.576771	-0.0561452	5	2.01657	10	-3.23829e-05
2	0	0	0	0	6404.78	0.560073	0.55977	-0.0748465	5	2.01629	10	-4.18968e-05
2	0	0	1	0	6408.18	0.543093	0.542824	-0.0839655	5	2.01595	10	-4.55785e-05
2	0	0	1	0	6411.58	0.526114	0.525812	-0.0901937	5	2.01559	10	-4.74249e-05
2	0	0	1	0	6414.97	0.509134	0.508853	-0.0951212	5	2.01521	10	-4.84027e-05
2	0	0	0	0	6418.37	0.492155	0.49188	-0.10138	5	2.01481	10	-4.98669e-05
2	0	0	1	0	6421.76	0.475175	0.474893	-0.108911	5	2.01439	10	-5.17211e-05
2	0	0	1	0	6425.16	0.458196	0.457934	-0.113341	5	2.01395	10	-5.19027e-05
2	0	0	1	0	6428.55	0.441216	0.440932	-0.120188	5	2.01349	10	-5.29949e-05
2	0	0	0	0	6431.95	0.424237	0.423963	-0.130526	5	2.013	10	-5.53382e-05
2	0	0	1	0	6435.35	0.407257	0.406982	-0.13829	5	2.01248	10	-5.62814e-05
2	0	0	1	0	6438.74	0.390278	0.389984	-0.146485	5	2.01193	10	-5.71269e-05
2	0	0	1	0	6442.14	0.373298	0.373004	-0.157161	5	2.01135	10	-5.86217e-05
2	0	0	0	0	6445.53	0.356319	0.356051	-0.166494	5	2.01073	10	-5.92803e-05
2	0	0	1	0	6448.93	0.339339	0.339053	-0.179467	5	2.01007	10	-6.08489e-05
2	0	0	1	0	6452.33	0.32236	0.322079	-0.189443	5	2.00938	10	-6.10154e-05
2	0	0	1	0	6455.72	0.30538	0.305122	-0.200559	5	2.00865	10	-6.11952e-05
2	0	0	0	0	6459.12	0.288401	0.288082	-0.212721	5	2.00788	10	-6.12811e-05
2	0	0	1	0	6462.51	0.271421	0.271149	-0.223294	5	2.00707	10	-6.0546e-05
2	0	0	1	0	6465.91	0.254442	0.25415	-0.233124	5	2.00622	10	-5.92485e-05
2	0	0	1	0	6469.31	0.237462	0.237202	-0.246956	5	2.00534	10	-5.85785e-05
2	0	0	0	0	6472.7	0.220483	0.22022	-0.26021	5	2.00441	10	-5.73035e-05
2	0	0	1	0	6476.1	0.203503	0.203167	-0.280183	5	2.00342	10	-5.69237e-05
2	0	0	1	0	6479.49	0.186524	0.186216	-0.319268	5	2.00234	10	-5.94529e-05
2	0	0	1	0	6482.89	0.169544	0.169241	-0.400224	5	2.00106	10	-6.77342e-05
2	0	0	0	0	6486.28	0.152565	0.152262	-0.637162	5	1.99929	10	-9.70155e-05
2	0	0	1	0	6489.68	0.135585	0.135259	-0.92616	5	1.9965	10	-0.000125271
2	0	0	1	0	6493.08	0.118607	0.118347	-0.882805	5	1.99329	10	-0.000104478
2	0	0	1	0	6496.47	0.101626	0.101315	-0.733942	5	1.99049	10	-7.43596e-05
2	0	0	1	0	6499.87	0.0846476	0.0843179	-0.661721	5	1.98807	10	-5.57949e-05
2	0	0	1	0	6503.26	0.0676672	0.0674045	-0.60494	5	1.98584	10	-4.07757e-05
2	0	0	1	0	6506.66	0.0506886	0.0503923	-0.535645	5	1.98384	10	-2.69924e-05
2	0	0	1	0	6510.06	0.0337083	0.033428	-0.488907	5	1.98204	10	-1.63432e-05
2	0	0	1	0	6513.45	0.0167297	0.0164359	-0.48071	5	1.98033	10	-7.90092e-06
2	0	0	1	0	6516.79	2.44065e-05	-0.000363498	-0.49896	5	1.97864	10	1.81371e-07
2	1	0	1	0	7411.68	0.0162793	0.0159535	0.260768	6	0.000843213	10	4.16018e-06
2	1	0	1	0	7415.08	0.0332597	0.0329527	0.295799	6	0.00186197	10	9.74737e-06
2	1	0	1	0	7418.47	0.0502383	0.0499684	0.345389	6	0.00302137	10	1.72585e-05
2	1	0	1	0	7421.87	0.0672187	0.0669377	0.427355	6	0.00440745	10	2.86062e-05
2	1	0	1	0	7425.27	0.0841973	0.0838811	0.492768	6	0.0060453	10	4.13339e-05
2	1	0	0	0	7428.66	0.101177	0.100878	0.559762	6	0.00789833	10	5.64676e-05
2	1	0	1	0	7432.06	0.118156	0.117865	0.71052	6	0.0101032	10	8.37455e-05
2	1	0	1	0	7435.45	0.135136	0.13484	0.857851	6	0.0128576	10	0.000115673
2	1	0	1	0	7438.85	0.152115	0.151833	0.742415	6	0.0157753	10	0.000112723
2	1	0	0	0	7442.25	0.169095	0.168813	0.45156	6	0.0178254	10	7.62291e-05
2	1	0	1	0	7445.64	0.186074	0.185762	0.349248	6	0.0192247	10	6.4877e-05
2	1	0	1	0	7449.04	0.203054	0.202774	0.314829	6	0.0204144	10	6.38393e-05
2	1	0	1	0	7452.43	0.220033	0.219753	0.296213	6	0.0215197	10	6.50937e-05
2	1	0	0	0	7455.83	0.237013	0.236709	0.285807	6	0.02258	10	6.76533e-05
2	1	0	1	0	7459.23	0.253992	0.25373	0.280917	6	0.0236127	10	7.1277e-05
2	1	0	1	0	7462.62	0.270972	0.270669	0.276187	6	0.0246253	10	7.47553e-05
2	1	0	1	0	7466.02	0.287951	0.287656	0.26994	6	0.0256235	10	7.76499e-05
2	1	0	0	0	7469.41	0.304931	0.304645	0.26739	6	0.0266083	10	8.14592e-05
2	1	0	1	0	7472.81	0.32191	0.32164	0.264872	6	0.0275795	10	8.51934e-05
2	1	0	1	0	7476.2	0.33889	0.338639	0.260169	6	0.028538	10	8.81032e-05
2	1	0	1	0	7479.6	0.355869	0.355583	0.256716	6	0.0294856	10	9.12837e-05
2	1	0	0	0	7483	0.372849	0.372558	0.253651	6	0.0304222	10	9.44996e-05
2	1	0	1	0	7486.39	0.389828	0.389567	0.251025	6	0.0313493	10	9.7791e-05
2	1	0	1	0	7489.79	0.406808	0.406524	0.248445	6	0.0322688	10	0.000100999
2	1	0	1	0	7493.18	0.423787	0.42351	0.247587	6	0.0331835	10	0.000104856
2	1	0	0	0	7496.58	0.440767	0.440453	0.248345	6	0.0340951	10	0.000109384
2	1	0	1	0	7499.98	0.457746	0.457551	0.250105	6	0.0350067	10	0.000114436
2	1	0	1	0	7503.37	0.474726	0.474439	0.250335	6	0.035921	10	0.000118769
2	1	0	1	0	7506.77	0.491705	0.491466	0.252642	6	0.0368426	10	0.000124165
2	1	0	0	0	7510.16	0.508685	0.508399	0.257909	6	0.0377781	10	0.000131121
2	1	0	1	0	7513.56	0.525664	0.52537	0.266544	6	0.0387341	10	0.000140034
2	1	0	1	0	7516.96	0.542644	0.542393	0.276783	6	0.0397224	10	0.000150125
2	1	0	1	0	7520.35	0.559623	0.559382	0.296796	6	0.0407617	10	0.000166022
2	1	0	0	0	7523.75	0.576603	0.576335	0.32798	6	0.0418838	10	0.000189026
2	1	0	1	0	7527.14	0.593582	0.593324	0.3819	6	0.0431477	10	0.00022659
2	1	0	1	0	7530.54	0.610562	0.610293	0.48667	6	0.0446732	10	0.000297011
2	1	0	1	0	7533.93	0.627541	0.627273	0.695143	6	0.046705	10	0.000436045
2	1	0	0	0	7537.33	0.644521	0.644241	1.12113	6	0.0497722	10	0.000722277
2	1	0	1	0	7540.73	0.6615	0.661237	2.0068	6	0.0549781	10	0.00132697
2	1	0	1	0	7544.12	0.67848	0.678251	3.68652	6	0.064431	10	0.00250038
2	1	0	1	0	7547.52	0.695459	0.695202	6.48087	6	0.0814325	10	0.00450551
2	1	0	0	0	7550.91	0.712439	0.712198	10.3569	6	0.109833	10	0.00737616
2	1	0	1	0	7554.31	0.729418	0.729185	14.9751	6	0.15273	10	0.0109196
2	1	0	1	0	7557.71	0.746398	0.746135	20.5288	6	0.212732	10	0.0153173
2	1	0	1	0	7561.1	0.763377	0.763122	26.2771	6	0.292504	10	0.0200526
2	1	0	0	0	7564.5	0.780357	0.780095	33.2023	6	0.393349	10	0.0259009
2	1	0	1	0	7567.89	0.797336	0.797077	40.4474	6	0.518654	10	0.0322397
2	1	0	1	0	7571.29	0.814316	0.81405	47.4024	6	0.668042	10	0.0385879
2	1	0	1	0	7574.69	0.831295	0.831061	53.669	6	0.839755	10	0.0446022
2	1	0	0	0	7578.08	0.848275	0.848052	58.4866	6	1.0306	10	0.0495997
2	1	0	1	0	7581.38	0.83524	0.835003	52.512	6	1.21454	10	0.0438477
2	1	0	0	0	7584.77	0.818261	0.817939	45.9802	6	1.38171	10	0.037609
2	1	0	1	0	7588.17	0.801281	0.80105	39.206	6	1.52594	10	0.031406
2	1	0	1	0	7591.57	0.784302	0.78403	31.7835	6	1.64642	10	0.0249192
2	1	0	1	0	7594.96	0.767322	0.767117	24.3933	6	1.74161	10	0.0187125
2	1	0	0	0	7598.36	0.750343	0.750118	17.7038	6	1.8128	10	0.0132799
2	1	0	1	0	7601.75	0.733363	0.733102	12.169	6	1.86301	10	0.00892115
2	1	0	1	0	7605.15	0.716384	0.716117	7.76262	6	1.89647	10	0.00555894
2	1	0	1	0	7608.55	0.699404	0.699182	4.54587	6	1.91696	10	0.00317839
2	1	0	0	0	7611.94	0.682425	0.682141	2.41975	6	1.92843	10	0.00165061
2	1	0	1	0	7615.34	0.665445	0.665188	1.17425	6	1.93425	10	0.000781095
2	1	0	1	0	7618.73	0.648466	0.648186	0.518675	6	1.93693	10	0.000336198
2	1	0	1	0	7622.13	0.631486	0.631266	0.201511	6	1.93803	10	0.000127207
2	1	0	1	0	7625.52	0.614507	0.614261	0.0520412	6	1.93836	10	3.19669e-05
2	1	0	1	0	7628.92	0.597527	0.597261	-0.0187525	6	1.93834	10	-1.12001e-05
2	0	0	1	0	7632.32	0.580548	0.580273	-0.051612	6	1.93815	10	-2.9949e-05
2	0	0	0	0	7635.71	0.563569	0.563309	-0.0709096	6	1.93788	10	-3.9944e-05
2	0	0	1	0	7639.11	0.546589	0.546297	-0.0804917	6	1.93755	10	-4.39723e-05
2	0	0	1	0	7642.5	0.52961	0.52936	-0.0872746	6	1.9372	10	-4.61997e-05
2	0	0	1	0	7645.9	0.51263	0.512342	-0.0947674	6	1.93682	10	-4.85534e-05
2	0	0	0	0	7649.3	0.495651	0.495386	-0.098752	6	1.93643	10	-4.89204e-05
2	0	0	1	0	7652.69	0.478671	0.478388	-0.10549	6	1.93602	10	-5.04651e-05
2	0	0	1	0	7656.09	0.461692	0.461402	-0.112506	6	1.93558	10	-5.19107e-05
2	0	0	1	0	7659.48	0.444712	0.444434	-0.11948	6	1.93513	10	-5.31008e-05
2	0	0	0	0	7662.88	0.427733	0.427446	-0.127952	6	1.93465	10	-5.46926e-05
2	0	0	1	0	7666.28	0.410753	0.410493	-0.137322	6	1.93414	10	-5.63698e-05
2	0	0	1	0	7669.67	0.393774	0.393509	-0.144549	6	1.9336	10	-5.68814e-05
2	0	0	1	0	7673.07	0.376794	0.376543	-0.154999	6	1.93302	10	-5.83639e-05
2	0	0	0	0	7676.46	0.359815	0.359511	-0.164415	6	1.93241	10	-5.9109e-05
2	0	0	1	0	7679.86	0.342835	0.34257	-0.174529	6	1.93177	10	-5.97883e-05
2	0	0	1	0	7683.26	0.325856	0.325559	-0.186145	6	1.93109	10	-6.0601e-05
2	0	0	1	0	7686.65	0.308876	0.308644	-0.198113	6	1.93037	10	-6.11466e-05
2	0	0	0	0	7690.05	0.291897	0.291596	-0.208406	6	1.92962	10	-6.07703e-05
2	0	0	1	0	7693.44	0.274917	0.274631	-0.219989	6	1.92882	10	-6.04156e-05
2	0	0	1	0	7696.84	0.257938	0.257661	-0.231449	6	1.92799	10	-5.96353e-05
2	0	0	1	0	7700.23	0.240958	0.240666	-0.242726	6	1.92712	10	-5.84159e-05
2	0	0	0	0	7703.63	0.223979	0.223668	-0.255904	6	1.92621	10	-5.72373e-05
2	0	0	1	0	7707.03	0.206999	0.206711	-0.276472	6	1.92524	10	-5.71497e-05
2	0	0	1	0	7710.42	0.19002	0.189704	-0.304501	6	1.9242	10	-5.7765e-05
2	0	0	1	0	7713.82	0.17304	0.172743	-0.3646	6	1.92301	10	-6.29819e-05
2	0	0	0	0	7717.21	0.156061	0.155763	-0.535762	6	1.92147	10	-8.34521e-05
2	0	0	1	0	7720.61	0.139081	0.138804	-0.848536	6	1.91902	10	-0.00011778
2	0	0	1	0	7724.01	0.122102	0.121804	-0.897077	6	1.91589	10	-0.000109267
2	0	0	1	0	7727.4	0.105122	0.104826	-0.768307	6	1.91299	10	-8.05382e-05
2	0	0	0	0	7730.8	0.0881429	0.0878761	-0.674324	6	1.91049	10	-5.9257e-05
2	0	0	1	0	7734.19	0.0711635	0.0708779	-0.626784	6	1.90821	10	-4.44251e-05
2	0	0	1	0	7737.59	0.054184	0.0538583	-0.558982	6	1.90612	10	-3.01058e-05
2	0	0	1	0	7740.99	0.0372044	0.0368535	-0.501373	6	1.90426	10	-1.84774e-05
2	0	0	0	0	7744.38	0.020225	0.0199465	-0.479553	6	1.90253	10	-9.56538e-06
2	0	0	1	0	7747.78	0.0032454	0.00295548	-0.487188	6	1.90083	10	-1.43988e-06
2	1	0	1	0	8642.61	0.012784	0.0124844	0.254586	7	0.00063645	10	3.17835e-06
2	1	0	1	0	8646.01	0.0297635	0.029455	0.291792	7	0.00163145	10	8.59475e-06
2	1	0	0	0	8649.4	0.046743	0.0464747	0.341195	7	0.00276807	10	1.58569e-05
2	1	0	1	0	8652.8	0.0637226	0.0633967	0.416254	7	0.00412138	10	2.63891e-05
2	1	0	1	0	8656.2	0.0807019	0.0804055	0.482765	7	0.00572209	10	3.8817e-05
2	1	0	1	0	8659.59	0.0976815	0.0973892	0.544496	7	0.00752707	10	5.30281e-05
2	1	0	0	0	8662.99	0.114661	0.114354	0.670424	7	0.0096361	10	7.6666e-05
2	1	0	1	0	8666.38	0.131641	0.131346	0.811487	7	0.0122397	10	0.000106586
2	1	0	1	0	8669.78	0.14862	0.148357	0.766457	7	0.0150965	10	0.00011371
2	1	0	1	0	8673.17	0.1656	0.165296	0.470602	7	0.0172382	10	7.77884e-05
2	1	0	0	0	8676.57	0.182579	0.182317	0.357966	7	0.0186797	10	6.52633e-05
2	1	0	1	0	8679.97	0.199559	0.199267	0.31855	7	0.0198872	10	6.34765e-05
2	1	0	1	0	8683.36	0.216538	0.216239	0.297597	7	0.0210023	10	6.43523e-05
2	1	0	1	0	8686.76	0.233518	0.233235	0.288617	7	0.0220679	10	6.73156e-05
2	1	0	0	0	8690.15	0.250497	0.250188	0.280954	7	0.0231029	10	7.02915e-05
2	1	0	1	0	8693.55	0.267477	0.267232	0.275577	7	0.0241182	10	7.36431e-05
2	1	0	1	0	8696.95	0.284456	0.284193	0.272624	7	0.0251182	10	7.7478e-05
2	1	0	1	0	8700.34	0.301436	0.301165	0.268899	7	0.0261035	10	8.09827e-05
2	1	0	0	0	8703.74	0.318415	0.318137	0.264528	7	0.0270751	10	8.41562e-05
2	1	0	1	0	8707.13	0.335395	0.335095	0.261347	7	0.0280336	10	8.75762e-05
2	1	0	1	0	8710.53	0.352374	0.35206	0.256692	7	0.0289813	10	9.03713e-05
2	1	0	1	0	8713.93	0.369354	0.369082	0.254831	7	0.0299175	10	9.40535e-05
2	1	0	0	0	8717.32	0.386333	0.386027	0.250795	7	0.0308436	10	9.68136e-05
2	1	0	1	0	8720.72	0.403313	0.403028	0.248808	7	0.0317603	10	0.000100277
2	1	0	1	0	8724.11	0.420292	0.420013	0.247648	7	0.0326716	10	0.000104016
2	1	0	1	0	8727.51	0.437272	0.43699	0.248827	7	0.0335798	10	0.000108735
2	1	0	0	0	8730.91	0.454251	0.453969	0.248749	7	0.0344868	10	0.000112924
2	1	0	1	0	8734.3	0.471231	0.470928	0.250674	7	0.0353968	10	0.00011805
2	1	0	1	0	8737.7	0.48821	0.487931	0.252912	7	0.0363138	10	0.000123404
2	1	0	1	0	8741.09	0.50519	0.504912	0.256368	7	0.0372417	10	0.000129444
2	1	0	1	0	8744.49	0.522168	0.521882	0.263184	7	0.038188	10	0.000137351
2	1	0	1	0	8747.88	0.539148	0.538853	0.274511	7	0.0391622	10	0.000147921
2	1	0	1	0	8751.28	0.556127	0.555812	0.290397	7	0.0401803	10	0.000161406
2	1	0	0	0	8754.68	0.573107	0.572852	0.316331	7	0.0412687	10	0.000181211
2	1	0	1	0	8758.07	0.590086	0.589843	0.360522	7	0.0424739	10	0.000212651
2	1	0	1	0	8761.47	0.607066	0.606786	0.445877	7	0.0438905	10	0.000270552
2	1	0	1	0	8764.86	0.624045	0.623783	0.607525	7	0.0457102	10	0.000378964
2	1	0	0	0	8768.26	0.641025	0.640792	0.944518	7	0.04834	10	0.00060524
2	1	0	1	0	8771.66	0.658004	0.657769	1.63219	7	0.052643	10	0.0010736
2	1	0	1	0	8775.05	0.674984	0.674767	2.98091	7	0.0603098	10	0.00201142
2	1	0	1	0	8778.45	0.691963	0.691692	5.26596	7	0.0740616	10	0.00364242
2	1	0	0	0	8781.84	0.708943	0.708689	8.58705	7	0.0973872	10	0.00608555
2	1	0	1	0	8785.24	0.725922	0.725669	12.6698	7	0.133385	10	0.0091941
2	1	0	1	0	8788.64	0.742902	0.742608	17.4424	7	0.18432	10	0.0129529
2	1	0	1	0	8792.03	0.759881	0.759619	23.2325	7	0.253204	10	0.0176479
2	1	0	0	0	8795.43	0.776861	0.776645	30.893	7	0.343657	10	0.0239929
2	1	0	1	0	8798.82	0.79384	0.793549	37.5528	7	0.459657	10	0.0298
2	1	0	1	0	8802.22	0.81082	0.81056	43.7543	7	0.5975	10	0.0354655
2	1	0	1	0	8805.61	0.827799	0.827563	50.1893	7	0.757157	10	0.0415349
2	1	0	0	0	8809.01	0.844779	0.844538	56.6239	7	0.938344	10	0.047821
2	1	0	1	0	8812.31	0.838736	0.838475	53.0231	7	1.12207	10	0.0444586
2	1	0	0	0	8815.7	0.821757	0.821525	46.1411	7	1.29042	10	0.0379061
2	1	0	1	0	8819.1	0.804777	0.804555	38.8563	7	1.43442	10	0.031262
2	1	0	1	0	8822.5	0.787798	0.787529	31.4451	7	1.55379	10	0.024764
2	1	0	1	0	8825.89	0.770818	0.770551	23.8716	7	1.64752	10	0.0183943
2	1	0	0	0	8829.29	0.753839	0.753537	17.5417	7	1.71754	10	0.0132183
2	1	0	1	0	8832.68	0.736859	0.736623	12.0974	7	1.7674	10	0.0089112
2	1	0	1	0	8836.08	0.71988	0.71964	7.83303	7	1.80086	10	0.00563696
2	1	0	1	0	8839.47	0.7029	0.702663	4.65501	7	1.82168	10	0.0032709
2	1	0	0	0	8842.87	0.685921	0.68564	2.53388	7	1.83356	10	0.00173733
2	1	0	1	0	8846.27	0.668941	0.668669	1.24846	7	1.83971	10	0.000834805
2	1	0	1	0	8849.66	0.651962	0.651714	0.580118	7	1.84267	10	0.000378071
2	1	0	1	0	8853.06	0.634982	0.63476	0.231873	7	1.84392	10	0.000147184
2	1	0	0	0	8856.45	0.618003	0.617762	0.0671786	7	1.84433	10	4.15004e-05
2	1	0	1	0	8859.85	0.601023	0.600735	-0.0113981	7	1.84434	10	-6.84726e-06
2	0	0	1	0	8863.25	0.584044	0.583708	-0.0480875	7	1.84417	10	-2.80691e-05
2	0	0	1	0	8866.64	0.567064	0.566784	-0.0683275	7	1.84391	10	-3.87269e-05
2	0	0	0	0	8870.04	0.550085	0.549761	-0.0796123	7	1.84359	10	-4.37677e-05
2	0	0	1	0	8873.43	0.533105	0.532841	-0.0874487	7	1.84324	10	-4.65962e-05
2	0	0	1	0	8876.83	0.516126	0.515814	-0.0934592	7	1.84287	10	-4.82076e-05
2	0	0	1	0	8880.23	0.499146	0.498873	-0.0982773	7	1.84248	10	-4.90279e-05
2	0	0	0	0	8883.62	0.482167	0.481889	-0.104425	7	1.84208	10	-5.03212e-05
2	0	0	1	0	8887.02	0.465187	0.464885	-0.108459	7	1.84165	10	-5.0421e-05
2	0	0	1	0	8890.41	0.448208	0.44793	-0.11685	7	1.8412	10	-5.23404e-05
2	0	0	1	0	8893.81	0.431228	0.430964	-0.125738	7	1.84073	10	-5.41887e-05
2	0	0	0	0	8897.2	0.414249	0.413979	-0.132293	7	1.84022	10	-5.47663e-05
2	0	0	1	0	8900.6	0.397269	0.396979	-0.14288	7	1.83969	10	-5.67202e-05
2	0	0	1	0	8904	0.38029	0.380042	-0.151563	7	1.83912	10	-5.76005e-05
2	0	0	1	0	8907.39	0.36331	0.36302	-0.161227	7	1.83852	10	-5.85286e-05
2	0	0	0	0	8910.79	0.346331	0.346087	-0.172794	7	1.83789	10	-5.98018e-05
2	0	0	1	0	8914.18	0.329351	0.329062	-0.182539	7	1.83722	10	-6.00668e-05
2	0	0	1	0	8917.58	0.312372	0.312064	-0.191943	7	1.83651	10	-5.98984e-05
2	0	0	1	0	8920.98	0.295392	0.295111	-0.206197	7	1.83577	10	-6.08509e-05
2	0	0	1	0	8924.37	0.278414	0.278151	-0.216463	7	1.83498	10	-6.02094e-05
2	0	0	1	0	8927.77	0.261433	0.261155	-0.22733	7	1.83416	10	-5.93684e-05
2	0	0	1	0	8931.16	0.244455	0.244151	-0.240066	7	1.8333	10	-5.86124e-05
2	0	0	1	0	8934.56	0.227474	0.227225	-0.253653	7	1.8324	10	-5.76363e-05
2	0	0	1	0	8937.96	0.210496	0.210216	-0.267183	7	1.83145	10	-5.61661e-05
2	0	0	1	0	8941.35	0.193515	0.193202	-0.292259	7	1.83043	10	-5.6465e-05
2	0	0	1	0	8944.75	0.176537	0.176235	-0.340859	7	1.8293	10	-6.00713e-05
2	0	0	1	0	8948.14	0.159556	0.159233	-0.469193	7	1.8279	10	-7.47107e-05
2	0	0	1	0	8951.54	0.142578	0.142265	-0.774411	7	1.82575	10	-0.000110171
2	0	0	1	0	8954.94	0.125598	0.125252	-0.900887	7	1.82274	10	-0.000112838
2	0	0	1	0	8958.33	0.108619	0.108347	-0.796638	7	1.81976	10	-8.6313e-05
2	0	0	0	0	8961.73	0.0916387	0.0912917	-0.694421	7	1.81718	10	-6.33949e-05
2	0	0	1	0	8965.12	0.0746596	0.0743825	-0.6385	7	1.81486	10	-4.74932e-05
2	0	0	1	0	8968.52	0.0576798	0.057382	-0.579318	7	1.81271	10	-3.32424e-05
2	0	0	1	0	8971.91	0.0407006	0.0404147	-0.518711	7	1.81079	10	-2.09636e-05
2	0	0	0	0	8975.31	0.0237208	0.0234214	-0.482689	7	1.80903	10	-1.13053e-05
2	0	0	1	0	8978.71	0.00674163	0.00645412	-0.482243	7	1.80733	10	-3.11246e-06
2	0	0	1	0	8980.05	2.44065e-05	-0.000287149	-0.484083	7	1.80665	10	1.39004e-07