File: Figure_codes/Fig_3-5/rawdata_trumpetplot_data/before 10th/20221101_1-115_002_TrumpetPlot_ParaChange_11_CV_C01_0.csv
mode,ox/red,error,control changes,counter inc.,time/s,control/V,Ewe/V,<I>/mA,cycle number,(Q-Qo)/C,I Range,P/W,log(|I|),Tafel slope mV/dec,alpha_eff,dI/d(E-IR),E-IR/V,
2,0,0,0,0,1201.99,2.44065e-05,0.000686305,-6.24498,1,0.0000000E+000,11,-4.28596e-06,-2.20447, , , ,0.000686305,
2,0,0,1,0,1202.01,0.00179726,0.00135021,-2.02464,1,-8.13977e-05,11,-2.7337e-06,-2.69365, , , ,0.001350211,
2,1,0,1,0,1202.03,0.00379485,0.00351953,1.31503,1,-8.36536e-05,11,4.62827e-06,-2.88107,0.027669,2.13235,1183.44,0.00351953,
2,1,0,1,0,1202.05,0.00579244,0.00547183,2.85305,1,-3.99611e-05,11,1.56114e-05,-2.54469,0.00915443,6.44496,569.715,0.00547183,
2,1,0,1,0,1202.07,0.00779002,0.00751168,3.58942,1,2.53297e-05,11,2.69625e-05,-2.44498,0.0277253,2.12802,281.383,0.00751168,
2,1,0,1,0,1202.09,0.00978761,0.00949901,3.98623,1,0.000101274,11,3.78652e-05,-2.39944,0.0613174,0.962207,145.474,0.009499006,
2,1,0,1,0,1202.11,0.0117852,0.011524,4.1731,1,0.000183061,11,4.80908e-05,-2.37954,0.13998,0.421488,67.7816,0.011524,
2,1,0,1,0,1202.13,0.0137828,0.0135086,4.25801,1,0.000267329,11,5.752e-05,-2.37079,0.268889,0.219421,36.3499,0.0135086,
2,1,0,1,0,1202.15,0.0157804,0.0154933,4.31739,1,0.000353033,11,6.68905e-05,-2.36478,0.40379,0.146115,24.5581,0.01549329,
2,1,0,1,0,1202.17,0.017778,0.0174807,4.35556,1,0.00043933,11,7.6138e-05,-2.36096,1.13752,0.0518674,8.77451,0.0174807,
2,1,0,1,0,1202.19,0.0197755,0.0194574,4.35217,1,0.00052631,11,8.46821e-05,-2.36129,2.2499,0.0262234,4.46685,0.0194574,
2,1,0,1,0,1202.21,0.0217731,0.0215541,4.37375,1,0.000613552,11,9.42724e-05,-2.35915,1.06129,0.0555927,9.48406,0.0215541,
2,1,0,1,0,1202.23,0.0237707,0.0235027,4.39054,1,0.000701143,11,0.000103189,-2.35748,1.04623,0.0563931,9.66734,0.0235027,
2,1,0,1,0,1202.25,0.0257683,0.0254499,4.41141,1,0.000788635,11,0.00011227,-2.35542,1.10387,0.0534482,9.19642,0.02544993,
2,1,0,1,0,1202.27,0.0277659,0.0274849,4.42716,1,0.000876958,11,0.00012168,-2.35388,1.15805,0.0509476,8.8069,0.0274849,
2,1,0,1,0,1202.29,0.0297635,0.0295181,4.44724,1,0.000965645,11,0.000131274,-2.35191,1.56806,0.0376261,6.52017,0.0295181,
2,1,0,1,0,1202.31,0.0317611,0.0314993,4.45333,1,0.00105462,11,0.000140277,-2.35131,0.825471,0.0714744,12.474,0.0314993,
2,1,0,1,0,1202.33,0.0337586,0.0334771,4.49663,1,0.00114358,11,0.000150534,-2.34711,0.703988,0.0838082,14.6606,0.0334771,
2,1,0,1,0,1202.35,0.0357562,0.0354597,4.51139,1,0.00123367,11,0.000159972,-2.34569,1.3119,0.044973,7.91997,0.0354597,
2,1,0,1,0,1202.37,0.0377538,0.0374647,4.52821,1,0.00132413,11,0.000169648,-2.34407,0.818779,0.0720585,12.7586,0.0374647,
2,1,0,1,0,1202.39,0.0397514,0.039458,4.56241,1,0.00141499,11,0.000180024,-2.34081,0.475495,0.124081,22.1432,0.039458,
2,1,0,1,0,1202.41,0.041749,0.0414954,4.61746,1,0.00150615,11,0.000191604,-2.3356,0.576787,0.102291,18.3578,0.04149542,
2,1,0,1,0,1202.43,0.0437466,0.0434059,4.63488,1,0.00159858,11,0.000201181,-2.33396,0.963353,0.0612444,11.0892,0.0434059,
2,1,0,1,0,1202.45,0.0457442,0.045473,4.66157,1,0.00169141,11,0.000211975,-2.33147,0.623325,0.0946537,17.2504,0.045473,
2,1,0,1,0,1202.47,0.0477418,0.0474624,4.70486,1,0.00178509,11,0.000223304,-2.32745,0.438801,0.134457,24.7197,0.0474624,
2,1,0,1,0,1202.49,0.0497484,0.04947,4.76038,1,0.00187956,11,0.000235496,-2.32236,0.471333,0.125177,23.211,0.04947,
2,1,0,1,0,1202.51,0.0517369,0.051471,4.7979,1,0.00197458,11,0.000246953,-2.31895,0.428747,0.13761,25.8434,0.051471,
2,1,0,1,0,1202.53,0.0537345,0.0534885,4.86423,1,0.00207107,11,0.00026018,-2.31299,0.386979,0.152463,28.8895,0.0534885,
2,1,0,1,0,1202.55,0.0557321,0.0554578,4.91308,1,0.00216874,11,0.000272468,-2.30865,0.416399,0.141691,27.192,0.0554578,
2,1,0,1,0,1202.57,0.0577206,0.0574134,4.97095,1,0.00226701,11,0.000285399,-2.30356,0.330826,0.178342,34.676,0.0574134,
2,1,0,1,0,1202.59,0.0597273,0.0594579,5.05179,1,0.00236734,11,0.000300368,-2.29656,0.302458,0.195069,38.4262,0.0594579,
2,1,0,1,0,1202.61,0.0617249,0.0614178,5.12483,1,0.00246908,11,0.000314756,-2.29032,0.33443,0.176419,35.2648,0.0614178,
2,1,0,1,0,1202.63,0.0637224,0.0634532,5.19268,1,0.00257226,11,0.000329492,-2.28461,0.292236,0.201892,41.031,0.0634532,
2,1,0,1,0,1202.65,0.06572,0.06547,5.29109,1,0.00267706,11,0.000346408,-2.27645,0.227303,0.259566,53.6764,0.06547,
2,1,0,1,0,1202.67,0.0677176,0.0674313,5.40621,1,0.00278364,11,0.000364548,-2.26711,0.252057,0.234074,49.2247,0.0674313,
2,1,0,1,0,1202.69,0.0697152,0.0694513,5.48707,1,0.00289259,11,0.000381084,-2.26066,0.265735,0.222026,47.6597,0.0694513,
2,1,0,1,0,1202.71,0.0717128,0.0714011,5.59541,1,0.00300338,11,0.000399518,-2.25217,0.222198,0.265529,58.0515,0.0714011,
2,1,0,1,0,1202.73,0.0737104,0.0734364,5.71841,1,0.00311651,11,0.000419939,-2.24272,0.211093,0.279497,62.387,0.0734364,
2,1,0,1,0,1202.75,0.075708,0.0754062,5.84528,1,0.00323161,11,0.00044077,-2.2332,0.214156,0.2755,62.8055,0.0754062,
2,1,0,1,0,1202.77,0.0777056,0.0773787,5.96601,1,0.00334955,11,0.000461642,-2.22432,0.224204,0.263153,61.297,0.0773787,
2,1,0,1,0,1202.79,0.0797031,0.0794558,6.0935,1,0.00347009,11,0.000484164,-2.21513,0.217337,0.271468,64.5822,0.0794558,
2,1,0,1,0,1202.81,0.0817007,0.0814265,6.22743,1,0.00359329,11,0.000507078,-2.20569,0.202719,0.291044,70.7858,0.0814265,
2,1,0,1,0,1202.83,0.0836983,0.083397,6.37249,1,0.00371856,11,0.000531447,-2.19569,0.20794,0.283735,70.4952,0.083397,
2,1,0,1,0,1202.85,0.0856959,0.0853937,6.5071,1,0.00384738,11,0.000555665,-2.18661,0.217087,0.27178,69.0622,0.0853937,
2,1,0,1,0,1202.87,0.0876935,0.0874423,6.65186,1,0.00397896,11,0.000581654,-2.17706,0.219317,0.269017,69.7768,0.0874423,
2,1,0,1,0,1202.89,0.0896911,0.0894066,6.78711,1,0.00411334,11,0.000606812,-2.16832,0.2062,0.28613,75.9359,0.0894066,
2,1,0,1,0,1202.91,0.0916887,0.0913775,6.95069,1,0.00425001,11,0.000635136,-2.15797,0.198635,0.297028,80.5398,0.0913775,
2,1,0,1,0,1202.93,0.0936862,0.0934294,7.1111,1,0.00439068,11,0.000664386,-2.14806,0.221686,0.266142,73.717,0.0934294,
2,1,0,1,0,1202.95,0.0956838,0.0953815,7.24585,1,0.00453427,11,0.00069112,-2.13991,0.226308,0.260707,73.8309,0.0953815,
2,1,0,1,0,1202.97,0.0976814,0.0973922,7.40367,1,0.00468072,11,0.00072106,-2.13055,0.205419,0.287218,83.067,0.0973922,
2,1,0,1,0,1202.99,0.099679,0.0993781,7.57783,1,0.00482967,11,0.000753071,-2.12045,0.215453,0.273841,80.8414,0.0993781,
2,1,0,1,0,1203.01,0.101677,0.101396,7.72731,1,0.00498282,11,0.000783515,-2.11197,0.226713,0.260241,78.5603,0.101396,
2,1,0,1,0,1203.03,0.103674,0.103408,7.89443,1,0.00513905,11,0.000816347,-2.10268,0.204993,0.287815,88.7584,0.103408,
2,1,0,1,0,1203.05,0.105672,0.105359,8.07914,1,0.00529882,11,0.000851215,-2.09263,0.196349,0.300486,94.7702,0.105359,
2,1,0,1,0,1203.07,0.107667,0.107384,8.27123,1,0.00546143,11,0.000888197,-2.08243,0.198728,0.296888,95.8254,0.107384,
2,1,0,1,0,1203.09,0.109667,0.109382,8.46457,1,0.00562873,11,0.000925868,-2.0724,0.19095,0.308981,102.177,0.109382,
2,1,0,1,0,1203.11,0.111665,0.111373,8.67884,1,0.00580015,11,0.00096659,-2.06154,0.178536,0.330466,112.051,0.111373,
2,1,0,1,0,1203.13,0.113662,0.113406,8.9155,1,0.00597606,11,0.00101107,-2.04985,0.16933,0.348433,121.272,0.113406,
2,1,0,1,0,1203.15,0.11566,0.115356,9.16188,1,0.00615673,11,0.00105688,-2.03802,0.153539,0.384268,137.774,0.115356,
2,1,0,1,0,1203.17,0.117657,0.117386,9.46381,1,0.00634212,11,0.00111092,-2.02393,0.147826,0.399117,147.254,0.117386,
2,1,0,1,0,1203.19,0.119655,0.119362,9.75168,1,0.00653435,11,0.00116398,-2.01092,0.14692,0.40158,153,0.1193617,
2,1,0,1,0,1203.21,0.121652,0.121329,10.0672,1,0.0067326,11,0.00122144,-1.99709,0.139759,0.422154,166.074,0.121329,
2,1,0,1,0,1203.23,0.12365,0.123362,10.416,1,0.00693741,11,0.00128493,-1.9823,0.126405,0.466755,190.245,0.123362,
2,1,0,1,0,1203.25,0.125648,0.125338,10.8298,1,0.00714896,11,0.00135739,-1.96538,0.121204,0.486784,205.545,0.125338,
2,1,0,1,0,1203.27,0.127645,0.127338,11.2333,1,0.00736969,11,0.00143042,-1.94949,0.123452,0.477918,209.749,0.127338,
2,1,0,1,0,1203.29,0.129643,0.129353,11.6719,1,0.00759882,11,0.00150979,-1.93286,0.119085,0.495446,225.768,0.1293526,
2,1,0,1,0,1203.31,0.13164,0.131313,12.1306,1,0.00783696,11,0.0015929,-1.91612,0.119951,0.491868,232.817,0.131313,
2,1,0,1,0,1203.33,0.133638,0.133325,12.5967,1,0.00808325,11,0.00167945,-1.89974,0.123572,0.477454,234.698,0.133325,
2,1,0,1,0,1203.35,0.135636,0.135324,13.0721,1,0.00834005,11,0.00176897,-1.88365,0.125255,0.471037,240.29,0.135324,
2,1,0,1,0,1203.37,0.137633,0.137324,13.5575,1,0.00860645,11,0.00186177,-1.86782,0.13074,0.451276,238.622,0.137324,
2,1,0,1,0,1203.39,0.139631,0.139369,14.0372,1,0.00888252,11,0.00195634,-1.85272,0.135322,0.435996,238.725,0.139369,
2,1,0,1,0,1203.41,0.141628,0.141326,14.5129,1,0.00916654,11,0.00205104,-1.83825,0.143663,0.410683,232.335,0.141326,
2,1,0,1,0,1203.43,0.143626,0.143359,14.9644,1,0.0094614,11,0.00214528,-1.82494,0.159875,0.369039,215.195,0.143359,
2,1,0,1,0,1203.45,0.145624,0.145349,15.3786,1,0.00976502,11,0.00223527,-1.81308,0.178098,0.331279,198.532,0.145349,
2,1,0,1,0,1203.47,0.147621,0.147336,15.754,1,0.0100764,11,0.00232113,-1.80261,0.195455,0.301859,185.484,0.147336,
2,1,0,1,0,1203.49,0.149619,0.149328,16.1167,1,0.0103937,11,0.00240668,-1.79272,0.224959,0.262269,164.585,0.149328,
2,1,0,1,0,1203.51,0.151616,0.151322,16.4099,1,0.0107191,11,0.00248318,-1.78489,0.293637,0.200928,128.377,0.151322,
2,1,0,1,0,1203.53,0.153614,0.153315,16.6285,1,0.0110497,11,0.0025494,-1.77915,0.392681,0.150249,97.3699,0.153315,
2,1,0,1,0,1203.55,0.155611,0.155353,16.8024,1,0.0113843,11,0.0026103,-1.77463,0.535579,0.110161,72.1143,0.155353,
2,1,0,1,0,1203.57,0.157609,0.157352,16.9197,1,0.01172,11,0.00266236,-1.77161,1.74463,0.033818,22.234,0.1573524,
2,1,0,1,0,1203.59,0.159607,0.159305,16.8903,1,0.0120583,11,0.00269071,-1.77236,-1.09302,-0.0539787,-35.4947,0.159305,
2,1,0,1,0,1203.61,0.161604,0.161324,16.7787,1,0.0123953,11,0.00270682,-1.77524,-0.425477,-0.138668,-90.4185,0.161324,
2,1,0,1,0,1203.63,0.163602,0.163328,16.5265,1,0.0127286,11,0.00269925,-1.78182,-0.226953,-0.259966,-166.852,0.163328,
2,1,0,1,0,1203.65,0.165606,0.16529,16.1171,1,0.0130553,11,0.00266399,-1.79271,-0.153008,-0.385601,-241.419,0.16529,
2,1,0,1,0,1203.67,0.167597,0.167299,15.5678,1,0.013371,11,0.00260449,-1.80777,-0.113828,-0.518324,-313.019,0.167299,
2,1,0,1,0,1203.69,0.169595,0.169343,14.8485,1,0.0136754,11,0.00251448,-1.82832,-0.0852057,-0.692442,-398.527,0.169343,
2,1,0,1,0,1203.71,0.171592,0.171344,13.956,1,0.0139635,11,0.00239128,-1.85524,-0.0667899,-0.883368,-478.487,0.171344,
2,1,0,1,0,1203.73,0.173581,0.173304,12.9531,1,0.0142312,11,0.00224482,-1.88763,-0.0572107,-1.03128,-518.972,0.173304,
2,1,0,1,0,1203.75,0.175587,0.175328,11.8882,1,0.0144797,11,0.00208435,-1.92488,-0.0509497,-1.158,-535.301,0.175328,
2,1,0,1,0,1203.77,0.177585,0.177323,10.8014,1,0.0147065,11,0.00191534,-1.96652,-0.0466626,-1.2644,-532.258,0.177323,
2,1,0,1,0,1203.79,0.179582,0.179337,9.75477,1,0.0149117,11,0.00174939,-2.01078,-0.0458684,-1.28629,-491.427,0.179337,
2,1,0,1,0,1203.81,0.18158,0.181309,8.84269,1,0.0150974,11,0.00160326,-2.05342,-0.0482376,-1.22311,-424.106,0.181309,
2,1,0,1,0,1203.83,0.183578,0.183314,8.06806,1,0.0152655,11,0.00147899,-2.09323,-0.0516198,-1.14297,-361.687,0.183314,
2,1,0,1,0,1203.85,0.185575,0.185254,7.41589,1,0.01542,11,0.00137382,-2.12984,-0.0586782,-1.00548,-293.28,0.185254,
2,1,0,1,0,1203.87,0.187573,0.187264,6.90953,1,0.015563,11,0.00129391,-2.16055,-0.0726715,-0.811873,-220.589,0.187264,
2,1,0,1,0,1203.89,0.18957,0.189284,6.52693,1,0.0156973,11,0.00123544,-2.18529,-0.0897694,-0.657239,-168.392,0.189284,
2,1,0,1,0,1203.91,0.191568,0.191287,6.23208,1,0.0158242,11,0.00119212,-2.20537,-0.108638,-0.543089,-132.63,0.191287,
2,1,0,1,0,1203.93,0.193566,0.193289,5.99579,1,0.0159464,11,0.00115892,-2.22215,-0.129219,-0.456589,-107.199,0.193289,
2,1,0,1,0,1203.95,0.195563,0.195273,5.80481,1,0.0160645,11,0.00113352,-2.23621,-0.145387,-0.405813,-92.027,0.195273,
2,1,0,1,0,1203.97,0.197561,0.19727,5.62939,1,0.0161789,11,0.00111051,-2.24954,-0.177084,-0.333175,-73.5331,0.19727,
2,1,0,1,0,1203.99,0.199558,0.199307,5.50815,1,0.0162897,11,0.00109781,-2.25899,-0.199655,-0.29551,-63.4405,0.199307,
2,1,0,1,0,1204.01,0.201556,0.201291,5.37432,1,0.0163986,11,0.0010818,-2.26968,-0.196986,-0.299514,-62.9074,0.201291,
2,1,0,1,0,1204.03,0.203553,0.203296,5.25725,1,0.0165049,11,0.00106878,-2.27924,-0.21347,-0.276385,-56.7292,0.203296,
2,1,0,1,0,1204.05,0.205551,0.205316,5.14594,1,0.0166088,11,0.00105655,-2.28854,-0.264198,-0.223317,-45.0333,0.205316,
2,1,0,1,0,1204.07,0.207549,0.207275,5.07803,1,0.0167105,11,0.00105255,-2.2943,-0.276067,-0.213717,-42.2148,0.207275,
2,1,0,1,0,1204.09,0.209546,0.209304,4.97762,1,0.0168111,11,0.00104183,-2.30298,-0.226146,-0.260893,-50.6623,0.209304,
2,1,0,1,0,1204.11,0.211544,0.211285,4.87487,1,0.0169096,11,0.00102999,-2.31204,-0.255978,-0.230489,-43.991,0.211285,
2,1,0,1,0,1204.13,0.213541,0.213243,4.80434,1,0.0170064,11,0.00102449,-2.31837,-0.364086,-0.162049,-30.4421,0.213243,
2,1,0,1,0,1204.15,0.215539,0.215299,4.7527,1,0.0171014,11,0.00102325,-2.32306,-0.326737,-0.180573,-33.3799,0.215299,
2,1,0,1,0,1204.17,0.217537,0.217282,4.66952,1,0.0171956,11,0.0010146,-2.33073,-0.305682,-0.193011,-35.2701,0.217282,
2,1,0,1,0,1204.19,0.219534,0.219271,4.61261,1,0.0172885,11,0.00101141,-2.33605,-0.398656,-0.147997,-26.6614,0.2192705,
2,1,0,1,0,1204.21,0.221532,0.221281,4.56288,1,0.0173803,11,0.00100968,-2.34076,-0.404474,-0.145868,-25.9628,0.221281,
2,1,0,1,0,1204.23,0.223525,0.223259,4.50907,1,0.0174706,11,0.00100669,-2.34591,-0.443729,-0.132964,-23.4339,0.223259,
2,1,0,1,0,1204.25,0.225527,0.225275,4.46929,1,0.0175606,11,0.00100682,-2.34976,-0.498882,-0.118264,-20.6221,0.225275,
2,1,0,1,0,1204.27,0.227525,0.227228,4.4272,1,0.0176496,11,0.00100599,-2.35387,-0.438263,-0.134622,-23.2362,0.227228,
2,1,0,1,0,1204.29,0.229522,0.229274,4.37637,1,0.0177377,11,0.00100339,-2.35889,-0.50193,-0.117546,-20.1237,0.229274,
2,1,0,1,0,1204.31,0.23152,0.231245,4.34636,1,0.017825,11,0.00100508,-2.36187,-0.736362,-0.0801237,-13.6003,0.231245,
2,1,0,1,0,1204.33,0.233517,0.233241,4.32242,1,0.0179115,11,0.00100817,-2.36427,-0.66618,-0.0885647,-14.9193,0.233241,
2,1,0,1,0,1204.35,0.235515,0.235252,4.2866,1,0.0179977,11,0.00100843,-2.36789,-0.545432,-0.108171,-18.0924,0.235252,
2,1,0,1,0,1204.37,0.237512,0.23729,4.24917,1,0.018083,11,0.00100828,-2.3717,-0.645433,-0.0914114,-15.1841,0.23729,
2,1,0,1,0,1204.39,0.23951,0.239242,4.22601,1,0.0181679,11,0.00101104,-2.37407,-1.02768,-0.0574107,-9.4784,0.239242,
2,1,0,1,0,1204.41,0.241508,0.24125,4.21163,1,0.018252,11,0.00101606,-2.37555,-0.735668,-0.0801993,-13.1449,0.24125,
2,1,0,1,0,1204.43,0.243505,0.24323,4.17359,1,0.0183359,11,0.00101514,-2.37949,-0.75501,-0.0781446,-12.7661,0.2432297,
2,1,0,1,0,1204.45,0.245503,0.245264,4.16039,1,0.0184192,11,0.00102039,-2.38087,-0.937847,-0.0629101,-10.196,0.2452638,
2,1,0,1,0,1204.47,0.2475,0.247293,4.13216,1,0.0185023,11,0.00102185,-2.38382,-0.863924,-0.068293,-11.03,0.247293,
2,1,0,1,0,1204.49,0.249498,0.249238,4.11655,1,0.0185845,11,0.001026,-2.38547,-0.866797,-0.0680667,-10.9195,0.249238,
2,1,0,1,0,1204.51,0.251496,0.251234,4.08912,1,0.0186666,11,0.00102733,-2.38837,-0.922736,-0.0639403,-10.2214,0.251234,
2,1,0,1,0,1204.53,0.253493,0.253229,4.07576,1,0.0187484,11,0.0010321,-2.38979,-0.906133,-0.0651119,-10.3382,0.253229,
2,1,0,1,0,1204.55,0.255491,0.255239,4.04772,1,0.0188298,11,0.00103314,-2.39279,-1.2489,-0.0472416,-7.48674,0.255239,
2,1,0,1,0,1204.57,0.257488,0.257239,4.04574,1,0.0189104,11,0.00104072,-2.393,-1.57086,-0.037559,-5.9159,0.257239,
2,1,0,1,0,1204.59,0.259486,0.259221,4.02416,1,0.0189912,11,0.00104315,-2.39532,-0.680106,-0.0867512,-13.6059,0.259221,
2,1,0,1,0,1204.61,0.261484,0.261203,3.9918,1,0.0190716,11,0.00104267,-2.39883,-0.873408,-0.0675514,-10.5528,0.2612035,
2,1,0,1,0,1204.63,0.263481,0.263249,3.98165,1,0.0191515,11,0.00104817,-2.39994,-7.39645,-0.0079768,-1.24191,0.263249,
2,1,0,1,0,1204.65,0.265479,0.265217,3.98681,1,0.0192309,11,0.00105737,-2.39937,-1.41163,-0.0417956,-6.47369,0.265217,
2,1,0,1,0,1204.67,0.267476,0.267221,3.95594,1,0.0193104,11,0.00105711,-2.40275,-0.751561,-0.0785032,-12.1393,0.267221,
2,1,0,1,0,1204.69,0.269474,0.269254,3.93782,1,0.0193894,11,0.00106027,-2.40474,-1.58082,-0.0373223,-5.74541,0.269254,
2,1,0,1,0,1204.71,0.271471,0.27121,3.93302,1,0.0194683,11,0.00106668,-2.40527,-15.6121,-0.00377911,-0.580609,0.27121,
2,1,0,1,0,1204.72,0.273469,0.27317,3.93554,1,0.0195466,11,0.00107507,-2.405,-1.06849,-0.0552181,-8.43922,0.2731699,
2,1,0,1,0,1204.74,0.275467,0.275206,3.8993,1,0.0196249,11,0.00107311,-2.40901,-0.778073,-0.0758283,-11.5771,0.275206,
2,1,0,1,0,1204.76,0.277464,0.277221,3.88865,1,0.0197029,11,0.00107801,-2.4102,-1.54747,-0.0381268,-5.78499,0.277221,
2,1,0,1,0,1204.78,0.279462,0.279161,3.87642,1,0.0197806,11,0.00108215,-2.41157,-1.25249,-0.047106,-7.12288,0.279161,
2,1,0,1,0,1204.8,0.281464,0.281188,3.86039,1,0.019858,11,0.00108549,-2.41337,-1.37042,-0.0430526,-6.49116,0.281188,
2,1,0,1,0,1204.82,0.283457,0.283198,3.85021,1,0.0199349,11,0.00109037,-2.41452,-1.5729,-0.0375103,-5.63456,0.283198,
2,1,0,1,0,1204.84,0.285455,0.285235,3.83758,1,0.020012,11,0.00109461,-2.41594,-0.961878,-0.0613383,-9.17313,0.285235,
2,1,0,1,0,1204.86,0.287452,0.28717,3.81378,1,0.0200886,11,0.0010952,-2.41864,-1.35028,-0.0436947,-6.52225,0.28717,
2,1,0,1,0,1204.88,0.28945,0.289161,3.81198,1,0.020165,11,0.00110228,-2.41885,-3.28615,-0.0179541,-2.66854,0.289161,
2,1,0,1,0,1204.9,0.291447,0.291182,3.80307,1,0.020241,11,0.00110739,-2.41987,-1.05383,-0.0559863,-8.29219,0.291182,
2,1,0,1,0,1204.92,0.293445,0.293225,3.77827,1,0.0203171,11,0.00110789,-2.42271,-1.18543,-0.0497711,-7.35854,0.293225,
2,1,0,1,0,1204.94,0.295442,0.295176,3.77368,1,0.0203927,11,0.0011139,-2.42323,-5.64668,-0.0104486,-1.53946,0.295176,
2,1,0,1,0,1204.96,0.29744,0.297165,3.77221,1,0.0204683,11,0.00112097,-2.4234,-2.27851,-0.0258941,-3.8059,0.297165,
2,1,0,1,0,1204.98,0.299438,0.299156,3.75853,1,0.0205435,11,0.00112439,-2.42498,-0.0223665,-2.63788,-343.772,0.299156,
2,1,0,1,0,1204.99,0.299737,0.299583,2.94081,1,0.0205735,11,0.000881018,-2.53153,0.00215852,27.3335,2630.24,0.299583,
2,0,0,1,0,1205.01,0.29774,0.297487,-0.633124,1,0.0205878,11,-0.000188346,-3.19851,0.0135872,4.34231,1058.64,0.297487,
2,0,0,1,0,1205.03,0.295742,0.295431,-1.455,1,0.020565,11,-0.000429851,-2.83714,-0.00959766,-6.14733,256.12,0.295431,
2,0,0,1,0,1205.05,0.293745,0.293454,-1.66602,1,0.0205332,11,-0.000488899,-2.77832,-0.0488536,-1.20769,75.4201,0.293454,
2,0,0,1,0,1205.07,0.291747,0.291457,-1.75471,1,0.0204989,11,-0.000511422,-2.7558,-0.0968614,-0.609117,41.528,0.291457,
2,0,0,1,0,1205.09,0.289754,0.289495,-1.83043,1,0.0204631,11,-0.000529899,-2.73745,-0.117584,-0.50177,35.747,0.289495,
2,0,0,1,0,1205.11,0.287752,0.287446,-1.89808,1,0.0204256,11,-0.000545596,-2.72169,-0.145192,-0.406357,29.9787,0.287446,
2,0,0,1,0,1205.13,0.285754,0.285454,-1.95155,1,0.0203871,11,-0.00055708,-2.70962,-0.154925,-0.38083,29.0608,0.2854543,
2,0,0,1,0,1205.15,0.283757,0.28347,-2.01364,1,0.0203473,11,-0.000570807,-2.69602,-0.148402,-0.397568,31.2388,0.28347,
2,0,0,1,0,1205.17,0.281759,0.281457,-2.07643,1,0.0203062,11,-0.000584426,-2.68268,-0.166708,-0.353913,28.602,0.281457,
2,0,0,1,0,1205.19,0.279761,0.279436,-2.12901,1,0.0202641,11,-0.000594922,-2.67182,-0.190351,-0.309954,25.7305,0.2794362,
2,0,0,1,0,1205.21,0.277764,0.277486,-2.17859,1,0.0202209,11,-0.00060453,-2.66182,-0.194772,-0.302918,25.774,0.277486,
2,0,0,1,0,1205.23,0.275766,0.275434,-2.23216,1,0.0201766,11,-0.000614812,-2.65128,-0.234925,-0.251144,21.7787,0.275434,
2,0,0,1,0,1205.25,0.273769,0.273473,-2.26599,1,0.0201315,11,-0.000619688,-2.64474,-0.218974,-0.269438,23.9668,0.273473,
2,0,0,1,0,1205.27,0.271771,0.271479,-2.32696,1,0.0200856,11,-0.00063172,-2.63321,-0.202371,-0.291544,26.3776,0.2714785,
2,0,0,1,0,1205.29,0.269774,0.269478,-2.37138,1,0.0200385,11,-0.000639035,-2.625,-0.269502,-0.218922,20.2216,0.269478,
2,0,0,1,0,1205.31,0.267776,0.267515,-2.4071,1,0.0199905,11,-0.000643937,-2.61851,-0.300584,-0.196285,18.4441,0.2675153,
2,0,0,1,0,1205.33,0.265778,0.265517,-2.44443,1,0.019942,11,-0.000649039,-2.61182,-0.244903,-0.240911,23.0609,0.265517,
2,0,0,1,0,1205.35,0.263781,0.263531,-2.49899,1,0.0198926,11,-0.000658562,-2.60223,-0.274858,-0.214656,20.8283,0.263531,
2,0,0,1,0,1205.37,0.261783,0.261478,-2.52856,1,0.0198422,11,-0.000661163,-2.59713,-0.364794,-0.161735,15.9742,0.261478,
2,0,0,1,0,1205.39,0.259786,0.259536,-2.56281,1,0.0197912,11,-0.000665141,-2.59128,-0.28622,-0.206135,20.6695,0.259536,
2,0,0,1,0,1205.41,0.257788,0.257515,-2.61048,1,0.0197395,11,-0.000672237,-2.58328,-0.281531,-0.209568,21.3107,0.257515,
2,0,0,1,0,1205.43,0.25579,0.255498,-2.64885,1,0.0196869,11,-0.000676777,-2.57694,-0.386663,-0.152588,15.7329,0.255498,
2,0,0,1,0,1205.45,0.253793,0.253498,-2.67368,1,0.0196336,11,-0.000677772,-2.57289,-0.397176,-0.148549,15.5355,0.253498,
2,0,0,1,0,1205.47,0.251795,0.251508,-2.71084,1,0.0195796,11,-0.000681799,-2.5669,-0.330851,-0.178328,18.8711,0.251508,
2,0,0,1,0,1205.49,0.249798,0.249469,-2.74971,1,0.0195248,11,-0.000685967,-2.56071,-0.306272,-0.192639,20.6886,0.249469,
2,0,0,1,0,1205.51,0.2478,0.247526,-2.79323,1,0.0194696,11,-0.000691397,-2.55389,-0.3544,-0.166479,18.0971,0.247526,
2,0,0,1,0,1205.53,0.245802,0.245509,-2.82138,1,0.0194134,11,-0.000692673,-2.54954,-0.369567,-0.159646,17.6238,0.245509,
2,0,0,1,0,1205.55,0.243805,0.243491,-2.86434,1,0.0193564,11,-0.00069744,-2.54298,-0.436802,-0.135073,15.0297,0.243491,
2,0,0,1,0,1205.57,0.241807,0.241535,-2.88111,1,0.0192987,11,-0.000695887,-2.54044,-0.350318,-0.168418,19.0775,0.241535,
2,0,0,1,0,1205.59,0.23981,0.239476,-2.94094,1,0.0192408,11,-0.000704284,-2.53151,-0.29953,-0.196976,22.4891,0.239476,
2,0,0,1,0,1205.61,0.237812,0.237569,-2.97029,1,0.0191815,11,-0.000705649,-2.5272,-0.439598,-0.134214,15.5648,0.237569,
2,0,0,1,0,1205.63,0.235815,0.235528,-3.00238,1,0.0191217,11,-0.000707146,-2.52253,-0.404765,-0.145763,17.0919,0.235528,
2,0,0,1,0,1205.65,0.233817,0.233546,-3.03905,1,0.0190613,11,-0.000709758,-2.51726,-0.341797,-0.172617,20.4999,0.233546,
2,0,0,1,0,1205.67,0.231815,0.231546,-3.08401,1,0.0189999,11,-0.000714091,-2.51088,-0.324278,-0.181942,21.8871,0.2315461,
2,0,0,1,0,1205.69,0.229822,0.229566,-3.12617,1,0.0189379,11,-0.000717662,-2.50499,-0.428806,-0.137591,16.7419,0.229566,
2,0,0,1,0,1205.71,0.227824,0.227493,-3.15187,1,0.0188751,11,-0.000717028,-2.50143,-0.396847,-0.148672,18.3518,0.227493,
2,0,0,1,0,1205.73,0.225827,0.225547,-3.19992,1,0.0188114,11,-0.000721733,-2.49486,-0.320744,-0.183947,22.952,0.225547,
2,0,0,1,0,1205.75,0.223829,0.223527,-3.24289,1,0.0187468,11,-0.000724874,-2.48907,-0.326716,-0.180585,22.8754,0.2235274,
2,0,0,1,0,1205.77,0.221831,0.221515,-3.29215,1,0.0186816,11,-0.000729261,-2.48252,-0.327154,-0.180343,23.1477,0.2215153,
2,0,0,1,0,1205.79,0.219834,0.219538,-3.33524,1,0.0186152,11,-0.000732211,-2.47687,-0.309558,-0.190595,24.8542,0.2195376,
2,0,0,1,0,1205.81,0.217836,0.217534,-3.39109,1,0.0185479,11,-0.000737679,-2.46966,-0.348938,-0.169084,22.3043,0.217534,
2,0,0,1,0,1205.83,0.215839,0.215504,-3.42522,1,0.0184796,11,-0.000738147,-2.46531,-0.314618,-0.187529,25.1875,0.215504,
2,0,0,1,0,1205.85,0.213841,0.213509,-3.49248,1,0.0184105,11,-0.000745676,-2.45687,-0.2571,-0.229482,31.2304,0.213509,
2,0,0,1,0,1205.87,0.211843,0.211517,-3.54973,1,0.01834,11,-0.000750827,-2.44981,-0.30182,-0.195481,27.0489,0.211517,
2,0,0,1,0,1205.89,0.209846,0.209566,-3.59914,1,0.0182684,11,-0.000754256,-2.4438,-0.298832,-0.197435,27.7706,0.209566,
2,0,0,1,0,1205.91,0.207848,0.207581,-3.65902,1,0.0181958,11,-0.000759544,-2.43663,-0.21147,-0.279,40.0552,0.207581,
2,0,0,1,0,1205.93,0.205851,0.205566,-3.75937,1,0.0181218,11,-0.000772796,-2.42489,-0.229799,-0.256746,37.4152,0.205566,
2,0,0,1,0,1205.95,0.203853,0.203543,-3.8101,1,0.0180461,11,-0.000775521,-2.41906,-0.313884,-0.187968,27.9872,0.203543,
2,0,0,1,0,1205.97,0.201856,0.20156,-3.87149,1,0.0179692,11,-0.000780335,-2.41212,-0.241356,-0.244452,37.0445,0.2015595,
2,0,0,1,0,1205.99,0.199858,0.199584,-3.95679,1,0.0178908,11,-0.00078971,-2.40266,-0.194728,-0.302987,46.874,0.199584,
2,0,0,1,0,1206.01,0.19786,0.197577,-4.05817,1,0.017811,11,-0.0008018,-2.39167,-0.2165,-0.272517,43.0005,0.197577,
2,0,0,1,0,1206.03,0.195863,0.195539,-4.1307,1,0.017729,11,-0.000807713,-2.38398,-0.207582,-0.284226,46.0278,0.195539,
2,0,0,1,0,1206.05,0.193865,0.19358,-4.24214,1,0.0176452,11,-0.000821193,-2.37241,-0.182733,-0.322876,53.3863,0.19358,
2,0,0,1,0,1206.07,0.191868,0.191533,-4.34456,1,0.0175592,11,-0.000832127,-2.36205,-0.175742,-0.33572,57.0631,0.191533,
2,0,0,1,0,1206.09,0.18987,0.18958,-4.47038,1,0.0174715,11,-0.000847495,-2.34966,-0.169718,-0.347635,60.5695,0.18958,
2,0,0,1,0,1206.11,0.187872,0.187539,-4.58649,1,0.0173808,11,-0.000860146,-2.33852,-0.163755,-0.360294,64.6506,0.187539,
2,0,0,1,0,1206.13,0.185875,0.185601,-4.72765,1,0.0172875,11,-0.000877455,-2.32536,-0.157736,-0.374043,68.9253,0.185601,
2,0,0,1,0,1206.15,0.183877,0.183579,-4.85945,1,0.0171916,11,-0.000892091,-2.31341,-0.141311,-0.41752,79.589,0.183579,
2,0,0,1,0,1206.17,0.18188,0.181618,-5.04461,1,0.017093,11,-0.000916193,-2.29717,-0.127705,-0.462003,90.8595,0.181618,
2,0,0,1,0,1206.19,0.179882,0.179574,-5.22333,1,0.0169903,11,-0.000937974,-2.28205,-0.137208,-0.430004,87.5956,0.179574,
2,0,0,1,0,1206.21,0.177885,0.177575,-5.39881,1,0.0168839,11,-0.000958692,-2.2677,-0.128302,-0.459851,97.1611,0.177575,
2,0,0,1,0,1206.23,0.175887,0.175604,-5.60908,1,0.0167737,11,-0.000984975,-2.25111,-0.114196,-0.516655,113.303,0.175604,
2,0,0,1,0,1206.25,0.173896,0.173631,-5.84561,1,0.0166597,11,-0.00101498,-2.23317,-0.109803,-0.537325,122.751,0.173631,
2,0,0,1,0,1206.27,0.171892,0.171562,-6.1052,1,0.0165399,11,-0.00104742,-2.2143,-0.109103,-0.540772,128.802,0.171562,
2,0,0,1,0,1206.29,0.169894,0.169577,-6.36787,1,0.0164152,11,-0.00107984,-2.19601,-0.101597,-0.580724,144.722,0.169577,
2,0,0,1,0,1206.31,0.167897,0.167629,-6.67443,1,0.0162847,11,-0.00111883,-2.17559,-0.0947483,-0.622702,162.468,0.167629,
2,0,0,1,0,1206.33,0.165899,0.165605,-7.01318,1,0.0161477,11,-0.00116141,-2.15409,-0.0929234,-0.634931,173.917,0.165605,
2,0,0,1,0,1206.35,0.163901,0.163604,-7.3744,1,0.0160043,11,-0.00120648,-2.13227,-0.0925189,-0.637708,183.436,0.163604,
2,0,0,1,0,1206.37,0.161904,0.161643,-7.73988,1,0.015853,11,-0.0012511,-2.11127,-0.087416,-0.674934,204.8,0.161643,
2,0,0,1,0,1206.39,0.159906,0.159621,-8.19004,1,0.0156935,11,-0.00130731,-2.08671,-0.0822682,-0.717166,229.258,0.1596214,
2,0,0,1,0,1206.41,0.157909,0.157632,-8.65949,1,0.015525,11,-0.00136501,-2.06251,-0.0821013,-0.718624,243.041,0.157632,
2,0,0,1,0,1206.43,0.155911,0.155631,-9.15986,1,0.0153475,11,-0.00142556,-2.03811,-0.0818194,-0.7211,258.008,0.155631,
2,0,0,1,0,1206.45,0.153913,0.153614,-9.69603,1,0.0151587,11,-0.00148945,-2.01341,-0.0834337,-0.707148,267.299,0.153614,
2,0,0,1,0,1206.47,0.151916,0.151624,-10.2309,1,0.0149592,11,-0.00155126,-1.99008,-0.0860537,-0.685619,273.842,0.151624,
2,0,0,1,0,1206.49,0.149918,0.149612,-10.7919,1,0.0147489,11,-0.0016146,-1.9669,-0.0856893,-0.688534,290.113,0.149612,
2,0,0,1,0,1206.51,0.147921,0.147655,-11.3823,1,0.014528,11,-0.00168066,-1.94377,-0.0895684,-0.658714,292.118,0.147655,
2,0,0,1,0,1206.53,0.145923,0.145634,-11.9542,1,0.0142944,11,-0.00174093,-1.92248,-0.0951345,-0.620175,289.189,0.145634,
2,0,0,1,0,1206.55,0.143926,0.143678,-12.5326,1,0.0140494,11,-0.00180065,-1.90196,-0.0990977,-0.595372,290.997,0.143678,
2,0,0,1,0,1206.57,0.141928,0.141657,-13.1113,1,0.0137928,11,-0.00185731,-1.88235,-0.106096,-0.5561,284.311,0.141657,
2,0,0,1,0,1206.59,0.13993,0.139625,-13.6847,1,0.013526,11,-0.00191073,-1.86377,-0.115251,-0.511925,272.632,0.139625,
2,0,0,1,0,1206.61,0.137933,0.137682,-14.1952,1,0.0132471,11,-0.00195442,-1.84786,-0.130263,-0.452929,250.601,0.137682,
2,0,0,1,0,1206.63,0.135935,0.135648,-14.6814,1,0.0129581,11,-0.0019915,-1.83323,-0.143864,-0.41011,234.61,0.135648,
2,0,0,1,0,1206.65,0.133938,0.133691,-15.1313,1,0.0126597,11,-0.00202293,-1.82012,-0.161906,-0.364408,214.805,0.1336915,
2,0,0,1,0,1206.67,0.13194,0.131676,-15.5347,1,0.0123545,11,-0.00204555,-1.8087,-0.190646,-0.309474,187.299,0.1316755,
2,0,0,1,0,1206.69,0.129942,0.129639,-15.8903,1,0.0120401,11,-0.00206,-1.79887,-0.227807,-0.258991,160.243,0.129639,
2,0,0,1,0,1206.71,0.127945,0.127668,-16.1769,1,0.0117192,11,-0.00206528,-1.7911,-0.296764,-0.198811,125.225,0.127668,
2,0,0,1,0,1206.73,0.125947,0.125641,-16.391,1,0.0113932,11,-0.00205938,-1.7854,-0.39903,-0.147859,94.4362,0.125641,
2,0,0,1,0,1206.75,0.12395,0.123659,-16.5555,1,0.0110652,11,-0.00204724,-1.78106,-0.640564,-0.0921064,59.3409,0.123659,
2,0,0,1,0,1206.77,0.121952,0.121679,-16.6261,1,0.0107331,11,-0.00202304,-1.77921,-4.46936,-0.013201,8.53803,0.121679,
2,0,0,1,0,1206.79,0.119955,0.119674,-16.5895,1,0.0104007,11,-0.00198533,-1.78017,1.00411,0.0587584,-37.9512,0.1196736,
2,0,0,1,0,1206.81,0.117957,0.117664,-16.4737,1,0.0100699,11,-0.00193836,-1.78321,0.456236,0.129319,-82.8737,0.117664,
2,0,0,1,0,1206.83,0.115955,0.115613,-16.253,1,0.00974235,11,-0.00187905,-1.78907,0.271727,0.21713,-137.24,0.115613,
2,0,0,1,0,1206.85,0.113962,0.113635,-15.9207,1,0.0094218,11,-0.00180914,-1.79804,0.19037,0.309923,-191.923,0.113635,
2,0,0,1,0,1206.87,0.111964,0.111628,-15.4882,1,0.00910754,11,-0.00172892,-1.81,0.148285,0.397883,-239.702,0.111628,
2,0,0,1,0,1206.89,0.109967,0.109637,-14.9625,1,0.00880289,11,-0.00164044,-1.825,0.121832,0.484274,-281.978,0.109637,
2,0,0,1,0,1206.91,0.107969,0.107646,-14.3653,1,0.00850952,11,-0.00154637,-1.84268,0.107098,0.550896,-308.291,0.107646,
2,0,0,1,0,1206.93,0.105971,0.105651,-13.7337,1,0.00822986,11,-0.00145098,-1.86221,0.0971021,0.607608,-325.05,0.105651,
2,0,0,1,0,1206.95,0.103974,0.103662,-13.0704,1,0.00796188,11,-0.0013549,-1.88371,0.0911777,0.647088,-330.01,0.103662,
2,0,0,1,0,1206.97,0.101976,0.101682,-12.4236,1,0.00770699,11,-0.00126326,-1.90575,0.0883451,0.667836,-323.688,0.101682,
2,0,0,1,0,1206.99,0.0999786,0.0997065,-11.79,1,0.00746501,11,-0.00117554,-1.92848,0.0928011,0.635769,-293.461,0.0997065,
2,0,0,1,0,1207.01,0.0979811,0.0976839,-11.2505,1,0.00723582,11,-0.00109899,-1.94883,0.100044,0.589739,-259.072,0.0976839,
2,0,0,1,0,1207.03,0.0959835,0.0956494,-10.739,1,0.00701606,11,-0.00102718,-1.96904,0.103227,0.571556,-240.123,0.0956494,
2,0,0,1,0,1207.05,0.0939859,0.0936988,-10.2935,1,0.00680583,11,-0.000964493,-1.98744,0.115503,0.51081,-205.811,0.0936988,
2,0,0,1,0,1207.07,0.0919883,0.0916693,-9.91981,1,0.00660383,11,-0.000909342,-2.0035,0.135995,0.433839,-168.526,0.0916693,
2,0,0,1,0,1207.09,0.0899907,0.0897078,-9.62096,1,0.00640938,11,-0.000863075,-2.01678,0.148923,0.396178,-148.792,0.0897078,
2,0,0,1,0,1207.11,0.0879931,0.087724,-9.33278,1,0.00621985,11,-0.000818709,-2.02999,0.166244,0.3549,-129.595,0.08772403,
2,0,0,1,0,1207.13,0.0859955,0.0856665,-9.09723,1,0.00603558,11,-0.000779328,-2.04109,0.189521,0.311311,-110.68,0.0856665,
2,0,0,1,0,1207.15,0.083998,0.0837279,-8.89048,1,0.00585569,11,-0.000744381,-2.05107,0.207713,0.284045,-98.6996,0.0837279,
2,0,0,1,0,1207.17,0.0820004,0.0817705,-8.71269,1,0.00568049,11,-0.000712441,-2.05985,0.235289,0.250755,-85.2914,0.0817705,
2,0,0,1,0,1207.19,0.0800028,0.0796514,-8.54279,1,0.00550797,11,-0.000680445,-2.0684,0.245078,0.24074,-80.3207,0.0796514,
2,0,0,1,0,1207.21,0.0780052,0.0777206,-8.3874,1,0.00533863,11,-0.000651874,-2.07637,0.243482,0.242318,-79.308,0.0777206,
2,0,0,1,0,1207.23,0.0760076,0.0757281,-8.23165,1,0.00517238,11,-0.000623367,-2.08451,0.265507,0.222216,-71.4888,0.0757281,
2,0,0,1,0,1207.25,0.07401,0.0737109,-8.10075,1,0.00501008,11,-0.000597114,-2.09147,0.260926,0.226118,-71.368,0.0737109,
2,0,0,1,0,1207.27,0.0720124,0.0717076,-7.94471,1,0.00484962,11,-0.000569696,-2.09992,0.238501,0.247379,-76.7217,0.0717076,
2,0,0,1,0,1207.29,0.0700148,0.069723,-7.79479,1,0.00469216,11,-0.000543476,-2.1082,0.233386,0.252801,-76.8723,0.069723,
2,0,0,1,0,1207.31,0.0680173,0.0677505,-7.64052,1,0.00453777,11,-0.000517649,-2.11688,0.261266,0.225823,-67.4997,0.0677505,
2,0,0,1,0,1207.33,0.0660106,0.065722,-7.52473,1,0.00438622,11,-0.00049454,-2.12351,0.265668,0.222082,-65.0792,0.065722,
2,0,0,1,0,1207.35,0.0640221,0.0637234,-7.37844,1,0.00423784,11,-0.000470179,-2.13204,0.220571,0.267488,-76.9545,0.0637234,
2,0,0,1,0,1207.37,0.0620245,0.0617715,-7.22072,1,0.00409184,11,-0.000446035,-2.14142,0.230206,0.256293,-72.3424,0.0617715,
2,0,0,1,0,1207.39,0.0600269,0.0597176,-7.08865,1,0.00394866,11,-0.000423317,-2.14944,0.260101,0.226835,-62.7948,0.0597176,
2,0,0,1,0,1207.41,0.0580361,0.0577379,-6.96743,1,0.00380873,11,-0.000402284,-2.15693,0.262437,0.224816,-61.1149,0.0577379,
2,0,0,1,0,1207.43,0.0560317,0.0557129,-6.8439,1,0.00367038,11,-0.000381293,-2.1647,0.275303,0.214309,-57.3125,0.0557129,
2,0,0,1,0,1207.45,0.0540342,0.0537473,-6.73872,1,0.00353453,11,-0.000362188,-2.17142,0.296719,0.198842,-52.2955,0.0537473,
2,0,0,1,0,1207.47,0.0520366,0.0517201,-6.6351,1,0.00340071,11,-0.000343168,-2.17815,0.298832,0.197435,-51.1259,0.05172015,
2,0,0,1,0,1207.49,0.050039,0.0497177,-6.5327,1,0.0032689,11,-0.000324791,-2.18491,0.34148,0.172778,-44.1478,0.0497177,
2,0,0,1,0,1207.51,0.0480414,0.0477573,-6.46015,1,0.00313941,11,-0.000308519,-2.18976,0.423014,0.139475,-35.1787,0.0477573,
2,0,0,1,0,1207.53,0.0460438,0.0457556,-6.39332,1,0.00301079,11,-0.00029253,-2.19427,0.452898,0.130272,-32.5105,0.0457556,
2,0,0,1,0,1207.55,0.0440462,0.0437336,-6.32934,1,0.00288354,11,-0.000276805,-2.19864,0.482925,0.122172,-30.1928,0.0437336,
2,0,0,1,0,1207.57,0.0420486,0.0417319,-6.27183,1,0.00275758,11,-0.000261736,-2.20261,0.676442,0.0872211,-21.3989,0.04173192,
2,0,0,1,0,1207.59,0.040051,0.0397359,-6.24379,1,0.00263296,11,-0.000248103,-2.20455,0.83118,0.0709834,-17.2785,0.0397359,
2,0,0,1,0,1207.61,0.0380535,0.0377218,-6.20254,1,0.00250846,11,-0.000233971,-2.20743,0.652779,0.0903828,-21.8702,0.0377218,
2,0,0,1,0,1207.63,0.0360559,0.0357553,-6.15674,1,0.00238493,11,-0.000220136,-2.21065,0.928001,0.0635775,-15.314,0.0357553,
2,0,0,1,0,1207.65,0.0340583,0.0337295,-6.14141,1,0.00226189,11,-0.000207146,-2.21173,2.87466,0.0205242,-4.92364,0.0337295,
2,0,0,1,0,1207.67,0.0320607,0.0317667,-6.1371,1,0.00213965,11,-0.000194955,-2.21204,1.77698,0.0332025,-7.93764,0.0317667,
2,0,0,1,0,1207.69,0.0300631,0.0297804,-6.11006,1,0.00201714,11,-0.00018196,-2.21395,1.69446,0.0348195,-8.31706,0.0297804,
2,0,0,1,0,1207.71,0.0280655,0.0277708,-6.10386,1,0.00189495,11,-0.000169509,-2.2144,15.948,0.00369953,-0.881924,0.0277708,
2,0,0,1,0,1207.73,0.0260679,0.0257944,-6.10654,1,0.00177274,11,-0.000157515,-2.2142,-5.50577,-0.010716,2.55484,0.0257944,
2,0,0,1,0,1207.75,0.0240704,0.0237911,-6.11403,1,0.001651,11,-0.000145459,-2.21367,-5.41727,-0.0108911,2.59779,0.0237911,
2,0,0,1,0,1207.77,0.0220728,0.0217604,-6.11702,1,0.00152862,11,-0.000133109,-2.21346,-4.36562,-0.0135147,3.22819,0.0217604,
2,0,0,1,0,1207.79,0.0200752,0.0197662,-6.12702,1,0.00140611,11,-0.000121108,-2.21275,-3.35252,-0.0175987,4.2071,0.0197662,
2,0,0,1,0,1207.81,0.0180776,0.0177512,-6.13389,1,0.0012834,11,-0.000108884,-2.21226,-1.32454,-0.0445437,10.6882,0.0177512,
2,0,0,1,0,1207.83,0.01608,0.0157827,-6.1696,1,0.00116104,11,-9.7373e-05,-2.20974,-0.987515,-0.0597459,14.3685,0.01578271,
2,0,0,1,0,1207.85,0.0140824,0.0137989,-6.19068,1,0.00103737,11,-8.54244e-05,-2.20826,-1.54322,-0.0382317,9.23281,0.0137989,
2,0,0,1,0,1207.87,0.0120848,0.0118051,-6.20632,1,0.00091339,11,-7.32662e-05,-2.20717,-1.71765,-0.0343492,8.32131,0.0118051,
2,0,0,1,0,1207.89,0.0100872,0.00977187,-6.22419,1,0.000789156,11,-6.0822e-05,-2.20592,-1.02048,-0.057816,14.0676,0.00977187,
2,0,0,1,0,1207.91,0.00809193,0.00778201,-6.26292,1,0.000664916,11,-4.87381e-05,-2.20322,-0.823471,-0.0716479,17.5019,0.00778201,
2,0,0,1,0,1207.93,0.00609208,0.00576483,-6.29432,1,0.000539212,11,-3.62857e-05,-2.20105,-1.08871,-0.0541927,13.3018,0.00576483,
2,0,0,1,0,1207.95,0.00409449,0.00380361,-6.31584,1,0.000413129,11,-2.4023e-05,-2.19957,-0.454957,-0.129683,32.178,0.00380361,
2,0,0,1,0,1207.97,0.0020969,0.00180074,-6.42188,1,0.000286231,11,-1.15642e-05,-2.19234,-0.512884,-0.115036,28.6137,0.00180074,
2,0,0,1,0,1207.99,9.14991e-05,-0.000238129,-6.43149,1,0.000157574,11,1.53153e-06,-2.19169,-1.9865,-0.0297005,7.46108,-0.000238129,
2,0,0,1,0,1208.01,-0.00189827,-0.00222119,-6.45189,1,2.92518e-05,11,1.43309e-05,-2.19031,-1.19775,-0.0492589,12.412,-0.00222119,
2,0,0,1,0,1208.03,-0.00389586,-0.00426022,-6.48141,1,-0.000100118,11,2.76122e-05,-2.18833,-0.913682,-0.0645739,16.3428,-0.00426022,
2,0,0,1,0,1208.05,-0.00589345,-0.00627434,-6.51813,1,-0.000230225,11,4.0897e-05,-2.18588,-0.900937,-0.0654874,16.649,-0.00627434,
2,0,0,1,0,1208.07,-0.00789103,-0.00821835,-6.54731,1,-0.000361008,11,5.38081e-05,-2.18394,-0.623858,-0.0945728,24.2343,-0.008218348,
2,0,0,1,0,1208.09,-0.00988862,-0.0102338,-6.61408,1,-0.000492156,11,6.76873e-05,-2.17953,-0.531861,-0.110931,28.5922,-0.0102338,
2,0,0,1,0,1208.11,-0.0118862,-0.0122202,-6.66173,1,-0.00062496,11,8.14077e-05,-2.17641,-0.725739,-0.0812965,21.1185,-0.0122202,
2,0,0,1,0,1208.13,-0.0138838,-0.0142339,-6.69856,1,-0.000758655,11,9.53467e-05,-2.17402,-0.701312,-0.084128,22.0162,-0.01423391,
2,0,0,1,0,1208.15,-0.0158814,-0.0162147,-6.74967,1,-0.000893141,11,0.000109444,-2.17072,-0.536328,-0.110007,29.0082,-0.0162147,
2,0,0,1,0,1208.17,-0.017879,-0.0182545,-6.81519,1,-0.00102826,11,0.000124408,-2.16652,-0.566356,-0.104175,27.6676,-0.0182545,
2,0,0,1,0,1208.19,-0.0198766,-0.0202438,-6.86115,1,-0.00116504,11,0.000138896,-2.1636,-0.64978,-0.0908,24.3202,-0.0202438,
2,0,0,1,0,1208.21,-0.0218741,-0.0222015,-6.91118,1,-0.00130266,11,0.000153438,-2.16045,-0.567423,-0.103979,28.0684,-0.0222015,
2,0,0,1,0,1208.23,-0.0238717,-0.0242235,-6.97285,1,-0.00144146,11,0.000168907,-2.15659,-0.489887,-0.120436,32.7933,-0.0242235,
2,0,0,1,0,1208.25,-0.0258693,-0.0262242,-7.0431,1,-0.00158092,11,0.0001847,-2.15224,-0.578479,-0.101992,27.9735,-0.02622422,
2,0,0,1,0,1208.27,-0.0278669,-0.028162,-7.08303,1,-0.00172212,11,0.000199472,-2.14978,-0.622797,-0.094734,26.2331,-0.028162,
2,0,0,1,0,1208.29,-0.0298645,-0.0302252,-7.14805,1,-0.00186441,11,0.000216051,-2.14581,-0.575995,-0.102431,28.5449,-0.0302252,
2,0,0,1,0,1208.31,-0.0318621,-0.0322033,-7.19839,1,-0.00200792,11,0.000231812,-2.14276,-0.519958,-0.113471,31.9352,-0.0322033,
2,0,0,1,0,1208.33,-0.0338597,-0.0342066,-7.2752,1,-0.00215196,11,0.00024886,-2.13815,-0.498667,-0.118315,33.5481,-0.0342066,
2,0,0,1,0,1208.35,-0.0358573,-0.0362136,-7.33293,1,-0.00229807,11,0.000265552,-2.13472,-0.524531,-0.112481,32.2215,-0.0362136,
2,0,0,1,0,1208.37,-0.0378548,-0.0382452,-7.40533,1,-0.00244558,11,0.000283218,-2.13046,-0.547554,-0.107752,31.0981,-0.0382452,
2,0,0,1,0,1208.39,-0.0398524,-0.0402241,-7.45764,1,-0.00259428,11,0.000299977,-2.1274,-0.456975,-0.12911,37.6897,-0.0402241,
2,0,0,1,0,1208.41,-0.04185,-0.042219,-7.5551,1,-0.00274348,11,0.000318969,-2.12176,-0.43871,-0.134485,39.5539,-0.042219,
2,0,0,1,0,1208.43,-0.0438476,-0.0442088,-7.61525,1,-0.00289515,11,0.000336661,-2.11832,-0.571282,-0.103277,30.6977,-0.0442088,
2,0,0,1,0,1208.45,-0.0458452,-0.0462121,-7.67768,1,-0.00304817,11,0.000354802,-2.11477,-0.505929,-0.116617,34.9723,-0.0462121,
2,0,0,1,0,1208.47,-0.0478428,-0.0481634,-7.75355,1,-0.00320245,11,0.000373437,-2.1105,-0.39458,-0.149526,45.3314,-0.0481634,
2,0,0,1,0,1208.49,-0.0498495,-0.0502205,-7.85939,1,-0.00335844,11,0.000394702,-2.10461,-0.411385,-0.143418,43.8913,-0.0502205,
2,0,0,1,0,1208.51,-0.051838,-0.0521964,-7.93057,1,-0.00351555,11,0.000413947,-2.1007,-0.504267,-0.117001,36.2118,-0.0521964,
2,0,0,1,0,1208.53,-0.0538355,-0.0541545,-8.00184,1,-0.00367476,11,0.000433336,-2.09681,-0.457338,-0.129008,40.3281,-0.0541545,
2,0,0,1,0,1208.55,-0.0558331,-0.0561454,-8.08982,1,-0.00383575,11,0.000454206,-2.09206,-0.400775,-0.147215,46.5093,-0.0561454,
2,0,0,1,0,1208.57,-0.0578216,-0.0581825,-8.18918,1,-0.00399777,11,0.000476467,-2.08676,-0.393132,-0.150077,47.9437,-0.0581825,
2,0,0,1,0,1208.59,-0.0598283,-0.0601597,-8.28229,1,-0.00416261,11,0.00049826,-2.08185,-0.359555,-0.164092,53.1167,-0.06015975,
2,0,0,1,0,1208.61,-0.0618259,-0.0621578,-8.40034,1,-0.0043294,11,0.000522147,-2.0757,-0.361785,-0.16308,53.3968,-0.0621578,
2,0,0,1,0,1208.63,-0.0638235,-0.0642028,-8.49817,1,-0.0044983,11,0.000545607,-2.07067,-0.39542,-0.149208,49.4946,-0.0642028,
2,0,0,1,0,1208.65,-0.0658211,-0.0661861,-8.59972,1,-0.00466927,11,0.000569182,-2.06552,-0.341956,-0.172537,57.9964,-0.0661861,
2,0,0,1,0,1208.67,-0.0678187,-0.0681812,-8.72891,1,-0.00484181,11,0.000595147,-2.05904,-0.314541,-0.187575,63.8808,-0.0681812,
2,0,0,1,0,1208.69,-0.0698162,-0.0701696,-8.85419,1,-0.00501766,11,0.000621294,-2.05285,-0.342633,-0.172196,59.457,-0.0701696,
2,0,0,1,0,1208.71,-0.0718138,-0.0721858,-8.96701,1,-0.00519588,11,0.00064729,-2.04735,-0.327754,-0.180013,63.077,-0.0721858,
2,0,0,1,0,1208.73,-0.0738114,-0.0741294,-9.10396,1,-0.00537659,11,0.00067487,-2.04077,-0.282215,-0.209061,74.3538,-0.0741294,
2,0,0,1,0,1208.75,-0.075809,-0.0761371,-9.26081,1,-0.00555947,11,0.000705091,-2.03335,-0.294474,-0.200358,72.3186,-0.0761371,
2,0,0,1,0,1208.77,-0.0778066,-0.0781535,-9.39497,1,-0.0057461,11,0.00073425,-2.0271,-0.301603,-0.195621,71.7939,-0.0781535,
2,0,0,1,0,1208.79,-0.0798042,-0.0801438,-9.54846,1,-0.00593543,11,0.000765249,-2.02007,-0.28447,-0.207403,77.2837,-0.0801438,
2,0,0,1,0,1208.81,-0.0818018,-0.0821332,-9.70254,1,-0.00612788,11,0.0007969,-2.01311,-0.275201,-0.214389,81.2464,-0.0821332,
2,0,0,1,0,1208.83,-0.0837994,-0.0841531,-9.8742,1,-0.00632267,11,0.000830945,-2.0055,-0.286233,-0.206125,79.322,-0.0841531,
2,0,0,1,0,1208.85,-0.0857969,-0.086137,-10.0201,1,-0.00652148,11,0.000863103,-1.99913,-0.298415,-0.197711,77.3811,-0.086137,
2,0,0,1,0,1208.87,-0.0877945,-0.088164,-10.1846,1,-0.00672346,11,0.000897911,-1.99206,-0.286241,-0.20612,81.8967,-0.08816395,
2,0,0,1,0,1208.89,-0.0897921,-0.0900814,-10.3432,1,-0.00692869,11,0.000931727,-1.98535,-0.299538,-0.19697,79.5033,-0.0900814,
2,0,0,1,0,1208.91,-0.0917897,-0.0921545,-10.5018,1,-0.00713597,11,0.00096779,-1.97874,-0.320925,-0.183843,75.3067,-0.0921545,
2,0,0,1,0,1208.93,-0.0937873,-0.0941591,-10.6502,1,-0.00734746,11,0.00100282,-1.97264,-0.338767,-0.174161,72.34,-0.0941591,
2,0,0,1,0,1208.95,-0.0957849,-0.0960747,-10.7854,1,-0.00756179,11,0.00103621,-1.96716,-0.372932,-0.158206,66.5766,-0.0960747,
2,0,0,1,0,1208.97,-0.0977825,-0.0981604,-10.9166,1,-0.0077788,11,0.00107158,-1.96191,-0.367623,-0.160491,68.4132,-0.0981604,
2,0,0,1,0,1208.99,-0.0997501,-0.100102,-11.061,1,-0.00799404,11,0.00110723,-1.95621,0.00530305,11.1257,-3857.89,-0.100102,
2,0,0,1,1,1209,-0.0987313,-0.0991439,-7.12267,1,-0.00813545,11,0.000706169,-2.14736,-0.00515214,-11.4516,2749.35,-0.0991439,
2,0,0,1,1,1209.02,-0.0967337,-0.0971588,-2.96794,1,-0.00823213,11,0.000288361,-2.52755,-0.00332465,-17.7462,1648.22,-0.0971588,
2,0,0,1,1,1209.04,-0.0947361,-0.0950817,-0.427385,1,-0.00826373,11,4.06365e-05,-3.36918,-0.0104926,-5.623,1028.17,-0.0950817,
2,1,0,1,1,1209.06,-0.0927386,-0.0930902,1.21533,1,-0.00825439,11,-0.000113135,-2.91531,0.00540482,10.9162,692.195,-0.0930902,
2,1,0,1,1,1209.08,-0.090741,-0.0911071,2.32383,1,-0.00821834,11,-0.000211718,-2.6338,0.00995687,5.92556,461.241,-0.0911071,
2,1,0,1,1,1209.1,-0.0887434,-0.0891092,3.05152,1,-0.008164,11,-0.000271918,-2.51548,0.021352,2.76321,314.279,-0.0891092,
2,1,0,1,1,1209.12,-0.0867458,-0.0870552,3.59726,1,-0.00809718,11,-0.00031316,-2.44403,0.0341802,1.72615,236.189,-0.0870552,
2,1,0,1,1,1209.14,-0.0847482,-0.085078,4.00363,1,-0.00802079,11,-0.000340621,-2.39755,0.0505964,1.16609,179.311,-0.085078,
2,1,0,1,1,1209.16,-0.0827529,-0.0831131,4.30412,1,-0.00793792,11,-0.000357729,-2.36612,0.0719038,0.820541,136.766,-0.0831131,
2,1,0,1,1,1209.18,-0.080753,-0.0810855,4.54967,1,-0.00784906,11,-0.000368912,-2.34202,0.0982553,0.600477,105.81,-0.0810855,
2,1,0,1,1,1209.2,-0.0787554,-0.079061,4.73288,1,-0.00775599,11,-0.000374186,-2.32487,0.129289,0.456343,83.9761,-0.079061,
2,1,0,1,1,1209.22,-0.0767579,-0.0770959,4.88471,1,-0.0076596,11,-0.000376591,-2.31116,0.153953,0.383235,72.9035,-0.0770959,
2,1,0,1,1,1209.24,-0.0747603,-0.0751407,5.01868,1,-0.00756041,11,-0.000377107,-2.29941,0.173302,0.340446,66.6344,-0.0751407,
2,1,0,1,1,1209.26,-0.0727627,-0.0731451,5.14796,1,-0.00745893,11,-0.000376548,-2.28836,0.227686,0.259129,51.8075,-0.0731451,
2,1,0,1,1,1209.28,-0.0707651,-0.0710907,5.2285,1,-0.00735495,11,-0.000371698,-2.28162,0.276382,0.213472,43.6191,-0.07109075,
2,1,0,1,1,1209.3,-0.0687675,-0.0691011,5.32436,1,-0.0072493,11,-0.000367919,-2.27373,0.281003,0.209962,43.5612,-0.0691011,
2,1,0,1,1,1209.32,-0.0667699,-0.0670451,5.40473,1,-0.0071419,11,-0.000362361,-2.26723,0.329371,0.179129,37.7465,-0.06704507,
2,1,0,1,1,1209.34,-0.0647723,-0.065106,5.47516,1,-0.00703338,11,-0.000356466,-2.2616,0.374014,0.157748,33.6784,-0.065106,
2,1,0,1,1,1209.36,-0.0627748,-0.0631265,5.5367,1,-0.00692319,11,-0.000349513,-2.25675,0.423205,0.139412,30.116,-0.0631265,
2,1,0,1,1,1209.38,-0.0607772,-0.0611046,5.59566,1,-0.00681173,11,-0.000341921,-2.25215,0.469465,0.125675,27.4282,-0.0611046,
2,1,0,1,1,1209.4,-0.0587796,-0.0590635,5.64814,1,-0.0066992,11,-0.000333599,-2.24809,0.584621,0.10092,22.2128,-0.0590635,
2,1,0,1,1,1209.42,-0.056782,-0.0571226,5.68412,1,-0.00658633,11,-0.000324691,-2.24534,0.668616,0.088242,19.5838,-0.0571226,
2,1,0,1,1,1209.44,-0.0547844,-0.0551209,5.72536,1,-0.00647217,11,-0.000315587,-2.2422,0.784838,0.0751747,16.7754,-0.0551209,
2,1,0,1,1,1209.46,-0.0527868,-0.0530877,5.7518,1,-0.0063573,11,-0.00030535,-2.2402,1.18696,0.0497068,11.15,-0.05308767,
2,1,0,1,1,1209.48,-0.0507892,-0.0511038,5.77015,1,-0.00624201,11,-0.000294877,-2.23881,0.809423,0.0728914,16.4557,-0.0511038,
2,1,0,1,1,1209.5,-0.0487916,-0.0490887,5.81761,1,-0.00612667,11,-0.000285579,-2.23526,0.850188,0.0693964,15.7125,-0.0490887,
2,1,0,1,1,1209.52,-0.046794,-0.0470971,5.8331,1,-0.00601002,11,-0.000274722,-2.2341,3.97344,0.0148486,3.37512,-0.0470971,
2,1,0,1,1,1209.54,-0.0447965,-0.0451545,5.83089,1,-0.0058933,11,-0.000263291,-2.23427,3.1706,0.0186085,4.24229,-0.0451545,
2,1,0,1,1,1209.56,-0.0427989,-0.04313,5.84993,1,-0.00577639,11,-0.000252307,-2.23285,1.16631,0.0505869,11.5576,-0.04313,
2,1,0,1,1,1209.58,-0.0408013,-0.0411199,5.87752,1,-0.0056597,11,-0.000241683,-2.23081,5.7,0.0103509,2.36505,-0.0411199,
2,1,0,1,1,1209.6,-0.0388037,-0.0391489,5.85935,1,-0.00554218,11,-0.000229387,-2.23215,-6.50487,-0.00907013,-2.07903,-0.0391489,
2,1,0,1,1,1209.62,-0.0368061,-0.0370858,5.86913,1,-0.00542479,11,-0.000217662,-2.23143,3.01641,0.0195597,4.47966,-0.03708585,
2,1,0,1,1,1209.64,-0.0348085,-0.0351066,5.87746,1,-0.00530721,11,-0.000206337,-2.23081,2.71789,0.021708,4.9808,-0.0351066,
2,1,0,1,1,1209.66,-0.0328109,-0.0330544,5.88921,1,-0.00519014,11,-0.000194665,-2.22994,-33.6039,-0.00175575,-0.402677,-0.0330544,
2,1,0,1,1,1209.68,-0.0308134,-0.0311696,5.87587,1,-0.00507247,11,-0.000183148,-2.23093,-3.19004,-0.0184951,-4.24483,-0.0311696,
2,1,0,1,1,1209.7,-0.0288158,-0.0291225,5.87252,1,-0.00495491,11,-0.000171022,-2.23118,-4.52992,-0.0130245,-2.98368,-0.0291225,
2,1,0,1,1,1209.72,-0.0268182,-0.0271374,5.86384,1,-0.00483747,11,-0.000159129,-2.23182,-3.84178,-0.0153575,-3.5155,-0.0271374,
2,1,0,1,1,1209.74,-0.0248138,-0.025118,5.85844,1,-0.0047203,11,-0.000147153,-2.23222,-6.09147,-0.00968567,-2.21488,-0.025118,
2,1,0,1,1,1209.76,-0.022823,-0.0231841,5.85508,1,-0.0046036,11,-0.000135745,-2.23247,-3.55056,-0.0166171,-3.79441,-0.0231841,
2,1,0,1,1,1209.78,-0.0208254,-0.0211645,5.84344,1,-0.00448648,11,-0.000123674,-2.23333,-1.50208,-0.0392789,-8.94763,-0.0211645,
2,1,0,1,1,1209.8,-0.0188278,-0.0191338,5.81884,1,-0.00436978,11,-0.000111337,-2.23516,-1.71275,-0.0344475,-7.83464,-0.0191338,
2,1,0,1,1,1209.82,-0.0168393,-0.0171504,5.81199,1,-0.00425398,11,-9.96778e-05,-2.23568,-6.25239,-0.00943639,-2.14135,-0.0171504,
2,1,0,1,1,1209.84,-0.0148327,-0.0151605,5.81033,1,-0.0041375,11,-8.80877e-05,-2.2358,-2.10911,-0.0279738,-6.33124,-0.0151605,
2,1,0,1,1,1209.86,-0.0128351,-0.0131351,5.78657,1,-0.00402147,11,-7.60071e-05,-2.23758,-1.41616,-0.041662,-9.41662,-0.0131351,
2,1,0,1,1,1209.88,-0.0108375,-0.0111656,5.77272,1,-0.00390582,11,-6.4456e-05,-2.23862,-2.20845,-0.0267156,-6.02067,-0.0111656,
2,1,0,1,1,1209.9,-0.00883989,-0.00913412,5.76248,1,-0.00379032,11,-5.26352e-05,-2.23939,-1.89605,-0.0311173,-6.9934,-0.009134125,
2,1,0,1,1,1209.92,-0.0068423,-0.00715195,5.74465,1,-0.00367557,11,-4.10854e-05,-2.24074,-1.56888,-0.0376064,-8.43256,-0.00715195,
2,1,0,1,1,1209.94,-0.00484471,-0.00513159,5.72873,1,-0.00356077,11,-2.93975e-05,-2.24194,-1.58816,-0.0371499,-8.30486,-0.00513159,
2,1,0,1,1,1209.96,-0.00284713,-0.00317141,5.71159,1,-0.0034463,11,-1.81138e-05,-2.24324,-1.22489,-0.0481677,-10.7291,-0.00317141,
2,1,0,1,1,1209.98,-0.000849538,-0.00117263,5.68625,1,-0.00333223,11,-6.6679e-06,-2.24517, , , ,-0.001172635,
2,1,0,1,1,1209.99,-2.55332e-05,-0.000344411,5.68669,1,-0.00328625,11,-1.95856e-06,-2.24514, , , ,-0.000344411,