File: Figure_codes/Fig_S11/20230328_2-12_003_DPV+EIS_pH12_02_CV_C01.csv
mode,ox/red,error,"control changes","counter inc.",time/s,control/V,Ewe/V,<I>/mA,"cycle number",(Q-Qo)/C,"I Range",P/W,EC-Lab,ASCII,FILE,,,,,,,,,
2,0,0,1,0,30.0102,2.92817e-06,-0.000342359,-0.214516,1,0.0000000E+000,10,7.34415e-08,Nb,header,lines,:,57,,,,,,,
2,0,0,1,0,30.0652,0.000271739,-4.9687e-05,-0.101206,1,-5.57333e-06,10,5.02864e-09,,,,,,,,,,,,
2,0,0,1,0,30.1651,0.000771244,0.000406404,-0.00758158,1,-9.29723e-06,10,-3.08118e-09,Cyclic,Voltammetry,,,,,,,,,,
2,1,0,0,0,30.265,0.00127053,0.000929068,0.0345746,1,-6.44245e-06,10,3.21222e-08,,,,,,,,,,,,
2,1,0,1,0,30.3649,0.00177037,0.00143206,0.0585798,1,-4.02807e-07,10,8.38898e-08,Run,on,channel,:,1,(SN,65296),,,,,
2,1,0,1,0,30.4647,0.00226909,0.00196387,0.0813733,1,7.91003e-06,10,1.59806e-07,User,:,,,,,,,,,,
2,1,0,0,0,30.5646,0.00276871,0.00247302,0.0879276,1,1.78194e-05,10,2.17447e-07,CE,vs.,WE,compliance,from,-10,V,to,10,V,,
2,1,0,1,0,30.6645,0.00326822,0.00298547,0.0920571,1,2.81469e-05,10,2.74833e-07,Electrode,connection,:,standard,,,,,,,,
2,1,0,1,0,30.7644,0.0037675,0.00344541,0.0949122,1,3.88077e-05,10,3.27012e-07,Potential,control,:,Ewe,,,,,,,,
2,1,0,0,0,30.8642,0.00426689,0.00400213,0.0994856,1,4.98437e-05,10,3.98154e-07,Ewe,ctrl,range,:,min,=,-1.00,V,max,=,1.00,V
2,1,0,1,0,30.9641,0.00476607,0.00445674,0.101784,1,6.12589e-05,10,4.53624e-07,Safety,Limits,:,,,,,,,,,
2,1,0,1,0,31.064,0.00526568,0.00494589,0.106002,1,7.30325e-05,10,5.24272e-07,,Do,not,start,on,E,overload,,,,,
2,1,0,1,0,31.1639,0.0057653,0.00545933,0.107782,1,8.50413e-05,10,5.88419e-07,Acquisition,started,on,:,03/28/2023,18:34:47.663,,,,,,
2,1,0,0,0,31.2638,0.00626447,0.00597554,0.11212,1,9.73528e-05,10,6.6998e-07,Loaded,Setting,File,:,NONE,,,,,,,
2,1,0,1,0,31.3636,0.00676387,0.00643364,0.114724,1,0.00010999,10,7.38091e-07,Saved,on,:,,,,,,,,,
2,1,0,1,0,31.4635,0.00726315,0.00696054,0.117734,1,0.000122936,10,8.19491e-07,,File,:,20230328_2-12_003_DPV+EIS_pH12_02_CV_C01.mpr,,,,,,,,
2,1,0,0,0,31.5634,0.00776265,0.00744421,0.119745,1,0.000136163,10,8.9141e-07,,Directory,:,C:\Users\NakamuraT\Documents\EC-Lab\Data\Yatsuzuka\20230328_2-12_EIS_DPV_pH\,,,,,,,,
2,1,0,1,0,31.6633,0.00826227,0.0079693,0.12258,1,0.000149646,10,9.76876e-07,,Host,:,192.109.209.100,,,,,,,,
2,1,0,1,0,31.7631,0.008761,0.00847339,0.126082,1,0.000163398,10,1.06834e-06,Device,:,SP-50e,(SN,.003219),,,,,,,
2,1,0,0,0,31.863,0.00926084,0.0089521,0.126855,1,0.000177346,10,1.13562e-06,Address,:,192.109.209.128,,,,,,,,,
2,1,0,1,0,31.9629,0.00976012,0.00949815,0.129917,1,0.000191489,10,1.23397e-06,EC-Lab,for,windows,v11.43,(software),,,,,,,
2,1,0,1,0,32.0628,0.0102596,0.0099754,0.131153,1,0.000205878,10,1.3083e-06,Internet,server,v11.40,(firmware),,,,,,,,
2,1,0,1,0,32.1627,0.0107594,0.0104752,0.132702,1,0.000220422,10,1.39008e-06,Command,interpretor,v11.40,(firmware),,,,,,,,
2,1,0,1,0,32.2625,0.011258,0.0109973,0.13524,1,0.000235115,10,1.48727e-06,Electrode,material,:,,,,,,,,,
2,1,0,1,0,32.3624,0.0117578,0.011443,0.135228,1,0.00024998,10,1.54741e-06,Initial,state,:,,,,,,,,,
2,1,0,1,0,32.4623,0.0122572,0.0119572,0.136908,1,0.000264929,10,1.63704e-06,Electrolyte,:,,,,,,,,,,
2,1,0,0,0,32.5622,0.0127566,0.0124843,0.139314,1,0.000280105,10,1.73924e-06,Comments,:,,,,,,,,,,
2,1,0,1,0,32.6621,0.0132563,0.0129395,0.141072,1,0.000295456,10,1.8254e-06,Electrode,surface,area,:,0.001,cm2,,,,,,
2,1,0,1,0,32.7619,0.0137551,0.0134531,0.143422,1,0.000310975,10,1.92947e-06,Characteristic,mass,:,0.001,g,,,,,,,
2,1,0,0,0,32.8618,0.0142548,0.0139466,0.144377,1,0.000326673,10,2.01357e-06,Equivalent,Weight,:,0.000,g/eq.,,,,,,,
2,1,0,1,0,32.9617,0.0147542,0.0144599,0.145369,1,0.000342548,10,2.10202e-06,Density,:,0.000,g/cm3,,,,,,,,
2,1,0,1,0,33.0616,0.0152536,0.0149169,0.149075,1,0.000358656,10,2.22374e-06,Volume,(V),:,0.001,cm3,,,,,,,
2,1,0,1,0,33.1615,0.0157533,0.0154069,0.148598,1,0.000374914,10,2.28943e-06,Cycle,Definition,:,Charge/Discharge,alternance,,,,,,,
2,1,0,1,0,33.2613,0.016252,0.0159069,0.150167,1,0.000391202,10,2.3887e-06,Ei,(V),0.000,,,,,,,,,
2,1,0,0,0,33.8606,0.0192487,0.0189602,0.157223,1,0.000491079,10,2.98098e-06,Step,percent,50,,,,,,,,,
2,1,0,1,0,34.4599,0.0222452,0.0219496,0.163505,1,0.000595004,10,3.58887e-06,I,Range,max,Unset,,,,,,,,
2,1,0,1,0,35.0592,0.0252415,0.0249165,0.167399,1,0.000702218,10,4.17101e-06,Reverse,Scan,0,,,,,,,,,
2,1,0,1,0,35.6584,0.0282378,0.0279419,0.172919,1,0.000812642,10,4.83168e-06,,,,,,,,,,,,
2,1,0,1,0,36.2577,0.0312342,0.0308706,0.175233,1,0.000925757,10,5.40954e-06,,,,,,,,,,,,
2,1,0,0,0,36.857,0.0342306,0.0339257,0.180859,1,0.00104106,10,6.13577e-06,,,,,,,,,,,,
2,1,0,1,0,37.4563,0.0372274,0.0369272,0.184504,1,0.00115865,10,6.81322e-06,,,,,,,,,,,,
2,1,0,1,0,38.0555,0.0402231,0.0399115,0.188601,1,0.00127769,10,7.52736e-06,,,,,,,,,,,,
2,1,0,1,0,38.6548,0.0432197,0.0429349,0.191262,1,0.00139938,10,8.21183e-06,,,,,,,,,,,,
2,1,0,1,0,39.2541,0.0462162,0.0458925,0.193885,1,0.00152218,10,8.89787e-06,,,,,,,,,,,,
2,1,0,1,0,39.8533,0.0492119,0.0489227,0.196816,1,0.00164678,10,9.62877e-06,,,,,,,,,,,,
2,1,0,0,0,40.4526,0.0522088,0.0519081,0.198033,1,0.00177246,10,1.02795e-05,,,,,,,,,,,,
2,1,0,1,0,41.0519,0.0552052,0.0549281,0.201511,1,0.00190008,10,1.10686e-05,,,,,,,,,,,,
2,1,0,1,0,41.6512,0.0582015,0.0579132,0.20332,1,0.00202867,10,1.17749e-05,,,,,,,,,,,,
2,1,0,1,0,42.2504,0.0611979,0.0609014,0.205973,1,0.00215878,10,1.2544e-05,,,,,,,,,,,,
2,1,0,1,0,42.8497,0.0641941,0.0639395,0.208679,1,0.00228999,10,1.33428e-05,,,,,,,,,,,,
2,1,0,0,0,43.449,0.0671906,0.0669022,0.210691,1,0.00242293,10,1.40957e-05,,,,,,,,,,,,
2,1,0,1,0,44.0483,0.0701873,0.0698897,0.213054,1,0.00255688,10,1.48903e-05,,,,,,,,,,,,
2,1,0,1,0,44.6475,0.073183,0.0729006,0.214737,1,0.00269234,10,1.56545e-05,,,,,,,,,,,,
2,1,0,1,0,45.2468,0.0761797,0.0758606,0.215911,1,0.00282914,10,1.63792e-05,,,,,,,,,,,,
2,1,0,1,0,45.8461,0.0791763,0.0788925,0.221515,1,0.00296757,10,1.74759e-05,,,,,,,,,,,,
2,1,0,1,0,46.4453,0.082172,0.0818802,0.220697,1,0.00310777,10,1.80707e-05,,,,,,,,,,,,
2,1,0,0,0,47.0446,0.0851688,0.0848581,0.226001,1,0.0032495,10,1.9178e-05,,,,,,,,,,,,
2,1,0,1,0,47.6439,0.0881651,0.0878579,0.2304,1,0.00339366,10,2.02425e-05,,,,,,,,,,,,
2,1,0,1,0,48.2432,0.0911615,0.0908303,0.233093,1,0.00353961,10,2.11719e-05,,,,,,,,,,,,
2,1,0,1,0,48.8425,0.0941583,0.0938593,0.238407,1,0.00368884,10,2.23767e-05,,,,,,,,,,,,
2,1,0,1,0,49.4417,0.097154,0.096834,0.24318,1,0.00384036,10,2.35481e-05,,,,,,,,,,,,
2,1,0,0,0,50.041,0.100151,0.0998151,0.25011,1,0.00399594,10,2.49647e-05,,,,,,,,,,,,
2,1,0,1,0,50.6403,0.103147,0.102866,0.257159,1,0.00415489,10,2.64529e-05,,,,,,,,,,,,
2,1,0,1,0,51.2395,0.106143,0.105826,0.265147,1,0.0043189,10,2.80595e-05,,,,,,,,,,,,
2,1,0,1,0,51.8388,0.10914,0.108875,0.273751,1,0.00448754,10,2.98047e-05,,,,,,,,,,,,
2,1,0,1,0,52.4381,0.112136,0.111835,0.284507,1,0.00466225,10,3.18178e-05,,,,,,,,,,,,
2,1,0,0,0,53.0374,0.115132,0.114811,0.295489,1,0.00484287,10,3.39255e-05,,,,,,,,,,,,
2,1,0,0,0,53.6366,0.118129,0.117843,0.308262,1,0.0050309,10,3.63266e-05,,,,,,,,,,,,
2,1,0,1,0,54.2359,0.121125,0.120811,0.31942,1,0.00522646,10,3.85895e-05,,,,,,,,,,,,
2,1,0,1,0,54.8352,0.124122,0.123792,0.335276,1,0.00543019,10,4.15045e-05,,,,,,,,,,,,
2,1,0,1,0,55.4345,0.127118,0.126799,0.348159,1,0.00564276,10,4.41462e-05,,,,,,,,,,,,
2,1,0,1,0,56.0337,0.130114,0.129783,0.36832,1,0.00586467,10,4.78017e-05,,,,,,,,,,,,
2,1,0,0,0,56.633,0.133111,0.132797,0.383616,1,0.00609721,10,5.09431e-05,,,,,,,,,,,,
2,1,0,1,0,57.2323,0.136107,0.135788,0.401336,1,0.00633983,10,5.44965e-05,,,,,,,,,,,,
2,1,0,1,0,57.8315,0.139103,0.138816,0.422062,1,0.00659426,10,5.8589e-05,,,,,,,,,,,,
2,1,0,1,0,58.4308,0.1421,0.141821,0.442327,1,0.00686006,10,6.27313e-05,,,,,,,,,,,,
2,1,0,1,0,59.0301,0.145096,0.144853,0.46552,1,0.00713964,10,6.74319e-05,,,,,,,,,,,,
2,1,0,0,0,59.6294,0.148092,0.14779,0.489588,1,0.00743272,10,7.23562e-05,,,,,,,,,,,,
2,1,0,0,0,60.2286,0.151089,0.150795,0.52133,1,0.00774294,10,7.8614e-05,,,,,,,,,,,,
2,1,0,1,0,60.8279,0.154085,0.153761,0.554195,1,0.00807163,10,8.52136e-05,,,,,,,,,,,,
2,1,0,1,0,61.4272,0.157082,0.156764,0.596071,1,0.00842372,10,9.34427e-05,,,,,,,,,,,,
2,1,0,1,0,62.0265,0.160078,0.159796,0.648762,1,0.00880378,10,0.00010367,,,,,,,,,,,,
2,1,0,1,0,62.6257,0.163074,0.162781,0.709807,1,0.00921781,10,0.000115543,,,,,,,,,,,,
2,1,0,0,0,63.225,0.166071,0.165738,0.779081,1,0.00967145,10,0.000129124,,,,,,,,,,,,
2,1,0,1,0,63.8243,0.169067,0.16876,0.858669,1,0.0101696,10,0.000144909,,,,,,,,,,,,
2,1,0,1,0,64.4236,0.172063,0.171784,0.934967,1,0.0107158,10,0.000160612,,,,,,,,,,,,
2,1,0,1,0,65.0228,0.17506,0.174761,1.01516,1,0.0113083,10,0.000177411,,,,,,,,,,,,
2,1,0,1,0,65.6221,0.178056,0.177767,1.08218,1,0.0119453,10,0.000192376,,,,,,,,,,,,
2,1,0,0,0,66.2214,0.181053,0.180774,1.13729,1,0.0126192,10,0.000205593,,,,,,,,,,,,
2,1,0,1,0,66.8207,0.184049,0.183764,1.17858,1,0.0133225,10,0.00021658,,,,,,,,,,,,
2,1,0,1,0,67.4199,0.187045,0.186733,1.19881,1,0.0140426,10,0.000223859,,,,,,,,,,,,
2,1,0,1,0,68.0192,0.190042,0.189749,1.19755,1,0.0147696,10,0.000227235,,,,,,,,,,,,
2,1,0,1,0,68.6185,0.193038,0.192724,1.17104,1,0.0154878,10,0.000225687,,,,,,,,,,,,
2,1,0,1,0,69.2177,0.196034,0.195751,1.12081,1,0.0161842,10,0.000219399,,,,,,,,,,,,
2,1,0,0,0,69.817,0.199031,0.19874,1.04539,1,0.0168415,10,0.00020776,,,,,,,,,,,,
2,1,0,1,0,70.4163,0.202027,0.201739,0.946319,1,0.0174468,10,0.00019091,,,,,,,,,,,,
2,1,0,1,0,71.0156,0.205023,0.20474,0.834469,1,0.0179882,10,0.000170849,,,,,,,,,,,,
2,1,0,1,0,71.6148,0.20802,0.207725,0.729008,1,0.0184641,10,0.000151433,,,,,,,,,,,,
2,1,0,1,0,72.2141,0.211016,0.210694,0.630429,1,0.0188774,10,0.000132828,,,,,,,,,,,,
2,1,0,0,0,72.8134,0.214012,0.213717,0.553039,1,0.0192382,10,0.000118194,,,,,,,,,,,,
2,1,0,1,0,73.4127,0.217009,0.216684,0.490692,1,0.0195576,10,0.000106325,,,,,,,,,,,,
2,1,0,1,0,74.0119,0.220005,0.219723,0.444629,1,0.0198445,10,9.76953e-05,,,,,,,,,,,,
2,1,0,1,0,74.6112,0.223002,0.222715,0.402051,1,0.0201054,10,8.95428e-05,,,,,,,,,,,,
2,1,0,1,0,75.2105,0.225998,0.225729,0.373103,1,0.0203448,10,8.42202e-05,,,,,,,,,,,,
2,1,0,1,0,75.8097,0.228994,0.228753,0.346851,1,0.0205672,10,7.9343e-05,,,,,,,,,,,,
2,1,0,0,0,76.409,0.231991,0.231667,0.325422,1,0.0207751,10,7.53896e-05,,,,,,,,,,,,
2,1,0,1,0,77.0083,0.234987,0.234708,0.308408,1,0.0209718,10,7.23859e-05,,,,,,,,,,,,
2,1,0,1,0,77.6076,0.237983,0.237696,0.293172,1,0.0211585,10,6.96856e-05,,,,,,,,,,,,
2,1,0,1,0,78.2069,0.24098,0.240691,0.280863,1,0.0213373,10,6.76012e-05,,,,,,,,,,,,
2,1,0,1,0,78.8061,0.243976,0.243704,0.270599,1,0.0215088,10,6.5946e-05,,,,,,,,,,,,
2,1,0,0,0,79.4054,0.246973,0.246668,0.260033,1,0.0216747,10,6.41418e-05,,,,,,,,,,,,
2,1,0,1,0,80.0047,0.249969,0.249695,0.252466,1,0.021835,10,6.30397e-05,,,,,,,,,,,,
2,1,0,1,0,80.6039,0.252965,0.252647,0.245934,1,0.0219912,10,6.21346e-05,,,,,,,,,,,,
2,1,0,1,0,81.2032,0.255962,0.255714,0.240801,1,0.0221434,10,6.15761e-05,,,,,,,,,,,,
2,1,0,1,0,81.8025,0.258958,0.258666,0.236618,1,0.0222925,10,6.1205e-05,,,,,,,,,,,,
2,1,0,0,0,82.4018,0.261954,0.261662,0.23031,1,0.0224384,10,6.02634e-05,,,,,,,,,,,,
2,1,0,0,0,83.001,0.264951,0.264671,0.226925,1,0.0225819,10,6.00605e-05,,,,,,,,,,,,
2,1,0,1,0,83.6003,0.267947,0.267663,0.222919,1,0.0227229,10,5.96671e-05,,,,,,,,,,,,
2,1,0,1,0,84.1996,0.270943,0.270684,0.222111,1,0.0228619,10,6.01219e-05,,,,,,,,,,,,
2,1,0,1,0,84.7989,0.27394,0.27364,0.216716,1,0.0229993,10,5.9302e-05,,,,,,,,,,,,
2,1,0,1,0,85.3981,0.276936,0.276631,0.214576,1,0.0231349,10,5.93584e-05,,,,,,,,,,,,
2,1,0,0,0,85.9974,0.279933,0.279665,0.211469,1,0.0232691,10,5.91407e-05,,,,,,,,,,,,
2,1,0,1,0,86.5967,0.282929,0.282637,0.209927,1,0.0234014,10,5.93332e-05,,,,,,,,,,,,
2,1,0,1,0,87.1959,0.285925,0.285623,0.208669,1,0.0235329,10,5.96007e-05,,,,,,,,,,,,
2,1,0,1,0,87.7952,0.288922,0.288617,0.206368,1,0.023663,10,5.95614e-05,,,,,,,,,,,,
2,1,0,1,0,88.3945,0.291918,0.291632,0.205177,1,0.0237924,10,5.98362e-05,,,,,,,,,,,,
2,1,0,0,0,88.9938,0.294914,0.294644,0.203749,1,0.0239204,10,6.00333e-05,,,,,,,,,,,,
2,1,0,0,0,89.593,0.297911,0.297623,0.20231,1,0.024048,10,6.02123e-05,,,,,,,,,,,,
2,1,0,1,0,90.1923,0.300907,0.300607,0.201026,1,0.0241743,10,6.04298e-05,,,,,,,,,,,,
2,1,0,1,0,90.7916,0.303904,0.303622,0.200271,1,0.0243002,10,6.08067e-05,,,,,,,,,,,,
2,1,0,1,0,91.3909,0.3069,0.306604,0.198762,1,0.0244252,10,6.09414e-05,,,,,,,,,,,,
2,1,0,1,0,91.9901,0.309896,0.309636,0.19812,1,0.0245498,10,6.13451e-05,,,,,,,,,,,,
2,1,0,0,0,92.5894,0.312893,0.312621,0.196189,1,0.0246733,10,6.13326e-05,,,,,,,,,,,,
2,1,0,1,0,93.1887,0.315889,0.315633,0.195763,1,0.0247964,10,6.17892e-05,,,,,,,,,,,,
2,1,0,1,0,93.788,0.318885,0.318623,0.193993,1,0.0249191,10,6.18106e-05,,,,,,,,,,,,
2,1,0,1,0,94.3872,0.321882,0.321635,0.194727,1,0.0250411,10,6.26309e-05,,,,,,,,,,,,
2,1,0,1,0,94.9865,0.324878,0.324572,0.193087,1,0.0251627,10,6.26706e-05,,,,,,,,,,,,
2,1,0,0,0,95.5858,0.327874,0.327581,0.192699,1,0.0252837,10,6.31246e-05,,,,,,,,,,,,
2,1,0,1,0,96.1851,0.330871,0.330578,0.19209,1,0.0254046,10,6.35006e-05,,,,,,,,,,,,
2,1,0,1,0,96.7843,0.333867,0.333553,0.190505,1,0.0255245,10,6.35435e-05,,,,,,,,,,,,
2,1,0,1,0,97.3836,0.336864,0.336605,0.189822,1,0.0256442,10,6.38951e-05,,,,,,,,,,,,
2,1,0,1,0,97.9829,0.33986,0.339572,0.189779,1,0.0257634,10,6.44437e-05,,,,,,,,,,,,
2,1,0,1,0,98.5821,0.342856,0.34257,0.18955,1,0.0258823,10,6.4934e-05,,,,,,,,,,,,
2,1,0,0,0,99.1814,0.345853,0.345597,0.188379,1,0.0260007,10,6.51034e-05,,,,,,,,,,,,
2,1,0,1,0,99.7807,0.348849,0.348554,0.188602,1,0.0261191,10,6.5738e-05,,,,,,,,,,,,
2,1,0,1,0,100.38,0.351845,0.351607,0.1884,1,0.0262369,10,6.62427e-05,,,,,,,,,,,,
2,1,0,1,0,100.979,0.354842,0.354578,0.18789,1,0.0263545,10,6.66215e-05,,,,,,,,,,,,
2,1,0,1,0,101.578,0.357838,0.357561,0.185988,1,0.0264714,10,6.65019e-05,,,,,,,,,,,,
2,1,0,0,0,102.178,0.360834,0.360582,0.186511,1,0.0265882,10,6.72525e-05,,,,,,,,,,,,
2,1,0,1,0,102.777,0.363831,0.363568,0.185677,1,0.0267047,10,6.75063e-05,,,,,,,,,,,,
2,1,0,1,0,103.376,0.366827,0.366557,0.186185,1,0.0268209,10,6.82473e-05,,,,,,,,,,,,
2,1,0,1,0,103.976,0.369824,0.369533,0.183779,1,0.0269366,10,6.79122e-05,,,,,,,,,,,,
2,1,0,1,0,104.575,0.37282,0.372539,0.184053,1,0.0270518,10,6.85668e-05,,,,,,,,,,,,
2,1,0,1,0,105.174,0.375816,0.375565,0.183632,1,0.027167,10,6.89657e-05,,,,,,,,,,,,
2,1,0,0,0,105.773,0.378813,0.37852,0.183371,1,0.0272816,10,6.94094e-05,,,,,,,,,,,,
2,1,0,1,0,106.373,0.381809,0.381553,0.183043,1,0.027396,10,6.98406e-05,,,,,,,,,,,,
2,1,0,1,0,106.972,0.384805,0.384532,0.182119,1,0.02751,10,7.00307e-05,,,,,,,,,,,,
2,1,0,1,0,107.571,0.387802,0.38758,0.183185,1,0.0276243,10,7.09989e-05,,,,,,,,,,,,
2,1,0,1,0,108.17,0.390798,0.3905,0.181066,1,0.027738,10,7.07062e-05,,,,,,,,,,,,
2,1,0,0,0,108.77,0.393794,0.393518,0.181524,1,0.0278515,10,7.14331e-05,,,,,,,,,,,,
2,1,0,1,0,109.369,0.396791,0.396551,0.180468,1,0.0279648,10,7.15647e-05,,,,,,,,,,,,
2,1,0,1,0,109.968,0.399787,0.399472,0.180154,1,0.0280781,10,7.19663e-05,,,,,,,,,,,,
2,1,0,1,0,110.568,0.402784,0.402543,0.180662,1,0.028191,10,7.27241e-05,,,,,,,,,,,,
2,1,0,1,0,111.167,0.40578,0.405503,0.181218,1,0.0283042,10,7.34846e-05,,,,,,,,,,,,
2,1,0,0,0,111.766,0.408776,0.408458,0.180018,1,0.0284169,10,7.35299e-05,,,,,,,,,,,,
2,1,0,0,0,112.365,0.411773,0.41146,0.181787,1,0.0285296,10,7.47981e-05,,,,,,,,,,,,
2,1,0,1,0,112.965,0.414769,0.414468,0.178648,1,0.0286421,10,7.40441e-05,,,,,,,,,,,,
2,1,0,1,0,113.564,0.417765,0.417513,0.179903,1,0.0287544,10,7.5112e-05,,,,,,,,,,,,
2,1,0,1,0,114.163,0.420762,0.420453,0.17989,1,0.0288667,10,7.56352e-05,,,,,,,,,,,,
2,1,0,1,0,114.762,0.423758,0.423499,0.179841,1,0.0289789,10,7.61625e-05,,,,,,,,,,,,
2,1,0,0,0,115.362,0.426755,0.426473,0.18033,1,0.0290912,10,7.69061e-05,,,,,,,,,,,,
2,1,0,1,0,115.961,0.429751,0.429486,0.179945,1,0.0292031,10,7.72838e-05,,,,,,,,,,,,
2,1,0,1,0,116.56,0.432747,0.432457,0.179212,1,0.0293149,10,7.75015e-05,,,,,,,,,,,,
2,1,0,1,0,117.16,0.435744,0.435423,0.178799,1,0.0294264,10,7.78533e-05,,,,,,,,,,,,
2,1,0,1,0,117.759,0.43874,0.438451,0.179274,1,0.0295381,10,7.86027e-05,,,,,,,,,,,,
2,1,0,0,0,118.358,0.441736,0.441497,0.178674,1,0.0296494,10,7.88841e-05,,,,,,,,,,,,
2,1,0,1,0,118.957,0.444733,0.444469,0.178522,1,0.0297606,10,7.93473e-05,,,,,,,,,,,,
2,1,0,1,0,119.557,0.447729,0.447423,0.178743,1,0.0298717,10,7.99738e-05,,,,,,,,,,,,
2,1,0,1,0,120.156,0.450725,0.450462,0.178933,1,0.0299831,10,8.06026e-05,,,,,,,,,,,,
2,1,0,1,0,120.755,0.453722,0.453456,0.178866,1,0.0300941,10,8.11079e-05,,,,,,,,,,,,
2,1,0,1,0,121.354,0.456718,0.456485,0.178923,1,0.0302054,10,8.16758e-05,,,,,,,,,,,,
2,1,0,0,0,121.954,0.459715,0.459431,0.177458,1,0.0303165,10,8.15296e-05,,,,,,,,,,,,
2,1,0,1,0,122.553,0.462711,0.462426,0.180167,1,0.0304276,10,8.33138e-05,,,,,,,,,,,,
2,1,0,1,0,123.152,0.465707,0.465446,0.177988,1,0.0305391,10,8.28439e-05,,,,,,,,,,,,
2,1,0,1,0,123.752,0.468704,0.468422,0.178855,1,0.0306503,10,8.37795e-05,,,,,,,,,,,,
2,1,0,1,0,124.351,0.4717,0.471425,0.179602,1,0.030762,10,8.46687e-05,,,,,,,,,,,,
2,1,0,0,0,124.95,0.474696,0.474434,0.180451,1,0.0308735,10,8.56122e-05,,,,,,,,,,,,
2,1,0,1,0,125.549,0.477693,0.477397,0.180984,1,0.0309855,10,8.6401e-05,,,,,,,,,,,,
2,1,0,1,0,126.149,0.480689,0.480394,0.180978,1,0.0310973,10,8.69408e-05,,,,,,,,,,,,
2,1,0,1,0,126.748,0.483685,0.483411,0.180389,1,0.0312095,10,8.72021e-05,,,,,,,,,,,,
2,1,0,1,0,127.347,0.486682,0.486389,0.181822,1,0.0313217,10,8.84363e-05,,,,,,,,,,,,
2,1,0,1,0,127.946,0.489678,0.489427,0.182019,1,0.0314343,10,8.90849e-05,,,,,,,,,,,,
2,1,0,0,0,128.546,0.492675,0.492385,0.181698,1,0.0315471,10,8.94655e-05,,,,,,,,,,,,
2,1,0,1,0,129.145,0.495671,0.495438,0.182822,1,0.0316603,10,9.0577e-05,,,,,,,,,,,,
2,1,0,1,0,129.744,0.498667,0.49841,0.183889,1,0.0317738,10,9.16521e-05,,,,,,,,,,,,
2,1,0,1,0,130.344,0.501664,0.501348,0.184562,1,0.0318876,10,9.25295e-05,,,,,,,,,,,,
2,1,0,1,0,130.943,0.50466,0.504404,0.183866,1,0.0320017,10,9.27427e-05,,,,,,,,,,,,
2,1,0,0,0,131.542,0.507656,0.507425,0.185079,1,0.0321162,10,9.39134e-05,,,,,,,,,,,,
2,1,0,1,0,132.141,0.510653,0.510379,0.185062,1,0.032231,10,9.44517e-05,,,,,,,,,,,,
2,1,0,1,0,132.741,0.513649,0.513363,0.187147,1,0.0323462,10,9.60742e-05,,,,,,,,,,,,
2,1,0,1,0,133.34,0.516646,0.516362,0.187104,1,0.0324617,10,9.66136e-05,,,,,,,,,,,,
2,1,0,1,0,133.939,0.519642,0.519392,0.188185,1,0.0325778,10,9.77418e-05,,,,,,,,,,,,
2,1,0,1,0,134.538,0.522638,0.522359,0.188724,1,0.0326943,10,9.85814e-05,,,,,,,,,,,,
2,1,0,0,0,135.138,0.525635,0.525358,0.190326,1,0.0328111,10,9.99893e-05,,,,,,,,,,,,
2,1,0,1,0,135.737,0.528631,0.528353,0.190935,1,0.0329289,10,0.000100881,,,,,,,,,,,,
2,1,0,1,0,136.336,0.531627,0.531312,0.192542,1,0.0330471,10,0.0001023,,,,,,,,,,,,
2,1,0,1,0,136.936,0.534624,0.534385,0.194085,1,0.0331662,10,0.000103716,,,,,,,,,,,,
2,1,0,1,0,137.535,0.53762,0.537333,0.194584,1,0.0332857,10,0.000104557,,,,,,,,,,,,
2,1,0,0,0,138.134,0.540616,0.540368,0.195904,1,0.0334062,10,0.000105861,,,,,,,,,,,,
2,1,0,1,0,138.733,0.543613,0.543381,0.196889,1,0.0335273,10,0.000106986,,,,,,,,,,,,
2,1,0,1,0,139.333,0.546609,0.546335,0.198985,1,0.0336495,10,0.000108712,,,,,,,,,,,,
2,1,0,1,0,139.932,0.549606,0.54932,0.200616,1,0.0337725,10,0.000110202,,,,,,,,,,,,
2,1,0,1,0,140.531,0.552602,0.552365,0.202828,1,0.0338967,10,0.000112035,,,,,,,,,,,,
2,1,0,0,0,141.131,0.555598,0.555355,0.204282,1,0.034022,10,0.000113449,,,,,,,,,,,,
2,1,0,0,0,141.73,0.558595,0.558372,0.207008,1,0.0341482,10,0.000115588,,,,,,,,,,,,
2,1,0,1,0,142.329,0.561591,0.561301,0.207445,1,0.0342758,10,0.000116439,,,,,,,,,,,,
2,1,0,1,0,142.928,0.564587,0.564358,0.210939,1,0.0344047,10,0.000119045,,,,,,,,,,,,
2,1,0,1,0,143.528,0.567584,0.567326,0.21323,1,0.034535,10,0.000120971,,,,,,,,,,,,
2,1,0,1,0,144.127,0.57058,0.570296,0.215622,1,0.0346666,10,0.000122968,,,,,,,,,,,,
2,1,0,0,0,144.726,0.573577,0.573364,0.219583,1,0.0348002,10,0.000125901,,,,,,,,,,,,
2,1,0,1,0,145.325,0.576573,0.576318,0.221613,1,0.0349352,10,0.00012772,,,,,,,,,,,,
2,1,0,1,0,145.925,0.579569,0.579387,0.224946,1,0.0350724,10,0.000130331,,,,,,,,,,,,
2,1,0,1,0,146.524,0.582566,0.582285,0.229455,1,0.0352113,10,0.000133608,,,,,,,,,,,,
2,1,0,1,0,147.123,0.585562,0.585306,0.232576,1,0.0353527,10,0.000136128,,,,,,,,,,,,
2,1,0,0,0,147.723,0.588558,0.588261,0.236872,1,0.0354962,10,0.000139343,,,,,,,,,,,,
2,1,0,0,0,148.322,0.591555,0.591344,0.241687,1,0.0356427,10,0.00014292,,,,,,,,,,,,
2,1,0,1,0,148.921,0.594551,0.59427,0.247214,1,0.0357921,10,0.000146912,,,,,,,,,,,,
2,1,0,1,0,149.52,0.597547,0.597273,0.252779,1,0.0359448,10,0.000150978,,,,,,,,,,,,
2,1,0,1,0,150.12,0.600544,0.600286,0.258671,1,0.0361013,10,0.000155277,,,,,,,,,,,,
2,1,0,1,0,150.719,0.60354,0.603285,0.266616,1,0.0362615,10,0.000160846,,,,,,,,,,,,
2,1,0,0,0,151.318,0.606537,0.606282,0.272855,1,0.0364263,10,0.000165427,,,,,,,,,,,,
2,1,0,1,0,151.917,0.609533,0.609313,0.282841,1,0.0365958,10,0.000172339,,,,,,,,,,,,
2,1,0,1,0,152.517,0.612529,0.612337,0.29109,1,0.0367707,10,0.000178245,,,,,,,,,,,,
2,1,0,1,0,153.116,0.615526,0.615307,0.301744,1,0.0369513,10,0.000185665,,,,,,,,,,,,
2,1,0,1,0,153.715,0.618522,0.618267,0.314203,1,0.0371388,10,0.000194261,,,,,,,,,,,,
2,1,0,0,0,154.315,0.621518,0.62127,0.326123,1,0.0373332,10,0.00020261,,,,,,,,,,,,
2,1,0,1,0,154.914,0.624515,0.624254,0.340287,1,0.0375357,10,0.000212426,,,,,,,,,,,,
2,1,0,1,0,155.513,0.627511,0.627231,0.355951,1,0.037747,10,0.000223264,,,,,,,,,,,,
2,1,0,1,0,156.112,0.630507,0.630278,0.373877,1,0.0379686,10,0.000235646,,,,,,,,,,,,
2,1,0,1,0,156.712,0.633504,0.633268,0.393363,1,0.038201,10,0.000249104,,,,,,,,,,,,
2,1,0,1,0,157.311,0.6365,0.636286,0.41517,1,0.0384463,10,0.000264167,,,,,,,,,,,,
2,1,0,0,0,157.91,0.639497,0.639228,0.440239,1,0.0387053,10,0.000281413,,,,,,,,,,,,
2,1,0,1,0,158.509,0.642493,0.642231,0.466642,1,0.0389798,10,0.000299692,,,,,,,,,,,,
2,1,0,1,0,159.109,0.645489,0.64527,0.497685,1,0.0392714,10,0.000321141,,,,,,,,,,,,
2,1,0,1,0,159.708,0.648486,0.648218,0.532242,1,0.0395826,10,0.000345009,,,,,,,,,,,,
2,1,0,1,0,160.307,0.651482,0.65126,0.568061,1,0.0399148,10,0.000369955,,,,,,,,,,,,
2,1,0,0,0,160.907,0.654478,0.654248,0.610213,1,0.0402703,10,0.00039923,,,,,,,,,,,,
2,1,0,1,0,161.506,0.657475,0.657215,0.656838,1,0.0406524,10,0.000431684,,,,,,,,,,,,
2,1,0,1,0,162.105,0.660471,0.660188,0.707205,1,0.0410639,10,0.000466888,,,,,,,,,,,,
2,1,0,1,0,162.704,0.663468,0.663221,0.764468,1,0.0415075,10,0.000507011,,,,,,,,,,,,
2,1,0,1,0,163.304,0.666464,0.666227,0.8259,1,0.0419866,10,0.000550237,,,,,,,,,,,,
2,1,0,0,0,163.903,0.66946,0.66922,0.894852,1,0.0425049,10,0.000598853,,,,,,,,,,,,
2,1,0,0,0,164.502,0.672457,0.672195,0.969019,1,0.0430656,10,0.000651369,,,,,,,,,,,,
2,1,0,1,0,165.101,0.675453,0.675221,1.04952,1,0.043673,10,0.000708658,,,,,,,,,,,,
2,1,0,1,0,165.701,0.678449,0.678162,1.13629,1,0.0443302,10,0.000770587,,,,,,,,,,,,
2,1,0,1,0,166.3,0.681446,0.681155,1.23108,1,0.0450422,10,0.000838555,,,,,,,,,,,,
2,1,0,1,0,166.899,0.684442,0.684202,1.33207,1,0.0458127,10,0.000911407,,,,,,,,,,,,
2,1,0,0,0,167.499,0.687438,0.687212,1.44013,1,0.046646,10,0.000989673,,,,,,,,,,,,
2,1,0,1,0,168.098,0.690435,0.6902,1.55413,1,0.0475459,10,0.00107266,,,,,,,,,,,,
2,1,0,1,0,168.697,0.693431,0.693155,1.67614,1,0.048516,10,0.00116182,,,,,,,,,,,,
2,1,0,1,0,169.296,0.696427,0.696165,1.80367,1,0.0495613,10,0.00125566,,,,,,,,,,,,
2,1,0,1,0,169.896,0.699424,0.699176,1.93885,1,0.0506855,10,0.00135559,,,,,,,,,,,,
2,1,0,0,0,170.495,0.70242,0.702161,2.07764,1,0.0518918,10,0.00145884,,,,,,,,,,,,
2,1,0,0,0,171.094,0.705417,0.705182,2.22418,1,0.0531833,10,0.00156845,,,,,,,,,,,,
2,1,0,1,0,171.693,0.708413,0.708214,2.37543,1,0.0545643,10,0.00168231,,,,,,,,,,,,
2,1,0,1,0,172.293,0.711409,0.71117,2.52973,1,0.0560366,10,0.00179907,,,,,,,,,,,,
2,1,0,1,0,172.892,0.714406,0.714182,2.68937,1,0.0576032,10,0.0019207,,,,,,,,,,,,
2,1,0,1,0,173.491,0.717402,0.717135,2.85383,1,0.0592662,10,0.00204658,,,,,,,,,,,,
2,1,0,0,0,174.091,0.720398,0.720148,3.01897,1,0.0610286,10,0.0021741,,,,,,,,,,,,
2,1,0,1,0,174.69,0.723395,0.723184,3.18683,1,0.0628908,10,0.00230467,,,,,,,,,,,,
2,1,0,1,0,175.289,0.726391,0.726147,3.3596,1,0.064855,10,0.00243956,,,,,,,,,,,,
2,1,0,1,0,175.888,0.729388,0.729141,3.53172,1,0.0669228,10,0.00257512,,,,,,,,,,,,
2,1,0,1,0,176.488,0.732384,0.732164,3.70775,1,0.0690947,10,0.00271468,,,,,,,,,,,,
2,1,0,0,0,177.087,0.73538,0.735156,3.88237,1,0.0713718,10,0.00285415,,,,,,,,,,,,
2,1,0,0,0,177.686,0.738377,0.738156,4.05784,1,0.0737532,10,0.00299532,,,,,,,,,,,,
2,1,0,1,0,178.285,0.741373,0.741087,4.23172,1,0.07624,10,0.00313608,,,,,,,,,,,,
2,1,0,1,0,178.885,0.744369,0.744124,4.40558,1,0.0788311,10,0.0032783,,,,,,,,,,,,
2,1,0,1,0,179.484,0.747366,0.747102,4.5773,1,0.0815257,10,0.00341971,,,,,,,,,,,,
2,1,0,1,0,180.083,0.750362,0.75012,4.74843,1,0.0843227,10,0.00356189,,,,,,,,,,,,
2,1,0,0,0,180.683,0.753358,0.753076,4.91692,1,0.0872223,10,0.00370282,,,,,,,,,,,,
2,1,0,1,0,181.282,0.756355,0.756126,5.08163,1,0.090221,10,0.00384236,,,,,,,,,,,,
2,1,0,1,0,181.881,0.759351,0.759116,5.24412,1,0.0933182,10,0.00398089,,,,,,,,,,,,
2,1,0,1,0,182.48,0.762348,0.762096,5.40438,1,0.096511,10,0.00411866,,,,,,,,,,,,
2,1,0,1,0,183.08,0.765344,0.76513,5.55845,1,0.0997985,10,0.00425294,,,,,,,,,,,,
2,1,0,0,0,183.679,0.76834,0.768065,5.70783,1,0.103177,10,0.00438399,,,,,,,,,,,,
2,1,0,1,0,184.278,0.771337,0.771104,5.85468,1,0.106645,10,0.00451457,,,,,,,,,,,,
2,1,0,1,0,184.877,0.774333,0.774103,5.99576,1,0.110198,10,0.00464133,,,,,,,,,,,,
2,1,0,1,0,185.477,0.777329,0.777113,6.13523,1,0.113836,10,0.00476777,,,,,,,,,,,,
2,1,0,1,0,186.076,0.780326,0.780075,6.26974,1,0.117555,10,0.00489087,,,,,,,,,,,,
2,1,0,1,0,186.675,0.783322,0.783089,6.40018,1,0.121354,10,0.00501191,,,,,,,,,,,,
2,1,0,0,0,187.275,0.786318,0.786094,6.52264,1,0.125228,10,0.00512741,,,,,,,,,,,,
2,1,0,1,0,187.874,0.789315,0.789036,6.63919,1,0.129175,10,0.00523856,,,,,,,,,,,,
2,1,0,1,0,188.473,0.792311,0.792061,6.74948,1,0.133189,10,0.005346,,,,,,,,,,,,
2,1,0,1,0,189.072,0.795308,0.795101,6.8577,1,0.137269,10,0.00545256,,,,,,,,,,,,
2,1,0,1,0,189.672,0.798304,0.798053,6.96111,1,0.141413,10,0.00555534,,,,,,,,,,,,
2,1,0,0,0,190.271,0.8013,0.801058,7.06199,1,0.145618,10,0.00565706,,,,,,,,,,,,
2,1,0,1,0,190.87,0.804297,0.803999,7.16332,1,0.149883,10,0.0057593,,,,,,,,,,,,
2,1,0,1,0,191.469,0.807293,0.807052,7.25748,1,0.154206,10,0.00585716,,,,,,,,,,,,
2,1,0,1,0,192.069,0.810289,0.810056,7.35581,1,0.158586,10,0.00595862,,,,,,,,,,,,
2,1,0,1,0,192.668,0.813286,0.813034,7.45224,1,0.163026,10,0.00605893,,,,,,,,,,,,
2,1,0,1,0,193.267,0.816282,0.816081,7.55325,1,0.167524,10,0.00616407,,,,,,,,,,,,
2,1,0,0,0,193.867,0.819279,0.819027,7.66046,1,0.172084,10,0.00627413,,,,,,,,,,,,
2,1,0,1,0,194.466,0.822275,0.822,7.75898,1,0.176708,10,0.00637788,,,,,,,,,,,,
2,1,0,1,0,195.065,0.825271,0.825077,7.84923,1,0.181386,10,0.00647622,,,,,,,,,,,,
2,1,0,1,0,195.664,0.828268,0.828024,7.94735,1,0.186123,10,0.0065806,,,,,,,,,,,,
2,1,0,1,0,196.264,0.831263,0.831016,8.03701,1,0.190913,10,0.00667889,,,,,,,,,,,,
2,1,0,0,0,196.863,0.83426,0.834069,8.13683,1,0.195762,10,0.00678668,,,,,,,,,,,,
2,1,0,1,0,197.462,0.837257,0.837063,8.23978,1,0.200671,10,0.00689722,,,,,,,,,,,,
2,1,0,1,0,198.061,0.840253,0.840065,8.33911,1,0.20564,10,0.0070054,,,,,,,,,,,,
2,1,0,1,0,198.661,0.843249,0.843051,8.43028,1,0.210668,10,0.00710715,,,,,,,,,,,,
2,1,0,1,0,199.26,0.846246,0.846027,8.52463,1,0.215751,10,0.00721207,,,,,,,,,,,,
2,1,0,0,0,199.859,0.849242,0.849072,8.61876,1,0.220891,10,0.00731795,,,,,,,,,,,,
2,1,0,1,0,200.369,0.848243,0.848004,8.34897,1,0.225233,10,0.00707996,,,,,,,,,,,,
2,1,0,1,0,200.968,0.845247,0.84501,8.07712,1,0.230146,10,0.00682524,,,,,,,,,,,,
2,1,0,1,0,201.568,0.842251,0.842052,7.88807,1,0.234926,10,0.00664217,,,,,,,,,,,,
2,1,0,0,0,202.167,0.839254,0.839052,7.71288,1,0.239597,10,0.00647151,,,,,,,,,,,,
2,1,0,1,0,202.766,0.836258,0.836036,7.55168,1,0.244167,10,0.00631348,,,,,,,,,,,,
2,1,0,1,0,203.365,0.833262,0.833041,7.4015,1,0.248645,10,0.00616575,,,,,,,,,,,,
2,1,0,1,0,203.965,0.830265,0.830056,7.2659,1,0.253037,10,0.0060311,,,,,,,,,,,,
2,1,0,1,0,204.564,0.827269,0.827088,7.13259,1,0.257349,10,0.00589928,,,,,,,,,,,,
2,1,0,0,0,205.163,0.824272,0.824042,6.9803,1,0.261576,10,0.00575206,,,,,,,,,,,,
2,1,0,0,0,205.763,0.821276,0.821054,6.82521,1,0.265711,10,0.00560387,,,,,,,,,,,,
2,1,0,1,0,206.362,0.81828,0.818038,6.66855,1,0.269751,10,0.00545513,,,,,,,,,,,,
2,1,0,1,0,206.961,0.815283,0.815032,6.51717,1,0.2737,10,0.0053117,,,,,,,,,,,,
2,1,0,1,0,207.56,0.812287,0.81206,6.35941,1,0.277555,10,0.00516422,,,,,,,,,,,,
2,1,0,1,0,208.16,0.809291,0.809043,6.21024,1,0.281319,10,0.00502435,,,,,,,,,,,,
2,1,0,0,0,208.759,0.806294,0.806065,6.05583,1,0.284992,10,0.00488139,,,,,,,,,,,,
2,1,0,1,0,209.358,0.803298,0.803032,5.90474,1,0.288573,10,0.0047417,,,,,,,,,,,,
2,1,0,1,0,209.958,0.800302,0.800033,5.75199,1,0.292063,10,0.00460178,,,,,,,,,,,,
2,1,0,1,0,210.557,0.797305,0.797046,5.59858,1,0.295462,10,0.00446233,,,,,,,,,,,,
2,1,0,1,0,211.156,0.794309,0.794058,5.44158,1,0.298767,10,0.00432093,,,,,,,,,,,,
2,1,0,0,0,211.755,0.791312,0.791037,5.27928,1,0.301977,10,0.00417611,,,,,,,,,,,,
2,1,0,1,0,212.355,0.788316,0.788086,5.11772,1,0.30509,10,0.0040332,,,,,,,,,,,,
2,1,0,1,0,212.954,0.78532,0.785108,4.95316,1,0.308104,10,0.00388877,,,,,,,,,,,,
2,1,0,1,0,213.553,0.782323,0.782075,4.78725,1,0.31102,10,0.00374399,,,,,,,,,,,,
2,1,0,1,0,214.152,0.779327,0.779065,4.61903,1,0.313836,10,0.00359853,,,,,,,,,,,,
2,1,0,1,0,214.752,0.776331,0.77607,4.46142,1,0.316554,10,0.00346237,,,,,,,,,,,,
2,1,0,0,0,215.351,0.773334,0.773135,4.30175,1,0.319177,10,0.00332583,,,,,,,,,,,,
2,1,0,1,0,215.95,0.770338,0.770116,4.13992,1,0.321705,10,0.00318822,,,,,,,,,,,,
2,1,0,1,0,216.55,0.767341,0.767144,3.97971,1,0.324135,10,0.00305301,,,,,,,,,,,,
2,1,0,1,0,217.149,0.764345,0.764126,3.8197,1,0.326469,10,0.00291873,,,,,,,,,,,,
2,1,0,1,0,217.748,0.761349,0.761145,3.65916,1,0.328707,10,0.00278515,,,,,,,,,,,,
2,1,0,0,0,218.347,0.758352,0.758147,3.50203,1,0.33085,10,0.00265505,,,,,,,,,,,,
2,1,0,1,0,218.947,0.755356,0.755036,3.34744,1,0.332899,10,0.00252744,,,,,,,,,,,,
2,1,0,1,0,219.546,0.75236,0.752156,3.19275,1,0.334856,10,0.00240145,,,,,,,,,,,,
2,1,0,1,0,220.145,0.749363,0.749135,3.03874,1,0.33672,10,0.00227643,,,,,,,,,,,,
2,1,0,1,0,220.744,0.746367,0.746077,2.89269,1,0.338495,10,0.00215817,,,,,,,,,,,,
2,1,0,0,0,221.344,0.743371,0.743097,2.74279,1,0.34018,10,0.00203816,,,,,,,,,,,,
2,1,0,0,0,221.943,0.740374,0.740174,2.59624,1,0.341777,10,0.00192167,,,,,,,,,,,,
2,1,0,1,0,222.542,0.737378,0.73713,2.45151,1,0.343286,10,0.00180708,,,,,,,,,,,,
2,1,0,1,0,223.142,0.734381,0.734145,2.30811,1,0.34471,10,0.00169449,,,,,,,,,,,,
2,1,0,1,0,223.741,0.731385,0.731104,2.17061,1,0.346049,10,0.00158695,,,,,,,,,,,,
2,1,0,1,0,224.34,0.728389,0.728156,2.03431,1,0.347306,10,0.00148129,,,,,,,,,,,,
2,1,0,0,0,224.939,0.725392,0.725169,1.90213,1,0.348482,10,0.00137936,,,,,,,,,,,,
2,1,0,1,0,225.539,0.722396,0.722124,1.77245,1,0.34958,10,0.00127993,,,,,,,,,,,,
2,1,0,1,0,226.138,0.7194,0.719171,1.64635,1,0.350601,10,0.00118401,,,,,,,,,,,,
2,1,0,1,0,226.737,0.716403,0.71611,1.52505,1,0.351548,10,0.0010921,,,,,,,,,,,,
2,1,0,1,0,227.336,0.713407,0.713174,1.40808,1,0.352424,10,0.00100421,,,,,,,,,,,,
2,1,0,0,0,227.936,0.710411,0.71015,1.29524,1,0.353231,10,0.000919818,,,,,,,,,,,,
2,1,0,0,0,228.535,0.707414,0.707156,1.1867,1,0.353971,10,0.000839181,,,,,,,,,,,,
2,1,0,1,0,229.134,0.704418,0.704157,1.08297,1,0.354648,10,0.00076258,,,,,,,,,,,,
2,1,0,1,0,229.734,0.701421,0.701133,0.984836,1,0.355265,10,0.000690501,,,,,,,,,,,,
2,1,0,1,0,230.333,0.698425,0.69815,0.892245,1,0.355824,10,0.000622921,,,,,,,,,,,,
2,1,0,1,0,230.932,0.695429,0.695161,0.80379,1,0.356328,10,0.000558763,,,,,,,,,,,,
2,1,0,0,0,231.531,0.692432,0.692173,0.718553,1,0.356781,10,0.000497363,,,,,,,,,,,,
2,1,0,1,0,232.131,0.689436,0.689237,0.642694,1,0.357186,10,0.000442968,,,,,,,,,,,,
2,1,0,1,0,232.73,0.68644,0.68619,0.568581,1,0.357545,10,0.000390155,,,,,,,,,,,,
2,1,0,1,0,233.329,0.683443,0.683263,0.501239,1,0.357863,10,0.000342479,,,,,,,,,,,,
2,1,0,1,0,233.928,0.680447,0.680171,0.438452,1,0.358141,10,0.000298223,,,,,,,,,,,,
2,1,0,0,0,234.528,0.67745,0.677169,0.379173,1,0.358383,10,0.000256764,,,,,,,,,,,,
2,1,0,1,0,235.127,0.674454,0.674231,0.326481,1,0.358592,10,0.000220124,,,,,,,,,,,,
2,1,0,1,0,235.726,0.671458,0.671189,0.277123,1,0.358769,10,0.000186002,,,,,,,,,,,,
2,1,0,1,0,236.326,0.668461,0.668222,0.232093,1,0.358919,10,0.00015509,,,,,,,,,,,,
2,1,0,1,0,236.925,0.665465,0.665232,0.191697,1,0.359043,10,0.000127523,,,,,,,,,,,,
2,1,0,1,0,237.524,0.662469,0.662232,0.154408,1,0.359143,10,0.000102254,,,,,,,,,,,,
2,1,0,0,0,238.123,0.659472,0.659171,0.120365,1,0.359222,10,7.93413e-05,,,,,,,,,,,,
2,1,0,1,0,238.723,0.656476,0.65622,0.0896189,1,0.359282,10,5.88097e-05,,,,,,,,,,,,
2,1,0,1,0,239.322,0.65348,0.65319,0.0616177,1,0.359324,10,4.02481e-05,,,,,,,,,,,,
2,1,0,1,0,239.921,0.650483,0.650259,0.0370584,1,0.359351,10,2.40975e-05,,,,,,,,,,,,
2,1,0,1,0,240.52,0.647487,0.647233,0.0142823,1,0.359363,10,9.24396e-06,,,,,,,,,,,,
2,1,0,0,0,241.12,0.644491,0.644235,-0.00466945,1,0.359362,10,-3.00823e-06,,,,,,,,,,,,
2,0,0,1,0,241.719,0.641494,0.641238,-0.0224549,1,0.359351,10,-1.4399e-05,,,,,,,,,,,,
2,0,0,1,0,242.318,0.638498,0.638231,-0.0378021,1,0.35933,10,-2.41264e-05,,,,,,,,,,,,
2,0,0,1,0,242.918,0.635501,0.635242,-0.0509938,1,0.3593,10,-3.23934e-05,,,,,,,,,,,,
2,0,0,1,0,243.517,0.632505,0.632286,-0.06387,1,0.359262,10,-4.03841e-05,,,,,,,,,,,,
2,0,0,1,0,244.116,0.629509,0.629272,-0.0743997,1,0.359218,10,-4.68177e-05,,,,,,,,,,,,
2,0,0,0,0,244.715,0.626512,0.626226,-0.0844149,1,0.359167,10,-5.28628e-05,,,,,,,,,,,,
2,0,0,1,0,245.315,0.623516,0.623208,-0.0922052,1,0.359111,10,-5.7463e-05,,,,,,,,,,,,
2,0,0,1,0,245.914,0.62052,0.620235,-0.10055,1,0.35905,10,-6.23645e-05,,,,,,,,,,,,
2,0,0,1,0,246.513,0.617523,0.617285,-0.107447,1,0.358984,10,-6.63255e-05,,,,,,,,,,,,
2,0,0,1,0,247.112,0.614527,0.614222,-0.113633,1,0.358915,10,-6.97961e-05,,,,,,,,,,,,
2,0,0,0,0,247.712,0.61153,0.61127,-0.118613,1,0.358842,10,-7.25049e-05,,,,,,,,,,,,
2,0,0,1,0,248.311,0.608534,0.608248,-0.122926,1,0.358766,10,-7.47696e-05,,,,,,,,,,,,
2,0,0,1,0,248.91,0.605538,0.605286,-0.126284,1,0.358688,10,-7.64377e-05,,,,,,,,,,,,
2,0,0,1,0,249.51,0.602541,0.602215,-0.13149,1,0.358608,10,-7.91852e-05,,,,,,,,,,,,
2,0,0,1,0,250.109,0.599545,0.599241,-0.132432,1,0.358526,10,-7.93584e-05,,,,,,,,,,,,
2,0,0,1,0,250.708,0.596549,0.596268,-0.135703,1,0.358442,10,-8.09152e-05,,,,,,,,,,,,
2,0,0,0,0,251.307,0.593552,0.593279,-0.13688,1,0.358357,10,-8.12082e-05,,,,,,,,,,,,
2,0,0,1,0,251.907,0.590556,0.590268,-0.139405,1,0.358271,10,-8.22862e-05,,,,,,,,,,,,
2,0,0,1,0,252.506,0.58756,0.587282,-0.140612,1,0.358184,10,-8.25791e-05,,,,,,,,,,,,
2,0,0,1,0,253.105,0.584563,0.584307,-0.14263,1,0.358096,10,-8.33394e-05,,,,,,,,,,,,
2,0,0,1,0,253.704,0.581567,0.581276,-0.143953,1,0.358006,10,-8.36762e-05,,,,,,,,,,,,
2,0,0,0,0,254.304,0.57857,0.57825,-0.14443,1,0.357917,10,-8.35168e-05,,,,,,,,,,,,
2,0,0,1,0,254.903,0.575574,0.575299,-0.145437,1,0.357826,10,-8.36697e-05,,,,,,,,,,,,
2,0,0,1,0,255.502,0.572578,0.572315,-0.146126,1,0.357736,10,-8.36301e-05,,,,,,,,,,,,
2,0,0,1,0,256.102,0.569581,0.56933,-0.147495,1,0.357644,10,-8.39736e-05,,,,,,,,,,,,
2,0,0,1,0,256.701,0.566585,0.566356,-0.147593,1,0.357553,10,-8.35903e-05,,,,,,,,,,,,
2,0,0,0,0,257.3,0.563589,0.563381,-0.148257,1,0.357461,10,-8.3525e-05,,,,,,,,,,,,
2,0,0,0,0,257.899,0.560592,0.560337,-0.149115,1,0.357368,10,-8.35546e-05,,,,,,,,,,,,
2,0,0,1,0,258.499,0.557596,0.557297,-0.149319,1,0.357276,10,-8.32148e-05,,,,,,,,,,,,
2,0,0,1,0,259.098,0.554599,0.5543,-0.148947,1,0.357183,10,-8.25614e-05,,,,,,,,,,,,
2,0,0,1,0,259.697,0.551603,0.551307,-0.151029,1,0.357089,10,-8.32633e-05,,,,,,,,,,,,
2,0,0,1,0,260.296,0.548607,0.548348,-0.149669,1,0.356996,10,-8.20709e-05,,,,,,,,,,,,
2,0,0,0,0,260.896,0.54561,0.54531,-0.151038,1,0.356902,10,-8.23624e-05,,,,,,,,,,,,
2,0,0,1,0,261.495,0.542614,0.542317,-0.150778,1,0.356808,10,-8.17697e-05,,,,,,,,,,,,
2,0,0,1,0,262.094,0.539618,0.539342,-0.151341,1,0.356714,10,-8.16245e-05,,,,,,,,,,,,
2,0,0,1,0,262.694,0.536621,0.5363,-0.152207,1,0.35662,10,-8.16284e-05,,,,,,,,,,,,
2,0,0,1,0,263.293,0.533625,0.533345,-0.151764,1,0.356526,10,-8.09423e-05,,,,,,,,,,,,
2,0,0,0,0,263.892,0.530629,0.530323,-0.152045,1,0.356431,10,-8.06329e-05,,,,,,,,,,,,
2,0,0,1,0,264.491,0.527632,0.52741,-0.152009,1,0.356336,10,-8.01709e-05,,,,,,,,,,,,
2,0,0,1,0,265.091,0.524636,0.524379,-0.152713,1,0.356241,10,-8.00792e-05,,,,,,,,,,,,
2,0,0,1,0,265.69,0.521639,0.521335,-0.152915,1,0.356146,10,-7.97199e-05,,,,,,,,,,,,
2,0,0,1,0,266.289,0.518643,0.518397,-0.153877,1,0.35605,10,-7.97695e-05,,,,,,,,,,,,
2,0,0,1,0,266.888,0.515647,0.51533,-0.154031,1,0.355954,10,-7.9377e-05,,,,,,,,,,,,
2,0,0,0,0,267.488,0.51265,0.512364,-0.154673,1,0.355858,10,-7.92488e-05,,,,,,,,,,,,
2,0,0,1,0,268.087,0.509654,0.509387,-0.154873,1,0.355762,10,-7.88902e-05,,,,,,,,,,,,
2,0,0,1,0,268.686,0.506658,0.506365,-0.155301,1,0.355665,10,-7.8639e-05,,,,,,,,,,,,
2,0,0,1,0,269.286,0.503661,0.503364,-0.155149,1,0.355568,10,-7.80967e-05,,,,,,,,,,,,
2,0,0,1,0,269.885,0.500665,0.500402,-0.157082,1,0.35547,10,-7.86041e-05,,,,,,,,,,,,
2,0,0,0,0,270.484,0.497669,0.497367,-0.156772,1,0.355372,10,-7.79734e-05,,,,,,,,,,,,
2,0,0,1,0,271.083,0.494672,0.494461,-0.157882,1,0.355274,10,-7.80665e-05,,,,,,,,,,,,
2,0,0,1,0,271.683,0.491676,0.491385,-0.158289,1,0.355176,10,-7.77809e-05,,,,,,,,,,,,
2,0,0,1,0,272.282,0.488679,0.488382,-0.15904,1,0.355077,10,-7.76721e-05,,,,,,,,,,,,
2,0,0,1,0,272.881,0.485683,0.485412,-0.159108,1,0.354978,10,-7.72329e-05,,,,,,,,,,,,
2,0,0,1,0,273.48,0.482687,0.482424,-0.159907,1,0.354878,10,-7.71429e-05,,,,,,,,,,,,
2,0,0,0,0,274.08,0.47969,0.479413,-0.160315,1,0.354778,10,-7.6857e-05,,,,,,,,,,,,
2,0,0,1,0,274.679,0.476694,0.476402,-0.161234,1,0.354677,10,-7.68121e-05,,,,,,,,,,,,
2,0,0,1,0,275.278,0.473698,0.473431,-0.162377,1,0.354576,10,-7.68745e-05,,,,,,,,,,,,
2,0,0,1,0,275.878,0.470701,0.470405,-0.163133,1,0.354475,10,-7.67387e-05,,,,,,,,,,,,
2,0,0,1,0,276.477,0.467705,0.467403,-0.165307,1,0.354372,10,-7.72648e-05,,,,,,,,,,,,
2,0,0,0,0,277.076,0.464708,0.464443,-0.164899,1,0.354269,10,-7.65864e-05,,,,,,,,,,,,
2,0,0,1,0,277.675,0.461712,0.461442,-0.166065,1,0.354166,10,-7.66293e-05,,,,,,,,,,,,
2,0,0,1,0,278.275,0.458716,0.458473,-0.16558,1,0.354062,10,-7.59141e-05,,,,,,,,,,,,
2,0,0,1,0,278.874,0.455719,0.455445,-0.167352,1,0.353958,10,-7.62197e-05,,,,,,,,,,,,
2,0,0,1,0,279.473,0.452723,0.452447,-0.166981,1,0.353853,10,-7.555e-05,,,,,,,,,,,,
2,0,0,1,0,280.072,0.449727,0.449417,-0.169959,1,0.353748,10,-7.63822e-05,,,,,,,,,,,,
2,0,0,0,0,280.672,0.44673,0.446456,-0.170251,1,0.353642,10,-7.60096e-05,,,,,,,,,,,,
2,0,0,1,0,281.271,0.443734,0.443493,-0.171221,1,0.353535,10,-7.59355e-05,,,,,,,,,,,,
2,0,0,1,0,281.87,0.440738,0.440474,-0.172583,1,0.353428,10,-7.60185e-05,,,,,,,,,,,,
2,0,0,1,0,282.47,0.437741,0.437481,-0.173309,1,0.35332,10,-7.58196e-05,,,,,,,,,,,,
2,0,0,1,0,283.069,0.434745,0.434442,-0.173809,1,0.353211,10,-7.55101e-05,,,,,,,,,,,,
2,0,0,0,0,283.668,0.431749,0.431468,-0.176179,1,0.353102,10,-7.60154e-05,,,,,,,,,,,,
2,0,0,1,0,284.267,0.428752,0.428443,-0.178008,1,0.352991,10,-7.62662e-05,,,,,,,,,,,,
2,0,0,1,0,284.867,0.425756,0.425481,-0.17865,1,0.35288,10,-7.60121e-05,,,,,,,,,,,,
2,0,0,1,0,285.466,0.422759,0.422482,-0.179337,1,0.352768,10,-7.57666e-05,,,,,,,,,,,,
2,0,0,1,0,286.065,0.419763,0.419522,-0.181041,1,0.352656,10,-7.59509e-05,,,,,,,,,,,,
2,0,0,0,0,286.665,0.416767,0.41649,-0.181965,1,0.352542,10,-7.57864e-05,,,,,,,,,,,,
2,0,0,0,0,287.264,0.41377,0.413497,-0.183411,1,0.352428,10,-7.58398e-05,,,,,,,,,,,,
2,0,0,1,0,287.863,0.410774,0.410438,-0.184858,1,0.352313,10,-7.58725e-05,,,,,,,,,,,,
2,0,0,1,0,288.462,0.407778,0.407494,-0.185838,1,0.352196,10,-7.57281e-05,,,,,,,,,,,,
2,0,0,1,0,289.062,0.404781,0.404471,-0.188181,1,0.35208,10,-7.61139e-05,,,,,,,,,,,,
2,0,0,1,0,289.661,0.401785,0.401481,-0.187947,1,0.351962,10,-7.54571e-05,,,,,,,,,,,,
2,0,0,0,0,290.26,0.398788,0.398455,-0.190495,1,0.351843,10,-7.59039e-05,,,,,,,,,,,,
2,0,0,1,0,290.859,0.395792,0.395492,-0.191965,1,0.351723,10,-7.59206e-05,,,,,,,,,,,,
2,0,0,1,0,291.459,0.392796,0.392463,-0.193445,1,0.351603,10,-7.59202e-05,,,,,,,,,,,,
2,0,0,1,0,292.058,0.389799,0.389483,-0.195522,1,0.351482,10,-7.61524e-05,,,,,,,,,,,,
2,0,0,1,0,292.657,0.386803,0.386475,-0.195929,1,0.351359,10,-7.57217e-05,,,,,,,,,,,,
2,0,0,0,0,293.257,0.383807,0.383535,-0.196611,1,0.351236,10,-7.54074e-05,,,,,,,,,,,,
2,0,0,1,0,293.856,0.38081,0.380508,-0.19867,1,0.351112,10,-7.55955e-05,,,,,,,,,,,,
2,0,0,1,0,294.455,0.377814,0.37752,-0.201546,1,0.350987,10,-7.60877e-05,,,,,,,,,,,,
2,0,0,1,0,295.054,0.374818,0.374527,-0.202121,1,0.35086,10,-7.56997e-05,,,,,,,,,,,,
2,0,0,1,0,295.654,0.371821,0.37155,-0.204296,1,0.350733,10,-7.59064e-05,,,,,,,,,,,,
2,0,0,1,0,296.253,0.368825,0.368537,-0.205781,1,0.350605,10,-7.58379e-05,,,,,,,,,,,,
2,0,0,0,0,296.852,0.365828,0.365578,-0.207704,1,0.350476,10,-7.59319e-05,,,,,,,,,,,,
2,0,0,1,0,297.451,0.362832,0.362542,-0.207583,1,0.350346,10,-7.52578e-05,,,,,,,,,,,,
2,0,0,1,0,298.051,0.359836,0.359552,-0.210723,1,0.350215,10,-7.5766e-05,,,,,,,,,,,,
2,0,0,1,0,298.65,0.356839,0.356514,-0.21052,1,0.350083,10,-7.50534e-05,,,,,,,,,,,,
2,0,0,1,0,299.249,0.353843,0.353547,-0.213674,1,0.34995,10,-7.55437e-05,,,,,,,,,,,,
2,0,0,0,0,299.849,0.350847,0.350532,-0.215115,1,0.349816,10,-7.54048e-05,,,,,,,,,,,,
2,0,0,1,0,300.448,0.34785,0.347587,-0.217404,1,0.349681,10,-7.55669e-05,,,,,,,,,,,,
2,0,0,1,0,301.047,0.344854,0.344531,-0.218849,1,0.349544,10,-7.54001e-05,,,,,,,,,,,,
2,0,0,1,0,301.646,0.341857,0.341612,-0.219829,1,0.349407,10,-7.50964e-05,,,,,,,,,,,,
2,0,0,1,0,302.246,0.338861,0.338565,-0.22191,1,0.349269,10,-7.51311e-05,,,,,,,,,,,,
2,0,0,1,0,302.845,0.335865,0.335559,-0.223835,1,0.34913,10,-7.51097e-05,,,,,,,,,,,,
2,0,0,0,0,303.444,0.332868,0.332596,-0.225981,1,0.348989,10,-7.51601e-05,,,,,,,,,,,,
2,0,0,1,0,304.043,0.329872,0.329552,-0.227975,1,0.348848,10,-7.51297e-05,,,,,,,,,,,,
2,0,0,1,0,304.643,0.326876,0.326602,-0.229223,1,0.348705,10,-7.48646e-05,,,,,,,,,,,,
2,0,0,1,0,305.242,0.323879,0.323586,-0.231905,1,0.348562,10,-7.50412e-05,,,,,,,,,,,,
2,0,0,1,0,305.841,0.320883,0.320564,-0.234032,1,0.348417,10,-7.50224e-05,,,,,,,,,,,,
2,0,0,0,0,306.441,0.317887,0.317601,-0.234669,1,0.34827,10,-7.45311e-05,,,,,,,,,,,,
2,0,0,1,0,307.04,0.31489,0.314592,-0.237997,1,0.348123,10,-7.48719e-05,,,,,,,,,,,,
2,0,0,1,0,307.639,0.311894,0.311582,-0.238452,1,0.347975,10,-7.42973e-05,,,,,,,,,,,,
2,0,0,1,0,308.238,0.308897,0.308568,-0.24275,1,0.347825,10,-7.49048e-05,,,,,,,,,,,,
2,0,0,1,0,308.838,0.305901,0.305571,-0.24226,1,0.347675,10,-7.40277e-05,,,,,,,,,,,,
2,0,0,1,0,309.437,0.302905,0.302605,-0.2443,1,0.347523,10,-7.39266e-05,,,,,,,,,,,,
2,0,0,0,0,310.036,0.299908,0.299583,-0.246959,1,0.347369,10,-7.39848e-05,,,,,,,,,,,,
2,0,0,1,0,310.635,0.296912,0.296663,-0.25024,1,0.347214,10,-7.4237e-05,,,,,,,,,,,,
2,0,0,1,0,311.235,0.293916,0.293614,-0.252757,1,0.347058,10,-7.42131e-05,,,,,,,,,,,,
2,0,0,1,0,311.834,0.290919,0.290599,-0.253968,1,0.3469,10,-7.38028e-05,,,,,,,,,,,,
2,0,0,1,0,312.433,0.287923,0.287611,-0.256097,1,0.346741,10,-7.36563e-05,,,,,,,,,,,,
2,0,0,0,0,313.033,0.284927,0.28465,-0.259341,1,0.34658,10,-7.38216e-05,,,,,,,,,,,,
2,0,0,1,0,313.632,0.28193,0.281619,-0.262392,1,0.346418,10,-7.38947e-05,,,,,,,,,,,,
2,0,0,1,0,314.231,0.278934,0.278628,-0.264572,1,0.346253,10,-7.3717e-05,,,,,,,,,,,,
2,0,0,1,0,314.83,0.275937,0.275641,-0.26868,1,0.346087,10,-7.40593e-05,,,,,,,,,,,,
2,0,0,1,0,315.43,0.272941,0.272652,-0.271358,1,0.345919,10,-7.39862e-05,,,,,,,,,,,,
2,0,0,0,0,316.029,0.269945,0.269652,-0.275325,1,0.345749,10,-7.42418e-05,,,,,,,,,,,,
2,0,0,0,0,316.628,0.266948,0.26668,-0.278627,1,0.345576,10,-7.43041e-05,,,,,,,,,,,,
2,0,0,1,0,317.227,0.263952,0.263662,-0.282926,1,0.345401,10,-7.45967e-05,,,,,,,,,,,,
2,0,0,1,0,317.827,0.260956,0.260678,-0.286554,1,0.345224,10,-7.46982e-05,,,,,,,,,,,,
2,0,0,1,0,318.426,0.257959,0.25766,-0.293649,1,0.345044,10,-7.56615e-05,,,,,,,,,,,,
2,0,0,1,0,319.025,0.254963,0.254642,-0.2972,1,0.344861,10,-7.56795e-05,,,,,,,,,,,,
2,0,0,0,0,319.625,0.251966,0.251681,-0.302207,1,0.344674,10,-7.60599e-05,,,,,,,,,,,,
2,0,0,1,0,320.224,0.24897,0.248658,-0.310261,1,0.344484,10,-7.71488e-05,,,,,,,,,,,,
2,0,0,1,0,320.823,0.245974,0.245706,-0.31637,1,0.34429,10,-7.77342e-05,,,,,,,,,,,,
2,0,0,1,0,321.422,0.242977,0.24265,-0.323975,1,0.34409,10,-7.86125e-05,,,,,,,,,,,,
2,0,0,1,0,322.022,0.239981,0.239673,-0.333011,1,0.343886,10,-7.98138e-05,,,,,,,,,,,,
2,0,0,0,0,322.621,0.236985,0.236684,-0.34385,1,0.343676,10,-8.13837e-05,,,,,,,,,,,,
2,0,0,0,0,323.22,0.233988,0.23368,-0.354928,1,0.343459,10,-8.29396e-05,,,,,,,,,,,,
2,0,0,1,0,323.819,0.230992,0.230703,-0.369734,1,0.343235,10,-8.52989e-05,,,,,,,,,,,,
2,0,0,1,0,324.419,0.227996,0.227703,-0.383608,1,0.343002,10,-8.73487e-05,,,,,,,,,,,,
2,0,0,1,0,325.018,0.224999,0.224699,-0.402811,1,0.342759,10,-9.05112e-05,,,,,,,,,,,,
2,0,0,1,0,325.617,0.222003,0.221729,-0.422292,1,0.342505,10,-9.36346e-05,,,,,,,,,,,,
2,0,0,0,0,326.217,0.219006,0.218743,-0.447311,1,0.342237,10,-9.78461e-05,,,,,,,,,,,,
2,0,0,1,0,326.816,0.21601,0.215664,-0.473821,1,0.341953,10,-0.000102186,,,,,,,,,,,,
2,0,0,1,0,327.415,0.213014,0.212712,-0.510686,1,0.341651,10,-0.000108629,,,,,,,,,,,,
2,0,0,1,0,328.014,0.210017,0.209744,-0.547088,1,0.341326,10,-0.000114749,,,,,,,,,,,,
2,0,0,1,0,328.614,0.207021,0.206721,-0.598646,1,0.340975,10,-0.000123753,,,,,,,,,,,,
2,0,0,0,0,329.213,0.204025,0.203701,-0.653977,1,0.340591,10,-0.000133216,,,,,,,,,,,,
2,0,0,1,0,329.812,0.201028,0.200752,-0.721214,1,0.340172,10,-0.000144785,,,,,,,,,,,,
2,0,0,1,0,330.411,0.198032,0.197742,-0.793314,1,0.339711,10,-0.000156871,,,,,,,,,,,,
2,0,0,1,0,331.011,0.195036,0.194745,-0.872513,1,0.339204,10,-0.000169917,,,,,,,,,,,,
2,0,0,1,0,331.61,0.192039,0.191741,-0.954519,1,0.338648,10,-0.00018302,,,,,,,,,,,,
2,0,0,1,0,332.209,0.189043,0.18876,-1.03336,1,0.338044,10,-0.000195058,,,,,,,,,,,,
2,0,0,0,0,332.809,0.186046,0.185757,-1.10813,1,0.337394,10,-0.000205843,,,,,,,,,,,,
2,0,0,1,0,333.408,0.18305,0.182728,-1.16945,1,0.336702,10,-0.000213693,,,,,,,,,,,,
2,0,0,1,0,334.007,0.180054,0.179791,-1.22275,1,0.335976,10,-0.00021984,,,,,,,,,,,,
2,0,0,1,0,334.606,0.177057,0.176718,-1.25876,1,0.335223,10,-0.000222445,,,,,,,,,,,,
2,0,0,1,0,335.206,0.174061,0.173758,-1.27952,1,0.334453,10,-0.000222327,,,,,,,,,,,,
2,0,0,0,0,335.805,0.171065,0.170764,-1.2762,1,0.333677,10,-0.00021793,,,,,,,,,,,,
2,0,0,1,0,336.404,0.168068,0.167714,-1.25951,1,0.332907,10,-0.000211238,,,,,,,,,,,,
2,0,0,1,0,337.003,0.165072,0.164774,-1.20993,1,0.332157,10,-0.000199364,,,,,,,,,,,,
2,0,0,1,0,337.603,0.162076,0.161715,-1.14571,1,0.331442,10,-0.000185279,,,,,,,,,,,,
2,0,0,1,0,338.202,0.159079,0.158767,-1.06286,1,0.330772,10,-0.000168747,,,,,,,,,,,,
2,0,0,0,0,338.801,0.156083,0.155784,-0.977753,1,0.330153,10,-0.000152319,,,,,,,,,,,,
2,0,0,0,0,339.401,0.153086,0.152721,-0.899063,1,0.329583,10,-0.000137306,,,,,,,,,,,,
2,0,0,1,0,340,0.15009,0.149792,-0.82886,1,0.329059,10,-0.000124157,,,,,,,,,,,,
2,0,0,1,0,340.599,0.147094,0.146761,-0.774461,1,0.328571,10,-0.000113661,,,,,,,,,,,,
2,0,0,1,0,341.198,0.144097,0.143808,-0.73074,1,0.328113,10,-0.000105086,,,,,,,,,,,,
2,0,0,1,0,341.798,0.141101,0.140796,-0.696678,1,0.327677,10,-9.80895e-05,,,,,,,,,,,,
2,0,0,0,0,342.397,0.138105,0.137808,-0.667737,1,0.327262,10,-9.20198e-05,,,,,,,,,,,,
2,0,0,1,0,342.996,0.135108,0.134773,-0.644154,1,0.326861,10,-8.68147e-05,,,,,,,,,,,,
2,0,0,1,0,343.595,0.132112,0.131813,-0.621932,1,0.326475,10,-8.1979e-05,,,,,,,,,,,,
2,0,0,1,0,344.195,0.129115,0.128824,-0.604604,1,0.3261,10,-7.78872e-05,,,,,,,,,,,,
2,0,0,1,0,344.794,0.126119,0.125815,-0.583737,1,0.325736,10,-7.34429e-05,,,,,,,,,,,,
2,0,0,0,0,345.393,0.123123,0.122848,-0.567383,1,0.325383,10,-6.97019e-05,,,,,,,,,,,,
2,0,0,0,0,345.993,0.120126,0.119866,-0.550634,1,0.32504,10,-6.60025e-05,,,,,,,,,,,,
2,0,0,1,0,346.592,0.11713,0.116842,-0.539887,1,0.324706,10,-6.30816e-05,,,,,,,,,,,,
2,0,0,1,0,347.191,0.114134,0.113853,-0.523925,1,0.324379,10,-5.96503e-05,,,,,,,,,,,,
2,0,0,1,0,347.79,0.111137,0.110867,-0.514894,1,0.32406,10,-5.70849e-05,,,,,,,,,,,,
2,0,0,1,0,348.39,0.108141,0.107808,-0.50596,1,0.323747,10,-5.45464e-05,,,,,,,,,,,,
2,0,0,0,0,348.989,0.105145,0.104805,-0.498383,1,0.32344,10,-5.22333e-05,,,,,,,,,,,,
2,0,0,1,0,349.588,0.102148,0.101837,-0.491357,1,0.323136,10,-5.00384e-05,,,,,,,,,,,,
2,0,0,1,0,350.187,0.0991523,0.0988453,-0.485464,1,0.322837,10,-4.79858e-05,,,,,,,,,,,,
2,0,0,1,0,350.787,0.0961555,0.0958513,-0.481258,1,0.32254,10,-4.61292e-05,,,,,,,,,,,,
2,0,0,1,0,351.386,0.0931591,0.0928344,-0.477242,1,0.322246,10,-4.43045e-05,,,,,,,,,,,,
2,0,0,0,0,351.985,0.0901627,0.0898155,-0.474669,1,0.321953,10,-4.26326e-05,,,,,,,,,,,,
2,0,0,1,0,352.585,0.0871659,0.0868586,-0.471861,1,0.321662,10,-4.09852e-05,,,,,,,,,,,,
2,0,0,1,0,353.184,0.0841702,0.0838562,-0.469666,1,0.321372,10,-3.93844e-05,,,,,,,,,,,,
2,0,0,1,0,353.783,0.0811736,0.0808805,-0.46868,1,0.321083,10,-3.79071e-05,,,,,,,,,,,,
2,0,0,1,0,354.382,0.0781769,0.0778601,-0.468461,1,0.320795,10,-3.64744e-05,,,,,,,,,,,,
2,0,0,1,0,354.982,0.0751812,0.0749171,-0.467202,1,0.320507,10,-3.50014e-05,,,,,,,,,,,,
2,0,0,0,0,355.581,0.0721845,0.0718533,-0.468273,1,0.320218,10,-3.3647e-05,,,,,,,,,,,,
2,0,0,1,0,356.18,0.0691881,0.068882,-0.468251,1,0.31993,10,-3.22541e-05,,,,,,,,,,,,
2,0,0,1,0,356.78,0.0661918,0.0658768,-0.472386,1,0.31964,10,-3.11193e-05,,,,,,,,,,,,
2,0,0,1,0,357.379,0.0631954,0.062913,-0.472422,1,0.319349,10,-2.97215e-05,,,,,,,,,,,,
2,0,0,1,0,357.978,0.0601992,0.059874,-0.475545,1,0.319058,10,-2.84728e-05,,,,,,,,,,,,
2,0,0,0,0,358.577,0.0572027,0.0569058,-0.477589,1,0.318765,10,-2.71776e-05,,,,,,,,,,,,
2,0,0,1,0,359.177,0.0542059,0.0539298,-0.480418,1,0.31847,10,-2.59088e-05,,,,,,,,,,,,
2,0,0,1,0,359.776,0.0512102,0.0508817,-0.482443,1,0.318174,10,-2.45475e-05,,,,,,,,,,,,
2,0,0,1,0,360.375,0.0482136,0.0479051,-0.484918,1,0.317876,10,-2.323e-05,,,,,,,,,,,,
2,0,0,1,0,360.974,0.045217,0.0449472,-0.489795,1,0.317576,10,-2.20149e-05,,,,,,,,,,,,
2,0,0,1,0,361.574,0.0422213,0.0419078,-0.493421,1,0.317274,10,-2.06782e-05,,,,,,,,,,,,
2,0,0,0,0,362.173,0.0392245,0.0389446,-0.49602,1,0.31697,10,-1.93173e-05,,,,,,,,,,,,
2,0,0,1,0,362.772,0.0362281,0.0359361,-0.500918,1,0.316664,10,-1.80011e-05,,,,,,,,,,,,
2,0,0,1,0,363.372,0.0332318,0.0329067,-0.505078,1,0.316355,10,-1.66204e-05,,,,,,,,,,,,
2,0,0,1,0,363.971,0.0302354,0.0299142,-0.507201,1,0.316044,10,-1.51725e-05,,,,,,,,,,,,
2,0,0,1,0,364.57,0.0272391,0.0269516,-0.513581,1,0.31573,10,-1.38418e-05,,,,,,,,,,,,
2,0,0,0,0,365.169,0.0242427,0.0238932,-0.517286,1,0.315413,10,-1.23596e-05,,,,,,,,,,,,
2,0,0,1,0,365.769,0.021246,0.0209237,-0.523818,1,0.315093,10,-1.09602e-05,,,,,,,,,,,,
2,0,0,1,0,366.368,0.0182503,0.0179087,-0.527292,1,0.31477,10,-9.44313e-06,,,,,,,,,,,,
2,0,0,1,0,366.967,0.0152536,0.0149582,-0.534817,1,0.314443,10,-7.99992e-06,,,,,,,,,,,,
2,0,0,1,0,367.566,0.0122571,0.0119032,-0.542369,1,0.314112,10,-6.45594e-06,,,,,,,,,,,,
2,0,0,0,0,368.166,0.00926084,0.00894362,-0.549703,1,0.313778,10,-4.91634e-06,,,,,,,,,,,,
2,0,0,0,0,368.765,0.00626447,0.00596282,-0.557553,1,0.313437,10,-3.32459e-06,,,,,,,,,,,,
2,0,0,1,0,369.364,0.0032681,0.00294816,-0.56794,1,0.313092,10,-1.67438e-06,,,,,,,,,,,,
2,0,0,1,0,369.964,0.000271739,-5.71098e-05,-0.580096,1,0.312739,10,3.31292e-08,,,,,,,,,,,,
2,0,0,1,0,370.013,2.92817e-06,-0.00047597,-0.626693,1,0.312709,10,2.98288e-07,,,,,,,,,,,,