File: Figure_codes/Fig_1A/20230112_2-4_003_FTOsubstrate_fine_m.TXT
2theta,intensity,,,,
5,437.5,Sample,FTO,,
5.04,377.083,Comments,meas,,
5.08,418.75,Filename,C:\data\BCRT\Yatsuzuka\20230112_2-4_XRD_alphaMnO2\20230112_2-4_003_FTOsubstrate_fine.raw,,
5.12,420.833,Goniometer,Ultima+,theta-theta,goniometer
5.16,368.75,Attachment,Standard,sample,holder
5.2,375,Monochromater,Fixed,Monochromator,
5.24,381.25,ScanningMode,2Theta/Theta,,
5.28,387.5,ScanningType,Continuos,Scanning,
5.32,350,X-Ray,40kV/40mA,,
5.36,412.5,DivSlit,1,deg.,
5.4,425,DivH.L.Slit,10mm,,
5.44,320.833,SctSlit,1,deg.,
5.48,314.583,RecSlit,0.6mm,,
5.52,427.083,Monochro,RS,No,Use
5.56,358.333,Start,5,,
5.6,354.167,Stop,50,,
5.64,354.167,Step,0.04,,
5.68,343.75,Speed,5,,
5.72,322.917,Offset,0,,
5.76,325,TempUnit,Celsius,,
5.8,335.417,StartTime,2023/01/12,14:59:00,
5.84,310.417,StartTemp,0,,
5.88,333.333,StopTime,2023/01/12,15:08:10,
5.92,322.917,StopTemp,0,,
5.96,320.833,,,,
6,343.75,,,,
6.04,308.333,,,,
6.08,281.25,,,,
6.12,310.417,,,,
6.16,312.5,,,,
6.2,339.583,,,,
6.24,337.5,,,,
6.28,350,,,,
6.32,283.333,,,,
6.36,320.833,,,,
6.4,291.667,,,,
6.44,322.917,,,,
6.48,270.833,,,,
6.52,293.75,,,,
6.56,318.75,,,,
6.6,258.333,,,,
6.64,287.5,,,,
6.68,291.667,,,,
6.72,270.833,,,,
6.76,262.5,,,,
6.8,300,,,,
6.84,279.167,,,,
6.88,260.417,,,,
6.92,237.5,,,,
6.96,243.75,,,,
7,237.5,,,,
7.04,250,,,,
7.08,277.083,,,,
7.12,231.25,,,,
7.16,222.917,,,,
7.2,260.417,,,,
7.24,254.167,,,,
7.28,277.083,,,,
7.32,245.833,,,,
7.36,239.583,,,,
7.4,239.583,,,,
7.44,225,,,,
7.48,206.25,,,,
7.52,252.083,,,,
7.56,239.583,,,,
7.6,245.833,,,,
7.64,237.5,,,,
7.68,227.083,,,,
7.72,277.083,,,,
7.76,252.083,,,,
7.8,235.417,,,,
7.84,247.917,,,,
7.88,222.917,,,,
7.92,200,,,,
7.96,264.583,,,,
8,231.25,,,,
8.04,243.75,,,,
8.08,262.5,,,,
8.12,268.75,,,,
8.16,191.667,,,,
8.2,227.083,,,,
8.24,254.167,,,,
8.28,231.25,,,,
8.32,208.333,,,,
8.36,195.833,,,,
8.4,210.417,,,,
8.44,227.083,,,,
8.48,225,,,,
8.52,181.25,,,,
8.56,208.333,,,,
8.6,189.583,,,,
8.64,168.75,,,,
8.68,181.25,,,,
8.72,235.417,,,,
8.76,222.917,,,,
8.8,197.917,,,,
8.84,183.333,,,,
8.88,200,,,,
8.92,197.917,,,,
8.96,187.5,,,,
9,206.25,,,,
9.04,191.667,,,,
9.08,200,,,,
9.12,229.167,,,,
9.16,195.833,,,,
9.2,227.083,,,,
9.24,181.25,,,,
9.28,172.917,,,,
9.32,210.417,,,,
9.36,154.167,,,,
9.4,204.167,,,,
9.44,200,,,,
9.48,212.5,,,,
9.52,172.917,,,,
9.56,175,,,,
9.6,183.333,,,,
9.64,204.167,,,,
9.68,189.583,,,,
9.72,245.833,,,,
9.76,204.167,,,,
9.8,185.417,,,,
9.84,164.583,,,,
9.88,147.917,,,,
9.92,189.583,,,,
9.96,195.833,,,,
10,168.75,,,,
10.04,204.167,,,,
10.08,131.25,,,,
10.12,183.333,,,,
10.16,177.083,,,,
10.2,160.417,,,,
10.24,193.75,,,,
10.28,160.417,,,,
10.32,220.833,,,,
10.36,195.833,,,,
10.4,170.833,,,,
10.44,170.833,,,,
10.48,187.5,,,,
10.52,179.167,,,,
10.56,177.083,,,,
10.6,214.583,,,,
10.64,162.5,,,,
10.68,179.167,,,,
10.72,152.083,,,,
10.76,183.333,,,,
10.8,168.75,,,,
10.84,183.333,,,,
10.88,229.167,,,,
10.92,191.667,,,,
10.96,164.583,,,,
11,156.25,,,,
11.04,168.75,,,,
11.08,214.583,,,,
11.12,181.25,,,,
11.16,156.25,,,,
11.2,175,,,,
11.24,158.333,,,,
11.28,206.25,,,,
11.32,164.583,,,,
11.36,164.583,,,,
11.4,197.917,,,,
11.44,204.167,,,,
11.48,170.833,,,,
11.52,185.417,,,,
11.56,175,,,,
11.6,172.917,,,,
11.64,204.167,,,,
11.68,170.833,,,,
11.72,154.167,,,,
11.76,150,,,,
11.8,150,,,,
11.84,200,,,,
11.88,162.5,,,,
11.92,183.333,,,,
11.96,175,,,,
12,172.917,,,,
12.04,177.083,,,,
12.08,160.417,,,,
12.12,195.833,,,,
12.16,162.5,,,,
12.2,191.667,,,,
12.24,179.167,,,,
12.28,141.667,,,,
12.32,150,,,,
12.36,170.833,,,,
12.4,172.917,,,,
12.44,141.667,,,,
12.48,152.083,,,,
12.52,172.917,,,,
12.56,156.25,,,,
12.6,166.667,,,,
12.64,137.5,,,,
12.68,166.667,,,,
12.72,160.417,,,,
12.76,164.583,,,,
12.8,139.583,,,,
12.84,154.167,,,,
12.88,160.417,,,,
12.92,162.5,,,,
12.96,168.75,,,,
13,156.25,,,,
13.04,141.667,,,,
13.08,141.667,,,,
13.12,139.583,,,,
13.16,156.25,,,,
13.2,158.333,,,,
13.24,152.083,,,,
13.28,168.75,,,,
13.32,160.417,,,,
13.36,152.083,,,,
13.4,154.167,,,,
13.44,200,,,,
13.48,162.5,,,,
13.52,170.833,,,,
13.56,177.083,,,,
13.6,181.25,,,,
13.64,170.833,,,,
13.68,162.5,,,,
13.72,150,,,,
13.76,143.75,,,,
13.8,160.417,,,,
13.84,147.917,,,,
13.88,154.167,,,,
13.92,170.833,,,,
13.96,154.167,,,,
14,191.667,,,,
14.04,172.917,,,,
14.08,145.833,,,,
14.12,131.25,,,,
14.16,189.583,,,,
14.2,185.417,,,,
14.24,162.5,,,,
14.28,168.75,,,,
14.32,170.833,,,,
14.36,200,,,,
14.4,154.167,,,,
14.44,133.333,,,,
14.48,164.583,,,,
14.52,204.167,,,,
14.56,206.25,,,,
14.6,158.333,,,,
14.64,202.083,,,,
14.68,185.417,,,,
14.72,156.25,,,,
14.76,200,,,,
14.8,166.667,,,,
14.84,150,,,,
14.88,162.5,,,,
14.92,202.083,,,,
14.96,175,,,,
15,187.5,,,,
15.04,197.917,,,,
15.08,162.5,,,,
15.12,145.833,,,,
15.16,181.25,,,,
15.2,189.583,,,,
15.24,200,,,,
15.28,197.917,,,,
15.32,189.583,,,,
15.36,162.5,,,,
15.4,183.333,,,,
15.44,214.583,,,,
15.48,202.083,,,,
15.52,170.833,,,,
15.56,200,,,,
15.6,156.25,,,,
15.64,152.083,,,,
15.68,166.667,,,,
15.72,195.833,,,,
15.76,158.333,,,,
15.8,177.083,,,,
15.84,204.167,,,,
15.88,216.667,,,,
15.92,179.167,,,,
15.96,181.25,,,,
16,191.667,,,,
16.04,195.833,,,,
16.08,181.25,,,,
16.12,202.083,,,,
16.16,193.75,,,,
16.2,185.417,,,,
16.24,179.167,,,,
16.28,166.667,,,,
16.32,220.833,,,,
16.36,158.333,,,,
16.4,152.083,,,,
16.44,187.5,,,,
16.48,181.25,,,,
16.52,222.917,,,,
16.56,183.333,,,,
16.6,195.833,,,,
16.64,200,,,,
16.68,206.25,,,,
16.72,208.333,,,,
16.76,241.667,,,,
16.8,166.667,,,,
16.84,181.25,,,,
16.88,220.833,,,,
16.92,193.75,,,,
16.96,202.083,,,,
17,183.333,,,,
17.04,214.583,,,,
17.08,202.083,,,,
17.12,231.25,,,,
17.16,210.417,,,,
17.2,237.5,,,,
17.24,187.5,,,,
17.28,202.083,,,,
17.32,229.167,,,,
17.36,260.417,,,,
17.4,214.583,,,,
17.44,243.75,,,,
17.48,227.083,,,,
17.52,245.833,,,,
17.56,266.667,,,,
17.6,252.083,,,,
17.64,200,,,,
17.68,218.75,,,,
17.72,233.333,,,,
17.76,264.583,,,,
17.8,229.167,,,,
17.84,260.417,,,,
17.88,231.25,,,,
17.92,191.667,,,,
17.96,277.083,,,,
18,233.333,,,,
18.04,250,,,,
18.08,264.583,,,,
18.12,222.917,,,,
18.16,243.75,,,,
18.2,252.083,,,,
18.24,252.083,,,,
18.28,237.5,,,,
18.32,254.167,,,,
18.36,260.417,,,,
18.4,270.833,,,,
18.44,204.167,,,,
18.48,254.167,,,,
18.52,270.833,,,,
18.56,243.75,,,,
18.6,268.75,,,,
18.64,277.083,,,,
18.68,254.167,,,,
18.72,300,,,,
18.76,285.417,,,,
18.8,250,,,,
18.84,252.083,,,,
18.88,264.583,,,,
18.92,264.583,,,,
18.96,295.833,,,,
19,291.667,,,,
19.04,300,,,,
19.08,285.417,,,,
19.12,295.833,,,,
19.16,272.917,,,,
19.2,281.25,,,,
19.24,268.75,,,,
19.28,291.667,,,,
19.32,283.333,,,,
19.36,312.5,,,,
19.4,293.75,,,,
19.44,335.417,,,,
19.48,358.333,,,,
19.52,337.5,,,,
19.56,304.167,,,,
19.6,345.833,,,,
19.64,350,,,,
19.68,293.75,,,,
19.72,304.167,,,,
19.76,300,,,,
19.8,335.417,,,,
19.84,345.833,,,,
19.88,354.167,,,,
19.92,297.917,,,,
19.96,356.25,,,,
20,368.75,,,,
20.04,322.917,,,,
20.08,308.333,,,,
20.12,379.167,,,,
20.16,347.917,,,,
20.2,331.25,,,,
20.24,393.75,,,,
20.28,381.25,,,,
20.32,343.75,,,,
20.36,410.417,,,,
20.4,385.417,,,,
20.44,343.75,,,,
20.48,377.083,,,,
20.52,387.5,,,,
20.56,356.25,,,,
20.6,397.917,,,,
20.64,406.25,,,,
20.68,389.583,,,,
20.72,372.917,,,,
20.76,379.167,,,,
20.8,364.583,,,,
20.84,395.833,,,,
20.88,420.833,,,,
20.92,429.167,,,,
20.96,406.25,,,,
21,466.667,,,,
21.04,402.083,,,,
21.08,420.833,,,,
21.12,366.667,,,,
21.16,427.083,,,,
21.2,414.583,,,,
21.24,366.667,,,,
21.28,381.25,,,,
21.32,450,,,,
21.36,400,,,,
21.4,329.167,,,,
21.44,383.333,,,,
21.48,412.5,,,,
21.52,406.25,,,,
21.56,466.667,,,,
21.6,418.75,,,,
21.64,477.083,,,,
21.68,437.5,,,,
21.72,439.583,,,,
21.76,393.75,,,,
21.8,420.833,,,,
21.84,343.75,,,,
21.88,512.5,,,,
21.92,462.5,,,,
21.96,450,,,,
22,395.833,,,,
22.04,437.5,,,,
22.08,387.5,,,,
22.12,466.667,,,,
22.16,416.667,,,,
22.2,452.083,,,,
22.24,402.083,,,,
22.28,450,,,,
22.32,483.333,,,,
22.36,425,,,,
22.4,400,,,,
22.44,443.75,,,,
22.48,452.083,,,,
22.52,454.167,,,,
22.56,454.167,,,,
22.6,510.417,,,,
22.64,437.5,,,,
22.68,466.667,,,,
22.72,429.167,,,,
22.76,472.917,,,,
22.8,416.667,,,,
22.84,447.917,,,,
22.88,456.25,,,,
22.92,477.083,,,,
22.96,452.083,,,,
23,460.417,,,,
23.04,466.667,,,,
23.08,495.833,,,,
23.12,510.417,,,,
23.16,475,,,,
23.2,487.5,,,,
23.24,406.25,,,,
23.28,443.75,,,,
23.32,454.167,,,,
23.36,479.167,,,,
23.4,462.5,,,,
23.44,487.5,,,,
23.48,470.833,,,,
23.52,420.833,,,,
23.56,456.25,,,,
23.6,506.25,,,,
23.64,514.583,,,,
23.68,435.417,,,,
23.72,422.917,,,,
23.76,466.667,,,,
23.8,489.583,,,,
23.84,485.417,,,,
23.88,483.333,,,,
23.92,500,,,,
23.96,466.667,,,,
24,460.417,,,,
24.04,427.083,,,,
24.08,483.333,,,,
24.12,435.417,,,,
24.16,531.25,,,,
24.2,466.667,,,,
24.24,508.333,,,,
24.28,566.667,,,,
24.32,570.833,,,,
24.36,554.167,,,,
24.4,562.5,,,,
24.44,608.333,,,,
24.48,518.75,,,,
24.52,554.167,,,,
24.56,506.25,,,,
24.6,539.583,,,,
24.64,512.5,,,,
24.68,543.75,,,,
24.72,554.167,,,,
24.76,510.417,,,,
24.8,545.833,,,,
24.84,508.333,,,,
24.88,433.333,,,,
24.92,564.583,,,,
24.96,506.25,,,,
25,491.667,,,,
25.04,425,,,,
25.08,489.583,,,,
25.12,481.25,,,,
25.16,512.5,,,,
25.2,543.75,,,,
25.24,479.167,,,,
25.28,475,,,,
25.32,514.583,,,,
25.36,485.417,,,,
25.4,477.083,,,,
25.44,468.75,,,,
25.48,472.917,,,,
25.52,470.833,,,,
25.56,427.083,,,,
25.6,470.833,,,,
25.64,493.75,,,,
25.68,443.75,,,,
25.72,489.583,,,,
25.76,489.583,,,,
25.8,516.667,,,,
25.84,522.917,,,,
25.88,491.667,,,,
25.92,518.75,,,,
25.96,520.833,,,,
26,491.667,,,,
26.04,512.5,,,,
26.08,535.417,,,,
26.12,564.583,,,,
26.16,554.167,,,,
26.2,635.417,,,,
26.24,579.167,,,,
26.28,645.833,,,,
26.32,752.083,,,,
26.36,777.083,,,,
26.4,833.333,,,,
26.44,887.5,,,,
26.48,1047.92,,,,
26.52,1050,,,,
26.56,1158.33,,,,
26.6,1150,,,,
26.64,1043.75,,,,
26.68,868.75,,,,
26.72,825,,,,
26.76,772.917,,,,
26.8,677.083,,,,
26.84,664.583,,,,
26.88,647.917,,,,
26.92,618.75,,,,
26.96,564.583,,,,
27,485.417,,,,
27.04,510.417,,,,
27.08,520.833,,,,
27.12,470.833,,,,
27.16,508.333,,,,
27.2,493.75,,,,
27.24,510.417,,,,
27.28,452.083,,,,
27.32,466.667,,,,
27.36,439.583,,,,
27.4,464.583,,,,
27.44,447.917,,,,
27.48,441.667,,,,
27.52,447.917,,,,
27.56,422.917,,,,
27.6,445.833,,,,
27.64,420.833,,,,
27.68,375,,,,
27.72,456.25,,,,
27.76,400,,,,
27.8,375,,,,
27.84,456.25,,,,
27.88,385.417,,,,
27.92,354.167,,,,
27.96,347.917,,,,
28,387.5,,,,
28.04,333.333,,,,
28.08,391.667,,,,
28.12,368.75,,,,
28.16,364.583,,,,
28.2,372.917,,,,
28.24,381.25,,,,
28.28,325,,,,
28.32,431.25,,,,
28.36,383.333,,,,
28.4,352.083,,,,
28.44,362.5,,,,
28.48,364.583,,,,
28.52,393.75,,,,
28.56,360.417,,,,
28.6,347.917,,,,
28.64,339.583,,,,
28.68,356.25,,,,
28.72,337.5,,,,
28.76,347.917,,,,
28.8,391.667,,,,
28.84,356.25,,,,
28.88,404.167,,,,
28.92,387.5,,,,
28.96,364.583,,,,
29,318.75,,,,
29.04,325,,,,
29.08,356.25,,,,
29.12,352.083,,,,
29.16,404.167,,,,
29.2,320.833,,,,
29.24,377.083,,,,
29.28,331.25,,,,
29.32,312.5,,,,
29.36,304.167,,,,
29.4,337.5,,,,
29.44,383.333,,,,
29.48,322.917,,,,
29.52,356.25,,,,
29.56,341.667,,,,
29.6,356.25,,,,
29.64,397.917,,,,
29.68,304.167,,,,
29.72,352.083,,,,
29.76,327.083,,,,
29.8,350,,,,
29.84,370.833,,,,
29.88,337.5,,,,
29.92,308.333,,,,
29.96,339.583,,,,
30,397.917,,,,
30.04,347.917,,,,
30.08,366.667,,,,
30.12,354.167,,,,
30.16,279.167,,,,
30.2,320.833,,,,
30.24,339.583,,,,
30.28,341.667,,,,
30.32,270.833,,,,
30.36,350,,,,
30.4,341.667,,,,
30.44,375,,,,
30.48,300,,,,
30.52,306.25,,,,
30.56,318.75,,,,
30.6,291.667,,,,
30.64,325,,,,
30.68,329.167,,,,
30.72,304.167,,,,
30.76,329.167,,,,
30.8,412.5,,,,
30.84,350,,,,
30.88,320.833,,,,
30.92,289.583,,,,
30.96,308.333,,,,
31,381.25,,,,
31.04,400,,,,
31.08,331.25,,,,
31.12,402.083,,,,
31.16,502.083,,,,
31.2,585.417,,,,
31.24,735.417,,,,
31.28,785.417,,,,
31.32,852.083,,,,
31.36,866.667,,,,
31.4,706.25,,,,
31.44,664.583,,,,
31.48,627.083,,,,
31.52,539.583,,,,
31.56,443.75,,,,
31.6,510.417,,,,
31.64,483.333,,,,
31.68,393.75,,,,
31.72,439.583,,,,
31.76,387.5,,,,
31.8,414.583,,,,
31.84,400,,,,
31.88,414.583,,,,
31.92,385.417,,,,
31.96,368.75,,,,
32,358.333,,,,
32.04,360.417,,,,
32.08,335.417,,,,
32.12,335.417,,,,
32.16,347.917,,,,
32.2,427.083,,,,
32.24,377.083,,,,
32.28,377.083,,,,
32.32,297.917,,,,
32.36,337.5,,,,
32.4,379.167,,,,
32.44,368.75,,,,
32.48,360.417,,,,
32.52,377.083,,,,
32.56,318.75,,,,
32.6,339.583,,,,
32.64,306.25,,,,
32.68,333.333,,,,
32.72,329.167,,,,
32.76,331.25,,,,
32.8,320.833,,,,
32.84,322.917,,,,
32.88,337.5,,,,
32.92,362.5,,,,
32.96,360.417,,,,
33,352.083,,,,
33.04,402.083,,,,
33.08,366.667,,,,
33.12,370.833,,,,
33.16,379.167,,,,
33.2,370.833,,,,
33.24,427.083,,,,
33.28,347.917,,,,
33.32,360.417,,,,
33.36,345.833,,,,
33.4,393.75,,,,
33.44,431.25,,,,
33.48,441.667,,,,
33.52,447.917,,,,
33.56,508.333,,,,
33.6,477.083,,,,
33.64,539.583,,,,
33.68,579.167,,,,
33.72,639.583,,,,
33.76,666.667,,,,
33.8,760.417,,,,
33.84,727.083,,,,
33.88,693.75,,,,
33.92,625,,,,
33.96,587.5,,,,
34,550,,,,
34.04,545.833,,,,
34.08,500,,,,
34.12,450,,,,
34.16,377.083,,,,
34.2,489.583,,,,
34.24,395.833,,,,
34.28,360.417,,,,
34.32,387.5,,,,
34.36,316.667,,,,
34.4,354.167,,,,
34.44,354.167,,,,
34.48,308.333,,,,
34.52,356.25,,,,
34.56,325,,,,
34.6,312.5,,,,
34.64,285.417,,,,
34.68,297.917,,,,
34.72,262.5,,,,
34.76,295.833,,,,
34.8,308.333,,,,
34.84,295.833,,,,
34.88,304.167,,,,
34.92,325,,,,
34.96,268.75,,,,
35,256.25,,,,
35.04,252.083,,,,
35.08,275,,,,
35.12,245.833,,,,
35.16,264.583,,,,
35.2,283.333,,,,
35.24,308.333,,,,
35.28,287.5,,,,
35.32,262.5,,,,
35.36,229.167,,,,
35.4,252.083,,,,
35.44,227.083,,,,
35.48,300,,,,
35.52,258.333,,,,
35.56,225,,,,
35.6,220.833,,,,
35.64,204.167,,,,
35.68,256.25,,,,
35.72,281.25,,,,
35.76,239.583,,,,
35.8,264.583,,,,
35.84,231.25,,,,
35.88,222.917,,,,
35.92,275,,,,
35.96,258.333,,,,
36,239.583,,,,
36.04,239.583,,,,
36.08,293.75,,,,
36.12,293.75,,,,
36.16,235.417,,,,
36.2,237.5,,,,
36.24,200,,,,
36.28,237.5,,,,
36.32,231.25,,,,
36.36,241.667,,,,
36.4,266.667,,,,
36.44,237.5,,,,
36.48,214.583,,,,
36.52,260.417,,,,
36.56,256.25,,,,
36.6,191.667,,,,
36.64,270.833,,,,
36.68,252.083,,,,
36.72,277.083,,,,
36.76,243.75,,,,
36.8,289.583,,,,
36.84,279.167,,,,
36.88,304.167,,,,
36.92,233.333,,,,
36.96,266.667,,,,
37,260.417,,,,
37.04,260.417,,,,
37.08,279.167,,,,
37.12,285.417,,,,
37.16,262.5,,,,
37.2,302.083,,,,
37.24,316.667,,,,
37.28,266.667,,,,
37.32,314.583,,,,
37.36,320.833,,,,
37.4,331.25,,,,
37.44,285.417,,,,
37.48,408.333,,,,
37.52,381.25,,,,
37.56,412.5,,,,
37.6,468.75,,,,
37.64,560.417,,,,
37.68,622.917,,,,
37.72,762.5,,,,
37.76,952.083,,,,
37.8,1402.08,,,,
37.84,2131.25,,,,
37.88,3362.5,,,,
37.92,5525,,,,
37.96,7295.83,,,,
38,8189.58,,,,
38.04,7908.33,,,,
38.08,6522.92,,,,
38.12,5137.5,,,,
38.16,3462.5,,,,
38.2,2181.25,,,,
38.24,1310.42,,,,
38.28,968.75,,,,
38.32,785.417,,,,
38.36,610.417,,,,
38.4,506.25,,,,
38.44,439.583,,,,
38.48,437.5,,,,
38.52,306.25,,,,
38.56,347.917,,,,
38.6,347.917,,,,
38.64,268.75,,,,
38.68,258.333,,,,
38.72,262.5,,,,
38.76,233.333,,,,
38.8,275,,,,
38.84,241.667,,,,
38.88,252.083,,,,
38.92,231.25,,,,
38.96,214.583,,,,
39,233.333,,,,
39.04,218.75,,,,
39.08,239.583,,,,
39.12,202.083,,,,
39.16,222.917,,,,
39.2,247.917,,,,
39.24,193.75,,,,
39.28,227.083,,,,
39.32,264.583,,,,
39.36,189.583,,,,
39.4,220.833,,,,
39.44,214.583,,,,
39.48,204.167,,,,
39.52,206.25,,,,
39.56,197.917,,,,
39.6,193.75,,,,
39.64,229.167,,,,
39.68,239.583,,,,
39.72,210.417,,,,
39.76,212.5,,,,
39.8,195.833,,,,
39.84,197.917,,,,
39.88,227.083,,,,
39.92,214.583,,,,
39.96,243.75,,,,
40,220.833,,,,
40.04,214.583,,,,
40.08,191.667,,,,
40.12,233.333,,,,
40.16,214.583,,,,
40.2,202.083,,,,
40.24,243.75,,,,
40.28,218.75,,,,
40.32,177.083,,,,
40.36,195.833,,,,
40.4,227.083,,,,
40.44,243.75,,,,
40.48,208.333,,,,
40.52,210.417,,,,
40.56,214.583,,,,
40.6,175,,,,
40.64,210.417,,,,
40.68,218.75,,,,
40.72,202.083,,,,
40.76,200,,,,
40.8,189.583,,,,
40.84,220.833,,,,
40.88,218.75,,,,
40.92,204.167,,,,
40.96,266.667,,,,
41,233.333,,,,
41.04,204.167,,,,
41.08,193.75,,,,
41.12,235.417,,,,
41.16,214.583,,,,
41.2,177.083,,,,
41.24,210.417,,,,
41.28,227.083,,,,
41.32,175,,,,
41.36,214.583,,,,
41.4,216.667,,,,
41.44,231.25,,,,
41.48,177.083,,,,
41.52,210.417,,,,
41.56,243.75,,,,
41.6,231.25,,,,
41.64,229.167,,,,
41.68,181.25,,,,
41.72,229.167,,,,
41.76,225,,,,
41.8,218.75,,,,
41.84,204.167,,,,
41.88,218.75,,,,
41.92,245.833,,,,
41.96,218.75,,,,
42,227.083,,,,
42.04,254.167,,,,
42.08,197.917,,,,
42.12,191.667,,,,
42.16,252.083,,,,
42.2,250,,,,
42.24,270.833,,,,
42.28,247.917,,,,
42.32,260.417,,,,
42.36,237.5,,,,
42.4,227.083,,,,
42.44,206.25,,,,
42.48,216.667,,,,
42.52,220.833,,,,
42.56,235.417,,,,
42.6,212.5,,,,
42.64,245.833,,,,
42.68,264.583,,,,
42.72,243.75,,,,
42.76,247.917,,,,
42.8,252.083,,,,
42.84,239.583,,,,
42.88,235.417,,,,
42.92,237.5,,,,
42.96,218.75,,,,
43,275,,,,
43.04,225,,,,
43.08,197.917,,,,
43.12,241.667,,,,
43.16,252.083,,,,
43.2,200,,,,
43.24,183.333,,,,
43.28,206.25,,,,
43.32,212.5,,,,
43.36,245.833,,,,
43.4,218.75,,,,
43.44,208.333,,,,
43.48,220.833,,,,
43.52,233.333,,,,
43.56,243.75,,,,
43.6,262.5,,,,
43.64,243.75,,,,
43.68,237.5,,,,
43.72,227.083,,,,
43.76,216.667,,,,
43.8,195.833,,,,
43.84,200,,,,
43.88,239.583,,,,
43.92,220.833,,,,
43.96,200,,,,
44,204.167,,,,
44.04,195.833,,,,
44.08,231.25,,,,
44.12,220.833,,,,
44.16,220.833,,,,
44.2,247.917,,,,
44.24,247.917,,,,
44.28,237.5,,,,
44.32,214.583,,,,
44.36,239.583,,,,
44.4,200,,,,
44.44,214.583,,,,
44.48,250,,,,
44.52,252.083,,,,
44.56,229.167,,,,
44.6,204.167,,,,
44.64,252.083,,,,
44.68,216.667,,,,
44.72,206.25,,,,
44.76,275,,,,
44.8,227.083,,,,
44.84,177.083,,,,
44.88,227.083,,,,
44.92,264.583,,,,
44.96,237.5,,,,
45,233.333,,,,
45.04,216.667,,,,
45.08,272.917,,,,
45.12,231.25,,,,
45.16,241.667,,,,
45.2,235.417,,,,
45.24,220.833,,,,
45.28,239.583,,,,
45.32,212.5,,,,
45.36,250,,,,
45.4,218.75,,,,
45.44,264.583,,,,
45.48,243.75,,,,
45.52,237.5,,,,
45.56,233.333,,,,
45.6,222.917,,,,
45.64,229.167,,,,
45.68,181.25,,,,
45.72,235.417,,,,
45.76,256.25,,,,
45.8,218.75,,,,
45.84,243.75,,,,
45.88,237.5,,,,
45.92,250,,,,
45.96,241.667,,,,
46,237.5,,,,
46.04,256.25,,,,
46.08,222.917,,,,
46.12,216.667,,,,
46.16,241.667,,,,
46.2,237.5,,,,
46.24,218.75,,,,
46.28,193.75,,,,
46.32,216.667,,,,
46.36,208.333,,,,
46.4,231.25,,,,
46.44,235.417,,,,
46.48,233.333,,,,
46.52,239.583,,,,
46.56,227.083,,,,
46.6,237.5,,,,
46.64,241.667,,,,
46.68,258.333,,,,
46.72,222.917,,,,
46.76,218.75,,,,
46.8,220.833,,,,
46.84,229.167,,,,
46.88,233.333,,,,
46.92,220.833,,,,
46.96,233.333,,,,
47,247.917,,,,
47.04,222.917,,,,
47.08,187.5,,,,
47.12,245.833,,,,
47.16,197.917,,,,
47.2,214.583,,,,
47.24,243.75,,,,
47.28,191.667,,,,
47.32,252.083,,,,
47.36,200,,,,
47.4,229.167,,,,
47.44,216.667,,,,
47.48,239.583,,,,
47.52,191.667,,,,
47.56,222.917,,,,
47.6,202.083,,,,
47.64,237.5,,,,
47.68,179.167,,,,
47.72,212.5,,,,
47.76,197.917,,,,
47.8,195.833,,,,
47.84,220.833,,,,
47.88,183.333,,,,
47.92,208.333,,,,
47.96,208.333,,,,
48,210.417,,,,
48.04,168.75,,,,
48.08,210.417,,,,
48.12,254.167,,,,
48.16,233.333,,,,
48.2,233.333,,,,
48.24,204.167,,,,
48.28,239.583,,,,
48.32,195.833,,,,
48.36,237.5,,,,
48.4,175,,,,
48.44,220.833,,,,
48.48,222.917,,,,
48.52,237.5,,,,
48.56,214.583,,,,
48.6,212.5,,,,
48.64,229.167,,,,
48.68,202.083,,,,
48.72,210.417,,,,
48.76,220.833,,,,
48.8,193.75,,,,
48.84,218.75,,,,
48.88,218.75,,,,
48.92,233.333,,,,
48.96,210.417,,,,
49,231.25,,,,
49.04,177.083,,,,
49.08,197.917,,,,
49.12,227.083,,,,
49.16,185.417,,,,
49.2,204.167,,,,
49.24,222.917,,,,
49.28,220.833,,,,
49.32,204.167,,,,
49.36,218.75,,,,
49.4,185.417,,,,
49.44,195.833,,,,
49.48,200,,,,
49.52,243.75,,,,
49.56,262.5,,,,
49.6,200,,,,
49.64,187.5,,,,
49.68,206.25,,,,
49.72,256.25,,,,
49.76,229.167,,,,
49.8,212.5,,,,
49.84,216.667,,,,
49.88,214.583,,,,
49.92,220.833,,,,
49.96,177.083,,,,
50,227.083,,,,