File: Figure_codes/Fig_1A/20230224_2-6_BareFTO_superfine.TXT
2theta,intensity,,,,
5,404.167,Sample,alpha-MnO2_on_FTO,,
5.04,383.75,Comments,meas_very_fine,,
5.08,402.083,Filename,C:\data\BCRT\Yatsuzuka\20230224_2-6_XRD_afterCV60scans\20230224_2-6_BareFTO_superfine.raw,,
5.12,402.5,Goniometer,Ultima+,theta-theta,goniometer
5.16,379.583,Attachment,Standard,sample,holder
5.2,406.25,Monochromater,Fixed,Monochromator,
5.24,387.5,ScanningMode,2Theta/Theta,,
5.28,382.083,ScanningType,Continuos,Scanning,
5.32,377.5,X-Ray,40kV/40mA,,
5.36,372.5,DivSlit,1,deg.,
5.4,360.833,DivH.L.Slit,10mm,,
5.44,357.917,SctSlit,1,deg.,
5.48,365,RecSlit,0.6mm,,
5.52,367.083,Monochro,RS,No,Use
5.56,365.833,Start,5,,
5.6,362.917,Stop,50,,
5.64,354.583,Step,0.04,,
5.68,350.417,Speed,1,,
5.72,346.667,Offset,0,,
5.76,347.083,TempUnit,Celsius,,
5.8,347.917,StartTime,2023/02/24,15:32:43,
5.84,336.25,StartTemp,0,,
5.88,334.167,StopTime,2023/02/24,16:17:54,
5.92,318.75,StopTemp,0,,
5.96,350.833,,,,
6,356.25,,,,
6.04,341.667,,,,
6.08,333.333,,,,
6.12,303.75,,,,
6.16,303.333,,,,
6.2,317.917,,,,
6.24,314.583,,,,
6.28,305.417,,,,
6.32,281.667,,,,
6.36,297.917,,,,
6.4,285,,,,
6.44,315,,,,
6.48,306.25,,,,
6.52,295.833,,,,
6.56,272.917,,,,
6.6,293.75,,,,
6.64,276.667,,,,
6.68,275.833,,,,
6.72,290,,,,
6.76,305,,,,
6.8,288.333,,,,
6.84,280.833,,,,
6.88,294.583,,,,
6.92,262.083,,,,
6.96,261.25,,,,
7,264.583,,,,
7.04,262.5,,,,
7.08,282.917,,,,
7.12,270,,,,
7.16,276.25,,,,
7.2,269.583,,,,
7.24,259.583,,,,
7.28,238.75,,,,
7.32,232.917,,,,
7.36,251.25,,,,
7.4,232.917,,,,
7.44,241.25,,,,
7.48,240.417,,,,
7.52,258.75,,,,
7.56,247.5,,,,
7.6,236.25,,,,
7.64,230.417,,,,
7.68,232.5,,,,
7.72,225.417,,,,
7.76,254.167,,,,
7.8,220.417,,,,
7.84,225,,,,
7.88,235.417,,,,
7.92,222.5,,,,
7.96,215.833,,,,
8,221.25,,,,
8.04,232.5,,,,
8.08,219.583,,,,
8.12,237.917,,,,
8.16,207.5,,,,
8.2,216.667,,,,
8.24,221.667,,,,
8.28,210.833,,,,
8.32,206.25,,,,
8.36,234.583,,,,
8.4,223.333,,,,
8.44,227.5,,,,
8.48,202.917,,,,
8.52,221.667,,,,
8.56,211.25,,,,
8.6,212.917,,,,
8.64,218.75,,,,
8.68,225,,,,
8.72,190.417,,,,
8.76,210.833,,,,
8.8,201.25,,,,
8.84,199.583,,,,
8.88,205.833,,,,
8.92,210,,,,
8.96,192.917,,,,
9,207.917,,,,
9.04,204.583,,,,
9.08,215.833,,,,
9.12,183.75,,,,
9.16,201.25,,,,
9.2,193.75,,,,
9.24,206.25,,,,
9.28,208.75,,,,
9.32,192.083,,,,
9.36,193.333,,,,
9.4,209.583,,,,
9.44,182.5,,,,
9.48,193.75,,,,
9.52,187.917,,,,
9.56,163.75,,,,
9.6,169.583,,,,
9.64,189.583,,,,
9.68,190,,,,
9.72,184.167,,,,
9.76,167.5,,,,
9.8,190,,,,
9.84,187.5,,,,
9.88,190.417,,,,
9.92,197.5,,,,
9.96,184.583,,,,
10,187.5,,,,
10.04,180,,,,
10.08,174.167,,,,
10.12,177.5,,,,
10.16,175.417,,,,
10.2,174.167,,,,
10.24,186.25,,,,
10.28,184.167,,,,
10.32,205.417,,,,
10.36,181.25,,,,
10.4,176.25,,,,
10.44,172.917,,,,
10.48,188.333,,,,
10.52,176.667,,,,
10.56,174.583,,,,
10.6,162.5,,,,
10.64,178.333,,,,
10.68,182.5,,,,
10.72,192.083,,,,
10.76,183.333,,,,
10.8,164.167,,,,
10.84,162.917,,,,
10.88,167.083,,,,
10.92,178.75,,,,
10.96,174.167,,,,
11,159.583,,,,
11.04,175,,,,
11.08,181.667,,,,
11.12,167.5,,,,
11.16,156.25,,,,
11.2,167.917,,,,
11.24,158.75,,,,
11.28,175.833,,,,
11.32,160,,,,
11.36,174.167,,,,
11.4,177.083,,,,
11.44,161.667,,,,
11.48,176.25,,,,
11.52,168.333,,,,
11.56,165.833,,,,
11.6,170.833,,,,
11.64,165.833,,,,
11.68,167.083,,,,
11.72,152.083,,,,
11.76,160.417,,,,
11.8,156.25,,,,
11.84,175,,,,
11.88,190,,,,
11.92,165.417,,,,
11.96,155.417,,,,
12,176.25,,,,
12.04,164.167,,,,
12.08,158.75,,,,
12.12,169.583,,,,
12.16,177.083,,,,
12.2,170.417,,,,
12.24,164.583,,,,
12.28,167.917,,,,
12.32,160.833,,,,
12.36,158.75,,,,
12.4,173.333,,,,
12.44,169.167,,,,
12.48,170.417,,,,
12.52,163.75,,,,
12.56,154.167,,,,
12.6,171.667,,,,
12.64,175,,,,
12.68,168.333,,,,
12.72,167.083,,,,
12.76,157.5,,,,
12.8,157.083,,,,
12.84,169.583,,,,
12.88,162.083,,,,
12.92,173.333,,,,
12.96,149.167,,,,
13,167.917,,,,
13.04,160.833,,,,
13.08,171.667,,,,
13.12,165.833,,,,
13.16,163.75,,,,
13.2,169.583,,,,
13.24,163.75,,,,
13.28,166.667,,,,
13.32,162.5,,,,
13.36,168.75,,,,
13.4,165,,,,
13.44,174.583,,,,
13.48,166.667,,,,
13.52,170.417,,,,
13.56,163.333,,,,
13.6,167.917,,,,
13.64,179.167,,,,
13.68,163.75,,,,
13.72,163.333,,,,
13.76,161.25,,,,
13.8,167.5,,,,
13.84,182.083,,,,
13.88,175.833,,,,
13.92,158.75,,,,
13.96,173.75,,,,
14,172.083,,,,
14.04,175.417,,,,
14.08,155.417,,,,
14.12,176.667,,,,
14.16,162.917,,,,
14.2,156.667,,,,
14.24,161.667,,,,
14.28,167.917,,,,
14.32,178.75,,,,
14.36,177.5,,,,
14.4,180.417,,,,
14.44,168.333,,,,
14.48,187.917,,,,
14.52,162.917,,,,
14.56,183.333,,,,
14.6,170.833,,,,
14.64,176.667,,,,
14.68,174.583,,,,
14.72,204.583,,,,
14.76,164.583,,,,
14.8,175.417,,,,
14.84,183.333,,,,
14.88,160.833,,,,
14.92,163.75,,,,
14.96,168.333,,,,
15,160.833,,,,
15.04,172.083,,,,
15.08,179.583,,,,
15.12,185.417,,,,
15.16,167.5,,,,
15.2,184.583,,,,
15.24,159.583,,,,
15.28,182.917,,,,
15.32,171.667,,,,
15.36,182.5,,,,
15.4,180,,,,
15.44,163.333,,,,
15.48,181.25,,,,
15.52,176.667,,,,
15.56,184.583,,,,
15.6,181.25,,,,
15.64,176.25,,,,
15.68,172.917,,,,
15.72,187.083,,,,
15.76,184.167,,,,
15.8,209.583,,,,
15.84,195,,,,
15.88,192.083,,,,
15.92,175,,,,
15.96,188.333,,,,
16,173.333,,,,
16.04,202.5,,,,
16.08,182.917,,,,
16.12,217.083,,,,
16.16,185.833,,,,
16.2,205.833,,,,
16.24,192.083,,,,
16.28,188.333,,,,
16.32,195.833,,,,
16.36,207.917,,,,
16.4,190,,,,
16.44,198.75,,,,
16.48,208.75,,,,
16.52,219.167,,,,
16.56,204.583,,,,
16.6,210,,,,
16.64,196.667,,,,
16.68,206.25,,,,
16.72,216.667,,,,
16.76,220,,,,
16.8,205.417,,,,
16.84,199.583,,,,
16.88,194.167,,,,
16.92,215,,,,
16.96,217.5,,,,
17,213.75,,,,
17.04,228.333,,,,
17.08,205.417,,,,
17.12,222.083,,,,
17.16,229.583,,,,
17.2,215.833,,,,
17.24,219.167,,,,
17.28,230,,,,
17.32,213.333,,,,
17.36,218.333,,,,
17.4,232.5,,,,
17.44,230.833,,,,
17.48,224.167,,,,
17.52,235,,,,
17.56,230.417,,,,
17.6,226.667,,,,
17.64,235,,,,
17.68,251.667,,,,
17.72,232.917,,,,
17.76,241.25,,,,
17.8,246.667,,,,
17.84,247.083,,,,
17.88,242.083,,,,
17.92,252.083,,,,
17.96,249.167,,,,
18,245,,,,
18.04,247.083,,,,
18.08,251.25,,,,
18.12,262.917,,,,
18.16,270,,,,
18.2,246.667,,,,
18.24,249.167,,,,
18.28,256.25,,,,
18.32,277.083,,,,
18.36,269.167,,,,
18.4,264.583,,,,
18.44,262.5,,,,
18.48,264.167,,,,
18.52,281.25,,,,
18.56,250.417,,,,
18.6,288.75,,,,
18.64,281.25,,,,
18.68,283.333,,,,
18.72,272.917,,,,
18.76,269.167,,,,
18.8,273.333,,,,
18.84,291.667,,,,
18.88,279.583,,,,
18.92,288.75,,,,
18.96,312.917,,,,
19,303.75,,,,
19.04,307.083,,,,
19.08,289.583,,,,
19.12,296.667,,,,
19.16,307.917,,,,
19.2,310.417,,,,
19.24,302.5,,,,
19.28,313.333,,,,
19.32,288.333,,,,
19.36,296.25,,,,
19.4,328.333,,,,
19.44,311.25,,,,
19.48,295,,,,
19.52,311.667,,,,
19.56,339.583,,,,
19.6,337.917,,,,
19.64,323.75,,,,
19.68,320,,,,
19.72,346.25,,,,
19.76,317.5,,,,
19.8,318.333,,,,
19.84,327.917,,,,
19.88,356.667,,,,
19.92,353.75,,,,
19.96,343.75,,,,
20,347.083,,,,
20.04,336.667,,,,
20.08,346.25,,,,
20.12,358.75,,,,
20.16,368.333,,,,
20.2,368.333,,,,
20.24,386.667,,,,
20.28,360.417,,,,
20.32,373.333,,,,
20.36,361.25,,,,
20.4,374.167,,,,
20.44,390.417,,,,
20.48,400.417,,,,
20.52,387.083,,,,
20.56,382.5,,,,
20.6,370,,,,
20.64,390.417,,,,
20.68,396.25,,,,
20.72,380.417,,,,
20.76,381.667,,,,
20.8,394.167,,,,
20.84,381.667,,,,
20.88,406.25,,,,
20.92,399.167,,,,
20.96,390,,,,
21,404.167,,,,
21.04,402.917,,,,
21.08,402.083,,,,
21.12,410,,,,
21.16,437.917,,,,
21.2,412.5,,,,
21.24,402.083,,,,
21.28,415.833,,,,
21.32,420.833,,,,
21.36,420.833,,,,
21.4,413.75,,,,
21.44,417.083,,,,
21.48,425.833,,,,
21.52,437.917,,,,
21.56,442.083,,,,
21.6,447.5,,,,
21.64,429.583,,,,
21.68,405.833,,,,
21.72,471.667,,,,
21.76,424.583,,,,
21.8,440.833,,,,
21.84,427.5,,,,
21.88,444.583,,,,
21.92,439.583,,,,
21.96,452.083,,,,
22,443.75,,,,
22.04,451.667,,,,
22.08,458.75,,,,
22.12,434.167,,,,
22.16,450.417,,,,
22.2,456.25,,,,
22.24,433.75,,,,
22.28,474.167,,,,
22.32,465,,,,
22.36,443.333,,,,
22.4,465,,,,
22.44,449.167,,,,
22.48,469.167,,,,
22.52,445.833,,,,
22.56,467.917,,,,
22.6,488.75,,,,
22.64,498.75,,,,
22.68,475.833,,,,
22.72,470,,,,
22.76,480,,,,
22.8,477.083,,,,
22.84,470,,,,
22.88,470,,,,
22.92,459.583,,,,
22.96,495,,,,
23,473.333,,,,
23.04,484.167,,,,
23.08,460,,,,
23.12,479.167,,,,
23.16,490.417,,,,
23.2,456.667,,,,
23.24,475,,,,
23.28,492.5,,,,
23.32,472.917,,,,
23.36,480.833,,,,
23.4,499.583,,,,
23.44,477.5,,,,
23.48,459.583,,,,
23.52,472.917,,,,
23.56,490.833,,,,
23.6,489.583,,,,
23.64,485.417,,,,
23.68,494.583,,,,
23.72,452.917,,,,
23.76,487.917,,,,
23.8,454.583,,,,
23.84,469.583,,,,
23.88,494.583,,,,
23.92,465.417,,,,
23.96,486.25,,,,
24,497.917,,,,
24.04,483.75,,,,
24.08,490.417,,,,
24.12,528.333,,,,
24.16,485.833,,,,
24.2,474.583,,,,
24.24,495,,,,
24.28,494.167,,,,
24.32,530,,,,
24.36,516.25,,,,
24.4,553.333,,,,
24.44,518.333,,,,
24.48,564.583,,,,
24.52,534.167,,,,
24.56,548.75,,,,
24.6,509.167,,,,
24.64,520,,,,
24.68,526.667,,,,
24.72,519.167,,,,
24.76,515.833,,,,
24.8,495,,,,
24.84,498.333,,,,
24.88,505.417,,,,
24.92,504.583,,,,
24.96,509.167,,,,
25,495.833,,,,
25.04,507.083,,,,
25.08,494.583,,,,
25.12,504.583,,,,
25.16,470.417,,,,
25.2,496.25,,,,
25.24,486.667,,,,
25.28,511.25,,,,
25.32,499.583,,,,
25.36,525.417,,,,
25.4,508.333,,,,
25.44,472.083,,,,
25.48,502.083,,,,
25.52,514.583,,,,
25.56,503.75,,,,
25.6,493.333,,,,
25.64,518.75,,,,
25.68,512.083,,,,
25.72,518.333,,,,
25.76,494.167,,,,
25.8,513.333,,,,
25.84,516.667,,,,
25.88,535.833,,,,
25.92,549.167,,,,
25.96,556.667,,,,
26,548.75,,,,
26.04,567.083,,,,
26.08,591.667,,,,
26.12,583.75,,,,
26.16,627.083,,,,
26.2,615.833,,,,
26.24,644.583,,,,
26.28,694.583,,,,
26.32,718.333,,,,
26.36,772.5,,,,
26.4,874.167,,,,
26.44,964.167,,,,
26.48,1047.5,,,,
26.52,1174.17,,,,
26.56,1239.58,,,,
26.6,1163.75,,,,
26.64,1092.08,,,,
26.68,972.083,,,,
26.72,838.333,,,,
26.76,810.833,,,,
26.8,720,,,,
26.84,675,,,,
26.88,651.667,,,,
26.92,600.417,,,,
26.96,579.583,,,,
27,578.333,,,,
27.04,536.667,,,,
27.08,528.333,,,,
27.12,521.667,,,,
27.16,527.083,,,,
27.2,484.167,,,,
27.24,492.5,,,,
27.28,464.167,,,,
27.32,453.75,,,,
27.36,475,,,,
27.4,463.333,,,,
27.44,452.083,,,,
27.48,454.583,,,,
27.52,409.167,,,,
27.56,429.583,,,,
27.6,428.75,,,,
27.64,398.75,,,,
27.68,417.5,,,,
27.72,430,,,,
27.76,425.417,,,,
27.8,388.333,,,,
27.84,421.25,,,,
27.88,421.25,,,,
27.92,406.667,,,,
27.96,410.833,,,,
28,370,,,,
28.04,429.583,,,,
28.08,390.417,,,,
28.12,406.25,,,,
28.16,385.833,,,,
28.2,386.25,,,,
28.24,388.75,,,,
28.28,384.167,,,,
28.32,398.75,,,,
28.36,393.75,,,,
28.4,391.25,,,,
28.44,393.75,,,,
28.48,383.333,,,,
28.52,357.917,,,,
28.56,378.75,,,,
28.6,370.833,,,,
28.64,385.417,,,,
28.68,350,,,,
28.72,380.833,,,,
28.76,374.583,,,,
28.8,375.833,,,,
28.84,370.833,,,,
28.88,389.167,,,,
28.92,375.833,,,,
28.96,370.833,,,,
29,374.167,,,,
29.04,346.667,,,,
29.08,387.917,,,,
29.12,362.5,,,,
29.16,340,,,,
29.2,344.167,,,,
29.24,358.75,,,,
29.28,345.833,,,,
29.32,360.417,,,,
29.36,382.083,,,,
29.4,362.5,,,,
29.44,351.667,,,,
29.48,347.5,,,,
29.52,360.833,,,,
29.56,349.583,,,,
29.6,351.25,,,,
29.64,350.833,,,,
29.68,338.75,,,,
29.72,360,,,,
29.76,326.25,,,,
29.8,350.417,,,,
29.84,325,,,,
29.88,347.083,,,,
29.92,339.583,,,,
29.96,325,,,,
30,340,,,,
30.04,337.083,,,,
30.08,353.75,,,,
30.12,338.75,,,,
30.16,344.583,,,,
30.2,327.083,,,,
30.24,343.333,,,,
30.28,312.5,,,,
30.32,341.667,,,,
30.36,322.5,,,,
30.4,327.083,,,,
30.44,331.25,,,,
30.48,327.5,,,,
30.52,345.417,,,,
30.56,347.083,,,,
30.6,347.917,,,,
30.64,343.75,,,,
30.68,358.75,,,,
30.72,335.833,,,,
30.76,342.917,,,,
30.8,321.25,,,,
30.84,331.25,,,,
30.88,340,,,,
30.92,346.667,,,,
30.96,346.25,,,,
31,370.833,,,,
31.04,387.083,,,,
31.08,391.667,,,,
31.12,447.917,,,,
31.16,563.333,,,,
31.2,768.333,,,,
31.24,979.167,,,,
31.28,1102.08,,,,
31.32,1114.17,,,,
31.36,1050,,,,
31.4,936.667,,,,
31.44,792.5,,,,
31.48,748.333,,,,
31.52,685.833,,,,
31.56,618.75,,,,
31.6,595,,,,
31.64,582.5,,,,
31.68,528.75,,,,
31.72,512.083,,,,
31.76,504.167,,,,
31.8,479.167,,,,
31.84,454.583,,,,
31.88,442.917,,,,
31.92,441.25,,,,
31.96,442.917,,,,
32,439.167,,,,
32.04,413.75,,,,
32.08,413.75,,,,
32.12,413.333,,,,
32.16,417.083,,,,
32.2,401.25,,,,
32.24,396.25,,,,
32.28,390.833,,,,
32.32,375.417,,,,
32.36,386.25,,,,
32.4,379.167,,,,
32.44,365.833,,,,
32.48,384.583,,,,
32.52,361.25,,,,
32.56,380.833,,,,
32.6,382.5,,,,
32.64,379.583,,,,
32.68,360,,,,
32.72,383.333,,,,
32.76,357.917,,,,
32.8,355.833,,,,
32.84,375.417,,,,
32.88,366.667,,,,
32.92,386.25,,,,
32.96,397.917,,,,
33,360.833,,,,
33.04,375.417,,,,
33.08,391.25,,,,
33.12,381.667,,,,
33.16,405.417,,,,
33.2,408.333,,,,
33.24,408.75,,,,
33.28,384.167,,,,
33.32,400,,,,
33.36,430,,,,
33.4,444.583,,,,
33.44,440.833,,,,
33.48,448.75,,,,
33.52,471.667,,,,
33.56,502.083,,,,
33.6,554.167,,,,
33.64,547.917,,,,
33.68,627.5,,,,
33.72,631.667,,,,
33.76,724.167,,,,
33.8,705.417,,,,
33.84,754.167,,,,
33.88,714.583,,,,
33.92,697.083,,,,
33.96,627.917,,,,
34,621.667,,,,
34.04,570,,,,
34.08,499.583,,,,
34.12,470,,,,
34.16,419.167,,,,
34.2,431.25,,,,
34.24,412.5,,,,
34.28,382.917,,,,
34.32,386.25,,,,
34.36,353.333,,,,
34.4,365.833,,,,
34.44,341.25,,,,
34.48,322.5,,,,
34.52,321.667,,,,
34.56,326.25,,,,
34.6,338.333,,,,
34.64,312.917,,,,
34.68,309.167,,,,
34.72,293.333,,,,
34.76,296.667,,,,
34.8,305.833,,,,
34.84,287.5,,,,
34.88,291.25,,,,
34.92,282.5,,,,
34.96,286.667,,,,
35,282.917,,,,
35.04,267.917,,,,
35.08,281.667,,,,
35.12,272.917,,,,
35.16,276.667,,,,
35.2,268.75,,,,
35.24,275.833,,,,
35.28,272.5,,,,
35.32,252.917,,,,
35.36,275.417,,,,
35.4,270.417,,,,
35.44,269.167,,,,
35.48,269.167,,,,
35.52,250,,,,
35.56,262.083,,,,
35.6,255,,,,
35.64,261.25,,,,
35.68,277.083,,,,
35.72,250.417,,,,
35.76,242.5,,,,
35.8,251.667,,,,
35.84,253.333,,,,
35.88,250.417,,,,
35.92,252.083,,,,
35.96,247.083,,,,
36,232.917,,,,
36.04,252.5,,,,
36.08,262.5,,,,
36.12,252.083,,,,
36.16,230.833,,,,
36.2,262.083,,,,
36.24,260,,,,
36.28,251.25,,,,
36.32,257.917,,,,
36.36,247.5,,,,
36.4,249.167,,,,
36.44,262.083,,,,
36.48,265.417,,,,
36.52,250.833,,,,
36.56,252.917,,,,
36.6,249.167,,,,
36.64,247.083,,,,
36.68,260,,,,
36.72,239.583,,,,
36.76,263.333,,,,
36.8,249.583,,,,
36.84,252.083,,,,
36.88,241.667,,,,
36.92,259.583,,,,
36.96,272.083,,,,
37,265.833,,,,
37.04,269.167,,,,
37.08,256.25,,,,
37.12,267.5,,,,
37.16,259.583,,,,
37.2,264.583,,,,
37.24,280,,,,
37.28,275.417,,,,
37.32,261.667,,,,
37.36,271.25,,,,
37.4,292.5,,,,
37.44,292.5,,,,
37.48,302.5,,,,
37.52,311.667,,,,
37.56,362.083,,,,
37.6,362.083,,,,
37.64,386.25,,,,
37.68,412.917,,,,
37.72,494.583,,,,
37.76,580,,,,
37.8,769.167,,,,
37.84,1070.42,,,,
37.88,1598.33,,,,
37.92,2249.17,,,,
37.96,3005,,,,
38,3195,,,,
38.04,3085.83,,,,
38.08,2509.17,,,,
38.12,1940,,,,
38.16,1389.17,,,,
38.2,959.167,,,,
38.24,687.5,,,,
38.28,550,,,,
38.32,451.25,,,,
38.36,403.75,,,,
38.4,330.417,,,,
38.44,333.75,,,,
38.48,299.167,,,,
38.52,290.417,,,,
38.56,275.417,,,,
38.6,260,,,,
38.64,275,,,,
38.68,262.083,,,,
38.72,243.333,,,,
38.76,249.583,,,,
38.8,231.25,,,,
38.84,227.917,,,,
38.88,231.25,,,,
38.92,228.75,,,,
38.96,225,,,,
39,217.917,,,,
39.04,224.167,,,,
39.08,248.333,,,,
39.12,212.5,,,,
39.16,219.583,,,,
39.2,226.667,,,,
39.24,236.667,,,,
39.28,250.417,,,,
39.32,238.333,,,,
39.36,216.25,,,,
39.4,232.917,,,,
39.44,206.25,,,,
39.48,235.417,,,,
39.52,233.333,,,,
39.56,204.167,,,,
39.6,212.5,,,,
39.64,222.083,,,,
39.68,205,,,,
39.72,218.75,,,,
39.76,208.333,,,,
39.8,217.917,,,,
39.84,230.417,,,,
39.88,201.25,,,,
39.92,216.25,,,,
39.96,211.25,,,,
40,218.333,,,,
40.04,233.333,,,,
40.08,208.333,,,,
40.12,208.333,,,,
40.16,237.917,,,,
40.2,224.167,,,,
40.24,224.583,,,,
40.28,232.5,,,,
40.32,213.75,,,,
40.36,213.75,,,,
40.4,216.667,,,,
40.44,221.25,,,,
40.48,207.5,,,,
40.52,244.167,,,,
40.56,223.75,,,,
40.6,240.417,,,,
40.64,200.833,,,,
40.68,229.167,,,,
40.72,212.083,,,,
40.76,201.667,,,,
40.8,215.833,,,,
40.84,214.583,,,,
40.88,231.25,,,,
40.92,228.333,,,,
40.96,225,,,,
41,212.917,,,,
41.04,231.667,,,,
41.08,232.917,,,,
41.12,214.583,,,,
41.16,217.917,,,,
41.2,207.917,,,,
41.24,230,,,,
41.28,226.25,,,,
41.32,224.583,,,,
41.36,212.5,,,,
41.4,213.333,,,,
41.44,233.333,,,,
41.48,228.333,,,,
41.52,212.083,,,,
41.56,249.583,,,,
41.6,232.083,,,,
41.64,237.5,,,,
41.68,225.417,,,,
41.72,221.25,,,,
41.76,228.333,,,,
41.8,219.583,,,,
41.84,225,,,,
41.88,227.083,,,,
41.92,221.667,,,,
41.96,229.167,,,,
42,244.167,,,,
42.04,240.833,,,,
42.08,242.5,,,,
42.12,240,,,,
42.16,245.417,,,,
42.2,232.5,,,,
42.24,240.417,,,,
42.28,245.833,,,,
42.32,222.5,,,,
42.36,221.667,,,,
42.4,225,,,,
42.44,239.583,,,,
42.48,226.25,,,,
42.52,240.833,,,,
42.56,234.167,,,,
42.6,231.667,,,,
42.64,225.833,,,,
42.68,243.75,,,,
42.72,230,,,,
42.76,235.833,,,,
42.8,227.917,,,,
42.84,223.75,,,,
42.88,236.667,,,,
42.92,230.417,,,,
42.96,240.833,,,,
43,237.083,,,,
43.04,238.333,,,,
43.08,245.417,,,,
43.12,238.333,,,,
43.16,225.417,,,,
43.2,237.917,,,,
43.24,241.25,,,,
43.28,242.5,,,,
43.32,239.583,,,,
43.36,213.333,,,,
43.4,227.083,,,,
43.44,236.25,,,,
43.48,227.083,,,,
43.52,245.417,,,,
43.56,226.667,,,,
43.6,230.417,,,,
43.64,241.667,,,,
43.68,219.583,,,,
43.72,227.5,,,,
43.76,237.917,,,,
43.8,235.833,,,,
43.84,231.667,,,,
43.88,222.083,,,,
43.92,230.417,,,,
43.96,230,,,,
44,237.083,,,,
44.04,232.917,,,,
44.08,229.167,,,,
44.12,245.833,,,,
44.16,235.833,,,,
44.2,223.75,,,,
44.24,230.833,,,,
44.28,224.583,,,,
44.32,236.667,,,,
44.36,225.417,,,,
44.4,231.25,,,,
44.44,235.417,,,,
44.48,213.333,,,,
44.52,232.917,,,,
44.56,236.667,,,,
44.6,227.917,,,,
44.64,221.667,,,,
44.68,216.667,,,,
44.72,246.25,,,,
44.76,219.583,,,,
44.8,235.833,,,,
44.84,215.417,,,,
44.88,237.083,,,,
44.92,225,,,,
44.96,222.083,,,,
45,230.417,,,,
45.04,218.75,,,,
45.08,227.917,,,,
45.12,235.833,,,,
45.16,223.333,,,,
45.2,229.167,,,,
45.24,229.583,,,,
45.28,238.333,,,,
45.32,231.25,,,,
45.36,227.083,,,,
45.4,227.5,,,,
45.44,203.333,,,,
45.48,222.917,,,,
45.52,238.75,,,,
45.56,237.083,,,,
45.6,221.667,,,,
45.64,217.5,,,,
45.68,236.667,,,,
45.72,217.917,,,,
45.76,228.333,,,,
45.8,219.583,,,,
45.84,236.25,,,,
45.88,227.083,,,,
45.92,231.667,,,,
45.96,222.917,,,,
46,215,,,,
46.04,224.167,,,,
46.08,221.25,,,,
46.12,221.667,,,,
46.16,227.917,,,,
46.2,220.833,,,,
46.24,203.75,,,,
46.28,200.833,,,,
46.32,230,,,,
46.36,212.917,,,,
46.4,228.75,,,,
46.44,225.417,,,,
46.48,222.083,,,,
46.52,213.333,,,,
46.56,218.333,,,,
46.6,228.333,,,,
46.64,227.083,,,,
46.68,229.583,,,,
46.72,227.917,,,,
46.76,218.333,,,,
46.8,233.75,,,,
46.84,217.5,,,,
46.88,213.333,,,,
46.92,230,,,,
46.96,225.417,,,,
47,226.667,,,,
47.04,228.75,,,,
47.08,205,,,,
47.12,223.75,,,,
47.16,220.833,,,,
47.2,205.833,,,,
47.24,212.083,,,,
47.28,227.917,,,,
47.32,213.333,,,,
47.36,225.417,,,,
47.4,235.417,,,,
47.44,213.333,,,,
47.48,221.25,,,,
47.52,214.583,,,,
47.56,220.833,,,,
47.6,212.5,,,,
47.64,223.75,,,,
47.68,218.333,,,,
47.72,219.583,,,,
47.76,215,,,,
47.8,220.833,,,,
47.84,207.5,,,,
47.88,203.75,,,,
47.92,228.333,,,,
47.96,220,,,,
48,218.75,,,,
48.04,212.083,,,,
48.08,208.75,,,,
48.12,210.417,,,,
48.16,229.583,,,,
48.2,217.5,,,,
48.24,213.333,,,,
48.28,223.75,,,,
48.32,244.583,,,,
48.36,224.167,,,,
48.4,231.667,,,,
48.44,214.583,,,,
48.48,230.833,,,,
48.52,215.833,,,,
48.56,215.417,,,,
48.6,229.583,,,,
48.64,221.25,,,,
48.68,232.5,,,,
48.72,217.5,,,,
48.76,207.5,,,,
48.8,231.25,,,,
48.84,224.167,,,,
48.88,232.083,,,,
48.92,209.167,,,,
48.96,217.917,,,,
49,212.5,,,,
49.04,237.917,,,,
49.08,216.667,,,,
49.12,221.25,,,,
49.16,223.75,,,,
49.2,223.75,,,,
49.24,213.75,,,,
49.28,210.417,,,,
49.32,220.833,,,,
49.36,211.25,,,,
49.4,199.167,,,,
49.44,237.917,,,,
49.48,197.5,,,,
49.52,219.583,,,,
49.56,225,,,,
49.6,224.167,,,,
49.64,212.5,,,,
49.68,212.5,,,,
49.72,219.167,,,,
49.76,215,,,,
49.8,202.083,,,,
49.84,214.167,,,,
49.88,221.667,,,,
49.92,217.083,,,,
49.96,222.083,,,,
50,250.417,,,,