File: Figure_codes/Fig_1A/20230315_2-7_003_pxrd_non-sprayed_wide.TXT
2theta,intensity,,,,
5,116.563,Sample,alpha-MnO2_on_FTO,,
5.08,106.771,Comments,meas_very_fine,,
5.16,113.646,Filename,C:\data\BCRT\Yatsuzuka\20230315_2-7_pxrd_non-sprayed\20230315_2-7_003_pxrd_non-sprayed_wide.raw,,
5.24,106.042,Goniometer,Ultima+,theta-theta,goniometer
5.32,102.708,Attachment,Standard,sample,holder
5.4,103.542,Monochromater,Fixed,Monochromator,
5.48,99.375,ScanningMode,2Theta/Theta,,
5.56,92.9167,ScanningType,Continuos,Scanning,
5.64,89.8958,X-Ray,40kV/40mA,,
5.72,81.875,DivSlit,1/2,deg.,
5.8,81.4583,DivH.L.Slit,10mm,,
5.88,82.2917,SctSlit,1/2,deg.,
5.96,80.2083,RecSlit,0.3mm,,
6.04,71.6667,Monochro,RS,No,Use
6.12,75.5208,Start,5,,
6.2,75.5208,Stop,80.04,,
6.28,75.7292,Step,0.08,,
6.36,78.2292,Speed,0.5,,
6.44,70.625,Offset,0,,
6.52,61.7708,TempUnit,Celsius,,
6.6,68.4375,StartTime,2023/03/15,12:39:40,
6.68,69.4792,StartTemp,0,,
6.76,61.875,StopTime,2023/03/15,15:10:04,
6.84,63.5417,StopTemp,0,,
6.92,58.6458,,,,
7,59.375,,,,
7.08,58.3333,,,,
7.16,51.0417,,,,
7.24,54.5833,,,,
7.32,56.7708,,,,
7.4,51.3542,,,,
7.48,46.9792,,,,
7.56,48.3333,,,,
7.64,46.5625,,,,
7.72,45,,,,
7.8,44.6875,,,,
7.88,47.2917,,,,
7.96,43.6458,,,,
8.04,43.3333,,,,
8.12,44.6875,,,,
8.2,39.4792,,,,
8.28,42.8125,,,,
8.36,44.5833,,,,
8.44,40.9375,,,,
8.52,46.25,,,,
8.6,43.6458,,,,
8.68,39.2708,,,,
8.76,40.9375,,,,
8.84,36.6667,,,,
8.92,40.8333,,,,
9,37.2917,,,,
9.08,38.4375,,,,
9.16,41.0417,,,,
9.24,37.5,,,,
9.32,37.8125,,,,
9.4,33.0208,,,,
9.48,34.1667,,,,
9.56,32.0833,,,,
9.64,33.4375,,,,
9.72,33.4375,,,,
9.8,33.125,,,,
9.88,32.1875,,,,
9.96,31.4583,,,,
10.04,34.7917,,,,
10.12,31.9792,,,,
10.2,36.4583,,,,
10.28,34.8958,,,,
10.36,31.3542,,,,
10.44,36.0417,,,,
10.52,33.3333,,,,
10.6,31.1458,,,,
10.68,36.25,,,,
10.76,32.6042,,,,
10.84,37.8125,,,,
10.92,33.75,,,,
11,35.4167,,,,
11.08,39.375,,,,
11.16,41.1458,,,,
11.24,42.3958,,,,
11.32,44.8958,,,,
11.4,45.9375,,,,
11.48,44.6875,,,,
11.56,50.7292,,,,
11.64,53.75,,,,
11.72,58.125,,,,
11.8,68.3333,,,,
11.88,71.5625,,,,
11.96,76.9792,,,,
12.04,84.0625,,,,
12.12,90.3125,,,,
12.2,101.563,,,,
12.28,107.813,,,,
12.36,116.771,,,,
12.44,123.854,,,,
12.52,133.542,,,,
12.6,138.646,,,,
12.68,143.333,,,,
12.76,144.896,,,,
12.84,143.646,,,,
12.92,141.146,,,,
13,142.292,,,,
13.08,131.146,,,,
13.16,127.708,,,,
13.24,105.625,,,,
13.32,98.3333,,,,
13.4,95,,,,
13.48,88.8542,,,,
13.56,78.125,,,,
13.64,76.4583,,,,
13.72,67.7083,,,,
13.8,61.0417,,,,
13.88,56.25,,,,
13.96,50.9375,,,,
14.04,45.5208,,,,
14.12,43.8542,,,,
14.2,38.3333,,,,
14.28,37.5,,,,
14.36,34.2708,,,,
14.44,29.4792,,,,
14.52,36.0417,,,,
14.6,34.4792,,,,
14.68,26.6667,,,,
14.76,29.7917,,,,
14.84,31.5625,,,,
14.92,26.3542,,,,
15,25.5208,,,,
15.08,26.25,,,,
15.16,22.9167,,,,
15.24,27.6042,,,,
15.32,24.375,,,,
15.4,24.2708,,,,
15.48,27.0833,,,,
15.56,24.5833,,,,
15.64,24.8958,,,,
15.72,25.625,,,,
15.8,30.7292,,,,
15.88,27.5,,,,
15.96,31.3542,,,,
16.04,26.5625,,,,
16.12,31.5625,,,,
16.2,28.4375,,,,
16.28,27.9167,,,,
16.36,33.4375,,,,
16.44,34.1667,,,,
16.52,33.75,,,,
16.6,30.8333,,,,
16.68,34.375,,,,
16.76,42.9167,,,,
16.84,40.2083,,,,
16.92,47.3958,,,,
17,45.7292,,,,
17.08,51.5625,,,,
17.16,54.375,,,,
17.24,63.6458,,,,
17.32,75,,,,
17.4,74.7917,,,,
17.48,81.875,,,,
17.56,96.9792,,,,
17.64,102.917,,,,
17.72,109.792,,,,
17.8,117.188,,,,
17.88,126.771,,,,
17.96,127.917,,,,
18.04,134.271,,,,
18.12,133.438,,,,
18.2,138.229,,,,
18.28,132.396,,,,
18.36,132.292,,,,
18.44,130.104,,,,
18.52,120.938,,,,
18.6,110.521,,,,
18.68,107.396,,,,
18.76,104.479,,,,
18.84,89.1667,,,,
18.92,84.6875,,,,
19,77.5,,,,
19.08,71.9792,,,,
19.16,62.7083,,,,
19.24,60.3125,,,,
19.32,56.4583,,,,
19.4,50.9375,,,,
19.48,45.4167,,,,
19.56,44.1667,,,,
19.64,38.3333,,,,
19.72,39.7917,,,,
19.8,34.1667,,,,
19.88,32.5,,,,
19.96,33.5417,,,,
20.04,33.0208,,,,
20.12,30,,,,
20.2,28.3333,,,,
20.28,25.5208,,,,
20.36,26.6667,,,,
20.44,23.75,,,,
20.52,26.0417,,,,
20.6,20.2083,,,,
20.68,23.3333,,,,
20.76,24.375,,,,
20.84,24.2708,,,,
20.92,22.0833,,,,
21,24.375,,,,
21.08,20.3125,,,,
21.16,21.6667,,,,
21.24,20.5208,,,,
21.32,23.0208,,,,
21.4,21.5625,,,,
21.48,20.1042,,,,
21.56,20.1042,,,,
21.64,20.625,,,,
21.72,20.2083,,,,
21.8,18.4375,,,,
21.88,22.1875,,,,
21.96,16.9792,,,,
22.04,16.5625,,,,
22.12,18.75,,,,
22.2,20.2083,,,,
22.28,19.8958,,,,
22.36,19.4792,,,,
22.44,21.7708,,,,
22.52,17.5,,,,
22.6,17.9167,,,,
22.68,16.1458,,,,
22.76,19.2708,,,,
22.84,16.3542,,,,
22.92,16.7708,,,,
23,17.9167,,,,
23.08,19.8958,,,,
23.16,16.5625,,,,
23.24,14.8958,,,,
23.32,18.5417,,,,
23.4,17.0833,,,,
23.48,18.8542,,,,
23.56,18.8542,,,,
23.64,20.5208,,,,
23.72,18.0208,,,,
23.8,17.2917,,,,
23.88,17.7083,,,,
23.96,19.0625,,,,
24.04,18.6458,,,,
24.12,16.9792,,,,
24.2,18.4375,,,,
24.28,20.2083,,,,
24.36,19.0625,,,,
24.44,19.8958,,,,
24.52,20.8333,,,,
24.6,19.1667,,,,
24.68,20.4167,,,,
24.76,24.1667,,,,
24.84,23.5417,,,,
24.92,23.9583,,,,
25,25.3125,,,,
25.08,25.4167,,,,
25.16,28.75,,,,
25.24,27.5,,,,
25.32,27.3958,,,,
25.4,33.3333,,,,
25.48,28.125,,,,
25.56,37.3958,,,,
25.64,33.6458,,,,
25.72,28.6458,,,,
25.8,31.5625,,,,
25.88,32.9167,,,,
25.96,32.1875,,,,
26.04,36.4583,,,,
26.12,31.875,,,,
26.2,30.625,,,,
26.28,30.7292,,,,
26.36,27.9167,,,,
26.44,30.2083,,,,
26.52,30.7292,,,,
26.6,31.9792,,,,
26.68,28.0208,,,,
26.76,30.9375,,,,
26.84,31.3542,,,,
26.92,31.7708,,,,
27,32.9167,,,,
27.08,31.25,,,,
27.16,34.1667,,,,
27.24,39.1667,,,,
27.32,42.1875,,,,
27.4,41.1458,,,,
27.48,49.4792,,,,
27.56,45.625,,,,
27.64,50.5208,,,,
27.72,61.9792,,,,
27.8,64.4792,,,,
27.88,67.1875,,,,
27.96,73.8542,,,,
28.04,85.1042,,,,
28.12,98.4375,,,,
28.2,103.542,,,,
28.28,109.583,,,,
28.36,123.021,,,,
28.44,128.125,,,,
28.52,141.146,,,,
28.6,150.625,,,,
28.68,150.625,,,,
28.76,152.292,,,,
28.84,158.021,,,,
28.92,157.813,,,,
29,158.229,,,,
29.08,152.708,,,,
29.16,143.646,,,,
29.24,134.375,,,,
29.32,118.021,,,,
29.4,117.396,,,,
29.48,101.25,,,,
29.56,95,,,,
29.64,82.7083,,,,
29.72,74.8958,,,,
29.8,64.5833,,,,
29.88,60.625,,,,
29.96,57.3958,,,,
30.04,51.4583,,,,
30.12,41.6667,,,,
30.2,38.6458,,,,
30.28,37.8125,,,,
30.36,33.4375,,,,
30.44,30.2083,,,,
30.52,29.5833,,,,
30.6,24.1667,,,,
30.68,26.7708,,,,
30.76,24.1667,,,,
30.84,27.6042,,,,
30.92,22.0833,,,,
31,23.75,,,,
31.08,20.4167,,,,
31.16,19.8958,,,,
31.24,18.125,,,,
31.32,19.375,,,,
31.4,14.6875,,,,
31.48,19.4792,,,,
31.56,16.6667,,,,
31.64,17.5,,,,
31.72,16.5625,,,,
31.8,15.625,,,,
31.88,16.1458,,,,
31.96,16.4583,,,,
32.04,13.5417,,,,
32.12,14.1667,,,,
32.2,15.625,,,,
32.28,14.8958,,,,
32.36,18.6458,,,,
32.44,16.3542,,,,
32.52,15.4167,,,,
32.6,15.4167,,,,
32.68,19.1667,,,,
32.76,16.0417,,,,
32.84,16.6667,,,,
32.92,17.5,,,,
33,16.4583,,,,
33.08,16.6667,,,,
33.16,16.4583,,,,
33.24,15.5208,,,,
33.32,14.2708,,,,
33.4,12.5,,,,
33.48,14.1667,,,,
33.56,13.5417,,,,
33.64,15.7292,,,,
33.72,13.9583,,,,
33.8,16.5625,,,,
33.88,14.8958,,,,
33.96,14.6875,,,,
34.04,15.8333,,,,
34.12,15.7292,,,,
34.2,16.5625,,,,
34.28,16.25,,,,
34.36,17.3958,,,,
34.44,19.375,,,,
34.52,16.4583,,,,
34.6,17.6042,,,,
34.68,21.1458,,,,
34.76,19.2708,,,,
34.84,19.6875,,,,
34.92,19.2708,,,,
35,21.0417,,,,
35.08,22.6042,,,,
35.16,21.6667,,,,
35.24,24.7917,,,,
35.32,26.0417,,,,
35.4,23.2292,,,,
35.48,23.75,,,,
35.56,27.0833,,,,
35.64,30.2083,,,,
35.72,34.0625,,,,
35.8,35.4167,,,,
35.88,41.6667,,,,
35.96,42.3958,,,,
36.04,42.3958,,,,
36.12,44.5833,,,,
36.2,45,,,,
36.28,55.7292,,,,
36.36,54.6875,,,,
36.44,62.8125,,,,
36.52,64.0625,,,,
36.6,67.9167,,,,
36.68,73.125,,,,
36.76,81.1458,,,,
36.84,82.7083,,,,
36.92,87.8125,,,,
37,101.563,,,,
37.08,112.5,,,,
37.16,122.396,,,,
37.24,143.438,,,,
37.32,175.938,,,,
37.4,192.396,,,,
37.48,223.542,,,,
37.56,255.313,,,,
37.64,272.813,,,,
37.72,272.292,,,,
37.8,266.563,,,,
37.88,246.979,,,,
37.96,222.5,,,,
38.04,191.563,,,,
38.12,161.563,,,,
38.2,129.271,,,,
38.28,108.542,,,,
38.36,91.25,,,,
38.44,79.7917,,,,
38.52,70.3125,,,,
38.6,64.6875,,,,
38.68,54.0625,,,,
38.76,55.8333,,,,
38.84,53.0208,,,,
38.92,47.7083,,,,
39,49.0625,,,,
39.08,50.1042,,,,
39.16,40.9375,,,,
39.24,40.7292,,,,
39.32,36.875,,,,
39.4,35.9375,,,,
39.48,36.4583,,,,
39.56,37.0833,,,,
39.64,29.375,,,,
39.72,30.7292,,,,
39.8,27.2917,,,,
39.88,32.3958,,,,
39.96,25.9375,,,,
40.04,29.8958,,,,
40.12,25.1042,,,,
40.2,26.1458,,,,
40.28,28.6458,,,,
40.36,27.7083,,,,
40.44,29.2708,,,,
40.52,28.75,,,,
40.6,29.4792,,,,
40.68,33.4375,,,,
40.76,36.0417,,,,
40.84,35.3125,,,,
40.92,37.1875,,,,
41,40.5208,,,,
41.08,44.0625,,,,
41.16,41.6667,,,,
41.24,45.5208,,,,
41.32,48.6458,,,,
41.4,53.4375,,,,
41.48,55.8333,,,,
41.56,62.3958,,,,
41.64,69.0625,,,,
41.72,74.4792,,,,
41.8,83.6458,,,,
41.88,87.3958,,,,
41.96,95.3125,,,,
42.04,101.771,,,,
42.12,100.938,,,,
42.2,99.7917,,,,
42.28,92.9167,,,,
42.36,85,,,,
42.44,78.2292,,,,
42.52,67.2917,,,,
42.6,62.2917,,,,
42.68,49.1667,,,,
42.76,45.1042,,,,
42.84,37.3958,,,,
42.92,35,,,,
43,30.8333,,,,
43.08,29.0625,,,,
43.16,25.5208,,,,
43.24,21.25,,,,
43.32,19.8958,,,,
43.4,18.4375,,,,
43.48,20.8333,,,,
43.56,15.7292,,,,
43.64,17.9167,,,,
43.72,15.3125,,,,
43.8,18.2292,,,,
43.88,16.875,,,,
43.96,13.9583,,,,
44.04,13.3333,,,,
44.12,13.8542,,,,
44.2,12.0833,,,,
44.28,13.6458,,,,
44.36,13.9583,,,,
44.44,11.7708,,,,
44.52,11.4583,,,,
44.6,14.5833,,,,
44.68,13.2292,,,,
44.76,11.5625,,,,
44.84,12.3958,,,,
44.92,13.4375,,,,
45,13.4375,,,,
45.08,12.1875,,,,
45.16,16.7708,,,,
45.24,14.4792,,,,
45.32,17.7083,,,,
45.4,14.5833,,,,
45.48,15.5208,,,,
45.56,15.1042,,,,
45.64,15.625,,,,
45.72,15.625,,,,
45.8,15.4167,,,,
45.88,17.9167,,,,
45.96,19.5833,,,,
46.04,19.2708,,,,
46.12,22.8125,,,,
46.2,19.4792,,,,
46.28,22.2917,,,,
46.36,19.5833,,,,
46.44,21.9792,,,,
46.52,20.9375,,,,
46.6,21.0417,,,,
46.68,22.9167,,,,
46.76,22.0833,,,,
46.84,22.2917,,,,
46.92,25.9375,,,,
47,21.25,,,,
47.08,27.0833,,,,
47.16,28.75,,,,
47.24,23.9583,,,,
47.32,24.4792,,,,
47.4,28.3333,,,,
47.48,26.3542,,,,
47.56,25.2083,,,,
47.64,23.0208,,,,
47.72,22.8125,,,,
47.8,21.3542,,,,
47.88,22.3958,,,,
47.96,22.3958,,,,
48.04,22.7083,,,,
48.12,23.125,,,,
48.2,19.1667,,,,
48.28,22.1875,,,,
48.36,21.9792,,,,
48.44,23.125,,,,
48.52,25.7292,,,,
48.6,25.4167,,,,
48.68,26.25,,,,
48.76,25.4167,,,,
48.84,27.2917,,,,
48.92,28.5417,,,,
49,34.375,,,,
49.08,40.3125,,,,
49.16,42.1875,,,,
49.24,50.8333,,,,
49.32,52.3958,,,,
49.4,59.8958,,,,
49.48,68.4375,,,,
49.56,72.5,,,,
49.64,81.25,,,,
49.72,85.7292,,,,
49.8,90,,,,
49.88,100.833,,,,
49.96,97.2917,,,,
50.04,95.1042,,,,
50.12,102.188,,,,
50.2,104.167,,,,
50.28,95.9375,,,,
50.36,89.2708,,,,
50.44,84.8958,,,,
50.52,77.2917,,,,
50.6,68.2292,,,,
50.68,67.1875,,,,
50.76,57.3958,,,,
50.84,51.0417,,,,
50.92,44.8958,,,,
51,42.2917,,,,
51.08,39.5833,,,,
51.16,29.7917,,,,
51.24,29.8958,,,,
51.32,27.3958,,,,
51.4,25.3125,,,,
51.48,24.6875,,,,
51.56,25.1042,,,,
51.64,21.7708,,,,
51.72,19.2708,,,,
51.8,23.125,,,,
51.88,18.75,,,,
51.96,20.625,,,,
52.04,19.2708,,,,
52.12,20.9375,,,,
52.2,17.7083,,,,
52.28,19.4792,,,,
52.36,20.4167,,,,
52.44,17.5,,,,
52.52,15.8333,,,,
52.6,18.75,,,,
52.68,18.75,,,,
52.76,17.3958,,,,
52.84,15.8333,,,,
52.92,18.75,,,,
53,16.7708,,,,
53.08,16.3542,,,,
53.16,14.4792,,,,
53.24,16.1458,,,,
53.32,16.9792,,,,
53.4,18.125,,,,
53.48,14.0625,,,,
53.56,14.1667,,,,
53.64,16.9792,,,,
53.72,16.7708,,,,
53.8,15.5208,,,,
53.88,18.4375,,,,
53.96,17.7083,,,,
54.04,17.7083,,,,
54.12,21.3542,,,,
54.2,14.1667,,,,
54.28,20.2083,,,,
54.36,18.4375,,,,
54.44,18.125,,,,
54.52,18.5417,,,,
54.6,19.2708,,,,
54.68,20.8333,,,,
54.76,18.125,,,,
54.84,22.7083,,,,
54.92,21.9792,,,,
55,22.8125,,,,
55.08,26.4583,,,,
55.16,27.8125,,,,
55.24,28.6458,,,,
55.32,30.4167,,,,
55.4,30,,,,
55.48,28.6458,,,,
55.56,32.6042,,,,
55.64,38.75,,,,
55.72,36.7708,,,,
55.8,42.1875,,,,
55.88,45.8333,,,,
55.96,46.9792,,,,
56.04,43.125,,,,
56.12,46.875,,,,
56.2,49.1667,,,,
56.28,51.4583,,,,
56.36,50,,,,
56.44,53.8542,,,,
56.52,51.25,,,,
56.6,48.125,,,,
56.68,46.6667,,,,
56.76,46.875,,,,
56.84,47.3958,,,,
56.92,51.4583,,,,
57,41.1458,,,,
57.08,40.625,,,,
57.16,38.75,,,,
57.24,36.25,,,,
57.32,36.6667,,,,
57.4,34.6875,,,,
57.48,34.4792,,,,
57.56,32.7083,,,,
57.64,32.5,,,,
57.72,28.125,,,,
57.8,32.0833,,,,
57.88,25.7292,,,,
57.96,29.0625,,,,
58.04,24.375,,,,
58.12,25.5208,,,,
58.2,25.625,,,,
58.28,27.8125,,,,
58.36,25.7292,,,,
58.44,22.0833,,,,
58.52,24.7917,,,,
58.6,27.7083,,,,
58.68,27.0833,,,,
58.76,28.2292,,,,
58.84,29.0625,,,,
58.92,32.1875,,,,
59,29.2708,,,,
59.08,36.7708,,,,
59.16,34.6875,,,,
59.24,39.7917,,,,
59.32,41.4583,,,,
59.4,45.5208,,,,
59.48,46.5625,,,,
59.56,56.25,,,,
59.64,59.0625,,,,
59.72,66.4583,,,,
59.8,72.7083,,,,
59.88,74.2708,,,,
59.96,81.3542,,,,
60.04,84.375,,,,
60.12,84.7917,,,,
60.2,90,,,,
60.28,97.0833,,,,
60.36,98.4375,,,,
60.44,97.6042,,,,
60.52,85.625,,,,
60.6,85.8333,,,,
60.68,85.7292,,,,
60.76,80.8333,,,,
60.84,72.9167,,,,
60.92,72.1875,,,,
61,64.7917,,,,
61.08,60.3125,,,,
61.16,51.5625,,,,
61.24,50.5208,,,,
61.32,40.3125,,,,
61.4,38.5417,,,,
61.48,33.8542,,,,
61.56,29.7917,,,,
61.64,28.3333,,,,
61.72,28.2292,,,,
61.8,25,,,,
61.88,24.7917,,,,
61.96,21.9792,,,,
62.04,21.0417,,,,
62.12,18.4375,,,,
62.2,16.4583,,,,
62.28,16.9792,,,,
62.36,15.4167,,,,
62.44,14.6875,,,,
62.52,13.4375,,,,
62.6,15.1042,,,,
62.68,14.4792,,,,
62.76,12.5,,,,
62.84,12.8125,,,,
62.92,12.5,,,,
63,12.8125,,,,
63.08,11.7708,,,,
63.16,12.1875,,,,
63.24,9.89583,,,,
63.32,12.6042,,,,
63.4,9.79167,,,,
63.48,13.6458,,,,
63.56,9.89583,,,,
63.64,10.9375,,,,
63.72,11.25,,,,
63.8,11.0417,,,,
63.88,10.7292,,,,
63.96,10.3125,,,,
64.04,9.47917,,,,
64.12,10.9375,,,,
64.2,11.4583,,,,
64.28,10.9375,,,,
64.36,12.5,,,,
64.44,12.2917,,,,
64.52,11.25,,,,
64.6,13.125,,,,
64.68,14.0625,,,,
64.76,15.7292,,,,
64.84,15.3125,,,,
64.92,18.3333,,,,
65,22.5,,,,
65.08,19.7917,,,,
65.16,26.7708,,,,
65.24,38.6458,,,,
65.32,46.3542,,,,
65.4,57.0833,,,,
65.48,73.9583,,,,
65.56,75.9375,,,,
65.64,66.5625,,,,
65.72,61.875,,,,
65.8,45.8333,,,,
65.88,41.875,,,,
65.96,33.75,,,,
66.04,31.1458,,,,
66.12,23.4375,,,,
66.2,23.8542,,,,
66.28,21.6667,,,,
66.36,21.9792,,,,
66.44,20.7292,,,,
66.52,18.8542,,,,
66.6,22.2917,,,,
66.68,19.0625,,,,
66.76,24.1667,,,,
66.84,24.1667,,,,
66.92,27.3958,,,,
67,27.3958,,,,
67.08,27.1875,,,,
67.16,28.75,,,,
67.24,26.0417,,,,
67.32,27.7083,,,,
67.4,28.4375,,,,
67.48,26.5625,,,,
67.56,23.5417,,,,
67.64,26.25,,,,
67.72,24.1667,,,,
67.8,23.6458,,,,
67.88,24.4792,,,,
67.96,27.1875,,,,
68.04,27.1875,,,,
68.12,35.3125,,,,
68.2,32.2917,,,,
68.28,34.2708,,,,
68.36,41.7708,,,,
68.44,42.2917,,,,
68.52,43.5417,,,,
68.6,45.9375,,,,
68.68,47.9167,,,,
68.76,55.4167,,,,
68.84,55.1042,,,,
68.92,55.3125,,,,
69,53.4375,,,,
69.08,60,,,,
69.16,58.6458,,,,
69.24,62.5,,,,
69.32,63.2292,,,,
69.4,59.8958,,,,
69.48,60.9375,,,,
69.56,68.3333,,,,
69.64,68.75,,,,
69.72,69.1667,,,,
69.8,64.0625,,,,
69.88,63.2292,,,,
69.96,63.5417,,,,
70.04,59.4792,,,,
70.12,51.0417,,,,
70.2,52.6042,,,,
70.28,49.5833,,,,
70.36,43.0208,,,,
70.44,44.1667,,,,
70.52,37.7083,,,,
70.6,34.2708,,,,
70.68,33.6458,,,,
70.76,33.0208,,,,
70.84,31.5625,,,,
70.92,26.7708,,,,
71,27.7083,,,,
71.08,23.5417,,,,
71.16,21.0417,,,,
71.24,24.5833,,,,
71.32,19.7917,,,,
71.4,18.9583,,,,
71.48,18.4375,,,,
71.56,20,,,,
71.64,18.75,,,,
71.72,20.3125,,,,
71.8,18.2292,,,,
71.88,19.375,,,,
71.96,21.6667,,,,
72.04,15.3125,,,,
72.12,22.3958,,,,
72.2,18.125,,,,
72.28,21.25,,,,
72.36,22.0833,,,,
72.44,22.3958,,,,
72.52,27.2917,,,,
72.6,27.6042,,,,
72.68,30.3125,,,,
72.76,33.6458,,,,
72.84,33.9583,,,,
72.92,38.125,,,,
73,40.2083,,,,
73.08,40.3125,,,,
73.16,40.5208,,,,
73.24,41.1458,,,,
73.32,39.0625,,,,
73.4,34.4792,,,,
73.48,34.1667,,,,
73.56,31.7708,,,,
73.64,26.3542,,,,
73.72,30.1042,,,,
73.8,24.4792,,,,
73.88,21.4583,,,,
73.96,20.3125,,,,
74.04,21.5625,,,,
74.12,17.2917,,,,
74.2,17.3958,,,,
74.28,16.7708,,,,
74.36,14.6875,,,,
74.44,13.75,,,,
74.52,12.8125,,,,
74.6,14.2708,,,,
74.68,12.9167,,,,
74.76,13.0208,,,,
74.84,13.125,,,,
74.92,12.3958,,,,
75,11.6667,,,,
75.08,11.4583,,,,
75.16,10.2083,,,,
75.24,12.7083,,,,
75.32,10.4167,,,,
75.4,9.79167,,,,
75.48,10.625,,,,
75.56,9.16667,,,,
75.64,10,,,,
75.72,10.4167,,,,
75.8,9.27083,,,,
75.88,9.0625,,,,
75.96,8.75,,,,
76.04,11.1458,,,,
76.12,10.5208,,,,
76.2,10.5208,,,,
76.28,10.5208,,,,
76.36,10.8333,,,,
76.44,9.79167,,,,
76.52,10.3125,,,,
76.6,13.6458,,,,
76.68,12.2917,,,,
76.76,12.3958,,,,
76.84,12.2917,,,,
76.92,13.8542,,,,
77,13.6458,,,,
77.08,13.4375,,,,
77.16,18.3333,,,,
77.24,17.8125,,,,
77.32,18.75,,,,
77.4,17.8125,,,,
77.48,17.1875,,,,
77.56,18.9583,,,,
77.64,19.8958,,,,
77.72,20.1042,,,,
77.8,21.25,,,,
77.88,16.1458,,,,
77.96,18.75,,,,
78.04,18.0208,,,,
78.12,16.6667,,,,
78.2,20.8333,,,,
78.28,18.8542,,,,
78.36,16.5625,,,,
78.44,18.6458,,,,
78.52,18.0208,,,,
78.6,20.625,,,,
78.68,20.3125,,,,
78.76,20.4167,,,,
78.84,22.2917,,,,
78.92,20.3125,,,,
79,18.3333,,,,
79.08,19.1667,,,,
79.16,19.6875,,,,
79.24,18.6458,,,,
79.32,16.5625,,,,
79.4,17.1875,,,,
79.48,15.9375,,,,
79.56,16.3542,,,,
79.64,13.0208,,,,
79.72,13.5417,,,,
79.8,13.125,,,,
79.88,13.0208,,,,
79.96,13.5417,,,,
80.04,13.125,,,,