File: Figure_codes/Fig_S7/20230224_2-6_XRD_afterCV60scans.TXT
2theta,intensity,,,,
5,513.75,Sample,alpha-MnO2_on_FTO,,
5.04,539.167,Comments,meas_very_fine,,
5.08,492.5,Filename,C:\data\BCRT\Yatsuzuka\20230224_2-6_XRD_afterCV60scans\20230224_2-6_XRD_afterCV60scans.raw,,
5.12,492.083,Goniometer,Ultima+,theta-theta,goniometer
5.16,512.5,Attachment,Standard,sample,holder
5.2,507.917,Monochromater,Fixed,Monochromator,
5.24,461.667,ScanningMode,2Theta/Theta,,
5.28,471.667,ScanningType,Continuos,Scanning,
5.32,475,X-Ray,40kV/40mA,,
5.36,472.917,DivSlit,1,deg.,
5.4,428.333,DivH.L.Slit,10mm,,
5.44,443.75,SctSlit,1,deg.,
5.48,443.75,RecSlit,0.6mm,,
5.52,448.75,Monochro,RS,No,Use
5.56,408.333,Start,5,,
5.6,413.333,Stop,50,,
5.64,420.417,Step,0.04,,
5.68,410,Speed,1,,
5.72,423.75,Offset,0,,
5.76,392.083,TempUnit,Celsius,,
5.8,390,StartTime,2023/02/24,14:43:02,
5.84,385.417,StartTemp,0,,
5.88,403.75,StopTime,2023/02/24,15:28:13,
5.92,368.333,StopTemp,0,,
5.96,390,,,,
6,402.917,,,,
6.04,364.167,,,,
6.08,369.583,,,,
6.12,375.833,,,,
6.16,352.5,,,,
6.2,367.917,,,,
6.24,346.667,,,,
6.28,352.917,,,,
6.32,345.833,,,,
6.36,344.583,,,,
6.4,338.75,,,,
6.44,368.333,,,,
6.48,327.917,,,,
6.52,345.833,,,,
6.56,319.167,,,,
6.6,321.25,,,,
6.64,310,,,,
6.68,309.167,,,,
6.72,325.417,,,,
6.76,301.25,,,,
6.8,318.75,,,,
6.84,292.083,,,,
6.88,307.5,,,,
6.92,324.167,,,,
6.96,301.25,,,,
7,305.417,,,,
7.04,303.75,,,,
7.08,280,,,,
7.12,294.583,,,,
7.16,294.583,,,,
7.2,266.25,,,,
7.24,283.333,,,,
7.28,287.083,,,,
7.32,288.75,,,,
7.36,286.25,,,,
7.4,266.667,,,,
7.44,274.583,,,,
7.48,276.25,,,,
7.52,264.167,,,,
7.56,266.667,,,,
7.6,258.75,,,,
7.64,266.25,,,,
7.68,231.667,,,,
7.72,252.083,,,,
7.76,242.5,,,,
7.8,247.5,,,,
7.84,260.417,,,,
7.88,272.083,,,,
7.92,263.333,,,,
7.96,250.417,,,,
8,235,,,,
8.04,236.25,,,,
8.08,251.667,,,,
8.12,255,,,,
8.16,259.167,,,,
8.2,247.5,,,,
8.24,247.5,,,,
8.28,236.25,,,,
8.32,221.25,,,,
8.36,250.833,,,,
8.4,237.083,,,,
8.44,229.167,,,,
8.48,242.5,,,,
8.52,208.75,,,,
8.56,209.583,,,,
8.6,225.417,,,,
8.64,244.167,,,,
8.68,226.25,,,,
8.72,219.167,,,,
8.76,210.833,,,,
8.8,224.167,,,,
8.84,222.917,,,,
8.88,209.583,,,,
8.92,212.5,,,,
8.96,215.417,,,,
9,217.5,,,,
9.04,205.833,,,,
9.08,210.833,,,,
9.12,181.667,,,,
9.16,230,,,,
9.2,215,,,,
9.24,219.583,,,,
9.28,221.25,,,,
9.32,212.917,,,,
9.36,214.583,,,,
9.4,202.083,,,,
9.44,208.75,,,,
9.48,206.25,,,,
9.52,213.333,,,,
9.56,205.417,,,,
9.6,217.5,,,,
9.64,186.25,,,,
9.68,201.25,,,,
9.72,204.583,,,,
9.76,189.583,,,,
9.8,202.917,,,,
9.84,191.667,,,,
9.88,188.75,,,,
9.92,190.833,,,,
9.96,199.167,,,,
10,186.667,,,,
10.04,195.417,,,,
10.08,195.417,,,,
10.12,177.917,,,,
10.16,180.833,,,,
10.2,202.083,,,,
10.24,187.083,,,,
10.28,184.167,,,,
10.32,185.833,,,,
10.36,189.167,,,,
10.4,187.917,,,,
10.44,178.75,,,,
10.48,182.5,,,,
10.52,192.083,,,,
10.56,184.167,,,,
10.6,193.333,,,,
10.64,186.667,,,,
10.68,192.5,,,,
10.72,200,,,,
10.76,187.917,,,,
10.8,196.25,,,,
10.84,185,,,,
10.88,192.5,,,,
10.92,191.667,,,,
10.96,196.667,,,,
11,184.583,,,,
11.04,189.583,,,,
11.08,192.917,,,,
11.12,202.917,,,,
11.16,192.083,,,,
11.2,203.75,,,,
11.24,175,,,,
11.28,202.5,,,,
11.32,194.167,,,,
11.36,192.917,,,,
11.4,192.083,,,,
11.44,205,,,,
11.48,207.5,,,,
11.52,200.417,,,,
11.56,228.333,,,,
11.6,217.917,,,,
11.64,239.583,,,,
11.68,219.583,,,,
11.72,223.333,,,,
11.76,228.333,,,,
11.8,228.333,,,,
11.84,228.333,,,,
11.88,225.417,,,,
11.92,245,,,,
11.96,255,,,,
12,242.917,,,,
12.04,267.917,,,,
12.08,270.417,,,,
12.12,258.333,,,,
12.16,264.583,,,,
12.2,293.75,,,,
12.24,260.417,,,,
12.28,293.75,,,,
12.32,281.667,,,,
12.36,295.417,,,,
12.4,287.917,,,,
12.44,287.083,,,,
12.48,287.083,,,,
12.52,302.5,,,,
12.56,293.333,,,,
12.6,277.917,,,,
12.64,298.75,,,,
12.68,301.667,,,,
12.72,280.417,,,,
12.76,282.083,,,,
12.8,275,,,,
12.84,279.583,,,,
12.88,279.583,,,,
12.92,275.833,,,,
12.96,264.167,,,,
13,250.417,,,,
13.04,255.417,,,,
13.08,231.25,,,,
13.12,231.25,,,,
13.16,227.917,,,,
13.2,231.25,,,,
13.24,219.583,,,,
13.28,233.333,,,,
13.32,211.667,,,,
13.36,216.25,,,,
13.4,193.75,,,,
13.44,215.833,,,,
13.48,200,,,,
13.52,190,,,,
13.56,193.333,,,,
13.6,201.667,,,,
13.64,178.333,,,,
13.68,180.833,,,,
13.72,178.75,,,,
13.76,178.75,,,,
13.8,172.917,,,,
13.84,172.083,,,,
13.88,178.75,,,,
13.92,167.5,,,,
13.96,174.167,,,,
14,168.75,,,,
14.04,172.083,,,,
14.08,178.75,,,,
14.12,164.583,,,,
14.16,160,,,,
14.2,155.417,,,,
14.24,155.833,,,,
14.28,172.917,,,,
14.32,155.417,,,,
14.36,157.5,,,,
14.4,167.083,,,,
14.44,160.833,,,,
14.48,140.833,,,,
14.52,165.833,,,,
14.56,148.333,,,,
14.6,159.583,,,,
14.64,167.5,,,,
14.68,164.167,,,,
14.72,170,,,,
14.76,160.417,,,,
14.8,168.75,,,,
14.84,153.75,,,,
14.88,175.417,,,,
14.92,158.333,,,,
14.96,164.583,,,,
15,160.417,,,,
15.04,163.75,,,,
15.08,161.25,,,,
15.12,167.917,,,,
15.16,165.833,,,,
15.2,170.833,,,,
15.24,166.667,,,,
15.28,162.083,,,,
15.32,165.833,,,,
15.36,158.333,,,,
15.4,161.25,,,,
15.44,162.083,,,,
15.48,154.167,,,,
15.52,177.5,,,,
15.56,161.25,,,,
15.6,164.167,,,,
15.64,160.417,,,,
15.68,165,,,,
15.72,155,,,,
15.76,170.833,,,,
15.8,155.833,,,,
15.84,157.5,,,,
15.88,169.583,,,,
15.92,164.167,,,,
15.96,168.333,,,,
16,180.417,,,,
16.04,170,,,,
16.08,151.25,,,,
16.12,176.667,,,,
16.16,191.25,,,,
16.2,169.583,,,,
16.24,183.75,,,,
16.28,178.333,,,,
16.32,177.083,,,,
16.36,179.167,,,,
16.4,158.75,,,,
16.44,183.75,,,,
16.48,192.917,,,,
16.52,197.917,,,,
16.56,172.083,,,,
16.6,187.083,,,,
16.64,180.417,,,,
16.68,196.667,,,,
16.72,194.583,,,,
16.76,187.083,,,,
16.8,201.25,,,,
16.84,192.083,,,,
16.88,212.917,,,,
16.92,217.917,,,,
16.96,222.083,,,,
17,222.5,,,,
17.04,232.083,,,,
17.08,240.833,,,,
17.12,244.167,,,,
17.16,232.5,,,,
17.2,244.167,,,,
17.24,247.083,,,,
17.28,245.417,,,,
17.32,255.833,,,,
17.36,270,,,,
17.4,248.333,,,,
17.44,291.667,,,,
17.48,295.833,,,,
17.52,300.417,,,,
17.56,313.333,,,,
17.6,316.25,,,,
17.64,303.75,,,,
17.68,334.583,,,,
17.72,299.167,,,,
17.76,306.667,,,,
17.8,315.417,,,,
17.84,317.917,,,,
17.88,320.417,,,,
17.92,297.917,,,,
17.96,341.25,,,,
18,333.333,,,,
18.04,306.25,,,,
18.08,312.083,,,,
18.12,333.75,,,,
18.16,339.583,,,,
18.2,325,,,,
18.24,315,,,,
18.28,320,,,,
18.32,302.083,,,,
18.36,313.75,,,,
18.4,321.25,,,,
18.44,319.583,,,,
18.48,289.167,,,,
18.52,280.833,,,,
18.56,286.25,,,,
18.6,277.917,,,,
18.64,300,,,,
18.68,282.5,,,,
18.72,256.25,,,,
18.76,282.5,,,,
18.8,282.5,,,,
18.84,281.667,,,,
18.88,274.583,,,,
18.92,278.75,,,,
18.96,252.917,,,,
19,264.583,,,,
19.04,252.917,,,,
19.08,259.167,,,,
19.12,254.167,,,,
19.16,275,,,,
19.2,280.417,,,,
19.24,255,,,,
19.28,252.917,,,,
19.32,256.667,,,,
19.36,245.833,,,,
19.4,262.917,,,,
19.44,274.167,,,,
19.48,258.333,,,,
19.52,258.333,,,,
19.56,265.833,,,,
19.6,266.25,,,,
19.64,277.5,,,,
19.68,251.25,,,,
19.72,267.083,,,,
19.76,270.833,,,,
19.8,260.833,,,,
19.84,269.167,,,,
19.88,272.917,,,,
19.92,277.917,,,,
19.96,266.25,,,,
20,270.833,,,,
20.04,270.417,,,,
20.08,272.083,,,,
20.12,272.5,,,,
20.16,245,,,,
20.2,285.833,,,,
20.24,277.5,,,,
20.28,271.25,,,,
20.32,291.25,,,,
20.36,291.25,,,,
20.4,277.5,,,,
20.44,295,,,,
20.48,308.75,,,,
20.52,262.5,,,,
20.56,287.083,,,,
20.6,292.5,,,,
20.64,281.667,,,,
20.68,286.25,,,,
20.72,273.333,,,,
20.76,297.083,,,,
20.8,307.083,,,,
20.84,281.25,,,,
20.88,297.5,,,,
20.92,295,,,,
20.96,305.417,,,,
21,299.583,,,,
21.04,309.583,,,,
21.08,304.167,,,,
21.12,306.667,,,,
21.16,312.5,,,,
21.2,315,,,,
21.24,325,,,,
21.28,317.083,,,,
21.32,312.083,,,,
21.36,312.917,,,,
21.4,302.083,,,,
21.44,324.583,,,,
21.48,327.083,,,,
21.52,312.917,,,,
21.56,341.667,,,,
21.6,318.75,,,,
21.64,320.833,,,,
21.68,324.583,,,,
21.72,330.833,,,,
21.76,325.833,,,,
21.8,340,,,,
21.84,339.583,,,,
21.88,359.583,,,,
21.92,327.5,,,,
21.96,347.5,,,,
22,333.75,,,,
22.04,353.333,,,,
22.08,334.167,,,,
22.12,337.083,,,,
22.16,346.667,,,,
22.2,361.25,,,,
22.24,310,,,,
22.28,358.333,,,,
22.32,362.083,,,,
22.36,340.833,,,,
22.4,333.333,,,,
22.44,337.083,,,,
22.48,334.583,,,,
22.52,375,,,,
22.56,366.25,,,,
22.6,352.917,,,,
22.64,353.333,,,,
22.68,346.25,,,,
22.72,352.5,,,,
22.76,376.25,,,,
22.8,337.917,,,,
22.84,327.083,,,,
22.88,355.417,,,,
22.92,344.583,,,,
22.96,368.333,,,,
23,348.333,,,,
23.04,374.167,,,,
23.08,350.833,,,,
23.12,371.25,,,,
23.16,373.75,,,,
23.2,372.083,,,,
23.24,327.083,,,,
23.28,365,,,,
23.32,360.417,,,,
23.36,365.833,,,,
23.4,359.583,,,,
23.44,350.833,,,,
23.48,354.583,,,,
23.52,359.167,,,,
23.56,374.167,,,,
23.6,377.083,,,,
23.64,352.917,,,,
23.68,382.083,,,,
23.72,381.25,,,,
23.76,379.167,,,,
23.8,367.083,,,,
23.84,377.083,,,,
23.88,357.917,,,,
23.92,365,,,,
23.96,372.917,,,,
24,360,,,,
24.04,372.5,,,,
24.08,409.167,,,,
24.12,377.5,,,,
24.16,371.667,,,,
24.2,383.333,,,,
24.24,388.75,,,,
24.28,355.833,,,,
24.32,403.333,,,,
24.36,432.083,,,,
24.4,440.833,,,,
24.44,438.75,,,,
24.48,426.25,,,,
24.52,416.25,,,,
24.56,415.417,,,,
24.6,411.667,,,,
24.64,409.583,,,,
24.68,431.667,,,,
24.72,414.583,,,,
24.76,413.333,,,,
24.8,392.083,,,,
24.84,412.083,,,,
24.88,406.25,,,,
24.92,390.417,,,,
24.96,413.333,,,,
25,394.167,,,,
25.04,405.417,,,,
25.08,391.25,,,,
25.12,391.667,,,,
25.16,400.417,,,,
25.2,414.583,,,,
25.24,420.833,,,,
25.28,391.667,,,,
25.32,402.083,,,,
25.36,405,,,,
25.4,412.5,,,,
25.44,395.417,,,,
25.48,395.417,,,,
25.52,384.167,,,,
25.56,432.083,,,,
25.6,424.167,,,,
25.64,397.083,,,,
25.68,422.917,,,,
25.72,428.333,,,,
25.76,400.833,,,,
25.8,430.833,,,,
25.84,448.333,,,,
25.88,430.833,,,,
25.92,470.833,,,,
25.96,446.667,,,,
26,447.5,,,,
26.04,477.917,,,,
26.08,465.833,,,,
26.12,465.417,,,,
26.16,512.5,,,,
26.2,517.917,,,,
26.24,522.5,,,,
26.28,550.417,,,,
26.32,622.917,,,,
26.36,692.5,,,,
26.4,760,,,,
26.44,868.333,,,,
26.48,985.417,,,,
26.52,1157.5,,,,
26.56,1130,,,,
26.6,1086.67,,,,
26.64,975.833,,,,
26.68,831.25,,,,
26.72,776.667,,,,
26.76,632.083,,,,
26.8,642.917,,,,
26.84,558.75,,,,
26.88,531.25,,,,
26.92,510.417,,,,
26.96,495.833,,,,
27,479.167,,,,
27.04,451.25,,,,
27.08,438.75,,,,
27.12,434.167,,,,
27.16,428.333,,,,
27.2,415.833,,,,
27.24,420.833,,,,
27.28,405.417,,,,
27.32,419.583,,,,
27.36,391.25,,,,
27.4,393.75,,,,
27.44,413.333,,,,
27.48,381.667,,,,
27.52,393.333,,,,
27.56,403.333,,,,
27.6,397.917,,,,
27.64,394.167,,,,
27.68,397.5,,,,
27.72,406.667,,,,
27.76,405.833,,,,
27.8,384.583,,,,
27.84,406.25,,,,
27.88,411.667,,,,
27.92,397.5,,,,
27.96,402.917,,,,
28,421.667,,,,
28.04,438.333,,,,
28.08,457.5,,,,
28.12,415.417,,,,
28.16,445.417,,,,
28.2,427.083,,,,
28.24,457.083,,,,
28.28,440.417,,,,
28.32,462.917,,,,
28.36,472.5,,,,
28.4,452.5,,,,
28.44,451.667,,,,
28.48,468.75,,,,
28.52,464.167,,,,
28.56,457.917,,,,
28.6,446.667,,,,
28.64,455.833,,,,
28.68,479.583,,,,
28.72,464.583,,,,
28.76,454.167,,,,
28.8,456.667,,,,
28.84,459.583,,,,
28.88,452.5,,,,
28.92,427.5,,,,
28.96,422.5,,,,
29,438.75,,,,
29.04,418.333,,,,
29.08,387.917,,,,
29.12,420.417,,,,
29.16,425.417,,,,
29.2,398.333,,,,
29.24,370.417,,,,
29.28,387.083,,,,
29.32,371.667,,,,
29.36,388.333,,,,
29.4,370.417,,,,
29.44,360,,,,
29.48,361.667,,,,
29.52,365.833,,,,
29.56,334.167,,,,
29.6,357.083,,,,
29.64,300,,,,
29.68,318.75,,,,
29.72,326.667,,,,
29.76,318.75,,,,
29.8,310,,,,
29.84,293.333,,,,
29.88,285.417,,,,
29.92,292.083,,,,
29.96,275.417,,,,
30,299.583,,,,
30.04,305,,,,
30.08,272.083,,,,
30.12,280,,,,
30.16,268.333,,,,
30.2,275.417,,,,
30.24,287.5,,,,
30.28,279.583,,,,
30.32,280.417,,,,
30.36,295,,,,
30.4,282.917,,,,
30.44,265,,,,
30.48,278.75,,,,
30.52,283.75,,,,
30.56,275.417,,,,
30.6,278.75,,,,
30.64,262.917,,,,
30.68,262.5,,,,
30.72,265,,,,
30.76,269.583,,,,
30.8,276.667,,,,
30.84,292.5,,,,
30.88,283.333,,,,
30.92,284.167,,,,
30.96,297.5,,,,
31,297.917,,,,
31.04,299.583,,,,
31.08,335.417,,,,
31.12,395.417,,,,
31.16,481.667,,,,
31.2,616.25,,,,
31.24,829.583,,,,
31.28,938.75,,,,
31.32,942.5,,,,
31.36,877.083,,,,
31.4,753.333,,,,
31.44,666.25,,,,
31.48,608.75,,,,
31.52,549.583,,,,
31.56,491.25,,,,
31.6,472.083,,,,
31.64,465.833,,,,
31.68,435.417,,,,
31.72,402.083,,,,
31.76,390.417,,,,
31.8,381.25,,,,
31.84,370,,,,
31.88,388.75,,,,
31.92,360.417,,,,
31.96,351.25,,,,
32,322.083,,,,
32.04,330.417,,,,
32.08,333.333,,,,
32.12,322.083,,,,
32.16,327.5,,,,
32.2,319.167,,,,
32.24,296.25,,,,
32.28,312.5,,,,
32.32,315,,,,
32.36,324.583,,,,
32.4,320.833,,,,
32.44,277.083,,,,
32.48,284.167,,,,
32.52,282.917,,,,
32.56,320.417,,,,
32.6,291.25,,,,
32.64,293.333,,,,
32.68,300.417,,,,
32.72,288.333,,,,
32.76,302.917,,,,
32.8,298.75,,,,
32.84,313.75,,,,
32.88,298.333,,,,
32.92,294.583,,,,
32.96,292.5,,,,
33,312.5,,,,
33.04,301.25,,,,
33.08,303.333,,,,
33.12,302.083,,,,
33.16,290,,,,
33.2,321.25,,,,
33.24,320.417,,,,
33.28,330,,,,
33.32,335,,,,
33.36,322.917,,,,
33.4,351.25,,,,
33.44,364.583,,,,
33.48,370.833,,,,
33.52,353.333,,,,
33.56,407.083,,,,
33.6,417.083,,,,
33.64,441.667,,,,
33.68,469.167,,,,
33.72,518.75,,,,
33.76,547.917,,,,
33.8,561.25,,,,
33.84,580.417,,,,
33.88,548.333,,,,
33.92,539.167,,,,
33.96,493.333,,,,
34,460.417,,,,
34.04,409.167,,,,
34.08,392.917,,,,
34.12,355,,,,
34.16,358.333,,,,
34.2,330.417,,,,
34.24,316.25,,,,
34.28,312.083,,,,
34.32,309.167,,,,
34.36,275.417,,,,
34.4,289.167,,,,
34.44,282.5,,,,
34.48,248.333,,,,
34.52,260.833,,,,
34.56,272.083,,,,
34.6,252.083,,,,
34.64,258.75,,,,
34.68,256.25,,,,
34.72,245.833,,,,
34.76,233.75,,,,
34.8,225.417,,,,
34.84,242.5,,,,
34.88,227.5,,,,
34.92,228.75,,,,
34.96,238.75,,,,
35,235,,,,
35.04,235,,,,
35.08,221.667,,,,
35.12,221.25,,,,
35.16,232.5,,,,
35.2,226.667,,,,
35.24,243.75,,,,
35.28,217.917,,,,
35.32,225.417,,,,
35.36,239.583,,,,
35.4,230,,,,
35.44,228.75,,,,
35.48,223.75,,,,
35.52,243.75,,,,
35.56,246.667,,,,
35.6,244.583,,,,
35.64,244.583,,,,
35.68,252.083,,,,
35.72,249.167,,,,
35.76,242.917,,,,
35.8,234.167,,,,
35.84,238.333,,,,
35.88,237.5,,,,
35.92,237.5,,,,
35.96,226.667,,,,
36,237.083,,,,
36.04,214.583,,,,
36.08,237.5,,,,
36.12,218.333,,,,
36.16,222.5,,,,
36.2,235,,,,
36.24,239.167,,,,
36.28,235,,,,
36.32,247.083,,,,
36.36,234.167,,,,
36.4,242.083,,,,
36.44,252.083,,,,
36.48,248.333,,,,
36.52,237.083,,,,
36.56,239.167,,,,
36.6,242.083,,,,
36.64,265,,,,
36.68,267.083,,,,
36.72,260.833,,,,
36.76,249.583,,,,
36.8,277.5,,,,
36.84,261.25,,,,
36.88,255.417,,,,
36.92,258.75,,,,
36.96,261.25,,,,
37,294.583,,,,
37.04,295.833,,,,
37.08,272.917,,,,
37.12,297.5,,,,
37.16,307.083,,,,
37.2,302.083,,,,
37.24,333.333,,,,
37.28,342.5,,,,
37.32,333.333,,,,
37.36,336.667,,,,
37.4,337.083,,,,
37.44,390.833,,,,
37.48,378.333,,,,
37.52,381.667,,,,
37.56,407.5,,,,
37.6,420.833,,,,
37.64,429.583,,,,
37.68,482.083,,,,
37.72,562.917,,,,
37.76,662.083,,,,
37.8,816.25,,,,
37.84,1144.17,,,,
37.88,1737.5,,,,
37.92,2557.92,,,,
37.96,3397.92,,,,
38,3787.08,,,,
38.04,3518.75,,,,
38.08,3009.58,,,,
38.12,2328.33,,,,
38.16,1579.17,,,,
38.2,1095.83,,,,
38.24,753.75,,,,
38.28,542.917,,,,
38.32,468.75,,,,
38.36,387.5,,,,
38.4,367.083,,,,
38.44,320.833,,,,
38.48,281.667,,,,
38.52,268.333,,,,
38.56,252.083,,,,
38.6,255.417,,,,
38.64,234.583,,,,
38.68,228.75,,,,
38.72,229.167,,,,
38.76,232.5,,,,
38.8,211.667,,,,
38.84,214.167,,,,
38.88,232.917,,,,
38.92,210,,,,
38.96,214.583,,,,
39,220.833,,,,
39.04,205.417,,,,
39.08,214.583,,,,
39.12,191.25,,,,
39.16,197.917,,,,
39.2,199.583,,,,
39.24,185,,,,
39.28,199.583,,,,
39.32,196.667,,,,
39.36,190,,,,
39.4,189.583,,,,
39.44,185.833,,,,
39.48,201.667,,,,
39.52,205.417,,,,
39.56,187.083,,,,
39.6,184.583,,,,
39.64,185.417,,,,
39.68,194.167,,,,
39.72,195,,,,
39.76,196.667,,,,
39.8,185,,,,
39.84,197.917,,,,
39.88,195.833,,,,
39.92,195.417,,,,
39.96,192.5,,,,
40,195,,,,
40.04,190.417,,,,
40.08,203.75,,,,
40.12,180.417,,,,
40.16,192.5,,,,
40.2,208.333,,,,
40.24,199.583,,,,
40.28,188.75,,,,
40.32,195,,,,
40.36,212.083,,,,
40.4,182.917,,,,
40.44,200,,,,
40.48,191.25,,,,
40.52,215,,,,
40.56,203.75,,,,
40.6,205.417,,,,
40.64,195,,,,
40.68,218.75,,,,
40.72,204.583,,,,
40.76,212.917,,,,
40.8,207.083,,,,
40.84,202.083,,,,
40.88,220.833,,,,
40.92,201.667,,,,
40.96,212.917,,,,
41,199.583,,,,
41.04,217.083,,,,
41.08,215.833,,,,
41.12,215,,,,
41.16,227.917,,,,
41.2,217.083,,,,
41.24,220,,,,
41.28,204.583,,,,
41.32,197.083,,,,
41.36,205.833,,,,
41.4,230.417,,,,
41.44,220.833,,,,
41.48,219.583,,,,
41.52,231.25,,,,
41.56,227.917,,,,
41.6,232.917,,,,
41.64,222.5,,,,
41.68,230,,,,
41.72,210.833,,,,
41.76,237.083,,,,
41.8,234.167,,,,
41.84,228.75,,,,
41.88,228.75,,,,
41.92,215.417,,,,
41.96,230.833,,,,
42,227.917,,,,
42.04,232.5,,,,
42.08,237.917,,,,
42.12,217.083,,,,
42.16,237.5,,,,
42.2,240.833,,,,
42.24,237.083,,,,
42.28,233.333,,,,
42.32,244.167,,,,
42.36,231.25,,,,
42.4,214.583,,,,
42.44,205,,,,
42.48,212.083,,,,
42.52,208.75,,,,
42.56,209.167,,,,
42.6,211.25,,,,
42.64,222.5,,,,
42.68,213.333,,,,
42.72,205.833,,,,
42.76,217.917,,,,
42.8,205.833,,,,
42.84,210.417,,,,
42.88,208.75,,,,
42.92,205.417,,,,
42.96,197.5,,,,
43,192.5,,,,
43.04,189.167,,,,
43.08,197.917,,,,
43.12,195.833,,,,
43.16,218.333,,,,
43.2,192.083,,,,
43.24,208.75,,,,
43.28,201.667,,,,
43.32,209.583,,,,
43.36,186.667,,,,
43.4,205.833,,,,
43.44,200,,,,
43.48,199.583,,,,
43.52,194.583,,,,
43.56,197.083,,,,
43.6,192.5,,,,
43.64,204.583,,,,
43.68,187.083,,,,
43.72,183.75,,,,
43.76,188.333,,,,
43.8,198.75,,,,
43.84,190,,,,
43.88,189.583,,,,
43.92,185.417,,,,
43.96,189.583,,,,
44,197.5,,,,
44.04,195.833,,,,
44.08,206.25,,,,
44.12,213.333,,,,
44.16,185.833,,,,
44.2,172.083,,,,
44.24,195,,,,
44.28,213.75,,,,
44.32,185,,,,
44.36,188.333,,,,
44.4,184.583,,,,
44.44,204.167,,,,
44.48,187.5,,,,
44.52,208.333,,,,
44.56,212.917,,,,
44.6,177.5,,,,
44.64,194.167,,,,
44.68,202.5,,,,
44.72,200.417,,,,
44.76,201.25,,,,
44.8,198.333,,,,
44.84,192.083,,,,
44.88,187.917,,,,
44.92,197.5,,,,
44.96,210.417,,,,
45,204.583,,,,
45.04,194.583,,,,
45.08,201.25,,,,
45.12,202.083,,,,
45.16,185.833,,,,
45.2,193.75,,,,
45.24,206.25,,,,
45.28,210.417,,,,
45.32,205.833,,,,
45.36,203.333,,,,
45.4,190,,,,
45.44,210,,,,
45.48,203.333,,,,
45.52,207.5,,,,
45.56,193.75,,,,
45.6,207.5,,,,
45.64,213.75,,,,
45.68,194.167,,,,
45.72,215,,,,
45.76,194.583,,,,
45.8,205,,,,
45.84,181.25,,,,
45.88,199.167,,,,
45.92,190.833,,,,
45.96,207.083,,,,
46,185.833,,,,
46.04,197.5,,,,
46.08,190.417,,,,
46.12,211.25,,,,
46.16,198.75,,,,
46.2,206.667,,,,
46.24,205.417,,,,
46.28,194.583,,,,
46.32,186.25,,,,
46.36,187.083,,,,
46.4,201.25,,,,
46.44,207.917,,,,
46.48,202.917,,,,
46.52,207.083,,,,
46.56,193.75,,,,
46.6,205,,,,
46.64,205.833,,,,
46.68,202.917,,,,
46.72,196.25,,,,
46.76,202.5,,,,
46.8,196.667,,,,
46.84,210,,,,
46.88,208.75,,,,
46.92,196.667,,,,
46.96,217.917,,,,
47,200.833,,,,
47.04,218.333,,,,
47.08,207.917,,,,
47.12,201.25,,,,
47.16,192.083,,,,
47.2,190.417,,,,
47.24,195.417,,,,
47.28,180,,,,
47.32,213.75,,,,
47.36,220,,,,
47.4,188.75,,,,
47.44,196.25,,,,
47.48,214.167,,,,
47.52,198.75,,,,
47.56,180.833,,,,
47.6,192.5,,,,
47.64,203.333,,,,
47.68,196.667,,,,
47.72,185.417,,,,
47.76,202.917,,,,
47.8,206.25,,,,
47.84,199.167,,,,
47.88,203.75,,,,
47.92,205,,,,
47.96,189.167,,,,
48,187.083,,,,
48.04,188.333,,,,
48.08,191.667,,,,
48.12,192.083,,,,
48.16,176.25,,,,
48.2,192.917,,,,
48.24,193.333,,,,
48.28,193.75,,,,
48.32,200.417,,,,
48.36,181.25,,,,
48.4,178.333,,,,
48.44,190,,,,
48.48,195.417,,,,
48.52,185.417,,,,
48.56,187.5,,,,
48.6,192.5,,,,
48.64,200,,,,
48.68,202.5,,,,
48.72,193.333,,,,
48.76,195,,,,
48.8,186.667,,,,
48.84,208.333,,,,
48.88,209.583,,,,
48.92,207.5,,,,
48.96,215.417,,,,
49,195,,,,
49.04,201.667,,,,
49.08,196.667,,,,
49.12,192.917,,,,
49.16,211.25,,,,
49.2,215,,,,
49.24,212.083,,,,
49.28,219.583,,,,
49.32,213.333,,,,
49.36,213.75,,,,
49.4,218.75,,,,
49.44,210.417,,,,
49.48,206.667,,,,
49.52,202.083,,,,
49.56,231.25,,,,
49.6,220,,,,
49.64,242.917,,,,
49.68,229.583,,,,
49.72,225,,,,
49.76,214.583,,,,
49.8,230.833,,,,
49.84,257.5,,,,
49.88,234.167,,,,
49.92,243.333,,,,
49.96,232.083,,,,
50,220,,,,