File: Figure_codes/Fig_2_S1_S6/20220924_003_MultiCV_0_850mV_1-84_C_02_CV_C01_40.csv
mode,ox/red,error,control changes,counter inc.,time/s,control/V,Ewe/V,<I>/mA,cycle number,(Q-Qo)/C,I Range,P/W,log(|I|),Tafel slope mV/dec,alpha_eff,E-IR/V,
2,0,0,0,0,14829.7,2.17368e-05,-0.000351903,-0.189711,41,0.0000000E+000,10,6.67597e-08,-3.72191, , ,-1.23209e-05,
2,1,0,1,0,14830.5,0.00377281,0.00344647,0.0304694,41,-3.01313e-05,10,1.05012e-07,-4.51614,0.00122881,48.0138,0.00339193,
2,1,0,1,0,14831.2,0.00757389,0.00728303,0.129876,41,4.21844e-05,10,9.4589e-07,-3.88647,0.0134587,4.38377,0.00705055,
2,1,0,0,0,14832,0.011375,0.0110909,0.192129,41,0.00017166,10,2.13089e-06,-3.71641,0.0310731,1.89875,0.010747,
2,1,0,1,0,14832.8,0.0151761,0.0148989,0.236645,41,0.000340509,10,3.52574e-06,-3.6259,0.0513356,1.1493,0.0144753,
2,1,0,0,0,14833.5,0.0189771,0.0187831,0.269414,41,0.000538319,10,5.06043e-06,-3.56958,0.0762107,0.774169,0.0183009,
2,1,0,1,0,14834.3,0.0227782,0.0225147,0.293038,41,0.000757466,10,6.59766e-06,-3.53308,0.148662,0.396875,0.0219902,
2,1,0,0,0,14835,0.0265793,0.0263513,0.311865,41,0.000992238,10,8.21805e-06,-3.50603,0.156402,0.377232,0.025793,
2,1,0,1,0,14835.8,0.0303804,0.030121,0.327163,41,0.00124032,10,9.85447e-06,-3.48524,0.213882,0.275853,0.0295354,
2,1,0,0,0,14836.6,0.0341815,0.0338907,0.338144,41,0.00149867,10,1.146e-05,-3.4709,0.244477,0.241331,0.0332855,
2,1,0,1,0,14837.3,0.0379825,0.0377464,0.34797,41,0.00176472,10,1.31346e-05,-3.45846,0.284049,0.207711,0.0371235,
2,1,0,0,0,14838.1,0.0417836,0.0415448,0.354921,41,0.00203763,10,1.47451e-05,-3.44987,0.903785,0.065281,0.0409095,
2,1,0,1,0,14838.8,0.0455847,0.0453718,0.362346,41,0.00231626,10,1.64403e-05,-3.44088,0.42127,0.140053,0.0447232,
2,1,0,1,0,14839.6,0.0493858,0.0490079,0.367673,41,0.00260015,10,1.80189e-05,-3.43454,0.609328,0.0968279,0.0483498,
2,1,0,0,0,14840.4,0.0531869,0.052959,0.374151,41,0.00288838,10,1.98147e-05,-3.42695,0.513033,0.115002,0.0522892,
2,1,0,1,0,14841.1,0.056988,0.0566428,0.380641,41,0.00318152,10,2.15606e-05,-3.41948,1.79354,0.0328958,0.0559615,
2,1,0,0,0,14841.9,0.060789,0.0605366,0.38475,41,0.0034787,10,2.32914e-05,-3.41482,0.516436,0.114245,0.0598479,
2,1,0,1,0,14842.6,0.0645901,0.0644114,0.389851,41,0.00377941,10,2.51108e-05,-3.4091,0.547224,0.107817,0.0637135,
2,1,0,0,0,14843.4,0.0683912,0.0681048,0.395945,41,0.00408454,10,2.69657e-05,-3.40237,0.491304,0.120089,0.067396,
2,1,0,1,0,14844.2,0.0721923,0.0720272,0.401987,41,0.00439469,10,2.8954e-05,-3.39579,0.466806,0.126391,0.0713077,
2,1,0,0,0,14844.9,0.0759934,0.0757302,0.407264,41,0.00470927,10,3.08421e-05,-3.39012,0.520918,0.113262,0.0750011,
2,1,0,1,0,14845.7,0.0797945,0.0795285,0.415753,41,0.0050292,10,3.30642e-05,-3.38116,0.445837,0.132335,0.0787843,
2,1,0,0,0,14846.4,0.0835955,0.083451,0.426234,41,0.00535606,10,3.55697e-05,-3.37035,0.429941,0.137228,0.082688,
2,1,0,1,0,14847.2,0.0873966,0.0871157,0.434912,41,0.00568989,10,3.78877e-05,-3.3616,0.448633,0.131511,0.0863373,
2,1,0,0,0,14848,0.0911977,0.0909141,0.447697,41,0.00603167,10,4.0702e-05,-3.34902,0.287975,0.204879,0.0901127,
2,1,0,1,0,14848.7,0.0949988,0.0946743,0.462093,41,0.00638391,10,4.37484e-05,-3.33527,0.246662,0.239194,0.0938472,
2,1,0,1,0,14849.5,0.0987999,0.0985968,0.478597,41,0.00674796,10,4.71881e-05,-3.32003,0.213597,0.276221,0.0977401,
2,1,0,0,0,14850.2,0.102601,0.102319,0.498534,41,0.00712564,10,5.10094e-05,-3.3023,0.195707,0.301471,0.101426,
2,1,0,1,0,14851,0.106402,0.106089,0.522905,41,0.00752017,10,5.54742e-05,-3.28158,0.172325,0.342376,0.105153,
2,1,0,0,0,14851.8,0.110203,0.109954,0.550403,41,0.00793488,10,6.05189e-05,-3.25932,0.154814,0.381103,0.108968,
2,1,0,1,0,14852.5,0.114004,0.1138,0.581523,41,0.00837146,10,6.61773e-05,-3.23543,0.125948,0.468447,0.112759,
2,1,0,0,0,14853.3,0.117805,0.117484,0.620724,41,0.0088349,10,7.29249e-05,-3.2071,0.11578,0.509587,0.116373,
2,1,0,1,0,14854,0.121606,0.121349,0.668543,41,0.00933136,10,8.11269e-05,-3.17487,0.116898,0.504713,0.120152,
2,1,0,0,0,14854.8,0.125407,0.1251,0.720912,41,0.00986566,10,9.01857e-05,-3.14212,0.118104,0.49956,0.123809,
2,1,0,1,0,14855.6,0.129209,0.128993,0.784275,41,0.0104436,10,0.000101166,-3.10553,0.094995,0.621085,0.127589,
2,1,0,0,0,14856.3,0.13301,0.132782,0.856036,41,0.0110732,10,0.000113666,-3.06751,0.0987231,0.597631,0.13125,
2,1,0,1,0,14857.1,0.136811,0.136647,0.933885,41,0.0117603,10,0.000127613,-3.02971,0.0968989,0.608882,0.134976,
2,1,0,1,0,14857.9,0.140612,0.140436,1.01819,41,0.0125085,10,0.000142991,-2.99217,0.102319,0.57663,0.138614,
2,1,0,0,0,14858.6,0.144413,0.14412,1.10043,41,0.0133203,10,0.000158595,-2.95844,0.106573,0.553614,0.14215,
2,1,0,1,0,14859.4,0.148214,0.148004,1.18294,41,0.0141955,10,0.000175081,-2.92704,0.121524,0.4855,0.145887,
2,1,0,0,0,14860.1,0.152015,0.151764,1.25568,41,0.0151295,10,0.000190567,-2.90112,0.159843,0.369112,0.149517,
2,1,0,1,0,14860.9,0.155816,0.155572,1.32137,41,0.0161164,10,0.000205569,-2.87898,0.185971,0.317254,0.153207,
2,1,0,0,0,14861.7,0.159617,0.159428,1.37676,41,0.0171489,10,0.000219494,-2.86114,0.246301,0.239544,0.156964,
2,1,0,1,0,14862.4,0.163418,0.163179,1.41702,41,0.0182176,10,0.000231227,-2.84863,0.456538,0.129233,0.160642,
2,1,0,0,0,14863.2,0.167219,0.166977,1.44098,41,0.0193099,10,0.00024061,-2.84134,0.735901,0.0801738,0.164398,
2,1,0,1,0,14863.9,0.17102,0.170775,1.45211,41,0.0204161,10,0.000247986,-2.838,1.93594,0.0304762,0.168176,
2,1,0,0,0,14864.7,0.174822,0.174574,1.44863,41,0.0215254,10,0.000252893,-2.83904,-1.10287,-0.053497,0.171981,
2,1,0,1,0,14865.5,0.178623,0.178439,1.42841,41,0.0226248,10,0.000254885,-2.84515,-0.613811,-0.0961208,0.175882,
2,1,0,0,0,14866.2,0.182424,0.182104,1.39885,41,0.0237058,10,0.000254736,-2.85423,-0.321278,-0.183641,0.1796,
2,1,0,1,0,14867,0.186225,0.185931,1.35073,41,0.0247573,10,0.000251142,-2.86943,-0.214089,-0.275586,0.183513,
2,1,0,1,0,14867.7,0.190026,0.18971,1.28681,41,0.0257662,10,0.000244121,-2.89049,-0.160405,-0.367818,0.187407,
2,1,0,0,0,14868.5,0.193827,0.193537,1.20938,41,0.0267204,10,0.000234061,-2.91744,-0.137527,-0.429007,0.191372,
2,1,0,1,0,14869.3,0.197628,0.197374,1.12204,41,0.0276117,10,0.000221461,-2.94999,-0.117493,-0.50216,0.195365,
2,1,0,0,0,14870,0.201429,0.201182,1.03197,41,0.0284344,10,0.000207613,-2.98633,-0.100843,-0.585065,0.199334,
2,1,0,1,0,14870.8,0.20523,0.204942,0.94057,41,0.0291876,10,0.000192762,-3.02661,-0.10655,-0.55373,0.203258,
2,1,0,0,0,14871.5,0.209031,0.208816,0.861105,41,0.0298759,10,0.000179813,-3.06494,-0.111649,-0.528444,0.207275,
2,1,0,1,0,14872.3,0.212832,0.212481,0.789902,41,0.0305068,10,0.000167839,-3.10243,-0.117441,-0.502382,0.211067,
2,1,0,0,0,14873.1,0.216633,0.216375,0.728142,41,0.0310874,10,0.000157552,-3.13778,-0.123816,-0.476515,0.215072,
2,1,0,1,0,14873.8,0.220435,0.220193,0.681251,41,0.0316268,10,0.000150006,-3.16669,-0.139964,-0.421538,0.218973,
2,1,0,0,0,14874.6,0.224236,0.223934,0.639961,41,0.0321329,10,0.000143309,-3.19385,-0.156019,-0.378159,0.222788,
2,1,0,1,0,14875.3,0.228037,0.227799,0.605835,41,0.0326107,10,0.000138009,-3.21765,-0.16862,-0.349899,0.226714,
2,1,0,1,0,14876.1,0.231838,0.231645,0.580084,41,0.033065,10,0.000134373,-3.23651,-0.21004,-0.2809,0.230607,
2,1,0,0,0,14876.9,0.235639,0.235453,0.557607,41,0.0335011,10,0.00013129,-3.25367,-0.241268,-0.244541,0.234455,
2,1,0,1,0,14877.6,0.23944,0.239127,0.538767,41,0.0339219,10,0.000128834,-3.2686,-0.348871,-0.169117,0.238163,
2,1,0,0,0,14878.4,0.243241,0.243088,0.521749,41,0.0343295,10,0.000126831,-3.28254,-0.25396,-0.23232,0.242154,
2,1,0,1,0,14879.1,0.247042,0.246781,0.508282,41,0.0347257,10,0.000125435,-3.29389,-0.284268,-0.207551,0.245871,
2,1,0,0,0,14879.9,0.250843,0.250637,0.496152,41,0.0351121,10,0.000124354,-3.30438,-0.416735,-0.141577,0.249749,
2,1,0,1,0,14880.7,0.254644,0.254416,0.484587,41,0.0354898,10,0.000123287,-3.31463,-0.49029,-0.120337,0.253549,
2,1,0,0,0,14881.4,0.258445,0.258138,0.474897,41,0.0358597,10,0.000122589,-3.3234,-0.49221,-0.119868,0.257288,
2,1,0,1,0,14882.2,0.262246,0.261975,0.467771,41,0.0362234,10,0.000122544,-3.32997,-0.585878,-0.100704,0.261137,
2,1,0,0,0,14882.9,0.266048,0.265811,0.459795,41,0.0365811,10,0.000122219,-3.33744,-0.353414,-0.166943,0.264988,
2,1,0,1,0,14883.7,0.269849,0.269619,0.453843,41,0.0369334,10,0.000122365,-3.34309,-0.726683,-0.0811908,0.268807,
2,1,0,0,0,14884.5,0.27365,0.273398,0.447068,41,0.0372813,10,0.000122228,-3.34963,-0.607198,-0.0971676,0.272598,
2,1,0,1,0,14885.2,0.277451,0.277206,0.442265,41,0.0376249,10,0.000122599,-3.35432,-0.820688,-0.0718909,0.276415,
2,1,0,1,0,14886,0.281252,0.280967,0.437754,41,0.0379644,10,0.000122994,-3.35877,-1.13996,-0.0517561,0.280183,
2,1,0,0,0,14886.7,0.285053,0.284803,0.433315,41,0.0383005,10,0.000123409,-3.3632,-1.12674,-0.0523634,0.284027,
2,1,0,1,0,14887.5,0.288854,0.288592,0.427974,41,0.0386337,10,0.00012351,-3.36858,-0.887185,-0.0665025,0.287826,
2,1,0,0,0,14888.3,0.292655,0.292381,0.423028,41,0.0389636,10,0.000123685,-3.37363,-0.661192,-0.0892327,0.291624,
2,1,0,1,0,14889,0.296456,0.296256,0.420763,41,0.0392907,10,0.000124653,-3.37596,-0.773202,-0.0763061,0.295502,
2,1,0,0,0,14889.8,0.300257,0.300149,0.418096,41,0.0396153,10,0.000125491,-3.37872,-0.812051,-0.0726555,0.299401,
2,1,0,1,0,14890.5,0.304058,0.303852,0.414357,41,0.0399375,10,0.000125903,-3.38262,-0.767554,-0.0768676,0.303111,
2,1,0,0,0,14891.3,0.307859,0.307651,0.411567,41,0.0402568,10,0.000126619,-3.38556,-0.685927,-0.086015,0.306914,
2,1,0,1,0,14892.1,0.311661,0.311401,0.409652,41,0.040574,10,0.000127566,-3.38758,-3.43,-0.0172012,0.310668,
2,1,0,0,0,14892.8,0.315462,0.315133,0.406089,41,0.0408894,10,0.000127972,-3.39138,-1.49411,-0.0394885,0.314406,
2,1,0,1,0,14893.6,0.319263,0.318969,0.401955,41,0.0412021,10,0.000128211,-3.39582,-1.72227,-0.0342571,0.31825,
2,1,0,1,0,14894.3,0.323064,0.322854,0.400176,41,0.041513,10,0.000129198,-3.39775,-0.989701,-0.059614,0.322137,
2,1,0,0,0,14895.1,0.326865,0.326566,0.398554,41,0.0418219,10,0.000130154,-3.39951,-0.858385,-0.0687338,0.325853,
2,1,0,1,0,14895.9,0.330666,0.330393,0.39501,41,0.0421289,10,0.000130509,-3.40339,-0.854495,-0.0690466,0.329686,
2,1,0,0,0,14896.6,0.334467,0.334239,0.392641,41,0.0424335,10,0.000131236,-3.406,-1.26818,-0.0465234,0.333536,
2,1,0,1,0,14897.4,0.338268,0.338019,0.391434,41,0.0427369,10,0.000132312,-3.40734,-0.825474,-0.0714741,0.337318,
2,1,0,0,0,14898.1,0.342069,0.341903,0.389338,41,0.0430388,10,0.000133116,-3.40967,-2.2923,-0.0257383,0.341206,
2,1,0,1,0,14898.9,0.34587,0.345615,0.385645,41,0.0433384,10,0.000133285,-3.41381,-0.998241,-0.0591039,0.344925,
2,1,0,0,0,14899.7,0.349671,0.349395,0.384042,41,0.0436363,10,0.000134182,-3.41562,4.48484,0.0131554,0.348707,
2,1,0,1,0,14900.4,0.353472,0.353308,0.382796,41,0.0439329,10,0.000135245,-3.41703,-4.3941,-0.0134271,0.352622,
2,1,0,0,0,14901.2,0.357273,0.35702,0.378156,41,0.0442274,10,0.000135009,-3.42233,-7.79957,-0.00756452,0.356343,
2,1,0,1,0,14901.9,0.361075,0.360771,0.377481,41,0.0445203,10,0.000136184,-3.42311,-23.8891,-0.00246974,0.360095,
2,1,0,0,0,14902.7,0.364876,0.364607,0.375735,41,0.044812,10,0.000136996,-3.42512,-1.03384,-0.0570689,0.363935,
2,1,0,1,0,14903.5,0.368677,0.368453,0.373662,41,0.0451023,10,0.000137677,-3.42752,-0.907843,-0.0649892,0.367784,
2,1,0,1,0,14904.2,0.372478,0.37228,0.372191,41,0.0453908,10,0.000138559,-3.42923,-1.26099,-0.0467888,0.371614,
2,1,0,0,0,14905,0.376279,0.37606,0.370075,41,0.0456778,10,0.00013917,-3.43171,-1.10661,-0.053316,0.375397,
2,1,0,1,0,14905.7,0.38008,0.37981,0.367453,41,0.0459634,10,0.000139563,-3.4348,-1.57219,-0.0375273,0.379152,
2,1,0,0,0,14906.5,0.383881,0.38359,0.366227,41,0.0462473,10,0.000140481,-3.43625,-0.912447,-0.0646613,0.382934,
2,1,0,1,0,14907.3,0.387682,0.387455,0.363423,41,0.0465296,10,0.00014081,-3.43959,-3.18475,-0.0185258,0.386804,
2,1,0,0,0,14908,0.391483,0.391224,0.363235,41,0.0468111,10,0.000142106,-3.43981,-1.19702,-0.0492891,0.390574,
2,1,0,1,0,14908.8,0.395284,0.395023,0.360794,41,0.0470909,10,0.000142522,-3.44274,-0.959193,-0.0615101,0.394377,
2,1,0,0,0,14909.5,0.399085,0.398812,0.359191,41,0.0473692,10,0.00014325,-3.44467,3.68413,0.0160146,0.398169,
2,1,0,1,0,14910.3,0.402886,0.402734,0.357387,41,0.0476462,10,0.000143932,-3.44686,-1.82429,-0.0323414,0.402094,
2,1,0,0,0,14911.1,0.406688,0.406418,0.355752,41,0.047922,10,0.000144584,-3.44885,-1.557,-0.0378934,0.405781,
2,1,0,1,0,14911.8,0.410489,0.410245,0.354506,41,0.0481965,10,0.000145434,-3.45038,-1.34946,-0.0437211,0.40961,
2,1,0,1,0,14912.6,0.41429,0.414177,0.354195,41,0.0484704,10,0.0001467,-3.45076,-4.6308,-0.0127408,0.413543,
2,1,0,0,0,14913.3,0.418091,0.417909,0.352714,41,0.0487437,10,0.000147402,-3.45258,-3.89221,-0.0151585,0.417277,
2,1,0,1,0,14914.1,0.421892,0.42164,0.351507,41,0.0490156,10,0.00014821,-3.45407,-96.9538,-0.000608537,0.421011,
2,1,0,0,0,14914.9,0.425693,0.425524,0.350209,41,0.0492869,10,0.000149022,-3.45567,-1.51218,-0.0390164,0.424898,
2,1,0,1,0,14915.6,0.429494,0.429342,0.350001,41,0.0495574,10,0.00015027,-3.45593,-102.464,-0.000575811,0.428715,
2,1,0,0,0,14916.4,0.433295,0.433016,0.348333,41,0.0498272,10,0.000150834,-3.458,-1.05441,-0.0559554,0.432393,
2,1,0,1,0,14917.1,0.437096,0.4369,0.348262,41,0.0500961,10,0.000152156,-3.45809,-2.28404,-0.0258314,0.436277,
2,1,0,0,0,14917.9,0.440897,0.440718,0.347373,41,0.0503643,10,0.000153093,-3.4592,4.15886,0.0141866,0.440096,
2,1,0,1,0,14918.7,0.444698,0.444469,0.346776,41,0.0506321,10,0.000154131,-3.45995,1.45847,0.0404534,0.443848,
2,1,0,0,0,14919.4,0.448499,0.448257,0.34627,41,0.0508995,10,0.000155218,-3.46059,-1.89003,-0.0312165,0.447638,
2,1,0,1,0,14920.2,0.452301,0.452056,0.345296,41,0.0511662,10,0.000156093,-3.46181,-3.1608,-0.0186662,0.451438,
2,1,0,0,0,14920.9,0.456102,0.455959,0.344485,41,0.0514325,10,0.000157071,-3.46283,3.32675,0.017735,0.455343,
2,1,0,1,0,14921.7,0.459903,0.459691,0.343859,41,0.0516983,10,0.000158069,-3.46362,-21.7447,-0.0027133,0.459075,
2,1,0,1,0,14922.5,0.463704,0.46347,0.344355,41,0.0519636,10,0.000159598,-3.46299,2.64431,0.022312,0.462854,
2,1,0,0,0,14923.2,0.467505,0.467345,0.344323,41,0.052229,10,0.000160917,-3.46303,-2.00533,-0.0294216,0.466728,
2,1,0,1,0,14924,0.471306,0.471086,0.343927,41,0.052494,10,0.000162019,-3.46353,-0.961615,-0.0613551,0.47047,
2,1,0,0,0,14924.7,0.475107,0.47477,0.342895,41,0.0527585,10,0.000162796,-3.46484,1.01093,0.0583621,0.474156,
2,1,0,1,0,14925.5,0.478908,0.478654,0.343816,41,0.0530232,10,0.000164569,-3.46367,2.8652,0.020592,0.478038,
2,1,0,0,0,14926.3,0.482709,0.482529,0.344063,41,0.053288,10,0.00016602,-3.46336,-3.26623,-0.0180637,0.481913,
2,1,0,1,0,14927,0.48651,0.48627,0.343407,41,0.0535526,10,0.000166989,-3.46419,-5.80963,-0.0101556,0.485655,
2,1,0,0,0,14927.8,0.490311,0.490078,0.34381,41,0.0538172,10,0.000168494,-3.46368,2.84854,0.0207124,0.489462,
2,1,0,1,0,14928.6,0.494112,0.493943,0.344459,41,0.0540822,10,0.000170143,-3.46286,7.9453,0.00742577,0.493326,
2,1,0,0,0,14929.3,0.497914,0.49776,0.344374,41,0.0543471,10,0.000171416,-3.46297,1.47728,0.0399382,0.497144,
2,1,0,1,0,14930.1,0.501715,0.501559,0.344894,41,0.0546122,10,0.000172984,-3.46231,1.70095,0.0346866,0.500941,
2,1,0,1,0,14930.8,0.505516,0.505262,0.345777,41,0.0548777,10,0.000174708,-3.4612,5.45608,0.0108136,0.504643,
2,1,0,0,0,14931.6,0.509317,0.509127,0.344842,41,0.0551434,10,0.000175568,-3.46238,7.02351,0.00840036,0.50851,
2,1,0,1,0,14932.4,0.513118,0.512944,0.346672,41,0.0554094,10,0.000177823,-3.46008,-3.12789,-0.0188626,0.512324,
2,1,0,0,0,14933.1,0.516919,0.516685,0.348002,41,0.055676,10,0.000179808,-3.45842,1.47686,0.0399495,0.516063,
2,1,0,1,0,14933.9,0.52072,0.520532,0.348074,41,0.0559436,10,0.000181183,-3.45833,3.23666,0.0182287,0.519908,
2,1,0,0,0,14934.6,0.524521,0.524311,0.348814,41,0.0562116,10,0.000182887,-3.45741,-2.97161,-0.0198545,0.523686,
2,1,0,1,0,14935.4,0.528322,0.528176,0.350235,41,0.0564802,10,0.000184986,-3.45564,10.0808,0.00585268,0.527549,
2,1,0,0,0,14936.2,0.532123,0.531927,0.35152,41,0.0567494,10,0.000186983,-3.45405,1.19582,0.0493384,0.531297,
2,1,0,1,0,14936.9,0.535924,0.535668,0.352169,41,0.0570193,10,0.000188646,-3.45325,-10.3629,-0.00569339,0.535037,
2,1,0,0,0,14937.7,0.539725,0.539457,0.353214,41,0.0572899,10,0.000190544,-3.45196,4.18196,0.0141082,0.538824,
2,1,0,1,0,14938.4,0.543527,0.543322,0.354136,41,0.0575615,10,0.00019241,-3.45083,-7.51647,-0.00784943,0.542688,
2,1,0,0,0,14939.2,0.547328,0.547101,0.356271,41,0.057834,10,0.000194916,-3.44822,2.21416,0.0266467,0.546463,
2,1,0,1,0,14940,0.551129,0.550928,0.356788,41,0.0581073,10,0.000196564,-3.44759,-30.8219,-0.00191422,0.550289,
2,1,0,1,0,14940.7,0.55493,0.554784,0.359107,41,0.0583819,10,0.000199227,-3.44478,1.31816,0.0447595,0.554141,
2,1,0,0,0,14941.5,0.558731,0.558525,0.360373,41,0.0586578,10,0.000201277,-3.44325,2.66069,0.0221747,0.55788,
2,1,0,1,0,14942.2,0.562532,0.562275,0.361878,41,0.0589349,10,0.000203475,-3.44144,2.11675,0.027873,0.561628,
2,1,0,0,0,14943,0.566333,0.566102,0.364156,41,0.0592135,10,0.00020615,-3.43871,107.261,0.00055006,0.565451,
2,1,0,1,0,14943.8,0.570134,0.569949,0.366253,41,0.0594938,10,0.000208745,-3.43622,3.91823,0.0150578,0.569293,
2,1,0,0,0,14944.5,0.573935,0.573718,0.368907,41,0.059776,10,0.000211649,-3.43308,1.76493,0.0334292,0.573058,
2,1,0,1,0,14945.3,0.577736,0.577536,0.371555,41,0.0600598,10,0.000214586,-3.42998,1.70913,0.0345205,0.576871,
2,1,0,0,0,14946,0.581537,0.581315,0.374404,41,0.0603459,10,0.000217647,-3.42666,4.02588,0.0146552,0.580645,
2,1,0,1,0,14946.8,0.585338,0.585123,0.378071,41,0.0606342,10,0.000221218,-3.42243,0.870899,0.0677461,0.584446,
2,1,0,0,0,14947.6,0.58914,0.588883,0.380609,41,0.0609248,10,0.000224134,-3.41952,0.817626,0.0721601,0.588202,
2,1,0,1,0,14948.3,0.592941,0.592634,0.384049,41,0.0612182,10,0.0002276,-3.41561,0.586213,0.100646,0.591946,
2,1,0,0,0,14949.1,0.596742,0.596547,0.388702,41,0.061515,10,0.000231879,-3.41038,1.41495,0.0416977,0.595851,
2,1,0,0,0,14949.8,0.600543,0.600326,0.392285,41,0.0618147,10,0.000235499,-3.4064,0.553517,0.106591,0.599624,
2,1,0,1,0,14950.6,0.604344,0.604201,0.397139,41,0.0621175,10,0.000239952,-3.40106,1.92304,0.0306805,0.60349,
2,1,0,0,0,14951.4,0.608145,0.60799,0.402565,41,0.062424,10,0.000244755,-3.39516,0.625783,0.0942819,0.607269,
2,1,0,1,0,14952.1,0.611946,0.611654,0.407686,41,0.0627345,10,0.000249363,-3.38967,1.34713,0.0437968,0.610925,
2,1,0,0,0,14952.9,0.615747,0.615453,0.412774,41,0.0630493,10,0.000254043,-3.38429,0.52082,0.113283,0.614714,
2,1,0,1,0,14953.6,0.619548,0.619251,0.420056,41,0.0633689,10,0.00026012,-3.37669,0.559832,0.105389,0.618499,
2,1,0,0,0,14954.4,0.623349,0.623135,0.42787,41,0.0636939,10,0.000266621,-3.36869,0.580312,0.101669,0.62237,
2,1,0,1,0,14955.2,0.62715,0.626934,0.434431,41,0.0640243,10,0.00027236,-3.36208,0.406941,0.144984,0.626156,
2,1,0,0,0,14955.9,0.630951,0.630694,0.443485,41,0.0643611,10,0.000279703,-3.35312,0.520339,0.113388,0.6299,
2,1,0,1,0,14956.7,0.634753,0.634559,0.453194,41,0.0647048,10,0.000287579,-3.34372,0.325654,0.181174,0.633748,
2,1,0,0,0,14957.4,0.638554,0.638367,0.463922,41,0.0650565,10,0.000296153,-3.33355,0.488975,0.120661,0.637537,
2,1,0,1,0,14958.2,0.642355,0.642204,0.476117,41,0.0654167,10,0.000305764,-3.32229,0.301934,0.195407,0.641351,
2,1,0,1,0,14959,0.646156,0.645926,0.490348,41,0.0657874,10,0.000316728,-3.3095,0.311744,0.189258,0.645048,
2,1,0,0,0,14959.7,0.649957,0.649829,0.506082,41,0.0661691,10,0.000328867,-3.29578,0.320328,0.184186,0.648923,
2,1,0,1,0,14960.5,0.653758,0.653542,0.523664,41,0.0665633,10,0.000342236,-3.28095,0.278482,0.211863,0.652604,
2,1,0,0,0,14961.2,0.657559,0.657369,0.543498,41,0.0669717,10,0.000357278,-3.2648,0.228499,0.258207,0.656396,
2,1,0,1,0,14962,0.66136,0.661138,0.564084,41,0.0673953,10,0.000372938,-3.24866,0.249768,0.236219,0.660129,
2,1,0,0,0,14962.8,0.665161,0.664956,0.588195,41,0.067836,10,0.000391124,-3.23048,0.186175,0.316905,0.663903,
2,1,0,1,0,14963.5,0.668962,0.668735,0.616382,41,0.0682968,10,0.000412196,-3.21015,0.177343,0.332689,0.667632,
2,1,0,0,0,14964.3,0.672763,0.672572,0.649384,41,0.0687808,10,0.000436757,-3.1875,0.154489,0.381904,0.671409,
2,1,0,1,0,14965,0.676564,0.676332,0.68408,41,0.0692902,10,0.000462665,-3.16489,0.144788,0.407493,0.675107,
2,1,0,0,0,14965.8,0.680365,0.680207,0.722859,41,0.0698273,10,0.000491693,-3.14095,0.157648,0.37425,0.678913,
2,1,0,1,0,14966.6,0.684167,0.684043,0.76668,41,0.0703957,10,0.000524442,-3.11539,0.129642,0.4551,0.682671,
2,1,0,0,0,14967.3,0.687968,0.687765,0.816018,41,0.0709996,10,0.000561229,-3.0883,0.133811,0.440921,0.686304,
2,1,0,0,0,14968.1,0.691769,0.691544,0.868776,41,0.0716418,10,0.000600797,-3.06109,0.130485,0.452159,0.689989,
2,1,0,1,0,14968.8,0.69557,0.695429,0.926876,41,0.0723263,10,0.000644576,-3.03298,0.131529,0.44857,0.69377,
2,1,0,0,0,14969.6,0.699371,0.699179,0.990343,41,0.0730569,10,0.000692427,-3.00421,0.119631,0.493181,0.697407,
2,1,0,1,0,14970.4,0.703172,0.702959,1.05837,41,0.073838,10,0.000743992,-2.97536,0.132035,0.44685,0.701064,
2,1,0,0,0,14971.1,0.706973,0.706747,1.1332,41,0.0746731,10,0.000800888,-2.94569,0.119948,0.491881,0.704719,
2,1,0,1,0,14971.9,0.710774,0.710479,1.21216,41,0.0755672,10,0.000861211,-2.91644,0.128897,0.457731,0.708309,
2,1,0,0,0,14972.6,0.714575,0.714335,1.29899,41,0.0765242,10,0.000927916,-2.88639,0.120215,0.490787,0.712009,
2,1,0,1,0,14973.4,0.718376,0.71819,1.38968,41,0.0775477,10,0.000998054,-2.85709,0.122401,0.482024,0.715703,
2,1,0,0,0,14974.2,0.722177,0.72196,1.48538,41,0.0786422,10,0.00107239,-2.82816,0.131796,0.447663,0.719301,
2,1,0,1,0,14974.9,0.725978,0.725806,1.58447,41,0.0798119,10,0.00115002,-2.80011,0.129506,0.455576,0.72297,
2,1,0,0,0,14975.7,0.72978,0.729566,1.69137,41,0.0810598,10,0.00123396,-2.77176,0.136835,0.431177,0.726539,
2,1,0,1,0,14976.4,0.733581,0.733441,1.8031,41,0.0823906,10,0.00132247,-2.74398,0.146461,0.402839,0.730214,
2,1,0,1,0,14977.2,0.737382,0.737154,1.91895,41,0.0838082,10,0.00141456,-2.71694,0.136131,0.433406,0.733719,
2,1,0,0,0,14978,0.741183,0.740952,2.03719,41,0.0853151,10,0.00150946,-2.69097,0.143213,0.411974,0.737305,
2,1,0,1,0,14978.7,0.744984,0.744741,2.16168,41,0.0869141,10,0.00160989,-2.66521,0.137753,0.428304,0.740871,
2,1,0,0,0,14979.5,0.748785,0.748587,2.29195,41,0.0886102,10,0.00171572,-2.6398,0.147406,0.400256,0.744484,
2,1,0,1,0,14980.2,0.752586,0.752338,2.42422,41,0.0904058,10,0.00182383,-2.61543,0.147324,0.400478,0.747998,
2,1,0,0,0,14981,0.756387,0.756098,2.56049,41,0.0923033,10,0.00193598,-2.59168,0.160332,0.367985,0.751514,
2,1,0,1,0,14981.8,0.760188,0.759982,2.70213,41,0.0943064,10,0.00205357,-2.56829,0.153773,0.383683,0.755145,
2,1,0,0,0,14982.5,0.763989,0.763771,2.84875,41,0.0964193,10,0.00217579,-2.54535,0.140232,0.420732,0.758672,
2,1,0,1,0,14983.3,0.76779,0.767655,2.99639,41,0.0986442,10,0.0023002,-2.5234,0.172165,0.342694,0.762292,
2,1,0,0,0,14984,0.771592,0.771387,3.15051,41,0.100984,10,0.00243026,-2.50162,0.166526,0.3543,0.765747,
2,1,0,1,0,14984.8,0.775393,0.775137,3.31101,41,0.103443,10,0.00256649,-2.48004,0.162661,0.362717,0.769211,
2,1,0,0,0,14985.6,0.779194,0.778936,3.47446,41,0.106026,10,0.00270638,-2.45911,0.174908,0.33732,0.772716,
2,1,0,0,0,14986.3,0.782995,0.78281,3.64281,41,0.108735,10,0.00285163,-2.43856,0.167847,0.351511,0.77629,
2,1,0,1,0,14987.1,0.786796,0.786666,3.81728,41,0.111573,10,0.00300293,-2.41825,0.180253,0.327317,0.779833,
2,1,0,0,0,14987.8,0.790597,0.790474,3.99601,41,0.114546,10,0.00315875,-2.39837,0.18584,0.317477,0.783321,
2,1,0,1,0,14988.6,0.794398,0.794225,4.18009,41,0.117657,10,0.00331993,-2.37881,0.183258,0.32195,0.786742,
2,1,0,0,0,14989.4,0.798199,0.798013,4.37101,41,0.120909,10,0.00348812,-2.35942,0.177835,0.331767,0.790189,
2,1,0,1,0,14990.1,0.802,0.801831,4.56575,41,0.124309,10,0.00366096,-2.34049,0.192933,0.305806,0.793658,
2,1,0,0,0,14990.9,0.805801,0.805639,4.76557,41,0.127859,10,0.00383933,-2.32188,0.188954,0.312245,0.797108,
2,1,0,1,0,14991.6,0.809602,0.809447,4.97495,41,0.131564,10,0.00402696,-2.30321,0.183506,0.321516,0.800542,
2,1,0,0,0,14992.4,0.813403,0.813178,5.1891,41,0.13543,10,0.00421966,-2.28491,0.175789,0.335629,0.80389,
2,1,0,1,0,14993.2,0.817205,0.817082,5.40931,41,0.139461,10,0.00441985,-2.26686,0.193939,0.304219,0.807399,
2,1,0,0,0,14993.9,0.821006,0.820813,5.63175,41,0.143659,10,0.00462262,-2.24936,0.198895,0.296638,0.810732,
2,1,0,1,0,14994.7,0.824807,0.824631,5.86541,41,0.148033,10,0.0048368,-2.2317,0.190185,0.310224,0.814132,
2,1,0,1,0,14995.4,0.828608,0.82842,6.10308,41,0.152586,10,0.00505591,-2.21445,0.191855,0.307523,0.817495,
2,1,0,0,0,14996.2,0.832409,0.832304,6.34797,41,0.157321,10,0.00528344,-2.19737,0.200413,0.294393,0.820941,
2,1,0,1,0,14997,0.83621,0.836055,6.59583,41,0.162244,10,0.00551447,-2.18073,0.202312,0.291629,0.824248,
2,1,0,0,0,14997.7,0.840011,0.83991,6.85204,41,0.16736,10,0.0057551,-2.16418,0.189168,0.311891,0.827645,
2,1,0,1,0,14998.5,0.843812,0.843527,7.11008,41,0.17267,10,0.00599755,-2.14813,0.21701,0.271877,0.8308,
2,1,0,0,0,14999.3,0.847613,0.84744,7.37815,41,0.178179,10,0.00625254,-2.13205,0.199244,0.29612,0.834233,
2,1,0,0,0,15000,0.848613,0.848471,7.38779,41,0.183707,10,0.00626832,-2.13149,0.114935,0.513334,0.835247,
2,1,0,1,0,15000.8,0.844812,0.84472,6.98843,41,0.189164,10,0.00590327,-2.15562,0.127603,0.46237,0.832211,
2,1,0,0,0,15001.5,0.841011,0.840836,6.62528,41,0.194333,10,0.00557077,-2.1788,0.144157,0.409277,0.828977,
2,1,0,1,0,15002.3,0.83721,0.83698,6.2884,41,0.199235,10,0.00526327,-2.20146,0.140871,0.418823,0.825724,
2,1,0,0,0,15003,0.833409,0.833153,5.96964,41,0.203889,10,0.00497362,-2.22405,0.153307,0.384849,0.822467,
2,1,0,1,0,15003.8,0.829608,0.829498,5.67444,41,0.208311,10,0.00470693,-2.24608,0.145639,0.405112,0.819341,
2,1,0,0,0,15004.6,0.825807,0.825623,5.39285,41,0.212512,10,0.00445246,-2.26818,0.173443,0.340169,0.81597,
2,1,0,1,0,15005.3,0.822006,0.821901,5.12154,41,0.216504,10,0.0042094,-2.2906,0.152197,0.387657,0.812734,
2,1,0,0,0,15006.1,0.818205,0.817921,4.87032,41,0.220298,10,0.00398354,-2.31244,0.149847,0.393736,0.809204,
2,1,0,0,0,15006.8,0.814404,0.8142,4.62774,41,0.223905,10,0.0037679,-2.33463,0.162037,0.364114,0.805916,
2,1,0,1,0,15007.6,0.810603,0.810344,4.39445,41,0.227331,10,0.00356102,-2.3571,0.170121,0.346812,0.802478,
2,1,0,0,0,15008.4,0.806802,0.806584,4.17382,41,0.230584,10,0.00336653,-2.37947,0.153654,0.38398,0.799113,
2,1,0,1,0,15009.1,0.803,0.802814,3.96131,41,0.233672,10,0.00318019,-2.40216,0.149817,0.393813,0.795723,
2,1,0,0,0,15009.9,0.799199,0.798958,3.75721,41,0.236602,10,0.00300185,-2.42513,0.146804,0.401895,0.792233,
2,1,0,1,0,15010.6,0.795398,0.795198,3.56277,41,0.239381,10,0.00283311,-2.44821,0.123923,0.476101,0.788821,
2,1,0,0,0,15011.4,0.791597,0.791409,3.37858,41,0.242015,10,0.00267384,-2.47127,0.143556,0.410989,0.785362,
2,1,0,1,0,15012.2,0.787796,0.787487,3.1997,41,0.244512,10,0.00251972,-2.49489,0.145757,0.404783,0.781759,
2,1,0,0,0,15012.9,0.783995,0.783793,3.0276,41,0.246876,10,0.00237302,-2.5189,0.151141,0.390365,0.778374,
2,1,0,1,0,15013.7,0.780194,0.780052,2.86542,41,0.249112,10,0.00223518,-2.54281,0.148222,0.398051,0.774923,
2,1,0,0,0,15014.4,0.776393,0.776197,2.70627,41,0.251226,10,0.00210059,-2.56763,0.13648,0.432298,0.771352,
2,1,0,1,0,15015.2,0.772592,0.772475,2.55431,41,0.253222,10,0.00197314,-2.59273,0.131525,0.448582,0.767902,
2,1,0,1,0,15016,0.768791,0.768533,2.40875,41,0.255106,10,0.0018512,-2.61821,0.14539,0.405804,0.764221,
2,1,0,0,0,15016.7,0.76499,0.764735,2.26897,41,0.25688,10,0.00173516,-2.64417,0.145068,0.406707,0.760673,
2,1,0,1,0,15017.5,0.761189,0.760965,2.13373,41,0.25855,10,0.00162369,-2.67086,0.131134,0.44992,0.757146,
2,1,0,0,0,15018.2,0.757387,0.757167,2.00524,41,0.260119,10,0.0015183,-2.69783,0.131525,0.448585,0.753577,
2,1,0,1,0,15019,0.753586,0.753406,1.87958,41,0.261592,10,0.00141609,-2.72594,0.12802,0.460866,0.750042,
2,1,0,0,0,15019.8,0.749785,0.749627,1.75955,41,0.262972,10,0.00131901,-2.7546,0.112598,0.523989,0.746478,
2,1,0,1,0,15020.5,0.745984,0.745838,1.64344,41,0.264262,10,0.00122574,-2.78425,0.124515,0.473839,0.742896,
2,1,0,0,0,15021.3,0.742183,0.741983,1.53402,41,0.265466,10,0.00113822,-2.81417,0.125138,0.471478,0.739237,
2,1,0,1,0,15022,0.738382,0.738213,1.42876,41,0.266589,10,0.00105473,-2.84504,0.116846,0.504939,0.735655,
2,1,0,0,0,15022.8,0.734581,0.734405,1.32762,41,0.267633,10,0.000975012,-2.87693,0.125392,0.470526,0.732028,
2,1,0,1,0,15023.6,0.73078,0.730578,1.23011,41,0.268602,10,0.000898689,-2.91006,0.109743,0.537621,0.728376,
2,1,0,0,0,15024.3,0.726979,0.72678,1.1393,41,0.2695,10,0.000828018,-2.94336,0.0986167,0.598276,0.72474,
2,1,0,0,0,15025.1,0.723178,0.722981,1.05096,41,0.270329,10,0.000759824,-2.97841,0.110327,0.534772,0.7211,
2,1,0,1,0,15025.8,0.719377,0.719116,0.967056,41,0.271093,10,0.000695425,-3.01455,0.10403,0.567146,0.717385,
2,1,0,0,0,15026.6,0.715576,0.715423,0.887065,41,0.271794,10,0.000634627,-3.05204,0.0989487,0.596269,0.713835,
2,1,0,1,0,15027.4,0.711774,0.711491,0.813623,41,0.272438,10,0.000578885,-3.08958,0.0872936,0.67588,0.710034,
2,1,0,0,0,15028.1,0.707973,0.707711,0.740233,41,0.273025,10,0.000523871,-3.13063,0.0919684,0.641525,0.706386,
2,1,0,1,0,15028.9,0.704172,0.703913,0.674806,41,0.27356,10,0.000475005,-3.17082,0.088291,0.668245,0.702705,
2,1,0,0,0,15029.6,0.700371,0.700277,0.610898,41,0.274046,10,0.000427797,-3.21403,0.0787718,0.748999,0.699183,
2,1,0,1,0,15030.4,0.69657,0.696364,0.552058,41,0.274485,10,0.000384433,-3.25802,0.0841461,0.701161,0.695376,
2,1,0,0,0,15031.2,0.692769,0.692594,0.497308,41,0.274881,10,0.000344432,-3.30337,0.084032,0.702113,0.691704,
2,1,0,1,0,15031.9,0.688968,0.6887,0.445906,41,0.275237,10,0.000307096,-3.35076,0.0669171,0.881688,0.687902,
2,1,0,0,0,15032.7,0.685167,0.684883,0.397782,41,0.275555,10,0.000272434,-3.40036,0.0782783,0.753721,0.684171,
2,1,0,1,0,15033.4,0.681366,0.681104,0.351877,41,0.275837,10,0.000239665,-3.45361,0.0693957,0.850197,0.680474,
2,1,0,1,0,15034.2,0.677565,0.677305,0.31044,41,0.276086,10,0.000210263,-3.50802,0.0667437,0.883979,0.67675,
2,1,0,0,0,15035,0.673764,0.673574,0.271549,41,0.276305,10,0.000182908,-3.56615,0.0620951,0.950156,0.673088,
2,1,0,1,0,15035.7,0.669963,0.669794,0.234523,41,0.276494,10,0.000157082,-3.62982,0.0541138,1.09029,0.669375,
2,1,0,0,0,15036.5,0.666161,0.666006,0.20167,41,0.276657,10,0.000134313,-3.69536,0.0527239,1.11904,0.665645,
2,1,0,1,0,15037.2,0.66236,0.66214,0.170173,41,0.276796,10,0.000112678,-3.76911,0.045329,1.30159,0.661836,
2,1,0,0,0,15038,0.658559,0.658323,0.141519,41,0.276912,10,9.31653e-05,-3.84918,0.0421312,1.40039,0.65807,
2,1,0,1,0,15038.8,0.654758,0.654534,0.11343,41,0.277006,10,7.42438e-05,-3.94527,0.0371307,1.58898,0.654331,
2,1,0,0,0,15039.5,0.650957,0.650745,0.0894295,41,0.27708,10,5.81958e-05,-4.04852,0.0324447,1.81848,0.650585,
2,1,0,1,0,15040.3,0.647156,0.646937,0.0656303,41,0.277136,10,4.24587e-05,-4.1829,0.0260861,2.26174,0.64682,
2,1,0,0,0,15041,0.643355,0.643158,0.0429019,41,0.277175,10,2.75927e-05,-4.36752,0.0184418,3.19926,0.643081,
2,1,0,1,0,15041.8,0.639554,0.639407,0.022458,41,0.277197,10,1.43598e-05,-4.64863,0.0103249,5.71435,0.639367,
2,1,0,0,0,15042.6,0.635753,0.635485,0.00400008,41,0.277205,10,2.54199e-06,-5.39793,0.00128272,45.9962,0.635478,
2,0,0,0,0,15043.3,0.631952,0.631734,-0.0134582,41,0.277199,10,-8.50201e-06,-4.87101,-0.00642766,-9.17908,0.631758,
2,0,0,1,0,15044.1,0.628151,0.627936,-0.0306182,41,0.277179,10,-1.92263e-05,-4.51402,-0.0159664,-3.69526,0.627991,
2,0,0,0,0,15044.8,0.62435,0.624185,-0.0442799,41,0.277149,10,-2.76389e-05,-4.35379,-0.0262886,-2.24432,0.624264,
2,0,0,1,0,15045.6,0.620548,0.620368,-0.0599146,41,0.277106,10,-3.71691e-05,-4.22247,-0.0396702,-1.48726,0.620475,
2,0,0,0,0,15046.4,0.616747,0.61655,-0.0731545,41,0.277053,10,-4.51034e-05,-4.13576,-0.0477723,-1.23502,0.616681,
2,0,0,1,0,15047.1,0.612946,0.612752,-0.0861607,41,0.276989,10,-5.27951e-05,-4.06469,-0.0750818,-0.78581,0.612906,
2,0,0,0,0,15047.9,0.609145,0.609001,-0.0988359,41,0.276916,10,-6.01912e-05,-4.00509,-0.0686144,-0.859878,0.609178,
2,0,0,1,0,15048.6,0.605344,0.605203,-0.110843,41,0.276834,10,-6.70823e-05,-3.95529,-0.0924491,-0.638189,0.605401,
2,0,0,0,0,15049.4,0.601543,0.601271,-0.121363,41,0.276743,10,-7.29721e-05,-3.91591,-0.114562,-0.515006,0.601488,
2,0,0,1,0,15050.2,0.597742,0.597578,-0.131637,41,0.276645,10,-7.86633e-05,-3.88062,-0.115219,-0.512068,0.597813,
2,0,0,0,0,15050.9,0.593941,0.593665,-0.140288,41,0.276539,10,-8.32842e-05,-3.85298,-0.137178,-0.430098,0.593916,
2,0,0,1,0,15051.7,0.59014,0.589914,-0.148764,41,0.276427,10,-8.77582e-05,-3.8275,-0.197124,-0.299304,0.59018,
2,0,0,1,0,15052.4,0.586339,0.586163,-0.156139,41,0.276308,10,-9.15229e-05,-3.80649,-0.201949,-0.292153,0.586443,
2,0,0,0,0,15053.2,0.582538,0.582317,-0.162452,41,0.276184,10,-9.45986e-05,-3.78927,-0.276284,-0.213548,0.582608,
2,0,0,1,0,15054,0.578737,0.578595,-0.170662,41,0.276055,10,-9.87442e-05,-3.76786,-0.253556,-0.232691,0.578901,
2,0,0,0,0,15054.7,0.574936,0.574701,-0.176211,41,0.275921,10,-0.000101269,-3.75397,-0.220063,-0.268105,0.575017,
2,0,0,1,0,15055.5,0.571134,0.570884,-0.181806,41,0.275782,10,-0.00010379,-3.74039,-0.271446,-0.217355,0.571209,
2,0,0,0,0,15056.2,0.567333,0.567095,-0.186615,41,0.27564,10,-0.000105828,-3.72905,-0.51049,-0.115575,0.567429,
2,0,0,1,0,15057,0.563532,0.563392,-0.191281,41,0.275493,10,-0.000107766,-3.71833,-0.375493,-0.157127,0.563734,
2,0,0,0,0,15057.8,0.559731,0.55946,-0.193488,41,0.275345,10,-0.000108249,-3.71335,-0.290433,-0.203145,0.559806,
2,0,0,1,0,15058.5,0.55593,0.555709,-0.198466,41,0.275193,10,-0.000110289,-3.70231,-0.4422,-0.133424,0.556065,
2,0,0,0,0,15059.3,0.552129,0.551987,-0.20125,41,0.275038,10,-0.000111087,-3.69626,-0.360737,-0.163554,0.552348,
2,0,0,1,0,15060,0.548328,0.54817,-0.203645,41,0.274881,10,-0.000111632,-3.69113,-1.55038,-0.0380551,0.548534,
2,0,0,0,0,15060.8,0.544527,0.544295,-0.207636,41,0.274721,10,-0.000113015,-3.6827,-0.835349,-0.0706291,0.544667,
2,0,0,1,0,15061.6,0.540726,0.540497,-0.210059,41,0.274559,10,-0.000113536,-3.67766,-0.395258,-0.149269,0.540873,
2,0,0,1,0,15062.3,0.536925,0.536622,-0.213081,41,0.274395,10,-0.000114344,-3.67145,-0.563253,-0.104749,0.537004,
2,0,0,0,0,15063.1,0.533124,0.53291,-0.213977,41,0.27423,10,-0.00011403,-3.66963,-0.944728,-0.0624518,0.533293,
2,0,0,1,0,15063.8,0.529323,0.529188,-0.217066,41,0.274062,10,-0.000114869,-3.66341,-4.38445,-0.0134567,0.529576,
2,0,0,0,0,15064.6,0.525521,0.525351,-0.218669,41,0.273894,10,-0.000114878,-3.66021,-3.7574,-0.0157024,0.525743,
2,0,0,1,0,15065.4,0.52172,0.521572,-0.220195,41,0.273724,10,-0.000114847,-3.65719,-0.594318,-0.0992734,0.521966,
2,0,0,0,0,15066.1,0.517919,0.517716,-0.2217,41,0.273552,10,-0.000114778,-3.65423,-0.773823,-0.0762449,0.518113,
2,0,0,1,0,15066.9,0.514118,0.513899,-0.223615,41,0.273379,10,-0.000114915,-3.6505,14.633,0.00403197,0.514299,
2,0,0,0,0,15067.7,0.510317,0.510119,-0.224238,41,0.273205,10,-0.000114388,-3.64929,-2.55052,-0.0231326,0.510521,
2,0,0,1,0,15068.4,0.506516,0.506206,-0.226698,41,0.27303,10,-0.000114756,-3.64455,-0.667755,-0.0883558,0.506612,
2,0,0,0,0,15069.2,0.502715,0.502484,-0.228236,41,0.272854,10,-0.000114685,-3.64162,-1.30129,-0.0453398,0.502893,
2,0,0,1,0,15069.9,0.498914,0.498629,-0.229378,41,0.272677,10,-0.000114375,-3.63945,-1.48205,-0.0398096,0.499039,
2,0,0,1,0,15070.7,0.495113,0.49483,-0.229825,41,0.272498,10,-0.000113724,-3.6386,-2.3534,-0.0250701,0.495242,
2,0,0,0,0,15071.5,0.491312,0.491042,-0.23141,41,0.272319,10,-0.000113632,-3.63562,-0.421979,-0.139817,0.491456,
2,0,0,1,0,15072.2,0.487511,0.487186,-0.233149,41,0.272138,10,-0.000113587,-3.63237,-0.771602,-0.0764643,0.487603,
2,0,0,0,0,15073,0.48371,0.483464,-0.233876,41,0.271956,10,-0.000113071,-3.63101,-0.752748,-0.0783795,0.483883,
2,0,0,1,0,15073.7,0.479908,0.479713,-0.2357,41,0.271773,10,-0.000113068,-3.62764,-11.0521,-0.00533837,0.480135,
2,0,0,0,0,15074.5,0.476107,0.475924,-0.237958,41,0.271589,10,-0.00011325,-3.6235,-1.2414,-0.047527,0.47635,
2,0,0,1,0,15075.3,0.472306,0.472088,-0.239243,41,0.271403,10,-0.000112944,-3.62116,-48.1614,-0.00122505,0.472516,
2,0,0,0,0,15076,0.468505,0.468299,-0.241288,41,0.271217,10,-0.000112995,-3.61747,-0.98937,-0.0596339,0.468731,
2,0,0,1,0,15076.8,0.464704,0.464472,-0.24304,41,0.271029,10,-0.000112885,-3.61432,-0.513252,-0.114953,0.464907,
2,0,0,0,0,15077.5,0.460903,0.460683,-0.245071,41,0.270839,10,-0.0001129,-3.61071,-1.34643,-0.0438196,0.461122,
2,0,0,1,0,15078.3,0.457102,0.456866,-0.246668,41,0.270648,10,-0.000112694,-3.60789,-0.558579,-0.105625,0.457307,
2,0,0,0,0,15079.1,0.453301,0.453191,-0.248505,41,0.270456,10,-0.00011262,-3.60467,-1.13299,-0.0520748,0.453636,
2,0,0,1,0,15079.8,0.4495,0.449279,-0.251255,41,0.270262,10,-0.000112884,-3.59988,-1.8147,-0.0325122,0.449728,
2,0,0,1,0,15080.6,0.445699,0.445432,-0.252035,41,0.270066,10,-0.000112265,-3.59854,-2.02422,-0.029147,0.445884,
2,0,0,0,0,15081.3,0.441898,0.441682,-0.254476,41,0.26987,10,-0.000112397,-3.59435,-28.6903,-0.00205644,0.442137,
2,0,0,1,0,15082.1,0.438096,0.437864,-0.256916,41,0.269671,10,-0.000112494,-3.59021,-1.00765,-0.0585522,0.438324,
2,0,0,0,0,15082.9,0.434295,0.434028,-0.26031,41,0.269471,10,-0.000112982,-3.58451,-0.900256,-0.0655369,0.434494,
2,0,0,1,0,15083.6,0.430494,0.430306,-0.261926,41,0.269269,10,-0.000112708,-3.58182,-0.709916,-0.0831084,0.430775,
2,0,0,0,0,15084.4,0.426693,0.426498,-0.265243,41,0.269065,10,-0.000113125,-3.57636,-0.844114,-0.0698958,0.426973,
2,0,0,1,0,15085.1,0.422892,0.422642,-0.267216,41,0.268859,10,-0.000112937,-3.57314,-0.487546,-0.121014,0.42312,
2,0,0,0,0,15085.9,0.419091,0.418796,-0.270513,41,0.268651,10,-0.00011329,-3.56781,-1.1107,-0.0531195,0.41928,
2,0,0,1,0,15086.7,0.41529,0.415131,-0.273998,41,0.268441,10,-0.000113745,-3.56225,-0.802529,-0.0735176,0.415622,
2,0,0,0,0,15087.4,0.411489,0.411238,-0.276367,41,0.268228,10,-0.000113652,-3.55851,-2.59125,-0.022769,0.411732,
2,0,0,1,0,15088.2,0.407688,0.40742,-0.278943,41,0.268013,10,-0.000113647,-3.55448,-0.730885,-0.080724,0.407919,
2,0,0,1,0,15088.9,0.403887,0.403688,-0.282233,41,0.267796,10,-0.000113934,-3.54939,-0.831803,-0.0709303,0.404194,
2,0,0,0,0,15089.7,0.400086,0.399814,-0.284629,41,0.267577,10,-0.000113798,-3.54572,-0.47421,-0.124417,0.400323,
2,0,0,1,0,15090.5,0.396285,0.396082,-0.288607,41,0.267356,10,-0.000114312,-3.53969,-0.596612,-0.0988917,0.396599,
2,0,0,0,0,15091.2,0.392484,0.392303,-0.290535,41,0.267133,10,-0.000113978,-3.5368,-1.14814,-0.0513876,0.392823,
2,0,0,1,0,15092,0.388682,0.388409,-0.293364,41,0.266907,10,-0.000113945,-3.53259,-0.545206,-0.108216,0.388934,
2,0,0,0,0,15092.7,0.384881,0.384658,-0.297297,41,0.266679,10,-0.000114358,-3.52681,-0.876714,-0.0672967,0.385191,
2,0,0,1,0,15093.5,0.38108,0.380927,-0.299893,41,0.266448,10,-0.000114237,-3.52303,-0.808623,-0.0729635,0.381464,
2,0,0,0,0,15094.3,0.377279,0.377014,-0.304209,41,0.266214,10,-0.000114691,-3.51683,-1.41325,-0.0417477,0.377558,
2,0,0,1,0,15095,0.373478,0.373244,-0.306987,41,0.265978,10,-0.000114581,-3.51288,-0.874845,-0.0674405,0.373794,
2,0,0,0,0,15095.8,0.369677,0.369513,-0.310394,41,0.265739,10,-0.000114695,-3.50809,-1.91104,-0.0308733,0.370068,
2,0,0,1,0,15096.5,0.365876,0.365609,-0.314113,41,0.265497,10,-0.000114843,-3.50291,-0.930914,-0.0633785,0.366172,
2,0,0,0,0,15097.3,0.362075,0.361716,-0.316683,41,0.265253,10,-0.000114549,-3.49937,-0.404314,-0.145926,0.362282,
2,0,0,1,0,15098.1,0.358274,0.358003,-0.320721,41,0.265005,10,-0.000114819,-3.49387,-0.97199,-0.0607002,0.358577,
2,0,0,1,0,15098.8,0.354473,0.35431,-0.323874,41,0.264755,10,-0.000114752,-3.48962,-0.718578,-0.0821066,0.354889,
2,0,0,0,0,15099.6,0.350672,0.350444,-0.328547,41,0.264502,10,-0.000115138,-3.4834,-0.348152,-0.169466,0.351033,
2,0,0,1,0,15100.3,0.346871,0.346646,-0.332727,41,0.264245,10,-0.000115338,-3.47791,-0.943757,-0.0625161,0.347242,
2,0,0,0,0,15101.1,0.343069,0.342752,-0.335914,41,0.263985,10,-0.000115135,-3.47377,-1.16027,-0.05085,0.343354,
2,0,0,1,0,15101.9,0.339268,0.339011,-0.340262,41,0.263722,10,-0.000115353,-3.46819,-0.605743,-0.0974011,0.33962,
2,0,0,0,0,15102.6,0.335467,0.335117,-0.345843,41,0.263456,10,-0.000115898,-3.46112,-2.11312,-0.0279209,0.335736,
2,0,0,1,0,15103.4,0.331666,0.331424,-0.3489,41,0.263187,10,-0.000115634,-3.4573,-0.760208,-0.0776104,0.332048,
2,0,0,0,0,15104.1,0.327865,0.327664,-0.35223,41,0.262915,10,-0.000115413,-3.45317,-1.17091,-0.050388,0.328294,
2,0,0,1,0,15104.9,0.324064,0.323779,-0.357026,41,0.26264,10,-0.000115598,-3.4473,-1.12425,-0.0524793,0.324419,
2,0,0,0,0,15105.7,0.320263,0.319962,-0.360557,41,0.262362,10,-0.000115364,-3.44303,-0.935057,-0.0630977,0.320607,
2,0,0,1,0,15106.4,0.316462,0.31624,-0.364931,41,0.262081,10,-0.000115406,-3.43779,-0.670585,-0.0879829,0.316893,
2,0,0,1,0,15107.2,0.312661,0.312489,-0.368801,41,0.261796,10,-0.000115246,-3.43321,-0.5226,-0.112897,0.313149,
2,0,0,0,0,15107.9,0.30886,0.308634,-0.373563,41,0.261509,10,-0.000115294,-3.42764,-0.863181,-0.0683519,0.309302,
2,0,0,1,0,15108.7,0.305059,0.304788,-0.377249,41,0.261218,10,-0.000114981,-3.42337,-0.967878,-0.0609581,0.305463,
2,0,0,0,0,15109.5,0.301258,0.30097,-0.381792,41,0.260924,10,-0.000114908,-3.41817,-1.52701,-0.0386376,0.301653,
2,0,0,1,0,15110.2,0.297456,0.297305,-0.384875,41,0.260628,10,-0.000114425,-3.41468,-0.65133,-0.0905839,0.297994,
2,0,0,0,0,15111,0.293655,0.293392,-0.389418,41,0.260328,10,-0.000114252,-3.40958,-0.843439,-0.0699517,0.294089,
2,0,0,1,0,15111.7,0.289854,0.289756,-0.393364,41,0.260025,10,-0.00011398,-3.40521,-5.07871,-0.0116171,0.29046,
2,0,0,0,0,15112.5,0.286053,0.285777,-0.397375,41,0.259719,10,-0.00011356,-3.4008,-0.596207,-0.098959,0.286488,
2,0,0,1,0,15113.3,0.282252,0.281969,-0.402035,41,0.259409,10,-0.000113361,-3.39574,-1.58839,-0.0371445,0.282688,
2,0,0,0,0,15114,0.278451,0.278228,-0.405235,41,0.259097,10,-0.000112747,-3.39229,-0.450081,-0.131087,0.278953,
2,0,0,1,0,15114.8,0.27465,0.274296,-0.411186,41,0.258781,10,-0.000112786,-3.38596,-3.72799,-0.0158262,0.275032,
2,0,0,0,0,15115.5,0.270849,0.270612,-0.415541,41,0.258462,10,-0.00011245,-3.38139,-1.30942,-0.0450582,0.271356,
2,0,0,1,0,15116.3,0.267048,0.26688,-0.419057,41,0.25814,10,-0.000111838,-3.37773,-1.42608,-0.0413721,0.26763,
2,0,0,1,0,15117.1,0.263247,0.263015,-0.423491,41,0.257814,10,-0.000111385,-3.37316,-0.854234,-0.0690677,0.263773,
2,0,0,0,0,15117.8,0.259446,0.259283,-0.429624,41,0.257486,10,-0.000111394,-3.36691,-0.687928,-0.0857647,0.260052,
2,0,0,1,0,15118.6,0.255645,0.255399,-0.432311,41,0.257153,10,-0.000110412,-3.3642,-0.697044,-0.0846431,0.256173,
2,0,0,0,0,15119.3,0.251843,0.251591,-0.438607,41,0.256817,10,-0.00011035,-3.35792,-0.694255,-0.0849832,0.252376,
2,0,0,1,0,15120.1,0.248042,0.247793,-0.443922,41,0.256477,10,-0.000110001,-3.35269,-0.515405,-0.114473,0.248587,
2,0,0,0,0,15120.9,0.244241,0.243956,-0.449315,41,0.256132,10,-0.000109613,-3.34745,-0.547644,-0.107734,0.244761,
2,0,0,1,0,15121.6,0.24044,0.240272,-0.454138,41,0.255784,10,-0.000109117,-3.34281,-0.808339,-0.0729892,0.241085,
2,0,0,0,0,15122.4,0.236639,0.236522,-0.460757,41,0.255431,10,-0.000108979,-3.33653,-0.742855,-0.0794233,0.237347,
2,0,0,1,0,15123.1,0.232838,0.23259,-0.468351,41,0.255073,10,-0.000108934,-3.32943,-0.696728,-0.0846815,0.233428,
2,0,0,0,0,15123.9,0.229037,0.228782,-0.474659,41,0.254709,10,-0.000108593,-3.32362,-1.88162,-0.0313559,0.229631,
2,0,0,1,0,15124.7,0.225236,0.224983,-0.482934,41,0.254341,10,-0.000108652,-3.31611,-0.473882,-0.124504,0.225848,
2,0,0,1,0,15125.4,0.221435,0.221261,-0.491647,41,0.253966,10,-0.000108782,-3.30835,-0.358058,-0.164778,0.222141,
2,0,0,0,0,15126.2,0.217634,0.217349,-0.499919,41,0.253584,10,-0.000108657,-3.3011,-0.534062,-0.110474,0.218243,
2,0,0,1,0,15126.9,0.213833,0.213636,-0.509063,41,0.253196,10,-0.000108754,-3.29323,-0.416702,-0.141588,0.214547,
2,0,0,0,0,15127.7,0.210032,0.209799,-0.520227,41,0.252801,10,-0.000109143,-3.28381,-0.334518,-0.176373,0.210731,
2,0,0,1,0,15128.5,0.20623,0.206087,-0.531857,41,0.252396,10,-0.000109609,-3.27421,-0.370356,-0.159306,0.207039,
2,0,0,0,0,15129.2,0.202429,0.202165,-0.543825,41,0.251982,10,-0.000109942,-3.26454,-0.327053,-0.180399,0.203138,
2,0,0,1,0,15130,0.198628,0.198462,-0.560666,41,0.251557,10,-0.000111271,-3.2513,-0.268652,-0.219615,0.199465,
2,0,0,0,0,15130.7,0.194827,0.194596,-0.578041,41,0.251119,10,-0.000112485,-3.23804,-0.260176,-0.226769,0.195631,
2,0,0,1,0,15131.5,0.191026,0.19075,-0.599484,41,0.250667,10,-0.000114352,-3.22222,-0.262616,-0.224663,0.191823,
2,0,0,0,0,15132.3,0.187225,0.187009,-0.621764,41,0.250198,10,-0.000116276,-3.20637,-0.209611,-0.281474,0.188122,
2,0,0,1,0,15133,0.183424,0.183192,-0.648192,41,0.249711,10,-0.000118743,-3.1883,-0.188697,-0.31267,0.184352,
2,0,0,0,0,15133.8,0.179623,0.179422,-0.67817,41,0.249202,10,-0.000121679,-3.16866,-0.183791,-0.321017,0.180636,
2,0,0,1,0,15134.5,0.175822,0.175557,-0.714211,41,0.248668,10,-0.000125385,-3.14617,-0.146338,-0.403177,0.176835,
2,0,0,1,0,15135.3,0.172021,0.171682,-0.758901,41,0.248102,10,-0.00013029,-3.11982,-0.151351,-0.389823,0.173041,
2,0,0,0,0,15136.1,0.16822,0.168027,-0.808544,41,0.247502,10,-0.000135857,-3.0923,-0.124574,-0.473614,0.169474,
2,0,0,1,0,15136.8,0.164419,0.164171,-0.866546,41,0.24686,10,-0.000142262,-3.06221,-0.125328,-0.470764,0.165722,
2,0,0,0,0,15137.6,0.160617,0.160373,-0.930532,41,0.246173,10,-0.000149232,-3.03127,-0.120711,-0.488772,0.162039,
2,0,0,1,0,15138.4,0.156816,0.156575,-1.00018,41,0.245433,10,-0.000156602,-2.99992,-0.110438,-0.534236,0.158365,
2,0,0,0,0,15139.1,0.153015,0.152719,-1.07407,41,0.244639,10,-0.000164031,-2.96897,-0.122068,-0.483338,0.154641,
2,0,0,1,0,15139.9,0.149214,0.148968,-1.14769,41,0.243788,10,-0.00017097,-2.94017,-0.11983,-0.492366,0.151023,
2,0,0,0,0,15140.6,0.145413,0.14517,-1.22397,41,0.24288,10,-0.000177683,-2.91223,-0.123661,-0.477109,0.147361,
2,0,0,1,0,15141.4,0.141612,0.141305,-1.29579,41,0.241916,10,-0.000183101,-2.88747,-0.159126,-0.370776,0.143624,
2,0,0,0,0,15142.2,0.137811,0.137544,-1.35791,41,0.2409,10,-0.000186773,-2.86713,-0.177377,-0.332625,0.139975,
2,0,0,1,0,15142.9,0.13401,0.133851,-1.41349,41,0.23984,10,-0.000189198,-2.84971,-0.23959,-0.246254,0.136381,
2,0,0,1,0,15143.7,0.130209,0.130005,-1.45977,41,0.23874,10,-0.000189777,-2.83572,-0.358298,-0.164667,0.132618,
2,0,0,0,0,15144.4,0.126408,0.126178,-1.48962,41,0.237612,10,-0.000187957,-2.82693,-0.711003,-0.0829814,0.128844,
2,0,0,1,0,15145.2,0.122607,0.122351,-1.50671,41,0.236467,10,-0.000184348,-2.82197,-1.1721,-0.0503369,0.125048,
2,0,0,0,0,15146,0.118806,0.118553,-1.50939,41,0.235314,10,-0.000178942,-2.8212,4.1464,0.0142292,0.121254,
2,0,0,1,0,15146.7,0.115004,0.114678,-1.49888,41,0.234164,10,-0.000171888,-2.82423,0.937925,0.0629048,0.117361,
2,0,0,0,0,15147.5,0.111203,0.110937,-1.48047,41,0.233024,10,-0.000164239,-2.8296,0.59729,0.0987795,0.113587,
2,0,0,1,0,15148.2,0.107402,0.107119,-1.45276,41,0.231903,10,-0.000155619,-2.83781,0.51846,0.113799,0.10972,
2,0,0,0,0,15149,0.103601,0.103311,-1.41876,41,0.230805,10,-0.000146574,-2.84809,0.310941,0.189747,0.105851,
2,0,0,1,0,15149.8,0.0998002,0.0996179,-1.37788,41,0.229736,10,-0.000137262,-2.86079,0.270155,0.218393,0.102084,
2,0,0,0,0,15150.5,0.0959991,0.0957623,-1.33557,41,0.228698,10,-0.000127898,-2.87433,0.239638,0.246204,0.098153,
2,0,0,1,0,15151.3,0.092198,0.091983,-1.2864,41,0.227696,10,-0.000118327,-2.89062,0.225582,0.261546,0.0942857,
2,0,0,0,0,15152,0.0883969,0.088261,-1.23925,41,0.22673,10,-0.000109378,-2.90684,0.226894,0.260034,0.0904793,
2,0,0,1,0,15152.8,0.0845958,0.0843958,-1.18959,41,0.225802,10,-0.000100396,-2.9246,0.216137,0.272975,0.0865252,
2,0,0,1,0,15153.6,0.0807947,0.0805592,-1.14347,41,0.22491,10,-9.21173e-05,-2.94177,0.243636,0.242164,0.0826061,
2,0,0,0,0,15154.3,0.0769937,0.0766559,-1.09813,41,0.224052,10,-8.41784e-05,-2.95935,0.226205,0.260825,0.0786215,
2,0,0,1,0,15155.1,0.0731926,0.0729434,-1.05784,41,0.223227,10,-7.71621e-05,-2.97558,0.244339,0.241468,0.0748369,
2,0,0,0,0,15155.8,0.0693915,0.0691546,-1.02291,41,0.222432,10,-7.07386e-05,-2.99016,0.264449,0.223105,0.0709856,
2,0,0,1,0,15156.6,0.0655904,0.065318,-0.990527,41,0.221662,10,-6.46992e-05,-3.00413,0.287988,0.20487,0.0670911,
2,0,0,0,0,15157.4,0.0617893,0.0616437,-0.962892,41,0.220914,10,-5.93562e-05,-3.01642,0.320767,0.183934,0.0633673,
2,0,0,1,0,15158.1,0.0579882,0.0577213,-0.938833,41,0.220185,10,-5.41906e-05,-3.02741,0.344451,0.171287,0.0594018,
2,0,0,0,0,15158.9,0.0541872,0.0538847,-0.919512,41,0.219474,10,-4.95476e-05,-3.03644,0.424847,0.138874,0.0555306,
2,0,0,1,0,15159.6,0.0503861,0.0502199,-0.903935,41,0.218776,10,-4.53956e-05,-3.04386,0.482629,0.122247,0.051838,
2,0,0,0,0,15160.4,0.046585,0.0463548,-0.889767,41,0.218089,10,-4.1245e-05,-3.05072,0.704836,0.0837075,0.0479475,
2,0,0,1,0,15161.2,0.0427839,0.0426041,-0.877728,41,0.217413,10,-3.73948e-05,-3.05664,0.647614,0.0911037,0.0441752,
2,0,0,1,0,15161.9,0.0389828,0.0387962,-0.869866,41,0.216743,10,-3.37475e-05,-3.06055,0.965271,0.0611227,0.0403532,
2,0,0,0,0,15162.7,0.0351817,0.0349024,-0.86077,41,0.216081,10,-3.00429e-05,-3.06511,1.38631,0.0425589,0.0364432,
2,0,0,1,0,15163.4,0.0313807,0.0310277,-0.855221,41,0.215423,10,-2.65355e-05,-3.06792,1.46987,0.0401397,0.0325585,
2,0,0,0,0,15164.2,0.0275796,0.0273438,-0.852021,41,0.214769,10,-2.32975e-05,-3.06955,2.95596,0.0199597,0.0288689,
2,0,0,1,0,15165,0.0237785,0.0234882,-0.847796,41,0.214119,10,-1.99132e-05,-3.07171,2.4221,0.024359,0.0250057,
2,0,0,0,0,15165.7,0.0199774,0.019728,-0.84398,41,0.213471,10,-1.665e-05,-3.07367,2.93347,0.0201127,0.0212387,
2,0,0,1,0,15166.5,0.0161763,0.0159105,-0.842455,41,0.212825,10,-1.34039e-05,-3.07445,4.2753,0.0138002,0.0174185,
2,0,0,0,0,15167.2,0.0123753,0.0121789,-0.842312,41,0.212179,10,-1.02585e-05,-3.07453,9.90478,0.00595672,0.0136867,
2,0,0,1,0,15168,0.00857417,0.00827557,-0.842714,41,0.211534,10,-6.97394e-06,-3.07432,-2.59292,-0.0227543,0.00978402,
2,0,0,0,0,15168.8,0.00477309,0.00456308,-0.844823,41,0.210888,10,-3.855e-06,-3.07323,-0.238274,-0.247614,0.00607532,
2,0,0,1,0,15169.5,0.000972007,0.000669269,-0.850742,41,0.210236,10,-5.69375e-07,-3.0702,29.3593,0.00200959,0.0021921,
2,0,0,0,0,15169.7,0.00017178,-0.000151486,-0.851515,41,0.210098,10,1.28993e-07,-3.06981, , ,0.00137273,