File: Figure_codes/Fig_2_S1_S6/20220924_003_MultiCV_0_850mV_1-84_C_02_CV_C01_1.csv
mode,ox/red,error,control changes,counter inc.,time/s,control/V,Ewe/V,<I>/mA,cycle number,(Q-Qo)/C,I Range,P/W,log(|I|),Tafel slope mV/dec,alpha_eff,E-IR/V,
2,0,0,0,0,400.013,2.17368e-05,-0.000275554,-0.185258,2,0.0000000E+000,10,5.10486e-08,-3.73222, , ,5.60589e-05,
2,1,0,1,0,400.763,0.00377281,0.00343693,0.191972,2,6.06204e-05,10,6.59794e-07,-3.71676,0.00871078,6.77322,0.0030933,
2,1,0,1,0,401.524,0.00757389,0.00737846,0.277967,2,0.000260248,10,2.05097e-06,-3.55601,0.0584819,1.00886,0.0068809,
2,1,0,0,0,402.284,0.011375,0.0112246,0.306511,2,0.000493988,10,3.44045e-06,-3.51355,0.123513,0.477683,0.0106759,
2,1,0,1,0,403.044,0.015176,0.0149657,0.327318,2,0.000745038,10,4.89854e-06,-3.48503,0.154374,0.382189,0.0143798,
2,1,0,0,0,403.804,0.0189771,0.0187259,0.339682,2,0.00100796,10,6.36084e-06,-3.46893,0.205191,0.287537,0.0181178,
2,1,0,1,0,404.564,0.0227782,0.0225529,0.348924,2,0.00127942,10,7.86924e-06,-3.45727,-5.80318,-0.0101668,0.0219283,
2,1,0,0,0,405.325,0.0265793,0.0263513,0.357017,2,0.00155636,10,9.40785e-06,-3.44731,0.386162,0.152786,0.0257122,
2,1,0,1,0,406.085,0.0303804,0.0301687,0.366162,2,0.00183972,10,1.10466e-05,-3.43633,0.471596,0.125107,0.0295133,
2,1,0,0,0,406.845,0.0341815,0.0339003,0.369387,2,0.00212764,10,1.25223e-05,-3.43252,0.356874,0.165325,0.0332391,
2,1,0,1,0,407.605,0.0379825,0.0377655,0.374235,2,0.0024184,10,1.41332e-05,-3.42686,0.594368,0.0992651,0.0370956,
2,1,0,0,0,408.365,0.0417836,0.0415161,0.378272,2,0.00271281,10,1.57044e-05,-3.4222,0.587826,0.10037,0.040839,
2,1,0,1,0,409.126,0.0455847,0.0453145,0.382471,2,0.0030109,10,1.73315e-05,-3.4174,1.25618,0.0469676,0.0446299,
2,1,0,1,0,409.886,0.0493858,0.0491511,0.385108,2,0.00331185,10,1.89285e-05,-3.41442,-8.86223,-0.00665746,0.0484617,
2,1,0,0,0,410.646,0.0531869,0.0529208,0.390558,2,0.00361563,10,2.06686e-05,-3.40831,0.623382,0.094645,0.0522217,
2,1,0,1,0,411.406,0.056988,0.0567573,0.398463,2,0.00392365,10,2.26157e-05,-3.39961,0.412364,0.143078,0.0560441,
2,1,0,0,0,412.167,0.060789,0.0604698,0.400825,2,0.00423537,10,2.42379e-05,-3.39704,1.05054,0.0561617,0.0597524,
2,1,0,1,0,412.927,0.0645901,0.0643255,0.405641,2,0.00454954,10,2.60931e-05,-3.39186,0.376482,0.156714,0.0635994,
2,1,0,0,0,413.687,0.0683912,0.0681334,0.413903,2,0.00486917,10,2.82006e-05,-3.3831,0.60176,0.0980457,0.0673925,
2,1,0,1,0,414.447,0.0721923,0.0718459,0.42125,2,0.00519397,10,3.02651e-05,-3.37546,0.326118,0.180916,0.0710918,
2,1,0,0,0,415.207,0.0759934,0.0757015,0.426559,2,0.00552414,10,3.22911e-05,-3.37002,0.390847,0.150954,0.074938,
2,1,0,1,0,415.968,0.0797945,0.0796049,0.437962,2,0.00586136,10,3.48639e-05,-3.35856,0.323155,0.182575,0.0788209,
2,1,0,0,0,416.728,0.0835955,0.0833555,0.449287,2,0.00620771,10,3.74506e-05,-3.34748,0.273997,0.215331,0.0825513,
2,1,0,1,0,417.488,0.0873966,0.0872302,0.461229,2,0.00656311,10,4.02331e-05,-3.33608,0.429598,0.137338,0.0864047,
2,1,0,0,0,418.248,0.0911977,0.0909905,0.478097,2,0.00692946,10,4.35022e-05,-3.32048,0.290827,0.20287,0.0901347,
2,1,0,1,0,419.008,0.0949988,0.094703,0.49956,2,0.00731078,10,4.73098e-05,-3.30141,0.192163,0.307032,0.0938087,
2,1,0,1,0,419.769,0.0987999,0.0985872,0.524469,2,0.00770948,10,5.17059e-05,-3.28028,0.162245,0.363648,0.0976484,
2,1,0,0,0,420.529,0.102601,0.102395,0.551766,2,0.00812723,10,5.64982e-05,-3.25824,0.162616,0.362817,0.101407,
2,1,0,1,0,421.289,0.106402,0.106108,0.586917,2,0.00856957,10,6.22763e-05,-3.23142,0.131396,0.449023,0.105057,
2,1,0,0,0,422.049,0.110203,0.109944,0.631874,2,0.00904293,10,6.94708e-05,-3.19937,0.119791,0.492524,0.108813,
2,1,0,1,0,422.81,0.114004,0.113771,0.680738,2,0.0095517,10,7.74483e-05,-3.16702,0.0926261,0.636969,0.112553,
2,1,0,0,0,423.57,0.117805,0.11755,0.744289,2,0.0101029,10,8.74915e-05,-3.12826,0.0902541,0.65371,0.116218,
2,1,0,1,0,424.33,0.121606,0.12132,0.820256,2,0.0107076,10,9.95136e-05,-3.08605,0.0775976,0.760332,0.119852,
2,1,0,0,0,425.09,0.125407,0.125176,0.910605,2,0.0113746,10,0.000113986,-3.04067,0.085615,0.689131,0.123546,
2,1,0,1,0,425.85,0.129209,0.128907,1.01523,2,0.0121145,10,0.00013087,-2.99344,0.0699188,0.843836,0.12709,
2,1,0,0,0,426.611,0.13301,0.132782,1.1406,2,0.0129424,10,0.000151452,-2.94287,0.0695237,0.848631,0.13074,
2,1,0,1,0,427.371,0.136811,0.1366,1.27758,2,0.0138701,10,0.000174516,-2.89361,0.0744136,0.792866,0.134313,
2,1,0,1,0,428.131,0.140612,0.14035,1.42355,2,0.0149046,10,0.000199795,-2.84663,0.0791376,0.745537,0.137802,
2,1,0,0,0,428.891,0.144413,0.14413,1.57138,2,0.016052,10,0.000226482,-2.80372,0.0950194,0.620926,0.141317,
2,1,0,1,0,429.652,0.148214,0.148128,1.71256,2,0.0173091,10,0.000253679,-2.76635,0.101486,0.58136,0.145063,
2,1,0,0,0,430.412,0.152015,0.151793,1.82797,2,0.0186659,10,0.000277473,-2.73803,0.150003,0.393325,0.148521,
2,1,0,1,0,431.172,0.155816,0.155591,1.92637,2,0.020104,10,0.000299727,-2.71526,0.199503,0.295734,0.152143,
2,1,0,0,0,431.932,0.159617,0.159314,1.99105,2,0.0216028,10,0.000317201,-2.70092,0.394743,0.149464,0.15575,
2,1,0,1,0,432.692,0.163418,0.163207,2.01234,2,0.0231342,10,0.000328429,-2.6963,-2.52899,-0.0233294,0.159605,
2,1,0,0,0,433.453,0.167219,0.166901,1.98724,2,0.0246639,10,0.000331671,-2.70175,-0.393588,-0.149903,0.163344,
2,1,0,1,0,434.213,0.17102,0.170795,1.91868,2,0.0261587,10,0.000327699,-2.717,-0.183691,-0.321191,0.16736,
2,1,0,0,0,434.973,0.174822,0.174574,1.7915,2,0.0275793,10,0.000312748,-2.74678,-0.11668,-0.505658,0.171367,
2,1,0,1,0,435.733,0.178623,0.178324,1.62356,2,0.0288873,10,0.000289521,-2.78953,-0.0859624,-0.686347,0.175418,
2,1,0,0,0,436.493,0.182424,0.182161,1.43593,2,0.0300591,10,0.000261571,-2.84287,-0.0728244,-0.810168,0.179591,
2,1,0,1,0,437.254,0.186225,0.186045,1.24904,2,0.0310878,10,0.000232378,-2.90342,-0.064948,-0.908419,0.18381,
2,1,0,1,0,438.014,0.190026,0.189786,1.07919,2,0.0319805,10,0.000204815,-2.9669,-0.0665625,-0.886386,0.187855,
2,1,0,0,0,438.774,0.193827,0.193661,0.946099,2,0.0327576,10,0.000183223,-3.02406,-0.0709884,-0.831122,0.191968,
2,1,0,1,0,439.534,0.197628,0.197431,0.84314,2,0.0334456,10,0.000166462,-3.0741,-0.0877116,-0.672659,0.195922,
2,1,0,0,0,440.295,0.201429,0.201201,0.766369,2,0.0340653,10,0.000154194,-3.11556,-0.110647,-0.533229,0.199829,
2,1,0,1,0,441.055,0.20523,0.20497,0.706361,2,0.0346312,10,0.000144783,-3.15097,-0.115689,-0.509988,0.203706,
2,1,0,0,0,441.815,0.209031,0.208702,0.662585,2,0.0351578,10,0.000138283,-3.17876,-0.152489,-0.386914,0.207516,
2,1,0,1,0,442.575,0.212832,0.212558,0.623521,2,0.0356536,10,0.000132534,-3.20515,-0.157836,-0.373806,0.211441,
2,1,0,0,0,443.335,0.216633,0.216327,0.59281,2,0.036123,10,0.000128241,-3.22708,-0.223352,-0.264157,0.215266,
2,1,0,1,0,444.096,0.220434,0.220154,0.572048,2,0.0365722,10,0.000125939,-3.24257,-0.200355,-0.294478,0.21913,
2,1,0,0,0,444.856,0.224236,0.224048,0.551695,2,0.0370052,10,0.000123606,-3.2583,-0.220882,-0.267111,0.223061,
2,1,0,1,0,445.616,0.228037,0.227961,0.533795,2,0.0374243,10,0.000121684,-3.27263,-0.228652,-0.258034,0.227006,
2,1,0,1,0,446.376,0.231838,0.231569,0.519669,2,0.0378312,10,0.000120339,-3.28427,-0.309879,-0.190397,0.230638,
2,1,0,0,0,447.137,0.235639,0.235453,0.50642,2,0.0382288,10,0.000119238,-3.29549,-0.337173,-0.174984,0.234546,
2,1,0,1,0,447.897,0.23944,0.239175,0.493147,2,0.0386175,10,0.000117948,-3.30702,-0.31233,-0.188903,0.238292,
2,1,0,0,0,448.657,0.243241,0.242906,0.483899,2,0.0389973,10,0.000117542,-3.31525,-0.539837,-0.109292,0.24204,
2,1,0,1,0,449.417,0.247042,0.246705,0.474969,2,0.039371,10,0.000117177,-3.32334,-0.647209,-0.0911607,0.245855,
2,1,0,0,0,450.177,0.250843,0.250637,0.469205,2,0.0397391,10,0.0001176,-3.32864,-0.856362,-0.0688961,0.249797,
2,1,0,1,0,450.938,0.254644,0.254397,0.460372,2,0.0401016,10,0.000117117,-3.33689,-0.845961,-0.0697432,0.253573,
2,1,0,0,0,451.698,0.258445,0.258319,0.456258,2,0.0404592,10,0.00011786,-3.34079,-0.7629,-0.0773365,0.257503,
2,1,0,1,0,452.458,0.262246,0.262051,0.452175,2,0.0408132,10,0.000118493,-3.34469,-0.776372,-0.0759945,0.261242,
2,1,0,0,0,453.218,0.266047,0.265735,0.445906,2,0.0411633,10,0.000118493,-3.35076,-0.417556,-0.141298,0.264937,
2,1,0,1,0,453.978,0.269849,0.269571,0.443329,2,0.041509,10,0.000119509,-3.35327,-0.855307,-0.068981,0.268778,
2,1,0,0,0,454.739,0.27365,0.273417,0.440175,2,0.0418522,10,0.000120352,-3.35637,-2.82662,-0.020873,0.27263,
2,1,0,1,0,455.499,0.277451,0.277206,0.436482,2,0.0421924,10,0.000120996,-3.36003,7.58203,0.00778155,0.276425,
2,1,0,1,0,456.259,0.281252,0.280995,0.433068,2,0.0425297,10,0.00012169,-3.36344,3.4918,0.0168968,0.28022,
2,1,0,0,0,457.019,0.285053,0.284832,0.430725,2,0.0428647,10,0.000122684,-3.3658,-2.76607,-0.0213299,0.284061,
2,1,0,1,0,457.78,0.288854,0.288601,0.427772,2,0.043198,10,0.000123456,-3.36879,-1.60576,-0.0367428,0.287836,
2,1,0,0,0,458.54,0.292655,0.292409,0.422386,2,0.0435284,10,0.00012351,-3.37429,-2.9956,-0.0196956,0.291653,
2,1,0,1,0,459.3,0.296456,0.296217,0.420627,2,0.0438567,10,0.000124597,-3.3761,-1.00545,-0.0586804,0.295464,
2,1,0,0,0,460.06,0.300257,0.300111,0.418985,2,0.044183,10,0.000125742,-3.3778,-1.58679,-0.037182,0.299361,
2,1,0,1,0,460.82,0.304058,0.303871,0.414747,2,0.0445076,10,0.00012603,-3.38222,-1.31433,-0.0448896,0.303129,
2,1,0,0,0,461.581,0.307859,0.307603,0.41156,2,0.0448295,10,0.000126597,-3.38557,-0.532168,-0.110867,0.306866,
2,1,0,1,0,462.341,0.31166,0.311392,0.410483,2,0.0451501,10,0.000127821,-3.38671,-233.738,-0.00025242,0.310657,
2,1,0,0,0,463.101,0.315462,0.315257,0.406102,2,0.0454692,10,0.000128026,-3.39136,-2.17025,-0.0271858,0.31453,
2,1,0,1,0,463.861,0.319263,0.319008,0.403227,2,0.0457863,10,0.000128632,-3.39445,-1.25434,-0.0470366,0.318286,
2,1,0,1,0,464.621,0.323064,0.322672,0.403066,2,0.046102,10,0.000130058,-3.39462,-9.52868,-0.00619183,0.321951,
2,1,0,0,0,465.382,0.326865,0.326633,0.400358,2,0.0464162,10,0.00013077,-3.39755,-1.30457,-0.0452257,0.325916,
2,1,0,1,0,466.142,0.330666,0.330441,0.39697,2,0.0467287,10,0.000131175,-3.40124,-0.643511,-0.0916845,0.32973,
2,1,0,0,0,466.902,0.334467,0.334258,0.39673,2,0.0470393,10,0.00013261,-3.4015,4.26134,0.0138454,0.333548,
2,1,0,1,0,467.662,0.338268,0.337961,0.394309,2,0.0473489,10,0.000133261,-3.40416,-1.7308,-0.0340884,0.337255,
2,1,0,0,0,468.423,0.342069,0.341836,0.394868,2,0.047657,10,0.00013498,-3.40355,-1.61894,-0.0364435,0.341129,
2,1,0,1,0,469.183,0.34587,0.345653,0.393453,2,0.0479632,10,0.000135998,-3.40511,-9.25949,-0.00637184,0.344949,
2,1,0,0,0,469.943,0.349671,0.349414,0.39135,2,0.0482683,10,0.000136743,-3.40743,-4.11018,-0.0143546,0.348713,
2,1,0,1,0,470.703,0.353472,0.353241,0.389669,2,0.0485725,10,0.000137647,-3.4093,1.96376,0.0300444,0.352543,
2,1,0,0,0,471.463,0.357273,0.357077,0.386307,2,0.0488747,10,0.000137941,-3.41307,4.43013,0.0133179,0.356386,
2,1,0,1,0,472.224,0.361075,0.360837,0.386735,2,0.0491757,10,0.000139549,-3.41259,-0.860771,-0.0685432,0.360145,
2,1,0,0,0,472.984,0.364876,0.364674,0.385541,2,0.0494756,10,0.000140597,-3.41393,-1.31921,-0.0447238,0.363984,
2,1,0,1,0,473.744,0.368677,0.368444,0.383058,2,0.0497743,10,0.000141135,-3.41674,-0.822899,-0.0716977,0.367758,
2,1,0,1,0,474.504,0.372478,0.372194,0.381959,2,0.0500712,10,0.000142163,-3.41798,19.0045,0.00310453,0.371511,
2,1,0,0,0,475.265,0.376279,0.375993,0.379661,2,0.0503674,10,0.00014275,-3.4206,-1.73556,-0.0339949,0.375313,
2,1,0,1,0,476.025,0.38008,0.379791,0.376195,2,0.0506624,10,0.000142876,-3.42459,-0.835893,-0.0705832,0.379118,
2,1,0,0,0,476.785,0.383881,0.383656,0.375261,2,0.0509556,10,0.000143971,-3.42567,-2.74467,-0.0214962,0.382985,
2,1,0,1,0,477.545,0.387682,0.387445,0.372827,2,0.0512479,10,0.00014445,-3.42849,1.20672,0.048893,0.386778,
2,1,0,0,0,478.305,0.391483,0.391348,0.371672,2,0.0515397,10,0.000145453,-3.42984,-2.27306,-0.0259562,0.390683,
2,1,0,1,0,479.066,0.395284,0.395023,0.368654,2,0.0518298,10,0.000145627,-3.43338,-1.16817,-0.0505066,0.394363,
2,1,0,0,0,479.826,0.399085,0.398907,0.367564,2,0.0521185,10,0.000146624,-3.43467,-28.4936,-0.00207064,0.398249,
2,1,0,1,0,480.586,0.402886,0.402667,0.367817,2,0.0524068,10,0.000148108,-3.43437,-112.019,-0.000526697,0.402009,
2,1,0,0,0,481.346,0.406687,0.406533,0.365396,2,0.0526939,10,0.000148545,-3.43724,-0.647164,-0.091167,0.405878,
2,1,0,1,0,482.106,0.410489,0.410178,0.364286,2,0.0529797,10,0.000149422,-3.43856,-12.4306,-0.00474636,0.409526,
2,1,0,1,0,482.867,0.41429,0.413977,0.367553,2,0.0532654,10,0.000152158,-3.43468,6.47803,0.0091077,0.413319,
2,1,0,0,0,483.627,0.418091,0.417947,0.363059,2,0.0535504,10,0.000151739,-3.44002,2.6777,0.0220338,0.417297,
2,1,0,1,0,484.387,0.421892,0.421688,0.363358,2,0.0538338,10,0.000153224,-3.43967,1.4098,0.0418499,0.421037,
2,1,0,0,0,485.147,0.425693,0.425543,0.362774,2,0.0541172,10,0.000154376,-3.44036,-1.47644,-0.0399609,0.424894,
2,1,0,1,0,485.908,0.429494,0.429256,0.362521,2,0.0544001,10,0.000155614,-3.44067,-16.3823,-0.00360144,0.428607,
2,1,0,0,0,486.668,0.433295,0.433083,0.360866,2,0.054682,10,0.000156285,-3.44265,-1.14575,-0.0514946,0.432437,
2,1,0,1,0,487.428,0.437096,0.436948,0.361061,2,0.054963,10,0.000157765,-3.44242,-23.2703,-0.00253542,0.436302,
2,1,0,0,0,488.188,0.440897,0.440727,0.360463,2,0.0552438,10,0.000158866,-3.44314,-1.68938,-0.0349241,0.440082,
2,1,0,1,0,488.948,0.444698,0.444507,0.361495,2,0.0555243,10,0.000160687,-3.4419,-5.13428,-0.0114914,0.44386,
2,1,0,0,0,489.709,0.448499,0.448343,0.359886,2,0.0558039,10,0.000161352,-3.44384,-1.36441,-0.0432421,0.447699,
2,1,0,1,0,490.469,0.452301,0.451998,0.360334,2,0.0560834,10,0.00016287,-3.4433,-3.01383,-0.0195764,0.451353,
2,1,0,0,0,491.229,0.456102,0.455835,0.359756,2,0.0563629,10,0.000163989,-3.44399,-8.50862,-0.00693414,0.455191,
2,1,0,1,0,491.989,0.459903,0.459681,0.358006,2,0.0566417,10,0.000164569,-3.44611,2.90704,0.0202956,0.45904,
2,1,0,1,0,492.75,0.463704,0.463441,0.358899,2,0.0569206,10,0.000166329,-3.44503,100.045,0.000589732,0.462799,
2,1,0,0,0,493.51,0.467505,0.467326,0.358731,2,0.0571996,10,0.000167644,-3.44523,4.478,0.0131755,0.466683,
2,1,0,1,0,494.27,0.471306,0.471028,0.357731,2,0.0574785,10,0.000168502,-3.44644,-1.68383,-0.0350391,0.470388,
2,1,0,0,0,495.03,0.475107,0.474856,0.358231,2,0.0577573,10,0.000170108,-3.44584,67.8978,0.000868953,0.474214,
2,1,0,1,0,495.79,0.478908,0.478749,0.358088,2,0.0580368,10,0.000171434,-3.44601,-35.9825,-0.00163969,0.478108,
2,1,0,0,0,496.551,0.482709,0.4825,0.358523,2,0.0583167,10,0.000172987,-3.44548,3.77867,0.015614,0.481858,
2,1,0,1,0,497.311,0.48651,0.486327,0.358984,2,0.0585965,10,0.000174583,-3.44493,-2.03423,-0.0290037,0.485684,
2,1,0,0,0,498.071,0.490311,0.490039,0.357984,2,0.0588768,10,0.000175426,-3.44614,1.26568,0.0466151,0.489399,
2,1,0,1,0,498.831,0.494112,0.493895,0.360308,2,0.0591581,10,0.000177954,-3.44333,3.53999,0.0166667,0.49325,
2,1,0,0,0,499.591,0.497913,0.49776,0.36008,2,0.0594396,10,0.000179234,-3.4436,0.841528,0.0701106,0.497116,
2,1,0,1,0,500.352,0.501715,0.50154,0.360807,2,0.059722,10,0.000180959,-3.44272,1.05359,0.0559989,0.500894,
2,1,0,1,0,501.112,0.505516,0.505309,0.362819,2,0.0600053,10,0.000183336,-3.44031,10.7208,0.0055033,0.50466,
2,1,0,0,0,501.872,0.509317,0.509117,0.363481,2,0.0602898,10,0.000185055,-3.43952,-1.30236,-0.0453025,0.508467,
2,1,0,1,0,502.632,0.513118,0.512906,0.365493,2,0.0605747,10,0.000187464,-3.43712,1.20528,0.0489515,0.512252,
2,1,0,0,0,503.393,0.516919,0.516657,0.368109,2,0.0608615,10,0.000190186,-3.43402,0.793083,0.0743932,0.515998,
2,1,0,1,0,504.153,0.52072,0.520484,0.367934,2,0.0611494,10,0.000191503,-3.43423,1.80373,0.03271,0.519825,
2,1,0,0,0,504.913,0.524521,0.524301,0.371036,2,0.0614383,10,0.000194535,-3.43058,0.607078,0.0971868,0.523637,
2,1,0,1,0,505.673,0.528322,0.528014,0.372483,2,0.061729,10,0.000196676,-3.42889,1.67917,0.0351365,0.527347,
2,1,0,0,0,506.433,0.532123,0.531898,0.375754,2,0.0620216,10,0.000199863,-3.4251,7.46177,0.00790698,0.531225,
2,1,0,1,0,507.194,0.535924,0.535706,0.378869,2,0.0623159,10,0.000202963,-3.42151,1.41897,0.0415796,0.535028,
2,1,0,0,0,507.954,0.539725,0.539533,0.381686,2,0.0626125,10,0.000205932,-3.41829,0.865728,0.0681507,0.53885,
2,1,0,1,0,508.714,0.543526,0.54335,0.385846,2,0.0629121,10,0.00020965,-3.41359,5.02469,0.011742,0.54266,
2,1,0,0,0,509.474,0.547328,0.547111,0.390954,2,0.0632145,10,0.000213895,-3.40787,1.01083,0.0583678,0.546411,
2,1,0,1,0,510.234,0.551129,0.550823,0.394542,2,0.0635196,10,0.000217323,-3.40391,1.17539,0.0501961,0.550117,
2,1,0,1,0,510.995,0.55493,0.554698,0.400397,2,0.0638285,10,0.000222099,-3.39751,0.503935,0.117079,0.553981,
2,1,0,0,0,511.755,0.558731,0.558515,0.404771,2,0.0641417,10,0.000226071,-3.39279,0.449226,0.131337,0.557791,
2,1,0,1,0,512.515,0.562532,0.562323,0.411534,2,0.064459,10,0.000231415,-3.38559,0.600716,0.0982161,0.561587,
2,1,0,0,0,513.275,0.566333,0.566102,0.418758,2,0.0647818,10,0.00023706,-3.37804,0.370526,0.159233,0.565353,
2,1,0,1,0,514.036,0.570134,0.569939,0.427143,2,0.0651106,10,0.000243445,-3.36943,0.511493,0.115349,0.569174,
2,1,0,0,0,514.796,0.573935,0.573728,0.43608,2,0.0654457,10,0.000250191,-3.36043,0.444965,0.132595,0.572947,
2,1,0,1,0,515.556,0.577736,0.577593,0.446892,2,0.0657879,10,0.000258122,-3.3498,0.294215,0.200534,0.576793,
2,1,0,0,0,516.316,0.581537,0.581334,0.458075,2,0.0661384,10,0.000266295,-3.33906,0.309038,0.190915,0.580514,
2,1,0,1,0,517.076,0.585338,0.585132,0.471321,2,0.0664982,10,0.000275785,-3.32668,0.275435,0.214207,0.584289,
2,1,0,0,0,517.837,0.589139,0.588931,0.485976,2,0.0668686,10,0.000286206,-3.31339,0.260553,0.226441,0.588061,
2,1,0,1,0,518.597,0.592941,0.592777,0.504142,2,0.0672518,10,0.000298844,-3.29745,0.216568,0.272432,0.591875,
2,1,0,0,0,519.357,0.596742,0.596499,0.524871,2,0.0676497,10,0.000313085,-3.27995,0.236772,0.249184,0.59556,
2,1,0,0,0,520.117,0.600543,0.600393,0.544997,2,0.0680626,10,0.000327212,-3.26361,0.16949,0.348103,0.599417,
2,1,0,1,0,520.878,0.604344,0.604153,0.57134,2,0.0684929,10,0.000345177,-3.24311,0.181944,0.324276,0.60313,
2,1,0,0,0,521.638,0.608145,0.608018,0.600299,2,0.0689442,10,0.000364993,-3.22163,0.161153,0.366112,0.606944,
2,1,0,1,0,522.398,0.611946,0.61175,0.634788,2,0.0694198,10,0.000388331,-3.19737,0.159425,0.37008,0.610613,
2,1,0,0,0,523.158,0.615747,0.615577,0.673372,2,0.0699225,10,0.000414512,-3.17175,0.129762,0.454679,0.614371,
2,1,0,1,0,523.918,0.619548,0.619327,0.716122,2,0.0704565,10,0.000443514,-3.14501,0.126234,0.467386,0.618046,
2,1,0,0,0,524.679,0.623349,0.623135,0.765512,2,0.0710258,10,0.000477017,-3.11605,0.111393,0.529656,0.621765,
2,1,0,1,0,525.439,0.62715,0.626962,0.822138,2,0.0716352,10,0.00051545,-3.08506,0.122616,0.481177,0.625491,
2,1,0,0,0,526.199,0.630951,0.630684,0.886079,2,0.0722902,10,0.000558836,-3.05253,0.114032,0.517399,0.629098,
2,1,0,1,0,526.959,0.634752,0.63454,0.958878,2,0.0729973,10,0.000608447,-3.01824,0.105688,0.558247,0.632824,
2,1,0,0,0,527.719,0.638554,0.6383,1.03902,2,0.073762,10,0.000663206,-2.98338,0.10449,0.564646,0.63644,
2,1,0,1,0,528.48,0.642355,0.642185,1.12907,2,0.0745911,10,0.00072507,-2.94728,0.101746,0.579876,0.640163,
2,1,0,1,0,529.24,0.646156,0.645992,1.23015,2,0.0754939,10,0.000794666,-2.91004,0.0948825,0.621822,0.64379,
2,1,0,0,0,530,0.649957,0.649858,1.34178,2,0.0764778,10,0.000871968,-2.87232,0.0962503,0.612985,0.647456,
2,1,0,1,0,530.76,0.653758,0.653475,1.46654,2,0.0775511,10,0.000958344,-2.83371,0.0927317,0.636244,0.65085,
2,1,0,0,0,531.521,0.657559,0.657349,1.60284,2,0.0787237,10,0.00105363,-2.79511,0.0900615,0.655108,0.65448,
2,1,0,1,0,532.281,0.66136,0.66109,1.75481,2,0.0800052,10,0.00116009,-2.75577,0.0855161,0.689928,0.657949,
2,1,0,0,0,533.041,0.665161,0.664946,1.91875,2,0.0814064,10,0.00127586,-2.71698,0.0956613,0.616759,0.661512,
2,1,0,1,0,533.801,0.668962,0.668716,2.09649,2,0.082938,10,0.00140196,-2.67851,0.0797779,0.739553,0.664963,
2,1,0,0,0,534.561,0.672763,0.672552,2.29216,2,0.0846117,10,0.0015416,-2.63976,0.0873082,0.675767,0.66845,
2,1,0,1,0,535.322,0.676564,0.676427,2.49984,2,0.0864391,10,0.00169096,-2.60209,0.089615,0.658372,0.671952,
2,1,0,0,0,536.082,0.680365,0.68013,2.72648,2,0.0884309,10,0.00185436,-2.5644,0.0930707,0.633926,0.67525,
2,1,0,1,0,536.842,0.684167,0.683928,2.96797,2,0.0906013,10,0.00202988,-2.52754,0.090899,0.649072,0.678616,
2,1,0,0,0,537.602,0.687968,0.687746,3.22734,2,0.0929617,10,0.00221959,-2.49116,0.0848903,0.695014,0.681969,
2,1,0,0,0,538.363,0.691769,0.69163,3.50158,2,0.095526,10,0.0024218,-2.45574,0.0945006,0.624335,0.685362,
2,1,0,1,0,539.123,0.69557,0.695362,3.79638,2,0.0983056,10,0.00263986,-2.42063,0.0984416,0.59934,0.688566,
2,1,0,0,0,539.883,0.699371,0.699237,4.10547,2,0.101315,10,0.00287069,-2.38664,0.102235,0.577099,0.691888,
2,1,0,1,0,540.643,0.703172,0.702939,4.43021,2,0.104566,10,0.00311417,-2.35358,0.107153,0.550614,0.695009,
2,1,0,0,0,541.403,0.706973,0.706766,4.77204,2,0.108069,10,0.00337272,-2.3213,0.108755,0.542502,0.698224,
2,1,0,1,0,542.164,0.710774,0.710498,5.12953,2,0.111839,10,0.00364452,-2.28992,0.0908496,0.649425,0.701316,
2,1,0,0,0,542.924,0.714575,0.71442,5.4976,2,0.115885,10,0.0039276,-2.25983,0.107459,0.549045,0.70458,
2,1,0,1,0,543.684,0.718376,0.718104,5.88194,2,0.120217,10,0.00422385,-2.23048,0.0977175,0.603781,0.707576,
2,1,0,0,0,544.444,0.722177,0.721912,6.27799,2,0.124845,10,0.00453216,-2.20218,0.102943,0.573133,0.710675,
2,1,0,1,0,545.204,0.725978,0.725854,6.68398,2,0.12978,10,0.00485159,-2.17497,0.110114,0.53581,0.713889,
2,1,0,0,0,545.965,0.72978,0.729547,7.09851,2,0.135026,10,0.0051787,-2.14883,0.119325,0.494449,0.716841,
2,1,0,1,0,546.725,0.733581,0.733374,7.5247,2,0.140593,10,0.00551842,-2.12351,0.129973,0.453941,0.719905,
2,1,0,1,0,547.485,0.737382,0.737249,7.95704,2,0.146487,10,0.00586632,-2.09925,0.130963,0.450507,0.723006,
2,1,0,0,0,548.245,0.741183,0.740866,8.39192,2,0.152711,10,0.00621729,-2.07614,0.134603,0.438325,0.725844,
2,1,0,1,0,549.006,0.744984,0.744779,8.83683,2,0.159269,10,0.00658149,-2.0537,0.143426,0.411362,0.728961,
2,1,0,0,0,549.766,0.748785,0.74852,9.28819,2,0.166167,10,0.00695239,-2.03207,0.136802,0.431282,0.731894,
2,1,0,1,0,550.526,0.752586,0.752357,9.74159,2,0.17341,10,0.00732915,-2.01137,0.14632,0.403227,0.734919,
2,1,0,0,0,551.286,0.756387,0.756174,10.198,2,0.180997,10,0.00771148,-1.99148,0.143403,0.411429,0.73792,
2,1,0,1,0,552.046,0.760188,0.759963,10.6602,2,0.188934,10,0.00810136,-1.97223,0.158768,0.371611,0.740881,
2,1,0,0,0,552.807,0.763989,0.763694,11.1255,2,0.197224,10,0.00849646,-1.95368,0.146658,0.402298,0.74378,
2,1,0,1,0,553.567,0.76779,0.767674,11.5957,2,0.20587,10,0.00890173,-1.9357,0.175641,0.335912,0.746918,
2,1,0,0,0,554.327,0.771591,0.771425,12.0747,2,0.214877,10,0.00931475,-1.91812,0.17002,0.347019,0.749811,
2,1,0,1,0,555.087,0.775393,0.775175,12.5571,2,0.224249,10,0.00973394,-1.90111,0.176711,0.333879,0.752698,
2,1,0,0,0,555.847,0.779194,0.778964,13.0412,2,0.233989,10,0.0101586,-1.88468,0.180556,0.326769,0.75562,
2,1,0,0,0,556.608,0.782995,0.782772,13.5297,2,0.244101,10,0.0105907,-1.86871,0.17717,0.333014,0.758554,
2,1,0,1,0,557.368,0.786796,0.786618,14.0286,2,0.254585,10,0.0110351,-1.85299,0.187254,0.31508,0.761507,
2,1,0,0,0,558.128,0.790597,0.790436,14.5326,2,0.26545,10,0.0114871,-1.83766,0.19885,0.296706,0.764422,
2,1,0,1,0,558.888,0.794398,0.794253,15.0373,2,0.276699,10,0.0119435,-1.82283,0.188865,0.312392,0.767336,
2,1,0,0,0,559.649,0.798199,0.798004,15.5503,2,0.288333,10,0.0124092,-1.80826,0.193278,0.305259,0.770169,
2,1,0,1,0,560.409,0.802,0.801793,16.0708,2,0.30036,10,0.0128855,-1.79396,0.191728,0.307728,0.773026,
2,1,0,0,0,561.169,0.805801,0.805524,16.5951,2,0.312785,10,0.0133678,-1.78002,0.175929,0.335362,0.775819,
2,1,0,1,0,561.929,0.809602,0.809418,17.1288,2,0.325611,10,0.0138644,-1.76627,0.200578,0.294149,0.778757,
2,1,0,0,0,562.689,0.813403,0.813207,17.6727,2,0.338847,10,0.0143716,-1.7527,0.213305,0.276599,0.781573,
2,1,0,1,0,563.45,0.817204,0.816977,18.2181,2,0.352497,10,0.0148838,-1.7395,0.205081,0.287691,0.784366,
2,1,0,0,0,564.21,0.821005,0.820861,18.7845,2,0.366568,10,0.0154195,-1.7262,0.210712,0.280003,0.787237,
2,1,0,1,0,564.97,0.824807,0.824554,19.3609,2,0.381077,10,0.0159641,-1.71307,0.219967,0.268222,0.789898,
2,1,0,1,0,565.73,0.828608,0.828429,19.926,2,0.39602,10,0.0165072,-1.70058,0.227669,0.259148,0.792762,
2,1,0,0,0,566.491,0.832409,0.832237,20.486,2,0.411388,10,0.0170492,-1.68854,0.243736,0.242065,0.795567,
2,1,0,1,0,567.251,0.83621,0.836073,21.0584,2,0.427188,10,0.0176064,-1.67657,0.226235,0.260791,0.798379,
2,1,0,0,0,568.011,0.840011,0.839834,21.6302,2,0.443422,10,0.0181658,-1.66494,0.22561,0.261514,0.801116,
2,1,0,1,0,568.771,0.843812,0.843518,22.2027,2,0.460092,10,0.0187283,-1.65359,0.252153,0.233985,0.803775,
2,1,0,0,0,569.531,0.847613,0.847354,22.7807,2,0.477198,10,0.0193033,-1.64243,0.226319,0.260694,0.806577,
2,1,0,0,0,570.272,0.848613,0.848442,22.7536,2,0.494201,10,0.0193051,-1.64295,0.0949181,0.621588,0.807713,
2,1,0,1,0,571.032,0.844812,0.844529,21.908,2,0.511153,10,0.0185019,-1.6594,0.156979,0.375846,0.805314,
2,1,0,0,0,571.793,0.841011,0.840874,21.1667,2,0.527513,10,0.0177985,-1.67435,0.17282,0.341395,0.802986,
2,1,0,1,0,572.553,0.83721,0.837057,20.4653,2,0.543327,10,0.0171306,-1.68898,0.173409,0.340235,0.800424,
2,1,0,0,0,573.313,0.833409,0.83322,19.7847,2,0.558616,10,0.016485,-1.70367,0.212046,0.278242,0.797805,
2,1,0,1,0,574.073,0.829608,0.829422,19.1302,2,0.573396,10,0.015867,-1.71828,0.159865,0.369061,0.795179,
2,1,0,0,0,574.833,0.825807,0.825671,18.4993,2,0.587688,10,0.0152743,-1.73285,0.196467,0.300305,0.792557,
2,1,0,1,0,575.594,0.822006,0.821834,17.8777,2,0.601505,10,0.0146925,-1.74769,0.196956,0.29956,0.789833,
2,1,0,0,0,576.354,0.818205,0.818036,17.2642,2,0.614853,10,0.0141227,-1.76285,0.183347,0.321794,0.787133,
2,1,0,0,0,577.114,0.814404,0.814199,16.658,2,0.627743,10,0.0135629,-1.77838,0.165371,0.356774,0.784382,
2,1,0,1,0,577.874,0.810602,0.810353,16.0546,2,0.640168,10,0.0130099,-1.7944,0.156589,0.376784,0.781616,
2,1,0,0,0,578.635,0.806801,0.806536,15.4533,2,0.652134,10,0.0124637,-1.81098,0.15973,0.369374,0.778874,
2,1,0,1,0,579.395,0.803,0.802776,14.8599,2,0.663648,10,0.0119291,-1.82798,0.141152,0.41799,0.776176,
2,1,0,0,0,580.155,0.799199,0.79892,14.2661,2,0.674709,10,0.0113974,-1.8457,0.144049,0.409582,0.773384,
2,1,0,1,0,580.915,0.795398,0.795207,13.6895,2,0.685327,10,0.010886,-1.86361,0.152271,0.387467,0.770703,
2,1,0,0,0,581.675,0.791597,0.791371,13.1203,2,0.695508,10,0.010383,-1.88206,0.144247,0.40902,0.767886,
2,1,0,1,0,582.436,0.787796,0.787601,12.5594,2,0.705262,10,0.0098918,-1.90103,0.128295,0.459878,0.76512,
2,1,0,0,0,583.196,0.783995,0.783831,12.0073,2,0.71459,10,0.0094117,-1.92055,0.138587,0.425727,0.762338,
2,1,0,1,0,583.956,0.780194,0.779985,11.4611,2,0.723502,10,0.00893948,-1.94077,0.149855,0.393715,0.75947,
2,1,0,0,0,584.716,0.776393,0.776168,10.9272,2,0.732005,10,0.00848133,-1.96149,0.13071,0.451382,0.756608,
2,1,0,1,0,585.476,0.772592,0.772389,10.4033,2,0.740104,10,0.00803538,-1.98283,0.130365,0.452576,0.753767,
2,1,0,1,0,586.237,0.768791,0.768695,9.88528,2,0.747809,10,0.00759877,-2.00501,0.122,0.483608,0.751001,
2,1,0,0,0,586.997,0.76499,0.764868,9.38489,2,0.755124,10,0.0071782,-2.02757,0.127842,0.461509,0.748069,
2,1,0,1,0,587.757,0.761189,0.760955,8.89385,2,0.762064,10,0.00676782,-2.05091,0.134777,0.437759,0.745035,
2,1,0,0,0,588.517,0.757387,0.757176,8.41372,2,0.768635,10,0.00637067,-2.07501,0.120219,0.490771,0.742115,
2,1,0,1,0,589.278,0.753586,0.753349,7.9473,2,0.774846,10,0.00598709,-2.09978,0.132183,0.446353,0.739123,
2,1,0,0,0,590.038,0.749785,0.749579,7.48958,2,0.780706,10,0.00561403,-2.12554,0.112184,0.525922,0.736173,
2,1,0,1,0,590.798,0.745984,0.745762,7.04087,2,0.786221,10,0.00525081,-2.15237,0.108902,0.54177,0.733159,
2,1,0,0,0,591.558,0.742183,0.742002,6.60823,2,0.791401,10,0.00490332,-2.17991,0.10647,0.554149,0.730173,
2,1,0,1,0,592.318,0.738382,0.738079,6.18912,2,0.796257,10,0.00456806,-2.20837,0.102783,0.574024,0.727001,
2,1,0,0,0,593.079,0.734581,0.734348,5.78215,2,0.800799,10,0.00424611,-2.23791,0.0970865,0.607706,0.723998,
2,1,0,1,0,593.839,0.73078,0.730597,5.39059,2,0.805037,10,0.00393835,-2.26836,0.092654,0.636778,0.720948,
2,1,0,0,0,594.599,0.726979,0.726713,5.01361,2,0.808983,10,0.00364345,-2.29985,0.101791,0.57962,0.717738,
2,1,0,0,0,595.359,0.723178,0.722924,4.65038,2,0.812649,10,0.00336187,-2.33251,0.0922309,0.639699,0.7146,
2,1,0,1,0,596.12,0.719376,0.719202,4.30283,2,0.816044,10,0.0030946,-2.36625,0.0944822,0.624456,0.7115,
2,1,0,0,0,596.88,0.715575,0.715375,3.97217,2,0.819181,10,0.00284159,-2.40097,0.0876295,0.673289,0.708265,
2,1,0,1,0,597.64,0.711774,0.711529,3.65865,2,0.822074,10,0.00260324,-2.43668,0.0916823,0.643527,0.70498,
2,1,0,0,0,598.4,0.707973,0.70774,3.35928,2,0.824733,10,0.0023775,-2.47375,0.0912548,0.646541,0.701727,
2,1,0,1,0,599.16,0.704172,0.703961,3.07361,2,0.827169,10,0.0021637,-2.51235,0.0864144,0.682756,0.698459,
2,1,0,0,0,599.921,0.700371,0.700162,2.80482,2,0.829395,10,0.00196383,-2.5521,0.0760311,0.775998,0.695142,
2,1,0,1,0,600.681,0.69657,0.696326,2.55,2,0.831422,10,0.00177563,-2.59346,0.0789413,0.747391,0.691761,
2,1,0,0,0,601.441,0.692769,0.692556,2.31389,2,0.833261,10,0.0016025,-2.63566,0.0824869,0.715265,0.688414,
2,1,0,1,0,602.201,0.688968,0.688767,2.09023,2,0.834926,10,0.00143968,-2.67981,0.079765,0.739673,0.685026,
2,1,0,0,0,602.961,0.685167,0.684959,1.87935,2,0.836425,10,0.00128728,-2.72599,0.0727585,0.810902,0.681595,
2,1,0,1,0,603.722,0.681366,0.68118,1.68208,2,0.83777,10,0.0011458,-2.77415,0.0668506,0.882565,0.678169,
2,1,0,1,0,604.482,0.677565,0.677238,1.50034,2,0.83897,10,0.00101609,-2.82381,0.0671587,0.878517,0.674553,
2,1,0,0,0,605.242,0.673764,0.673574,1.33103,2,0.840038,10,0.000896546,-2.87581,0.0648807,0.909362,0.671191,
2,1,0,1,0,606.002,0.669963,0.669766,1.17404,2,0.840982,10,0.000786331,-2.93032,0.0626885,0.941162,0.667664,
2,1,0,0,0,606.763,0.666161,0.665881,1.03028,2,0.841811,10,0.000686042,-2.98705,0.0618083,0.954564,0.664037,
2,1,0,1,0,607.523,0.66236,0.662093,0.898676,2,0.842535,10,0.000595007,-3.0464,0.0596649,0.988855,0.660484,
2,1,0,0,0,608.283,0.658559,0.658285,0.777421,2,0.843163,10,0.000511764,-3.10934,0.0550388,1.07197,0.656893,
2,1,0,1,0,609.043,0.654758,0.654572,0.66548,2,0.843703,10,0.000435604,-3.17687,0.0532872,1.10721,0.653381,
2,1,0,0,0,609.803,0.650957,0.650707,0.564286,2,0.844162,10,0.000367185,-3.2485,0.0521022,1.13239,0.649697,
2,1,0,1,0,610.564,0.647156,0.646956,0.472113,2,0.844548,10,0.000305436,-3.32595,0.0444364,1.32774,0.646111,
2,1,0,0,0,611.324,0.643355,0.643101,0.388046,2,0.844868,10,0.000249553,-3.41112,0.0426528,1.38326,0.642406,
2,1,0,1,0,612.084,0.639554,0.63936,0.314299,2,0.845127,10,0.00020095,-3.50266,0.0368873,1.59947,0.638797,
2,1,0,0,0,612.844,0.635753,0.635494,0.246847,2,0.845333,10,0.00015687,-3.60757,0.0319698,1.84549,0.635053,
2,1,0,0,0,613.605,0.631952,0.631782,0.18796,2,0.84549,10,0.00011875,-3.72593,0.0285026,2.06998,0.631445,
2,1,0,1,0,614.365,0.628151,0.627879,0.131855,2,0.845605,10,8.27892e-05,-3.8799,0.0241836,2.43967,0.627643,
2,1,0,0,0,615.125,0.62435,0.624176,0.0862234,2,0.845681,10,5.38185e-05,-4.06437,0.0147787,3.99223,0.624021,
2,1,0,1,0,615.885,0.620548,0.620349,0.0440831,2,0.845723,10,2.73469e-05,-4.35573,0.00905667,6.51453,0.62027,
2,1,0,0,0,616.645,0.616747,0.616541,0.00617427,2,0.845736,10,3.80669e-06,-5.20941,0.00115295,51.1733,0.61653,
2,0,0,1,0,617.406,0.612946,0.612685,-0.0242319,2,0.845723,10,-1.48465e-05,-4.61561,-0.00783273,-7.53249,0.612728,
2,0,0,0,0,618.166,0.609145,0.608982,-0.0521914,2,0.845688,10,-3.17836e-05,-4.2824,-0.0153628,-3.84046,0.609076,
2,0,0,1,0,618.926,0.605344,0.605117,-0.074764,2,0.845634,10,-4.5241e-05,-4.12631,-0.0260612,-2.26391,0.605251,
2,0,0,0,0,619.686,0.601543,0.601433,-0.0969732,2,0.845563,10,-5.83229e-05,-4.01335,-0.0488515,-1.20774,0.601607,
2,0,0,1,0,620.446,0.597742,0.597511,-0.115457,2,0.845477,10,-6.89868e-05,-3.93758,-0.056589,-1.04261,0.597717,
2,0,0,0,0,621.207,0.593941,0.593684,-0.130722,2,0.845377,10,-7.76074e-05,-3.88365,-0.0711595,-0.829123,0.593918,
2,0,0,1,0,621.967,0.59014,0.589933,-0.143384,2,0.845266,10,-8.4587e-05,-3.8435,-0.0974716,-0.605305,0.59019,
2,0,0,1,0,622.727,0.586339,0.586135,-0.154392,2,0.845147,10,-9.04942e-05,-3.81138,-0.173252,-0.340543,0.586411,
2,0,0,0,0,623.487,0.582538,0.582241,-0.164944,2,0.84502,10,-9.60373e-05,-3.78266,-0.123832,-0.476453,0.582536,
2,0,0,1,0,624.248,0.578736,0.578557,-0.173381,2,0.844885,10,-0.000100311,-3.761,-0.217697,-0.271019,0.578867,
2,0,0,0,0,625.008,0.574935,0.574711,-0.181014,2,0.844745,10,-0.000104031,-3.74229,-0.179231,-0.329184,0.575035,
2,0,0,1,0,625.768,0.571134,0.570912,-0.187225,2,0.8446,10,-0.000106889,-3.72764,-0.286918,-0.205633,0.571248,
2,0,0,0,0,626.528,0.567333,0.567009,-0.19341,2,0.84445,10,-0.000109665,-3.71352,-0.593469,-0.0994156,0.567355,
2,0,0,1,0,627.288,0.563532,0.563363,-0.197706,2,0.844296,10,-0.000111381,-3.70398,-0.679949,-0.0867712,0.563717,
2,0,0,0,0,628.049,0.559731,0.559536,-0.200315,2,0.844139,10,-0.000112084,-3.69829,-0.298277,-0.197803,0.559895,
2,0,0,1,0,628.809,0.55593,0.5557,-0.204826,2,0.843979,10,-0.000113822,-3.68861,-0.637234,-0.0925877,0.556066,
2,0,0,0,0,629.569,0.552129,0.551901,-0.207883,2,0.843816,10,-0.000114731,-3.68218,-0.890028,-0.06629,0.552274,
2,0,0,1,0,630.329,0.548328,0.548074,-0.209681,2,0.84365,10,-0.000114921,-3.67844,-1.37335,-0.0429606,0.54845,
2,0,0,0,0,631.089,0.544527,0.544247,-0.214237,2,0.843483,10,-0.000116598,-3.66911,3.77022,0.015649,0.544631,
2,0,0,1,0,631.85,0.540726,0.540478,-0.216696,2,0.843313,10,-0.00011712,-3.66415,-2.67659,-0.022043,0.540866,
2,0,0,1,0,632.61,0.536925,0.536689,-0.219974,2,0.843141,10,-0.000118058,-3.65763,-0.843794,-0.0699223,0.537083,
2,0,0,0,0,633.37,0.533123,0.5329,-0.219461,2,0.842969,10,-0.000116951,-3.65864,-0.81192,-0.0726672,0.533293,
2,0,0,1,0,634.13,0.529322,0.529159,-0.221486,2,0.842794,10,-0.000117201,-3.65465,-1.95218,-0.0302226,0.529555,
2,0,0,0,0,634.891,0.525521,0.525265,-0.223563,2,0.842618,10,-0.00011743,-3.6506,-0.940771,-0.0627145,0.525665,
2,0,0,1,0,635.651,0.52172,0.521619,-0.224063,2,0.84244,10,-0.000116875,-3.64963,-0.36327,-0.162413,0.522021,
2,0,0,0,0,636.411,0.517919,0.517726,-0.226847,2,0.842262,10,-0.000117445,-3.64427,-10.9123,-0.00540676,0.518132,
2,0,0,1,0,637.171,0.514118,0.51386,-0.228554,2,0.842081,10,-0.000117445,-3.64101,-1.23102,-0.0479278,0.51427,
2,0,0,0,0,637.931,0.510317,0.509986,-0.229943,2,0.8419,10,-0.000117268,-3.63838,3.1494,0.0187338,0.510397,
2,0,0,1,0,638.692,0.506516,0.506197,-0.231728,2,0.841717,10,-0.0001173,-3.63502,-1.13529,-0.0519692,0.506612,
2,0,0,0,0,639.452,0.502715,0.502503,-0.232565,2,0.841533,10,-0.000116865,-3.63346,-2.51196,-0.0234876,0.50292,
2,0,0,1,0,640.212,0.498914,0.49861,-0.234194,2,0.841348,10,-0.000116771,-3.63042,-0.849424,-0.0694588,0.499029,
2,0,0,1,0,640.972,0.495113,0.494916,-0.234868,2,0.841161,10,-0.00011624,-3.62918,-1.8492,-0.0319056,0.495337,
2,0,0,0,0,641.733,0.491312,0.491156,-0.237186,2,0.840974,10,-0.000116495,-3.62491,-0.656351,-0.089891,0.491581,
2,0,0,1,0,642.493,0.487511,0.487281,-0.238899,2,0.840784,10,-0.000116411,-3.62179,-1.63088,-0.0361768,0.487709,
2,0,0,0,0,643.253,0.483709,0.483407,-0.241067,2,0.840594,10,-0.000116533,-3.61786,-91.4116,-0.000645432,0.483838,
2,0,0,1,0,644.013,0.479908,0.479751,-0.242904,2,0.840402,10,-0.000116533,-3.61457,-0.494051,-0.119421,0.480186,
2,0,0,0,0,644.773,0.476107,0.475886,-0.244805,2,0.840209,10,-0.000116499,-3.61118,-0.711982,-0.0828673,0.476324,
2,0,0,1,0,645.534,0.472306,0.472059,-0.246992,2,0.840014,10,-0.000116595,-3.60732,0.636346,0.0927169,0.472501,
2,0,0,0,0,646.294,0.468505,0.46827,-0.249063,2,0.839819,10,-0.000116629,-3.60369,-0.557778,-0.105777,0.468716,
2,0,0,1,0,647.054,0.464704,0.464548,-0.251808,2,0.839621,10,-0.000116977,-3.59893,-1.38748,-0.0425232,0.464999,
2,0,0,0,0,647.814,0.460903,0.460588,-0.253392,2,0.839421,10,-0.000116709,-3.59621,-7.04257,-0.00837762,0.461041,
2,0,0,1,0,648.574,0.457102,0.456961,-0.255845,2,0.839221,10,-0.000116911,-3.59202,-0.463185,-0.127379,0.457419,
2,0,0,0,0,649.335,0.453301,0.453096,-0.258584,2,0.839018,10,-0.000117163,-3.5874,-1.05256,-0.0560539,0.453559,
2,0,0,1,0,650.095,0.4495,0.449298,-0.262675,2,0.838814,10,-0.000118019,-3.58058,-0.435006,-0.13563,0.449768,
2,0,0,1,0,650.855,0.445699,0.44548,-0.262913,2,0.838608,10,-0.000117122,-3.58019,-4.03473,-0.014623,0.445951,
2,0,0,0,0,651.615,0.441898,0.441634,-0.266988,2,0.8384,10,-0.000117911,-3.57351,-1.07907,-0.0546767,0.442112,
2,0,0,1,0,652.376,0.438096,0.437778,-0.270915,2,0.83819,10,-0.000118601,-3.56717,-0.652412,-0.0904337,0.438263,
2,0,0,0,0,653.136,0.434295,0.434047,-0.272304,2,0.837978,10,-0.000118193,-3.56495,-0.464303,-0.127072,0.434534,
2,0,0,1,0,653.896,0.430494,0.430306,-0.27514,2,0.837764,10,-0.000118394,-3.56045,-0.619683,-0.09521,0.430798,
2,0,0,0,0,654.656,0.426693,0.426469,-0.278976,2,0.837548,10,-0.000118975,-3.55443,-1.04987,-0.0561975,0.426969,
2,0,0,1,0,655.416,0.422892,0.422671,-0.280864,2,0.83733,10,-0.000118713,-3.5515,-0.829591,-0.0711194,0.423174,
2,0,0,0,0,656.177,0.419091,0.418825,-0.281929,2,0.837109,10,-0.000118079,-3.54986,-0.504229,-0.11701,0.419329,
2,0,0,1,0,656.937,0.41529,0.415064,-0.285868,2,0.836886,10,-0.000118654,-3.54383,-1.25872,-0.0468729,0.415576,
2,0,0,0,0,657.697,0.411489,0.411199,-0.288529,2,0.836661,10,-0.000118643,-3.53981,2.00388,0.0294428,0.411716,
2,0,0,1,0,658.457,0.407688,0.407477,-0.291093,2,0.836433,10,-0.000118614,-3.53597,1.2328,0.0478584,0.407998,
2,0,0,1,0,659.217,0.403887,0.403698,-0.293867,2,0.836203,10,-0.000118633,-3.53185,-0.601635,-0.098066,0.404224,
2,0,0,0,0,659.978,0.400086,0.399842,-0.296025,2,0.83597,10,-0.000118363,-3.52867,-0.733341,-0.0804537,0.400372,
2,0,0,1,0,660.738,0.396285,0.396082,-0.301587,2,0.835735,10,-0.000119453,-3.52059,-1.13012,-0.0522068,0.396622,
2,0,0,0,0,661.498,0.392483,0.392198,-0.303048,2,0.835498,10,-0.000118855,-3.51849,-0.343924,-0.17155,0.39274,
2,0,0,1,0,662.258,0.388682,0.388495,-0.30604,2,0.835257,10,-0.000118895,-3.51422,-0.355788,-0.165829,0.389043,
2,0,0,0,0,663.019,0.384881,0.384601,-0.311258,2,0.835014,10,-0.00011971,-3.50688,-0.463672,-0.127245,0.385158,
2,0,0,1,0,663.779,0.38108,0.38086,-0.314009,2,0.834768,10,-0.000119594,-3.50306,-0.426789,-0.138242,0.381422,
2,0,0,0,0,664.539,0.377279,0.377148,-0.318254,2,0.83452,10,-0.000120029,-3.49723,-0.529875,-0.111347,0.377717,
2,0,0,1,0,665.299,0.373478,0.373292,-0.323173,2,0.834268,10,-0.000120638,-3.49056,-0.894895,-0.0659295,0.37387,
2,0,0,0,0,666.059,0.369677,0.369398,-0.329047,2,0.834012,10,-0.000121549,-3.48274,0.411992,0.143207,0.369987,
2,0,0,1,0,666.82,0.365876,0.365619,-0.332117,2,0.833755,10,-0.000121428,-3.47871,-0.796954,-0.0740318,0.366213,
2,0,0,0,0,667.58,0.362075,0.361792,-0.336459,2,0.833495,10,-0.000121728,-3.47307,-0.639906,-0.092201,0.362394,
2,0,0,1,0,668.34,0.358274,0.358022,-0.33895,2,0.833232,10,-0.000121352,-3.46986,-0.539349,-0.109391,0.358629,
2,0,0,1,0,669.1,0.354473,0.354271,-0.344662,2,0.832966,10,-0.000122104,-3.46261,-0.570297,-0.103455,0.354888,
2,0,0,0,0,669.861,0.350672,0.350492,-0.348057,2,0.832696,10,-0.000121991,-3.45835,-0.972765,-0.0606519,0.351115,
2,0,0,1,0,670.621,0.34687,0.346608,-0.350938,2,0.832424,10,-0.000121638,-3.45477,-0.644593,-0.0915306,0.347236,
2,0,0,0,0,671.381,0.343069,0.342829,-0.353606,2,0.832148,10,-0.000121226,-3.45148,-2.80642,-0.0210232,0.343461,
2,0,0,1,0,672.141,0.339268,0.339002,-0.357175,2,0.83187,10,-0.000121083,-3.44712,-1.12446,-0.0524698,0.339641,
2,0,0,0,0,672.901,0.335467,0.335289,-0.362218,2,0.831588,10,-0.000121448,-3.44103,-1.10238,-0.0535206,0.335937,
2,0,0,1,0,673.662,0.331666,0.331376,-0.365327,2,0.831303,10,-0.000121061,-3.43732,-1.26456,-0.0466565,0.33203,
2,0,0,0,0,674.422,0.327865,0.327721,-0.368656,2,0.831016,10,-0.000120816,-3.43338,-1.25594,-0.0469767,0.328381,
2,0,0,1,0,675.182,0.324064,0.323846,-0.374179,2,0.830726,10,-0.000121177,-3.42692,-0.630723,-0.0935434,0.324516,
2,0,0,0,0,675.942,0.320263,0.319991,-0.376152,2,0.830432,10,-0.000120365,-3.42464,-0.950499,-0.0620727,0.320664,
2,0,0,1,0,676.702,0.316462,0.316183,-0.379242,2,0.830137,10,-0.00011991,-3.42108,-0.437823,-0.134758,0.316861,
2,0,0,1,0,677.463,0.312661,0.312384,-0.383615,2,0.829838,10,-0.000119835,-3.4161,-0.591392,-0.0997646,0.313071,
2,0,0,0,0,678.223,0.30886,0.308615,-0.38862,2,0.829535,10,-0.000119934,-3.41048,-1.2335,-0.0478313,0.30931,
2,0,0,1,0,678.983,0.305059,0.304788,-0.392923,2,0.82923,10,-0.000119758,-3.40569,-2.78771,-0.0211643,0.305491,
2,0,0,0,0,679.743,0.301258,0.301037,-0.398511,2,0.828922,10,-0.000119966,-3.39956,-0.644682,-0.0915181,0.30175,
2,0,0,1,0,680.504,0.297456,0.297191,-0.402288,2,0.82861,10,-0.000119556,-3.39546,-0.703202,-0.0839019,0.297911,
2,0,0,0,0,681.264,0.293655,0.293354,-0.408629,2,0.828296,10,-0.000119873,-3.38867,-0.533571,-0.110576,0.294086,
2,0,0,1,0,682.024,0.289854,0.289575,-0.410316,2,0.827978,10,-0.000118817,-3.38688,-0.651168,-0.0906064,0.290309,
2,0,0,0,0,682.784,0.286053,0.285834,-0.416229,2,0.827657,10,-0.000118972,-3.38067,-0.59029,-0.0999509,0.286579,
2,0,0,1,0,683.544,0.282252,0.282016,-0.42085,2,0.827333,10,-0.000118686,-3.37587,-1.71387,-0.034425,0.28277,
2,0,0,0,0,684.305,0.278451,0.278285,-0.423894,2,0.827005,10,-0.000117963,-3.37274,-0.336509,-0.175329,0.279044,
2,0,0,1,0,685.065,0.27465,0.274477,-0.430215,2,0.826674,10,-0.000118084,-3.36631,-0.772423,-0.076383,0.275247,
2,0,0,0,0,685.825,0.270849,0.270612,-0.433622,2,0.826339,10,-0.000117343,-3.36289,-1.24777,-0.0472844,0.271388,
2,0,0,1,0,686.585,0.267048,0.266785,-0.438315,2,0.826001,10,-0.000116936,-3.35821,-3.25805,-0.018109,0.267569,
2,0,0,1,0,687.346,0.263247,0.262939,-0.443948,2,0.825658,10,-0.000116731,-3.35267,-0.959887,-0.0614656,0.263733,
2,0,0,0,0,688.106,0.259446,0.259207,-0.44864,2,0.825311,10,-0.000116291,-3.3481,-0.780641,-0.0755789,0.26001,
2,0,0,1,0,688.866,0.255644,0.255265,-0.453943,2,0.824959,10,-0.000115876,-3.343,-0.752563,-0.0783987,0.256078,
2,0,0,0,0,689.626,0.251843,0.251524,-0.459654,2,0.824604,10,-0.000115614,-3.33757,-0.466226,-0.126548,0.252347,
2,0,0,1,0,690.386,0.248042,0.247898,-0.466897,2,0.824242,10,-0.000115743,-3.33078,-0.574033,-0.102782,0.248734,
2,0,0,0,0,691.147,0.244241,0.244061,-0.473816,2,0.823876,10,-0.00011564,-3.32439,-0.469572,-0.125646,0.244909,
2,0,0,1,0,691.907,0.24044,0.240215,-0.480487,2,0.823504,10,-0.00011542,-3.31832,-1.2022,-0.0490769,0.241075,
2,0,0,0,0,692.667,0.236639,0.236436,-0.489217,2,0.823127,10,-0.000115668,-3.3105,-0.475,-0.124211,0.237312,
2,0,0,1,0,693.427,0.232838,0.232475,-0.50121,2,0.822742,10,-0.000116519,-3.29998,-0.460446,-0.128137,0.233372,
2,0,0,0,0,694.187,0.229037,0.228782,-0.509356,2,0.82235,10,-0.000116531,-3.29298,-0.95124,-0.0620243,0.229694,
2,0,0,1,0,694.948,0.225236,0.224964,-0.518922,2,0.821951,10,-0.000116739,-3.2849,-0.438347,-0.134597,0.225893,
2,0,0,1,0,695.708,0.221435,0.221109,-0.532741,2,0.821543,10,-0.000117794,-3.27348,-0.324188,-0.181993,0.222062,
2,0,0,0,0,696.468,0.217634,0.217396,-0.544629,2,0.821125,10,-0.0001184,-3.2639,-0.317899,-0.185593,0.218371,
2,0,0,1,0,697.228,0.213833,0.213655,-0.559842,2,0.820697,10,-0.000119613,-3.25193,-0.241922,-0.243881,0.214657,
2,0,0,0,0,697.989,0.210032,0.209714,-0.57819,2,0.820256,10,-0.000121254,-3.23793,-0.256117,-0.230364,0.210749,
2,0,0,1,0,698.749,0.20623,0.20603,-0.59853,2,0.8198,10,-0.000123315,-3.22291,-0.269233,-0.219141,0.207101,
2,0,0,0,0,699.509,0.202429,0.202212,-0.619084,2,0.819328,10,-0.000125186,-3.20825,-0.30415,-0.193983,0.20332,
2,0,0,1,0,700.269,0.198628,0.198366,-0.647017,2,0.818839,10,-0.000128346,-3.18908,-0.207162,-0.284801,0.199524,
2,0,0,0,0,701.029,0.194827,0.194606,-0.67632,2,0.818328,10,-0.000131616,-3.16985,-0.194632,-0.303136,0.195817,
2,0,0,1,0,701.79,0.191026,0.190855,-0.712217,2,0.817793,10,-0.00013593,-3.14739,-0.15205,-0.388031,0.19213,
2,0,0,0,0,702.55,0.187225,0.186914,-0.750249,2,0.817231,10,-0.000140232,-3.12479,-0.132719,-0.444549,0.188257,
2,0,0,1,0,703.31,0.183424,0.183163,-0.797569,2,0.816636,10,-0.000146085,-3.09823,-0.12704,-0.46442,0.184591,
2,0,0,0,0,704.07,0.179623,0.179365,-0.850651,2,0.816002,10,-0.000152577,-3.07025,-0.124527,-0.473795,0.180887,
2,0,0,1,0,704.83,0.175822,0.175624,-0.908737,2,0.815326,10,-0.000159596,-3.04156,-0.117405,-0.502534,0.17725,
2,0,0,1,0,705.591,0.172021,0.171806,-0.983718,2,0.8146,10,-0.000169009,-3.00713,-0.11494,-0.513312,0.173567,
2,0,0,0,0,706.351,0.16822,0.167989,-1.06545,2,0.813815,10,-0.000178983,-2.97247,-0.0975665,-0.604716,0.169896,
2,0,0,1,0,707.111,0.164419,0.164152,-1.1622,2,0.81296,10,-0.000190777,-2.93472,-0.113242,-0.521007,0.166232,
2,0,0,0,0,707.871,0.160617,0.160373,-1.27135,2,0.812029,10,-0.000203891,-2.89573,-0.0891605,-0.661728,0.162649,
2,0,0,1,0,708.632,0.156816,0.156565,-1.39202,2,0.811008,10,-0.000217941,-2.85636,-0.0992844,-0.594253,0.159057,
2,0,0,0,0,709.392,0.153015,0.152709,-1.52013,2,0.809892,10,-0.000232138,-2.81812,-0.0928054,-0.635739,0.15543,
2,0,0,1,0,710.152,0.149214,0.14894,-1.64535,2,0.808681,10,-0.000245057,-2.78374,-0.0976592,-0.604142,0.151885,
2,0,0,0,0,710.912,0.145413,0.145246,-1.77213,2,0.807372,10,-0.000257394,-2.75151,-0.118386,-0.498369,0.148418,
2,0,0,1,0,711.672,0.141612,0.141371,-1.88627,2,0.805971,10,-0.000266664,-2.7244,-0.144869,-0.407264,0.144748,
2,0,0,0,0,712.433,0.137811,0.137583,-1.98082,2,0.804491,10,-0.000272527,-2.70315,-0.173166,-0.340713,0.141128,
2,0,0,1,0,713.193,0.13401,0.133784,-2.05597,2,0.802946,10,-0.000275056,-2.68698,-0.273358,-0.215834,0.137464,
2,0,0,1,0,713.953,0.130209,0.129929,-2.10114,2,0.801354,10,-0.000272999,-2.67754,-0.784176,-0.0752382,0.13369,
2,0,0,0,0,714.713,0.126408,0.126149,-2.10382,2,0.799744,10,-0.000265396,-2.67699,0.671707,0.0878359,0.129915,
2,0,0,1,0,715.474,0.122607,0.122313,-2.06596,2,0.798149,10,-0.000252693,-2.68488,0.28266,0.208731,0.126011,
2,0,0,0,0,716.234,0.118806,0.118591,-1.98639,2,0.796598,10,-0.000235567,-2.70194,0.185048,0.318835,0.122146,
2,0,0,1,0,716.994,0.115004,0.114783,-1.87122,2,0.795121,10,-0.000214783,-2.72788,0.140898,0.418744,0.118132,
2,0,0,0,0,717.754,0.111203,0.110937,-1.73119,2,0.793743,10,-0.000192052,-2.76166,0.111545,0.528936,0.114036,
2,0,0,1,0,718.514,0.107402,0.107205,-1.57691,2,0.792478,10,-0.000169053,-2.80219,0.0950151,0.620954,0.110028,
2,0,0,0,0,719.275,0.103601,0.103321,-1.42625,2,0.791328,10,-0.000147362,-2.8458,0.0928009,0.63577,0.105874,
2,0,0,1,0,720.035,0.0998001,0.0995511,-1.28845,2,0.790288,10,-0.000128267,-2.88993,0.0879068,0.671165,0.101857,
2,0,0,0,0,720.795,0.0959991,0.0957814,-1.17895,2,0.789343,10,-0.000112922,-2.9285,0.106623,0.553353,0.0978917,
2,0,0,1,0,721.555,0.092198,0.0919353,-1.09158,2,0.788473,10,-0.000100355,-2.96195,0.130362,0.452585,0.0938892,
2,0,0,0,0,722.315,0.0883969,0.088156,-1.02327,2,0.787662,10,-9.02073e-05,-2.99001,0.162374,0.363359,0.0899876,
2,0,0,1,0,723.076,0.0845958,0.0843958,-0.971864,2,0.786896,10,-8.20213e-05,-3.01239,0.198596,0.297085,0.0861354,
2,0,0,1,0,723.836,0.0807947,0.0804829,-0.937963,2,0.786162,10,-7.549e-05,-3.02781,0.262919,0.224404,0.0821618,
2,0,0,0,0,724.596,0.0769937,0.0767322,-0.904993,2,0.785453,10,-6.94421e-05,-3.04335,0.342283,0.172372,0.0783522,
2,0,0,1,0,725.356,0.0731926,0.072972,-0.882953,2,0.784765,10,-6.44309e-05,-3.05406,0.440744,0.133864,0.0745525,
2,0,0,0,0,726.117,0.0693915,0.0692118,-0.866572,2,0.784091,10,-5.9977e-05,-3.0622,0.452163,0.130484,0.070763,
2,0,0,1,0,726.877,0.0655904,0.0653562,-0.850119,2,0.78343,10,-5.55606e-05,-3.07052,0.512918,0.115028,0.0668779,
2,0,0,0,0,727.637,0.0617893,0.0615387,-0.835763,2,0.782778,10,-5.14318e-05,-3.07792,0.406098,0.145285,0.0630347,
2,0,0,1,0,728.397,0.0579882,0.0576831,-0.826846,2,0.782137,10,-4.7695e-05,-3.08258,1.08654,0.0543008,0.0591631,
2,0,0,0,0,729.157,0.0541872,0.0539229,-0.818759,2,0.781502,10,-4.41499e-05,-3.08684,1.11204,0.0530554,0.0553885,
2,0,0,1,0,729.918,0.0503861,0.0501245,-0.814268,2,0.780871,10,-4.08148e-05,-3.08923,1.13134,0.0521504,0.051582,
2,0,0,0,0,730.678,0.046585,0.0463261,-0.808083,2,0.780246,10,-3.74354e-05,-3.09254,2.14617,0.0274908,0.0477726,
2,0,0,1,0,731.438,0.0427839,0.0425278,-0.806499,2,0.779623,10,-3.42986e-05,-3.0934,1.33592,0.0441642,0.0439714,
2,0,0,1,0,732.198,0.0389828,0.0387008,-0.805757,2,0.779001,10,-3.11834e-05,-3.0938,1.96265,0.0300614,0.0401431,
2,0,0,0,0,732.959,0.0351817,0.034931,-0.803241,2,0.77838,10,-2.8058e-05,-3.09515,-2.62168,-0.0225046,0.0363688,
2,0,0,1,0,733.719,0.0313807,0.0311708,-0.806979,2,0.777759,10,-2.51542e-05,-3.09314,-3.28905,-0.0179383,0.0326153,
2,0,0,0,0,734.479,0.0275796,0.0272388,-0.809212,2,0.777136,10,-2.2042e-05,-3.09194,-1.56816,-0.0376238,0.0286873,
2,0,0,1,0,735.239,0.0237785,0.0234977,-0.81175,2,0.776511,10,-1.90743e-05,-3.09058,8.10609,0.00727847,0.0249507,
2,0,0,0,0,735.999,0.0199774,0.0196993,-0.815735,2,0.775883,10,-1.60694e-05,-3.08845,-1.52831,-0.0386046,0.0211595,
2,0,0,1,0,736.76,0.0161763,0.0159105,-0.821816,2,0.775252,10,-1.30755e-05,-3.08523,-1.45678,-0.0405003,0.0173815,
2,0,0,0,0,737.52,0.0123753,0.0121026,-0.829202,2,0.774615,10,-1.00355e-05,-3.08134,-0.84988,-0.0694216,0.0135868,
2,0,0,1,0,738.28,0.00857417,0.00835191,-0.836834,2,0.773974,10,-6.98917e-06,-3.07736,-0.753147,-0.0783379,0.00984985,
2,0,0,0,0,739.04,0.00477309,0.00451536,-0.846452,2,0.773326,10,-3.82204e-06,-3.0724,-0.134641,-0.438204,0.00603051,
2,0,0,1,0,739.8,0.000972007,0.000745618,-0.861905,2,0.772666,10,-6.42652e-07,-3.06454,-1.89034,-0.0312113,0.00228843,
2,0,0,0,0,739.961,0.000171779,-8.46803e-05,-0.861308,2,0.772526,10,7.29358e-08,-3.06484, , ,0.00145706,