File: Figure_codes/Fig_2_S1_S6/20220924_003_MultiCV_0_850mV_1-84_C_02_CV_C01_50.csv
mode,ox/red,error,control changes,counter inc.,time/s,control/V,Ewe/V,<I>/mA,cycle number,(Q-Qo)/C,I Range,P/W,log(|I|),Tafel slope mV/dec,alpha_eff,E-IR/V,
2,0,0,0,0,18529.7,2.17368e-05,-0.000447339,-0.178898,51,0.0000000E+000,10,8.00281e-08,-3.74739, , ,-0.000127112,
2,1,0,1,0,18530.4,0.00377281,0.0034751,0.0249677,51,-3.29593e-05,10,8.67654e-08,-4.60262,0.0008451,69.8142,0.00343041,
2,1,0,1,0,18531.2,0.00757389,0.00736892,0.122841,51,3.42032e-05,10,9.05203e-07,-3.91066,0.0135722,4.34713,0.00714903,
2,1,0,0,0,18531.9,0.011375,0.0111864,0.185289,51,0.00015777,10,2.07271e-06,-3.73215,0.0302141,1.95273,0.0108547,
2,1,0,1,0,18532.7,0.0151761,0.0148989,0.229194,51,0.000320951,10,3.41473e-06,-3.6398,0.0504754,1.16889,0.0144886,
2,1,0,0,0,18533.5,0.0189771,0.0186304,0.262709,51,0.000513206,10,4.89439e-06,-3.58052,0.0689821,0.855295,0.0181602,
2,1,0,1,0,18534.2,0.0227782,0.0224956,0.28656,51,0.000727353,10,6.44635e-06,-3.54278,0.126783,0.465362,0.0219827,
2,1,0,0,0,18535,0.0265793,0.026294,0.305992,51,0.000957801,10,8.04575e-06,-3.51429,0.171209,0.344608,0.0257463,
2,1,0,1,0,18535.7,0.0303804,0.0302737,0.321042,51,0.0012015,10,9.71914e-06,-3.49344,0.21131,0.279211,0.029699,
2,1,0,0,0,18536.5,0.0341815,0.033948,0.332329,51,0.00145568,10,1.12819e-05,-3.47843,0.365604,0.161377,0.0333531,
2,1,0,1,0,18537.3,0.0379825,0.037651,0.342732,51,0.00171799,10,1.29042e-05,-3.46504,0.294789,0.200143,0.0370375,
2,1,0,0,0,18538,0.0417836,0.0415161,0.350183,51,0.00198738,10,1.45382e-05,-3.4557,0.27664,0.213274,0.0408893,
2,1,0,1,0,18538.8,0.0455847,0.0453241,0.357153,51,0.00226271,10,1.61876e-05,-3.44715,0.608486,0.096962,0.0446847,
2,1,0,1,0,18539.5,0.0493858,0.0490843,0.363621,51,0.00254326,10,1.78481e-05,-3.43935,0.631762,0.0933896,0.0484334,
2,1,0,0,0,18540.3,0.0531869,0.0529017,0.369361,51,0.00282827,10,1.95399e-05,-3.43255,0.616408,0.0957159,0.0522406,
2,1,0,1,0,18541.1,0.056988,0.0567383,0.37726,51,0.00311811,10,2.14051e-05,-3.42336,0.510781,0.115509,0.056063,
2,1,0,0,0,18541.8,0.060789,0.0604985,0.382381,51,0.00341234,10,2.31334e-05,-3.4175,0.550551,0.107165,0.059814,
2,1,0,1,0,18542.6,0.0645901,0.0643064,0.388631,51,0.00371009,10,2.49914e-05,-3.41046,0.548039,0.107657,0.0636107,
2,1,0,0,0,18543.3,0.0683912,0.0681239,0.395199,51,0.00401258,10,2.69225e-05,-3.40318,0.65348,0.0902858,0.0674164,
2,1,0,1,0,18544.1,0.0721923,0.0719318,0.400605,51,0.00431956,10,2.88162e-05,-3.39728,1.03832,0.0568228,0.0712147,
2,1,0,0,0,18544.9,0.0759934,0.0757111,0.40714,51,0.0046312,10,3.0825e-05,-3.39026,0.365979,0.161211,0.0749823,
2,1,0,1,0,18545.6,0.0797945,0.0795763,0.41572,51,0.00494853,10,3.30815e-05,-3.3812,0.423403,0.139347,0.0788321,
2,1,0,0,0,18546.4,0.0835955,0.0833937,0.424164,51,0.00527242,10,3.53726e-05,-3.37247,0.739451,0.0797889,0.0826345,
2,1,0,1,0,18547.1,0.0873966,0.087068,0.433529,51,0.00560319,10,3.77465e-05,-3.36298,0.462194,0.127652,0.086292,
2,1,0,0,0,18547.9,0.0911977,0.090771,0.445711,51,0.00594191,10,4.04576e-05,-3.35095,0.304207,0.193947,0.0899731,
2,1,0,1,0,18548.7,0.0949988,0.094703,0.457958,51,0.00629068,10,4.33699e-05,-3.33917,0.318442,0.185277,0.0938832,
2,1,0,1,0,18549.4,0.0987999,0.0986254,0.474294,51,0.0066508,10,4.67774e-05,-3.32395,0.278143,0.212121,0.0977764,
2,1,0,0,0,18550.2,0.102601,0.102347,0.493316,51,0.007024,10,5.04896e-05,-3.30687,0.196593,0.300113,0.101464,
2,1,0,1,0,18550.9,0.106402,0.106136,0.515091,51,0.00741345,10,5.46698e-05,-3.28812,0.162558,0.362948,0.105214,
2,1,0,0,0,18551.7,0.110203,0.109906,0.542622,51,0.00782234,10,5.96374e-05,-3.2655,0.184719,0.319405,0.108935,
2,1,0,1,0,18552.5,0.114004,0.113723,0.572191,51,0.00825241,10,6.50715e-05,-3.24246,0.139667,0.422433,0.112699,
2,1,0,0,0,18553.2,0.117805,0.117531,0.60958,51,0.00870773,10,7.16448e-05,-3.21497,0.129499,0.455601,0.11644,
2,1,0,1,0,18554,0.121606,0.121377,0.654485,51,0.00919417,10,7.94398e-05,-3.1841,0.112568,0.52413,0.120206,
2,1,0,0,0,18554.7,0.125407,0.125128,0.704751,51,0.00971621,10,8.81842e-05,-3.15196,0.131599,0.448332,0.123867,
2,1,0,1,0,18555.5,0.129209,0.128917,0.763591,51,0.0102783,10,9.84398e-05,-3.11714,0.100082,0.589516,0.12755,
2,1,0,0,0,18556.3,0.13301,0.132792,0.83053,51,0.0108887,10,0.000110287,-3.08064,0.103995,0.567334,0.131305,
2,1,0,1,0,18557,0.136811,0.136533,0.902025,51,0.011552,10,0.000123156,-3.04478,0.102484,0.575699,0.134918,
2,1,0,1,0,18557.8,0.140612,0.140408,0.977713,51,0.0122715,10,0.000137278,-3.00979,0.111095,0.531075,0.138657,
2,1,0,0,0,18558.5,0.144413,0.144215,1.05607,51,0.0130504,10,0.000152302,-2.97631,0.11618,0.507833,0.142325,
2,1,0,1,0,18559.3,0.148214,0.147995,1.13178,51,0.0138874,10,0.000167497,-2.94624,0.120645,0.489036,0.145969,
2,1,0,0,0,18560.1,0.152015,0.151764,1.19972,51,0.0147804,10,0.000182075,-2.92092,0.153806,0.383601,0.149617,
2,1,0,1,0,18560.8,0.155816,0.155601,1.26303,51,0.0157239,10,0.000196529,-2.89859,0.182276,0.323685,0.15334,
2,1,0,0,0,18561.6,0.159617,0.159428,1.31709,51,0.0167123,10,0.000209981,-2.88039,0.261977,0.225211,0.15707,
2,1,0,1,0,18562.3,0.163418,0.163121,1.35701,51,0.0177359,10,0.000221358,-2.86742,0.355469,0.165978,0.160692,
2,1,0,0,0,18563.1,0.167219,0.166939,1.38401,51,0.0187851,10,0.000231045,-2.85886,0.433625,0.136062,0.164462,
2,1,0,1,0,18563.9,0.17102,0.170775,1.40076,51,0.0198511,10,0.000239216,-2.85363,1.39353,0.0423386,0.168268,
2,1,0,0,0,18564.6,0.174822,0.174641,1.40145,51,0.0209234,10,0.000244751,-2.85342,-2.94424,-0.0200391,0.172132,
2,1,0,1,0,18565.4,0.178623,0.178334,1.38884,51,0.0219911,10,0.000247677,-2.85735,-0.754936,-0.0781523,0.175848,
2,1,0,0,0,18566.1,0.182424,0.182152,1.36485,51,0.0230443,10,0.000248609,-2.86492,-0.412161,-0.143148,0.179708,
2,1,0,1,0,18566.9,0.186225,0.185902,1.32429,51,0.0240725,10,0.000246187,-2.87802,-0.253924,-0.232353,0.183532,
2,1,0,1,0,18567.7,0.190026,0.189786,1.26768,51,0.0250645,10,0.000240588,-2.89699,-0.173625,-0.339813,0.187517,
2,1,0,0,0,18568.4,0.193827,0.193575,1.20011,51,0.0260081,10,0.000232312,-2.92078,-0.152743,-0.38627,0.191427,
2,1,0,1,0,18569.2,0.197628,0.197326,1.12031,51,0.0268953,10,0.000221066,-2.95066,-0.11763,-0.501573,0.195321,
2,1,0,0,0,18569.9,0.201429,0.201201,1.0369,51,0.0277191,10,0.000208626,-2.98426,-0.110925,-0.531889,0.199345,
2,1,0,1,0,18570.7,0.20523,0.204961,0.950325,51,0.0284779,10,0.000194779,-3.02213,-0.102979,-0.572931,0.20326,
2,1,0,0,0,18571.5,0.209031,0.208769,0.872132,51,0.0291743,10,0.000182074,-3.05942,-0.0970398,-0.607998,0.207208,
2,1,0,1,0,18572.2,0.212832,0.212481,0.801344,51,0.0298141,10,0.000170271,-3.09618,-0.11512,-0.512508,0.211047,
2,1,0,0,0,18573,0.216633,0.216356,0.739564,51,0.0304042,10,0.000160009,-3.13102,-0.118672,-0.497169,0.215032,
2,1,0,1,0,18573.7,0.220435,0.220116,0.69131,51,0.0309522,10,0.000152169,-3.16033,-0.127059,-0.464352,0.218879,
2,1,0,0,0,18574.5,0.224236,0.223962,0.648884,51,0.0314662,10,0.000145326,-3.18783,-0.143578,-0.410927,0.222801,
2,1,0,1,0,18575.3,0.228037,0.227818,0.613312,51,0.0319513,10,0.000139723,-3.21232,-0.14559,-0.405248,0.22672,
2,1,0,1,0,18576,0.231838,0.231549,0.585548,51,0.0324118,10,0.000135583,-3.23244,-0.166322,-0.354734,0.230501,
2,1,0,0,0,18576.8,0.235639,0.235377,0.562553,51,0.0328531,10,0.000132412,-3.24984,-0.225918,-0.261157,0.23437,
2,1,0,1,0,18577.5,0.23944,0.239108,0.5444,51,0.0332786,10,0.00013017,-3.26408,-0.296899,-0.198721,0.238134,
2,1,0,0,0,18578.3,0.243241,0.242983,0.526948,51,0.0336904,10,0.000128039,-3.27823,-0.295038,-0.199974,0.24204,
2,1,0,1,0,18579.1,0.247042,0.2468,0.51217,51,0.0340905,10,0.000126404,-3.29059,-0.356787,-0.165365,0.245883,
2,1,0,0,0,18579.8,0.250843,0.250541,0.501111,51,0.0344805,10,0.000125549,-3.30007,-0.456786,-0.129163,0.249644,
2,1,0,1,0,18580.6,0.254644,0.254349,0.489052,51,0.0348612,10,0.00012439,-3.31064,-0.458358,-0.12872,0.253474,
2,1,0,0,0,18581.3,0.258445,0.258272,0.480414,51,0.0352339,10,0.000124077,-3.31838,-0.502004,-0.117529,0.257412,
2,1,0,1,0,18582.1,0.262246,0.261975,0.472256,51,0.0356001,10,0.000123719,-3.32582,-0.439898,-0.134122,0.261129,
2,1,0,0,0,18582.9,0.266048,0.265735,0.464714,51,0.0359602,10,0.000123491,-3.33281,-0.428829,-0.137584,0.264903,
2,1,0,1,0,18583.6,0.269849,0.269495,0.458516,51,0.0363144,10,0.000123568,-3.33865,-0.744127,-0.0792876,0.268674,
2,1,0,0,0,18584.4,0.27365,0.273313,0.451617,51,0.036664,10,0.000123433,-3.34523,-0.816367,-0.0722714,0.272504,
2,1,0,1,0,18585.1,0.277451,0.277216,0.445653,51,0.0370094,10,0.000123542,-3.351,-0.77358,-0.0762688,0.276418,
2,1,0,1,0,18585.9,0.281252,0.280995,0.441227,51,0.0373507,10,0.000123983,-3.35534,-0.791565,-0.0745359,0.280205,
2,1,0,0,0,18586.7,0.285053,0.284784,0.435762,51,0.0376883,10,0.000124098,-3.36075,-2.93859,-0.0200776,0.284004,
2,1,0,1,0,18587.4,0.288854,0.288573,0.431388,51,0.0380227,10,0.000124487,-3.36513,-0.723947,-0.0814977,0.287801,
2,1,0,0,0,18588.2,0.292655,0.292362,0.426345,51,0.0383537,10,0.000124647,-3.37024,-0.537346,-0.109799,0.291599,
2,1,0,1,0,18588.9,0.296456,0.296208,0.423048,51,0.0386815,10,0.00012531,-3.37361,-1.20988,-0.0487653,0.295451,
2,1,0,0,0,18589.7,0.300257,0.300025,0.418524,51,0.0390065,10,0.000125568,-3.37828,-1.33411,-0.0442243,0.299276,
2,1,0,1,0,18590.5,0.304058,0.303776,0.416824,51,0.0393291,10,0.000126621,-3.38005,-1.64395,-0.0358892,0.30303,
2,1,0,0,0,18591.2,0.307859,0.307574,0.412878,51,0.0396489,10,0.000126991,-3.38418,-1.23714,-0.0476906,0.306835,
2,1,0,1,0,18592,0.311661,0.311354,0.410483,51,0.0399666,10,0.000127805,-3.38671,-2.37067,-0.0248874,0.310619,
2,1,0,0,0,18592.7,0.315462,0.315142,0.407614,51,0.0402823,10,0.000128457,-3.38975,-0.69954,-0.0843411,0.314413,
2,1,0,1,0,18593.5,0.319263,0.318969,0.403895,51,0.0405956,10,0.00012883,-3.39373,-9.22174,-0.00639793,0.318246,
2,1,0,1,0,18594.3,0.323064,0.32273,0.401127,51,0.0409067,10,0.000129455,-3.39672,-1.30169,-0.0453258,0.322012,
2,1,0,0,0,18595,0.326865,0.326585,0.399417,51,0.0412161,10,0.000130444,-3.39857,-0.744188,-0.079281,0.32587,
2,1,0,1,0,18595.8,0.330666,0.330374,0.396373,51,0.0415235,10,0.000130951,-3.4019,-0.537649,-0.109737,0.329665,
2,1,0,0,0,18596.5,0.334467,0.33423,0.395147,51,0.0418287,10,0.00013207,-3.40324,-0.942778,-0.062581,0.333522,
2,1,0,1,0,18597.3,0.338268,0.338057,0.392505,51,0.0421323,10,0.000132689,-3.40615,-0.733013,-0.0804897,0.337354,
2,1,0,0,0,18598.1,0.342069,0.341817,0.390415,51,0.0424342,10,0.000133451,-3.40847,-0.94118,-0.0626873,0.341118,
2,1,0,1,0,18598.8,0.34587,0.345568,0.387612,51,0.0427339,10,0.000133946,-3.4116,-1.01537,-0.0581071,0.344874,
2,1,0,0,0,18599.6,0.349671,0.349414,0.385003,51,0.0430317,10,0.000134525,-3.41454,-1.09586,-0.053839,0.348725,
2,1,0,1,0,18600.4,0.353472,0.353183,0.382978,51,0.0433279,10,0.000135261,-3.41683,-0.941651,-0.0626559,0.352498,
2,1,0,0,0,18601.1,0.357273,0.356972,0.380044,51,0.043622,10,0.000135665,-3.42017,0.810909,0.0727578,0.356292,
2,1,0,1,0,18601.9,0.361075,0.360771,0.379499,51,0.0439148,10,0.000136912,-3.42079,-1.42168,-0.0415001,0.360091,
2,1,0,0,0,18602.6,0.364876,0.364569,0.377098,51,0.0442061,10,0.000137478,-3.42355,-1.02028,-0.0578275,0.363894,
2,1,0,1,0,18603.4,0.368677,0.368367,0.375584,51,0.0444958,10,0.000138353,-3.42529,-0.901398,-0.0654539,0.367695,
2,1,0,1,0,18604.2,0.372478,0.372175,0.373158,51,0.0447836,10,0.00013888,-3.42811,-3.05628,-0.0193045,0.371507,
2,1,0,0,0,18604.9,0.376279,0.375974,0.371555,51,0.0450699,10,0.000139695,-3.42998,-2.21176,-0.0266755,0.375309,
2,1,0,1,0,18605.7,0.38008,0.379791,0.368816,51,0.0453545,10,0.000140073,-3.43319,-3.43869,-0.0171577,0.379131,
2,1,0,0,0,18606.4,0.383881,0.383637,0.36609,51,0.0456375,10,0.000140446,-3.43641,-2.38335,-0.0247551,0.382982,
2,1,0,1,0,18607.2,0.387682,0.387388,0.365506,51,0.0459192,10,0.000141593,-3.43711,-2.68408,-0.0219815,0.386734,
2,1,0,0,0,18608,0.391483,0.391119,0.363949,51,0.0462,10,0.000142347,-3.43896,-0.698704,-0.0844421,0.390468,
2,1,0,1,0,18608.7,0.395284,0.394918,0.361554,51,0.046479,10,0.000142784,-3.44183,-1.77449,-0.033249,0.394271,
2,1,0,0,0,18609.5,0.399085,0.398821,0.359892,51,0.0467564,10,0.000143533,-3.44383,-0.98972,-0.0596128,0.398177,
2,1,0,1,0,18610.2,0.402886,0.402648,0.358776,51,0.0470327,10,0.000144461,-3.44518,8.79933,0.00670505,0.402006,
2,1,0,0,0,18611,0.406688,0.406408,0.357478,51,0.047308,10,0.000145282,-3.44675,-1.01746,-0.0579876,0.405769,
2,1,0,1,0,18611.8,0.410489,0.410121,0.354239,51,0.0475817,10,0.000145281,-3.4507,-3.71559,-0.0158791,0.409487,
2,1,0,1,0,18612.5,0.41429,0.414062,0.355185,51,0.0478548,10,0.000147069,-3.44955,-33.2156,-0.00177627,0.413427,
2,1,0,0,0,18613.3,0.418091,0.417775,0.35287,51,0.048127,10,0.00014742,-3.45239,-3.32337,-0.017753,0.417143,
2,1,0,1,0,18614,0.421892,0.421631,0.350819,51,0.0483976,10,0.000147916,-3.45492,-2.3231,-0.0253971,0.421003,
2,1,0,0,0,18614.8,0.425693,0.4254,0.34967,51,0.0486676,10,0.00014875,-3.45634,28.872,0.0020435,0.424774,
2,1,0,1,0,18615.6,0.429494,0.429275,0.349541,51,0.0489368,10,0.000150049,-3.4565,-1.288,-0.0458074,0.428649,
2,1,0,0,0,18616.3,0.433295,0.432997,0.347542,51,0.049205,10,0.000150484,-3.45899,-32.6259,-0.00180838,0.432375,
2,1,0,1,0,18617.1,0.437096,0.436824,0.346756,51,0.0494723,10,0.000151472,-3.45998,-99.342,-0.000593908,0.436203,
2,1,0,0,0,18617.8,0.440897,0.440613,0.346633,51,0.0497392,10,0.000152731,-3.46013,12.7817,0.00461597,0.439992,
2,1,0,1,0,18618.6,0.444698,0.444545,0.346263,51,0.0500057,10,0.000153929,-3.46059,-2.27879,-0.025891,0.443925,
2,1,0,0,0,18619.4,0.448499,0.448238,0.34492,51,0.050271,10,0.000154606,-3.46228,2.433,0.0242499,0.447621,
2,1,0,1,0,18620.1,0.452301,0.452037,0.345173,51,0.0505362,10,0.000156031,-3.46196,-1.48674,-0.0396841,0.451419,
2,1,0,0,0,18620.9,0.456102,0.455883,0.344199,51,0.0508009,10,0.000156915,-3.46319,3.3749,0.017482,0.455267,
2,1,0,1,0,18621.6,0.459903,0.459662,0.344282,51,0.0510653,10,0.000158253,-3.46309,3.23188,0.0182556,0.459046,
2,1,0,1,0,18622.4,0.463704,0.463422,0.343206,51,0.0513293,10,0.000159049,-3.46444,16.5482,0.00356535,0.462808,
2,1,0,0,0,18623.2,0.467505,0.467287,0.342797,51,0.051593,10,0.000160185,-3.46496,5.80822,0.010158,0.466674,
2,1,0,1,0,18623.9,0.471306,0.471038,0.341655,51,0.0518564,10,0.000160933,-3.46641,3.06106,0.0192744,0.470427,
2,1,0,0,0,18624.7,0.475107,0.474875,0.342525,51,0.0521196,10,0.000162656,-3.46531,-0.930213,-0.0634264,0.474262,
2,1,0,1,0,18625.4,0.478908,0.478578,0.341876,51,0.052383,10,0.000163614,-3.46613,-9.51463,-0.00620097,0.477966,
2,1,0,0,0,18626.2,0.482709,0.482443,0.342694,51,0.0526462,10,0.00016533,-3.46509,-1.14656,-0.0514584,0.481829,
2,1,0,1,0,18627,0.48651,0.48627,0.34207,51,0.0529094,10,0.000166339,-3.46588,-7.5797,-0.00778395,0.485657,
2,1,0,0,0,18627.7,0.490311,0.490078,0.341876,51,0.0531725,10,0.000167546,-3.46613,-10.0483,-0.00587163,0.489466,
2,1,0,1,0,18628.5,0.494112,0.493819,0.343044,51,0.0534359,10,0.000169402,-3.46465,1.70035,0.0346988,0.493205,
2,1,0,0,0,18629.2,0.497914,0.497655,0.342862,51,0.0536994,10,0.000170627,-3.46488,1.02517,0.0575515,0.497042,
2,1,0,1,0,18630,0.501715,0.501473,0.342505,51,0.0539629,10,0.000171757,-3.46533,-2.2935,-0.0257248,0.50086,
2,1,0,1,0,18630.8,0.505516,0.50529,0.342643,51,0.0542268,10,0.000173134,-3.46516,-12.6034,-0.00468126,0.504677,
2,1,0,0,0,18631.5,0.509317,0.509041,0.344316,51,0.0544909,10,0.000175271,-3.46304,-1.65376,-0.0356763,0.508425,
2,1,0,1,0,18632.3,0.513118,0.51283,0.344323,51,0.0547552,10,0.000176579,-3.46303,96.6864,0.000610221,0.512213,
2,1,0,0,0,18633,0.516919,0.516714,0.344323,51,0.0550199,10,0.000177916,-3.46303,2.37671,0.0248242,0.516098,
2,1,0,1,0,18633.8,0.52072,0.520407,0.345225,51,0.0552853,10,0.000179657,-3.4619,1.30955,0.0450536,0.519789,
2,1,0,0,0,18634.6,0.524521,0.524282,0.345744,51,0.0555511,10,0.000181267,-3.46125,8.42101,0.00700629,0.523663,
2,1,0,1,0,18635.3,0.528322,0.528033,0.347061,51,0.0558175,10,0.00018326,-3.45959,1.65514,0.0356465,0.527412,
2,1,0,0,0,18636.1,0.532123,0.531764,0.347133,51,0.0560847,10,0.000184593,-3.4595,3.76987,0.0156504,0.531143,
2,1,0,1,0,18636.8,0.535924,0.535668,0.348509,51,0.0563527,10,0.000186685,-3.45779,1.69554,0.0347972,0.535044,
2,1,0,0,0,18637.6,0.539725,0.539476,0.350267,51,0.0566212,10,0.000188961,-3.4556,39.7972,0.00148251,0.538849,
2,1,0,1,0,18638.4,0.543527,0.543265,0.350683,51,0.0568906,10,0.000190514,-3.45509,3.47525,0.0169772,0.542637,
2,1,0,0,0,18639.1,0.547328,0.547139,0.352507,51,0.057161,10,0.00019287,-3.45283,0.842941,0.069993,0.546508,
2,1,0,1,0,18639.9,0.551129,0.550861,0.353325,51,0.0574322,10,0.000194633,-3.45183,3.34755,0.0176249,0.550229,
2,1,0,1,0,18640.6,0.55493,0.554717,0.355518,51,0.0577047,10,0.000197212,-3.44914,0.774304,0.0761974,0.554081,
2,1,0,0,0,18641.4,0.558731,0.558468,0.356258,51,0.0579783,10,0.000198958,-3.44824,0.920246,0.0641133,0.55783,
2,1,0,1,0,18642.2,0.562532,0.562237,0.358056,51,0.0582529,10,0.000201312,-3.44605,0.83103,0.0709962,0.561596,
2,1,0,0,0,18642.9,0.566333,0.566074,0.36034,51,0.058529,10,0.000203979,-3.44329,0.711537,0.0829191,0.565429,
2,1,0,1,0,18643.7,0.570134,0.569949,0.362469,51,0.0588066,10,0.000206589,-3.44073,1.65672,0.0356126,0.5693,
2,1,0,0,0,18644.4,0.573935,0.573651,0.364104,51,0.0590861,10,0.000208869,-3.43877,3.56073,0.0165696,0.573,
2,1,0,1,0,18645.2,0.577736,0.577469,0.366843,51,0.0593671,10,0.000211841,-3.43552,0.699972,0.0842891,0.576812,
2,1,0,0,0,18646,0.581537,0.581296,0.369134,51,0.0596502,10,0.000214576,-3.43282,0.872299,0.0676373,0.580635,
2,1,0,1,0,18646.7,0.585338,0.585104,0.3731,51,0.0599354,10,0.000218302,-3.42818,0.784598,0.0751977,0.584436,
2,1,0,0,0,18647.5,0.58914,0.588912,0.376124,51,0.0602227,10,0.000221504,-3.42467,1.32702,0.0444607,0.588239,
2,1,0,1,0,18648.2,0.592941,0.592701,0.379317,51,0.0605126,10,0.000224822,-3.421,1.15293,0.0511741,0.592022,
2,1,0,0,0,18649,0.596742,0.59649,0.383004,51,0.0608053,10,0.000228458,-3.4168,1.64119,0.0359495,0.595804,
2,1,0,0,0,18649.8,0.600543,0.60024,0.386119,51,0.0611007,10,0.000231764,-3.41328,0.852561,0.0692032,0.599549,
2,1,0,1,0,18650.5,0.604344,0.604067,0.391356,51,0.061399,10,0.000236406,-3.40743,0.701496,0.084106,0.603367,
2,1,0,0,0,18651.3,0.608145,0.607951,0.395192,51,0.0617008,10,0.000240258,-3.40319,1.27174,0.0463931,0.607244,
2,1,0,1,0,18652,0.611946,0.611626,0.400469,51,0.0620061,10,0.000244937,-3.39743,0.874184,0.0674915,0.610909,
2,1,0,0,0,18652.8,0.615747,0.615481,0.404986,51,0.0623151,10,0.000249261,-3.39256,0.558404,0.105658,0.614756,
2,1,0,1,0,18653.6,0.619548,0.619299,0.411047,51,0.0626283,10,0.000254561,-3.38611,0.765482,0.0770757,0.618563,
2,1,0,0,0,18654.3,0.623349,0.623126,0.416597,51,0.062946,10,0.000259592,-3.38028,0.501005,0.117763,0.62238,
2,1,0,1,0,18655.1,0.62715,0.626981,0.425131,51,0.0632689,10,0.000266549,-3.37148,0.514386,0.1147,0.626221,
2,1,0,0,0,18655.8,0.630951,0.630637,0.433347,51,0.0635977,10,0.000273285,-3.36316,0.467094,0.126313,0.629861,
2,1,0,1,0,18656.6,0.634753,0.634511,0.44207,51,0.0639326,10,0.000280499,-3.35451,0.494914,0.119213,0.63372,
2,1,0,0,0,18657.4,0.638554,0.638281,0.450455,51,0.0642742,10,0.000287517,-3.34635,0.568493,0.103783,0.637475,
2,1,0,1,0,18658.1,0.642355,0.642185,0.46069,51,0.0646233,10,0.000295848,-3.33659,0.368398,0.160153,0.64136,
2,1,0,1,0,18658.9,0.646156,0.645992,0.472888,51,0.0649812,10,0.000305482,-3.32524,0.420683,0.140248,0.645146,
2,1,0,0,0,18659.6,0.649957,0.649657,0.487047,51,0.0653487,10,0.000316413,-3.31243,0.318375,0.185316,0.648785,
2,1,0,1,0,18660.4,0.653758,0.653456,0.50211,51,0.0657273,10,0.000328107,-3.2992,0.274147,0.215213,0.652557,
2,1,0,0,0,18661.2,0.657559,0.657349,0.520107,51,0.0661184,10,0.000341892,-3.28391,0.282136,0.209119,0.656418,
2,1,0,1,0,18661.9,0.66136,0.661119,0.538792,51,0.0665233,10,0.000356206,-3.26858,0.241818,0.243985,0.660155,
2,1,0,0,0,18662.7,0.665161,0.664965,0.559262,51,0.066943,10,0.00037189,-3.25238,0.197213,0.299169,0.663964,
2,1,0,1,0,18663.4,0.668962,0.668754,0.582283,51,0.0673795,10,0.000389404,-3.23487,0.202674,0.291108,0.667712,
2,1,0,0,0,18664.2,0.672763,0.672438,0.609184,51,0.0678351,10,0.000409639,-3.21525,0.191223,0.308541,0.671348,
2,1,0,1,0,18665,0.676564,0.676313,0.640843,51,0.068313,10,0.00043341,-3.19325,0.167218,0.352833,0.675166,
2,1,0,0,0,18665.7,0.680365,0.680063,0.674916,51,0.0688157,10,0.000458986,-3.17075,0.165352,0.356814,0.678855,
2,1,0,1,0,18666.5,0.684167,0.683852,0.712494,51,0.0693456,10,0.000487241,-3.14722,0.165092,0.357377,0.682577,
2,1,0,0,0,18667.2,0.687968,0.68767,0.754011,51,0.0699055,10,0.000518511,-3.12262,0.136134,0.433397,0.68632,
2,1,0,0,0,18668,0.691769,0.691487,0.800874,51,0.0704992,10,0.000553794,-3.09644,0.144247,0.409022,0.690054,
2,1,0,1,0,18668.8,0.69557,0.695247,0.851026,51,0.0711291,10,0.000591673,-3.07006,0.145336,0.405956,0.693724,
2,1,0,0,0,18669.5,0.699371,0.699151,0.907457,51,0.0717995,10,0.000634449,-3.04217,0.135792,0.434487,0.697526,
2,1,0,1,0,18670.3,0.703172,0.702863,0.965031,51,0.0725135,10,0.000678285,-3.01546,0.141524,0.416891,0.701136,
2,1,0,0,0,18671.1,0.706973,0.706767,1.0299,51,0.0732742,10,0.000727899,-2.9872,0.126022,0.468171,0.704923,
2,1,0,1,0,18671.8,0.710774,0.710508,1.09757,51,0.0740851,10,0.000779829,-2.95957,0.126855,0.465098,0.708543,
2,1,0,0,0,18672.6,0.714575,0.714401,1.17251,51,0.0749506,10,0.000837646,-2.93088,0.139653,0.422475,0.712303,
2,1,0,1,0,18673.3,0.718376,0.718133,1.25058,51,0.0758736,10,0.000898085,-2.90289,0.127346,0.463304,0.715894,
2,1,0,0,0,18674.1,0.722177,0.721884,1.33292,51,0.0768584,10,0.000962216,-2.87519,0.143537,0.411044,0.719498,
2,1,0,1,0,18674.9,0.725978,0.725797,1.42048,51,0.0779078,10,0.00103098,-2.84756,0.127454,0.46291,0.723254,
2,1,0,0,0,18675.6,0.72978,0.729509,1.5126,51,0.0790251,10,0.00110345,-2.82028,0.129142,0.45686,0.726802,
2,1,0,1,0,18676.4,0.733581,0.733288,1.60724,51,0.0802132,10,0.00117857,-2.79392,0.131618,0.448266,0.730411,
2,1,0,1,0,18677.1,0.737382,0.737154,1.70672,51,0.081476,10,0.00125812,-2.76784,0.131703,0.447977,0.734098,
2,1,0,0,0,18677.9,0.741183,0.740904,1.81088,51,0.0828162,10,0.00134169,-2.74211,0.13961,0.422606,0.737663,
2,1,0,1,0,18678.7,0.744984,0.744645,1.91983,51,0.0842369,10,0.00142959,-2.71674,0.147669,0.399543,0.741209,
2,1,0,0,0,18679.4,0.748785,0.748663,2.0307,51,0.085741,10,0.00152031,-2.69236,0.158633,0.371927,0.745028,
2,1,0,1,0,18680.2,0.752586,0.752357,2.14578,51,0.0873306,10,0.00161439,-2.66842,0.154776,0.381197,0.748516,
2,1,0,0,0,18680.9,0.756387,0.756241,2.26564,51,0.0890094,10,0.00171337,-2.64481,0.150221,0.392754,0.752185,
2,1,0,1,0,18681.7,0.760188,0.76002,2.38785,51,0.0907803,10,0.00181481,-2.62199,0.156771,0.376346,0.755746,
2,1,0,0,0,18682.5,0.763989,0.76379,2.51345,51,0.0926456,10,0.00191975,-2.59973,0.16103,0.366391,0.759291,
2,1,0,1,0,18683.2,0.76779,0.767569,2.64247,51,0.0946078,10,0.00202828,-2.57799,0.177788,0.331855,0.762839,
2,1,0,0,0,18684,0.771592,0.771368,2.77751,51,0.0966706,10,0.00214248,-2.55634,0.169398,0.348292,0.766396,
2,1,0,1,0,18684.7,0.775393,0.775147,2.91555,51,0.0988373,10,0.00225998,-2.53528,0.184976,0.31896,0.769928,
2,1,0,0,0,18685.5,0.779194,0.778926,3.05682,51,0.10111,10,0.00238103,-2.51473,0.172436,0.342155,0.773454,
2,1,0,0,0,18686.3,0.782995,0.78281,3.20347,51,0.103493,10,0.00250771,-2.49438,0.184997,0.318923,0.777076,
2,1,0,1,0,18687,0.786796,0.786571,3.3565,51,0.105989,10,0.00264013,-2.47411,0.189112,0.311985,0.780562,
2,1,0,0,0,18687.8,0.790597,0.790379,3.51153,51,0.108602,10,0.00277544,-2.4545,0.180297,0.327238,0.784093,
2,1,0,1,0,18688.5,0.794398,0.79412,3.67251,51,0.111335,10,0.00291641,-2.43504,0.18435,0.320043,0.787546,
2,1,0,0,0,18689.3,0.798199,0.797956,3.84054,51,0.114193,10,0.00306458,-2.41561,0.188002,0.313826,0.791082,
2,1,0,1,0,18690.1,0.802,0.801774,4.01114,51,0.11718,10,0.00321603,-2.39673,0.189481,0.311376,0.794594,
2,1,0,0,0,18690.8,0.805801,0.805591,4.18696,51,0.120298,10,0.00337298,-2.3781,0.181715,0.324684,0.798096,
2,1,0,1,0,18691.6,0.809602,0.809351,4.36992,51,0.123554,10,0.0035368,-2.35953,0.194611,0.303169,0.801529,
2,1,0,0,0,18692.3,0.813403,0.813245,4.55753,51,0.126949,10,0.00370639,-2.34127,0.203853,0.289424,0.805087,
2,1,0,1,0,18693.1,0.817205,0.816996,4.74991,51,0.13049,10,0.00388066,-2.32331,0.202581,0.291241,0.808493,
2,1,0,0,0,18693.9,0.821006,0.820842,4.95034,51,0.134179,10,0.00406345,-2.30536,0.204229,0.288891,0.811981,
2,1,0,1,0,18694.6,0.824807,0.824631,5.15514,51,0.138023,10,0.00425109,-2.28776,0.191666,0.307826,0.815403,
2,1,0,1,0,18695.4,0.828608,0.828372,5.36545,51,0.142025,10,0.00444459,-2.27039,0.201125,0.29335,0.818768,
2,1,0,0,0,18696.1,0.832409,0.832151,5.57869,51,0.146188,10,0.00464231,-2.25347,0.186174,0.316908,0.822165,
2,1,0,1,0,18696.9,0.83621,0.836035,5.79968,51,0.150516,10,0.00484874,-2.2366,0.221547,0.26631,0.825654,
2,1,0,0,0,18697.7,0.840011,0.839777,6.02278,51,0.155012,10,0.00505779,-2.2202,0.202212,0.291774,0.828996,
2,1,0,1,0,18698.4,0.843812,0.843565,6.25165,51,0.159681,10,0.00527367,-2.20401,0.219451,0.268853,0.832375,
2,1,0,0,0,18699.2,0.847613,0.847392,6.48426,51,0.164525,10,0.00549471,-2.18814,0.202681,0.291098,0.835786,
2,1,0,0,0,18699.9,0.848613,0.848452,6.49173,51,0.169384,10,0.00550791,-2.18764,0.134287,0.439356,0.836831,
2,1,0,1,0,18700.7,0.844812,0.844634,6.13743,51,0.174178,10,0.00518388,-2.21201,0.1376,0.428778,0.833648,
2,1,0,0,0,18701.4,0.841011,0.840779,5.81405,51,0.178716,10,0.00488833,-2.23552,0.135362,0.435868,0.830371,
2,1,0,1,0,18702.2,0.83721,0.836913,5.51087,51,0.183015,10,0.00461212,-2.25878,0.144124,0.409369,0.827049,
2,1,0,0,0,18703,0.833409,0.83321,5.22951,51,0.187094,10,0.00435728,-2.28154,0.151644,0.38907,0.82385,
2,1,0,1,0,18703.7,0.829608,0.829431,4.96261,51,0.190963,10,0.00411615,-2.30429,0.138986,0.424503,0.820548,
2,1,0,0,0,18704.5,0.825807,0.825585,4.71132,51,0.194636,10,0.00388959,-2.32686,0.139585,0.422683,0.817152,
2,1,0,1,0,18705.2,0.822006,0.821901,4.46988,51,0.198121,10,0.0036738,-2.3497,0.152125,0.387839,0.8139,
2,1,0,0,0,18706,0.818205,0.818026,4.24389,51,0.201429,10,0.00347161,-2.37224,0.146715,0.40214,0.81043,
2,1,0,0,0,18706.8,0.814404,0.814142,4.02977,51,0.204572,10,0.00328081,-2.39472,0.147755,0.399309,0.806929,
2,1,0,1,0,18707.5,0.810603,0.810411,3.82604,51,0.207554,10,0.00310066,-2.41725,0.158372,0.37254,0.803562,
2,1,0,0,0,18708.3,0.806802,0.806555,3.62995,51,0.210384,10,0.00292775,-2.4401,0.157637,0.374279,0.800057,
2,1,0,1,0,18709,0.803,0.802814,3.44585,51,0.21307,10,0.00276638,-2.4627,0.149021,0.395916,0.796646,
2,1,0,0,0,18709.8,0.799199,0.799016,3.26869,51,0.215619,10,0.00261173,-2.48563,0.150663,0.391603,0.793165,
2,1,0,1,0,18710.6,0.795398,0.795169,3.09923,51,0.218036,10,0.00246441,-2.50875,0.152371,0.387213,0.789622,
2,1,0,0,0,18711.3,0.791597,0.791323,2.93817,51,0.220327,10,0.00232504,-2.53192,0.154988,0.380675,0.786064,
2,1,0,1,0,18712.1,0.787796,0.787554,2.7838,51,0.2225,10,0.00219239,-2.55536,0.149552,0.394512,0.782571,
2,1,0,0,0,18712.8,0.783995,0.783812,2.63548,51,0.224557,10,0.00206573,-2.57914,0.154322,0.382318,0.779095,
2,1,0,1,0,18713.6,0.780194,0.779919,2.49397,51,0.226504,10,0.0019451,-2.60311,0.140778,0.419098,0.775454,
2,1,0,0,0,18714.4,0.776393,0.776139,2.35834,51,0.228345,10,0.0018304,-2.62739,0.152754,0.386241,0.771918,
2,1,0,1,0,18715.1,0.772592,0.772389,2.22674,51,0.230086,10,0.00171991,-2.65233,0.132715,0.44456,0.768403,
2,1,0,1,0,18715.9,0.768791,0.768524,2.09997,51,0.231728,10,0.00161387,-2.67779,0.13906,0.424278,0.764765,
2,1,0,0,0,18716.6,0.76499,0.764782,1.98085,51,0.233277,10,0.00151492,-2.70315,0.144831,0.407371,0.761237,
2,1,0,1,0,18717.4,0.761189,0.760927,1.86498,51,0.234736,10,0.00141912,-2.72932,0.131373,0.449102,0.757588,
2,1,0,0,0,18718.2,0.757387,0.757138,1.75271,51,0.236108,10,0.00132704,-2.75629,0.123298,0.478515,0.754001,
2,1,0,1,0,18718.9,0.753586,0.753301,1.64396,51,0.237396,10,0.00123839,-2.78411,0.136879,0.431038,0.750359,
2,1,0,0,0,18719.7,0.749785,0.749598,1.54137,51,0.238604,10,0.00115541,-2.81209,0.135952,0.433975,0.746839,
2,1,0,1,0,18720.4,0.745984,0.745771,1.44132,51,0.239735,10,0.00107489,-2.84124,0.121819,0.484325,0.743192,
2,1,0,0,0,18721.2,0.742183,0.741887,1.34605,51,0.240792,10,0.000998615,-2.87094,0.132642,0.444807,0.739478,
2,1,0,1,0,18722,0.738382,0.738203,1.25523,51,0.241778,10,0.000926615,-2.90128,0.108142,0.545577,0.735956,
2,1,0,0,0,18722.7,0.734581,0.734338,1.16796,51,0.242696,10,0.000857676,-2.93257,0.115294,0.511734,0.732248,
2,1,0,1,0,18723.5,0.73078,0.730578,1.08257,51,0.243549,10,0.0007909,-2.96555,0.112142,0.526118,0.72864,
2,1,0,0,0,18724.2,0.726979,0.726827,1.00427,51,0.244339,10,0.000729931,-2.99815,0.106636,0.553286,0.72503,
2,1,0,0,0,18725,0.723178,0.722962,0.927516,51,0.24507,10,0.000670559,-3.03268,0.110028,0.536228,0.721302,
2,1,0,1,0,18725.8,0.719377,0.71904,0.853116,51,0.245744,10,0.000613424,-3.06899,0.105974,0.55674,0.717513,
2,1,0,0,0,18726.5,0.715576,0.715356,0.784534,51,0.246363,10,0.000561221,-3.10539,0.0969286,0.608695,0.713951,
2,1,0,1,0,18727.3,0.711774,0.711481,0.718478,51,0.246931,10,0.000511183,-3.14359,0.0904578,0.652238,0.710195,
2,1,0,0,0,18728,0.707973,0.707788,0.655517,51,0.247451,10,0.000463967,-3.18342,0.0915844,0.644214,0.706614,
2,1,0,1,0,18728.8,0.704172,0.703989,0.595717,51,0.247923,10,0.000419379,-3.22496,0.0900426,0.655246,0.702923,
2,1,0,0,0,18729.6,0.700371,0.700286,0.5422,51,0.248353,10,0.000379695,-3.26584,0.0884495,0.667047,0.699316,
2,1,0,1,0,18730.3,0.69657,0.696383,0.488994,51,0.248742,10,0.000340527,-3.3107,0.0860759,0.685442,0.695508,
2,1,0,0,0,18731.1,0.692769,0.692556,0.440591,51,0.249092,10,0.000305134,-3.35596,0.0791896,0.745047,0.691767,
2,1,0,1,0,18731.8,0.688968,0.688786,0.393498,51,0.249406,10,0.000271036,-3.40506,0.0736046,0.801581,0.688082,
2,1,0,0,0,18732.6,0.685167,0.684883,0.34958,51,0.249685,10,0.000239421,-3.45645,0.0753042,0.783488,0.684257,
2,1,0,1,0,18733.4,0.681366,0.681132,0.310003,51,0.249934,10,0.000211153,-3.50863,0.064197,0.919046,0.680577,
2,1,0,1,0,18734.1,0.677565,0.677315,0.272168,51,0.250153,10,0.000184344,-3.56516,0.0640795,0.920731,0.676828,
2,1,0,0,0,18734.9,0.673764,0.673507,0.236444,51,0.250344,10,0.000159246,-3.62627,0.0620729,0.950495,0.673084,
2,1,0,1,0,18735.6,0.669963,0.669661,0.203416,51,0.250509,10,0.000136219,-3.69162,0.048869,1.20731,0.669297,
2,1,0,0,0,18736.4,0.666161,0.665824,0.173451,51,0.25065,10,0.000115488,-3.76082,0.0506728,1.16433,0.665514,
2,1,0,1,0,18737.2,0.66236,0.662093,0.144959,51,0.250768,10,9.59763e-05,-3.83875,0.0392032,1.50498,0.661833,
2,1,0,0,0,18737.9,0.658559,0.658399,0.117272,51,0.250865,10,7.72119e-05,-3.93081,0.0368374,1.60164,0.658189,
2,1,0,1,0,18738.7,0.654758,0.654563,0.0922268,51,0.250943,10,6.03682e-05,-4.03514,0.0333006,1.77174,0.654398,
2,1,0,0,0,18739.5,0.650957,0.650707,0.069096,51,0.251002,10,4.49612e-05,-4.16055,0.0266598,2.21307,0.650583,
2,1,0,1,0,18740.2,0.647156,0.646851,0.0481978,51,0.251045,10,3.11768e-05,-4.31697,0.0206681,2.85465,0.646765,
2,1,0,0,0,18741,0.643355,0.643148,0.0274748,51,0.25107,10,1.76704e-05,-4.56106,0.0120743,4.88642,0.643099,
2,1,0,1,0,18741.7,0.639554,0.639188,0.00761508,51,0.251081,10,4.86747e-06,-5.11833,0.00341335,17.2851,0.639174,
2,0,0,0,0,18742.5,0.635753,0.635428,-0.00966811,51,0.251078,10,-6.14338e-06,-5.01466,-0.00453337,-13.0146,0.635445,
2,0,0,0,0,18743.3,0.631952,0.631648,-0.0252047,51,0.251063,10,-1.59205e-05,-4.59852,-0.0125636,-4.69612,0.631693,
2,0,0,1,0,18744,0.628151,0.627879,-0.0399121,51,0.251035,10,-2.50599e-05,-4.3989,-0.0221119,-2.66825,0.62795,
2,0,0,0,0,18744.8,0.62435,0.624109,-0.0543201,51,0.250997,10,-3.39017e-05,-4.26504,-0.0329246,-1.79197,0.624206,
2,0,0,1,0,18745.5,0.620548,0.62031,-0.0677158,51,0.250947,10,-4.20048e-05,-4.16931,-0.0489035,-1.20646,0.620432,
2,0,0,0,0,18746.3,0.616747,0.616512,-0.0806765,51,0.250888,10,-4.97381e-05,-4.09325,-0.0555569,-1.06197,0.616657,
2,0,0,1,0,18747.1,0.612946,0.612742,-0.0931051,51,0.250818,10,-5.70494e-05,-4.03103,-0.0839104,-0.703131,0.612909,
2,0,0,0,0,18747.8,0.609145,0.608925,-0.105034,51,0.25074,10,-6.39578e-05,-3.97867,-0.0758872,-0.77747,0.609113,
2,0,0,1,0,18748.6,0.605344,0.605088,-0.116171,51,0.250653,10,-7.02937e-05,-3.9349,-0.0932758,-0.632533,0.605296,
2,0,0,0,0,18749.3,0.601543,0.601252,-0.124693,51,0.250558,10,-7.49716e-05,-3.90416,-0.129712,-0.454853,0.601475,
2,0,0,1,0,18750.1,0.597742,0.597387,-0.134389,51,0.250456,10,-8.02821e-05,-3.87164,-0.138495,-0.426008,0.597627,
2,0,0,0,0,18750.9,0.593941,0.593655,-0.142742,51,0.250348,10,-8.47393e-05,-3.84545,-0.162361,-0.363387,0.593911,
2,0,0,1,0,18751.6,0.59014,0.589952,-0.151036,51,0.250233,10,-8.9104e-05,-3.82092,-0.151789,-0.388697,0.590222,
2,0,0,1,0,18752.4,0.586339,0.586077,-0.158526,51,0.250112,10,-9.29086e-05,-3.7999,-0.166428,-0.354507,0.586361,
2,0,0,0,0,18753.1,0.582538,0.582336,-0.16582,51,0.249986,10,-9.65632e-05,-3.78036,-0.200741,-0.293911,0.582633,
2,0,0,1,0,18753.9,0.578737,0.578538,-0.171804,51,0.249855,10,-9.93953e-05,-3.76497,-0.20885,-0.282499,0.578845,
2,0,0,0,0,18754.7,0.574936,0.574635,-0.177821,51,0.249719,10,-0.000102182,-3.75002,-0.197116,-0.299316,0.574953,
2,0,0,1,0,18755.4,0.571134,0.570989,-0.183084,51,0.249579,10,-0.000104539,-3.73735,-0.268448,-0.219782,0.571317,
2,0,0,0,0,18756.2,0.567333,0.567095,-0.188036,51,0.249435,10,-0.000106634,-3.72576,-0.43281,-0.136318,0.567432,
2,0,0,1,0,18756.9,0.563532,0.563268,-0.193033,51,0.249288,10,-0.00010873,-3.71437,-0.270548,-0.218076,0.563614,
2,0,0,0,0,18757.7,0.559731,0.559508,-0.195286,51,0.249138,10,-0.000109264,-3.70933,-0.315489,-0.187011,0.559857,
2,0,0,1,0,18758.5,0.55593,0.555652,-0.200977,51,0.248984,10,-0.000111674,-3.69685,-0.666627,-0.0885053,0.556012,
2,0,0,0,0,18759.2,0.552129,0.551892,-0.2043,51,0.248828,10,-0.000112752,-3.68973,-0.464277,-0.127079,0.552258,
2,0,0,1,0,18760,0.548328,0.548046,-0.207175,51,0.24867,10,-0.000113542,-3.68366,-3.93218,-0.0150044,0.548417,
2,0,0,0,0,18760.7,0.544527,0.544352,-0.210122,51,0.248509,10,-0.00011438,-3.67753,-0.721229,-0.0818048,0.544729,
2,0,0,1,0,18761.5,0.540726,0.540459,-0.211612,51,0.248346,10,-0.000114368,-3.67446,-1.94893,-0.030273,0.540837,
2,0,0,1,0,18762.3,0.536925,0.53667,-0.215262,51,0.248181,10,-0.000115525,-3.66703,5.30555,0.0111204,0.537055,
2,0,0,0,0,18763,0.533124,0.532824,-0.216638,51,0.248014,10,-0.00011543,-3.66427,-0.896925,-0.0657803,0.533212,
2,0,0,1,0,18763.8,0.529323,0.529016,-0.219234,51,0.247846,10,-0.000115978,-3.65909,-1.21718,-0.0484729,0.529408,
2,0,0,0,0,18764.5,0.525521,0.525179,-0.220636,51,0.247676,10,-0.000115873,-3.65632,-0.947615,-0.0622615,0.525574,
2,0,0,1,0,18765.3,0.52172,0.521476,-0.22185,51,0.247506,10,-0.000115689,-3.65394,-0.346088,-0.170477,0.521873,
2,0,0,0,0,18766.1,0.517919,0.517764,-0.224219,51,0.247334,10,-0.000116092,-3.64933,-1.02327,-0.057658,0.518165,
2,0,0,1,0,18766.8,0.514118,0.513908,-0.225556,51,0.24716,10,-0.000115915,-3.64675,-0.71246,-0.0828117,0.514312,
2,0,0,0,0,18767.6,0.510317,0.510062,-0.226555,51,0.246986,10,-0.000115557,-3.64483,-0.893555,-0.0660284,0.510468,
2,0,0,1,0,18768.3,0.506516,0.506283,-0.227788,51,0.246811,10,-0.000115325,-3.64247,-1.271,-0.04642,0.506691,
2,0,0,0,0,18769.1,0.502715,0.502465,-0.228736,51,0.246635,10,-0.000114932,-3.64067,-16.3818,-0.00360157,0.502875,
2,0,0,1,0,18769.9,0.498914,0.49861,-0.230559,51,0.246457,10,-0.000114959,-3.63722,-1.40791,-0.0419062,0.499022,
2,0,0,1,0,18770.6,0.495113,0.494783,-0.231862,51,0.246279,10,-0.000114722,-3.63477,-0.988304,-0.0596982,0.495198,
2,0,0,0,0,18771.4,0.491312,0.491099,-0.233928,51,0.2461,10,-0.000114882,-3.63092,-0.471163,-0.125222,0.491518,
2,0,0,1,0,18772.1,0.487511,0.487272,-0.235187,51,0.245919,10,-0.0001146,-3.62859,-1.19722,-0.0492807,0.487693,
2,0,0,0,0,18772.9,0.48371,0.483502,-0.23592,51,0.245737,10,-0.000114068,-3.62723,-0.78574,-0.0750884,0.483924,
2,0,0,1,0,18773.7,0.479908,0.47978,-0.236952,51,0.245554,10,-0.000113685,-3.62534,-1.94146,-0.0303895,0.480204,
2,0,0,0,0,18774.4,0.476107,0.475762,-0.239529,51,0.24537,10,-0.000113959,-3.62064,-2.19103,-0.026928,0.476191,
2,0,0,1,0,18775.2,0.472306,0.47204,-0.240911,51,0.245185,10,-0.00011372,-3.61814,7.89335,0.00747465,0.472471,
2,0,0,0,0,18775.9,0.468505,0.468261,-0.242378,51,0.244998,10,-0.000113496,-3.61551,-0.863234,-0.0683476,0.468695,
2,0,0,1,0,18776.7,0.464704,0.464443,-0.244682,51,0.24481,10,-0.000113641,-3.6114,-0.615585,-0.0958438,0.464881,
2,0,0,0,0,18777.5,0.460903,0.460635,-0.246233,51,0.244621,10,-0.000113424,-3.60865,-0.598807,-0.0985292,0.461076,
2,0,0,1,0,18778.2,0.457102,0.456885,-0.248213,51,0.24443,10,-0.000113405,-3.60518,-1.43754,-0.0410424,0.457329,
2,0,0,0,0,18779,0.453301,0.45301,-0.249913,51,0.244238,10,-0.000113213,-3.60221,-1.05383,-0.0559862,0.453457,
2,0,0,1,0,18779.7,0.4495,0.44924,-0.251213,51,0.244045,10,-0.000112855,-3.59996,1.887,0.0312665,0.44969,
2,0,0,1,0,18780.5,0.445699,0.445499,-0.253106,51,0.24385,10,-0.000112759,-3.5967,2.61715,0.0225436,0.445952,
2,0,0,0,0,18781.3,0.441898,0.441653,-0.256448,51,0.243653,10,-0.000113261,-3.591,-0.540313,-0.109196,0.442112,
2,0,0,1,0,18782,0.438096,0.437883,-0.25846,51,0.243455,10,-0.000113176,-3.58761,-0.648161,-0.0910267,0.438346,
2,0,0,0,0,18782.8,0.434295,0.434123,-0.260654,51,0.243255,10,-0.000113156,-3.58394,-0.443906,-0.132911,0.43459,
2,0,0,1,0,18783.5,0.430494,0.430287,-0.263477,51,0.243053,10,-0.000113371,-3.57926,-0.910362,-0.0648094,0.430758,
2,0,0,0,0,18784.3,0.426693,0.426479,-0.266015,51,0.242849,10,-0.00011345,-3.57509,-0.576109,-0.102411,0.426955,
2,0,0,1,0,18785.1,0.422892,0.422585,-0.268033,51,0.242644,10,-0.000113267,-3.57181,-1.26428,-0.0466668,0.423065,
2,0,0,0,0,18785.8,0.419091,0.41893,-0.27035,51,0.242436,10,-0.000113258,-3.56807,-0.930976,-0.0633744,0.419414,
2,0,0,1,0,18786.6,0.41529,0.415122,-0.273433,51,0.242226,10,-0.000113508,-3.56315,-0.875715,-0.0673735,0.415611,
2,0,0,0,0,18787.3,0.411489,0.411209,-0.276081,51,0.242014,10,-0.000113527,-3.55896,-0.665134,-0.0887039,0.411703,
2,0,0,1,0,18788.1,0.407688,0.407506,-0.27834,51,0.2418,10,-0.000113425,-3.55542,13.129,0.00449386,0.408004,
2,0,0,1,0,18788.9,0.403887,0.403536,-0.281753,51,0.241584,10,-0.000113698,-3.55013,-0.464261,-0.127084,0.40404,
2,0,0,0,0,18789.6,0.400086,0.399785,-0.28507,51,0.241365,10,-0.000113967,-3.54505,-0.590838,-0.0998581,0.400295,
2,0,0,1,0,18790.4,0.396285,0.395968,-0.287075,51,0.241145,10,-0.000113673,-3.542,-1.75476,-0.0336228,0.396482,
2,0,0,0,0,18791.1,0.392484,0.392198,-0.290995,51,0.240922,10,-0.000114128,-3.53611,-0.443567,-0.133013,0.392719,
2,0,0,1,0,18791.9,0.388682,0.388409,-0.29328,51,0.240696,10,-0.000113913,-3.53272,-0.448851,-0.131447,0.388934,
2,0,0,0,0,18792.7,0.384881,0.38462,-0.297018,51,0.240468,10,-0.000114239,-3.52722,-0.627605,-0.0940081,0.385152,
2,0,0,1,0,18793.4,0.38108,0.380898,-0.299712,51,0.240237,10,-0.00011416,-3.5233,-15.5761,-0.00378785,0.381435,
2,0,0,0,0,18794.2,0.377279,0.377081,-0.302613,51,0.240004,10,-0.000114109,-3.51911,-0.599532,-0.0984102,0.377622,
2,0,0,1,0,18794.9,0.373478,0.373216,-0.307701,51,0.239767,10,-0.000114839,-3.51187,-5.0213,-0.0117499,0.373766,
2,0,0,0,0,18795.7,0.369677,0.36935,-0.310933,51,0.239528,10,-0.000114843,-3.50733,-1.97548,-0.0298662,0.369907,
2,0,0,1,0,18796.5,0.365876,0.365657,-0.313042,51,0.239287,10,-0.000114466,-3.5044,-0.919203,-0.064186,0.366217,
2,0,0,0,0,18797.2,0.362075,0.361859,-0.317903,51,0.239042,10,-0.000115036,-3.4977,-0.795245,-0.0741909,0.362428,
2,0,0,1,0,18798,0.358274,0.358089,-0.321476,51,0.238794,10,-0.000115117,-3.49285,-0.939409,-0.0628054,0.358664,
2,0,0,1,0,18798.7,0.354473,0.354252,-0.325958,51,0.238543,10,-0.000115471,-3.48684,-0.719428,-0.0820096,0.354836,
2,0,0,0,0,18799.5,0.350672,0.350444,-0.329015,51,0.238289,10,-0.000115301,-3.48278,-0.548269,-0.107611,0.351033,
2,0,0,1,0,18800.3,0.346871,0.346608,-0.333882,51,0.238032,10,-0.000115726,-3.47641,-0.767142,-0.0769089,0.347206,
2,0,0,0,0,18801,0.343069,0.342848,-0.337166,51,0.237772,10,-0.000115597,-3.47216,-3.19791,-0.0184495,0.343451,
2,0,0,1,0,18801.8,0.339268,0.339049,-0.342326,51,0.237509,10,-0.000116065,-3.46556,-0.592466,-0.0995838,0.339662,
2,0,0,0,0,18802.5,0.335467,0.33528,-0.347433,51,0.237242,10,-0.000116487,-3.45913,-1.07135,-0.0550709,0.335901,
2,0,0,1,0,18803.3,0.331666,0.331376,-0.349887,51,0.236973,10,-0.000115944,-3.45607,-1.7312,-0.0340803,0.332002,
2,0,0,0,0,18804.1,0.327865,0.327626,-0.354391,51,0.2367,10,-0.000116108,-3.45052,-0.641729,-0.0919391,0.32826,
2,0,0,1,0,18804.8,0.324064,0.323818,-0.358129,51,0.236424,10,-0.000115969,-3.44596,-0.495505,-0.11907,0.324459,
2,0,0,0,0,18805.6,0.320263,0.320076,-0.362237,51,0.236146,10,-0.000115944,-3.44101,-0.543415,-0.108573,0.320725,
2,0,0,1,0,18806.3,0.316462,0.316192,-0.365126,51,0.235864,10,-0.00011545,-3.43756,-0.830372,-0.0710525,0.316846,
2,0,0,1,0,18807.1,0.312661,0.312384,-0.369554,51,0.235579,10,-0.000115443,-3.43232,-1.93521,-0.0304876,0.313046,
2,0,0,0,0,18807.9,0.30886,0.308615,-0.374251,51,0.235291,10,-0.000115499,-3.42684,-1.11921,-0.0527156,0.309284,
2,0,0,1,0,18808.6,0.305059,0.304807,-0.376983,51,0.235001,10,-0.000114907,-3.42368,-0.778729,-0.0757645,0.305481,
2,0,0,0,0,18809.4,0.301258,0.301065,-0.381695,51,0.234707,10,-0.000114915,-3.41828,-0.797084,-0.0740198,0.301749,
2,0,0,1,0,18810.2,0.297456,0.297162,-0.385764,51,0.234411,10,-0.000114634,-3.41368,-0.700417,-0.0842355,0.297853,
2,0,0,0,0,18810.9,0.293655,0.293431,-0.390164,51,0.234111,10,-0.000114486,-3.40875,-1.4066,-0.0419451,0.294129,
2,0,0,1,0,18811.7,0.289854,0.289651,-0.394085,51,0.233809,10,-0.000114147,-3.40441,-0.591609,-0.099728,0.290357,
2,0,0,0,0,18812.4,0.286053,0.285796,-0.398017,51,0.233503,10,-0.000113752,-3.4001,-0.82909,-0.0711624,0.286508,
2,0,0,1,0,18813.2,0.282252,0.281978,-0.403326,51,0.233194,10,-0.000113729,-3.39434,-1.48222,-0.039805,0.2827,
2,0,0,0,0,18814,0.278451,0.278247,-0.406072,51,0.232882,10,-0.000112988,-3.3914,-0.679485,-0.0868305,0.278973,
2,0,0,1,0,18814.7,0.27465,0.274458,-0.411179,51,0.232566,10,-0.000112851,-3.38597,-0.504186,-0.11702,0.275194,
2,0,0,0,0,18815.5,0.270849,0.270612,-0.416754,51,0.232248,10,-0.000112779,-3.38012,-0.784892,-0.0751696,0.271358,
2,0,0,1,0,18816.2,0.267048,0.266718,-0.420848,51,0.231926,10,-0.000112248,-3.37587,-0.993152,-0.0594068,0.267471,
2,0,0,1,0,18817,0.263247,0.263015,-0.42414,51,0.2316,10,-0.000111555,-3.37249,-0.924251,-0.0638355,0.263774,
2,0,0,0,0,18817.8,0.259446,0.25915,-0.429267,51,0.231271,10,-0.000111245,-3.36727,-1.77012,-0.0333311,0.259918,
2,0,0,1,0,18818.5,0.255645,0.255428,-0.433921,51,0.230939,10,-0.000110835,-3.36259,-1.3072,-0.0451345,0.256204,
2,0,0,0,0,18819.3,0.251843,0.251601,-0.440528,51,0.230603,10,-0.000110837,-3.35603,-0.430984,-0.136896,0.252389,
2,0,0,1,0,18820,0.248042,0.247821,-0.443656,51,0.230263,10,-0.000109947,-3.35295,-0.580014,-0.101722,0.248616,
2,0,0,0,0,18820.8,0.244241,0.244004,-0.449698,51,0.229919,10,-0.000109728,-3.34708,-1.09458,-0.0539018,0.244809,
2,0,0,1,0,18821.6,0.24044,0.240215,-0.45393,51,0.22957,10,-0.000109041,-3.34301,-1.87549,-0.0314584,0.241028,
2,0,0,0,0,18822.3,0.236639,0.236436,-0.461205,51,0.229218,10,-0.000109045,-3.33611,-0.533027,-0.110689,0.237261,
2,0,0,1,0,18823.1,0.232838,0.232676,-0.468507,51,0.22886,10,-0.00010901,-3.32928,-0.782112,-0.0754367,0.233514,
2,0,0,0,0,18823.8,0.229037,0.228715,-0.475594,51,0.228497,10,-0.000108775,-3.32276,-1.15563,-0.0510546,0.229566,
2,0,0,1,0,18824.6,0.225236,0.224955,-0.482246,51,0.228129,10,-0.000108484,-3.31673,-0.421469,-0.139986,0.225818,
2,0,0,1,0,18825.4,0.221435,0.221195,-0.490983,51,0.227755,10,-0.000108603,-3.30893,-0.623953,-0.0945585,0.222073,
2,0,0,0,0,18826.1,0.217634,0.217329,-0.498926,51,0.227375,10,-0.000108431,-3.30196,-0.421738,-0.139897,0.218223,
2,0,0,1,0,18826.9,0.213833,0.213607,-0.508823,51,0.226988,10,-0.000108688,-3.29343,-0.468748,-0.125867,0.214518,
2,0,0,0,0,18827.6,0.210032,0.209752,-0.51839,51,0.226593,10,-0.000108733,-3.28534,-0.382844,-0.15411,0.21068,
2,0,0,1,0,18828.4,0.20623,0.206001,-0.529767,51,0.22619,10,-0.000109133,-3.27592,-0.454013,-0.129952,0.206949,
2,0,0,0,0,18829.2,0.202429,0.20226,-0.5413,51,0.225778,10,-0.000109483,-3.26656,-0.464771,-0.126944,0.203229,
2,0,0,1,0,18829.9,0.198628,0.198462,-0.557162,51,0.225356,10,-0.000110575,-3.25402,-0.347861,-0.169608,0.199459,
2,0,0,0,0,18830.7,0.194827,0.194587,-0.574348,51,0.224921,10,-0.000111761,-3.24083,-0.260723,-0.226294,0.195615,
2,0,0,1,0,18831.4,0.191026,0.190712,-0.594597,51,0.224472,10,-0.000113397,-3.22578,-0.264434,-0.223118,0.191777,
2,0,0,0,0,18832.2,0.187225,0.187,-0.616994,51,0.224007,10,-0.000115378,-3.20972,-0.206736,-0.285389,0.188104,
2,0,0,1,0,18833,0.183424,0.183192,-0.642786,51,0.223524,10,-0.000117753,-3.19193,-0.206764,-0.28535,0.184342,
2,0,0,0,0,18833.7,0.179623,0.179355,-0.670843,51,0.22302,10,-0.000120319,-3.17338,-0.186892,-0.31569,0.180556,
2,0,0,1,0,18834.5,0.175822,0.175557,-0.705825,51,0.222492,10,-0.000123912,-3.1513,-0.128947,-0.457552,0.17682,
2,0,0,1,0,18835.2,0.172021,0.171825,-0.750126,51,0.221934,10,-0.000128891,-3.12487,-0.137373,-0.429486,0.173168,
2,0,0,0,0,18836,0.16822,0.16796,-0.797121,51,0.221341,10,-0.000133885,-3.09848,-0.12707,-0.464311,0.169387,
2,0,0,1,0,18836.8,0.164419,0.164124,-0.855182,51,0.220709,10,-0.000140355,-3.06794,-0.128098,-0.460586,0.165654,
2,0,0,0,0,18837.5,0.160617,0.160335,-0.914261,51,0.220032,10,-0.000146588,-3.03893,-0.127726,-0.461925,0.161971,
2,0,0,1,0,18838.3,0.156816,0.156613,-0.981473,51,0.219306,10,-0.000153711,-3.00812,-0.118009,-0.499961,0.15837,
2,0,0,0,0,18839,0.153015,0.152662,-1.05272,51,0.218528,10,-0.00016071,-2.97769,-0.12503,-0.471888,0.154546,
2,0,0,1,0,18839.8,0.149214,0.148949,-1.12375,51,0.217696,10,-0.000167381,-2.94933,-0.132331,-0.445853,0.150961,
2,0,0,0,0,18840.6,0.145413,0.145084,-1.19493,51,0.216809,10,-0.000173366,-2.92266,-0.154019,-0.383068,0.147223,
2,0,0,1,0,18841.3,0.141612,0.1414,-1.26262,51,0.215869,10,-0.000178534,-2.89873,-0.173395,-0.340263,0.14366,
2,0,0,0,0,18842.1,0.137811,0.13764,-1.32002,51,0.214881,10,-0.000181688,-2.87942,-0.189914,-0.310667,0.140003,
2,0,0,1,0,18842.8,0.13401,0.133737,-1.37397,51,0.213851,10,-0.00018375,-2.86202,-0.255626,-0.230806,0.136196,
2,0,0,1,0,18843.6,0.130209,0.129862,-1.41544,51,0.212784,10,-0.000183811,-2.84911,-0.375742,-0.157023,0.132395,
2,0,0,0,0,18844.4,0.126408,0.126149,-1.44388,51,0.211692,10,-0.000182145,-2.84047,-0.879109,-0.0671134,0.128734,
2,0,0,1,0,18845.1,0.122607,0.122246,-1.4598,51,0.210583,10,-0.000178455,-2.83571,-1.50153,-0.0392933,0.124859,
2,0,0,0,0,18845.9,0.118806,0.118543,-1.46367,51,0.209466,10,-0.000173508,-2.83456,17.3815,0.00339442,0.121163,
2,0,0,1,0,18846.6,0.115004,0.11464,-1.4556,51,0.208351,10,-0.00016687,-2.83696,0.982161,0.0600716,0.117245,
2,0,0,0,0,18847.4,0.111203,0.110965,-1.4376,51,0.207245,10,-0.000159524,-2.84236,0.618397,0.0954079,0.113539,
2,0,0,1,0,18848.2,0.107402,0.10711,-1.41334,51,0.206156,10,-0.000151382,-2.84975,0.490856,0.120198,0.10964,
2,0,0,0,0,18848.9,0.103601,0.103273,-1.38363,51,0.205088,10,-0.000142892,-2.85898,0.392917,0.150159,0.10575,
2,0,0,1,0,18849.7,0.0998002,0.0995702,-1.34666,51,0.204045,10,-0.000134087,-2.87074,0.296551,0.198954,0.101981,
2,0,0,0,0,18850.4,0.0959991,0.095686,-1.30504,51,0.203031,10,-0.000124874,-2.88438,0.285554,0.206616,0.098022,
2,0,0,1,0,18851.2,0.092198,0.0919544,-1.26269,51,0.202051,10,-0.00011611,-2.8987,0.252463,0.233698,0.0942146,
2,0,0,0,0,18852,0.0883969,0.0881083,-1.21792,51,0.201103,10,-0.000107309,-2.91438,0.22962,0.256946,0.0902883,
2,0,0,1,0,18852.7,0.0845958,0.084329,-1.17157,51,0.200191,10,-9.87972e-05,-2.93123,0.24321,0.242589,0.0864261,
2,0,0,1,0,18853.5,0.0807947,0.0806356,-1.13022,51,0.199312,10,-9.1136e-05,-2.94684,0.235796,0.250217,0.0826587,
2,0,0,0,0,18854.2,0.0769937,0.076675,-1.08846,51,0.198465,10,-8.34574e-05,-2.96319,0.246072,0.239768,0.0786233,
2,0,0,1,0,18855,0.0731926,0.0729052,-1.04821,51,0.197648,10,-7.64201e-05,-2.97955,0.262238,0.224986,0.0747815,
2,0,0,0,0,18855.8,0.0693915,0.06904,-1.01605,51,0.196858,10,-7.01483e-05,-2.99308,0.287829,0.204983,0.0708588,
2,0,0,1,0,18856.5,0.0655904,0.0652608,-0.98708,51,0.196092,10,-6.44176e-05,-3.00565,0.269666,0.218789,0.0670276,
2,0,0,0,0,18857.3,0.0617893,0.0616246,-0.958842,51,0.195347,10,-5.90883e-05,-3.01825,0.303099,0.194656,0.063341,
2,0,0,1,0,18858,0.0579882,0.0576067,-0.936736,51,0.194621,10,-5.39623e-05,-3.02838,0.352167,0.167534,0.0592835,
2,0,0,0,0,18858.8,0.0541872,0.0539897,-0.918343,51,0.193911,10,-4.95811e-05,-3.03699,0.40472,0.14578,0.0556335,
2,0,0,1,0,18859.6,0.0503861,0.0501531,-0.902417,51,0.193214,10,-4.5259e-05,-3.04459,0.53959,0.109342,0.0517685,
2,0,0,0,0,18860.3,0.046585,0.0462975,-0.888619,51,0.192529,10,-4.11408e-05,-3.05128,0.525257,0.112326,0.0478881,
2,0,0,1,0,18861.1,0.0427839,0.0424991,-0.8768,51,0.191852,10,-3.72632e-05,-3.0571,0.644271,0.0915763,0.0440686,
2,0,0,1,0,18861.8,0.0389828,0.0386817,-0.868263,51,0.191183,10,-3.35858e-05,-3.06135,1.01074,0.0583729,0.0402359,
2,0,0,0,0,18862.6,0.0351817,0.0349024,-0.857927,51,0.190521,10,-2.99437e-05,-3.06655,1.55345,0.03798,0.0364381,
2,0,0,1,0,18863.4,0.0313807,0.0311613,-0.853228,51,0.189864,10,-2.65877e-05,-3.06893,0.960205,0.0614452,0.0326885,
2,0,0,0,0,18864.1,0.0275796,0.027277,-0.848464,51,0.189212,10,-2.31436e-05,-3.07137,1.71516,0.0343992,0.0287957,
2,0,0,1,0,18864.9,0.0237785,0.0234977,-0.842935,51,0.188563,10,-1.9807e-05,-3.07421,2.42779,0.0243019,0.0250066,
2,0,0,0,0,18865.6,0.0199774,0.0197089,-0.840027,51,0.187917,10,-1.6556e-05,-3.07571,1.78128,0.0331222,0.0212125,
2,0,0,1,0,18866.4,0.0161763,0.0158723,-0.83869,51,0.187272,10,-1.3312e-05,-3.0764,11.5627,0.00510263,0.0173736,
2,0,0,0,0,18867.2,0.0123753,0.0120549,-0.837003,51,0.186629,10,-1.00899e-05,-3.07727,-10.8366,-0.00544452,0.0135531,
2,0,0,1,0,18867.9,0.00857417,0.00833283,-0.837561,51,0.185986,10,-6.97925e-06,-3.07698,-17.6366,-0.00334532,0.00983206,
2,0,0,0,0,18868.7,0.00477309,0.00451536,-0.839151,51,0.185342,10,-3.78907e-06,-3.07616,-0.258454,-0.228281,0.00601744,
2,0,0,1,0,18869.4,0.000972007,0.00059292,-0.845589,51,0.184693,10,-5.01366e-07,-3.07284,-14.3032,-0.00412495,0.00210652,
2,0,0,0,0,18869.6,0.00017178,-0.000294641,-0.845148,51,0.184556,10,2.49015e-07,-3.07307, , ,0.00121817,