File: Figure_codes/Fig_2_S1_S6/20220924_003_MultiCV_0_850mV_1-84_C_02_CV_C01_10.csv
mode,ox/red,error,control changes,counter inc.,time/s,control/V,Ewe/V,<I>/mA,cycle number,(Q-Qo)/C,I Range,P/W,log(|I|),Tafel slope mV/dec,alpha_eff,E-IR/V,
2,0,0,0,0,3729.95,2.17368e-05,-0.000332815,-0.168721,11,0.0000000E+000,10,5.61531e-08,-3.77283, , ,-3.0804e-05,
2,1,0,1,0,3730.7,0.00377281,0.00352282,0.0841985,11,2.3218e-06,10,2.96616e-07,-4.0747,0.00468577,12.5913,0.00337211,
2,1,0,1,0,3731.46,0.00757389,0.00740709,0.189858,11,0.000120185,10,1.40629e-06,-3.72157,0.0206469,2.85758,0.00706725,
2,1,0,0,0,3732.22,0.011375,0.0111864,0.245926,11,0.000294192,10,2.75102e-06,-3.6092,0.0437832,1.34755,0.0107462,
2,1,0,1,0,3732.98,0.015176,0.0149561,0.286995,11,0.000504595,10,4.29234e-06,-3.54213,0.0784885,0.751703,0.0144424,
2,1,0,0,0,3733.74,0.0189771,0.0187545,0.314111,11,0.000739855,10,5.891e-06,-3.50292,0.124153,0.475219,0.0181922,
2,1,0,1,0,3734.5,0.0227782,0.0225147,0.333004,11,0.000992251,10,7.49748e-06,-3.47755,0.233837,0.252313,0.0219186,
2,1,0,0,0,3735.26,0.0265793,0.0264562,0.346945,11,0.00125626,10,9.17885e-06,-3.45974,0.254083,0.232207,0.0258352,
2,1,0,1,0,3736.02,0.0303804,0.0301401,0.357802,11,0.00153016,10,1.07842e-05,-3.44636,0.225658,0.261457,0.0294996,
2,1,0,0,0,3736.78,0.0341815,0.0340053,0.36698,11,0.00181223,10,1.24792e-05,-3.43536,0.569944,0.103519,0.0333484,
2,1,0,1,0,3737.54,0.0379825,0.0378132,0.37297,11,0.0020997,10,1.41032e-05,-3.42833,0.408461,0.144445,0.0371456,
2,1,0,0,0,3738.3,0.0417836,0.0416211,0.379947,11,0.00239206,10,1.58138e-05,-3.42028,0.668456,0.0882631,0.040941,
2,1,0,1,0,3739.06,0.0455847,0.0454386,0.384126,11,0.00268896,10,1.74542e-05,-3.41553,0.620371,0.0951043,0.044751,
2,1,0,1,0,3739.82,0.0493858,0.0491988,0.387622,11,0.00298949,10,1.90705e-05,-3.41159,1.04727,0.056337,0.0485049,
2,1,0,0,0,3740.58,0.0531869,0.052959,0.393284,11,0.00329335,10,2.08279e-05,-3.40529,0.658358,0.089617,0.052255,
2,1,0,1,0,3741.34,0.056988,0.0567383,0.398677,11,0.00360083,10,2.26203e-05,-3.39938,0.714401,0.0825867,0.0560246,
2,1,0,0,0,3742.1,0.060789,0.0606034,0.402149,11,0.00391168,10,2.43716e-05,-3.39561,0.941336,0.0626768,0.0598836,
2,1,0,1,0,3742.86,0.0645901,0.0642873,0.406024,11,0.0042254,10,2.61022e-05,-3.39145,1.02741,0.0574257,0.0635605,
2,1,0,0,0,3743.62,0.0683912,0.0682002,0.411826,11,0.004543,10,2.80866e-05,-3.38529,0.438603,0.134518,0.067463,
2,1,0,1,0,3744.38,0.0721923,0.0720177,0.416661,11,0.00486507,10,3.0007e-05,-3.38022,0.502856,0.11733,0.0712718,
2,1,0,0,0,3745.14,0.0759934,0.0757588,0.42234,11,0.00519135,10,3.1996e-05,-3.37434,0.447701,0.131785,0.0750028,
2,1,0,1,0,3745.9,0.0797945,0.0795094,0.432049,11,0.00552379,10,3.4352e-05,-3.36447,0.582783,0.101238,0.0787361,
2,1,0,0,0,3746.66,0.0835955,0.0833746,0.441687,11,0.00586287,10,3.68255e-05,-3.35489,0.404891,0.145718,0.082584,
2,1,0,1,0,3747.42,0.0873966,0.0872302,0.450163,11,0.00620952,10,3.92679e-05,-3.34663,0.485034,0.121641,0.0864245,
2,1,0,0,0,3748.18,0.0911977,0.0909809,0.464253,11,0.00656464,10,4.22382e-05,-3.33324,0.297559,0.19828,0.0901499,
2,1,0,1,0,3748.94,0.0949988,0.0947411,0.479141,11,0.00693143,10,4.53943e-05,-3.31954,0.24782,0.238076,0.0938835,
2,1,0,1,0,3749.7,0.0987999,0.0985395,0.500222,11,0.00731194,10,4.92916e-05,-3.30084,0.201196,0.293246,0.0976441,
2,1,0,0,0,3750.46,0.102601,0.102376,0.522651,11,0.00770794,10,5.3507e-05,-3.28179,0.179593,0.328521,0.101441,
2,1,0,1,0,3751.22,0.106402,0.106136,0.548742,11,0.00812285,10,5.82414e-05,-3.26063,0.149357,0.395027,0.105154,
2,1,0,0,0,3751.98,0.110203,0.109877,0.581725,11,0.00856069,10,6.39184e-05,-3.23528,0.127139,0.464059,0.108836,
2,1,0,1,0,3752.74,0.114004,0.1138,0.618601,11,0.00902503,10,7.03967e-05,-3.20859,0.103887,0.567926,0.112693,
2,1,0,0,0,3753.5,0.117805,0.11756,0.668244,11,0.00952258,10,7.85588e-05,-3.17506,0.101871,0.579166,0.116364,
2,1,0,1,0,3754.27,0.121606,0.121397,0.722761,11,0.0100591,10,8.77407e-05,-3.14101,0.102743,0.574248,0.120103,
2,1,0,0,0,3755.03,0.125407,0.125176,0.789623,11,0.0106421,10,9.88417e-05,-3.10258,0.0926495,0.636809,0.123762,
2,1,0,1,0,3755.79,0.129209,0.128974,0.867413,11,0.0112794,10,0.000111874,-3.06177,0.0861758,0.684647,0.127422,
2,1,0,0,0,3756.55,0.13301,0.132811,0.959612,11,0.0119825,10,0.000127447,-3.0179,0.0869976,0.678179,0.131093,
2,1,0,1,0,3757.31,0.136811,0.136647,1.06101,11,0.0127597,10,0.000144984,-2.97428,0.0905957,0.651245,0.134748,
2,1,0,1,0,3758.07,0.140612,0.140427,1.16997,11,0.0136162,10,0.000164294,-2.93183,0.0910632,0.647902,0.138332,
2,1,0,0,0,3758.83,0.144413,0.144177,1.27975,11,0.0145567,10,0.000184511,-2.89287,0.09816,0.601059,0.141887,
2,1,0,1,0,3759.59,0.148214,0.148023,1.38508,11,0.015579,10,0.000205025,-2.85852,0.115333,0.511564,0.145544,
2,1,0,0,0,3760.35,0.152015,0.151774,1.47358,11,0.0166761,10,0.000223652,-2.83163,0.143826,0.410217,0.149136,
2,1,0,1,0,3761.11,0.155816,0.15563,1.55219,11,0.0178378,10,0.000241566,-2.80906,0.209427,0.281721,0.152851,
2,1,0,0,0,3761.87,0.159617,0.159304,1.61496,11,0.0190519,10,0.00025727,-2.79184,0.255907,0.230552,0.156413,
2,1,0,1,0,3762.63,0.163418,0.163179,1.65558,11,0.020305,10,0.000270155,-2.78105,0.661819,0.0891483,0.160215,
2,1,0,0,0,3763.39,0.167219,0.166987,1.67291,11,0.0215793,10,0.000279353,-2.77653,1.28792,0.0458101,0.163992,
2,1,0,1,0,3764.15,0.17102,0.170795,1.67361,11,0.022861,10,0.000285843,-2.77635,-1.64851,-0.0357899,0.167799,
2,1,0,0,0,3764.91,0.174822,0.174612,1.65214,11,0.0241347,10,0.000288484,-2.78195,-0.456812,-0.129156,0.171655,
2,1,0,1,0,3765.67,0.178623,0.17842,1.61012,11,0.0253843,10,0.000287278,-2.79314,-0.306746,-0.192341,0.175538,
2,1,0,0,0,3766.43,0.182424,0.182218,1.55081,11,0.026595,10,0.000282586,-2.80944,-0.209691,-0.281367,0.179442,
2,1,0,1,0,3767.19,0.186225,0.185969,1.46985,11,0.0277531,10,0.000273347,-2.83273,-0.145042,-0.406779,0.183338,
2,1,0,1,0,3767.95,0.190026,0.189777,1.36617,11,0.028841,10,0.000259267,-2.8645,-0.107424,-0.549226,0.187331,
2,1,0,0,0,3768.71,0.193827,0.19348,1.2506,11,0.0298442,10,0.000241965,-2.90288,-0.0970506,-0.60793,0.191241,
2,1,0,1,0,3769.47,0.197628,0.197469,1.12866,11,0.0307563,10,0.000222875,-2.94744,-0.0966187,-0.610648,0.195449,
2,1,0,0,0,3770.23,0.201429,0.201239,1.01314,11,0.0315772,10,0.000203882,-2.99433,-0.0837748,-0.704269,0.199425,
2,1,0,1,0,3770.99,0.20523,0.205037,0.908509,11,0.0323135,10,0.000186278,-3.04167,-0.0887397,-0.664866,0.203411,
2,1,0,0,0,3771.75,0.209031,0.208769,0.822988,11,0.0329773,10,0.000171814,-3.08461,-0.096224,-0.613152,0.207296,
2,1,0,1,0,3772.51,0.212832,0.212691,0.748975,11,0.0335812,10,0.0001593,-3.12553,-0.109283,-0.539885,0.211351,
2,1,0,0,0,3773.27,0.216633,0.216509,0.691732,11,0.034135,10,0.000149766,-3.16006,-0.118049,-0.499792,0.21527,
2,1,0,1,0,3774.03,0.220434,0.220212,0.648748,11,0.0346505,10,0.000142862,-3.18792,-0.152542,-0.386779,0.21905,
2,1,0,0,0,3774.79,0.224236,0.223981,0.612007,11,0.035135,10,0.000137078,-3.21324,-0.166974,-0.353349,0.222886,
2,1,0,1,0,3775.55,0.228037,0.227847,0.582133,11,0.0355944,10,0.000132637,-3.23498,-0.211409,-0.27908,0.226805,
2,1,0,1,0,3776.31,0.231838,0.231569,0.55901,11,0.0360332,10,0.000129449,-3.25258,-0.248499,-0.237426,0.230568,
2,1,0,0,0,3777.07,0.235639,0.235396,0.540525,11,0.0364567,10,0.000127237,-3.26718,-0.250354,-0.235666,0.234428,
2,1,0,1,0,3777.83,0.23944,0.239261,0.524053,11,0.0368668,10,0.000125385,-3.28062,-0.346055,-0.170493,0.238323,
2,1,0,0,0,3778.59,0.243241,0.24304,0.510048,11,0.0372651,10,0.000123962,-3.29239,-0.374257,-0.157646,0.242127,
2,1,0,1,0,3779.35,0.247042,0.24681,0.497561,11,0.0376535,10,0.000122803,-3.30315,-0.498479,-0.11836,0.245919,
2,1,0,0,0,3780.11,0.250843,0.25058,0.486956,11,0.0380333,10,0.000122021,-3.31251,-0.507526,-0.11625,0.249708,
2,1,0,1,0,3780.87,0.254644,0.254454,0.475864,11,0.0384054,10,0.000121086,-3.32252,-0.696422,-0.0847187,0.253602,
2,1,0,0,0,3781.63,0.258445,0.258176,0.468634,11,0.0387707,10,0.00012099,-3.32917,-0.778408,-0.0757957,0.257337,
2,1,0,1,0,3782.39,0.262246,0.262032,0.461729,11,0.0391304,10,0.000120988,-3.33561,-0.549284,-0.107413,0.261205,
2,1,0,0,0,3783.15,0.266047,0.265897,0.454382,11,0.039485,10,0.000120819,-3.34258,-0.381505,-0.154651,0.265084,
2,1,0,1,0,3783.91,0.269849,0.269648,0.448314,11,0.0398343,10,0.000120887,-3.34842,-0.838115,-0.0703961,0.268845,
2,1,0,0,0,3784.67,0.27365,0.273475,0.441856,11,0.0401799,10,0.000120836,-3.35472,-0.938679,-0.0628543,0.272684,
2,1,0,1,0,3785.43,0.277451,0.277206,0.437469,11,0.0405217,10,0.000121269,-3.35905,-0.958592,-0.0615486,0.276423,
2,1,0,1,0,3786.19,0.281252,0.280938,0.433938,11,0.04086,10,0.00012191,-3.36257,-4.52019,-0.0130526,0.280161,
2,1,0,0,0,3786.95,0.285053,0.284822,0.429298,11,0.0411953,10,0.000122273,-3.36724,-1.81127,-0.0325738,0.284054,
2,1,0,1,0,3787.71,0.288854,0.288611,0.425611,11,0.0415281,10,0.000122836,-3.37099,-0.534897,-0.110302,0.287849,
2,1,0,0,0,3788.47,0.292655,0.292428,0.421016,11,0.0418576,10,0.000123117,-3.3757,-0.962687,-0.0612868,0.291675,
2,1,0,1,0,3789.24,0.296456,0.296322,0.418148,11,0.0421843,10,0.000123906,-3.37867,-0.721076,-0.0818221,0.295574,
2,1,0,0,0,3790,0.300257,0.300092,0.417103,11,0.0425087,10,0.000125169,-3.37976,-1.89384,-0.0311536,0.299345,
2,1,0,1,0,3790.76,0.304058,0.303795,0.413423,11,0.0428309,10,0.000125596,-3.38361,-0.975669,-0.0604713,0.303055,
2,1,0,0,0,3791.52,0.307859,0.307622,0.411456,11,0.04315,10,0.000126573,-3.38568,-1.18874,-0.0496325,0.306885,
2,1,0,1,0,3792.28,0.31166,0.311554,0.409581,11,0.0434674,10,0.000127606,-3.38766,-6.51673,-0.00905362,0.310821,
2,1,0,0,0,3793.04,0.315462,0.315171,0.405472,11,0.043783,10,0.000127793,-3.39204,-1.14431,-0.0515593,0.314445,
2,1,0,1,0,3793.8,0.319263,0.319027,0.403136,11,0.0440963,10,0.000128611,-3.39455,-0.595577,-0.0990637,0.318305,
2,1,0,1,0,3794.56,0.323064,0.32294,0.401054,11,0.0444076,10,0.000129516,-3.3968,-1.45508,-0.0405475,0.322222,
2,1,0,0,0,3795.32,0.326865,0.326642,0.398521,11,0.0447172,10,0.000130174,-3.39955,-1.68087,-0.0351009,0.325929,
2,1,0,1,0,3796.08,0.330666,0.330412,0.396607,11,0.0450251,10,0.000131044,-3.40164,-0.443962,-0.132894,0.329702,
2,1,0,0,0,3796.84,0.334467,0.334249,0.394251,11,0.045331,10,0.000131778,-3.40423,-0.948431,-0.062208,0.333543,
2,1,0,1,0,3797.6,0.338268,0.338114,0.392654,11,0.0456355,10,0.000132762,-3.40599,-0.566211,-0.104202,0.337411,
2,1,0,0,0,3798.36,0.342069,0.341846,0.391564,11,0.0459385,10,0.000133854,-3.4072,-1.82015,-0.0324148,0.341145,
2,1,0,1,0,3799.12,0.34587,0.345596,0.387475,11,0.0462394,10,0.00013391,-3.41176,-0.680076,-0.086755,0.344903,
2,1,0,0,0,3799.88,0.349671,0.349423,0.385003,11,0.0465386,10,0.000134529,-3.41454,-3.02485,-0.0195051,0.348734,
2,1,0,1,0,3800.64,0.353472,0.353202,0.383808,11,0.0468366,10,0.000135562,-3.41589,4.07564,0.0144763,0.352515,
2,1,0,0,0,3801.4,0.357273,0.357077,0.381842,11,0.0471329,10,0.000136347,-3.41812,-1.73244,-0.0340559,0.356394,
2,1,0,1,0,3802.16,0.361075,0.360961,0.379681,11,0.0474274,10,0.00013705,-3.42058,-1.04513,-0.0564522,0.360282,
2,1,0,0,0,3802.92,0.364876,0.364645,0.378389,11,0.0477209,10,0.000137978,-3.42206,-0.781787,-0.0754681,0.363968,
2,1,0,1,0,3803.68,0.368677,0.368472,0.375405,11,0.0480127,10,0.000138326,-3.4255,-0.699998,-0.0842859,0.3678,
2,1,0,1,0,3804.44,0.372478,0.372156,0.373424,11,0.0483027,10,0.000138972,-3.4278,-1.32126,-0.0446543,0.371488,
2,1,0,0,0,3805.2,0.376279,0.376145,0.369666,11,0.0485915,10,0.000139048,-3.43219,-1.25925,-0.0468533,0.375484,
2,1,0,1,0,3805.96,0.38008,0.379743,0.368641,11,0.0488789,10,0.000139989,-3.4334,-1.60374,-0.0367891,0.379084,
2,1,0,0,0,3806.72,0.383881,0.383714,0.365857,11,0.0491644,10,0.000140384,-3.43669,-1.70335,-0.0346375,0.383059,
2,1,0,1,0,3807.48,0.387682,0.387588,0.364481,11,0.0494488,10,0.000141268,-3.43833,-2.04856,-0.0288007,0.386936,
2,1,0,0,0,3808.24,0.391483,0.391263,0.363475,11,0.0497325,10,0.000142214,-3.43953,15.7231,0.00375245,0.390612,
2,1,0,1,0,3809,0.395284,0.395061,0.362092,11,0.0500147,10,0.000143049,-3.44118,7.0147,0.00841091,0.394413,
2,1,0,0,0,3809.76,0.399085,0.398898,0.360437,11,0.0502957,10,0.000143778,-3.44317,-0.881208,-0.0669536,0.398252,
2,1,0,1,0,3810.52,0.402886,0.402648,0.359879,11,0.0505756,10,0.000144905,-3.44384,-1.13194,-0.0521227,0.402004,
2,1,0,0,0,3811.28,0.406687,0.406447,0.356725,11,0.0508544,10,0.00014499,-3.44767,-0.450395,-0.130996,0.405808,
2,1,0,1,0,3812.04,0.410489,0.410188,0.355693,11,0.0511316,10,0.000145901,-3.44892,-2.3951,-0.0246336,0.409551,
2,1,0,1,0,3812.8,0.41429,0.414158,0.356388,11,0.0514084,10,0.000147601,-3.44808,1.06063,0.0556273,0.41352,
2,1,0,0,0,3813.56,0.418091,0.417937,0.353967,11,0.0516846,10,0.000147936,-3.45104,-3.12409,-0.0188855,0.417304,
2,1,0,1,0,3814.32,0.421892,0.421697,0.352831,11,0.0519594,10,0.000148788,-3.45243,3.60424,0.0163696,0.421066,
2,1,0,0,0,3815.08,0.425693,0.425534,0.352318,11,0.0522337,10,0.000149923,-3.45306,1.66955,0.035339,0.424903,
2,1,0,1,0,3815.84,0.429494,0.429246,0.352039,11,0.0525074,10,0.000151112,-3.45341,-2.6862,-0.0219641,0.428616,
2,1,0,0,0,3816.6,0.433295,0.433178,0.349898,11,0.0527804,10,0.000151568,-3.45606,-3.0452,-0.0193747,0.432552,
2,1,0,1,0,3817.36,0.437096,0.436919,0.350027,11,0.0530527,10,0.000152934,-3.4559,-17.313,-0.00340785,0.436293,
2,1,0,0,0,3818.12,0.440897,0.440737,0.349385,11,0.0533244,10,0.000153987,-3.4567,-0.915536,-0.0644431,0.440112,
2,1,0,1,0,3818.88,0.444698,0.444535,0.348392,11,0.0535956,10,0.000154872,-3.45793,-1.41062,-0.0418257,0.443912,
2,1,0,0,0,3819.64,0.448499,0.448353,0.348139,11,0.0538658,10,0.000156089,-3.45825,-6.3289,-0.00932232,0.44773,
2,1,0,1,0,3820.4,0.452301,0.452132,0.34858,11,0.0541359,10,0.000157604,-3.4577,-1.2319,-0.0478933,0.451508,
2,1,0,0,0,3821.16,0.456102,0.455911,0.348281,11,0.0544058,10,0.000158785,-3.45807,1.583,0.0372709,0.455288,
2,1,0,1,0,3821.92,0.459903,0.4597,0.347355,11,0.0546753,10,0.000159679,-3.45923,-4.22281,-0.0139717,0.459078,
2,1,0,1,0,3822.68,0.463704,0.463422,0.347548,11,0.0549445,10,0.000161061,-3.45899,-2.67777,-0.0220333,0.4628,
2,1,0,0,0,3823.44,0.467505,0.467345,0.347873,11,0.0552137,10,0.000162576,-3.45858,-7.02013,-0.0084044,0.466722,
2,1,0,1,0,3824.21,0.471306,0.471038,0.348139,11,0.0554828,10,0.000163987,-3.45825,-50.6765,-0.00116425,0.470415,
2,1,0,0,0,3824.97,0.475107,0.474836,0.348126,11,0.0557517,10,0.000165303,-3.45826,3.64155,0.0162019,0.474213,
2,1,0,1,0,3825.73,0.478908,0.478711,0.348191,11,0.0560207,10,0.000166683,-3.45818,0.928454,0.0635465,0.478088,
2,1,0,0,0,3826.49,0.482709,0.48249,0.348866,11,0.0562899,10,0.000168324,-3.45734,-9.12997,-0.00646223,0.481866,
2,1,0,1,0,3827.25,0.48651,0.486279,0.348612,11,0.056559,10,0.000169523,-3.45766,0.790225,0.0746623,0.485655,
2,1,0,0,0,3828.01,0.490311,0.490173,0.348606,11,0.0568284,10,0.000170877,-3.45767,3.60241,0.0163779,0.489549,
2,1,0,1,0,3828.77,0.494112,0.493905,0.349326,11,0.0570984,10,0.000172534,-3.45677,-2.66165,-0.0221667,0.493279,
2,1,0,0,0,3829.53,0.497913,0.49777,0.349352,11,0.0573685,10,0.000173897,-3.45674,-37.6946,-0.00156521,0.497144,
2,1,0,1,0,3830.29,0.501715,0.501568,0.350008,11,0.0576391,10,0.000175553,-3.45592,69.966,0.000843267,0.500942,
2,1,0,1,0,3831.05,0.505516,0.505271,0.351863,11,0.0579101,10,0.000177786,-3.45363,9.14508,0.00645156,0.504641,
2,1,0,0,0,3831.81,0.509317,0.509069,0.35237,11,0.0581817,10,0.000179381,-3.453,-1.99737,-0.0295389,0.508439,
2,1,0,1,0,3832.57,0.513118,0.512954,0.352396,11,0.0584536,10,0.000180763,-3.45297,1.44383,0.0408634,0.512323,
2,1,0,0,0,3833.33,0.516919,0.516676,0.353746,11,0.0587263,10,0.000182772,-3.45131,2.46374,0.0239473,0.516043,
2,1,0,1,0,3834.09,0.52072,0.520551,0.3547,11,0.0589999,10,0.000184639,-3.45014,1.34386,0.0439035,0.519916,
2,1,0,0,0,3834.85,0.524521,0.524358,0.356719,11,0.0592741,10,0.000187048,-3.44767,1.58741,0.0371676,0.52372,
2,1,0,1,0,3835.61,0.528322,0.528176,0.357277,11,0.0595493,10,0.000188705,-3.447,0.61349,0.0961711,0.527536,
2,1,0,0,0,3836.37,0.532123,0.531936,0.35851,11,0.0598255,10,0.000190704,-3.4455,101.789,0.000579631,0.531294,
2,1,0,1,0,3837.13,0.535924,0.535859,0.358776,11,0.0601026,10,0.000192253,-3.44518,3.03503,0.0194397,0.535216,
2,1,0,0,0,3837.89,0.539725,0.539514,0.361495,11,0.0603806,10,0.000195032,-3.4419,-3.1325,-0.0188348,0.538867,
2,1,0,1,0,3838.65,0.543526,0.543379,0.364578,11,0.0606604,10,0.000198104,-3.43821,3.66846,0.0160831,0.542726,
2,1,0,0,0,3839.41,0.547328,0.547101,0.36548,11,0.0609417,10,0.000199955,-3.43714,1.81921,0.0324316,0.546447,
2,1,0,1,0,3840.17,0.551129,0.55088,0.367219,11,0.0612242,10,0.000202294,-3.43508,0.709612,0.0831441,0.550223,
2,1,0,1,0,3840.93,0.55493,0.554774,0.369634,11,0.0615085,10,0.000205063,-3.43223,0.754543,0.0781931,0.554112,
2,1,0,0,0,3841.69,0.558731,0.558572,0.372834,11,0.0617948,10,0.000208255,-3.42848,0.987528,0.0597451,0.557905,
2,1,0,1,0,3842.45,0.562532,0.562295,0.375001,11,0.0620829,10,0.000210861,-3.42597,0.599683,0.0983853,0.561623,
2,1,0,0,0,3843.21,0.566333,0.566217,0.378999,11,0.0623736,10,0.000214596,-3.42136,1.46605,0.0402441,0.565539,
2,1,0,1,0,3843.97,0.570134,0.570006,0.382011,11,0.062667,10,0.000217748,-3.41792,2.12449,0.0277714,0.569322,
2,1,0,0,0,3844.73,0.573935,0.573795,0.385093,11,0.0629632,10,0.000220965,-3.41443,0.824868,0.0715266,0.573105,
2,1,0,1,0,3845.49,0.577736,0.577603,0.390506,11,0.0632623,10,0.000225557,-3.40837,0.473449,0.124618,0.576904,
2,1,0,0,0,3846.25,0.581537,0.581306,0.395218,11,0.0635651,10,0.000229742,-3.40316,0.458157,0.128777,0.580598,
2,1,0,1,0,3847.01,0.585338,0.585113,0.400825,11,0.0638718,10,0.000234528,-3.39704,0.693729,0.0850476,0.584396,
2,1,0,0,0,3847.77,0.589139,0.588921,0.406199,11,0.0641821,10,0.000239219,-3.39126,0.548837,0.1075,0.588194,
2,1,0,1,0,3848.53,0.592941,0.592758,0.411833,11,0.064497,10,0.000244117,-3.38528,0.319649,0.184577,0.592021,
2,1,0,0,0,3849.29,0.596742,0.596547,0.41964,11,0.0648172,10,0.000250335,-3.37712,0.440921,0.133811,0.595796,
2,1,0,0,0,3850.05,0.600543,0.600278,0.426124,11,0.0651425,10,0.000255793,-3.37046,0.394411,0.14959,0.599515,
2,1,0,1,0,3850.81,0.604344,0.604124,0.43547,11,0.0654738,10,0.000263078,-3.36104,0.49021,0.120357,0.603345,
2,1,0,0,0,3851.57,0.608145,0.608028,0.443706,11,0.0658117,10,0.000269785,-3.3529,0.325958,0.181005,0.607234,
2,1,0,1,0,3852.33,0.611946,0.611683,0.454129,11,0.066157,10,0.000277783,-3.34282,0.510112,0.115661,0.61087,
2,1,0,0,0,3853.09,0.615747,0.6155,0.465999,11,0.0665102,10,0.000286823,-3.33161,0.274139,0.215219,0.614666,
2,1,0,1,0,3853.85,0.619548,0.619356,0.479603,11,0.0668732,10,0.000297045,-3.31912,0.333946,0.176675,0.618498,
2,1,0,0,0,3854.61,0.623349,0.623174,0.493537,11,0.0672468,10,0.000307559,-3.30668,0.271126,0.217611,0.62229,
2,1,0,1,0,3855.37,0.62715,0.627001,0.511463,11,0.0676327,10,0.000320687,-3.29119,0.259921,0.226992,0.626085,
2,1,0,0,0,3856.13,0.630951,0.630723,0.529031,11,0.068032,10,0.000333672,-3.27652,0.234417,0.251689,0.629776,
2,1,0,1,0,3856.89,0.634752,0.634626,0.550384,11,0.0684462,10,0.000349288,-3.25933,0.226432,0.260564,0.633641,
2,1,0,0,0,3857.65,0.638554,0.638396,0.573171,11,0.0688767,10,0.00036591,-3.24172,0.203818,0.289474,0.63737,
2,1,0,1,0,3858.41,0.642355,0.64207,0.599501,11,0.0693262,10,0.000384922,-3.22221,0.164048,0.35965,0.640997,
2,1,0,1,0,3859.18,0.646156,0.645916,0.630128,11,0.0697979,10,0.00040701,-3.20057,0.154532,0.381797,0.644788,
2,1,0,0,0,3859.94,0.649957,0.649791,0.665311,11,0.0702947,10,0.000432313,-3.17698,0.173475,0.340107,0.6486,
2,1,0,1,0,3860.7,0.653758,0.653484,0.704135,11,0.0708189,10,0.000460141,-3.15234,0.148421,0.397519,0.652224,
2,1,0,0,0,3861.46,0.657559,0.657302,0.748404,11,0.0713746,10,0.000491927,-3.12586,0.14337,0.411523,0.655962,
2,1,0,1,0,3862.22,0.66136,0.661176,0.797787,11,0.0719664,10,0.000527478,-3.09811,0.128225,0.46013,0.659748,
2,1,0,0,0,3862.98,0.665161,0.665003,0.852122,11,0.0725976,10,0.000566664,-3.0695,0.124167,0.475168,0.663478,
2,1,0,1,0,3863.74,0.668962,0.668773,0.916414,11,0.0732739,10,0.000612873,-3.03791,0.116143,0.507996,0.667133,
2,1,0,0,0,3864.5,0.672763,0.672505,0.984287,11,0.074001,10,0.000661938,-3.00688,0.111988,0.526841,0.670743,
2,1,0,1,0,3865.26,0.676564,0.676303,1.06308,11,0.0747846,10,0.000718962,-2.97344,0.113059,0.521851,0.6744,
2,1,0,0,0,3866.02,0.680365,0.680216,1.15117,11,0.0756306,10,0.000783043,-2.93886,0.0995309,0.592781,0.678155,
2,1,0,1,0,3866.78,0.684167,0.683938,1.24857,11,0.076547,10,0.000853946,-2.90359,0.094796,0.622389,0.681703,
2,1,0,0,0,3867.54,0.687968,0.687794,1.35524,11,0.0775416,10,0.000932123,-2.86798,0.0998187,0.591071,0.685368,
2,1,0,0,0,3868.3,0.691769,0.691573,1.47304,11,0.0786221,10,0.00101871,-2.83179,0.0978248,0.603119,0.688936,
2,1,0,1,0,3869.06,0.69557,0.695419,1.60361,11,0.0797965,10,0.00111518,-2.7949,0.101739,0.579913,0.692549,
2,1,0,0,0,3869.82,0.699371,0.69917,1.74595,11,0.081074,10,0.00122071,-2.75797,0.099032,0.595767,0.696044,
2,1,0,1,0,3870.58,0.703172,0.702882,1.8988,11,0.0824638,10,0.00133464,-2.72152,0.10341,0.570545,0.699483,
2,1,0,0,0,3871.34,0.706973,0.706757,2.06215,11,0.0839744,10,0.00145744,-2.68568,0.0939991,0.627666,0.703066,
2,1,0,1,0,3872.1,0.710774,0.710536,2.24063,11,0.0856149,10,0.00159205,-2.64963,0.106123,0.555957,0.706525,
2,1,0,0,0,3872.86,0.714575,0.714325,2.42736,11,0.0873946,10,0.00173392,-2.61487,0.10933,0.539649,0.70998,
2,1,0,1,0,3873.62,0.718376,0.718171,2.62627,11,0.0893207,10,0.00188611,-2.58066,0.104772,0.563129,0.71347,
2,1,0,0,0,3874.38,0.722177,0.721998,2.83742,11,0.0914026,10,0.00204861,-2.54708,0.101994,0.578464,0.716919,
2,1,0,1,0,3875.14,0.725978,0.725806,3.05539,11,0.0936484,10,0.00221762,-2.51493,0.101148,0.583304,0.720337,
2,1,0,0,0,3875.9,0.72978,0.729547,3.28977,11,0.0960658,10,0.00240004,-2.48283,0.102276,0.576873,0.723658,
2,1,0,1,0,3876.66,0.733581,0.733422,3.52819,11,0.0986629,10,0.00258765,-2.45245,0.113613,0.519308,0.727106,
2,1,0,1,0,3877.42,0.737382,0.737201,3.77739,11,0.101446,10,0.0027847,-2.42281,0.117892,0.50046,0.73044,
2,1,0,0,0,3878.18,0.741183,0.740971,4.03218,11,0.10442,10,0.00298773,-2.39446,0.106975,0.55153,0.733753,
2,1,0,1,0,3878.94,0.744984,0.74476,4.30905,11,0.107599,10,0.0032092,-2.36562,0.12074,0.488652,0.737047,
2,1,0,0,0,3879.7,0.748785,0.748577,4.5832,11,0.110985,10,0.00343088,-2.33883,0.138364,0.426413,0.740373,
2,1,0,1,0,3880.46,0.752586,0.752442,4.86339,11,0.114581,10,0.00365942,-2.31306,0.138144,0.427091,0.743737,
2,1,0,0,0,3881.22,0.756387,0.756231,5.14876,11,0.118392,10,0.00389366,-2.2883,0.122706,0.480822,0.747015,
2,1,0,1,0,3881.98,0.760188,0.759963,5.44219,11,0.122424,10,0.00413587,-2.26423,0.1228,0.480456,0.750221,
2,1,0,0,0,3882.74,0.763989,0.76378,5.74054,11,0.12668,10,0.00438451,-2.24105,0.148648,0.396912,0.753505,
2,1,0,1,0,3883.5,0.76779,0.767607,6.04469,11,0.131165,10,0.00463995,-2.21863,0.150691,0.39153,0.756787,
2,1,0,0,0,3884.26,0.771591,0.771386,6.35575,11,0.135884,10,0.00490274,-2.19683,0.167303,0.352653,0.76001,
2,1,0,1,0,3885.02,0.775393,0.775147,6.6726,11,0.140842,10,0.00517224,-2.17571,0.150242,0.3927,0.763203,
2,1,0,0,0,3885.78,0.779194,0.778983,6.99246,11,0.146043,10,0.00544701,-2.15537,0.181373,0.325297,0.766467,
2,1,0,0,0,3886.54,0.782995,0.782896,7.32148,11,0.15149,10,0.00573196,-2.1354,0.172683,0.341666,0.769791,
2,1,0,1,0,3887.3,0.786796,0.786676,7.65614,11,0.157189,10,0.0060229,-2.11599,0.177467,0.332456,0.772971,
2,1,0,0,0,3888.06,0.790597,0.790502,7.99534,11,0.163143,10,0.00632033,-2.09716,0.18129,0.325446,0.776191,
2,1,0,1,0,3888.82,0.794398,0.794253,8.33915,11,0.169356,10,0.0066234,-2.07888,0.184306,0.320119,0.779326,
2,1,0,0,0,3889.58,0.798199,0.798004,8.69353,11,0.175835,10,0.00693747,-2.0608,0.182753,0.32284,0.782442,
2,1,0,1,0,3890.34,0.802,0.801697,9.04975,11,0.182584,10,0.00725516,-2.04336,0.170051,0.346955,0.785498,
2,1,0,0,0,3891.1,0.805801,0.805648,9.40842,11,0.189605,10,0.00757988,-2.02648,0.200417,0.294386,0.788807,
2,1,0,1,0,3891.86,0.809602,0.809513,9.77831,11,0.196904,10,0.00791567,-2.00974,0.192897,0.305863,0.79201,
2,1,0,0,0,3892.62,0.813403,0.813197,10.155,11,0.204485,10,0.008258,-1.99332,0.191727,0.307729,0.79502,
2,1,0,1,0,3893.38,0.817204,0.817024,10.535,11,0.212355,10,0.00860737,-1.97736,0.204938,0.287892,0.798167,
2,1,0,0,0,3894.14,0.821005,0.820851,10.9208,11,0.220515,10,0.00896435,-1.96175,0.186231,0.316811,0.801303,
2,1,0,1,0,3894.91,0.824807,0.824612,11.3193,11,0.228975,10,0.00933402,-1.94618,0.213921,0.275802,0.80435,
2,1,0,1,0,3895.67,0.828608,0.828515,11.7201,11,0.237739,10,0.00971032,-1.93107,0.208438,0.283058,0.807536,
2,1,0,0,0,3896.43,0.832409,0.832227,12.1263,11,0.246807,10,0.0100918,-1.91627,0.188232,0.313442,0.810521,
2,1,0,1,0,3897.19,0.83621,0.836045,12.5402,11,0.256189,10,0.0104842,-1.90169,0.205551,0.287034,0.813598,
2,1,0,0,0,3897.95,0.840011,0.839805,12.9657,11,0.26589,10,0.0108887,-1.8872,0.237152,0.248786,0.816596,
2,1,0,1,0,3898.71,0.843812,0.843613,13.3912,11,0.275915,10,0.011297,-1.87318,0.19564,0.301574,0.819643,
2,1,0,0,0,3899.47,0.847613,0.847411,13.8273,11,0.286268,10,0.0117174,-1.85926,0.219829,0.26839,0.82266,
2,1,0,0,0,3900.21,0.848613,0.848394,13.8476,11,0.296617,10,0.0117483,-1.85862,0.125295,0.47089,0.823607,
2,1,0,1,0,3900.97,0.844812,0.844663,13.2115,11,0.30689,10,0.0111593,-1.87905,0.144651,0.407877,0.821014,
2,1,0,0,0,3901.73,0.841011,0.840817,12.6337,11,0.316705,10,0.0106226,-1.89847,0.155713,0.378902,0.818202,
2,1,0,1,0,3902.49,0.83721,0.837037,12.0947,11,0.326096,10,0.0101237,-1.9174,0.154192,0.382641,0.815388,
2,1,0,0,0,3903.25,0.833409,0.833296,11.584,11,0.335089,10,0.00965292,-1.93614,0.156087,0.377995,0.812561,
2,1,0,1,0,3904.01,0.829608,0.829307,11.0883,11,0.343698,10,0.00919564,-1.95513,0.149145,0.395589,0.809459,
2,1,0,0,0,3904.77,0.825807,0.825642,10.6067,11,0.351938,10,0.00875734,-1.97442,0.147115,0.401046,0.806656,
2,1,0,1,0,3905.53,0.822006,0.821892,10.1386,11,0.359816,10,0.00833284,-1.99402,0.148147,0.398254,0.803743,
2,1,0,0,0,3906.29,0.818205,0.818093,9.68835,11,0.367345,10,0.00792597,-2.01375,0.150649,0.391639,0.800751,
2,1,0,0,0,3907.05,0.814404,0.814228,9.25287,11,0.374539,10,0.00753395,-2.03372,0.148118,0.39833,0.797665,
2,1,0,1,0,3907.81,0.810602,0.810372,8.82605,11,0.381403,10,0.00715239,-2.05423,0.149361,0.395015,0.794574,
2,1,0,0,0,3908.57,0.806801,0.806574,8.41298,11,0.387949,10,0.00678569,-2.07505,0.152267,0.387478,0.791515,
2,1,0,1,0,3909.33,0.803,0.802871,8.01686,11,0.394186,10,0.0064365,-2.096,0.149082,0.395756,0.788521,
2,1,0,0,0,3910.09,0.799199,0.798977,7.62974,11,0.400127,10,0.00609598,-2.11749,0.146095,0.403846,0.78532,
2,1,0,1,0,3910.85,0.795398,0.795274,7.25084,11,0.405775,10,0.0057664,-2.13961,0.133545,0.4418,0.782295,
2,1,0,0,0,3911.61,0.791597,0.791371,6.88446,11,0.411139,10,0.00544816,-2.16213,0.144605,0.408007,0.779048,
2,1,0,1,0,3912.37,0.787796,0.787601,6.53007,11,0.416231,10,0.00514309,-2.18508,0.153499,0.384367,0.775912,
2,1,0,0,0,3913.13,0.783995,0.783736,6.18724,11,0.421058,10,0.00484916,-2.2085,0.141614,0.416624,0.772661,
2,1,0,1,0,3913.89,0.780194,0.779957,5.85331,11,0.425628,10,0.00456532,-2.2326,0.140379,0.42029,0.769479,
2,1,0,0,0,3914.65,0.776393,0.776216,5.53136,11,0.429949,10,0.00429353,-2.25717,0.129973,0.453939,0.766315,
2,1,0,1,0,3915.41,0.772592,0.772474,5.22015,11,0.434029,10,0.00403243,-2.28232,0.12031,0.490398,0.76313,
2,1,0,1,0,3916.17,0.768791,0.768581,4.91845,11,0.437877,10,0.00378022,-2.30817,0.127896,0.461311,0.759777,
2,1,0,0,0,3916.93,0.76499,0.764811,4.62714,11,0.441499,10,0.00353889,-2.33469,0.119966,0.491805,0.756528,
2,1,0,1,0,3917.69,0.761189,0.761051,4.34673,11,0.444904,10,0.00330808,-2.36184,0.114873,0.513611,0.75327,
2,1,0,0,0,3918.45,0.757387,0.757195,4.07408,11,0.448098,10,0.00308488,-2.38997,0.107937,0.546615,0.749903,
2,1,0,1,0,3919.21,0.753586,0.753311,3.81197,11,0.45109,10,0.0028716,-2.41885,0.122106,0.483187,0.746487,
2,1,0,0,0,3919.97,0.749785,0.749589,3.56003,11,0.453887,10,0.00266856,-2.44855,0.105971,0.556756,0.743216,
2,1,0,1,0,3920.73,0.745984,0.745657,3.31709,11,0.456496,10,0.00247341,-2.47924,0.101676,0.580273,0.739719,
2,1,0,0,0,3921.49,0.742183,0.741944,3.08505,11,0.458923,10,0.00228894,-2.51074,0.102716,0.574398,0.736422,
2,1,0,1,0,3922.25,0.738382,0.738222,2.86302,11,0.461179,10,0.00211355,-2.54318,0.0926577,0.636752,0.733098,
2,1,0,0,0,3923.01,0.734581,0.734386,2.6497,11,0.463269,10,0.0019459,-2.5768,0.10755,0.54858,0.729643,
2,1,0,1,0,3923.77,0.73078,0.730502,2.44736,11,0.465201,10,0.0017878,-2.6113,0.0964723,0.611574,0.726121,
2,1,0,0,0,3924.53,0.726979,0.726722,2.25618,11,0.466983,10,0.00163962,-2.64663,0.0988115,0.597096,0.722684,
2,1,0,0,0,3925.29,0.723178,0.72301,2.07043,11,0.468623,10,0.00149694,-2.68394,0.0908041,0.64975,0.719304,
2,1,0,1,0,3926.05,0.719376,0.719164,1.89765,11,0.470127,10,0.00136472,-2.72178,0.0921409,0.640323,0.715767,
2,1,0,0,0,3926.81,0.715575,0.715365,1.73409,11,0.471502,10,0.00124051,-2.76093,0.0870843,0.677505,0.712261,
2,1,0,1,0,3927.58,0.711774,0.711596,1.57932,11,0.472757,10,0.00112384,-2.80153,0.0861128,0.685148,0.708769,
2,1,0,0,0,3928.34,0.707973,0.707845,1.43559,11,0.473898,10,0.00101618,-2.84297,0.0895585,0.658787,0.705275,
2,1,0,1,0,3929.1,0.704172,0.704008,1.30084,11,0.474934,10,0.0009158,-2.88578,0.0854145,0.690749,0.70168,
2,1,0,0,0,3929.86,0.700371,0.700229,1.17503,11,0.47587,10,0.000822787,-2.92995,0.0877107,0.672666,0.698126,
2,1,0,1,0,3930.62,0.69657,0.696307,1.05753,11,0.476713,10,0.000736364,-2.97571,0.0723197,0.815822,0.694414,
2,1,0,0,0,3931.38,0.692769,0.692613,0.949104,11,0.477471,10,0.000657362,-3.02269,0.0747171,0.789645,0.690914,
2,1,0,1,0,3932.14,0.688968,0.688824,0.84865,11,0.478149,10,0.000584571,-3.07127,0.0701873,0.840608,0.687305,
2,1,0,0,0,3932.9,0.685167,0.684988,0.755919,11,0.478755,10,0.000517796,-3.12152,0.0690086,0.854966,0.683635,
2,1,0,1,0,3933.66,0.681366,0.681161,0.670594,11,0.479292,10,0.000456782,-3.17354,0.070761,0.833792,0.67996,
2,1,0,1,0,3934.42,0.677565,0.677305,0.591156,11,0.479766,10,0.000400393,-3.2283,0.0662799,0.890165,0.676247,
2,1,0,0,0,3935.18,0.673764,0.673631,0.52149,11,0.480185,10,0.000351292,-3.28275,0.0676022,0.872753,0.672697,
2,1,0,1,0,3935.94,0.669963,0.669718,0.454414,11,0.480551,10,0.00030433,-3.34255,0.0643679,0.916606,0.668905,
2,1,0,0,0,3936.7,0.666161,0.665996,0.396484,11,0.48087,10,0.000264056,-3.40177,0.0551211,1.07037,0.665286,
2,1,0,1,0,3937.46,0.66236,0.662226,0.341207,11,0.481146,10,0.000225956,-3.46698,0.0554768,1.06351,0.661615,
2,1,0,0,0,3938.22,0.658559,0.658351,0.29172,11,0.481382,10,0.000192054,-3.53503,0.0495227,1.19137,0.657829,
2,1,0,1,0,3938.98,0.654758,0.654553,0.245789,11,0.481581,10,0.000160882,-3.60944,0.0492924,1.19694,0.654113,
2,1,0,0,0,3939.74,0.650957,0.650888,0.205947,11,0.481747,10,0.000134048,-3.68625,0.0459179,1.2849,0.65052,
2,1,0,1,0,3940.5,0.647156,0.646985,0.167434,11,0.481884,10,0.000108327,-3.77616,0.0425534,1.38649,0.646685,
2,1,0,0,0,3941.26,0.643355,0.643034,0.13231,11,0.481993,10,8.50796e-05,-3.87841,0.0343286,1.71868,0.642797,
2,1,0,1,0,3942.02,0.639554,0.63935,0.1008,11,0.482076,10,6.44466e-05,-3.99654,0.0287241,2.05402,0.63917,
2,1,0,0,0,3942.78,0.635753,0.635552,0.0722696,11,0.482136,10,4.59311e-05,-4.14104,0.0228651,2.58035,0.635422,
2,1,0,0,0,3943.54,0.631952,0.631763,0.044799,11,0.482175,10,2.83024e-05,-4.34873,0.0157687,3.74159,0.631683,
2,1,0,1,0,3944.3,0.628151,0.627907,0.019797,11,0.482194,10,1.24307e-05,-4.7034,0.0074625,7.9062,0.627872,
2,1,0,0,0,3945.06,0.62435,0.624118,-0.00289891,11,0.482195,10,-1.80927e-06,-5.53776,-0.00306719,-19.2359,0.624124,
2,0,0,1,0,3945.82,0.620548,0.620358,-0.0232519,11,0.482181,10,-1.44245e-05,-4.63354,-0.0104979,-5.62015,0.6204,
2,0,0,0,0,3946.58,0.616747,0.616627,-0.0414762,11,0.482151,10,-2.55753e-05,-4.3822,-0.0236224,-2.49763,0.616701,
2,0,0,1,0,3947.34,0.612946,0.612666,-0.0581363,11,0.482107,10,-3.56182e-05,-4.23555,-0.0358097,-1.6476,0.61277,
2,0,0,0,0,3948.1,0.609145,0.608896,-0.0756013,11,0.482051,10,-4.60333e-05,-4.12147,-0.0331681,-1.77882,0.609032,
2,0,0,1,0,3948.86,0.605344,0.605146,-0.0905934,11,0.481982,10,-5.48222e-05,-4.0429,-0.0528526,-1.11631,0.605308,
2,0,0,0,0,3949.62,0.601543,0.601328,-0.104216,11,0.481903,10,-6.26681e-05,-3.98206,-0.0736312,-0.801291,0.601515,
2,0,0,1,0,3950.38,0.597742,0.597568,-0.116658,11,0.481814,10,-6.97109e-05,-3.93309,-0.0782963,-0.753547,0.597777,
2,0,0,0,0,3951.14,0.593941,0.593789,-0.127795,11,0.481715,10,-7.58831e-05,-3.89349,-0.0909162,-0.648949,0.594017,
2,0,0,1,0,3951.9,0.59014,0.589952,-0.138101,11,0.481608,10,-8.1473e-05,-3.8598,-0.149218,-0.395395,0.590199,
2,0,0,1,0,3952.66,0.586339,0.586182,-0.146725,11,0.481494,10,-8.60076e-05,-3.8335,-0.256057,-0.230417,0.586445,
2,0,0,0,0,3953.42,0.582538,0.582384,-0.155897,11,0.481374,10,-9.07919e-05,-3.80716,-0.172913,-0.341212,0.582663,
2,0,0,1,0,3954.18,0.578736,0.578481,-0.16362,11,0.481247,10,-9.46511e-05,-3.78616,-0.161215,-0.36597,0.578773,
2,0,0,0,0,3954.94,0.574935,0.574701,-0.16963,11,0.481115,10,-9.74866e-05,-3.7705,-0.202175,-0.291826,0.575005,
2,0,0,1,0,3955.7,0.571134,0.570931,-0.175484,11,0.480978,10,-0.000100189,-3.75576,-0.319806,-0.184487,0.571246,
2,0,0,0,0,3956.46,0.567333,0.567105,-0.181637,11,0.480837,10,-0.000103007,-3.7408,-0.32292,-0.182708,0.56743,
2,0,0,1,0,3957.22,0.563532,0.563297,-0.185648,11,0.480692,10,-0.000104575,-3.73131,-0.469981,-0.125537,0.563629,
2,0,0,0,0,3957.98,0.559731,0.559594,-0.18925,11,0.480544,10,-0.000105903,-3.72296,-0.339905,-0.173578,0.559932,
2,0,0,1,0,3958.74,0.55593,0.555767,-0.194714,11,0.480392,10,-0.000108216,-3.7106,-0.624253,-0.0945129,0.556115,
2,0,0,0,0,3959.5,0.552129,0.551911,-0.197667,11,0.480237,10,-0.000109095,-3.70406,-0.557947,-0.105745,0.552265,
2,0,0,1,0,3960.26,0.548328,0.548189,-0.19966,11,0.48008,10,-0.000109451,-3.69971,-0.414238,-0.14243,0.548546,
2,0,0,0,0,3961.02,0.544527,0.544247,-0.203288,11,0.479921,10,-0.000110639,-3.69189,-0.397247,-0.148522,0.544611,
2,0,0,1,0,3961.78,0.540726,0.540411,-0.206298,11,0.47976,10,-0.000111486,-3.6855,-0.637805,-0.0925048,0.54078,
2,0,0,1,0,3962.55,0.536925,0.536622,-0.208571,11,0.479597,10,-0.000111924,-3.68075,-0.374337,-0.157612,0.536995,
2,0,0,0,0,3963.31,0.533123,0.532986,-0.209687,11,0.479432,10,-0.00011176,-3.67843,-0.483031,-0.122145,0.533361,
2,0,0,1,0,3964.07,0.529322,0.529111,-0.211777,11,0.479266,10,-0.000112054,-3.67412,-0.478842,-0.123214,0.52949,
2,0,0,0,0,3964.83,0.525521,0.525361,-0.213724,11,0.479098,10,-0.000112282,-3.67015,-0.625343,-0.0943482,0.525743,
2,0,0,1,0,3965.59,0.52172,0.521581,-0.214665,11,0.478929,10,-0.000111965,-3.66824,-0.630751,-0.0935392,0.521966,
2,0,0,0,0,3966.35,0.517919,0.517754,-0.216353,11,0.478759,10,-0.000112017,-3.66484,-0.664626,-0.0887717,0.518142,
2,0,0,1,0,3967.11,0.514118,0.513918,-0.218364,11,0.478587,10,-0.000112221,-3.66082,-0.727973,-0.081047,0.514309,
2,0,0,0,0,3967.87,0.510317,0.510129,-0.220402,11,0.478415,10,-0.000112434,-3.65678,3.38938,0.0174073,0.510523,
2,0,0,1,0,3968.63,0.506516,0.506283,-0.222473,11,0.478241,10,-0.000112634,-3.65272,-0.948639,-0.0621943,0.506681,
2,0,0,0,0,3969.39,0.502715,0.502513,-0.222641,11,0.478066,10,-0.00011188,-3.65239,2.47706,0.0238186,0.502912,
2,0,0,1,0,3970.15,0.498914,0.498696,-0.224439,11,0.47789,10,-0.000111927,-3.6489,3.64329,0.0161941,0.499097,
2,0,0,1,0,3970.91,0.495113,0.494935,-0.225957,11,0.477713,10,-0.000111834,-3.64597,-0.630114,-0.0936338,0.49534,
2,0,0,0,0,3971.67,0.491312,0.491147,-0.22747,11,0.477534,10,-0.000111721,-3.64308,-1.4116,-0.0417966,0.491554,
2,0,0,1,0,3972.43,0.487511,0.487262,-0.229372,11,0.477354,10,-0.000111764,-3.63946,9.28112,0.00635699,0.487673,
2,0,0,0,0,3973.19,0.483709,0.483397,-0.230585,11,0.477173,10,-0.000111464,-3.63717,-2.1548,-0.0273807,0.48381,
2,0,0,1,0,3973.95,0.479908,0.479732,-0.232948,11,0.47699,10,-0.000111753,-3.63274,-1.18388,-0.0498363,0.480149,
2,0,0,0,0,3974.71,0.476107,0.475848,-0.235005,11,0.476807,10,-0.000111827,-3.62892,-0.84717,-0.0696437,0.476269,
2,0,0,1,0,3975.47,0.472306,0.472145,-0.23677,11,0.476622,10,-0.00011179,-3.62567,0.719938,0.0819515,0.472569,
2,0,0,0,0,3976.23,0.468505,0.46828,-0.237802,11,0.476436,10,-0.000111358,-3.62378,-0.683109,-0.0863698,0.468706,
2,0,0,1,0,3976.99,0.464704,0.46452,-0.240243,11,0.476249,10,-0.000111597,-3.61935,-0.848021,-0.0695738,0.46495,
2,0,0,0,0,3977.75,0.460903,0.460693,-0.243222,11,0.47606,10,-0.00011205,-3.614,-0.890641,-0.0662444,0.461128,
2,0,0,1,0,3978.51,0.457102,0.456904,-0.244792,11,0.475869,10,-0.000111847,-3.6112,-0.397119,-0.14857,0.457342,
2,0,0,0,0,3979.27,0.453301,0.452972,-0.246759,11,0.475677,10,-0.000111775,-3.60773,-0.633703,-0.0931036,0.453414,
2,0,0,1,0,3980.03,0.4495,0.449326,-0.249531,11,0.475484,10,-0.000112121,-3.60288,-1.68979,-0.0349156,0.449773,
2,0,0,1,0,3980.79,0.445699,0.445547,-0.250802,11,0.475288,10,-0.000111744,-3.60067,-1.16611,-0.0505955,0.445996,
2,0,0,0,0,3981.55,0.441898,0.441682,-0.253612,11,0.475092,10,-0.000112016,-3.59583,-1.04909,-0.0562393,0.442136,
2,0,0,1,0,3982.31,0.438096,0.437845,-0.256338,11,0.474893,10,-0.000112236,-3.59119,-0.637309,-0.0925767,0.438304,
2,0,0,0,0,3983.07,0.434295,0.434066,-0.259934,11,0.474692,10,-0.000112828,-3.58514,-1.67139,-0.0352999,0.434531,
2,0,0,1,0,3983.83,0.430494,0.430296,-0.261329,11,0.474489,10,-0.000112449,-3.58281,-1.8558,-0.0317923,0.430764,
2,0,0,0,0,3984.59,0.426693,0.426507,-0.263886,11,0.474285,10,-0.000112549,-3.57858,-0.807903,-0.0730286,0.42698,
2,0,0,1,0,3985.35,0.422892,0.422776,-0.267268,11,0.474078,10,-0.000112994,-3.57305,-1.3772,-0.0428407,0.423254,
2,0,0,0,0,3986.11,0.419091,0.418882,-0.269513,11,0.47387,10,-0.000112894,-3.56942,-0.601041,-0.098163,0.419364,
2,0,0,1,0,3986.87,0.41529,0.415036,-0.2722,11,0.473659,10,-0.000112973,-3.56511,-1.51329,-0.0389878,0.415523,
2,0,0,0,0,3987.63,0.411489,0.411333,-0.27601,11,0.473446,10,-0.000113532,-3.55908,-0.637059,-0.0926131,0.411827,
2,0,0,1,0,3988.39,0.407688,0.407477,-0.278541,11,0.473231,10,-0.000113499,-3.55511,-1.07201,-0.0550367,0.407976,
2,0,0,1,0,3989.15,0.403887,0.403688,-0.281531,11,0.473013,10,-0.000113651,-3.55047,-1.78023,-0.0331417,0.404192,
2,0,0,0,0,3989.91,0.400086,0.399861,-0.284596,11,0.472793,10,-0.000113799,-3.54577,-1.31737,-0.0447864,0.400371,
2,0,0,1,0,3990.67,0.396285,0.396092,-0.287984,11,0.472571,10,-0.000114068,-3.54063,-0.517504,-0.114009,0.396607,
2,0,0,0,0,3991.43,0.392483,0.392303,-0.291216,11,0.472347,10,-0.000114245,-3.53578,-0.470839,-0.125308,0.392824,
2,0,0,1,0,3992.19,0.388682,0.388485,-0.293442,11,0.472119,10,-0.000113998,-3.53248,-0.559143,-0.105519,0.389011,
2,0,0,0,0,3992.95,0.384881,0.384678,-0.298212,11,0.471889,10,-0.000114716,-3.52547,-0.704318,-0.0837689,0.385211,
2,0,0,1,0,3993.71,0.38108,0.380936,-0.300095,11,0.471657,10,-0.000114317,-3.52274,-0.349361,-0.16888,0.381474,
2,0,0,0,0,3994.47,0.377279,0.376966,-0.303106,11,0.471422,10,-0.000114261,-3.51841,-1.38386,-0.0426344,0.377509,
2,0,0,1,0,3995.23,0.373478,0.373177,-0.307785,11,0.471184,10,-0.000114859,-3.51175,-1.08179,-0.054539,0.373728,
2,0,0,0,0,3995.99,0.369677,0.369408,-0.310362,11,0.470944,10,-0.00011465,-3.50813,4.38768,0.0134467,0.369963,
2,0,0,1,0,3996.75,0.365876,0.365609,-0.315457,11,0.4707,10,-0.000115334,-3.50106,-0.623102,-0.0946875,0.366174,
2,0,0,0,0,3997.51,0.362075,0.361811,-0.318578,11,0.470454,10,-0.000115265,-3.49678,-0.835969,-0.0705768,0.362381,
2,0,0,1,0,3998.28,0.358274,0.357984,-0.322917,11,0.470204,10,-0.000115599,-3.49091,-1.10627,-0.0533325,0.358562,
2,0,0,1,0,3999.04,0.354473,0.354233,-0.325341,11,0.469952,10,-0.000115247,-3.48766,-0.509732,-0.115747,0.354816,
2,0,0,0,0,3999.8,0.350672,0.350425,-0.329806,11,0.469697,10,-0.000115572,-3.48174,-0.867834,-0.0679854,0.351016,
2,0,0,1,0,4000.56,0.34687,0.346694,-0.333499,11,0.469438,10,-0.000115622,-3.47691,-0.896531,-0.0658092,0.347291,
2,0,0,0,0,4001.32,0.343069,0.342819,-0.337134,11,0.469177,10,-0.000115576,-3.4722,-1.49653,-0.0394245,0.343422,
2,0,0,1,0,4002.08,0.339268,0.339087,-0.339788,11,0.468913,10,-0.000115218,-3.46879,-0.850398,-0.0693792,0.339696,
2,0,0,0,0,4002.84,0.335467,0.335241,-0.345227,11,0.468646,10,-0.000115734,-3.4619,-0.735539,-0.0802133,0.335859,
2,0,0,1,0,4003.6,0.331666,0.331452,-0.348673,11,0.468375,10,-0.000115569,-3.45758,-1.19439,-0.0493974,0.332077,
2,0,0,0,0,4004.36,0.327865,0.327635,-0.351568,11,0.468102,10,-0.000115186,-3.45399,-0.614392,-0.0960299,0.328264,
2,0,0,1,0,4005.12,0.324064,0.323856,-0.356611,11,0.467826,10,-0.00011549,-3.44781,-0.441593,-0.133607,0.324494,
2,0,0,0,0,4005.88,0.320263,0.319924,-0.359985,11,0.467546,10,-0.000115168,-3.44372,-0.513131,-0.11498,0.320568,
2,0,0,1,0,4006.64,0.316462,0.316307,-0.364094,11,0.467264,10,-0.000115165,-3.43879,-0.836814,-0.0705055,0.316958,
2,0,0,1,0,4007.4,0.312661,0.312461,-0.368727,11,0.466978,10,-0.000115213,-3.4333,-1.40016,-0.042138,0.313121,
2,0,0,0,0,4008.16,0.30886,0.308529,-0.373478,11,0.466689,10,-0.000115229,-3.42773,-0.591166,-0.0998028,0.309197,
2,0,0,1,0,4008.92,0.305059,0.304816,-0.375925,11,0.466398,10,-0.000114588,-3.4249,-1.18505,-0.0497871,0.305489,
2,0,0,0,0,4009.68,0.301258,0.301027,-0.379962,11,0.466103,10,-0.000114379,-3.42026,-0.828172,-0.0712413,0.301707,
2,0,0,1,0,4010.44,0.297456,0.297219,-0.384284,11,0.465805,10,-0.000114217,-3.41535,-0.784745,-0.0751837,0.297907,
2,0,0,0,0,4011.2,0.293655,0.293335,-0.389691,11,0.465505,10,-0.00011431,-3.40928,-0.589226,-0.100131,0.294033,
2,0,0,1,0,4011.96,0.289854,0.289642,-0.392131,11,0.465201,10,-0.000113577,-3.40657,-0.684393,-0.0862077,0.290344,
2,0,0,0,0,4012.72,0.286053,0.285891,-0.396122,11,0.464894,10,-0.000113248,-3.40217,-0.540921,-0.109073,0.2866,
2,0,0,1,0,4013.48,0.282252,0.282026,-0.40136,11,0.464583,10,-0.000113194,-3.39647,-3.45119,-0.0170956,0.282744,
2,0,0,0,0,4014.24,0.278451,0.278332,-0.405267,11,0.464269,10,-0.000112799,-3.39226,-0.447889,-0.131729,0.279058,
2,0,0,1,0,4015,0.27465,0.274372,-0.410355,11,0.463953,10,-0.00011259,-3.38684,-0.574201,-0.102751,0.275106,
2,0,0,0,0,4015.76,0.270849,0.270688,-0.415469,11,0.463632,10,-0.000112463,-3.38146,-0.705275,-0.0836553,0.271432,
2,0,0,1,0,4016.52,0.267048,0.266775,-0.419061,11,0.463308,10,-0.000111795,-3.37772,-1.87449,-0.0314753,0.267525,
2,0,0,1,0,4017.28,0.263247,0.263034,-0.423511,11,0.462982,10,-0.000111398,-3.37314,-0.707503,-0.0833919,0.263792,
2,0,0,0,0,4018.04,0.259446,0.259159,-0.427879,11,0.462651,10,-0.000110889,-3.36868,-0.637103,-0.0926067,0.259925,
2,0,0,1,0,4018.8,0.255644,0.25538,-0.433343,11,0.462316,10,-0.000110667,-3.36317,-0.548749,-0.107517,0.256156,
2,0,0,0,0,4019.56,0.251843,0.251563,-0.438412,11,0.461977,10,-0.000110288,-3.35812,-0.558527,-0.105635,0.252347,
2,0,0,1,0,4020.32,0.248042,0.247812,-0.444487,11,0.461634,10,-0.000110149,-3.35214,-0.729548,-0.080872,0.248608,
2,0,0,0,0,4021.08,0.244241,0.244071,-0.451574,11,0.461286,10,-0.000110216,-3.34527,-0.702502,-0.0839856,0.244879,
2,0,0,1,0,4021.84,0.24044,0.240225,-0.457259,11,0.460934,10,-0.000109845,-3.33984,-0.829085,-0.0711628,0.241043,
2,0,0,0,0,4022.6,0.236639,0.236426,-0.464723,11,0.460576,10,-0.000109873,-3.33281,-0.535763,-0.110123,0.237258,
2,0,0,1,0,4023.36,0.232838,0.232599,-0.473277,11,0.460212,10,-0.000110084,-3.32488,-0.506446,-0.116498,0.233446,
2,0,0,0,0,4024.12,0.229037,0.22883,-0.481467,11,0.459842,10,-0.000110174,-3.31743,-0.950719,-0.0620583,0.229691,
2,0,0,1,0,4024.88,0.225236,0.22506,-0.489262,11,0.459466,10,-0.000110113,-3.31046,-0.547653,-0.107732,0.225936,
2,0,0,1,0,4025.64,0.221435,0.221233,-0.500731,11,0.459082,10,-0.000110778,-3.3004,-0.506849,-0.116405,0.222129,
2,0,0,0,0,4026.4,0.217634,0.217453,-0.509914,11,0.458691,10,-0.000110882,-3.2925,-0.52734,-0.111882,0.218366,
2,0,0,1,0,4027.16,0.213833,0.21356,-0.521181,11,0.458291,10,-0.000111303,-3.28301,-0.367709,-0.160453,0.214493,
2,0,0,0,0,4027.92,0.210032,0.20979,-0.534946,11,0.457882,10,-0.000112226,-3.27169,-0.35457,-0.166399,0.210747,
2,0,0,1,0,4028.68,0.20623,0.205992,-0.549724,11,0.457461,10,-0.000113239,-3.25986,-0.28898,-0.204166,0.206976,
2,0,0,0,0,4029.44,0.202429,0.20226,-0.566131,11,0.457029,10,-0.000114506,-3.24708,-0.229499,-0.257082,0.203273,
2,0,0,1,0,4030.2,0.198628,0.198309,-0.58812,11,0.456582,10,-0.000116629,-3.23053,-0.249043,-0.236907,0.199362,
2,0,0,0,0,4030.96,0.194827,0.194673,-0.610193,11,0.456119,10,-0.000118788,-3.21453,-0.196687,-0.299969,0.195765,
2,0,0,1,0,4031.72,0.191026,0.190855,-0.635614,11,0.455638,10,-0.00012131,-3.19681,-0.181321,-0.32539,0.191993,
2,0,0,0,0,4032.48,0.187225,0.18699,-0.663613,11,0.455137,10,-0.000124089,-3.17809,-0.194986,-0.302586,0.188178,
2,0,0,1,0,4033.25,0.183424,0.18323,-0.699698,11,0.454612,10,-0.000128206,-3.15509,-0.138565,-0.425794,0.184482,
2,0,0,0,0,4034.01,0.179623,0.179384,-0.73906,11,0.454057,10,-0.000132575,-3.13132,-0.141825,-0.416006,0.180707,
2,0,0,1,0,4034.77,0.175822,0.175509,-0.781909,11,0.453472,10,-0.000137232,-3.10684,-0.138102,-0.427219,0.176909,
2,0,0,1,0,4035.53,0.172021,0.171806,-0.8381,11,0.452849,10,-0.000143991,-3.0767,-0.119554,-0.493502,0.173306,
2,0,0,0,0,4036.29,0.16822,0.167922,-0.899035,11,0.452181,10,-0.000150968,-3.04622,-0.120328,-0.490328,0.169531,
2,0,0,1,0,4037.05,0.164419,0.164209,-0.970057,11,0.451464,10,-0.000159292,-3.0132,-0.113139,-0.521482,0.165946,
2,0,0,0,0,4037.81,0.160617,0.160401,-1.05064,11,0.45069,10,-0.000168524,-2.97855,-0.0949379,-0.621459,0.162282,
2,0,0,1,0,4038.57,0.156816,0.156613,-1.14226,11,0.449849,10,-0.000178892,-2.94224,-0.0984113,-0.599525,0.158657,
2,0,0,0,0,4039.33,0.153015,0.152757,-1.23811,11,0.448938,10,-0.000189129,-2.90724,-0.109,-0.541283,0.154973,
2,0,0,1,0,4040.09,0.149214,0.14892,-1.33422,11,0.447953,10,-0.000198693,-2.87477,-0.101726,-0.579987,0.151309,
2,0,0,0,0,4040.85,0.145413,0.145179,-1.42995,11,0.446895,10,-0.000207599,-2.84468,-0.128036,-0.460806,0.147739,
2,0,0,1,0,4041.61,0.141612,0.141343,-1.52025,11,0.445766,10,-0.000214876,-2.81808,-0.152014,-0.388121,0.144064,
2,0,0,0,0,4042.37,0.137811,0.137611,-1.59635,11,0.444573,10,-0.000219676,-2.79687,-0.183269,-0.321932,0.140469,
2,0,0,1,0,4043.13,0.13401,0.133708,-1.66072,11,0.443327,10,-0.000222051,-2.7797,-0.243294,-0.242505,0.136681,
2,0,0,1,0,4043.89,0.130209,0.130014,-1.70981,11,0.442037,10,-0.000222301,-2.76705,-0.446125,-0.13225,0.133075,
2,0,0,0,0,4044.65,0.126408,0.12614,-1.73182,11,0.440721,10,-0.000218452,-2.7615,-20.9838,-0.00281169,0.12924,
2,0,0,1,0,4045.41,0.122607,0.122284,-1.73162,11,0.439398,10,-0.00021175,-2.76155,1.62488,0.0363104,0.125384,
2,0,0,0,0,4046.17,0.118806,0.118572,-1.71614,11,0.43808,10,-0.000203486,-2.76545,0.657541,0.0897283,0.121644,
2,0,0,1,0,4046.93,0.115004,0.114821,-1.6909,11,0.436776,10,-0.000194151,-2.77188,0.368389,0.160157,0.117848,
2,0,0,0,0,4047.69,0.111203,0.110984,-1.64506,11,0.435502,10,-0.000182576,-2.78382,0.303808,0.194201,0.113929,
2,0,0,1,0,4048.45,0.107402,0.107148,-1.5941,11,0.434265,10,-0.000170805,-2.79748,0.274556,0.214892,0.110001,
2,0,0,0,0,4049.21,0.103601,0.103378,-1.53636,11,0.433068,10,-0.000158826,-2.81351,0.225489,0.261653,0.106128,
2,0,0,1,0,4049.97,0.0998001,0.0995702,-1.46974,11,0.431919,10,-0.000146342,-2.83276,0.181485,0.325095,0.102201,
2,0,0,0,0,4050.73,0.0959991,0.0957623,-1.40114,11,0.430822,10,-0.000134177,-2.85352,0.179656,0.328406,0.0982703,
2,0,0,1,0,4051.49,0.092198,0.0919926,-1.32859,11,0.429778,10,-0.00012222,-2.87661,0.167639,0.351947,0.0943707,
2,0,0,0,0,4052.25,0.0883969,0.0881942,-1.25682,11,0.42879,10,-0.000110844,-2.90073,0.163524,0.360804,0.0904439,
2,0,0,1,0,4053.01,0.0845958,0.0843576,-1.18633,11,0.427856,10,-0.000100076,-2.9258,0.154056,0.382977,0.0864812,
2,0,0,1,0,4053.77,0.0807947,0.0806356,-1.1264,11,0.426972,10,-9.08277e-05,-2.94831,0.183192,0.322067,0.0826518,
2,0,0,0,0,4054.53,0.0769937,0.0767227,-1.06978,11,0.426133,10,-8.20767e-05,-2.9707,0.185379,0.318267,0.0786376,
2,0,0,1,0,4055.29,0.0731926,0.0730102,-1.02148,11,0.425333,10,-7.45783e-05,-2.99077,0.253659,0.232595,0.0748387,
2,0,0,0,0,4056.05,0.0693915,0.0692023,-0.983284,11,0.424566,10,-6.80455e-05,-3.00732,0.269847,0.218642,0.0709624,
2,0,0,1,0,4056.81,0.0655904,0.0654135,-0.949658,11,0.423826,10,-6.21204e-05,-3.02243,0.28166,0.209472,0.0671133,
2,0,0,0,0,4057.57,0.0617893,0.0615769,-0.921679,11,0.423108,10,-5.67542e-05,-3.03542,0.308862,0.191024,0.0632267,
2,0,0,1,0,4058.33,0.0579882,0.0578072,-0.902254,11,0.42241,10,-5.21568e-05,-3.04467,0.482311,0.122328,0.0594222,
2,0,0,0,0,4059.09,0.0541872,0.0538847,-0.884789,11,0.421726,10,-4.76766e-05,-3.05316,0.566483,0.104151,0.0554685,
2,0,0,1,0,4059.85,0.0503861,0.0502009,-0.871004,11,0.421053,10,-4.37252e-05,-3.05998,0.618151,0.095446,0.05176,
2,0,0,0,0,4060.61,0.046585,0.0463929,-0.857525,11,0.420391,10,-3.97831e-05,-3.06675,0.817395,0.0721805,0.0479279,
2,0,0,1,0,4061.37,0.0427839,0.0426137,-0.849457,11,0.419736,10,-3.61985e-05,-3.07086,0.80098,0.0736597,0.0441342,
2,0,0,1,0,4062.13,0.0389828,0.0387103,-0.841112,11,0.419088,10,-3.25597e-05,-3.07515,0.965848,0.0610862,0.0402159,
2,0,0,0,0,4062.89,0.0351817,0.0349405,-0.83403,11,0.418445,10,-2.91415e-05,-3.07882,3.96354,0.0148857,0.0364335,
2,0,0,1,0,4063.65,0.0313807,0.0311708,-0.83133,11,0.417806,10,-2.59132e-05,-3.08023,1.97189,0.0299205,0.0326589,
2,0,0,0,0,4064.41,0.0275796,0.0273247,-0.827949,11,0.41717,10,-2.26235e-05,-3.082,2.86377,0.0206022,0.0288067,
2,0,0,1,0,4065.17,0.0237785,0.0235359,-0.826456,11,0.416535,10,-1.94514e-05,-3.08278,1.58641,0.0371909,0.0250152,
2,0,0,0,0,4065.93,0.0199774,0.019747,-0.826008,11,0.415902,10,-1.63112e-05,-3.08302,-3.14439,-0.0187636,0.0212256,
2,0,0,1,0,4066.69,0.0161763,0.0159391,-0.825444,11,0.415268,10,-1.31569e-05,-3.08331,-2.48839,-0.0237101,0.0174167,
2,0,0,0,0,4067.45,0.0123753,0.0121503,-0.826943,11,0.414634,10,-1.00476e-05,-3.08252,-4.97746,-0.0118534,0.0136305,
2,0,0,1,0,4068.22,0.00857417,0.00839009,-0.830318,11,0.413998,10,-6.96644e-06,-3.08076,-1.54024,-0.0383057,0.00987636,
2,0,0,0,0,4068.98,0.00477309,0.00456308,-0.834141,11,0.41336,10,-3.80625e-06,-3.07876,-0.181317,-0.325397,0.00605619,
2,0,0,1,0,4069.74,0.000972007,0.000573832,-0.842883,11,0.412714,10,-4.83673e-07,-3.07423,-3.38398,-0.0174351,0.00208259,
2,0,0,0,0,4069.9,0.000171779,-0.000170573,-0.843013,11,0.412577,10,1.43795e-07,-3.07417, , ,0.00133842,