File: Figure_codes/Fig_2_S1_S6/20220924_003_MultiCV_0_850mV_1-84_C_02_CV_C01_60.csv
mode,ox/red,error,control changes,counter inc.,time/s,control/V,Ewe/V,<I>/mA,cycle number,(Q-Qo)/C,I Range,P/W,log(|I|),Tafel slope mV/dec,alpha_eff,E-IR/V,
2,0,0,0,0,22229.6,2.17368e-05,-0.000199204,-0.189075,61,0.0000000E+000,10,3.76644e-08,-3.72337, , ,0.000139239,
2,1,0,1,0,22230.3,0.00377281,0.00337012,0.0188457,61,-3.76289e-05,10,6.35124e-08,-4.72479,0.00178077,33.1318,0.00333639,
2,1,0,1,0,22231.1,0.00757389,0.00733074,0.117013,61,2.57256e-05,10,8.57789e-07,-3.93177,0.0138367,4.26404,0.00712129,
2,1,0,0,0,22231.9,0.011375,0.0111196,0.178558,61,0.000145881,10,1.98549e-06,-3.74822,0.0271199,2.17552,0.0108,
2,1,0,1,0,22232.6,0.0151761,0.0149752,0.224197,61,0.000305982,10,3.3574e-06,-3.64937,0.0487857,1.20937,0.0145739,
2,1,0,0,0,22233.4,0.0189771,0.0186877,0.257212,61,0.000495427,10,4.8067e-06,-3.58971,0.0846142,0.697282,0.0182273,
2,1,0,1,0,22234.1,0.0227782,0.0225147,0.283328,61,0.00070699,10,6.37905e-06,-3.54771,0.124856,0.472545,0.0220075,
2,1,0,0,0,22234.9,0.0265793,0.0263322,0.303526,61,0.000935159,10,7.99249e-06,-3.5178,0.156991,0.375819,0.0257889,
2,1,0,1,0,22235.7,0.0303804,0.0301687,0.319985,61,0.00117717,10,9.65353e-06,-3.49487,0.144726,0.407666,0.0295959,
2,1,0,0,0,22236.4,0.0341815,0.033948,0.332796,61,0.00142991,10,1.12978e-05,-3.47782,0.201539,0.292748,0.0333523,
2,1,0,1,0,22237.2,0.0379825,0.0376796,0.341895,61,0.00169091,10,1.28825e-05,-3.46611,0.392637,0.150266,0.0370676,
2,1,0,0,0,22237.9,0.0417836,0.0415066,0.351371,61,0.00195902,10,1.45842e-05,-3.45423,0.46901,0.125797,0.0408776,
2,1,0,1,0,22238.7,0.0455847,0.0453718,0.357777,61,0.00223354,10,1.6233e-05,-3.44639,0.583971,0.101032,0.0447314,
2,1,0,1,0,22239.5,0.0493858,0.0491224,0.36411,61,0.00251324,10,1.7886e-05,-3.43877,0.489178,0.12061,0.0484707,
2,1,0,0,0,22240.2,0.0531869,0.0529208,0.371588,61,0.00279781,10,1.96647e-05,-3.42994,0.50046,0.117891,0.0522557,
2,1,0,1,0,22241,0.056988,0.0567383,0.378266,61,0.00308755,10,2.14621e-05,-3.4222,0.442033,0.133474,0.0560612,
2,1,0,0,0,22241.7,0.060789,0.0604985,0.384003,61,0.0033819,10,2.32316e-05,-3.41567,0.676874,0.0871655,0.0598111,
2,1,0,1,0,22242.5,0.0645901,0.0643255,0.388975,61,0.00367998,10,2.5021e-05,-3.41008,0.363447,0.162335,0.0636292,
2,1,0,0,0,22243.3,0.0683912,0.0681334,0.395101,61,0.0039828,10,2.69196e-05,-3.40329,0.421742,0.139896,0.0674262,
2,1,0,1,0,22244,0.0721923,0.0718936,0.401968,61,0.00429026,10,2.88989e-05,-3.39581,0.314649,0.187511,0.0711741,
2,1,0,0,0,22244.8,0.0759934,0.0757779,0.407893,61,0.0046024,10,3.09093e-05,-3.38945,0.430647,0.137003,0.0750477,
2,1,0,1,0,22245.5,0.0797945,0.0796049,0.414753,61,0.00491993,10,3.30164e-05,-3.38221,0.539734,0.109313,0.0788625,
2,1,0,0,0,22246.3,0.0835955,0.0833269,0.42417,61,0.0052439,10,3.53448e-05,-3.37246,0.440681,0.133884,0.0825676,
2,1,0,1,0,22247.1,0.0873966,0.0870967,0.433166,61,0.00557471,10,3.77273e-05,-3.36335,0.542442,0.108767,0.0863213,
2,1,0,0,0,22247.8,0.0911977,0.0910477,0.444887,61,0.00591331,10,4.05059e-05,-3.35175,0.369601,0.159632,0.0902514,
2,1,0,1,0,22248.6,0.0949988,0.0948175,0.458993,61,0.00626164,10,4.35206e-05,-3.33819,0.250573,0.23546,0.0939959,
2,1,0,1,0,22249.3,0.0987999,0.0985681,0.476786,61,0.00662144,10,4.69959e-05,-3.32168,0.252559,0.233609,0.0977147,
2,1,0,0,0,22250.1,0.102601,0.102309,0.493504,61,0.00699423,10,5.04901e-05,-3.30671,0.203508,0.289915,0.101426,
2,1,0,1,0,22250.9,0.106402,0.106174,0.517245,61,0.0073833,10,5.49182e-05,-3.2863,0.205492,0.287116,0.105249,
2,1,0,0,0,22251.6,0.110203,0.109973,0.54355,61,0.00779163,10,5.97757e-05,-3.26476,0.15648,0.377045,0.109,
2,1,0,1,0,22252.4,0.114004,0.113723,0.572561,61,0.00822077,10,6.51136e-05,-3.24218,0.134732,0.437905,0.112699,
2,1,0,0,0,22253.1,0.117805,0.117512,0.610242,61,0.0086751,10,7.1711e-05,-3.2145,0.120422,0.489945,0.11642,
2,1,0,1,0,22253.9,0.121606,0.121377,0.654187,61,0.00916062,10,7.94036e-05,-3.1843,0.129333,0.456186,0.120206,
2,1,0,0,0,22254.7,0.125407,0.125252,0.703583,61,0.00968168,10,8.81253e-05,-3.15268,0.119841,0.492318,0.123993,
2,1,0,1,0,22255.4,0.129209,0.128974,0.761014,61,0.0102424,10,9.81512e-05,-3.11861,0.102824,0.573794,0.127612,
2,1,0,0,0,22256.2,0.13301,0.132839,0.826182,61,0.0108509,10,0.000109749,-3.08292,0.101939,0.578778,0.131361,
2,1,0,1,0,22256.9,0.136811,0.136552,0.896216,61,0.0115107,10,0.00012238,-3.04759,0.105455,0.55948,0.134948,
2,1,0,1,0,22257.7,0.140612,0.140293,0.969739,61,0.0122257,10,0.000136048,-3.01335,0.115228,0.512028,0.138557,
2,1,0,0,0,22258.5,0.144413,0.14413,1.04625,61,0.0129984,10,0.000150796,-2.98036,0.123098,0.479294,0.142257,
2,1,0,1,0,22259.2,0.148214,0.147985,1.12065,61,0.0138277,10,0.00016584,-2.95053,0.118763,0.496789,0.145979,
2,1,0,0,0,22260,0.152015,0.151745,1.18945,61,0.0147121,10,0.000180494,-2.92465,0.167734,0.351748,0.149616,
2,1,0,1,0,22260.7,0.155816,0.155591,1.25052,61,0.0156455,10,0.00019457,-2.90291,0.17175,0.343523,0.153353,
2,1,0,0,0,22261.5,0.159617,0.159323,1.30438,61,0.0166233,10,0.000207818,-2.8846,0.254809,0.231546,0.156988,
2,1,0,1,0,22262.3,0.163418,0.163121,1.34346,61,0.0176358,10,0.000219147,-2.87178,0.349716,0.168708,0.160717,
2,1,0,0,0,22263,0.167219,0.166939,1.37023,61,0.0186733,10,0.000228745,-2.86321,0.555582,0.106195,0.164486,
2,1,0,1,0,22263.8,0.17102,0.170833,1.38788,61,0.019728,10,0.000237095,-2.85765,1.74551,0.0338009,0.168348,
2,1,0,0,0,22264.5,0.174822,0.174526,1.38865,61,0.0207892,10,0.000242355,-2.85741,-2.07524,-0.0284304,0.17204,
2,1,0,1,0,22265.3,0.178623,0.178477,1.37481,61,0.0218456,10,0.000245372,-2.86176,-0.622258,-0.094816,0.176016,
2,1,0,0,0,22266.1,0.182424,0.182161,1.34879,61,0.0228873,10,0.000245697,-2.87006,-0.351952,-0.167636,0.179747,
2,1,0,1,0,22266.8,0.186225,0.186017,1.30916,61,0.0239037,10,0.000243525,-2.88301,-0.271491,-0.217318,0.183673,
2,1,0,1,0,22267.6,0.190026,0.189767,1.25283,61,0.0248842,10,0.000237746,-2.90211,-0.16281,-0.362385,0.187525,
2,1,0,0,0,22268.3,0.193827,0.193585,1.18588,61,0.0258163,10,0.000229568,-2.92596,-0.151568,-0.389264,0.191462,
2,1,0,1,0,22269.1,0.197628,0.197355,1.10665,61,0.0266928,10,0.000218402,-2.95599,-0.11746,-0.502298,0.195374,
2,1,0,0,0,22269.9,0.201429,0.201182,1.02551,61,0.0275073,10,0.000206313,-2.98906,-0.111377,-0.529734,0.199346,
2,1,0,1,0,22270.6,0.20523,0.204923,0.93985,61,0.0282577,10,0.000192596,-3.02694,-0.101793,-0.57961,0.20324,
2,1,0,0,0,22271.4,0.209031,0.20874,0.862656,61,0.0289469,10,0.000180071,-3.06416,-0.113577,-0.519473,0.207196,
2,1,0,1,0,22272.2,0.212832,0.212586,0.795353,61,0.0295808,10,0.000169081,-3.09944,-0.122899,-0.480068,0.211163,
2,1,0,0,0,22272.9,0.216633,0.216327,0.734684,61,0.0301661,10,0.000158932,-3.1339,-0.118085,-0.49964,0.215012,
2,1,0,1,0,22273.7,0.220435,0.220116,0.687131,61,0.0307101,10,0.000151249,-3.16296,-0.145397,-0.405787,0.218886,
2,1,0,0,0,22274.4,0.224236,0.224096,0.646697,61,0.031221,10,0.000144922,-3.1893,-0.143196,-0.412023,0.222938,
2,1,0,1,0,22275.2,0.228037,0.227894,0.612098,61,0.0317035,10,0.000139494,-3.21318,-0.165476,-0.356548,0.226799,
2,1,0,1,0,22276,0.231838,0.231635,0.58468,61,0.0321619,10,0.000135432,-3.23308,-0.192557,-0.306403,0.230589,
2,1,0,0,0,22276.7,0.235639,0.235462,0.56254,61,0.0326017,10,0.000132457,-3.24985,-0.289428,-0.20385,0.234455,
2,1,0,1,0,22277.5,0.23944,0.239213,0.544238,61,0.0330262,10,0.000130189,-3.26421,-0.304323,-0.193873,0.238239,
2,1,0,0,0,22278.2,0.243241,0.242992,0.527279,61,0.0334372,10,0.000128125,-3.27796,-0.339815,-0.173624,0.242049,
2,1,0,1,0,22279,0.247042,0.246753,0.513565,61,0.0338369,10,0.000126724,-3.2894,-0.403449,-0.146239,0.245833,
2,1,0,0,0,22279.8,0.250843,0.250646,0.50091,61,0.034227,10,0.000125551,-3.30024,-0.344308,-0.171358,0.24975,
2,1,0,1,0,22280.5,0.254644,0.254435,0.489591,61,0.0346078,10,0.000124569,-3.31017,-0.584705,-0.100906,0.253559,
2,1,0,0,0,22281.3,0.258445,0.258157,0.480686,61,0.0349808,10,0.000124093,-3.31814,-0.461445,-0.127859,0.257297,
2,1,0,1,0,22282,0.262246,0.26207,0.471568,61,0.0353473,10,0.000123584,-3.32646,-0.469546,-0.125653,0.261226,
2,1,0,0,0,22282.8,0.266048,0.265868,0.464357,61,0.0357079,10,0.000123458,-3.33315,-0.452239,-0.130462,0.265037,
2,1,0,1,0,22283.6,0.269849,0.269648,0.458678,61,0.036063,10,0.000123682,-3.33849,-0.664546,-0.0887824,0.268827,
2,1,0,0,0,22284.3,0.27365,0.273408,0.452935,61,0.0364136,10,0.000123836,-3.34396,-0.496147,-0.118916,0.272597,
2,1,0,1,0,22285.1,0.277451,0.277245,0.447094,61,0.03676,10,0.000123954,-3.3496,-0.576628,-0.102319,0.276444,
2,1,0,1,0,22285.8,0.281252,0.280986,0.441811,61,0.0371027,10,0.000124142,-3.35476,-0.858519,-0.068723,0.280195,
2,1,0,0,0,22286.6,0.285053,0.284774,0.437079,61,0.037442,10,0.000124469,-3.35944,-1.85926,-0.0317331,0.283992,
2,1,0,1,0,22287.4,0.288854,0.288621,0.432705,61,0.0377781,10,0.000124888,-3.36381,-0.579195,-0.101866,0.287846,
2,1,0,0,0,22288.1,0.292655,0.292428,0.428383,61,0.0381108,10,0.000125271,-3.36817,-0.594988,-0.0991616,0.291662,
2,1,0,1,0,22288.9,0.296456,0.296256,0.425417,61,0.0384403,10,0.000126032,-3.37119,-0.857969,-0.0687671,0.295494,
2,1,0,0,0,22289.6,0.300257,0.300035,0.42197,61,0.0387674,10,0.000126606,-3.37472,-0.844599,-0.0698557,0.299279,
2,1,0,1,0,22290.4,0.304058,0.303824,0.418888,61,0.0390922,10,0.000127268,-3.3779,-1.82555,-0.032319,0.303074,
2,1,0,0,0,22291.2,0.307859,0.307593,0.414234,61,0.039414,10,0.000127416,-3.38275,-0.953329,-0.0618884,0.306852,
2,1,0,1,0,22291.9,0.311661,0.311382,0.413326,61,0.0397334,10,0.000128702,-3.38371,-1.02426,-0.0576025,0.310642,
2,1,0,0,0,22292.7,0.315462,0.315247,0.409633,61,0.0400509,10,0.000129136,-3.38761,-0.753381,-0.0783136,0.314514,
2,1,0,1,0,22293.4,0.319263,0.31896,0.40607,61,0.040366,10,0.00012952,-3.3914,-1.09872,-0.0536987,0.318233,
2,1,0,1,0,22294.2,0.323064,0.322835,0.404066,61,0.0406791,10,0.000130447,-3.39355,-0.709054,-0.0832094,0.322111,
2,1,0,0,0,22295,0.326865,0.326681,0.401682,61,0.0409902,10,0.000131222,-3.39612,-0.951084,-0.0620345,0.325962,
2,1,0,1,0,22295.7,0.330666,0.330403,0.398074,61,0.0412994,10,0.000131525,-3.40004,-0.761765,-0.0774517,0.32969,
2,1,0,0,0,22296.5,0.334467,0.334335,0.395867,61,0.0416064,10,0.000132352,-3.40245,-1.58584,-0.0372042,0.333626,
2,1,0,1,0,22297.2,0.338268,0.338085,0.394485,61,0.0419118,10,0.000133369,-3.40397,-2.23659,-0.0263794,0.337379,
2,1,0,0,0,22298,0.342069,0.341807,0.392051,61,0.0422154,10,0.000134006,-3.40666,-4.00751,-0.0147223,0.341106,
2,1,0,1,0,22298.8,0.34587,0.345577,0.389364,61,0.042517,10,0.000134555,-3.40964,-1.88172,-0.0313544,0.34488,
2,1,0,0,0,22299.5,0.349671,0.349433,0.387008,61,0.0428169,10,0.000135233,-3.41228,-4.01045,-0.0147116,0.34874,
2,1,0,1,0,22300.3,0.353472,0.353212,0.385275,61,0.0431152,10,0.000136084,-3.41423,-0.966792,-0.0610266,0.352522,
2,1,0,0,0,22301,0.357273,0.357087,0.382699,61,0.0434117,10,0.000136657,-3.41714,-7.11064,-0.00829742,0.356402,
2,1,0,1,0,22301.8,0.361075,0.360723,0.381018,61,0.0437064,10,0.000137442,-3.41905,-1.01301,-0.0582423,0.360041,
2,1,0,0,0,22302.6,0.364876,0.364645,0.378915,61,0.0439998,10,0.00013817,-3.42146,-3.29765,-0.0178915,0.363967,
2,1,0,1,0,22303.3,0.368677,0.368444,0.3768,61,0.0442916,10,0.00013883,-3.42389,-0.678695,-0.0869315,0.367769,
2,1,0,1,0,22304.1,0.372478,0.372309,0.374735,61,0.0445811,10,0.000139517,-3.42628,-1.36989,-0.0430693,0.371638,
2,1,0,0,0,22304.8,0.376279,0.376041,0.372522,61,0.0448695,10,0.000140083,-3.42885,3.08112,0.0191489,0.375374,
2,1,0,1,0,22305.6,0.38008,0.379858,0.371964,61,0.0451564,10,0.000141293,-3.4295,-6.25973,-0.00942532,0.379192,
2,1,0,0,0,22306.4,0.383881,0.383637,0.368524,61,0.0454413,10,0.00014138,-3.43353,-1.8133,-0.0325374,0.382978,
2,1,0,1,0,22307.1,0.387682,0.387455,0.366837,61,0.0457248,10,0.000142133,-3.43553,-2.7254,-0.0216482,0.386798,
2,1,0,0,0,22307.9,0.391483,0.391263,0.36574,61,0.0460071,10,0.0001431,-3.43683,-101.415,-0.000581766,0.390608,
2,1,0,1,0,22308.6,0.395284,0.395004,0.36378,61,0.0462876,10,0.000143694,-3.43916,-0.59524,-0.0991197,0.394353,
2,1,0,0,0,22309.4,0.399085,0.398831,0.362183,61,0.0465667,10,0.00014445,-3.44107,2.19274,0.0269069,0.398182,
2,1,0,1,0,22310.2,0.402886,0.402658,0.360191,61,0.0468446,10,0.000145034,-3.44347,-1.43017,-0.0412538,0.402013,
2,1,0,0,0,22310.9,0.406688,0.406456,0.358672,61,0.0471214,10,0.000145785,-3.4453,-1.20931,-0.0487882,0.405814,
2,1,0,1,0,22311.7,0.410489,0.410226,0.357523,61,0.0473967,10,0.000146665,-3.4467,6.48795,0.00909378,0.409586,
2,1,0,1,0,22312.4,0.41429,0.414101,0.35781,61,0.0476714,10,0.000148169,-3.44635,5.38899,0.0109482,0.41346,
2,1,0,0,0,22313.2,0.418091,0.417804,0.355161,61,0.0479456,10,0.000148388,-3.44957,-5.0254,-0.0117404,0.417168,
2,1,0,1,0,22314,0.421892,0.421688,0.353727,61,0.0482184,10,0.000149162,-3.45133,-9.06525,-0.00650837,0.421055,
2,1,0,0,0,22314.7,0.425693,0.425419,0.353461,61,0.0484904,10,0.000150369,-3.45166,-1.55428,-0.0379598,0.424787,
2,1,0,1,0,22315.5,0.429494,0.429304,0.352578,61,0.0487615,10,0.000151363,-3.45274,-1.23292,-0.0478537,0.428673,
2,1,0,0,0,22316.2,0.433295,0.433007,0.350631,61,0.0490321,10,0.000151825,-3.45515,-1.78533,-0.033047,0.432379,
2,1,0,1,0,22317,0.437096,0.436843,0.349644,61,0.0493015,10,0.00015274,-3.45637,4.3481,0.0135692,0.436217,
2,1,0,0,0,22317.8,0.440897,0.440613,0.350131,61,0.0495703,10,0.000154272,-3.45577,-1.74407,-0.033829,0.439986,
2,1,0,1,0,22318.5,0.444698,0.444402,0.348632,61,0.0498388,10,0.000154933,-3.45763,-3.48829,-0.0169137,0.443778,
2,1,0,0,0,22319.3,0.448499,0.448296,0.348054,61,0.0501065,10,0.000156031,-3.45835,8.05236,0.00732704,0.447673,
2,1,0,1,0,22320,0.452301,0.452113,0.347522,61,0.0503737,10,0.000157119,-3.45902,-17.7467,-0.00332457,0.451491,
2,1,0,0,0,22320.8,0.456102,0.455931,0.347399,61,0.0506405,10,0.00015839,-3.45917,-2.35121,-0.0250935,0.455309,
2,1,0,1,0,22321.6,0.459903,0.459681,0.345507,61,0.0509067,10,0.000158823,-3.46154,-8.02713,-0.00735008,0.459063,
2,1,0,1,0,22322.3,0.463704,0.463518,0.34627,61,0.0511725,10,0.000160502,-3.46059,-5.26613,-0.0112037,0.462898,
2,1,0,0,0,22323.1,0.467505,0.467249,0.345179,61,0.051438,10,0.000161285,-3.46196,1.50709,0.0391484,0.466631,
2,1,0,1,0,22323.8,0.471306,0.471067,0.344439,61,0.0517036,10,0.000162254,-3.46289,-0.80188,-0.0735771,0.47045,
2,1,0,0,0,22324.6,0.475107,0.474827,0.344024,61,0.0519685,10,0.000163352,-3.46341,1.45908,0.0404364,0.474211,
2,1,0,1,0,22325.4,0.478908,0.478778,0.344193,61,0.0522332,10,0.000164792,-3.4632,12.5298,0.00470878,0.478162,
2,1,0,0,0,22326.1,0.482709,0.482471,0.343855,61,0.0524979,10,0.0001659,-3.46362,-1.5989,-0.0369004,0.481856,
2,1,0,1,0,22326.9,0.48651,0.486165,0.343446,61,0.0527622,10,0.000166972,-3.46414,8.78712,0.00671438,0.48555,
2,1,0,0,0,22327.6,0.490311,0.490144,0.343719,61,0.0530266,10,0.000168472,-3.4638,1.46337,0.0403179,0.489529,
2,1,0,1,0,22328.4,0.494112,0.493962,0.345004,61,0.0532917,10,0.000170419,-3.46218,-5.09771,-0.0115738,0.493344,
2,1,0,0,0,22329.2,0.497914,0.497751,0.343557,61,0.0535566,10,0.000171006,-3.464,2.78309,0.0211994,0.497136,
2,1,0,1,0,22329.9,0.501715,0.501435,0.344459,61,0.0538217,10,0.000172724,-3.46286,1.89884,0.0310717,0.500818,
2,1,0,1,0,22330.7,0.505516,0.505224,0.346642,61,0.0540874,10,0.000175132,-3.46012,-4.9175,-0.011998,0.504603,
2,1,0,0,0,22331.4,0.509317,0.509098,0.346503,61,0.0543535,10,0.000176404,-3.46029,-0.948542,-0.0622007,0.508478,
2,1,0,1,0,22332.2,0.513118,0.512868,0.345919,61,0.0546197,10,0.000177411,-3.46103,-3.16081,-0.0186661,0.512249,
2,1,0,0,0,22333,0.516919,0.516733,0.348041,61,0.0548862,10,0.000179845,-3.45837,1.54172,0.0382691,0.51611,
2,1,0,1,0,22333.7,0.52072,0.520522,0.348638,61,0.0551535,10,0.000181474,-3.45762,-10.7453,-0.00549079,0.519898,
2,1,0,0,0,22334.5,0.524521,0.524378,0.348658,61,0.0554214,10,0.000182828,-3.4576,-4.25843,-0.0138549,0.523753,
2,1,0,1,0,22335.2,0.528322,0.528109,0.349229,61,0.0556898,10,0.000184431,-3.45689,2.48012,0.0237892,0.527484,
2,1,0,0,0,22336,0.532123,0.531784,0.350274,61,0.0559589,10,0.00018627,-3.45559,1.93691,0.0304609,0.531157,
2,1,0,1,0,22336.8,0.535924,0.535658,0.350573,61,0.0562286,10,0.000187787,-3.45522,-29.9319,-0.00197114,0.535031,
2,1,0,0,0,22337.5,0.539725,0.539533,0.352228,61,0.0564989,10,0.000190038,-3.45318,2.76839,0.021312,0.538902,
2,1,0,1,0,22338.3,0.543527,0.543398,0.353376,61,0.0567701,10,0.000192024,-3.45176,-4.70418,-0.012542,0.542766,
2,1,0,0,0,22339,0.547328,0.547101,0.354421,61,0.0570423,10,0.000193904,-3.45048,1.15799,0.0509502,0.546467,
2,1,0,1,0,22339.8,0.551129,0.550995,0.355891,61,0.0573153,10,0.000196094,-3.44868,7.73596,0.00762672,0.550358,
2,1,0,1,0,22340.6,0.55493,0.554726,0.357556,61,0.0575894,10,0.000198346,-3.44666,1.17101,0.050384,0.554086,
2,1,0,0,0,22341.3,0.558731,0.558544,0.35877,61,0.0578649,10,0.000200389,-3.44518,1.62966,0.0362039,0.557902,
2,1,0,1,0,22342.1,0.562532,0.562266,0.360528,61,0.0581418,10,0.000202713,-3.44306,0.977484,0.060359,0.561621,
2,1,0,0,0,22342.9,0.566333,0.566169,0.362904,61,0.0584198,10,0.000205465,-3.44021,1.69656,0.0347762,0.56552,
2,1,0,1,0,22343.6,0.570134,0.569929,0.364585,61,0.0586994,10,0.000207788,-3.4382,1.60588,0.03674,0.569277,
2,1,0,0,0,22344.4,0.573935,0.573651,0.366694,61,0.0589805,10,0.000210355,-3.4357,6.57932,0.0089675,0.572995,
2,1,0,1,0,22345.1,0.577736,0.577622,0.369199,61,0.0592632,10,0.000213257,-3.43274,0.600027,0.098329,0.576961,
2,1,0,0,0,22345.9,0.581537,0.581411,0.372347,61,0.0595478,10,0.000216486,-3.42905,0.896905,0.0657818,0.580744,
2,1,0,1,0,22346.7,0.585338,0.585094,0.37493,61,0.0598347,10,0.000219369,-3.42605,1.01591,0.0580757,0.584423,
2,1,0,0,0,22347.4,0.58914,0.588912,0.377331,61,0.0601235,10,0.000222215,-3.42328,0.962745,0.0612831,0.588236,
2,1,0,1,0,22348.2,0.592941,0.592691,0.380116,61,0.0604144,10,0.000225291,-3.42008,0.628786,0.0938316,0.592011,
2,1,0,0,0,22348.9,0.596742,0.596461,0.385282,61,0.0607083,10,0.000229805,-3.41422,0.581538,0.101455,0.595771,
2,1,0,0,0,22349.7,0.600543,0.600307,0.387865,61,0.061005,10,0.000232838,-3.41132,0.560999,0.105169,0.599613,
2,1,0,1,0,22350.5,0.604344,0.604115,0.392103,61,0.0613044,10,0.000236875,-3.4066,1.14472,0.051541,0.603413,
2,1,0,0,0,22351.2,0.608145,0.607894,0.396003,61,0.0616071,10,0.000240728,-3.4023,1.27504,0.046273,0.607185,
2,1,0,1,0,22352,0.611946,0.611759,0.401144,61,0.0619128,10,0.000245403,-3.3967,0.924469,0.0638204,0.611041,
2,1,0,0,0,22352.7,0.615747,0.615501,0.405765,61,0.0622221,10,0.000249748,-3.39173,0.810088,0.0728316,0.614774,
2,1,0,1,0,22353.5,0.619548,0.619385,0.411937,61,0.0625356,10,0.000255147,-3.38517,0.592282,0.0996148,0.618647,
2,1,0,0,0,22354.3,0.623349,0.623116,0.417908,61,0.0628536,10,0.000260405,-3.37892,0.548179,0.107629,0.622368,
2,1,0,1,0,22355,0.62715,0.626886,0.425306,61,0.0631764,10,0.000266619,-3.3713,0.43105,0.136875,0.626125,
2,1,0,0,0,22355.8,0.630951,0.630713,0.432199,61,0.0635046,10,0.000272593,-3.36432,0.62788,0.093967,0.629939,
2,1,0,1,0,22356.5,0.634753,0.634521,0.43987,61,0.0638384,10,0.000279107,-3.35668,0.4754,0.124106,0.633734,
2,1,0,0,0,22357.3,0.638554,0.638348,0.448437,61,0.0641786,10,0.000286259,-3.3483,0.383311,0.153922,0.637545,
2,1,0,1,0,22358.1,0.642355,0.642137,0.458646,61,0.0645258,10,0.000294513,-3.33852,0.404203,0.145966,0.641316,
2,1,0,1,0,22358.8,0.646156,0.645945,0.470036,61,0.064881,10,0.000303617,-3.32787,0.409713,0.144003,0.645103,
2,1,0,0,0,22359.6,0.649957,0.649762,0.481089,61,0.0652448,10,0.000312593,-3.31777,0.312273,0.188937,0.648901,
2,1,0,1,0,22360.3,0.653758,0.653484,0.495601,61,0.0656185,10,0.000323867,-3.30487,0.29366,0.200912,0.652597,
2,1,0,0,0,22361.1,0.657559,0.657302,0.512475,61,0.066004,10,0.000336851,-3.29033,0.26919,0.219176,0.656384,
2,1,0,1,0,22361.9,0.66136,0.661176,0.529246,61,0.0664021,10,0.000349925,-3.27634,0.222072,0.265679,0.660229,
2,1,0,0,0,22362.6,0.665161,0.664937,0.548073,61,0.0668138,10,0.000364434,-3.26116,0.249121,0.236833,0.663956,
2,1,0,1,0,22363.4,0.668962,0.668697,0.569789,61,0.0672406,10,0.000381016,-3.24429,0.208836,0.282518,0.667677,
2,1,0,0,0,22364.1,0.672763,0.672447,0.593284,61,0.0676846,10,0.000398952,-3.22674,0.188874,0.312378,0.671386,
2,1,0,1,0,22364.9,0.676564,0.67636,0.62073,61,0.0681484,10,0.000419837,-3.2071,0.182513,0.323265,0.675249,
2,1,0,0,0,22365.7,0.680365,0.680168,0.65261,61,0.0686344,10,0.000443884,-3.18535,0.194014,0.304102,0.679,
2,1,0,1,0,22366.4,0.684167,0.683948,0.685988,61,0.0691452,10,0.00046918,-3.16368,0.166878,0.353552,0.68272,
2,1,0,0,0,22367.2,0.687968,0.687651,0.723216,61,0.0696826,10,0.00049732,-3.14073,0.16329,0.361319,0.686356,
2,1,0,0,0,22367.9,0.691769,0.691544,0.765073,61,0.07025,10,0.000529082,-3.1163,0.145747,0.40481,0.690175,
2,1,0,1,0,22368.7,0.69557,0.6954,0.8103,61,0.0708509,10,0.000563483,-3.09135,0.143329,0.411639,0.69395,
2,1,0,0,0,22369.5,0.699371,0.699246,0.86054,61,0.0714877,10,0.000601729,-3.06523,0.141434,0.417157,0.697706,
2,1,0,1,0,22370.2,0.703172,0.702997,0.914616,61,0.072164,10,0.000642972,-3.03876,0.137516,0.429042,0.70136,
2,1,0,0,0,22371,0.706973,0.706833,0.972333,61,0.0728827,10,0.000687277,-3.01219,0.128679,0.458507,0.705093,
2,1,0,1,0,22371.7,0.710774,0.710565,1.03517,61,0.0736478,10,0.000735555,-2.98499,0.138772,0.425158,0.708712,
2,1,0,0,0,22372.5,0.714575,0.714392,1.10148,61,0.0744618,10,0.000786888,-2.95802,0.133303,0.4426,0.71242,
2,1,0,1,0,22373.3,0.718376,0.718095,1.17342,61,0.0753285,10,0.000842624,-2.93055,0.137599,0.428784,0.715994,
2,1,0,0,0,22374,0.722177,0.721998,1.24996,61,0.0762514,10,0.000902469,-2.9031,0.117199,0.503415,0.719761,
2,1,0,1,0,22374.8,0.725978,0.725816,1.32974,61,0.0772341,10,0.000965144,-2.87623,0.143171,0.412094,0.723435,
2,1,0,0,0,22375.5,0.72978,0.729614,1.41336,61,0.0782789,10,0.0010312,-2.84975,0.14288,0.412933,0.727084,
2,1,0,1,0,22376.3,0.733581,0.733422,1.50254,61,0.0793893,10,0.00110199,-2.82317,0.135081,0.436775,0.730732,
2,1,0,1,0,22377.1,0.737382,0.737201,1.59276,61,0.0805683,10,0.00117418,-2.79785,0.143454,0.411282,0.73435,
2,1,0,0,0,22377.8,0.741183,0.740914,1.68828,61,0.081818,10,0.00125087,-2.77256,0.152788,0.386157,0.737892,
2,1,0,1,0,22378.6,0.744984,0.744836,1.78797,61,0.083142,10,0.00133175,-2.74764,0.155376,0.379723,0.741636,
2,1,0,0,0,22379.3,0.748785,0.748663,1.89411,61,0.0845434,10,0.00141805,-2.72259,0.146317,0.403234,0.745273,
2,1,0,1,0,22380.1,0.752586,0.752395,1.99969,61,0.0860249,10,0.00150455,-2.69904,0.150371,0.392363,0.748815,
2,1,0,0,0,22380.9,0.756387,0.756184,2.10758,61,0.0875876,10,0.00159372,-2.67622,0.162885,0.362219,0.752411,
2,1,0,1,0,22381.6,0.760188,0.759925,2.2209,61,0.0892354,10,0.00168772,-2.65347,0.178143,0.331195,0.755949,
2,1,0,0,0,22382.4,0.763989,0.763857,2.33919,61,0.0909712,10,0.00178681,-2.63093,0.164883,0.35783,0.75967,
2,1,0,1,0,22383.1,0.76779,0.76756,2.45779,61,0.0927972,10,0.0018865,-2.60945,0.161457,0.365422,0.76316,
2,1,0,0,0,22383.9,0.771592,0.771348,2.58254,61,0.0947157,10,0.00199204,-2.58795,0.16794,0.351315,0.766726,
2,1,0,1,0,22384.7,0.775393,0.775204,2.71063,61,0.0967302,10,0.00210129,-2.56693,0.154308,0.382353,0.770352,
2,1,0,0,0,22385.4,0.779194,0.778888,2.84315,61,0.098844,10,0.00221449,-2.5462,0.176108,0.335022,0.773799,
2,1,0,0,0,22386.2,0.782995,0.782877,2.97919,61,0.10106,10,0.00233234,-2.5259,0.161587,0.365129,0.777544,
2,1,0,1,0,22386.9,0.786796,0.786571,3.11898,61,0.10338,10,0.0024533,-2.50599,0.186188,0.316884,0.780988,
2,1,0,0,0,22387.7,0.790597,0.790417,3.26319,61,0.105808,10,0.00257928,-2.48636,0.19285,0.305938,0.784576,
2,1,0,1,0,22388.5,0.794398,0.794253,3.41268,61,0.108348,10,0.00271053,-2.4669,0.177693,0.332033,0.788144,
2,1,0,0,0,22389.2,0.798199,0.797975,3.56706,61,0.111004,10,0.00284643,-2.44769,0.170574,0.345891,0.79159,
2,1,0,1,0,22390,0.802,0.801812,3.7278,61,0.113779,10,0.00298899,-2.42855,0.167868,0.351467,0.795139,
2,1,0,0,0,22390.7,0.805801,0.80562,3.89083,61,0.116677,10,0.00313453,-2.40996,0.190281,0.310067,0.798655,
2,1,0,1,0,22391.5,0.809602,0.809399,4.06104,61,0.119702,10,0.003287,-2.39136,0.187063,0.315402,0.80213,
2,1,0,0,0,22392.3,0.813403,0.813188,4.23466,61,0.122857,10,0.00344358,-2.37318,0.193933,0.304229,0.805608,
2,1,0,1,0,22393,0.817205,0.816967,4.41509,61,0.126148,10,0.00360699,-2.35506,0.193707,0.304584,0.809064,
2,1,0,0,0,22393.8,0.821006,0.820775,4.5999,61,0.129577,10,0.00377548,-2.33725,0.196409,0.300394,0.812541,
2,1,0,1,0,22394.5,0.824807,0.824621,4.79285,61,0.13315,10,0.00395228,-2.31941,0.192259,0.306877,0.816042,
2,1,0,1,0,22395.3,0.828608,0.828353,4.98814,61,0.136871,10,0.00413194,-2.30206,0.20647,0.285756,0.819424,
2,1,0,0,0,22396.1,0.832409,0.832161,5.19068,61,0.140743,10,0.00431948,-2.28478,0.209095,0.282168,0.822869,
2,1,0,1,0,22396.8,0.83621,0.83595,5.39688,61,0.14477,10,0.00451152,-2.26786,0.189156,0.311913,0.826289,
2,1,0,0,0,22397.6,0.840011,0.839815,5.6065,61,0.148955,10,0.00470842,-2.25131,0.198079,0.297861,0.829779,
2,1,0,1,0,22398.3,0.843812,0.843708,5.82228,61,0.153303,10,0.00491231,-2.23491,0.21735,0.271452,0.833287,
2,1,0,0,0,22399.1,0.847613,0.84745,6.04341,61,0.157816,10,0.00512149,-2.21872,0.201515,0.292783,0.836632,
2,1,0,0,0,22399.8,0.848613,0.84849,6.05116,61,0.162346,10,0.00513435,-2.21816,0.115941,0.508881,0.837658,
2,1,0,1,0,22400.6,0.844812,0.844625,5.72154,61,0.166814,10,0.00483256,-2.24249,0.130339,0.452666,0.834383,
2,1,0,0,0,22401.4,0.841011,0.840855,5.41989,61,0.171044,10,0.00455734,-2.26601,0.138168,0.427016,0.831153,
2,1,0,1,0,22402.1,0.83721,0.837133,5.13983,61,0.175054,10,0.00430272,-2.28905,0.134452,0.438817,0.827933,
2,1,0,0,0,22402.9,0.833409,0.83322,4.87841,61,0.178859,10,0.00406479,-2.31172,0.162401,0.363299,0.824488,
2,1,0,1,0,22403.6,0.829608,0.829488,4.63175,61,0.18247,10,0.00384198,-2.33426,0.148876,0.396303,0.821198,
2,1,0,0,0,22404.4,0.825807,0.825633,4.39819,61,0.185899,10,0.00363129,-2.35673,0.151284,0.389996,0.81776,
2,1,0,1,0,22405.2,0.822006,0.821796,4.17798,61,0.189155,10,0.00343345,-2.37903,0.154694,0.381399,0.814318,
2,1,0,0,0,22405.9,0.818205,0.817988,3.96806,61,0.192248,10,0.00324582,-2.40142,0.157295,0.375092,0.810886,
2,1,0,0,0,22406.7,0.814404,0.814228,3.76942,61,0.195187,10,0.00306917,-2.42373,0.147347,0.400416,0.807481,
2,1,0,1,0,22407.4,0.810603,0.810401,3.58002,61,0.197978,10,0.00290126,-2.44611,0.164145,0.359439,0.803993,
2,1,0,0,0,22408.2,0.806802,0.806574,3.4014,61,0.200628,10,0.00274348,-2.46834,0.162097,0.36398,0.800486,
2,1,0,1,0,22409,0.803,0.802785,3.23126,61,0.203146,10,0.00259401,-2.49063,0.161303,0.365772,0.797001,
2,1,0,0,0,22409.7,0.799199,0.798996,3.06543,61,0.205536,10,0.00244927,-2.51351,0.144955,0.407024,0.793509,
2,1,0,1,0,22410.5,0.795398,0.795179,2.91017,61,0.207803,10,0.00231411,-2.53608,0.155047,0.380529,0.78997,
2,1,0,0,0,22411.3,0.791597,0.791428,2.75986,61,0.209955,10,0.00218423,-2.55911,0.159569,0.369746,0.786488,
2,1,0,1,0,22412,0.787796,0.787582,2.61638,61,0.211996,10,0.00206061,-2.5823,0.144908,0.407155,0.782899,
2,1,0,0,0,22412.8,0.783995,0.783841,2.47839,61,0.213929,10,0.00194266,-2.60583,0.166378,0.354615,0.779405,
2,1,0,1,0,22413.5,0.780194,0.78011,2.34586,61,0.21576,10,0.00183002,-2.6297,0.155095,0.380411,0.77591,
2,1,0,0,0,22414.3,0.776393,0.776197,2.21938,61,0.217493,10,0.00172267,-2.65377,0.138263,0.426723,0.772224,
2,1,0,1,0,22415.1,0.772592,0.772446,2.09601,61,0.219131,10,0.00161906,-2.67861,0.136356,0.432691,0.768694,
2,1,0,1,0,22415.8,0.768791,0.76859,1.9794,61,0.220678,10,0.00152134,-2.70347,0.131147,0.449878,0.765047,
2,1,0,0,0,22416.6,0.76499,0.76483,1.86709,61,0.222137,10,0.00142801,-2.72883,0.123424,0.478027,0.761488,
2,1,0,1,0,22417.3,0.761189,0.760984,1.75739,61,0.223512,10,0.00133735,-2.75513,0.133099,0.44328,0.757838,
2,1,0,0,0,22418.1,0.757387,0.757157,1.65219,61,0.224805,10,0.00125097,-2.78194,0.13238,0.445687,0.7542,
2,1,0,1,0,22418.9,0.753586,0.753349,1.55087,61,0.226019,10,0.00116835,-2.80943,0.135003,0.437028,0.750573,
2,1,0,0,0,22419.6,0.749785,0.749618,1.45382,61,0.227159,10,0.00108981,-2.83749,0.132613,0.444904,0.747015,
2,1,0,1,0,22420.4,0.745984,0.745819,1.35942,61,0.228227,10,0.00101388,-2.86665,0.122269,0.482543,0.743386,
2,1,0,0,0,22421.1,0.742183,0.741944,1.27063,61,0.229224,10,0.000942738,-2.89598,0.127346,0.463304,0.73967,
2,1,0,1,0,22421.9,0.738382,0.738184,1.18412,61,0.230155,10,0.000874102,-2.9266,0.124061,0.475573,0.736065,
2,1,0,0,0,22422.7,0.734581,0.734376,1.10034,61,0.231021,10,0.000808062,-2.95847,0.108634,0.543106,0.732407,
2,1,0,1,0,22423.4,0.73078,0.730521,1.02272,61,0.231826,10,0.000747115,-2.99025,0.10164,0.580478,0.72869,
2,1,0,0,0,22424.2,0.726979,0.726751,0.946982,61,0.232572,10,0.00068822,-3.02366,0.114769,0.514076,0.725056,
2,1,0,0,0,22424.9,0.723178,0.722953,0.874146,61,0.233262,10,0.000631966,-3.05842,0.10706,0.551092,0.721388,
2,1,0,1,0,22425.7,0.719377,0.719154,0.804952,61,0.233898,10,0.000578885,-3.09423,0.110875,0.532129,0.717713,
2,1,0,0,0,22426.5,0.715576,0.715298,0.739564,61,0.234482,10,0.000529009,-3.13102,0.0943746,0.625168,0.713975,
2,1,0,1,0,22427.2,0.711774,0.711557,0.678051,61,0.235019,10,0.000482472,-3.16874,0.0930903,0.633793,0.710344,
2,1,0,0,0,22428,0.707973,0.707788,0.617881,61,0.235509,10,0.000437329,-3.2091,0.0911245,0.647466,0.706682,
2,1,0,1,0,22428.7,0.704172,0.703827,0.562287,61,0.235954,10,0.000395753,-3.25004,0.0964234,0.611884,0.702821,
2,1,0,0,0,22429.5,0.700371,0.70022,0.51132,61,0.23636,10,0.000358036,-3.29131,0.0862044,0.68442,0.699304,
2,1,0,1,0,22430.3,0.69657,0.696288,0.460801,61,0.236727,10,0.00032085,-3.33649,0.0875962,0.673545,0.695463,
2,1,0,0,0,22431,0.692769,0.692566,0.414708,61,0.237056,10,0.000287212,-3.38226,0.0747318,0.78949,0.691823,
2,1,0,1,0,22431.8,0.688968,0.688796,0.370504,61,0.237352,10,0.000255201,-3.43121,0.0675302,0.873683,0.688133,
2,1,0,0,0,22432.5,0.685167,0.684911,0.330602,61,0.237615,10,0.000226433,-3.48069,0.077595,0.760358,0.68432,
2,1,0,1,0,22433.3,0.681366,0.681056,0.291798,61,0.237849,10,0.000198731,-3.53492,0.0678491,0.869576,0.680534,
2,1,0,1,0,22434.1,0.677565,0.677334,0.25509,61,0.238054,10,0.000172781,-3.59331,0.0636552,0.926868,0.676877,
2,1,0,0,0,22434.8,0.673764,0.673507,0.221672,61,0.238233,10,0.000149298,-3.65429,0.0554646,1.06374,0.67311,
2,1,0,1,0,22435.6,0.669963,0.669737,0.190799,61,0.238387,10,0.000127785,-3.71942,0.0589475,1.00089,0.669396,
2,1,0,0,0,22436.3,0.666161,0.665834,0.161554,61,0.238519,10,0.000107568,-3.79168,0.0502858,1.17329,0.665545,
2,1,0,1,0,22437.1,0.66236,0.662131,0.134601,61,0.238628,10,8.91233e-05,-3.87095,0.0464638,1.26981,0.66189,
2,1,0,0,0,22437.9,0.658559,0.658313,0.107225,61,0.238717,10,7.05879e-05,-3.9697,0.0374833,1.57404,0.658121,
2,1,0,1,0,22438.6,0.654758,0.654544,0.0834846,61,0.238787,10,5.46443e-05,-4.07839,0.0293927,2.0073,0.654394,
2,1,0,0,0,22439.4,0.650957,0.650745,0.0607302,61,0.23884,10,3.95199e-05,-4.2166,0.024778,2.38114,0.650637,
2,1,0,1,0,22440.1,0.647156,0.646975,0.0394037,61,0.238876,10,2.54932e-05,-4.40446,0.0158804,3.71528,0.646905,
2,1,0,0,0,22440.9,0.643355,0.643101,0.019836,61,0.238896,10,1.27565e-05,-4.70255,0.00867252,6.8031,0.643065,
2,1,0,1,0,22441.7,0.639554,0.639302,0.000852376,61,0.238902,10,5.44926e-07,-6.06937,0.0108674,5.42907,0.639301,
2,0,0,0,0,22442.4,0.635753,0.635494,-0.0155027,61,0.238895,10,-9.8519e-06,-4.80959,-0.00738469,-7.9895,0.635522,
2,0,0,0,0,22443.2,0.631952,0.631763,-0.0303794,61,0.238875,10,-1.91926e-05,-4.51742,-0.0190856,-3.09133,0.631817,
2,0,0,1,0,22443.9,0.628151,0.627907,-0.0455001,61,0.238843,10,-2.85698e-05,-4.34199,-0.0272528,-2.16492,0.627989,
2,0,0,0,0,22444.7,0.62435,0.624166,-0.0593046,61,0.2388,10,-3.70159e-05,-4.22691,-0.0404254,-1.45948,0.624272,
2,0,0,1,0,22445.5,0.620548,0.620349,-0.0736997,61,0.238747,10,-4.57195e-05,-4.13253,-0.0445499,-1.32436,0.620481,
2,0,0,0,0,22446.2,0.616747,0.616493,-0.0866929,61,0.238684,10,-5.34456e-05,-4.06202,-0.0620838,-0.950329,0.616648,
2,0,0,1,0,22447,0.612946,0.612771,-0.0986477,61,0.238611,10,-6.04484e-05,-4.00591,-0.0866612,-0.680812,0.612948,
2,0,0,0,0,22447.7,0.609145,0.608925,-0.109882,61,0.238529,10,-6.69099e-05,-3.95907,-0.0999703,-0.590175,0.609122,
2,0,0,1,0,22448.5,0.605344,0.605107,-0.120435,61,0.238439,10,-7.28761e-05,-3.91925,-0.0918607,-0.642277,0.605323,
2,0,0,0,0,22449.3,0.601543,0.601261,-0.129924,61,0.238341,10,-7.8118e-05,-3.88631,-0.11379,-0.518499,0.601494,
2,0,0,1,0,22450,0.597742,0.597549,-0.138231,61,0.238236,10,-8.25997e-05,-3.85939,-0.162731,-0.362562,0.597796,
2,0,0,0,0,22450.8,0.593941,0.59375,-0.146597,61,0.238125,10,-8.70419e-05,-3.83388,-0.133276,-0.44269,0.594013,
2,0,0,1,0,22451.5,0.59014,0.589943,-0.154437,61,0.238007,10,-9.11088e-05,-3.81125,-0.200008,-0.294988,0.590219,
2,0,0,1,0,22452.3,0.586339,0.58623,-0.160835,61,0.237884,10,-9.42864e-05,-3.79362,-0.275586,-0.214089,0.586518,
2,0,0,0,0,22453.1,0.582538,0.582355,-0.167735,61,0.237756,10,-9.76814e-05,-3.77538,-0.270663,-0.217983,0.582656,
2,0,0,1,0,22453.8,0.578737,0.578481,-0.174374,61,0.237623,10,-0.000100872,-3.75852,-0.299004,-0.197322,0.578793,
2,0,0,0,0,22454.6,0.574936,0.574682,-0.179703,61,0.237485,10,-0.000103272,-3.74545,-0.381577,-0.154621,0.575004,
2,0,0,1,0,22455.3,0.571134,0.570912,-0.185466,61,0.237343,10,-0.000105885,-3.73174,-0.1974,-0.298885,0.571244,
2,0,0,0,0,22456.1,0.567333,0.5672,-0.189672,61,0.237198,10,-0.000107582,-3.722,-0.387368,-0.15231,0.56754,
2,0,0,1,0,22456.9,0.563532,0.563297,-0.195032,61,0.237049,10,-0.000109861,-3.70989,-0.628696,-0.093845,0.563646,
2,0,0,0,0,22457.6,0.559731,0.559584,-0.198472,61,0.236896,10,-0.000111062,-3.7023,-0.603574,-0.0977511,0.559939,
2,0,0,1,0,22458.4,0.55593,0.555624,-0.202139,61,0.236741,10,-0.000112313,-3.69435,-0.297766,-0.198142,0.555985,
2,0,0,0,0,22459.1,0.552129,0.552006,-0.205572,61,0.236583,10,-0.000113477,-3.68704,-0.537032,-0.109863,0.552374,
2,0,0,1,0,22459.9,0.548328,0.548141,-0.207701,61,0.236423,10,-0.00011385,-3.68256,-0.72317,-0.0815852,0.548513,
2,0,0,0,0,22460.7,0.544527,0.544286,-0.210933,61,0.236261,10,-0.000114808,-3.67585,-0.794513,-0.0742593,0.544663,
2,0,0,1,0,22461.4,0.540726,0.540487,-0.213787,61,0.236097,10,-0.000115549,-3.67002,-0.728797,-0.0809554,0.54087,
2,0,0,1,0,22462.2,0.536925,0.536784,-0.21621,61,0.235931,10,-0.000116058,-3.66512,-13.1542,-0.00448526,0.537171,
2,0,0,0,0,22462.9,0.533124,0.532871,-0.218572,61,0.235763,10,-0.000116471,-3.66041,-1.23747,-0.0476781,0.533263,
2,0,0,1,0,22463.7,0.529323,0.529102,-0.219565,61,0.235594,10,-0.000116172,-3.65844,-0.645699,-0.0913739,0.529495,
2,0,0,0,0,22464.5,0.525521,0.525342,-0.222057,61,0.235424,10,-0.000116656,-3.65353,-4.3662,-0.0135129,0.525739,
2,0,0,1,0,22465.2,0.52172,0.521534,-0.222577,61,0.235253,10,-0.000116081,-3.65252,-31.8668,-0.00185146,0.521932,
2,0,0,0,0,22466,0.517919,0.517659,-0.225445,61,0.23508,10,-0.000116704,-3.64696,-2.539,-0.0232375,0.518062,
2,0,0,1,0,22466.7,0.514118,0.513918,-0.226497,61,0.234906,10,-0.000116401,-3.64494,-0.958899,-0.0615289,0.514323,
2,0,0,0,0,22467.5,0.510317,0.510138,-0.227087,61,0.234731,10,-0.000115846,-3.64381,-1.29307,-0.0456279,0.510545,
2,0,0,1,0,22468.3,0.506516,0.506264,-0.229566,61,0.234555,10,-0.000116221,-3.63909,-3.09757,-0.0190472,0.506675,
2,0,0,0,0,22469,0.502715,0.502465,-0.22991,61,0.234378,10,-0.000115522,-3.63844,-1.22788,-0.0480502,0.502877,
2,0,0,1,0,22469.8,0.498914,0.498705,-0.230949,61,0.2342,10,-0.000115175,-3.63648,-25.9635,-0.00227242,0.499119,
2,0,0,1,0,22470.5,0.495113,0.494821,-0.232194,61,0.23402,10,-0.000114894,-3.63415,-3.59079,-0.0164309,0.495237,
2,0,0,0,0,22471.3,0.491312,0.49107,-0.233603,61,0.23384,10,-0.000114716,-3.63152,-0.588512,-0.100253,0.491488,
2,0,0,1,0,22472.1,0.487511,0.48731,-0.235446,61,0.233659,10,-0.000114735,-3.62811,-0.809703,-0.0728662,0.487731,
2,0,0,0,0,22472.8,0.48371,0.483426,-0.235388,61,0.233476,10,-0.000113793,-3.62822,2.25218,0.0261968,0.483847,
2,0,0,1,0,22473.6,0.479908,0.479685,-0.238107,61,0.233292,10,-0.000114216,-3.62323,-2.45769,-0.0240062,0.480111,
2,0,0,0,0,22474.3,0.476107,0.475867,-0.239366,61,0.233107,10,-0.000113907,-3.62094,-3.50296,-0.0168429,0.476296,
2,0,0,1,0,22475.1,0.472306,0.472069,-0.240866,61,0.232922,10,-0.000113705,-3.61823,7.47002,0.00789824,0.4725,
2,0,0,0,0,22475.9,0.468505,0.468318,-0.241924,61,0.232735,10,-0.000113297,-3.61632,-6.76159,-0.00872576,0.468751,
2,0,0,1,0,22476.6,0.464704,0.464539,-0.244085,61,0.232546,10,-0.000113387,-3.61246,-0.469379,-0.125698,0.464976,
2,0,0,0,0,22477.4,0.460903,0.460655,-0.245578,61,0.232356,10,-0.000113126,-3.60981,-3.09971,-0.019034,0.461094,
2,0,0,1,0,22478.1,0.457102,0.456885,-0.248732,61,0.232165,10,-0.000113642,-3.60427,-0.500577,-0.117864,0.45733,
2,0,0,0,0,22478.9,0.453301,0.453211,-0.249984,61,0.231973,10,-0.000113296,-3.60209,-0.658306,-0.089624,0.453658,
2,0,0,1,0,22479.7,0.4495,0.449298,-0.251618,61,0.231778,10,-0.000113052,-3.59926,-1.65624,-0.035623,0.449748,
2,0,0,1,0,22480.4,0.445699,0.445547,-0.253223,61,0.231582,10,-0.000112823,-3.5965,73.7297,0.00080022,0.446,
2,0,0,0,0,22481.2,0.441898,0.441672,-0.255748,61,0.231385,10,-0.000112957,-3.59219,-0.752996,-0.0783536,0.44213,
2,0,0,1,0,22482,0.438096,0.437864,-0.259259,61,0.231186,10,-0.00011352,-3.58627,-0.917971,-0.0642722,0.438328,
2,0,0,0,0,22482.7,0.434295,0.434095,-0.26131,61,0.230984,10,-0.000113433,-3.58284,-0.844527,-0.0698616,0.434562,
2,0,0,1,0,22483.5,0.430494,0.430248,-0.263081,61,0.230781,10,-0.00011319,-3.57991,-1.0457,-0.0564214,0.430719,
2,0,0,0,0,22484.2,0.426693,0.426469,-0.265567,61,0.230577,10,-0.000113256,-3.57583,-0.717497,-0.0822303,0.426945,
2,0,0,1,0,22485,0.422892,0.422642,-0.267547,61,0.23037,10,-0.000113076,-3.5726,-0.686053,-0.0859992,0.423121,
2,0,0,0,0,22485.8,0.419091,0.418958,-0.270182,61,0.230162,10,-0.000113195,-3.56834,-0.407719,-0.144707,0.419442,
2,0,0,1,0,22486.5,0.41529,0.415036,-0.273264,61,0.229951,10,-0.000113415,-3.56342,-1.64818,-0.0357971,0.415525,
2,0,0,0,0,22487.3,0.411489,0.411209,-0.276497,61,0.229738,10,-0.000113698,-3.55831,-0.863033,-0.0683635,0.411704,
2,0,0,1,0,22488,0.407688,0.40742,-0.2788,61,0.229523,10,-0.000113589,-3.55471,-4.28515,-0.0137685,0.407919,
2,0,0,1,0,22488.8,0.403887,0.403593,-0.282313,61,0.229306,10,-0.00011394,-3.54927,-0.743141,-0.0793927,0.404098,
2,0,0,0,0,22489.6,0.400086,0.399871,-0.284447,61,0.229086,10,-0.000113742,-3.546,-0.630684,-0.0935492,0.40038,
2,0,0,1,0,22490.3,0.396285,0.396044,-0.288932,61,0.228864,10,-0.00011443,-3.53921,-0.967348,-0.0609915,0.396561,
2,0,0,0,0,22491.1,0.392484,0.392293,-0.291132,61,0.22864,10,-0.000114209,-3.53591,-0.669495,-0.0881261,0.392814,
2,0,0,1,0,22491.8,0.388682,0.38839,-0.294124,61,0.228413,10,-0.000114235,-3.53147,-0.531089,-0.111092,0.388916,
2,0,0,0,0,22492.6,0.384881,0.384649,-0.297375,61,0.228184,10,-0.000114385,-3.5267,-0.998691,-0.0590773,0.385181,
2,0,0,1,0,22493.4,0.38108,0.380917,-0.29988,61,0.227952,10,-0.00011423,-3.52305,-0.328827,-0.179426,0.381454,
2,0,0,0,0,22494.1,0.377279,0.377043,-0.303684,61,0.227718,10,-0.000114502,-3.51758,-0.646994,-0.0911909,0.377586,
2,0,0,1,0,22494.9,0.373478,0.373292,-0.308473,61,0.227481,10,-0.000115151,-3.51078,-0.764393,-0.0771854,0.373844,
2,0,0,0,0,22495.6,0.369677,0.369427,-0.312361,61,0.227241,10,-0.000115394,-3.50534,-6.89946,-0.0085514,0.369986,
2,0,0,1,0,22496.4,0.365876,0.365552,-0.314989,61,0.226998,10,-0.000115145,-3.5017,-0.513746,-0.114843,0.366116,
2,0,0,0,0,22497.2,0.362075,0.361859,-0.319734,61,0.226752,10,-0.000115698,-3.49521,-0.971274,-0.060745,0.362431,
2,0,0,1,0,22497.9,0.358274,0.358051,-0.32406,61,0.226503,10,-0.00011603,-3.48937,-0.51012,-0.115659,0.358631,
2,0,0,1,0,22498.7,0.354473,0.354271,-0.327593,61,0.226251,10,-0.000116057,-3.48467,-0.681528,-0.0865702,0.354858,
2,0,0,0,0,22499.4,0.350672,0.350473,-0.331234,61,0.225995,10,-0.000116089,-3.47986,-0.585174,-0.100825,0.351066,
2,0,0,1,0,22500.2,0.346871,0.346627,-0.335193,61,0.225737,10,-0.000116187,-3.4747,-0.796661,-0.0740591,0.347227,
2,0,0,0,0,22501,0.343069,0.342895,-0.338523,61,0.225475,10,-0.000116078,-3.47041,-1.89062,-0.0312067,0.343501,
2,0,0,1,0,22501.7,0.339268,0.339135,-0.343189,61,0.225211,10,-0.000116387,-3.46447,-0.632076,-0.0933433,0.339749,
2,0,0,0,0,22502.5,0.335467,0.33526,-0.348167,61,0.224943,10,-0.000116727,-3.45821,-1.01129,-0.0583416,0.335884,
2,0,0,1,0,22503.2,0.331666,0.331376,-0.353015,61,0.224672,10,-0.000116981,-3.45221,-0.442715,-0.133269,0.332008,
2,0,0,0,0,22504,0.327865,0.327606,-0.356189,61,0.224398,10,-0.00011669,-3.44832,-0.735339,-0.0802351,0.328244,
2,0,0,1,0,22504.8,0.324064,0.323884,-0.360245,61,0.224121,10,-0.000116678,-3.4434,-0.550618,-0.107152,0.324529,
2,0,0,0,0,22505.5,0.320263,0.319962,-0.364256,61,0.22384,10,-0.000116548,-3.43859,-0.922442,-0.0639606,0.320614,
2,0,0,1,0,22506.3,0.316462,0.31623,-0.368131,61,0.223557,10,-0.000116414,-3.434,-0.453471,-0.130108,0.316889,
2,0,0,1,0,22507,0.312661,0.312384,-0.373775,61,0.22327,10,-0.000116761,-3.42739,-1.08991,-0.0541327,0.313053,
2,0,0,0,0,22507.8,0.30886,0.308615,-0.377905,61,0.22298,10,-0.000116627,-3.42262,-0.616201,-0.095748,0.309291,
2,0,0,1,0,22508.6,0.305059,0.304826,-0.380559,61,0.222687,10,-0.000116004,-3.41958,-0.899474,-0.0655939,0.305507,
2,0,0,0,0,22509.3,0.301258,0.301151,-0.385933,61,0.222392,10,-0.000116224,-3.41349,-0.823958,-0.0716056,0.301842,
2,0,0,1,0,22510.1,0.297456,0.297172,-0.389963,61,0.222093,10,-0.000115886,-3.40898,-0.716722,-0.0823192,0.29787,
2,0,0,0,0,22510.8,0.293655,0.293488,-0.395032,61,0.22179,10,-0.000115937,-3.40337,-1.11089,-0.0531103,0.294195,
2,0,0,1,0,22511.6,0.289854,0.289651,-0.397998,61,0.221485,10,-0.000115281,-3.40012,-1.57886,-0.0373688,0.290364,
2,0,0,0,0,22512.4,0.286053,0.285815,-0.402554,61,0.221176,10,-0.000115056,-3.39518,-0.565091,-0.104408,0.286535,
2,0,0,1,0,22513.1,0.282252,0.282083,-0.407714,61,0.220864,10,-0.000115009,-3.38964,-1.85615,-0.0317862,0.282813,
2,0,0,0,0,22513.9,0.278451,0.278256,-0.411322,61,0.220549,10,-0.000114453,-3.38582,-0.912991,-0.0646228,0.278992,
2,0,0,1,0,22514.6,0.27465,0.27441,-0.415417,61,0.220231,10,-0.000113995,-3.38152,-0.736989,-0.0800555,0.275154,
2,0,0,0,0,22515.4,0.270849,0.270621,-0.420408,61,0.219909,10,-0.000113771,-3.37633,-0.671521,-0.0878602,0.271374,
2,0,0,1,0,22516.2,0.267048,0.266775,-0.424569,61,0.219584,10,-0.000113265,-3.37205,-0.825281,-0.0714908,0.267535,
2,0,0,1,0,22516.9,0.263247,0.263005,-0.428826,61,0.219256,10,-0.000112784,-3.36772,-0.552424,-0.106802,0.263773,
2,0,0,0,0,22517.7,0.259446,0.259331,-0.433434,61,0.218923,10,-0.000112403,-3.36308,-0.846704,-0.069682,0.260107,
2,0,0,1,0,22518.4,0.255645,0.255409,-0.437672,61,0.218588,10,-0.000111785,-3.35885,-0.730547,-0.0807613,0.256192,
2,0,0,0,0,22519.2,0.251843,0.25161,-0.443247,61,0.218248,10,-0.000111526,-3.35335,-0.944288,-0.0624809,0.252404,
2,0,0,1,0,22520,0.248042,0.247774,-0.448095,61,0.217905,10,-0.000111026,-3.34863,-0.449002,-0.131402,0.248576,
2,0,0,0,0,22520.7,0.244241,0.244061,-0.453489,61,0.217557,10,-0.000110679,-3.34343,-0.690979,-0.0853861,0.244873,
2,0,0,1,0,22521.5,0.24044,0.240349,-0.457954,61,0.217205,10,-0.000110069,-3.33918,-2.26984,-0.0259931,0.241168,
2,0,0,0,0,22522.2,0.236639,0.236379,-0.463256,61,0.216849,10,-0.000109504,-3.33418,-0.519177,-0.113641,0.237208,
2,0,0,1,0,22523,0.232838,0.232657,-0.47305,61,0.216487,10,-0.000110058,-3.32509,-0.587553,-0.100416,0.233503,
2,0,0,0,0,22523.8,0.229037,0.228925,-0.478787,61,0.21612,10,-0.000109606,-3.31986,-1.61584,-0.0365136,0.229782,
2,0,0,1,0,22524.5,0.225236,0.224993,-0.484726,61,0.215749,10,-0.00010906,-3.3145,-0.609103,-0.0968638,0.225861,
2,0,0,1,0,22525.3,0.221435,0.221195,-0.493674,61,0.215371,10,-0.000109198,-3.30656,-0.442275,-0.133401,0.222078,
2,0,0,0,0,22526,0.217634,0.217406,-0.502087,61,0.214986,10,-0.000109157,-3.29922,-0.519035,-0.113672,0.218305,
2,0,0,1,0,22526.8,0.213833,0.213588,-0.511926,61,0.214595,10,-0.000109341,-3.29079,-0.425163,-0.13877,0.214505,
2,0,0,0,0,22527.6,0.210032,0.209771,-0.522342,61,0.214197,10,-0.000109572,-3.28204,-0.346468,-0.17029,0.210706,
2,0,0,1,0,22528.3,0.20623,0.205925,-0.533538,61,0.21379,10,-0.000109869,-3.27283,-0.389556,-0.151455,0.20688,
2,0,0,0,0,22529.1,0.202429,0.202231,-0.545629,61,0.213373,10,-0.000110343,-3.2631,-0.391373,-0.150751,0.203208,
2,0,0,1,0,22529.8,0.198628,0.198509,-0.560582,61,0.212947,10,-0.000111281,-3.25136,-0.307457,-0.191896,0.199513,
2,0,0,0,0,22530.6,0.194827,0.194682,-0.578436,61,0.212508,10,-0.000112611,-3.23774,-0.303212,-0.194583,0.195718,
2,0,0,1,0,22531.4,0.191026,0.190693,-0.597641,61,0.212055,10,-0.000113966,-3.22356,-0.198699,-0.296931,0.191763,
2,0,0,0,0,22532.1,0.187225,0.187133,-0.619798,61,0.211586,10,-0.000115985,-3.20775,-0.258807,-0.227969,0.188243,
2,0,0,1,0,22532.9,0.183424,0.183182,-0.647193,61,0.211098,10,-0.000118554,-3.18897,-0.190055,-0.310436,0.184341,
2,0,0,0,0,22533.6,0.179623,0.179346,-0.676619,61,0.210589,10,-0.000121349,-3.16966,-0.161685,-0.364907,0.180557,
2,0,0,1,0,22534.4,0.175822,0.175557,-0.712038,61,0.210056,10,-0.000125003,-3.1475,-0.144291,-0.408897,0.176831,
2,0,0,1,0,22535.2,0.172021,0.17173,-0.756525,61,0.209491,10,-0.000129918,-3.12118,-0.153423,-0.384557,0.173084,
2,0,0,0,0,22535.9,0.16822,0.167989,-0.805811,61,0.208891,10,-0.000135367,-3.09377,-0.132137,-0.446506,0.169431,
2,0,0,1,0,22536.7,0.164419,0.164248,-0.863431,61,0.20825,10,-0.000141816,-3.06377,-0.142738,-0.413343,0.165793,
2,0,0,0,0,22537.4,0.160617,0.16043,-0.924068,61,0.207564,10,-0.000148248,-3.0343,-0.117447,-0.502355,0.162084,
2,0,0,1,0,22538.2,0.156816,0.156555,-0.989955,61,0.20683,10,-0.000154983,-3.00438,-0.12688,-0.465007,0.158327,
2,0,0,0,0,22539,0.153015,0.152786,-1.05822,61,0.206045,10,-0.000161681,-2.97542,-0.133958,-0.440435,0.15468,
2,0,0,1,0,22539.7,0.149214,0.149016,-1.12614,61,0.205208,10,-0.000167812,-2.94841,-0.138856,-0.4249,0.151032,
2,0,0,0,0,22540.5,0.145413,0.145227,-1.1923,61,0.20432,10,-0.000173154,-2.92362,-0.163561,-0.360721,0.147361,
2,0,0,1,0,22541.2,0.141612,0.141371,-1.25647,61,0.203382,10,-0.000177628,-2.90085,-0.19211,-0.307115,0.143621,
2,0,0,0,0,22542,0.137811,0.137583,-1.31078,61,0.202399,10,-0.000180341,-2.88247,-0.212832,-0.277214,0.139929,
2,0,0,1,0,22542.8,0.13401,0.133727,-1.36121,61,0.201376,10,-0.00018203,-2.86607,-0.289087,-0.204091,0.136164,
2,0,0,1,0,22543.5,0.130209,0.129995,-1.39986,61,0.200319,10,-0.000181975,-2.85392,-0.313228,-0.188361,0.132501,
2,0,0,0,0,22544.3,0.126408,0.126111,-1.42658,61,0.199237,10,-0.000179908,-2.8457,-0.880959,-0.0669725,0.128665,
2,0,0,1,0,22545,0.122607,0.122475,-1.43914,61,0.198141,10,-0.000176259,-2.8419,-1.3145,-0.044884,0.125051,
2,0,0,0,0,22545.8,0.118806,0.118562,-1.44429,61,0.197038,10,-0.000171238,-2.84035,4.13539,0.0142671,0.121147,
2,0,0,1,0,22546.6,0.115004,0.114859,-1.43517,61,0.195936,10,-0.000164843,-2.8431,0.97146,0.0607333,0.117428,
2,0,0,0,0,22547.3,0.111203,0.111023,-1.41802,61,0.194845,10,-0.000157433,-2.84832,0.613482,0.0961723,0.113561,
2,0,0,1,0,22548.1,0.107402,0.107234,-1.39332,61,0.19377,10,-0.000149411,-2.85595,0.47879,0.123227,0.109728,
2,0,0,0,0,22548.8,0.103601,0.103407,-1.36308,61,0.192716,10,-0.000140952,-2.86548,0.353232,0.167029,0.105847,
2,0,0,1,0,22549.6,0.0998002,0.0996752,-1.3254,61,0.191687,10,-0.000132109,-2.87765,0.28659,0.205869,0.102048,
2,0,0,0,0,22550.4,0.0959991,0.0956955,-1.28533,61,0.190689,10,-0.000123001,-2.89098,0.313056,0.188465,0.0979962,
2,0,0,1,0,22551.1,0.092198,0.0919257,-1.24338,61,0.189722,10,-0.000114298,-2.9054,0.266749,0.221182,0.0941514,
2,0,0,0,0,22551.9,0.0883969,0.0880987,-1.19867,61,0.188787,10,-0.000105601,-2.9213,0.24024,0.245588,0.0902444,
2,0,0,1,0,22552.7,0.0845958,0.0844053,-1.15524,61,0.187887,10,-9.75088e-05,-2.93733,0.23874,0.247131,0.0864732,
2,0,0,1,0,22553.4,0.0807947,0.0805402,-1.1159,61,0.187019,10,-8.98745e-05,-2.95238,0.240731,0.245086,0.0825376,
2,0,0,0,0,22554.2,0.0769937,0.0767895,-1.07523,61,0.18618,10,-8.25663e-05,-2.9685,0.272716,0.216342,0.0787142,
2,0,0,1,0,22554.9,0.0731926,0.0729052,-1.03816,61,0.185371,10,-7.56876e-05,-2.98373,0.273549,0.215683,0.0747635,
2,0,0,0,0,22555.7,0.0693915,0.0692405,-1.00826,61,0.184586,10,-6.98122e-05,-2.99643,0.358799,0.164438,0.0710452,
2,0,0,1,0,22556.5,0.0655904,0.0654135,-0.981135,61,0.183824,10,-6.41795e-05,-3.00827,0.292522,0.201695,0.0671697,
2,0,0,0,0,22557.2,0.0617893,0.061596,-0.956317,61,0.183082,10,-5.89053e-05,-3.0194,0.308049,0.191528,0.0633078,
2,0,0,1,0,22558,0.0579882,0.057769,-0.935828,61,0.182357,10,-5.40618e-05,-3.0288,0.452715,0.130325,0.0594441,
2,0,0,0,0,22558.7,0.0541872,0.0539897,-0.917221,61,0.181647,10,-4.95205e-05,-3.03753,0.536732,0.109924,0.0556315,
2,0,0,1,0,22559.5,0.0503861,0.0500768,-0.902709,61,0.180949,10,-4.52048e-05,-3.04445,0.765163,0.0771078,0.0516926,
2,0,0,0,0,22560.3,0.046585,0.0463548,-0.889294,61,0.180263,10,-4.1223e-05,-3.05095,1.01279,0.0582547,0.0479466,
2,0,0,1,0,22561,0.0427839,0.0425468,-0.879435,61,0.179584,10,-3.74172e-05,-3.0558,0.817089,0.0722076,0.044121,
2,0,0,1,0,22561.8,0.0389828,0.0386817,-0.871442,61,0.178912,10,-3.37088e-05,-3.05976,0.850052,0.0694075,0.0402415,
2,0,0,0,0,22562.5,0.0351817,0.0348737,-0.863035,61,0.178247,10,-3.00973e-05,-3.06397,7.20938,0.00818378,0.0364186,
2,0,0,1,0,22563.3,0.0313807,0.0312185,-0.85855,61,0.177586,10,-2.68027e-05,-3.06623,2.54843,0.0231515,0.0327553,
2,0,0,0,0,22564.1,0.0275796,0.0273343,-0.854091,61,0.176929,10,-2.33459e-05,-3.0685,4.03503,0.014622,0.0288631,
2,0,0,1,0,22564.8,0.0237785,0.0236409,-0.849496,61,0.176275,10,-2.00828e-05,-3.07084,0.857697,0.0687888,0.0251615,
2,0,0,0,0,22565.6,0.0199774,0.0197661,-0.848101,61,0.175624,10,-1.67637e-05,-3.07155,-10.4924,-0.00562312,0.0212842,
2,0,0,1,0,22566.3,0.0161763,0.0160155,-0.845829,61,0.174974,10,-1.35464e-05,-3.07272,-3.89251,-0.0151573,0.0175295,
2,0,0,0,0,22567.1,0.0123753,0.0121121,-0.845505,61,0.174325,10,-1.02409e-05,-3.07288,-15.9484,-0.00369942,0.0136256,
2,0,0,1,0,22567.9,0.00857417,0.00831374,-0.845966,61,0.173676,10,-7.03314e-06,-3.07265,16.6987,0.0035332,0.00982802,
2,0,0,0,0,22568.6,0.00477309,0.00456308,-0.84777,61,0.173025,10,-3.86844e-06,-3.07172,-0.272829,-0.216253,0.00608059,
2,0,0,1,0,22569.4,0.000972007,0.000650182,-0.85439,61,0.17237,10,-5.55509e-07,-3.06834,-6.44873,-0.00914909,0.00217954,
2,0,0,0,0,22569.5,0.00017178,-0.000180117,-0.854578,61,0.172232,10,1.53924e-07,-3.06825, , ,0.00134958,