File: Figure_codes/Fig_2_S1_S6/20220924_003_MultiCV_0_850mV_1-84_C_02_CV_C01_20.csv
mode,ox/red,error,control changes,counter inc.,time/s,control/V,Ewe/V,<I>/mA,cycle number,(Q-Qo)/C,I Range,P/W,log(|I|),Tafel slope mV/dec,alpha_eff,E-IR/V,
2,0,0,0,0,7429.88,2.17368e-05,-0.000351903,-0.180806,21,0.0000000E+000,10,6.36262e-08,-3.74279, , ,-2.82599e-05,
2,1,0,1,0,7430.63,0.00377281,0.00342739,0.0541365,21,-1.52921e-05,10,1.85547e-07,-4.26651,0.0032083,18.3898,0.00333048,
2,1,0,1,0,7431.39,0.00757389,0.00746436,0.155687,21,7.66332e-05,10,1.1621e-06,-3.80775,0.0177568,3.32267,0.00718568,
2,1,0,0,0,7432.15,0.011375,0.0110051,0.2165,21,0.000225825,10,2.38259e-06,-3.66454,0.0387125,1.52406,0.0106175,
2,1,0,1,0,7432.91,0.0151761,0.0148893,0.259114,21,0.000413422,10,3.85803e-06,-3.58651,0.0594794,0.99194,0.0144255,
2,1,0,0,0,7433.67,0.0189771,0.0187354,0.291538,21,0.00062907,10,5.46209e-06,-3.5353,0.104801,0.562974,0.0182136,
2,1,0,1,0,7434.43,0.0227782,0.0224479,0.313903,21,0.00086471,10,7.04647e-06,-3.5032,0.21024,0.280631,0.021886,
2,1,0,0,0,7435.19,0.0265793,0.026294,0.331024,21,0.00111468,10,8.70395e-06,-3.48014,0.193494,0.304919,0.0257015,
2,1,0,1,0,7435.95,0.0303804,0.0300924,0.34318,21,0.00137649,10,1.03271e-05,-3.46448,0.225494,0.261647,0.0294781,
2,1,0,0,0,7436.71,0.0341815,0.0339289,0.355051,21,0.00164741,10,1.20465e-05,-3.44971,0.286564,0.205888,0.0332934,
2,1,0,1,0,7437.47,0.0379825,0.037651,0.363416,21,0.00192513,10,1.3683e-05,-3.4396,0.418705,0.140911,0.0370004,
2,1,0,0,0,7438.23,0.0417836,0.0415352,0.369615,21,0.00220889,10,1.5352e-05,-3.43225,0.429531,0.137359,0.0408736,
2,1,0,1,0,7438.99,0.0455847,0.0453527,0.376462,21,0.00249814,10,1.70735e-05,-3.42428,0.804221,0.0733629,0.0446788,
2,1,0,1,0,7439.75,0.0493858,0.0492274,0.380903,21,0.00279182,10,1.87508e-05,-3.41919,0.745423,0.0791497,0.0485456,
2,1,0,0,0,7440.51,0.0531869,0.0528922,0.386872,21,0.00308929,10,2.04625e-05,-3.41243,0.62121,0.0949759,0.0521997,
2,1,0,1,0,7441.27,0.056988,0.0567096,0.392252,21,0.0033907,10,2.22445e-05,-3.40643,0.765466,0.0770773,0.0560075,
2,1,0,0,0,7442.03,0.060789,0.0605367,0.396263,21,0.00369596,10,2.39884e-05,-3.40202,0.569795,0.103546,0.0598273,
2,1,0,1,0,7442.79,0.0645901,0.0642968,0.400611,21,0.00400426,10,2.5758e-05,-3.39728,0.952825,0.0619211,0.0635798,
2,1,0,0,0,7443.55,0.0683912,0.0682193,0.406719,21,0.00431664,10,2.77461e-05,-3.39071,0.610488,0.0966439,0.0674913,
2,1,0,1,0,7444.31,0.0721923,0.0718745,0.411878,21,0.00463333,10,2.96035e-05,-3.38523,0.435529,0.135467,0.0711373,
2,1,0,0,0,7445.07,0.0759934,0.0757779,0.41857,21,0.00495459,10,3.17183e-05,-3.37823,0.362543,0.162739,0.0750286,
2,1,0,1,0,7445.83,0.0797945,0.0795763,0.427773,21,0.00528153,10,3.40405e-05,-3.36879,0.50432,0.116989,0.0788105,
2,1,0,0,0,7446.59,0.0835955,0.0833842,0.43621,21,0.00561514,10,3.6373e-05,-3.3603,0.509019,0.115909,0.0826034,
2,1,0,1,0,7447.35,0.0873966,0.0871826,0.445458,21,0.00595593,10,3.88362e-05,-3.35119,0.441017,0.133782,0.0863852,
2,1,0,0,0,7448.11,0.0911977,0.0909809,0.457705,21,0.00630487,10,4.16424e-05,-3.33941,0.268064,0.220097,0.0901616,
2,1,0,1,0,7448.87,0.0949988,0.0947507,0.472837,21,0.00666446,10,4.48017e-05,-3.32529,0.219931,0.268266,0.0939043,
2,1,0,1,0,7449.63,0.0987999,0.0984918,0.491674,21,0.00703673,10,4.84259e-05,-3.30832,0.210959,0.279675,0.0976117,
2,1,0,0,0,7450.39,0.102601,0.102319,0.512228,21,0.00742387,10,5.24106e-05,-3.29054,0.187423,0.314797,0.101402,
2,1,0,1,0,7451.15,0.106402,0.106184,0.536424,21,0.00782882,10,5.69596e-05,-3.27049,0.182617,0.32308,0.105224,
2,1,0,0,0,7451.91,0.110203,0.109849,0.56718,21,0.00825486,10,6.2304e-05,-3.24628,0.142423,0.414258,0.108833,
2,1,0,1,0,7452.67,0.114004,0.113733,0.601117,21,0.00870506,10,6.83669e-05,-3.22104,0.11198,0.526878,0.112657,
2,1,0,0,0,7453.43,0.117805,0.11756,0.645821,21,0.00918525,10,7.59227e-05,-3.18989,0.116871,0.504829,0.116404,
2,1,0,1,0,7454.19,0.121606,0.121397,0.696548,21,0.00970194,10,8.45585e-05,-3.15705,0.107488,0.5489,0.12015,
2,1,0,0,0,7454.95,0.125407,0.125176,0.755459,21,0.0102604,10,9.45652e-05,-3.12179,0.103101,0.572256,0.123824,
2,1,0,1,0,7455.71,0.129209,0.128946,0.825922,21,0.010868,10,0.000106499,-3.08306,0.093434,0.631462,0.127467,
2,1,0,0,0,7456.47,0.13301,0.132715,0.907905,21,0.0115338,10,0.000120493,-3.04196,0.0952159,0.619644,0.13109,
2,1,0,1,0,7457.23,0.136811,0.136495,0.996768,21,0.012265,10,0.000136053,-3.00141,0.0926228,0.636992,0.13471,
2,1,0,1,0,7457.99,0.140612,0.140408,1.08976,21,0.0130659,10,0.000153011,-2.96267,0.0970135,0.608163,0.138457,
2,1,0,0,0,7458.75,0.144413,0.144158,1.18565,21,0.0139391,10,0.000170921,-2.92604,0.103042,0.572582,0.142036,
2,1,0,1,0,7459.51,0.148214,0.147995,1.27851,21,0.0148841,10,0.000189213,-2.8933,0.115765,0.509653,0.145706,
2,1,0,0,0,7460.27,0.152015,0.151774,1.35877,21,0.0158952,10,0.000206226,-2.86685,0.157259,0.375176,0.149342,
2,1,0,1,0,7461.04,0.155816,0.155544,1.43047,21,0.0169646,10,0.000222501,-2.84452,0.190828,0.309179,0.152983,
2,1,0,0,0,7461.8,0.159617,0.15938,1.48945,21,0.0180831,10,0.000237389,-2.82697,0.249614,0.236365,0.156714,
2,1,0,1,0,7462.56,0.163418,0.163102,1.52878,21,0.0192392,10,0.000249348,-2.81565,0.410011,0.143899,0.160366,
2,1,0,0,0,7463.32,0.167219,0.16691,1.55093,21,0.0204182,10,0.000258867,-2.80941,0.850224,0.0693935,0.164134,
2,1,0,1,0,7464.08,0.17102,0.170756,1.55992,21,0.0216091,10,0.000266366,-2.8069,14.395,0.00409865,0.167964,
2,1,0,0,0,7464.84,0.174822,0.174631,1.55089,21,0.0227998,10,0.000270834,-2.80942,-0.89594,-0.0658526,0.171855,
2,1,0,1,0,7465.6,0.178623,0.178391,1.52681,21,0.0239778,10,0.00027237,-2.81622,-0.448706,-0.131489,0.175658,
2,1,0,0,0,7466.36,0.182424,0.182237,1.486,21,0.0251316,10,0.000270805,-2.82798,-0.291811,-0.202185,0.179577,
2,1,0,1,0,7467.12,0.186225,0.186103,1.42937,21,0.0262483,10,0.00026601,-2.84485,-0.211062,-0.279539,0.183544,
2,1,0,1,0,7467.88,0.190026,0.189777,1.351,21,0.0273145,10,0.000256388,-2.86935,-0.147679,-0.399515,0.187359,
2,1,0,0,0,7468.64,0.193827,0.193556,1.26066,21,0.0283157,10,0.000244008,-2.8994,-0.11313,-0.521524,0.1913,
2,1,0,1,0,7469.4,0.197628,0.197326,1.15872,21,0.0292431,10,0.000228646,-2.93602,-0.108641,-0.543072,0.195252,
2,1,0,0,0,7470.16,0.201429,0.201162,1.05525,21,0.0300914,10,0.000212277,-2.97664,-0.0998691,-0.590773,0.199274,
2,1,0,1,0,7470.92,0.20523,0.204989,0.953699,21,0.030861,10,0.000195498,-3.02059,-0.0905339,-0.65169,0.203282,
2,1,0,0,0,7471.68,0.209031,0.208788,0.865629,21,0.0315585,10,0.000180733,-3.06267,-0.099794,-0.591218,0.207238,
2,1,0,1,0,7472.44,0.212832,0.212539,0.789357,21,0.0321936,10,0.000167769,-3.10273,-0.108061,-0.545988,0.211126,
2,1,0,0,0,7473.2,0.216633,0.216356,0.725137,21,0.0327753,10,0.000156888,-3.13958,-0.134902,-0.437354,0.215058,
2,1,0,1,0,7473.96,0.220435,0.220212,0.675306,21,0.0333135,10,0.00014871,-3.1705,-0.130445,-0.452298,0.219003,
2,1,0,0,0,7474.72,0.224236,0.223953,0.632588,21,0.033817,10,0.00014167,-3.19888,-0.150621,-0.391712,0.22282,
2,1,0,1,0,7475.48,0.228037,0.227818,0.599313,21,0.0342915,10,0.000136534,-3.22235,-0.160963,-0.366543,0.226745,
2,1,0,1,0,7476.24,0.231838,0.231693,0.570117,21,0.0347421,10,0.000132092,-3.24404,-0.22787,-0.25892,0.230672,
2,1,0,0,0,7477,0.235639,0.235357,0.549313,21,0.0351746,10,0.000129285,-3.26018,-0.243049,-0.24275,0.234374,
2,1,0,1,0,7477.76,0.23944,0.239194,0.531485,21,0.035592,10,0.000127128,-3.27451,-0.311738,-0.189261,0.238243,
2,1,0,0,0,7478.52,0.243241,0.242992,0.515194,21,0.0359958,10,0.000125188,-3.28803,-0.361279,-0.163309,0.24207,
2,1,0,1,0,7479.28,0.247042,0.246838,0.501319,21,0.0363886,10,0.000123745,-3.29989,-0.453263,-0.130167,0.245941,
2,1,0,0,0,7480.04,0.250843,0.25057,0.490162,21,0.0367722,10,0.00012282,-3.30966,-0.372055,-0.158579,0.249693,
2,1,0,1,0,7480.8,0.254644,0.254387,0.47787,21,0.0371469,10,0.000121564,-3.32069,-0.618472,-0.0953965,0.253532,
2,1,0,0,0,7481.56,0.258445,0.258272,0.469433,21,0.0375142,10,0.000121241,-3.32843,-0.486891,-0.121177,0.257431,
2,1,0,1,0,7482.32,0.262246,0.261908,0.462475,21,0.0378756,10,0.000121126,-3.33491,-0.684152,-0.0862381,0.26108,
2,1,0,0,0,7483.08,0.266048,0.265764,0.455998,21,0.0382313,10,0.000121188,-3.34104,-0.50833,-0.116066,0.264947,
2,1,0,1,0,7483.84,0.269849,0.269524,0.448976,21,0.0385815,10,0.00012101,-3.34778,-0.802258,-0.0735424,0.26872,
2,1,0,0,0,7484.6,0.27365,0.273389,0.443881,21,0.0389273,10,0.000121352,-3.35273,-0.49845,-0.118367,0.272594,
2,1,0,1,0,7485.36,0.277451,0.277197,0.438754,21,0.0392691,10,0.000121621,-3.35778,-3.07498,-0.0191871,0.276411,
2,1,0,1,0,7486.12,0.281252,0.281024,0.434009,21,0.039607,10,0.000121967,-3.3625,-1.24768,-0.0472879,0.280247,
2,1,0,0,0,7486.88,0.285053,0.284851,0.429492,21,0.0399414,10,0.000122341,-3.36704,-2.7512,-0.0214452,0.284082,
2,1,0,1,0,7487.64,0.288854,0.28863,0.425339,21,0.0402728,10,0.000122766,-3.37127,-0.756015,-0.0780408,0.287869,
2,1,0,0,0,7488.4,0.292655,0.292409,0.420413,21,0.040601,10,0.000122933,-3.37632,-0.499522,-0.118113,0.291657,
2,1,0,1,0,7489.16,0.296456,0.296217,0.417817,21,0.0409262,10,0.000123765,-3.37901,-1.06502,-0.055398,0.295469,
2,1,0,0,0,7489.92,0.300257,0.300063,0.415084,21,0.0412492,10,0.000124552,-3.38186,-4.5847,-0.0128689,0.29932,
2,1,0,1,0,7490.68,0.304058,0.303824,0.411982,21,0.0415701,10,0.00012517,-3.38512,-0.566588,-0.104132,0.303086,
2,1,0,0,0,7491.44,0.307859,0.307632,0.408049,21,0.0418879,10,0.000125529,-3.38929,-0.563271,-0.104745,0.306901,
2,1,0,1,0,7492.2,0.311661,0.311411,0.407277,21,0.0422039,10,0.00012683,-3.39011,-0.965204,-0.061127,0.310682,
2,1,0,0,0,7492.96,0.315462,0.315333,0.403253,21,0.0425179,10,0.000127159,-3.39442,-1.21781,-0.0484476,0.314611,
2,1,0,1,0,7493.72,0.319263,0.319027,0.400086,21,0.0428295,10,0.000127638,-3.39785,-8.69456,-0.00678585,0.318311,
2,1,0,1,0,7494.48,0.323064,0.322777,0.398841,21,0.0431391,10,0.000128737,-3.3992,1.94992,0.0302577,0.322063,
2,1,0,0,0,7495.24,0.326865,0.326623,0.396224,21,0.0434474,10,0.000129416,-3.40206,-1.07055,-0.0551121,0.325914,
2,1,0,1,0,7496.01,0.330666,0.330431,0.393414,21,0.0437536,10,0.000129996,-3.40515,-1.01331,-0.0582251,0.329727,
2,1,0,0,0,7496.77,0.334467,0.334163,0.390714,21,0.0440577,10,0.000130562,-3.40814,10.8059,0.00545996,0.333464,
2,1,0,1,0,7497.53,0.338268,0.337942,0.389935,21,0.0443607,10,0.000131776,-3.40901,-0.843866,-0.0699163,0.337244,
2,1,0,0,0,7498.29,0.342069,0.341941,0.388553,21,0.0446621,10,0.000132862,-3.41055,23.4594,0.00251498,0.341245,
2,1,0,1,0,7499.05,0.34587,0.345596,0.384126,21,0.0449614,10,0.000132753,-3.41553,-1.39449,-0.0423093,0.344909,
2,1,0,0,0,7499.81,0.349671,0.349376,0.381394,21,0.045259,10,0.00013325,-3.41863,-6.11616,-0.00964658,0.348693,
2,1,0,1,0,7500.57,0.353472,0.353279,0.380933,21,0.0455551,10,0.000134576,-3.41915,-0.91476,-0.0644978,0.352597,
2,1,0,0,0,7501.33,0.357273,0.357087,0.378337,21,0.0458492,10,0.000135099,-3.42212,-103.766,-0.000568588,0.35641,
2,1,0,1,0,7502.09,0.361075,0.360837,0.375994,21,0.0461417,10,0.000135673,-3.42482,10.1273,0.00582582,0.360164,
2,1,0,0,0,7502.85,0.364876,0.364617,0.376001,21,0.046433,10,0.000137096,-3.42481,-0.890038,-0.0662893,0.363944,
2,1,0,1,0,7503.61,0.368677,0.368367,0.372243,21,0.0467228,10,0.000137122,-3.42917,-0.621601,-0.0949162,0.367701,
2,1,0,1,0,7504.37,0.372478,0.372194,0.370835,21,0.0470108,10,0.000138023,-3.43082,-11.1923,-0.00527149,0.371531,
2,1,0,0,0,7505.13,0.376279,0.37606,0.369115,21,0.0472974,10,0.000138809,-3.43284,-3.64351,-0.0161932,0.375399,
2,1,0,1,0,7505.89,0.38008,0.379829,0.368063,21,0.0475827,10,0.000139801,-3.43408,-1.05483,-0.0559332,0.379171,
2,1,0,0,0,7506.65,0.383881,0.383599,0.365876,21,0.0478663,10,0.00014035,-3.43667,-1.15526,-0.0510709,0.382944,
2,1,0,1,0,7507.41,0.387682,0.387407,0.364124,21,0.0481485,10,0.000141064,-3.43875,-5.43532,-0.0108549,0.386755,
2,1,0,0,0,7508.17,0.391483,0.391244,0.363475,21,0.0484298,10,0.000142207,-3.43953,-1.4995,-0.0393465,0.390593,
2,1,0,1,0,7508.93,0.395284,0.395042,0.36084,21,0.0487097,10,0.000142547,-3.44269,-1.36314,-0.0432823,0.394396,
2,1,0,0,0,7509.69,0.399085,0.398831,0.359581,21,0.0489882,10,0.000143412,-3.4442,-2.42567,-0.0243231,0.398187,
2,1,0,1,0,7510.45,0.402886,0.402677,0.358854,21,0.0492657,10,0.000144502,-3.44508,-247722,-2.3817e-07,0.402035,
2,1,0,0,0,7511.21,0.406688,0.406523,0.357582,21,0.0495421,10,0.000145365,-3.44662,-0.783942,-0.0752607,0.405883,
2,1,0,1,0,7511.97,0.410489,0.41015,0.356096,21,0.049817,10,0.000146052,-3.44843,2.67229,0.0220784,0.409512,
2,1,0,1,0,7512.73,0.41429,0.414101,0.356433,21,0.0500915,10,0.000147599,-3.44802,1.31357,0.0449157,0.413463,
2,1,0,0,0,7513.49,0.418091,0.417832,0.353649,21,0.0503653,10,0.000147766,-3.45143,-1.85097,-0.0318751,0.417199,
2,1,0,1,0,7514.25,0.421892,0.421688,0.352753,21,0.0506379,10,0.000148752,-3.45253,-4.23816,-0.0139211,0.421056,
2,1,0,0,0,7515.01,0.425693,0.425381,0.351429,21,0.0509095,10,0.000149491,-3.45416,-3.8313,-0.0153995,0.424752,
2,1,0,1,0,7515.77,0.429494,0.429275,0.350897,21,0.0511804,10,0.000150631,-3.45482,15.9627,0.00369611,0.428647,
2,1,0,0,0,7516.53,0.433295,0.433102,0.34945,21,0.0514506,10,0.000151347,-3.45662,-0.962554,-0.0612952,0.432476,
2,1,0,1,0,7517.29,0.437096,0.436853,0.348866,21,0.05172,10,0.000152403,-3.45734,-4.00584,-0.0147285,0.436228,
2,1,0,0,0,7518.05,0.440897,0.440708,0.349028,21,0.051989,10,0.000153819,-3.45714,-1.18956,-0.0495984,0.440084,
2,1,0,1,0,7518.81,0.444698,0.444383,0.347568,21,0.0522575,10,0.000154453,-3.45896,-3.74313,-0.0157622,0.44376,
2,1,0,0,0,7519.57,0.448499,0.448191,0.346153,21,0.0525252,10,0.000155142,-3.46073,6.93826,0.00850357,0.447571,
2,1,0,1,0,7520.33,0.452301,0.452103,0.346776,21,0.0527926,10,0.000156779,-3.45995,1.3297,0.044371,0.451483,
2,1,0,0,0,7521.09,0.456102,0.455787,0.34662,21,0.0530597,10,0.000157985,-3.46015,-5.0735,-0.0116291,0.455167,
2,1,0,1,0,7521.85,0.459903,0.459643,0.345707,21,0.0533262,10,0.000158902,-3.46129,-4.53241,-0.0130174,0.459024,
2,1,0,1,0,7522.61,0.463704,0.463489,0.3459,21,0.0535926,10,0.000160321,-3.46105,-1.09384,-0.0539383,0.46287,
2,1,0,0,0,7523.37,0.467505,0.467287,0.344699,21,0.0538587,10,0.000161074,-3.46256,6.83923,0.0086267,0.46667,
2,1,0,1,0,7524.13,0.471306,0.471009,0.34355,21,0.0541247,10,0.000161815,-3.46401,2.20406,0.0267688,0.470395,
2,1,0,0,0,7524.89,0.475107,0.474856,0.344926,21,0.0543903,10,0.00016379,-3.46227,2.69458,0.0218958,0.474238,
2,1,0,1,0,7525.65,0.478908,0.478616,0.345127,21,0.0546564,10,0.000165183,-3.46202,-4.145,-0.014234,0.477998,
2,1,0,0,0,7526.41,0.482709,0.482481,0.345238,21,0.0549223,10,0.000166571,-3.46188,-4.76235,-0.0123888,0.481863,
2,1,0,1,0,7527.17,0.48651,0.486165,0.34551,21,0.0551881,10,0.000167975,-3.46154,2.59511,0.0227351,0.485546,
2,1,0,0,0,7527.93,0.490311,0.490135,0.346263,21,0.0554542,10,0.000169716,-3.46059,-5.96961,-0.0098834,0.489515,
2,1,0,1,0,7528.69,0.494112,0.493943,0.346068,21,0.0557208,10,0.000170938,-3.46084,1.31691,0.0448017,0.493323,
2,1,0,0,0,7529.45,0.497914,0.497655,0.346062,21,0.0559874,10,0.00017222,-3.46085,2.28842,0.025782,0.497036,
2,1,0,1,0,7530.21,0.501715,0.50153,0.346127,21,0.0562542,10,0.000173593,-3.46076,3.92444,0.015034,0.500911,
2,1,0,1,0,7530.97,0.505516,0.505338,0.346632,21,0.056521,10,0.000175166,-3.46013,4.6929,0.0125722,0.504718,
2,1,0,0,0,7531.74,0.509317,0.509146,0.347081,21,0.0567883,10,0.000176715,-3.45957,-2.02224,-0.0291755,0.508525,
2,1,0,1,0,7532.5,0.513118,0.512868,0.347392,21,0.0570558,10,0.000178166,-3.45918,3.20089,0.0184324,0.512246,
2,1,0,0,0,7533.26,0.516919,0.516666,0.348853,21,0.0573242,10,0.00018024,-3.45736,2.17592,0.027115,0.516042,
2,1,0,1,0,7534.02,0.52072,0.520522,0.350332,21,0.0575932,10,0.000182356,-3.45552,2.43939,0.0241864,0.519895,
2,1,0,0,0,7534.78,0.524521,0.524292,0.349865,21,0.0578628,10,0.000183431,-3.4561,1.793,0.0329057,0.523665,
2,1,0,1,0,7535.54,0.528322,0.528147,0.352013,21,0.0581332,10,0.000185915,-3.45344,-11.1144,-0.00530844,0.527517,
2,1,0,0,0,7536.3,0.532123,0.531927,0.352234,21,0.0584044,10,0.000187363,-3.45317,-2.17535,-0.027122,0.531296,
2,1,0,1,0,7537.06,0.535924,0.535658,0.353272,21,0.0586763,10,0.000189233,-3.45189,1.58713,0.0371741,0.535026,
2,1,0,0,0,7537.82,0.539725,0.539418,0.354551,21,0.0589491,10,0.000191251,-3.45032,2.04723,0.0288194,0.538784,
2,1,0,1,0,7538.58,0.543527,0.543245,0.356414,21,0.0592229,10,0.00019362,-3.44805,1.41853,0.0415923,0.542607,
2,1,0,0,0,7539.34,0.547328,0.547072,0.357945,21,0.0594982,10,0.000195822,-3.44618,5.4546,0.0108166,0.546432,
2,1,0,1,0,7540.1,0.551129,0.550814,0.360636,21,0.0597748,10,0.000198643,-3.44293,2.28379,0.0258342,0.550168,
2,1,0,1,0,7540.86,0.55493,0.554698,0.36232,21,0.0600528,10,0.000200978,-3.44091,1.25516,0.0470058,0.554049,
2,1,0,0,0,7541.62,0.558731,0.558525,0.364234,21,0.0603324,10,0.000203434,-3.43862,0.84597,0.0697424,0.557873,
2,1,0,1,0,7542.38,0.562532,0.562256,0.366013,21,0.0606136,10,0.000205793,-3.4365,0.798613,0.073878,0.561601,
2,1,0,0,0,7543.14,0.566333,0.566045,0.36857,21,0.0608964,10,0.000208627,-3.43348,4.99189,0.0118192,0.565385,
2,1,0,1,0,7543.9,0.570134,0.569929,0.371815,21,0.0611815,10,0.000211908,-3.42967,2.18351,0.0270207,0.569264,
2,1,0,0,0,7544.66,0.573935,0.573671,0.374372,21,0.0614687,10,0.000214766,-3.4267,0.605307,0.0974713,0.573001,
2,1,0,1,0,7545.42,0.577736,0.577526,0.378169,21,0.0617583,10,0.000218402,-3.42231,1.11881,0.0527346,0.576849,
2,1,0,0,0,7546.18,0.581537,0.581353,0.381173,21,0.0620503,10,0.000221596,-3.41888,1.20877,0.0488098,0.580671,
2,1,0,1,0,7546.94,0.585338,0.585104,0.384899,21,0.0623451,10,0.000225206,-3.41465,0.961257,0.0613779,0.584415,
2,1,0,0,0,7547.7,0.58914,0.588893,0.389247,21,0.0626425,10,0.000229225,-3.40977,0.949461,0.0621405,0.588196,
2,1,0,1,0,7548.46,0.592941,0.592748,0.392739,21,0.0629432,10,0.000232795,-3.4059,0.478575,0.123283,0.592045,
2,1,0,0,0,7549.22,0.596742,0.596518,0.398489,21,0.0632479,10,0.000237706,-3.39958,0.472302,0.12492,0.595805,
2,1,0,0,0,7549.98,0.600543,0.600269,0.403941,21,0.0635564,10,0.000242473,-3.39368,0.54264,0.108728,0.599546,
2,1,0,1,0,7550.74,0.604344,0.604163,0.411521,21,0.0638693,10,0.000248626,-3.38561,0.484246,0.121839,0.603426,
2,1,0,0,0,7551.5,0.608145,0.607875,0.416194,21,0.0641869,10,0.000252994,-3.3807,0.550983,0.107081,0.60713,
2,1,0,1,0,7552.26,0.611946,0.611645,0.423087,21,0.0645096,10,0.000258779,-3.37357,0.603698,0.097731,0.610888,
2,1,0,0,0,7553.02,0.615747,0.615491,0.43203,21,0.0648378,10,0.000265911,-3.36449,0.536664,0.109938,0.614718,
2,1,0,1,0,7553.78,0.619548,0.619442,0.440422,21,0.0651727,10,0.000272816,-3.35613,0.5082,0.116096,0.618654,
2,1,0,0,0,7554.54,0.623349,0.623212,0.449975,21,0.0655146,10,0.00028043,-3.34681,0.50921,0.115866,0.622406,
2,1,0,1,0,7555.3,0.62715,0.626848,0.461086,21,0.065864,10,0.000289031,-3.33622,0.344075,0.171474,0.626023,
2,1,0,0,0,7556.06,0.630951,0.630809,0.473164,21,0.0662222,10,0.000298476,-3.32499,0.343432,0.171795,0.629962,
2,1,0,1,0,7556.82,0.634753,0.634531,0.487404,21,0.0665902,10,0.000309273,-3.31211,0.2366,0.249366,0.633658,
2,1,0,0,0,7557.58,0.638554,0.63831,0.502759,21,0.0669696,10,0.000320916,-3.29864,0.261946,0.225237,0.63741,
2,1,0,1,0,7558.34,0.642355,0.642223,0.521678,21,0.0673622,10,0.000335033,-3.2826,0.224923,0.262312,0.641289,
2,1,0,1,0,7559.1,0.646156,0.645916,0.540613,21,0.0677692,10,0.000349191,-3.26711,0.21312,0.276839,0.644948,
2,1,0,0,0,7559.86,0.649957,0.649753,0.562371,21,0.0681911,10,0.000365402,-3.24998,0.215607,0.273646,0.648746,
2,1,0,1,0,7560.62,0.653758,0.653713,0.585833,21,0.0686302,10,0.000382967,-3.23223,0.204368,0.288695,0.652665,
2,1,0,0,0,7561.38,0.657559,0.65734,0.614837,21,0.0690895,10,0.000404157,-3.21124,0.181378,0.325287,0.656239,
2,1,0,1,0,7562.14,0.66136,0.661138,0.647405,21,0.069572,10,0.000428024,-3.18882,0.159976,0.368806,0.659979,
2,1,0,0,0,7562.9,0.665161,0.664937,0.683976,21,0.0700806,10,0.000454801,-3.16496,0.161383,0.36559,0.663712,
2,1,0,1,0,7563.66,0.668962,0.668745,0.72282,21,0.0706177,10,0.000483382,-3.14097,0.150416,0.392245,0.667451,
2,1,0,0,0,7564.42,0.672763,0.672543,0.769542,21,0.0711876,10,0.00051755,-3.11377,0.142619,0.413689,0.671165,
2,1,0,1,0,7565.18,0.676564,0.67637,0.819776,21,0.0717945,10,0.000554472,-3.0863,0.128487,0.459192,0.674903,
2,1,0,0,0,7565.94,0.680365,0.68014,0.876967,21,0.0724419,10,0.00059646,-3.05702,0.121077,0.487294,0.67857,
2,1,0,1,0,7566.71,0.684167,0.684005,0.940408,21,0.0731357,10,0.000643243,-3.02668,0.126979,0.464645,0.682322,
2,1,0,0,0,7567.47,0.687968,0.687813,1.01104,21,0.0738802,10,0.000695406,-2.99523,0.112297,0.52539,0.686003,
2,1,0,0,0,7568.23,0.691769,0.691573,1.08723,21,0.074681,10,0.000751898,-2.96368,0.118829,0.496513,0.689627,
2,1,0,1,0,7568.99,0.69557,0.695362,1.17412,21,0.0755434,10,0.000816441,-2.93029,0.100206,0.588786,0.69326,
2,1,0,0,0,7569.75,0.699371,0.699208,1.2678,21,0.0764742,10,0.000886457,-2.89695,0.111109,0.53101,0.696939,
2,1,0,1,0,7570.51,0.703172,0.702901,1.3685,21,0.0774789,10,0.000961922,-2.86375,0.103175,0.571843,0.700452,
2,1,0,0,0,7571.27,0.706973,0.706709,1.47876,21,0.0785638,10,0.00104505,-2.8301,0.10407,0.566924,0.704062,
2,1,0,1,0,7572.03,0.710774,0.710555,1.59522,21,0.079735,10,0.00113349,-2.79718,0.109395,0.539332,0.7077,
2,1,0,0,0,7572.79,0.714575,0.714296,1.72127,21,0.0809986,10,0.0012295,-2.76415,0.102978,0.572936,0.711215,
2,1,0,1,0,7573.55,0.718376,0.718076,1.8551,21,0.0823611,10,0.0013321,-2.73163,0.107102,0.550876,0.714755,
2,1,0,0,0,7574.31,0.722177,0.721998,1.99771,21,0.0838289,10,0.00144235,-2.69947,0.114781,0.514024,0.718422,
2,1,0,1,0,7575.07,0.725978,0.725758,2.14649,21,0.0854069,10,0.00155784,-2.66827,0.113334,0.520587,0.721916,
2,1,0,0,0,7575.83,0.72978,0.729643,2.30213,21,0.0871009,10,0.00167973,-2.63787,0.117571,0.501824,0.725522,
2,1,0,1,0,7576.59,0.733581,0.733374,2.46549,21,0.0889165,10,0.00180813,-2.6081,0.114899,0.513497,0.728961,
2,1,0,1,0,7577.35,0.737382,0.737182,2.63585,21,0.0908593,10,0.0019431,-2.57908,0.126767,0.465422,0.732464,
2,1,0,0,0,7578.11,0.741183,0.741019,2.8102,21,0.0929333,10,0.00208241,-2.55126,0.129754,0.454707,0.735988,
2,1,0,1,0,7578.87,0.744984,0.744779,2.99338,21,0.0951436,10,0.0022294,-2.52384,0.129473,0.455693,0.739421,
2,1,0,0,0,7579.63,0.748785,0.748682,3.18112,21,0.0974944,10,0.00238165,-2.49742,0.130269,0.452911,0.742988,
2,1,0,1,0,7580.39,0.752586,0.752395,3.37592,21,0.0999912,10,0.00254002,-2.47161,0.133639,0.441488,0.746352,
2,1,0,0,0,7581.15,0.756387,0.756212,3.57575,21,0.102637,10,0.00270403,-2.44663,0.143156,0.412136,0.749812,
2,1,0,1,0,7581.91,0.760188,0.760049,3.78122,21,0.105438,10,0.00287391,-2.42237,0.141678,0.416437,0.75328,
2,1,0,0,0,7582.67,0.763989,0.763818,3.99353,21,0.108397,10,0.00305033,-2.39864,0.156158,0.377822,0.75667,
2,1,0,1,0,7583.43,0.76779,0.767502,4.2103,21,0.111519,10,0.00323141,-2.37569,0.147088,0.401119,0.759966,
2,1,0,0,0,7584.19,0.771592,0.771453,4.43206,21,0.114808,10,0.00341913,-2.35339,0.155314,0.379877,0.76352,
2,1,0,1,0,7584.95,0.775393,0.775156,4.65962,21,0.118268,10,0.00361193,-2.33165,0.151983,0.388201,0.766816,
2,1,0,0,0,7585.71,0.779194,0.779041,4.89377,21,0.121904,10,0.00381244,-2.31036,0.170228,0.346595,0.770281,
2,1,0,0,0,7586.47,0.782995,0.782667,5.13236,21,0.12572,10,0.00401693,-2.28968,0.167072,0.35314,0.77348,
2,1,0,1,0,7587.23,0.786796,0.786647,5.37842,21,0.12972,10,0.00423092,-2.26935,0.170129,0.346795,0.77702,
2,1,0,0,0,7587.99,0.790597,0.790407,5.6297,21,0.133909,10,0.00444976,-2.24951,0.17248,0.342068,0.78033,
2,1,0,1,0,7588.75,0.794398,0.794129,5.88728,21,0.13829,10,0.00467526,-2.23009,0.19044,0.30981,0.783591,
2,1,0,0,0,7589.51,0.798199,0.797899,6.15118,21,0.142869,10,0.00490802,-2.21104,0.167806,0.351596,0.786888,
2,1,0,1,0,7590.27,0.802,0.801783,6.42301,21,0.147652,10,0.00514986,-2.19226,0.182903,0.322575,0.790286,
2,1,0,0,0,7591.03,0.805801,0.805591,6.6967,21,0.152643,10,0.0053948,-2.17414,0.198277,0.297564,0.793604,
2,1,0,1,0,7591.79,0.809602,0.809408,6.97895,21,0.157846,10,0.00564882,-2.15621,0.170542,0.345955,0.796916,
2,1,0,0,0,7592.55,0.813403,0.813217,7.26911,21,0.163267,10,0.00591136,-2.13852,0.184204,0.320297,0.800205,
2,1,0,1,0,7593.31,0.817205,0.817091,7.56349,21,0.168909,10,0.00618006,-2.12128,0.18461,0.319593,0.803553,
2,1,0,0,0,7594.07,0.821006,0.820861,7.86568,21,0.174778,10,0.00645663,-2.10426,0.179068,0.329484,0.806781,
2,1,0,1,0,7594.83,0.824807,0.82464,8.17427,21,0.180881,10,0.00674083,-2.08755,0.19922,0.296156,0.810008,
2,1,0,1,0,7595.59,0.828608,0.828467,8.48914,21,0.18722,10,0.00703298,-2.07114,0.228837,0.257825,0.813272,
2,1,0,0,0,7596.35,0.832409,0.832161,8.80813,21,0.193798,10,0.00732978,-2.05512,0.205146,0.287601,0.816394,
2,1,0,1,0,7597.11,0.83621,0.836035,9.13394,21,0.200623,10,0.0076363,-2.03934,0.199631,0.295546,0.819686,
2,1,0,0,0,7597.87,0.840011,0.839872,9.46527,21,0.207697,10,0.00794962,-2.02387,0.206892,0.285173,0.822929,
2,1,0,1,0,7598.63,0.843812,0.843565,9.80427,21,0.215026,10,0.00827054,-2.00858,0.216562,0.272439,0.826016,
2,1,0,0,0,7599.39,0.847613,0.84744,10.1473,21,0.222614,10,0.0085992,-1.99365,0.213115,0.276846,0.829276,
2,1,0,0,0,7600.14,0.848613,0.848433,10.1558,21,0.230213,10,0.00861652,-1.99329,0.12339,0.478159,0.830254,
2,1,0,1,0,7600.9,0.844812,0.844634,9.63585,21,0.237727,10,0.00813876,-2.01611,0.123393,0.478149,0.827386,
2,1,0,0,0,7601.66,0.841011,0.840883,9.16447,21,0.244866,10,0.00770625,-2.03789,0.137063,0.43046,0.824479,
2,1,0,1,0,7602.42,0.83721,0.836952,8.72862,21,0.251659,10,0.00730543,-2.05905,0.138292,0.426634,0.821327,
2,1,0,0,0,7603.18,0.833409,0.83321,8.31034,21,0.258128,10,0.00692426,-2.08038,0.153758,0.383719,0.818335,
2,1,0,1,0,7603.94,0.829608,0.829403,7.9177,21,0.264291,10,0.00656696,-2.1014,0.137278,0.429784,0.81523,
2,1,0,0,0,7604.7,0.825807,0.825671,7.54259,21,0.270161,10,0.00622769,-2.12248,0.154427,0.382058,0.81217,
2,1,0,1,0,7605.46,0.822006,0.821825,7.18248,21,0.275752,10,0.00590274,-2.14373,0.137306,0.429697,0.808968,
2,1,0,0,0,7606.22,0.818205,0.818046,6.83794,21,0.281076,10,0.00559375,-2.16507,0.143884,0.410051,0.805806,
2,1,0,0,0,7606.98,0.814404,0.814238,6.50754,21,0.286144,10,0.00529868,-2.18658,0.146377,0.403068,0.802589,
2,1,0,1,0,7607.74,0.810603,0.810439,6.19103,21,0.290966,10,0.00501745,-2.20824,0.147006,0.401345,0.799357,
2,1,0,0,0,7608.5,0.806802,0.806593,5.88609,21,0.29555,10,0.00474768,-2.23017,0.158458,0.372339,0.796057,
2,1,0,1,0,7609.26,0.803,0.802747,5.59299,21,0.299907,10,0.00448976,-2.25236,0.13752,0.429029,0.792736,
2,1,0,0,0,7610.02,0.799199,0.798996,5.3114,21,0.304046,10,0.00424379,-2.27479,0.151195,0.390225,0.789489,
2,1,0,1,0,7610.78,0.795398,0.795208,5.03617,21,0.307973,10,0.0040048,-2.2979,0.14574,0.404832,0.786193,
2,1,0,0,0,7611.54,0.791597,0.791371,4.77406,21,0.311697,10,0.00377806,-2.32111,0.149026,0.395904,0.782825,
2,1,0,1,0,7612.3,0.787796,0.787563,4.52045,21,0.315225,10,0.00356014,-2.34482,0.139497,0.422949,0.779472,
2,1,0,0,0,7613.06,0.783995,0.783832,4.277,21,0.318564,10,0.00335245,-2.36886,0.154147,0.382752,0.776176,
2,1,0,1,0,7613.82,0.780194,0.779995,4.04206,21,0.321721,10,0.00315278,-2.3934,0.138971,0.424549,0.77276,
2,1,0,0,0,7614.58,0.776393,0.776197,3.817,21,0.324703,10,0.00296274,-2.41828,0.143426,0.411362,0.769364,
2,1,0,1,0,7615.34,0.772592,0.77237,3.60016,21,0.327518,10,0.00278066,-2.44368,0.14164,0.416549,0.765925,
2,1,0,1,0,7616.1,0.768791,0.7686,3.39071,21,0.33017,10,0.0026061,-2.46971,0.129542,0.45545,0.762531,
2,1,0,0,0,7616.86,0.76499,0.764868,3.18836,21,0.332666,10,0.00243867,-2.49643,0.130765,0.451192,0.759161,
2,1,0,1,0,7617.62,0.761189,0.761003,2.99474,21,0.335011,10,0.00227901,-2.52364,0.122636,0.4811,0.755643,
2,1,0,0,0,7618.38,0.757387,0.7571,2.80716,21,0.337212,10,0.0021253,-2.55173,0.120446,0.489847,0.752075,
2,1,0,1,0,7619.14,0.753586,0.753349,2.62793,21,0.339274,10,0.00197975,-2.58039,0.132202,0.446286,0.748645,
2,1,0,0,0,7619.9,0.749785,0.749618,2.45728,21,0.341202,10,0.00184202,-2.60955,0.114815,0.513868,0.745219,
2,1,0,1,0,7620.66,0.745984,0.745752,2.29177,21,0.343003,10,0.0017091,-2.63983,0.109164,0.540472,0.74165,
2,1,0,0,0,7621.42,0.742183,0.741983,2.13422,21,0.344681,10,0.00158355,-2.67076,0.113848,0.518234,0.738162,
2,1,0,1,0,7622.18,0.738382,0.738261,1.98245,21,0.346242,10,0.00146357,-2.7028,0.109071,0.540933,0.734712,
2,1,0,0,0,7622.94,0.734581,0.734405,1.83726,21,0.34769,10,0.00134929,-2.73583,0.113993,0.517574,0.731116,
2,1,0,1,0,7623.7,0.73078,0.73054,1.69802,21,0.349031,10,0.00124047,-2.77006,0.0966725,0.610308,0.7275,
2,1,0,0,0,7624.46,0.726979,0.726799,1.56786,21,0.350268,10,0.00113952,-2.80469,0.100942,0.584495,0.723992,
2,1,0,0,0,7625.22,0.723178,0.723048,1.44363,21,0.351409,10,0.00104381,-2.84054,0.0956529,0.616813,0.720464,
2,1,0,1,0,7625.98,0.719377,0.719202,1.32387,21,0.352457,10,0.00095213,-2.87815,0.0955917,0.617209,0.716832,
2,1,0,0,0,7626.74,0.715576,0.715394,1.21205,21,0.353418,10,0.000867094,-2.91648,0.100061,0.58964,0.713224,
2,1,0,1,0,7627.5,0.711774,0.711548,1.10732,21,0.354297,10,0.000787912,-2.95573,0.0895599,0.658777,0.709566,
2,1,0,0,0,7628.26,0.707973,0.707797,1.00778,21,0.355097,10,0.000713305,-2.99663,0.0887556,0.664747,0.705993,
2,1,0,1,0,7629.02,0.704172,0.70397,0.91472,21,0.355824,10,0.000643935,-3.03871,0.0755182,0.781268,0.702333,
2,1,0,0,0,7629.78,0.700371,0.700296,0.826915,21,0.356483,10,0.000579085,-3.08254,0.0848725,0.695161,0.698816,
2,1,0,1,0,7630.54,0.69657,0.696412,0.745594,21,0.357078,10,0.00051924,-3.1275,0.0753963,0.782531,0.695077,
2,1,0,0,0,7631.3,0.692769,0.692575,0.669237,21,0.357612,10,0.000463497,-3.17442,0.0819742,0.719739,0.691377,
2,1,0,1,0,7632.06,0.688968,0.688681,0.599423,21,0.35809,10,0.000412812,-3.22227,0.0731163,0.806934,0.687608,
2,1,0,0,0,7632.82,0.685167,0.685007,0.534898,21,0.358517,10,0.000366409,-3.27173,0.0770442,0.765794,0.68405,
2,1,0,1,0,7633.58,0.681366,0.681189,0.474411,21,0.358897,10,0.000323163,-3.32385,0.0664501,0.887884,0.68034,
2,1,0,1,0,7634.35,0.677565,0.677286,0.41924,21,0.359233,10,0.000283945,-3.37754,0.0664405,0.888013,0.676536,
2,1,0,0,0,7635.11,0.673764,0.673555,0.367187,21,0.359529,10,0.000247321,-3.43511,0.0600402,0.982675,0.672897,
2,1,0,1,0,7635.87,0.669963,0.669747,0.320737,21,0.359786,10,0.000214813,-3.49385,0.0602598,0.979094,0.669173,
2,1,0,0,0,7636.63,0.666161,0.666072,0.277864,21,0.36001,10,0.000185077,-3.55617,0.0560076,1.05343,0.665575,
2,1,0,1,0,7637.39,0.66236,0.662198,0.237605,21,0.360202,10,0.000157342,-3.62414,0.0546383,1.07983,0.661772,
2,1,0,0,0,7638.15,0.658559,0.658418,0.200657,21,0.360364,10,0.000132116,-3.69755,0.0536378,1.09997,0.658059,
2,1,0,1,0,7638.91,0.654758,0.654534,0.167694,21,0.3605,10,0.000109761,-3.77548,0.0483596,1.22003,0.654234,
2,1,0,0,0,7639.67,0.650957,0.650717,0.135853,21,0.360611,10,8.8402e-05,-3.86693,0.0398749,1.47963,0.650473,
2,1,0,1,0,7640.43,0.647156,0.647023,0.105863,21,0.360698,10,6.84955e-05,-3.97526,0.0358456,1.64595,0.646834,
2,1,0,0,0,7641.19,0.643355,0.643072,0.080233,21,0.360765,10,5.15956e-05,-4.09565,0.0256927,2.29637,0.642929,
2,1,0,1,0,7641.95,0.639554,0.639331,0.0540649,21,0.360812,10,3.45653e-05,-4.26708,0.0197107,2.9933,0.639234,
2,1,0,0,0,7642.71,0.635753,0.635619,0.0323359,21,0.360841,10,2.05533e-05,-4.49031,0.0119877,4.92172,0.635561,
2,1,0,0,0,7643.47,0.631952,0.631772,0.0106303,21,0.360853,10,6.71591e-06,-4.97346,0.00405868,14.5368,0.631753,
2,0,0,1,0,7644.23,0.628151,0.627917,-0.00806505,21,0.360849,10,-5.06418e-06,-5.09339,-0.00436442,-13.5184,0.627931,
2,0,0,0,0,7644.99,0.62435,0.624118,-0.0255949,21,0.360832,10,-1.59742e-05,-4.59185,-0.00989442,-5.96296,0.624164,
2,0,0,1,0,7645.75,0.620548,0.620416,-0.042904,21,0.360801,10,-2.66183e-05,-4.3675,-0.0282713,-2.08693,0.620492,
2,0,0,0,0,7646.51,0.616747,0.616598,-0.0577599,21,0.360759,10,-3.56146e-05,-4.23837,-0.031859,-1.85191,0.616701,
2,0,0,1,0,7647.27,0.612946,0.6128,-0.0724665,21,0.360705,10,-4.44075e-05,-4.13986,-0.0494609,-1.19286,0.612929,
2,0,0,0,0,7648.03,0.609145,0.608887,-0.0871602,21,0.36064,10,-5.30707e-05,-4.05968,-0.0474802,-1.24262,0.609043,
2,0,0,1,0,7648.79,0.605344,0.605193,-0.0994654,21,0.360565,10,-6.01958e-05,-4.00233,-0.0562156,-1.04953,0.605371,
2,0,0,0,0,7649.55,0.601543,0.601385,-0.111148,21,0.36048,10,-6.68426e-05,-3.9541,-0.0857627,-0.687945,0.601584,
2,0,0,1,0,7650.31,0.597742,0.597492,-0.122908,21,0.360387,10,-7.34363e-05,-3.91042,-0.10699,-0.551452,0.597712,
2,0,0,0,0,7651.07,0.593941,0.593779,-0.132208,21,0.360286,10,-7.85024e-05,-3.87874,-0.117025,-0.504164,0.594016,
2,0,0,1,0,7651.83,0.59014,0.589952,-0.141177,21,0.360177,10,-8.32879e-05,-3.85023,-0.158212,-0.372917,0.590205,
2,0,0,1,0,7652.59,0.586339,0.586144,-0.150179,21,0.360062,10,-8.80266e-05,-3.82339,-0.172094,-0.342835,0.586413,
2,0,0,0,0,7653.35,0.582538,0.582298,-0.157961,21,0.359941,10,-9.19803e-05,-3.80145,-0.159189,-0.370629,0.582581,
2,0,0,1,0,7654.11,0.578737,0.578528,-0.16436,21,0.359814,10,-9.5087e-05,-3.7842,-0.221581,-0.266269,0.578823,
2,0,0,0,0,7654.87,0.574936,0.574759,-0.171512,21,0.359682,10,-9.85781e-05,-3.7657,-0.289429,-0.20385,0.575066,
2,0,0,1,0,7655.63,0.571134,0.571037,-0.177594,21,0.359546,10,-0.000101412,-3.75057,-0.285305,-0.206796,0.571354,
2,0,0,0,0,7656.39,0.567333,0.567028,-0.181702,21,0.359405,10,-0.00010303,-3.74064,-0.25673,-0.229814,0.567353,
2,0,0,1,0,7657.15,0.563532,0.563325,-0.187179,21,0.35926,10,-0.000105443,-3.72774,-0.275767,-0.213949,0.56366,
2,0,0,0,0,7657.91,0.559731,0.559546,-0.19169,21,0.359112,10,-0.000107259,-3.7174,-0.472312,-0.124918,0.559889,
2,0,0,1,0,7658.67,0.55593,0.5557,-0.195448,21,0.35896,10,-0.00010861,-3.70897,-4.35462,-0.0135488,0.55605,
2,0,0,0,0,7659.43,0.552129,0.55193,-0.199212,21,0.358806,10,-0.000109951,-3.70068,-0.597055,-0.0988183,0.552287,
2,0,0,1,0,7660.19,0.548328,0.548199,-0.201756,21,0.358649,10,-0.000110602,-3.69517,-1.66531,-0.0354288,0.54856,
2,0,0,0,0,7660.95,0.544527,0.544324,-0.205235,21,0.35849,10,-0.000111714,-3.68775,-0.506801,-0.116417,0.544691,
2,0,0,1,0,7661.71,0.540726,0.540554,-0.208111,21,0.358328,10,-0.000112495,-3.68171,-0.457222,-0.12904,0.540927,
2,0,0,1,0,7662.47,0.536925,0.536727,-0.210479,21,0.358165,10,-0.00011297,-3.67679,-0.781726,-0.075474,0.537104,
2,0,0,0,0,7663.23,0.533124,0.532862,-0.213276,21,0.358,10,-0.000113647,-3.67106,-1.69451,-0.0348184,0.533244,
2,0,0,1,0,7663.99,0.529323,0.52913,-0.215983,21,0.357833,10,-0.000114283,-3.66558,-1.81621,-0.0324852,0.529517,
2,0,0,0,0,7664.75,0.525521,0.525294,-0.217715,21,0.357665,10,-0.000114365,-3.66211,-0.519676,-0.113532,0.525684,
2,0,0,1,0,7665.51,0.52172,0.521553,-0.219734,21,0.357496,10,-0.000114603,-3.6581,-1.09962,-0.0536547,0.521946,
2,0,0,0,0,7666.27,0.517919,0.517659,-0.220909,21,0.357325,10,-0.000114355,-3.65579,-0.581627,-0.10144,0.518054,
2,0,0,1,0,7667.03,0.514118,0.513908,-0.222791,21,0.357153,10,-0.000114494,-3.6521,-0.906122,-0.0651126,0.514307,
2,0,0,0,0,7667.79,0.510317,0.510043,-0.223836,21,0.35698,10,-0.000114166,-3.65007,-1.16453,-0.0506641,0.510444,
2,0,0,1,0,7668.55,0.506516,0.506292,-0.225069,21,0.356806,10,-0.000113951,-3.64768,-1.11222,-0.0530473,0.506695,
2,0,0,0,0,7669.31,0.502715,0.502494,-0.226198,21,0.356631,10,-0.000113663,-3.64551,-0.602599,-0.0979093,0.502899,
2,0,0,1,0,7670.08,0.498914,0.498753,-0.22784,21,0.356454,10,-0.000113636,-3.64237,-32.5271,-0.00181387,0.499161,
2,0,0,1,0,7670.84,0.495113,0.49484,-0.229463,21,0.356276,10,-0.000113548,-3.63929,-2.19327,-0.0269005,0.495251,
2,0,0,0,0,7671.6,0.491312,0.491127,-0.230378,21,0.356098,10,-0.000113145,-3.63756,-0.507656,-0.11622,0.49154,
2,0,0,1,0,7672.36,0.487511,0.487291,-0.231922,21,0.355918,10,-0.000113014,-3.63466,-2.32464,-0.0253803,0.487706,
2,0,0,0,0,7673.12,0.48371,0.483483,-0.232085,21,0.355737,10,-0.000112209,-3.63435,5.05576,0.0116699,0.483898,
2,0,0,1,0,7673.88,0.479908,0.479723,-0.234363,21,0.355555,10,-0.000112429,-3.63011,-1.33899,-0.0440632,0.480142,
2,0,0,0,0,7674.64,0.476107,0.475944,-0.235648,21,0.355372,10,-0.000112155,-3.62774,5.68954,0.0103699,0.476365,
2,0,0,1,0,7675.4,0.472306,0.472088,-0.237692,21,0.355187,10,-0.000112212,-3.62399,0.604189,0.0976515,0.472513,
2,0,0,0,0,7676.16,0.468505,0.468232,-0.239347,21,0.355001,10,-0.00011207,-3.62097,-0.587387,-0.100445,0.468661,
2,0,0,1,0,7676.92,0.464704,0.464472,-0.241385,21,0.354813,10,-0.000112117,-3.61729,-0.915672,-0.0644335,0.464904,
2,0,0,0,0,7677.68,0.460903,0.460674,-0.243066,21,0.354624,10,-0.000111974,-3.61428,-68.223,-0.000864811,0.461109,
2,0,0,1,0,7678.44,0.457102,0.456866,-0.244799,21,0.354434,10,-0.00011184,-3.61119,-1.41355,-0.0417388,0.457304,
2,0,0,0,0,7679.2,0.453301,0.453067,-0.247843,21,0.354242,10,-0.000112289,-3.60582,-1.04663,-0.0563712,0.453511,
2,0,0,1,0,7679.96,0.4495,0.449336,-0.249167,21,0.354049,10,-0.00011196,-3.60351,-0.863435,-0.0683318,0.449782,
2,0,0,1,0,7680.72,0.445699,0.445566,-0.251445,21,0.353854,10,-0.000112035,-3.59956,-2.73308,-0.0215874,0.446016,
2,0,0,0,0,7681.48,0.441898,0.441749,-0.254365,21,0.353658,10,-0.000112365,-3.59454,-0.928978,-0.0635107,0.442204,
2,0,0,1,0,7682.24,0.438096,0.437893,-0.257409,21,0.35346,10,-0.000112718,-3.58938,-1.27342,-0.046332,0.438354,
2,0,0,0,0,7683,0.434295,0.434085,-0.259531,21,0.35326,10,-0.000112659,-3.58581,-0.468217,-0.12601,0.43455,
2,0,0,1,0,7683.76,0.430494,0.430296,-0.262121,21,0.353058,10,-0.00011279,-3.5815,-0.641453,-0.0919786,0.430765,
2,0,0,0,0,7684.52,0.426693,0.426412,-0.264094,21,0.352855,10,-0.000112613,-3.57824,-0.496141,-0.118918,0.426885,
2,0,0,1,0,7685.28,0.422892,0.422623,-0.267371,21,0.352649,10,-0.000112997,-3.57289,-1.36545,-0.0432091,0.423102,
2,0,0,0,0,7686.04,0.419091,0.418844,-0.268663,21,0.352441,10,-0.000112528,-3.57079,-0.777363,-0.0758977,0.419325,
2,0,0,1,0,7686.8,0.41529,0.415208,-0.271934,21,0.352231,10,-0.000112909,-3.56554,-0.744353,-0.0792634,0.415694,
2,0,0,0,0,7687.56,0.411489,0.411247,-0.275315,21,0.352019,10,-0.000113223,-3.56017,-1.04035,-0.0567115,0.41174,
2,0,0,1,0,7688.32,0.407688,0.407563,-0.276756,21,0.351804,10,-0.000112796,-3.5579,-4.5523,-0.0129605,0.408059,
2,0,0,1,0,7689.08,0.403887,0.403669,-0.279553,21,0.351588,10,-0.000112847,-3.55354,-0.47605,-0.123937,0.40417,
2,0,0,0,0,7689.84,0.400086,0.399909,-0.281591,21,0.351369,10,-0.000112611,-3.55038,-0.523798,-0.112639,0.400413,
2,0,0,1,0,7690.6,0.396285,0.396006,-0.285356,21,0.351148,10,-0.000113002,-3.54461,-0.464946,-0.126896,0.396517,
2,0,0,0,0,7691.36,0.392484,0.392255,-0.287874,21,0.350925,10,-0.00011292,-3.5408,-0.916966,-0.0643426,0.39277,
2,0,0,1,0,7692.12,0.388682,0.388466,-0.291937,21,0.350699,10,-0.000113408,-3.53471,-0.668297,-0.088284,0.388989,
2,0,0,0,0,7692.88,0.384881,0.384706,-0.295714,21,0.35047,10,-0.000113763,-3.52913,-0.734262,-0.0803528,0.385235,
2,0,0,1,0,7693.64,0.38108,0.38087,-0.298725,21,0.350239,10,-0.000113775,-3.52473,-1.16609,-0.0505965,0.381404,
2,0,0,0,0,7694.4,0.377279,0.377071,-0.301691,21,0.350006,10,-0.000113759,-3.52044,-0.338757,-0.174166,0.377611,
2,0,0,1,0,7695.16,0.373478,0.373187,-0.306682,21,0.349769,10,-0.00011445,-3.51331,-0.639185,-0.0923051,0.373736,
2,0,0,0,0,7695.92,0.369677,0.369446,-0.309992,21,0.34953,10,-0.000114525,-3.50865,-2.5633,-0.0230172,0.370001,
2,0,0,1,0,7696.68,0.365876,0.365743,-0.3146,21,0.349289,10,-0.000115063,-3.50224,-1.44297,-0.0408879,0.366306,
2,0,0,0,0,7697.44,0.362075,0.361859,-0.317949,21,0.349044,10,-0.000115053,-3.49764,-0.59138,-0.0997667,0.362428,
2,0,0,1,0,7698.2,0.358274,0.357984,-0.322221,21,0.348796,10,-0.00011535,-3.49185,-0.568093,-0.103856,0.358561,
2,0,0,1,0,7698.96,0.354473,0.354281,-0.324926,21,0.348546,10,-0.000115115,-3.48822,-0.566847,-0.104085,0.354863,
2,0,0,0,0,7699.72,0.350672,0.350521,-0.329715,21,0.348292,10,-0.000115572,-3.48186,-0.507446,-0.116268,0.351111,
2,0,0,1,0,7700.48,0.346871,0.346579,-0.332766,21,0.348035,10,-0.00011533,-3.47786,-0.899365,-0.0656019,0.347175,
2,0,0,0,0,7701.24,0.343069,0.342743,-0.336822,21,0.347776,10,-0.000115443,-3.4726,-0.951362,-0.0620164,0.343346,
2,0,0,1,0,7702,0.339268,0.339068,-0.339671,21,0.347513,10,-0.000115172,-3.46894,-1.03547,-0.0569791,0.339676,
2,0,0,0,0,7702.76,0.335467,0.335184,-0.344143,21,0.347247,10,-0.000115351,-3.46326,-1.29317,-0.0456244,0.3358,
2,0,0,1,0,7703.52,0.331666,0.331405,-0.34731,21,0.346978,10,-0.0001151,-3.45928,-0.590668,-0.0998869,0.332026,
2,0,0,0,0,7704.28,0.327865,0.327654,-0.35062,21,0.346707,10,-0.000114882,-3.45516,-0.600178,-0.0983042,0.328282,
2,0,0,1,0,7705.05,0.324064,0.323751,-0.35613,21,0.346432,10,-0.000115297,-3.44839,-1.29135,-0.0456887,0.324388,
2,0,0,0,0,7705.81,0.320263,0.320038,-0.359155,21,0.346154,10,-0.000114943,-3.44472,-0.531666,-0.110972,0.320681,
2,0,0,1,0,7706.57,0.316462,0.316297,-0.362134,21,0.345873,10,-0.000114542,-3.44113,-0.519188,-0.113639,0.316945,
2,0,0,1,0,7707.33,0.312661,0.31247,-0.367834,21,0.345589,10,-0.000114937,-3.43435,-0.885934,-0.0665964,0.313129,
2,0,0,0,0,7708.09,0.30886,0.308653,-0.371888,21,0.345302,10,-0.000114784,-3.42959,-1.14893,-0.0513521,0.309318,
2,0,0,1,0,7708.85,0.305059,0.30473,-0.375017,21,0.345012,10,-0.000114279,-3.42595,-0.698705,-0.084442,0.305402,
2,0,0,0,0,7709.61,0.301258,0.301018,-0.37967,21,0.344719,10,-0.000114287,-3.42059,-0.862191,-0.0684303,0.301697,
2,0,0,1,0,7710.37,0.297456,0.297239,-0.38422,21,0.344423,10,-0.000114205,-3.41542,-0.768804,-0.0767426,0.297926,
2,0,0,0,0,7711.13,0.293655,0.293459,-0.389626,21,0.344123,10,-0.000114339,-3.40935,-0.620484,-0.095087,0.294157,
2,0,0,1,0,7711.89,0.289854,0.289632,-0.393766,21,0.343821,10,-0.000114047,-3.40476,-1.41711,-0.0416339,0.290337,
2,0,0,0,0,7712.65,0.286053,0.285834,-0.398245,21,0.343515,10,-0.000113832,-3.39985,-0.650198,-0.0907416,0.286547,
2,0,0,1,0,7713.41,0.282252,0.281997,-0.402872,21,0.343205,10,-0.000113609,-3.39483,-0.76794,-0.0768289,0.282718,
2,0,0,0,0,7714.17,0.278451,0.278208,-0.405591,21,0.342893,10,-0.000112839,-3.39191,-0.514387,-0.1147,0.278934,
2,0,0,1,0,7714.93,0.27465,0.274458,-0.411433,21,0.342578,10,-0.000112921,-3.3857,-0.618084,-0.0954563,0.275194,
2,0,0,0,0,7715.69,0.270849,0.270593,-0.416398,21,0.342259,10,-0.000112674,-3.38049,-1.54457,-0.0381984,0.271338,
2,0,0,1,0,7716.45,0.267048,0.266747,-0.419143,21,0.341937,10,-0.000111805,-3.37764,-3.00977,-0.0196029,0.267497,
2,0,0,1,0,7717.21,0.263247,0.263005,-0.424971,21,0.341612,10,-0.00011177,-3.37164,-0.621445,-0.0949401,0.263766,
2,0,0,0,0,7717.97,0.259446,0.259217,-0.428846,21,0.341282,10,-0.000111164,-3.3677,-1.10104,-0.0535858,0.259984,
2,0,0,1,0,7718.73,0.255645,0.255485,-0.43418,21,0.340949,10,-0.000110927,-3.36233,-0.87091,-0.0677453,0.256262,
2,0,0,0,0,7719.49,0.251843,0.251668,-0.438542,21,0.340612,10,-0.000110367,-3.35799,-0.99732,-0.0591585,0.252453,
2,0,0,1,0,7720.25,0.248042,0.247812,-0.444552,21,0.340271,10,-0.000110165,-3.35208,-0.608359,-0.0969821,0.248608,
2,0,0,0,0,7721.01,0.244241,0.244042,-0.449426,21,0.339926,10,-0.000109679,-3.34734,-0.518688,-0.113749,0.244847,
2,0,0,1,0,7721.77,0.24044,0.240253,-0.454657,21,0.339576,10,-0.000109233,-3.34232,-1.02516,-0.0575521,0.241067,
2,0,0,0,0,7722.53,0.236639,0.236398,-0.462497,21,0.339221,10,-0.000109333,-3.33489,-0.413104,-0.142821,0.237226,
2,0,0,1,0,7723.29,0.232838,0.232523,-0.470772,21,0.338861,10,-0.000109465,-3.32719,-0.713656,-0.0826729,0.233366,
2,0,0,0,0,7724.05,0.229037,0.228744,-0.478112,21,0.338495,10,-0.000109365,-3.32047,-0.897206,-0.0657597,0.229599,
2,0,0,1,0,7724.81,0.225236,0.225022,-0.482558,21,0.338123,10,-0.000108586,-3.31645,-0.535589,-0.110159,0.225885,
2,0,0,1,0,7725.57,0.221435,0.221176,-0.49299,21,0.337745,10,-0.000109037,-3.30716,-0.415484,-0.142003,0.222058,
2,0,0,0,0,7726.33,0.217634,0.217434,-0.502216,21,0.33736,10,-0.000109199,-3.29911,-0.419911,-0.140506,0.218333,
2,0,0,1,0,7727.09,0.213833,0.213626,-0.512886,21,0.336968,10,-0.000109566,-3.28998,-0.352474,-0.167388,0.214545,
2,0,0,0,0,7727.85,0.210032,0.209771,-0.523699,21,0.336567,10,-0.000109857,-3.28092,-0.346088,-0.170477,0.210708,
2,0,0,1,0,7728.61,0.20623,0.206077,-0.537445,21,0.336157,10,-0.000110755,-3.26967,-0.421923,-0.139836,0.207039,
2,0,0,0,0,7729.37,0.202429,0.202145,-0.551418,21,0.335736,10,-0.000111467,-3.25852,-0.296983,-0.198664,0.203133,
2,0,0,1,0,7730.13,0.198628,0.198395,-0.568526,21,0.335303,10,-0.000112793,-3.24525,-0.260442,-0.226538,0.199412,
2,0,0,0,0,7730.89,0.194827,0.194625,-0.588522,21,0.334855,10,-0.000114541,-3.23024,-0.207195,-0.284755,0.195679,
2,0,0,1,0,7731.65,0.191026,0.19076,-0.61151,21,0.334391,10,-0.000116652,-3.2136,-0.174105,-0.338876,0.191855,
2,0,0,0,0,7732.41,0.187225,0.187,-0.635861,21,0.33391,10,-0.000118906,-3.19664,-0.20211,-0.29192,0.188138,
2,0,0,1,0,7733.17,0.183424,0.18322,-0.667714,21,0.333407,10,-0.000122339,-3.17541,-0.160961,-0.366548,0.184416,
2,0,0,0,0,7733.93,0.179623,0.179393,-0.700866,21,0.33288,10,-0.000125731,-3.15436,-0.174654,-0.33781,0.180648,
2,0,0,1,0,7734.69,0.175822,0.175585,-0.740936,21,0.332325,10,-0.000130098,-3.13022,-0.137026,-0.430575,0.176912,
2,0,0,1,0,7735.45,0.172021,0.171854,-0.78758,21,0.331737,10,-0.000135349,-3.10371,-0.137101,-0.43034,0.173264,
2,0,0,0,0,7736.21,0.16822,0.167931,-0.843603,21,0.33111,10,-0.000141668,-3.07386,-0.117661,-0.501442,0.169441,
2,0,0,1,0,7736.97,0.164419,0.1642,-0.905869,21,0.330438,10,-0.000148744,-3.04293,-0.126855,-0.465099,0.165821,
2,0,0,0,0,7737.73,0.160617,0.16044,-0.976982,21,0.329717,10,-0.000156747,-3.01011,-0.107811,-0.547254,0.162188,
2,0,0,1,0,7738.49,0.156816,0.156603,-1.05466,21,0.328938,10,-0.000165163,-2.97689,-0.111731,-0.528054,0.158491,
2,0,0,0,0,7739.25,0.153015,0.152843,-1.13996,21,0.328097,10,-0.000174234,-2.94311,-0.10823,-0.545133,0.154883,
2,0,0,1,0,7740.02,0.149214,0.148987,-1.22572,21,0.327192,10,-0.000182617,-2.91161,-0.117958,-0.500177,0.151181,
2,0,0,0,0,7740.78,0.145413,0.14516,-1.31015,21,0.326221,10,-0.000190181,-2.88268,-0.124797,-0.472769,0.147505,
2,0,0,1,0,7741.54,0.141612,0.141343,-1.39164,21,0.325187,10,-0.000196698,-2.85647,-0.145286,-0.406095,0.143834,
2,0,0,0,0,7742.3,0.137811,0.137592,-1.46257,21,0.324094,10,-0.000201238,-2.83488,-0.173015,-0.341011,0.14021,
2,0,0,1,0,7743.06,0.13401,0.133832,-1.52354,21,0.322952,10,-0.000203898,-2.81715,-0.2434,-0.242399,0.136559,
2,0,0,1,0,7743.82,0.130209,0.129967,-1.57227,21,0.321767,10,-0.000204343,-2.80347,-0.352767,-0.167249,0.132781,
2,0,0,0,0,7744.58,0.126408,0.126197,-1.60188,21,0.320553,10,-0.000202152,-2.79537,-1.15742,-0.0509755,0.129064,
2,0,0,1,0,7745.34,0.122607,0.122351,-1.61412,21,0.319325,10,-0.000197489,-2.79207,-5.25297,-0.0112317,0.12524,
2,0,0,0,0,7746.1,0.118806,0.118543,-1.61097,21,0.318093,10,-0.000190969,-2.79291,1.6198,0.0364243,0.121427,
2,0,0,1,0,7746.86,0.115004,0.114821,-1.59317,21,0.316868,10,-0.000182929,-2.79774,0.783874,0.0752672,0.117673,
2,0,0,0,0,7747.62,0.111203,0.11087,-1.56727,21,0.315661,10,-0.000173763,-2.80486,0.402339,0.146643,0.113675,
2,0,0,1,0,7748.38,0.107402,0.107224,-1.53156,21,0.314478,10,-0.000164221,-2.81487,0.382792,0.154131,0.109966,
2,0,0,0,0,7749.14,0.103601,0.103369,-1.49036,21,0.313323,10,-0.000154056,-2.82671,0.276788,0.213159,0.106036,
2,0,0,1,0,7749.9,0.0998002,0.0996275,-1.44249,21,0.312202,10,-0.000143711,-2.84089,0.240251,0.245577,0.10221,
2,0,0,0,0,7750.66,0.0959991,0.09581,-1.39043,21,0.31112,10,-0.000133217,-2.85685,0.241503,0.244303,0.0982989,
2,0,0,1,0,7751.42,0.092198,0.0919639,-1.3353,21,0.310078,10,-0.0001228,-2.87442,0.228507,0.258198,0.0943541,
2,0,0,0,0,7752.18,0.0883969,0.0881369,-1.27737,21,0.30908,10,-0.000112583,-2.89368,0.218693,0.269784,0.0904234,
2,0,0,1,0,7752.94,0.0845958,0.084434,-1.21867,21,0.308126,10,-0.000102897,-2.91411,0.199673,0.295484,0.0866154,
2,0,0,1,0,7753.7,0.0807947,0.0805497,-1.16416,21,0.307216,10,-9.37725e-05,-2.93399,0.198359,0.29744,0.0826335,
2,0,0,0,0,7754.46,0.0769937,0.07678,-1.11294,21,0.306345,10,-8.54512e-05,-2.95353,0.19038,0.309907,0.0787721,
2,0,0,1,0,7755.22,0.0731926,0.0730293,-1.0638,21,0.305513,10,-7.76886e-05,-2.97314,0.221585,0.266264,0.0749335,
2,0,0,0,0,7755.98,0.0693915,0.069145,-1.02436,21,0.304714,10,-7.08294e-05,-2.98955,0.25103,0.235031,0.0709786,
2,0,0,1,0,7756.74,0.0655904,0.0653562,-0.98858,21,0.303944,10,-6.46098e-05,-3.00499,0.281228,0.209794,0.0671258,
2,0,0,0,0,7757.5,0.0617893,0.0615292,-0.957161,21,0.303199,10,-5.88933e-05,-3.01902,0.272188,0.216762,0.0632425,
2,0,0,1,0,7758.26,0.0579882,0.0577022,-0.932401,21,0.302476,10,-5.38016e-05,-3.0304,0.290194,0.203312,0.0593712,
2,0,0,0,0,7759.02,0.0541872,0.0539324,-0.911795,21,0.30177,10,-4.91753e-05,-3.0401,0.473317,0.124652,0.0555645,
2,0,0,1,0,7759.78,0.0503861,0.0501436,-0.894966,21,0.301078,10,-4.48768e-05,-3.04819,0.496638,0.118799,0.0517456,
2,0,0,0,0,7760.54,0.046585,0.0463452,-0.880753,21,0.300398,10,-4.08187e-05,-3.05515,0.599173,0.0984691,0.0479218,
2,0,0,1,0,7761.3,0.0427839,0.0425564,-0.869259,21,0.299728,10,-3.69925e-05,-3.06085,0.701133,0.0841495,0.0441124,
2,0,0,1,0,7762.06,0.0389828,0.0387294,-0.860343,21,0.299066,10,-3.33205e-05,-3.06533,0.69981,0.0843086,0.0402694,
2,0,0,0,0,7762.82,0.0351817,0.0349978,-0.851054,21,0.29841,10,-2.9785e-05,-3.07004,1.31664,0.0448109,0.0365212,
2,0,0,1,0,7763.58,0.0313807,0.0311708,-0.845661,21,0.29776,10,-2.63599e-05,-3.0728,2.13756,0.0276016,0.0326845,
2,0,0,0,0,7764.34,0.0275796,0.0273343,-0.841474,21,0.297113,10,-2.30011e-05,-3.07496,1.32273,0.0446046,0.0288405,
2,0,0,1,0,7765.1,0.0237785,0.0235741,-0.837704,21,0.296468,10,-1.97481e-05,-3.07691,1.1763,0.0501574,0.0250735,
2,0,0,0,0,7765.86,0.0199774,0.0196612,-0.835335,21,0.295827,10,-1.64236e-05,-3.07814,5.79856,0.0101749,0.0211564,
2,0,0,1,0,7766.62,0.0161763,0.016025,-0.835335,21,0.295186,10,-1.33863e-05,-3.07814,12.8865,0.00457844,0.0175203,
2,0,0,0,0,7767.38,0.0123753,0.0121694,-0.834459,21,0.294546,10,-1.01548e-05,-3.0786,-2.03333,-0.0290164,0.0136631,
2,0,0,1,0,7768.14,0.00857417,0.00834237,-0.836055,21,0.293905,10,-6.97468e-06,-3.07777,-9.9905,-0.00590561,0.00983891,
2,0,0,0,0,7768.9,0.00477309,0.00457263,-0.838716,21,0.293263,10,-3.83513e-06,-3.07638,-0.224315,-0.263023,0.00607393,
2,0,0,1,0,7769.66,0.000972007,0.000612007,-0.845855,21,0.292614,10,-5.17669e-07,-3.0727,4.83734,0.0121968,0.00212609,
2,0,0,0,0,7769.82,0.00017178,-0.000170573,-0.846005,21,0.292477,10,1.44306e-07,-3.07263, , ,0.00134377,