File: Figure_codes/Fig_2_S1_S6/20220924_003_MultiCV_0_850mV_1-84_C_02_CV_C01_30.csv
mode,ox/red,error,control changes,counter inc.,time/s,control/V,Ewe/V,<I>/mA,cycle number,(Q-Qo)/C,I Range,P/W,log(|I|),Tafel slope mV/dec,alpha_eff,E-IR/V,
2,0,0,0,0,11129.8,2.17368e-05,-0.000294641,-0.189075,31,0.0000000E+000,10,5.57091e-08,-3.72337, , ,4.38026e-05,
2,1,0,1,0,11130.6,0.00377281,0.0034083,0.0362662,31,-2.69198e-05,10,1.23606e-07,-4.4405,0.00184311,32.0111,0.00334338,
2,1,0,1,0,11131.3,0.00757389,0.00730211,0.137885,31,5.08814e-05,10,1.00685e-06,-3.86048,0.014098,4.18499,0.0070553,
2,1,0,0,0,11132.1,0.011375,0.0111387,0.199768,31,0.000186514,10,2.22515e-06,-3.69947,0.0328415,1.79651,0.0107811,
2,1,0,1,0,11132.8,0.0151761,0.0148607,0.243511,31,0.000361451,10,3.61875e-06,-3.61348,0.0582501,1.01287,0.0144248,
2,1,0,0,0,11133.6,0.0189771,0.0187163,0.276708,31,0.00056535,10,5.17897e-06,-3.55798,0.0741393,0.795799,0.018221,
2,1,0,1,0,11134.4,0.0227782,0.0225433,0.300625,31,0.000790476,10,6.77708e-06,-3.52198,0.162893,0.362201,0.0220052,
2,1,0,0,0,11135.1,0.0265793,0.0263226,0.31979,31,0.00103102,10,8.41771e-06,-3.49514,0.167419,0.352409,0.0257502,
2,1,0,1,0,11135.9,0.0303804,0.0300924,0.334217,31,0.0012842,10,1.00574e-05,-3.47597,0.175671,0.335855,0.0294941,
2,1,0,0,0,11136.6,0.0341815,0.0339766,0.346153,31,0.00154739,10,1.17611e-05,-3.46073,0.281489,0.2096,0.033357,
2,1,0,1,0,11137.4,0.0379825,0.0376414,0.353441,31,0.00181777,10,1.3304e-05,-3.45168,0.297506,0.198316,0.0370088,
2,1,0,0,0,11138.2,0.0417836,0.0415639,0.362475,31,0.00209473,10,1.50659e-05,-3.44072,0.527031,0.111948,0.040915,
2,1,0,1,0,11138.9,0.0455847,0.0453909,0.36844,31,0.00237765,10,1.67238e-05,-3.43363,0.445978,0.132294,0.0447314,
2,1,0,1,0,11139.7,0.0493858,0.0491415,0.374103,31,0.00266575,10,1.8384e-05,-3.42701,0.843249,0.0699675,0.0484719,
2,1,0,0,0,11140.4,0.0531869,0.0530067,0.380524,31,0.00295827,10,2.01703e-05,-3.41962,0.619636,0.0952172,0.0523256,
2,1,0,1,0,11141.2,0.056988,0.0567669,0.385807,31,0.00325515,10,2.19011e-05,-3.41363,0.932757,0.0632533,0.0560763,
2,1,0,0,0,11142,0.060789,0.0605271,0.391162,31,0.00355609,10,2.36759e-05,-3.40764,0.576794,0.102289,0.0598269,
2,1,0,1,0,11142.7,0.0645901,0.0643827,0.395932,31,0.0038604,10,2.54912e-05,-3.40238,0.722074,0.0817091,0.063674,
2,1,0,0,0,11143.5,0.0683912,0.068162,0.402325,31,0.00416906,10,2.74233e-05,-3.39542,0.837399,0.0704562,0.0674419,
2,1,0,1,0,11144.2,0.0721923,0.0719318,0.406848,31,0.00448199,10,2.92653e-05,-3.39057,0.829051,0.0711657,0.0712035,
2,1,0,0,0,11145,0.0759934,0.0757302,0.412287,31,0.0047991,10,3.12226e-05,-3.3848,0.449674,0.131206,0.0749922,
2,1,0,1,0,11145.8,0.0797945,0.0796144,0.420679,31,0.00512143,10,3.34921e-05,-3.37605,0.419414,0.140673,0.0788614,
2,1,0,0,0,11146.5,0.0835955,0.0833937,0.428973,31,0.00545017,10,3.57737e-05,-3.36757,0.476606,0.123792,0.0826259,
2,1,0,1,0,11147.3,0.0873966,0.0871253,0.438189,31,0.00578575,10,3.81774e-05,-3.35834,0.538518,0.10956,0.0863409,
2,1,0,0,0,11148,0.0911977,0.0909809,0.45017,31,0.00612878,10,4.09569e-05,-3.34662,0.329253,0.179194,0.0901751,
2,1,0,1,0,11148.8,0.0949988,0.0947793,0.46336,31,0.00648169,10,4.39169e-05,-3.33408,0.354689,0.166343,0.0939499,
2,1,0,1,0,11149.6,0.0987999,0.0986063,0.47983,31,0.00684603,10,4.73142e-05,-3.31891,0.253484,0.232757,0.0977474,
2,1,0,0,0,11150.3,0.102601,0.102328,0.498645,31,0.00722365,10,5.10255e-05,-3.30221,0.195557,0.301703,0.101436,
2,1,0,1,0,11151.1,0.106402,0.106174,0.522087,31,0.00761772,10,5.54323e-05,-3.28226,0.150176,0.392873,0.10524,
2,1,0,0,0,11151.8,0.110203,0.110011,0.549495,31,0.00803177,10,6.04504e-05,-3.26004,0.165704,0.356056,0.109027,
2,1,0,1,0,11152.6,0.114004,0.113819,0.580634,31,0.00846738,10,6.60872e-05,-3.2361,0.12578,0.469074,0.11278,
2,1,0,0,0,11153.4,0.117805,0.117598,0.61879,31,0.00892968,10,7.27685e-05,-3.20846,0.123335,0.478372,0.116491,
2,1,0,1,0,11154.1,0.121606,0.121416,0.667212,31,0.009425,10,8.101e-05,-3.17574,0.119001,0.495796,0.120221,
2,1,0,0,0,11154.9,0.125407,0.125224,0.720561,31,0.0099587,10,9.02313e-05,-3.14233,0.118305,0.498709,0.123934,
2,1,0,1,0,11155.6,0.129209,0.129003,0.784573,31,0.0105365,10,0.000101212,-3.10537,0.100992,0.584204,0.127598,
2,1,0,0,0,11156.4,0.13301,0.132763,0.857814,31,0.0111671,10,0.000113886,-3.06661,0.0933131,0.63228,0.131228,
2,1,0,1,0,11157.2,0.136811,0.136571,0.938986,31,0.0118575,10,0.000128238,-3.02734,0.104318,0.565581,0.13489,
2,1,0,1,0,11157.9,0.140612,0.140484,1.02667,31,0.0126117,10,0.000144231,-2.98857,0.0887777,0.664581,0.138646,
2,1,0,0,0,11158.7,0.144413,0.144187,1.11389,31,0.0134329,10,0.000160608,-2.95316,0.104523,0.564467,0.142193,
2,1,0,1,0,11159.4,0.148214,0.148042,1.20067,31,0.0143215,10,0.000177751,-2.92057,0.121335,0.486258,0.145893,
2,1,0,0,0,11160.2,0.152015,0.151745,1.28037,31,0.0152733,10,0.000194291,-2.89266,0.149052,0.395835,0.149454,
2,1,0,1,0,11161,0.155816,0.155582,1.35018,31,0.0162815,10,0.000210064,-2.86961,0.177632,0.332147,0.153165,
2,1,0,0,0,11161.7,0.159617,0.159419,1.41125,31,0.0173396,10,0.000224979,-2.8504,0.218038,0.270595,0.156892,
2,1,0,1,0,11162.5,0.163418,0.16316,1.45343,31,0.0184363,10,0.00023714,-2.83761,0.340535,0.173257,0.160558,
2,1,0,0,0,11163.2,0.167219,0.167006,1.48262,31,0.01956,10,0.000247606,-2.82897,0.587188,0.100479,0.164352,
2,1,0,1,0,11164,0.17102,0.170804,1.49714,31,0.0207003,10,0.000255717,-2.82474,1.30737,0.0451289,0.168124,
2,1,0,0,0,11164.8,0.174822,0.174421,1.49566,31,0.0218458,10,0.000260874,-2.82517,-1.42846,-0.0413033,0.171744,
2,1,0,1,0,11165.5,0.178623,0.178401,1.47851,31,0.0229837,10,0.000263767,-2.83018,-0.497032,-0.118705,0.175754,
2,1,0,0,0,11166.3,0.182424,0.182123,1.4479,31,0.0241028,10,0.000263696,-2.83926,-0.348332,-0.169379,0.179531,
2,1,0,1,0,11167,0.186225,0.186084,1.40051,31,0.0251924,10,0.000260611,-2.85372,-0.21254,-0.277595,0.183577,
2,1,0,1,0,11167.8,0.190026,0.189825,1.33445,31,0.0262391,10,0.000253311,-2.8747,-0.163428,-0.361014,0.187436,
2,1,0,0,0,11168.6,0.193827,0.193671,1.25548,31,0.0272297,10,0.00024315,-2.90119,-0.133582,-0.441675,0.191423,
2,1,0,1,0,11169.3,0.197628,0.197364,1.16422,31,0.0281546,10,0.000229775,-2.93397,-0.11972,-0.492815,0.19528,
2,1,0,0,0,11170.1,0.201429,0.201191,1.06761,31,0.0290074,10,0.000214794,-2.97159,-0.102397,-0.57619,0.19928,
2,1,0,1,0,11170.8,0.20523,0.204999,0.971242,31,0.0297864,10,0.000199104,-3.01267,-0.0952237,-0.619593,0.20326,
2,1,0,0,0,11171.6,0.209031,0.208673,0.885579,31,0.0304961,10,0.000184797,-3.05277,-0.0989432,-0.596302,0.207088,
2,1,0,1,0,11172.4,0.212832,0.212586,0.809547,31,0.0311441,10,0.000172099,-3.09176,-0.100369,-0.587828,0.211137,
2,1,0,0,0,11173.1,0.216633,0.216318,0.744127,31,0.0317389,10,0.000160968,-3.12835,-0.104976,-0.562032,0.214986,
2,1,0,1,0,11173.9,0.220435,0.220307,0.693089,31,0.0322889,10,0.000152692,-3.15921,-0.126991,-0.4646,0.219066,
2,1,0,0,0,11174.6,0.224236,0.224,0.649449,31,0.0328033,10,0.000145477,-3.18745,-0.154819,-0.381089,0.222838,
2,1,0,1,0,11175.4,0.228037,0.227713,0.613533,31,0.033288,10,0.000139709,-3.21216,-0.144124,-0.409369,0.226615,
2,1,0,1,0,11176.2,0.231838,0.231616,0.585202,31,0.0337477,10,0.000135542,-3.23269,-0.199063,-0.296389,0.230569,
2,1,0,0,0,11176.9,0.235639,0.235415,0.561949,31,0.0341882,10,0.000132291,-3.2503,-0.209167,-0.282071,0.234409,
2,1,0,1,0,11177.7,0.23944,0.239261,0.542836,31,0.0346123,10,0.000129879,-3.26533,-0.235363,-0.250676,0.238289,
2,1,0,0,0,11178.4,0.243241,0.243097,0.525728,31,0.0350228,10,0.000127803,-3.27924,-0.295551,-0.199627,0.242156,
2,1,0,1,0,11179.2,0.247042,0.2468,0.510664,31,0.0354217,10,0.000126032,-3.29186,-0.296821,-0.198773,0.245886,
2,1,0,0,0,11180,0.250843,0.250599,0.498671,31,0.0358107,10,0.000124966,-3.30219,-0.422467,-0.139656,0.249706,
2,1,0,1,0,11180.7,0.254644,0.25434,0.485781,31,0.0361905,10,0.000123553,-3.31356,-0.551705,-0.106941,0.25347,
2,1,0,0,0,11181.5,0.258445,0.258262,0.476195,31,0.0365623,10,0.000122983,-3.32221,-0.425185,-0.138763,0.25741,
2,1,0,1,0,11182.2,0.262246,0.262032,0.468874,31,0.0369277,10,0.00012286,-3.32894,-0.571567,-0.103225,0.261193,
2,1,0,0,0,11183,0.266048,0.265764,0.460463,31,0.0372871,10,0.000122374,-3.33681,-0.537939,-0.109678,0.264939,
2,1,0,1,0,11183.8,0.269849,0.269629,0.455083,31,0.0376405,10,0.000122703,-3.34191,-0.511331,-0.115385,0.268814,
2,1,0,0,0,11184.5,0.27365,0.273513,0.449106,31,0.0379897,10,0.000122836,-3.34765,-0.517412,-0.114029,0.272709,
2,1,0,1,0,11185.3,0.277451,0.277206,0.443926,31,0.0383346,10,0.000123059,-3.35269,-0.779008,-0.0757374,0.276412,
2,1,0,1,0,11186.1,0.281252,0.280919,0.437917,31,0.0386753,10,0.000123019,-3.35861,-0.902651,-0.065363,0.280135,
2,1,0,0,0,11186.8,0.285053,0.28486,0.434425,31,0.0390124,10,0.00012375,-3.36209,-1.33523,-0.0441872,0.284083,
2,1,0,1,0,11187.6,0.288854,0.28863,0.429804,31,0.0393465,10,0.000124054,-3.36673,-0.636951,-0.0926288,0.287861,
2,1,0,0,0,11188.3,0.292655,0.292457,0.425326,31,0.0396772,10,0.00012439,-3.37128,-0.609794,-0.096754,0.291696,
2,1,0,1,0,11189.1,0.296456,0.296198,0.422165,31,0.0400048,10,0.000125045,-3.37452,-1.1442,-0.0515644,0.295443,
2,1,0,0,0,11189.9,0.300257,0.299987,0.419452,31,0.0403299,10,0.00012583,-3.37732,-1.48274,-0.0397912,0.299236,
2,1,0,1,0,11190.6,0.304058,0.303814,0.416655,31,0.0406524,10,0.000126586,-3.38022,-1.49695,-0.0394134,0.303068,
2,1,0,0,0,11191.4,0.307859,0.307651,0.412858,31,0.040972,10,0.000127016,-3.3842,-6.02178,-0.00979777,0.306912,
2,1,0,1,0,11192.1,0.311661,0.311363,0.411709,31,0.0412896,10,0.000128191,-3.38541,-2.15605,-0.0273648,0.310626,
2,1,0,0,0,11192.9,0.315462,0.315286,0.407926,31,0.0416053,10,0.000128613,-3.38942,-0.87588,-0.0673608,0.314555,
2,1,0,1,0,11193.7,0.319263,0.319103,0.404934,31,0.0419185,10,0.000129216,-3.39262,-1.96419,-0.0300379,0.318378,
2,1,0,1,0,11194.4,0.323064,0.322892,0.402205,31,0.0422295,10,0.000129869,-3.39555,-0.907224,-0.0650336,0.322172,
2,1,0,0,0,11195.2,0.326865,0.326633,0.399346,31,0.0425386,10,0.000130439,-3.39865,10.4027,0.00567163,0.325918,
2,1,0,1,0,11195.9,0.330666,0.330422,0.396756,31,0.042846,10,0.000131097,-3.40148,-4.27013,-0.0138169,0.329712,
2,1,0,0,0,11196.7,0.334467,0.334277,0.394588,31,0.0431509,10,0.000131902,-3.40386,-2.75935,-0.0213818,0.333571,
2,1,0,1,0,11197.5,0.338268,0.338085,0.392667,31,0.0434545,10,0.000132755,-3.40598,-0.71719,-0.0822655,0.337383,
2,1,0,0,0,11198.2,0.342069,0.341846,0.390513,31,0.0437564,10,0.000133495,-3.40836,-1.18513,-0.0497838,0.341147,
2,1,0,1,0,11199,0.34587,0.345558,0.387728,31,0.0440561,10,0.000133983,-3.41147,-0.991091,-0.0595303,0.344864,
2,1,0,0,0,11199.7,0.349671,0.349395,0.385671,31,0.0443546,10,0.000134751,-3.41378,-2.29852,-0.0256687,0.348704,
2,1,0,1,0,11200.5,0.353472,0.35325,0.382854,31,0.0446515,10,0.000135243,-3.41697,-1.11893,-0.0527288,0.352565,
2,1,0,0,0,11201.3,0.357273,0.357039,0.380005,31,0.0449464,10,0.000135677,-3.42021,2.97599,0.0198254,0.356359,
2,1,0,1,0,11202,0.361075,0.360809,0.378409,31,0.0452396,10,0.000136533,-3.42204,-0.680559,-0.0866935,0.360131,
2,1,0,0,0,11202.8,0.364876,0.364588,0.376669,31,0.0455315,10,0.000137329,-3.42404,-2.5464,-0.0231699,0.363914,
2,1,0,1,0,11203.5,0.368677,0.368387,0.373917,31,0.045822,10,0.000137746,-3.42722,-1.18041,-0.0499825,0.367717,
2,1,0,1,0,11204.3,0.372478,0.372347,0.37199,31,0.0461106,10,0.000138509,-3.42947,-3.24973,-0.0181553,0.371681,
2,1,0,0,0,11205.1,0.376279,0.376031,0.370095,31,0.0463976,10,0.000139167,-3.43169,-1.39615,-0.0422591,0.375368,
2,1,0,1,0,11205.8,0.38008,0.379858,0.367362,31,0.0466832,10,0.000139546,-3.43491,-1.08118,-0.0545701,0.3792,
2,1,0,0,0,11206.6,0.383881,0.383637,0.365143,31,0.0469669,10,0.000140082,-3.43754,5.7385,0.0102814,0.382984,
2,1,0,1,0,11207.3,0.387682,0.387512,0.364461,31,0.0472492,10,0.000141233,-3.43835,-2.86957,-0.0205606,0.38686,
2,1,0,0,0,11208.1,0.391483,0.391301,0.36206,31,0.0475305,10,0.000141674,-3.44122,-3.47717,-0.0169678,0.390653,
2,1,0,1,0,11208.9,0.395284,0.394975,0.361061,31,0.0478104,10,0.00014261,-3.44242,-1.00351,-0.0587939,0.394329,
2,1,0,0,0,11209.6,0.399085,0.398821,0.359776,31,0.048089,10,0.000143486,-3.44397,-1.85423,-0.0318191,0.398177,
2,1,0,1,0,11210.4,0.402886,0.402658,0.358997,31,0.0483666,10,0.000144553,-3.44491,-1.32116,-0.0446578,0.402015,
2,1,0,0,0,11211.1,0.406688,0.406494,0.356816,31,0.0486429,10,0.000145044,-3.44756,-1.32338,-0.0445829,0.405856,
2,1,0,1,0,11211.9,0.410489,0.410216,0.354973,31,0.0489178,10,0.000145616,-3.4498,-1.05457,-0.055947,0.409581,
2,1,0,1,0,11212.7,0.41429,0.41412,0.356198,31,0.0491921,10,0.000147509,-3.44831,-2.01618,-0.0292633,0.413482,
2,1,0,0,0,11213.4,0.418091,0.417861,0.354882,31,0.0494661,10,0.000148291,-3.44992,-1.76224,-0.0334802,0.417226,
2,1,0,1,0,11214.2,0.421892,0.421688,0.353253,31,0.0497387,10,0.000148962,-3.45191,4.81999,0.0122407,0.421055,
2,1,0,0,0,11214.9,0.425693,0.425515,0.353156,31,0.0500107,10,0.000150273,-3.45203,-0.755107,-0.0781347,0.424883,
2,1,0,1,0,11215.7,0.429494,0.429275,0.351332,31,0.050282,10,0.000150818,-3.45428,-2.22818,-0.026479,0.428646,
2,1,0,0,0,11216.5,0.433295,0.433121,0.348937,31,0.0505524,10,0.000151132,-3.45725,-1.05052,-0.0561629,0.432497,
2,1,0,1,0,11217.2,0.437096,0.436862,0.349683,31,0.0508216,10,0.000152763,-3.45633,-17.894,-0.0032972,0.436236,
2,1,0,0,0,11218,0.440897,0.440661,0.348801,31,0.0510904,10,0.000153703,-3.45742,-2.07785,-0.0283947,0.440036,
2,1,0,1,0,11218.7,0.444698,0.444478,0.347853,31,0.0513589,10,0.000154613,-3.4586,3.05612,0.0193055,0.443855,
2,1,0,0,0,11219.5,0.448499,0.448286,0.346685,31,0.0516266,10,0.000155414,-3.46007,3.30344,0.0178602,0.447665,
2,1,0,1,0,11220.3,0.452301,0.452094,0.346289,31,0.0518938,10,0.000156555,-3.46056,-1.35713,-0.043474,0.451474,
2,1,0,0,0,11221,0.456102,0.455825,0.345179,31,0.0521606,10,0.000157341,-3.46196,-2.73737,-0.0215535,0.455208,
2,1,0,1,0,11221.8,0.459903,0.459614,0.343909,31,0.0524269,10,0.000158065,-3.46356,-6.63693,-0.00888965,0.458999,
2,1,0,1,0,11222.5,0.463704,0.463537,0.343966,31,0.0526926,10,0.000159441,-3.46349,1.17867,0.0500563,0.462921,
2,1,0,0,0,11223.3,0.467505,0.467297,0.344251,31,0.0529586,10,0.000160868,-3.46312,-1.97739,-0.0298373,0.466681,
2,1,0,1,0,11224.1,0.471306,0.471105,0.34294,31,0.0532242,10,0.000161561,-3.46478,-1.30012,-0.0453805,0.470491,
2,1,0,0,0,11224.8,0.475107,0.474961,0.343966,31,0.0534895,10,0.00016337,-3.46349,-16.5783,-0.00355888,0.474345,
2,1,0,1,0,11225.6,0.478908,0.478711,0.34368,31,0.0537547,10,0.000164523,-3.46385,7.62225,0.0077405,0.478096,
2,1,0,0,0,11226.3,0.482709,0.48251,0.344121,31,0.0540201,10,0.000166042,-3.46329,-7.14602,-0.00825634,0.481894,
2,1,0,1,0,11227.1,0.48651,0.486222,0.343803,31,0.0542853,10,0.000167165,-3.46369,2.34301,0.0251813,0.485607,
2,1,0,0,0,11227.9,0.490311,0.490059,0.343161,31,0.0545506,10,0.000168169,-3.4645,1.46684,0.0402226,0.489444,
2,1,0,1,0,11228.6,0.494112,0.493886,0.344705,31,0.0548162,10,0.000170245,-3.46255,9.39024,0.00628312,0.493269,
2,1,0,0,0,11229.4,0.497914,0.497579,0.344718,31,0.0550819,10,0.000171525,-3.46254,2.50879,0.0235173,0.496962,
2,1,0,1,0,11230.1,0.501715,0.501435,0.345854,31,0.055348,10,0.000173423,-3.46111,1.31449,0.0448843,0.500816,
2,1,0,1,0,11230.9,0.505516,0.505281,0.347106,31,0.0556145,10,0.000175386,-3.45954,2.38468,0.0247412,0.504659,
2,1,0,0,0,11231.7,0.509317,0.509213,0.346873,31,0.0558817,10,0.000176632,-3.45983,-1.74389,-0.0338324,0.508592,
2,1,0,1,0,11232.4,0.513118,0.512811,0.347509,31,0.0561489,10,0.000178206,-3.45903,12.1347,0.00486211,0.512189,
2,1,0,0,0,11233.2,0.516919,0.516724,0.349132,31,0.0564168,10,0.000180405,-3.45701,31.4859,0.00187385,0.516099,
2,1,0,1,0,11233.9,0.52072,0.520436,0.350261,31,0.0566856,10,0.000182288,-3.45561,1.30104,0.0453483,0.519809,
2,1,0,0,0,11234.7,0.524521,0.524301,0.350462,31,0.0569547,10,0.000183748,-3.45536,0.945855,0.0623774,0.523674,
2,1,0,1,0,11235.5,0.528322,0.528109,0.351462,31,0.0572243,10,0.00018561,-3.45412,1.124,0.052491,0.52748,
2,1,0,0,0,11236.2,0.532123,0.531974,0.351942,31,0.0574945,10,0.000187224,-3.45353,1.45679,0.0404999,0.531344,
2,1,0,1,0,11237,0.535924,0.535706,0.352753,31,0.0577653,10,0.000188972,-3.45253,1.3533,0.043597,0.535074,
2,1,0,0,0,11237.7,0.539725,0.539504,0.354051,31,0.0580367,10,0.000191012,-3.45093,1.08586,0.0543348,0.538871,
2,1,0,1,0,11238.5,0.543527,0.543369,0.355946,31,0.0583093,10,0.00019341,-3.44862,4.93341,0.0119593,0.542732,
2,1,0,0,0,11239.3,0.547328,0.547158,0.357199,31,0.0585835,10,0.000195444,-3.44709,1.14907,0.051346,0.546519,
2,1,0,1,0,11240,0.551129,0.550957,0.359241,31,0.0588587,10,0.000197926,-3.44461,14.6734,0.00402087,0.550314,
2,1,0,1,0,11240.8,0.55493,0.554688,0.360944,31,0.0591353,10,0.000200211,-3.44256,0.746783,0.0790055,0.554042,
2,1,0,0,0,11241.5,0.558731,0.558477,0.362664,31,0.0594133,10,0.000202539,-3.4405,2.024,0.0291502,0.557828,
2,1,0,1,0,11242.3,0.562532,0.562314,0.364844,31,0.0596926,10,0.000205157,-3.43789,0.796689,0.0740565,0.561661,
2,1,0,0,0,11243.1,0.566333,0.566112,0.366331,31,0.0599737,10,0.000207384,-3.43613,0.77816,0.0758199,0.565456,
2,1,0,1,0,11243.8,0.570134,0.569996,0.369232,31,0.0602568,10,0.000210461,-3.4327,0.838541,0.0703603,0.569335,
2,1,0,0,0,11244.6,0.573935,0.573785,0.371282,31,0.0605419,10,0.000213036,-3.4303,1.15857,0.0509251,0.573121,
2,1,0,1,0,11245.3,0.577736,0.577545,0.373677,31,0.0608288,10,0.000215816,-3.4275,0.903276,0.0653178,0.576876,
2,1,0,0,0,11246.1,0.581537,0.581229,0.377383,31,0.061118,10,0.000219346,-3.42322,0.633604,0.0931181,0.580554,
2,1,0,1,0,11246.9,0.585338,0.585085,0.380479,31,0.0614098,10,0.000222613,-3.41967,7.21225,0.00818052,0.584404,
2,1,0,0,0,11247.6,0.58914,0.588874,0.384217,31,0.0617038,10,0.000226255,-3.41542,1.27462,0.0462884,0.588186,
2,1,0,1,0,11248.4,0.592941,0.592796,0.387638,31,0.0620009,10,0.00022979,-3.41157,0.638472,0.0924081,0.592102,
2,1,0,0,0,11249.1,0.596742,0.596499,0.39222,31,0.0623015,10,0.000233959,-3.40647,0.7065,0.0835103,0.595797,
2,1,0,0,0,11249.9,0.600543,0.600374,0.396912,31,0.0626052,10,0.000238296,-3.40131,0.575157,0.102581,0.599663,
2,1,0,1,0,11250.7,0.604344,0.604077,0.402065,31,0.0629124,10,0.000242878,-3.3957,0.624245,0.0945142,0.603357,
2,1,0,0,0,11251.4,0.608145,0.607971,0.40753,31,0.0632236,10,0.000247766,-3.38984,0.748961,0.0787758,0.607241,
2,1,0,1,0,11252.2,0.611946,0.611769,0.413825,31,0.0635393,10,0.000253165,-3.38318,0.646819,0.0912156,0.611028,
2,1,0,0,0,11252.9,0.615747,0.61552,0.420088,31,0.0638594,10,0.000258573,-3.37666,0.534959,0.110289,0.614768,
2,1,0,1,0,11253.7,0.619548,0.619385,0.427831,31,0.0641849,10,0.000264992,-3.36873,0.688441,0.0857008,0.618619,
2,1,0,0,0,11254.5,0.623349,0.623145,0.435658,31,0.0645166,10,0.000271478,-3.36085,0.419335,0.140699,0.622365,
2,1,0,1,0,11255.2,0.62715,0.626848,0.444627,31,0.0648545,10,0.000278714,-3.352,0.361128,0.163377,0.626052,
2,1,0,0,0,11256,0.630951,0.630751,0.454622,31,0.0651994,10,0.000286753,-3.34235,0.378622,0.155828,0.629937,
2,1,0,1,0,11256.8,0.634753,0.634559,0.465831,31,0.0655523,10,0.000295597,-3.33177,0.386613,0.152607,0.633725,
2,1,0,0,0,11257.5,0.638554,0.638377,0.478084,31,0.0659142,10,0.000305198,-3.3205,0.329309,0.179163,0.637521,
2,1,0,1,0,11258.3,0.642355,0.642099,0.492213,31,0.0662861,10,0.000316049,-3.30785,0.307739,0.191721,0.641218,
2,1,0,1,0,11259,0.646156,0.646002,0.50923,31,0.06667,10,0.000328964,-3.29309,0.243474,0.242326,0.64509,
2,1,0,0,0,11259.8,0.649957,0.649781,0.526241,31,0.0670668,10,0.000341941,-3.27882,0.240585,0.245235,0.648839,
2,1,0,1,0,11260.6,0.653758,0.653599,0.546094,31,0.0674774,10,0.000356926,-3.26273,0.238342,0.247543,0.652621,
2,1,0,0,0,11261.3,0.657559,0.657349,0.567394,31,0.0679037,10,0.000372976,-3.24611,0.220362,0.267741,0.656334,
2,1,0,1,0,11262.1,0.66136,0.661186,0.592602,31,0.0683477,10,0.00039182,-3.22724,0.18476,0.319333,0.660125,
2,1,0,0,0,11262.8,0.665161,0.664898,0.620892,31,0.0688119,10,0.00041283,-3.20698,0.160556,0.367474,0.663787,
2,1,0,1,0,11263.6,0.668962,0.66884,0.654557,31,0.0692998,10,0.000437794,-3.18405,0.167511,0.352215,0.667668,
2,1,0,0,0,11264.4,0.672763,0.672505,0.689993,31,0.0698137,10,0.000464023,-3.16116,0.179796,0.328149,0.67127,
2,1,0,1,0,11265.1,0.676564,0.67637,0.728538,31,0.070356,10,0.000492761,-3.13755,0.13626,0.432994,0.675066,
2,1,0,0,0,11265.9,0.680365,0.680254,0.775559,31,0.0709308,10,0.000527577,-3.11039,0.141918,0.415733,0.678866,
2,1,0,1,0,11266.6,0.684167,0.683929,0.825714,31,0.0715421,10,0.00056473,-3.08317,0.135129,0.436618,0.682451,
2,1,0,0,0,11267.4,0.687968,0.687689,0.882243,31,0.0721931,10,0.000606709,-3.05441,0.128259,0.460007,0.686109,
2,1,0,0,0,11268.2,0.691769,0.691668,0.942275,31,0.0728889,10,0.000651742,-3.02582,0.117798,0.500857,0.689982,
2,1,0,1,0,11268.9,0.69557,0.6954,1.0097,31,0.0736328,10,0.000702143,-2.99581,0.118654,0.497244,0.693593,
2,1,0,0,0,11269.7,0.699371,0.699141,1.08184,31,0.0744304,10,0.000756359,-2.96584,0.114949,0.513273,0.697205,
2,1,0,1,0,11270.4,0.703172,0.702959,1.16182,31,0.0752855,10,0.00081671,-2.93486,0.123898,0.476197,0.700879,
2,1,0,0,0,11271.2,0.706973,0.706728,1.24771,31,0.0762034,10,0.000881795,-2.90388,0.102453,0.575873,0.704495,
2,1,0,1,0,11272,0.710774,0.710632,1.34026,31,0.0771893,10,0.000952434,-2.87281,0.123443,0.477954,0.708233,
2,1,0,0,0,11272.7,0.714575,0.714344,1.43808,31,0.078248,10,0.00102728,-2.84222,0.122156,0.482988,0.71177,
2,1,0,1,0,11273.5,0.718376,0.718181,1.54296,31,0.0793834,10,0.00110813,-2.81164,0.116219,0.507664,0.715419,
2,1,0,0,0,11274.2,0.722177,0.721941,1.65416,31,0.0806006,10,0.0011942,-2.78142,0.124086,0.475477,0.71898,
2,1,0,1,0,11275,0.725978,0.725816,1.77211,31,0.0819049,10,0.00128623,-2.75151,0.126463,0.466541,0.722644,
2,1,0,0,0,11275.8,0.72978,0.729681,1.89401,31,0.0833003,10,0.00138202,-2.72262,0.122448,0.481837,0.726291,
2,1,0,1,0,11276.5,0.733581,0.73347,2.02225,31,0.0847911,10,0.00148326,-2.69416,0.133576,0.441697,0.72985,
2,1,0,1,0,11277.3,0.737382,0.737201,2.15546,31,0.0863814,10,0.001589,-2.66646,0.137312,0.42968,0.733343,
2,1,0,0,0,11278,0.741183,0.741,2.29299,31,0.0880751,10,0.0016991,-2.6396,0.139906,0.421713,0.736895,
2,1,0,1,0,11278.8,0.744984,0.744827,2.43656,31,0.089876,10,0.00181482,-2.61322,0.141642,0.416542,0.740465,
2,1,0,0,0,11279.6,0.748785,0.748635,2.58559,31,0.0917881,10,0.00193566,-2.58744,0.131711,0.447951,0.744006,
2,1,0,1,0,11280.3,0.752586,0.752357,2.73898,31,0.0938148,10,0.00206069,-2.56241,0.137855,0.427987,0.747454,
2,1,0,0,0,11281.1,0.756387,0.756222,2.89618,31,0.0959597,10,0.00219015,-2.53817,0.150212,0.392778,0.751038,
2,1,0,1,0,11281.8,0.760188,0.759934,3.05768,31,0.0982256,10,0.00232364,-2.51461,0.144613,0.407987,0.754461,
2,1,0,0,0,11282.6,0.763989,0.763838,3.22591,31,0.100617,10,0.00246407,-2.49135,0.165415,0.356679,0.758063,
2,1,0,1,0,11283.4,0.76779,0.767569,3.39653,31,0.103137,10,0.00260707,-2.46896,0.15735,0.37496,0.761489,
2,1,0,0,0,11284.1,0.771592,0.771387,3.57294,31,0.105789,10,0.00275612,-2.44697,0.162537,0.362995,0.764991,
2,1,0,1,0,11284.9,0.775393,0.775175,3.75519,31,0.108578,10,0.00291093,-2.42537,0.169869,0.347326,0.768454,
2,1,0,0,0,11285.6,0.779194,0.779069,3.94045,31,0.111507,10,0.00306988,-2.40445,0.172983,0.341073,0.772016,
2,1,0,0,0,11286.4,0.782995,0.782801,4.13192,31,0.11458,10,0.00323447,-2.38385,0.17187,0.343282,0.775405,
2,1,0,1,0,11287.2,0.786796,0.786571,4.32881,31,0.117799,10,0.00340492,-2.36363,0.160729,0.367077,0.778822,
2,1,0,0,0,11287.9,0.790597,0.790388,4.52937,31,0.12117,10,0.00357996,-2.34396,0.175318,0.336531,0.78228,
2,1,0,1,0,11288.7,0.794398,0.794167,4.73751,31,0.124696,10,0.00376238,-2.32445,0.179984,0.327807,0.785687,
2,1,0,0,0,11289.4,0.798199,0.798052,4.9539,31,0.128384,10,0.00395347,-2.30505,0.180752,0.326414,0.789184,
2,1,0,1,0,11290.2,0.802,0.801802,5.17252,31,0.132237,10,0.00414734,-2.2863,0.180471,0.326923,0.792543,
2,1,0,0,0,11291,0.805801,0.805562,5.39601,31,0.136258,10,0.00434682,-2.26793,0.179257,0.329136,0.795904,
2,1,0,1,0,11291.7,0.809602,0.809332,5.62485,31,0.14045,10,0.00455238,-2.24989,0.188149,0.313582,0.799264,
2,1,0,0,0,11292.5,0.813403,0.813207,5.86242,31,0.144821,10,0.00476736,-2.23192,0.201514,0.292784,0.802713,
2,1,0,1,0,11293.2,0.817205,0.816967,6.10186,31,0.149372,10,0.00498502,-2.21454,0.193253,0.3053,0.806045,
2,1,0,0,0,11294,0.821006,0.820766,6.35095,31,0.15411,10,0.00521264,-2.19716,0.180016,0.327748,0.809397,
2,1,0,1,0,11294.8,0.824807,0.824688,6.60445,31,0.159038,10,0.00544661,-2.18016,0.197638,0.298526,0.812866,
2,1,0,1,0,11295.5,0.828608,0.828524,6.86663,31,0.164163,10,0.00568917,-2.16326,0.206678,0.285468,0.816233,
2,1,0,0,0,11296.3,0.832409,0.83218,7.13155,31,0.169487,10,0.00593473,-2.14682,0.198549,0.297156,0.819414,
2,1,0,1,0,11297,0.83621,0.835978,7.40246,31,0.175015,10,0.00618829,-2.13062,0.185793,0.317557,0.822728,
2,1,0,0,0,11297.8,0.840011,0.839843,7.6802,31,0.180752,10,0.00645016,-2.11463,0.194438,0.303439,0.826096,
2,1,0,1,0,11298.6,0.843812,0.843565,7.96094,31,0.186701,10,0.00671557,-2.09904,0.229893,0.256641,0.829315,
2,1,0,0,0,11299.3,0.847613,0.847488,8.24822,31,0.192865,10,0.00699026,-2.08364,0.213566,0.276261,0.832723,
2,1,0,0,0,11300.1,0.848613,0.848509,8.25867,31,0.199044,10,0.00700756,-2.08309,0.112595,0.524002,0.833726,
2,1,0,1,0,11300.8,0.844812,0.844596,7.82295,31,0.205149,10,0.00660723,-2.10663,0.130628,0.451663,0.830593,
2,1,0,0,0,11301.6,0.841011,0.840836,7.42531,31,0.210939,10,0.00624347,-2.12929,0.148945,0.39612,0.827545,
2,1,0,1,0,11302.3,0.83721,0.837009,7.05651,31,0.216438,10,0.00590636,-2.15141,0.134544,0.438519,0.824378,
2,1,0,0,0,11303.1,0.833409,0.833249,6.70923,31,0.221665,10,0.00559046,-2.17333,0.134798,0.437692,0.821239,
2,1,0,1,0,11303.9,0.829608,0.829546,6.38416,31,0.226636,10,0.00529595,-2.1949,0.140496,0.41994,0.818118,
2,1,0,0,0,11304.6,0.825807,0.825576,6.07252,31,0.231366,10,0.00501333,-2.21663,0.146862,0.401737,0.814706,
2,1,0,1,0,11305.4,0.822006,0.821911,5.77394,31,0.235864,10,0.00474567,-2.23853,0.153868,0.383444,0.811575,
2,1,0,0,0,11306.1,0.818205,0.817979,5.49142,31,0.240141,10,0.00449186,-2.26032,0.154462,0.38197,0.808149,
2,1,0,0,0,11306.9,0.814404,0.81418,5.22287,31,0.244211,10,0.00425236,-2.28209,0.152561,0.38673,0.804831,
2,1,0,1,0,11307.7,0.810603,0.810372,4.96367,31,0.248078,10,0.00402242,-2.3042,0.159043,0.370969,0.801487,
2,1,0,0,0,11308.4,0.806802,0.806612,4.71705,31,0.251754,10,0.00380483,-2.32633,0.147744,0.399339,0.798169,
2,1,0,1,0,11309.2,0.803,0.8029,4.48001,31,0.255245,10,0.003597,-2.34872,0.162208,0.36373,0.794881,
2,1,0,0,0,11309.9,0.799199,0.798958,4.25111,31,0.25856,10,0.00339646,-2.3715,0.148166,0.398202,0.791349,
2,1,0,1,0,11310.7,0.795398,0.795217,4.03045,31,0.261704,10,0.00320508,-2.39465,0.14597,0.404193,0.788003,
2,1,0,0,0,11311.5,0.791597,0.791438,3.82211,31,0.264685,10,0.00302496,-2.4177,0.152534,0.3868,0.784596,
2,1,0,1,0,11312.2,0.787796,0.787611,3.62025,31,0.26751,10,0.00285135,-2.44126,0.149995,0.393347,0.781131,
2,1,0,0,0,11313,0.783995,0.78387,3.42548,31,0.270184,10,0.00268513,-2.46528,0.130272,0.452899,0.777738,
2,1,0,1,0,11313.7,0.780194,0.780014,3.23885,31,0.272713,10,0.00252635,-2.48961,0.136483,0.432288,0.774217,
2,1,0,0,0,11314.5,0.776393,0.776311,3.05823,31,0.275103,10,0.00237414,-2.51453,0.146502,0.402725,0.770837,
2,1,0,1,0,11315.3,0.772592,0.772465,2.88757,31,0.277359,10,0.00223054,-2.53947,0.141985,0.415538,0.767296,
2,1,0,1,0,11316,0.768791,0.768543,2.72091,31,0.279488,10,0.00209113,-2.56529,0.128209,0.460186,0.763672,
2,1,0,0,0,11316.8,0.76499,0.764859,2.56178,31,0.281491,10,0.0019594,-2.59146,0.12636,0.46692,0.760273,
2,1,0,1,0,11317.5,0.761189,0.760879,2.4076,31,0.283376,10,0.00183189,-2.61842,0.131326,0.449263,0.756569,
2,1,0,0,0,11318.3,0.757387,0.757205,2.2607,31,0.285146,10,0.00171181,-2.64576,0.12023,0.490728,0.753158,
2,1,0,1,0,11319.1,0.753586,0.753464,2.1177,31,0.286806,10,0.00159561,-2.67414,0.12393,0.476073,0.749673,
2,1,0,0,0,11319.8,0.749785,0.749656,1.98184,31,0.288361,10,0.0014857,-2.70293,0.117365,0.502705,0.746108,
2,1,0,1,0,11320.6,0.745984,0.7458,1.84973,31,0.289813,10,0.00137953,-2.73289,0.11022,0.535292,0.742489,
2,1,0,0,0,11321.3,0.742183,0.742078,1.72553,31,0.291168,10,0.00128048,-2.76308,0.119152,0.495166,0.738989,
2,1,0,1,0,11322.1,0.738382,0.738222,1.60511,31,0.292431,10,0.00118493,-2.7945,0.116068,0.508324,0.735349,
2,1,0,0,0,11322.9,0.734581,0.734519,1.49091,31,0.293604,10,0.0010951,-2.82655,0.109821,0.537237,0.731851,
2,1,0,1,0,11323.6,0.73078,0.730607,1.38122,31,0.294692,10,0.00100913,-2.85974,0.111935,0.527091,0.728134,
2,1,0,0,0,11324.4,0.726979,0.726856,1.27627,31,0.295698,10,0.000927665,-2.89406,0.0993591,0.593806,0.724571,
2,1,0,0,0,11325.2,0.723178,0.723019,1.17692,31,0.296627,10,0.000850936,-2.92925,0.0997885,0.591251,0.720913,
2,1,0,1,0,11325.9,0.719377,0.719135,1.08006,31,0.297481,10,0.000776711,-2.96655,0.100772,0.585481,0.717202,
2,1,0,0,0,11326.7,0.715576,0.715365,0.991271,31,0.298265,10,0.000709121,-3.00381,0.0865079,0.682019,0.713591,
2,1,0,1,0,11327.4,0.711774,0.711567,0.907451,31,0.298983,10,0.000645712,-3.04218,0.0888432,0.664091,0.709943,
2,1,0,0,0,11328.2,0.707973,0.70774,0.825623,31,0.299638,10,0.000584327,-3.08322,0.0918774,0.64216,0.706262,
2,1,0,1,0,11329,0.704172,0.70397,0.751273,31,0.300234,10,0.000528873,-3.1242,0.0875053,0.674245,0.702625,
2,1,0,0,0,11329.7,0.700371,0.700143,0.684119,31,0.300776,10,0.000478981,-3.16487,0.0843385,0.699562,0.698919,
2,1,0,1,0,11330.5,0.69657,0.696326,0.617291,31,0.301267,10,0.000429835,-3.20951,0.081517,0.723776,0.695221,
2,1,0,0,0,11331.2,0.692769,0.692604,0.556426,31,0.301709,10,0.000385383,-3.25459,0.083044,0.710467,0.691608,
2,1,0,1,0,11332,0.688968,0.688719,0.499326,31,0.302107,10,0.000343896,-3.30162,0.0836283,0.705503,0.687826,
2,1,0,0,0,11332.8,0.685167,0.684826,0.444517,31,0.302462,10,0.000304417,-3.35211,0.0780975,0.755466,0.68403,
2,1,0,1,0,11333.5,0.681366,0.681189,0.395244,31,0.302777,10,0.000269236,-3.40313,0.0701128,0.841501,0.680482,
2,1,0,1,0,11334.3,0.677565,0.677343,0.347829,31,0.303056,10,0.0002356,-3.45863,0.069659,0.846983,0.676721,
2,1,0,0,0,11335,0.673764,0.67364,0.306024,31,0.303301,10,0.00020615,-3.51424,0.0653761,0.90247,0.673093,
2,1,0,1,0,11335.8,0.669963,0.669823,0.264864,31,0.303514,10,0.000177412,-3.57698,0.0603511,0.977613,0.669349,
2,1,0,0,0,11336.6,0.666161,0.666034,0.228526,31,0.303698,10,0.000152206,-3.64106,0.0503251,1.17238,0.665625,
2,1,0,1,0,11337.3,0.66236,0.662121,0.1949,31,0.303855,10,0.000129048,-3.71019,0.0526867,1.11983,0.661772,
2,1,0,0,0,11338.1,0.658559,0.65839,0.16256,31,0.303987,10,0.000107028,-3.78899,0.0474161,1.2443,0.658099,
2,1,0,1,0,11338.8,0.654758,0.654553,0.132861,31,0.304096,10,8.69648e-05,-3.8766,0.041864,1.40932,0.654315,
2,1,0,0,0,11339.6,0.650957,0.65085,0.10511,31,0.304183,10,6.84106e-05,-3.97836,0.0345191,1.7092,0.650662,
2,1,0,1,0,11340.4,0.647156,0.647014,0.0803693,31,0.30425,10,5.20001e-05,-4.09491,0.032064,1.84007,0.64687,
2,1,0,0,0,11341.1,0.643355,0.643091,0.0567907,31,0.304298,10,3.65216e-05,-4.24572,0.0222298,2.65409,0.64299,
2,1,0,1,0,11341.9,0.639554,0.639407,0.0334068,31,0.304329,10,2.13606e-05,-4.47616,0.014265,4.13599,0.639348,
2,1,0,0,0,11342.6,0.635753,0.635514,0.01393,31,0.304343,10,8.85268e-06,-4.85605,0.00540036,10.9252,0.635489,
2,0,0,0,0,11343.4,0.631952,0.631782,-0.00489839,31,0.304343,10,-3.09471e-06,-5.30995,-0.00242014,-24.3788,0.631791,
2,0,0,1,0,11344.2,0.628151,0.627917,-0.0228301,31,0.304329,10,-1.43354e-05,-4.64149,-0.0123733,-4.76833,0.627958,
2,0,0,0,0,11344.9,0.62435,0.624157,-0.0378482,31,0.304302,10,-2.36232e-05,-4.42195,-0.0168593,-3.49956,0.624224,
2,0,0,1,0,11345.7,0.620548,0.620406,-0.0536971,31,0.304264,10,-3.3314e-05,-4.27005,-0.031331,-1.88312,0.620502,
2,0,0,0,0,11346.4,0.616747,0.616598,-0.0683258,31,0.304213,10,-4.21296e-05,-4.16542,-0.0425242,-1.38744,0.61672,
2,0,0,1,0,11347.2,0.612946,0.612676,-0.0809881,31,0.304153,10,-4.96194e-05,-4.09158,-0.0446027,-1.32279,0.612821,
2,0,0,0,0,11348,0.609145,0.609011,-0.0944486,31,0.304082,10,-5.75202e-05,-4.0248,-0.0661974,-0.891273,0.60918,
2,0,0,1,0,11348.7,0.605344,0.605146,-0.106877,31,0.304001,10,-6.46762e-05,-3.97112,-0.0805457,-0.732504,0.605337,
2,0,0,0,0,11349.5,0.601543,0.601395,-0.118806,31,0.303912,10,-7.14493e-05,-3.92516,-0.0881359,-0.669421,0.601608,
2,0,0,1,0,11350.2,0.597742,0.597549,-0.128191,31,0.303815,10,-7.66002e-05,-3.89214,-0.145977,-0.404175,0.597778,
2,0,0,0,0,11351,0.593941,0.593875,-0.138276,31,0.30371,10,-8.21188e-05,-3.85925,-0.123191,-0.47893,0.594122,
2,0,0,1,0,11351.8,0.59014,0.589885,-0.146597,31,0.303599,10,-8.64752e-05,-3.83388,-0.132672,-0.444707,0.590148,
2,0,0,1,0,11352.5,0.586339,0.586106,-0.154031,31,0.303481,10,-9.02785e-05,-3.81239,-0.171791,-0.343441,0.586382,
2,0,0,0,0,11353.3,0.582538,0.582432,-0.160609,31,0.303357,10,-9.35437e-05,-3.79423,-0.213122,-0.276836,0.582719,
2,0,0,1,0,11354,0.578737,0.578452,-0.167443,31,0.303229,10,-9.68577e-05,-3.77613,-0.156136,-0.377876,0.578752,
2,0,0,0,0,11354.8,0.574936,0.574806,-0.174082,31,0.303095,10,-0.000100064,-3.75925,-0.454558,-0.129796,0.575118,
2,0,0,1,0,11355.6,0.571134,0.570903,-0.179333,31,0.302958,10,-0.000102382,-3.74634,-0.211316,-0.279202,0.571224,
2,0,0,0,0,11356.3,0.567333,0.567038,-0.184668,31,0.302815,10,-0.000104714,-3.73361,-0.2842,-0.2076,0.567368,
2,0,0,1,0,11357.1,0.563532,0.563344,-0.189172,31,0.30267,10,-0.000106569,-3.72314,-0.486972,-0.121157,0.563683,
2,0,0,0,0,11357.8,0.559731,0.559575,-0.193157,31,0.30252,10,-0.000108086,-3.71409,-0.357757,-0.164916,0.55992,
2,0,0,1,0,11358.6,0.55593,0.555757,-0.197207,31,0.302368,10,-0.000109599,-3.70508,-0.495784,-0.119003,0.55611,
2,0,0,0,0,11359.4,0.552129,0.55193,-0.201607,31,0.302213,10,-0.000111273,-3.69549,-0.370084,-0.159423,0.552291,
2,0,0,1,0,11360.1,0.548328,0.548122,-0.204203,31,0.302055,10,-0.000111928,-3.68994,-0.481104,-0.122635,0.548488,
2,0,0,0,0,11360.9,0.544527,0.5444,-0.206935,31,0.301895,10,-0.000112656,-3.68417,-0.706027,-0.0835662,0.544771,
2,0,0,1,0,11361.6,0.540726,0.540478,-0.209413,31,0.301733,10,-0.000113183,-3.679,-0.565746,-0.104287,0.540853,
2,0,0,1,0,11362.4,0.536925,0.536756,-0.211959,31,0.301569,10,-0.00011377,-3.67375,-0.560899,-0.105188,0.537135,
2,0,0,0,0,11363.2,0.533124,0.532957,-0.213633,31,0.301403,10,-0.000113857,-3.67033,-0.527172,-0.111918,0.53334,
2,0,0,1,0,11363.9,0.529323,0.529073,-0.21547,31,0.301236,10,-0.000113999,-3.66661,3.23615,0.0182316,0.529459,
2,0,0,0,0,11364.7,0.525521,0.525227,-0.217599,31,0.301068,10,-0.000114289,-3.66234,-1.31686,-0.0448035,0.525617,
2,0,0,1,0,11365.4,0.52172,0.521572,-0.218864,31,0.300898,10,-0.000114153,-3.65983,-0.703708,-0.0838416,0.521964,
2,0,0,0,0,11366.2,0.517919,0.517802,-0.220857,31,0.300727,10,-0.00011436,-3.65589,-1.24562,-0.0473661,0.518197,
2,0,0,1,0,11367,0.514118,0.513908,-0.222985,31,0.300554,10,-0.000114594,-3.65172,4.11281,0.0143454,0.514307,
2,0,0,0,0,11367.7,0.510317,0.510091,-0.224069,31,0.30038,10,-0.000114296,-3.64962,0.714756,0.0825457,0.510492,
2,0,0,1,0,11368.5,0.506516,0.506359,-0.225043,31,0.300206,10,-0.000113952,-3.64773,-0.995621,-0.0592595,0.506762,
2,0,0,0,0,11369.2,0.502715,0.502504,-0.226185,31,0.30003,10,-0.000113659,-3.64554,-5.82622,-0.0101266,0.502908,
2,0,0,1,0,11370,0.498914,0.498829,-0.227957,31,0.299853,10,-0.000113712,-3.64215,-1.40266,-0.0420628,0.499237,
2,0,0,1,0,11370.8,0.495113,0.494935,-0.229368,31,0.299675,10,-0.000113522,-3.63947,-1.86087,-0.0317055,0.495346,
2,0,0,0,0,11371.5,0.491312,0.491137,-0.230851,31,0.299496,10,-0.00011338,-3.63667,-0.66822,-0.0882943,0.49155,
2,0,0,1,0,11372.3,0.487511,0.487358,-0.232902,31,0.299315,10,-0.000113507,-3.63283,-0.74345,-0.0793597,0.487775,
2,0,0,0,0,11373,0.48371,0.48354,-0.234129,31,0.299134,10,-0.000113211,-3.63054,-1.43718,-0.0410526,0.483959,
2,0,0,1,0,11373.8,0.479908,0.479809,-0.235713,31,0.298951,10,-0.000113097,-3.62762,8.83224,0.00668007,0.480231,
2,0,0,0,0,11374.6,0.476107,0.475867,-0.238023,31,0.298767,10,-0.000113267,-3.62338,-1.19413,-0.0494083,0.476293,
2,0,0,1,0,11375.3,0.472306,0.472021,-0.238717,31,0.298581,10,-0.00011268,-3.62212,1.32335,0.044584,0.472448,
2,0,0,0,0,11376.1,0.468505,0.468242,-0.240574,31,0.298395,10,-0.000112647,-3.61875,4.50844,0.0130866,0.468672,
2,0,0,1,0,11376.8,0.464704,0.464415,-0.241748,31,0.298207,10,-0.000112272,-3.61664,-3.07709,-0.019174,0.464848,
2,0,0,0,0,11377.6,0.460903,0.460721,-0.243845,31,0.298018,10,-0.000112344,-3.61289,-1.36241,-0.0433055,0.461158,
2,0,0,1,0,11378.4,0.457102,0.456904,-0.245402,31,0.297827,10,-0.000112125,-3.61012,-1.40329,-0.0420439,0.457343,
2,0,0,0,0,11379.1,0.453301,0.453039,-0.248414,31,0.297635,10,-0.000112541,-3.60482,-0.678274,-0.0869856,0.453483,
2,0,0,1,0,11379.9,0.4495,0.44925,-0.249564,31,0.297442,10,-0.000112117,-3.60282,-0.491432,-0.120057,0.449697,
2,0,0,1,0,11380.6,0.445699,0.445528,-0.252457,31,0.297246,10,-0.000112477,-3.59781,-4.8465,-0.0121737,0.44598,
2,0,0,0,0,11381.4,0.441898,0.441701,-0.254385,31,0.297049,10,-0.000112362,-3.59451,-0.533757,-0.110537,0.442156,
2,0,0,1,0,11382.2,0.438096,0.437798,-0.257046,31,0.296851,10,-0.000112534,-3.58999,-0.605849,-0.097384,0.438258,
2,0,0,0,0,11382.9,0.434295,0.43399,-0.258623,31,0.29665,10,-0.00011224,-3.58733,-0.502089,-0.117509,0.434453,
2,0,0,1,0,11383.7,0.430494,0.430306,-0.261141,31,0.296448,10,-0.00011237,-3.58313,-1.15129,-0.0512467,0.430773,
2,0,0,0,0,11384.4,0.426693,0.426479,-0.26423,31,0.296244,10,-0.000112689,-3.57802,-0.679977,-0.0867676,0.426952,
2,0,0,1,0,11385.2,0.422892,0.422719,-0.266995,31,0.296037,10,-0.000112864,-3.5735,-53.2263,-0.00110848,0.423196,
2,0,0,0,0,11386,0.419091,0.418882,-0.269143,31,0.29583,10,-0.000112739,-3.57002,-0.38858,-0.151835,0.419364,
2,0,0,1,0,11386.7,0.41529,0.415122,-0.270941,31,0.295619,10,-0.000112473,-3.56713,-0.972505,-0.0606681,0.415607,
2,0,0,0,0,11387.5,0.411489,0.411304,-0.274205,31,0.295407,10,-0.000112782,-3.56192,-1.231,-0.0479283,0.411795,
2,0,0,1,0,11388.2,0.407688,0.407477,-0.276925,31,0.295192,10,-0.000112841,-3.55764,-12.917,-0.00456761,0.407973,
2,0,0,1,0,11389,0.403887,0.40366,-0.281081,31,0.294975,10,-0.000113461,-3.55117,-1.30851,-0.0450896,0.404163,
2,0,0,0,0,11389.8,0.400086,0.399881,-0.282928,31,0.294757,10,-0.000113138,-3.54832,-0.593326,-0.0994394,0.400387,
2,0,0,1,0,11390.5,0.396285,0.396092,-0.287114,31,0.294535,10,-0.000113724,-3.54195,-0.750801,-0.0785827,0.396606,
2,0,0,0,0,11391.3,0.392484,0.392265,-0.290067,31,0.294312,10,-0.000113783,-3.5375,-0.501681,-0.117605,0.392784,
2,0,0,1,0,11392,0.388682,0.388466,-0.293085,31,0.294085,10,-0.000113854,-3.53301,-0.495239,-0.119134,0.388991,
2,0,0,0,0,11392.8,0.384881,0.384716,-0.296824,31,0.293856,10,-0.000114193,-3.5275,-1.47239,-0.040071,0.385247,
2,0,0,1,0,11393.6,0.38108,0.380908,-0.300069,31,0.293625,10,-0.000114298,-3.52278,-0.465771,-0.126672,0.381445,
2,0,0,0,0,11394.3,0.377279,0.377043,-0.303022,31,0.293391,10,-0.000114252,-3.51853,-2.15888,-0.027329,0.377585,
2,0,0,1,0,11395.1,0.373478,0.373244,-0.306598,31,0.293154,10,-0.000114436,-3.51343,-0.629905,-0.0936649,0.373793,
2,0,0,0,0,11395.9,0.369677,0.369455,-0.310583,31,0.292914,10,-0.000114746,-3.50782,-1.21617,-0.0485129,0.370011,
2,0,0,1,0,11396.6,0.365876,0.365657,-0.313516,31,0.292672,10,-0.000114639,-3.50374,-0.386642,-0.152596,0.366218,
2,0,0,0,0,11397.4,0.362075,0.361878,-0.317981,31,0.292427,10,-0.00011507,-3.4976,-0.703146,-0.0839086,0.362447,
2,0,0,1,0,11398.1,0.358274,0.358032,-0.321786,31,0.292178,10,-0.00011521,-3.49243,-0.778895,-0.0757483,0.358608,
2,0,0,1,0,11398.9,0.354473,0.354243,-0.325335,31,0.291927,10,-0.000115247,-3.48767,-0.93364,-0.0631935,0.354825,
2,0,0,0,0,11399.7,0.350672,0.350435,-0.329397,31,0.291673,10,-0.000115432,-3.48228,-0.555855,-0.106143,0.351024,
2,0,0,1,0,11400.4,0.346871,0.34657,-0.333558,31,0.291415,10,-0.000115601,-3.47683,-0.516538,-0.114222,0.347167,
2,0,0,0,0,11401.2,0.343069,0.342914,-0.336673,31,0.291155,10,-0.00011545,-3.47279,-1.20507,-0.0489597,0.343517,
2,0,0,1,0,11401.9,0.339268,0.33904,-0.340139,31,0.290892,10,-0.000115321,-3.46834,-0.463109,-0.1274,0.339649,
2,0,0,0,0,11402.7,0.335467,0.335184,-0.346129,31,0.290625,10,-0.000116017,-3.46076,-0.774305,-0.0761973,0.335804,
2,0,0,1,0,11403.5,0.331666,0.331491,-0.350283,31,0.290356,10,-0.000116115,-3.45558,-0.637653,-0.0925268,0.332118,
2,0,0,0,0,11404.2,0.327865,0.327654,-0.354131,31,0.290083,10,-0.000116033,-3.45084,-0.721737,-0.0817472,0.328288,
2,0,0,1,0,11405,0.324064,0.323789,-0.357928,31,0.289808,10,-0.000115893,-3.4462,-1.29961,-0.0453981,0.32443,
2,0,0,0,0,11405.7,0.320263,0.320029,-0.361601,31,0.289529,10,-0.000115723,-3.44177,-0.558739,-0.105595,0.320676,
2,0,0,1,0,11406.5,0.316462,0.316173,-0.364944,31,0.289247,10,-0.000115385,-3.43777,-0.530399,-0.111237,0.316826,
2,0,0,1,0,11407.3,0.312661,0.312432,-0.370191,31,0.288962,10,-0.00011566,-3.43157,-0.4782,-0.123379,0.313095,
2,0,0,0,0,11408,0.30886,0.308681,-0.374374,31,0.288674,10,-0.000115562,-3.42669,-0.788031,-0.0748701,0.309351,
2,0,0,1,0,11408.8,0.305059,0.304768,-0.377879,31,0.288383,10,-0.000115165,-3.42265,-1.646,-0.0358446,0.305445,
2,0,0,0,0,11409.5,0.301258,0.30097,-0.382344,31,0.288089,10,-0.000115074,-3.41755,-0.938772,-0.0628481,0.301654,
2,0,0,1,0,11410.3,0.297456,0.297267,-0.387088,31,0.287791,10,-0.000115069,-3.41219,-0.826227,-0.0714089,0.29796,
2,0,0,0,0,11411.1,0.293655,0.29344,-0.391041,31,0.287491,10,-0.000114747,-3.40778,-0.636856,-0.0926426,0.29414,
2,0,0,1,0,11411.8,0.289854,0.289642,-0.395162,31,0.287187,10,-0.000114455,-3.40322,-0.662321,-0.0890806,0.290349,
2,0,0,0,0,11412.6,0.286053,0.285777,-0.398641,31,0.28688,10,-0.000113922,-3.39942,-0.622949,-0.0947108,0.28649,
2,0,0,1,0,11413.3,0.282252,0.282131,-0.402476,31,0.28657,10,-0.000113551,-3.39526,-1.19091,-0.0495418,0.282851,
2,0,0,0,0,11414.1,0.278451,0.278189,-0.406734,31,0.286257,10,-0.000113149,-3.39069,-0.437552,-0.134841,0.278917,
2,0,0,1,0,11414.9,0.27465,0.274439,-0.411588,31,0.28594,10,-0.000112956,-3.38554,-0.771452,-0.0764791,0.275175,
2,0,0,0,0,11415.6,0.270849,0.270602,-0.416352,31,0.28562,10,-0.000112666,-3.38054,-0.795763,-0.0741427,0.271347,
2,0,0,1,0,11416.4,0.267048,0.266813,-0.420786,31,0.285297,10,-0.000112271,-3.37594,-1.8549,-0.0318076,0.267567,
2,0,0,1,0,11417.1,0.263247,0.26311,-0.42536,31,0.284971,10,-0.000111917,-3.37124,-0.697187,-0.0846258,0.263872,
2,0,0,0,0,11417.9,0.259446,0.259236,-0.430345,31,0.28464,10,-0.000111561,-3.36618,-0.721552,-0.0817682,0.260006,
2,0,0,1,0,11418.7,0.255645,0.255456,-0.434693,31,0.284306,10,-0.000111045,-3.36182,-0.620893,-0.0950244,0.256234,
2,0,0,0,0,11419.4,0.251843,0.251601,-0.439554,31,0.283968,10,-0.000110592,-3.35699,-0.725715,-0.0812991,0.252388,
2,0,0,1,0,11420.2,0.248042,0.247764,-0.445648,31,0.283626,10,-0.000110416,-3.35101,-0.534401,-0.110404,0.248562,
2,0,0,0,0,11420.9,0.244241,0.244023,-0.451769,31,0.28328,10,-0.000110242,-3.34508,-1.31111,-0.045,0.244832,
2,0,0,1,0,11421.7,0.24044,0.240206,-0.455948,31,0.282929,10,-0.000109521,-3.34108,-1.68736,-0.0349659,0.241022,
2,0,0,0,0,11422.5,0.236639,0.236388,-0.462172,31,0.282574,10,-0.000109252,-3.3352,-0.62644,-0.094183,0.237215,
2,0,0,1,0,11423.2,0.232838,0.232676,-0.471732,31,0.282213,10,-0.000109761,-3.3263,-0.777813,-0.0758538,0.23352,
2,0,0,0,0,11424,0.229037,0.22883,-0.478209,31,0.281847,10,-0.000109428,-3.32038,-0.620682,-0.0950568,0.229686,
2,0,0,1,0,11424.7,0.225236,0.224936,-0.485031,31,0.281475,10,-0.000109101,-3.31423,-0.655831,-0.0899622,0.225804,
2,0,0,1,0,11425.5,0.221435,0.221176,-0.495327,31,0.281097,10,-0.000109554,-3.30511,-0.417803,-0.141215,0.222062,
2,0,0,0,0,11426.3,0.217634,0.217396,-0.504125,31,0.280713,10,-0.000109595,-3.29746,-0.352852,-0.167209,0.218299,
2,0,0,1,0,11427,0.213833,0.213646,-0.514574,31,0.280321,10,-0.000109936,-3.28855,-0.407552,-0.144767,0.214567,
2,0,0,0,0,11427.8,0.210032,0.20979,-0.525328,31,0.279921,10,-0.000110208,-3.27957,-0.351681,-0.167766,0.21073,
2,0,0,1,0,11428.5,0.20623,0.206001,-0.538951,31,0.279511,10,-0.000111024,-3.26845,-0.322183,-0.183126,0.206966,
2,0,0,0,0,11429.3,0.202429,0.202117,-0.551243,31,0.279091,10,-0.000111415,-3.25866,-0.372405,-0.15843,0.203104,
2,0,0,1,0,11430.1,0.198628,0.198414,-0.568526,31,0.27866,10,-0.000112803,-3.24525,-0.299527,-0.196977,0.199432,
2,0,0,0,0,11430.8,0.194827,0.194587,-0.588451,31,0.278215,10,-0.000114505,-3.23029,-0.239442,-0.246406,0.19564,
2,0,0,1,0,11431.6,0.191026,0.190808,-0.61153,31,0.277754,10,-0.000116685,-3.21358,-0.228425,-0.258291,0.191902,
2,0,0,0,0,11432.3,0.187225,0.187066,-0.634505,31,0.277276,10,-0.000118695,-3.19757,-0.233097,-0.253113,0.188202,
2,0,0,1,0,11433.1,0.183424,0.183125,-0.663152,31,0.276778,10,-0.00012144,-3.17839,-0.168063,-0.351058,0.184312,
2,0,0,0,0,11433.9,0.179623,0.179441,-0.697517,31,0.276255,10,-0.000125163,-3.15645,-0.17761,-0.332188,0.18069,
2,0,0,1,0,11434.6,0.175822,0.175585,-0.735496,31,0.275705,10,-0.000129142,-3.13342,-0.131291,-0.449385,0.176902,
2,0,0,1,0,11435.4,0.172021,0.171797,-0.781967,31,0.275123,10,-0.000134339,-3.10681,-0.136914,-0.430926,0.173196,
2,0,0,0,0,11436.1,0.16822,0.167998,-0.836841,31,0.274503,10,-0.000140588,-3.07736,-0.129837,-0.454416,0.169496,
2,0,0,1,0,11436.9,0.164419,0.164162,-0.897328,31,0.273838,10,-0.000147307,-3.04705,-0.123932,-0.476069,0.165768,
2,0,0,0,0,11437.7,0.160617,0.160344,-0.965371,31,0.273126,10,-0.000154792,-3.01531,-0.109321,-0.539695,0.162072,
2,0,0,1,0,11438.4,0.156816,0.156613,-1.03874,31,0.272359,10,-0.000162679,-2.9835,-0.113626,-0.519245,0.158472,
2,0,0,0,0,11439.2,0.153015,0.152891,-1.11823,31,0.271533,10,-0.000170966,-2.95147,-0.118342,-0.498556,0.154892,
2,0,0,1,0,11439.9,0.149214,0.148968,-1.19626,31,0.270647,10,-0.000178204,-2.92218,-0.130073,-0.453592,0.15111,
2,0,0,0,0,11440.7,0.145413,0.145246,-1.27522,31,0.269701,10,-0.000185221,-2.89441,-0.131106,-0.450016,0.147529,
2,0,0,1,0,11441.5,0.141612,0.141419,-1.35193,31,0.268696,10,-0.000191189,-2.86905,-0.154134,-0.382785,0.143839,
2,0,0,0,0,11442.2,0.137811,0.137564,-1.41498,31,0.267638,10,-0.00019465,-2.84925,-0.182845,-0.322678,0.140096,
2,0,0,1,0,11443,0.13401,0.133756,-1.47167,31,0.266534,10,-0.000196844,-2.83219,-0.240278,-0.245549,0.13639,
2,0,0,1,0,11443.7,0.130209,0.129957,-1.51649,31,0.265391,10,-0.000197079,-2.81916,-0.357805,-0.164894,0.132672,
2,0,0,0,0,11444.5,0.126408,0.126216,-1.54362,31,0.264221,10,-0.00019483,-2.81146,-1.05671,-0.0558336,0.128979,
2,0,0,1,0,11445.3,0.122607,0.122427,-1.55643,31,0.263036,10,-0.00019055,-2.80787,-2.41656,-0.0244149,0.125213,
2,0,0,0,0,11446,0.118806,0.118629,-1.55563,31,0.261846,10,-0.000184542,-2.80809,1.83052,0.0322312,0.121413,
2,0,0,1,0,11446.8,0.115004,0.114764,-1.54102,31,0.260663,10,-0.000176853,-2.81219,0.670115,0.0880446,0.117522,
2,0,0,0,0,11447.5,0.111203,0.11107,-1.5166,31,0.259495,10,-0.00016845,-2.81913,0.543159,0.108624,0.113785,
2,0,0,1,0,11448.3,0.107402,0.107129,-1.48386,31,0.258348,10,-0.000158964,-2.82861,0.406691,0.145073,0.109785,
2,0,0,0,0,11449.1,0.103601,0.103349,-1.4455,31,0.257227,10,-0.000149391,-2.83998,0.294031,0.200659,0.105937,
2,0,0,1,0,11449.8,0.0998002,0.0996752,-1.40072,31,0.256138,10,-0.000139617,-2.85365,0.25158,0.234517,0.102182,
2,0,0,0,0,11450.6,0.0959991,0.0958005,-1.35302,31,0.255086,10,-0.00012962,-2.8687,0.243777,0.242024,0.0982224,
2,0,0,1,0,11451.3,0.092198,0.0919639,-1.30084,31,0.254071,10,-0.00011963,-2.88578,0.215465,0.273826,0.0942924,
2,0,0,0,0,11452.1,0.0883969,0.0881465,-1.24918,31,0.253096,10,-0.000110111,-2.90337,0.210627,0.280116,0.0903825,
2,0,0,1,0,11452.9,0.0845958,0.0843767,-1.19359,31,0.252161,10,-0.000100711,-2.92315,0.194824,0.302838,0.0865132,
2,0,0,1,0,11453.6,0.0807947,0.0805211,-1.1462,31,0.251266,10,-9.22932e-05,-2.94074,0.223849,0.263571,0.0825728,
2,0,0,0,0,11454.4,0.0769937,0.0767895,-1.09639,31,0.250408,10,-8.41915e-05,-2.96003,0.212176,0.278071,0.078752,
2,0,0,1,0,11455.1,0.0731926,0.0730388,-1.05329,31,0.249584,10,-7.69313e-05,-2.97745,0.233402,0.252783,0.0749242,
2,0,0,0,0,11455.9,0.0693915,0.0691927,-1.01697,31,0.248791,10,-7.03672e-05,-2.99269,0.259237,0.227591,0.0710131,
2,0,0,1,0,11456.7,0.0655904,0.0653371,-0.983985,31,0.248024,10,-6.42907e-05,-3.00701,0.28161,0.209509,0.0670984,
2,0,0,0,0,11457.4,0.0617893,0.061491,-0.954831,31,0.24728,10,-5.87135e-05,-3.02007,0.286427,0.205986,0.0632002,
2,0,0,1,0,11458.2,0.0579882,0.0577404,-0.930681,31,0.246557,10,-5.37379e-05,-3.0312,0.365442,0.161448,0.0594063,
2,0,0,0,0,11458.9,0.0541872,0.053942,-0.911652,31,0.24585,10,-4.91763e-05,-3.04017,0.471797,0.125054,0.0555738,
2,0,0,1,0,11459.7,0.0503861,0.0500768,-0.895654,31,0.245156,10,-4.48515e-05,-3.04786,0.697541,0.0845829,0.05168,
2,0,0,0,0,11460.5,0.046585,0.0463739,-0.881025,31,0.244475,10,-4.08565e-05,-3.05501,0.525802,0.112209,0.0479509,
2,0,0,1,0,11461.2,0.0427839,0.0425373,-0.869622,31,0.243803,10,-3.69914e-05,-3.06067,0.65788,0.0896819,0.0440939,
2,0,0,1,0,11462,0.0389828,0.0387389,-0.86156,31,0.243138,10,-3.33759e-05,-3.06471,0.911754,0.0647104,0.0402811,
2,0,0,0,0,11462.7,0.0351817,0.0349024,-0.853332,31,0.242479,10,-2.97833e-05,-3.06888,2.0186,0.0292282,0.0364298,
2,0,0,1,0,11463.5,0.0313807,0.0311422,-0.847179,31,0.241826,10,-2.6383e-05,-3.07202,1.49272,0.0395251,0.0326586,
2,0,0,0,0,11464.3,0.0275796,0.0273152,-0.843766,31,0.241177,10,-2.30476e-05,-3.07378,1.80107,0.0327583,0.0288255,
2,0,0,1,0,11465,0.0237785,0.0235168,-0.840514,31,0.24053,10,-1.97662e-05,-3.07546,1.2693,0.0464822,0.0250213,
2,0,0,0,0,11465.8,0.0199774,0.0197375,-0.837821,31,0.239887,10,-1.65365e-05,-3.07685,2.87178,0.0205448,0.0212372,
2,0,0,1,0,11466.6,0.0161763,0.0158914,-0.836724,31,0.239244,10,-1.32967e-05,-3.07742,-228.887,-0.000257769,0.0173891,
2,0,0,0,0,11467.3,0.0123753,0.0121694,-0.83688,31,0.238601,10,-1.01843e-05,-3.07734,-14.444,-0.00408475,0.0136674,
2,0,0,1,0,11468.1,0.00857417,0.00839963,-0.838242,31,0.237959,10,-7.04093e-06,-3.07663,-3.10503,-0.0190014,0.00990009,
2,0,0,0,0,11468.8,0.00477309,0.00462034,-0.840754,31,0.237314,10,-3.88457e-06,-3.07533,-0.23702,-0.248925,0.00612529,
2,0,0,1,0,11469.6,0.000972007,0.000659725,-0.84934,31,0.236664,10,-5.60331e-07,-3.07092,-1.72808,-0.0341419,0.00218004,
2,0,0,0,0,11469.8,0.00017178,-0.000151486,-0.849165,31,0.236527,10,1.28637e-07,-3.07101, , ,0.00136852,