File: Figure_codes/Fig_6/UV_vis_comp_Potential_BeforeCVs_smoothed.csv
æ³¢é•· (nm),0 mV,50 mV,100 mV,150 mV,200 mV,300 mV,400 mV,500 mV,600 mV,700 mV,800 mV,100-0,200-100,300-200,400-300,500-400,600-500,700-600,800-700,800 - 500,500 - 300,Raw data name,Mod column name,
300,-0.00270877,-0.0194188,-0.0124446,-0.018457,-0.00413813,-0.0151674,-0.00174364,0.0115509,-0.000753083,-0.00077221,-0.00531016,-0.00973579,0.00830643,-0.0110292,0.0134237,0.0132945,-0.012304,-1.91263e-05,-0.00453795,-0.0167323,0.0269445,20221215_1-140_006_0mV.spc - RawData,0 mV,
303,0.00362925,-0.00314366,-0.00191546,0.00125373,0.00701522,0.000918935,0.0170615,0.0197383,0.0145851,0.00919513,0.00766978,-0.0055447,0.00893068,-0.00609629,0.0161426,0.00267675,-0.0051532,-0.00538993,-0.00152534,-0.0118808,0.0188014,20221215_1-140_009_50mV.spc - RawData,50 mV,
306,0.00661789,0.00552607,0.00479351,0.013084,0.0138192,0.011166,0.0278702,0.0242222,0.023665,0.015868,0.0166146,-0.00182438,0.00902564,-0.00265316,0.0167042,-0.00364798,-0.000557183,-0.00779706,0.000746579,-0.00742368,0.0128937,20221215_1-140_012_400mV.spc - RawData,400 mV,
309,0.00705769,0.00841811,0.00840274,0.0186315,0.0171529,0.0167287,0.0323278,0.0258321,0.0278667,0.0198818,0.0222216,0.00134504,0.00875012,-0.000424156,0.0155991,-0.00649571,0.00203457,-0.00798489,0.00233981,-0.00347671,0.00887978,20221215_1-140_016_700mV.spc - RawData,700 mV,
312,0.00574921,0.00736018,0.00963262,0.0194937,0.0178955,0.018762,0.0320798,0.0253973,0.0285699,0.021872,0.0251884,0.00388341,0.00826292,0.000866426,0.0133179,-0.0066825,0.00317252,-0.00669783,0.00331635,-0.000155669,0.00641835,20221215_1-140_013_500mV.spc - 500 mV - 300 mV,500 - 300,
315,0.00349297,0.00418,0.00920356,0.0172682,0.0169264,0.0184207,0.0287717,0.0237473,0.0271544,0.0224742,0.0262124,0.00571059,0.00772282,0.00149429,0.010351,-0.00502437,0.00340712,-0.00468025,0.00373819,0.0024237,0.00516786,nan,300-200,
318,0.00035312,0.00213773,0.00549216,0.0144731,0.0158279,0.0156579,0.0254876,0.0223694,0.0256398,0.0216091,0.0260694,0.00513904,0.0103357,-0.000169987,0.00982971,-0.00311821,0.0032704,-0.00403074,0.00446031,0.00354535,0.00670149,nan,600-500,
321,0.000984427,0.00271514,0.00774123,0.0131598,0.0149834,0.0192268,0.0207548,0.0216842,0.0269911,0.0233545,0.0259643,0.0067568,0.00724219,0.0042434,0.00152796,0.000929417,0.00530691,-0.00363657,0.00260977,0.00408606,0.00248771,nan,nan,
324,-0.000190312,0.00142906,0.00496178,0.00793245,0.0118801,0.0156302,0.0158008,0.0185724,0.0249996,0.0214219,0.024154,0.00515209,0.00691829,0.00375013,0.000170594,0.00277156,0.00642724,-0.00357771,0.00273213,0.00543068,0.00304318,nan,nan,
327,0.00376327,0.00721549,0.00680938,0.0125993,0.0154063,0.0157048,0.0196305,0.0202953,0.0287118,0.0256753,0.0281681,0.00304611,0.00859693,0.000298513,0.00392567,0.000664779,0.00841652,-0.00303651,0.00249277,0.00773597,0.00476974,nan,nan,
330,0.00648559,0.0100858,0.00849206,0.0142377,0.0175944,0.0200374,0.0243963,0.0260445,0.027644,0.0301288,0.0286262,0.00200647,0.00910234,0.00244302,0.00435888,0.00164819,0.00159956,0.00248478,-0.00150268,0.00246446,0.00618576,nan,nan,
333,0.00324229,0.0084954,0.00729639,0.0116679,0.016908,0.0174213,0.0220137,0.0230091,0.0257685,0.028032,0.0282403,0.0040541,0.00961159,0.000513298,0.00459238,0.000995449,0.00275943,0.00226342,0.000208312,0.0052338,0.00576499,nan,nan,
336,0.00168389,0.00654101,0.00710588,0.0122715,0.0171578,0.0171389,0.0226138,0.022796,0.0260717,0.0296374,0.0288033,0.00542198,0.0100519,-1.88088e-05,0.00547487,0.000182223,0.00327566,0.00356568,-0.000834058,0.00609779,0.00578977,nan,nan,
339,0.000637173,0.00509283,0.00671322,0.0114822,0.0154232,0.0168248,0.0234763,0.023792,0.0254314,0.0294035,0.0284127,0.00607604,0.00870998,0.00140156,0.00665153,0.000315704,0.0016394,0.00397209,-0.000990798,0.004712,0.00704085,nan,nan,
342,-0.000784811,0.00415765,0.00688887,0.0104934,0.0143211,0.0162129,0.023395,0.0230504,0.0250603,0.0292015,0.0272697,0.00767368,0.0074322,0.0018918,0.00718212,-0.000344625,0.00200991,0.00414127,-0.00193184,0.0043607,0.00685347,nan,nan,
345,-0.00108555,0.00419021,0.00676974,0.0109294,0.016269,0.017827,0.0225754,0.0243506,0.0262251,0.0302315,0.0284608,0.00785529,0.00949924,0.00155799,0.00474841,0.0017752,0.00187451,0.00400637,-0.00177065,0.00424037,0.00657721,nan,nan,
348,0.000396805,0.00441369,0.00742431,0.0114904,0.017899,0.0191715,0.023676,0.0260256,0.0288735,0.0299424,0.0298389,0.00702751,0.0104747,0.00127253,0.0045045,0.00234958,0.00284791,0.00106886,-0.000103448,0.00391769,0.00685914,nan,nan,
351,0.00213712,0.00529942,0.00966963,0.012815,0.0188579,0.0202321,0.0240609,0.0280006,0.0307405,0.030998,0.0309079,0.00753251,0.00918829,0.00137415,0.0038288,0.00393973,0.00273991,0.000257458,-9.01001e-05,0.00300657,0.00778754,nan,nan,
354,0.00252796,0.00522287,0.00955193,0.0139771,0.0194609,0.0210484,0.0257685,0.0285754,0.030771,0.0319154,0.0322163,0.00702397,0.00990899,0.00158752,0.00472009,0.00280686,0.00219557,0.0011444,0.00030094,0.00375387,0.0074501,nan,nan,
357,0.00255921,0.00536465,0.00945495,0.0148641,0.02074,0.0237331,0.0271319,0.0308277,0.0323382,0.0334238,0.0330753,0.00689574,0.0112851,0.00299312,0.00339873,0.00369582,0.00151047,0.00108565,-0.000348468,0.0023059,0.00687147,nan,nan,
360,0.00274113,0.00602922,0.00974477,0.0134023,0.0202524,0.0236759,0.027705,0.0309997,0.0333761,0.0336014,0.0347249,0.00700364,0.0105076,0.0034235,0.00402912,0.00329467,0.00237638,0.000225301,0.00112357,0.00380989,0.00703792,nan,nan,
363,0.00209263,0.00543109,0.00898655,0.0125621,0.0186559,0.0227782,0.0278782,0.0301892,0.033914,0.0345085,0.0344183,0.00689392,0.00966933,0.00412236,0.00510001,0.00231095,0.00372485,0.000594499,-9.02012e-05,0.00430418,0.0071894,nan,nan,
366,0.000838609,0.00594863,0.0087481,0.0123822,0.0178728,0.0220173,0.0288235,0.0303269,0.0340785,0.0352954,0.0345773,0.0079095,0.00912468,0.0041445,0.00680625,0.00150339,0.00375154,0.00121691,-0.000718071,0.0043336,0.00813004,nan,nan,
369,-0.00119547,0.00529437,0.00830782,0.0116754,0.017944,0.0215074,0.028959,0.030557,0.0339296,0.0351287,0.0342335,0.00950329,0.00963616,0.00356345,0.00745161,0.00159794,0.00337264,0.00119911,-0.000895237,0.00376742,0.00883952,nan,nan,
372,-0.00138174,0.00531105,0.00837092,0.0122347,0.0198121,0.0218948,0.0291629,0.03074,0.0344504,0.0362145,0.0352723,0.00975265,0.0114412,0.00208272,0.00726808,0.00157711,0.00371039,0.00176408,-0.000942158,0.00462079,0.00873283,nan,nan,
375,-0.00116291,0.00573294,0.00833006,0.0126507,0.0206327,0.0233766,0.0295247,0.0324003,0.034461,0.0362725,0.0368265,0.00949297,0.0123027,0.00274386,0.00614814,0.00287562,0.00206067,0.00181151,0.000553949,0.00443877,0.00893801,nan,nan,
378,-0.000816159,0.00599606,0.00866609,0.014094,0.0211101,0.0240469,0.0295042,0.0330927,0.035423,0.0372574,0.0380709,0.00948225,0.012444,0.0029368,0.00545728,0.00358853,0.00233027,0.00183436,0.00081353,0.00491496,0.00908231,nan,nan,
381,-0.00149186,0.00577642,0.00811922,0.0147174,0.0208758,0.025497,0.0290007,0.0342651,0.0348849,0.0377948,0.0396669,0.00961108,0.0127566,0.0046212,0.00350369,0.00526444,0.00061978,0.0029099,0.00187208,0.00527839,0.00894671,nan,nan,
384,-0.00143513,0.00618495,0.00831651,0.0151523,0.0214866,0.0270853,0.0294585,0.0350823,0.0354039,0.0393869,0.0409626,0.00975164,0.0131701,0.00559875,0.00237314,0.00562382,0.000321569,0.00398301,0.00157569,0.00578785,0.00807786,nan,nan,
387,-0.000235919,0.006667,0.0092432,0.0158578,0.022847,0.0281792,0.0304165,0.0367026,0.0373157,0.0407444,0.0428365,0.00947912,0.0136038,0.00533219,0.00223733,0.00628608,0.000613105,0.00342866,0.00209212,0.00599838,0.00849863,nan,nan,
390,0.000321772,0.00685317,0.0100083,0.0156009,0.0234002,0.0281371,0.0316829,0.0376714,0.0374841,0.0416287,0.0435559,0.00968652,0.013392,0.00473688,0.00354576,0.00598847,-0.000187279,0.00414461,0.00192719,0.00582647,0.00952614,nan,nan,
393,0.00100546,0.00684882,0.0103931,0.015753,0.0235677,0.0284823,0.03266,0.0379259,0.0379935,0.0426645,0.0438645,0.0093876,0.0131746,0.00491455,0.00417777,0.00526585,6.76509e-05,0.00467095,0.00120002,0.00593882,0.00949328,nan,nan,
396,0.0012525,0.00697351,0.00971524,0.0153713,0.024087,0.0285218,0.0335766,0.0378483,0.0393513,0.0428352,0.0436489,0.00846274,0.0143717,0.00443483,0.00505481,0.00427172,0.00150298,0.00348387,0.000813732,0.00581747,0.00936465,nan,nan,
399,0.00131115,0.00613561,0.0091257,0.0148829,0.0245856,0.028977,0.0341763,0.0377108,0.0398026,0.0423999,0.0437486,0.00781454,0.0154599,0.00439145,0.00519921,0.00353453,0.00209182,0.00259733,0.00134867,0.00600152,0.00870108,nan,nan,
402,0.0016579,0.00589746,0.00908191,0.0151155,0.0246685,0.0293795,0.0345745,0.0383165,0.0401823,0.0426424,0.0440646,0.00742401,0.0155866,0.00471099,0.00519496,0.00374204,0.00186581,0.00246011,0.00142219,0.00570209,0.00880271,nan,nan,
405,0.00159693,0.0055224,0.0090002,0.015407,0.0249697,0.0299086,0.0349572,0.038832,0.04057,0.0430857,0.0451039,0.00740328,0.0159695,0.00493892,0.00504864,0.00387481,0.00173799,0.00251562,0.0020182,0.00618971,0.00874578,nan,nan,
408,0.00127526,0.00550865,0.00867479,0.0156695,0.0248249,0.0302087,0.0350082,0.0385227,0.0407338,0.0435306,0.0457015,0.00739953,0.0161501,0.00538386,0.00479947,0.00351451,0.00221114,0.00279674,0.0021709,0.00717251,0.0082338,nan,nan,
411,0.00128173,0.00546638,0.00898979,0.0159566,0.025306,0.0305531,0.0355095,0.0386888,0.0414101,0.0444126,0.047106,0.00770806,0.0163162,0.00524714,0.00495632,0.00317939,0.00272121,0.00300253,0.0026934,0.00849489,0.00797603,nan,nan,
414,0.00103519,0.0062162,0.00992001,0.0164946,0.0256854,0.0310464,0.0357476,0.0397344,0.0425886,0.0455846,0.0485706,0.00888482,0.0157654,0.00536101,0.00470118,0.00398675,0.00285428,0.00299596,0.00298605,0.00893326,0.00842502,nan,nan,
417,0.00110719,0.00646981,0.0108598,0.0172958,0.0264863,0.0319202,0.0368299,0.0409704,0.0437473,0.04714,0.0499844,0.00975265,0.0156265,0.00543392,0.0049097,0.00414046,0.00277692,0.00339266,0.00284447,0.00914956,0.0086667,nan,nan,
420,0.000989888,0.00684195,0.0111024,0.0176901,0.0271397,0.0327795,0.0374042,0.0421491,0.0446358,0.0485966,0.050955,0.0101125,0.0160372,0.0056398,0.00462473,0.00474487,0.0024867,0.00396087,0.00235838,0.00891051,0.00911417,nan,nan,
423,0.000290019,0.00704267,0.0108143,0.0177283,0.0277348,0.0333937,0.0377233,0.0428415,0.0457186,0.049726,0.0516699,0.0105243,0.0169204,0.00565891,0.00432966,0.00511821,0.00287704,0.00400738,0.00194398,0.00896036,0.00930711,nan,nan,
426,0.000404692,0.00708949,0.0104295,0.0171883,0.0280661,0.0336656,0.0387886,0.0437138,0.046393,0.0502782,0.0523828,0.0100248,0.0176367,0.00559945,0.00512296,0.00492527,0.00267914,0.00388523,0.00210466,0.0086395,0.00998473,nan,nan,
429,0.000173425,0.00704753,0.010377,0.0171247,0.0282742,0.0345403,0.0396742,0.0447603,0.0469908,0.0511528,0.0536018,0.0102036,0.0178973,0.00626605,0.00513389,0.00508616,0.00223046,0.004162,0.00244898,0.00873607,0.0102363,nan,nan,
432,-9.02012e-05,0.0070994,0.0111805,0.0171649,0.0287927,0.0352968,0.0410867,0.0456051,0.0481064,0.0524221,0.0546782,0.0112707,0.0176122,0.0065041,0.00578987,0.00451845,0.00250126,0.0043157,0.00225614,0.00897755,0.0104262,nan,nan,
435,-0.000509556,0.00646769,0.0108555,0.0169087,0.0287,0.0357392,0.0421666,0.0458658,0.0486277,0.052961,0.0555202,0.0113651,0.0178445,0.00703924,0.00642744,0.00369916,0.00276186,0.0043333,0.00255921,0.00953352,0.0102985,nan,nan,
438,-0.000437051,0.00661371,0.011271,0.0167716,0.0288155,0.0365994,0.0431046,0.0464015,0.0495115,0.0539787,0.0564612,0.0117081,0.0175444,0.0077839,0.00650521,0.0032969,0.00311002,0.00446719,0.00248256,0.010039,0.00991061,nan,nan,
441,-3.964e-05,0.00740338,0.0119257,0.017672,0.0294049,0.0376332,0.0442591,0.0476126,0.0509418,0.0554879,0.0580271,0.0119653,0.0174792,0.00822833,0.00662585,0.00335352,0.00332915,0.00454616,0.00253918,0.0104655,0.0100171,nan,nan,
444,0.000293457,0.00741127,0.0123447,0.0180334,0.0295336,0.0381218,0.0450164,0.0484313,0.0524531,0.0566925,0.0594523,0.0120513,0.0171889,0.00858813,0.00689463,0.00341491,0.00402184,0.00423936,0.00275983,0.0110582,0.0102799,nan,nan,
447,0.000411164,0.00760502,0.0127994,0.0187076,0.0301996,0.0390886,0.045633,0.0496495,0.0536749,0.0578946,0.0610613,0.0123882,0.0174002,0.00888897,0.00654444,0.00401648,0.00402538,0.00421974,0.00316665,0.0115209,0.0105668,nan,nan,
450,0.000579533,0.00754515,0.0126234,0.0186896,0.0306416,0.0397601,0.0455798,0.0502766,0.0547891,0.0591918,0.0626201,0.0120439,0.0180182,0.00911852,0.0058197,0.00469673,0.00451249,0.00440277,0.00342825,0.0124723,0.0104868,nan,nan,
453,0.000944989,0.00755001,0.0126641,0.0186497,0.0311575,0.0401064,0.0461373,0.0512095,0.0557238,0.0603166,0.0636363,0.0117191,0.0184935,0.00894883,0.00603094,0.0050722,0.00451431,0.00459278,0.00331965,0.0125662,0.0111752,nan,nan,
456,0.000738093,0.0072702,0.0124838,0.0184032,0.0313059,0.0404276,0.0465514,0.051994,0.0562903,0.0609905,0.0645176,0.0117457,0.0188221,0.00912175,0.00612377,0.00544261,0.00429629,0.00470017,0.00352715,0.0125735,0.0116399,nan,nan,
459,4.13591e-05,0.00705966,0.0121155,0.0183535,0.0314999,0.0406465,0.0464566,0.0524105,0.0569501,0.0617665,0.0651741,0.0120741,0.0193845,0.00914653,0.00581009,0.00595389,0.00453969,0.00481636,0.00340762,0.0128379,0.0119027,nan,nan,
462,0.000184548,0.00683871,0.0121234,0.0187513,0.0322534,0.0413053,0.0471828,0.0534101,0.0580269,0.0628143,0.0660762,0.0119388,0.02013,0.00905188,0.00587754,0.00622722,0.00461685,0.00478744,0.00326191,0.0126412,0.0122404,nan,nan,
465,0.000265042,0.00699413,0.0123675,0.0192165,0.0326382,0.0421043,0.0479688,0.05423,0.0589503,0.0636887,0.0668128,0.0121024,0.0202707,0.00946607,0.0058645,0.0062612,0.0047204,0.0047384,0.00312408,0.0125236,0.0123129,nan,nan,
468,0.000227121,0.00744908,0.0125972,0.019915,0.0332843,0.0427866,0.0485676,0.055052,0.0596049,0.0647625,0.0680703,0.0123701,0.020687,0.00950238,0.00578097,0.00648438,0.00455294,0.00515755,0.00330782,0.0130204,0.0123875,nan,nan,
471,0.000544342,0.00772687,0.0126253,0.0205837,0.0339504,0.0434824,0.0494159,0.0558936,0.0605271,0.0658274,0.0691553,0.012081,0.0213251,0.0095319,0.00593356,0.0064777,0.00463343,0.00530033,0.00332794,0.0132805,0.0125525,nan,nan,
474,0.000545657,0.00746213,0.0124856,0.0208194,0.0340865,0.0438672,0.0500124,0.0563836,0.0611111,0.0665291,0.0704053,0.0119399,0.0216009,0.00978077,0.00614521,0.00637112,0.00472758,0.00541794,0.00387623,0.0139889,0.0127821,nan,nan,
477,0.000551926,0.00776004,0.0128016,0.0213316,0.034642,0.0445331,0.0505083,0.0571064,0.0620732,0.0675227,0.0717741,0.0122497,0.0218404,0.00989109,0.00597522,0.00659804,0.00496683,0.00544949,0.00425139,0.0146428,0.0129018,nan,nan,
480,0.000639701,0.00793427,0.0130747,0.0212756,0.0353148,0.0452199,0.0514,0.05778,0.0629832,0.0688968,0.0728975,0.012435,0.0222401,0.00990515,0.0061801,0.00637992,0.00520326,0.00591354,0.00400071,0.0151336,0.0128968,nan,nan,
483,0.000162605,0.00765285,0.0129038,0.0209372,0.0355033,0.0451974,0.0517264,0.058119,0.0633757,0.0695709,0.0736121,0.0127412,0.0225995,0.0096941,0.00652897,0.00639266,0.00525665,0.00619527,0.00404116,0.0154999,0.0132083,nan,nan,
486,-9.50551e-05,0.00730084,0.0127831,0.0208904,0.035446,0.0455028,0.0521741,0.0586839,0.063883,0.0703682,0.0739916,0.0128781,0.0226629,0.0100568,0.00667135,0.00650976,0.00519911,0.00648519,0.00362342,0.0153783,0.0134269,nan,nan,
489,-0.000417636,0.00696238,0.0127778,0.0206836,0.0352278,0.0458589,0.0522867,0.0588883,0.0645334,0.0710169,0.0745334,0.0131955,0.02245,0.0106311,0.00642775,0.00660158,0.00564516,0.00648347,0.00351653,0.0157876,0.0132223,nan,nan,
492,-0.000538477,0.00698564,0.0130189,0.0205737,0.0352633,0.0459471,0.0527463,0.059188,0.0648673,0.0714005,0.0751124,0.0135574,0.0222444,0.0106838,0.00679917,0.0064417,0.00567934,0.00653322,0.0037119,0.0160563,0.0132433,nan,nan,
495,-0.0004054,0.00735676,0.0132585,0.0206942,0.0353144,0.0462232,0.0528841,0.0593279,0.0653867,0.071686,0.0756042,0.0136639,0.0220559,0.0109088,0.00666094,0.00644383,0.00605875,0.00629932,0.00391819,0.0163748,0.0129683,nan,nan,
498,-4.49995e-05,0.00777814,0.0134371,0.0208866,0.0356153,0.0463747,0.0531097,0.0596571,0.065958,0.0720884,0.0762515,0.0134821,0.0221783,0.0107593,0.00673506,0.00654738,0.00630094,0.00613035,0.00416311,0.0165712,0.0130583,nan,nan,
501,-4.76287e-05,0.00746253,0.0133864,0.0206199,0.0352933,0.0460989,0.053115,0.0590941,0.066028,0.0719036,0.0760544,0.013434,0.0219069,0.0108056,0.00701608,0.00597917,0.00693387,0.00587562,0.00415077,0.0169679,0.0127112,nan,nan,
504,0.000167257,0.00737618,0.0133672,0.0207266,0.035164,0.0459207,0.0529166,0.0588858,0.0658422,0.0718294,0.0760161,0.0131999,0.0217968,0.0107567,0.00699585,0.00596926,0.00695642,0.00598716,0.00418667,0.0171804,0.0126513,nan,nan,
507,0.000192942,0.00730165,0.0130564,0.0205557,0.0347306,0.0455902,0.052343,0.0586443,0.0655111,0.0714933,0.0756283,0.0128635,0.0216742,0.0108595,0.00675286,0.00630124,0.00686682,0.0059822,0.004135,0.0171547,0.0126745,nan,nan,
510,-9.13136e-05,0.00691546,0.0124868,0.0199199,0.0340054,0.0445932,0.0514191,0.0578994,0.0646564,0.0707088,0.0750571,0.0125781,0.0215186,0.0105878,0.00682587,0.00648033,0.006757,0.00605238,0.00434837,0.0173133,0.0129418,nan,nan,
513,-0.000157953,0.00636242,0.0118455,0.0198119,0.0331455,0.0439323,0.0507582,0.0572737,0.0639126,0.0701409,0.0745628,0.0120034,0.0213,0.0107868,0.00682587,0.00651552,0.00663889,0.00622823,0.00442198,0.0174113,0.0130467,nan,nan,
516,-0.000279806,0.00596582,0.0115471,0.0193639,0.0322151,0.0431995,0.0498857,0.056514,0.0629654,0.0693956,0.0736471,0.0118269,0.020668,0.0109844,0.00668622,0.00662827,0.00645141,0.00643017,0.00425149,0.0173358,0.0131198,nan,nan,
519,-0.000374456,0.00576165,0.0112642,0.0191225,0.0317142,0.0423989,0.0491068,0.055716,0.0618664,0.0684789,0.0730695,0.0116387,0.02045,0.0106847,0.00670786,0.00660926,0.00615037,0.0066125,0.00459056,0.0174479,0.0132543,nan,nan,
522,-0.00044413,0.00590272,0.0110516,0.018858,0.0310855,0.0417149,0.0483046,0.0547749,0.0608677,0.0674542,0.0723863,0.0114957,0.020034,0.0106294,0.00658965,0.00647032,0.00609283,0.00658651,0.00493205,0.0175729,0.013042,nan,nan,
525,-0.000101224,0.00588624,0.0110993,0.0186429,0.0307461,0.0411314,0.0477197,0.0543873,0.0601255,0.0668949,0.0719226,0.0112005,0.0196468,0.0103853,0.00658833,0.00666761,0.00573819,0.00676944,0.00502771,0.0173852,0.0132853,nan,nan,
528,0.000351401,0.00621671,0.0113408,0.0181832,0.0305345,0.0407954,0.047253,0.0539287,0.0595875,0.0662357,0.0709288,0.0109894,0.0191938,0.0102609,0.00645758,0.0066757,0.00565881,0.00664819,0.00469309,0.0168381,0.0132394,nan,nan,
531,0.000513904,0.00600991,0.0113209,0.0176397,0.0300473,0.0401859,0.0465649,0.0531678,0.0589335,0.0654221,0.0698022,0.010807,0.0187265,0.0101385,0.00637901,0.00660289,0.0057657,0.00648862,0.00438012,0.016396,0.013095,nan,nan,
534,0.00054778,0.00604672,0.0112162,0.017343,0.0297017,0.0397331,0.04587,0.0525121,0.0582404,0.0645419,0.0689635,0.0106684,0.0184855,0.0100314,0.00613682,0.00664213,0.00572828,0.00630155,0.00442158,0.0162889,0.0128944,nan,nan,
537,0.000453332,0.00546668,0.010672,0.0164921,0.0288672,0.0388125,0.0447604,0.0515189,0.0574414,0.0636053,0.0677735,0.0102186,0.0181953,0.00994529,0.00594792,0.00675842,0.00592254,0.00616392,0.00416817,0.0161807,0.0128273,nan,nan,
540,0.000262211,0.00520336,0.010412,0.0161084,0.0284188,0.0381733,0.0441362,0.0507124,0.0567463,0.0626487,0.0668235,0.0101498,0.0180069,0.00975447,0.00596289,0.0065762,0.00603388,0.00590242,0.00417484,0.0160104,0.0127025,nan,nan,
543,0.000164425,0.00490323,0.0104524,0.0161346,0.0279123,0.0374206,0.0435187,0.0498714,0.0562191,0.0619217,0.0659514,0.010288,0.0174599,0.00950824,0.00609809,0.00635272,0.00634776,0.0057026,0.00402963,0.0159732,0.0126203,nan,nan,
546,-1.35504e-05,0.00479159,0.0104475,0.0159357,0.0273434,0.0368328,0.0427796,0.0487535,0.0551736,0.0608059,0.0649209,0.010461,0.0168959,0.00948943,0.00594671,0.00597391,0.00642016,0.00563232,0.00411498,0.016091,0.0120744,nan,nan,
549,-0.000463242,0.00440773,0.0100988,0.0154368,0.0265284,0.0359258,0.0417539,0.0473368,0.053844,0.0594029,0.0637833,0.010562,0.0164296,0.00939741,0.00582809,0.00558297,0.00650713,0.0055589,0.00438042,0.0163456,0.0115862,nan,nan,
552,-0.000670644,0.00406108,0.00951128,0.0145575,0.0254973,0.0347977,0.0405551,0.0459942,0.0523949,0.0577931,0.0623079,0.0101819,0.015986,0.00930033,0.00575741,0.00543917,0.00640065,0.00539822,0.00451481,0.0161834,0.0113247,nan,nan,
555,-0.000842957,0.00400951,0.00936687,0.014297,0.024749,0.0340653,0.0395387,0.0447791,0.0512626,0.0566031,0.0608971,0.0102098,0.0153821,0.00931631,0.00547335,0.00524047,0.00648347,0.00534048,0.00429396,0.0160205,0.0108244,nan,nan,
558,-0.000719587,0.0041984,0.00907058,0.013918,0.0238598,0.0331135,0.0386275,0.0435876,0.0500613,0.0554026,0.0594203,0.00979017,0.0147893,0.00925362,0.00551401,0.00496016,0.00647366,0.00534129,0.0040177,0.0156983,0.0105625,nan,nan,
561,-0.000698453,0.00415532,0.00859187,0.0134788,0.0232432,0.0319981,0.037466,0.042443,0.0487809,0.0542229,0.0579294,0.00929032,0.0146513,0.00875488,0.00546789,0.00497705,0.00633785,0.00544201,0.00370654,0.0154239,0.0104287,nan,nan,
564,-0.000585297,0.00409667,0.00819769,0.013081,0.0224948,0.0308539,0.0365331,0.0413877,0.0474928,0.0531465,0.0566548,0.00878299,0.0142971,0.00835909,0.00567924,0.00485459,0.00610507,0.00565376,0.00350824,0.0152683,0.0105036,nan,nan,
567,-0.000387704,0.00394924,0.00792517,0.0128485,0.0215626,0.0298036,0.0354444,0.0404262,0.0462961,0.052047,0.0552478,0.00831287,0.0136375,0.00824097,0.00564081,0.0049818,0.00586986,0.00575094,0.00320073,0.0148479,0.0105855,nan,nan,
570,-0.000455557,0.00373192,0.00780686,0.0126092,0.0209358,0.02846,0.0345183,0.0394062,0.045108,0.0508376,0.0539177,0.00826241,0.0131289,0.00752422,0.00605825,0.00488796,0.00570179,0.0057296,0.00308009,0.0145115,0.0107993,nan,nan,
573,-0.000431388,0.00333916,0.00774406,0.0123877,0.0202115,0.0274599,0.0333735,0.0385113,0.0439592,0.0495719,0.0525265,0.00817545,0.0124675,0.00724836,0.00591364,0.00513773,0.00544797,0.0056127,0.0029546,0.0140153,0.0108862,nan,nan,
576,-0.000390029,0.00294438,0.00755213,0.0118743,0.0194326,0.0266706,0.0322163,0.0372225,0.0425388,0.0480654,0.0509941,0.00794216,0.0118805,0.00723804,0.00554566,0.00500617,0.00531631,0.00552665,0.00292871,0.0137717,0.0104151,nan,nan,
579,-0.000552432,0.00275903,0.0072886,0.0114006,0.0186353,0.0258019,0.0311068,0.0361715,0.0411058,0.0466237,0.0495725,0.00784104,0.0113466,0.00716665,0.00530488,0.00506472,0.00493427,0.00551795,0.00294873,0.013442,0.0101517,nan,nan,
582,-0.000639802,0.00256699,0.00685519,0.0107288,0.0177573,0.0249412,0.02983,0.0348188,0.0395938,0.0448809,0.0478132,0.00749499,0.0109021,0.00718394,0.00488877,0.00498878,0.004775,0.00528709,0.00293235,0.0129945,0.00982506,nan,nan,
585,-0.000677015,0.00261573,0.00644292,0.010316,0.0170384,0.0242197,0.0286676,0.0335679,0.0381827,0.0434529,0.0462033,0.00711993,0.0105955,0.00718131,0.00444787,0.00490029,0.00461482,0.0052702,0.00275033,0.0126036,0.00937911,nan,nan,
588,-0.000773991,0.00264405,0.00608636,0.00978158,0.0163294,0.0234352,0.0272697,0.0321462,0.0367763,0.0419867,0.0446625,0.00686035,0.010243,0.00710588,0.00383446,0.00487653,0.00463009,0.00521033,0.0026758,0.0124617,0.00880605,nan,nan,
591,-0.000862069,0.00257771,0.00563606,0.00894064,0.015412,0.0223693,0.0259546,0.030622,0.0353812,0.0402525,0.0428455,0.00649813,0.00977591,0.00695733,0.0035853,0.00466741,0.00475923,0.00487127,0.00259298,0.0121143,0.00839023,nan,nan,
594,-0.000640004,0.00247568,0.0054505,0.00856447,0.0144544,0.0213524,0.0247724,0.0291943,0.0340904,0.0385936,0.0413667,0.0060905,0.00900394,0.00689797,0.00341996,0.00442188,0.00489615,0.00450319,0.00277308,0.0120996,0.00799151,nan,nan,
597,-0.000723026,0.00223744,0.00506967,0.00815512,0.0135303,0.020204,0.0234822,0.0275136,0.0325734,0.0369473,0.0394577,0.0057927,0.00846061,0.00667368,0.00327819,0.00403145,0.00505976,0.00437395,0.00251037,0.0119077,0.00741076,nan,nan,
600,-0.000668723,0.00207311,0.00500556,0.00778319,0.0129245,0.0189807,0.0224482,0.0262576,0.0313438,0.0354244,0.0378048,0.00567428,0.0079189,0.00605622,0.00346749,0.00380938,0.00508626,0.00408059,0.00238042,0.0115473,0.00732147,nan,nan,
603,-0.000391951,0.00210193,0.00520862,0.00778886,0.0123481,0.0182258,0.0216021,0.0253606,0.0303778,0.0342694,0.0367134,0.00560057,0.00713945,0.00587774,0.00337628,0.00375852,0.00501719,0.0038916,0.00244403,0.0113892,0.00704581,nan,nan,
606,-0.000154212,0.00232834,0.00516756,0.00753706,0.0117808,0.0171719,0.0209518,0.0243687,0.0289017,0.0329416,0.0354892,0.00532177,0.00661321,0.00539114,0.00377986,0.00341693,0.00453302,0.00403984,0.00254768,0.0111395,0.00700465,nan,nan,
609,-7.48306e-05,0.00216169,0.00493083,0.00708373,0.0111063,0.0161003,0.0198897,0.023129,0.0272262,0.0313873,0.0338558,0.00500566,0.00617545,0.00499403,0.00378936,0.00323936,0.00409718,0.00416109,0.0024685,0.0108708,0.00687734,nan,nan,
612,-7.06846e-05,0.00201062,0.00438194,0.00642825,0.0104295,0.0149979,0.0186548,0.0218906,0.0257061,0.0298842,0.0321109,0.00445262,0.00604753,0.00456841,0.00365689,0.00323582,0.00381555,0.00417808,0.00222672,0.0103451,0.00677328,nan,nan,
615,-0.000351704,0.00169026,0.00384993,0.00564516,0.00942633,0.013794,0.0173212,0.0207114,0.0238828,0.0281409,0.0302059,0.00420164,0.0055764,0.00436768,0.00352715,0.00339023,0.0031714,0.00425806,0.00206502,0.00958803,0.00669501,nan,nan,
618,-0.000617555,0.00146061,0.0032524,0.0049551,0.00842471,0.0125102,0.0158402,0.019265,0.0224673,0.0263279,0.0283116,0.00386996,0.00517231,0.00408545,0.00333006,0.00342482,0.00320224,0.00386065,0.00198362,0.00905208,0.00668328,nan,nan,
621,-0.000560218,0.00109364,0.00301749,0.00452543,0.00754667,0.0115943,0.0147901,0.0179488,0.0210711,0.0246332,0.0268386,0.00357771,0.00452917,0.00404763,0.00319577,0.00315876,0.00312226,0.00356214,0.00220538,0.00883375,0.00630802,nan,nan,
624,-0.000575387,0.000952574,0.00248771,0.00412954,0.00661735,0.0107322,0.0137059,0.0167019,0.0197107,0.0233685,0.0253057,0.0030631,0.00412964,0.00411488,0.00297371,0.00299596,0.0030088,0.0036578,0.0019372,0.00856679,0.00600597,nan,nan,
627,-0.000563151,0.000754171,0.00230792,0.00380119,0.00598433,0.010041,0.0126761,0.0155164,0.0187501,0.0219165,0.0238953,0.00287107,0.00367641,0.00405663,0.00263515,0.00284033,0.00323369,0.00316635,0.00197887,0.00820841,0.00559824,nan,nan,
630,-0.000451411,0.000737688,0.002162,0.00347113,0.0054959,0.00961391,0.0117106,0.0147963,0.0179325,0.0207874,0.0225885,0.00261341,0.00333391,0.00411801,0.00209667,0.00308575,0.00313611,0.00285499,0.00180109,0.00753827,0.00532582,nan,nan,
633,-0.00026848,0.000909597,0.00217353,0.00334068,0.00531581,0.00921944,0.0109973,0.013923,0.0170539,0.0198371,0.0215834,0.00244201,0.00314228,0.00390363,0.00177783,0.00292578,0.00313085,0.00278319,0.00174628,0.00732996,0.00487491,nan,nan,
636,-7.58418e-05,0.00130458,0.00229801,0.0034058,0.00526059,0.00891314,0.0105567,0.0134773,0.0163562,0.0189481,0.0205048,0.00237385,0.00296258,0.00365254,0.00164354,0.00292062,0.00287886,0.00259197,0.00155668,0.00675174,0.00467418,nan,nan,
639,-4.19658e-05,0.00135059,0.0022432,0.00340762,0.00514825,0.00844443,0.00984528,0.012775,0.0154666,0.0179025,0.0193412,0.00228517,0.00290505,0.00329619,0.00140085,0.00292972,0.00269158,0.00243594,0.00143867,0.00643705,0.00433977,nan,nan,
642,-0.000244008,0.0010364,0.00194044,0.00310375,0.00477824,0.00767348,0.00893417,0.011906,0.0142529,0.0165833,0.0178755,0.00218445,0.0028378,0.00289524,0.00126069,0.00297179,0.00234695,0.00233037,0.00129224,0.00592628,0.00418192,nan,nan,
645,-0.000285772,0.000903428,0.00191273,0.00294094,0.00442168,0.00692365,0.00821671,0.0107913,0.0129999,0.0153871,0.0166117,0.0021985,0.00250895,0.00250197,0.00129305,0.00257458,0.00220862,0.0023872,0.00122459,0.00587521,0.00388897,nan,nan,
648,-0.000249874,0.000719385,0.00172222,0.00271939,0.00380372,0.00620538,0.00743483,0.009919,0.0119872,0.0143236,0.0155713,0.00197209,0.0020815,0.00240166,0.00122945,0.00248417,0.00206816,0.00233643,0.00124775,0.00579786,0.00380473,nan,nan,
651,-0.000460411,0.000348468,0.00156103,0.00221489,0.00330387,0.00527273,0.00672717,0.0088827,0.0109638,0.0134836,0.0145557,0.00202144,0.00174285,0.00196885,0.00145444,0.00215553,0.0020811,0.00251977,0.0010721,0.00575872,0.00379118,nan,nan,
654,-0.000705329,7.98867e-06,0.00127364,0.00178815,0.00271544,0.00448064,0.00583618,0.00773081,0.00990272,0.0122964,0.0134627,0.00197897,0.0014418,0.00176519,0.00135555,0.00189463,0.00217191,0.00239367,0.00116635,0.00565709,0.00348144,nan,nan,
657,-0.000513095,-6.28982e-05,0.00128446,0.00144888,0.00241824,0.00422257,0.00541824,0.00713095,0.00935191,0.0115378,0.0126509,0.00179755,0.00113379,0.00180433,0.00119567,0.00171271,0.00222095,0.00218586,0.00111316,0.00538437,0.0031624,nan,nan,
660,-0.00035049,4.18647e-05,0.00119355,0.00154636,0.00225291,0.00420649,0.00509182,0.00698321,0.00903671,0.0110128,0.0121004,0.00154404,0.00105936,0.00195358,0.000885327,0.00189139,0.00205349,0.00197614,0.00108757,0.00496946,0.00302619,nan,nan,
663,-0.000344524,-1.38538e-05,0.00112752,0.0017565,0.00211043,0.00403307,0.00492729,0.00645161,0.00865821,0.0101044,0.0113227,0.00147204,0.00098291,0.00192264,0.000894226,0.00152432,0.00220659,0.00144615,0.00121832,0.00470715,0.00255001,nan,nan,
666,-9.21226e-05,9.61675e-05,0.00124522,0.00187117,0.00200839,0.00409202,0.00468248,0.00623632,0.00818576,0.00951401,0.0104397,0.00133734,0.000763171,0.00208363,0.000590454,0.00155385,0.00194944,0.00132824,0.000925675,0.00415229,0.00216898,nan,nan,
669,-0.000102336,-0.000283446,0.00121195,0.001955,0.00181707,0.0039908,0.00454839,0.00569835,0.00776135,0.00878946,0.00959369,0.00131429,0.000605117,0.00217373,0.000557589,0.00114996,0.002063,0.00102811,0.000804227,0.00394438,0.00173536,nan,nan,
672,4.81343e-05,-0.000211346,0.00135939,0.00179937,0.00172424,0.00405895,0.00431924,0.00554687,0.00745283,0.00808019,0.00883436,0.00131125,0.00036485,0.00233472,0.000260289,0.00122763,0.00190596,0.000627364,0.000754171,0.00343665,0.00158014,nan,nan,
675,6.72464e-05,-0.000230761,0.0011799,0.00180271,0.00141774,0.00395338,0.00381565,0.00514046,0.00691809,0.00761573,0.00780908,0.00111265,0.00023784,0.00253565,-0.000137729,0.00132481,0.00177763,0.000697644,0.000193346,0.00291789,0.00131934,nan,nan,
678,-0.000473961,-0.000358378,0.000537061,0.00129093,0.00098291,0.00338831,0.00286419,0.00427081,0.00604338,0.00665517,0.00691829,0.00101102,0.000445849,0.0024054,-0.000524118,0.00140661,0.00177258,0.000611791,0.000263121,0.00277561,0.00106492,nan,nan,
681,-0.00101406,-0.000642532,0.000329659,0.000612701,0.000867934,0.00261664,0.00216776,0.00345374,0.00499302,0.00590545,0.00583365,0.00134372,0.000538275,0.00174871,-0.000448883,0.00128597,0.00153929,0.000912428,-7.17969e-05,0.00243978,0.000995854,nan,nan,
684,-0.00113095,-0.000580746,5.51117e-05,0.000359693,0.000795227,0.00191587,0.0017027,0.00301224,0.00418647,0.00526848,0.00521984,0.00118607,0.000740115,0.00112064,-0.000213166,0.00130954,0.00117423,0.00108201,-4.86399e-05,0.00222864,0.00119911,nan,nan,
687,-0.000893821,-0.000458489,0.000311862,0.000121853,0.000719385,0.00135929,0.00117959,0.0031258,0.00356194,0.00503236,0.00516493,0.00120568,0.000407524,0.000639903,-0.000179695,0.0019462,0.000436141,0.00147042,0.000132572,0.00204045,0.00173122,nan,nan,
690,-0.00101628,-0.000609768,8.67631e-05,-0.000173223,0.000265345,0.00053696,0.000615836,0.00260158,0.00280443,0.00452847,0.00462251,0.00110304,0.000178582,0.000271615,7.88755e-05,0.00198574,0.000202852,0.00172404,9.40439e-05,0.00203438,0.00183295,nan,nan,
693,-0.00117575,-0.00123521,0.000291839,-0.000591566,0.000129032,-7.04824e-05,7.99879e-05,0.00213864,0.00216109,0.00414956,0.00400637,0.00146759,-0.000162807,-0.000199515,0.00015047,0.00205865,2.24492e-05,0.00198847,-0.000143189,0.00185843,0.00199717,nan,nan,
696,-0.000795227,-0.00122803,0.000366569,-0.000676408,8.0089e-05,7.70553e-05,0.000229042,0.00207402,0.0023698,0.00405754,0.00353848,0.0011618,-0.00028648,-3.03367e-06,0.000151987,0.00184498,0.000295783,0.00168773,-0.000519062,0.0014779,0.0018827,nan,nan,
699,-0.000702093,-0.00112863,0.000448883,-0.000772879,0.00025402,0.000390535,0.000436445,0.00174274,0.00291091,0.00395116,0.00347902,0.00115098,-0.000194863,0.000136515,4.59096e-05,0.0013063,0.00116817,0.00104025,-0.000472141,0.00181707,0.00132288,nan,nan,
702,-3.44828e-05,-0.000616341,0.000631712,-0.000374052,0.000182627,0.000764284,0.000693801,0.0016846,0.00305016,0.003189,0.00266296,0.000666195,-0.000449085,0.000581656,-7.04824e-05,0.000990798,0.00136556,0.000138841,-0.000526039,0.00106067,0.000988674,nan,nan,
705,-0.00016483,-0.000895945,-5.79432e-05,-0.000221256,-0.000144403,0.000673981,0.000276974,0.000701284,0.00251289,0.00230256,0.00158833,0.000106886,-8.64597e-05,0.000818384,-0.000397007,0.00042431,0.00181161,-0.000210335,-0.000714228,0.000961776,0.000145717,nan,nan,
708,-0.000439478,-0.000666599,-0.000568612,-0.000419759,-0.000581555,0.000195571,-0.000358479,-7.78643e-06,0.00157741,0.00143412,0.00100809,-0.000129133,-1.29437e-05,0.000777126,-0.00055405,0.000350693,0.0015852,-0.000143291,-0.000426029,0.00111498,-2.57862e-05,nan,nan,
711,-0.000603802,-0.00072161,-0.00111376,-0.000422995,-0.00112145,-0.000103246,-0.000872383,-0.000406007,0.000851754,0.00075316,0.000569319,-0.000509961,-7.68531e-06,0.0010182,-0.000769137,0.000466377,0.00125776,-9.85944e-05,-0.000183841,0.00100769,-0.000204773,nan,nan,
714,-0.00101325,-0.0010991,-0.00114956,-0.000918293,-0.00139691,-0.0011892,-0.00134341,-0.00125028,-0.000307615,-0.000106077,0.000247244,-0.000136313,-0.000247346,0.000207706,-0.000154212,9.31338e-05,0.000942664,0.000201537,0.000353322,0.00142401,1.47639e-05,nan,nan,
717,-0.00139185,-0.00130195,-0.00080544,-0.00100657,-0.00158894,-0.00211659,-0.00231247,-0.0018106,-0.00145616,-0.000423602,-0.000180908,0.000586409,-0.000783497,-0.000527657,-0.000195874,0.000501871,0.000354434,0.00103256,0.000242694,0.00156224,0.000240166,nan,nan,
720,-0.00151532,-0.00239721,-0.00107139,-0.00182971,-0.00240591,-0.00288391,-0.00326696,-0.00218839,-0.00205117,-0.00145414,-0.00143139,0.000443928,-0.00133451,-0.000478006,-0.000383052,0.00107857,0.000137223,0.000597027,2.27526e-05,0.000768531,0.00054232,nan,nan,
723,-0.000977551,-0.00247902,-0.000838811,-0.00192052,-0.00238598,-0.00226039,-0.00272737,-0.00179047,-0.00225523,-0.00190353,-0.00197785,0.00013874,-0.00154717,0.000125594,-0.000466984,0.0009369,-0.000464759,0.000351704,-7.4325e-05,-0.000147032,0.000354738,nan,nan,
726,-0.000746385,-0.00215138,-0.000991708,-0.00252462,-0.00306533,-0.00220771,-0.00316786,-0.0019098,-0.00241187,-0.00224735,-0.00252108,-0.000245323,-0.00207362,0.00085762,-0.000960158,0.00125806,-0.000502073,0.000164526,-0.000273738,-0.000551219,0.000235818,nan,nan,
729,-0.000798261,-0.00242168,-0.00182597,-0.0027031,-0.00393306,-0.00247396,-0.00385084,-0.00286268,-0.00329892,-0.00318425,-0.00389969,-0.00102771,-0.00210709,0.0014591,-0.00137688,0.000988169,-0.000436242,0.000114673,-0.000715441,-0.00094863,-0.000362221,nan,nan,
732,-0.000584892,-0.00243867,-0.00187977,-0.00238558,-0.00431945,-0.00237911,-0.00426484,-0.00357134,-0.00386804,-0.00314016,-0.00434281,-0.00129487,-0.00243968,0.00194034,-0.00188573,0.000693498,-0.000296693,0.000727879,-0.00120265,-0.000663869,-0.00117939,nan,nan,
735,0.000169683,-0.00190697,-0.00167206,-0.00222833,-0.00440803,-0.00225715,-0.00382122,-0.00431004,-0.00406654,-0.0028375,-0.00473385,-0.00184174,-0.00273597,0.00215087,-0.00156406,-0.000488826,0.000243503,0.00122904,-0.00189635,-0.000336536,-0.00212357,nan,nan,
738,0.00165902,-0.000605825,-0.00122014,-0.000855799,-0.00356659,-0.00135575,-0.0034325,-0.00366407,-0.00355203,-0.00189281,-0.00422702,-0.00287916,-0.00234645,0.00221084,-0.00207675,-0.00023157,0.000112044,0.00165922,-0.00233421,-0.000377288,-0.00237506,nan,nan,
741,0.00220316,-0.000111235,-0.000652442,-4.14602e-05,-0.00246031,-0.00107544,-0.00332481,-0.00383628,-0.00315158,-0.00193457,-0.00355729,-0.0028556,-0.00180787,0.00138487,-0.00224937,-0.000511477,0.0006847,0.00121701,-0.00162271,0.000247042,-0.00274052,nan,nan,
744,0.00226444,0.000608656,0.000325412,0.000595005,-0.00182799,-0.00125655,-0.00212913,-0.00394266,-0.00294529,-0.00172242,-0.00364728,-0.00193902,-0.0021534,0.000571443,-0.000872586,-0.00181353,0.000997371,0.00122287,-0.00192487,0.000250986,-0.0027028,nan,nan,
747,0.00171726,-4.55051e-06,0.000385984,0.00054414,-0.00133836,-0.001703,-0.00331186,-0.00405056,-0.00283163,-0.00368419,-0.00487764,-0.00133128,-0.00172434,-0.000364648,-0.00160886,-0.0007387,0.00121893,-0.000852563,-0.00119345,-0.000843462,-0.00229174,nan,nan,
750,0.0011168,-8.25159e-05,0.000445748,0.000586611,-0.000814137,-0.00180514,-0.00345556,-0.00435737,-0.0024591,-0.00463707,-0.00490151,-0.000671049,-0.00125988,-0.000991,-0.00165042,-0.00090181,0.00189827,-0.00217798,-0.000264435,-0.000653049,-0.00259662,nan,nan,
753,0.000777834,-0.000192739,0.00114825,0.000134897,-2.93255e-06,-0.0020356,-0.00344534,-0.00458489,-0.00266407,-0.0054771,-0.00535069,0.000370412,-0.00115118,-0.00203266,-0.00140975,-0.00113955,0.00192082,-0.00281302,0.000126403,-0.000966326,-0.00258702,nan,nan,
756,-0.000221054,-0.000607544,-0.00016483,-0.000728082,-0.000740216,-0.00264981,-0.00510325,-0.00521812,-0.00362595,-0.00632612,-0.00711629,5.62241e-05,-0.000575387,-0.0019096,-0.00245343,-0.000114875,0.00159217,-0.00270017,-0.000790171,-0.00211336,-0.0025401,nan,nan,
759,-0.00159612,-0.00176701,-0.00161654,-0.00127485,-0.00204176,-0.0039554,-0.00651259,-0.00660481,-0.00529609,-0.00774558,-0.00935858,-2.04267e-05,-0.00042522,-0.00191364,-0.00255718,-9.22237e-05,0.00130873,-0.00244949,-0.001613,-0.00297411,-0.00272343,nan,nan,
762,-0.00153929,-0.0014322,-0.000295682,-0.00153019,-0.00254333,-0.00467975,-0.00689999,-0.00594145,-0.00582445,-0.00686804,-0.00879937,0.0012436,-0.00224765,-0.00213641,-0.00222024,0.00095854,0.000116999,-0.00104358,-0.00193134,-0.00293144,-0.00145465,nan,nan,
765,-0.00119658,-0.00142198,-0.000605926,-0.00210335,-0.00359187,-0.00546122,-0.00799171,-0.00597705,-0.00695824,-0.00730134,-0.00940591,0.000590656,-0.00298594,-0.00186935,-0.00253049,0.00201466,-0.000981191,-0.000343109,-0.00210456,-0.00340176,-0.000823137,nan,nan,
768,-0.00140044,-0.00218465,-0.00155375,-0.00326393,-0.00425827,-0.00641248,-0.00927819,-0.00662918,-0.00825726,-0.00780655,-0.0105687,-0.000153302,-0.00270452,-0.00215421,-0.00286571,0.002649,-0.00162807,0.000450703,-0.00276216,-0.00391668,-0.000391344,nan,nan,
771,-0.00179553,-0.00279361,-0.00194317,-0.00340449,-0.00548286,-0.00640409,-0.00912772,-0.00671797,-0.00914147,-0.00882415,-0.0113089,-0.000147639,-0.00353969,-0.000921226,-0.00272363,0.00240975,-0.0024235,0.000317322,-0.00248478,-0.00454181,-0.000452725,nan,nan,
774,-0.00275822,-0.00295278,-0.00249297,-0.00505956,-0.00733734,-0.00697057,-0.00948185,-0.0070364,-0.00984761,-0.0104281,-0.0131849,0.000265244,-0.00484437,0.000366771,-0.00251128,0.00244544,-0.0028112,-0.000580443,-0.0027568,-0.00606593,-0.000121246,nan,nan,
777,-0.00290838,-0.00303418,-0.00219587,-0.00550359,-0.00738811,-0.00699474,-0.00833745,-0.00790292,-0.0100061,-0.0110384,-0.0128967,0.000712509,-0.00519223,0.000393366,-0.0013427,0.000434523,-0.00210314,-0.00103236,-0.00185823,-0.00495682,-0.000918698,nan,nan,
780,-0.00285813,-0.00224229,-0.00315057,-0.00488361,-0.00683386,-0.00675983,-0.00714167,-0.00807129,-0.00943493,-0.0107193,-0.0123268,-0.000292446,-0.00368328,7.40216e-05,-0.000381838,-0.000929619,-0.00136364,-0.00128436,-0.00160754,-0.00428183,-0.00127192,nan,nan,
783,-0.00222904,-0.00149429,-0.00316372,-0.00326595,-0.00588057,-0.00666286,-0.0053692,-0.00871635,-0.0092525,-0.0102168,-0.0125858,-0.000934675,-0.00271686,-0.000782283,0.00129366,-0.00334715,-0.000536151,-0.000964304,-0.002369,-0.00387683,-0.00192841,nan,nan,
786,-0.000540247,-0.0011113,-0.00312913,-0.000599391,-0.00509168,-0.00574963,-0.00482185,-0.00855143,-0.00831133,-0.00931845,-0.0117747,-0.00258889,-0.00196255,-0.000657953,0.000927786,-0.00372959,0.000240103,-0.00100712,-0.00245624,-0.00329025,-0.00279185,nan,nan,
789,0.000442885,-0.00115995,-0.00285935,0.00137377,-0.0044871,-0.00560257,-0.00457171,-0.00898146,-0.00796003,-0.00886848,-0.0106924,-0.00330224,-0.00162775,-0.00111547,0.00103086,-0.00440975,0.00102143,-0.000908447,-0.00182391,-0.00181691,-0.00346605,nan,nan,
792,0.000428933,-0.00217904,-0.00309488,0.0014518,-0.00470386,-0.00578571,-0.00561049,-0.0100257,-0.00830682,-0.00922966,-0.0104341,-0.00352382,-0.00160897,-0.00108185,0.000175227,-0.00441526,0.00171893,-0.000922838,-0.00120441,-0.000548887,-0.00437551,nan,nan,
795,-0.00110654,-0.00453531,-0.00418955,-0.00141327,-0.00616991,-0.00640235,-0.00839581,-0.011925,-0.0096652,-0.0108086,-0.0116048,-0.00308301,-0.00198037,-0.000232436,-0.00199346,-0.0035292,0.00225981,-0.00114336,-0.000796282,0.000154534,-0.0056134,nan,nan,
798,-0.00468798,-0.0085955,-0.00649716,-0.00826942,-0.00931322,-0.00755578,-0.0133853,-0.01492,-0.0123487,-0.0140118,-0.0148098,-0.00180917,-0.00281607,0.00175745,-0.00582956,-0.00153465,0.00257131,-0.00166308,-0.000798045,-6.59185e-05,-0.00727289,nan,nan,
800,-0.00847124,-0.01243,-0.00888414,-0.015575,-0.0125519,-0.00867395,-0.0181622,-0.0176442,-0.0150286,-0.0172504,-0.0183754,-0.000412908,-0.00366776,0.00387795,-0.00948829,0.000518005,0.0026156,-0.00222175,-0.00112498,-0.000903571,-0.00865946,nan,nan,