File: Figure_codes/Fig_6/UV_vis_comp_Potential_BeforeCVs.csv
波長 (nm),0 mV,50 mV,100 mV,150 mV,200 mV,300 mV,400 mV,500 mV,600 mV,700 mV,800 mV,100-0,200-100,300-200,400-300,500-400,600-500,700-600,800-700,800 - 500,500 - 300,Raw data name,Mod column name
300,0.018,0.001,0.05,0.024,0.055,-0.001,0.071,0.072,0.035,0.037,0.014,0.032,0.005,-0.056,0.072,0.001,-0.037,0.002,-0.023,-0.058,0.073,20221215_1-140_006_0mV.spc - RawData,0 mV
302,0.015,0.002,-0.049,0.036,0.021,0.029,0.004,-0.005,0.019,0.027,0.043,-0.064,0.07,0.008,-0.025,-0.009,0.024,0.008,0.016,0.049,-0.035,20221215_1-140_008_100mV.spc - RawData,100 mV
304,0.017,0.027,0.032,0.036,0.009,0.035,0.045,0.019,0.043,0.04,0.034,0.015,-0.023,0.026,0.01,-0.026,0.024,-0.003,-0.006,0.015,-0.016,20221215_1-140_010_200mV.spc - RawData,200 mV
306,-0.015,-0.017,-0.02,-0.025,0.005,-0.024,0.012,0.014,0.001,-0.02,0.006,-0.005,0.025,-0.029,0.036,0.002,-0.013,-0.021,0.026,-0.008,0.038,20221215_1-140_012_400mV.spc - RawData,400 mV
308,0.004,-0.008,-0.053,0.023,0.018,0.007,0.006,0.032,0.008,-0.008,0.001,-0.057,0.071,-0.011,-0.001,0.026,-0.024,-0.016,0.009,-0.03,0.025,20221215_1-140_014_600mV.spc - RawData,600 mV
310,0.024,0.022,0.037,0.056,0.039,-0.012,0.051,0.05,0.082,0.05,0.053,0.013,0.002,-0.051,0.063,-0.001,0.032,-0.032,0.003,0.003,0.062,20221215_1-140_017_800mV.spc - RawData,800 mV
312,0.004,-0.009,0.002,0.04,0.037,0.04,0.016,0.047,0.014,0.027,0.001,-0.002,0.035,0.003,-0.024,0.031,-0.033,0.013,-0.026,-0.046,0.007,20221215_1-140_013_500mV.spc - 500 mV - 300 mV,500 - 300
314,0.029,0.011,0.022,0.022,-0.003,0.044,0.055,0.035,0.015,0.049,0.035,-0.007,-0.025,0.047,0.011,-0.02,-0.02,0.034,-0.014,0,-0.009,,200-100
316,-0.024,-0.021,0.003,-0.012,0.015,-0.02,-0.018,0.003,0.023,-0.015,0.014,0.027,0.012,-0.035,0.002,0.021,0.02,-0.038,0.029,0.011,0.023,,400-300
318,0.009,-0.007,0.001,0.013,0.03,0.025,0.026,0.03,0.041,0.03,0.024,-0.008,0.029,-0.005,0.001,0.004,0.011,-0.011,-0.006,-0.006,0.005,,600-500
320,0.008,0.022,0.025,0.036,0.023,0.039,0.048,0.028,0.052,0.048,0.048,0.017,-0.002,0.016,0.009,-0.02,0.024,-0.004,0,0.02,-0.012,,800-700
322,-0.003,0.003,-0.004,0.009,0.002,0.009,0.023,0.021,0.017,0.025,0.019,-0.001,0.006,0.007,0.014,-0.002,-0.004,0.008,-0.006,-0.003,0.012,,
324,0.011,0.006,0.008,0.014,0.017,0.024,0.026,0.019,0.026,0.025,0.017,-0.003,0.009,0.007,0.002,-0.007,0.007,-0.001,-0.008,-0.002,-0.005,,
326,-0.016,0.005,0.001,0.006,0.016,0.017,0.018,0.012,0.022,0.023,0.034,0.017,0.015,0.001,0.001,-0.006,0.01,0.001,0.011,0.023,-0.005,,
328,-0.006,0.002,-0.002,0.005,0.02,0.014,0.009,0.023,0.032,0.02,0.029,0.004,0.022,-0.006,-0.005,0.014,0.009,-0.012,0.009,0.006,0.009,,
330,-0.001,0.012,0.009,0.014,0.013,0.021,0.04,0.028,0.036,0.022,0.025,0.01,0.004,0.008,0.019,-0.012,0.008,-0.014,0.003,-0.003,0.007,,
332,0.011,0.004,0.009,0.019,0.033,0.024,0.024,0.026,0.026,0.034,0.038,-0.002,0.024,-0.009,0,0.002,0,0.008,0.004,0.012,0.002,,
334,-0.002,-0.002,0.003,0.004,0.01,0.004,0.017,0.012,0.014,0.021,0.027,0.005,0.007,-0.006,0.013,-0.005,0.002,0.007,0.006,0.014,0.009,,
336,-0.008,0.003,0.002,0.006,0.007,0.007,0.024,0.018,0.011,0.021,0.029,0.01,0.005,0,0.017,-0.006,-0.007,0.01,0.008,0.011,0.011,,
338,0,0.011,0.013,0.012,0.015,0.021,0.029,0.016,0.03,0.025,0.026,0.013,0.002,0.006,0.008,-0.013,0.014,-0.005,0.001,0.01,-0.004,,
340,-0.005,-0.004,-0.002,0.004,0.022,0.019,0.018,0.027,0.02,0.017,0.022,0.003,0.024,-0.003,-0.001,0.009,-0.007,-0.003,0.005,-0.005,0.008,,
342,-0.003,0.001,0.007,-0.006,0.007,0.011,0.015,0.016,0.024,0.027,0.025,0.01,0,0.004,0.004,0.001,0.008,0.003,-0.002,0.009,0.005,,
344,0.005,0.003,0.013,0.011,0.005,0.007,0.022,0.019,0.028,0.023,0.031,0.008,-0.008,0.002,0.015,-0.003,0.009,-0.005,0.008,0.012,0.012,,
346,0,0.005,0.003,0.022,0.012,0.018,0.026,0.028,0.032,0.038,0.026,0.003,0.009,0.006,0.008,0.002,0.004,0.006,-0.012,-0.002,0.01,,
348,-0.003,-0.001,0.005,0.008,0.013,0.013,0.019,0.022,0.022,0.026,0.022,0.008,0.008,0,0.006,0.003,0,0.004,-0.004,0,0.009,,
350,-0.002,0.01,0.005,0.013,0.027,0.022,0.022,0.031,0.025,0.031,0.03,0.007,0.022,-0.005,0,0.009,-0.006,0.006,-0.001,-0.001,0.009,,
352,-0.001,0.001,0.011,0.009,0.019,0.014,0.021,0.028,0.027,0.03,0.026,0.012,0.008,-0.005,0.007,0.007,-0.001,0.003,-0.004,-0.003,0.014,,
354,0.006,0.004,0.011,0.011,0.018,0.015,0.023,0.027,0.033,0.035,0.038,0.005,0.007,-0.003,0.008,0.004,0.006,0.002,0.003,0.011,0.012,,
356,0.01,0.01,0.011,0.021,0.028,0.031,0.034,0.028,0.039,0.04,0.038,0.001,0.017,0.003,0.003,-0.006,0.011,0.001,-0.002,0.01,-0.003,,
358,0.005,0.005,0.006,0.015,0.011,0.024,0.018,0.028,0.02,0.026,0.036,0.001,0.005,0.013,-0.006,0.01,-0.008,0.006,0.01,0.008,0.004,,
360,0.004,0.003,0.016,0.014,0.012,0.015,0.027,0.034,0.04,0.032,0.031,0.012,-0.004,0.003,0.012,0.007,0.006,-0.008,-0.001,-0.003,0.019,,
362,0.002,0.002,0.009,0.011,0.019,0.024,0.029,0.027,0.037,0.038,0.028,0.007,0.01,0.005,0.005,-0.002,0.01,0.001,-0.01,0.001,0.003,,
364,-0.009,0.003,0.004,0.003,0.007,0.02,0.026,0.026,0.02,0.029,0.028,0.013,0.003,0.013,0.006,0,-0.006,0.009,-0.001,0.002,0.005,,
366,0.004,0.005,0.007,0.016,0.028,0.026,0.031,0.029,0.036,0.04,0.034,0.003,0.021,-0.002,0.005,-0.002,0.007,0.004,-0.006,0.005,0.002,,
368,0,0.012,0.011,0.014,0.015,0.025,0.028,0.032,0.033,0.035,0.036,0.011,0.004,0.01,0.003,0.004,0.001,0.002,0.001,0.004,0.007,,
370,0.01,0.006,0.006,0.011,0.025,0.017,0.026,0.031,0.036,0.038,0.034,-0.004,0.019,-0.008,0.009,0.005,0.005,0.002,-0.004,0.003,0.014,,
372,-0.005,0.004,0.009,0.009,0.012,0.015,0.03,0.03,0.03,0.032,0.035,0.014,0.003,0.003,0.015,0,0,0.002,0.003,0.006,0.015,,
374,-0.002,0.006,0.012,0.014,0.022,0.018,0.029,0.029,0.032,0.034,0.035,0.014,0.01,-0.004,0.011,0,0.003,0.002,0.001,0.005,0.012,,
376,0.002,0.009,0.013,0.018,0.024,0.03,0.035,0.032,0.039,0.037,0.045,0.011,0.011,0.006,0.005,-0.003,0.007,-0.002,0.008,0.013,0.002,,
378,-0.005,0.004,0.001,0.011,0.016,0.02,0.032,0.033,0.036,0.034,0.036,0.006,0.015,0.004,0.012,0.001,0.003,-0.002,0.002,0.003,0.013,,
380,-0.004,0,0.001,0.015,0.02,0.025,0.021,0.033,0.034,0.036,0.035,0.005,0.019,0.005,-0.004,0.012,0.001,0.002,-0.001,0.002,0.009,,
382,-0.002,0.005,0.006,0.013,0.022,0.03,0.026,0.032,0.033,0.037,0.041,0.008,0.016,0.008,-0.004,0.006,0.001,0.004,0.004,0.009,0.002,,
384,0,0.008,0.008,0.017,0.024,0.023,0.026,0.039,0.036,0.043,0.04,0.008,0.016,-0.001,0.003,0.013,-0.003,0.007,-0.003,0.001,0.016,,
386,0.004,0.009,0.013,0.018,0.021,0.032,0.036,0.043,0.04,0.044,0.042,0.009,0.008,0.011,0.004,0.007,-0.003,0.004,-0.002,-0.002,0.012,,
388,-0.005,0.005,0.005,0.017,0.019,0.023,0.026,0.032,0.034,0.036,0.042,0.01,0.014,0.004,0.003,0.006,0.002,0.002,0.006,0.01,0.009,,
390,0.002,0.009,0.01,0.017,0.023,0.029,0.03,0.033,0.042,0.044,0.043,0.008,0.013,0.006,0.001,0.003,0.009,0.002,-0.001,0.01,0.005,,
392,-0.001,0.008,0.009,0.015,0.026,0.031,0.027,0.038,0.039,0.043,0.047,0.01,0.017,0.005,-0.004,0.011,0.001,0.004,0.004,0.009,0.008,,
394,0,0.004,0.01,0.013,0.026,0.026,0.035,0.04,0.038,0.044,0.045,0.01,0.016,0,0.009,0.005,-0.002,0.006,0.001,0.005,0.014,,
396,0.002,0.01,0.012,0.011,0.023,0.03,0.033,0.037,0.038,0.044,0.044,0.01,0.011,0.007,0.003,0.004,0.001,0.006,0,0.008,0.006,,
398,-0.002,0.004,0.011,0.016,0.024,0.026,0.033,0.039,0.042,0.039,0.043,0.013,0.013,0.002,0.007,0.006,0.003,-0.003,0.004,0.004,0.013,,
400,0.001,0.004,0.012,0.015,0.023,0.027,0.036,0.038,0.041,0.042,0.038,0.011,0.011,0.004,0.009,0.002,0.003,0.001,-0.004,0,0.011,,
402,0,0.004,0.003,0.014,0.022,0.029,0.033,0.037,0.037,0.043,0.041,0.003,0.019,0.007,0.004,0.004,0,0.006,-0.002,0.004,0.009,,
404,0.004,0.01,0.008,0.017,0.026,0.031,0.033,0.038,0.045,0.04,0.04,0.004,0.018,0.005,0.002,0.005,0.007,-0.005,0,0.002,0.007,,
406,-0.005,0.006,0.006,0.009,0.023,0.027,0.029,0.036,0.037,0.039,0.041,0.011,0.017,0.004,0.002,0.007,0.001,0.002,0.002,0.005,0.008,,
408,0.005,0.006,0.011,0.016,0.029,0.032,0.038,0.037,0.043,0.043,0.046,0.006,0.018,0.003,0.006,-0.001,0.006,0,0.003,0.009,0.004,,
410,0.001,0.007,0.006,0.013,0.021,0.028,0.034,0.041,0.042,0.04,0.047,0.005,0.015,0.007,0.006,0.007,0.001,-0.002,0.007,0.005,0.013,,
412,0.005,0.007,0.009,0.019,0.024,0.034,0.035,0.042,0.04,0.048,0.048,0.004,0.015,0.01,0.001,0.007,-0.002,0.008,0,0.006,0.008,,
414,-0.002,0.005,0.012,0.017,0.024,0.03,0.035,0.038,0.041,0.044,0.047,0.014,0.012,0.006,0.005,0.003,0.003,0.003,0.003,0.01,0.008,,
416,0.002,0.007,0.019,0.018,0.028,0.033,0.042,0.044,0.044,0.05,0.049,0.017,0.009,0.005,0.009,0.002,0,0.006,-0.001,0.005,0.011,,
418,0,0.002,0.006,0.018,0.023,0.029,0.034,0.038,0.041,0.044,0.049,0.006,0.017,0.006,0.005,0.004,0.003,0.003,0.005,0.012,0.009,,
420,0.003,0.011,0.012,0.015,0.028,0.036,0.039,0.043,0.046,0.05,0.05,0.009,0.016,0.008,0.003,0.004,0.003,0.004,0,0.007,0.007,,
422,-0.001,0.004,0.01,0.017,0.027,0.03,0.037,0.041,0.046,0.048,0.054,0.011,0.017,0.003,0.007,0.004,0.005,0.002,0.006,0.013,0.01,,
424,0.005,0.012,0.016,0.024,0.033,0.041,0.043,0.049,0.049,0.054,0.053,0.011,0.017,0.008,0.002,0.006,0,0.005,-0.001,0.004,0.008,,
426,0,0.006,0.01,0.017,0.025,0.033,0.034,0.043,0.049,0.051,0.053,0.01,0.015,0.008,0.001,0.009,0.006,0.002,0.002,0.01,0.01,,
428,-0.003,0.003,0.009,0.014,0.029,0.032,0.04,0.04,0.044,0.046,0.051,0.012,0.02,0.003,0.008,0,0.004,0.002,0.005,0.011,0.008,,
430,0,0.006,0.011,0.017,0.031,0.038,0.039,0.048,0.046,0.052,0.053,0.011,0.02,0.007,0.001,0.009,-0.002,0.006,0.001,0.004,0.011,,
432,0,0.009,0.009,0.017,0.03,0.035,0.041,0.044,0.048,0.055,0.057,0.009,0.021,0.005,0.006,0.003,0.004,0.007,0.002,0.013,0.009,,
434,-0.001,0.007,0.01,0.018,0.029,0.036,0.04,0.046,0.049,0.052,0.056,0.011,0.019,0.007,0.004,0.006,0.003,0.003,0.004,0.01,0.01,,
436,0.003,0.009,0.017,0.017,0.03,0.037,0.044,0.048,0.051,0.056,0.058,0.014,0.013,0.007,0.007,0.004,0.003,0.005,0.002,0.01,0.011,,
438,-0.003,0.006,0.008,0.015,0.026,0.036,0.044,0.045,0.047,0.051,0.056,0.011,0.018,0.01,0.008,0.001,0.002,0.004,0.005,0.01,0.009,,
440,-0.002,0.008,0.011,0.018,0.029,0.039,0.045,0.047,0.051,0.054,0.056,0.013,0.018,0.01,0.006,0.002,0.004,0.003,0.002,0.009,0.008,,
442,-0.001,0.007,0.01,0.019,0.029,0.036,0.042,0.049,0.052,0.058,0.057,0.011,0.019,0.007,0.006,0.007,0.003,0.006,-0.001,0.008,0.013,,
444,0.001,0.005,0.014,0.019,0.032,0.039,0.048,0.048,0.053,0.059,0.059,0.013,0.018,0.007,0.009,0,0.005,0.006,0,0.011,0.009,,
446,0.003,0.007,0.011,0.019,0.032,0.039,0.046,0.052,0.054,0.06,0.061,0.008,0.021,0.007,0.007,0.006,0.002,0.006,0.001,0.009,0.013,,
448,0.001,0.006,0.012,0.019,0.029,0.038,0.044,0.05,0.055,0.057,0.059,0.011,0.017,0.009,0.006,0.006,0.005,0.002,0.002,0.009,0.012,,
450,0.001,0.009,0.013,0.02,0.031,0.041,0.045,0.051,0.054,0.059,0.064,0.012,0.018,0.01,0.004,0.006,0.003,0.005,0.005,0.014,0.01,,
452,0,0.009,0.012,0.021,0.031,0.039,0.048,0.05,0.055,0.061,0.066,0.012,0.019,0.008,0.009,0.002,0.005,0.006,0.005,0.016,0.011,,
454,0.002,0.005,0.008,0.016,0.029,0.039,0.045,0.051,0.055,0.06,0.061,0.006,0.021,0.01,0.006,0.006,0.004,0.005,0.001,0.011,0.011,,
456,0,0.004,0.012,0.016,0.03,0.04,0.049,0.052,0.055,0.06,0.065,0.012,0.018,0.01,0.009,0.003,0.003,0.005,0.005,0.012,0.013,,
458,-0.002,0.007,0.011,0.017,0.03,0.042,0.045,0.052,0.056,0.058,0.066,0.013,0.019,0.012,0.003,0.007,0.004,0.002,0.008,0.015,0.01,,
460,-0.002,0.006,0.013,0.016,0.032,0.041,0.046,0.053,0.059,0.061,0.065,0.015,0.019,0.009,0.005,0.007,0.006,0.002,0.004,0.011,0.012,,
462,0.001,0.006,0.012,0.018,0.032,0.042,0.049,0.052,0.058,0.065,0.066,0.011,0.02,0.01,0.007,0.003,0.006,0.007,0.001,0.014,0.01,,
464,0.003,0.008,0.013,0.019,0.035,0.042,0.051,0.055,0.06,0.065,0.069,0.01,0.022,0.007,0.009,0.004,0.005,0.005,0.004,0.014,0.014,,
466,0,0.006,0.012,0.018,0.033,0.04,0.048,0.055,0.058,0.065,0.068,0.012,0.021,0.007,0.008,0.007,0.003,0.007,0.003,0.013,0.015,,
468,0,0.008,0.013,0.022,0.033,0.045,0.049,0.056,0.061,0.066,0.068,0.013,0.02,0.012,0.004,0.007,0.005,0.005,0.002,0.012,0.011,,
470,0.002,0.008,0.012,0.022,0.034,0.042,0.05,0.055,0.06,0.065,0.067,0.01,0.022,0.008,0.008,0.005,0.005,0.005,0.002,0.012,0.013,,
472,0,0.007,0.012,0.019,0.032,0.044,0.048,0.054,0.06,0.064,0.069,0.012,0.02,0.012,0.004,0.006,0.006,0.004,0.005,0.015,0.01,,
474,0.004,0.011,0.016,0.024,0.038,0.045,0.054,0.061,0.064,0.069,0.073,0.012,0.022,0.007,0.009,0.007,0.003,0.005,0.004,0.012,0.016,,
476,0.001,0.008,0.013,0.019,0.035,0.044,0.05,0.057,0.06,0.066,0.072,0.012,0.022,0.009,0.006,0.007,0.003,0.006,0.006,0.015,0.013,,
478,-0.001,0.008,0.011,0.021,0.035,0.043,0.049,0.056,0.06,0.066,0.071,0.012,0.024,0.008,0.006,0.007,0.004,0.006,0.005,0.015,0.013,,
480,0,0.007,0.011,0.02,0.035,0.044,0.051,0.058,0.061,0.067,0.073,0.011,0.024,0.009,0.007,0.007,0.003,0.006,0.006,0.015,0.014,,
482,0.002,0.009,0.013,0.022,0.039,0.046,0.053,0.06,0.064,0.071,0.074,0.011,0.026,0.007,0.007,0.007,0.004,0.007,0.003,0.013,0.015,,
484,0.001,0.006,0.012,0.022,0.037,0.047,0.05,0.057,0.064,0.069,0.074,0.011,0.025,0.01,0.003,0.007,0.007,0.005,0.005,0.018,0.01,,
486,0.001,0.008,0.014,0.023,0.035,0.046,0.054,0.061,0.064,0.071,0.075,0.013,0.021,0.011,0.008,0.007,0.003,0.007,0.004,0.014,0.015,,
488,0.002,0.007,0.015,0.022,0.038,0.046,0.053,0.061,0.065,0.07,0.076,0.013,0.023,0.008,0.007,0.008,0.004,0.005,0.006,0.015,0.015,,
490,0.001,0.009,0.014,0.022,0.037,0.048,0.054,0.063,0.066,0.075,0.075,0.013,0.023,0.011,0.006,0.009,0.003,0.009,0,0.013,0.014,,
492,-0.002,0.006,0.013,0.018,0.035,0.044,0.052,0.057,0.063,0.072,0.074,0.015,0.022,0.009,0.008,0.005,0.006,0.009,0.002,0.017,0.013,,
494,-0.003,0.006,0.011,0.018,0.032,0.044,0.05,0.057,0.063,0.07,0.074,0.014,0.021,0.012,0.006,0.007,0.006,0.007,0.004,0.017,0.013,,
496,0.003,0.008,0.014,0.024,0.036,0.047,0.056,0.06,0.068,0.073,0.076,0.011,0.022,0.011,0.009,0.004,0.008,0.005,0.003,0.016,0.013,,
498,-0.001,0.006,0.013,0.019,0.035,0.046,0.052,0.06,0.065,0.072,0.075,0.014,0.022,0.011,0.006,0.008,0.005,0.007,0.003,0.016,0.014,,
500,0,0.008,0.016,0.022,0.036,0.047,0.054,0.061,0.068,0.072,0.078,0.016,0.02,0.011,0.007,0.007,0.007,0.004,0.006,0.017,0.013,,
502,0,0.007,0.012,0.02,0.034,0.044,0.051,0.057,0.065,0.07,0.075,0.012,0.022,0.01,0.007,0.006,0.008,0.005,0.005,0.018,0.013,,
504,-0.002,0.009,0.013,0.019,0.035,0.045,0.053,0.058,0.064,0.07,0.076,0.015,0.022,0.01,0.008,0.005,0.006,0.006,0.006,0.018,0.012,,
506,0.002,0.009,0.014,0.023,0.036,0.048,0.052,0.06,0.067,0.074,0.077,0.012,0.022,0.012,0.004,0.008,0.007,0.007,0.003,0.017,0.012,,
508,0,0.007,0.012,0.02,0.033,0.044,0.052,0.059,0.065,0.071,0.077,0.012,0.021,0.011,0.008,0.007,0.006,0.006,0.006,0.017,0.015,,
510,0.002,0.008,0.015,0.02,0.035,0.046,0.053,0.059,0.067,0.071,0.075,0.013,0.02,0.011,0.007,0.006,0.008,0.004,0.004,0.016,0.013,,
512,0.001,0.006,0.011,0.018,0.032,0.045,0.05,0.057,0.061,0.07,0.072,0.01,0.021,0.013,0.005,0.007,0.004,0.009,0.002,0.016,0.011,,
514,-0.001,0.004,0.009,0.019,0.03,0.041,0.047,0.056,0.062,0.068,0.071,0.01,0.021,0.011,0.006,0.009,0.006,0.006,0.003,0.016,0.014,,
516,0,0.008,0.012,0.02,0.034,0.046,0.05,0.057,0.062,0.07,0.075,0.012,0.022,0.012,0.004,0.007,0.005,0.008,0.005,0.019,0.011,,
518,0,0.008,0.013,0.021,0.031,0.043,0.05,0.057,0.064,0.069,0.075,0.013,0.018,0.012,0.007,0.007,0.007,0.005,0.006,0.018,0.014,,
520,0.001,0.005,0.01,0.02,0.032,0.042,0.049,0.056,0.063,0.07,0.074,0.009,0.022,0.01,0.007,0.007,0.007,0.007,0.004,0.018,0.014,,
522,0,0.008,0.012,0.02,0.034,0.043,0.05,0.056,0.062,0.069,0.074,0.012,0.022,0.009,0.007,0.006,0.006,0.007,0.005,0.017,0.013,,
524,0,0.006,0.012,0.019,0.032,0.043,0.05,0.056,0.06,0.068,0.072,0.012,0.02,0.011,0.007,0.006,0.004,0.008,0.004,0.016,0.013,,
526,0,0.004,0.011,0.017,0.03,0.04,0.046,0.054,0.059,0.067,0.07,0.011,0.019,0.01,0.006,0.008,0.005,0.008,0.003,0.016,0.014,,
528,-0.001,0.008,0.011,0.017,0.028,0.04,0.046,0.052,0.058,0.064,0.07,0.012,0.017,0.012,0.006,0.006,0.006,0.006,0.006,0.018,0.012,,
530,0.001,0.007,0.012,0.019,0.033,0.042,0.049,0.053,0.06,0.066,0.071,0.011,0.021,0.009,0.007,0.004,0.007,0.006,0.005,0.018,0.011,,
532,0.001,0.006,0.011,0.016,0.031,0.039,0.045,0.054,0.059,0.066,0.07,0.01,0.02,0.008,0.006,0.009,0.005,0.007,0.004,0.016,0.015,,
534,0.001,0.006,0.011,0.017,0.027,0.04,0.045,0.051,0.059,0.065,0.068,0.01,0.016,0.013,0.005,0.006,0.008,0.006,0.003,0.017,0.011,,
536,0.003,0.005,0.011,0.016,0.029,0.039,0.046,0.054,0.058,0.065,0.068,0.008,0.018,0.01,0.007,0.008,0.004,0.007,0.003,0.014,0.015,,
538,-0.001,0.005,0.011,0.016,0.028,0.038,0.043,0.049,0.057,0.062,0.067,0.012,0.017,0.01,0.005,0.006,0.008,0.005,0.005,0.017,0.011,,
540,0.001,0.007,0.01,0.016,0.029,0.039,0.045,0.051,0.058,0.063,0.066,0.009,0.019,0.01,0.006,0.006,0.007,0.005,0.003,0.015,0.012,,
542,0.002,0.006,0.011,0.017,0.03,0.037,0.046,0.051,0.058,0.063,0.066,0.009,0.019,0.007,0.009,0.005,0.007,0.005,0.003,0.015,0.014,,
544,0.001,0.006,0.012,0.017,0.029,0.038,0.044,0.051,0.057,0.061,0.067,0.011,0.017,0.009,0.006,0.007,0.006,0.004,0.006,0.017,0.013,,
546,-0.002,0.003,0.008,0.015,0.026,0.035,0.041,0.047,0.054,0.06,0.064,0.01,0.018,0.009,0.006,0.006,0.007,0.006,0.004,0.017,0.012,,
548,0,0.004,0.01,0.015,0.026,0.036,0.043,0.047,0.055,0.06,0.065,0.01,0.016,0.01,0.007,0.004,0.008,0.005,0.005,0.018,0.011,,
550,-0.001,0.005,0.012,0.017,0.026,0.037,0.043,0.049,0.055,0.061,0.064,0.013,0.014,0.011,0.006,0.006,0.006,0.006,0.003,0.015,0.012,,
552,-0.002,0.004,0.009,0.015,0.025,0.034,0.04,0.045,0.052,0.056,0.063,0.011,0.016,0.009,0.006,0.005,0.007,0.004,0.007,0.018,0.011,,
554,-0.002,0.004,0.008,0.014,0.025,0.032,0.039,0.043,0.051,0.056,0.059,0.01,0.017,0.007,0.007,0.004,0.008,0.005,0.003,0.016,0.011,,
556,-0.001,0.003,0.008,0.014,0.024,0.034,0.04,0.045,0.051,0.056,0.06,0.009,0.016,0.01,0.006,0.005,0.006,0.005,0.004,0.015,0.011,,
558,-0.001,0.004,0.008,0.013,0.024,0.034,0.038,0.041,0.048,0.055,0.058,0.009,0.016,0.01,0.004,0.003,0.007,0.007,0.003,0.017,0.007,,
560,-0.001,0.004,0.007,0.012,0.022,0.032,0.037,0.041,0.048,0.051,0.056,0.008,0.015,0.01,0.005,0.004,0.007,0.003,0.005,0.015,0.01,,
562,-0.002,0.003,0.007,0.013,0.022,0.03,0.036,0.042,0.047,0.052,0.055,0.009,0.015,0.008,0.006,0.006,0.005,0.005,0.003,0.013,0.012,,
564,-0.001,0.005,0.007,0.013,0.022,0.03,0.037,0.042,0.048,0.053,0.056,0.008,0.015,0.008,0.007,0.005,0.006,0.005,0.003,0.014,0.012,,
566,0,0.005,0.009,0.014,0.021,0.03,0.037,0.041,0.048,0.053,0.057,0.009,0.012,0.009,0.007,0.004,0.007,0.005,0.004,0.016,0.011,,
568,-0.001,0.005,0.008,0.014,0.023,0.029,0.035,0.042,0.045,0.052,0.055,0.009,0.015,0.006,0.006,0.007,0.003,0.007,0.003,0.013,0.013,,
570,0,0.003,0.007,0.011,0.02,0.029,0.034,0.039,0.044,0.05,0.054,0.007,0.013,0.009,0.005,0.005,0.005,0.006,0.004,0.015,0.01,,
572,-0.001,0.002,0.007,0.012,0.021,0.027,0.033,0.037,0.043,0.048,0.052,0.008,0.014,0.006,0.006,0.004,0.006,0.005,0.004,0.015,0.009,,
574,0,0.003,0.009,0.011,0.019,0.028,0.034,0.038,0.043,0.049,0.053,0.009,0.01,0.009,0.006,0.004,0.005,0.006,0.004,0.015,0.01,,
576,0,0.004,0.009,0.014,0.02,0.028,0.032,0.037,0.043,0.049,0.052,0.009,0.011,0.008,0.004,0.005,0.006,0.006,0.003,0.015,0.009,,
578,-0.001,0.002,0.006,0.011,0.017,0.024,0.031,0.035,0.042,0.045,0.049,0.007,0.011,0.007,0.007,0.004,0.007,0.003,0.004,0.014,0.01,,
580,-0.001,0.003,0.007,0.011,0.019,0.026,0.03,0.036,0.041,0.047,0.047,0.008,0.012,0.007,0.004,0.006,0.005,0.006,0,0.011,0.01,,
582,-0.003,0.001,0.007,0.009,0.019,0.023,0.03,0.035,0.039,0.045,0.047,0.01,0.012,0.004,0.007,0.005,0.004,0.006,0.002,0.012,0.011,,
584,0,0.004,0.006,0.01,0.017,0.025,0.029,0.035,0.039,0.044,0.047,0.006,0.011,0.008,0.004,0.006,0.004,0.005,0.003,0.012,0.011,,
586,0,0.003,0.007,0.011,0.018,0.026,0.03,0.034,0.039,0.044,0.048,0.007,0.011,0.008,0.004,0.004,0.005,0.005,0.004,0.014,0.008,,
588,0.001,0.004,0.006,0.01,0.017,0.024,0.029,0.033,0.038,0.043,0.047,0.005,0.011,0.007,0.005,0.004,0.005,0.005,0.004,0.014,0.009,,
590,0,0.004,0.007,0.011,0.016,0.023,0.026,0.031,0.035,0.041,0.044,0.007,0.009,0.007,0.003,0.005,0.004,0.006,0.003,0.013,0.008,,
592,0,0.002,0.006,0.008,0.016,0.022,0.026,0.03,0.034,0.039,0.042,0.006,0.01,0.006,0.004,0.004,0.004,0.005,0.003,0.012,0.008,,
594,-0.001,0.002,0.005,0.008,0.015,0.022,0.024,0.029,0.034,0.038,0.04,0.006,0.01,0.007,0.002,0.005,0.005,0.004,0.002,0.01,0.008,,
596,0,0.003,0.004,0.008,0.015,0.02,0.024,0.028,0.034,0.039,0.04,0.004,0.011,0.005,0.004,0.004,0.006,0.005,0.001,0.012,0.008,,
598,-0.002,0.003,0.005,0.008,0.014,0.019,0.023,0.027,0.033,0.037,0.04,0.007,0.009,0.005,0.004,0.004,0.006,0.004,0.003,0.013,0.008,,
600,-0.001,0.003,0.007,0.009,0.013,0.019,0.022,0.027,0.032,0.036,0.039,0.008,0.006,0.006,0.003,0.005,0.005,0.004,0.003,0.012,0.008,,
602,0,0.002,0.005,0.007,0.012,0.018,0.022,0.025,0.031,0.034,0.036,0.005,0.007,0.006,0.004,0.003,0.006,0.003,0.002,0.011,0.007,,
604,0.001,0.002,0.005,0.008,0.012,0.018,0.023,0.024,0.03,0.034,0.038,0.004,0.007,0.006,0.005,0.001,0.006,0.004,0.004,0.014,0.006,,
606,0,0.001,0.004,0.008,0.011,0.016,0.02,0.024,0.027,0.032,0.034,0.004,0.007,0.005,0.004,0.004,0.003,0.005,0.002,0.011,0.008,,
608,-0.001,0.003,0.005,0.008,0.012,0.017,0.02,0.024,0.028,0.033,0.034,0.006,0.007,0.005,0.003,0.004,0.004,0.005,0.001,0.01,0.006,,
610,0,0.002,0.005,0.007,0.01,0.017,0.02,0.022,0.027,0.031,0.034,0.005,0.005,0.007,0.003,0.002,0.005,0.004,0.003,0.012,0.005,,
612,0.003,0.005,0.007,0.008,0.012,0.018,0.02,0.025,0.029,0.032,0.035,0.004,0.005,0.006,0.002,0.005,0.004,0.003,0.003,0.01,0.007,,
614,-0.001,0.002,0.004,0.005,0.009,0.013,0.017,0.022,0.024,0.029,0.031,0.005,0.005,0.004,0.004,0.005,0.002,0.005,0.002,0.009,0.008,,
616,0,0.001,0.003,0.004,0.009,0.012,0.017,0.019,0.021,0.026,0.028,0.003,0.006,0.003,0.005,0.002,0.002,0.005,0.002,0.009,0.007,,
618,-0.001,0.002,0.002,0.004,0.008,0.011,0.016,0.018,0.021,0.026,0.027,0.003,0.006,0.003,0.005,0.002,0.003,0.005,0.001,0.009,0.008,,
620,0,0,0.005,0.006,0.008,0.013,0.016,0.018,0.022,0.027,0.027,0.005,0.003,0.005,0.003,0.002,0.004,0.005,0,0.009,0.005,,
622,-0.001,0.002,0.001,0.004,0.005,0.011,0.013,0.017,0.02,0.024,0.026,0.002,0.004,0.006,0.002,0.004,0.003,0.004,0.002,0.008,0.006,,
624,-0.001,0,0.002,0.003,0.006,0.01,0.013,0.016,0.019,0.023,0.024,0.003,0.004,0.004,0.003,0.003,0.003,0.004,0.001,0.008,0.006,,
626,-0.003,-0.001,0.003,0.002,0.004,0.008,0.011,0.016,0.016,0.019,0.022,0.006,0.001,0.004,0.003,0.005,0,0.003,0.003,0.006,0.008,,
628,-0.001,0.001,0.002,0.004,0.006,0.009,0.013,0.014,0.02,0.021,0.023,0.003,0.004,0.003,0.004,0.001,0.006,0.001,0.002,0.008,0.006,,
630,0,0.002,0.002,0.004,0.006,0.01,0.012,0.015,0.019,0.022,0.025,0.002,0.004,0.004,0.002,0.003,0.004,0.003,0.003,0.01,0.005,,
632,0.002,0.002,0.005,0.004,0.006,0.012,0.013,0.016,0.018,0.022,0.023,0.003,0.001,0.006,0.001,0.003,0.002,0.004,0.001,0.007,0.004,,
634,-0.001,0.001,0.002,0.002,0.005,0.008,0.012,0.013,0.017,0.021,0.021,0.003,0.003,0.003,0.004,0.001,0.004,0.004,0,0.008,0.005,,
636,-0.001,0.001,0,0.002,0.004,0.008,0.009,0.012,0.015,0.019,0.019,0.001,0.004,0.004,0.001,0.003,0.003,0.004,0,0.007,0.004,,
638,-0.001,0,0.002,0.002,0.005,0.007,0.01,0.012,0.015,0.015,0.019,0.003,0.003,0.002,0.003,0.002,0.003,0,0.004,0.007,0.005,,
640,-0.001,0.001,0.002,0.004,0.005,0.008,0.01,0.013,0.015,0.018,0.017,0.003,0.003,0.003,0.002,0.003,0.002,0.003,-0.001,0.004,0.005,,
642,-0.001,0.002,0.001,0.003,0.005,0.009,0.01,0.013,0.014,0.018,0.018,0.002,0.004,0.004,0.001,0.003,0.001,0.004,0,0.005,0.004,,
644,0,0.003,0.002,0.004,0.005,0.008,0.009,0.011,0.016,0.018,0.019,0.002,0.003,0.003,0.001,0.002,0.005,0.002,0.001,0.007,0.003,,
646,-0.001,0.001,0.002,0.003,0.006,0.005,0.008,0.011,0.013,0.015,0.016,0.003,0.004,-0.001,0.003,0.003,0.002,0.002,0.001,0.006,0.005,,
648,0,0.001,0.002,0.003,0.003,0.007,0.008,0.011,0.012,0.014,0.016,0.002,0.001,0.004,0.001,0.003,0.001,0.002,0.002,0.005,0.004,,
650,0,-0.001,0.003,0.002,0.005,0.006,0.006,0.009,0.011,0.013,0.014,0.003,0.002,0.001,0,0.003,0.002,0.002,0.001,0.006,0.003,,
652,-0.002,-0.002,0.001,0.002,0.002,0.004,0.005,0.007,0.01,0.013,0.014,0.003,0.001,0.002,0.001,0.002,0.003,0.003,0.001,0.007,0.003,,
654,0,0.001,0,0.001,0.003,0.006,0.007,0.008,0.011,0.012,0.014,0,0.003,0.003,0.001,0.001,0.003,0.001,0.002,0.006,0.003,,
656,0,0,0.001,0.001,0.002,0.004,0.006,0.007,0.009,0.011,0.013,0.001,0.001,0.002,0.002,0.001,0.002,0.002,0.002,0.006,0.004,,
658,0.002,0.001,0.003,0.002,0.003,0.003,0.004,0.009,0.01,0.013,0.012,0.001,0,0,0.001,0.005,0.001,0.003,-0.001,0.003,0.006,,
660,-0.001,0,-0.002,0,0.001,0.003,0.005,0.007,0.01,0.01,0.012,-0.001,0.003,0.002,0.002,0.002,0.003,0,0.002,0.004,0.004,,
662,0,0.001,0.002,0.003,0.003,0.003,0.006,0.006,0.009,0.012,0.013,0.002,0.001,0,0.003,0,0.003,0.003,0.001,0.006,0.003,,
664,0,0.001,0.003,0.004,0.006,0.006,0.008,0.007,0.01,0.01,0.011,0.003,0.003,0,0.002,-0.001,0.003,0,0.001,0.004,0.001,,
666,0.003,0.002,0.001,0.005,0.002,0.005,0.005,0.008,0.009,0.009,0.013,-0.002,0.001,0.003,0,0.003,0.001,0,0.004,0.005,0.003,,
668,0,0,0.002,0.002,0.002,0.006,0.005,0.007,0.011,0.011,0.009,0.002,0,0.004,-0.001,0.002,0.004,0,-0.002,0.003,0.001,,
670,-0.001,0,0.001,0.002,0.001,0.004,0.004,0.008,0.008,0.008,0.009,0.002,0,0.003,0,0.004,0,0,0.001,0.001,0.004,,
672,0.001,0,0,0.003,0.002,0.002,0.006,0.005,0.006,0.007,0.01,-0.001,0.002,0,0.004,-0.001,0.001,0.001,0.003,0.005,0.003,,
674,-0.001,-0.001,0,0.001,-0.002,0.002,0.002,0.001,0.005,0.006,0.005,0.001,-0.002,0.004,0,-0.001,0.004,0.001,-0.001,0.004,-0.001,,
676,-0.001,-0.001,0.002,0.001,0.002,0.001,0.002,0.004,0.004,0.006,0.007,0.003,0,-0.001,0.001,0.002,0,0.002,0.001,0.002,0.004,,
678,0.003,0.002,0.003,0.003,0.002,0.007,0.005,0.007,0.008,0.009,0.009,0,-0.001,0.005,-0.002,0.002,0.001,0.001,0,0.003,0,,
680,0,-0.001,0.001,0,0.002,0.002,0.005,0.006,0.007,0.007,0.007,0.001,0.001,0,0.003,0.001,0.001,0,0,0.001,0.005,,
682,-0.002,0,0,-0.001,0.001,0.002,-0.002,0.003,0.006,0.006,0.004,0.002,0.001,0.001,-0.004,0.005,0.003,0,-0.002,0.001,0.001,,
684,0.001,0,0.003,0.001,0.001,0.003,0.002,0.005,0.003,0.004,0.006,0.002,-0.002,0.002,-0.001,0.003,-0.002,0.001,0.002,0.001,0.002,,
686,-0.002,0,-0.002,0,-0.001,0,0.002,0.002,0.001,0.001,0.004,0,0.001,0.001,0.002,0,-0.001,0,0.003,0.002,0.002,,
688,-0.001,-0.004,-0.001,0,0.001,0,0,0.002,0.003,0.002,0.004,0,0.002,-0.001,0,0.002,0.001,-0.001,0.002,0.002,0.002,,
690,-0.001,-0.001,0.001,-0.001,0,-0.001,0.002,0.002,0.002,0.004,0.006,0.002,-0.001,-0.001,0.003,0,0,0.002,0.002,0.004,0.003,,
692,0,0.001,0.001,0.002,0.001,0,0,0.003,0.002,0.007,0.005,0.001,0,-0.001,0,0.003,-0.001,0.005,-0.002,0.002,0.003,,
694,-0.002,0,0.003,-0.001,0,0.002,0.003,0.003,0.003,0.006,0.005,0.005,-0.003,0.002,0.001,0,0,0.003,-0.001,0.002,0.001,,
696,0.003,0,0.001,0.001,0.003,-0.001,0,0.002,0.003,0.004,0.006,-0.002,0.002,-0.004,0.001,0.002,0.001,0.001,0.002,0.004,0.003,,
698,-0.001,-0.004,0,-0.002,-0.001,0.001,-0.001,0.003,0.003,0.003,0.004,0.001,-0.001,0.002,-0.002,0.004,0,0,0.001,0.001,0.002,,
700,-0.003,-0.003,0,0,-0.002,0.001,-0.002,0.001,0.002,0.003,0.002,0.003,-0.002,0.003,-0.003,0.003,0.001,0.001,-0.001,0.001,0,,
702,-0.002,-0.001,0,-0.002,0,0.001,0.001,0.002,0.004,0.003,0,0.002,0,0.001,0,0.001,0.002,-0.001,-0.003,-0.001,0.001,,
704,0.002,0,0,0,0.001,0.002,0.001,0.002,0.004,0.003,0.003,-0.002,0.001,0.001,-0.001,0.001,0.002,-0.001,0,0.001,0.001,,
706,-0.003,-0.001,-0.001,-0.004,-0.002,-0.001,-0.003,-0.001,0.001,0,-0.001,0.002,-0.001,0.001,-0.002,0.002,0.002,-0.001,-0.001,0,0.001,,
708,0.001,0.003,0,0.002,0,0.001,0.002,0.001,0.004,0.004,0.002,-0.001,0,0.001,0.001,-0.001,0.003,0,-0.002,0.001,0,,
710,0,0,0.002,0,0.002,0,0,0,0.002,0.001,0.004,0.002,0,-0.002,0,0,0.002,-0.001,0.003,0.004,0,,
712,0,-0.001,-0.001,0.002,-0.002,-0.002,-0.001,-0.004,0.004,0,-0.001,-0.001,-0.001,0,0.001,-0.003,0.008,-0.004,-0.001,0.002,-0.002,,
714,0,0,-0.002,0,-0.003,-0.001,-0.003,0.001,-0.004,-0.002,-0.003,-0.002,-0.001,0.002,-0.002,0.004,-0.005,0.002,-0.001,-0.004,0.002,,
716,-0.002,-0.002,-0.002,0,-0.002,-0.002,-0.002,-0.002,-0.002,0,0,0,0,0,0,0,0,0.002,0,0.002,0,,
718,-0.001,0.001,-0.004,-0.003,0.001,0,-0.002,-0.005,-0.006,0,-0.001,-0.003,0.005,-0.001,-0.002,-0.003,-0.001,0.006,-0.001,0.004,-0.005,,
720,-0.001,-0.002,-0.002,-0.004,-0.003,-0.003,-0.004,0.001,-0.004,-0.003,0.003,-0.001,-0.001,0,-0.001,0.005,-0.005,0.001,0.006,0.002,0.004,,
722,-0.003,-0.006,-0.001,0,-0.003,-0.004,-0.004,-0.003,-0.001,-0.004,-0.006,0.002,-0.002,-0.001,0,0.001,0.002,-0.003,-0.002,-0.003,0.001,,
724,-0.005,-0.002,0.002,-0.003,-0.003,-0.003,-0.002,-0.005,-0.002,-0.002,0,0.007,-0.005,0,0.001,-0.003,0.003,0,0.002,0.005,-0.002,,
726,-0.002,-0.006,0.001,-0.004,-0.002,-0.007,-0.003,-0.007,-0.007,-0.005,-0.007,0.003,-0.003,-0.005,0.004,-0.004,0,0.002,-0.002,0,0,,
728,-0.003,-0.001,-0.002,-0.001,-0.006,0,-0.003,-0.001,-0.003,-0.005,-0.004,0.001,-0.004,0.006,-0.003,0.002,-0.002,-0.002,0.001,-0.002,-0.001,,
730,-0.004,-0.004,-0.004,-0.003,-0.007,0.001,-0.005,-0.004,-0.002,-0.007,-0.003,0,-0.003,0.008,-0.006,0.001,0.002,-0.005,0.004,0.001,-0.004,,
732,0.004,-0.004,-0.003,-0.004,-0.005,-0.004,-0.003,-0.003,-0.001,-0.005,-0.006,-0.007,-0.002,0.001,0.001,0,0.002,-0.004,-0.001,-0.003,0,,
734,0,0.003,-0.006,0.002,-0.003,0,-0.002,-0.005,-0.007,0,-0.004,-0.006,0.003,0.003,-0.002,-0.003,-0.002,0.007,-0.004,0.001,-0.005,,
736,0.005,-0.001,0.001,-0.001,-0.002,0.001,-0.007,-0.005,-0.003,-0.002,-0.004,-0.004,-0.003,0.003,-0.008,0.002,0.002,0.001,-0.002,0.001,-0.006,,
738,-0.008,-0.005,-0.008,-0.006,-0.01,-0.006,-0.013,-0.012,-0.007,-0.004,-0.01,0,-0.002,0.004,-0.007,0.001,0.005,0.003,-0.006,0.002,-0.006,,
740,0.005,-0.001,0,-0.001,-0.001,0.002,-0.003,-0.002,-0.004,0.001,-0.005,-0.005,-0.001,0.003,-0.005,0.001,-0.002,0.005,-0.006,-0.003,-0.004,,
742,-0.008,-0.008,-0.007,-0.006,-0.01,-0.006,-0.009,-0.013,-0.006,-0.006,-0.009,0.001,-0.003,0.004,-0.003,-0.004,0.007,0,-0.003,0.004,-0.007,,
744,0.008,0.003,0.008,0.003,0.001,0.002,0.002,-0.002,0.002,0.005,0.005,0,-0.007,0.001,0,-0.004,0.004,0.003,0,0.007,-0.004,,
746,0.007,0.005,0.008,0.006,0.002,0.006,0.001,-0.003,0.006,0,0.003,0.001,-0.006,0.004,-0.005,-0.004,0.009,-0.006,0.003,0.007,-0.01,,
748,0.004,0.005,-0.002,0.006,0,0,-0.005,0.001,0.001,-0.006,-0.003,-0.006,0.002,0,-0.005,0.006,0,-0.007,0.003,-0.003,0.001,,
750,0.004,0.002,0.002,0.001,0.002,0,-0.003,-0.002,-0.002,-0.003,-0.006,-0.002,0,-0.002,-0.003,0.001,0,-0.001,-0.003,-0.004,-0.001,,
752,-0.005,-0.009,-0.002,-0.004,-0.004,-0.005,-0.007,-0.013,-0.003,-0.011,-0.012,0.003,-0.002,-0.001,-0.002,-0.006,0.01,-0.008,-0.001,0,-0.008,,
754,0.003,0,0.002,0.003,-0.007,-0.005,-0.002,-0.007,-0.005,-0.005,-0.002,-0.001,-0.009,0.002,0.003,-0.005,0.002,0,0.003,0.006,-0.002,,
756,-0.005,-0.002,-0.002,-0.004,-0.002,-0.004,-0.002,-0.007,-0.002,-0.004,-0.009,0.003,0,-0.002,0.002,-0.005,0.005,-0.002,-0.005,-0.002,-0.003,,
758,-0.005,-0.007,-0.003,0,-0.001,-0.008,-0.013,-0.006,-0.005,-0.01,-0.009,0.002,0.002,-0.007,-0.005,0.007,0.001,-0.005,0.001,-0.002,0.001,,
760,-0.005,-0.004,-0.006,-0.008,-0.006,-0.007,-0.011,-0.011,-0.013,-0.003,-0.014,-0.001,0,-0.001,-0.004,0,-0.002,0.01,-0.011,-0.004,-0.004,,
762,0.001,0.008,0.002,0.005,0.006,0,0.001,-0.005,0,0.001,0.004,0.001,0.004,-0.006,0.001,-0.006,0.005,0.001,0.003,0.008,-0.005,,
764,-0.003,-0.006,-0.001,-0.003,-0.007,-0.003,-0.009,-0.005,-0.005,-0.007,-0.012,0.002,-0.006,0.004,-0.006,0.004,0,-0.002,-0.005,-0.007,-0.002,,
766,0.001,0,0,-0.002,-0.005,-0.004,-0.014,-0.008,-0.007,-0.007,-0.015,-0.001,-0.005,0.001,-0.01,0.006,0.001,0,-0.008,-0.007,-0.004,,
768,0.002,0.001,-0.006,0.002,0,-0.002,-0.012,0.003,-0.011,-0.006,-0.013,-0.008,0.006,-0.002,-0.01,0.015,-0.014,0.005,-0.007,-0.016,0.005,,
770,-0.005,-0.006,-0.007,-0.001,-0.007,-0.008,-0.009,-0.014,-0.013,-0.017,-0.019,-0.002,0,-0.001,-0.001,-0.005,0.001,-0.004,-0.002,-0.006,-0.006,,
772,0.004,-0.004,0.003,-0.007,-0.004,-0.011,-0.007,0,-0.008,-0.01,-0.001,-0.001,-0.007,-0.007,0.004,0.007,-0.008,-0.002,0.009,-0.001,0.011,,
774,-0.006,-0.006,0.001,-0.005,-0.007,-0.008,-0.014,-0.007,-0.009,-0.004,-0.01,0.007,-0.008,-0.001,-0.006,0.007,-0.002,0.005,-0.006,-0.003,0.001,,
776,-0.003,-0.003,-0.011,-0.009,-0.009,-0.011,-0.015,-0.01,-0.014,-0.012,-0.024,-0.008,0.002,-0.002,-0.004,0.005,-0.004,0.002,-0.012,-0.014,0.001,,
778,-0.01,0,0.009,-0.006,-0.004,-0.004,-0.009,-0.003,-0.005,-0.007,-0.011,0.019,-0.013,0,-0.005,0.006,-0.002,-0.002,-0.004,-0.007,0.001,,
780,-0.006,-0.005,-0.017,-0.004,-0.012,-0.009,-0.005,-0.013,-0.012,-0.014,-0.018,-0.011,0.005,0.003,0.004,-0.008,0.001,-0.002,-0.004,-0.005,-0.004,,
782,-0.008,-0.008,-0.005,0,-0.011,0.001,-0.009,-0.007,-0.003,-0.014,-0.015,0.003,-0.006,0.012,-0.01,0.002,0.004,-0.011,-0.001,-0.008,-0.008,,
784,-0.002,-0.001,-0.014,-0.01,-0.011,-0.015,-0.011,-0.017,-0.017,-0.014,-0.022,-0.012,0.003,-0.004,0.004,-0.006,0,0.003,-0.008,-0.005,-0.002,,
786,-0.001,0.002,0.001,-0.007,-0.012,-0.012,-0.008,-0.013,-0.014,-0.014,-0.014,0.002,-0.013,0,0.004,-0.005,-0.001,0,0,-0.001,-0.001,,
788,-0.001,-0.002,-0.01,0.005,0,-0.003,-0.006,-0.011,-0.014,-0.009,-0.009,-0.009,0.01,-0.003,-0.003,-0.005,-0.003,0.005,0,0.002,-0.008,,
790,0.004,-0.001,-0.004,0.007,-0.007,-0.001,-0.002,-0.004,-0.008,-0.001,-0.007,-0.008,-0.003,0.006,-0.001,-0.002,-0.004,0.007,-0.006,-0.004,-0.002,,
792,-0.005,-0.002,-0.016,0.001,-0.008,-0.008,-0.017,-0.016,-0.012,-0.012,-0.023,-0.011,0.008,0,-0.009,0.001,0.004,0,-0.011,-0.006,-0.008,,
794,-0.002,-0.007,-0.002,0,-0.003,-0.009,-0.006,-0.013,-0.011,-0.014,-0.005,0,-0.001,-0.006,0.003,-0.007,0.002,-0.003,0.009,0.008,-0.004,,
796,0,-0.012,0.001,-0.004,-0.012,-0.007,-0.015,-0.011,-0.01,-0.014,-0.013,0.001,-0.013,0.005,-0.008,0.004,0.001,-0.004,0.001,-0.002,-0.004,,
798,-0.006,-0.009,-0.011,-0.005,-0.012,-0.004,-0.015,-0.022,-0.005,-0.012,-0.014,-0.005,-0.001,0.008,-0.011,-0.007,0.017,-0.007,-0.002,0.007,-0.018,,
800,-0.007,-0.008,-0.009,-0.015,-0.017,-0.011,-0.01,-0.013,-0.027,-0.017,-0.018,-0.002,-0.008,0.006,0.001,-0.003,-0.014,0.01,-0.001,-0.005,-0.001,,