File: Figure_codes/Fig_3-5/rawdata_trumpetplot_data/after 10th/20221101_1-115_003_TrumpetPlot_ParaChange_from10_every3_06_CV_C01_30.csv
mode,ox/red,error,control changes,counter inc.,time/s,control/V,Ewe/V,<I>/mA,cycle number,(Q-Qo)/C,I Range,P/W,log(|I|),Tafel slope mV/dec,alpha_eff,dI/d(E-IR),E-IR/V,
2,0,0,0,0,60253.9,2.44065e-05,-0.000439847,-1.4128,31,0.0000000E+000,10,6.21416e-07,-2.84992, , , ,-0.000439847,
2,0,0,1,0,60254,0.00129787,0.000892686,-0.490096,31,-2.70426e-05,10,-4.37501e-07,-3.30972, , , ,0.000892686,
2,1,0,1,0,60254,0.00279427,0.00243757,0.116348,31,-3.25466e-05,10,2.83605e-07,-3.93424,-0.033398,-1.76657,334.726,0.00243757,
2,1,0,1,0,60254,0.00429425,0.00395342,0.479459,31,-2.02499e-05,10,1.8955e-06,-3.31925,0.00333865,17.6718,211.311,0.00395342,
2,1,0,1,0,60254.1,0.00579422,0.00539763,0.736881,31,3.46305e-06,10,3.97741e-06,-3.1326,0.00958391,6.15615,151.433,0.00539763,
2,1,0,1,0,60254.1,0.00729063,0.00696279,0.925657,31,3.5245e-05,10,6.44516e-06,-3.03355,0.018034,3.27159,110.501,0.00696279,
2,1,0,1,0,60254.1,0.00878703,0.00842434,1.07053,31,7.31402e-05,10,9.01847e-06,-2.9704,0.027384,2.15454,86.2553,0.008424337,
2,1,0,1,0,60254.2,0.010287,0.00992875,1.18134,31,0.00011586,10,1.17293e-05,-2.92762,0.0394357,1.49611,67.1741,0.00992875,
2,1,0,1,0,60254.2,0.011787,0.0114423,1.26727,31,0.000162323,10,1.45005e-05,-2.89713,0.0531161,1.11077,54.1811,0.0114423,
2,1,0,1,0,60254.3,0.0132825,0.0129453,1.33953,31,0.00021165,10,1.73407e-05,-2.87305,0.0641369,0.919908,47.9121,0.0129453,
2,1,0,1,0,60254.3,0.014778,0.0144339,1.40109,31,0.000263582,10,2.02232e-05,-2.85353,0.0784768,0.751815,41.0645,0.0144339,
2,1,0,1,0,60254.3,0.0162815,0.0159548,1.46422,31,0.000318134,10,2.33614e-05,-2.83439,0.093582,0.630463,35.8255,0.0159548,
2,1,0,1,0,60254.4,0.017778,0.01744,1.51538,31,0.000374375,10,2.64283e-05,-2.81948,0.112645,0.523769,30.8144,0.01744,
2,1,0,1,0,60254.4,0.0192744,0.0188837,1.55698,31,0.000432285,10,2.94016e-05,-2.80772,0.125005,0.471981,28.6047,0.0188837,
2,1,0,1,0,60254.4,0.0207743,0.0204146,1.60166,31,0.000491961,10,3.26972e-05,-2.79543,0.134865,0.437473,27.2286,0.0204146,
2,1,0,1,0,60254.5,0.0222743,0.0219279,1.64142,31,0.000553221,10,3.59929e-05,-2.78478,0.142914,0.412836,26.3405,0.0219279,
2,1,0,1,0,60254.5,0.0237707,0.023453,1.67617,31,0.000615796,10,3.93113e-05,-2.77568,0.158634,0.371926,24.307,0.02345304,
2,1,0,1,0,60254.6,0.0252671,0.0249466,1.70905,31,0.000679655,10,4.26351e-05,-2.76724,0.160385,0.367864,24.582,0.0249466,
2,1,0,1,0,60254.6,0.0267671,0.0264314,1.74546,31,0.000745042,10,4.61351e-05,-2.75809,0.16044,0.367738,25.084,0.0264314,
2,1,0,1,0,60254.6,0.0282671,0.027913,1.77758,31,0.000811765,10,4.96176e-05,-2.75017,0.1736,0.339863,23.6496,0.027913,
2,1,0,1,0,60254.7,0.0297626,0.0294235,1.81554,31,0.000879609,10,5.34195e-05,-2.74099,0.189232,0.311787,22.0861,0.0294235,
2,1,0,1,0,60254.7,0.0312581,0.0308797,1.85068,31,0.000948696,10,5.71484e-05,-2.73267,0.201433,0.292901,21.1102,0.0308797,
2,1,0,1,0,60254.7,0.0327616,0.0324253,1.88394,31,0.00101933,10,6.10873e-05,-2.72493,0.195836,0.301272,22.0732,0.0324253,
2,1,0,1,0,60254.8,0.034258,0.0339337,1.91729,31,0.00109087,10,6.50608e-05,-2.71731,0.197886,0.298152,22.2603,0.0339337,
2,1,0,1,0,60254.8,0.0357545,0.0354545,1.94574,31,0.00116362,10,6.89853e-05,-2.71092,0.215722,0.273501,20.7833,0.0354545,
2,1,0,1,0,60254.9,0.0372544,0.0368539,1.9779,31,0.0012378,10,7.28935e-05,-2.7038,0.222707,0.264922,20.4432,0.0368539,
2,1,0,1,0,60254.9,0.0387544,0.0383924,2.01051,31,0.00131311,10,7.71883e-05,-2.69669,0.217837,0.270845,21.2848,0.0383924,
2,1,0,1,0,60254.9,0.0402508,0.0399358,2.04224,31,0.00138943,10,8.15586e-05,-2.68989,0.20938,0.281785,22.4814,0.0399358,
2,1,0,1,0,60255,0.0417472,0.0413871,2.07463,31,0.00146704,10,8.58631e-05,-2.68306,0.223857,0.263561,21.3447,0.0413871,
2,1,0,1,0,60255,0.0432472,0.042911,2.11108,31,0.00154605,10,9.05883e-05,-2.6755,0.235268,0.250777,20.6327,0.042911,
2,1,0,1,0,60255,0.0447472,0.0444063,2.1398,31,0.00162615,10,9.50207e-05,-2.66963,0.233704,0.252456,21.0329,0.0444063,
2,1,0,1,0,60255.1,0.0462427,0.0458626,2.1685,31,0.00170725,10,9.94531e-05,-2.66384,0.220687,0.267347,22.6067,0.0458626,
2,1,0,1,0,60255.1,0.0477382,0.0473827,2.20136,31,0.0017895,10,0.000104306,-2.65731,0.231908,0.254411,21.8682,0.0473827,
2,1,0,1,0,60255.2,0.0492417,0.0488777,2.22993,31,0.00187342,10,0.000108994,-2.65171,0.246625,0.23923,20.8438,0.0488777,
2,1,0,1,0,60255.2,0.0507381,0.0504033,2.25794,31,0.00195802,10,0.000113808,-2.64629,0.249068,0.236883,20.9316,0.0504033,
2,1,0,1,0,60255.2,0.0522345,0.051907,2.28978,31,0.00204371,10,0.000118856,-2.64021,0.262718,0.224575,20.0966,0.051907,
2,1,0,1,0,60255.3,0.0537345,0.0533847,2.3235,31,0.00213082,10,0.000124039,-2.63386,0.261759,0.225398,20.4334,0.05338471,
2,1,0,1,0,60255.3,0.0552345,0.0548801,2.35593,31,0.00221911,10,0.000129294,-2.62784,0.292516,0.201699,18.505,0.0548801,
2,1,0,1,0,60255.3,0.0567309,0.0564058,2.38325,31,0.00230822,10,0.000134429,-2.62283,0.29857,0.197609,18.3442,0.0564058,
2,1,0,1,0,60255.4,0.0582273,0.0578866,2.41164,31,0.0023983,10,0.000139602,-2.61769,0.302552,0.195008,18.3154,0.05788656,
2,1,0,1,0,60255.4,0.0597308,0.0593834,2.43857,31,0.00248997,10,0.000144811,-2.61286,0.291614,0.202322,19.2281,0.0593834,
2,1,0,1,0,60255.5,0.0612264,0.0609124,2.4634,31,0.00258225,10,0.000150051,-2.60847,0.326551,0.180676,17.3767,0.0609124,
2,1,0,1,0,60255.5,0.0627219,0.0624133,2.49106,31,0.00267551,10,0.000155475,-2.60362,0.339011,0.174035,16.9484,0.0624133,
2,1,0,1,0,60255.5,0.0642218,0.0638898,2.5164,31,0.00276995,10,0.000160772,-2.59922,0.319649,0.184578,18.1548,0.0638898,
2,1,0,1,0,60255.6,0.0657218,0.0653609,2.54414,31,0.00286539,10,0.000166287,-2.59446,0.341026,0.173008,17.1655,0.0653609,
2,1,0,1,0,60255.6,0.0672182,0.0668847,2.57375,31,0.00296165,10,0.000172144,-2.58943,0.337399,0.174867,17.5299,0.0668847,
2,1,0,1,0,60255.6,0.0687146,0.0683653,2.59904,31,0.00305886,10,0.000177684,-2.58519,0.404746,0.145771,14.7502,0.0683653,
2,1,0,1,0,60255.7,0.0702146,0.0698423,2.61988,31,0.00315718,10,0.000182978,-2.58172,0.3677,0.160457,16.3831,0.0698423,
2,1,0,1,0,60255.7,0.0717146,0.0713907,2.64065,31,0.00325637,10,0.000188517,-2.57829,0.367964,0.160342,16.5292,0.0713907,
2,1,0,1,0,60255.8,0.073211,0.0729011,2.6653,31,0.00335617,10,0.000194303,-2.57425,0.426058,0.138479,14.4078,0.07290113,
2,1,0,1,0,60255.8,0.0747074,0.0743811,2.68221,31,0.00345682,10,0.000199506,-2.57151,0.459976,0.128268,13.4615,0.0743811,
2,1,0,1,0,60255.8,0.0762109,0.0758799,2.70292,31,0.00355875,10,0.000205098,-2.56817,0.479394,0.123072,13.0005,0.0758799,
2,1,0,1,0,60255.9,0.0777064,0.0773585,2.72511,31,0.00366089,10,0.000210811,-2.56462,0.439142,0.134353,14.296,0.0773585,
2,1,0,1,0,60255.9,0.079202,0.0788571,2.75116,31,0.00376383,10,0.000216948,-2.56048,0.489425,0.12055,12.9149,0.0788571,
2,1,0,1,0,60255.9,0.0807019,0.080363,2.76852,31,0.00386781,10,0.000222487,-2.55775,0.506513,0.116483,12.5545,0.080363,
2,1,0,1,0,60256,0.0822019,0.0818631,2.78438,31,0.00397244,10,0.000227938,-2.55527,0.558999,0.105546,11.4701,0.0818631,
2,1,0,1,0,60256,0.0836983,0.0833243,2.80018,31,0.00407738,10,0.000233323,-2.55281,0.57298,0.10297,11.268,0.0833243,
2,1,0,1,0,60256.1,0.0851947,0.0848646,2.81655,31,0.00418306,10,0.000239025,-2.55028,0.518666,0.113753,12.5322,0.0848646,
2,1,0,1,0,60256.1,0.0866947,0.0863853,2.83774,31,0.00428972,10,0.000245139,-2.54703,0.582939,0.101211,11.2186,0.0863853,
2,1,0,1,0,60256.1,0.0881947,0.0878837,2.8575,31,0.00439709,10,0.000251128,-2.54401,0.546716,0.107917,12.0377,0.0878837,
2,1,0,1,0,60256.2,0.0896911,0.0893474,2.87546,31,0.00450478,10,0.000256915,-2.54129,0.473625,0.124571,13.9823,0.0893474,
2,1,0,1,0,60256.2,0.0911875,0.0908374,2.89865,31,0.00461326,10,0.000263306,-2.5378,0.438378,0.134587,15.2127,0.0908374,
2,1,0,1,0,60256.2,0.0926901,0.0923116,2.92584,31,0.00472321,10,0.000270089,-2.53375,0.388315,0.151938,17.324,0.0923116,
2,1,0,1,0,60256.3,0.0941856,0.0938582,2.94744,31,0.0048335,10,0.000276642,-2.53055,0.419539,0.140631,16.1814,0.0938582,
2,1,0,1,0,60256.3,0.095682,0.0953896,2.96914,31,0.00494471,10,0.000283225,-2.52737,0.368091,0.160286,18.6231,0.0953896,
2,1,0,1,0,60256.4,0.097182,0.0968403,2.99829,31,0.00505721,10,0.000290355,-2.52313,0.306992,0.192187,22.5324,0.0968403,
2,1,0,1,0,60256.4,0.098682,0.0983408,3.03172,31,0.00517091,10,0.000298142,-2.51831,0.301787,0.195502,23.1868,0.0983408,
2,1,0,1,0,60256.4,0.100178,0.0998378,3.0702,31,0.0052856,10,0.000306521,-2.51283,0.293945,0.200718,24.0549,0.0998378,
2,1,0,1,0,60256.5,0.101675,0.101332,3.10665,31,0.00540167,10,0.000314804,-2.50771,0.273305,0.215876,26.1789,0.101332,
2,1,0,1,0,60256.5,0.103175,0.102817,3.15036,31,0.00551946,10,0.000323911,-2.50164,0.243465,0.242334,29.8185,0.102817,
2,1,0,1,0,60256.5,0.104675,0.104309,3.20232,31,0.00563899,10,0.000334032,-2.49454,0.224949,0.262282,32.7215,0.104309,
2,1,0,1,0,60256.6,0.106171,0.105854,3.2488,31,0.00576007,10,0.000343899,-2.48828,0.225939,0.261133,33.0603,0.105854,
2,1,0,1,0,60256.6,0.107667,0.107324,3.29542,31,0.00588299,10,0.000353677,-2.48209,0.230727,0.255714,32.9171,0.107324,
2,1,0,1,0,60256.7,0.10917,0.108869,3.34415,31,0.00600838,10,0.000364074,-2.47571,0.223447,0.264045,34.5338,0.108869,
2,1,0,1,0,60256.7,0.110666,0.110299,3.3963,31,0.006135,10,0.000374609,-2.46899,0.219005,0.2694,35.7506,0.110299,
2,1,0,1,0,60256.7,0.112162,0.111817,3.45123,31,0.00626361,10,0.000385907,-2.46203,0.238377,0.247507,33.2877,0.111817,
2,1,0,1,0,60256.8,0.113662,0.11331,3.50118,31,0.00639449,10,0.000396719,-2.45579,0.246584,0.239269,32.6387,0.11331,
2,1,0,1,0,60256.8,0.115162,0.114839,3.5492,31,0.0065271,10,0.000407587,-2.44987,0.264847,0.22277,30.8083,0.114839,
2,1,0,1,0,60256.8,0.116658,0.116329,3.59707,31,0.0066612,10,0.000418445,-2.44405,0.258227,0.228481,32.0083,0.116329,
2,1,0,1,0,60256.9,0.118155,0.117812,3.64349,31,0.00679709,10,0.000429246,-2.43848,0.285075,0.206963,29.3803,0.117812,
2,1,0,1,0,60256.9,0.119655,0.11933,3.68178,31,0.006935,10,0.000439347,-2.43394,0.333898,0.176701,25.3625,0.11933,
2,1,0,1,0,60257,0.121155,0.120794,3.71341,31,0.00707425,10,0.000448559,-2.43023,0.35958,0.16408,23.8169,0.1207941,
2,1,0,1,0,60257,0.122651,0.122303,3.74908,31,0.00721444,10,0.000458525,-2.42608,0.382298,0.15433,22.5849,0.122303,
2,1,0,1,0,60257,0.124147,0.123824,3.78267,31,0.00735588,10,0.000468386,-2.4222,0.448306,0.131606,19.4141,0.123824,
2,1,0,1,0,60257.1,0.12565,0.125288,3.80915,31,0.00749916,10,0.000477243,-2.41917,0.571588,0.103221,15.3224,0.125288,
2,1,0,1,0,60257.1,0.127146,0.126797,3.83086,31,0.00764261,10,0.000485743,-2.4167,0.564856,0.104451,15.6052,0.126797,
2,1,0,1,0,60257.1,0.128642,0.12829,3.85316,31,0.00778678,10,0.000494321,-2.41418,0.661304,0.0892176,13.4087,0.12829,
2,1,0,1,0,60257.2,0.130142,0.129785,3.87116,31,0.00793219,10,0.000502417,-2.41216,0.701941,0.0840526,12.6939,0.129785,
2,1,0,1,0,60257.2,0.131642,0.131317,3.88968,31,0.00807829,10,0.000510779,-2.41009,0.898745,0.0656471,9.9547,0.1313165,
2,1,0,1,0,60257.3,0.133139,0.132811,3.90029,31,0.00822458,10,0.000518001,-2.4089,1.25063,0.0471761,7.18685,0.132811,
2,1,0,1,0,60257.3,0.134635,0.134348,3.9106,31,0.00837121,10,0.000525382,-2.40776,1.53669,0.0383943,5.86685,0.134348,
2,1,0,1,0,60257.3,0.136135,0.135763,3.92247,31,0.00851863,10,0.000532525,-2.40644,1.62746,0.0362528,5.54391,0.135763,
2,1,0,1,0,60257.4,0.137635,0.137296,3.92729,31,0.00866636,10,0.000539203,-2.40591,8.26576,0.00713788,1.0919,0.137296,
2,1,0,1,0,60257.4,0.13913,0.13876,3.93021,31,0.00881376,10,0.000545358,-2.40558,-2.438,-0.0242002,-3.69911,0.13876,
2,1,0,1,0,60257.4,0.140626,0.140255,3.91608,31,0.00896092,10,0.000549252,-2.40715,-0.933199,-0.0632234,-9.63672,0.140255,
2,1,0,1,0,60257.5,0.142129,0.141806,3.89414,31,0.0091083,10,0.000552214,-2.40959,-0.623849,-0.0945742,-14.3455,0.141806,
2,1,0,1,0,60257.5,0.143626,0.143286,3.86494,31,0.00925405,10,0.000553792,-2.41286,-0.387327,-0.152326,-22.9367,0.143286,
2,1,0,1,0,60257.6,0.145122,0.144792,3.82141,31,0.00939851,10,0.00055331,-2.41778,-0.255783,-0.230665,-34.3257,0.144792,
2,1,0,1,0,60257.6,0.146622,0.146252,3.76274,31,0.0095414,10,0.000550307,-2.4245,-0.196272,-0.300603,-44.0909,0.146252,
2,1,0,1,0,60257.6,0.148122,0.147776,3.698,31,0.00968189,10,0.000546478,-2.43203,-0.168117,-0.350946,-50.4841,0.1477764,
2,1,0,1,0,60257.7,0.149619,0.149277,3.61789,31,0.00981918,10,0.00054007,-2.44154,-0.140353,-0.420369,-59.1389,0.149277,
2,1,0,1,0,60257.7,0.151115,0.150742,3.52652,31,0.00995318,10,0.000531595,-2.45265,-0.11962,-0.493228,-67.489,0.150742,
2,1,0,1,0,60257.7,0.152615,0.152255,3.41835,31,0.0100838,10,0.000520461,-2.46618,-0.110319,-0.534814,-71.1562,0.152255,
2,1,0,1,0,60257.8,0.154115,0.153718,3.30767,31,0.0102104,10,0.000508448,-2.48048,-0.103383,-0.570694,-73.5905,0.153718,
2,1,0,1,0,60257.8,0.155611,0.155189,3.18938,31,0.0103325,10,0.000494957,-2.49629,-0.0993906,-0.593617,-73.9905,0.155189,
2,1,0,1,0,60257.9,0.157106,0.156719,3.07708,31,0.0104504,10,0.000482237,-2.51186,-0.0946695,-0.623221,-74.9565,0.156719,
2,1,0,1,0,60257.9,0.15861,0.158245,2.96746,31,0.0105646,10,0.000469586,-2.52762,-0.0937019,-0.629656,-73.0479,0.158245,
2,1,0,1,0,60257.9,0.160106,0.159766,2.85996,31,0.0106741,10,0.000456925,-2.54364,-0.0957188,-0.616389,-68.9133,0.1597663,
2,1,0,1,0,60258,0.161602,0.161214,2.7625,31,0.0107797,10,0.000445354,-2.5587,-0.0991703,-0.594936,-64.1529,0.161214,
2,1,0,1,0,60258,0.163102,0.162699,2.66625,31,0.010882,10,0.000433796,-2.5741,-0.10092,-0.58462,-60.9341,0.162699,
2,1,0,1,0,60258,0.164602,0.164269,2.58272,31,0.0109809,10,0.000424259,-2.58792,-0.104187,-0.566292,-57.076,0.164269,
2,1,0,1,0,60258.1,0.166099,0.165735,2.49945,31,0.0110763,10,0.000414245,-2.60216,-0.112825,-0.522935,-51.135,0.165735,
2,1,0,1,0,60258.1,0.167595,0.16728,2.42476,31,0.0111689,10,0.000405614,-2.61533,-0.123314,-0.478452,-45.4299,0.1672799,
2,1,0,1,0,60258.2,0.169095,0.168687,2.35738,31,0.0112592,10,0.000397659,-2.62757,-0.130476,-0.452192,-41.7829,0.168687,
2,1,0,1,0,60258.2,0.170595,0.170237,2.29911,31,0.0113471,10,0.000391395,-2.63844,-0.136487,-0.432276,-38.8769,0.170237,
2,1,0,1,0,60258.2,0.172091,0.171748,2.24282,31,0.0114326,10,0.000385199,-2.64921,-0.146752,-0.402038,-35.2632,0.171748,
2,1,0,1,0,60258.3,0.173586,0.173239,2.19484,31,0.0115161,10,0.000380232,-2.6586,-0.163684,-0.360451,-30.9049,0.173239,
2,1,0,1,0,60258.3,0.17509,0.174746,2.1532,31,0.0115982,10,0.000376263,-2.66692,-0.172188,-0.342648,-28.7749,0.174746,
2,1,0,1,0,60258.3,0.176586,0.176221,2.11042,31,0.0116784,10,0.000371901,-2.67563,-0.181588,-0.324911,-26.7242,0.176221,
2,1,0,1,0,60258.4,0.178082,0.177757,2.06901,31,0.011757,10,0.000367783,-2.68424,-0.196126,-0.300827,-24.3245,0.177757,
2,1,0,1,0,60258.4,0.179582,0.179239,2.03673,31,0.0118344,10,0.000365061,-2.69107,-0.219362,-0.268962,-21.4392,0.179239,
2,1,0,1,0,60258.5,0.181082,0.180719,2.00637,31,0.0119108,10,0.000362589,-2.69759,-0.252364,-0.233789,-18.3574,0.180719,
2,1,0,1,0,60258.5,0.182579,0.182214,1.98072,31,0.0119859,10,0.000360914,-2.70318,-0.248166,-0.237744,-18.3836,0.182214,
2,1,0,1,0,60258.5,0.184075,0.183744,1.95907,31,0.01206,10,0.000359968,-2.70795,-0.275513,-0.214146,-16.3544,0.183744,
2,1,0,1,0,60258.6,0.185579,0.185212,1.93324,31,0.0121336,10,0.000358059,-2.71371,-0.301921,-0.195415,-14.7445,0.185212,
2,1,0,1,0,60258.6,0.187074,0.186738,1.91511,31,0.0122059,10,0.000357625,-2.71781,-0.359297,-0.16421,-12.2414,0.186738,
2,1,0,1,0,60258.6,0.18857,0.188242,1.89531,31,0.0122776,10,0.000356775,-2.72232,-0.345644,-0.170696,-12.6119,0.188242,
2,1,0,1,0,60258.7,0.19007,0.189743,1.87773,31,0.0123489,10,0.000356286,-2.72637,-0.355772,-0.165836,-12.1577,0.189743,
2,1,0,1,0,60258.7,0.19157,0.1912,1.85691,31,0.0124194,10,0.000355041,-2.73121,-0.414056,-0.142493,-10.3657,0.1912,
2,1,0,1,0,60258.8,0.193066,0.192715,1.84187,31,0.0124892,10,0.000354956,-2.73474,-0.583974,-0.101032,-7.2881,0.192715,
2,1,0,1,0,60258.8,0.194563,0.194218,1.83515,31,0.0125586,10,0.00035642,-2.73633,-0.566315,-0.104182,-7.46575,0.194218,
2,1,0,1,0,60258.8,0.196063,0.195715,1.8226,31,0.0126277,10,0.00035671,-2.73931,-0.512128,-0.115206,-8.19168,0.195715,
2,1,0,1,0,60258.9,0.197563,0.197226,1.80988,31,0.0126964,10,0.000356954,-2.74235,-0.527117,-0.11193,-7.90101,0.197226,
2,1,0,1,0,60258.9,0.199059,0.198737,1.80161,31,0.0127643,10,0.000358046,-2.74434,-0.592897,-0.0995113,-6.99266,0.198737,
2,1,0,1,0,60258.9,0.200555,0.200207,1.79332,31,0.012832,10,0.000359035,-2.74634,-0.721764,-0.0817442,-5.70883,0.200207,
2,1,0,1,0,60259,0.202059,0.201716,1.78264,31,0.0128997,10,0.000359586,-2.74894,-0.739577,-0.0797754,-5.54861,0.201716,
2,1,0,1,0,60259,0.203554,0.203209,1.77173,31,0.0129667,10,0.000360031,-2.7516,-0.799047,-0.0738379,-5.1227,0.203209,
2,1,0,1,0,60259.1,0.20505,0.204674,1.76243,31,0.0130333,10,0.000360725,-2.75389,-1.16755,-0.0505334,-3.49878,0.2046743,
2,1,0,1,0,60259.1,0.20655,0.206206,1.75749,31,0.0130999,10,0.000362405,-2.75511,-1.02744,-0.0574244,-3.94591,0.2062065,
2,1,0,1,0,60259.1,0.20805,0.207688,1.755,31,0.0131664,10,0.000364492,-2.75572,-1.00952,-0.0584435,-3.99731,0.207688,
2,1,0,1,0,60259.2,0.209546,0.209193,1.75088,31,0.0132325,10,0.000366272,-2.75674,-0.778927,-0.0757452,-5.16055,0.209193,
2,1,0,1,0,60259.2,0.211043,0.210671,1.7421,31,0.0132982,10,0.000367009,-2.75893,-0.840659,-0.070183,-4.76601,0.210671,
2,1,0,1,0,60259.2,0.212543,0.212183,1.73512,31,0.0133638,10,0.000368164,-2.76067,-0.997709,-0.0591355,-4.00039,0.212183,
2,1,0,1,0,60259.3,0.214043,0.21373,1.73052,31,0.0134293,10,0.000369865,-2.76182,-1.33972,-0.0440391,-2.97352,0.21373,
2,1,0,1,0,60259.3,0.215539,0.215208,1.72283,31,0.0134944,10,0.000370766,-2.76376,-0.942333,-0.0626105,-4.21732,0.215208,
2,1,0,1,0,60259.4,0.217035,0.216673,1.71505,31,0.0135593,10,0.000371605,-2.76572,-0.920065,-0.0641259,-4.31349,0.216673,
2,1,0,1,0,60259.4,0.218538,0.218204,1.71408,31,0.0136244,10,0.000374019,-2.76597,-3.57124,-0.0165209,-1.10598,0.218204,
2,1,0,1,0,60259.4,0.220034,0.219698,1.7143,31,0.013689,10,0.000376628,-2.76591,-1.99906,-0.0295138,-1.97113,0.219698,
2,1,0,1,0,60259.5,0.22153,0.221209,1.70913,31,0.0137535,10,0.000378076,-2.76722,-1.18008,-0.0499966,-3.32463,0.221209,
2,1,0,1,0,60259.5,0.22303,0.222717,1.70307,31,0.013818,10,0.000379302,-2.76877,-1.32021,-0.0446899,-2.96567,0.222717,
2,1,0,1,0,60259.5,0.22453,0.224196,1.69819,31,0.0138822,10,0.000380729,-2.77001,-1.49509,-0.0394626,-2.61621,0.224196,
2,1,0,1,0,60259.6,0.226026,0.225693,1.69348,31,0.0139462,10,0.000382208,-2.77122,-2.15534,-0.0273738,-1.81329,0.225693,
2,1,0,1,0,60259.6,0.227523,0.227156,1.68968,31,0.0140101,10,0.000383821,-2.7722,-1.27869,-0.0461411,-3.05058,0.227156,
2,1,0,1,0,60259.7,0.229023,0.228711,1.6879,31,0.014074,10,0.000386042,-2.77265,-1.12276,-0.052549,-3.47026,0.228711,
2,1,0,1,0,60259.7,0.230523,0.230215,1.68428,31,0.0141378,10,0.000387746,-2.77359,-1.70691,-0.0345654,-2.27716,0.230215,
2,1,0,1,0,60259.7,0.232019,0.231655,1.6857,31,0.0142012,10,0.0003905,-2.77322,-3.46083,-0.0170479,-1.11937,0.231655,
2,1,0,1,0,60259.8,0.233515,0.233159,1.68394,31,0.0142647,10,0.000392624,-2.77367,-2.14776,-0.0274704,-1.79856,0.233159,
2,1,0,1,0,60259.8,0.235018,0.234667,1.67996,31,0.0143284,10,0.000394231,-2.7747,-2.23838,-0.0263584,-1.72467,0.234667,
2,1,0,1,0,60259.8,0.236514,0.236165,1.67336,31,0.0143915,10,0.000395188,-2.77641,-2.89472,-0.020382,-1.33236,0.236165,
2,1,0,1,0,60259.9,0.23801,0.23769,1.67362,31,0.0144546,10,0.000397802,-2.77634,-20.123,-0.00293197,-0.191224,0.23769,
2,1,0,1,0,60259.9,0.23951,0.239183,1.66805,31,0.0145178,10,0.000398969,-2.77779,-3.06037,-0.0192787,-1.25861,0.239183,
2,1,0,1,0,60260,0.24101,0.24067,1.66647,31,0.0145809,10,0.00040107,-2.7782,-1.96307,-0.030055,-1.95986,0.24067,
2,1,0,1,0,60260,0.242506,0.242138,1.66149,31,0.0146437,10,0.00040231,-2.7795,-1.68078,-0.0351027,-2.28296,0.242138,
2,1,0,1,0,60260,0.244003,0.24362,1.66537,31,0.0147064,10,0.000405717,-2.77849,-5.63953,-0.0104619,-0.678212,0.24362,
2,1,0,1,0,60260.1,0.245503,0.245218,1.66653,31,0.0147693,10,0.000408663,-2.77819,-2.41532,-0.0244274,-1.58209,0.245218,
2,1,0,1,0,60260.1,0.247003,0.246643,1.6622,31,0.0148321,10,0.000409971,-2.77932,-2.44923,-0.0240892,-1.55606,0.246643,
2,1,0,1,0,60260.1,0.248499,0.248176,1.65736,31,0.0148946,10,0.000411319,-2.78058,-2.1806,-0.0270567,-1.74972,0.248176,
2,1,0,1,0,60260.2,0.249995,0.249667,1.65397,31,0.014957,10,0.000412942,-2.78147,-2.10181,-0.028071,-1.81405,0.249667,
2,1,0,1,0,60260.2,0.251498,0.251179,1.65018,31,0.0150196,10,0.000414491,-2.78247,-8.91753,-0.00661618,-0.427464,0.2511794,
2,1,0,1,0,60260.3,0.252994,0.252633,1.64918,31,0.0150819,10,0.000416638,-2.78273,-1.76047,-0.0335138,-2.15937,0.252633,
2,1,0,1,0,60260.3,0.25449,0.254168,1.64697,31,0.0151441,10,0.000418607,-2.78331,-2.1071,-0.0280005,-1.80316,0.254168,
2,1,0,1,0,60260.3,0.25599,0.255655,1.64659,31,0.0152063,10,0.000420959,-2.78341,-2.98232,-0.0197833,-1.27125,0.255655,
2,1,0,1,0,60260.4,0.25749,0.257167,1.64608,31,0.0152685,10,0.000423318,-2.78355,-12.1786,-0.00484456,-0.310556,0.257167,
2,1,0,1,0,60260.4,0.258987,0.258694,1.64665,31,0.0153305,10,0.000425979,-2.7834,-3.88942,-0.0151694,-0.971056,0.258694,
2,1,0,1,0,60260.4,0.260483,0.260183,1.64214,31,0.0153925,10,0.000427257,-2.78459,-1.28678,-0.045851,-2.93687,0.260183,
2,1,0,1,0,60260.5,0.261983,0.261641,1.6357,31,0.0154544,10,0.000427967,-2.7863,-2.15294,-0.0274044,-1.75471,0.261641,
2,1,0,1,0,60260.5,0.263483,0.263129,1.63449,31,0.0155163,10,0.000430084,-2.78662,-10.227,-0.00576905,-0.368434,0.263129,
2,1,0,1,0,60260.6,0.264978,0.264658,1.63224,31,0.0155779,10,0.000431987,-2.78721,-4.80504,-0.0122788,-0.783765,0.2646583,
2,1,0,1,0,60260.6,0.266474,0.266107,1.63448,31,0.0156395,10,0.000434947,-2.78662,-1.51019,-0.0390679,-2.48664,0.266107,
2,1,0,1,0,60260.6,0.267977,0.267647,1.62831,31,0.0157014,10,0.000435811,-2.78826,-2.27156,-0.0259733,-1.64967,0.267647,
2,1,0,1,0,60260.7,0.269474,0.269111,1.62548,31,0.0157627,10,0.000437435,-2.78902,-3.17783,-0.0185661,-1.17855,0.269111,
2,1,0,1,0,60260.7,0.27097,0.270581,1.62738,31,0.0158241,10,0.000440339,-2.78851,-2.61948,-0.0225235,-1.4268,0.270581,
2,1,0,1,0,60260.7,0.27247,0.272121,1.62534,31,0.0158856,10,0.000442288,-2.78906,-2.53097,-0.0233112,-1.47455,0.272121,
2,1,0,1,0,60260.8,0.27397,0.273629,1.61859,31,0.0159469,10,0.000442893,-2.79086,-2.05427,-0.0287206,-1.82026,0.273629,
2,1,0,1,0,60260.8,0.275467,0.27511,1.61434,31,0.016008,10,0.000444121,-2.79201,-1.77168,-0.0333018,-2.10723,0.27511,
2,1,0,1,0,60260.9,0.276963,0.276583,1.61496,31,0.016069,10,0.000446672,-2.79184,-1.63564,-0.0360715,-2.27708,0.2765834,
2,1,0,1,0,60260.9,0.278463,0.278151,1.6168,31,0.0161301,10,0.000449714,-2.79134,-1.5262,-0.0386581,-2.43372,0.278151,
2,1,0,1,0,60260.9,0.279963,0.279633,1.6146,31,0.0161911,10,0.000451495,-2.79194,-2.3837,-0.0247515,-1.55638,0.279633,
2,1,0,1,0,60261,0.281459,0.281103,1.61218,31,0.0162517,10,0.000453187,-2.79259,-2.57993,-0.0228688,-1.43589,0.281103,
2,1,0,1,0,60261,0.282954,0.282616,1.60942,31,0.0163124,10,0.000454848,-2.79333,-3.90149,-0.0151224,-0.947305,0.282616,
2,1,0,1,0,60261,0.284458,0.284108,1.60376,31,0.0163733,10,0.000455642,-2.79486,-8.11909,-0.00726682,-0.45499,0.284108,
2,1,0,1,0,60261.1,0.285954,0.285629,1.59963,31,0.0164338,10,0.000456902,-2.79598,-1.8389,-0.0320843,-2.01034,0.285629,
2,1,0,1,0,60261.1,0.28745,0.287082,1.5933,31,0.0164941,10,0.000457408,-2.7977,-1.96032,-0.0300971,-1.88305,0.287082,
2,1,0,1,0,60261.2,0.28895,0.288633,1.59659,31,0.0165546,10,0.00046083,-2.79681,-3.32971,-0.0177192,-1.10451,0.288633,
2,1,0,1,0,60261.2,0.29045,0.290096,1.59622,31,0.0166149,10,0.000463055,-2.79691,-1.65989,-0.0355444,-2.21143,0.290096,
2,1,0,1,0,60261.2,0.291947,0.29163,1.59342,31,0.016675,10,0.00046469,-2.79767,-1.56663,-0.0376604,-2.34004,0.29163,
2,1,0,1,0,60261.3,0.293443,0.293133,1.58865,31,0.016735,10,0.000465686,-2.79897,-3.55519,-0.0165954,-1.02793,0.293133,
2,1,0,1,0,60261.3,0.294943,0.294575,1.58909,31,0.016795,10,0.000468105,-2.79885,-5.36067,-0.0110061,-0.680671,0.294575,
2,1,0,1,0,60261.3,0.296443,0.296103,1.58563,31,0.016855,10,0.000469511,-2.7998,-3.676,-0.0160501,-0.991947,0.296103,
2,1,0,1,0,60261.4,0.297939,0.297618,1.58233,31,0.0169147,10,0.000470929,-2.8007,-2.98236,-0.019783,-1.22206,0.297618,
2,1,0,1,0,60261.4,0.299434,0.299154,1.57711,31,0.0169744,10,0.000471799,-2.80214,-0.021197,-2.78341,-152.865,0.299154,
2,1,0,0,0,60261.4,0.299962,0.299537,1.52599,31,0.0169979,10,0.000457088,-2.81645,0.00131171,44.9796,1602.5,0.299537,
2,1,0,1,0,60261.5,0.298689,0.298373,0.651893,31,0.0170292,10,0.000194507,-3.18582,0.00273104,21.6035,458.354,0.298373,
2,1,0,1,0,60261.5,0.297189,0.296848,0.201015,31,0.0170436,10,5.96708e-05,-3.69677,0.0043169,13.6672,249.596,0.296848,
2,0,0,1,0,60261.5,0.295692,0.295376,-0.0483421,31,0.0170454,10,-1.42791e-05,-4.31567,0.031016,1.90225,138.375,0.295376,
2,0,0,1,0,60261.6,0.294196,0.293842,-0.202161,31,0.0170399,10,-5.94036e-05,-3.6943,-0.00310089,-19.0268,87.3248,0.293842,
2,0,0,1,0,60261.6,0.292696,0.29236,-0.30506,31,0.0170298,10,-8.91873e-05,-3.51561,-0.00976818,-6.04002,61.7329,0.29236,
2,0,0,1,0,60261.6,0.291196,0.290887,-0.383165,31,0.0170162,10,-0.000111458,-3.41661,-0.0174731,-3.37661,47.1863,0.290887,
2,0,0,1,0,60261.7,0.2897,0.289346,-0.439433,31,0.0170002,10,-0.000127148,-3.35711,-0.0268126,-2.20046,36.9856,0.289346,
2,0,0,1,0,60261.7,0.288205,0.287899,-0.489157,31,0.0169822,10,-0.000140828,-3.31055,-0.0359276,-1.64219,30.7954,0.287899,
2,0,0,1,0,60261.8,0.286701,0.286321,-0.528472,31,0.0169623,10,-0.000151313,-3.27698,-0.0482383,-1.2231,25.1748,0.286321,
2,0,0,1,0,60261.8,0.285205,0.284892,-0.570837,31,0.0169412,10,-0.000162627,-3.24349,-0.0582167,-1.01346,22.3462,0.284892,
2,0,0,1,0,60261.8,0.283708,0.283363,-0.603448,31,0.0169187,10,-0.000170995,-3.21936,-0.0650813,-0.906558,21.0162,0.2833626,
2,0,0,1,0,60261.9,0.282208,0.281845,-0.630126,31,0.016895,10,-0.000177598,-3.20057,-0.0864019,-0.682855,16.5982,0.281845,
2,0,0,1,0,60261.9,0.280709,0.280338,-0.654448,31,0.0168703,10,-0.000183467,-3.18412,-0.0948637,-0.621945,15.8553,0.2803382,
2,0,0,1,0,60261.9,0.279212,0.278853,-0.674879,31,0.0168448,10,-0.000188192,-3.17077,-0.106888,-0.551981,14.6051,0.278853,
2,0,0,1,0,60262,0.277716,0.277442,-0.698875,31,0.0168184,10,-0.000193897,-3.1556,-0.109345,-0.539578,14.7485,0.277442,
2,0,0,1,0,60262,0.276216,0.27585,-0.724015,31,0.0167912,10,-0.00019972,-3.14025,-0.116004,-0.508603,14.3306,0.27585,
2,0,0,1,0,60262.1,0.274716,0.274391,-0.741079,31,0.0167631,10,-0.000203345,-3.13014,-0.149275,-0.395244,11.4136,0.274391,
2,0,0,1,0,60262.1,0.27322,0.272863,-0.759083,31,0.0167345,10,-0.000207126,-3.11971,-0.152465,-0.386973,11.4372,0.272863,
2,0,0,1,0,60262.1,0.271725,0.271392,-0.777067,31,0.0167052,10,-0.00021089,-3.10954,-0.143602,-0.410857,12.4047,0.271392,
2,0,0,1,0,60262.2,0.270221,0.269847,-0.79379,31,0.016675,10,-0.000214202,-3.10029,-0.156878,-0.376089,11.624,0.269847,
2,0,0,1,0,60262.2,0.268725,0.268386,-0.809438,31,0.0166445,10,-0.000217242,-3.09182,-0.211375,-0.279125,8.80432,0.268386,
2,0,0,1,0,60262.2,0.267228,0.266871,-0.82113,31,0.0166133,10,-0.000219136,-3.08559,-0.199718,-0.295417,9.50968,0.266871,
2,0,0,1,0,60262.3,0.265728,0.265379,-0.835555,31,0.0165816,10,-0.000221739,-3.07802,-0.195385,-0.301967,9.89699,0.265379,
2,0,0,1,0,60262.3,0.264228,0.263914,-0.853289,31,0.0165493,10,-0.000225195,-3.0689,-0.216532,-0.272477,9.07491,0.263914,
2,0,0,1,0,60262.4,0.262732,0.262345,-0.8658,31,0.0165165,10,-0.000227138,-3.06258,-0.233993,-0.252144,8.5181,0.262345,
2,0,0,1,0,60262.4,0.261236,0.260905,-0.87923,31,0.0164832,10,-0.000229395,-3.0559,-0.270048,-0.218479,7.49361,0.260905,
2,0,0,1,0,60262.4,0.259736,0.259364,-0.894908,31,0.0164495,10,-0.000232107,-3.04822,-0.227191,-0.259693,9.0626,0.259364,
2,0,0,1,0,60262.5,0.258236,0.25795,-0.9037,31,0.0164153,10,-0.00023311,-3.04398,-0.262585,-0.224689,7.91804,0.25795,
2,0,0,1,0,60262.5,0.256741,0.256337,-0.91872,31,0.0163806,10,-0.000235502,-3.03682,-0.281332,-0.209716,7.49,0.256337,
2,0,0,1,0,60262.5,0.255241,0.25488,-0.927556,31,0.0163454,10,-0.000236416,-3.03266,-0.297177,-0.198535,7.19033,0.25488,
2,0,0,1,0,60262.6,0.253741,0.253379,-0.936572,31,0.0163098,10,-0.000237308,-3.02846,-0.275214,-0.214379,7.88022,0.253379,
2,0,0,1,0,60262.6,0.252245,0.251915,-0.951956,31,0.0162739,10,-0.000239812,-3.02138,-0.251888,-0.234231,8.69313,0.251915,
2,0,0,1,0,60262.7,0.250748,0.2504,-0.962504,31,0.0162375,10,-0.000241011,-3.0166,-0.304912,-0.193499,7.28358,0.2504,
2,0,0,1,0,60262.7,0.249248,0.248877,-0.974275,31,0.0162007,10,-0.000242475,-3.01132,-0.349532,-0.168797,6.39418,0.248877,
2,0,0,1,0,60262.7,0.247748,0.247436,-0.984254,31,0.0161634,10,-0.00024354,-3.00689,-0.335265,-0.17598,6.73994,0.2474364,
2,0,0,1,0,60262.8,0.246252,0.245885,-0.995899,31,0.0161259,10,-0.000244876,-3.00178,-0.299019,-0.197312,7.6333,0.245885,
2,0,0,1,0,60262.8,0.244756,0.244421,-1.00784,31,0.0160879,10,-0.000246337,-2.99661,-0.317424,-0.185871,7.28112,0.244421,
2,0,0,1,0,60262.8,0.243252,0.242925,-1.01354,31,0.0160493,10,-0.000246216,-2.99416,-0.395653,-0.149121,5.90539,0.242925,
2,0,0,1,0,60262.9,0.241756,0.241409,-1.02013,31,0.0160106,10,-0.00024627,-2.99134,-0.366648,-0.160917,6.45176,0.241409,
2,0,0,1,0,60262.9,0.240261,0.239931,-1.02996,31,0.0159717,10,-0.000247121,-2.98718,-0.33311,-0.177119,7.15344,0.239931,
2,0,0,1,0,60263,0.238761,0.238425,-1.04427,31,0.0159321,10,-0.00024898,-2.98119,-0.363882,-0.162141,6.58624,0.2384252,
2,0,0,1,0,60263,0.237261,0.236925,-1.05295,31,0.0158922,10,-0.00024947,-2.97759,-0.428023,-0.137843,5.63501,0.2369249,
2,0,0,1,0,60263,0.235765,0.235422,-1.06361,31,0.0158521,10,-0.000250397,-2.97322,-0.396314,-0.148872,6.15821,0.235422,
2,0,0,1,0,60263.1,0.234268,0.233943,-1.07043,31,0.0158117,10,-0.000250419,-2.97044,-0.367712,-0.160452,6.71042,0.233943,
2,0,0,1,0,60263.1,0.232768,0.232423,-1.07905,31,0.0157708,10,-0.000250796,-2.96696,-0.357387,-0.165087,6.96676,0.232423,
2,0,0,1,0,60263.1,0.231268,0.230933,-1.08768,31,0.0157295,10,-0.000251182,-2.9635,-0.399572,-0.147658,6.27275,0.230933,
2,0,0,1,0,60263.2,0.229772,0.229442,-1.09826,31,0.0156879,10,-0.000251987,-2.9593,-0.486939,-0.121165,5.20457,0.229442,
2,0,0,1,0,60263.2,0.228275,0.227936,-1.10511,31,0.0156462,10,-0.000251893,-2.9566,-0.445904,-0.132315,5.72784,0.227936,
2,0,0,1,0,60263.3,0.226772,0.226405,-1.11623,31,0.0156038,10,-0.000252721,-2.95225,-0.378895,-0.155716,6.77084,0.226405,
2,0,0,1,0,60263.3,0.225276,0.224971,-1.12487,31,0.0155613,10,-0.000253062,-2.9489,-0.472822,-0.124783,5.4677,0.224971,
2,0,0,1,0,60263.3,0.223781,0.223422,-1.13569,31,0.0155185,10,-0.000253738,-2.94474,-0.49421,-0.119383,5.27532,0.223422,
2,0,0,1,0,60263.4,0.222281,0.221914,-1.14092,31,0.0154752,10,-0.000253186,-2.94274,-0.484748,-0.121713,5.42245,0.221914,
2,0,0,1,0,60263.4,0.220781,0.220466,-1.15046,31,0.0154317,10,-0.000253636,-2.93913,-0.393395,-0.149976,6.74819,0.2204657,
2,0,0,1,0,60263.4,0.219284,0.218941,-1.1605,31,0.0153878,10,-0.000254081,-2.93535,-0.458002,-0.12882,5.83416,0.218941,
2,0,0,1,0,60263.5,0.217788,0.217437,-1.16751,31,0.0153437,10,-0.000253861,-2.93274,-0.579895,-0.101743,4.63485,0.217437,
2,0,0,1,0,60263.5,0.216288,0.215959,-1.17381,31,0.0152991,10,-0.000253495,-2.9304,-0.485409,-0.121547,5.58752,0.215959,
2,0,0,1,0,60263.6,0.214788,0.21445,-1.18312,31,0.0152543,10,-0.000253719,-2.92697,-0.547915,-0.107681,4.99092,0.21445,
2,0,0,1,0,60263.6,0.213292,0.212964,-1.19613,31,0.0152092,10,-0.000254731,-2.92222,-0.471892,-0.125029,5.81618,0.212964,
2,0,0,1,0,60263.6,0.211796,0.211461,-1.207,31,0.0151638,10,-0.000255234,-2.91829,-0.529278,-0.111473,5.21549,0.211461,
2,0,0,1,0,60263.7,0.210293,0.209942,-1.21336,31,0.0151178,10,-0.000254734,-2.91601,-0.541881,-0.10888,5.14877,0.209942,
2,0,0,1,0,60263.7,0.208797,0.208457,-1.22059,31,0.0150718,10,-0.000254441,-2.91343,-0.379381,-0.155516,7.42176,0.2084567,
2,0,0,1,0,60263.7,0.207301,0.206925,-1.22758,31,0.0150254,10,-0.000254017,-2.91095,-0.445067,-0.132564,6.36666,0.206925,
2,0,0,1,0,60263.8,0.205801,0.205454,-1.24072,31,0.0149785,10,-0.00025491,-2.90633,-0.495793,-0.119001,5.75774,0.205454,
2,0,0,1,0,60263.8,0.204301,0.203929,-1.24552,31,0.0149312,10,-0.000253998,-2.90465,-0.860435,-0.06857,3.34238,0.203929,
2,0,0,1,0,60263.9,0.202804,0.202435,-1.25282,31,0.0148839,10,-0.000253614,-2.90211,-0.613867,-0.0961121,4.70622,0.202435,
2,0,0,1,0,60263.9,0.201308,0.20095,-1.26401,31,0.0148362,10,-0.000254004,-2.89825,-0.401462,-0.146963,7.24352,0.20095,
2,0,0,1,0,60263.9,0.199808,0.199485,-1.27499,31,0.0147881,10,-0.000254342,-2.89449,-0.514292,-0.114721,5.69387,0.1994849,
2,0,0,1,0,60264,0.198308,0.197964,-1.28381,31,0.0147396,10,-0.00025415,-2.8915,-0.526044,-0.112158,5.60768,0.197964,
2,0,0,1,0,60264,0.196812,0.196436,-1.28738,31,0.014691,10,-0.000252888,-2.89029,-0.483726,-0.12197,6.13731,0.196436,
2,0,0,1,0,60264,0.195316,0.194972,-1.29702,31,0.014642,10,-0.000252882,-2.88705,-0.401346,-0.147005,7.45402,0.194972,
2,0,0,1,0,60264.1,0.193813,0.193471,-1.30834,31,0.0145923,10,-0.000253126,-2.88328,-0.449699,-0.131199,6.70937,0.193471,
2,0,0,1,0,60264.1,0.192317,0.191963,-1.31974,31,0.0145425,10,-0.000253341,-2.87951,-0.552805,-0.106728,5.49212,0.1919632,
2,0,0,1,0,60264.2,0.190821,0.190474,-1.32601,31,0.0144924,10,-0.00025257,-2.87745,-0.509676,-0.11576,5.99869,0.190474,
2,0,0,1,0,60264.2,0.189321,0.18893,-1.33943,31,0.0144419,10,-0.00025306,-2.87308,-0.527081,-0.111937,5.84255,0.18893,
2,0,0,1,0,60264.2,0.187821,0.187424,-1.34727,31,0.014391,10,-0.000252511,-2.87054,-0.4635,-0.127292,6.68603,0.187424,
2,0,0,1,0,60264.3,0.186324,0.185962,-1.35867,31,0.0143399,10,-0.000252662,-2.86689,-0.575441,-0.10253,5.42275,0.185962,
2,0,0,1,0,60264.3,0.184828,0.184493,-1.36706,31,0.0142883,10,-0.000252213,-2.86421,-0.466584,-0.126451,6.75003,0.184493,
2,0,0,1,0,60264.3,0.183328,0.182992,-1.37517,31,0.0142363,10,-0.000251645,-2.86164,-0.457809,-0.128875,6.94958,0.182992,
2,0,0,1,0,60264.4,0.181828,0.181488,-1.3884,31,0.0141839,10,-0.000251978,-2.85749,-0.41371,-0.142612,7.73799,0.181488,
2,0,0,1,0,60264.4,0.180332,0.180007,-1.40043,31,0.0141312,10,-0.000252087,-2.85374,-0.42181,-0.139873,7.63551,0.180007,
2,0,0,1,0,60264.5,0.178836,0.178472,-1.41023,31,0.014078,10,-0.000251687,-2.85071,-0.448137,-0.131656,7.2432,0.178472,
2,0,0,1,0,60264.5,0.177333,0.177013,-1.422,31,0.0140242,10,-0.000251711,-2.8471,-0.446511,-0.132136,7.32754,0.177013,
2,0,0,1,0,60264.5,0.175837,0.175507,-1.43548,31,0.0139703,10,-0.000251937,-2.843,-0.336988,-0.17508,9.7679,0.175507,
2,0,0,1,0,60264.6,0.174341,0.173996,-1.44529,31,0.0139159,10,-0.000251475,-2.84004,-0.368435,-0.160137,9.04519,0.1739959,
2,0,0,1,0,60264.6,0.172841,0.172518,-1.46015,31,0.0138608,10,-0.000251902,-2.8356,-0.378521,-0.15587,8.87755,0.172518,
2,0,0,1,0,60264.6,0.171341,0.171003,-1.46535,31,0.0138052,10,-0.000250579,-2.83406,-0.360296,-0.163754,9.42467,0.171003,
2,0,0,1,0,60264.7,0.169844,0.169476,-1.48335,31,0.0137493,10,-0.000251392,-2.82876,-0.336617,-0.175273,10.2019,0.169476,
2,0,0,1,0,60264.7,0.168348,0.168029,-1.50374,31,0.0136929,10,-0.000252672,-2.82283,-0.320328,-0.184186,10.8099,0.168029,
2,0,0,1,0,60264.8,0.166848,0.166467,-1.52399,31,0.0136356,10,-0.000253695,-2.81702,-0.328027,-0.179863,10.6379,0.166467,
2,0,0,1,0,60264.8,0.165348,0.164977,-1.53524,31,0.0135778,10,-0.00025328,-2.81382,-0.323837,-0.18219,10.8889,0.164977,
2,0,0,1,0,60264.8,0.163852,0.163503,-1.55191,31,0.0135195,10,-0.000253744,-2.80913,-0.295654,-0.199558,12.0745,0.1635035,
2,0,0,1,0,60264.9,0.162357,0.16196,-1.57159,31,0.0134606,10,-0.000254534,-2.80366,-0.268364,-0.21985,13.4842,0.16196,
2,0,0,1,0,60264.9,0.160853,0.160494,-1.58794,31,0.0134006,10,-0.000254855,-2.79916,-0.273817,-0.215472,13.3829,0.160494,
2,0,0,1,0,60264.9,0.159357,0.159044,-1.60956,31,0.0133401,10,-0.000255991,-2.79329,-0.271176,-0.217571,13.6997,0.159044,
2,0,0,1,0,60265,0.15786,0.157504,-1.63014,31,0.0132789,10,-0.000256754,-2.78778,-0.234357,-0.251753,16.093,0.157504,
2,0,0,1,0,60265,0.156361,0.156003,-1.65631,31,0.0132166,10,-0.00025839,-2.78086,-0.207335,-0.284563,18.4198,0.156003,
2,0,0,1,0,60265.1,0.154861,0.154522,-1.68729,31,0.0131533,10,-0.000260722,-2.77281,-0.207029,-0.284984,18.7525,0.154522,
2,0,0,1,0,60265.1,0.153364,0.153069,-1.7186,31,0.013089,10,-0.000263064,-2.76483,-0.208616,-0.282816,18.9203,0.153069,
2,0,0,1,0,60265.1,0.151868,0.151494,-1.74463,31,0.0130237,10,-0.000264301,-2.7583,-0.179221,-0.329202,22.4312,0.151494,
2,0,0,1,0,60265.2,0.150368,0.150012,-1.78177,31,0.012957,10,-0.000267287,-2.74915,-0.157967,-0.373496,26.0048,0.150012,
2,0,0,1,0,60265.2,0.148868,0.148519,-1.8223,31,0.0128889,10,-0.000270645,-2.73938,-0.15082,-0.391195,27.8385,0.148519,
2,0,0,1,0,60265.2,0.147372,0.147047,-1.86119,31,0.0128194,10,-0.000273682,-2.73021,-0.144309,-0.408844,29.7613,0.147047,
2,0,0,1,0,60265.3,0.145877,0.145525,-1.90197,31,0.0127482,10,-0.000276785,-2.7208,-0.136272,-0.432958,32.3836,0.145525,
2,0,0,1,0,60265.3,0.144373,0.144022,-1.96205,31,0.0126749,10,-0.000282579,-2.70729,-0.119713,-0.492844,37.8825,0.144022,
2,0,0,1,0,60265.4,0.142877,0.142518,-2.02444,31,0.0125998,10,-0.000288519,-2.6937,-0.113933,-0.517848,40.9435,0.142518,
2,0,0,1,0,60265.4,0.14138,0.141004,-2.08896,31,0.0125223,10,-0.000294552,-2.68007,-0.110306,-0.534877,43.5284,0.141004,
2,0,0,1,0,60265.4,0.13988,0.139506,-2.15482,31,0.0124421,10,-0.00030061,-2.66659,-0.105187,-0.560908,47.2279,0.139506,
2,0,0,1,0,60265.5,0.13838,0.138026,-2.22637,31,0.0123594,10,-0.000307297,-2.6524,-0.0971258,-0.607459,52.9592,0.138026,
2,0,0,1,0,60265.5,0.136884,0.136523,-2.3084,31,0.0122739,10,-0.000315148,-2.63669,-0.097518,-0.605017,54.631,0.136523,
2,0,0,1,0,60265.5,0.135388,0.135005,-2.39734,31,0.0121852,10,-0.000323652,-2.62027,-0.094835,-0.622133,58.2508,0.135005,
2,0,0,1,0,60265.6,0.133888,0.133558,-2.4889,31,0.0120931,10,-0.000332413,-2.60399,-0.0955159,-0.617698,59.9983,0.1335578,
2,0,0,1,0,60265.6,0.132389,0.132008,-2.57841,31,0.0119975,10,-0.00034037,-2.58865,-0.0965709,-0.61095,61.4657,0.1320079,
2,0,0,1,0,60265.7,0.130893,0.130564,-2.6733,31,0.0118987,10,-0.000349036,-2.57295,-0.0971746,-0.607155,63.2605,0.1305639,
2,0,0,1,0,60265.7,0.129393,0.129044,-2.76739,31,0.0117962,10,-0.000357115,-2.55793,-0.102785,-0.574012,61.8791,0.129044,
2,0,0,1,0,60265.7,0.127893,0.127531,-2.86187,31,0.01169,10,-0.000364977,-2.54335,-0.106538,-0.553791,61.7014,0.1275309,
2,0,0,1,0,60265.8,0.126397,0.126064,-2.94727,31,0.0115807,10,-0.000371546,-2.53058,-0.113384,-0.520357,59.8734,0.126064,
2,0,0,1,0,60265.8,0.1249,0.124559,-3.03695,31,0.0114681,10,-0.00037828,-2.51756,-0.116846,-0.504938,59.948,0.1245589,
2,0,0,1,0,60265.8,0.1234,0.123047,-3.1283,31,0.0113517,10,-0.000384929,-2.50469,-0.122778,-0.480544,58.6294,0.123047,
2,0,0,1,0,60265.9,0.1219,0.121522,-3.21372,31,0.0112321,10,-0.000390537,-2.49299,-0.136773,-0.431372,54.0507,0.1215218,
2,0,0,1,0,60265.9,0.120404,0.120068,-3.29576,31,0.0111096,10,-0.000395714,-2.48205,-0.142183,-0.414959,53.3232,0.120068,
2,0,0,1,0,60266,0.118908,0.118518,-3.37576,31,0.0109843,10,-0.000400087,-2.47163,-0.150971,-0.390803,51.4232,0.118518,
2,0,0,1,0,60266,0.117404,0.117032,-3.45307,31,0.0108554,10,-0.000404121,-2.4618,-0.160613,-0.367342,49.3707,0.117032,
2,0,0,1,0,60266,0.115908,0.115517,-3.52589,31,0.0107242,10,-0.000407299,-2.45273,-0.176,-0.335227,45.9793,0.115517,
2,0,0,1,0,60266.1,0.114413,0.114079,-3.58923,31,0.0105905,10,-0.000409456,-2.445,-0.196384,-0.300432,42.0507,0.114079,
2,0,0,1,0,60266.1,0.112913,0.112597,-3.64776,31,0.0104542,10,-0.000410725,-2.43797,-0.208357,-0.283167,40.3293,0.112597,
2,0,0,1,0,60266.1,0.111413,0.111095,-3.70603,31,0.0103157,10,-0.000411723,-2.43109,-0.235379,-0.250659,36.2357,0.111095,
2,0,0,1,0,60266.2,0.109917,0.109533,-3.75674,31,0.0101754,10,-0.000411488,-2.42519,-0.280275,-0.210507,30.8508,0.109533,
2,0,0,1,0,60266.2,0.10842,0.108088,-3.80538,31,0.0100333,10,-0.000411314,-2.4196,-0.322025,-0.183215,27.1385,0.108088,
2,0,0,1,0,60266.3,0.10692,0.106551,-3.84094,31,0.00988932,10,-0.000409256,-2.41556,-0.393632,-0.149886,22.4416,0.106551,
2,0,0,1,0,60266.3,0.10542,0.105093,-3.8767,31,0.00974404,10,-0.000407416,-2.41154,-0.45373,-0.130033,19.6144,0.105093,
2,0,0,1,0,60266.3,0.103924,0.103616,-3.90461,31,0.00959797,10,-0.000404579,-2.40842,-0.586059,-0.100672,15.2967,0.103616,
2,0,0,1,0,60266.4,0.102427,0.102074,-3.92024,31,0.00945105,10,-0.000400153,-2.40669,-0.948935,-0.0621749,9.49736,0.102074,
2,0,0,1,0,60266.4,0.100924,0.100602,-3.92629,31,0.00930285,10,-0.000394993,-2.40602,-1.52547,-0.0386765,5.92979,0.100602,
2,0,0,1,0,60266.4,0.0994284,0.0990548,-3.93353,31,0.00915516,10,-0.000389635,-2.40522,-4.41545,-0.0133622,2.05114,0.0990548,
2,0,0,1,0,60266.5,0.0979329,0.0975802,-3.93285,31,0.00900735,10,-0.000383768,-2.40529,11.5938,0.00508893,-0.781214,0.0975802,
2,0,0,1,0,60266.5,0.0964329,0.0960879,-3.93201,31,0.0088592,10,-0.000377818,-2.40539,1.60778,0.0366965,-5.6184,0.0960879,
2,0,0,1,0,60266.6,0.094933,0.0946164,-3.92456,31,0.00871132,10,-0.000371328,-2.40621,1.17067,0.0503986,-7.70215,0.0946164,
2,0,0,1,0,60266.6,0.0934366,0.0930706,-3.90803,31,0.00856442,10,-0.000363723,-2.40804,0.847683,0.0696015,-10.6028,0.0930706,
2,0,0,1,0,60266.6,0.0919401,0.0915523,-3.89153,31,0.00841801,10,-0.000356279,-2.40988,0.866123,0.0681196,-10.3329,0.0915523,
2,0,0,1,0,60266.7,0.0904402,0.0900911,-3.87235,31,0.00827179,10,-0.000348864,-2.41203,0.632307,0.0933091,-14.0854,0.0900911,
2,0,0,1,0,60266.7,0.0889402,0.0885987,-3.84918,31,0.00812635,10,-0.000341033,-2.41463,0.590352,0.0999403,-15.0304,0.0885987,
2,0,0,1,0,60266.7,0.0874438,0.0871161,-3.82383,31,0.00798228,10,-0.000333117,-2.4175,0.605986,0.097362,-14.5621,0.08711607,
2,0,0,1,0,60266.8,0.0859483,0.0855487,-3.80304,31,0.007839,10,-0.000325345,-2.41987,0.669135,0.0881736,-13.0936,0.0855487,
2,0,0,1,0,60266.8,0.0844447,0.0841315,-3.78678,31,0.00769566,10,-0.000318587,-2.42173,0.63322,0.0931745,-13.7542,0.0841315,
2,0,0,1,0,60266.9,0.0829492,0.0825852,-3.76558,31,0.00755391,10,-0.000310981,-2.42417,0.570007,0.103508,-15.1877,0.0825852,
2,0,0,1,0,60266.9,0.0814528,0.0811121,-3.74026,31,0.00741303,10,-0.00030338,-2.4271,0.664439,0.0887968,-12.9619,0.0811121,
2,0,0,1,0,60266.9,0.0799528,0.0796122,-3.72222,31,0.00727253,10,-0.000296334,-2.4292,0.774992,0.0761299,-11.0591,0.0796122,
2,0,0,1,0,60267,0.0784529,0.0781079,-3.70397,31,0.00713267,10,-0.000289309,-2.43133,0.76653,0.0769702,-11.1365,0.0781079,
2,0,0,1,0,60267,0.0769565,0.0766409,-3.68767,31,0.00699378,10,-0.000282626,-2.43325,0.672548,0.0877261,-12.6298,0.0766409,
2,0,0,1,0,60267,0.0754601,0.0750774,-3.66635,31,0.00685554,10,-0.00027526,-2.43577,0.685107,0.0861179,-12.3497,0.0750774,
2,0,0,1,0,60267.1,0.0739601,0.0736492,-3.65626,31,0.00671762,10,-0.000269281,-2.43696,0.785071,0.0751525,-10.7289,0.07364925,
2,0,0,1,0,60267.1,0.0724601,0.0721511,-3.64048,31,0.00658022,10,-0.000262664,-2.43884,0.93027,0.0634224,-9.01068,0.0721511,
2,0,0,1,0,60267.2,0.0709637,0.0706258,-3.62777,31,0.00644369,10,-0.000256214,-2.44036,0.786209,0.0750437,-10.6043,0.0706258,
2,0,0,1,0,60267.2,0.0694682,0.0691193,-3.61087,31,0.00630771,10,-0.000249581,-2.44239,0.820098,0.0719427,-10.1361,0.0691193,
2,0,0,1,0,60267.2,0.0679646,0.0676528,-3.59642,31,0.00617169,10,-0.000243308,-2.44413,1.07721,0.0547712,-7.69293,0.0676528,
2,0,0,1,0,60267.3,0.0664691,0.0661393,-3.57947,31,0.00603687,10,-0.000236743,-2.44618,0.851731,0.0692707,-9.68397,0.0661393,
2,0,0,1,0,60267.3,0.0649727,0.0646111,-3.56782,31,0.00590248,10,-0.000230521,-2.4476,0.825695,0.071455,-9.94531,0.0646111,
2,0,0,1,0,60267.3,0.0634727,0.063131,-3.55281,31,0.00576834,10,-0.000224293,-2.44943,0.714158,0.0826147,-11.4557,0.06313096,
2,0,0,1,0,60267.4,0.0619728,0.0616023,-3.53294,31,0.00563489,10,-0.000217637,-2.45186,0.667345,0.08841,-12.1992,0.0616023,
2,0,0,1,0,60267.4,0.0604764,0.0600871,-3.51899,31,0.0055024,10,-0.000211446,-2.45358,0.695459,0.084836,-11.6436,0.0600871,
2,0,0,1,0,60267.5,0.05898,0.0586639,-3.50479,31,0.00537051,10,-0.000205604,-2.45534,0.672378,0.0877483,-11.9842,0.0586639,
2,0,0,1,0,60267.5,0.05748,0.0571123,-3.48438,31,0.0052389,10,-0.000199001,-2.45787,0.66335,0.0889425,-12.0816,0.0571123,
2,0,0,1,0,60267.5,0.05598,0.0556055,-3.46323,31,0.00510803,10,-0.000192574,-2.46052,0.639904,0.0922014,-12.4701,0.05560546,
2,0,0,1,0,60267.6,0.0544836,0.054132,-3.45001,31,0.00497822,10,-0.000186756,-2.46218,0.751704,0.0784883,-10.5633,0.054132,
2,0,0,1,0,60267.6,0.0529881,0.0526696,-3.43117,31,0.00484894,10,-0.000180718,-2.46456,0.742123,0.0795016,-10.6497,0.0526696,
2,0,0,1,0,60267.6,0.0514846,0.0511157,-3.41067,31,0.0047196,10,-0.000174339,-2.46716,0.600203,0.0983001,-13.098,0.0511157,
2,0,0,1,0,60267.7,0.049989,0.0496398,-3.39083,31,0.00459172,10,-0.00016832,-2.46969,0.567733,0.103922,-13.765,0.0496398,
2,0,0,1,0,60267.7,0.0484926,0.0481761,-3.37363,31,0.00446461,10,-0.000162528,-2.4719,0.592524,0.0995741,-13.1037,0.0481761,
2,0,0,1,0,60267.8,0.0469927,0.046669,-3.35485,31,0.00433789,10,-0.000156568,-2.47433,0.630513,0.0935746,-12.2379,0.046669,
2,0,0,1,0,60267.8,0.0454927,0.0451332,-3.33416,31,0.0042119,10,-0.000150481,-2.47701,0.543028,0.10865,-14.1159,0.04513317,
2,0,0,1,0,60267.8,0.0439963,0.0436167,-3.31507,31,0.00408694,10,-0.000144593,-2.47951,0.536493,0.109974,-14.2239,0.0436167,
2,0,0,1,0,60267.9,0.0424999,0.0421627,-3.28845,31,0.00396285,10,-0.00013865,-2.48301,0.555906,0.106133,-13.6548,0.0421627,
2,0,0,1,0,60267.9,0.0409999,0.0406561,-3.26782,31,0.00383917,10,-0.000132857,-2.48574,0.562001,0.104982,-13.4197,0.0406561,
2,0,0,1,0,60267.9,0.0394999,0.0391092,-3.25161,31,0.00371621,10,-0.000127168,-2.4879,0.531528,0.111001,-14.0814,0.0391092,
2,0,0,1,0,60268,0.0380044,0.0376349,-3.22772,31,0.00359439,10,-0.000121475,-2.4911,0.5041,0.11704,-14.7426,0.03763492,
2,0,0,1,0,60268,0.0365089,0.0361628,-3.20544,31,0.0034735,10,-0.000115918,-2.49411,0.498374,0.118385,-14.8013,0.0361628,
2,0,0,1,0,60268.1,0.0350054,0.0346535,-3.18479,31,0.0033528,10,-0.000110364,-2.49692,0.473594,0.124579,-15.4534,0.0346535,
2,0,0,1,0,60268.1,0.033509,0.0331782,-3.16125,31,0.00323358,10,-0.000104884,-2.50014,0.449612,0.131224,-16.1696,0.0331782,
2,0,0,1,0,60268.1,0.0320125,0.0316899,-3.1368,31,0.00311522,10,-9.94048e-05,-2.50351,0.431558,0.136714,-16.7234,0.0316899,
2,0,0,1,0,60268.2,0.0305126,0.0301275,-3.10769,31,0.00299752,10,-9.36268e-05,-2.50756,0.43704,0.134999,-16.3912,0.0301275,
2,0,0,1,0,60268.2,0.0290126,0.0287096,-3.08293,31,0.00288075,10,-8.85095e-05,-2.51104,0.463546,0.12728,-15.3487,0.0287096,
2,0,0,1,0,60268.2,0.0275162,0.0271662,-3.06335,31,0.00276514,10,-8.32196e-05,-2.5138,0.430581,0.137024,-16.3929,0.0271662,
2,0,0,1,0,60268.3,0.0260198,0.0256563,-3.04307,31,0.00265038,10,-7.80739e-05,-2.51669,0.41898,0.140818,-16.6954,0.0256563,
2,0,0,1,0,60268.3,0.0245198,0.0242007,-3.01488,31,0.00253625,10,-7.29622e-05,-2.52073,0.445149,0.13254,-15.5935,0.0242007,
2,0,0,1,0,60268.4,0.0230198,0.022648,-2.99478,31,0.00242307,10,-6.78258e-05,-2.52363,0.469084,0.125777,-14.6737,0.022648,
2,0,0,1,0,60268.4,0.0215243,0.0211469,-2.97229,31,0.00231099,10,-6.28546e-05,-2.52691,0.467516,0.126199,-14.6104,0.0211469,
2,0,0,1,0,60268.4,0.0200288,0.0196657,-2.94552,31,0.00219972,10,-5.79259e-05,-2.53084,0.454211,0.129895,-14.9364,0.0196657,
2,0,0,1,0,60268.5,0.0185253,0.0181517,-2.92198,31,0.00208868,10,-5.3039e-05,-2.53432,0.488867,0.120687,-13.7887,0.0181517,
2,0,0,1,0,60268.5,0.0170289,0.0166552,-2.90322,31,0.00197911,10,-4.83538e-05,-2.53712,0.512771,0.115061,-13.0697,0.0166552,
2,0,0,1,0,60268.5,0.0155325,0.0152054,-2.88525,31,0.00187024,10,-4.38715e-05,-2.53982,0.556633,0.105994,-11.9413,0.0152054,
2,0,0,1,0,60268.6,0.0140325,0.0136801,-2.86917,31,0.00176173,10,-3.92505e-05,-2.54224,0.580967,0.101555,-11.3643,0.0136801,
2,0,0,1,0,60268.6,0.0125325,0.0121496,-2.85135,31,0.00165392,10,-3.46428e-05,-2.54495,0.531701,0.110965,-12.3388,0.0121496,
2,0,0,1,0,60268.7,0.0110361,0.0107194,-2.83425,31,0.00154709,10,-3.03815e-05,-2.54756,0.5831,0.101183,-11.1846,0.0107194,
2,0,0,1,0,60268.7,0.0095397,0.00918749,-2.81729,31,0.00144087,10,-2.58839e-05,-2.55017,0.653153,0.090331,-9.92608,0.00918749,
2,0,0,1,0,60268.7,0.00803616,0.0076363,-2.80366,31,0.0013346,10,-2.14096e-05,-2.55227,0.698281,0.0844932,-9.24403,0.0076363,
2,0,0,1,0,60268.8,0.00654064,0.00619129,-2.79018,31,0.00122943,10,-1.72748e-05,-2.55437,0.662374,0.0890735,-9.70349,0.00619129,
2,0,0,1,0,60268.8,0.00504513,0.0047064,-2.76994,31,0.00112479,10,-1.30364e-05,-2.55753,0.882344,0.0668673,-7.25826,0.0047064,
2,0,0,1,0,60268.8,0.00354515,0.00321939,-2.76252,31,0.00102034,10,-8.89363e-06,-2.55869,6.01307,0.00981196,-1.06373,0.00321939,
2,0,0,1,0,60268.9,0.00204518,0.00161579,-2.78444,31,0.000915992,10,-4.49907e-06,-2.55526,1.54919,0.0380845,-4.1042,0.00161579,
2,0,0,1,0,60268.9,0.000548773,0.00013993,-2.76246,31,0.000811773,10,-3.86551e-07,-2.5587, , , ,0.00013993,
2,0,0,1,0,60268.9,0.000177222,-0.000200492,-2.75329,31,0.000785965,10,5.52014e-07,-2.56015, , , ,-0.000200492,