File: Figure_codes/Fig_3-5/rawdata_trumpetplot_data/after 10th/20221101_1-115_003_TrumpetPlot_ParaChange_from10_every3_13_CV_C01_22.csv
mode,ox/red,error,control changes,counter inc.,time/s,control/V,Ewe/V,<I>/mA,cycle number,(Q-Qo)/C,I Range,P/W,log(|I|),Tafel slope mV/dec,alpha_eff,dI/d(E-IR),E-IR/V,
2,1,0,1,0,44540.7,2.44065e-05,-0.000229887,18.1865,23,0.0000000E+000,10,-4.18084e-06,-1.74025, , , ,-0.000229887,
2,1,0,1,0,44540.7,0.00266289,0.00228222,19.5079,23,5.89868e-05,10,4.45213e-05,-1.70979, , , ,0.00228222,
2,1,0,1,0,44540.7,0.00586735,0.00550373,20.5924,23,0.000139388,10,0.000113335,-1.68629, , , ,0.00550373,
2,1,0,1,0,44540.7,0.00906349,0.00872949,21.5056,23,0.000223686,10,0.000187733,-1.66745,0.173865,0.339344,281.606,0.00872949,
2,1,0,1,0,44540.7,0.0122624,0.0118906,22.3342,23,0.000311469,10,0.000265566,-1.65103,0.201139,0.29333,253.895,0.0118906,
2,1,0,1,0,44540.7,0.0154641,0.0151153,23.1218,23,0.000402475,10,0.000349492,-1.63598,0.223354,0.264155,236.999,0.0151153,
2,1,0,1,0,44540.7,0.0186602,0.0183113,23.8442,23,0.000496505,10,0.000436619,-1.62262,0.247031,0.238837,221.143,0.01831132,
2,1,0,1,0,44540.8,0.0218675,0.0215307,24.5395,23,0.000593349,10,0.000528353,-1.61013,0.268438,0.21979,209.609,0.0215307,
2,1,0,1,0,44540.8,0.0250636,0.0247257,25.1726,23,0.000692863,10,0.00062241,-1.59907,0.288705,0.204361,200.22,0.0247257,
2,1,0,1,0,44540.8,0.0282597,0.0278931,25.8001,23,0.000794876,10,0.000719647,-1.58838,0.309317,0.190743,191.628,0.02789315,
2,1,0,1,0,44540.8,0.031467,0.0311157,26.4079,23,0.00089938,10,0.000821701,-1.57827,0.32696,0.18045,185.502,0.0311157,
2,1,0,1,0,44540.8,0.0346631,0.0342863,26.9838,23,0.00100622,10,0.000925177,-1.5689,0.347467,0.1698,178.434,0.0342863,
2,1,0,1,0,44540.8,0.0378703,0.0375121,27.5445,23,0.00111534,10,0.00103325,-1.55997,0.369274,0.159773,171.405,0.0375121,
2,1,0,1,0,44540.8,0.0410665,0.0406965,28.0847,23,0.00122664,10,0.00114295,-1.55153,0.384704,0.153365,167.868,0.0406965,
2,1,0,1,0,44540.8,0.0442626,0.0438979,28.5988,23,0.00134005,10,0.00125543,-1.54365,0.403106,0.146363,163.233,0.04389786,
2,1,0,1,0,44540.8,0.0474671,0.0471109,29.1367,23,0.00145557,10,0.00137265,-1.53556,0.416412,0.141686,160.927,0.0471109,
2,1,0,1,0,44540.8,0.0506632,0.0503144,29.6342,23,0.00157316,10,0.00149103,-1.52821,0.429558,0.13735,158.672,0.0503144,
2,1,0,1,0,44540.8,0.0538621,0.053503,30.1456,23,0.00169277,10,0.00161288,-1.52078,0.44796,0.131708,154.801,0.053503,
2,1,0,1,0,44540.8,0.0570638,0.0566758,30.6263,23,0.00181439,10,0.00173577,-1.51391,0.45449,0.129816,155.103,0.0566758,
2,1,0,1,0,44540.8,0.06026,0.0599047,31.1172,23,0.00193792,10,0.00186406,-1.507,0.466843,0.126381,153.476,0.0599047,
2,1,0,1,0,44540.8,0.0634672,0.0630933,31.6163,23,0.00206344,10,0.00199478,-1.50009,0.47615,0.123911,152.8,0.0630933,
2,1,0,1,0,44540.8,0.0666633,0.0662947,32.1088,23,0.00219094,10,0.00212865,-1.49338,0.481712,0.12248,153.387,0.0662947,
2,1,0,1,0,44540.8,0.0698595,0.0695194,32.5888,23,0.00232039,10,0.00226556,-1.48693,0.494143,0.119399,151.809,0.0695194,
2,1,0,1,0,44540.8,0.0730667,0.0727123,33.0817,23,0.00245179,10,0.00240545,-1.48041,0.499416,0.118138,152.518,0.0727123,
2,1,0,1,0,44540.8,0.0762629,0.0759009,33.5606,23,0.00258512,10,0.00254728,-1.47417,0.501994,0.117531,153.954,0.07590095,
2,1,0,1,0,44540.8,0.0794701,0.0791596,34.071,23,0.00272042,10,0.00269704,-1.46762,0.508162,0.116105,154.332,0.0791596,
2,1,0,1,0,44540.8,0.0826662,0.0823143,34.5587,23,0.00285772,10,0.00284467,-1.46144,0.511523,0.115342,155.513,0.0823143,
2,1,0,1,0,44540.8,0.0858624,0.0855125,35.0572,23,0.00299698,10,0.00299782,-1.45522,0.517193,0.114077,156.073,0.0855125,
2,1,0,1,0,44540.8,0.0890668,0.0887159,35.5535,23,0.00313825,10,0.00315416,-1.44912,0.518718,0.113742,157.831,0.0887159,
2,1,0,1,0,44540.8,0.092263,0.0919046,36.0601,23,0.00328151,10,0.00331409,-1.44297,0.524402,0.112509,158.332,0.0919046,
2,1,0,1,0,44540.8,0.0954674,0.0950678,36.5715,23,0.00342681,10,0.00347678,-1.43686,0.528966,0.111538,159.143,0.0950678,
2,1,0,1,0,44540.8,0.0986636,0.0982904,37.0803,23,0.00357418,10,0.00364464,-1.43086,0.533299,0.110632,160.081,0.0982904,
2,1,0,1,0,44540.9,0.10186,0.101477,37.5843,23,0.00372358,10,0.00381394,-1.42499,0.543482,0.108559,159.228,0.101477,
2,1,0,1,0,44540.9,0.105067,0.104719,38.1114,23,0.00387502,10,0.00399097,-1.41895,0.543222,0.108611,161.506,0.104719,
2,1,0,1,0,44540.9,0.108263,0.107884,38.6122,23,0.00402853,10,0.00416563,-1.41328,0.547561,0.107751,162.376,0.107884,
2,1,0,1,0,44540.9,0.111465,0.111061,39.1428,23,0.00418408,10,0.00434723,-1.40735,0.552387,0.106809,163.168,0.111061,
2,1,0,1,0,44540.9,0.114666,0.114267,39.6612,23,0.00434177,10,0.00453199,-1.40163,0.549007,0.107467,166.362,0.114267,
2,1,0,1,0,44540.9,0.117863,0.117486,40.1946,23,0.00450154,10,0.0047223,-1.39583,0.551934,0.106897,167.741,0.117486,
2,1,0,1,0,44540.9,0.12107,0.120665,40.7385,23,0.00466345,10,0.00491571,-1.38999,0.549907,0.107291,170.601,0.120665,
2,1,0,1,0,44540.9,0.124266,0.123875,41.2922,23,0.00482757,10,0.00511507,-1.38413,0.548099,0.107645,173.486,0.123875,
2,1,0,1,0,44540.9,0.127462,0.127066,41.8446,23,0.00499389,10,0.005317,-1.37836,0.551022,0.107074,174.887,0.127066,
2,1,0,1,0,44540.9,0.130667,0.130299,42.4175,23,0.00516247,10,0.00552694,-1.37246,0.550194,0.107235,177.508,0.130299,
2,1,0,1,0,44540.9,0.133863,0.133508,42.9845,23,0.00533333,10,0.00573876,-1.36669,0.559126,0.105522,176.932,0.133508,
2,1,0,1,0,44540.9,0.137067,0.136638,43.5578,23,0.00550647,10,0.00595164,-1.36093,0.545117,0.108234,184.09,0.136638,
2,1,0,1,0,44540.9,0.140263,0.139825,44.1022,23,0.00568186,10,0.00616661,-1.35554,0.535103,0.110259,190.136,0.139825,
2,1,0,1,0,44540.9,0.143459,0.143063,44.7672,23,0.00585962,10,0.00640452,-1.34904,0.528773,0.111579,195.079,0.143063,
2,1,0,1,0,44540.9,0.146667,0.146264,45.41,23,0.00604006,10,0.00664186,-1.34285,0.521896,0.113049,200.221,0.146264,
2,1,0,1,0,44540.9,0.149863,0.149478,46.0627,23,0.00622308,10,0.00688537,-1.33665,0.536993,0.109871,197.352,0.1494783,
2,1,0,1,0,44540.9,0.153064,0.152725,46.685,23,0.00640864,10,0.00712998,-1.33082,0.552749,0.106739,194.322,0.152725,
2,1,0,1,0,44540.9,0.156266,0.155928,47.3061,23,0.00659669,10,0.00737633,-1.32508,0.567598,0.103947,191.803,0.155928,
2,1,0,1,0,44540.9,0.159462,0.159122,47.9085,23,0.00678718,10,0.00762328,-1.31959,0.586982,0.100514,187.802,0.159122,
2,1,0,1,0,44540.9,0.16267,0.162287,48.5194,23,0.00698008,10,0.00787407,-1.31408,0.612102,0.0963892,182.309,0.162287,
2,1,0,1,0,44540.9,0.165866,0.165506,49.0853,23,0.00717535,10,0.00812393,-1.30905,0.635607,0.0928246,177.634,0.165506,
2,1,0,1,0,44540.9,0.169062,0.168729,49.6399,23,0.00737285,10,0.00837568,-1.30417,0.673694,0.0875769,169.51,0.1687289,
2,1,0,1,0,44540.9,0.172266,0.171893,50.1772,23,0.00757256,10,0.00862511,-1.29949,0.710292,0.0830644,162.478,0.171893,
2,1,0,1,0,44540.9,0.175462,0.175074,50.687,23,0.00777433,10,0.008874,-1.2951,0.753312,0.0783208,154.735,0.1750744,
2,1,0,1,0,44540.9,0.178667,0.178338,51.1703,23,0.00797811,10,0.00912562,-1.29098,0.825501,0.0714717,142.486,0.178338,
2,1,0,1,0,44541,0.181863,0.18152,51.619,23,0.00818374,10,0.00936986,-1.28719,0.911078,0.0647584,130.207,0.18152,
2,1,0,1,0,44541,0.185059,0.18468,51.999,23,0.00839104,10,0.00960316,-1.284,1.03272,0.0571307,115.729,0.18468,
2,1,0,1,0,44541,0.188266,0.187938,52.362,23,0.00859983,10,0.00984082,-1.28098,1.20756,0.0488587,99.6345,0.187938,
2,1,0,1,0,44541,0.191463,0.191098,52.6469,23,0.00880989,10,0.0100607,-1.27863,1.46972,0.0401437,82.2892,0.191098,
2,1,0,1,0,44541,0.194664,0.19428,52.8905,23,0.009021,10,0.0102756,-1.27662,1.99235,0.0296132,60.9632,0.19428,
2,1,0,1,0,44541,0.197866,0.197492,53.0534,23,0.00923294,10,0.0104776,-1.27529,2.99619,0.0196917,40.6591,0.197492,
2,1,0,1,0,44541,0.201062,0.200682,53.1389,23,0.00944534,10,0.010664,-1.27459,6.55096,0.00900632,18.6324,0.200682,
2,1,0,1,0,44541,0.204269,0.203899,53.1674,23,0.00965797,10,0.0108408,-1.27435,-29.9976,-0.00196682,-4.07032,0.203899,
2,1,0,1,0,44541,0.207465,0.207123,53.1298,23,0.00987054,10,0.0110044,-1.27466,-4.79827,-0.0122961,-25.4217,0.207123,
2,1,0,1,0,44541,0.210662,0.210314,53.0012,23,0.0100828,10,0.0111469,-1.27571,-2.46285,-0.023956,-49.4121,0.210314,
2,1,0,1,0,44541,0.213866,0.213541,52.812,23,0.0102944,10,0.0112775,-1.27727,-1.70731,-0.0345573,-71.0374,0.213541,
2,1,0,1,0,44541,0.217062,0.216672,52.5363,23,0.0105051,10,0.0113831,-1.27954,-1.29098,-0.0457016,-93.4605,0.216672,
2,1,0,1,0,44541,0.220267,0.21996,52.2178,23,0.0107146,10,0.0114859,-1.28218,-1.04474,-0.0564736,-114.774,0.21996,
2,1,0,1,0,44541,0.223463,0.223126,51.8038,23,0.0109226,10,0.0115588,-1.28564,-0.893047,-0.066066,-133.226,0.223126,
2,1,0,1,0,44541,0.226659,0.226317,51.3456,23,0.0111289,10,0.0116204,-1.2895,-0.754261,-0.0782222,-156.344,0.226317,
2,1,0,1,0,44541,0.229866,0.229588,50.8156,23,0.0113332,10,0.0116666,-1.294,-0.674603,-0.0874588,-173.007,0.229588,
2,1,0,1,0,44541,0.233062,0.232721,50.2227,23,0.0115352,10,0.0116879,-1.2991,-0.605731,-0.097403,-190.5,0.232721,
2,1,0,1,0,44541,0.236264,0.235944,49.5862,23,0.0117348,10,0.0116996,-1.30464,-0.546379,-0.107984,-208.512,0.235944,
2,1,0,1,0,44541,0.239466,0.239143,48.9023,23,0.0119317,10,0.0116946,-1.31067,-0.514561,-0.114661,-218.4,0.239143,
2,1,0,1,0,44541,0.242662,0.242307,48.1634,23,0.0121258,10,0.0116703,-1.31728,-0.476046,-0.123938,-232.568,0.242307,
2,1,0,1,0,44541,0.245869,0.245572,47.4161,23,0.0123169,10,0.0116441,-1.32407,-0.448399,-0.131579,-243.066,0.245572,
2,1,0,1,0,44541,0.249065,0.248746,46.6088,23,0.0125048,10,0.0115938,-1.33153,-0.433019,-0.136253,-247.557,0.248746,
2,1,0,1,0,44541,0.252261,0.251908,45.7995,23,0.0126896,10,0.0115373,-1.33914,-0.414231,-0.142433,-254.412,0.251908,
2,1,0,1,0,44541,0.255466,0.255155,44.9828,23,0.012871,10,0.0114776,-1.34695,-0.402883,-0.146445,-256.882,0.255155,
2,1,0,1,0,44541,0.258662,0.258375,44.159,23,0.0130492,10,0.0114096,-1.35498,-0.395864,-0.149041,-256.697,0.2583746,
2,1,0,1,0,44541.1,0.261866,0.261531,43.3244,23,0.0132241,10,0.0113307,-1.36327,-0.386298,-0.152732,-258.184,0.261531,
2,1,0,1,0,44541.1,0.265063,0.264742,42.5051,23,0.0133957,10,0.0112529,-1.37156,-0.384217,-0.153559,-254.786,0.264742,
2,1,0,1,0,44541.1,0.268259,0.267915,41.6884,23,0.013564,10,0.011169,-1.37998,-0.385653,-0.152987,-249.033,0.267915,
2,1,0,1,0,44541.1,0.271466,0.271122,40.9112,23,0.0137292,10,0.0110919,-1.38816,-0.388863,-0.151724,-242.37,0.271122,
2,1,0,1,0,44541.1,0.274662,0.274336,40.1357,23,0.0138912,10,0.0110107,-1.39647,-0.390527,-0.151078,-236.728,0.274336,
2,1,0,1,0,44541.1,0.277869,0.277564,39.3975,23,0.0140502,10,0.0109353,-1.40453,-0.395374,-0.149226,-229.55,0.277564,
2,1,0,1,0,44541.1,0.281065,0.28075,38.65,23,0.0142062,10,0.010851,-1.41285,-0.399776,-0.147583,-222.855,0.28075,
2,1,0,1,0,44541.1,0.284262,0.283991,37.9571,23,0.0143593,10,0.0107795,-1.42071,-0.40533,-0.14556,-215.86,0.283991,
2,1,0,1,0,44541.1,0.287469,0.287134,37.2836,23,0.0145097,10,0.0107054,-1.42848,-0.414621,-0.142299,-207.213,0.2871339,
2,1,0,1,0,44541.1,0.290665,0.290372,36.6327,23,0.0146575,10,0.0106371,-1.43613,-0.423006,-0.139478,-199.605,0.290372,
2,1,0,1,0,44541.1,0.293861,0.293511,36.0058,23,0.0148027,10,0.0105681,-1.44363,-0.43696,-0.135024,-190.271,0.293511,
2,1,0,1,0,44541.1,0.297066,0.296748,35.4108,23,0.0149454,10,0.0105081,-1.45086,-0.437125,-0.134973,-188.278,0.296748,
2,1,0,1,0,44541.1,0.299638,0.299365,34.9565,23,0.015058,10,0.0104647,-1.45647,-0.122924,-0.47997,-642.034,0.299365,
2,1,0,1,0,44541.1,0.300012,0.299746,34.8677,23,0.0150755,10,0.0104515,-1.45758,0.0105649,5.58455,6805.04,0.299746,
2,1,0,1,0,44541.1,0.298983,0.298814,32.601,23,0.0151184,10,0.00974164,-1.48677,0.0400261,1.47404,1655.26,0.2988143,
2,1,0,1,0,44541.1,0.295787,0.295567,27.3797,23,0.0152373,10,0.00809253,-1.56257,0.043623,1.3525,1410.01,0.295567,
2,1,0,1,0,44541.1,0.292579,0.292363,23.3665,23,0.0153382,10,0.0068315,-1.63141,0.0452432,1.30406,1217.44,0.292363,
2,1,0,1,0,44541.1,0.289383,0.28916,19.9412,23,0.0154244,10,0.00576619,-1.70025,0.0452918,1.30266,1022.03,0.28916,
2,1,0,1,0,44541.1,0.286187,0.285949,16.9387,23,0.0154977,10,0.00484362,-1.77112,0.0435668,1.35424,896.16,0.285949,
2,1,0,1,0,44541.1,0.282983,0.282717,14.2466,23,0.0155598,10,0.00402777,-1.84629,0.0405577,1.45472,804.03,0.282717,
2,1,0,1,0,44541.1,0.279786,0.279502,11.8413,23,0.0156116,10,0.00330968,-1.9266,0.0369768,1.5956,726.455,0.279502,
2,1,0,1,0,44541.1,0.276582,0.276329,9.62472,23,0.0156543,10,0.00265959,-2.01661,0.0327554,1.80123,659.228,0.276329,
2,1,0,1,0,44541.1,0.273386,0.273123,7.62073,23,0.0156885,10,0.00208139,-2.118,0.0276099,2.13691,606.826,0.273123,
2,1,0,1,0,44541.1,0.27019,0.269858,5.76924,23,0.0157151,10,0.00155687,-2.23888,0.0219804,2.68421,554.607,0.269858,
2,1,0,1,0,44541.1,0.266982,0.266695,4.06934,23,0.0157345,10,0.00108527,-2.39048,0.0149851,3.93725,511.871,0.266695,
2,1,0,1,0,44541.1,0.263786,0.263503,2.51095,23,0.0157475,10,0.000661643,-2.60016,0.00982939,6.00241,474.537,0.263503,
2,1,0,1,0,44541.1,0.260585,0.260315,1.0649,23,0.0157545,10,0.000277209,-2.97269,0.0303705,1.94267,437.042,0.260315,
2,1,0,1,0,44541.2,0.257383,0.257089,-0.289815,23,0.0157559,10,-7.45083e-05,-3.53788,-0.376035,-0.1569,406.967,0.257089,
2,0,0,1,0,44541.2,0.254187,0.253864,-1.53831,23,0.015752,10,-0.000390521,-2.81296,-0.0232741,-2.535,378.349,0.253864,
2,0,0,1,0,44541.2,0.25098,0.250658,-2.71642,23,0.0157434,10,-0.000680892,-2.566,-0.0104947,-5.62187,353.357,0.250658,
2,0,0,1,0,44541.2,0.247783,0.247479,-3.79166,23,0.0157303,10,-0.000938357,-2.42117,-0.0222547,-2.65113,331.363,0.247479,
2,0,0,1,0,44541.2,0.244587,0.24428,-4.81621,23,0.0157129,10,-0.0011765,-2.31729,-0.0327337,-1.80242,309.684,0.24428,
2,0,0,1,0,44541.2,0.241383,0.241078,-5.77488,23,0.0156916,10,-0.0013922,-2.23846,-0.0429487,-1.37373,292.008,0.241078,
2,0,0,1,0,44541.2,0.238187,0.23788,-6.67353,23,0.0156666,10,-0.0015875,-2.17564,-0.0539232,-1.09415,273.67,0.23788,
2,0,0,1,0,44541.2,0.234982,0.234695,-7.52478,23,0.0156381,10,-0.00176603,-2.12351,-0.0653515,-0.90281,257.064,0.234695,
2,0,0,1,0,44541.2,0.231786,0.23148,-8.31922,23,0.0156063,10,-0.00192573,-2.07992,-0.0769593,-0.766639,243.285,0.23148,
2,0,0,1,0,44541.2,0.22859,0.228287,-9.06317,23,0.0155715,10,-0.002069,-2.04272,-0.0893934,-0.660004,229.553,0.228287,
2,0,0,1,0,44541.2,0.225383,0.225081,-9.78736,23,0.0155337,10,-0.00220295,-2.00933,-0.101435,-0.581652,219.112,0.225081,
2,0,0,1,0,44541.2,0.222187,0.221908,-10.4599,23,0.0154931,10,-0.00232115,-1.98047,-0.11483,-0.513803,207.214,0.2219083,
2,0,0,1,0,44541.2,0.218979,0.218692,-11.1211,23,0.0154499,10,-0.0024321,-1.95385,-0.129288,-0.456347,195.822,0.218692,
2,0,0,1,0,44541.2,0.215783,0.215475,-11.718,23,0.0154041,10,-0.00252493,-1.93115,-0.142663,-0.413561,187.526,0.215475,
2,0,0,1,0,44541.2,0.212587,0.212258,-12.2985,23,0.0153561,10,-0.00261045,-1.91015,-0.157321,-0.375028,179.038,0.212258,
2,0,0,1,0,44541.2,0.20938,0.209109,-12.8601,23,0.0153057,10,-0.00268917,-1.89076,-0.170977,-0.345075,172.2,0.209109,
2,0,0,1,0,44541.2,0.206184,0.205876,-13.4157,23,0.0152531,10,-0.00276197,-1.87239,-0.185291,-0.318418,165.638,0.205876,
2,0,0,1,0,44541.2,0.202988,0.202697,-13.9183,23,0.0151984,10,-0.0028212,-1.85641,-0.201954,-0.292145,157.873,0.2026969,
2,0,0,1,0,44541.2,0.199783,0.199475,-14.4157,23,0.0151416,10,-0.00287558,-1.84116,-0.217502,-0.271261,152.1,0.199475,
2,0,0,1,0,44541.2,0.196587,0.196299,-14.8824,23,0.015083,10,-0.00292141,-1.82733,-0.232476,-0.253789,146.978,0.196299,
2,0,0,1,0,44541.2,0.193382,0.193073,-15.3631,23,0.0150225,10,-0.00296619,-1.81352,-0.247127,-0.238743,142.651,0.193073,
2,0,0,1,0,44541.2,0.190186,0.189894,-15.8001,23,0.0149601,10,-0.00300034,-1.80134,-0.261949,-0.225235,138.481,0.189894,
2,0,0,1,0,44541.2,0.18699,0.186681,-16.2409,23,0.0148959,10,-0.00303186,-1.78939,-0.278501,-0.211849,133.987,0.186681,
2,0,0,1,0,44541.2,0.183783,0.183471,-16.6589,23,0.01483,10,-0.00305643,-1.77835,-0.288036,-0.204836,132.999,0.183471,
2,0,0,1,0,44541.2,0.180587,0.180266,-17.079,23,0.0147625,10,-0.00307876,-1.76754,-0.2995,-0.196995,131.197,0.180266,
2,0,0,1,0,44541.3,0.17738,0.177087,-17.5034,23,0.0146933,10,-0.00309962,-1.75688,-0.310625,-0.18994,129.531,0.177087,
2,0,0,1,0,44541.3,0.174183,0.173909,-17.9165,23,0.0146225,10,-0.00311584,-1.74675,-0.318222,-0.185405,129.487,0.173909,
2,0,0,1,0,44541.3,0.170987,0.170682,-18.3155,23,0.01455,10,-0.00312612,-1.73718,-0.331735,-0.177853,127.073,0.170682,
2,0,0,1,0,44541.3,0.16778,0.167457,-18.7375,23,0.0144758,10,-0.00313774,-1.72729,-0.335054,-0.176091,128.71,0.167457,
2,0,0,1,0,44541.3,0.164584,0.164239,-19.136,23,0.0144,10,-0.00314288,-1.71815,-0.335662,-0.175772,131.324,0.164239,
2,0,0,1,0,44541.3,0.161382,0.161097,-19.5655,23,0.0143226,10,-0.00315195,-1.70851,-0.338437,-0.174331,133.209,0.161097,
2,0,0,1,0,44541.3,0.158183,0.157878,-19.997,23,0.0142434,10,-0.00315708,-1.69904,-0.334856,-0.176195,137.562,0.157878,
2,0,0,1,0,44541.3,0.154987,0.154634,-20.4457,23,0.0141625,10,-0.00316161,-1.6894,-0.331741,-0.17785,142.029,0.154634,
2,0,0,1,0,44541.3,0.151783,0.151415,-20.9002,23,0.0140798,10,-0.00316459,-1.67985,-0.324451,-0.181846,148.569,0.1514146,
2,0,0,1,0,44541.3,0.148587,0.148276,-21.3865,23,0.0139952,10,-0.0031711,-1.66986,-0.311243,-0.189562,158.622,0.148276,
2,0,0,1,0,44541.3,0.145385,0.145064,-21.9007,23,0.0139086,10,-0.003177,-1.65954,-0.298728,-0.197504,169.248,0.145064,
2,0,0,1,0,44541.3,0.142183,0.141883,-22.4684,23,0.0138198,10,-0.00318787,-1.64843,-0.287419,-0.205275,180.426,0.141883,
2,0,0,1,0,44541.3,0.138987,0.138712,-23.0501,23,0.0137287,10,-0.00319732,-1.63733,-0.276182,-0.213628,192.679,0.138712,
2,0,0,1,0,44541.3,0.13578,0.135475,-23.6962,23,0.0136351,10,-0.00321023,-1.62532,-0.264203,-0.223314,207.152,0.135475,
2,0,0,1,0,44541.3,0.132584,0.132277,-24.3644,23,0.013539,10,-0.00322286,-1.61324,-0.250965,-0.235092,224.387,0.132277,
2,0,0,1,0,44541.3,0.129388,0.129088,-25.1189,23,0.0134399,10,-0.00324254,-1.6,-0.240758,-0.24506,241.06,0.129088,
2,0,0,1,0,44541.3,0.12618,0.125926,-25.9192,23,0.0133378,10,-0.00326389,-1.58638,-0.229485,-0.257098,260.833,0.1259256,
2,0,0,1,0,44541.3,0.122984,0.122695,-26.7769,23,0.0132323,10,-0.00328538,-1.57224,-0.222688,-0.264944,277.729,0.122695,
2,0,0,1,0,44541.3,0.119783,0.119496,-27.6981,23,0.0131233,10,-0.00330983,-1.55755,-0.217849,-0.27083,293.356,0.119496,
2,0,0,1,0,44541.3,0.116584,0.116267,-28.6795,23,0.0130105,10,-0.00333449,-1.54243,-0.214753,-0.274734,307.768,0.116267,
2,0,0,1,0,44541.3,0.113387,0.113124,-29.6745,23,0.0128937,10,-0.00335691,-1.52762,-0.215065,-0.274335,317.855,0.113124,
2,0,0,1,0,44541.3,0.110183,0.109876,-30.722,23,0.0127728,10,-0.00337562,-1.51255,-0.217302,-0.271512,325.455,0.109876,
2,0,0,1,0,44541.3,0.106987,0.106681,-31.7714,23,0.0126477,10,-0.00338942,-1.49796,-0.222488,-0.265183,328.422,0.106681,
2,0,0,1,0,44541.3,0.103785,0.103475,-32.8429,23,0.0125183,10,-0.00339841,-1.48356,-0.228856,-0.257804,329.923,0.103475,
2,0,0,1,0,44541.3,0.100583,0.1003,-33.8864,23,0.0123848,10,-0.0033988,-1.46998,-0.235005,-0.251059,331.579,0.1003,
2,0,0,1,0,44541.4,0.0973873,0.097056,-34.9517,23,0.012247,10,-0.00339227,-1.45653,-0.247533,-0.238352,324.279,0.097056,
2,0,0,1,0,44541.4,0.0941801,0.093931,-35.9992,23,0.012105,10,-0.00338144,-1.44371,-0.259513,-0.227349,318.321,0.093931,
2,0,0,1,0,44541.4,0.0909839,0.0907795,-36.9597,23,0.0119589,10,-0.00335518,-1.43227,-0.267877,-0.22025,317.408,0.0907795,
2,0,0,1,0,44541.4,0.0877878,0.0875569,-37.9427,23,0.011809,10,-0.00332215,-1.42087,-0.286642,-0.205832,304.573,0.0875569,
2,0,0,1,0,44541.4,0.0845806,0.0843831,-38.9742,23,0.0116551,10,-0.00328876,-1.40922,-0.297204,-0.198517,301.062,0.08438313,
2,0,0,1,0,44541.4,0.0813844,0.0811287,-39.8984,23,0.0114972,10,-0.00323691,-1.39904,-0.313713,-0.18807,292.002,0.0811287,
2,0,0,1,0,44541.4,0.0781828,0.0779475,-40.8229,23,0.0113357,10,-0.00318205,-1.3891,-0.341406,-0.172815,274.575,0.07794752,
2,0,0,1,0,44541.4,0.0749838,0.0747483,-41.6828,23,0.0111706,10,-0.00311572,-1.38004,-0.363252,-0.162422,263.45,0.0747483,
2,0,0,1,0,44541.4,0.0717877,0.0715437,-42.4995,23,0.0110021,10,-0.00304057,-1.37162,-0.394242,-0.149654,247.553,0.0715437,
2,0,0,1,0,44541.4,0.0685832,0.0683307,-43.2701,23,0.0108305,10,-0.00295667,-1.36381,-0.426377,-0.138375,233.045,0.06833069,
2,0,0,1,0,44541.4,0.0653871,0.0651654,-43.9872,23,0.0106559,10,-0.00286644,-1.35667,-0.46298,-0.127435,218.251,0.0651654,
2,0,0,1,0,44541.4,0.0621854,0.0619789,-44.6587,23,0.0104785,10,-0.00276789,-1.35009,-0.503335,-0.117218,203.841,0.0619789,
2,0,0,1,0,44541.4,0.0589837,0.0587234,-45.2976,23,0.0102985,10,-0.00266003,-1.34392,-0.543271,-0.108602,191.606,0.0587234,
2,0,0,1,0,44541.4,0.0557876,0.0555623,-45.8728,23,0.0101161,10,-0.0025488,-1.33845,-0.59017,-0.0999713,178.688,0.0555623,
2,0,0,1,0,44541.4,0.0525804,0.0523122,-46.4499,23,0.00993136,10,-0.0024299,-1.33301,-0.640158,-0.0921648,166.741,0.0523122,
2,0,0,1,0,44541.4,0.0493842,0.0491076,-46.9586,23,0.00974447,10,-0.00230603,-1.32828,-0.700791,-0.0841906,153.962,0.0491076,
2,0,0,1,0,44541.4,0.0461881,0.0459201,-47.4324,23,0.00955564,10,-0.0021781,-1.32392,-0.781375,-0.0755079,139.495,0.0459201,
2,0,0,1,0,44541.4,0.0429808,0.0426678,-47.858,23,0.009365,10,-0.002042,-1.32005,-0.873434,-0.0675494,125.913,0.0426678,
2,0,0,1,0,44541.4,0.0397847,0.039512,-48.2355,23,0.00917277,10,-0.00190588,-1.31663,-0.971843,-0.0607094,114.108,0.039512,
2,0,0,1,0,44541.4,0.036583,0.0362693,-48.5751,23,0.00897911,10,-0.00176179,-1.31359,-1.08363,-0.0544464,103.087,0.0362693,
2,0,0,1,0,44541.4,0.0333841,0.0330817,-48.8974,23,0.00878412,10,-0.00161761,-1.31071,-1.19406,-0.0494113,94.1755,0.0330817,
2,0,0,1,0,44541.4,0.030188,0.0298729,-49.177,23,0.00858793,10,-0.00146906,-1.30824,-1.35085,-0.0436761,83.7074,0.02987293,
2,0,0,1,0,44541.4,0.0269835,0.0266864,-49.4433,23,0.00839065,10,-0.00131947,-1.30589,-1.53698,-0.0383871,73.961,0.0266864,
2,0,0,1,0,44541.4,0.0237874,0.0234797,-49.6457,23,0.00819243,10,-0.00116567,-1.30412,-1.77187,-0.0332982,64.4411,0.0234797,
2,0,0,1,0,44541.4,0.0205857,0.020289,-49.8436,23,0.00799342,10,-0.00101127,-1.30239,-2.05558,-0.0287024,55.7848,0.020289,
2,0,0,1,0,44541.5,0.017384,0.0170749,-50.0018,23,0.00779369,10,-0.000853774,-1.30101,-2.34294,-0.0251821,49.0984,0.0170749,
2,0,0,1,0,44541.5,0.0141879,0.0138502,-50.1594,23,0.00759334,10,-0.000694717,-1.29965,-2.89277,-0.0203957,39.8776,0.01385019,
2,0,0,1,0,44541.5,0.0109806,0.0106976,-50.2733,23,0.00739245,10,-0.000537804,-1.29866,-3.68425,-0.0160141,31.3755,0.0106976,
2,0,0,1,0,44541.5,0.00778448,0.00746548,-50.3549,23,0.00719118,10,-0.000375924,-1.29796,-4.26287,-0.0138404,27.1876,0.00746548,
2,0,0,1,0,44541.5,0.00458834,0.0042779,-50.4033,23,0.00698963,10,-0.00021562,-1.29754,-6.48799,-0.00909373,17.8828,0.0042779,
2,0,0,1,0,44541.5,0.0013811,0.00102245,-50.5082,23,0.00678783,10,-5.16422e-05,-1.29664,-10.3217,-0.00571611,11.2494,0.00102245,
2,0,0,1,0,44541.5,-0.00181504,-0.0021874,-50.5037,23,0.0065858,10,0.000110472,-1.29668,-37.2312,-0.00158469,3.11846,-0.0021874,
2,0,0,1,0,44541.5,-0.0050195,-0.00537816,-50.4994,23,0.0063838,10,0.000271594,-1.29671,11.8265,0.00498878,-9.8215,-0.00537816,
2,0,0,1,0,44541.5,-0.00821564,-0.00859438,-50.4434,23,0.00618191,10,0.00043353,-1.2972,6.87372,0.00858341,-16.8817,-0.008594377,
2,0,0,1,0,44541.5,-0.0114118,-0.0117926,-50.3823,23,0.00598026,10,0.000594137,-1.29772,4.75793,0.0124003,-24.3637,-0.0117926,
2,0,0,1,0,44541.5,-0.0146162,-0.0149992,-50.2874,23,0.00577889,10,0.000754273,-1.29854,3.85007,0.0153244,-30.0532,-0.0149992,
2,0,0,1,0,44541.5,-0.0178124,-0.018138,-50.1885,23,0.00557793,10,0.000910322,-1.2994,3.04632,0.0193676,-37.8983,-0.01813804,
2,0,0,1,0,44541.5,-0.0210196,-0.0213914,-50.0588,23,0.00537746,10,0.00107083,-1.30052,2.54475,0.023185,-45.2404,-0.0213914,
2,0,0,1,0,44541.5,-0.0242158,-0.0245874,-49.8974,23,0.00517756,10,0.00122685,-1.30192,2.23142,0.0264406,-51.4473,-0.0245874,
2,0,0,1,0,44541.5,-0.0274119,-0.0277506,-49.7106,23,0.00497835,10,0.0013795,-1.30355,1.98573,0.029712,-57.6186,-0.02775063,
2,0,0,1,0,44541.5,-0.0306191,-0.0309912,-49.5273,23,0.00477988,10,0.00153491,-1.30516,1.86678,0.0316053,-61.0644,-0.03099123,
2,0,0,1,0,44541.5,-0.0338153,-0.0341693,-49.3226,23,0.00458218,10,0.00168532,-1.30695,1.7626,0.0334732,-64.3987,-0.0341693,
2,0,0,1,0,44541.5,-0.037017,-0.0373473,-49.1182,23,0.00438533,10,0.00183443,-1.30876,1.65753,0.0355951,-68.1922,-0.0373473,
2,0,0,1,0,44541.5,-0.0402187,-0.0405731,-48.8848,23,0.00418933,10,0.00198341,-1.31083,1.6212,0.0363928,-69.4169,-0.0405731,
2,0,0,1,0,44541.5,-0.0434148,-0.0438169,-48.6527,23,0.00399428,10,0.00213181,-1.31289,1.57164,0.0375404,-71.2901,-0.0438169,
2,0,0,1,0,44541.5,-0.0466193,-0.0470278,-48.43,23,0.00380014,10,0.00227755,-1.31489,1.54012,0.0383087,-72.3923,-0.04702777,
2,0,0,1,0,44541.5,-0.0498154,-0.0501782,-48.2035,23,0.00360692,10,0.00241877,-1.31692,1.56896,0.0376044,-70.7348,-0.0501782,
2,0,0,1,0,44541.5,-0.0530115,-0.0533542,-47.9596,23,0.00341461,10,0.00255884,-1.31912,1.53077,0.0385426,-72.1538,-0.0533542,
2,0,0,1,0,44541.5,-0.056216,-0.0566287,-47.7464,23,0.00322321,10,0.00270382,-1.32106,1.59231,0.037053,-69.0646,-0.0566287,
2,0,0,1,0,44541.5,-0.0594121,-0.0597845,-47.5095,23,0.00303271,10,0.00284033,-1.32322,1.65984,0.0355457,-65.9422,-0.0597845,
2,0,0,1,0,44541.6,-0.0626194,-0.0629699,-47.3201,23,0.00284309,10,0.00297974,-1.32495,1.71153,0.034472,-63.6876,-0.0629699,
2,0,0,1,0,44541.6,-0.0658155,-0.0661936,-47.1129,23,0.00265424,10,0.00311857,-1.32686,1.85554,0.0317966,-58.4909,-0.0661936,
2,0,0,1,0,44541.6,-0.0690117,-0.0693674,-46.9351,23,0.00246615,10,0.00325577,-1.3285,1.92258,0.030688,-56.2411,-0.0693674,
2,0,0,1,0,44541.6,-0.0722189,-0.072556,-46.7625,23,0.00227878,10,0.0033929,-1.3301,2.09444,0.0281698,-51.4321,-0.072556,
2,0,0,1,0,44541.6,-0.075415,-0.0757648,-46.6005,23,0.00209208,10,0.00353067,-1.33161,2.28754,0.0257919,-46.9409,-0.07576479,
2,0,0,1,0,44541.6,-0.0786167,-0.078999,-46.4543,23,0.00190599,10,0.00366984,-1.33297,2.53474,0.0232766,-42.2332,-0.078999,
2,0,0,1,0,44541.6,-0.0818184,-0.0821665,-46.3343,23,0.00172043,10,0.00380713,-1.3341,2.93442,0.0201062,-36.3835,-0.0821665,
2,0,0,1,0,44541.6,-0.0850145,-0.0853763,-46.2211,23,0.00153533,10,0.00394618,-1.33516,3.3412,0.0176583,-31.8736,-0.0853763,
2,0,0,1,0,44541.6,-0.088219,-0.088565,-46.1347,23,0.00135066,10,0.00408592,-1.33597,3.8951,0.0151472,-27.2869,-0.08856497,
2,0,0,1,0,44541.6,-0.0914152,-0.0917579,-46.0476,23,0.00116632,10,0.00422523,-1.33679,4.80983,0.0122665,-22.0595,-0.0917579,
2,0,0,1,0,44541.6,-0.0946141,-0.0949942,-45.9843,23,0.000982279,10,0.00436824,-1.33739,6.23697,0.00945973,-16.992,-0.0949942,
2,0,0,1,0,44541.6,-0.0978158,-0.0981807,-45.9386,23,0.000798425,10,0.00451029,-1.33782,9.23858,0.00638626,-11.4583,-0.0981807,
2,0,0,1,0,44541.6,-0.101012,-0.10137,-45.9172,23,0.000614728,10,0.00465464,-1.33803,17.0502,0.00346038,-6.20472,-0.10137,
2,0,0,1,0,44541.6,-0.104219,-0.104614,-45.9003,23,0.000431097,10,0.00480182,-1.33818,61.7311,0.000955759,-1.71311,-0.104614,
2,0,0,1,0,44541.6,-0.107415,-0.107773,-45.905,23,0.000247476,10,0.00494733,-1.33814,-21.8086,-0.00270536,4.85129,-0.107773,
2,0,0,1,0,44541.6,-0.110611,-0.111012,-45.9166,23,6.38314e-05,10,0.00509728,-1.33803,-11.2503,-0.00524429,9.40663,-0.111012,
2,0,0,1,0,44541.6,-0.113819,-0.11419,-45.9793,23,-0.00011998,10,0.00525037,-1.33744,-7.02862,-0.00839425,15.0702,-0.11419,
2,0,0,1,0,44541.6,-0.117015,-0.117397,-46.0205,23,-0.000303996,10,0.00540269,-1.33705,-5.268,-0.0111997,20.1258,-0.117397,
2,0,0,1,0,44541.6,-0.120216,-0.120589,-46.0981,23,-0.000488232,10,0.00555894,-1.33632,-4.61685,-0.0127793,23.0048,-0.120589,
2,0,0,1,0,44541.6,-0.123418,-0.123795,-46.1739,23,-0.000672779,10,0.00571609,-1.3356,-3.63835,-0.0162162,29.2426,-0.123795,
2,0,0,1,0,44541.6,-0.126614,-0.126978,-46.2735,23,-0.000857686,10,0.00587573,-1.33467,-3.21898,-0.0183288,33.126,-0.126978,
2,0,0,1,0,44541.6,-0.129819,-0.130148,-46.3934,23,-0.00104303,10,0.006038,-1.33354,-2.91534,-0.0202378,36.6535,-0.130148,
2,0,0,1,0,44541.6,-0.133015,-0.133384,-46.522,23,-0.00122886,10,0.00620529,-1.33234,-2.58155,-0.0228545,41.5098,-0.133384,
2,0,0,1,0,44541.6,-0.136214,-0.136565,-46.642,23,-0.00141521,10,0.00636968,-1.33122,-2.47168,-0.0238704,43.4785,-0.136565,
2,0,0,1,0,44541.6,-0.139416,-0.139787,-46.8052,23,-0.00160213,10,0.00654276,-1.32971,-2.25005,-0.0262217,47.921,-0.139787,
2,0,0,1,0,44541.7,-0.142612,-0.142965,-46.9507,23,-0.00178966,10,0.0067123,-1.32836,-2.12842,-0.0277202,50.8086,-0.142965,
2,0,0,1,0,44541.7,-0.145819,-0.146166,-47.1345,23,-0.00197783,10,0.00688948,-1.32666,-2.09297,-0.0281896,51.8558,-0.146166,
2,0,0,1,0,44541.7,-0.149015,-0.149324,-47.2902,23,-0.00216671,10,0.00706158,-1.32523,-2.03197,-0.0290358,53.591,-0.149324,
2,0,0,1,0,44541.7,-0.152211,-0.152536,-47.4664,23,-0.00235624,10,0.00724033,-1.32361,-2.05877,-0.0286578,53.0964,-0.152536,
2,0,0,1,0,44541.7,-0.155418,-0.155761,-47.6364,23,-0.00254648,10,0.00741989,-1.32206,-1.99923,-0.0295114,54.871,-0.155761,
2,0,0,1,0,44541.7,-0.158615,-0.158993,-47.8156,23,-0.0027374,10,0.00760234,-1.32043,-1.98931,-0.0296586,55.3512,-0.158993,
2,0,0,1,0,44541.7,-0.161816,-0.162175,-47.9954,23,-0.00292904,10,0.00778366,-1.3188,-2.03861,-0.0289413,54.1945,-0.162175,
2,0,0,1,0,44541.7,-0.165018,-0.165362,-48.1763,23,-0.00312139,10,0.00796651,-1.31717,-2.04897,-0.0287949,54.1207,-0.165362,
2,0,0,1,0,44541.7,-0.168214,-0.168527,-48.3283,23,-0.00331443,10,0.00814462,-1.3158,-2.1472,-0.0274776,51.8232,-0.1685271,
2,0,0,1,0,44541.7,-0.171419,-0.171743,-48.5056,23,-0.0035081,10,0.00833051,-1.31421,-2.20398,-0.0267698,50.6693,-0.171743,
2,0,0,1,0,44541.7,-0.174615,-0.174966,-48.6582,23,-0.00370244,10,0.00851353,-1.31284,-2.23688,-0.026376,50.0781,-0.174966,
2,0,0,1,0,44541.7,-0.177814,-0.178142,-48.8238,23,-0.00389742,10,0.00869756,-1.31137,-2.37456,-0.0248467,47.3284,-0.178142,
2,0,0,1,0,44541.7,-0.181015,-0.18137,-48.9714,23,-0.00409304,10,0.00888193,-1.31006,-2.42049,-0.0243752,46.5697,-0.18137,
2,0,0,1,0,44541.7,-0.184211,-0.184539,-49.1112,23,-0.00428923,10,0.00906295,-1.30882,-2.58469,-0.0228267,43.7433,-0.184539,
2,0,0,1,0,44541.7,-0.187419,-0.18771,-49.2517,23,-0.00448597,10,0.00924503,-1.30758,-2.68581,-0.0219673,42.215,-0.18771,
2,0,0,1,0,44541.7,-0.190615,-0.190914,-49.3825,23,-0.00468326,10,0.00942784,-1.30643,-2.72733,-0.0216328,41.6883,-0.190914,
2,0,0,1,0,44541.7,-0.193811,-0.194165,-49.5115,23,-0.00488109,10,0.00961339,-1.30529,-2.99525,-0.0196978,38.0412,-0.194165,
2,0,0,1,0,44541.7,-0.197018,-0.197379,-49.6465,23,-0.00507942,10,0.00979916,-1.30411,-4.36542,-0.0135153,26.1136,-0.197379,
2,0,0,1,0,44541.7,-0.199647,-0.199984,-49.7186,23,-0.0052434,10,0.00994291,-1.30348,0.231424,0.254943,-480.061,-0.199984,
2,0,0,1,0,44541.7,-0.200134,-0.200551,-49.6342,23,-0.00527322,10,0.0099542,-1.30422,-0.0156624,-3.76698,6683.38,-0.200551,
2,0,0,1,1,44541.7,-0.198935,-0.199379,-47.0085,23,-0.0053449,10,0.00937248,-1.32782,-0.0567365,-1.0399,1754.06,-0.199379,
2,0,0,1,1,44541.7,-0.195739,-0.196162,-41.5178,23,-0.00552086,10,0.00814422,-1.38177,-0.0646929,-0.912002,1466.02,-0.196162,
2,0,0,1,1,44541.7,-0.192535,-0.192912,-37.3151,23,-0.00567785,10,0.00719854,-1.42812,-0.0689667,-0.855486,1276.51,-0.192912,
2,0,0,1,1,44541.7,-0.189339,-0.189724,-33.7605,23,-0.00581953,10,0.00640516,-1.47159,-0.0736063,-0.801561,1069.83,-0.189724,
2,0,0,1,1,44541.7,-0.186137,-0.186544,-30.6256,23,-0.00594788,10,0.00571304,-1.51392,-0.0751941,-0.784636,945.22,-0.186544,
2,0,0,1,1,44541.7,-0.182935,-0.183336,-27.7954,23,-0.00606436,10,0.00509589,-1.55603,-0.075319,-0.783335,853.736,-0.183336,
2,0,0,1,1,44541.8,-0.179739,-0.180105,-25.2091,23,-0.00617003,10,0.00454028,-1.59844,-0.074302,-0.794057,783.058,-0.180105,
2,0,0,1,1,44541.8,-0.176532,-0.176893,-22.8063,23,-0.00626576,10,0.00403427,-1.64195,-0.0723725,-0.815227,726.007,-0.176893,
2,0,0,1,1,44541.8,-0.173336,-0.17371,-20.5757,23,-0.00635226,10,0.00357422,-1.68664,-0.0690988,-0.85385,684.119,-0.17371,
2,0,0,1,1,44541.8,-0.17014,-0.170498,-18.4754,23,-0.00643012,10,0.00315003,-1.7334,-0.0658227,-0.896347,643.22,-0.170498,
2,0,0,1,1,44541.8,-0.166932,-0.167329,-16.4689,23,-0.00649976,10,0.00275573,-1.78333,-0.0617267,-0.955826,610.561,-0.1673288,
2,0,0,1,1,44541.8,-0.163736,-0.164103,-14.5798,23,-0.00656166,10,0.00239259,-1.83625,-0.0572698,-1.03021,581.08,-0.164103,
2,0,0,1,1,44541.8,-0.160532,-0.160937,-12.7766,23,-0.00661617,10,0.00205623,-1.89358,-0.0525532,-1.12267,552.535,-0.160937,
2,0,0,1,1,44541.8,-0.157336,-0.157738,-11.0609,23,-0.00666366,10,0.00174474,-1.95621,-0.0472159,-1.24958,528.513,-0.157738,
2,0,0,1,1,44541.8,-0.154139,-0.15455,-9.40814,23,-0.00670441,10,0.00145403,-2.0265,-0.041471,-1.42268,507.805,-0.15455,
2,0,0,1,1,44541.8,-0.150935,-0.151271,-7.79792,23,-0.00673864,10,0.0011796,-2.10802,-0.0351193,-1.67999,491.025,-0.151271,
2,0,0,1,1,44541.8,-0.147739,-0.14814,-6.27827,23,-0.0067666,10,0.00093006,-2.20216,-0.0287453,-2.05251,471.007,-0.14814,
2,0,0,1,1,44541.8,-0.144532,-0.144955,-4.78409,23,-0.00678857,10,0.000693479,-2.3202,-0.0214439,-2.75136,456.158,-0.144955,
2,0,0,1,1,44541.8,-0.141335,-0.141726,-3.36817,23,-0.00680472,10,0.000477359,-2.47261,-0.0127975,-4.61027,441.567,-0.141726,
2,0,0,1,1,44541.8,-0.138139,-0.138527,-1.98466,23,-0.00681527,10,0.00027493,-2.70231,-0.0150034,-3.93244,428.588,-0.138527,
2,0,0,1,1,44541.8,-0.134932,-0.135344,-0.628007,23,-0.00682033,10,8.49968e-05,-3.20204,-0.0531673,-1.1097,415.782,-0.135344,
2,1,0,1,1,44541.8,-0.131736,-0.132213,0.676918,23,-0.0068201,10,-8.94977e-05,-3.16946,0.0622016,0.948528,405.105,-0.132213,
2,1,0,1,1,44541.8,-0.12854,-0.128964,1.93803,23,-0.00681473,10,-0.000249937,-2.71264,0.0151141,3.90364,392.804,-0.128964,
2,1,0,1,1,44541.8,-0.125333,-0.125773,3.18228,23,-0.00680436,10,-0.000400244,-2.49726,0.014002,4.2137,381.736,-0.125773,
2,1,0,1,1,44541.8,-0.122136,-0.122596,4.37954,23,-0.0067891,10,-0.000536912,-2.35857,0.0236068,2.49928,374.87,-0.122596,
2,1,0,1,1,44541.8,-0.118932,-0.119398,5.56889,23,-0.00676909,10,-0.000664916,-2.25423,0.0326324,1.80802,364.459,-0.119398,
2,1,0,1,1,44541.8,-0.115736,-0.116228,6.71258,23,-0.0067444,10,-0.000780188,-2.17311,0.0411795,1.43275,357.505,-0.1162278,
2,1,0,1,1,44541.8,-0.11254,-0.112998,7.83814,23,-0.00671518,10,-0.000885693,-2.10579,0.050094,1.17778,348.4,-0.112998,
2,1,0,1,1,44541.8,-0.109335,-0.10982,8.94696,23,-0.00668149,10,-0.000982553,-2.04832,0.0588437,1.00266,341.31,-0.10982,
2,1,0,1,1,44541.8,-0.106139,-0.10661,10.0244,23,-0.00664343,10,-0.0010687,-1.99894,0.0677,0.871492,334.268,-0.10661,
2,1,0,1,1,44541.8,-0.102932,-0.103379,11.0981,23,-0.00660106,10,-0.0011473,-1.95475,0.0769762,0.766471,326.281,-0.103379,
2,1,0,1,1,44541.9,-0.0997357,-0.100161,12.1292,23,-0.0065545,10,-0.00121487,-1.91617,0.0857957,0.68768,321.093,-0.100161,
2,1,0,1,1,44541.9,-0.0965395,-0.0969814,13.1359,23,-0.00650384,10,-0.00127393,-1.88154,0.0957653,0.616089,312.487,-0.0969814,
2,1,0,1,1,44541.9,-0.0933323,-0.0937949,14.1392,23,-0.00644919,10,-0.00132619,-1.84958,0.104858,0.562666,307.66,-0.0937949,
2,1,0,1,1,44541.9,-0.0901362,-0.0905723,15.0999,23,-0.0063906,10,-0.00136764,-1.82103,0.114279,0.516279,301.969,-0.0905723,
2,1,0,1,1,44541.9,-0.0869345,-0.0873285,16.0771,23,-0.00632815,10,-0.00140399,-1.79379,0.125156,0.471411,293.469,-0.0873285,
2,1,0,1,1,44541.9,-0.0837328,-0.0841706,17.0043,23,-0.00626189,10,-0.00143126,-1.76944,0.135271,0.436163,287.393,-0.08417064,
2,1,0,1,1,44541.9,-0.0805366,-0.0809385,17.9121,23,-0.00619198,10,-0.00144978,-1.74685,0.146169,0.403642,280.592,-0.0809385,
2,1,0,1,1,44541.9,-0.0773322,-0.0776894,18.8024,23,-0.00611846,10,-0.00146075,-1.72579,0.157119,0.375512,274.204,-0.0776894,
2,1,0,1,1,44541.9,-0.074136,-0.0745326,19.6676,23,-0.00604144,10,-0.00146587,-1.70625,0.167272,0.35272,269.662,-0.0745326,
2,1,0,1,1,44541.9,-0.0709371,-0.0713228,20.5273,23,-0.00596097,10,-0.00146406,-1.68767,0.177631,0.33215,265.028,-0.0713228,
2,1,0,1,1,44541.9,-0.0677354,-0.0681203,21.3687,23,-0.00587707,10,-0.00145564,-1.67022,0.188874,0.312377,259.484,-0.0681203,
2,1,0,1,1,44541.9,-0.0645393,-0.0649402,22.1813,23,-0.00578988,10,-0.00144046,-1.65401,0.201213,0.293222,252.958,-0.0649402,
2,1,0,1,1,44541.9,-0.0613321,-0.0617356,22.9882,23,-0.00569947,10,-0.00141919,-1.6385,0.214068,0.275613,246.445,-0.0617356,
2,1,0,1,1,44541.9,-0.0581359,-0.0585374,23.7614,23,-0.00560588,10,-0.00139093,-1.62413,0.225374,0.261787,242.14,-0.0585374,
2,1,0,1,1,44541.9,-0.0549398,-0.0553042,24.5272,23,-0.00550921,10,-0.00135646,-1.61035,0.239171,0.246686,235.575,-0.0553042,
2,1,0,1,1,44541.9,-0.0517325,-0.0521135,25.2871,23,-0.00540948,10,-0.0013178,-1.5971,0.251058,0.235006,231.218,-0.0521135,
2,1,0,1,1,44541.9,-0.0485364,-0.0488962,26.0128,23,-0.00530681,10,-0.00127193,-1.58481,0.264447,0.223107,225.897,-0.0488962,
2,1,0,1,1,44541.9,-0.0453347,-0.0457542,26.7171,23,-0.00520128,10,-0.00122242,-1.57321,0.280042,0.210683,219.253,-0.0457542,
2,1,0,1,1,44541.9,-0.042133,-0.0425253,27.4139,23,-0.00509294,10,-0.00116578,-1.56203,0.292726,0.201554,215.25,-0.04252528,
2,1,0,1,1,44541.9,-0.0389369,-0.0393144,28.0934,23,-0.00498185,10,-0.00110447,-1.5514,0.308968,0.190958,208.917,-0.0393144,
2,1,0,1,1,44541.9,-0.0357324,-0.0361225,28.7624,23,-0.00486809,10,-0.00103897,-1.54118,0.325814,0.181085,202.78,-0.0361225,
2,1,0,1,1,44541.9,-0.0325363,-0.0329519,29.3917,23,-0.00475171,10,-0.000968515,-1.53177,0.34274,0.172142,197.074,-0.0329519,
2,1,0,1,1,44541.9,-0.0293374,-0.0297145,30.0117,23,-0.00463284,10,-0.000891783,-1.52271,0.362483,0.162766,190.358,-0.0297145,
2,1,0,1,1,44541.9,-0.0261357,-0.0265365,30.6116,23,-0.0045115,10,-0.000812323,-1.51411,0.37866,0.155813,185.881,-0.0265365,
2,1,0,1,1,44541.9,-0.0229395,-0.0232916,31.2048,23,-0.00438781,10,-0.000726811,-1.50578,0.396691,0.14873,180.822,-0.0232916,
2,1,0,1,1,44542,-0.0197323,-0.0201274,31.7756,23,-0.00426178,10,-0.000639559,-1.49791,0.420199,0.14041,173.78,-0.0201274,
2,1,0,1,1,44542,-0.0165361,-0.0169419,32.3213,23,-0.00413353,10,-0.000547584,-1.49051,0.439693,0.134185,169.005,-0.0169419,
2,1,0,1,1,44542,-0.01334,-0.0137077,32.841,23,-0.00400314,10,-0.000450173,-1.48358,0.464489,0.127021,162.625,-0.01370766,
2,1,0,1,1,44542,-0.0101328,-0.0105127,33.3645,23,-0.00387065,10,-0.00035075,-1.47671,0.486504,0.121273,157.715,-0.0105127,
2,1,0,1,1,44542,-0.00693663,-0.00732613,33.8574,23,-0.00373614,10,-0.000248044,-1.47035,0.508576,0.11601,152.998,-0.00732613,
2,1,0,1,1,44542,-0.00373494,-0.00410886,34.3452,23,-0.00359968,10,-0.00014112,-1.46413, , , ,-0.004108856,
2,1,0,1,1,44542,-0.000774628,-0.0011429,34.7634,23,-0.00347179,10,-3.9731e-05,-1.45888, , , ,-0.0011429,
2,1,0,0,1,44542,-0.000125413,-0.000497109,34.8671,23,-0.00344395,10,-1.73328e-05,-1.45758, , , ,-0.000497109,