File: Figure_codes/Fig_3-5/rawdata_trumpetplot_data/after 10th/20221101_1-115_003_TrumpetPlot_ParaChange_from10_every3_05_CV_C01_13.csv
mode,ox/red,error,control changes,counter inc.,time/s,control/V,Ewe/V,<I>/mA,cycle number,(Q-Qo)/C,I Range,P/W,log(|I|),Tafel slope mV/dec,alpha_eff,dI/d(E-IR),E-IR/V,
2,0,0,1,0,26731.7,2.44065e-05,-0.000325324,-0.73797,14,0.0000000E+000,10,2.40079e-07,-3.13196, , , ,-0.000325324,
2,1,0,1,0,26731.8,0.00129787,0.000906907,0.140976,14,-1.01903e-05,10,1.27852e-07,-3.85085, , , ,0.0009069065,
2,1,0,1,0,26731.9,0.00279606,0.00248545,0.482224,14,1.65796e-05,10,1.19855e-06,-3.31675,0.00434937,13.5652,173.928,0.00248545,
2,1,0,1,0,26731.9,0.00429425,0.00399863,0.602066,14,5.89714e-05,10,2.40744e-06,-3.22036,0.0177475,3.32441,69.6438,0.00399863,
2,1,0,1,0,26732,0.00579244,0.00549656,0.669788,14,0.000108211,10,3.68153e-06,-3.17406,0.0359853,1.63956,41.4273,0.00549656,
2,1,0,1,0,26732.1,0.00729063,0.00696502,0.718481,14,0.000161774,10,5.00424e-06,-3.14358,0.055653,1.06014,29.3248,0.00696502,
2,1,0,1,0,26732.2,0.00878882,0.00849839,0.759827,14,0.000218644,10,6.4573e-06,-3.11929,0.0742925,0.794158,23.3137,0.00849839,
2,1,0,1,0,26732.2,0.010287,0.00998309,0.792531,14,0.000278112,10,7.91191e-06,-3.10098,0.0962393,0.613055,18.771,0.00998309,
2,1,0,1,0,26732.3,0.0117852,0.0114602,0.818517,14,0.000339702,10,9.3804e-06,-3.08697,0.108691,0.542822,17.2987,0.0114602,
2,1,0,1,0,26732.4,0.0132847,0.0129731,0.843192,14,0.0004032,10,1.09388e-05,-3.07407,0.118677,0.49715,16.3505,0.0129731,
2,1,0,1,0,26732.5,0.0147802,0.0144786,0.86639,14,0.000468489,10,1.25441e-05,-3.06229,0.132562,0.445073,15.0271,0.0144786,
2,1,0,1,0,26732.5,0.0162798,0.0159742,0.889175,14,0.000535729,10,1.42039e-05,-3.05101,0.153278,0.384921,13.3143,0.0159742,
2,1,0,1,0,26732.6,0.017778,0.0174869,0.909628,14,0.000604396,10,1.59066e-05,-3.04114,0.166469,0.354421,12.5653,0.0174869,
2,1,0,1,0,26732.7,0.0192761,0.0189505,0.927503,14,0.000674438,10,1.75766e-05,-3.03268,0.162569,0.362923,13.1396,0.0189505,
2,1,0,1,0,26732.7,0.0207743,0.020479,0.948289,14,0.000746092,10,1.942e-05,-3.02306,0.156952,0.375912,13.8688,0.020479,
2,1,0,1,0,26732.8,0.0222725,0.0219868,0.969487,14,0.000819244,10,2.13159e-05,-3.01346,0.17137,0.344284,13.0308,0.0219868,
2,1,0,1,0,26732.9,0.0237707,0.0234606,0.987078,14,0.000893869,10,2.31574e-05,-3.00565,0.190355,0.309947,11.9424,0.0234606,
2,1,0,1,0,26733,0.0252689,0.0249644,1.00204,14,0.00096991,10,2.50153e-05,-2.99911,0.180031,0.327721,12.8863,0.0249644,
2,1,0,1,0,26733,0.0267671,0.026487,1.02704,14,0.00104739,10,2.72031e-05,-2.98841,0.169422,0.348243,13.9624,0.026487,
2,1,0,1,0,26733.1,0.0282653,0.0279555,1.04944,14,0.00112636,10,2.93377e-05,-2.97904,0.180451,0.326959,13.3533,0.0279555,
2,1,0,1,0,26733.2,0.0297644,0.0294494,1.0668,14,0.00120697,10,3.14166e-05,-2.97192,0.192379,0.306686,12.732,0.0294494,
2,1,0,1,0,26733.3,0.0312599,0.0309609,1.08098,14,0.00128877,10,3.34681e-05,-2.96618,0.197103,0.299335,12.6696,0.0309609,
2,1,0,1,0,26733.3,0.0327599,0.0324192,1.1049,14,0.00137208,10,3.582e-05,-2.95668,0.192776,0.306055,13.2111,0.0324192,
2,1,0,1,0,26733.4,0.034258,0.0339466,1.12438,14,0.00145691,10,3.8169e-05,-2.94909,0.194888,0.302738,13.2647,0.03394663,
2,1,0,1,0,26733.5,0.0357562,0.0354147,1.14476,14,0.00154329,10,4.05415e-05,-2.94128,0.222048,0.265708,11.8438,0.0354147,
2,1,0,1,0,26733.6,0.0372544,0.0369614,1.16338,14,0.0016311,10,4.30002e-05,-2.93428,0.195639,0.301576,13.6964,0.0369614,
2,1,0,1,0,26733.6,0.0387526,0.0384228,1.18301,14,0.00172021,10,4.54546e-05,-2.92701,0.206768,0.285343,13.1977,0.0384228,
2,1,0,1,0,26733.7,0.0402508,0.0399045,1.20203,14,0.00181086,10,4.79665e-05,-2.92008,0.205519,0.287078,13.479,0.03990449,
2,1,0,1,0,26733.8,0.041749,0.041443,1.22406,14,0.00190321,10,5.07287e-05,-2.9122,0.218569,0.269937,12.8768,0.041443,
2,1,0,1,0,26733.9,0.0432472,0.0429455,1.24218,14,0.00199694,10,5.3346e-05,-2.90582,0.234967,0.251099,12.1607,0.0429455,
2,1,0,1,0,26733.9,0.0447449,0.0444314,1.26021,14,0.0020919,10,5.5993e-05,-2.89956,0.227078,0.259823,12.7727,0.04443137,
2,1,0,1,0,26734,0.0462445,0.045905,1.27976,14,0.00218841,10,5.87475e-05,-2.89287,0.215745,0.273471,13.635,0.045905,
2,1,0,1,0,26734.1,0.04774,0.047451,1.29517,14,0.00228614,10,6.14569e-05,-2.88767,0.225429,0.261723,13.2496,0.047451,
2,1,0,1,0,26734.2,0.0492399,0.0489462,1.3163,14,0.00238547,10,6.44281e-05,-2.88064,0.273668,0.215589,11.0545,0.0489462,
2,1,0,1,0,26734.2,0.0507381,0.0504074,1.33038,14,0.00248597,10,6.70612e-05,-2.87602,0.260904,0.226137,11.7662,0.0504074,
2,1,0,1,0,26734.3,0.0522363,0.0519104,1.35135,14,0.0025877,10,7.01491e-05,-2.86923,0.239505,0.246342,12.9911,0.0519104,
2,1,0,1,0,26734.4,0.0537345,0.053401,1.36942,14,0.00269094,10,7.31286e-05,-2.86346,0.291214,0.2026,10.8066,0.053401,
2,1,0,1,0,26734.5,0.0552327,0.0549472,1.38519,14,0.00279553,10,7.6112e-05,-2.85849,0.308442,0.191284,10.3186,0.0549472,
2,1,0,1,0,26734.5,0.0567309,0.0564329,1.40071,14,0.00290122,10,7.90462e-05,-2.85365,0.31211,0.189036,10.3497,0.0564329,
2,1,0,1,0,26734.6,0.0582291,0.0578823,1.41869,14,0.00300796,10,8.21169e-05,-2.84811,0.312163,0.189004,10.4598,0.0578823,
2,1,0,1,0,26734.7,0.0597291,0.05941,1.43397,14,0.00311621,10,8.51919e-05,-2.84346,0.306758,0.192334,10.7517,0.05941,
2,1,0,1,0,26734.8,0.0612246,0.0609162,1.44915,14,0.00322544,10,8.82764e-05,-2.83889,0.387983,0.152068,8.59006,0.06091617,
2,1,0,1,0,26734.8,0.0627241,0.0624255,1.46326,14,0.00333608,10,9.13446e-05,-2.83468,0.355373,0.166023,9.48274,0.0624255,
2,1,0,1,0,26734.9,0.0642219,0.0639109,1.47945,14,0.00344742,10,9.4553e-05,-2.8299,0.332858,0.177253,10.2357,0.0639109,
2,1,0,1,0,26735,0.06572,0.0653976,1.49315,14,0.00356003,10,9.76483e-05,-2.8259,0.339208,0.173934,10.1225,0.06539759,
2,1,0,1,0,26735.1,0.0672182,0.066894,1.50857,14,0.00367384,10,0.000100915,-2.82143,0.353905,0.166712,9.78648,0.066894,
2,1,0,1,0,26735.1,0.0687164,0.0683931,1.52134,14,0.00378862,10,0.000104049,-2.81777,0.463917,0.127178,7.54963,0.0683931,
2,1,0,1,0,26735.2,0.0702146,0.0698761,1.53403,14,0.00390421,10,0.000107192,-2.81417,0.468728,0.125873,7.53333,0.0698761,
2,1,0,1,0,26735.3,0.0717128,0.0713556,1.54508,14,0.00402084,10,0.00011025,-2.81105,0.412276,0.143108,8.6301,0.0713556,
2,1,0,1,0,26735.4,0.073211,0.0728757,1.56079,14,0.00413846,10,0.000113744,-2.80665,0.474814,0.124259,7.55426,0.0728757,
2,1,0,1,0,26735.4,0.0747092,0.0743599,1.57157,14,0.00425693,10,0.000116862,-2.80367,0.525259,0.112326,6.87829,0.0743599,
2,1,0,1,0,26735.5,0.0762087,0.0758345,1.5776,14,0.00437625,10,0.000119637,-2.802,0.491368,0.120073,7.40235,0.07583452,
2,1,0,1,0,26735.6,0.0777042,0.0773953,1.59115,14,0.00449607,10,0.000123147,-2.79829,0.459709,0.128342,7.96795,0.07739526,
2,1,0,1,0,26735.7,0.0792037,0.0788444,1.60233,14,0.00461715,10,0.000126334,-2.79525,0.466519,0.126469,7.90587,0.0788444,
2,1,0,1,0,26735.7,0.0807019,0.0804246,1.6139,14,0.00473908,10,0.000129797,-2.79212,0.520409,0.113372,7.1293,0.0804246,
2,1,0,1,0,26735.8,0.0822001,0.0818934,1.61904,14,0.00486164,10,0.000132589,-2.79074,0.573293,0.102914,6.52716,0.0818934,
2,1,0,1,0,26735.9,0.0836983,0.0833669,1.63409,14,0.00498487,10,0.000136229,-2.78672,0.480276,0.122846,7.83758,0.0833669,
2,1,0,1,0,26736,0.0851965,0.0848875,1.64566,14,0.00510911,10,0.000139696,-2.78366,0.500184,0.117957,7.56997,0.0848875,
2,1,0,1,0,26736,0.0866947,0.0864173,1.65823,14,0.00523427,10,0.0001433,-2.78036,0.533405,0.11061,7.15729,0.0864173,
2,1,0,1,0,26736.1,0.0881929,0.0878653,1.66976,14,0.00536023,10,0.000146714,-2.77735,0.44503,0.132575,8.65678,0.08786533,
2,1,0,1,0,26736.2,0.0896911,0.0893664,1.68494,14,0.00548711,10,0.000150577,-2.77342,0.363076,0.162501,10.6949,0.0893664,
2,1,0,1,0,26736.3,0.0911893,0.0908717,1.7015,14,0.00561527,10,0.000154618,-2.76917,0.28976,0.203617,13.5126,0.0908717,
2,1,0,1,0,26736.3,0.0926884,0.0923691,1.72464,14,0.00574511,10,0.000159303,-2.7633,0.289266,0.203965,13.7105,0.0923691,
2,1,0,1,0,26736.4,0.0941839,0.0938527,1.74523,14,0.00587613,10,0.000163794,-2.75815,0.29187,0.202145,13.7493,0.0938527,
2,1,0,1,0,26736.5,0.0956838,0.0953533,1.75804,14,0.00600884,10,0.000167635,-2.75497,0.282515,0.208839,14.4032,0.0953533,
2,1,0,1,0,26736.6,0.097182,0.096875,1.78527,14,0.00614314,10,0.000172948,-2.7483,0.223963,0.263436,18.3841,0.096875,
2,1,0,1,0,26736.6,0.0986802,0.0983837,1.81348,14,0.00627941,10,0.000178417,-2.74149,0.225258,0.261922,18.5893,0.0983837,
2,1,0,1,0,26736.7,0.100178,0.0998882,1.84465,14,0.00641783,10,0.000184259,-2.73409,0.221301,0.266606,19.1925,0.0998882,
2,1,0,1,0,26736.8,0.101677,0.101362,1.8739,14,0.00655851,10,0.000189943,-2.72725,0.204154,0.288998,21.153,0.101362,
2,1,0,1,0,26736.9,0.103175,0.102857,1.90504,14,0.00670144,10,0.000195946,-2.7201,0.200794,0.293833,21.8966,0.102857,
2,1,0,1,0,26736.9,0.104673,0.10434,1.94615,14,0.00684695,10,0.000203062,-2.71082,0.184873,0.319137,24.2183,0.10434,
2,1,0,1,0,26737,0.106171,0.105864,1.98129,14,0.00699523,10,0.000209747,-2.70305,0.199234,0.296134,22.8009,0.105864,
2,1,0,1,0,26737.1,0.107669,0.107343,2.01127,14,0.00714609,10,0.000215896,-2.69653,0.208145,0.283456,22.2257,0.107343,
2,1,0,1,0,26737.2,0.109168,0.108842,2.04093,14,0.00729929,10,0.000222139,-2.69017,0.218612,0.269884,21.5304,0.108842,
2,1,0,1,0,26737.2,0.110664,0.110354,2.0739,14,0.00745467,10,0.000228864,-2.68321,0.217852,0.270827,21.9337,0.110354,
2,1,0,1,0,26737.3,0.112164,0.111812,2.10915,14,0.00761289,10,0.000235829,-2.67589,0.254923,0.231442,18.988,0.111812,
2,1,0,1,0,26737.4,0.113662,0.113385,2.13514,14,0.00777323,10,0.000242094,-2.67057,0.267983,0.220164,18.309,0.113385,
2,1,0,1,0,26737.5,0.11516,0.114829,2.16012,14,0.00793532,10,0.000248043,-2.66552,0.315963,0.186731,15.7303,0.114829,
2,1,0,1,0,26737.5,0.116658,0.11636,2.18453,14,0.00809933,10,0.00025419,-2.66064,0.308429,0.191292,16.2773,0.11636,
2,1,0,1,0,26737.6,0.118157,0.117822,2.20523,14,0.00826519,10,0.000259824,-2.65655,0.400049,0.147482,12.6812,0.117822,
2,1,0,1,0,26737.7,0.119655,0.119315,2.2241,14,0.00843256,10,0.000265368,-2.65285,0.481409,0.122557,10.6306,0.119315,
2,1,0,1,0,26737.8,0.121153,0.120872,2.23943,14,0.00860107,10,0.000270684,-2.64986,0.47781,0.12348,10.7997,0.120872,
2,1,0,1,0,26737.8,0.122653,0.122336,2.25488,14,0.00877096,10,0.000275853,-2.64688,0.469248,0.125733,11.0621,0.122336,
2,1,0,1,0,26737.9,0.124149,0.123853,2.27265,14,0.00894165,10,0.000281475,-2.64347,0.50185,0.117565,10.426,0.123853,
2,1,0,1,0,26738,0.125648,0.125317,2.28557,14,0.00911391,10,0.000286421,-2.64101,0.627191,0.0940702,8.38191,0.125317,
2,1,0,1,0,26738.1,0.127146,0.126824,2.29364,14,0.00928698,10,0.000290888,-2.63947,0.599214,0.0984624,8.83347,0.126824,
2,1,0,1,0,26738.1,0.128644,0.128348,2.3136,14,0.00946079,10,0.000296944,-2.63571,0.598254,0.0986203,8.89891,0.128348,
2,1,0,1,0,26738.2,0.130142,0.129813,2.32692,14,0.00963582,10,0.000302064,-2.63322,0.607099,0.0971835,8.80813,0.129813,
2,1,0,1,0,26738.3,0.13164,0.131331,2.3373,14,0.00981189,10,0.00030696,-2.63128,1.00256,0.0588493,5.35364,0.131331,
2,1,0,1,0,26738.4,0.133139,0.132839,2.3437,14,0.00998871,10,0.000311334,-2.6301,1.54113,0.0382836,3.49784,0.132839,
2,1,0,1,0,26738.4,0.134637,0.134263,2.34804,14,0.0101657,10,0.000315254,-2.62929,17.6967,0.00333396,0.305195,0.134263,
2,1,0,1,0,26738.5,0.136135,0.135811,2.34932,14,0.0103429,10,0.000319064,-2.62906,-1.88595,-0.0312839,-2.85683,0.135811,
2,1,0,1,0,26738.6,0.137633,0.137305,2.34113,14,0.0105199,10,0.000321449,-2.63057,-0.557578,-0.105815,-9.61909,0.137305,
2,1,0,1,0,26738.7,0.139133,0.138824,2.32164,14,0.0106959,10,0.0003223,-2.63421,-0.320375,-0.184159,-16.5979,0.138824,
2,1,0,1,0,26738.7,0.140628,0.14032,2.29006,14,0.0108696,10,0.000321341,-2.64015,-0.232973,-0.253249,-22.5243,0.14032,
2,1,0,1,0,26738.8,0.142128,0.141844,2.25,14,0.0110411,10,0.00031915,-2.64782,-0.177458,-0.332472,-29.0365,0.141844,
2,1,0,1,0,26738.9,0.143626,0.143286,2.19789,14,0.0112093,10,0.000314927,-2.65799,-0.131677,-0.448065,-38.2188,0.143286,
2,1,0,1,0,26739,0.145124,0.144801,2.1328,14,0.011373,10,0.000308832,-2.67105,-0.102155,-0.577551,-47.9277,0.144801,
2,1,0,1,0,26739,0.146622,0.146295,2.05603,14,0.0115313,10,0.000300787,-2.68697,-0.091032,-0.648124,-51.9666,0.146295,
2,1,0,1,0,26739.1,0.14812,0.147751,1.97862,14,0.0116838,10,0.000292344,-2.70364,-0.0840686,-0.701808,-53.9776,0.147751,
2,1,0,1,0,26739.2,0.149619,0.149302,1.89517,14,0.0118302,10,0.000282953,-2.72235,-0.0760648,-0.775655,-57.3085,0.149302,
2,1,0,1,0,26739.3,0.151117,0.150791,1.8079,14,0.0119702,10,0.000272615,-2.74282,-0.0730967,-0.80715,-56.8218,0.150791,
2,1,0,1,0,26739.3,0.152615,0.152293,1.71975,14,0.0121037,10,0.000261906,-2.76454,-0.0702155,-0.84027,-56.4703,0.1522934,
2,1,0,1,0,26739.4,0.154113,0.153786,1.64039,14,0.0122308,10,0.000252269,-2.78505,-0.0725661,-0.813051,-52.2201,0.153786,
2,1,0,1,0,26739.5,0.155613,0.155299,1.5648,14,0.0123521,10,0.000243011,-2.80554,-0.0755531,-0.780908,-47.7534,0.155299,
2,1,0,1,0,26739.6,0.157108,0.156794,1.49499,14,0.012468,10,0.000234405,-2.82536,-0.0768818,-0.767412,-44.8718,0.156794,
2,1,0,1,0,26739.6,0.158608,0.158233,1.43317,14,0.012579,10,0.000226774,-2.8437,-0.0831162,-0.70985,-39.8976,0.158233,
2,1,0,1,0,26739.7,0.160106,0.159851,1.37725,14,0.0126854,10,0.000220154,-2.86099,-0.0956267,-0.616982,-33.2915,0.1598509,
2,1,0,1,0,26739.8,0.161604,0.161328,1.32831,14,0.0127881,10,0.000214293,-2.8767,-0.107707,-0.547783,-28.5315,0.161328,
2,1,0,1,0,26739.9,0.163102,0.162795,1.29118,14,0.0128875,10,0.000210198,-2.88901,-0.113098,-0.521672,-26.3173,0.162795,
2,1,0,1,0,26739.9,0.164601,0.164278,1.25571,14,0.0129841,10,0.000206286,-2.90111,-0.122938,-0.479917,-23.5457,0.164278,
2,1,0,1,0,26740,0.166099,0.165756,1.21852,14,0.013078,10,0.000201977,-2.91417,-0.143459,-0.411266,-19.6403,0.165756,
2,1,0,1,0,26740.1,0.167597,0.167269,1.19555,14,0.0131697,10,0.000199978,-2.92243,-0.181537,-0.325003,-15.1693,0.167269,
2,1,0,1,0,26740.2,0.169095,0.168803,1.17238,14,0.0132596,10,0.000197902,-2.93093,-0.189004,-0.312163,-14.2874,0.168803,
2,1,0,1,0,26740.2,0.170593,0.170258,1.15084,14,0.0133479,10,0.00019594,-2.93898,-0.182356,-0.323543,-14.5488,0.170258,
2,1,0,1,0,26740.3,0.172092,0.171802,1.12764,14,0.0134347,10,0.000193731,-2.94783,-0.217934,-0.270724,-11.9578,0.171802,
2,1,0,1,0,26740.4,0.173588,0.173265,1.11357,14,0.0135199,10,0.000192942,-2.95328,-0.264716,-0.22288,-9.70961,0.173265,
2,1,0,1,0,26740.5,0.175088,0.174785,1.10041,14,0.0136042,10,0.000192335,-2.95845,-0.305069,-0.193399,-8.29698,0.174785,
2,1,0,1,0,26740.5,0.176586,0.176254,1.08715,14,0.0136875,10,0.000191614,-2.96371,-0.277057,-0.212953,-9.0351,0.1762538,
2,1,0,1,0,26740.6,0.178084,0.177764,1.0728,14,0.0137697,10,0.000190704,-2.96948,-0.314822,-0.187408,-7.86399,0.177764,
2,1,0,1,0,26740.7,0.179582,0.179257,1.06554,14,0.0138511,10,0.000191005,-2.97243,-0.431908,-0.136603,-5.68492,0.179257,
2,1,0,1,0,26740.8,0.181081,0.180783,1.05783,14,0.0139319,10,0.000191238,-2.97558,-0.400726,-0.147233,-6.08476,0.180783,
2,1,0,1,0,26740.8,0.182579,0.182234,1.0503,14,0.0140121,10,0.0001914,-2.97869,-0.382687,-0.154173,-6.30232,0.182234,
2,1,0,1,0,26740.9,0.184077,0.183777,1.04021,14,0.0140916,10,0.000191166,-2.98288,-0.440799,-0.133848,-5.44734,0.183777,
2,1,0,1,0,26741,0.185577,0.185265,1.0356,14,0.0141706,10,0.000191861,-2.98481,-0.66006,-0.0893858,-3.60667,0.185265,
2,1,0,1,0,26741.1,0.187073,0.186768,1.02894,14,0.0142491,10,0.000192174,-2.98761,-0.857945,-0.0687689,-2.75636,0.186768,
2,1,0,1,0,26741.1,0.188572,0.188285,1.02276,14,0.0143273,10,0.000192571,-2.99023,-0.833704,-0.0707685,-2.82754,0.188285,
2,1,0,1,0,26741.2,0.19007,0.189754,1.0179,14,0.0144049,10,0.00019315,-2.9923,-0.658392,-0.0896122,-3.55666,0.189754,
2,1,0,1,0,26741.3,0.191568,0.191215,1.00854,14,0.0144822,10,0.000192848,-2.99631,-0.686636,-0.0859262,-3.39205,0.191215,
2,1,0,1,0,26741.4,0.193066,0.192782,1.00592,14,0.0145592,10,0.000193924,-2.99743,-1.43239,-0.0411899,-1.61808,0.192782,
2,1,0,1,0,26741.4,0.194564,0.194244,1.00638,14,0.0146358,10,0.000195483,-2.99724,-0.730244,-0.0807949,-3.16411,0.194244,
2,1,0,1,0,26741.5,0.196063,0.19572,0.999409,14,0.0147122,10,0.000195604,-3.00026,-0.625231,-0.0943651,-3.68189,0.19572,
2,1,0,1,0,26741.6,0.197561,0.197209,0.990947,14,0.0147882,10,0.000195424,-3.00395,-0.750668,-0.0785966,-3.05295,0.197209,
2,1,0,1,0,26741.7,0.199059,0.198756,0.992644,14,0.0148639,10,0.000197294,-3.00321,-1.17173,-0.050353,-1.94947,0.1987564,
2,1,0,1,0,26741.7,0.200557,0.200252,0.988722,14,0.0149394,10,0.000197993,-3.00493,-0.923798,-0.0638668,-2.46226,0.200252,
2,1,0,1,0,26741.8,0.202057,0.201715,0.9866,14,0.0150147,10,0.000199012,-3.00586,-0.655787,-0.0899682,-3.45201,0.201715,
2,1,0,1,0,26741.9,0.203552,0.20319,0.980154,14,0.0150897,10,0.000199157,-3.00871,-1.38887,-0.0424806,-1.63008,0.20319,
2,1,0,1,0,26742,0.205052,0.20476,0.978836,14,0.0151644,10,0.000200427,-3.00929,2.67944,0.0220195,0.845464,0.20476,
2,1,0,1,0,26742,0.20655,0.206211,0.975742,14,0.015239,10,0.000201209,-3.01066,-1.79077,-0.0329468,-1.25618,0.206211,
2,1,0,1,0,26742.1,0.208048,0.207745,0.976887,14,0.0153136,10,0.000202943,-3.01016,-1.16247,-0.050754,-1.92551,0.207745,
2,1,0,1,0,26742.2,0.209546,0.209226,0.972618,14,0.0153879,10,0.000203497,-3.01206,-0.636752,-0.0926577,-3.51862,0.209226,
2,1,0,1,0,26742.3,0.211044,0.210691,0.970786,14,0.0154618,10,0.000204536,-3.01288,-1.15487,-0.0510878,-1.93357,0.210691,
2,1,0,1,0,26742.3,0.212543,0.21222,0.966976,14,0.0155356,10,0.000205211,-3.01458,-2.71525,-0.0217291,-0.818713,0.21222,
2,1,0,1,0,26742.4,0.214041,0.213701,0.965651,14,0.0156092,10,0.000206361,-3.01518,-1.44809,-0.0407434,-1.53491,0.213701,
2,1,0,1,0,26742.5,0.215539,0.215204,0.963675,14,0.0156828,10,0.000207386,-3.01607,-1.35009,-0.0437008,-1.64171,0.215204,
2,1,0,1,0,26742.6,0.217037,0.216694,0.95837,14,0.015756,10,0.000207673,-3.01847,-2.53545,-0.0232701,-0.871827,0.216694,
2,1,0,1,0,26742.6,0.218536,0.218268,0.957314,14,0.0158291,10,0.000208951,-3.01895,41.8096,0.00141116,0.052712,0.218268,
2,1,0,1,0,26742.7,0.220032,0.21971,0.956609,14,0.0159021,10,0.000210177,-3.01927,-1.79152,-0.032933,-1.22788,0.21971,
2,1,0,1,0,26742.8,0.221532,0.221238,0.954512,14,0.0159751,10,0.000211174,-3.02022,-1.21943,-0.0483831,-1.80039,0.221238,
2,1,0,1,0,26742.9,0.22303,0.222741,0.949939,14,0.0160478,10,0.00021159,-3.0223,-1.09282,-0.0539886,-2.01042,0.222741,
2,1,0,1,0,26742.9,0.224528,0.224175,0.950322,14,0.0161203,10,0.000213039,-3.02213,-2.00281,-0.0294586,-1.09237,0.2241752,
2,1,0,1,0,26743,0.226026,0.225724,0.948739,14,0.0161927,10,0.000214154,-3.02285,-1.93483,-0.0304936,-1.12856,0.2257244,
2,1,0,1,0,26743.1,0.227525,0.227238,0.947345,14,0.016265,10,0.000215273,-3.02349,-1.00095,-0.0589443,-2.17422,0.227238,
2,1,0,1,0,26743.2,0.229023,0.228707,0.944842,14,0.0163372,10,0.000216092,-3.02464,-1.38964,-0.0424571,-1.56739,0.228707,
2,1,0,1,0,26743.2,0.230521,0.230219,0.941596,14,0.0164091,10,0.000216774,-3.02614,-2.07863,-0.0283841,-1.04595,0.230219,
2,1,0,1,0,26743.3,0.232019,0.231742,0.942909,14,0.016481,10,0.000218512,-3.02553,-1.91983,-0.0307319,-1.12907,0.231742,
2,1,0,1,0,26743.4,0.233517,0.233184,0.942326,14,0.0165528,10,0.000219735,-3.0258,-2.20616,-0.0267432,-0.980159,0.233184,
2,1,0,1,0,26743.5,0.235016,0.234708,0.940074,14,0.0166246,10,0.000220643,-3.02684,-0.992355,-0.0594545,-2.17744,0.234708,
2,1,0,1,0,26743.5,0.236512,0.236179,0.935424,14,0.0166959,10,0.000220928,-3.02899,-4.57126,-0.0129067,-0.472161,0.236179,
2,1,0,1,0,26743.6,0.238012,0.237682,0.937075,14,0.0167673,10,0.000222726,-3.02823,-10.2596,-0.00575073,-0.20975,0.237682,
2,1,0,1,0,26743.7,0.23951,0.23923,0.933789,14,0.0168387,10,0.00022339,-3.02975,-2.66819,-0.0221123,-0.804803,0.23923,
2,1,0,1,0,26743.8,0.241008,0.240722,0.931518,14,0.0169099,10,0.000224237,-3.03081,-1.69685,-0.0347703,-1.26549,0.240722,
2,1,0,1,0,26743.8,0.242506,0.242174,0.927413,14,0.0169808,10,0.000224595,-3.03273,-1.30368,-0.0452565,-1.6447,0.242174,
2,1,0,1,0,26743.9,0.244005,0.243682,0.930965,14,0.0170518,10,0.000226859,-3.03107,6.56662,0.00898484,0.325642,0.243682,
2,1,0,1,0,26744,0.245503,0.245235,0.930946,14,0.0171226,10,0.0002283,-3.03108,-1.45735,-0.0404844,-1.46297,0.245235,
2,1,0,1,0,26744.1,0.247001,0.246662,0.929543,14,0.0171935,10,0.000229283,-3.03173,-1.42887,-0.0412913,-1.49227,0.246662,
2,1,0,1,0,26744.1,0.248501,0.24817,0.924073,14,0.0172641,10,0.000229328,-3.03429,-2.25315,-0.0261855,-0.94582,0.2481705,
2,1,0,1,0,26744.2,0.249997,0.249686,0.923101,14,0.0173345,10,0.000230486,-3.03475,-2.78501,-0.0211848,-0.763545,0.249686,
2,1,0,1,0,26744.3,0.251496,0.251191,0.921209,14,0.017405,10,0.000231399,-3.03564,-2.52734,-0.0233447,-0.839036,0.251191,
2,1,0,1,0,26744.4,0.252994,0.252692,0.92026,14,0.0174753,10,0.000232543,-3.03609,-1.10349,-0.0534668,-1.92108,0.2526921,
2,1,0,1,0,26744.4,0.254492,0.254178,0.918295,14,0.0175455,10,0.000233411,-3.03702,-1.36413,-0.0432511,-1.55108,0.254178,
2,1,0,1,0,26744.5,0.25599,0.25573,0.915742,14,0.0176154,10,0.000234183,-3.03823,-6.4712,-0.00911732,-0.326587,0.25573,
2,1,0,1,0,26744.6,0.257488,0.257214,0.916296,14,0.0176853,10,0.000235684,-3.03796,-23.7092,-0.00248848,-0.0888249,0.257214,
2,1,0,1,0,26744.7,0.258987,0.258695,0.915075,14,0.0177552,10,0.000236725,-3.03854,-1.91273,-0.030846,-1.09967,0.258695,
2,1,0,1,0,26744.7,0.260485,0.260197,0.915411,14,0.017825,10,0.000238187,-3.03838,-1.64857,-0.0357885,-1.27381,0.260197,
2,1,0,1,0,26744.8,0.261983,0.261677,0.911445,14,0.0178945,10,0.000238504,-3.04027,-1.56113,-0.0377932,-1.34338,0.261677,
2,1,0,1,0,26744.9,0.263481,0.263186,0.910964,14,0.017964,10,0.000239753,-3.0405,3.34709,0.0176273,0.625525,0.263186,
2,1,0,1,0,26745,0.264981,0.264715,0.908147,14,0.0180334,10,0.0002404,-3.04184,-3.32571,-0.0177406,-0.629849,0.264715,
2,1,0,1,0,26745,0.266476,0.266159,0.906207,14,0.0181026,10,0.000241195,-3.04277,-1.35398,-0.0435752,-1.54224,0.266159,
2,1,0,1,0,26745.1,0.267976,0.26767,0.902652,14,0.0181719,10,0.000241613,-3.04448,-8.64164,-0.00682741,-0.241138,0.26767,
2,1,0,1,0,26745.2,0.269474,0.269166,0.90318,14,0.0182408,10,0.000243106,-3.04423,-3.39939,-0.0173561,-0.612838,0.2691665,
2,1,0,1,0,26745.3,0.270972,0.270648,0.905134,14,0.0183097,10,0.000244973,-3.04329,-2.93061,-0.0201323,-0.709837,0.270648,
2,1,0,1,0,26745.3,0.27247,0.272197,0.899338,14,0.0183786,10,0.000244797,-3.04608,-1.08707,-0.0542742,-1.90381,0.272197,
2,1,0,1,0,26745.4,0.273968,0.273665,0.896384,14,0.0184473,10,0.000245309,-3.04751,-2.34542,-0.0251554,-0.881523,0.273665,
2,1,0,1,0,26745.5,0.275467,0.275183,0.897951,14,0.0185158,10,0.000247101,-3.04675,-1.30097,-0.0453507,-1.59121,0.275183,
2,1,0,1,0,26745.6,0.276965,0.276655,0.897143,14,0.0185842,10,0.000248199,-3.04714,-2.23635,-0.0263823,-0.923509,0.276655,
2,1,0,1,0,26745.6,0.278463,0.278127,0.894962,14,0.0186526,10,0.000248913,-3.0482,-1.35543,-0.0435285,-1.51637,0.278127,
2,1,0,1,0,26745.7,0.279961,0.27966,0.893177,14,0.0187208,10,0.000249786,-3.04906,-1.51526,-0.0389373,-1.35407,0.27966,
2,1,0,1,0,26745.8,0.28146,0.281134,0.889613,14,0.0187888,10,0.0002501,-3.0508,-2.71953,-0.021695,-0.754051,0.281134,
2,1,0,1,0,26745.9,0.282956,0.282639,0.891225,14,0.0188566,10,0.000251894,-3.05001,-2.77771,-0.0212405,-0.735505,0.282639,
2,1,0,1,0,26745.9,0.284456,0.284148,0.888484,14,0.0189246,10,0.000252461,-3.05135,-1.66517,-0.0354319,-1.22532,0.284148,
2,1,0,1,0,26746,0.285954,0.285648,0.884585,14,0.0189924,10,0.00025268,-3.05326,-1.5774,-0.0374032,-1.29116,0.2856482,
2,1,0,1,0,26746.1,0.287452,0.287143,0.882307,14,0.0190598,10,0.000253349,-3.05438,-1.33384,-0.0442333,-1.52704,0.287143,
2,1,0,1,0,26746.2,0.28895,0.288637,0.882147,14,0.0191272,10,0.00025462,-3.05446,-22.2819,-0.00264789,-0.0910173,0.288637,
2,1,0,1,0,26746.2,0.290449,0.290148,0.880551,14,0.0191945,10,0.00025549,-3.05525,-0.998168,-0.0591083,-2.02961,0.290148,
2,1,0,1,0,26746.3,0.291947,0.291695,0.875153,14,0.0192617,10,0.000255277,-3.05792,-1.10329,-0.0534766,-1.82975,0.291695,
2,1,0,1,0,26746.4,0.293445,0.293122,0.873514,14,0.0193286,10,0.000256046,-3.05873,-1.14305,-0.0516163,-1.77107,0.2931219,
2,1,0,1,0,26746.5,0.294943,0.294663,0.877145,14,0.0193954,10,0.000258463,-3.05693,-2.09183,-0.028205,-0.963611,0.294663,
2,1,0,1,0,26746.5,0.296441,0.296159,0.87547,14,0.0194621,10,0.000259278,-3.05776,-2.19183,-0.0269182,-0.915217,0.296159,
2,1,0,1,0,26746.6,0.29794,0.297644,0.8716,14,0.0195289,10,0.000259426,-3.05968,-0.730427,-0.0807746,-2.74033,0.297644,
2,1,0,1,0,26746.7,0.299436,0.299128,0.86783,14,0.0195954,10,0.000259592,-3.06157,-0.00295577,-19.9609,-366.162,0.299128,
2,1,0,1,0,26746.7,0.299739,0.299434,0.521806,14,0.0196285,10,0.000156246,-3.28249,0.000995872,59.2446,771.596,0.299434,
2,1,0,1,0,26746.8,0.298239,0.297931,-0.00456206,14,0.0196404,10,-1.35918e-06,-5.34084,0.0048316,12.2113,260.633,0.297931,
2,0,0,1,0,26746.9,0.296741,0.296389,-0.114456,14,0.0196339,10,-3.39235e-05,-3.94136,-0.0101002,-5.84147,63.5925,0.296389,
2,0,0,1,0,26747,0.295243,0.294914,-0.16815,14,0.0196218,10,-4.95897e-05,-3.7743,-0.0108971,-5.41427,29.6834,0.294914,
2,0,0,1,0,26747,0.293745,0.293429,-0.201569,14,0.0196066,10,-5.91463e-05,-3.69558,-0.020857,-2.82879,21.0645,0.293429,
2,0,0,1,0,26747.1,0.292246,0.291925,-0.227515,14,0.0195892,10,-6.64173e-05,-3.64299,-0.0301039,-1.95988,16.9723,0.2919246,
2,0,0,1,0,26747.2,0.290748,0.290454,-0.250041,14,0.01957,10,-7.26256e-05,-3.60199,-0.0375574,-1.57093,15.1983,0.290454,
2,0,0,1,0,26747.3,0.28925,0.288975,-0.269622,14,0.0195491,10,-7.79142e-05,-3.56924,-0.0503316,-1.17223,12.2642,0.288975,
2,0,0,1,0,26747.3,0.287752,0.287421,-0.287138,14,0.0195269,10,-8.25296e-05,-3.54191,-0.0641877,-0.919179,10.1933,0.287421,
2,0,0,1,0,26747.4,0.286254,0.285931,-0.300443,14,0.0195035,10,-8.59059e-05,-3.52224,-0.0721487,-0.817756,9.6439,0.285931,
2,0,0,1,0,26747.5,0.284754,0.284427,-0.317899,14,0.0194789,10,-9.04189e-05,-3.49771,-0.0660974,-0.892622,11.0317,0.284427,
2,0,0,1,0,26747.5,0.283259,0.282932,-0.333311,14,0.0194533,10,-9.43042e-05,-3.47715,-0.0821152,-0.718503,9.25682,0.282932,
2,0,0,1,0,26747.6,0.281759,0.281469,-0.34367,14,0.0194266,10,-9.67324e-05,-3.46386,-0.0890106,-0.662842,8.81578,0.281469,
2,0,0,1,0,26747.7,0.280261,0.279923,-0.354994,14,0.0193991,10,-9.93711e-05,-3.44978,-0.106543,-0.553769,7.64713,0.279923,
2,0,0,1,0,26747.8,0.278763,0.278439,-0.366826,14,0.0193708,10,-0.000102138,-3.43554,-0.114643,-0.514642,7.38367,0.278439,
2,0,0,1,0,26747.8,0.277264,0.276927,-0.377432,14,0.0193416,10,-0.000104521,-3.42316,-0.126013,-0.468205,6.87911,0.276927,
2,0,0,1,0,26747.9,0.275766,0.275401,-0.38763,14,0.0193116,10,-0.000106753,-3.41158,-0.167397,-0.352456,5.31144,0.275401,
2,0,0,1,0,26748,0.274268,0.273944,-0.396697,14,0.0192809,10,-0.000108673,-3.40154,-0.159685,-0.369477,5.71719,0.273944,
2,0,0,1,0,26748.1,0.27277,0.272463,-0.404979,14,0.0192496,10,-0.000110342,-3.39257,-0.152514,-0.386849,6.14299,0.272463,
2,0,0,1,0,26748.1,0.271272,0.270965,-0.416112,14,0.0192176,10,-0.000112752,-3.38079,-0.160689,-0.36717,5.92939,0.270965,
2,0,0,1,0,26748.2,0.269774,0.269436,-0.423854,14,0.0191848,10,-0.000114201,-3.37278,-0.160859,-0.366781,6.04731,0.269436,
2,0,0,1,0,26748.3,0.268274,0.26794,-0.43204,14,0.0191513,10,-0.000115761,-3.36448,-0.193304,-0.305219,5.12438,0.26794,
2,0,0,1,0,26748.4,0.266779,0.266451,-0.437699,14,0.0191175,10,-0.000116625,-3.35882,-0.203157,-0.290416,4.99398,0.266451,
2,0,0,1,0,26748.4,0.265279,0.264973,-0.4469,14,0.0190829,10,-0.000118417,-3.34979,-0.165109,-0.357339,6.21922,0.264973,
2,0,0,1,0,26748.5,0.263781,0.263451,-0.454777,14,0.0190478,10,-0.000119811,-3.3422,-0.193922,-0.304246,5.38584,0.2634511,
2,0,0,1,0,26748.6,0.262283,0.261976,-0.460198,14,0.019012,10,-0.000120561,-3.33706,-0.233117,-0.253092,4.5569,0.261976,
2,0,0,1,0,26748.7,0.260784,0.260492,-0.466018,14,0.0189759,10,-0.000121394,-3.3316,-0.253999,-0.232285,4.26276,0.260492,
2,0,0,1,0,26748.7,0.259286,0.259,-0.476265,14,0.0189391,10,-0.000123353,-3.32215,-0.200776,-0.29386,5.46503,0.259,
2,0,0,1,0,26748.8,0.257788,0.257515,-0.487956,14,0.0189018,10,-0.000125656,-3.31162,-0.272236,-0.216724,4.08937,0.257515,
2,0,0,1,0,26748.9,0.25629,0.255992,-0.490536,14,0.0188639,10,-0.000125573,-3.30933,-0.269304,-0.219083,4.16982,0.255992,
2,0,0,1,0,26749,0.25479,0.254475,-0.495396,14,0.0188255,10,-0.000126066,-3.30505,-0.261367,-0.225737,4.37953,0.254475,
2,0,0,1,0,26749,0.253294,0.252988,-0.503493,14,0.0187869,10,-0.000127377,-3.29801,-0.256626,-0.229907,4.51763,0.252988,
2,0,0,1,0,26749.1,0.251795,0.251451,-0.508216,14,0.0187476,10,-0.000127791,-3.29395,-0.273146,-0.216002,4.2913,0.251451,
2,0,0,1,0,26749.2,0.250297,0.249964,-0.517742,14,0.0187078,10,-0.000129417,-3.28589,-0.384665,-0.15338,3.07196,0.249964,
2,0,0,1,0,26749.3,0.248799,0.248474,-0.520341,14,0.0186676,10,-0.000129291,-3.28371,-0.416694,-0.141591,2.88569,0.248474,
2,0,0,1,0,26749.3,0.247301,0.246942,-0.529866,14,0.0186272,10,-0.000130846,-3.27583,-0.295353,-0.199761,4.11736,0.246942,
2,0,0,1,0,26749.4,0.245802,0.245464,-0.532765,14,0.0185861,10,-0.000130775,-3.27346,-0.272068,-0.216858,4.49235,0.245464,
2,0,0,1,0,26749.5,0.244304,0.244003,-0.540876,14,0.0185444,10,-0.000131975,-3.2669,-0.419271,-0.140721,2.94724,0.2440028,
2,0,0,1,0,26749.6,0.242806,0.242458,-0.544103,14,0.0185025,10,-0.000131922,-3.26432,-0.457736,-0.128895,2.7458,0.242458,
2,0,0,1,0,26749.6,0.241308,0.240994,-0.548874,14,0.0184603,10,-0.000132275,-3.26053,-0.346106,-0.170468,3.66541,0.240994,
2,0,0,1,0,26749.7,0.23981,0.239523,-0.554172,14,0.0184175,10,-0.000132737,-3.25636,-0.28741,-0.205282,4.44561,0.239523,
2,0,0,1,0,26749.8,0.23831,0.237971,-0.560376,14,0.0183742,10,-0.000133353,-3.25152,-0.305374,-0.193205,4.23063,0.237971,
2,0,0,1,0,26749.9,0.236815,0.236504,-0.568191,14,0.0183307,10,-0.000134379,-3.24551,-0.447527,-0.131836,2.91539,0.236504,
2,0,0,1,0,26749.9,0.235315,0.234946,-0.568831,14,0.0182866,10,-0.000133645,-3.24502,-0.373903,-0.157795,3.52334,0.234946,
2,0,0,1,0,26750,0.233817,0.23351,-0.575338,14,0.0182423,10,-0.000134347,-3.24008,-0.327924,-0.17992,4.05074,0.23351,
2,0,0,1,0,26750.1,0.232319,0.231995,-0.585777,14,0.0181974,10,-0.000135897,-3.23227,-0.397269,-0.148514,3.37245,0.231995,
2,0,0,1,0,26750.2,0.230821,0.230501,-0.589891,14,0.0181521,10,-0.00013597,-3.22923,-0.507094,-0.116349,2.66699,0.230501,
2,0,0,1,0,26750.2,0.229322,0.22898,-0.594499,14,0.0181065,10,-0.000136128,-3.22585,-0.461855,-0.127746,2.96121,0.22898,
2,0,0,1,0,26750.3,0.227824,0.227524,-0.596298,14,0.0180605,10,-0.000135672,-3.22454,-0.358603,-0.164527,3.84995,0.227524,
2,0,0,1,0,26750.4,0.226326,0.225988,-0.605036,14,0.0180141,10,-0.000136731,-3.21822,-0.406846,-0.145018,3.42544,0.225988,
2,0,0,1,0,26750.5,0.224828,0.224503,-0.610125,14,0.0179673,10,-0.000136975,-3.21458,-0.455709,-0.129469,3.07147,0.224503,
2,0,0,1,0,26750.5,0.22333,0.222975,-0.61398,14,0.0179201,10,-0.000136902,-3.21185,-0.463463,-0.127302,3.05441,0.222975,
2,0,0,1,0,26750.6,0.22183,0.221529,-0.61901,14,0.0178726,10,-0.000137128,-3.2083,-0.368838,-0.159962,3.86144,0.221529,
2,0,0,1,0,26750.7,0.220335,0.219993,-0.624671,14,0.0178247,10,-0.000137423,-3.20435,-0.349192,-0.168961,4.11184,0.2199931,
2,0,0,1,0,26750.8,0.218835,0.218543,-0.631683,14,0.0177762,10,-0.00013805,-3.1995,-0.443779,-0.132949,3.27257,0.218543,
2,0,0,1,0,26750.8,0.217337,0.216999,-0.634825,14,0.0177275,10,-0.000137756,-3.19735,-0.736805,-0.0800755,1.98844,0.216999,
2,0,0,1,0,26750.9,0.215839,0.215526,-0.635284,14,0.0176785,10,-0.00013692,-3.19703,-0.421708,-0.139907,3.49683,0.2155259,
2,0,0,1,0,26751,0.21434,0.21402,-0.643952,14,0.017629,10,-0.000137819,-3.19115,-0.337413,-0.17486,4.38808,0.21402,
2,0,0,1,0,26751.1,0.212842,0.212511,-0.651456,14,0.0175791,10,-0.000138442,-3.18611,-0.500414,-0.117902,2.99206,0.212511,
2,0,0,1,0,26751.1,0.211344,0.211017,-0.656707,14,0.0175289,10,-0.000138576,-3.18263,-0.55404,-0.106491,2.72043,0.211017,
2,0,0,1,0,26751.2,0.209846,0.209543,-0.657123,14,0.0174783,10,-0.000137696,-3.18235,-0.516668,-0.114193,2.93735,0.209543,
2,0,0,1,0,26751.3,0.208348,0.208042,-0.666134,14,0.0174274,10,-0.000138584,-3.17644,-0.368955,-0.159911,4.16662,0.208042,
2,0,0,1,0,26751.4,0.20685,0.20651,-0.67597,14,0.017376,10,-0.000139595,-3.17007,-0.372731,-0.158291,4.1415,0.20651,
2,0,0,1,0,26751.4,0.20535,0.204998,-0.676266,14,0.0173239,10,-0.000138633,-3.16988,-0.574744,-0.102654,2.7001,0.204998,
2,0,0,1,0,26751.5,0.203855,0.203503,-0.67984,14,0.0172717,10,-0.000138349,-3.16759,-0.361647,-0.163142,4.34931,0.203503,
2,0,0,1,0,26751.6,0.202355,0.20203,-0.686911,14,0.0172191,10,-0.000138776,-3.1631,-0.380419,-0.155092,4.16321,0.20203,
2,0,0,1,0,26751.7,0.200857,0.20051,-0.691681,14,0.0171661,10,-0.000138689,-3.16009,-0.396877,-0.148661,4.00948,0.20051,
2,0,0,1,0,26751.7,0.199359,0.19906,-0.696942,14,0.0171126,10,-0.000138733,-3.1568,-0.47352,-0.124599,3.38428,0.19906,
2,0,0,1,0,26751.8,0.19786,0.197547,-0.704419,14,0.0170586,10,-0.000139156,-3.15217,-0.473328,-0.124649,3.41515,0.197547,
2,0,0,1,0,26751.9,0.196362,0.196041,-0.709928,14,0.0170044,10,-0.000139175,-3.14879,-0.437212,-0.134946,3.73365,0.196041,
2,0,0,1,0,26752,0.194864,0.194545,-0.716467,14,0.0169497,10,-0.000139385,-3.1448,-0.41735,-0.141368,3.94556,0.1945446,
2,0,0,1,0,26752,0.193366,0.193009,-0.723377,14,0.0168944,10,-0.000139618,-3.14064,-0.464995,-0.126883,3.58221,0.193009,
2,0,0,1,0,26752.1,0.191866,0.191506,-0.730048,14,0.0168385,10,-0.000139809,-3.13665,-0.496669,-0.118791,3.3781,0.191506,
2,0,0,1,0,26752.2,0.19037,0.190049,-0.732212,14,0.0167825,10,-0.000139156,-3.13536,-0.367413,-0.160582,4.61259,0.190049,
2,0,0,1,0,26752.3,0.188871,0.188527,-0.743473,14,0.0167258,10,-0.000140165,-3.12873,-0.306498,-0.192497,5.58169,0.188527,
2,0,0,1,0,26752.3,0.187373,0.187047,-0.747749,14,0.0166686,10,-0.000139864,-3.12624,-0.342177,-0.172425,5.04112,0.1870466,
2,0,0,1,0,26752.4,0.185875,0.185601,-0.754783,14,0.0166109,10,-0.000140089,-3.12218,-0.5427,-0.108716,3.19276,0.185601,
2,0,0,1,0,26752.5,0.184377,0.184043,-0.760816,14,0.0165528,10,-0.000140023,-3.11872,-0.377162,-0.156432,4.65644,0.184043,
2,0,0,1,0,26752.6,0.182878,0.182566,-0.768923,14,0.0164942,10,-0.000140379,-3.11412,-0.367005,-0.160761,4.83624,0.182566,
2,0,0,1,0,26752.6,0.18138,0.181037,-0.777586,14,0.0164349,10,-0.000140771,-3.10925,-0.284605,-0.207305,6.2936,0.181037,
2,0,0,1,0,26752.7,0.179882,0.179571,-0.784676,14,0.016375,10,-0.000140905,-3.10531,-0.4181,-0.141115,4.32127,0.179571,
2,0,0,1,0,26752.8,0.178384,0.178097,-0.793754,14,0.0163145,10,-0.000141365,-3.10031,-0.338608,-0.174243,5.39474,0.178097,
2,0,0,1,0,26752.9,0.176886,0.176563,-0.801615,14,0.0162535,10,-0.000141536,-3.09603,-0.317909,-0.185588,5.82081,0.176563,
2,0,0,1,0,26752.9,0.175386,0.175081,-0.810908,14,0.0161917,10,-0.000141975,-3.09103,-0.259167,-0.227653,7.1939,0.175081,
2,0,0,1,0,26753,0.173891,0.173524,-0.82081,14,0.0161293,10,-0.00014243,-3.08576,-0.269024,-0.219311,7.01933,0.173524,
2,0,0,1,0,26753.1,0.172391,0.172036,-0.831417,14,0.0160659,10,-0.000143034,-3.08018,-0.247904,-0.237996,7.72712,0.172036,
2,0,0,1,0,26753.2,0.170893,0.170561,-0.839366,14,0.016002,10,-0.000143163,-3.07605,-0.25451,-0.231818,7.62887,0.170561,
2,0,0,1,0,26753.2,0.169395,0.169071,-0.853037,14,0.0159372,10,-0.000144224,-3.06903,-0.211054,-0.279549,9.2987,0.1690712,
2,0,0,1,0,26753.3,0.167897,0.167551,-0.8671,14,0.0158714,10,-0.000145283,-3.06193,-0.242232,-0.243568,8.23227,0.167551,
2,0,0,1,0,26753.4,0.166398,0.166068,-0.878147,14,0.0158046,10,-0.000145832,-3.05643,-0.26138,-0.225725,7.76471,0.166068,
2,0,0,1,0,26753.5,0.1649,0.164572,-0.891384,14,0.0157371,10,-0.000146697,-3.04994,-0.229393,-0.2572,8.98027,0.164572,
2,0,0,1,0,26753.5,0.163402,0.163089,-0.904364,14,0.0156684,10,-0.000147492,-3.04366,-0.199635,-0.295539,10.4679,0.163089,
2,0,0,1,0,26753.6,0.161904,0.161568,-0.923274,14,0.0155985,10,-0.000149172,-3.03467,-0.195274,-0.30214,10.8735,0.161568,
2,0,0,1,0,26753.7,0.160406,0.160078,-0.942692,14,0.0155273,10,-0.000150904,-3.02563,-0.189604,-0.311175,11.4411,0.160078,
2,0,0,1,0,26753.8,0.158906,0.158568,-0.961538,14,0.0154546,10,-0.000152469,-3.01703,-0.161216,-0.365969,13.7663,0.158568,
2,0,0,1,0,26753.8,0.157411,0.157132,-0.981773,14,0.0153807,10,-0.000154268,-3.00799,-0.145642,-0.405102,15.5818,0.157132,
2,0,0,1,0,26753.9,0.155911,0.155596,-1.00663,14,0.0153047,10,-0.000156628,-2.99713,-0.134017,-0.440241,17.3342,0.155596,
2,0,0,1,0,26754,0.154413,0.154088,-1.03242,14,0.0152269,10,-0.000159084,-2.98614,-0.138485,-0.426038,17.1735,0.154088,
2,0,0,1,0,26754.1,0.152915,0.152594,-1.06008,14,0.015147,10,-0.000161761,-2.97466,-0.121691,-0.484834,20.1533,0.152594,
2,0,0,1,0,26754.1,0.151416,0.151065,-1.09158,14,0.0150652,10,-0.0001649,-2.96194,-0.113813,-0.518395,22.1586,0.151065,
2,0,0,1,0,26754.2,0.149918,0.149595,-1.13038,14,0.0149805,10,-0.000169099,-2.94678,-0.100168,-0.589011,25.962,0.149595,
2,0,0,1,0,26754.3,0.14842,0.148087,-1.17187,14,0.014893,10,-0.000173538,-2.93112,-0.0985575,-0.598635,27.3817,0.148087,
2,0,0,1,0,26754.4,0.146922,0.146618,-1.21665,14,0.0148023,10,-0.000178383,-2.91483,-0.0898007,-0.657011,31.2085,0.1466177,
2,0,0,1,0,26754.4,0.145424,0.145109,-1.26163,14,0.0147083,10,-0.000183073,-2.89907,-0.0837014,-0.704886,34.8736,0.145109,
2,0,0,1,0,26754.5,0.143926,0.1436,-1.31447,14,0.0146103,10,-0.000188758,-2.88125,-0.0767649,-0.768581,39.59,0.1436,
2,0,0,1,0,26754.6,0.142426,0.142087,-1.379,14,0.0145078,10,-0.000195939,-2.86044,-0.0756439,-0.779971,41.9939,0.142087,
2,0,0,1,0,26754.7,0.140931,0.140583,-1.43887,14,0.014401,10,-0.00020228,-2.84198,-0.0786338,-0.750313,42.2264,0.140583,
2,0,0,1,0,26754.7,0.139431,0.139102,-1.50159,14,0.0142892,10,-0.000208874,-2.82345,-0.0765972,-0.770263,45.3294,0.139102,
2,0,0,1,0,26754.8,0.137933,0.137618,-1.57443,14,0.0141725,10,-0.00021667,-2.80288,-0.079019,-0.746656,45.9246,0.137618,
2,0,0,1,0,26754.9,0.136435,0.136101,-1.64807,14,0.0140504,10,-0.000224305,-2.78302,-0.0792031,-0.744921,47.8442,0.136101,
2,0,0,1,0,26755,0.134936,0.134613,-1.71964,14,0.0139229,10,-0.000231487,-2.76456,-0.0844399,-0.698722,46.7929,0.134613,
2,0,0,1,0,26755,0.133438,0.133099,-1.78905,14,0.0137899,10,-0.000238121,-2.74738,-0.0879257,-0.671021,46.7844,0.133099,
2,0,0,1,0,26755.1,0.13194,0.131599,-1.8606,14,0.0136518,10,-0.000244853,-2.73035,-0.0935743,-0.630515,45.7969,0.131599,
2,0,0,1,0,26755.2,0.130442,0.130106,-1.92782,14,0.0135085,10,-0.000250821,-2.71493,-0.103185,-0.571786,42.9372,0.130106,
2,0,0,1,0,26755.3,0.128942,0.128593,-1.99576,14,0.0133599,10,-0.000256641,-2.69989,-0.113014,-0.52206,40.4972,0.1285928,
2,0,0,1,0,26755.3,0.127446,0.127104,-2.05232,14,0.0132071,10,-0.000260857,-2.68776,-0.12332,-0.478431,38.2419,0.127104,
2,0,0,1,0,26755.4,0.125947,0.125641,-2.10636,14,0.0130498,10,-0.000264645,-2.67647,-0.131768,-0.447757,36.787,0.1256409,
2,0,0,1,0,26755.5,0.124449,0.124136,-2.16015,14,0.0128885,10,-0.000268152,-2.66552,-0.144508,-0.408283,34.321,0.124136,
2,0,0,1,0,26755.6,0.122951,0.122605,-2.20957,14,0.0127234,10,-0.000270906,-2.65569,-0.168423,-0.350309,30.1013,0.122605,
2,0,0,1,0,26755.6,0.121453,0.121131,-2.24692,14,0.0125549,10,-0.000272172,-2.64841,-0.214295,-0.275321,24.0855,0.121131,
2,0,0,1,0,26755.7,0.119955,0.119655,-2.27746,14,0.0123838,10,-0.000272509,-2.64255,-0.250986,-0.235073,20.9168,0.119655,
2,0,0,1,0,26755.8,0.118456,0.118109,-2.31613,14,0.0122103,10,-0.000273557,-2.63524,-0.266196,-0.221641,19.9793,0.118109,
2,0,0,1,0,26755.9,0.116958,0.11666,-2.3412,14,0.0120345,10,-0.000273125,-2.63056,-0.355696,-0.165872,15.1078,0.11666,
2,0,0,1,0,26755.9,0.11546,0.115091,-2.36068,14,0.011857,10,-0.000271692,-2.62696,-0.631094,-0.0934885,8.58071,0.115091,
2,0,0,1,0,26756,0.113962,0.113672,-2.36865,14,0.0116785,10,-0.000269248,-2.6255,-0.770494,-0.0765743,7.07091,0.113672,
2,0,0,1,0,26756.1,0.112462,0.112146,-2.37931,14,0.0114991,10,-0.000266831,-2.62355,-1.81499,-0.0325071,3.01376,0.112146,
2,0,0,1,0,26756.2,0.110967,0.110643,-2.38295,14,0.0113197,10,-0.000263658,-2.62288,-3.88487,-0.0151871,1.40974,0.110643,
2,0,0,1,0,26756.2,0.109467,0.109155,-2.38167,14,0.0111396,10,-0.000259972,-2.62312,1.52262,0.0387489,-3.59236,0.1091551,
2,0,0,1,0,26756.3,0.107969,0.107658,-2.37608,14,0.01096,10,-0.000255804,-2.62414,1.15509,0.0510781,-4.73107,0.107658,
2,0,0,1,0,26756.4,0.106471,0.106156,-2.36422,14,0.0107812,10,-0.000250975,-2.62631,0.863492,0.0683272,-6.31026,0.106156,
2,0,0,1,0,26756.5,0.104973,0.104667,-2.35321,14,0.0106031,10,-0.000246304,-2.62834,0.691525,0.0853187,-7.83656,0.104667,
2,0,0,1,0,26756.5,0.103474,0.103131,-2.3425,14,0.0104257,10,-0.000241584,-2.63032,0.551006,0.107077,-9.76955,0.103131,
2,0,0,1,0,26756.6,0.101976,0.101657,-2.32476,14,0.0102496,10,-0.000236328,-2.63362,0.402239,0.146679,-13.2891,0.101657,
2,0,0,1,0,26756.7,0.100478,0.100133,-2.30383,14,0.010075,10,-0.00023069,-2.63755,0.395709,0.149099,-13.4048,0.100133,
2,0,0,1,0,26756.8,0.0989799,0.0986774,-2.28453,14,0.00990186,10,-0.000225431,-2.6412,0.397541,0.148412,-13.2126,0.0986774,
2,0,0,1,0,26756.8,0.0974817,0.0971619,-2.26334,14,0.00973019,10,-0.000219911,-2.64525,0.380795,0.154939,-13.6816,0.0971619,
2,0,0,1,0,26756.9,0.0959821,0.0956453,-2.24163,14,0.00955983,10,-0.000214401,-2.64944,0.377627,0.156239,-13.6731,0.0956453,
2,0,0,1,0,26757,0.0944866,0.0941763,-2.21924,14,0.0093916,10,-0.000209,-2.6538,0.410197,0.143833,-12.4777,0.0941763,
2,0,0,1,0,26757.1,0.0929871,0.092684,-2.19836,14,0.0092245,10,-0.000203753,-2.6579,0.416931,0.14151,-12.1573,0.092684,
2,0,0,1,0,26757.1,0.0914889,0.0911522,-2.18605,14,0.00905888,10,-0.000199263,-2.66034,0.44505,0.132569,-11.2906,0.0911522,
2,0,0,1,0,26757.2,0.0899907,0.0896658,-2.16469,14,0.00889456,10,-0.000194099,-2.6646,0.395498,0.149179,-12.5849,0.0896658,
2,0,0,1,0,26757.3,0.0884925,0.0881911,-2.144,14,0.00873176,10,-0.000189082,-2.66878,0.402118,0.146723,-12.2979,0.0881911,
2,0,0,1,0,26757.4,0.0869943,0.0866779,-2.12862,14,0.00857045,10,-0.000184505,-2.6719,0.428102,0.137818,-11.4621,0.0866779,
2,0,0,1,0,26757.4,0.0854961,0.0851954,-2.11472,14,0.0084102,10,-0.000180164,-2.67475,0.50795,0.116153,-9.58712,0.0851954,
2,0,0,1,0,26757.5,0.083998,0.0836907,-2.09946,14,0.00825101,10,-0.000175705,-2.67789,0.445482,0.132441,-10.8451,0.0836907,
2,0,0,1,0,26757.6,0.0824998,0.0822136,-2.08761,14,0.00809288,10,-0.00017163,-2.68035,0.49576,0.119009,-9.69108,0.0822136,
2,0,0,1,0,26757.7,0.081002,0.0806896,-2.07052,14,0.00793602,10,-0.00016707,-2.68392,0.567011,0.104054,-8.42331,0.0806896,
2,0,0,1,0,26757.7,0.0795025,0.0791693,-2.06061,14,0.00777978,10,-0.000163137,-2.686,0.653888,0.0902295,-7.24897,0.0791693,
2,0,0,1,0,26757.8,0.078007,0.0777071,-2.04762,14,0.00762471,10,-0.000159115,-2.68875,0.573781,0.102827,-8.21059,0.0777071,
2,0,0,1,0,26757.9,0.076507,0.0761746,-2.03428,14,0.00747023,10,-0.00015496,-2.69159,0.53554,0.110169,-8.75295,0.0761746,
2,0,0,1,0,26758,0.0750088,0.0747073,-2.02169,14,0.00731709,10,-0.000151035,-2.69429,0.601834,0.0980337,-7.7334,0.0747073,
2,0,0,1,0,26758,0.0735106,0.0731735,-2.00957,14,0.00716474,10,-0.000147047,-2.6969,0.706351,0.0835279,-6.54445,0.0731735,
2,0,0,1,0,26758.1,0.0720124,0.0716676,-1.99935,14,0.00701323,10,-0.000143288,-2.69911,0.643589,0.0916734,-7.15433,0.0716676,
2,0,0,1,0,26758.2,0.0705142,0.0702504,-1.98812,14,0.00686256,10,-0.000139666,-2.70156,0.522009,0.113025,-8.76632,0.07025037,
2,0,0,1,0,26758.3,0.0690161,0.0687339,-1.97277,14,0.00671284,10,-0.000135596,-2.70492,0.568496,0.103783,-8.00465,0.0687339,
2,0,0,1,0,26758.3,0.0675179,0.0672239,-1.96516,14,0.00656402,10,-0.000132106,-2.7066,0.591708,0.0997114,-7.64249,0.0672239,
2,0,0,1,0,26758.4,0.0660179,0.0656967,-1.95648,14,0.00641573,10,-0.000128534,-2.70852,0.593128,0.0994726,-7.58363,0.0656967,
2,0,0,1,0,26758.5,0.0645224,0.064212,-1.94295,14,0.00626857,10,-0.000124761,-2.71154,0.55633,0.106052,-8.02562,0.064212,
2,0,0,1,0,26758.6,0.0630229,0.0626946,-1.92728,14,0.006122,10,-0.00012083,-2.71506,0.55273,0.106743,-8.03991,0.0626946,
2,0,0,1,0,26758.6,0.0615251,0.0612702,-1.91549,14,0.00597666,10,-0.000117362,-2.71772,0.550951,0.107087,-8.02079,0.0612702,
2,0,0,1,0,26758.7,0.0600269,0.0597114,-1.90668,14,0.00583207,10,-0.000113851,-2.71972,0.605551,0.0974319,-7.24909,0.0597114,
2,0,0,1,0,26758.8,0.0585287,0.0582035,-1.89293,14,0.00568831,10,-0.000110175,-2.72286,0.516443,0.114243,-8.44598,0.0582035,
2,0,0,1,0,26758.9,0.0570305,0.0566896,-1.88205,14,0.00554547,10,-0.000106693,-2.72537,0.554834,0.106338,-7.81424,0.0566896,
2,0,0,1,0,26758.9,0.0555323,0.055203,-1.87043,14,0.0054037,10,-0.000103253,-2.72806,0.533264,0.110639,-8.07555,0.055203,
2,0,0,1,0,26759,0.0540342,0.0537232,-1.85986,14,0.00526274,10,-9.99177e-05,-2.73052,0.60765,0.0970954,-7.04172,0.0537232,
2,0,0,1,0,26759.1,0.052536,0.0522272,-1.8495,14,0.00512258,10,-9.65944e-05,-2.73295,0.539971,0.109265,-7.8742,0.0522272,
2,0,0,1,0,26759.2,0.0510378,0.0507063,-1.83553,14,0.00498328,10,-9.30731e-05,-2.73624,0.460443,0.128138,-9.16956,0.0507063,
2,0,0,1,0,26759.2,0.0495382,0.0492016,-1.81736,14,0.00484492,10,-8.9417e-05,-2.74056,0.497528,0.118586,-8.42439,0.0492016,
2,0,0,1,0,26759.3,0.0480427,0.0477261,-1.80822,14,0.00470794,10,-8.62995e-05,-2.74275,0.587091,0.100495,-7.09179,0.0477261,
2,0,0,1,0,26759.4,0.0465432,0.0462103,-1.79403,14,0.00457146,10,-8.29027e-05,-2.74617,0.507819,0.116183,-8.14559,0.0462103,
2,0,0,1,0,26759.5,0.045045,0.0447505,-1.77969,14,0.00443609,10,-7.9642e-05,-2.74966,0.405446,0.145519,-10.1058,0.0447505,
2,0,0,1,0,26759.5,0.0435468,0.0432267,-1.76276,14,0.00430182,10,-7.61981e-05,-2.75381,0.419611,0.140606,-9.69581,0.0432267,
2,0,0,1,0,26759.6,0.0420486,0.0417305,-1.75336,14,0.00416873,10,-7.31685e-05,-2.75613,0.483893,0.121928,-8.34935,0.0417305,
2,0,0,1,0,26759.7,0.0405504,0.0402341,-1.74329,14,0.00403656,10,-7.01398e-05,-2.75863,0.445458,0.132448,-8.98745,0.0402341,
2,0,0,1,0,26759.8,0.0390523,0.0387413,-1.7285,14,0.00390523,10,-6.69644e-05,-2.76233,0.38301,0.154043,-10.3621,0.0387413,
2,0,0,1,0,26759.8,0.0375541,0.0372042,-1.7117,14,0.00377513,10,-6.36824e-05,-2.76657,0.375862,0.156973,-10.4909,0.03720418,
2,0,0,1,0,26759.9,0.0360559,0.0357467,-1.69623,14,0.00364633,10,-6.06345e-05,-2.77052,0.408486,0.144436,-9.57939,0.0357467,
2,0,0,1,0,26760,0.0345577,0.03423,-1.68091,14,0.00351848,10,-5.75377e-05,-2.77446,0.441276,0.133703,-8.77078,0.03423,
2,0,0,1,0,26760.1,0.0330582,0.0326872,-1.66741,14,0.00339147,10,-5.4503e-05,-2.77796,0.370342,0.159312,-10.3473,0.0326872,
2,0,0,1,0,26760.1,0.0315626,0.0311774,-1.65456,14,0.0032659,10,-5.15848e-05,-2.78132,0.379783,0.155352,-10.0124,0.0311774,
2,0,0,1,0,26760.2,0.0300631,0.0297055,-1.63603,14,0.00314135,10,-4.85991e-05,-2.78621,0.410639,0.143678,-9.19415,0.0297055,
2,0,0,1,0,26760.3,0.0285649,0.0282391,-1.62547,14,0.00301788,10,-4.59017e-05,-2.78902,0.505675,0.116676,-7.39574,0.0282391,
2,0,0,1,0,26760.4,0.0270667,0.026764,-1.61312,14,0.00289526,10,-4.31735e-05,-2.79233,0.441883,0.133519,-8.38856,0.026764,
2,0,0,1,0,26760.4,0.0255685,0.0252684,-1.59904,14,0.00277359,10,-4.04052e-05,-2.79614,0.388763,0.151763,-9.4612,0.0252684,
2,0,0,1,0,26760.5,0.0240704,0.0237481,-1.58082,14,0.00265316,10,-3.75415e-05,-2.80112,0.371083,0.158994,-9.84484,0.02374813,
2,0,0,1,0,26760.6,0.0225722,0.0222254,-1.57186,14,0.00253363,10,-3.49353e-05,-2.80358,0.468073,0.126049,-7.73724,0.0222254,
2,0,0,1,0,26760.7,0.021074,0.0207545,-1.56099,14,0.00241492,10,-3.23974e-05,-2.8066,0.471692,0.125082,-7.61375,0.02075449,
2,0,0,1,0,26760.7,0.0195758,0.019255,-1.55035,14,0.00229698,10,-2.98519e-05,-2.80957,0.475625,0.124047,-7.49114,0.019255,
2,0,0,1,0,26760.8,0.018078,0.0177516,-1.53431,14,0.00218007,10,-2.72366e-05,-2.81409,0.511611,0.115322,-6.92627,0.0177516,
2,0,0,1,0,26760.9,0.0165785,0.0162708,-1.5262,14,0.00206386,10,-2.48325e-05,-2.81639,0.596166,0.0989656,-5.90931,0.0162708,
2,0,0,1,0,26761,0.015083,0.0147445,-1.51998,14,0.0019485,10,-2.24112e-05,-2.81816,0.665376,0.0886717,-5.26202,0.0147445,
2,0,0,1,0,26761,0.013583,0.0132308,-1.51192,14,0.00183339,10,-2.00038e-05,-2.82047,0.518227,0.11385,-6.70281,0.0132308,
2,0,0,1,0,26761.1,0.0120848,0.011741,-1.50205,14,0.00171914,10,-1.76356e-05,-2.82332,0.58895,0.100178,-5.87996,0.011741,
2,0,0,1,0,26761.2,0.0105866,0.0102552,-1.49229,14,0.00160572,10,-1.53037e-05,-2.82615,0.687888,0.0857698,-5.0109,0.0102552,
2,0,0,1,0,26761.3,0.00908846,0.00873566,-1.48798,14,0.00149261,10,-1.29985e-05,-2.8274,0.980225,0.0601903,-3.49975,0.00873566,
2,0,0,1,0,26761.3,0.00759027,0.00727782,-1.48301,14,0.00137988,10,-1.07931e-05,-2.82885,1.21262,0.048655,-2.8175,0.00727782,
2,0,0,1,0,26761.4,0.00609208,0.00579343,-1.48264,14,0.00126753,10,-8.58957e-06,-2.82896,1.33396,0.0442291,-2.55416,0.00579343,
2,0,0,1,0,26761.5,0.00459389,0.0043238,-1.47581,14,0.00115558,10,-6.38109e-06,-2.83097,1.4998,0.0393387,-2.26707,0.004323802,
2,0,0,1,0,26761.6,0.00309391,0.00276035,-1.47367,14,0.00104366,10,-4.06783e-06,-2.8316,-1.31796,-0.0447663,2.58343,0.00276035,
2,0,0,1,0,26761.6,0.0015984,0.00122654,-1.48888,14,0.000931114,10,-1.82618e-06,-2.82714, , , ,0.00122654,
2,0,0,1,0,26761.7,0.000199195,-0.000191558,-1.47874,14,0.00082612,10,2.83266e-07,-2.83011, , , ,-0.000191558,