File: Figure_codes/Fig_3-5/rawdata_trumpetplot_data/after 10th/20221101_1-115_003_TrumpetPlot_ParaChange_from10_every3_14_CV_C01_34.csv
mode,ox/red,error,control changes,counter inc.,time/s,control/V,Ewe/V,<I>/mA,cycle number,(Q-Qo)/C,I Range,P/W,log(|I|),Tafel slope mV/dec,alpha_eff,dI/d(E-IR),E-IR/V,
2,1,0,1,0,68183.5,2.44065e-05,-0.0002108,30.8862,35,0.0000000E+000,10,-6.51079e-06,-1.51024, , , ,-0.0002108,
2,1,0,1,0,68183.5,0.00332042,0.00294603,32.2388,35,9.84778e-05,10,9.49765e-05,-1.49162, , , ,0.00294603,
2,1,0,1,0,68183.5,0.0073156,0.006983,33.2808,35,0.000229669,10,0.000232399,-1.47781, , , ,0.006982998,
2,1,0,1,0,68183.6,0.0113108,0.0109415,34.1984,35,0.000364744,10,0.000374182,-1.46599,0.348371,0.16936,224.766,0.0109415,
2,1,0,1,0,68183.6,0.0153059,0.0149604,35.0427,35,0.000503307,10,0.000524254,-1.4554,0.383774,0.153736,209.592,0.0149604,
2,1,0,1,0,68183.6,0.0193011,0.0189539,35.8368,35,0.000645161,10,0.000679249,-1.44567,0.420133,0.140432,195.913,0.0189539,
2,1,0,1,0,68183.6,0.0233462,0.0230057,36.639,35,0.000790252,10,0.000842907,-1.43606,0.453288,0.13016,185.449,0.0230057,
2,1,0,1,0,68183.6,0.0273414,0.0269801,37.3406,35,0.00093828,10,0.00100746,-1.42782,0.48501,0.121647,176.775,0.0269801,
2,1,0,1,0,68183.6,0.0313366,0.0309758,38.0127,35,0.00108908,10,0.00117747,-1.42007,0.522119,0.113001,167.39,0.0309758,
2,1,0,1,0,68183.6,0.0353317,0.0349809,38.67,35,0.00124251,10,0.00135271,-1.41263,0.552078,0.106869,161.059,0.0349809,
2,1,0,1,0,68183.6,0.0393269,0.0389309,39.3047,35,0.00139853,10,0.00153017,-1.40556,0.579047,0.101892,156.072,0.0389309,
2,1,0,1,0,68183.6,0.0433221,0.0429997,39.9207,35,0.00155706,10,0.00171658,-1.3988,0.609934,0.0967317,150.473,0.0429997,
2,1,0,1,0,68183.6,0.0473173,0.0469826,40.5109,35,0.00171799,10,0.00190331,-1.39243,0.640092,0.0921742,145.547,0.0469826,
2,1,0,1,0,68183.6,0.0513124,0.0509453,41.0722,35,0.00188121,10,0.00209244,-1.38645,0.666455,0.088528,141.799,0.0509453,
2,1,0,1,0,68183.6,0.0553076,0.0549643,41.6383,35,0.0020467,10,0.00228862,-1.38051,0.682091,0.0864987,140.522,0.05496427,
2,1,0,1,0,68183.6,0.0593028,0.0589609,42.184,35,0.0022144,10,0.00248721,-1.37485,0.709365,0.083173,136.854,0.0589609,
2,1,0,1,0,68183.6,0.0633479,0.0630064,42.7626,35,0.00238432,10,0.00269432,-1.36894,0.738376,0.0799051,133.141,0.0630064,
2,1,0,1,0,68183.6,0.0673431,0.0669988,43.2692,35,0.00255643,10,0.00289899,-1.36382,0.76667,0.0769562,129.795,0.0669988,
2,1,0,1,0,68183.6,0.0713383,0.0709658,43.7688,35,0.00273055,10,0.00310609,-1.35884,0.802183,0.0735493,125.601,0.0709658,
2,1,0,1,0,68183.6,0.0753334,0.0749996,44.2657,35,0.00290668,10,0.00331991,-1.35393,0.820725,0.0718877,124.155,0.0749996,
2,1,0,1,0,68183.6,0.0793286,0.0789697,44.7676,35,0.00308478,10,0.00353529,-1.34904,0.835033,0.0706559,123.392,0.0789697,
2,1,0,1,0,68183.6,0.0833238,0.0829717,45.2523,35,0.00326488,10,0.00375466,-1.34436,0.850539,0.0693678,122.458,0.0829717,
2,1,0,1,0,68183.6,0.0873189,0.0869578,45.7421,35,0.00344693,10,0.00397763,-1.33968,0.871928,0.0676661,120.749,0.0869578,
2,1,0,1,0,68183.6,0.0913141,0.0909258,46.216,35,0.00363088,10,0.00420223,-1.33521,0.877757,0.0672168,121.227,0.0909258,
2,1,0,1,0,68183.6,0.0953093,0.0949299,46.6948,35,0.00381676,10,0.00443274,-1.33073,0.87583,0.0673647,122.817,0.0949299,
2,1,0,1,0,68183.6,0.0993045,0.0989234,47.1861,35,0.00400457,10,0.00466781,-1.32619,0.873018,0.0675816,124.511,0.09892343,
2,1,0,1,0,68183.6,0.103319,0.102924,47.703,35,0.00419436,10,0.0049098,-1.32145,0.882836,0.0668301,124.365,0.102924,
2,1,0,1,0,68183.6,0.107345,0.106972,48.2139,35,0.0043863,10,0.00515754,-1.31683,0.898351,0.0656759,123.459,0.1069719,
2,1,0,1,0,68183.7,0.11134,0.11093,48.6847,35,0.00458013,10,0.00540061,-1.31261,0.916941,0.0643444,122.233,0.11093,
2,1,0,1,0,68183.7,0.115335,0.114926,49.1618,35,0.00477588,10,0.00564997,-1.30837,0.944343,0.0624773,119.87,0.114926,
2,1,0,1,0,68183.7,0.11933,0.118953,49.6623,35,0.00497358,10,0.0059075,-1.30397,0.95054,0.06207,120.237,0.118953,
2,1,0,1,0,68183.7,0.123325,0.122881,50.121,35,0.00517319,10,0.00615893,-1.29998,0.920411,0.0641018,125.476,0.122881,
2,1,0,1,0,68183.7,0.127321,0.126849,50.5987,35,0.00537463,10,0.00641841,-1.29586,0.908674,0.0649297,128.412,0.126849,
2,1,0,1,0,68183.7,0.131316,0.130886,51.1644,35,0.00557822,10,0.00669671,-1.29103,0.882547,0.066852,133.546,0.130886,
2,1,0,1,0,68183.7,0.135311,0.134843,51.7027,35,0.005784,10,0.00697172,-1.28649,0.860824,0.068539,138.296,0.134843,
2,1,0,1,0,68183.7,0.139306,0.138947,52.2666,35,0.00599201,10,0.0072623,-1.28178,0.85641,0.0688922,140.581,0.1389474,
2,1,0,1,0,68183.7,0.143301,0.142919,52.8211,35,0.00620222,10,0.00754911,-1.27719,0.858787,0.0687015,141.67,0.142919,
2,1,0,1,0,68183.7,0.147346,0.146974,53.426,35,0.00641482,10,0.00785221,-1.27225,0.853341,0.06914,144.127,0.146974,
2,1,0,1,0,68183.7,0.151342,0.150989,53.9902,35,0.0066297,10,0.00815195,-1.26769,0.850693,0.0693552,146.133,0.150989,
2,1,0,1,0,68183.7,0.155337,0.154979,54.5771,35,0.00684688,10,0.00845828,-1.26299,0.858141,0.0687533,146.483,0.154979,
2,1,0,1,0,68183.7,0.159332,0.159019,55.1738,35,0.00706645,10,0.00877367,-1.25827,0.857398,0.0688128,148.146,0.159019,
2,1,0,1,0,68183.7,0.163327,0.163012,55.7754,35,0.00728841,10,0.00909207,-1.25356,0.86861,0.0679246,147.781,0.163012,
2,1,0,1,0,68183.7,0.167322,0.166951,56.3548,35,0.00751274,10,0.00940847,-1.24907,0.890364,0.066265,145.662,0.166951,
2,1,0,1,0,68183.7,0.171317,0.170935,56.9351,35,0.00773939,10,0.00973217,-1.24462,0.925203,0.0637698,141.599,0.170935,
2,1,0,1,0,68183.7,0.175313,0.174926,57.4909,35,0.00796831,10,0.0100566,-1.2404,0.962033,0.0613285,137.501,0.174926,
2,1,0,1,0,68183.7,0.179308,0.178945,58.0314,35,0.00819942,10,0.0103844,-1.23634,0.995445,0.05927,134.175,0.178945,
2,1,0,1,0,68183.7,0.183303,0.182964,58.5566,35,0.00843266,10,0.0107137,-1.23242,1.0669,0.0553006,126.25,0.1829638,
2,1,0,1,0,68183.7,0.187348,0.187,59.0906,35,0.00866795,10,0.0110499,-1.22848,1.15209,0.0512114,117.86,0.187,
2,1,0,1,0,68183.7,0.191343,0.190963,59.5156,35,0.00890521,10,0.0113653,-1.22537,1.27044,0.0464405,107.684,0.190963,
2,1,0,1,0,68183.7,0.195338,0.194972,59.9204,35,0.00914412,10,0.0116828,-1.22243,1.48072,0.0398456,93.0405,0.194972,
2,1,0,1,0,68183.7,0.199334,0.198975,60.2808,35,0.00938458,10,0.0119944,-1.21982,1.68874,0.0349374,82.04,0.198975,
2,1,0,1,0,68183.7,0.203329,0.202989,60.5782,35,0.00962635,10,0.0122967,-1.21768,2.05955,0.028647,67.5948,0.202989,
2,1,0,1,0,68183.7,0.207324,0.206947,60.8269,35,0.0098692,10,0.0125879,-1.2159,2.65889,0.0221897,52.5652,0.206947,
2,1,0,1,0,68183.8,0.211319,0.210995,61.0034,35,0.0101129,10,0.0128714,-1.21465,3.66418,0.0161018,38.2596,0.210995,
2,1,0,1,0,68183.8,0.215314,0.214929,61.1194,35,0.0103572,10,0.0131363,-1.21382,6.31682,0.00934014,22.2371,0.214929,
2,1,0,1,0,68183.8,0.219309,0.218984,61.1902,35,0.0106018,10,0.0133997,-1.21332,17.4019,0.00339044,8.08041,0.218984,
2,1,0,1,0,68183.8,0.223305,0.222936,61.1825,35,0.0108466,10,0.0136398,-1.21337,-24.8293,-0.00237623,-5.66378,0.222936,
2,1,0,1,0,68183.8,0.227314,0.226974,61.1325,35,0.0110912,10,0.0138755,-1.21373,-6.39382,-0.00922766,-21.9728,0.226974,
2,1,0,1,0,68183.8,0.231345,0.231026,61.0282,35,0.0113356,10,0.0140991,-1.21447,-3.83928,-0.0153675,-36.5175,0.231026,
2,1,0,1,0,68183.8,0.23534,0.234996,60.8384,35,0.0115793,10,0.0142968,-1.21582,-2.63638,-0.0223792,-53.0211,0.234996,
2,1,0,1,0,68183.8,0.239335,0.239016,60.5953,35,0.0118222,10,0.0144832,-1.21756,-2.01155,-0.0293306,-69.2229,0.239016,
2,1,0,1,0,68183.8,0.24333,0.242974,60.2842,35,0.0120639,10,0.0146475,-1.2198,-1.64399,-0.0358882,-84.2624,0.242974,
2,1,0,1,0,68183.8,0.247326,0.247004,59.9222,35,0.0123043,10,0.014801,-1.22241,-1.38088,-0.0427263,-99.7075,0.247004,
2,1,0,1,0,68183.8,0.251321,0.251003,59.4896,35,0.0125431,10,0.014932,-1.22556,-1.21284,-0.048646,-112.728,0.251003,
2,1,0,1,0,68183.8,0.255316,0.254986,59.003,35,0.0127801,10,0.0150449,-1.22913,-1.06309,-0.0554984,-127.567,0.254986,
2,1,0,1,0,68183.8,0.259311,0.258978,58.4801,35,0.013015,10,0.0151451,-1.23299,-0.95796,-0.0615892,-140.279,0.258978,
2,1,0,1,0,68183.8,0.263306,0.262985,57.8835,35,0.0132477,10,0.0152225,-1.23745,-0.889136,-0.0663565,-149.671,0.262985,
2,1,0,1,0,68183.8,0.267302,0.266987,57.2473,35,0.0134779,10,0.0152843,-1.24225,-0.806069,-0.0731948,-163.283,0.266987,
2,1,0,1,0,68183.8,0.271347,0.271014,56.604,35,0.0137056,10,0.0153405,-1.24715,-0.754947,-0.0781512,-172.292,0.271014,
2,1,0,1,0,68183.8,0.275342,0.275018,55.8611,35,0.0139304,10,0.0153628,-1.25289,-0.705019,-0.0836857,-182.163,0.275018,
2,1,0,1,0,68183.8,0.279337,0.279039,55.1176,35,0.0141523,10,0.0153799,-1.25871,-0.656683,-0.0898455,-193.019,0.279039,
2,1,0,1,0,68183.8,0.283332,0.283005,54.3295,35,0.0143712,10,0.0153755,-1.26496,-0.632069,-0.0933443,-197.681,0.2830047,
2,1,0,1,0,68183.8,0.287327,0.28699,53.5203,35,0.0145868,10,0.0153598,-1.27148,-0.60448,-0.0976045,-203.689,0.28699,
2,1,0,1,0,68183.8,0.291322,0.291018,52.6981,35,0.0147991,10,0.0153361,-1.27821,-0.591581,-0.0997328,-205.122,0.291018,
2,1,0,1,0,68183.8,0.295318,0.295025,51.8613,35,0.0150082,10,0.0153004,-1.28516,-0.586647,-0.100572,-204.856,0.295025,
2,1,0,1,0,68183.8,0.299013,0.298732,51.1036,35,0.0151986,10,0.0152662,-1.29155,-0.197471,-0.298778,-588.155,0.2987316,
2,1,0,0,0,68183.8,0.300012,0.299842,50.8875,35,0.0152497,10,0.0152582,-1.29339,0.00557939,10.5746,19349.3,0.299842,
2,1,0,1,0,68183.8,0.298714,0.298584,48.2481,35,0.015313,10,0.0144061,-1.31652,0.0614232,0.960549,1648.34,0.298584,
2,1,0,1,0,68183.8,0.294718,0.294528,42.2381,35,0.0154928,10,0.0124403,-1.3743,0.0730315,0.80787,1310.24,0.294528,
2,1,0,1,0,68183.8,0.290723,0.2905,37.5345,35,0.0156517,10,0.0109038,-1.42557,0.0767076,0.769155,1148.52,0.2905,
2,1,0,1,0,68183.9,0.286728,0.286528,33.4436,35,0.0157931,10,0.00958254,-1.47569,0.0785905,0.750727,987.597,0.286528,
2,1,0,1,0,68183.9,0.282733,0.282485,29.758,35,0.015919,10,0.0084062,-1.5264,0.0774681,0.761604,887.756,0.2824851,
2,1,0,1,0,68183.9,0.278738,0.278503,26.412,35,0.016031,10,0.00735582,-1.5782,0.0748331,0.788421,812.859,0.278503,
2,1,0,1,0,68183.9,0.274742,0.274492,23.3234,35,0.0161301,10,0.00640209,-1.63221,0.0715665,0.824409,748.028,0.274492,
2,1,0,1,0,68183.9,0.270747,0.270546,20.4521,35,0.0162173,10,0.00553324,-1.68926,0.0673799,0.875632,695.355,0.270546,
2,1,0,1,0,68183.9,0.266702,0.266455,17.767,35,0.0162934,10,0.0047341,-1.75039,0.0629648,0.937031,645.415,0.266455,
2,1,0,1,0,68183.9,0.262707,0.262511,15.2919,35,0.0163592,10,0.00401429,-1.81554,0.0582056,1.01365,598.189,0.262511,
2,1,0,1,0,68183.9,0.258712,0.258465,12.9794,35,0.0164155,10,0.00335471,-1.88675,0.0519425,1.13587,564.539,0.258465,
2,1,0,1,0,68183.9,0.254717,0.254425,10.8085,35,0.0164628,10,0.00274995,-1.96623,0.0459321,1.28451,526.69,0.254425,
2,1,0,1,0,68183.9,0.250722,0.250495,8.75685,35,0.0165017,10,0.00219355,-2.05765,0.0388124,1.52013,497.402,0.250495,
2,1,0,1,0,68183.9,0.246726,0.246467,6.84169,35,0.0165327,10,0.00168625,-2.16484,0.031104,1.89686,469.853,0.246467,
2,1,0,1,0,68183.9,0.242731,0.242478,5.02755,35,0.0165562,10,0.00121907,-2.29864,0.0225696,2.61414,440.402,0.242478,
2,1,0,1,0,68183.9,0.238736,0.238494,3.32352,35,0.0165727,10,0.000792639,-2.4784,0.010006,5.89644,416.729,0.238494,
2,1,0,1,0,68183.9,0.234741,0.2345,1.71255,35,0.0165826,10,0.000401593,-2.76636,0.0275582,2.14092,396.207,0.2345,
2,1,0,1,0,68183.9,0.230746,0.230463,0.17205,35,0.0165862,10,3.96512e-05,-3.76434,0.171146,0.344735,373.651,0.230463,
2,0,0,1,0,68183.9,0.226701,0.226461,-1.31867,35,0.0165838,10,-0.000298626,-2.87986,-0.0439563,-1.34224,353.66,0.226461,
2,0,0,1,0,68183.9,0.222705,0.222433,-2.67766,35,0.0165756,10,-0.000595599,-2.57225,-0.0108329,-5.44637,335.554,0.222433,
2,0,0,1,0,68183.9,0.21871,0.218407,-3.9788,35,0.0165622,10,-0.000868997,-2.40025,-0.0233565,-2.52607,317.35,0.218407,
2,0,0,1,0,68183.9,0.214715,0.214414,-5.21298,35,0.0165437,10,-0.00111774,-2.28291,-0.0356501,-1.65498,303.267,0.214414,
2,0,0,1,0,68183.9,0.21072,0.210425,-6.40752,35,0.0165203,10,-0.0013483,-2.19331,-0.0476254,-1.23884,290.226,0.210425,
2,0,0,1,0,68183.9,0.206725,0.206412,-7.53651,35,0.0164923,10,-0.00155562,-2.12283,-0.0599501,-0.984151,276.792,0.206412,
2,0,0,1,0,68183.9,0.20273,0.202419,-8.61887,35,0.0164598,10,-0.00174462,-2.06455,-0.0723941,-0.814984,265.504,0.2024191,
2,0,0,1,0,68183.9,0.198734,0.198373,-9.65323,35,0.0164232,10,-0.00191494,-2.01533,-0.0852539,-0.692051,254.612,0.198373,
2,0,0,1,0,68183.9,0.194739,0.194467,-10.6445,35,0.0163825,10,-0.00207,-1.97288,-0.0978319,-0.603075,246.187,0.194467,
2,0,0,1,0,68183.9,0.190744,0.190412,-11.6102,35,0.0163379,10,-0.00221071,-1.93516,-0.110635,-0.533285,238.295,0.190412,
2,0,0,1,0,68184,0.186735,0.186466,-12.5462,35,0.0162895,10,-0.00233945,-1.90149,-0.125183,-0.471309,227.883,0.186466,
2,0,0,1,0,68184,0.182704,0.182413,-13.4562,35,0.0162373,10,-0.00245459,-1.87108,-0.13823,-0.426825,221.571,0.182413,
2,0,0,1,0,68184,0.178709,0.178361,-14.3148,35,0.0161817,10,-0.0025532,-1.84421,-0.152613,-0.386598,214.158,0.178361,
2,0,0,1,0,68184,0.174713,0.174438,-15.1495,35,0.0161227,10,-0.00264266,-1.8196,-0.166368,-0.354636,208.473,0.1744381,
2,0,0,1,0,68184,0.170718,0.17043,-15.9806,35,0.0160603,10,-0.00272357,-1.79641,-0.178227,-0.331039,205.36,0.17043,
2,0,0,1,0,68184,0.166723,0.166411,-16.7923,35,0.0159947,10,-0.00279443,-1.77489,-0.191011,-0.308883,201.476,0.166411,
2,0,0,1,0,68184,0.162728,0.162421,-17.5883,35,0.0159258,10,-0.0028567,-1.75478,-0.201805,-0.292362,200.05,0.162421,
2,0,0,1,0,68184,0.158733,0.158397,-18.3814,35,0.0158538,10,-0.00291156,-1.73562,-0.211168,-0.279398,200.03,0.158397,
2,0,0,1,0,68184,0.154737,0.154423,-19.1828,35,0.0157786,10,-0.00296226,-1.71709,-0.218387,-0.270163,201.983,0.154423,
2,0,0,1,0,68184,0.150742,0.150426,-19.9897,35,0.0157002,10,-0.00300698,-1.69919,-0.221741,-0.266076,207.654,0.150426,
2,0,0,1,0,68184,0.146747,0.146439,-20.8163,35,0.0156185,10,-0.00304832,-1.6816,-0.226555,-0.260422,211.683,0.146439,
2,0,0,1,0,68184,0.142702,0.142391,-21.7052,35,0.0155334,10,-0.00309062,-1.66344,-0.228821,-0.257844,218.268,0.142391,
2,0,0,1,0,68184,0.138707,0.138448,-22.5644,35,0.0154447,10,-0.00312399,-1.64658,-0.22839,-0.25833,227.694,0.138448,
2,0,0,1,0,68184,0.134712,0.134412,-23.4851,35,0.0153526,10,-0.00315668,-1.62921,-0.229399,-0.257194,236.302,0.134412,
2,0,0,1,0,68184,0.130717,0.130478,-24.4505,35,0.0152566,10,-0.00319026,-1.61171,-0.226193,-0.260839,249.504,0.130478,
2,0,0,1,0,68184,0.126721,0.126419,-25.4794,35,0.0151567,10,-0.00322107,-1.59381,-0.222761,-0.264857,263.927,0.126419,
2,0,0,1,0,68184,0.122726,0.122417,-26.5643,35,0.0150525,10,-0.00325191,-1.5757,-0.220781,-0.267233,277.571,0.122417,
2,0,0,1,0,68184,0.118731,0.118452,-27.6975,35,0.0149439,10,-0.00328081,-1.55756,-0.218462,-0.27007,292.524,0.118452,
2,0,0,1,0,68184,0.114736,0.114438,-28.9027,35,0.0148305,10,-0.00330757,-1.53906,-0.218774,-0.269685,304.458,0.114438,
2,0,0,1,0,68184,0.110741,0.110419,-30.1596,35,0.0147123,10,-0.0033302,-1.52057,-0.218793,-0.269662,317.487,0.110419,
2,0,0,1,0,68184,0.106745,0.106447,-31.4264,35,0.014589,10,-0.00334524,-1.50271,-0.224345,-0.262988,322.34,0.106447,
2,0,0,1,0,68184,0.102703,0.102441,-32.7808,35,0.0144605,10,-0.00335809,-1.48438,-0.232389,-0.253885,323.749,0.102441,
2,0,0,1,0,68184,0.0987052,0.0984696,-34.05,35,0.0143267,10,-0.00335289,-1.46788,-0.240804,-0.245012,324.736,0.0984696,
2,0,0,1,0,68184,0.09471,0.0944634,-35.3253,35,0.0141879,10,-0.00333695,-1.45191,-0.254977,-0.231393,318.495,0.0944634,
2,0,0,1,0,68184,0.0907148,0.0904285,-36.6282,35,0.0140438,10,-0.00331223,-1.43618,-0.26592,-0.221871,316.22,0.0904285,
2,0,0,1,0,68184.1,0.0867197,0.0864329,-37.8792,35,0.0138947,10,-0.00327401,-1.4216,-0.280076,-0.210657,310.381,0.0864329,
2,0,0,1,0,68184.1,0.0827245,0.0824818,-39.1057,35,0.0137405,10,-0.00322551,-1.40776,-0.299166,-0.197215,299.956,0.0824818,
2,0,0,1,0,68184.1,0.0787293,0.0784671,-40.2902,35,0.0135816,10,-0.00316146,-1.3948,-0.317744,-0.185684,291.017,0.0784671,
2,0,0,1,0,68184.1,0.0747342,0.0744736,-41.4139,35,0.0134181,10,-0.00308424,-1.38285,-0.342975,-0.172024,277.166,0.0744736,
2,0,0,1,0,68184.1,0.070739,0.0704589,-42.5279,35,0.0132501,10,-0.00299647,-1.37133,-0.371046,-0.15901,262.809,0.0704589,
2,0,0,1,0,68184.1,0.0667438,0.0664729,-43.5428,35,0.0130778,10,-0.00289442,-1.36108,-0.392939,-0.15015,254.387,0.0664729,
2,0,0,1,0,68184.1,0.0627403,0.0625303,-44.4786,35,0.0129017,10,-0.00278126,-1.35185,-0.427811,-0.137912,239.031,0.0625303,
2,0,0,1,0,68184.1,0.0587035,0.0585198,-45.4724,35,0.0127217,10,-0.00266103,-1.34225,-0.458399,-0.128709,227.738,0.05851981,
2,0,0,1,0,68184.1,0.0547083,0.0544733,-46.349,35,0.0125379,10,-0.00252478,-1.33396,-0.492154,-0.119881,216.137,0.0544733,
2,0,0,1,0,68184.1,0.0507132,0.0504936,-47.1819,35,0.0123507,10,-0.00238238,-1.32622,-0.543402,-0.108575,199.377,0.0504936,
2,0,0,1,0,68184.1,0.046718,0.0464259,-47.9593,35,0.0121604,10,-0.00222655,-1.31913,-0.589646,-0.10006,186.773,0.0464259,
2,0,0,1,0,68184.1,0.0427228,0.0424886,-48.6686,35,0.011967,10,-0.00206786,-1.31275,-0.643229,-0.0917247,173.828,0.0424886,
2,0,0,1,0,68184.1,0.0387276,0.0384601,-49.3398,35,0.0117709,10,-0.00189761,-1.3068,-0.691886,-0.0852742,163.912,0.0384601,
2,0,0,1,0,68184.1,0.0347325,0.0344974,-49.9625,35,0.0115723,10,-0.00172357,-1.30136,-0.744841,-0.0792115,154.232,0.0344974,
2,0,0,1,0,68184.1,0.0307373,0.0305039,-50.5692,35,0.0113711,10,-0.00154256,-1.29611,-0.801272,-0.0736329,145.096,0.0305039,
2,0,0,1,0,68184.1,0.0267421,0.0265072,-51.1335,35,0.0111676,10,-0.0013554,-1.29129,-0.839515,-0.0702787,140.1,0.0265072,
2,0,0,1,0,68184.1,0.022747,0.0224586,-51.6615,35,0.010962,10,-0.00116024,-1.28683,-0.918136,-0.0642606,129.416,0.02245857,
2,0,0,1,0,68184.1,0.0187018,0.0184258,-52.2141,35,0.0107542,10,-0.000962089,-1.28221,-1.00604,-0.0586455,119.214,0.0184258,
2,0,0,1,0,68184.1,0.0147067,0.014408,-52.6522,35,0.0105444,10,-0.000758611,-1.27858,-1.10271,-0.0535046,109.705,0.014408,
2,0,0,1,0,68184.1,0.0107115,0.0104124,-53.0522,35,0.0103329,10,-0.000552398,-1.2753,-1.28069,-0.046069,95.2442,0.0104124,
2,0,0,1,0,68184.1,0.00671632,0.00639871,-53.4234,35,0.0101199,10,-0.000341841,-1.27227,-1.41604,-0.0416654,86.7449,0.00639871,
2,0,0,1,0,68184.1,0.00272115,0.00238295,-53.7421,35,0.00990558,10,-0.000128065,-1.26969,-1.60443,-0.0367732,77.0193,0.00238295,
2,0,0,1,0,68184.1,-0.00127403,-0.00166462,-54.0465,35,0.00968989,10,8.99667e-05,-1.26723,-1.85988,-0.0317225,66.7991,-0.00166462,
2,0,0,1,0,68184.1,-0.0052692,-0.00560509,-54.2858,35,0.00947319,10,0.000304277,-1.26531,-2.17379,-0.0271416,57.4123,-0.005605089,
2,0,0,1,0,68184.1,-0.00926438,-0.00960176,-54.4922,35,0.0092556,10,0.000523221,-1.26367,-2.69814,-0.0218669,46.4384,-0.00960176,
2,0,0,1,0,68184.2,-0.0132596,-0.0136451,-54.6623,35,0.00903727,10,0.000745872,-1.26231,-3.19263,-0.0184801,39.3795,-0.0136451,
2,0,0,1,0,68184.2,-0.0172547,-0.0176184,-54.7873,35,0.00881835,10,0.000965267,-1.26132,-4.20219,-0.0140403,29.9905,-0.01761844,
2,0,0,1,0,68184.2,-0.0212915,-0.0216543,-54.9179,35,0.00859897,10,0.00118921,-1.26029,-6.06108,-0.00973424,20.8292,-0.0216543,
2,0,0,1,0,68184.2,-0.025295,-0.0256372,-54.9731,35,0.00837916,10,0.00140936,-1.25985,-9.712,-0.00607496,13.0141,-0.0256372,
2,0,0,1,0,68184.2,-0.0292902,-0.0296169,-54.995,35,0.00815922,10,0.00162878,-1.25968,-40.7349,-0.00144839,3.10569,-0.0296169,
2,0,0,1,0,68184.2,-0.0332854,-0.0336571,-54.996,35,0.00793923,10,0.00185101,-1.25967,30.4758,0.00193596,-4.15096,-0.0336571,
2,0,0,1,0,68184.2,-0.0372805,-0.0376283,-54.9675,35,0.00771931,10,0.00206833,-1.25989,12.8294,0.00459881,-9.85615,-0.0376283,
2,0,0,1,0,68184.2,-0.0412757,-0.041642,-54.9067,35,0.00749957,10,0.00228642,-1.26037,8.37755,0.00704263,-15.0827,-0.041642,
2,0,0,1,0,68184.2,-0.0452709,-0.0456535,-54.8369,35,0.00728008,10,0.0025035,-1.26093,6.42094,0.00918869,-19.6553,-0.0456535,
2,0,0,1,0,68184.2,-0.0492661,-0.0496183,-54.7553,35,0.0070609,10,0.00271687,-1.26157,5.62928,0.0104809,-22.3857,-0.0496183,
2,0,0,1,0,68184.2,-0.0532612,-0.0536065,-54.6534,35,0.00684208,10,0.00292978,-1.26238,4.90873,0.0120194,-25.6271,-0.0536065,
2,0,0,1,0,68184.2,-0.0572564,-0.0576128,-54.5492,35,0.00662368,10,0.00314273,-1.26321,4.97715,0.0118542,-25.238,-0.0576128,
2,0,0,1,0,68184.2,-0.0612544,-0.0615691,-54.4291,35,0.00640574,10,0.00335115,-1.26417,4.71603,0.0125105,-26.58,-0.0615691,
2,0,0,1,0,68184.2,-0.0652967,-0.0656114,-54.3517,35,0.0061881,10,0.00356609,-1.26479,4.43874,0.0132921,-28.18,-0.0656114,
2,0,0,1,0,68184.2,-0.0692919,-0.0696643,-54.2266,35,0.00597097,10,0.00377766,-1.26579,4.37507,0.0134855,-28.525,-0.0696643,
2,0,0,1,0,68184.2,-0.0732871,-0.0736302,-54.0978,35,0.00575434,10,0.00398323,-1.26682,3.92636,0.0150266,-31.7251,-0.0736302,
2,0,0,1,0,68184.2,-0.0772822,-0.0776491,-53.9704,35,0.00553821,10,0.00419075,-1.26784,3.9268,0.015025,-31.6491,-0.0776491,
2,0,0,1,0,68184.2,-0.0812774,-0.0816066,-53.8442,35,0.0053226,10,0.00439404,-1.26886,4.20833,0.0140198,-29.4704,-0.0816066,
2,0,0,1,0,68184.2,-0.0852726,-0.0856096,-53.7219,35,0.00510748,10,0.00459911,-1.26985,4.35008,0.013563,-28.4472,-0.0856096,
2,0,0,1,0,68184.2,-0.0892678,-0.0896307,-53.6263,35,0.00489279,10,0.00480656,-1.27062,4.61627,0.0127809,-26.7508,-0.0896307,
2,0,0,1,0,68184.2,-0.0932629,-0.0936157,-53.5162,35,0.00467852,10,0.00500995,-1.27151,5.07084,0.0116351,-24.3059,-0.0936157,
2,0,0,1,0,68184.2,-0.0972581,-0.0975604,-53.4175,35,0.00446465,10,0.00521143,-1.27232,6.14643,0.00959908,-20.0293,-0.0975604,
2,0,0,1,0,68184.2,-0.101253,-0.101599,-53.3333,35,0.00425117,10,0.00541863,-1.273,7.06083,0.00835596,-17.4064,-0.101599,
2,0,0,1,0,68184.2,-0.105298,-0.105678,-53.3048,35,0.0040379,10,0.00563314,-1.27323,8.17304,0.00721885,-15.0152,-0.105678,
2,0,0,1,0,68184.2,-0.109294,-0.109659,-53.2369,35,0.00382482,10,0.00583789,-1.27379,9.48604,0.00621967,-12.9206,-0.109659,
2,0,0,1,0,68184.3,-0.113289,-0.113627,-53.1762,35,0.00361201,10,0.00604223,-1.27428,9.21787,0.00640061,-13.2889,-0.113627,
2,0,0,1,0,68184.3,-0.117284,-0.117686,-53.1254,35,0.0033994,10,0.00625211,-1.2747,12.0023,0.00491573,-10.1976,-0.117686,
2,0,0,1,0,68184.3,-0.121279,-0.121598,-53.0933,35,0.00318698,10,0.00645602,-1.27496,17.8517,0.003305,-6.8518,-0.121598,
2,0,0,1,0,68184.3,-0.125274,-0.125633,-53.074,35,0.00297467,10,0.00666783,-1.27512,44.6843,0.00132037,-2.73643,-0.125633,
2,0,0,1,0,68184.3,-0.129269,-0.129608,-53.0667,35,0.00276238,10,0.00687787,-1.27518,423.835,0.000139205,-0.288429,-0.129608,
2,0,0,1,0,68184.3,-0.133265,-0.133633,-53.0818,35,0.00255008,10,0.0070935,-1.27505,-41.0758,-0.00143637,2.9765,-0.133633,
2,0,0,1,0,68184.3,-0.13726,-0.137614,-53.0887,35,0.00233774,10,0.00730575,-1.275,-14.0433,-0.00420128,8.71241,-0.1376141,
2,0,0,1,0,68184.3,-0.141255,-0.141612,-53.1216,35,0.00212532,10,0.00752265,-1.27473,-11.3029,-0.00521991,10.8313,-0.141612,
2,0,0,1,0,68184.3,-0.145286,-0.145629,-53.2063,35,0.00191272,10,0.00774836,-1.27404,-8.4111,-0.00701454,14.5652,-0.145629,
2,0,0,1,0,68184.3,-0.149295,-0.149674,-53.2555,35,0.00169978,10,0.00797098,-1.27364,-7.64537,-0.00771709,16.0375,-0.1496741,
2,0,0,1,0,68184.3,-0.15329,-0.15364,-53.3221,35,0.00148662,10,0.00819241,-1.27309,-8.1586,-0.00723163,15.0502,-0.15364,
2,0,0,1,0,68184.3,-0.157286,-0.157654,-53.3789,35,0.00127323,10,0.00841537,-1.27263,-6.87575,-0.00858088,17.8821,-0.157654,
2,0,0,1,0,68184.3,-0.161281,-0.161617,-53.4469,35,0.00105956,10,0.00863796,-1.27208,-6.51594,-0.00905472,18.896,-0.161617,
2,0,0,1,0,68184.3,-0.165276,-0.165605,-53.5404,35,0.000845586,10,0.00886654,-1.27132,-5.77885,-0.0102096,21.3366,-0.165605,
2,0,0,1,0,68184.3,-0.169271,-0.169591,-53.6235,35,0.000631253,10,0.00909404,-1.27064,-5.47451,-0.0107772,22.5555,-0.169591,
2,0,0,1,0,68184.3,-0.173266,-0.173612,-53.7194,35,0.000416551,10,0.00932631,-1.26987,-5.70329,-0.0103449,21.6858,-0.173612,
2,0,0,1,0,68184.3,-0.177261,-0.177584,-53.8071,35,0.000201491,10,0.00955527,-1.26916,-5.52923,-0.0106706,22.4055,-0.177584,
2,0,0,1,0,68184.3,-0.181257,-0.181592,-53.8871,35,-1.39011e-05,10,0.00978549,-1.26851,-4.95657,-0.0119034,25.0484,-0.181592,
2,0,0,1,0,68184.3,-0.185252,-0.185606,-53.9823,35,-0.000229649,10,0.0100194,-1.26775,-5.21252,-0.0113189,23.8534,-0.185606,
2,0,0,1,0,68184.3,-0.189297,-0.189619,-54.1203,35,-0.000445923,10,0.0102622,-1.26664,-5.27321,-0.0111886,23.6128,-0.189619,
2,0,0,1,0,68184.3,-0.193292,-0.193657,-54.1904,35,-0.000662562,10,0.0104943,-1.26608,-5.70129,-0.0103485,21.8664,-0.193657,
2,0,0,1,0,68184.3,-0.197287,-0.19763,-54.2658,35,-0.000879485,10,0.0107246,-1.26547,8.25035,0.00715121,-15.0814,-0.19763,
2,0,0,0,0,68184.3,-0.199984,-0.200227,-54.302,35,-0.00102606,10,0.0108727,-1.26518,0.0621755,0.948927,-1881.76,-0.200227,
2,0,0,0,1,68184.3,-0.199984,-0.200532,-53.9557,35,-0.00105848,10,0.0108199,-1.26796,-0.0414476,-1.42348,2667.52,-0.200532,
2,0,0,1,1,68184.3,-0.196688,-0.197171,-47.5775,35,-0.00121308,10,0.0093809,-1.3226,-0.0716692,-0.823227,1466.68,-0.197171,
2,0,0,1,1,68184.3,-0.192693,-0.193132,-42.2666,35,-0.00139184,10,0.00816302,-1.374,-0.0782404,-0.754086,1275.75,-0.1931317,
2,0,0,1,1,68184.4,-0.188698,-0.189093,-37.9717,35,-0.00155169,10,0.00718018,-1.42054,-0.0861181,-0.685106,1034.04,-0.189093,
2,0,0,1,1,68184.4,-0.184653,-0.185073,-34.2331,35,-0.0016956,10,0.0063356,-1.46555,-0.0895881,-0.65857,890.278,-0.185073,
2,0,0,1,1,68184.4,-0.180657,-0.181097,-30.9567,35,-0.00182556,10,0.00560617,-1.50924,-0.090708,-0.650439,791.705,-0.181097,
2,0,0,1,1,68184.4,-0.176662,-0.177094,-27.9887,35,-0.00194311,10,0.00495663,-1.55302,-0.0898802,-0.65643,719.324,-0.177094,
2,0,0,1,1,68184.4,-0.172667,-0.173043,-25.2654,35,-0.00204927,10,0.00437202,-1.59747,-0.0877537,-0.672336,663.08,-0.173043,
2,0,0,1,1,68184.4,-0.168672,-0.169053,-22.7098,35,-0.00214491,10,0.00383916,-1.64379,-0.0840297,-0.702133,620.981,-0.169053,
2,0,0,1,1,68184.4,-0.164677,-0.165067,-20.3274,35,-0.00223072,10,0.00335539,-1.69192,-0.0795435,-0.741733,585.843,-0.165067,
2,0,0,1,1,68184.4,-0.160682,-0.161102,-18.058,35,-0.00230723,10,0.00290918,-1.74333,-0.0746145,-0.790731,553.628,-0.1611021,
2,0,0,1,1,68184.4,-0.156686,-0.157102,-15.9265,35,-0.00237495,10,0.00250209,-1.79788,-0.0688331,-0.857145,527.214,-0.157102,
2,0,0,1,1,68184.4,-0.152691,-0.153123,-13.8902,35,-0.00243435,10,0.00212691,-1.85729,-0.0627545,-0.940172,500.867,-0.153123,
2,0,0,1,1,68184.4,-0.148696,-0.149148,-11.9348,35,-0.00248577,10,0.00178006,-1.92318,-0.055678,-1.05967,481.669,-0.149148,
2,0,0,1,1,68184.4,-0.14467,-0.145067,-10.0263,35,-0.00252951,10,0.00145449,-1.99886,-0.0482654,-1.22241,463.138,-0.145067,
2,0,0,1,1,68184.4,-0.140656,-0.141088,-8.2129,35,-0.00256576,10,0.00115874,-2.0855,-0.0405011,-1.45675,444.92,-0.141088,
2,0,0,1,1,68184.4,-0.136661,-0.137087,-6.4636,35,-0.00259493,10,0.000886076,-2.18953,-0.0319528,-1.84647,428.72,-0.137087,
2,0,0,1,1,68184.4,-0.132665,-0.133088,-4.78946,35,-0.00261726,10,0.000637421,-2.31971,-0.0223852,-2.63567,413.753,-0.133088,
2,0,0,1,1,68184.4,-0.12867,-0.129059,-3.16341,35,-0.002633,10,0.000408265,-2.49984,-0.0071242,-8.28164,401.566,-0.129059,
2,0,0,1,1,68184.4,-0.124675,-0.125053,-1.57817,35,-0.00264232,10,0.000197354,-2.80185,-0.0311633,-1.89325,391.801,-0.125053,
2,0,0,1,1,68184.4,-0.12068,-0.121082,-0.0366388,35,-0.00264537,10,4.43632e-06,-4.43606,-0.479193,-0.123124,382.175,-0.121082,
2,1,0,1,1,68184.4,-0.116685,-0.11711,1.47083,35,-0.00264235,10,-0.000172249,-2.83244,0.0360334,1.63737,373.538,-0.11711,
2,1,0,1,1,68184.4,-0.112689,-0.113114,2.9301,35,-0.0026334,10,-0.000331436,-2.53312,0.00726948,8.11613,362.578,-0.113114,
2,1,0,1,1,68184.4,-0.108694,-0.109172,4.35385,35,-0.00261867,10,-0.000475318,-2.36113,0.0232718,2.53526,355.72,-0.109172,
2,1,0,1,1,68184.4,-0.104699,-0.10512,5.75093,35,-0.00259831,10,-0.000604538,-2.24026,0.0346318,1.70364,347.516,-0.10512,
2,1,0,1,1,68184.4,-0.100654,-0.101112,7.16176,35,-0.00257229,10,-0.000724138,-2.14498,0.0454639,1.29773,340.101,-0.101112,
2,1,0,1,1,68184.4,-0.0966588,-0.0971108,8.49163,35,-0.00254083,10,-0.000824629,-2.07101,0.0561237,1.05125,333.586,-0.0971108,
2,1,0,1,1,68184.4,-0.0926637,-0.0931396,9.80645,35,-0.0025041,10,-0.000913368,-2.00849,0.0673479,0.876048,325.617,-0.0931396,
2,1,0,1,1,68184.5,-0.0886685,-0.0891111,11.0913,35,-0.00246218,10,-0.000988358,-1.95502,0.0782328,0.754159,319.088,-0.0891111,
2,1,0,1,1,68184.5,-0.0846733,-0.08516,12.3559,35,-0.00241514,10,-0.00105223,-1.90813,0.089693,0.657799,311.515,-0.08516,
2,1,0,1,1,68184.5,-0.0806781,-0.0811358,13.5891,35,-0.00236313,10,-0.00110256,-1.86681,0.100833,0.585127,305.853,-0.0811358,
2,1,0,1,1,68184.5,-0.076683,-0.0770946,14.8047,35,-0.00230621,10,-0.00114136,-1.8296,0.112587,0.524039,299.065,-0.0770946,
2,1,0,1,1,68184.5,-0.0726878,-0.0730798,15.9945,35,-0.00224449,10,-0.00116888,-1.79603,0.124574,0.473615,292.421,-0.0730798,
2,1,0,1,1,68184.5,-0.0686926,-0.0691235,17.1519,35,-0.00217808,10,-0.0011856,-1.76569,0.135475,0.435506,289.363,-0.0691235,
2,1,0,1,1,68184.5,-0.0646974,-0.0650812,18.2838,35,-0.00210708,10,-0.00118993,-1.73793,0.148168,0.398196,282.242,-0.0650812,
2,1,0,1,1,68184.5,-0.0606523,-0.0610177,19.4567,35,-0.00203151,10,-0.00118721,-1.71093,0.161461,0.365413,274.926,-0.0610177,
2,1,0,1,1,68184.5,-0.0566571,-0.0570571,20.5168,35,-0.00195147,10,-0.00117063,-1.68789,0.173062,0.340918,271.037,-0.0570571,
2,1,0,1,1,68184.5,-0.052662,-0.0530403,21.5736,35,-0.00186716,10,-0.00114427,-1.66608,0.188826,0.312457,261.848,-0.05304027,
2,1,0,1,1,68184.5,-0.0486668,-0.0491136,22.6116,35,-0.00177868,10,-0.00111054,-1.64567,0.201373,0.292988,257.389,-0.0491136,
2,1,0,1,1,68184.5,-0.0446716,-0.0451021,23.6242,35,-0.0016861,10,-0.0010655,-1.62664,0.214471,0.275095,252.595,-0.04510206,
2,1,0,1,1,68184.5,-0.0406764,-0.0410831,24.6283,35,-0.00158948,10,-0.00101181,-1.60857,0.229695,0.256862,245.858,-0.0410831,
2,1,0,1,1,68184.5,-0.0366813,-0.0371151,25.5962,35,-0.00148894,10,-0.000950004,-1.59182,0.244358,0.241449,240.265,-0.0371151,
2,1,0,1,1,68184.5,-0.0326861,-0.0331152,26.5449,35,-0.00138455,10,-0.00087904,-1.57602,0.260137,0.226804,234.171,-0.0331152,
2,1,0,1,1,68184.5,-0.0286909,-0.0291058,27.4676,35,-0.00127642,10,-0.000799466,-1.56118,0.274261,0.215124,230.043,-0.0291058,
2,1,0,1,1,68184.5,-0.0246957,-0.0250996,28.3712,35,-0.00116465,10,-0.000712106,-1.54712,0.29011,0.203371,224.689,-0.0250996,
2,1,0,1,1,68184.5,-0.0206756,-0.021069,29.2875,35,-0.00104926,10,-0.000617058,-1.53332,0.30777,0.191701,218.336,-0.021069,
2,1,0,1,1,68184.5,-0.0166554,-0.0170702,30.15,35,-0.000930274,10,-0.000514667,-1.52071,0.32509,0.181488,212.838,-0.01707021,
2,1,0,1,1,68184.5,-0.0126603,-0.0130672,30.9694,35,-0.000807933,10,-0.000404682,-1.50907,0.345996,0.170522,205.658,-0.0130672,
2,1,0,1,1,68184.5,-0.0086651,-0.00902384,31.7927,35,-0.000682329,10,-0.000286893,-1.49767,0.364466,0.161881,200.223,-0.00902384,
2,1,0,1,1,68184.5,-0.00466992,-0.00507489,32.5768,35,-0.00055352,10,-0.000165323,-1.48709, , , ,-0.00507489,
2,1,0,1,1,68184.5,-0.000974387,-0.00140535,33.2865,35,-0.000431633,10,-4.67791e-05,-1.47773, , , ,-0.00140535,
2,1,0,0,1,68184.5,-0.000175352,-0.000554371,33.4271,35,-0.000404965,10,-1.8531e-05,-1.4759, , , ,-0.000554371,