File: Figure_codes/Fig_3-5/rawdata_trumpetplot_data/after 10th/20221101_1-115_003_TrumpetPlot_ParaChange_from10_every3_10_CV_C01_3.csv
mode,ox/red,error,control changes,counter inc.,time/s,control/V,Ewe/V,<I>/mA,cycle number,(Q-Qo)/C,I Range,P/W,log(|I|),Tafel slope mV/dec,alpha_eff,dI/d(E-IR),E-IR/V,
2,1,0,0,0,7100.91,-2.44065e-05,-0.000306236,5.40228,4,0.0000000E+000,10,-1.65437e-06,-2.26742, , , ,-0.000306236,
2,1,0,1,0,7100.92,0.00179726,0.00140367,6.45461,4,5.27407e-05,10,9.06014e-06,-2.19013, , , ,0.00140367,
2,1,0,1,0,7100.93,0.00379485,0.00349134,7.3216,4,0.000122117,10,2.55622e-05,-2.13539,0.0462772,1.27493,356.282,0.00349134,
2,1,0,1,0,7100.94,0.00579244,0.00550585,7.91614,4,0.000198472,10,4.35851e-05,-2.10149,0.0666297,0.885491,271.195,0.00550585,
2,1,0,1,0,7100.95,0.00779002,0.00746071,8.39807,4,0.000280221,10,6.26556e-05,-2.07582,0.0860452,0.685686,223.36,0.00746071,
2,1,0,1,0,7100.96,0.00977853,0.00943003,8.79265,4,0.000365431,10,8.29149e-05,-2.05588,0.113822,0.518352,176.953,0.00943003,
2,1,0,1,0,7100.97,0.0117761,0.0114611,9.10595,4,0.000455049,10,0.000104364,-2.04067,0.144982,0.406946,144.144,0.0114611,
2,1,0,1,0,7100.98,0.0137737,0.0134037,9.36542,4,0.000547407,10,0.000125531,-2.02847,0.174698,0.337726,123.251,0.0134037,
2,1,0,1,0,7100.99,0.0157713,0.0154746,9.60063,4,0.000642338,10,0.000148566,-2.0177,0.197685,0.298454,111.681,0.0154746,
2,1,0,1,0,7101,0.017778,0.0174241,9.81443,4,0.000739445,10,0.000171008,-2.00813,0.23929,0.246563,94.1799,0.0174241,
2,1,0,1,0,7101.01,0.0197755,0.0194665,9.97658,4,0.000838421,10,0.000194209,-2.00102,0.295193,0.19987,77.7838,0.01946649,
2,1,0,1,0,7101.02,0.0217731,0.021495,10.1311,4,0.000938983,10,0.000217767,-1.99434,0.296784,0.198797,78.6207,0.021495,
2,1,0,1,0,7101.03,0.0237707,0.0234809,10.2922,4,0.00104117,10,0.00024167,-1.98749,0.311822,0.18921,75.9091,0.0234809,
2,1,0,1,0,7101.04,0.0257774,0.025433,10.43,4,0.00114477,10,0.000265267,-1.98172,0.342397,0.172314,70.1503,0.025433,
2,1,0,1,0,7101.05,0.027775,0.0274684,10.5719,4,0.00124985,10,0.000290394,-1.97585,0.352525,0.167364,69.0222,0.0274684,
2,1,0,1,0,7101.06,0.0297726,0.0294275,10.7057,4,0.00135624,10,0.000315042,-1.97038,0.377709,0.156205,65.2293,0.0294275,
2,1,0,1,0,7101.07,0.0317701,0.0314117,10.8291,4,0.00146401,10,0.000340161,-1.96541,0.36296,0.162552,68.7858,0.0314117,
2,1,0,1,0,7101.08,0.0337587,0.0334306,10.9811,4,0.00157196,10,0.000367104,-1.95936,0.356918,0.165304,70.7794,0.0334306,
2,1,0,1,0,7101.09,0.0357562,0.0354475,11.1148,4,0.00168248,10,0.000393991,-1.9541,0.390169,0.151217,65.5708,0.0354475,
2,1,0,1,0,7101.1,0.0377538,0.0374047,11.2417,4,0.00179426,10,0.000420492,-1.94917,0.375639,0.157066,68.9723,0.0374047,
2,1,0,1,0,7101.11,0.0397514,0.0394431,11.3904,4,0.00190746,10,0.000449272,-1.94346,0.347195,0.169933,75.5584,0.0394431,
2,1,0,1,0,7101.12,0.0417399,0.0414299,11.5458,4,0.00202093,10,0.000478342,-1.93758,0.360859,0.163499,73.6136,0.0414299,
2,1,0,1,0,7101.13,0.0437375,0.0434341,11.6842,4,0.00213715,10,0.000507491,-1.9324,0.380363,0.155115,70.7434,0.0434341,
2,1,0,1,0,7101.14,0.0457351,0.0454114,11.8275,4,0.00225467,10,0.000537101,-1.92711,0.364146,0.162023,74.8119,0.04541136,
2,1,0,1,0,7101.15,0.0477327,0.0473826,11.9796,4,0.00237379,10,0.000567622,-1.92156,0.337052,0.175047,81.912,0.04738256,
2,1,0,1,0,7101.16,0.0497393,0.0494049,12.1546,4,0.00249439,10,0.000600497,-1.91526,0.349642,0.168744,79.9482,0.0494049,
2,1,0,1,0,7101.17,0.0517369,0.0514126,12.3018,4,0.00261671,10,0.000632465,-1.91003,0.363399,0.162356,77.9999,0.05141259,
2,1,0,1,0,7101.18,0.0537345,0.0534098,12.467,4,0.00274056,10,0.000665858,-1.90424,0.341605,0.172714,84.0382,0.0534098,
2,1,0,1,0,7101.19,0.0557321,0.0553793,12.6351,4,0.00286617,10,0.000699723,-1.89842,0.362698,0.16267,80.1555,0.0553793,
2,1,0,1,0,7101.2,0.0577297,0.057393,12.7862,4,0.0029933,10,0.00073384,-1.89326,0.351444,0.167879,83.8694,0.057393,
2,1,0,1,0,7101.21,0.0597364,0.0593529,12.9684,4,0.00312221,10,0.000769711,-1.88711,0.349362,0.168879,85.3983,0.0593529,
2,1,0,1,0,7101.22,0.0617339,0.0614135,13.1296,4,0.00325272,10,0.000806333,-1.88175,0.385807,0.152926,78.3541,0.0614135,
2,1,0,1,0,7101.23,0.0637315,0.0634575,13.29,4,0.00338489,10,0.00084335,-1.87648,0.376542,0.156689,81.2686,0.0634575,
2,1,0,1,0,7101.24,0.0657291,0.0653741,13.4515,4,0.00351857,10,0.000879376,-1.87123,0.344263,0.171381,90.0645,0.0653741,
2,1,0,1,0,7101.25,0.0677176,0.0673758,13.6429,4,0.00365281,10,0.0009192,-1.86509,0.355943,0.165757,88.1521,0.0673758,
2,1,0,1,0,7101.26,0.0697152,0.069372,13.8039,4,0.00379006,10,0.000957603,-1.86,0.380936,0.154882,83.4794,0.069372,
2,1,0,1,0,7101.27,0.0717128,0.0714128,13.9799,4,0.00392904,10,0.000998343,-1.8545,0.379391,0.155512,84.8125,0.0714128,
2,1,0,1,0,7101.28,0.0737104,0.0734082,14.1462,4,0.00406967,10,0.00103845,-1.84936,0.386195,0.152772,84.3559,0.0734082,
2,1,0,1,0,7101.29,0.0756989,0.0754236,14.3182,4,0.00421068,10,0.00107993,-1.84411,0.402069,0.146741,81.936,0.0754236,
2,1,0,1,0,7101.3,0.0776965,0.0773575,14.4698,4,0.0043546,10,0.00111935,-1.83954,0.410159,0.143847,81.2761,0.0773575,
2,1,0,1,0,7101.31,0.0796941,0.0793625,14.6384,4,0.00450021,10,0.00116174,-1.83451,0.420183,0.140415,80.1808,0.0793625,
2,1,0,1,0,7101.32,0.0816916,0.08141,14.7947,4,0.0046474,10,0.00120444,-1.82989,0.429752,0.137289,79.2892,0.08141,
2,1,0,1,0,7101.33,0.0836983,0.0834151,14.9597,4,0.00479623,10,0.00124786,-1.82508,0.42853,0.13768,80.3357,0.0834151,
2,1,0,1,0,7101.34,0.0856959,0.0853177,15.1086,4,0.00494661,10,0.00128904,-1.82077,0.440569,0.133918,78.9985,0.0853177,
2,1,0,1,0,7101.35,0.0876935,0.0873687,15.272,4,0.0050986,10,0.0013343,-1.8161,0.474468,0.12435,74.0427,0.0873687,
2,1,0,1,0,7101.36,0.0896911,0.0893426,15.4067,4,0.00525198,10,0.00137647,-1.81229,0.464102,0.127127,76.5295,0.0893426,
2,1,0,1,0,7101.37,0.0916978,0.0913814,15.5791,4,0.00540697,10,0.00142364,-1.80746,0.457642,0.128922,78.3172,0.0913814,
2,1,0,1,0,7101.38,0.0936953,0.0934168,15.7257,4,0.00556352,10,0.00146905,-1.80339,0.496156,0.118914,72.9713,0.0934168,
2,1,0,1,0,7101.39,0.0956929,0.0953568,15.8692,4,0.00572153,10,0.00151324,-1.79945,0.488085,0.120881,74.885,0.0953568,
2,1,0,1,0,7101.4,0.0976905,0.0973775,16.0223,4,0.005881,10,0.00156021,-1.79527,0.444012,0.132879,83.1615,0.0973775,
2,1,0,1,0,7101.41,0.099679,0.0993868,16.2043,4,0.00604048,10,0.0016105,-1.79037,0.456967,0.129112,81.5506,0.0993868,
2,1,0,1,0,7101.42,0.101677,0.101365,16.3475,4,0.00620321,10,0.00165706,-1.78655,0.455088,0.129645,82.8129,0.101365,
2,1,0,1,0,7101.43,0.103674,0.103336,16.5314,4,0.00636761,10,0.00170829,-1.78169,0.41883,0.140869,90.865,0.1033363,
2,1,0,1,0,7101.44,0.105672,0.105351,16.7097,4,0.00653378,10,0.00176038,-1.77703,0.391995,0.150512,98.2531,0.105351,
2,1,0,1,0,7101.45,0.107656,0.107328,16.9236,4,0.00670023,10,0.00181638,-1.77151,0.384773,0.153337,101.202,0.107328,
2,1,0,1,0,7101.46,0.109658,0.10935,17.1145,4,0.00687043,10,0.00187147,-1.76664,0.37171,0.158726,106.145,0.1093504,
2,1,0,1,0,7101.47,0.111655,0.111331,17.3485,4,0.00704281,10,0.00193143,-1.76074,0.339396,0.173838,117.703,0.111331,
2,1,0,1,0,7101.48,0.113653,0.113357,17.586,4,0.00721747,10,0.0019935,-1.75483,0.329762,0.178917,122.835,0.113357,
2,1,0,1,0,7101.49,0.115651,0.115309,17.8372,4,0.00739461,10,0.00205679,-1.74867,0.305454,0.193155,134.569,0.115309,
2,1,0,1,0,7101.5,0.117657,0.117321,18.1195,4,0.00757445,10,0.0021258,-1.74185,0.29802,0.197973,139.999,0.1173211,
2,1,0,1,0,7101.51,0.119655,0.11937,18.4056,4,0.00775715,10,0.00219707,-1.73505,0.312206,0.188978,135.646,0.11937,
2,1,0,1,0,7101.52,0.121652,0.121362,18.6677,4,0.00794253,10,0.00226555,-1.72891,0.300398,0.196406,143.232,0.1213624,
2,1,0,1,0,7101.53,0.12365,0.123307,18.9695,4,0.00813081,10,0.00233907,-1.72194,0.293876,0.200765,148.579,0.1233067,
2,1,0,1,0,7101.54,0.125657,0.125359,19.2614,4,0.00832204,10,0.00241459,-1.71531,0.303934,0.194121,145.945,0.125359,
2,1,0,1,0,7101.55,0.127654,0.127367,19.5621,4,0.00851627,10,0.00249157,-1.70858,0.307805,0.19168,146.226,0.127367,
2,1,0,1,0,7101.56,0.129652,0.129287,19.8359,4,0.00871327,10,0.00256452,-1.70255,0.324293,0.181934,140.884,0.129287,
2,1,0,1,0,7101.57,0.131649,0.131358,20.1244,4,0.0089132,10,0.0026435,-1.69628,0.332927,0.177216,139.106,0.131358,
2,1,0,1,0,7101.58,0.133638,0.133291,20.3929,4,0.00911387,10,0.0027182,-1.69052,0.348675,0.169212,134.657,0.133291,
2,1,0,1,0,7101.59,0.135636,0.135333,20.6597,4,0.00931922,10,0.00279593,-1.68488,0.370811,0.159111,128.225,0.135333,
2,1,0,1,0,7101.6,0.137633,0.137311,20.9083,4,0.00952708,10,0.00287094,-1.67968,0.388158,0.152,124.011,0.137311,
2,1,0,1,0,7101.61,0.139631,0.139307,21.1525,4,0.00973744,10,0.00294669,-1.67464,0.418727,0.140903,116.253,0.139307,
2,1,0,1,0,7101.62,0.141619,0.141325,21.375,4,0.00994794,10,0.00302082,-1.67009,0.433537,0.13609,113.544,0.141325,
2,1,0,1,0,7101.63,0.143617,0.143299,21.6057,4,0.010163,10,0.00309608,-1.66543,0.453905,0.129983,109.536,0.143299,
2,1,0,1,0,7101.64,0.145614,0.145314,21.8118,4,0.0103801,10,0.00316956,-1.66131,0.501901,0.117553,100.039,0.1453135,
2,1,0,1,0,7101.65,0.147612,0.14731,22.007,4,0.0105992,10,0.00324184,-1.65744,0.543418,0.108572,93.2009,0.14731,
2,1,0,1,0,7101.66,0.149619,0.149271,22.1807,4,0.0108201,10,0.00331092,-1.65403,0.622943,0.0947117,81.9533,0.149271,
2,1,0,1,0,7101.67,0.151616,0.15134,22.3373,4,0.0110428,10,0.00338052,-1.65097,0.772047,0.0764202,66.547,0.1513399,
2,1,0,1,0,7101.68,0.153614,0.153254,22.4457,4,0.0112668,10,0.00343989,-1.64887,1.00844,0.0585062,51.2321,0.153254,
2,1,0,1,0,7101.69,0.155611,0.155264,22.5383,4,0.0114918,10,0.00349939,-1.64708,1.60757,0.0367015,32.2437,0.155264,
2,1,0,1,0,7101.7,0.157618,0.157316,22.5767,4,0.0117174,10,0.00355168,-1.64634,-53.6495,-0.00109973,-0.967239,0.157316,
2,1,0,1,0,7101.71,0.159616,0.159298,22.5344,4,0.011943,10,0.00358969,-1.64715,-1.206,-0.0489219,-42.9413,0.159298,
2,1,0,1,0,7101.72,0.161613,0.161304,22.4054,4,0.0121678,10,0.00361409,-1.64965,-0.630511,-0.0935749,-81.6954,0.161304,
2,1,0,1,0,7101.73,0.163611,0.163302,22.2073,4,0.012391,10,0.0036265,-1.6535,-0.386988,-0.152459,-131.744,0.163302,
2,1,0,1,0,7101.74,0.165618,0.165291,21.8802,4,0.0126114,10,0.0036166,-1.65995,-0.272649,-0.216396,-184.388,0.165291,
2,1,0,1,0,7101.75,0.167597,0.167336,21.4635,4,0.012826,10,0.00359162,-1.6683,-0.202628,-0.291173,-243.099,0.167336,
2,1,0,1,0,7101.76,0.169595,0.169271,20.9127,4,0.0130379,10,0.00353991,-1.67959,-0.160184,-0.368325,-299.836,0.169271,
2,1,0,1,0,7101.77,0.171592,0.171332,20.2655,4,0.0132438,10,0.00347212,-1.69324,-0.132972,-0.443702,-349.836,0.1713317,
2,1,0,1,0,7101.78,0.173572,0.173283,19.509,4,0.0134406,10,0.00338059,-1.70976,-0.114726,-0.514271,-390.989,0.173283,
2,1,0,1,0,7101.79,0.175578,0.175293,18.7168,4,0.0136317,10,0.00328091,-1.72777,-0.103941,-0.567629,-413.519,0.175293,
2,1,0,1,0,7101.8,0.177576,0.177298,17.849,4,0.0138144,10,0.00316458,-1.74839,-0.0951876,-0.619829,-431.541,0.1772978,
2,1,0,1,0,7101.81,0.179573,0.179293,16.9904,4,0.0139886,10,0.00304626,-1.7698,-0.0896391,-0.658195,-436.208,0.179293,
2,1,0,1,0,7101.82,0.181571,0.18121,16.1425,4,0.0141541,10,0.00292518,-1.79203,-0.0913034,-0.646197,-407.659,0.1812098,
2,1,0,1,0,7101.83,0.183578,0.183277,15.3663,4,0.0143115,10,0.00281629,-1.81343,-0.0945222,-0.624192,-374.286,0.183277,
2,1,0,1,0,7101.84,0.185575,0.185299,14.6121,4,0.0144612,10,0.0027076,-1.83529,-0.0942661,-0.625888,-357.732,0.185299,
2,1,0,1,0,7101.85,0.187573,0.187244,13.9472,4,0.0146039,10,0.00261154,-1.85551,-0.100781,-0.58543,-319.108,0.187244,
2,1,0,1,0,7101.86,0.18957,0.189282,13.341,4,0.0147403,10,0.00252521,-1.87481,-0.111537,-0.52897,-276.212,0.189282,
2,1,0,1,0,7101.87,0.191577,0.191297,12.8279,4,0.014871,10,0.00245393,-1.89185,-0.118937,-0.496062,-248.621,0.191297,
2,1,0,1,0,7101.88,0.193575,0.193244,12.3559,4,0.0149968,10,0.0023877,-1.90813,-0.131408,-0.448982,-217.152,0.193244,
2,1,0,1,0,7101.89,0.195572,0.195257,11.9678,4,0.0151184,10,0.0023368,-1.92199,-0.142503,-0.414026,-193.356,0.195257,
2,1,0,1,0,7101.9,0.19757,0.197229,11.5854,4,0.0152361,10,0.00228497,-1.93609,-0.164496,-0.35867,-162.89,0.1972293,
2,1,0,1,0,7101.91,0.199558,0.199283,11.312,4,0.0153494,10,0.00225429,-1.94646,-0.188158,-0.313565,-138.315,0.199283,
2,1,0,1,0,7101.92,0.201556,0.201285,11.0244,4,0.015461,10,0.00221904,-1.95765,-0.193391,-0.305081,-131.55,0.201285,
2,1,0,1,0,7101.93,0.203553,0.203254,10.7896,4,0.01557,10,0.00219303,-1.967,-0.214098,-0.275575,-116.062,0.203254,
2,1,0,1,0,7101.94,0.205551,0.205268,10.5621,4,0.0156766,10,0.00216806,-1.97625,-0.247233,-0.238641,-98.6437,0.205268,
2,1,0,1,0,7101.95,0.20754,0.207245,10.396,4,0.0157802,10,0.00215451,-1.98314,-0.267475,-0.220582,-89.3863,0.207245,
2,1,0,1,0,7101.96,0.209537,0.209245,10.2066,4,0.0158832,10,0.00213569,-1.99112,-0.274078,-0.215267,-85.8894,0.209245,
2,1,0,1,0,7101.97,0.211535,0.211239,10.0529,4,0.0159844,10,0.00212356,-1.99771,-0.288698,-0.204366,-80.1326,0.211239,
2,1,0,1,0,7101.98,0.213532,0.213208,9.88907,4,0.016084,10,0.00210843,-2.00484,-0.337344,-0.174896,-67.6912,0.213208,
2,1,0,1,0,7101.99,0.215539,0.21523,9.78278,4,0.0161824,10,0.00210554,-2.00954,-0.353008,-0.167135,-63.6636,0.21523,
2,1,0,1,0,7102,0.217537,0.217238,9.6325,4,0.0162794,10,0.00209255,-2.01626,-0.359683,-0.164033,-61.8297,0.217238,
2,1,0,1,0,7102.01,0.219534,0.219238,9.53494,4,0.0163752,10,0.00209042,-2.02068,-0.404436,-0.145882,-54.221,0.219238,
2,1,0,1,0,7102.02,0.221532,0.221239,9.41554,4,0.01647,10,0.00208309,-2.02615,-0.428558,-0.137671,-50.6779,0.2212394,
2,1,0,1,0,7102.03,0.223534,0.223278,9.33018,4,0.0165637,10,0.00208323,-2.03011,-0.455368,-0.129565,-47.1282,0.223278,
2,1,0,1,0,7102.04,0.225536,0.225269,9.22561,4,0.0166564,10,0.00207825,-2.035,-0.455854,-0.129427,-46.665,0.225269,
2,1,0,1,0,7102.05,0.227534,0.227195,9.14743,4,0.0167483,10,0.00207825,-2.0387,-0.460736,-0.128056,-45.6516,0.227195,
2,1,0,1,0,7102.06,0.229531,0.22924,9.04433,4,0.0168393,10,0.00207333,-2.04362,-0.499806,-0.118046,-41.7537,0.22924,
2,1,0,1,0,7102.07,0.231529,0.231217,8.97948,4,0.0169294,10,0.00207621,-2.04675,-0.60536,-0.0974627,-34.1441,0.231217,
2,1,0,1,0,7102.08,0.233517,0.233195,8.9093,4,0.017018,10,0.00207761,-2.05016,-0.620883,-0.095026,-33.0556,0.233195,
2,1,0,1,0,7102.09,0.235515,0.235211,8.84747,4,0.0171068,10,0.00208102,-2.05318,-0.589101,-0.100153,-34.5527,0.235211,
2,1,0,1,0,7102.1,0.237513,0.237191,8.77124,4,0.0171948,10,0.00208046,-2.05694,-0.599778,-0.0983698,-33.7064,0.237191,
2,1,0,1,0,7102.11,0.23951,0.239213,8.71258,4,0.0172822,10,0.00208416,-2.05985,-0.673188,-0.0876427,-29.7933,0.239213,
2,1,0,1,0,7102.12,0.241499,0.241263,8.64992,4,0.0173682,10,0.0020869,-2.06299,-0.673611,-0.0875876,-29.5785,0.241263,
2,1,0,1,0,7102.13,0.243496,0.243227,8.59383,4,0.0174544,10,0.00209025,-2.06581,-0.720342,-0.0819056,-27.4768,0.243227,
2,1,0,1,0,7102.14,0.245494,0.24519,8.54202,4,0.01754,10,0.00209442,-2.06844,-0.785725,-0.0750899,-25.0391,0.24519,
2,1,0,1,0,7102.15,0.247491,0.24718,8.49486,4,0.0176252,10,0.00209976,-2.07084,-0.716656,-0.0823269,-27.2706,0.24718,
2,1,0,1,0,7102.16,0.249498,0.249167,8.43357,4,0.0177098,10,0.00210136,-2.07399,-0.795737,-0.0741451,-24.4389,0.249167,
2,1,0,1,0,7102.17,0.251496,0.251194,8.39675,4,0.017794,10,0.00210922,-2.07589,-0.777741,-0.0758608,-24.8215,0.2511943,
2,1,0,1,0,7102.18,0.253493,0.253159,8.33446,4,0.0178776,10,0.00210995,-2.07912,-0.723624,-0.081534,-26.5506,0.253159,
2,1,0,1,0,7102.19,0.255491,0.255163,8.29138,4,0.0179608,10,0.00211565,-2.08137,-1.00489,-0.0587126,-19.0087,0.255163,
2,1,0,1,0,7102.2,0.257497,0.257223,8.25721,4,0.0180435,10,0.00212395,-2.08317,-1.07696,-0.0547839,-17.6509,0.257223,
2,1,0,1,0,7102.21,0.259495,0.259208,8.21997,4,0.0181259,10,0.00213069,-2.08513,-0.739819,-0.0797492,-25.5412,0.259208,
2,1,0,1,0,7102.22,0.261493,0.261195,8.15576,4,0.0182078,10,0.00213025,-2.08854,-0.957193,-0.0616386,-19.678,0.261195,
2,1,0,1,0,7102.23,0.26349,0.263243,8.14059,4,0.0182893,10,0.00214295,-2.08934,-1.45413,-0.040574,-12.8737,0.263243,
2,1,0,1,0,7102.24,0.265479,0.265194,8.10429,4,0.0183697,10,0.00214921,-2.09128,-0.994126,-0.0593486,-18.7702,0.265194,
2,1,0,1,0,7102.25,0.267476,0.267146,8.06732,4,0.0184505,10,0.00215515,-2.09327,-0.900242,-0.065538,-20.6229,0.267146,
2,1,0,1,0,7102.26,0.269474,0.269197,8.02173,4,0.0185309,10,0.00215943,-2.09573,-1.18394,-0.0498337,-15.6284,0.269197,
2,1,0,1,0,7102.27,0.271471,0.271176,8.00434,4,0.018611,10,0.00217058,-2.09667,-1.22342,-0.0482253,-15.0415,0.271176,
2,1,0,1,0,7102.28,0.27346,0.273148,7.9623,4,0.01869,10,0.00217489,-2.09896,-1.02847,-0.057367,-17.8411,0.273148,
2,1,0,1,0,7102.29,0.275458,0.27515,7.93344,4,0.0187694,10,0.00218288,-2.10054,-0.958921,-0.0615275,-19.0279,0.27515,
2,1,0,1,0,7102.3,0.277455,0.277143,7.88629,4,0.0188485,10,0.00218563,-2.10313,-1.15945,-0.050886,-15.6928,0.277143,
2,1,0,1,0,7102.31,0.279453,0.27915,7.87066,4,0.0189273,10,0.0021971,-2.10399,-1.16531,-0.0506303,-15.5217,0.27915,
2,1,0,1,0,7102.32,0.281455,0.281127,7.82445,4,0.0190057,10,0.00219966,-2.10655,-1.12944,-0.0522384,-15.9805,0.281127,
2,1,0,1,0,7102.33,0.283457,0.283165,7.80651,4,0.0190839,10,0.00221053,-2.10754,-1.22066,-0.0483346,-14.7032,0.283165,
2,1,0,1,0,7102.34,0.285455,0.285187,7.76475,4,0.0191618,10,0.00221441,-2.10987,-1.01264,-0.0582633,-17.6709,0.2851871,
2,1,0,1,0,7102.35,0.287452,0.28713,7.73645,4,0.0192393,10,0.00222136,-2.11146,-1.09737,-0.0537649,-16.2258,0.28713,
2,1,0,1,0,7102.36,0.28945,0.289104,7.70119,4,0.0193165,10,0.00222645,-2.11344,-1.67038,-0.0353212,-10.6352,0.289104,
2,1,0,1,0,7102.37,0.291456,0.291119,7.69402,4,0.0193935,10,0.00223987,-2.11385,-1.20566,-0.0489357,-14.6511,0.291119,
2,1,0,1,0,7102.38,0.293454,0.293153,7.64187,4,0.0194702,10,0.00224024,-2.1168,-0.970104,-0.0608182,-18.1759,0.293153,
2,1,0,1,0,7102.39,0.295452,0.295107,7.62153,4,0.0195466,10,0.00224917,-2.11796,-1.2995,-0.0454022,-13.4927,0.295107,
2,1,0,1,0,7102.4,0.297449,0.297159,7.58782,4,0.0196226,10,0.00225479,-2.11988,-1.60346,-0.0367954,-10.9131,0.297159,
2,1,0,1,0,7102.41,0.299438,0.299124,7.5777,4,0.0196977,10,0.00226667,-2.12046,-0.0523036,-1.12803,-317.24,0.299124,
2,1,0,1,0,7102.41,0.299746,0.299524,6.83752,4,0.0197294,10,0.002048,-2.1651,0.00438476,13.4557,2661.42,0.299524,
2,1,0,1,0,7102.42,0.29774,0.297473,3.18516,4,0.0197772,10,0.0009475,-2.49687,0.00506962,11.638,1426.79,0.297473,
2,1,0,1,0,7102.43,0.295742,0.295504,1.10115,4,0.0197976,10,0.000325393,-2.95816,0.00354046,16.6645,840.605,0.2955038,
2,0,0,1,0,7102.44,0.293745,0.293414,-0.227265,4,0.0198013,10,-6.66828e-05,-3.64347,88.8633,0.000663941,539.701,0.293414,
2,0,0,1,0,7102.45,0.291747,0.291423,-1.10103,4,0.0197943,10,-0.000320866,-2.9582,-0.00450138,-13.1071,378.32,0.291423,
2,0,0,1,0,7102.46,0.289745,0.289449,-1.72729,4,0.0197799,10,-0.000499962,-2.76264,-0.0133335,-4.42495,272.982,0.289449,
2,0,0,1,0,7102.47,0.287743,0.28746,-2.18292,4,0.0197602,10,-0.000627502,-2.66096,-0.0245709,-2.40122,196.359,0.28746,
2,0,0,1,0,7102.48,0.285745,0.285451,-2.51231,4,0.0197366,10,-0.000717141,-2.59993,-0.0381951,-1.5447,148.98,0.285451,
2,0,0,1,0,7102.49,0.283748,0.283426,-2.78395,4,0.01971,10,-0.000789045,-2.55534,-0.0516641,-1.14199,122.611,0.283426,
2,0,0,1,0,7102.5,0.28175,0.281436,-3.00453,4,0.019681,10,-0.000845584,-2.52222,-0.0671663,-0.878416,102.156,0.281436,
2,0,0,1,0,7102.51,0.279761,0.279502,-3.18481,4,0.0196503,10,-0.000890161,-2.49692,-0.085017,-0.693979,85.9078,0.279502,
2,0,0,1,0,7102.52,0.277764,0.277468,-3.34542,4,0.0196176,10,-0.000928249,-2.47555,-0.102077,-0.577992,75.2172,0.277468,
2,0,0,1,0,7102.53,0.275766,0.27546,-3.48882,4,0.0195834,10,-0.000961031,-2.45732,-0.12327,-0.478623,64.8915,0.27546,
2,0,0,1,0,7102.54,0.273769,0.273455,-3.60584,4,0.0195478,10,-0.000986035,-2.44299,-0.136785,-0.431334,60.7349,0.2734552,
2,0,0,1,0,7102.55,0.27178,0.271493,-3.72978,4,0.0195115,10,-0.00101261,-2.42832,-0.145893,-0.404406,58.753,0.271493,
2,0,0,1,0,7102.56,0.269783,0.269437,-3.84189,4,0.0194735,10,-0.00103515,-2.41545,-0.163087,-0.36177,54.1888,0.269437,
2,0,0,1,0,7102.57,0.267785,0.267458,-3.94844,4,0.0194346,10,-0.00105604,-2.40357,-0.189057,-0.312075,47.947,0.267458,
2,0,0,1,0,7102.58,0.265787,0.265448,-4.03316,4,0.0193947,10,-0.0010706,-2.39435,-0.203058,-0.290557,45.8087,0.265448,
2,0,0,1,0,7102.59,0.263781,0.263441,-4.13241,4,0.0193539,10,-0.00108865,-2.3838,-0.208513,-0.282956,45.5268,0.263441,
2,0,0,1,0,7102.6,0.261783,0.261485,-4.2136,4,0.0193121,10,-0.00110179,-2.37535,-0.259376,-0.227469,37.3355,0.261485,
2,0,0,1,0,7102.61,0.259786,0.259494,-4.2798,4,0.0192696,10,-0.00111058,-2.36858,-0.264485,-0.223075,37.329,0.259494,
2,0,0,1,0,7102.62,0.257788,0.257488,-4.3628,4,0.0192263,10,-0.00112337,-2.36023,-0.232151,-0.254145,43.3036,0.257488,
2,0,0,1,0,7102.63,0.255781,0.255488,-4.45326,4,0.0191822,10,-0.00113776,-2.35132,-0.264817,-0.222795,38.6085,0.2554881,
2,0,0,1,0,7102.64,0.253784,0.253449,-4.51873,4,0.0191373,10,-0.00114527,-2.34498,-0.32081,-0.183909,32.4301,0.253449,
2,0,0,1,0,7102.65,0.251786,0.251454,-4.5841,4,0.0190918,10,-0.00115269,-2.33875,-0.312204,-0.188979,33.8186,0.251454,
2,0,0,1,0,7102.66,0.249789,0.249487,-4.65273,4,0.0190456,10,-0.0011608,-2.33229,-0.300062,-0.196626,35.7184,0.249487,
2,0,0,1,0,7102.67,0.2478,0.247483,-4.72593,4,0.0189992,10,-0.00116959,-2.32551,-0.321261,-0.183651,33.8258,0.247483,
2,0,0,1,0,7102.68,0.245802,0.245524,-4.78678,4,0.0189516,10,-0.00117527,-2.31996,-0.353374,-0.166962,31.1966,0.245524,
2,0,0,1,0,7102.69,0.243805,0.243506,-4.85001,4,0.0189034,10,-0.001181,-2.31426,-0.391931,-0.150537,28.4571,0.243506,
2,0,0,1,0,7102.7,0.241807,0.241501,-4.90125,4,0.0188546,10,-0.00118366,-2.30969,-0.360187,-0.163804,31.4026,0.241501,
2,0,0,1,0,7102.71,0.239819,0.239527,-4.97495,4,0.0188058,10,-0.00119163,-2.30321,-0.360098,-0.163844,31.7427,0.239527,
2,0,0,1,0,7102.72,0.237821,0.237519,-5.02766,4,0.0187557,10,-0.00119417,-2.29863,-0.426608,-0.1383,27.1444,0.237519,
2,0,0,1,0,7102.73,0.235824,0.235521,-5.08369,4,0.0187052,10,-0.00119732,-2.29382,-0.426755,-0.138253,27.4227,0.235521,
2,0,0,1,0,7102.74,0.233826,0.233508,-5.13765,4,0.0186541,10,-0.00119968,-2.28924,-0.404287,-0.145936,29.2848,0.233508,
2,0,0,1,0,7102.75,0.231824,0.231536,-5.20038,4,0.0186025,10,-0.00120408,-2.28396,-0.403369,-0.146268,29.6637,0.231536,
2,0,0,1,0,7102.76,0.229822,0.229525,-5.25581,4,0.0185501,10,-0.00120634,-2.27936,-0.501687,-0.117603,24.0911,0.229525,
2,0,0,1,0,7102.77,0.227824,0.227491,-5.29783,4,0.0184974,10,-0.00120521,-2.2759,-0.480644,-0.122752,25.4228,0.227491,
2,0,0,1,0,7102.78,0.225827,0.225501,-5.35811,4,0.018444,10,-0.00120826,-2.27099,-0.43838,-0.134586,28.1196,0.225501,
2,0,0,1,0,7102.79,0.223829,0.223513,-5.40971,4,0.0183902,10,-0.00120914,-2.26683,-0.458204,-0.128764,27.1966,0.2235125,
2,0,0,1,0,7102.8,0.221822,0.221525,-5.46625,4,0.0183357,10,-0.00121091,-2.26231,-0.455382,-0.129562,27.6329,0.221525,
2,0,0,1,0,7102.81,0.219825,0.219501,-5.52057,4,0.0182808,10,-0.00121177,-2.25802,-0.468423,-0.125954,27.1383,0.219501,
2,0,0,1,0,7102.82,0.217827,0.217488,-5.5758,4,0.0182252,10,-0.00121267,-2.25369,-0.494098,-0.11941,25.9669,0.217488,
2,0,0,1,0,7102.83,0.21583,0.215521,-5.62391,4,0.0181693,10,-0.00121207,-2.24996,-0.438998,-0.134397,29.552,0.215521,
2,0,0,1,0,7102.84,0.213841,0.213521,-5.69303,4,0.0181132,10,-0.00121558,-2.24466,-0.446841,-0.132038,29.2807,0.213521,
2,0,0,1,0,7102.85,0.211844,0.211524,-5.74094,4,0.0180561,10,-0.00121435,-2.24102,-0.544088,-0.108438,24.2968,0.211524,
2,0,0,1,0,7102.86,0.209846,0.209545,-5.78963,4,0.0179984,10,-0.00121319,-2.23735,-0.524306,-0.11253,25.4348,0.2095453,
2,0,0,1,0,7102.87,0.207848,0.207531,-5.84251,4,0.0179402,10,-0.0012125,-2.2334,-0.389754,-0.151378,34.6141,0.207531,
2,0,0,1,0,7102.88,0.20586,0.205517,-5.92905,4,0.0178819,10,-0.00121852,-2.22702,-0.405883,-0.145362,33.5227,0.2055175,
2,0,0,1,0,7102.89,0.203862,0.20354,-5.97629,4,0.0178225,10,-0.00121641,-2.22357,-0.584016,-0.101025,23.5601,0.20354,
2,0,0,1,0,7102.9,0.201865,0.201549,-6.02254,4,0.0177625,10,-0.00121384,-2.22022,-0.54466,-0.108325,25.481,0.2015491,
2,0,0,1,0,7102.91,0.199867,0.199521,-6.07869,4,0.017702,10,-0.00121283,-2.21619,-0.415389,-0.142036,33.7565,0.1995215,
2,0,0,1,0,7102.92,0.19786,0.197555,-6.15738,4,0.0176408,10,-0.00121642,-2.2106,-0.475716,-0.124023,29.7066,0.197555,
2,0,0,1,0,7102.93,0.195863,0.195556,-6.1965,4,0.017579,10,-0.00121176,-2.20785,-0.474639,-0.124305,30.1658,0.195556,
2,0,0,1,0,7102.94,0.193865,0.193511,-6.27937,4,0.0175166,10,-0.00121513,-2.20208,-0.406011,-0.145316,35.5452,0.193511,
2,0,0,1,0,7102.95,0.191868,0.191538,-6.33932,4,0.0174535,10,-0.00121422,-2.19796,-0.425958,-0.138511,34.3144,0.191538,
2,0,0,1,0,7102.96,0.189861,0.189504,-6.41685,4,0.0173897,10,-0.00121602,-2.19268,-0.427686,-0.137952,34.5009,0.189504,
2,0,0,1,0,7102.97,0.187863,0.187527,-6.4777,4,0.0173253,10,-0.00121474,-2.18858,-0.421685,-0.139915,35.42,0.187527,
2,0,0,1,0,7102.98,0.185866,0.185549,-6.55695,4,0.01726,10,-0.00121663,-2.1833,-0.394277,-0.149641,38.2729,0.185549,
2,0,0,1,0,7102.99,0.183868,0.183547,-6.63001,4,0.0171941,10,-0.00121692,-2.17849,-0.346285,-0.17038,44.178,0.183547,
2,0,0,1,0,7103,0.18188,0.181595,-6.73162,4,0.017128,10,-0.00122243,-2.17188,-0.3353,-0.175962,46.1593,0.1815951,
2,0,0,1,0,7103.01,0.179882,0.179558,-6.81417,4,0.0170604,10,-0.00122354,-2.16659,-0.379601,-0.155426,41.3356,0.179558,
2,0,0,1,0,7103.02,0.177885,0.177567,-6.89812,4,0.0169917,10,-0.00122488,-2.16127,-0.35086,-0.168158,45.3117,0.1775669,
2,0,0,1,0,7103.03,0.175887,0.175556,-6.9955,4,0.0169223,10,-0.0012281,-2.15518,-0.299205,-0.197189,53.9009,0.175556,
2,0,0,1,0,7103.04,0.173908,0.173617,-7.11105,4,0.0168524,10,-0.0012346,-2.14807,-0.281883,-0.209307,58.0706,0.173617,
2,0,0,1,0,7103.05,0.171901,0.171625,-7.22373,4,0.0167807,10,-0.00123978,-2.14124,-0.290297,-0.20324,57.3096,0.171625,
2,0,0,1,0,7103.06,0.169903,0.169609,-7.34072,4,0.0167079,10,-0.00124505,-2.13426,-0.272373,-0.216614,62.112,0.169609,
2,0,0,1,0,7103.07,0.167906,0.167626,-7.47216,4,0.0166339,10,-0.00125253,-2.12655,-0.244286,-0.24152,70.5198,0.167626,
2,0,0,1,0,7103.08,0.165908,0.165589,-7.62424,4,0.0165583,10,-0.00126249,-2.1178,-0.234621,-0.251469,74.7971,0.165589,
2,0,0,1,0,7103.09,0.163901,0.163608,-7.77269,4,0.0164813,10,-0.00127167,-2.10943,-0.219174,-0.269193,81.81,0.163608,
2,0,0,1,0,7103.1,0.161904,0.161578,-7.95238,4,0.0164027,10,-0.00128493,-2.0995,-0.205561,-0.287019,89.0469,0.161578,
2,0,0,1,0,7103.11,0.159906,0.159605,-8.12915,4,0.0163223,10,-0.00129745,-2.08995,-0.197742,-0.298369,94.785,0.1596047,
2,0,0,1,0,7103.12,0.157909,0.157588,-8.3305,4,0.0162399,10,-0.00131279,-2.07933,-0.17966,-0.328399,106.93,0.157588,
2,0,0,1,0,7103.13,0.155902,0.155565,-8.5611,4,0.0161555,10,-0.00133181,-2.06747,-0.161339,-0.36569,122.355,0.155565,
2,0,0,1,0,7103.14,0.153904,0.153583,-8.82062,4,0.0160685,10,-0.00135469,-2.0545,-0.157932,-0.37358,128.514,0.153583,
2,0,0,1,0,7103.15,0.151907,0.151581,-9.07311,4,0.015979,10,-0.00137531,-2.04224,-0.148383,-0.39762,141.166,0.151581,
2,0,0,1,0,7103.16,0.149909,0.149626,-9.37911,4,0.0158867,10,-0.00140336,-2.02784,-0.134112,-0.439931,161.197,0.149626,
2,0,0,1,0,7103.17,0.147921,0.14762,-9.71168,4,0.0157922,10,-0.00143363,-2.01271,-0.130338,-0.452669,171.7,0.14762,
2,0,0,1,0,7103.18,0.145923,0.145619,-10.0672,4,0.0156933,10,-0.00146598,-1.99709,-0.124463,-0.474038,186.467,0.145619,
2,0,0,1,0,7103.19,0.143926,0.143629,-10.4558,4,0.0155906,10,-0.00150176,-1.98064,-0.114262,-0.516355,211.26,0.143629,
2,0,0,1,0,7103.2,0.141928,0.141625,-10.911,4,0.0154838,10,-0.00154527,-1.96214,-0.109513,-0.53875,229.382,0.141625,
2,0,0,1,0,7103.21,0.139939,0.139616,-11.3763,4,0.0153735,10,-0.00158832,-1.944,-0.109464,-0.538989,239.465,0.139616,
2,0,0,1,0,7103.22,0.137942,0.137617,-11.8707,4,0.0152572,10,-0.00163361,-1.92552,-0.106844,-0.552206,255.971,0.137617,
2,0,0,1,0,7103.23,0.135944,0.135643,-12.3932,4,0.0151359,10,-0.00168106,-1.90682,-0.105663,-0.558378,270.315,0.135643,
2,0,0,1,0,7103.24,0.133947,0.13361,-12.954,4,0.0150091,10,-0.00173078,-1.8876,-0.105214,-0.560764,283.419,0.13361,
2,0,0,1,0,7103.25,0.13194,0.131653,-13.5241,4,0.0148767,10,-0.00178049,-1.86889,-0.106249,-0.555299,293.195,0.131653,
2,0,0,1,0,7103.26,0.129942,0.12963,-14.1208,4,0.0147384,10,-0.00183048,-1.85014,-0.109821,-0.537236,295.803,0.12963,
2,0,0,1,0,7103.27,0.127945,0.127647,-14.709,4,0.0145942,10,-0.00187757,-1.83242,-0.114193,-0.516669,296.46,0.127647,
2,0,0,1,0,7103.28,0.125947,0.125653,-15.2999,4,0.014444,10,-0.00192247,-1.81531,-0.121536,-0.485454,289.391,0.1256527,
2,0,0,1,0,7103.29,0.123941,0.123688,-15.8547,4,0.0142882,10,-0.00196104,-1.79984,-0.126096,-0.467896,289.823,0.123688,
2,0,0,1,0,7103.3,0.121943,0.121659,-16.4573,4,0.0141265,10,-0.00200218,-1.78364,-0.132112,-0.44659,286.23,0.121659,
2,0,0,1,0,7103.31,0.119945,0.119673,-17.004,4,0.0139591,10,-0.00203492,-1.76945,-0.143013,-0.41255,273.716,0.119673,
2,0,0,1,0,7103.32,0.117948,0.117647,-17.5554,4,0.0137862,10,-0.00206535,-1.75559,-0.152007,-0.388141,265.608,0.117647,
2,0,0,1,0,7103.33,0.115946,0.115639,-18.0755,4,0.013608,10,-0.00209023,-1.74291,-0.164698,-0.358232,252.41,0.115639,
2,0,0,1,0,7103.34,0.113962,0.113658,-18.5624,4,0.0134265,10,-0.00210976,-1.73137,-0.184229,-0.320253,231.628,0.113658,
2,0,0,1,0,7103.35,0.111964,0.11166,-18.9971,4,0.0132386,10,-0.00212122,-1.72131,-0.199879,-0.295179,218.801,0.11166,
2,0,0,1,0,7103.36,0.109967,0.109688,-19.4309,4,0.0130464,10,-0.00213135,-1.71151,-0.221525,-0.266336,201.595,0.109688,
2,0,0,1,0,7103.37,0.107969,0.107687,-19.798,4,0.0128502,10,-0.00213199,-1.70338,-0.247103,-0.238767,184.454,0.107687,
2,0,0,1,0,7103.38,0.10598,0.105719,-20.163,4,0.0126523,10,-0.00213162,-1.69545,-0.271332,-0.217446,170.888,0.105719,
2,0,0,1,0,7103.39,0.103983,0.103696,-20.48,4,0.0124491,10,-0.0021237,-1.68867,-0.310373,-0.190094,151.877,0.103696,
2,0,0,1,0,7103.4,0.101985,0.10163,-20.784,4,0.0122427,10,-0.00211229,-1.68227,-0.362517,-0.162751,131.752,0.10163,
2,0,0,1,0,7103.41,0.0999877,0.0996896,-21.0079,4,0.0120337,10,-0.00209427,-1.67762,-0.405082,-0.14565,119.48,0.0996896,
2,0,0,1,0,7103.42,0.0979811,0.0976724,-21.2569,4,0.0118222,10,-0.00207622,-1.6725,-0.493864,-0.119466,98.8752,0.09767244,
2,0,0,1,0,7103.43,0.0959835,0.09565,-21.4073,4,0.0116088,10,-0.00204761,-1.66944,-0.670165,-0.088038,73.5338,0.09565004,
2,0,0,1,0,7103.44,0.0939859,0.0937196,-21.5476,4,0.0113939,10,-0.00201943,-1.6666,-0.893923,-0.0660012,55.4243,0.0937196,
2,0,0,1,0,7103.45,0.0919883,0.0916808,-21.6273,4,0.011178,10,-0.00198281,-1.665,-1.2325,-0.0478702,40.4076,0.0916808,
2,0,0,1,0,7103.46,0.0899816,0.0896922,-21.7103,4,0.0109612,10,-0.00194725,-1.66333,-3.10919,-0.018976,16.0406,0.0896922,
2,0,0,1,0,7103.47,0.087984,0.0876507,-21.692,4,0.0107441,10,-0.00190132,-1.6637,4.4604,0.0132275,-11.1959,0.0876507,
2,0,0,1,0,7103.48,0.0859865,0.0857012,-21.6656,4,0.0105273,10,-0.00185677,-1.66423,1.69167,0.0348768,-29.4467,0.08570122,
2,0,0,1,0,7103.49,0.0839889,0.0837118,-21.576,4,0.010311,10,-0.00180616,-1.66603,1.049,0.0562441,-47.3486,0.0837118,
2,0,0,1,0,7103.5,0.0820004,0.0817024,-21.4763,4,0.0100979,10,-0.00175467,-1.66804,0.737012,0.080053,-66.989,0.0817024,
2,0,0,1,0,7103.51,0.0800028,0.0797158,-21.3083,4,0.00988394,10,-0.00169861,-1.67145,0.568104,0.103854,-86.3411,0.0797158,
2,0,0,1,0,7103.52,0.0780052,0.0776861,-21.1295,4,0.00967173,10,-0.00164147,-1.67511,0.487272,0.121082,-99.7319,0.0776861,
2,0,0,1,0,7103.53,0.0760076,0.0756565,-20.9035,4,0.00946161,10,-0.00158148,-1.67978,0.433291,0.136167,-111.107,0.0756565,
2,0,0,1,0,7103.54,0.0740191,0.0737057,-20.6873,4,0.0092558,10,-0.00152477,-1.6843,0.396136,0.148939,-120.12,0.0737057,
2,0,0,1,0,7103.55,0.0720215,0.0717085,-20.4292,4,0.00905026,10,-0.00146495,-1.68975,0.384127,0.153595,-122.518,0.0717085,
2,0,0,1,0,7103.56,0.0700239,0.0696687,-20.1927,4,0.0088472,10,-0.0014068,-1.69481,0.362984,0.162542,-127.969,0.0696687,
2,0,0,1,0,7103.57,0.0680263,0.0677253,-19.9195,4,0.00864673,10,-0.00134905,-1.70072,0.382967,0.15406,-119.965,0.0677253,
2,0,0,1,0,7103.58,0.0660197,0.0656838,-19.7146,4,0.00844866,10,-0.00129493,-1.70521,0.396886,0.148657,-114.226,0.0656838,
2,0,0,1,0,7103.59,0.0640221,0.0636987,-19.4596,4,0.00825285,10,-0.00123955,-1.71087,0.379826,0.155334,-118.077,0.0636987,
2,0,0,1,0,7103.6,0.0620245,0.061685,-19.2425,4,0.00805934,10,-0.00118697,-1.71574,0.404195,0.145969,-109.602,0.061685,
2,0,0,1,0,7103.61,0.0600269,0.0596973,-19.021,4,0.00786808,10,-0.0011355,-1.72077,0.448602,0.13152,-97.759,0.0596973,
2,0,0,1,0,7103.62,0.0580248,0.0576784,-18.8508,4,0.00767876,10,-0.00108728,-1.72467,0.458681,0.12863,-94.5373,0.0576784,
2,0,0,1,0,7103.63,0.0560227,0.0557142,-18.6444,4,0.00749131,10,-0.00103876,-1.72945,0.467565,0.126186,-91.93,0.0557142,
2,0,0,1,0,7103.64,0.0540251,0.0537013,-18.4852,4,0.00730569,10,-0.000992678,-1.73318,0.512659,0.115086,-82.9916,0.05370133,
2,0,0,1,0,7103.65,0.0520275,0.0517076,-18.3119,4,0.00712176,10,-0.000946865,-1.73727,0.496678,0.118789,-84.9174,0.0517076,
2,0,0,1,0,7103.66,0.0500299,0.0497546,-18.15,4,0.00693942,10,-0.000903047,-1.74112,0.540297,0.109199,-77.378,0.0497546,
2,0,0,1,0,7103.67,0.0480414,0.0477039,-18.0021,4,0.00676046,10,-0.000858772,-1.74468,0.585211,0.100818,-70.8548,0.0477039,
2,0,0,1,0,7103.68,0.0460438,0.0457562,-17.8667,4,0.00658112,10,-0.000817514,-1.74796,0.552484,0.10679,-74.4097,0.0457562,
2,0,0,1,0,7103.69,0.0440462,0.0437314,-17.7065,4,0.00640331,10,-0.000774331,-1.75187,0.553991,0.1065,-73.6431,0.0437314,
2,0,0,1,0,7103.7,0.0420486,0.0417328,-17.5704,4,0.00622696,10,-0.000733263,-1.75522,0.590365,0.0999382,-68.523,0.0417328,
2,0,0,1,0,7103.71,0.0400601,0.0397207,-17.4317,4,0.00605373,10,-0.0006924,-1.75866,0.589317,0.100116,-68.1182,0.03972074,
2,0,0,1,0,7103.72,0.0380625,0.0377365,-17.2982,4,0.00588009,10,-0.000652774,-1.762,0.518389,0.113814,-76.7539,0.03773652,
2,0,0,1,0,7103.73,0.036065,0.0357757,-17.1289,4,0.00570801,10,-0.0006128,-1.76627,0.528735,0.111587,-74.6803,0.0357757,
2,0,0,1,0,7103.74,0.0340674,0.0337412,-16.9998,4,0.00553738,10,-0.000573595,-1.76956,0.552914,0.106707,-70.7369,0.0337412,
2,0,0,1,0,7103.75,0.0320607,0.0317422,-16.8436,4,0.00536817,10,-0.000534654,-1.77357,0.511288,0.115395,-75.8746,0.0317422,
2,0,0,1,0,7103.76,0.0300631,0.0297493,-16.697,4,0.00520045,10,-0.000496723,-1.77736,0.47336,0.124641,-81.1459,0.0297493,
2,0,0,1,0,7103.77,0.0280655,0.0277669,-16.521,4,0.00503442,10,-0.000458737,-1.78196,0.468221,0.126009,-81.3062,0.02776687,
2,0,0,1,0,7103.78,0.0260679,0.0257367,-16.3707,4,0.00486991,10,-0.000421327,-1.78593,0.448895,0.131434,-83.8789,0.0257367,
2,0,0,1,0,7103.79,0.0240613,0.0237603,-16.1849,4,0.0047071,10,-0.000384559,-1.79089,0.415309,0.142063,-89.7752,0.0237603,
2,0,0,1,0,7103.8,0.0220637,0.0217795,-16.0154,4,0.00454608,10,-0.000348809,-1.79546,0.389883,0.151328,-94.4651,0.0217795,
2,0,0,1,0,7103.81,0.0200661,0.0197589,-15.807,4,0.00438696,10,-0.000312328,-1.80115,0.368317,0.160188,-98.8686,0.0197589,
2,0,0,1,0,7103.82,0.0180685,0.0177382,-15.6159,4,0.00422981,10,-0.000276998,-1.80643,0.36356,0.162284,-98.8559,0.0177382,
2,0,0,1,0,7103.83,0.01608,0.0157621,-15.4118,4,0.00407629,10,-0.000242923,-1.81215,0.362349,0.162826,-97.9755,0.0157621,
2,0,0,1,0,7103.84,0.0140824,0.0137166,-15.2219,4,0.00392313,10,-0.000208792,-1.81753,0.33374,0.176785,-104.879,0.0137166,
2,0,0,1,0,7103.85,0.0120848,0.0117641,-14.9925,4,0.00377209,10,-0.000176374,-1.82412,0.315878,0.186781,-109.378,0.0117641,
2,0,0,1,0,7103.86,0.0100873,0.00976869,-14.79,4,0.00362325,10,-0.000144479,-1.83003,0.32257,0.182906,-105.518,0.00976869,
2,0,0,1,0,7103.87,0.00810328,0.0077946,-14.5737,4,0.00347799,10,-0.000113596,-1.83643,0.332754,0.177308,-100.942,0.0077946,
2,0,0,1,0,7103.88,0.00610116,0.00577394,-14.3868,4,0.0033332,10,-8.30686e-05,-1.84204,0.330697,0.178411,-100.06,0.005773942,
2,0,0,1,0,7103.89,0.00410357,0.00375329,-14.1693,4,0.0031905,10,-5.31815e-05,-1.84865,0.401724,0.146867,-81.5114,0.00375329,
2,0,0,1,0,7103.9,0.00210598,0.00172136,-14.0565,4,0.00304962,10,-2.41962e-05,-1.85212,0.409133,0.144207,-78.8456,0.00172136,
2,0,0,1,0,7103.91,0.00010174,-0.000281943,-13.8512,4,0.00291011,10,3.90524e-06,-1.85851,0.350567,0.168299,-91.1343,-0.000281943,
2,0,0,1,0,7103.92,-0.00189827,-0.002241,-13.6954,4,0.00277236,10,3.06913e-05,-1.86343,0.385543,0.153031,-81.7423,-0.002241,
2,0,0,1,0,7103.93,-0.00389586,-0.00428594,-13.5239,4,0.00263631,10,5.79625e-05,-1.8689,0.414883,0.142209,-75.1722,-0.00428594,
2,0,0,1,0,7103.94,-0.00589345,-0.00623632,-13.395,4,0.00250167,10,8.35357e-05,-1.87306,0.450036,0.131101,-68.5059,-0.00623632,
2,0,0,1,0,7103.95,-0.00789103,-0.00819971,-13.2557,4,0.00236841,10,0.000108693,-1.8776,0.558774,0.105588,-54.7425,-0.00819971,
2,0,0,1,0,7103.96,-0.0098977,-0.0102637,-13.1746,4,0.00223621,10,0.00013522,-1.88026,0.647055,0.0911823,-46.8329,-0.0102637,
2,0,0,1,0,7103.97,-0.0118953,-0.0122514,-13.066,4,0.00210501,10,0.000160077,-1.88386,0.680676,0.0866785,-44.2677,-0.0122514,
2,0,0,1,0,7103.98,-0.0138929,-0.0142495,-12.9981,4,0.00197466,10,0.000185217,-1.88612,0.803066,0.0734684,-37.2505,-0.0142495,
2,0,0,1,0,7103.99,-0.0158905,-0.0162294,-12.9178,4,0.00184511,10,0.000209648,-1.88881,1.11725,0.0528081,-26.6775,-0.0162294,
2,0,0,1,0,7104,-0.017879,-0.0182738,-12.8908,4,0.00171733,10,0.000235563,-1.88972,1.41526,0.0416883,-20.9481,-0.0182738,
2,0,0,1,0,7104.01,-0.0198766,-0.0202549,-12.8335,4,0.00158875,10,0.000259941,-1.89166,1.39599,0.0422638,-21.1933,-0.0202549,
2,0,0,1,0,7104.02,-0.0218741,-0.0222209,-12.8071,4,0.00146059,10,0.000284585,-1.89255,2.10347,0.0280489,-14.0179,-0.0222209,
2,0,0,1,0,7104.03,-0.0238717,-0.0242203,-12.7779,4,0.00133271,10,0.000309484,-1.89354,6.52042,0.0090485,-4.51944,-0.0242203,
2,0,0,1,0,7104.04,-0.0258602,-0.0262164,-12.7891,4,0.00120615,10,0.000335283,-1.89316,8.85137,0.00666564,-3.32231,-0.0262164,
2,0,0,1,0,7104.05,-0.0278578,-0.0281885,-12.7647,4,0.00107843,10,0.000359818,-1.89399,11.1119,0.00530961,-2.64902,-0.02818848,
2,0,0,1,0,7104.06,-0.0298554,-0.0301892,-12.7785,4,0.00095069,10,0.000385773,-1.89352,-7.16942,-0.0082294,4.10225,-0.0301892,
2,0,0,1,0,7104.07,-0.031853,-0.0321916,-12.7811,4,0.000822896,10,0.000411445,-1.89343,-2.76227,-0.0213592,10.6699,-0.0321916,
2,0,0,1,0,7104.08,-0.0338597,-0.0342305,-12.8217,4,0.000694884,10,0.000438891,-1.89206,-2.43212,-0.0242587,12.1234,-0.0342305,
2,0,0,1,0,7104.09,-0.0358573,-0.0361991,-12.8297,4,0.000566655,10,0.000464424,-1.89178,-2.12212,-0.0278023,13.942,-0.0361991,
2,0,0,1,0,7104.1,-0.0378548,-0.0382015,-12.877,4,0.000438069,10,0.000491922,-1.89018,-1.8814,-0.0313596,15.7407,-0.0382015,
2,0,0,1,0,7104.11,-0.0398524,-0.0402361,-12.8933,4,0.000309206,10,0.000518774,-1.88964,-1.37977,-0.0427607,21.5618,-0.04023606,
2,0,0,1,0,7104.12,-0.0418591,-0.0422307,-12.9639,4,0.000179967,10,0.000547474,-1.88726,-1.19241,-0.0494796,24.9935,-0.0422307,
2,0,0,1,0,7104.13,-0.0438567,-0.0442279,-12.993,4,5.01711e-05,10,0.000574655,-1.88629,-1.35158,-0.0436527,22.1596,-0.0442279,
2,0,0,1,0,7104.14,-0.0458543,-0.0461531,-13.0508,4,-8.01096e-05,10,0.000602336,-1.88436,-1.20649,-0.0489023,24.8913,-0.0461531,
2,0,0,1,0,7104.15,-0.0478519,-0.048192,-13.0917,4,-0.000210836,10,0.000630915,-1.883,-0.927391,-0.0636194,32.5663,-0.048192,
2,0,0,1,0,7104.16,-0.0498585,-0.0501884,-13.1822,4,-0.000342216,10,0.000661594,-1.88001,-0.879761,-0.0670636,34.4446,-0.0501884,
2,0,0,1,0,7104.17,-0.051838,-0.0521896,-13.2294,4,-0.000472983,10,0.000690437,-1.87846,-0.968116,-0.0609431,31.5019,-0.0521896,
2,0,0,1,0,7104.18,-0.0538355,-0.0541731,-13.3077,4,-0.000605647,10,0.000720922,-1.8759,-0.884077,-0.0667363,34.6355,-0.0541731,
2,0,0,1,0,7104.19,-0.0558331,-0.0561748,-13.3674,4,-0.000739025,10,0.000750913,-1.87395,-0.839994,-0.0702386,36.6775,-0.0561748,
2,0,0,1,0,7104.2,-0.0578126,-0.058127,-13.4528,4,-0.000871814,10,0.000781968,-1.87119,-0.777297,-0.0759041,39.8345,-0.058127,
2,0,0,1,0,7104.21,-0.0598192,-0.0601849,-13.5272,4,-0.00100677,10,0.000814132,-1.86879,-0.725464,-0.0813273,42.9736,-0.0601849,
2,0,0,1,0,7104.22,-0.0618168,-0.0621709,-13.6265,4,-0.00114254,10,0.000847174,-1.86561,-0.718392,-0.0821278,43.6346,-0.0621709,
2,0,0,1,0,7104.23,-0.0638144,-0.0641603,-13.7006,4,-0.00127916,10,0.000879037,-1.86326,-0.738006,-0.0799451,42.7794,-0.0641603,
2,0,0,1,0,7104.24,-0.065812,-0.0661419,-13.7964,4,-0.00141666,10,0.000912522,-1.86023,-0.688113,-0.0857417,46.1525,-0.0661419,
2,0,0,1,0,7104.25,-0.0678187,-0.0681452,-13.8845,4,-0.00155514,10,0.000946165,-1.85747,-0.63194,-0.0933633,50.6389,-0.0681452,
2,0,0,1,0,7104.26,-0.0698163,-0.0701537,-13.9996,4,-0.00169463,10,0.000982123,-1.85388,-0.643384,-0.0917026,50.0486,-0.0701537,
2,0,0,1,0,7104.27,-0.0718138,-0.0721483,-14.0849,4,-0.00183511,10,0.0010162,-1.85125,-0.628002,-0.0939487,51.7093,-0.0721483,
2,0,0,1,0,7104.28,-0.0738114,-0.0741664,-14.2071,4,-0.00197662,10,0.00105369,-1.8475,-0.55905,-0.105536,58.5005,-0.0741664,
2,0,0,1,0,7104.29,-0.0758181,-0.0762131,-14.3227,4,-0.00211935,10,0.00109158,-1.84398,-0.549586,-0.107353,60.0225,-0.0762131,
2,0,0,1,0,7104.3,-0.0778157,-0.0781504,-14.4462,4,-0.00226326,10,0.00112898,-1.84025,-0.566173,-0.104208,58.7238,-0.0781504,
2,0,0,1,0,7104.31,-0.0798133,-0.0801971,-14.5566,4,-0.0024083,10,0.0011674,-1.83694,-0.539953,-0.109269,62.1358,-0.0801971,
2,0,0,1,0,7104.32,-0.0818109,-0.0821709,-14.696,4,-0.00255459,10,0.00120759,-1.8328,-0.490122,-0.120378,69.0282,-0.0821709,
2,0,0,1,0,7104.33,-0.0837994,-0.0841648,-14.8305,4,-0.00270076,10,0.00124821,-1.82884,-0.485995,-0.121401,70.2855,-0.0841648,
2,0,0,1,0,7104.34,-0.0857969,-0.0861324,-14.9745,4,-0.00284975,10,0.00128979,-1.82465,-0.49977,-0.118054,68.9638,-0.0861324,
2,0,0,1,0,7104.35,-0.0877945,-0.0881755,-15.1071,4,-0.00300017,10,0.00133208,-1.82082,-0.490569,-0.120268,70.959,-0.0881755,
2,0,0,1,0,7104.36,-0.0897921,-0.0901893,-15.2623,4,-0.00315205,10,0.0013765,-1.81638,-0.467417,-0.126225,75.1522,-0.0901893,
2,0,0,1,0,7104.37,-0.0917806,-0.0921414,-15.4052,4,-0.00330384,10,0.00141945,-1.81233,-0.441555,-0.133619,80.4065,-0.0921414,
2,0,0,1,0,7104.38,-0.0937782,-0.0941031,-15.577,4,-0.00345877,10,0.00146585,-1.80752,-0.455545,-0.129515,78.6578,-0.0941031,
2,0,0,1,0,7104.39,-0.0957758,-0.096135,-15.7193,4,-0.00361525,10,0.00151118,-1.80357,-0.474085,-0.12445,76.3976,-0.096135,
2,0,0,1,0,7104.4,-0.0977734,-0.0981123,-15.8833,4,-0.00377333,10,0.00155835,-1.79906,-0.438099,-0.134673,83.4953,-0.0981123,
2,0,0,1,0,7104.41,-0.0997412,-0.100146,-16.0542,4,-0.00392981,10,0.00160775,-1.79441,0.0983638,0.599814,-363.373,-0.100146,
2,0,0,1,1,7104.41,-0.0996711,-0.100081,-15.168,4,-0.00397685,10,0.00151803,-1.81907,-0.0124938,-4.72234,2461.45,-0.100081,
2,0,0,1,1,7104.42,-0.0976826,-0.0980835,-10.9782,4,-0.00410424,10,0.00107678,-1.95947,-0.0140542,-4.19804,1823.8,-0.0980835,
2,0,0,1,1,7104.43,-0.095685,-0.0960872,-7.88437,4,-0.00419754,10,0.000757587,-2.10323,-0.0130442,-4.52307,1390.21,-0.09608724,
2,0,0,1,1,7104.44,-0.0936874,-0.0940862,-5.42118,4,-0.00426342,10,0.000510058,-2.26591,-0.0108509,-5.43733,1126.26,-0.0940862,
2,0,0,1,1,7104.45,-0.0916898,-0.0920741,-3.36454,4,-0.00430674,10,0.000309787,-2.47307,-0.00774785,-7.61502,941.869,-0.0920741,
2,0,0,1,1,7104.46,-0.0897013,-0.0900809,-1.64865,4,-0.0043311,10,0.000148512,-2.78287,-0.00293493,-20.1027,807.06,-0.0900809,
2,0,0,1,1,7104.47,-0.0877037,-0.088088,-0.147487,4,-0.0043397,10,1.29918e-05,-3.83125,-0.0241402,-2.44406,697.327,-0.088088,
2,1,0,1,1,7104.48,-0.0857062,-0.0860994,1.12771,4,-0.00433451,10,-9.70955e-05,-2.9478,0.0033772,17.4701,598.139,-0.0860994,
2,1,0,1,1,7104.49,-0.0837086,-0.0840987,2.23864,4,-0.00431733,10,-0.000188267,-2.65001,0.00885496,6.66293,517.63,-0.0840987,
2,1,0,1,1,7104.5,-0.0817019,-0.0820763,3.21018,4,-0.00428981,10,-0.00026348,-2.49347,0.0154307,3.82355,457.346,-0.0820763,
2,1,0,1,1,7104.51,-0.0797043,-0.0800878,4.07303,4,-0.00425316,10,-0.0003262,-2.39008,0.0223927,2.63478,407.466,-0.0800878,
2,1,0,1,1,7104.52,-0.0777067,-0.0781149,4.82436,4,-0.00420849,10,-0.000376854,-2.31656,0.0304255,1.93916,359.87,-0.0781149,
2,1,0,1,1,7104.53,-0.0757091,-0.0760959,5.50958,4,-0.00415664,10,-0.000419257,-2.25888,0.039125,1.50799,320.421,-0.0760959,
2,1,0,1,1,7104.54,-0.0737025,-0.0740848,6.11566,4,-0.0040984,10,-0.000453078,-2.21356,0.0493478,1.1956,283.075,-0.0740848,
2,1,0,1,1,7104.55,-0.0717049,-0.0720312,6.66021,4,-0.00403437,10,-0.000479743,-2.17651,0.0611052,0.965548,248.65,-0.0720312,
2,1,0,1,1,7104.56,-0.0697073,-0.0701008,7.1063,4,-0.00396548,10,-0.000498157,-2.14836,0.0731414,0.806657,223.289,-0.0701008,
2,1,0,1,1,7104.57,-0.0677097,-0.0680749,7.5436,4,-0.00389203,10,-0.00051353,-2.12242,0.0850812,0.693455,203.166,-0.0680749,
2,1,0,1,1,7104.58,-0.0657212,-0.0660828,7.92262,4,-0.00381538,10,-0.000523549,-2.10113,0.101279,0.582547,179.566,-0.0660828,
2,1,0,1,1,7104.59,-0.0637236,-0.0640643,8.26378,4,-0.00373437,10,-0.000529413,-2.08282,0.121536,0.485454,155.981,-0.0640643,
2,1,0,1,1,7104.6,-0.061726,-0.0620514,8.55145,4,-0.00365028,10,-0.000530629,-2.06796,0.138205,0.426901,142.332,-0.0620514,
2,1,0,1,1,7104.61,-0.0597284,-0.0600965,8.82852,4,-0.0035633,10,-0.000530563,-2.05411,0.159281,0.370415,127.214,-0.0600965,
2,1,0,1,1,7104.62,-0.0577399,-0.0581061,9.05334,4,-0.00347479,10,-0.000526054,-2.04319,0.186982,0.315539,111.436,-0.0581061,
2,1,0,1,1,7104.63,-0.0557423,-0.0561037,9.27346,4,-0.00338305,10,-0.000520275,-2.03276,0.215492,0.273792,98.8369,-0.0561037,
2,1,0,1,1,7104.64,-0.0537448,-0.0541013,9.44916,4,-0.00328941,10,-0.000511212,-2.02461,0.25331,0.232916,85.8646,-0.0541013,
2,1,0,1,1,7104.65,-0.0517472,-0.0520589,9.62076,4,-0.00319397,10,-0.000500847,-2.01679,0.277407,0.212684,79.7345,-0.05205892,
2,1,0,1,1,7104.66,-0.049745,-0.0501424,9.76482,4,-0.00309707,10,-0.000489631,-2.01034,0.306788,0.192315,73.2986,-0.0501424,
2,1,0,1,1,7104.67,-0.0477429,-0.0480749,9.91279,4,-0.00299858,10,-0.000476556,-2.0038,0.374249,0.157649,60.8321,-0.0480749,
2,1,0,1,1,7104.68,-0.0457453,-0.0460985,10.0108,4,-0.00289892,10,-0.000461484,-1.99953,0.451811,0.130586,51.0367,-0.0460985,
2,1,0,1,1,7104.69,-0.0437477,-0.0440813,10.1166,4,-0.00279824,10,-0.000445953,-1.99497,0.498634,0.118323,46.6524,-0.0440813,
2,1,0,1,1,7104.7,-0.0417501,-0.0421448,10.1953,4,-0.00269667,10,-0.000429678,-1.9916,0.52908,0.111514,44.4113,-0.0421448,
2,1,0,1,1,7104.71,-0.0397435,-0.0401042,10.2932,4,-0.00259412,10,-0.000412802,-1.98745,0.673908,0.0875491,35.0728,-0.0401042,
2,1,0,1,1,7104.72,-0.0377459,-0.0381642,10.3349,4,-0.00249099,10,-0.000394423,-1.98569,0.765026,0.0771216,31.1655,-0.0381642,
2,1,0,1,1,7104.73,-0.0357483,-0.0361566,10.4163,4,-0.00238724,10,-0.000376616,-1.98229,0.861478,0.068487,27.7743,-0.0361566,
2,1,0,1,1,7104.74,-0.0337507,-0.0340917,10.448,4,-0.00228296,10,-0.00035619,-1.98097,1.19215,0.0494904,20.1971,-0.03409167,
2,1,0,1,1,7104.75,-0.0317622,-0.0321256,10.4977,4,-0.00217925,10,-0.000337244,-1.97891,1.34402,0.0438983,17.9601,-0.0321256,
2,1,0,1,1,7104.76,-0.0297646,-0.0301596,10.5186,4,-0.00207419,10,-0.000317237,-1.97804,1.72601,0.0341828,14.0417,-0.0301596,
2,1,0,1,1,7104.77,-0.027767,-0.0281395,10.5536,4,-0.0019688,10,-0.000296975,-1.9766,3.02934,0.0194762,8.00724,-0.0281395,
2,1,0,1,1,7104.78,-0.0257694,-0.0261847,10.5504,4,-0.00186329,10,-0.00027626,-1.97673,2.40011,0.0245822,10.1444,-0.0261847,
2,1,0,1,1,7104.79,-0.0237809,-0.0241142,10.5945,4,-0.00175859,10,-0.000255478,-1.97492,2.62483,0.0224776,9.27157,-0.0241142,
2,1,0,1,1,7104.8,-0.0217833,-0.0221517,10.5878,4,-0.00165269,10,-0.000234538,-1.97519,30.0179,0.0019655,0.812796,-0.0221517,
2,1,0,1,1,7104.81,-0.0197858,-0.0201657,10.5977,4,-0.00154671,10,-0.00021371,-1.97479,46.2335,0.00127613,0.527362,-0.0201657,
2,1,0,1,1,7104.82,-0.0177882,-0.0181503,10.5899,4,-0.0014408,10,-0.000192211,-1.97511,4.97033,0.0118704,4.91415,-0.0181503,
2,1,0,1,1,7104.83,-0.0157815,-0.016127,10.6175,4,-0.00133473,10,-0.000171229,-1.97398,16.5394,0.00356723,1.47472,-0.016127,
2,1,0,1,1,7104.84,-0.0137839,-0.0141506,10.5958,4,-0.00122866,10,-0.000149938,-1.97486,-6.29383,-0.00937425,-3.88159,-0.01415062,
2,1,0,1,1,7104.85,-0.0117863,-0.0121647,10.6022,4,-0.00112267,10,-0.000128972,-1.97461,-7.38685,-0.00798716,-3.3008,-0.01216467,
2,1,0,1,1,7104.86,-0.00978874,-0.0101171,10.5825,4,-0.00101677,10,-0.000107065,-1.97541,13.6371,0.00432645,1.79076,-0.0101171,
2,1,0,1,1,7104.87,-0.00778207,-0.00812857,10.6094,4,-0.000910798,10,-8.62392e-05,-1.97431,-11.4051,-0.00517314,-2.13566,-0.00812857,
2,1,0,1,1,7104.88,-0.00578449,-0.00613741,10.574,4,-0.000804929,10,-6.48972e-05,-1.97576,-3.91648,-0.0150646,-6.23021,-0.00613741,
2,1,0,1,1,7104.89,-0.0037869,-0.00415407,10.5846,4,-0.000699094,10,-4.39693e-05,-1.97532,-21.6794,-0.00272147,-1.12284,-0.00415407,
2,1,0,1,1,7104.9,-0.00178931,-0.00217246,10.5696,4,-0.000593363,10,-2.29619e-05,-1.97594,-2.83484,-0.0208125,-8.58389,-0.00217246,
2,1,0,1,1,7104.91,-2.55332e-05,-0.000306236,10.5516,4,-0.000501392,10,-3.23128e-06,-1.97668, , , ,-0.000306236,