File: Figure_codes/Fig_3-5/rawdata_trumpetplot_data/after 10th/20221101_1-115_003_TrumpetPlot_ParaChange_from10_every3_08_CV_C01_25.csv
mode,ox/red,error,control changes,counter inc.,time/s,control/V,Ewe/V,<I>/mA,cycle number,(Q-Qo)/C,I Range,P/W,log(|I|),Tafel slope mV/dec,alpha_eff,dI/d(E-IR),E-IR/V,
2,0,0,0,0,50428.3,2.44065e-05,-0.000363498,-3.97092,26,0.0000000E+000,10,1.44342e-06,-2.40111, , , ,-0.000363498,
2,0,0,1,0,50428.3,0.0012943,0.000874451,-2.46053,26,-4.86822e-05,10,-2.15161e-06,-2.60897, , , ,0.000874451,
2,0,0,1,0,50428.3,0.00279784,0.00247949,-1.31777,26,-8.32453e-05,10,-3.2674e-06,-2.88016,-0.00409888,-14.3942,643.461,0.00247949,
2,0,0,1,0,50428.3,0.00429425,0.00394234,-0.52065,26,-9.9714e-05,10,-2.05258e-06,-3.28345,-0.00508811,-11.5957,486.705,0.00394234,
2,1,0,1,0,50428.4,0.00579065,0.00544348,0.0961858,26,-0.000103127,10,5.23585e-07,-4.01689,-0.265899,-0.221888,376.608,0.00544348,
2,1,0,1,0,50428.4,0.00729419,0.0069524,0.583948,26,-9.62047e-05,10,4.05984e-06,-3.23363,0.00362394,16.2806,299.077,0.006952398,
2,1,0,1,0,50428.4,0.00878347,0.00840372,0.988101,26,-8.11161e-05,10,8.30372e-06,-3.0052,0.00788798,7.47973,243.739,0.00840372,
2,1,0,1,0,50428.4,0.010287,0.00993513,1.31468,26,-5.91338e-05,10,1.30615e-05,-2.88118,0.0141247,4.17708,199.497,0.00993513,
2,1,0,1,0,50428.4,0.0117905,0.0114723,1.58729,26,-3.14955e-05,10,1.821e-05,-2.79934,0.0210891,2.79766,166.829,0.0114723,
2,1,0,1,0,50428.4,0.013278,0.0128991,1.818,26,4.63448e-07,10,2.34506e-05,-2.74041,0.0286072,2.06242,143.247,0.0128991,
2,1,0,1,0,50428.5,0.0147816,0.014438,2.02206,26,3.6858e-05,10,2.91945e-05,-2.69421,0.036893,1.59922,124.196,0.014438,
2,1,0,1,0,50428.5,0.0162851,0.0159139,2.1983,26,7.68182e-05,10,3.49836e-05,-2.65791,0.0463042,1.27418,107.733,0.0159139,
2,1,0,1,0,50428.5,0.0177744,0.0174419,2.35608,26,0.000119364,10,4.10945e-05,-2.62781,0.0563819,1.04644,95.1325,0.0174419,
2,1,0,1,0,50428.5,0.0192779,0.0189181,2.4854,26,0.000164988,10,4.7019e-05,-2.6046,0.0660608,0.893117,86.0083,0.0189181,
2,1,0,1,0,50428.5,0.0207743,0.0204581,2.60463,26,0.00021277,10,5.32859e-05,-2.58425,0.0738072,0.79938,80.7259,0.0204581,
2,1,0,1,0,50428.6,0.0222707,0.0219291,2.713,26,0.000262711,10,5.94938e-05,-2.56655,0.083479,0.706765,74.5691,0.0219291,
2,1,0,1,0,50428.6,0.0237743,0.0234766,2.81456,26,0.000314918,10,6.60763e-05,-2.55059,0.0985984,0.598387,65.5351,0.02347656,
2,1,0,1,0,50428.6,0.0252636,0.0249759,2.90536,26,0.000368374,10,7.25642e-05,-2.5368,0.108555,0.543504,61.5834,0.0249759,
2,1,0,1,0,50428.6,0.0267671,0.0264433,2.99111,26,0.00042408,10,7.90947e-05,-2.52417,0.117719,0.501194,58.5103,0.0264433,
2,1,0,1,0,50428.6,0.0282706,0.027912,3.07621,26,0.000481402,10,8.58631e-05,-2.51198,0.12862,0.458715,55.0404,0.027912,
2,1,0,1,0,50428.6,0.0297581,0.0294223,3.15612,26,0.000539663,10,9.28603e-05,-2.50085,0.14067,0.419421,51.6059,0.0294223,
2,1,0,1,0,50428.7,0.0312617,0.0309646,3.22682,26,0.000599997,10,9.99171e-05,-2.49123,0.151785,0.388707,49.0115,0.0309646,
2,1,0,1,0,50428.7,0.0327652,0.0324241,3.30257,26,0.000661694,10,0.000107083,-2.48115,0.16106,0.366323,47.2819,0.0324241,
2,1,0,1,0,50428.7,0.0342545,0.0338999,3.37942,26,0.000724095,10,0.000114562,-2.47116,0.166185,0.355027,46.778,0.0338999,
2,1,0,1,0,50428.7,0.035758,0.0354525,3.44995,26,0.000788514,10,0.000122309,-2.46219,0.184006,0.320641,43.1233,0.0354525,
2,1,0,1,0,50428.7,0.0372544,0.0369101,3.51987,26,0.000853901,10,0.000129919,-2.45347,0.180345,0.327151,44.8684,0.0369101,
2,1,0,1,0,50428.8,0.0387508,0.0383681,3.58652,26,0.000920475,10,0.000137608,-2.44533,0.182615,0.323084,45.2346,0.03836808,
2,1,0,1,0,50428.8,0.0402544,0.0399302,3.65138,26,0.000988691,10,0.0001458,-2.43754,0.184201,0.320302,45.5965,0.0399302,
2,1,0,1,0,50428.8,0.0417437,0.0413774,3.72173,26,0.00105748,10,0.000153996,-2.42925,0.185257,0.318477,46.1689,0.0413774,
2,1,0,1,0,50428.8,0.0432472,0.0428921,3.7855,26,0.00112821,10,0.000162368,-2.42188,0.200832,0.293778,43.3325,0.0428921,
2,1,0,1,0,50428.8,0.0447507,0.0444157,3.84639,26,0.00120013,10,0.00017084,-2.41495,0.204442,0.288591,43.2984,0.04441569,
2,1,0,1,0,50428.9,0.0462382,0.0458752,3.90798,26,0.00127246,10,0.000179279,-2.40805,0.196712,0.299931,45.7305,0.0458752,
2,1,0,1,0,50428.9,0.0477418,0.0474035,3.96902,26,0.00134673,10,0.000188145,-2.40132,0.213259,0.276659,42.8666,0.0474035,
2,1,0,1,0,50428.9,0.0492453,0.0489486,4.03109,26,0.00142223,10,0.000197316,-2.39458,0.221789,0.266019,41.8512,0.0489486,
2,1,0,1,0,50428.9,0.0507346,0.0504186,4.09026,26,0.00149801,10,0.000206225,-2.38825,0.236235,0.249751,39.8829,0.0504186,
2,1,0,1,0,50428.9,0.0522381,0.0518679,4.15297,26,0.00157576,10,0.000215406,-2.38164,0.237372,0.248554,40.2602,0.0518679,
2,1,0,1,0,50428.9,0.0537345,0.0534384,4.21341,26,0.00165424,10,0.000225158,-2.37537,0.244036,0.241768,39.7505,0.0534384,
2,1,0,1,0,50429,0.0552309,0.0549031,4.27586,26,0.00173384,10,0.000234758,-2.36898,0.270788,0.217883,36.2993,0.0549031,
2,1,0,1,0,50429,0.0567345,0.0563855,4.32791,26,0.00181499,10,0.000244031,-2.36372,0.270895,0.217796,36.7879,0.0563855,
2,1,0,1,0,50429,0.0582237,0.0579213,4.39101,26,0.00189628,10,0.000254333,-2.35744,0.275842,0.21389,36.642,0.0579213,
2,1,0,1,0,50429,0.0597273,0.0593945,4.44913,26,0.00197953,10,0.000264254,-2.35172,0.272545,0.216478,37.5561,0.05939446,
2,1,0,1,0,50429,0.0612308,0.0609197,4.5011,26,0.0020639,10,0.000274206,-2.34668,0.289033,0.204129,35.8499,0.0609197,
2,1,0,1,0,50429.1,0.0627183,0.0623864,4.56292,26,0.00214839,10,0.000284664,-2.34076,0.301778,0.195508,34.7766,0.0623864,
2,1,0,1,0,50429.1,0.0642219,0.063941,4.6173,26,0.00223478,10,0.000295235,-2.33561,0.282964,0.208507,37.5362,0.063941,
2,1,0,1,0,50429.1,0.0657254,0.0653552,4.67097,26,0.00232222,10,0.000305272,-2.33059,0.27643,0.213435,38.8565,0.0653552,
2,1,0,1,0,50429.1,0.0672147,0.0668723,4.72658,26,0.00240979,10,0.000316077,-2.32545,0.281343,0.209708,38.6037,0.0668723,
2,1,0,1,0,50429.1,0.0687182,0.0683887,4.77582,26,0.00249932,10,0.000326612,-2.32095,0.30849,0.191254,35.6064,0.0683887,
2,1,0,1,0,50429.2,0.0702146,0.0698706,4.82126,26,0.00258931,10,0.000336864,-2.31684,0.315202,0.187182,35.2414,0.0698706,
2,1,0,1,0,50429.2,0.071711,0.0713738,4.87248,26,0.00268021,10,0.000347768,-2.31225,0.31366,0.188102,35.7767,0.0713738,
2,1,0,1,0,50429.2,0.0732146,0.0728459,4.92223,26,0.00277258,10,0.000358564,-2.30784,0.335213,0.176007,33.8249,0.0728459,
2,1,0,1,0,50429.2,0.0747038,0.0743644,4.97102,26,0.00286488,10,0.000369667,-2.30355,0.383653,0.153785,29.8353,0.0743644,
2,1,0,1,0,50429.2,0.0762074,0.0758171,5.01215,26,0.00295902,10,0.000380006,-2.29998,0.396423,0.148831,29.1417,0.0758171,
2,1,0,1,0,50429.2,0.0777109,0.0773795,5.06173,26,0.00305399,10,0.000391674,-2.2957,0.394701,0.14948,29.5262,0.07737948,
2,1,0,1,0,50429.3,0.0791984,0.0788281,5.11063,26,0.00314883,10,0.000402861,-2.29153,0.418093,0.141117,28.1065,0.0788281,
2,1,0,1,0,50429.3,0.0807019,0.0804137,5.15447,26,0.00324552,10,0.00041449,-2.28782,0.453855,0.129998,26.1194,0.0804137,
2,1,0,1,0,50429.3,0.0822055,0.0818746,5.19152,26,0.003343,10,0.000425053,-2.28471,0.460232,0.128196,25.968,0.0818746,
2,1,0,1,0,50429.3,0.0836947,0.0833692,5.23784,26,0.00344013,10,0.000436675,-2.28085,0.493384,0.119582,24.4173,0.0833692,
2,1,0,1,0,50429.3,0.0851983,0.0848682,5.27592,26,0.00353909,10,0.000447758,-2.2777,0.437267,0.134929,27.7595,0.0848682,
2,1,0,1,0,50429.4,0.0866947,0.0863571,5.31778,26,0.0036383,10,0.000459228,-2.27427,0.46465,0.126977,26.311,0.0863571,
2,1,0,1,0,50429.4,0.0881911,0.0878554,5.34825,26,0.00373822,10,0.000469873,-2.27179,0.476631,0.123785,25.853,0.0878554,
2,1,0,1,0,50429.4,0.0896946,0.0893687,5.39158,26,0.00383936,10,0.000481838,-2.26828,0.467561,0.126187,26.5416,0.0893687,
2,1,0,1,0,50429.4,0.0911839,0.0908023,5.42498,26,0.00394017,10,0.000492601,-2.2656,0.432939,0.136278,28.8777,0.0908023,
2,1,0,1,0,50429.4,0.0926857,0.0923733,5.47196,26,0.00404283,10,0.000505463,-2.26186,0.441445,0.133652,28.5267,0.0923733,
2,1,0,1,0,50429.5,0.0941892,0.093842,5.50592,26,0.00414629,10,0.000516686,-2.25917,0.427309,0.138073,29.7061,0.093842,
2,1,0,1,0,50429.5,0.0956785,0.0953625,5.54821,26,0.0042494,10,0.000529091,-2.25585,0.416436,0.141678,30.7184,0.0953625,
2,1,0,1,0,50429.5,0.097182,0.0968366,5.5969,26,0.00435444,10,0.000541985,-2.25205,0.377669,0.156222,34.1495,0.0968366,
2,1,0,1,0,50429.5,0.0986856,0.098365,5.64684,26,0.00446043,10,0.000555451,-2.24819,0.357213,0.165168,36.4378,0.098365,
2,1,0,1,0,50429.5,0.100175,0.0998442,5.70281,26,0.00456624,10,0.000569392,-2.24391,0.380354,0.155119,34.5577,0.09984424,
2,1,0,1,0,50429.5,0.101678,0.101337,5.75265,26,0.00467425,10,0.000582955,-2.24013,0.346802,0.170126,38.2857,0.1013368,
2,1,0,1,0,50429.6,0.103175,0.102832,5.82441,26,0.00478276,10,0.000598938,-2.23475,0.303344,0.194498,44.2554,0.102832,
2,1,0,1,0,50429.6,0.104671,0.104344,5.89995,26,0.00489254,10,0.000615625,-2.22915,0.290957,0.202779,46.6603,0.104344,
2,1,0,1,0,50429.6,0.106175,0.105863,5.96751,26,0.0050043,10,0.000631738,-2.22421,0.292712,0.201563,46.939,0.105863,
2,1,0,1,0,50429.6,0.107662,0.107326,6.04479,26,0.00511626,10,0.000648762,-2.21862,0.278538,0.21182,50.0002,0.107326,
2,1,0,1,0,50429.6,0.109166,0.10883,6.12661,26,0.00523081,10,0.000666761,-2.21278,0.259753,0.227139,54.3192,0.10883,
2,1,0,1,0,50429.7,0.110669,0.110307,6.20747,26,0.00534691,10,0.000684726,-2.20709,0.244279,0.241527,58.5518,0.110307,
2,1,0,1,0,50429.7,0.112159,0.111843,6.29553,26,0.00546342,10,0.000704113,-2.20097,0.251175,0.234896,57.6815,0.111843,
2,1,0,1,0,50429.7,0.113662,0.113291,6.38091,26,0.00558277,10,0.000722901,-2.19512,0.245512,0.240315,59.8637,0.113291,
2,1,0,1,0,50429.7,0.115166,0.114814,6.46794,26,0.00570375,10,0.000742611,-2.18923,0.242154,0.243647,61.5253,0.114814,
2,1,0,1,0,50429.7,0.116655,0.116295,6.55892,26,0.00582516,10,0.000762771,-2.18317,0.2403,0.245527,62.8525,0.116295,
2,1,0,1,0,50429.8,0.118158,0.117831,6.65327,26,0.00594966,10,0.000783958,-2.17697,0.250946,0.23511,61.0295,0.117831,
2,1,0,1,0,50429.8,0.119655,0.119316,6.73942,26,0.00607518,10,0.000804121,-2.17138,0.267675,0.220417,57.992,0.119316,
2,1,0,1,0,50429.8,0.121151,0.1208,6.82054,26,0.00620227,10,0.000823924,-2.16618,0.301075,0.195964,52.1694,0.1208,
2,1,0,1,0,50429.8,0.122655,0.122301,6.90315,26,0.00633159,10,0.000844263,-2.16095,0.300948,0.196047,52.82,0.122301,
2,1,0,1,0,50429.8,0.124142,0.123815,6.97874,26,0.00646097,10,0.000864074,-2.15622,0.324269,0.181947,49.5477,0.123815,
2,1,0,1,0,50429.8,0.125646,0.125352,7.05176,26,0.00659316,10,0.00088395,-2.1517,0.355169,0.166118,45.6921,0.125352,
2,1,0,1,0,50429.9,0.127149,0.12678,7.11738,26,0.00672665,10,0.000902337,-2.14768,0.39804,0.148226,41.1646,0.12678,
2,1,0,1,0,50429.9,0.128639,0.128326,7.18064,26,0.00685989,10,0.000921465,-2.14384,0.422397,0.139679,39.1306,0.128326,
2,1,0,1,0,50429.9,0.130142,0.129795,7.24611,26,0.00699572,10,0.000940511,-2.1399,0.478827,0.123218,34.8064,0.1297953,
2,1,0,1,0,50429.9,0.131646,0.131308,7.30044,26,0.00713266,10,0.000958607,-2.13665,0.538901,0.109482,31.1481,0.131308,
2,1,0,1,0,50429.9,0.133135,0.132811,7.34718,26,0.00726906,10,0.000975787,-2.13388,0.580092,0.101708,29.1537,0.132811,
2,1,0,1,0,50430,0.134639,0.134298,7.39152,26,0.00740773,10,0.000992665,-2.13127,0.587608,0.100407,28.9426,0.134298,
2,1,0,1,0,50430,0.136135,0.135798,7.43255,26,0.00754649,10,0.00100932,-2.12886,0.60141,0.0981028,28.4298,0.135798,
2,1,0,1,0,50430,0.137631,0.137266,7.46589,26,0.00768597,10,0.00102482,-2.12692,0.693042,0.0851319,24.7778,0.137266,
2,1,0,1,0,50430,0.139135,0.138842,7.49639,26,0.00782683,10,0.00104081,-2.12515,0.836902,0.0704981,20.5977,0.138842,
2,1,0,1,0,50430,0.140622,0.140271,7.5158,26,0.00796667,10,0.00105425,-2.12402,1.11276,0.0530214,15.5457,0.140271,
2,1,0,1,0,50430.1,0.142126,0.141822,7.53517,26,0.00810842,10,0.00106866,-2.12291,1.40899,0.041874,12.3012,0.141822,
2,1,0,1,0,50430.1,0.143629,0.143287,7.54281,26,0.00825045,10,0.00108079,-2.12247,10.3588,0.00569566,1.67555,0.143287,
2,1,0,1,0,50430.1,0.145119,0.144809,7.54559,26,0.00839108,10,0.00109267,-2.12231,-1.91999,-0.0307294,-9.03176,0.144809,
2,1,0,1,0,50430.1,0.146622,0.146267,7.5166,26,0.00853297,10,0.00109943,-2.12398,-0.899927,-0.0655609,-19.2172,0.146267,
2,1,0,1,0,50430.1,0.148126,0.147789,7.49029,26,0.00867434,10,0.00110698,-2.1255,-0.556571,-0.106006,-30.9106,0.147789,
2,1,0,1,0,50430.1,0.149615,0.149258,7.43788,26,0.00881342,10,0.00111017,-2.12855,-0.388033,-0.152049,-44.0292,0.149258,
2,1,0,1,0,50430.2,0.151119,0.1508,7.36486,26,0.0089528,10,0.00111062,-2.13284,-0.282415,-0.208913,-59.8686,0.1508,
2,1,0,1,0,50430.2,0.152615,0.152276,7.27644,26,0.00908992,10,0.00110803,-2.13808,-0.231626,-0.254721,-72.066,0.152276,
2,1,0,1,0,50430.2,0.154111,0.153745,7.15446,26,0.00922496,10,0.00109997,-2.14542,-0.183389,-0.321721,-89.5812,0.153745,
2,1,0,1,0,50430.2,0.155615,0.155289,7.01918,26,0.00935832,10,0.00109,-2.15371,-0.163535,-0.360779,-98.4926,0.155289,
2,1,0,1,0,50430.2,0.157102,0.156774,6.86064,26,0.00948757,10,0.00107557,-2.16364,-0.14314,-0.412184,-109.929,0.156774,
2,1,0,1,0,50430.3,0.158606,0.158224,6.68254,26,0.00961507,10,0.00105734,-2.17506,-0.122666,-0.480979,-125.116,0.158224,
2,1,0,1,0,50430.3,0.16011,0.159756,6.48352,26,0.00973902,10,0.00103578,-2.18819,-0.114747,-0.514174,-129.973,0.159756,
2,1,0,1,0,50430.3,0.161599,0.161272,6.28964,26,0.00985802,10,0.00101434,-2.20137,-0.10974,-0.537634,-131.785,0.161272,
2,1,0,1,0,50430.3,0.163102,0.162748,6.0845,26,0.00997453,10,0.000990241,-2.21578,-0.104401,-0.565131,-134.099,0.162748,
2,1,0,1,0,50430.3,0.164606,0.16425,5.87818,26,0.0100872,10,0.000965493,-2.23076,-0.100375,-0.587796,-134.822,0.1642503,
2,1,0,1,0,50430.4,0.166095,0.165749,5.67527,26,0.0101949,10,0.00094067,-2.24601,-0.0998263,-0.591027,-131.161,0.165749,
2,1,0,1,0,50430.4,0.167599,0.167316,5.48293,26,0.0103,10,0.000917382,-2.26099,-0.10256,-0.575272,-123.313,0.167316,
2,1,0,1,0,50430.4,0.169095,0.168724,5.30518,26,0.0104011,10,0.000895111,-2.2753,-0.103944,-0.567616,-117.641,0.168724,
2,1,0,1,0,50430.4,0.170592,0.170245,5.13447,26,0.0104989,10,0.000874116,-2.2895,-0.103382,-0.570698,-114.494,0.170245,
2,1,0,1,0,50430.4,0.172095,0.171791,4.97159,26,0.0105941,10,0.000854073,-2.30351,-0.10865,-0.543027,-105.533,0.171791,
2,1,0,1,0,50430.4,0.173583,0.173212,4.82879,26,0.0106854,10,0.000836404,-2.31616,-0.116263,-0.507469,-95.7105,0.173212,
2,1,0,1,0,50430.5,0.175086,0.174784,4.69519,26,0.0107751,10,0.000820646,-2.32835,-0.121429,-0.48588,-89.0745,0.174784,
2,1,0,1,0,50430.5,0.17659,0.176201,4.56424,26,0.0108623,10,0.000804224,-2.34063,-0.129626,-0.455156,-81.2087,0.176201,
2,1,0,1,0,50430.5,0.178079,0.17775,4.45425,26,0.0109463,10,0.000791744,-2.35123,-0.137973,-0.42762,-74.4076,0.17775,
2,1,0,1,0,50430.5,0.179582,0.179276,4.34893,26,0.0110291,10,0.000779659,-2.36162,-0.149441,-0.394806,-67.1037,0.179276,
2,1,0,1,0,50430.5,0.181086,0.180768,4.25096,26,0.0111101,10,0.000768436,-2.37151,-0.163472,-0.360917,-59.983,0.180768,
2,1,0,1,0,50430.6,0.182575,0.182264,4.17211,26,0.0111886,10,0.000760427,-2.37964,-0.174641,-0.337835,-54.9898,0.182264,
2,1,0,1,0,50430.6,0.184079,0.18378,4.08447,26,0.0112663,10,0.000750642,-2.38886,-0.19403,-0.304077,-48.5531,0.18378,
2,1,0,1,0,50430.6,0.185582,0.185221,4.00671,26,0.0113426,10,0.000742129,-2.39721,-0.208332,-0.283202,-44.3641,0.185221,
2,1,0,1,0,50430.6,0.18707,0.186733,3.93998,26,0.0114167,10,0.000735724,-2.40451,-0.228604,-0.258088,-39.7302,0.186733,
2,1,0,1,0,50430.6,0.188573,0.188234,3.8802,26,0.0114905,10,0.000730385,-2.41115,-0.242728,-0.24307,-36.846,0.188234,
2,1,0,1,0,50430.7,0.19007,0.189718,3.82213,26,0.0115628,10,0.000725128,-2.41769,-0.234792,-0.251287,-37.5292,0.1897182,
2,1,0,1,0,50430.7,0.191566,0.191247,3.76314,26,0.011634,10,0.000719691,-2.42445,-0.254057,-0.232231,-34.2198,0.191247,
2,1,0,1,0,50430.7,0.19307,0.192728,3.7204,26,0.0117046,10,0.000717024,-2.42941,-0.291359,-0.202499,-29.4334,0.192728,
2,1,0,1,0,50430.7,0.194559,0.194216,3.67998,26,0.0117737,10,0.000714711,-2.43416,-0.287636,-0.20512,-29.4855,0.194216,
2,1,0,1,0,50430.7,0.196063,0.195739,3.63987,26,0.0118427,10,0.000712462,-2.43891,-0.290567,-0.203051,-28.8523,0.195739,
2,1,0,1,0,50430.7,0.197566,0.197226,3.59585,26,0.011911,10,0.000709196,-2.4442,-0.299089,-0.197265,-27.7261,0.197226,
2,1,0,1,0,50430.8,0.199055,0.198717,3.56795,26,0.0119778,10,0.000709014,-2.44758,-0.339174,-0.173952,-24.2255,0.198717,
2,1,0,1,0,50430.8,0.200559,0.200211,3.53766,26,0.0120447,10,0.00070828,-2.45128,-0.392423,-0.150348,-20.7288,0.200211,
2,1,0,1,0,50430.8,0.202062,0.201758,3.5093,26,0.0121111,10,0.000708027,-2.45478,-0.410864,-0.1436,-19.6282,0.201758,
2,1,0,1,0,50430.8,0.20355,0.20324,3.47697,26,0.0121762,10,0.000706659,-2.4588,-0.437389,-0.134891,-18.3063,0.2032399,
2,1,0,1,0,50430.8,0.205054,0.204726,3.44579,26,0.0122414,10,0.000705444,-2.46271,-0.538944,-0.109473,-14.766,0.204726,
2,1,0,1,0,50430.9,0.20655,0.206229,3.4256,26,0.0123059,10,0.000706458,-2.46526,-0.67349,-0.0876034,-11.721,0.206229,
2,1,0,1,0,50430.9,0.208046,0.207725,3.40657,26,0.01237,10,0.000707632,-2.46768,-0.615685,-0.0958282,-12.7255,0.207725,
2,1,0,1,0,50430.9,0.20955,0.209187,3.37911,26,0.012434,10,0.000706865,-2.4712,-0.529589,-0.111407,-14.7085,0.209187,
2,1,0,1,0,50430.9,0.211039,0.210718,3.35418,26,0.0124969,10,0.000706786,-2.47441,-0.569876,-0.103531,-13.582,0.210718,
2,1,0,1,0,50430.9,0.212543,0.212205,3.33866,26,0.0125601,10,0.000708481,-2.47643,-0.708758,-0.0832442,-10.8599,0.212205,
2,1,0,1,0,50431,0.214046,0.213727,3.32335,26,0.012623,10,0.000710291,-2.47842,-0.659168,-0.0895067,-11.6167,0.213727,
2,1,0,1,0,50431,0.215535,0.215179,3.30541,26,0.0126849,10,0.000711256,-2.48077,-0.592007,-0.099661,-12.8599,0.215179,
2,1,0,1,0,50431,0.217039,0.216698,3.28531,26,0.0127472,10,0.000711921,-2.48342,-0.658361,-0.0896164,-11.5214,0.216698,
2,1,0,1,0,50431,0.218543,0.218208,3.27698,26,0.0128091,10,0.000715061,-2.48453,-0.782595,-0.0753902,-9.64066,0.218208,
2,1,0,1,0,50431,0.22003,0.219722,3.26853,26,0.0128702,10,0.000718166,-2.48565,-0.808971,-0.0729322,-9.29246,0.219722,
2,1,0,1,0,50431,0.221534,0.221225,3.25209,26,0.0129316,10,0.000719443,-2.48784,-0.734262,-0.0803528,-10.2017,0.221225,
2,1,0,1,0,50431.1,0.22303,0.222681,3.23578,26,0.0129925,10,0.000720546,-2.49002,-0.779374,-0.0757018,-9.56166,0.222681,
2,1,0,1,0,50431.1,0.224526,0.224209,3.22668,26,0.0130531,10,0.000723449,-2.49124,-0.845867,-0.0697509,-8.78663,0.224209,
2,1,0,1,0,50431.1,0.22603,0.225721,3.21487,26,0.0131139,10,0.000725662,-2.49284,-1.23289,-0.0478549,-5.99892,0.225721,
2,1,0,1,0,50431.1,0.227519,0.227174,3.20659,26,0.0131738,10,0.000728454,-2.49396,-0.974839,-0.0605228,-7.56609,0.227174,
2,1,0,1,0,50431.1,0.229023,0.228676,3.19506,26,0.0132341,10,0.000730635,-2.49552,-0.999077,-0.0590545,-7.35677,0.228676,
2,1,0,1,0,50431.2,0.230526,0.23018,3.1806,26,0.0132942,10,0.000732111,-2.49749,-1.59301,-0.0370368,-4.60604,0.23018,
2,1,0,1,0,50431.2,0.232016,0.231725,3.17202,26,0.0133535,10,0.000735035,-2.49866,-1.71424,-0.0344176,-4.2649,0.231725,
2,1,0,1,0,50431.2,0.233519,0.233152,3.16497,26,0.0134133,10,0.000737919,-2.49963,-1.44535,-0.0408205,-5.03528,0.233152,
2,1,0,1,0,50431.2,0.235023,0.234697,3.15236,26,0.013473,10,0.00073985,-2.50136,-1.56871,-0.0376106,-4.6298,0.234697,
2,1,0,1,0,50431.2,0.23651,0.236191,3.14176,26,0.0135318,10,0.000742055,-2.50283,-1.26602,-0.0466028,-5.72783,0.236191,
2,1,0,1,0,50431.3,0.238014,0.237673,3.13954,26,0.0135911,10,0.000746182,-2.50313,-1.51445,-0.0389581,-4.77258,0.2376727,
2,1,0,1,0,50431.3,0.23951,0.239186,3.13024,26,0.01365,10,0.000748709,-2.50442,-1.5508,-0.0380449,-4.65165,0.239186,
2,1,0,1,0,50431.3,0.241006,0.240682,3.12851,26,0.0137087,10,0.000752978,-2.50466,-1.15033,-0.0512897,-6.25846,0.240682,
2,1,0,1,0,50431.3,0.24251,0.242175,3.11342,26,0.0137676,10,0.000753992,-2.50676,-1.16406,-0.0506846,-6.16955,0.242175,
2,1,0,1,0,50431.3,0.243999,0.243635,3.11518,26,0.0138258,10,0.00075897,-2.50652,-1.50694,-0.0391521,-4.75785,0.243635,
2,1,0,1,0,50431.3,0.245503,0.245167,3.11089,26,0.0138845,10,0.000762686,-2.50712,-1.52441,-0.0387034,-4.69041,0.245167,
2,1,0,1,0,50431.4,0.247006,0.246646,3.10397,26,0.013943,10,0.000765585,-2.50808,-1.20669,-0.0488942,-5.91415,0.246646,
2,1,0,1,0,50431.4,0.248496,0.248179,3.09183,26,0.0140008,10,0.000767329,-2.50978,-1.64063,-0.0359619,-4.33631,0.248179,
2,1,0,1,0,50431.4,0.249999,0.249642,3.08873,26,0.0140591,10,0.000771078,-2.51022,-2.69054,-0.0219287,-2.642,0.249642,
2,1,0,1,0,50431.4,0.251503,0.2512,3.08151,26,0.0141173,10,0.000774075,-2.51124,-4.02169,-0.0146704,-1.76284,0.2512,
2,1,0,1,0,50431.4,0.25299,0.252677,3.07496,26,0.0141747,10,0.000776972,-2.51216,-2.35398,-0.025064,-3.00699,0.252677,
2,1,0,1,0,50431.5,0.254494,0.254152,3.06687,26,0.0142327,10,0.00077945,-2.5133,-2.49559,-0.0236417,-2.83244,0.254152,
2,1,0,1,0,50431.5,0.25599,0.255676,3.06118,26,0.0142903,10,0.000782671,-2.51411,-3.90329,-0.0151155,-1.80866,0.255676,
2,1,0,1,0,50431.5,0.257487,0.257183,3.05173,26,0.0143477,10,0.000784853,-2.51545,-2.91212,-0.0202601,-2.41896,0.257183,
2,1,0,1,0,50431.5,0.25899,0.25867,3.05258,26,0.0144054,10,0.000789612,-2.51533,-2.00675,-0.0294008,-3.4997,0.25867,
2,1,0,1,0,50431.5,0.260479,0.260183,3.04532,26,0.0144624,10,0.000792342,-2.51637,-1.39299,-0.042355,-5.03505,0.260183,
2,1,0,1,0,50431.6,0.261983,0.261689,3.04106,26,0.0145198,10,0.000795812,-2.51698,-1.73634,-0.0339795,-4.03286,0.261689,
2,1,0,1,0,50431.6,0.263486,0.263118,3.03686,26,0.0145771,10,0.000799054,-2.51757,-2.1741,-0.0271376,-3.21535,0.263118,
2,1,0,1,0,50431.6,0.264974,0.264669,3.03026,26,0.0146338,10,0.000802016,-2.51852,-1.83469,-0.0321579,-3.80602,0.264669,
2,1,0,1,0,50431.6,0.266477,0.266123,3.027,26,0.014691,10,0.000805556,-2.51899,-1.48455,-0.0397426,-4.69766,0.266123,
2,1,0,1,0,50431.6,0.267981,0.267649,3.0182,26,0.0147481,10,0.000807818,-2.52025,-1.37964,-0.0427646,-5.0437,0.267649,
2,1,0,1,0,50431.6,0.26947,0.269136,3.01946,26,0.0148044,10,0.000812646,-2.52007,-1.66976,-0.0353344,-4.1617,0.269136,
2,1,0,1,0,50431.7,0.270974,0.270655,3.01888,26,0.0148613,10,0.000817073,-2.52015,-2.06186,-0.028615,-3.36184,0.270655,
2,1,0,1,0,50431.7,0.27247,0.272121,3.00977,26,0.0149178,10,0.000819022,-2.52147,-2.61717,-0.0225434,-2.6442,0.2721211,
2,1,0,1,0,50431.7,0.273967,0.27367,3.00354,26,0.0149743,10,0.00082198,-2.52237,-3.11851,-0.0189193,-2.22025,0.27367,
2,1,0,1,0,50431.7,0.27547,0.275129,2.99997,26,0.0150308,10,0.000825378,-2.52288,-2.83529,-0.0208092,-2.43772,0.275129,
2,1,0,1,0,50431.7,0.276959,0.276652,2.99066,26,0.0150868,10,0.000827375,-2.52423,-6.0078,-0.00982057,-1.14743,0.276652,
2,1,0,1,0,50431.8,0.278463,0.278143,2.9884,26,0.0151432,10,0.000831203,-2.52456,-1.88189,-0.0313515,-3.65354,0.278143,
2,1,0,1,0,50431.8,0.279967,0.279659,2.9788,26,0.0151996,10,0.000833046,-2.52596,-5.42879,-0.010868,-1.26598,0.279659,
2,1,0,1,0,50431.8,0.281454,0.281104,2.97363,26,0.0152552,10,0.0008359,-2.52671,-2.49999,-0.0236001,-2.74503,0.281104,
2,1,0,1,0,50431.8,0.282958,0.282608,2.96806,26,0.0153113,10,0.000838798,-2.52753,-4.63392,-0.0127322,-1.47811,0.282608,
2,1,0,1,0,50431.8,0.284461,0.284162,2.96567,26,0.0153674,10,0.00084273,-2.52788,-2.02719,-0.0291043,-3.36941,0.2841616,
2,1,0,1,0,50431.9,0.28595,0.28566,2.96169,26,0.0154229,10,0.000846035,-2.52846,-1.24696,-0.0473152,-5.47228,0.28566,
2,1,0,1,0,50431.9,0.287454,0.287087,2.95685,26,0.0154787,10,0.000848873,-2.52917,-0.971529,-0.060729,-7.01046,0.287087,
2,1,0,1,0,50431.9,0.28895,0.288584,2.95302,26,0.0155342,10,0.000852194,-2.52973,-1.48112,-0.0398348,-4.58607,0.2885839,
2,1,0,1,0,50431.9,0.290447,0.290111,2.94954,26,0.0155895,10,0.000855694,-2.53025,-1.5514,-0.0380302,-4.37628,0.290111,
2,1,0,1,0,50431.9,0.29195,0.291613,2.94606,26,0.0156451,10,0.00085911,-2.53076,-1.61074,-0.0366291,-4.20523,0.291613,
2,1,0,1,0,50431.9,0.29344,0.293148,2.93925,26,0.0157,10,0.000861635,-2.53176,-1.73028,-0.0340986,-3.90987,0.293148,
2,1,0,1,0,50432,0.294943,0.294622,2.93296,26,0.0157554,10,0.000864114,-2.53269,-3.0035,-0.0196437,-2.24791,0.294622,
2,1,0,1,0,50432,0.296447,0.296087,2.93239,26,0.0158107,10,0.000868242,-2.53278,-5.45939,-0.0108071,-1.23439,0.296087,
2,1,0,1,0,50432,0.297934,0.297626,2.92541,26,0.0158653,10,0.000870677,-2.53381,-15.8444,-0.00372371,-0.424751,0.297626,
2,1,0,1,0,50432,0.299438,0.299133,2.91628,26,0.0159204,10,0.000872355,-2.53517,-0.0327634,-1.80079,-190.335,0.299133,
2,1,0,1,0,50432,0.300012,0.299766,2.91858,26,0.0159409,10,0.000874889,-2.53483,0.00181119,32.5753,2503.23,0.299766,
2,1,0,1,0,50432,0.298737,0.298384,1.57845,26,0.0159746,10,0.000470983,-2.80177,0.0046373,12.7229,703.612,0.298384,
2,1,0,1,0,50432.1,0.29724,0.296905,0.755005,26,0.0159955,10,0.000224165,-3.12205,0.00292651,20.1605,471.626,0.296905,
2,1,0,1,0,50432.1,0.295744,0.295406,0.22233,26,0.016004,10,6.56777e-05,-3.653,0.00666275,8.8552,302.452,0.295406,
2,0,0,1,0,50432.1,0.29424,0.293881,-0.147608,26,0.0160042,10,-4.33791e-05,-3.83089,-0.0348986,-1.69061,213.238,0.293881,
2,0,0,1,0,50432.1,0.292751,0.29239,-0.411862,26,0.0159987,10,-0.000120424,-3.38525,-0.00333822,-17.6741,153.822,0.29239,
2,0,0,1,0,50432.1,0.291248,0.290918,-0.613098,26,0.0159889,10,-0.000178361,-3.21247,-0.0102298,-5.76748,120.368,0.290918,
2,0,0,1,0,50432.2,0.289744,0.289421,-0.774178,26,0.0159756,10,-0.000224063,-3.11116,-0.0174479,-3.38149,95.5904,0.289421,
2,0,0,1,0,50432.2,0.288257,0.28794,-0.900028,26,0.0159599,10,-0.000259154,-3.04574,-0.0263673,-2.23762,75.4855,0.28794,
2,0,0,1,0,50432.2,0.286753,0.286429,-0.996176,26,0.0159419,10,-0.000285334,-3.00166,-0.0345967,-1.70537,65.1152,0.286429,
2,0,0,1,0,50432.2,0.285249,0.284904,-1.08972,26,0.0159221,10,-0.000310467,-2.96268,-0.0424792,-1.38891,58.0894,0.284904,
2,0,0,1,0,50432.2,0.28376,0.283438,-1.16045,26,0.015901,10,-0.000328916,-2.93537,-0.0532134,-1.10874,49.753,0.283438,
2,0,0,1,0,50432.2,0.282257,0.281868,-1.22735,26,0.0158783,10,-0.000345951,-2.91103,-0.0667467,-0.883939,42.0062,0.281868,
2,0,0,1,0,50432.3,0.28076,0.280407,-1.28697,26,0.0158546,10,-0.000360875,-2.89043,-0.0753371,-0.783147,39.0153,0.280407,
2,0,0,1,0,50432.3,0.279264,0.278892,-1.33647,26,0.0158299,10,-0.000372732,-2.87404,-0.0868117,-0.679632,35.3721,0.278892,
2,0,0,1,0,50432.3,0.27776,0.277422,-1.38696,26,0.015804,10,-0.000384772,-2.85794,-0.100966,-0.584357,31.5458,0.277422,
2,0,0,1,0,50432.3,0.276271,0.275937,-1.43237,26,0.0157775,10,-0.000395243,-2.84394,-0.116057,-0.50837,28.3353,0.275937,
2,0,0,1,0,50432.3,0.274767,0.274398,-1.4696,26,0.01575,10,-0.000403256,-2.8328,-0.136353,-0.432701,24.8456,0.274398,
2,0,0,1,0,50432.4,0.273264,0.272927,-1.50379,26,0.0157218,10,-0.000410424,-2.82281,-0.145727,-0.404867,23.8258,0.272927,
2,0,0,1,0,50432.4,0.271776,0.271467,-1.54784,26,0.0156932,10,-0.000420186,-2.81027,-0.153646,-0.384,23.1393,0.271467,
2,0,0,1,0,50432.4,0.270273,0.269952,-1.5869,26,0.0156636,10,-0.000428387,-2.79945,-0.17066,-0.345716,21.2991,0.269952,
2,0,0,1,0,50432.4,0.268769,0.268454,-1.6185,26,0.0156333,10,-0.000434493,-2.79089,-0.198598,-0.297083,18.6757,0.268454,
2,0,0,1,0,50432.4,0.26728,0.266949,-1.64033,26,0.0156028,10,-0.000437885,-2.78507,-0.210141,-0.280764,17.9949,0.266949,
2,0,0,1,0,50432.5,0.265777,0.265392,-1.67077,26,0.0155714,10,-0.000443408,-2.77708,-0.200479,-0.294295,19.21,0.265392,
2,0,0,1,0,50432.5,0.26428,0.263924,-1.70299,26,0.0155397,10,-0.00044946,-2.76879,-0.207015,-0.285003,18.9069,0.263924,
2,0,0,1,0,50432.5,0.262784,0.262434,-1.7352,26,0.0155075,10,-0.000455376,-2.76065,-0.218492,-0.270033,18.1736,0.262434,
2,0,0,1,0,50432.5,0.26128,0.260949,-1.75099,26,0.0154745,10,-0.000456918,-2.75672,-0.232336,-0.253943,17.3467,0.260949,
2,0,0,1,0,50432.5,0.259791,0.259453,-1.78098,26,0.0154415,10,-0.000462079,-2.74934,-0.22732,-0.259546,18.0129,0.2594527,
2,0,0,1,0,50432.5,0.258287,0.257996,-1.80051,26,0.0154077,10,-0.000464525,-2.7446,-0.219566,-0.268711,18.8697,0.257996,
2,0,0,1,0,50432.6,0.256786,0.256479,-1.82644,26,0.0153734,10,-0.000468443,-2.73839,-0.252739,-0.233442,16.6232,0.256479,
2,0,0,1,0,50432.6,0.255296,0.254934,-1.84516,26,0.015339,10,-0.000470395,-2.73397,-0.301049,-0.195982,14.12,0.254934,
2,0,0,1,0,50432.6,0.253793,0.253478,-1.86628,26,0.0153039,10,-0.000473061,-2.72902,-0.325364,-0.181335,13.2353,0.253478,
2,0,0,1,0,50432.6,0.252289,0.251938,-1.89005,26,0.0152683,10,-0.000476174,-2.72353,-0.297236,-0.198496,14.6169,0.2519381,
2,0,0,1,0,50432.6,0.2508,0.250421,-1.90883,26,0.0152328,10,-0.000478012,-2.71923,-0.383358,-0.153903,11.4715,0.250421,
2,0,0,1,0,50432.7,0.249296,0.248967,-1.92936,26,0.0151965,10,-0.000480347,-2.71459,-0.413826,-0.142572,10.7297,0.248967,
2,0,0,1,0,50432.7,0.2478,0.247502,-1.94585,26,0.01516,10,-0.000481604,-2.71089,-0.441122,-0.13375,10.1782,0.247502,
2,0,0,1,0,50432.7,0.246304,0.245967,-1.97079,26,0.0151232,10,-0.000484748,-2.70536,-0.33897,-0.174057,13.3722,0.245967,
2,0,0,1,0,50432.7,0.2448,0.244401,-1.99519,26,0.0150858,10,-0.000487626,-2.70002,-0.36795,-0.160348,12.4484,0.244401,
2,0,0,1,0,50432.7,0.243313,0.242967,-2.00855,26,0.0150484,10,-0.000488011,-2.69712,-0.393771,-0.149833,11.7359,0.242967,
2,0,0,1,0,50432.8,0.241809,0.24145,-2.02015,26,0.0150103,10,-0.000487765,-2.69462,-0.351485,-0.167859,13.2596,0.24145,
2,0,0,1,0,50432.8,0.240306,0.239952,-2.0413,26,0.014972,10,-0.000489814,-2.69009,-0.344263,-0.17138,13.6653,0.239952,
2,0,0,1,0,50432.8,0.238816,0.238463,-2.06196,26,0.0149336,10,-0.000491701,-2.68572,-0.371994,-0.158605,12.7358,0.238463,
2,0,0,1,0,50432.8,0.237313,0.23696,-2.07556,26,0.0148945,10,-0.000491825,-2.68286,-0.398477,-0.148064,11.9843,0.23696,
2,0,0,1,0,50432.8,0.235809,0.235443,-2.09829,26,0.0148551,10,-0.000494029,-2.67813,-0.414265,-0.142421,11.6498,0.235443,
2,0,0,1,0,50432.8,0.23432,0.233978,-2.10829,26,0.0148158,10,-0.000493293,-2.67607,-0.441591,-0.133608,11.0108,0.233978,
2,0,0,1,0,50432.9,0.232816,0.232458,-2.12365,26,0.0147758,10,-0.00049366,-2.67292,-0.418399,-0.141014,11.7125,0.232458,
2,0,0,1,0,50432.9,0.23132,0.230994,-2.14075,26,0.0147357,10,-0.000494501,-2.66943,-0.475573,-0.124061,10.3714,0.230994,
2,0,0,1,0,50432.9,0.229824,0.229472,-2.159,26,0.0146953,10,-0.00049543,-2.66575,-0.564196,-0.104574,8.80272,0.229472,
2,0,0,1,0,50432.9,0.22832,0.228012,-2.1704,26,0.0146543,10,-0.000494878,-2.66346,-0.632566,-0.0932709,7.91626,0.228012,
2,0,0,1,0,50432.9,0.226833,0.226455,-2.19506,26,0.0146135,10,-0.000497082,-2.65855,-0.503961,-0.117072,9.99894,0.226455,
2,0,0,1,0,50433,0.225329,0.224991,-2.20608,26,0.014572,10,-0.000496349,-2.65638,-0.53082,-0.111149,9.56949,0.224991,
2,0,0,1,0,50433,0.223825,0.223491,-2.22343,26,0.0145302,10,-0.000496915,-2.65298,-0.586672,-0.100567,8.72778,0.223491,
2,0,0,1,0,50433,0.222336,0.22197,-2.23852,26,0.0144885,10,-0.000496883,-2.65004,-0.661413,-0.0892029,7.79201,0.22197,
2,0,0,1,0,50433,0.220833,0.220497,-2.25646,26,0.0144461,10,-0.000497542,-2.64657,-0.486365,-0.121308,10.6601,0.220497,
2,0,0,1,0,50433,0.219329,0.218983,-2.2794,26,0.0144034,10,-0.00049915,-2.64218,-0.527795,-0.111786,9.90118,0.2189832,
2,0,0,1,0,50433.1,0.21784,0.217507,-2.28982,26,0.0143608,10,-0.000498051,-2.6402,-0.487915,-0.120923,10.7764,0.217507,
2,0,0,1,0,50433.1,0.216336,0.215993,-2.30224,26,0.0143175,10,-0.000497267,-2.63785,-0.498389,-0.118381,10.6141,0.215993,
2,0,0,1,0,50433.1,0.21484,0.214536,-2.31621,26,0.0142742,10,-0.00049691,-2.63522,-0.450881,-0.130855,11.8447,0.214536,
2,0,0,1,0,50433.1,0.213343,0.212993,-2.33282,26,0.0142306,10,-0.000496875,-2.63212,-0.423112,-0.139443,12.6672,0.212993,
2,0,0,1,0,50433.1,0.21184,0.2115,-2.34287,26,0.0141864,10,-0.000495516,-2.63025,-0.556482,-0.106023,9.69696,0.2115,
2,0,0,1,0,50433.1,0.210352,0.210018,-2.3581,26,0.0141425,10,-0.000495243,-2.62744,-0.515526,-0.114446,10.5345,0.210018,
2,0,0,1,0,50433.2,0.208849,0.208485,-2.36693,26,0.0140978,10,-0.000493468,-2.62582,-0.49309,-0.119653,11.0885,0.2084848,
2,0,0,1,0,50433.2,0.207345,0.206956,-2.38591,26,0.0140529,10,-0.00049378,-2.62235,-0.462253,-0.127636,11.9073,0.206956,
2,0,0,1,0,50433.2,0.205856,0.205462,-2.40895,26,0.014008,10,-0.000494947,-2.61817,-0.532018,-0.110898,10.421,0.205462,
2,0,0,1,0,50433.2,0.204353,0.204004,-2.42221,26,0.0139623,10,-0.000494139,-2.61579,-0.830945,-0.0710035,6.71723,0.204004,
2,0,0,1,0,50433.2,0.202849,0.202478,-2.43213,26,0.0139165,10,-0.000492454,-2.61401,-0.744426,-0.0792557,7.53848,0.202478,
2,0,0,1,0,50433.3,0.20136,0.20103,-2.45209,26,0.0138708,10,-0.000492944,-2.61046,-0.533501,-0.11059,10.5728,0.20103,
2,0,0,1,0,50433.3,0.199856,0.199514,-2.4709,26,0.0138244,10,-0.000492979,-2.60715,-0.587321,-0.100456,9.68164,0.199514,
2,0,0,1,0,50433.3,0.19836,0.197992,-2.48886,26,0.0137778,10,-0.000492773,-2.604,-0.628874,-0.0938185,9.10204,0.197992,
2,0,0,1,0,50433.3,0.196863,0.196507,-2.5001,26,0.0137311,10,-0.000491286,-2.60204,-0.612799,-0.0962795,9.39317,0.196507,
2,0,0,1,0,50433.3,0.19536,0.194975,-2.51584,26,0.0136837,10,-0.000490528,-2.59932,-0.485404,-0.121548,11.9412,0.194975,
2,0,0,1,0,50433.4,0.193872,0.193508,-2.53669,26,0.0136366,10,-0.000490869,-2.59573,-0.424105,-0.139117,13.7496,0.193508,
2,0,0,1,0,50433.4,0.192369,0.192031,-2.55232,26,0.0135886,10,-0.000490125,-2.59306,-0.471393,-0.125161,12.4388,0.192031,
2,0,0,1,0,50433.4,0.190865,0.190471,-2.56327,26,0.0135403,10,-0.000488229,-2.59121,-0.454275,-0.129877,13.0104,0.190471,
2,0,0,1,0,50433.4,0.189376,0.189043,-2.58046,26,0.0134923,10,-0.000487818,-2.5883,-0.47014,-0.125494,12.6579,0.189043,
2,0,0,1,0,50433.4,0.187872,0.187535,-2.59573,26,0.0134434,10,-0.00048679,-2.58574,-0.418786,-0.140883,14.2907,0.187535,
2,0,0,1,0,50433.4,0.186369,0.186034,-2.61,26,0.0133941,10,-0.000485549,-2.58336,-0.460656,-0.128078,13.0794,0.186034,
2,0,0,1,0,50433.5,0.18488,0.184529,-2.63429,26,0.0133451,10,-0.000486103,-2.57934,-0.57263,-0.103033,10.6034,0.184529,
2,0,0,1,0,50433.5,0.183376,0.182952,-2.65114,26,0.0132952,10,-0.00048503,-2.57657,-0.545814,-0.108095,11.1976,0.182952,
2,0,0,1,0,50433.5,0.18188,0.181558,-2.67043,26,0.0132451,10,-0.000484838,-2.57342,-0.441348,-0.133681,13.9532,0.181558,
2,0,0,1,0,50433.5,0.180383,0.180017,-2.69548,26,0.0131947,10,-0.000485233,-2.56936,-0.514601,-0.114652,12.0542,0.1800171,
2,0,0,1,0,50433.5,0.17888,0.178533,-2.71639,26,0.0131437,10,-0.000484965,-2.56601,-0.501911,-0.117551,12.4468,0.178533,
2,0,0,1,0,50433.6,0.177392,0.177034,-2.73305,26,0.0130929,10,-0.000483843,-2.56335,-0.477558,-0.123545,13.1995,0.177034,
2,0,0,1,0,50433.6,0.175889,0.175565,-2.75713,26,0.0130411,10,-0.000484056,-2.55954,-0.388648,-0.151808,16.3175,0.175565,
2,0,0,1,0,50433.6,0.174385,0.174033,-2.78173,26,0.0129888,10,-0.000484113,-2.55569,-0.464582,-0.126996,13.7791,0.174033,
2,0,0,1,0,50433.6,0.172896,0.172563,-2.80949,26,0.0129367,10,-0.000484815,-2.55137,-0.396845,-0.148673,16.2695,0.172563,
2,0,0,1,0,50433.6,0.171392,0.17104,-2.82757,26,0.0128836,10,-0.000483627,-2.54859,-0.379177,-0.1556,17.1735,0.1710396,
2,0,0,1,0,50433.7,0.169889,0.169538,-2.85508,26,0.0128301,10,-0.000484043,-2.54438,-0.332608,-0.177386,19.7551,0.169538,
2,0,0,1,0,50433.7,0.1684,0.168035,-2.88344,26,0.0127766,10,-0.000484519,-2.54009,-0.316095,-0.186653,20.9812,0.168035,
2,0,0,1,0,50433.7,0.166896,0.166557,-2.91151,26,0.0127219,10,-0.000484931,-2.53588,-0.31339,-0.188264,21.3691,0.166557,
2,0,0,1,0,50433.7,0.165392,0.165075,-2.93552,26,0.0126667,10,-0.000484582,-2.53232,-0.295786,-0.199469,22.8916,0.1650755,
2,0,0,1,0,50433.7,0.163905,0.163568,-2.96445,26,0.0126116,10,-0.000484887,-2.52806,-0.306223,-0.19267,22.3611,0.163568,
2,0,0,1,0,50433.7,0.162401,0.162071,-2.99616,26,0.0125553,10,-0.000485592,-2.52343,-0.286275,-0.206096,24.161,0.162071,
2,0,0,1,0,50433.8,0.160905,0.160552,-3.03532,26,0.0124986,10,-0.000487327,-2.5178,-0.285569,-0.206605,24.5151,0.160552,
2,0,0,1,0,50433.8,0.159409,0.159051,-3.0753,26,0.0124412,10,-0.000489131,-2.51211,-0.286923,-0.20563,24.7025,0.159051,
2,0,0,1,0,50433.8,0.157905,0.157546,-3.11422,26,0.0123829,10,-0.000490634,-2.50665,-0.270757,-0.217908,26.5515,0.157546,
2,0,0,1,0,50433.8,0.156416,0.156049,-3.16362,26,0.0123243,10,-0.000493678,-2.49982,-0.241976,-0.243826,30.1044,0.156049,
2,0,0,1,0,50433.8,0.154912,0.154557,-3.21758,26,0.0122641,10,-0.000497298,-2.49247,-0.229543,-0.257032,32.2372,0.154557,
2,0,0,1,0,50433.9,0.153409,0.153047,-3.26831,26,0.012203,10,-0.000500205,-2.48568,-0.223625,-0.263835,33.6422,0.153047,
2,0,0,1,0,50433.9,0.151919,0.151566,-3.32219,26,0.0121416,10,-0.00050353,-2.47858,-0.200608,-0.294106,38.1427,0.151566,
2,0,0,1,0,50433.9,0.150416,0.150078,-3.38558,26,0.0120784,10,-0.0005081,-2.47037,-0.17523,-0.336701,44.4797,0.150078,
2,0,0,1,0,50433.9,0.148912,0.148582,-3.45603,26,0.012014,10,-0.000513505,-2.46142,-0.157988,-0.373445,50.3527,0.148582,
2,0,0,1,0,50433.9,0.147425,0.147075,-3.52749,26,0.011949,10,-0.000518805,-2.45253,-0.148911,-0.396209,54.5949,0.147075,
2,0,0,1,0,50434,0.145921,0.145563,-3.60286,26,0.0118817,10,-0.000524444,-2.44335,-0.139218,-0.423795,59.7896,0.145563,
2,0,0,1,0,50434,0.144425,0.144041,-3.69786,26,0.0118132,10,-0.000532643,-2.43205,-0.125884,-0.468686,67.776,0.144041,
2,0,0,1,0,50434,0.142929,0.14256,-3.79798,26,0.0117429,10,-0.000541439,-2.42045,-0.123017,-0.479607,71.2699,0.14256,
2,0,0,1,0,50434,0.141425,0.14109,-3.91159,26,0.0116702,10,-0.000551886,-2.40765,-0.118416,-0.498242,76.0988,0.14109,
2,0,0,1,0,50434,0.139936,0.139544,-4.02803,26,0.0115962,10,-0.00056209,-2.39491,-0.116554,-0.506201,79.6132,0.139544,
2,0,0,1,0,50434,0.138432,0.138092,-4.14582,26,0.0115191,10,-0.000572504,-2.38239,-0.110677,-0.533081,86.5706,0.1380918,
2,0,0,1,0,50434.1,0.136929,0.136585,-4.28775,26,0.0114396,10,-0.000585643,-2.36777,-0.104594,-0.564088,94.6099,0.136585,
2,0,0,1,0,50434.1,0.135439,0.135082,-4.43659,26,0.0113582,10,-0.000599302,-2.35295,-0.104403,-0.565117,97.8906,0.135082,
2,0,0,1,0,50434.1,0.133936,0.13359,-4.5957,26,0.0112731,10,-0.000613938,-2.33765,-0.104234,-0.566033,101.416,0.13359,
2,0,0,1,0,50434.1,0.132432,0.132108,-4.74889,26,0.0111851,10,-0.000627368,-2.32341,-0.102569,-0.575222,106.601,0.132108,
2,0,0,1,0,50434.1,0.130945,0.130571,-4.91362,26,0.011095,10,-0.000641574,-2.3086,-0.105265,-0.560491,107.431,0.130571,
2,0,0,1,0,50434.2,0.129441,0.129136,-5.08322,26,0.0110009,10,-0.000656425,-2.29386,-0.107173,-0.550512,109.05,0.129136,
2,0,0,1,0,50434.2,0.127945,0.127619,-5.24732,26,0.0109042,10,-0.000669657,-2.28006,-0.108912,-0.541723,110.735,0.127619,
2,0,0,1,0,50434.2,0.126448,0.126115,-5.4105,26,0.0108044,10,-0.000682343,-2.26676,-0.11386,-0.518179,109.264,0.126115,
2,0,0,1,0,50434.2,0.124945,0.124597,-5.57573,26,0.010701,10,-0.00069472,-2.2537,-0.117261,-0.503152,109.306,0.124597,
2,0,0,1,0,50434.2,0.123456,0.123115,-5.73115,26,0.0105957,10,-0.000705593,-2.24176,-0.121607,-0.485169,108.372,0.123115,
2,0,0,1,0,50434.3,0.121952,0.121639,-5.88776,26,0.0104862,10,-0.00071618,-2.23005,-0.130435,-0.452332,103.804,0.121639,
2,0,0,1,0,50434.3,0.120449,0.120092,-6.0365,26,0.0103739,10,-0.000724934,-2.21921,-0.136424,-0.432474,101.778,0.1200918,
2,0,0,1,0,50434.3,0.118959,0.118653,-6.18563,26,0.01026,10,-0.000733944,-2.20862,-0.146807,-0.401888,96.9345,0.118653,
2,0,0,1,0,50434.3,0.117456,0.117109,-6.32521,26,0.0101422,10,-0.000740738,-2.19892,-0.157026,-0.375735,92.6898,0.117109,
2,0,0,1,0,50434.3,0.115952,0.115622,-6.46304,26,0.0100216,10,-0.000747272,-2.18956,-0.16753,-0.352176,88.7255,0.115622,
2,0,0,1,0,50434.3,0.114465,0.114105,-6.59261,26,0.00989997,10,-0.000752251,-2.18094,-0.184677,-0.319478,82.1451,0.114105,
2,0,0,1,0,50434.4,0.112961,0.112607,-6.71522,26,0.00977467,10,-0.000756179,-2.17294,-0.195689,-0.301499,79.0008,0.112607,
2,0,0,1,0,50434.4,0.111465,0.111089,-6.8309,26,0.00964778,10,-0.000758836,-2.16552,-0.210652,-0.280083,74.6059,0.111089,
2,0,0,1,0,50434.4,0.109968,0.109571,-6.94325,26,0.00951875,10,-0.00076078,-2.15844,-0.22354,-0.263935,71.4419,0.109571,
2,0,0,1,0,50434.4,0.108465,0.108132,-7.05337,26,0.009387,10,-0.000762694,-2.1516,-0.254733,-0.231615,63.6207,0.108132,
2,0,0,1,0,50434.4,0.106976,0.106584,-7.14219,26,0.00925484,10,-0.000761244,-2.14617,-0.27782,-0.212367,59.1336,0.1065841,
2,0,0,1,0,50434.5,0.105472,0.105126,-7.23002,26,0.0091196,10,-0.000760066,-2.14086,-0.306033,-0.19279,54.3185,0.105126,
2,0,0,1,0,50434.5,0.103968,0.103641,-7.31199,26,0.00898279,10,-0.000757819,-2.13596,-0.343233,-0.171895,48.9444,0.103641,
2,0,0,1,0,50434.5,0.102479,0.102116,-7.37359,26,0.00884605,10,-0.000752959,-2.13232,-0.403175,-0.146338,42.0313,0.102116,
2,0,0,1,0,50434.5,0.100976,0.100626,-7.42608,26,0.00870674,10,-0.000747256,-2.12924,-0.469894,-0.12556,36.3701,0.100626,
2,0,0,1,0,50434.5,0.0994721,0.0991516,-7.47265,26,0.00856649,10,-0.000740926,-2.12653,-0.580883,-0.10157,29.586,0.0991516,
2,0,0,1,0,50434.6,0.0979846,0.0976345,-7.51205,26,0.00842694,10,-0.000733435,-2.12424,-0.736669,-0.0800903,23.4566,0.0976345,
2,0,0,1,0,50434.6,0.0964811,0.0961393,-7.535,26,0.00828528,10,-0.00072441,-2.12292,-1.14044,-0.0517345,15.1899,0.0961393,
2,0,0,1,0,50434.6,0.0949847,0.0946012,-7.54345,26,0.00814396,10,-0.000713619,-2.12243,-2.60231,-0.0226722,6.67174,0.0946012,
2,0,0,1,0,50434.6,0.0934883,0.093163,-7.54974,26,0.00800258,10,-0.000703356,-2.12207,-19.6152,-0.00300788,0.886262,0.093163,
2,0,0,1,0,50434.6,0.0919847,0.0916476,-7.54483,26,0.00786037,10,-0.000691465,-2.12235,4.56292,0.0129303,-3.80684,0.09164758,
2,0,0,1,0,50434.6,0.0904955,0.0901424,-7.53882,26,0.00771976,10,-0.000679568,-2.1227,1.42804,0.0413153,-12.147,0.0901424,
2,0,0,1,0,50434.7,0.0889919,0.0886376,-7.52538,26,0.00757793,10,-0.000667031,-2.12347,0.931003,0.0633725,-18.5789,0.08863759,
2,0,0,1,0,50434.7,0.0874884,0.0870997,-7.49679,26,0.00743663,10,-0.000652968,-2.12512,0.731414,0.0806657,-23.5745,0.0870997,
2,0,0,1,0,50434.7,0.0860009,0.0856739,-7.46061,26,0.0072974,10,-0.00063918,-2.12723,0.765897,0.0770339,-22.4101,0.0856739,
2,0,0,1,0,50434.7,0.0844973,0.084119,-7.42679,26,0.00715733,10,-0.000624735,-2.1292,0.613435,0.0961797,-27.8503,0.084119,
2,0,0,1,0,50434.7,0.0829938,0.0826503,-7.3886,26,0.00701796,10,-0.00061067,-2.13144,0.576892,0.102272,-29.4491,0.0826503,
2,0,0,1,0,50434.8,0.0815045,0.0811554,-7.33751,26,0.00688091,10,-0.000595478,-2.13445,0.618432,0.0954026,-27.3186,0.0811554,
2,0,0,1,0,50434.8,0.080001,0.0796635,-7.30293,26,0.00674317,10,-0.000581777,-2.1365,0.682459,0.0864521,-24.6175,0.0796635,
2,0,0,1,0,50434.8,0.0785046,0.0781584,-7.25985,26,0.00660689,10,-0.000567418,-2.13907,0.666601,0.0885088,-25.0752,0.0781584,
2,0,0,1,0,50434.8,0.0770082,0.0766617,-7.21531,26,0.00647138,10,-0.000553138,-2.14175,0.631681,0.0934016,-26.2953,0.0766617,
2,0,0,1,0,50434.8,0.0755046,0.0751292,-7.17044,26,0.00633593,10,-0.00053871,-2.14445,0.634593,0.0929729,-26.0405,0.0751292,
2,0,0,1,0,50434.9,0.0740154,0.0736438,-7.13537,26,0.0062027,10,-0.000525476,-2.14658,0.734925,0.0802803,-22.3682,0.0736438,
2,0,0,1,0,50434.9,0.0725118,0.0721598,-7.09889,26,0.00606873,10,-0.000512254,-2.14881,0.791102,0.0745795,-20.6706,0.0721598,
2,0,0,1,0,50434.9,0.0710083,0.0706389,-7.06469,26,0.00593534,10,-0.000499042,-2.15091,0.720944,0.0818371,-22.5566,0.0706389,
2,0,0,1,0,50434.9,0.0695208,0.0691518,-7.02715,26,0.00580399,10,-0.00048594,-2.15322,0.755913,0.0780514,-21.4298,0.0691518,
2,0,0,1,0,50434.9,0.0680173,0.0676859,-6.99936,26,0.00567191,10,-0.000473758,-2.15494,0.762336,0.0773937,-21.1624,0.0676859,
2,0,0,1,0,50434.9,0.0665137,0.0661541,-6.96566,26,0.00554037,10,-0.000460807,-2.15704,0.807454,0.0730691,-19.8822,0.0661541,
2,0,0,1,0,50435,0.0650244,0.0646728,-6.94796,26,0.00541071,10,-0.000449344,-2.15814,0.732561,0.0805393,-21.8242,0.0646728,
2,0,0,1,0,50435,0.0635209,0.0631772,-6.91948,26,0.00528019,10,-0.000437153,-2.15993,0.728129,0.0810296,-21.8707,0.0631772,
2,0,0,1,0,50435,0.0620245,0.0616426,-6.88917,26,0.00515096,10,-0.000424666,-2.16183,0.757269,0.0779115,-20.9484,0.0616426,
2,0,0,1,0,50435,0.0605281,0.0601658,-6.86219,26,0.00502225,10,-0.000412869,-2.16354,0.781642,0.0754822,-20.1987,0.0601658,
2,0,0,1,0,50435,0.0590246,0.0586954,-6.83687,26,0.00489338,10,-0.000401293,-2.16514,0.813047,0.0725665,-19.3467,0.0586954,
2,0,0,1,0,50435.1,0.0575353,0.057164,-6.80688,26,0.00476636,10,-0.000389108,-2.16705,0.847557,0.0696119,-18.482,0.057164,
2,0,0,1,0,50435.1,0.0560317,0.0556711,-6.77281,26,0.00463857,10,-0.00037705,-2.16923,0.823514,0.0716442,-18.9406,0.0556711,
2,0,0,1,0,50435.1,0.0545282,0.0542344,-6.74984,26,0.00451132,10,-0.000366074,-2.17071,0.973779,0.0605887,-15.9503,0.0542344,
2,0,0,1,0,50435.1,0.0530407,0.0526917,-6.71728,26,0.00438594,10,-0.000353945,-2.17281,0.871415,0.0677059,-17.7468,0.0526917,
2,0,0,1,0,50435.1,0.0515372,0.0511624,-6.68827,26,0.00425969,10,-0.000342188,-2.17469,0.74397,0.0793043,-20.6889,0.05116237,
2,0,0,1,0,50435.2,0.0500336,0.0496838,-6.6461,26,0.00413406,10,-0.000330204,-2.17743,0.7216,0.0817627,-21.2337,0.0496838,
2,0,0,1,0,50435.2,0.0485444,0.0481496,-6.61656,26,0.00401046,10,-0.000318585,-2.17937,0.736783,0.0800779,-20.6921,0.0481496,
2,0,0,1,0,50435.2,0.0470408,0.0467058,-6.58715,26,0.00388609,10,-0.000307658,-2.1813,0.699234,0.084378,-21.6945,0.0467058,
2,0,0,1,0,50435.2,0.0455444,0.0451798,-6.55462,26,0.00376295,10,-0.000296137,-2.18345,0.607714,0.0970851,-24.8282,0.0451798,
2,0,0,1,0,50435.2,0.044048,0.0436723,-6.51565,26,0.00364049,10,-0.000284553,-2.18604,0.556715,0.105979,-26.9692,0.0436723,
2,0,0,1,0,50435.2,0.0425445,0.0422053,-6.48598,26,0.00351804,10,-0.000273743,-2.18802,0.595066,0.0991486,-25.1028,0.0422053,
2,0,0,1,0,50435.3,0.0410552,0.0407165,-6.45175,26,0.00339754,10,-0.000262692,-2.19032,0.622607,0.0947628,-23.865,0.0407165,
2,0,0,1,0,50435.3,0.0395517,0.0392014,-6.42248,26,0.00327636,10,-0.00025177,-2.1923,0.582425,0.101301,-25.3571,0.0392014,
2,0,0,1,0,50435.3,0.0380481,0.0376775,-6.38501,26,0.00315586,10,-0.000240572,-2.19484,0.518586,0.113771,-28.3131,0.0376775,
2,0,0,1,0,50435.3,0.0365606,0.0362248,-6.34365,26,0.00303741,10,-0.000229798,-2.19766,0.521763,0.113078,-27.9694,0.0362248,
2,0,0,1,0,50435.3,0.0350571,0.0347122,-6.30223,26,0.00291843,10,-0.000218764,-2.20051,0.579276,0.101851,-25.0339,0.0347122,
2,0,0,1,0,50435.4,0.0335535,0.0331739,-6.26489,26,0.00280021,10,-0.000207831,-2.20309,0.536963,0.109877,-26.8422,0.0331739,
2,0,0,1,0,50435.4,0.0320643,0.0317346,-6.22005,26,0.00268398,10,-0.00019739,-2.20621,0.50072,0.11783,-28.5737,0.0317346,
2,0,0,1,0,50435.4,0.0305607,0.0302604,-6.16915,26,0.00256736,10,-0.000186681,-2.20977,0.477039,0.12368,-29.7732,0.0302604,
2,0,0,1,0,50435.4,0.0290643,0.0286956,-6.1278,26,0.0024522,10,-0.000175841,-2.2127,0.53946,0.109369,-26.147,0.0286956,
2,0,0,1,0,50435.4,0.0275679,0.0271819,-6.08101,26,0.00233788,10,-0.000165293,-2.21602,0.476416,0.123841,-29.3978,0.0271819,
2,0,0,1,0,50435.5,0.0260644,0.0257265,-6.03049,26,0.00222374,10,-0.000155143,-2.21965,0.452588,0.130361,-30.707,0.0257265,
2,0,0,1,0,50435.5,0.0245751,0.0242339,-5.98343,26,0.00211172,10,-0.000145002,-2.22305,0.405345,0.145555,-34.0186,0.0242339,
2,0,0,1,0,50435.5,0.0230716,0.022739,-5.93674,26,0.00199943,10,-0.000134995,-2.22645,0.41826,0.141061,-32.7149,0.022739,
2,0,0,1,0,50435.5,0.021568,0.0212256,-5.89229,26,0.001888,10,-0.000125068,-2.22972,0.417588,0.141288,-32.4792,0.0212256,
2,0,0,1,0,50435.5,0.0200805,0.0197596,-5.84339,26,0.0017786,10,-0.000115463,-2.23334,0.402988,0.146406,-33.4033,0.0197596,
2,0,0,1,0,50435.5,0.018577,0.0182143,-5.79609,26,0.00166893,10,-0.000105572,-2.23686,0.397802,0.148315,-33.5765,0.0182143,
2,0,0,1,0,50435.6,0.0170735,0.0167357,-5.75303,26,0.00156017,10,-9.62807e-05,-2.2401,0.430094,0.137179,-30.8273,0.0167357,
2,0,0,1,0,50435.6,0.0155842,0.0152683,-5.70943,26,0.00145338,10,-8.71735e-05,-2.24341,0.432446,0.136433,-30.4075,0.0152683,
2,0,0,1,0,50435.6,0.0140806,0.0137246,-5.6753,26,0.0013462,10,-7.78915e-05,-2.24601,0.450819,0.130873,-28.9541,0.0137246,
2,0,0,1,0,50435.6,0.0125842,0.012217,-5.63246,26,0.00124038,10,-6.88119e-05,-2.2493,0.458187,0.128768,-28.2762,0.012217,
2,0,0,1,0,50435.6,0.0110878,0.0107487,-5.58641,26,0.00113541,10,-6.00468e-05,-2.25287,0.483794,0.121953,-26.5921,0.01074873,
2,0,0,1,0,50435.7,0.00958429,0.00919925,-5.54475,26,0.0010306,10,-5.10075e-05,-2.25612,0.593088,0.0994794,-21.5403,0.00919925,
2,0,0,1,0,50435.7,0.0080968,0.00775747,-5.5131,26,0.000927584,10,-4.27678e-05,-2.2586,0.585536,0.100762,-21.6884,0.00775747,
2,0,0,1,0,50435.7,0.00659326,0.00625537,-5.47675,26,0.00082411,10,-3.42591e-05,-2.26148,0.590071,0.0999879,-21.38,0.00625537,
2,0,0,1,0,50435.7,0.00508972,0.00471645,-5.43441,26,0.000721288,10,-2.56311e-05,-2.26485,0.644708,0.0915143,-19.4448,0.004716455,
2,0,0,1,0,50435.7,0.00360044,0.00323071,-5.41171,26,0.000620178,10,-1.74837e-05,-2.26667,1.32584,0.0445,-9.42837,0.00323071,
2,0,0,1,0,50435.8,0.0020969,0.00170577,-5.41773,26,0.000518409,10,-9.24141e-06,-2.26618,1.04955,0.0562143,-11.8304,0.00170577,
2,0,0,1,0,50435.8,0.000593362,0.000187307,-5.37875,26,0.000416683,10,-1.00748e-06,-2.26932, , , ,0.000187307,
2,0,0,1,0,50435.8,0.000199195,-0.000178351,-5.3693,26,0.000390297,10,9.57621e-07,-2.27008, , , ,-0.000178351,