File: Figure_codes/Fig_3-5/rawdata_trumpetplot_data/after 10th/20221101_1-115_003_TrumpetPlot_ParaChange_from10_every3_09_CV_C01_15.csv
mode,ox/red,error,control changes,counter inc.,time/s,control/V,Ewe/V,<I>/mA,cycle number,(Q-Qo)/C,I Range,P/W,log(|I|),Tafel slope mV/dec,alpha_eff,dI/d(E-IR),E-IR/V,
2,0,0,0,0,30734.5,2.44065e-05,-0.000325324,-5.33584,16,0.0000000E+000,10,1.73588e-06,-2.2728, , , ,-0.000325324,
2,0,0,1,0,30734.5,0.00179726,0.00146017,-2.98312,16,-7.04655e-05,10,-4.35587e-06,-2.52533, , , ,0.00146017,
2,0,0,1,0,30734.5,0.00379485,0.00354401,-1.34557,16,-0.000112213,10,-4.76872e-06,-2.87109,-0.00357277,-16.5138,689.034,0.00354401,
2,0,0,1,0,30734.5,0.00579244,0.00546104,-0.226386,16,-0.000127109,10,-1.2363e-06,-3.64515,-0.0113876,-5.18107,499.104,0.00546104,
2,1,0,1,0,30734.6,0.00779002,0.00746106,0.609443,16,-0.000122694,10,4.54709e-06,-3.21507,0.00539309,10.9399,369.107,0.00746106,
2,1,0,1,0,30734.6,0.00978761,0.00946777,1.25253,16,-0.00010367,10,1.18586e-05,-2.90221,0.00861717,6.8468,289.594,0.00946777,
2,1,0,1,0,30734.6,0.0117852,0.0114234,1.7569,16,-7.32185e-05,10,2.00697e-05,-2.75525,0.0165436,3.56633,232.068,0.0114234,
2,1,0,1,0,30734.6,0.0137828,0.0133998,2.16502,16,-3.38057e-05,10,2.90107e-05,-2.66454,0.0259336,2.27504,187.308,0.0133998,
2,1,0,1,0,30734.6,0.0157804,0.0154261,2.50664,16,1.31043e-05,10,3.86675e-05,-2.60091,0.0365695,1.61337,155.194,0.0154261,
2,1,0,1,0,30734.7,0.017778,0.0174333,2.791,16,6.60507e-05,10,4.86565e-05,-2.55424,0.0494438,1.19327,128.436,0.0174333,
2,1,0,1,0,30734.7,0.0197755,0.0194657,3.02548,16,0.000124402,10,5.88932e-05,-2.51921,0.0615184,0.959063,112.703,0.0194657,
2,1,0,1,0,30734.7,0.0217731,0.0214392,3.24248,16,0.000187227,10,6.95161e-05,-2.48912,0.0734845,0.80289,100.973,0.0214392,
2,1,0,1,0,30734.7,0.0237707,0.02345,3.42778,16,0.000254072,10,8.03815e-05,-2.46499,0.0885897,0.665991,88.8733,0.02345,
2,1,0,1,0,30734.7,0.0257683,0.0254898,3.60247,16,0.000324159,10,9.18264e-05,-2.4434,0.0996358,0.592157,82.9699,0.0254898,
2,1,0,1,0,30734.8,0.0277659,0.0274263,3.7577,16,0.000397889,10,0.00010306,-2.42508,0.114255,0.516391,75.5818,0.0274263,
2,1,0,1,0,30734.8,0.0297635,0.0294565,3.90228,16,0.000474609,10,0.000114948,-2.40868,0.128597,0.458798,69.7575,0.02945653,
2,1,0,1,0,30734.8,0.0317611,0.031436,4.0374,16,0.000554135,10,0.00012692,-2.3939,0.136502,0.432229,68.0847,0.03143597,
2,1,0,1,0,30734.8,0.0337586,0.0334347,4.17314,16,0.000635913,10,0.000139528,-2.37954,0.148486,0.397344,64.6066,0.0334347,
2,1,0,1,0,30734.8,0.0357562,0.0354671,4.29784,16,0.000720762,10,0.000152432,-2.36675,0.162067,0.364046,60.9982,0.0354671,
2,1,0,1,0,30734.9,0.0377538,0.037414,4.41586,16,0.00080806,10,0.000165215,-2.35498,0.173081,0.340881,58.7182,0.037414,
2,1,0,1,0,30734.9,0.0397514,0.0394497,4.53169,16,0.000897674,10,0.000178774,-2.34374,0.168406,0.350344,62.0725,0.0394497,
2,1,0,1,0,30734.9,0.041749,0.0414455,4.66611,16,0.000989272,10,0.000193389,-2.33104,0.17791,0.331628,60.1845,0.0414455,
2,1,0,1,0,30734.9,0.0437466,0.0434215,4.77073,16,0.00108373,10,0.000207152,-2.32142,0.202394,0.29151,54.3005,0.0434215,
2,1,0,1,0,30734.9,0.0457442,0.0454101,4.88139,16,0.00118031,10,0.000221664,-2.31146,0.205339,0.287329,54.7022,0.0454101,
2,1,0,1,0,30735,0.0477418,0.0473808,4.98731,16,0.00127908,10,0.000236303,-2.30213,0.205962,0.286461,55.8188,0.04738082,
2,1,0,1,0,30735,0.0497484,0.0494353,5.10607,16,0.00138009,10,0.00025242,-2.29191,0.216474,0.27255,54.2003,0.0494353,
2,1,0,1,0,30735,0.0517369,0.0514038,5.20536,16,0.00148277,10,0.000267575,-2.28355,0.230554,0.255905,52.0153,0.0514038,
2,1,0,1,0,30735,0.0537345,0.0533885,5.31169,16,0.00158805,10,0.000283583,-2.27477,0.238236,0.247654,51.3111,0.0533885,
2,1,0,1,0,30735,0.0557321,0.0554652,5.41376,16,0.00169547,10,0.000300275,-2.2665,0.249215,0.236743,49.9937,0.0554652,
2,1,0,1,0,30735.1,0.0577206,0.0573839,5.51144,16,0.00180426,10,0.000316268,-2.25873,0.244429,0.241379,51.9595,0.0573839,
2,1,0,1,0,30735.1,0.0597273,0.0594141,5.61894,16,0.00191574,10,0.000333844,-2.25035,0.250309,0.235709,51.6453,0.0594141,
2,1,0,1,0,30735.1,0.0617249,0.0613892,5.7183,16,0.00202921,10,0.000351041,-2.24273,0.284327,0.207507,46.2521,0.0613892,
2,1,0,1,0,30735.1,0.0637224,0.0634293,5.80465,16,0.00214454,10,0.000368185,-2.23622,0.289766,0.203613,46.1693,0.0634293,
2,1,0,1,0,30735.1,0.06572,0.0653875,5.9029,16,0.00226176,10,0.000385976,-2.22893,0.275318,0.214298,49.3648,0.0653875,
2,1,0,1,0,30735.2,0.0677176,0.067416,6.00145,16,0.00238044,10,0.000404594,-2.22174,0.300747,0.196178,45.8967,0.067416,
2,1,0,1,0,30735.2,0.0697152,0.0694085,6.08745,16,0.00250151,10,0.000422521,-2.21556,0.322207,0.183112,43.5075,0.0694085,
2,1,0,1,0,30735.2,0.0717128,0.0714193,6.17563,16,0.00262428,10,0.000441059,-2.20932,0.319469,0.184682,44.5182,0.0714193,
2,1,0,1,0,30735.2,0.0737104,0.0734339,6.26665,16,0.00274883,10,0.000460184,-2.20296,0.323524,0.182367,44.5741,0.0734339,
2,1,0,1,0,30735.2,0.075708,0.0753516,6.3509,16,0.00287454,10,0.00047855,-2.19716,0.352577,0.16734,41.4593,0.0753516,
2,1,0,1,0,30735.3,0.0777056,0.0773917,6.43074,16,0.00300247,10,0.000497686,-2.19174,0.387104,0.152414,38.2329,0.0773917,
2,1,0,1,0,30735.3,0.0797031,0.0793798,6.50492,16,0.00313197,10,0.000516359,-2.18676,0.387495,0.15226,38.6682,0.0793798,
2,1,0,1,0,30735.3,0.0817007,0.0813706,6.58459,16,0.00326302,10,0.000535792,-2.18147,0.390965,0.150909,38.7615,0.0813706,
2,1,0,1,0,30735.3,0.0836983,0.0833452,6.65862,16,0.0033949,10,0.000554964,-2.17662,0.427332,0.138066,35.866,0.0833452,
2,1,0,1,0,30735.3,0.0856959,0.0853842,6.72855,16,0.00352895,10,0.000574511,-2.17208,0.444166,0.132833,34.8811,0.0853842,
2,1,0,1,0,30735.4,0.0876935,0.0873676,6.79892,16,0.00366438,10,0.000594006,-2.16756,0.453294,0.130158,34.5242,0.0873676,
2,1,0,1,0,30735.4,0.0896911,0.0893357,6.86497,16,0.00380113,10,0.000613287,-2.16336,0.444487,0.132737,35.5889,0.0893357,
2,1,0,1,0,30735.4,0.0916887,0.0913767,6.9416,16,0.00393859,10,0.0006343,-2.15854,0.44279,0.133246,36.0753,0.0913767,
2,1,0,1,0,30735.4,0.0936862,0.0933609,7.01018,16,0.00407828,10,0.000654476,-2.15427,0.465829,0.126656,34.6526,0.0933609,
2,1,0,1,0,30735.4,0.0956838,0.0953642,7.07978,16,0.00421935,10,0.000675157,-2.14998,0.442616,0.133298,36.854,0.0953642,
2,1,0,1,0,30735.5,0.0976814,0.0973965,7.15891,16,0.00436188,10,0.000697253,-2.14515,0.371113,0.158981,44.4776,0.0973965,
2,1,0,1,0,30735.5,0.099679,0.0993727,7.25807,16,0.00450536,10,0.000721254,-2.13918,0.376045,0.156896,44.3697,0.0993727,
2,1,0,1,0,30735.5,0.101677,0.101347,7.33421,16,0.00465145,10,0.000743303,-2.13465,0.354984,0.166205,47.6913,0.101347,
2,1,0,1,0,30735.5,0.103674,0.103348,7.44765,16,0.00479944,10,0.000769698,-2.12798,0.30016,0.196562,57.1393,0.103348,
2,1,0,1,0,30735.5,0.105672,0.10537,7.56407,16,0.00494969,10,0.000797028,-2.12124,0.289981,0.203462,60.086,0.10537,
2,1,0,1,0,30735.6,0.107667,0.107344,7.68774,16,0.00510158,10,0.00082523,-2.1142,0.278455,0.211884,63.5862,0.107344,
2,1,0,1,0,30735.6,0.109667,0.109339,7.81643,16,0.00525676,10,0.000854642,-2.10699,0.275795,0.213927,65.27,0.109339,
2,1,0,1,0,30735.6,0.111665,0.111351,7.94931,16,0.0054146,10,0.000885164,-2.09967,0.264316,0.223218,69.2899,0.111351,
2,1,0,1,0,30735.6,0.113662,0.113328,8.09285,16,0.00557516,10,0.000917149,-2.0919,0.253375,0.232856,73.5767,0.113328,
2,1,0,1,0,30735.6,0.11566,0.115372,8.24518,16,0.00573865,10,0.000951267,-2.0838,0.241436,0.244371,78.6802,0.115372,
2,1,0,1,0,30735.7,0.117657,0.117348,8.40908,16,0.00590455,10,0.000986785,-2.07525,0.251788,0.234324,76.7914,0.117348,
2,1,0,1,0,30735.7,0.119655,0.119354,8.55095,16,0.00607433,10,0.00102059,-2.06799,0.27484,0.21467,71.6379,0.119354,
2,1,0,1,0,30735.7,0.121652,0.121326,8.69412,16,0.00624697,10,0.00105483,-2.06077,0.280282,0.210502,71.403,0.121326,
2,1,0,1,0,30735.7,0.12365,0.123313,8.83363,16,0.00642239,10,0.0010893,-2.05386,0.293707,0.200881,69.2407,0.123313,
2,1,0,1,0,30735.7,0.125648,0.12533,8.97135,16,0.00659978,10,0.00112438,-2.04714,0.328712,0.179488,62.7578,0.12533,
2,1,0,1,0,30735.8,0.127645,0.127333,9.0859,16,0.00678056,10,0.00115693,-2.04163,0.354443,0.166459,59.0358,0.127333,
2,1,0,1,0,30735.8,0.129643,0.129283,9.20471,16,0.00696367,10,0.00119001,-2.03599,0.377853,0.156145,56.0535,0.129283,
2,1,0,1,0,30735.8,0.13164,0.131362,9.31175,16,0.00714901,10,0.00122321,-2.03097,0.427499,0.138012,50.1209,0.131362,
2,1,0,1,0,30735.8,0.133638,0.133319,9.40697,16,0.00733554,10,0.00125412,-2.02655,0.466848,0.126379,46.3771,0.133319,
2,1,0,1,0,30735.8,0.135636,0.135308,9.49474,16,0.00752481,10,0.00128471,-2.02252,0.494949,0.119204,44.1715,0.135308,
2,1,0,1,0,30735.9,0.137633,0.137308,9.5832,16,0.00771578,10,0.00131585,-2.01849,0.571403,0.103255,38.575,0.137308,
2,1,0,1,0,30735.9,0.139631,0.139359,9.65101,16,0.00790834,10,0.00134496,-2.01543,0.640497,0.092116,34.7,0.139359,
2,1,0,1,0,30735.9,0.141628,0.1413,9.72171,16,0.00810129,10,0.00137368,-2.01226,0.707022,0.0834486,31.6353,0.1413,
2,1,0,1,0,30735.9,0.143626,0.143337,9.77685,16,0.00829647,10,0.00140138,-2.0098,1.05004,0.0561882,21.4125,0.143337,
2,1,0,1,0,30735.9,0.145624,0.14532,9.8078,16,0.00849249,10,0.00142527,-2.00843,3.13702,0.0188077,7.18664,0.14532,
2,1,0,1,0,30736,0.147621,0.147276,9.80516,16,0.00868883,10,0.00144407,-2.00855,-5.53562,-0.0106583,-4.07624,0.147276,
2,1,0,1,0,30736,0.149619,0.149319,9.7915,16,0.00888402,10,0.00146206,-2.00915,-1.14254,-0.0516394,-19.68,0.149319,
2,1,0,1,0,30736,0.151616,0.151334,9.72531,16,0.00907936,10,0.00147177,-2.0121,-0.464974,-0.126889,-48.0135,0.151334,
2,1,0,1,0,30736,0.153614,0.153299,9.6004,16,0.00927279,10,0.00147173,-2.01771,-0.306913,-0.192237,-71.8849,0.153299,
2,1,0,1,0,30736,0.155611,0.155313,9.43928,16,0.00946336,10,0.00146604,-2.02506,-0.23596,-0.250043,-91.8702,0.155313,
2,1,0,1,0,30736.1,0.157609,0.15732,9.231,16,0.0096493,10,0.00145222,-2.03475,-0.173601,-0.33986,-121.964,0.15732,
2,1,0,1,0,30736.1,0.159607,0.159278,8.95565,16,0.00983137,10,0.00142644,-2.0479,-0.140808,-0.419009,-146.122,0.159278,
2,1,0,1,0,30736.1,0.161604,0.161318,8.64681,16,0.0100075,10,0.00139488,-2.06314,-0.121401,-0.485994,-163.588,0.1613178,
2,1,0,1,0,30736.1,0.163602,0.163271,8.30249,16,0.0101771,10,0.00135555,-2.08079,-0.107002,-0.55139,-178.34,0.163271,
2,1,0,1,0,30736.1,0.165606,0.16529,7.93839,16,0.0103396,10,0.00131214,-2.10027,-0.100196,-0.588849,-182.279,0.16529,
2,1,0,1,0,30736.2,0.167597,0.167277,7.57222,16,0.0104941,10,0.00126666,-2.12078,-0.0961851,-0.613401,-181.246,0.167277,
2,1,0,1,0,30736.2,0.169595,0.169279,7.21539,16,0.0106421,10,0.00122141,-2.14174,-0.0961517,-0.613614,-172.884,0.169279,
2,1,0,1,0,30736.2,0.171592,0.171295,6.87752,16,0.0107831,10,0.00117809,-2.16257,-0.0964634,-0.611631,-164.334,0.171295,
2,1,0,1,0,30736.2,0.173581,0.173243,6.56392,16,0.0109169,10,0.00113716,-2.18284,-0.102587,-0.575121,-147.675,0.173243,
2,1,0,1,0,30736.2,0.175587,0.175274,6.28997,16,0.0110455,10,0.00110247,-2.20135,-0.109525,-0.538687,-132.306,0.175274,
2,1,0,1,0,30736.3,0.177585,0.177277,6.03026,16,0.0111688,10,0.00106903,-2.21966,-0.113296,-0.520758,-122.789,0.177277,
2,1,0,1,0,30736.3,0.179582,0.179264,5.80003,16,0.0112871,10,0.00103974,-2.23657,-0.12339,-0.47816,-108.482,0.1792642,
2,1,0,1,0,30736.3,0.18158,0.181229,5.60155,16,0.0114012,10,0.00101516,-2.25169,-0.137454,-0.429234,-93.9778,0.181229,
2,1,0,1,0,30736.3,0.183578,0.183262,5.42429,16,0.0115111,10,0.000994068,-2.26566,-0.152185,-0.387686,-82.1963,0.183262,
2,1,0,1,0,30736.3,0.185575,0.185298,5.26712,16,0.0116181,10,0.000975984,-2.27843,-0.162554,-0.362957,-74.7042,0.185298,
2,1,0,1,0,30736.4,0.187573,0.187253,5.12619,16,0.0117221,10,0.000959893,-2.29021,-0.172663,-0.341706,-68.4378,0.187253,
2,1,0,1,0,30736.4,0.18957,0.189215,4.99904,16,0.0118234,10,0.000945892,-2.30111,-0.193887,-0.304302,-59.4578,0.189215,
2,1,0,1,0,30736.4,0.191568,0.191245,4.88884,16,0.011922,10,0.000934965,-2.31079,-0.217124,-0.271734,-51.9008,0.191245,
2,1,0,1,0,30736.4,0.193566,0.193233,4.79051,16,0.0120189,10,0.000925682,-2.31962,-0.236931,-0.249017,-46.6021,0.193233,
2,1,0,1,0,30736.4,0.195563,0.195235,4.70288,16,0.0121141,10,0.000918167,-2.32764,-0.252564,-0.233604,-42.8887,0.195235,
2,1,0,1,0,30736.5,0.197561,0.197226,4.61923,16,0.0122075,10,0.000911032,-2.33543,-0.292545,-0.201678,-36.44,0.197226,
2,1,0,1,0,30736.5,0.199558,0.199228,4.55736,16,0.0122989,10,0.000907956,-2.34129,-0.326279,-0.180827,-32.1371,0.199228,
2,1,0,1,0,30736.5,0.201556,0.201274,4.48913,16,0.0123895,10,0.000903547,-2.34784,-0.32046,-0.18411,-32.2783,0.2012745,
2,1,0,1,0,30736.5,0.203553,0.20324,4.42786,16,0.0124788,10,0.00089992,-2.35381,-0.364214,-0.161992,-28.03,0.20324,
2,1,0,1,0,30736.5,0.205551,0.205214,4.37869,16,0.012567,10,0.00089857,-2.35866,-0.467119,-0.126306,-21.6149,0.205214,
2,1,0,1,0,30736.6,0.207549,0.207197,4.34233,16,0.0126539,10,0.00089972,-2.36228,-0.479796,-0.122969,-20.8107,0.207197,
2,1,0,1,0,30736.6,0.209546,0.209266,4.29436,16,0.0127404,10,0.000898667,-2.3671,-0.435385,-0.135512,-22.7215,0.209266,
2,1,0,1,0,30736.6,0.211544,0.211234,4.25061,16,0.0128259,10,0.000897874,-2.37155,-0.472813,-0.124785,-20.7115,0.211234,
2,1,0,1,0,30736.6,0.213541,0.213257,4.21172,16,0.0129107,10,0.000898178,-2.37554,-0.563109,-0.104775,-17.2401,0.213257,
2,1,0,1,0,30736.6,0.215539,0.215219,4.18191,16,0.0129944,10,0.000900026,-2.37863,-0.584022,-0.101024,-16.4756,0.215219,
2,1,0,1,0,30736.7,0.217537,0.217239,4.1461,16,0.0130778,10,0.000900697,-2.38236,-0.595537,-0.0990702,-16.0433,0.217239,
2,1,0,1,0,30736.7,0.219534,0.219258,4.1171,16,0.0131606,10,0.00090271,-2.38541,-0.661212,-0.0892301,-14.3384,0.219258,
2,1,0,1,0,30736.7,0.221532,0.221231,4.08888,16,0.0132429,10,0.000904585,-2.3884,-0.784815,-0.075177,-12.0092,0.2212307,
2,1,0,1,0,30736.7,0.223525,0.223227,4.06945,16,0.0133242,10,0.000908409,-2.39046,-0.920198,-0.0641166,-10.1805,0.223227,
2,1,0,1,0,30736.7,0.225527,0.225229,4.04817,16,0.0134056,10,0.000911765,-2.39274,-0.832711,-0.0708529,-11.1909,0.225229,
2,1,0,1,0,30736.7,0.227525,0.227217,4.0248,16,0.0134865,10,0.000914501,-2.39526,-0.705513,-0.0836271,-13.1268,0.227217,
2,1,0,1,0,30736.8,0.229522,0.229198,3.99607,16,0.0135669,10,0.000915892,-2.39837,-0.861847,-0.0684576,-10.6956,0.229198,
2,1,0,1,0,30736.8,0.23152,0.231225,3.98193,16,0.0136469,10,0.00092072,-2.39991,-1.39996,-0.0421439,-6.55104,0.231225,
2,1,0,1,0,30736.8,0.233517,0.233179,3.96999,16,0.0137262,10,0.000925719,-2.40121,-1.1212,-0.0526222,-8.14396,0.233179,
2,1,0,1,0,30736.8,0.235515,0.235243,3.9492,16,0.0138056,10,0.000929022,-2.40349,-0.947832,-0.0622473,-9.59719,0.235243,
2,1,0,1,0,30736.8,0.237512,0.237218,3.93122,16,0.0138845,10,0.000932558,-2.40547,-1.20078,-0.0491346,-7.54418,0.237218,
2,1,0,1,0,30736.9,0.23951,0.239203,3.91932,16,0.0139632,10,0.000937516,-2.40679,-1.67933,-0.0351331,-5.37562,0.239203,
2,1,0,1,0,30736.9,0.241508,0.24118,3.90993,16,0.0140413,10,0.000942996,-2.40783,-1.16469,-0.0506574,-7.71796,0.24118,
2,1,0,1,0,30736.9,0.243505,0.243202,3.88847,16,0.0141194,10,0.000945681,-2.41022,-1.25995,-0.0468273,-7.11932,0.243202,
2,1,0,1,0,30736.9,0.245503,0.245196,3.88133,16,0.0141972,10,0.000951688,-2.41102,-1.52581,-0.0386679,-5.85049,0.245196,
2,1,0,1,0,30736.9,0.2475,0.247171,3.86525,16,0.0142749,10,0.000955376,-2.41282,-1.61475,-0.0365383,-5.51892,0.247171,
2,1,0,1,0,30737,0.249498,0.249197,3.85925,16,0.0143519,10,0.000961714,-2.4135,-1.85383,-0.0318259,-4.78887,0.249197,
2,1,0,1,0,30737,0.251496,0.251211,3.8459,16,0.0144291,10,0.000966132,-2.415,-1.37692,-0.0428492,-6.43232,0.251211,
2,1,0,1,0,30737,0.253493,0.25317,3.8337,16,0.014506,10,0.000970578,-2.41638,-1.23109,-0.0479249,-7.16651,0.25317,
2,1,0,1,0,30737,0.255491,0.25519,3.81738,16,0.0145826,10,0.000974158,-2.41823,-1.76475,-0.0334326,-4.98887,0.25519,
2,1,0,1,0,30737,0.257488,0.257228,3.81345,16,0.0146588,10,0.000980927,-2.41868,-2.61185,-0.0225894,-3.35942,0.257228,
2,1,0,1,0,30737.1,0.259486,0.25921,3.80388,16,0.0147351,10,0.000986003,-2.41977,-1.07699,-0.0547821,-8.11893,0.25921,
2,1,0,1,0,30737.1,0.261484,0.261155,3.78157,16,0.0148112,10,0.000987576,-2.42233,-1.392,-0.042385,-6.27167,0.261155,
2,1,0,1,0,30737.1,0.263481,0.263163,3.77908,16,0.0148871,10,0.000994515,-2.42261,-13.7228,-0.00429943,-0.634307,0.263163,
2,1,0,1,0,30737.1,0.265479,0.265181,3.77902,16,0.0149624,10,0.00100212,-2.42262,-1.73662,-0.033974,-4.99742,0.2651813,
2,1,0,1,0,30737.1,0.267476,0.267165,3.75909,16,0.0150379,10,0.0010043,-2.42492,-1.32901,-0.0443938,-6.52505,0.267165,
2,1,0,1,0,30737.2,0.269474,0.26912,3.75332,16,0.0151132,10,0.00101009,-2.42558,-2.3991,-0.0245925,-3.60096,0.2691195,
2,1,0,1,0,30737.2,0.271471,0.271152,3.74473,16,0.0151883,10,0.00101539,-2.42658,-3.1394,-0.0187934,-2.74882,0.271152,
2,1,0,1,0,30737.2,0.273469,0.273133,3.74229,16,0.015263,10,0.00102214,-2.42686,-2.2041,-0.0267683,-3.90376,0.273133,
2,1,0,1,0,30737.2,0.275467,0.275219,3.72885,16,0.0153378,10,0.00102625,-2.42842,-1.42791,-0.0413191,-6.015,0.275219,
2,1,0,1,0,30737.2,0.277464,0.27718,3.71795,16,0.0154123,10,0.00103054,-2.4297,-1.2904,-0.0457223,-6.63053,0.27718,
2,1,0,1,0,30737.3,0.279462,0.279141,3.70285,16,0.0154867,10,0.00103362,-2.43146,-1.65847,-0.0355749,-5.14761,0.279141,
2,1,0,1,0,30737.3,0.281464,0.281178,3.69736,16,0.0155609,10,0.00103962,-2.43211,-2.32607,-0.0253646,-3.65816,0.281178,
2,1,0,1,0,30737.3,0.283457,0.283169,3.68811,16,0.0156346,10,0.00104436,-2.4332,-2.30999,-0.0255413,-3.67822,0.283169,
2,1,0,1,0,30737.3,0.285455,0.285153,3.68274,16,0.0157085,10,0.00105015,-2.43383,-1.34008,-0.0440273,-6.31558,0.285153,
2,1,0,1,0,30737.3,0.287452,0.287128,3.66311,16,0.0157821,10,0.00105178,-2.43615,-1.43052,-0.0412438,-5.9089,0.287128,
2,1,0,1,0,30737.4,0.28945,0.289123,3.65928,16,0.0158555,10,0.00105798,-2.4366,-3.10421,-0.0190064,-2.7131,0.289123,
2,1,0,1,0,30737.4,0.291447,0.291158,3.65217,16,0.0159285,10,0.00106336,-2.43745,-1.48065,-0.0398474,-5.67305,0.291158,
2,1,0,1,0,30737.4,0.293445,0.293103,3.63671,16,0.0160016,10,0.00106593,-2.43929,-1.49241,-0.0395333,-5.61766,0.293103,
2,1,0,1,0,30737.4,0.295442,0.29511,3.62997,16,0.0160745,10,0.00107124,-2.4401,-2.36303,-0.0249679,-3.53677,0.29511,
2,1,0,1,0,30737.4,0.29744,0.29711,3.62253,16,0.0161472,10,0.00107629,-2.44099,-2.40905,-0.024491,-3.46291,0.29711,
2,1,0,1,0,30737.5,0.299438,0.299123,3.61608,16,0.0162194,10,0.00108165,-2.44176,-0.0349705,-1.68714,-221.221,0.299123,
2,1,0,1,0,30737.5,0.299737,0.299427,3.11007,16,0.016249,10,0.000931239,-2.50723,0.00361061,16.3408,1402.08,0.299427,
2,1,0,1,0,30737.5,0.29774,0.297407,1.21101,16,0.0162892,10,0.000360164,-2.91685,0.003721,15.856,711.038,0.297407,
2,1,0,1,0,30737.5,0.295742,0.295419,0.260448,16,0.0163029,10,7.69412e-05,-3.58428,0.00696497,8.47097,384.346,0.295419,
2,0,0,1,0,30737.5,0.293745,0.293415,-0.323526,16,0.0163017,10,-9.49273e-05,-3.49009,-0.00930697,-6.33934,240.062,0.293415,
2,0,0,1,0,30737.6,0.291747,0.291406,-0.702905,16,0.0162911,10,-0.000204831,-3.1531,-0.00834327,-7.07157,163.086,0.291406,
2,0,0,1,0,30737.6,0.289754,0.289414,-0.976056,16,0.0162742,10,-0.000282484,-3.01053,-0.01769,-3.33522,119.771,0.289414,
2,0,0,1,0,30737.6,0.287752,0.287438,-1.17815,16,0.0162524,10,-0.000338644,-2.9288,-0.0291136,-2.02654,90.5547,0.287438,
2,0,0,1,0,30737.6,0.285754,0.285479,-1.33231,16,0.0162272,10,-0.000380348,-2.87539,-0.0427429,-1.38035,70.7517,0.285479,
2,0,0,1,0,30737.6,0.283757,0.283475,-1.45855,16,0.0161993,10,-0.000413463,-2.83608,-0.0570038,-1.03502,58.4259,0.283475,
2,0,0,1,0,30737.7,0.281759,0.281465,-1.56686,16,0.0161689,10,-0.000441016,-2.80497,-0.0741459,-0.795728,48.2656,0.281465,
2,0,0,1,0,30737.7,0.279761,0.279426,-1.65396,16,0.0161367,10,-0.00046216,-2.78148,-0.0885266,-0.666466,42.9443,0.279426,
2,0,0,1,0,30737.7,0.277764,0.277474,-1.73823,16,0.0161026,10,-0.000482315,-2.75989,-0.102915,-0.57329,38.7042,0.2774744,
2,0,0,1,0,30737.7,0.275766,0.275443,-1.80812,16,0.0160671,10,-0.000498035,-2.74277,-0.125536,-0.469985,33.0818,0.2754432,
2,0,0,1,0,30737.7,0.273769,0.273473,-1.87059,16,0.0160301,10,-0.000511557,-2.72802,-0.13812,-0.427166,31.1655,0.2734735,
2,0,0,1,0,30737.8,0.271771,0.271463,-1.93216,16,0.0159922,10,-0.00052451,-2.71396,-0.149419,-0.394863,29.7448,0.271463,
2,0,0,1,0,30737.8,0.269774,0.269424,-1.99105,16,0.0159528,10,-0.000536437,-2.70092,-0.176889,-0.333542,25.8202,0.2694236,
2,0,0,1,0,30737.8,0.267776,0.267447,-2.03587,16,0.0159124,10,-0.000544486,-2.69125,-0.200319,-0.294531,23.4152,0.267447,
2,0,0,1,0,30737.8,0.265778,0.265464,-2.08376,16,0.0158711,10,-0.000553165,-2.68115,-0.188004,-0.313823,25.5544,0.265464,
2,0,0,1,0,30737.8,0.263781,0.263452,-2.13795,16,0.015829,10,-0.000563247,-2.67,-0.202155,-0.291856,24.2828,0.263452,
2,0,0,1,0,30737.9,0.261783,0.261469,-2.18077,16,0.0157858,10,-0.000570205,-2.66139,-0.267677,-0.220415,18.7131,0.261469,
2,0,0,1,0,30737.9,0.259786,0.259426,-2.21329,16,0.0157418,10,-0.000574185,-2.65496,-0.260344,-0.226623,19.6362,0.259426,
2,0,0,1,0,30737.9,0.257788,0.257431,-2.26008,16,0.015697,10,-0.000581813,-2.64588,-0.235429,-0.250606,22.0714,0.257431,
2,0,0,1,0,30737.9,0.25579,0.255467,-2.30067,16,0.0156516,10,-0.000587745,-2.63815,-0.290284,-0.203249,18.211,0.255467,
2,0,0,1,0,30737.9,0.253793,0.253482,-2.33199,16,0.0156052,10,-0.000591117,-2.63227,-0.324324,-0.181917,16.5667,0.253482,
2,0,0,1,0,30738,0.251795,0.25149,-2.36655,16,0.0155582,10,-0.000595164,-2.62588,-0.344596,-0.171215,15.792,0.25149,
2,0,0,1,0,30738,0.249798,0.24949,-2.39502,16,0.0155105,10,-0.000597535,-2.62069,-0.327795,-0.17999,16.8598,0.24949,
2,0,0,1,0,30738,0.2478,0.247485,-2.43408,16,0.0154623,10,-0.000602398,-2.61367,-0.324405,-0.181871,17.2441,0.247485,
2,0,0,1,0,30738,0.245802,0.245476,-2.46425,16,0.0154133,10,-0.000604914,-2.60832,-0.380332,-0.155127,14.9154,0.245476,
2,0,0,1,0,30738,0.243805,0.243501,-2.4935,16,0.0153636,10,-0.00060717,-2.60319,-0.443246,-0.133109,12.935,0.243501,
2,0,0,1,0,30738.1,0.241807,0.241483,-2.51589,16,0.0153134,10,-0.000607546,-2.59931,-0.365621,-0.16137,15.903,0.2414832,
2,0,0,1,0,30738.1,0.23981,0.239498,-2.55716,16,0.0152628,10,-0.000612435,-2.59224,-0.347118,-0.169971,16.9118,0.239498,
2,0,0,1,0,30738.1,0.237812,0.237493,-2.58337,16,0.0152113,10,-0.000613533,-2.58781,-0.452268,-0.130454,13.1511,0.2374931,
2,0,0,1,0,30738.1,0.235815,0.235538,-2.60923,16,0.0151593,10,-0.000614575,-2.58349,-0.480547,-0.122777,12.4985,0.235538,
2,0,0,1,0,30738.1,0.233817,0.233473,-2.63361,16,0.0151068,10,-0.000614879,-2.57945,-0.409627,-0.144033,14.8344,0.233473,
2,0,0,1,0,30738.2,0.231815,0.231506,-2.66905,16,0.0150537,10,-0.000617901,-2.57364,-0.395046,-0.14935,15.5302,0.231506,
2,0,0,1,0,30738.2,0.229822,0.229485,-2.69556,16,0.0150002,10,-0.00061859,-2.56935,-0.523121,-0.112785,11.8524,0.229485,
2,0,0,1,0,30738.2,0.227824,0.227498,-2.71656,16,0.0149461,10,-0.000618011,-2.56598,-0.54291,-0.108674,11.5299,0.227498,
2,0,0,1,0,30738.2,0.225827,0.225487,-2.74165,16,0.0148914,10,-0.000618207,-2.56199,-0.485605,-0.121498,13.0034,0.225487,
2,0,0,1,0,30738.2,0.223829,0.223517,-2.76832,16,0.0148362,10,-0.000618767,-2.55778,-0.460693,-0.128068,13.8396,0.223517,
2,0,0,1,0,30738.3,0.221831,0.221525,-2.79649,16,0.0147807,10,-0.000619491,-2.55339,-0.478084,-0.123409,13.4627,0.2215248,
2,0,0,1,0,30738.3,0.219834,0.219502,-2.82237,16,0.0147244,10,-0.000619517,-2.54939,-0.482528,-0.122273,13.4745,0.219502,
2,0,0,1,0,30738.3,0.217836,0.217472,-2.8511,16,0.0146676,10,-0.000620034,-2.54499,-0.572082,-0.103132,11.452,0.217472,
2,0,0,1,0,30738.3,0.215839,0.21549,-2.86832,16,0.0146104,10,-0.000618094,-2.54237,-0.553667,-0.106562,11.9555,0.21549,
2,0,0,1,0,30738.3,0.213841,0.213504,-2.89854,16,0.0145529,10,-0.000618849,-2.53782,-0.463678,-0.127243,14.3837,0.213504,
2,0,0,1,0,30738.4,0.211843,0.211561,-2.92483,16,0.0144945,10,-0.000618781,-2.5339,-0.575977,-0.102435,11.6803,0.2115609,
2,0,0,1,0,30738.4,0.209846,0.209518,-2.9451,16,0.0144358,10,-0.00061705,-2.5309,-0.57397,-0.102793,11.8281,0.209518,
2,0,0,1,0,30738.4,0.207848,0.207564,-2.97211,16,0.0143765,10,-0.000616903,-2.52694,-0.419284,-0.140716,16.3522,0.207564,
2,0,0,1,0,30738.4,0.205851,0.205526,-3.01037,16,0.0143169,10,-0.00061871,-2.52138,-0.476912,-0.123713,14.4904,0.205526,
2,0,0,1,0,30738.4,0.203853,0.203527,-3.0306,16,0.0142565,10,-0.000616811,-2.51847,-0.644223,-0.0915832,10.8375,0.203527,
2,0,0,1,0,30738.5,0.201856,0.2015,-3.05401,16,0.0141956,10,-0.000615381,-2.51513,-0.611512,-0.0964821,11.4982,0.2015,
2,0,0,1,0,30738.5,0.199858,0.199508,-3.07682,16,0.0141343,10,-0.00061385,-2.5119,-0.507504,-0.116255,13.9811,0.199508,
2,0,0,1,0,30738.5,0.19786,0.197552,-3.10919,16,0.0140726,10,-0.000614229,-2.50735,-0.532129,-0.110875,13.4286,0.197552,
2,0,0,1,0,30738.5,0.195863,0.195543,-3.13006,16,0.0140102,10,-0.000612062,-2.50445,-0.564957,-0.104433,12.7765,0.195543,
2,0,0,1,0,30738.5,0.193865,0.193532,-3.16056,16,0.0139471,10,-0.00061167,-2.50024,-0.478517,-0.123298,15.2077,0.193532,
2,0,0,1,0,30738.6,0.191868,0.191538,-3.19097,16,0.0138835,10,-0.000611192,-2.49608,-0.481237,-0.122601,15.2679,0.191538,
2,0,0,1,0,30738.6,0.18987,0.189534,-3.2216,16,0.0138197,10,-0.000610603,-2.49193,-0.520022,-0.113457,14.2549,0.189534,
2,0,0,1,0,30738.6,0.187872,0.187542,-3.24793,16,0.0137549,10,-0.000609124,-2.48839,-0.516302,-0.114274,14.4966,0.187542,
2,0,0,1,0,30738.6,0.185875,0.185531,-3.27963,16,0.0136895,10,-0.000608473,-2.48417,-0.508185,-0.116099,14.8514,0.185531,
2,0,0,1,0,30738.6,0.183877,0.183516,-3.30772,16,0.0136235,10,-0.000607021,-2.48047,-0.429849,-0.137258,17.7573,0.183516,
2,0,0,1,0,30738.7,0.18188,0.181538,-3.35053,16,0.0135573,10,-0.00060825,-2.47489,-0.39454,-0.149541,19.527,0.181538,
2,0,0,1,0,30738.7,0.179882,0.179593,-3.38434,16,0.0134898,10,-0.000607802,-2.47053,-0.510134,-0.115656,15.2602,0.179593,
2,0,0,1,0,30738.7,0.177885,0.177551,-3.41138,16,0.0134218,10,-0.000605694,-2.46707,-0.485664,-0.121483,16.2016,0.177551,
2,0,0,1,0,30738.7,0.175887,0.175516,-3.45039,16,0.0133531,10,-0.000605598,-2.46213,-0.361455,-0.163229,22.0101,0.175516,
2,0,0,1,0,30738.7,0.173896,0.173561,-3.49921,16,0.0132839,10,-0.000607325,-2.45603,-0.356337,-0.165573,22.5824,0.173561,
2,0,0,1,0,30738.8,0.171892,0.17157,-3.53949,16,0.0132134,10,-0.000607271,-2.45106,-0.386476,-0.152662,21.0981,0.17157,
2,0,0,1,0,30738.8,0.169894,0.169565,-3.58351,16,0.0131422,10,-0.000607638,-2.44569,-0.343942,-0.17154,24.0145,0.169565,
2,0,0,1,0,30738.8,0.167897,0.167587,-3.63515,16,0.01307,10,-0.000609203,-2.43948,-0.313282,-0.188329,26.7252,0.167587,
2,0,0,1,0,30738.8,0.165899,0.165608,-3.68927,16,0.0129967,10,-0.000610971,-2.43306,-0.310311,-0.190132,27.3811,0.165608,
2,0,0,1,0,30738.8,0.163901,0.163556,-3.74551,16,0.0129226,10,-0.000612602,-2.42649,-0.27689,-0.213081,31.1976,0.163556,
2,0,0,1,0,30738.9,0.161904,0.161591,-3.81457,16,0.012847,10,-0.000616401,-2.41855,-0.26447,-0.223087,33.1811,0.161591,
2,0,0,1,0,30738.9,0.159906,0.159579,-3.87749,16,0.01277,10,-0.000618765,-2.41145,-0.262762,-0.224537,34.0193,0.159579,
2,0,0,1,0,30738.9,0.157909,0.157594,-3.95054,16,0.0126917,10,-0.000622583,-2.40334,-0.224707,-0.262564,40.5654,0.157594,
2,0,0,1,0,30738.9,0.155911,0.155545,-4.04113,16,0.0126121,10,-0.000628576,-2.3935,-0.198375,-0.297417,46.9405,0.155545,
2,0,0,1,0,30738.9,0.153913,0.153578,-4.13906,16,0.0125302,10,-0.000635669,-2.3831,-0.193008,-0.305686,49.3694,0.153578,
2,0,0,1,0,30739,0.151916,0.151578,-4.23694,16,0.0124464,10,-0.000642229,-2.37295,-0.17819,-0.331107,54.8897,0.151578,
2,0,0,1,0,30739,0.149918,0.149583,-4.35834,16,0.0123604,10,-0.000651935,-2.36068,-0.153153,-0.385235,65.6632,0.149583,
2,0,0,1,0,30739,0.147921,0.147562,-4.50071,16,0.0122723,10,-0.000664131,-2.34672,-0.145268,-0.406144,71.2924,0.147562,
2,0,0,1,0,30739,0.145923,0.14563,-4.64018,16,0.0121808,10,-0.00067575,-2.33346,-0.137002,-0.430652,78.2241,0.14563,
2,0,0,1,0,30739,0.143926,0.143591,-4.81127,16,0.0120862,10,-0.000690857,-2.31774,-0.123876,-0.476282,89.5799,0.143591,
2,0,0,1,0,30739.1,0.141928,0.141581,-5.00293,16,0.011988,10,-0.000708318,-2.30078,-0.112565,-0.524141,102.56,0.141581,
2,0,0,1,0,30739.1,0.13993,0.139588,-5.22188,16,0.0118861,10,-0.00072891,-2.28217,-0.105842,-0.557434,113.666,0.139588,
2,0,0,1,0,30739.1,0.137933,0.137619,-5.45326,16,0.0117794,10,-0.00075047,-2.26334,-0.10414,-0.566543,120.728,0.137619,
2,0,0,1,0,30739.1,0.135935,0.13558,-5.70569,16,0.0116677,10,-0.000773579,-2.24369,-0.1015,-0.581283,129.517,0.13558,
2,0,0,1,0,30739.1,0.133938,0.133605,-5.97308,16,0.0115509,10,-0.000798035,-2.2238,-0.100391,-0.5877,136.95,0.133605,
2,0,0,1,0,30739.2,0.13194,0.131647,-6.24432,16,0.0114294,10,-0.000822048,-2.20451,-0.10166,-0.580367,141.617,0.131647,
2,0,0,1,0,30739.2,0.129942,0.1296,-6.54035,16,0.0113014,10,-0.000847626,-2.1844,-0.103937,-0.567652,144.72,0.1296,
2,0,0,1,0,30739.2,0.127945,0.127604,-6.82951,16,0.0111677,10,-0.00087147,-2.16561,-0.10917,-0.540443,143.905,0.127604,
2,0,0,1,0,30739.2,0.125947,0.125619,-7.11323,16,0.0110282,10,-0.000893554,-2.14793,-0.112331,-0.525235,145.783,0.125619,
2,0,0,1,0,30739.2,0.12395,0.123676,-7.40205,16,0.0108838,10,-0.000915458,-2.13065,-0.121015,-0.487543,140.633,0.123676,
2,0,0,1,0,30739.3,0.121952,0.121616,-7.67616,16,0.0107329,10,-0.000933542,-2.11486,-0.132909,-0.443914,132.797,0.121616,
2,0,0,1,0,30739.3,0.119955,0.119666,-7.93458,16,0.0105767,10,-0.000949501,-2.10048,-0.144279,-0.408929,126.481,0.119666,
2,0,0,1,0,30739.3,0.117957,0.117634,-8.17974,16,0.0104155,10,-0.000962218,-2.08726,-0.157225,-0.37526,119.723,0.1176343,
2,0,0,1,0,30739.3,0.115955,0.115612,-8.41997,16,0.0102494,10,-0.000973449,-2.07469,-0.169297,-0.348499,114.32,0.1156119,
2,0,0,1,0,30739.3,0.113962,0.113651,-8.63513,16,0.0100795,10,-0.00098139,-2.06373,-0.192102,-0.307129,103.377,0.113651,
2,0,0,1,0,30739.4,0.111964,0.111621,-8.8325,16,0.00990477,10,-0.000985896,-2.05392,-0.210913,-0.279737,96.3641,0.111621,
2,0,0,1,0,30739.4,0.109967,0.109644,-9.02123,16,0.00972612,10,-0.000989125,-2.04473,-0.231527,-0.25483,89.6022,0.109644,
2,0,0,1,0,30739.4,0.107969,0.107642,-9.18902,16,0.00954387,10,-0.000989129,-2.03673,-0.259879,-0.227029,81.3501,0.107642,
2,0,0,1,0,30739.4,0.105971,0.10568,-9.34368,16,0.00935934,10,-0.000987444,-2.02948,-0.288978,-0.204168,74.3852,0.10568,
2,0,0,1,0,30739.4,0.103974,0.103685,-9.48343,16,0.00917098,10,-0.000983285,-2.02303,-0.349359,-0.168881,62.4097,0.103685,
2,0,0,1,0,30739.5,0.101976,0.101644,-9.5956,16,0.00898013,10,-0.000975334,-2.01793,-0.463767,-0.127219,47.558,0.101644,
2,0,0,1,0,30739.5,0.0999786,0.099664,-9.67464,16,0.00878736,10,-0.000964213,-2.01437,-0.552499,-0.106788,40.3249,0.099664,
2,0,0,1,0,30739.5,0.0979811,0.0976532,-9.75652,16,0.00859389,10,-0.000952755,-2.01071,-0.713131,-0.0827337,31.4434,0.09765318,
2,0,0,1,0,30739.5,0.0959835,0.0956063,-9.80223,16,0.00839824,10,-0.000937154,-2.00868,-1.44138,-0.0409331,15.6357,0.0956063,
2,0,0,1,0,30739.5,0.0939859,0.0936697,-9.8188,16,0.00820198,10,-0.000919725,-2.00794,-4.11864,-0.0143251,5.48614,0.09366975,
2,0,0,1,0,30739.6,0.0919883,0.0916482,-9.82394,16,0.0080055,10,-0.000900346,-2.00771,67.1449,0.000878697,-0.336691,0.0916482,
2,0,0,1,0,30739.6,0.0899907,0.0897061,-9.81747,16,0.00780996,10,-0.000880687,-2.008,1.70059,0.0346938,-13.2657,0.0897061,
2,0,0,1,0,30739.6,0.0879931,0.0876685,-9.77115,16,0.00761403,10,-0.000856622,-2.01005,0.911347,0.0647393,-24.6774,0.0876685,
2,0,0,1,0,30739.6,0.0859955,0.0856353,-9.71701,16,0.0074191,10,-0.000832119,-2.01247,0.769022,0.0767208,-29.0822,0.0856353,
2,0,0,1,0,30739.6,0.083998,0.0836728,-9.65494,16,0.00722538,10,-0.000807856,-2.01525,0.627543,0.0940174,-35.3971,0.0836728,
2,0,0,1,0,30739.7,0.0820004,0.0816933,-9.57748,16,0.00703399,10,-0.000782416,-2.01875,0.532079,0.110886,-41.4219,0.0816933,
2,0,0,1,0,30739.7,0.0800028,0.0796663,-9.48899,16,0.00684327,10,-0.000755953,-2.02278,0.531159,0.111078,-41.1565,0.0796663,
2,0,0,1,0,30739.7,0.0780052,0.0776472,-9.41096,16,0.00665423,10,-0.000730734,-2.02637,0.520217,0.113414,-41.6306,0.0776472,
2,0,0,1,0,30739.7,0.0760076,0.0756671,-9.3225,16,0.00646687,10,-0.000705406,-2.03047,0.536831,0.109904,-40.0228,0.0756671,
2,0,0,1,0,30739.7,0.07401,0.0736641,-9.25154,16,0.00628214,10,-0.000681506,-2.03379,0.566562,0.104137,-37.5833,0.0736641,
2,0,0,1,0,30739.8,0.0720124,0.0716894,-9.173,16,0.00609794,10,-0.000657607,-2.03749,0.543724,0.108511,-38.8499,0.0716894,
2,0,0,1,0,30739.8,0.0700148,0.0696774,-9.09666,16,0.00591522,10,-0.000633832,-2.04112,0.561522,0.105072,-37.3107,0.0696774,
2,0,0,1,0,30739.8,0.0680173,0.0677227,-9.025,16,0.00573401,10,-0.000611198,-2.04455,0.711077,0.0829728,-29.2662,0.0677227,
2,0,0,1,0,30739.8,0.0660106,0.0656699,-8.97938,16,0.00555411,10,-0.000589675,-2.04675,0.751913,0.0784665,-27.4663,0.0656699,
2,0,0,1,0,30739.8,0.0640221,0.0636649,-8.91355,16,0.0053761,10,-0.00056748,-2.04995,0.635964,0.0927725,-32.2773,0.0636649,
2,0,0,1,0,30739.9,0.0620245,0.0616806,-8.85061,16,0.00519846,10,-0.000545911,-2.05303,0.702961,0.0839307,-29.0077,0.0616806,
2,0,0,1,0,30739.9,0.0600269,0.0596927,-8.79833,16,0.00502199,10,-0.000525195,-2.0556,0.797923,0.073942,-25.3938,0.0596927,
2,0,0,1,0,30739.9,0.0580361,0.0576867,-8.74919,16,0.00484747,10,-0.000504712,-2.05803,0.74636,0.0790504,-26.9768,0.0576867,
2,0,0,1,0,30739.9,0.0560317,0.0556912,-8.69038,16,0.00467302,10,-0.000483977,-2.06096,0.718525,0.0821127,-27.8594,0.0556912,
2,0,0,1,0,30739.9,0.0540342,0.0537018,-8.63817,16,0.00449972,10,-0.000463885,-2.06358,0.79215,0.0744808,-25.1143,0.0537018,
2,0,0,1,0,30740,0.0520366,0.0516854,-8.58978,16,0.00432742,10,-0.000443966,-2.06602,0.755562,0.0780876,-26.1652,0.0516854,
2,0,0,1,0,30740,0.050039,0.0497017,-8.53351,16,0.00415623,10,-0.00042413,-2.06887,0.693195,0.0851132,-28.3453,0.0497017,
2,0,0,1,0,30740,0.0480414,0.0477133,-8.47719,16,0.00398696,10,-0.000404474,-2.07175,0.707215,0.0834258,-27.6051,0.0477133,
2,0,0,1,0,30740,0.0460438,0.0457332,-8.42396,16,0.00381798,10,-0.000385255,-2.07448,0.678384,0.0869714,-28.5793,0.0457332,
2,0,0,1,0,30740,0.0440462,0.0437195,-8.36305,16,0.00365012,10,-0.000365628,-2.07764,0.637256,0.0925844,-30.2195,0.0437195,
2,0,0,1,0,30740.1,0.0420486,0.0417381,-8.30323,16,0.00348355,10,-0.000346561,-2.08075,0.693554,0.0850691,-27.5803,0.0417381,
2,0,0,1,0,30740.1,0.040051,0.0396917,-8.25196,16,0.00331884,10,-0.000327534,-2.08344,0.681759,0.0865409,-27.8531,0.0396917,
2,0,0,1,0,30740.1,0.0380535,0.0376997,-8.19075,16,0.00315447,10,-0.000308788,-2.08668,0.555674,0.106177,-33.9135,0.0376997,
2,0,0,1,0,30740.1,0.0360559,0.0357081,-8.11686,16,0.00299147,10,-0.000289837,-2.09061,0.545404,0.108177,-34.2896,0.0357081,
2,0,0,1,0,30740.1,0.0340583,0.033703,-8.0537,16,0.0028298,10,-0.000271434,-2.094,0.582285,0.101325,-31.8457,0.033703,
2,0,0,1,0,30740.2,0.0320607,0.0317223,-7.98993,16,0.00267022,10,-0.000253459,-2.09746,0.51896,0.113689,-35.423,0.0317223,
2,0,0,1,0,30740.2,0.0300631,0.0297617,-7.91409,16,0.00251131,10,-0.000235537,-2.1016,0.462216,0.127646,-39.412,0.0297617,
2,0,0,1,0,30740.2,0.0280655,0.0277546,-7.83355,16,0.0023539,10,-0.000217417,-2.10604,0.475228,0.124151,-37.9754,0.0277546,
2,0,0,1,0,30740.2,0.0260679,0.0257517,-7.76181,16,0.00219797,10,-0.00019988,-2.11004,0.465357,0.126784,-38.3774,0.0257517,
2,0,0,1,0,30740.2,0.0240704,0.0237338,-7.67925,16,0.0020444,10,-0.000182258,-2.11468,0.42724,0.138096,-41.3826,0.0237338,
2,0,0,1,0,30740.3,0.0220728,0.0217383,-7.59572,16,0.00189171,10,-0.000165118,-2.11943,0.411538,0.143365,-42.4911,0.0217383,
2,0,0,1,0,30740.3,0.0200752,0.0197545,-7.51016,16,0.00174065,10,-0.00014836,-2.12435,0.390106,0.151241,-44.3105,0.0197545,
2,0,0,1,0,30740.3,0.0180776,0.0177543,-7.41919,16,0.00159132,10,-0.000131722,-2.12964,0.42559,0.138631,-40.1975,0.01775427,
2,0,0,1,0,30740.3,0.01608,0.0157682,-7.34992,16,0.00144443,10,-0.000115895,-2.13372,0.459768,0.128326,-36.7837,0.0157682,
2,0,0,1,0,30740.3,0.0140824,0.0137209,-7.27083,16,0.00129833,10,-9.9762e-05,-2.13842,0.416057,0.141807,-40.2258,0.0137209,
2,0,0,1,0,30740.4,0.0120848,0.0117325,-7.18758,16,0.00115382,10,-8.4328e-05,-2.14342,0.391119,0.150849,-42.3084,0.0117325,
2,0,0,1,0,30740.4,0.0100872,0.00975195,-7.10291,16,0.00101103,10,-6.92672e-05,-2.14856,0.44066,0.13389,-37.1724,0.00975195,
2,0,0,1,0,30740.4,0.00809193,0.00778245,-7.04075,16,0.000870431,10,-5.47943e-05,-2.15238,0.481246,0.122599,-33.6637,0.00778245,
2,0,0,1,0,30740.4,0.00609208,0.00577698,-6.96909,16,0.000730383,10,-4.02603e-05,-2.15682,0.451844,0.130576,-35.5139,0.00577698,
2,0,0,1,0,30740.4,0.00409449,0.00375589,-6.89775,16,0.000591812,10,-2.59072e-05,-2.16129,0.745091,0.0791849,-21.4032,0.00375589,
2,0,0,1,0,30740.5,0.0020969,0.00174261,-6.88275,16,0.000454366,10,-1.1994e-05,-2.16224,0.737699,0.0799784,-21.3952,0.001742614,
2,0,0,1,0,30740.5,9.14991e-05,-0.000271532,-6.81158,16,0.000317534,10,1.84956e-06,-2.16675,0.507511,0.116254,-30.9437,-0.000271532,
2,0,0,1,0,30740.5,-0.00189827,-0.0022826,-6.75819,16,0.000182571,10,1.54263e-05,-2.17017,0.624759,0.0944364,-24.9202,-0.0022826,
2,0,0,1,0,30740.5,-0.00389586,-0.00427474,-6.71182,16,4.79634e-05,10,2.86913e-05,-2.17316,0.73958,0.079775,-20.9101,-0.00427474,
2,0,0,1,0,30740.5,-0.00589345,-0.00628845,-6.67443,16,-8.58329e-05,10,4.19718e-05,-2.17559,0.769893,0.076634,-19.9544,-0.006288453,
2,0,0,1,0,30740.6,-0.00789103,-0.00826316,-6.63224,16,-0.000218855,10,5.48032e-05,-2.17834,1.11558,0.0528871,-13.7198,-0.00826316,
2,0,0,1,0,30740.6,-0.00988862,-0.0102624,-6.61991,16,-0.000350726,10,6.79364e-05,-2.17915,1.7868,0.03302,-8.52484,-0.0102624,
2,0,0,1,0,30740.6,-0.0118862,-0.0122471,-6.59827,16,-0.000482846,10,8.08097e-05,-2.18057,1.38377,0.0426371,-10.9788,-0.0122471,
2,0,0,1,0,30740.6,-0.0138838,-0.014273,-6.57588,16,-0.000614587,10,9.38572e-05,-2.18205,2.20846,0.0267155,-6.86505,-0.014273,
2,0,0,1,0,30740.6,-0.0158814,-0.0162836,-6.57056,16,-0.000746017,10,0.000106993,-2.1824,-30.7851,-0.00191651,0.49192,-0.0162836,
2,0,0,1,0,30740.7,-0.017879,-0.0182558,-6.57784,16,-0.000876798,10,0.000120084,-2.18192,-18.0329,-0.00327179,0.839194,-0.0182558,
2,0,0,1,0,30740.7,-0.0198766,-0.020245,-6.57389,16,-0.00100825,10,0.000133088,-2.18218,44.5372,0.00132473,-0.34004,-0.020245,
2,0,0,1,0,30740.7,-0.0218741,-0.0222612,-6.57647,16,-0.00113965,10,0.0001464,-2.18201,-4.70817,-0.0125314,3.21817,-0.0222612,
2,0,0,1,0,30740.7,-0.0238717,-0.0242235,-6.58669,16,-0.00127126,10,0.000159553,-2.18133,-1.72952,-0.0341135,8.77871,-0.0242235,
2,0,0,1,0,30740.7,-0.0258693,-0.0262299,-6.61131,16,-0.00140256,10,0.000173414,-2.17971,-1.61923,-0.0364371,9.39321,-0.0262299,
2,0,0,1,0,30740.8,-0.0278669,-0.0282336,-6.62436,16,-0.00153481,10,0.000187029,-2.17886,-1.68075,-0.0351034,9.08246,-0.0282336,
2,0,0,1,0,30740.8,-0.0298645,-0.0302716,-6.64802,16,-0.00166746,10,0.000201246,-2.17731,-1.34526,-0.0438576,11.3777,-0.0302716,
2,0,0,1,0,30740.8,-0.0318621,-0.0322719,-6.6703,16,-0.0018006,10,0.000215263,-2.17585,-1.02124,-0.0577726,15.0566,-0.0322719,
2,0,0,1,0,30740.8,-0.0338597,-0.034246,-6.70786,16,-0.00193361,10,0.000229717,-2.17342,-0.993397,-0.0593921,15.5317,-0.034246,
2,0,0,1,0,30740.8,-0.0358573,-0.036202,-6.73135,16,-0.00206794,10,0.000243688,-2.1719,-0.973433,-0.0606102,15.9413,-0.036202,
2,0,0,1,0,30740.9,-0.0378548,-0.0381933,-6.77079,16,-0.00220298,10,0.000258599,-2.16936,-0.938667,-0.0628551,16.594,-0.03819333,
2,0,0,1,0,30740.9,-0.0398524,-0.0402241,-6.79809,16,-0.00233866,10,0.000273447,-2.16761,-0.742745,-0.0794351,21.1214,-0.04022406,
2,0,0,1,0,30740.9,-0.04185,-0.0422112,-6.85565,16,-0.00247443,10,0.000289385,-2.16395,-0.669333,-0.0881474,23.5477,-0.04221116,
2,0,0,1,0,30740.9,-0.0438476,-0.0442201,-6.89219,16,-0.00261183,10,0.000304773,-2.16164,-0.871872,-0.0676705,18.2023,-0.0442201,
2,0,0,1,0,30740.9,-0.0458452,-0.0462447,-6.92907,16,-0.00275003,10,0.000320432,-2.15933,-0.706323,-0.0835312,22.6159,-0.0462447,
2,0,0,1,0,30741,-0.0478428,-0.0482328,-6.98294,16,-0.00288907,10,0.000336806,-2.15596,-0.568184,-0.10384,28.307,-0.0482328,
2,0,0,1,0,30741,-0.0498495,-0.0502079,-7.04126,16,-0.0030292,10,0.000353527,-2.15235,-0.602033,-0.0980013,26.9122,-0.0502079,
2,0,0,1,0,30741,-0.051838,-0.05222,-7.09024,16,-0.0031698,10,0.000370253,-2.14934,-0.631505,-0.0934276,25.8613,-0.05222,
2,0,0,1,0,30741,-0.0538355,-0.0541968,-7.14441,16,-0.00331204,10,0.000387204,-2.14603,-0.579035,-0.101894,28.4209,-0.0541968,
2,0,0,1,0,30741,-0.0558331,-0.0562288,-7.20417,16,-0.00345542,10,0.000405082,-2.14242,-0.553893,-0.106519,29.9463,-0.0562288,
2,0,0,1,0,30741.1,-0.0578216,-0.0581647,-7.26324,16,-0.00359929,10,0.000422464,-2.13887,-0.563753,-0.104656,29.6658,-0.05816469,
2,0,0,1,0,30741.1,-0.0598283,-0.0602205,-7.32259,16,-0.00374515,10,0.00044097,-2.13534,-0.510284,-0.115622,33.0772,-0.0602205,
2,0,0,1,0,30741.1,-0.0618259,-0.0622355,-7.39789,16,-0.00389226,10,0.000460411,-2.13089,-0.478885,-0.123203,35.5488,-0.0622355,
2,0,0,1,0,30741.1,-0.0638235,-0.0642132,-7.46453,16,-0.0040408,10,0.000479321,-2.127,-0.509227,-0.115862,33.7535,-0.0642132,
2,0,0,1,0,30741.1,-0.0658211,-0.0662074,-7.53195,16,-0.00419065,10,0.000498671,-2.12309,-0.46435,-0.127059,37.3813,-0.0662074,
2,0,0,1,0,30741.2,-0.0678187,-0.0681837,-7.61295,16,-0.00434133,10,0.000519079,-2.11845,-0.44338,-0.133069,39.5223,-0.0681837,
2,0,0,1,0,30741.2,-0.0698162,-0.070187,-7.68924,16,-0.00449429,10,0.000539685,-2.11412,-0.470066,-0.125514,37.6625,-0.07018701,
2,0,0,1,0,30741.2,-0.0718138,-0.0722198,-7.76496,16,-0.00464879,10,0.000560784,-2.10986,-0.440163,-0.134041,40.6478,-0.0722198,
2,0,0,1,0,30741.2,-0.0738114,-0.0741875,-7.85185,16,-0.0048049,10,0.000582509,-2.10503,-0.396325,-0.148868,45.6399,-0.0741875,
2,0,0,1,0,30741.2,-0.075809,-0.0762083,-7.94699,16,-0.00496209,10,0.000605627,-2.0998,-0.409499,-0.144079,44.6546,-0.0762083,
2,0,0,1,0,30741.3,-0.0778066,-0.0782185,-8.03185,16,-0.00512182,10,0.00062824,-2.09518,-0.409201,-0.144183,45.2202,-0.0782185,
2,0,0,1,0,30741.3,-0.0798042,-0.0801702,-8.12615,16,-0.00528336,10,0.000651475,-2.09012,-0.378809,-0.155751,49.4128,-0.0801702,
2,0,0,1,0,30741.3,-0.0818018,-0.0821713,-8.22717,16,-0.00544685,10,0.000676038,-2.08475,-0.367221,-0.160666,51.5994,-0.0821713,
2,0,0,1,0,30741.3,-0.0837994,-0.0841805,-8.33308,16,-0.00561155,10,0.000701483,-2.07919,-0.381003,-0.154855,50.3241,-0.0841805,
2,0,0,1,0,30741.3,-0.0857969,-0.0861548,-8.42764,16,-0.00577901,10,0.000726081,-2.07429,-0.37734,-0.156358,51.4753,-0.0861548,
2,0,0,1,0,30741.4,-0.0877945,-0.0881801,-8.53896,16,-0.00594858,10,0.000752967,-2.06859,-0.370978,-0.159039,52.9639,-0.0881801,
2,0,0,1,0,30741.4,-0.0897921,-0.0901582,-8.63967,16,-0.00612028,10,0.000778937,-2.0635,-0.378046,-0.156066,52.6352,-0.0901582,
2,0,0,1,0,30741.4,-0.0917897,-0.0921041,-8.7455,16,-0.00629317,10,0.000805497,-2.05822,-0.378138,-0.156028,53.259,-0.0921041,
2,0,0,1,0,30741.4,-0.0937873,-0.0941812,-8.85393,16,-0.00646908,10,0.000833874,-2.05286,-0.395841,-0.14905,51.4753,-0.0941812,
2,0,0,1,0,30741.4,-0.0957849,-0.0961489,-8.95371,16,-0.00664708,10,0.000860889,-2.048,-0.401752,-0.146857,51.329,-0.0961489,
2,0,0,1,0,30741.5,-0.0977825,-0.0981665,-9.0585,16,-0.00682715,10,0.000889241,-2.04294,-0.383351,-0.153906,54.4208,-0.0981665,
2,0,0,1,0,30741.5,-0.0997501,-0.100084,-9.16785,16,-0.00700566,10,0.000917553,-2.03773,0.009415,6.2666,-1975.75,-0.1000838,
2,0,0,1,1,30741.5,-0.0987313,-0.0991213,-7.17204,16,-0.00713023,10,0.000710902,-2.14436,-0.0122874,-4.80166,1315.37,-0.0991213,
2,0,0,1,1,30741.5,-0.0967337,-0.0970946,-5.23593,16,-0.00725274,10,0.000508381,-2.28101,-0.0145519,-4.05444,839.976,-0.0970946,
2,0,0,1,1,30741.5,-0.0947362,-0.0951065,-3.79966,16,-0.00734224,10,0.000361372,-2.42026,-0.0134675,-4.38093,648.255,-0.0951065,
2,0,0,1,1,30741.5,-0.0927386,-0.0930915,-2.64088,16,-0.00740602,10,0.000245844,-2.57825,-0.0113905,-5.17975,525.285,-0.0930915,
2,0,0,1,1,30741.6,-0.090741,-0.0910748,-1.68187,16,-0.00744855,10,0.000153176,-2.77421,-0.00849746,-6.94325,434.864,-0.0910748,
2,0,0,1,1,30741.6,-0.0887434,-0.0890499,-0.883331,16,-0.00747376,10,7.86605e-05,-3.05388,-0.00410507,-14.3725,378.657,-0.0890499,
2,0,0,1,1,30741.6,-0.0867458,-0.087115,-0.182465,16,-0.00748398,10,1.58955e-05,-3.73882,-0.0122869,-4.80185,333.83,-0.087115,
2,1,0,1,1,30741.6,-0.0847482,-0.0851336,0.424026,16,-0.0074812,10,-3.60988e-05,-3.37261,0.00561344,10.5105,281.2,-0.08513362,
2,1,0,1,1,30741.6,-0.0827529,-0.0831058,0.944927,16,-0.00746735,10,-7.85289e-05,-3.0246,0.00774751,7.61535,243.9,-0.0831058,
2,1,0,1,1,30741.7,-0.080753,-0.0810903,1.41019,16,-0.00744352,10,-0.000114353,-2.85072,0.0140886,4.18778,218.219,-0.0810903,
2,1,0,1,1,30741.7,-0.0787555,-0.0790935,1.82048,16,-0.00741099,10,-0.000143988,-2.73982,0.0206364,2.85903,197.241,-0.0790935,
2,1,0,1,1,30741.7,-0.0767579,-0.0771817,2.18112,16,-0.00737074,10,-0.000168343,-2.66132,0.0278617,2.1176,177.5,-0.0771817,
2,1,0,1,1,30741.7,-0.0747603,-0.0751967,2.51217,16,-0.00732358,10,-0.000188907,-2.59995,0.0368492,1.60112,155.157,-0.0751967,
2,1,0,1,1,30741.7,-0.0727627,-0.0731182,2.81161,16,-0.00727032,10,-0.00020558,-2.55104,0.0473708,1.24549,135.008,-0.0731182,
2,1,0,1,1,30741.8,-0.0707651,-0.0711322,3.0609,16,-0.00721129,10,-0.000217728,-2.51415,0.056696,1.04064,123.96,-0.0711322,
2,1,0,1,1,30741.8,-0.0687675,-0.0691281,3.30622,16,-0.00714735,10,-0.000228553,-2.48067,0.0659028,0.895258,114.771,-0.0691281,
2,1,0,1,1,30741.8,-0.0667699,-0.0671359,3.51956,16,-0.0070789,10,-0.000236289,-2.45351,0.0783808,0.752736,103.041,-0.06713593,
2,1,0,1,1,30741.8,-0.0647723,-0.0651424,3.71691,16,-0.00700661,10,-0.000242129,-2.42982,0.0926209,0.637005,91.9773,-0.0651424,
2,1,0,1,1,30741.8,-0.0627748,-0.0631517,3.88602,16,-0.0069304,10,-0.000245409,-2.4105,0.108131,0.545636,82.6056,-0.0631517,
2,1,0,1,1,30741.9,-0.0607772,-0.0611566,4.04616,16,-0.00685088,10,-0.00024745,-2.39296,0.12225,0.482616,76.0284,-0.0611566,
2,1,0,1,1,30741.9,-0.0587796,-0.0591412,4.19093,16,-0.00676834,10,-0.000247857,-2.37769,0.144584,0.408068,66.5456,-0.0591412,
2,1,0,1,1,30741.9,-0.056782,-0.0571354,4.31375,16,-0.00668354,10,-0.000246468,-2.36514,0.167056,0.353174,59.3909,-0.0571354,
2,1,0,1,1,30741.9,-0.0547844,-0.0551313,4.42908,16,-0.00659591,10,-0.000244181,-2.35369,0.1856,0.317887,54.8715,-0.05513126,
2,1,0,1,1,30741.9,-0.0527868,-0.0531229,4.53392,16,-0.00650612,10,-0.000240855,-2.34353,0.214381,0.275211,48.603,-0.0531229,
2,1,0,1,1,30742,-0.0507892,-0.0511495,4.62261,16,-0.00641444,10,-0.000236444,-2.33511,0.237129,0.24881,44.8887,-0.0511495,
2,1,0,1,1,30742,-0.0487916,-0.0491373,4.71284,16,-0.00632136,10,-0.000231576,-2.32672,0.258875,0.227909,41.8551,-0.04913725,
2,1,0,1,1,30742,-0.0467941,-0.0471561,4.78975,16,-0.00622617,10,-0.000225866,-2.31969,0.32167,0.183418,34.2241,-0.0471561,
2,1,0,1,1,30742,-0.0447965,-0.0451298,4.84999,16,-0.00612963,10,-0.000218879,-2.31426,0.379317,0.155543,29.4322,-0.0451298,
2,1,0,1,1,30742,-0.0427989,-0.0431464,4.90777,16,-0.00603192,10,-0.000211753,-2.30912,0.388605,0.151825,29.0778,-0.0431464,
2,1,0,1,1,30742.1,-0.0408013,-0.0411635,4.96532,16,-0.00593354,10,-0.00020439,-2.30405,0.489287,0.120584,23.3141,-0.0411635,
2,1,0,1,1,30742.1,-0.0388037,-0.0391581,5.00075,16,-0.0058337,10,-0.00019582,-2.30096,0.564626,0.104494,20.4141,-0.0391581,
2,1,0,1,1,30742.1,-0.0368061,-0.0371846,5.04655,16,-0.00573305,10,-0.000187654,-2.29701,0.558948,0.105556,20.7722,-0.0371846,
2,1,0,1,1,30742.1,-0.0348085,-0.0351373,5.08427,16,-0.00563159,10,-0.000178647,-2.29377,0.682305,0.0864715,17.147,-0.0351373,
2,1,0,1,1,30742.1,-0.0328109,-0.0331534,5.11567,16,-0.00552999,10,-0.000169602,-2.2911,0.879377,0.0670929,13.3824,-0.0331534,
2,1,0,1,1,30742.2,-0.0308134,-0.03116,5.1375,16,-0.00542731,10,-0.000160085,-2.28925,1.01728,0.0579981,11.6316,-0.03116,
2,1,0,1,1,30742.2,-0.0288158,-0.0291728,5.16197,16,-0.00532415,10,-0.000150589,-2.28718,1.1769,0.0501317,10.0904,-0.0291728,
2,1,0,1,1,30742.2,-0.0268182,-0.027209,5.17736,16,-0.00522065,10,-0.000140871,-2.28589,1.47093,0.0401108,8.10581,-0.027209,
2,1,0,1,1,30742.2,-0.0248138,-0.0251853,5.19429,16,-0.00511692,10,-0.00013082,-2.28447,1.52445,0.0387025,7.84392,-0.0251853,
2,1,0,1,1,30742.2,-0.022823,-0.0231807,5.20896,16,-0.0050133,10,-0.000120748,-2.28325,2.36842,0.0249112,5.05972,-0.0231807,
2,1,0,1,1,30742.3,-0.0208254,-0.0211969,5.21447,16,-0.00490895,10,-0.000110531,-2.28279,7.41326,0.00795871,1.61893,-0.0211969,
2,1,0,1,1,30742.3,-0.0188278,-0.0191666,5.21546,16,-0.00480454,10,-9.99626e-05,-2.28271,5.69416,0.0103615,2.11031,-0.0191666,
2,1,0,1,1,30742.3,-0.0168393,-0.0172037,5.2229,16,-0.00470054,10,-8.98533e-05,-2.28209,3.54875,0.0166256,3.38841,-0.0172037,
2,1,0,1,1,30742.3,-0.0148327,-0.0151753,5.22898,16,-0.00459582,10,-7.93512e-05,-2.28158,41.2496,0.00143032,0.291579,-0.0151753,
2,1,0,1,1,30742.3,-0.0128351,-0.0131876,5.22407,16,-0.00449114,10,-6.88928e-05,-2.28199,-47.533,-0.00124124,-0.253277,-0.0131876,
2,1,0,1,1,30742.4,-0.0108375,-0.0112077,5.22798,16,-0.00438649,10,-5.85936e-05,-2.28167,5.03624,0.0117151,2.39067,-0.0112077,
2,1,0,1,1,30742.4,-0.00883989,-0.00915148,5.23372,16,-0.00428172,10,-4.78963e-05,-2.28119,-32.1133,-0.00183724,-0.374803,-0.00915148,
2,1,0,1,1,30742.4,-0.0068423,-0.00722622,5.22649,16,-0.00417741,10,-3.77678e-05,-2.28179,-19.0146,-0.00310288,-0.63363,-0.00722622,
2,1,0,1,1,30742.4,-0.00484471,-0.0052345,5.23124,16,-0.00407267,10,-2.73829e-05,-2.2814,5.77665,0.0102135,2.08495,-0.0052345,
2,1,0,1,1,30742.4,-0.00284713,-0.00322079,5.23484,16,-0.00396792,10,-1.68603e-05,-2.2811,-17.9448,-0.00328787,-0.671074,-0.00322079,
2,1,0,1,1,30742.5,-0.000849538,-0.00119587,5.22853,16,-0.00386314,10,-6.25265e-06,-2.28162, , , ,-0.00119587,
2,1,0,1,1,30742.5,-2.55332e-05,-0.000401673,5.24582,16,-0.00382076,10,-2.1071e-06,-2.28019, , , ,-0.000401673,