File: Figure_codes/Fig_3-5/rawdata_trumpetplot_data/after 10th/20221101_1-115_003_TrumpetPlot_ParaChange_from10_every3_09_CV_C01_4.csv
mode,ox/red,error,control changes,counter inc.,time/s,control/V,Ewe/V,<I>/mA,cycle number,(Q-Qo)/C,I Range,P/W,log(|I|),Tafel slope mV/dec,alpha_eff,dI/d(E-IR),E-IR/V,
2,0,0,0,0,9063.04,2.44065e-05,-0.000268062,-5.29132,5,0.0000000E+000,10,1.4184e-06,-2.27644, , , ,-0.000268062,
2,0,0,1,0,9063.06,0.00179726,0.00139959,-2.12415,5,-6.14187e-05,10,-2.97293e-06,-2.67282, , , ,0.001399589,
2,0,0,1,0,9063.08,0.00379485,0.00348094,-0.094292,5,-8.13128e-05,10,-3.28224e-07,-4.02553,-0.014694,-4.01523,798.268,0.00348094,
2,1,0,1,0,9063.1,0.00579244,0.00546726,1.12295,5,-6.99119e-05,10,6.13945e-06,-2.94964,0.00300595,19.6278,514.474,0.00546726,
2,1,0,1,0,9063.12,0.00779002,0.00742537,1.93502,5,-3.87202e-05,10,1.43682e-05,-2.71332,0.0115639,5.10209,343.182,0.00742537,
2,1,0,1,0,9063.14,0.00978761,0.00950161,2.50746,5,5.86966e-06,10,2.38249e-05,-2.60077,0.0225667,2.61447,244.046,0.00950161,
2,1,0,1,0,9063.16,0.0117852,0.0114424,2.91537,5,6.03243e-05,10,3.33589e-05,-2.53531,0.0365975,1.61213,179.166,0.0114424,
2,1,0,1,0,9063.18,0.0137828,0.013464,3.21738,5,0.000121749,10,4.33187e-05,-2.4925,0.0534068,1.10473,137.277,0.013464,
2,1,0,1,0,9063.2,0.0157804,0.0154733,3.46872,5,0.000188779,10,5.36726e-05,-2.45983,0.068043,0.867099,116.505,0.0154733,
2,1,0,1,0,9063.22,0.017778,0.0174221,3.67853,5,0.000260062,10,6.40879e-05,-2.43433,0.0886634,0.665438,94.9045,0.0174221,
2,1,0,1,0,9063.24,0.0197755,0.0194549,3.84659,5,0.0003353,10,7.48352e-05,-2.41492,0.111384,0.529701,79.3331,0.0194549,
2,1,0,1,0,9063.26,0.0217731,0.0214894,4.0012,5,0.000413821,10,8.59834e-05,-2.39781,0.125901,0.468621,73.0024,0.0214894,
2,1,0,1,0,9063.28,0.0237707,0.0234782,4.1403,5,0.000495301,10,9.72068e-05,-2.38297,0.136097,0.433515,70.0423,0.0234782,
2,1,0,1,0,9063.3,0.0257683,0.0254959,4.28182,5,0.000579128,10,0.000109169,-2.36837,0.147758,0.399302,66.5697,0.0254959,
2,1,0,1,0,9063.32,0.0277659,0.0274706,4.40607,5,0.000665968,10,0.000121037,-2.35595,0.170822,0.345389,59.3102,0.0274706,
2,1,0,1,0,9063.34,0.0297635,0.0295186,4.52041,5,0.000755291,10,0.000133436,-2.34482,0.176284,0.334688,59.086,0.0295186,
2,1,0,1,0,9063.36,0.0317611,0.0314828,4.64313,5,0.000846943,10,0.000146179,-2.33319,0.166006,0.355408,64.4389,0.0314828,
2,1,0,1,0,9063.38,0.0337586,0.0334447,4.7734,5,0.000940541,10,0.000159645,-2.32117,0.181804,0.324525,60.3261,0.0334447,
2,1,0,1,0,9063.4,0.0357562,0.0354953,4.88519,5,0.00103713,10,0.000173402,-2.31112,0.2103,0.280551,53.4398,0.0354953,
2,1,0,1,0,9063.42,0.0377538,0.0374929,4.98974,5,0.00113597,10,0.00018708,-2.30192,0.203077,0.290531,56.6491,0.0374929,
2,1,0,1,0,9063.44,0.0397514,0.0394427,5.10881,5,0.00123702,10,0.000201505,-2.29168,0.17875,0.330071,65.9211,0.0394427,
2,1,0,1,0,9063.46,0.041749,0.0414004,5.24733,5,0.00134004,10,0.000217242,-2.28006,0.198893,0.296641,60.5421,0.0414004,
2,1,0,1,0,9063.48,0.0437466,0.0434619,5.35214,5,0.00144599,10,0.000232614,-2.27147,0.235558,0.250469,52.3149,0.0434619,
2,1,0,1,0,9063.5,0.0457442,0.0454244,5.45784,5,0.00155405,10,0.000247919,-2.26298,0.223322,0.264192,56.3188,0.0454244,
2,1,0,1,0,9063.52,0.0477418,0.0473977,5.5738,5,0.00166437,10,0.000264186,-2.25385,0.214528,0.275023,59.8627,0.0473977,
2,1,0,1,0,9063.54,0.0497484,0.0494444,5.69849,5,0.00177697,10,0.000281759,-2.24424,0.238815,0.247053,54.8092,0.0494444,
2,1,0,1,0,9063.56,0.0517369,0.0514673,5.79685,5,0.00189132,10,0.000298348,-2.23681,0.247738,0.238154,53.9637,0.0514673,
2,1,0,1,0,9063.58,0.0537345,0.0534548,5.91491,5,0.00200843,10,0.000316181,-2.22805,0.242573,0.243226,56.0695,0.05345485,
2,1,0,1,0,9063.6,0.0557321,0.0554146,6.01817,5,0.00212778,10,0.000333495,-2.22054,0.267412,0.220633,51.7968,0.0554146,
2,1,0,1,0,9063.62,0.0577206,0.0573587,6.11712,5,0.00224855,10,0.00035087,-2.21345,0.26144,0.225673,53.9512,0.0573587,
2,1,0,1,0,9063.64,0.0597273,0.0594254,6.23456,5,0.0023722,10,0.000370491,-2.20519,0.26661,0.221297,53.7614,0.0594254,
2,1,0,1,0,9063.66,0.0617249,0.0613913,6.33392,5,0.00249791,10,0.000388848,-2.19833,0.294123,0.200596,49.5807,0.0613913,
2,1,0,1,0,9063.68,0.0637224,0.0634272,6.43297,5,0.00262563,10,0.000408025,-2.19159,0.297981,0.197999,49.7118,0.06342718,
2,1,0,1,0,9063.7,0.06572,0.0654101,6.5337,5,0.00275534,10,0.00042737,-2.18484,0.280232,0.21054,53.7391,0.0654101,
2,1,0,1,0,9063.72,0.0677176,0.0674404,6.64864,5,0.00288667,10,0.000448387,-2.17727,0.300384,0.196416,50.8606,0.06744045,
2,1,0,1,0,9063.74,0.0697152,0.0694147,6.73737,5,0.00302057,10,0.000467673,-2.17151,0.337402,0.174866,45.9962,0.0694147,
2,1,0,1,0,9063.76,0.0717128,0.0714268,6.832,5,0.00315631,10,0.000487988,-2.16545,0.325889,0.181043,48.2764,0.0714268,
2,1,0,1,0,9063.78,0.0737104,0.0733804,6.92882,5,0.00329399,10,0.000508439,-2.15934,0.325266,0.18139,49.0553,0.0733804,
2,1,0,1,0,9063.8,0.075708,0.0754249,7.02812,5,0.00343294,10,0.000530095,-2.15316,0.357491,0.165039,45.2091,0.0754249,
2,1,0,1,0,9063.82,0.0777056,0.077387,7.10995,5,0.0035743,10,0.000550218,-2.14813,0.378518,0.155871,43.2788,0.077387,
2,1,0,1,0,9063.84,0.0797031,0.0794341,7.20164,5,0.00371746,10,0.000572055,-2.14257,0.374531,0.15753,44.2559,0.0794341,
2,1,0,1,0,9063.86,0.0817007,0.0814061,7.28783,5,0.00386236,10,0.000593274,-2.1374,0.387471,0.152269,43.3033,0.0814061,
2,1,0,1,0,9063.88,0.0836983,0.0833887,7.37289,5,0.00400824,10,0.000614816,-2.13236,0.412833,0.142915,41.0999,0.0833887,
2,1,0,1,0,9063.9,0.0856959,0.085363,7.45046,5,0.0041565,10,0.000635993,-2.12782,0.417206,0.141417,41.1455,0.08536303,
2,1,0,1,0,9063.92,0.0876935,0.0874033,7.53807,5,0.00430645,10,0.000658852,-2.12274,0.418997,0.140813,41.4009,0.0874033,
2,1,0,1,0,9063.94,0.0896911,0.0893963,7.61743,5,0.00445799,10,0.00068097,-2.11819,0.394434,0.149581,44.5231,0.0893963,
2,1,0,1,0,9063.96,0.0916887,0.0914062,7.71629,5,0.00461051,10,0.000705316,-2.11259,0.367111,0.160714,48.3815,0.0914062,
2,1,0,1,0,9063.98,0.0936862,0.0933912,7.81072,5,0.00476579,10,0.000729453,-2.10731,0.381019,0.154848,47.1949,0.0933912,
2,1,0,1,0,9064,0.0956838,0.0953746,7.90358,5,0.00492294,10,0.0007538,-2.10218,0.342737,0.172144,53.1798,0.0953746,
2,1,0,1,0,9064.02,0.0976814,0.0973592,8.02173,5,0.0050822,10,0.00078099,-2.09573,0.306574,0.192449,60.2774,0.0973592,
2,1,0,1,0,9064.04,0.099679,0.0994424,8.14878,5,0.00524303,10,0.000810334,-2.08891,0.306733,0.19235,61.135,0.0994424,
2,1,0,1,0,9064.06,0.101677,0.101378,8.2674,5,0.00540724,10,0.00083813,-2.08263,0.288259,0.204677,66.1199,0.1013777,
2,1,0,1,0,9064.08,0.103674,0.103356,8.40755,5,0.00557399,10,0.000868972,-2.07533,0.25216,0.233978,76.8683,0.103356,
2,1,0,1,0,9064.1,0.105672,0.105319,8.57038,5,0.0057437,10,0.000902626,-2.067,0.229343,0.257257,86.129,0.105319,
2,1,0,1,0,9064.12,0.107667,0.107356,8.75204,5,0.00591597,10,0.000939582,-2.05789,0.227401,0.259454,88.5807,0.107356,
2,1,0,1,0,9064.14,0.109667,0.10936,8.92831,5,0.00609277,10,0.0009764,-2.04923,0.230462,0.256008,89.2107,0.10936,
2,1,0,1,0,9064.16,0.111665,0.111348,9.10823,5,0.00627314,10,0.00101419,-2.04057,0.224627,0.262658,93.4127,0.111348,
2,1,0,1,0,9064.18,0.113662,0.113337,9.29978,5,0.00645724,10,0.00105401,-2.03153,0.23151,0.254849,92.403,0.113337,
2,1,0,1,0,9064.2,0.11566,0.11532,9.47521,5,0.00664494,10,0.00109268,-2.02341,0.23087,0.255555,94.6387,0.11532,
2,1,0,1,0,9064.22,0.117657,0.117362,9.68075,5,0.00683565,10,0.00113615,-2.01409,0.242177,0.243624,91.8471,0.117362,
2,1,0,1,0,9064.24,0.119655,0.119372,9.84742,5,0.00703095,10,0.00117551,-2.00668,0.272396,0.216597,83.2276,0.119372,
2,1,0,1,0,9064.26,0.121652,0.121351,10.0128,5,0.00722959,10,0.00121506,-1.99945,0.280181,0.210578,82.2618,0.121351,
2,1,0,1,0,9064.28,0.12365,0.12334,10.1738,5,0.00743149,10,0.00125483,-1.99252,0.291792,0.202199,80.2746,0.12334,
2,1,0,1,0,9064.3,0.125648,0.125357,10.3343,5,0.00763565,10,0.00129548,-1.98572,0.331889,0.17777,71.5742,0.125357,
2,1,0,1,0,9064.32,0.127645,0.127348,10.4606,5,0.00784362,10,0.00133214,-1.98044,0.379905,0.155302,63.3959,0.127348,
2,1,0,1,0,9064.34,0.129643,0.129329,10.5861,5,0.00805416,10,0.00136909,-1.97526,0.375014,0.157327,65.0165,0.129329,
2,1,0,1,0,9064.36,0.13164,0.131313,10.7184,5,0.00826726,10,0.00140747,-1.96987,0.397416,0.148459,62.0517,0.131313,
2,1,0,1,0,9064.38,0.133638,0.133332,10.8345,5,0.00848177,10,0.0014446,-1.96519,0.454717,0.129751,54.8304,0.133332,
2,1,0,1,0,9064.4,0.135636,0.135322,10.9382,5,0.00869955,10,0.00148018,-1.96105,0.470672,0.125353,53.5249,0.135322,
2,1,0,1,0,9064.42,0.137633,0.137324,11.0482,5,0.00891946,10,0.00151719,-1.95671,0.515142,0.114532,49.3304,0.1373245,
2,1,0,1,0,9064.44,0.139631,0.139311,11.1351,5,0.00914137,10,0.00155124,-1.95331,0.577051,0.102244,44.4391,0.139311,
2,1,0,1,0,9064.46,0.141628,0.141326,11.226,5,0.00936388,10,0.00158652,-1.94977,0.661885,0.0891393,39.0103,0.141326,
2,1,0,1,0,9064.48,0.143626,0.14335,11.2926,5,0.00958914,10,0.0016188,-1.94721,1.13061,0.0521842,22.9559,0.14335,
2,1,0,1,0,9064.5,0.145624,0.145314,11.3176,5,0.00981529,10,0.00164461,-1.94625,-326.426,-0.000180746,-0.0796562,0.145314,
2,1,0,1,0,9064.52,0.147621,0.147331,11.2923,5,0.0100414,10,0.00166371,-1.94722,-1.26089,-0.0467924,-20.5921,0.147331,
2,1,0,1,0,9064.54,0.149619,0.149335,11.2348,5,0.0102657,10,0.00167775,-1.94943,-0.507191,-0.116327,-50.8043,0.149335,
2,1,0,1,0,9064.56,0.151616,0.151319,11.0897,5,0.010489,10,0.00167808,-1.95508,-0.276358,-0.213491,-92.0675,0.151319,
2,1,0,1,0,9064.58,0.153614,0.153327,10.8672,5,0.0107087,10,0.00166624,-1.96388,-0.189146,-0.311929,-131.797,0.153327,
2,1,0,1,0,9064.6,0.155611,0.155282,10.5674,5,0.0109231,10,0.00164093,-1.97603,-0.145674,-0.405015,-166.475,0.155282,
2,1,0,1,0,9064.62,0.157609,0.157312,10.2039,5,0.0111298,10,0.00160519,-1.99123,-0.114231,-0.516497,-204.6,0.157312,
2,1,0,1,0,9064.64,0.159607,0.159306,9.74406,5,0.0113293,10,0.00155229,-2.01126,-0.0941561,-0.626619,-237.687,0.159306,
2,1,0,1,0,9064.66,0.161604,0.161323,9.25046,5,0.0115192,10,0.00149231,-2.03384,-0.0836218,-0.705558,-254.067,0.161323,
2,1,0,1,0,9064.68,0.163602,0.163304,8.72821,5,0.0116989,10,0.00142535,-2.05907,-0.0768703,-0.767527,-261.311,0.163304,
2,1,0,1,0,9064.7,0.165606,0.165277,8.21732,5,0.0118682,10,0.00135813,-2.08527,-0.075454,-0.781933,-250.946,0.165277,
2,1,0,1,0,9064.72,0.167597,0.167249,7.7383,5,0.0120269,10,0.00129422,-2.11135,-0.0788226,-0.748516,-226.489,0.167249,
2,1,0,1,0,9064.74,0.169595,0.169296,7.30694,5,0.0121772,10,0.00123704,-2.13626,-0.0824819,-0.715309,-204.267,0.169296,
2,1,0,1,0,9064.76,0.171592,0.171296,6.91156,5,0.0123193,10,0.00118392,-2.16042,-0.0878851,-0.671331,-181.786,0.171296,
2,1,0,1,0,9064.78,0.173581,0.173281,6.58252,5,0.0124535,10,0.00114063,-2.18161,-0.099982,-0.590106,-152.093,0.173281,
2,1,0,1,0,9064.8,0.175587,0.175278,6.30596,5,0.0125824,10,0.0011053,-2.20025,-0.111205,-0.530551,-130.781,0.175278,
2,1,0,1,0,9064.82,0.177585,0.177299,6.05711,5,0.0127059,10,0.00107392,-2.21773,-0.119989,-0.49171,-116.497,0.177299,
2,1,0,1,0,9064.84,0.179582,0.179265,5.84148,5,0.0128248,10,0.00104717,-2.23348,-0.136253,-0.433019,-98.977,0.179265,
2,1,0,1,0,9064.86,0.18158,0.1813,5.66102,5,0.0129397,10,0.00102635,-2.24711,-0.153995,-0.383128,-84.7554,0.1813,
2,1,0,1,0,9064.88,0.183578,0.183309,5.49875,5,0.0130508,10,0.00100797,-2.25974,-0.169352,-0.348386,-74.9073,0.183309,
2,1,0,1,0,9064.9,0.185575,0.185314,5.3604,5,0.0131594,10,0.000993356,-2.2708,-0.180488,-0.326891,-68.4075,0.185314,
2,1,0,1,0,9064.92,0.187573,0.18727,5.22779,5,0.0132652,10,0.000979007,-2.28168,-0.195339,-0.302039,-61.7321,0.18727,
2,1,0,1,0,9064.94,0.18957,0.18928,5.11557,5,0.0133687,10,0.000968274,-2.29111,-0.22278,-0.264835,-52.9383,0.18928,
2,1,0,1,0,9064.96,0.191568,0.191243,5.01744,5,0.0134696,10,0.000959551,-2.29952,-0.241269,-0.24454,-47.8983,0.191243,
2,1,0,1,0,9064.98,0.193566,0.193292,4.92341,5,0.013569,10,0.000951653,-2.30773,-0.265566,-0.222167,-42.7563,0.193292,
2,1,0,1,0,9065,0.195563,0.195252,4.84606,5,0.0136667,10,0.0009462,-2.31461,-0.267355,-0.220681,-41.6874,0.195252,
2,1,0,1,0,9065.02,0.197561,0.197254,4.75823,5,0.0137628,10,0.000938579,-2.32255,-0.301393,-0.195758,-36.4598,0.197254,
2,1,0,1,0,9065.04,0.199558,0.199274,4.69938,5,0.0138569,10,0.000936467,-2.32796,-0.360019,-0.16388,-30.0441,0.199274,
2,1,0,1,0,9065.06,0.201556,0.201278,4.63734,5,0.0139503,10,0.000933393,-2.33373,-0.342538,-0.172244,-31.1706,0.201278,
2,1,0,1,0,9065.08,0.203553,0.203259,4.57519,5,0.0140424,10,0.000929948,-2.33959,-0.353292,-0.167001,-29.8328,0.203259,
2,1,0,1,0,9065.1,0.205551,0.205284,4.51783,5,0.0141333,10,0.000927437,-2.34507,-0.503327,-0.11722,-20.7394,0.205284,
2,1,0,1,0,9065.12,0.207549,0.20727,4.49199,5,0.0142229,10,0.000931057,-2.34756,-0.481403,-0.122558,-21.4041,0.2072705,
2,1,0,1,0,9065.14,0.209546,0.209276,4.43237,5,0.0143121,10,0.00092759,-2.35336,-0.35893,-0.164378,-28.4522,0.209276,
2,1,0,1,0,9065.16,0.211544,0.211248,4.37882,5,0.0144002,10,0.000925017,-2.35864,-0.453382,-0.130133,-22.286,0.211248,
2,1,0,1,0,9065.18,0.213541,0.213231,4.34423,5,0.0144875,10,0.000926326,-2.36209,-0.670787,-0.0879564,-14.9287,0.213231,
2,1,0,1,0,9065.2,0.215539,0.215232,4.31934,5,0.0145737,10,0.000929661,-2.36458,-0.563175,-0.104763,-17.6168,0.215232,
2,1,0,1,0,9065.22,0.217537,0.217245,4.27353,5,0.0146597,10,0.000928401,-2.36921,-0.528554,-0.111625,-18.6526,0.217245,
2,1,0,1,0,9065.24,0.219534,0.219259,4.24423,5,0.0147449,10,0.000930586,-2.3722,-0.688963,-0.0856359,-14.187,0.2192589,
2,1,0,1,0,9065.26,0.221532,0.221268,4.21644,5,0.0148296,10,0.000932965,-2.37505,-0.711005,-0.0829812,-13.6568,0.221268,
2,1,0,1,0,9065.28,0.223525,0.223237,4.18991,5,0.0149133,10,0.000935341,-2.3778,-0.766574,-0.0769659,-12.5892,0.223237,
2,1,0,1,0,9065.3,0.225527,0.225275,4.166,5,0.0149969,10,0.000938496,-2.38028,-0.752422,-0.0784134,-12.744,0.225275,
2,1,0,1,0,9065.32,0.227525,0.227235,4.13896,5,0.01508,10,0.000940515,-2.38311,-0.663175,-0.0889659,-14.366,0.227235,
2,1,0,1,0,9065.34,0.229522,0.229221,4.10932,5,0.0151626,10,0.000941941,-2.38623,-0.819589,-0.0719873,-11.5626,0.229221,
2,1,0,1,0,9065.36,0.23152,0.231261,4.0924,5,0.0152448,10,0.000946414,-2.38802,-1.57559,-0.0374463,-5.98767,0.2312611,
2,1,0,1,0,9065.38,0.233517,0.233272,4.08506,5,0.0153263,10,0.00095293,-2.3888,-1.00936,-0.0584531,-9.29367,0.2332719,
2,1,0,1,0,9065.4,0.235515,0.235225,4.05556,5,0.0154078,10,0.000953971,-2.39195,-0.777705,-0.0758643,-12.0243,0.235225,
2,1,0,1,0,9065.42,0.237512,0.237223,4.03755,5,0.0154888,10,0.0009578,-2.39388,-1.18062,-0.0499736,-7.87881,0.237223,
2,1,0,1,0,9065.44,0.23951,0.239228,4.02403,5,0.0155695,10,0.000962658,-2.39534,-1.95864,-0.0301229,-4.73544,0.239228,
2,1,0,1,0,9065.46,0.241508,0.241214,4.01865,5,0.0156497,10,0.000969354,-2.39592,-1.32129,-0.0446535,-6.98848,0.241214,
2,1,0,1,0,9065.48,0.243505,0.243186,3.99636,5,0.0157297,10,0.000971861,-2.39834,-1.21189,-0.0486842,-7.60658,0.243186,
2,1,0,1,0,9065.5,0.245503,0.245197,3.98835,5,0.0158096,10,0.000977932,-2.39921,-1.20144,-0.0491078,-7.63014,0.245197,
2,1,0,1,0,9065.52,0.2475,0.247144,3.96617,5,0.0158892,10,0.000980214,-2.40163,-1.14723,-0.051428,-7.97287,0.247144,
2,1,0,1,0,9065.54,0.249498,0.249199,3.95645,5,0.0159681,10,0.000985942,-2.40269,-1.68356,-0.0350449,-5.40937,0.2491986,
2,1,0,1,0,9065.56,0.251496,0.251228,3.94407,5,0.0160472,10,0.000990861,-2.40405,-1.34868,-0.0437466,-6.7316,0.251228,
2,1,0,1,0,9065.58,0.253493,0.253235,3.92928,5,0.016126,10,0.00099503,-2.40569,-1.02201,-0.0577296,-8.84629,0.253235,
2,1,0,1,0,9065.6,0.255491,0.255209,3.90886,5,0.0162045,10,0.000997574,-2.40795,-1.6312,-0.0361697,-5.53099,0.255209,
2,1,0,1,0,9065.62,0.257488,0.257215,3.90727,5,0.0162824,10,0.00100501,-2.40813,-3.50646,-0.0168261,-2.56348,0.257215,
2,1,0,1,0,9065.64,0.259486,0.259187,3.89866,5,0.0163606,10,0.00101048,-2.40908,-1.27626,-0.0462289,-7.02405,0.259187,
2,1,0,1,0,9065.66,0.261484,0.261206,3.87923,5,0.0164385,10,0.00101328,-2.41125,-1.39786,-0.0422072,-6.40068,0.261206,
2,1,0,1,0,9065.68,0.263481,0.263215,3.87288,5,0.016516,10,0.0010194,-2.41197,-3.77138,-0.0156441,-2.36555,0.263215,
2,1,0,1,0,9065.7,0.265479,0.2652,3.86978,5,0.0165932,10,0.00102627,-2.41231,-1.94643,-0.0303119,-4.57086,0.2652,
2,1,0,1,0,9065.72,0.267476,0.267156,3.85486,5,0.0166705,10,0.00102985,-2.41399,-1.08339,-0.0544586,-8.19027,0.267156,
2,1,0,1,0,9065.74,0.269474,0.269143,3.83749,5,0.0167475,10,0.00103283,-2.41595,-2.17221,-0.0271613,-4.07754,0.269143,
2,1,0,1,0,9065.76,0.271471,0.271176,3.83847,5,0.0168243,10,0.0010409,-2.41584,-47.5464,-0.00124089,-0.185824,0.271176,
2,1,0,1,0,9065.78,0.273469,0.273186,3.83674,5,0.0169007,10,0.00104814,-2.41604,-1.13747,-0.0518693,-7.73879,0.273186,
2,1,0,1,0,9065.8,0.275467,0.275181,3.80748,5,0.0169771,10,0.00104775,-2.41936,-1.05163,-0.0561036,-8.36406,0.275181,
2,1,0,1,0,9065.82,0.277464,0.277185,3.80329,5,0.0170533,10,0.00105422,-2.41984,-2.32187,-0.0254106,-3.7683,0.277185,
2,1,0,1,0,9065.84,0.279462,0.279219,3.79226,5,0.0171293,10,0.00105887,-2.4211,-1.34005,-0.0440281,-6.51283,0.279219,
2,1,0,1,0,9065.86,0.281464,0.281161,3.77739,5,0.0172051,10,0.00106206,-2.42281,-1.67387,-0.0352476,-5.20245,0.2811614,
2,1,0,1,0,9065.88,0.283457,0.283181,3.77165,5,0.0172804,10,0.00106806,-2.42347,-2.48781,-0.0237156,-3.48966,0.283181,
2,1,0,1,0,9065.9,0.285455,0.285177,3.76338,5,0.0173558,10,0.00107323,-2.42442,-1.15162,-0.0512321,-7.5114,0.285177,
2,1,0,1,0,9065.92,0.287452,0.287135,3.74195,5,0.017431,10,0.00107444,-2.4269,-1.37334,-0.0429609,-6.28887,0.287135,
2,1,0,1,0,9065.94,0.28945,0.289143,3.73844,5,0.0175059,10,0.00108094,-2.42731,-3.30378,-0.0178583,-2.60437,0.289143,
2,1,0,1,0,9065.96,0.291447,0.291103,3.73161,5,0.0175805,10,0.00108628,-2.4281,-1.27319,-0.0463402,-6.73651,0.291103,
2,1,0,1,0,9065.98,0.293445,0.293163,3.71136,5,0.017655,10,0.00108803,-2.43047,-1.24234,-0.047491,-6.89046,0.293163,
2,1,0,1,0,9066,0.295442,0.29514,3.70379,5,0.0177293,10,0.00109314,-2.43135,-3.29863,-0.0178862,-2.58709,0.29514,
2,1,0,1,0,9066.02,0.29744,0.297149,3.70105,5,0.0178035,10,0.00109976,-2.43168,-2.25264,-0.0261914,-3.77814,0.297149,
2,1,0,1,0,9066.03,0.299438,0.299161,3.6886,5,0.0178772,10,0.00110349,-2.43314,-0.0247237,-2.38637,-310.291,0.299161,
2,1,0,1,0,9066.04,0.299737,0.299448,2.98779,5,0.0179069,10,0.000894687,-2.52465,0.00187579,31.4534,1900.85,0.299448,
2,1,0,1,0,9066.06,0.29774,0.297461,0.457922,5,0.0179365,10,0.000136214,-3.33921,0.00520845,11.3278,878.641,0.297461,
2,0,0,1,0,9066.08,0.295742,0.295463,-0.513243,5,0.0179345,10,-0.000151645,-3.28968,-0.0121304,-4.86383,358.86,0.295463,
2,0,0,1,0,9066.1,0.293745,0.293456,-0.979469,5,0.017919,10,-0.000287431,-3.00901,-0.0105446,-5.5953,179.652,0.293456,
2,0,0,1,0,9066.12,0.291747,0.291435,-1.23692,5,0.0178966,10,-0.000360483,-2.90766,-0.0250881,-2.35171,108.699,0.291435,
2,0,0,1,0,9066.14,0.289754,0.28944,-1.41598,5,0.0178702,10,-0.000409841,-2.84894,-0.0427877,-1.3789,74.2908,0.28944,
2,0,0,1,0,9066.16,0.287752,0.287426,-1.5348,5,0.0178405,10,-0.000441139,-2.81395,-0.0650099,-0.907555,53.8602,0.287426,
2,0,0,1,0,9066.18,0.285754,0.28546,-1.63037,5,0.0178088,10,-0.000465406,-2.78771,-0.0813132,-0.72559,46.0072,0.28546,
2,0,0,1,0,9066.2,0.283757,0.283443,-1.71803,5,0.0177751,10,-0.000486963,-2.76497,-0.0965771,-0.610911,40.7938,0.2834428,
2,0,0,1,0,9066.22,0.281759,0.281442,-1.79426,5,0.0177398,10,-0.00050498,-2.74611,-0.112056,-0.526522,36.7928,0.281442,
2,0,0,1,0,9066.24,0.279761,0.279447,-1.86505,5,0.0177032,10,-0.000521182,-2.72931,-0.127485,-0.4628,33.5985,0.279447,
2,0,0,1,0,9066.26,0.277764,0.277469,-1.92776,5,0.0176652,10,-0.000534894,-2.71495,-0.151519,-0.38939,29.2224,0.277469,
2,0,0,1,0,9066.28,0.275766,0.275444,-1.98203,5,0.017626,10,-0.000545939,-2.70289,-0.180533,-0.326811,25.2239,0.275444,
2,0,0,1,0,9066.3,0.273769,0.273478,-2.02841,5,0.0175857,10,-0.000554726,-2.69284,-0.175602,-0.335986,26.6776,0.273478,
2,0,0,1,0,9066.32,0.271771,0.271475,-2.08792,5,0.0175445,10,-0.000566817,-2.68029,-0.175542,-0.336101,27.3292,0.2714746,
2,0,0,1,0,9066.34,0.269774,0.269411,-2.13958,5,0.0175021,10,-0.000576426,-2.66967,-0.211977,-0.278332,23.1853,0.269411,
2,0,0,1,0,9066.36,0.267776,0.267431,-2.18167,5,0.0174588,10,-0.000583446,-2.66121,-0.232577,-0.253679,21.6043,0.267431,
2,0,0,1,0,9066.38,0.265778,0.265441,-2.22535,5,0.0174148,10,-0.000590698,-2.6526,-0.234513,-0.251585,21.843,0.265441,
2,0,0,1,0,9066.4,0.263781,0.263469,-2.26821,5,0.01737,10,-0.000597603,-2.64432,-0.247635,-0.238254,21.0774,0.263469,
2,0,0,1,0,9066.42,0.261783,0.261483,-2.30877,5,0.0173241,10,-0.000603703,-2.63662,-0.307234,-0.192036,17.2568,0.261483,
2,0,0,1,0,9066.44,0.259786,0.259465,-2.33731,5,0.0172777,10,-0.000606449,-2.63128,-0.295977,-0.19934,18.2441,0.259465,
2,0,0,1,0,9066.46,0.257788,0.257478,-2.38184,5,0.0172304,10,-0.00061327,-2.62309,-0.266035,-0.221775,20.581,0.257478,
2,0,0,1,0,9066.48,0.25579,0.2555,-2.41892,5,0.0171826,10,-0.000618033,-2.61638,-0.347806,-0.169635,15.9777,0.2555,
2,0,0,1,0,9066.5,0.253793,0.253506,-2.4453,5,0.0171338,10,-0.000619897,-2.61167,-0.381422,-0.154684,14.7821,0.253506,
2,0,0,1,0,9066.52,0.251795,0.251461,-2.47862,5,0.0170845,10,-0.000623276,-2.60579,-0.35293,-0.167172,16.1645,0.251461,
2,0,0,1,0,9066.54,0.249798,0.249488,-2.51024,5,0.0170345,10,-0.000626276,-2.60028,-0.360779,-0.163535,16.0223,0.249488,
2,0,0,1,0,9066.56,0.2478,0.247472,-2.54254,5,0.0169841,10,-0.000629206,-2.59473,-0.377923,-0.156116,15.4807,0.247472,
2,0,0,1,0,9066.58,0.245802,0.245519,-2.57168,5,0.0169328,10,-0.000631398,-2.58978,-0.384547,-0.153427,15.407,0.2455193,
2,0,0,1,0,9066.6,0.243805,0.243492,-2.60385,5,0.0168809,10,-0.000634017,-2.58438,-0.448469,-0.131559,13.3415,0.243492,
2,0,0,1,0,9066.62,0.241807,0.241487,-2.62548,5,0.0168285,10,-0.00063402,-2.58079,-0.370949,-0.159052,16.3653,0.241487,
2,0,0,1,0,9066.64,0.23981,0.239489,-2.66935,5,0.0167758,10,-0.000639282,-2.57359,-0.359447,-0.164141,17.0337,0.239489,
2,0,0,1,0,9066.66,0.237812,0.237527,-2.69293,5,0.0167221,10,-0.000639645,-2.56977,-0.582919,-0.101215,10.6278,0.237527,
2,0,0,1,0,9066.68,0.235815,0.235495,-2.7118,5,0.0166678,10,-0.000638617,-2.56674,-0.529323,-0.111463,11.8172,0.235495,
2,0,0,1,0,9066.7,0.233817,0.233515,-2.74034,5,0.0166132,10,-0.000639912,-2.5622,-0.385476,-0.153058,16.3935,0.233515,
2,0,0,1,0,9066.72,0.231815,0.231499,-2.77732,5,0.0165579,10,-0.000642946,-2.55637,-0.384312,-0.153521,16.6177,0.231499,
2,0,0,1,0,9066.74,0.229822,0.2295,-2.80706,5,0.0165022,10,-0.000644221,-2.55175,-0.571539,-0.10323,11.2798,0.2295,
2,0,0,1,0,9066.76,0.227824,0.227495,-2.82248,5,0.0164458,10,-0.000642101,-2.54937,-0.559134,-0.10552,11.6546,0.227495,
2,0,0,1,0,9066.78,0.225827,0.225541,-2.8532,5,0.0163889,10,-0.000643515,-2.54467,-0.458088,-0.128796,14.3312,0.2255411,
2,0,0,1,0,9066.8,0.223829,0.223483,-2.87997,5,0.0163314,10,-0.000643626,-2.54061,-0.496088,-0.118931,13.3661,0.223483,
2,0,0,1,0,9066.82,0.221831,0.221565,-2.90635,5,0.0162737,10,-0.000643945,-2.53665,-0.466445,-0.126489,14.3547,0.221565,
2,0,0,1,0,9066.84,0.219834,0.219579,-2.93602,5,0.0162151,10,-0.000644688,-2.53224,-0.482624,-0.122248,14.0012,0.219579,
2,0,0,1,0,9066.86,0.217836,0.217506,-2.96319,5,0.016156,10,-0.00064451,-2.52824,-0.576492,-0.102343,11.8226,0.217506,
2,0,0,1,0,9066.88,0.215839,0.215513,-2.98409,5,0.0160964,10,-0.00064311,-2.52519,-0.493551,-0.119542,13.953,0.2155132,
2,0,0,1,0,9066.9,0.213841,0.213538,-3.01855,5,0.0160365,10,-0.000644574,-2.5202,-0.440349,-0.133985,15.7658,0.213538,
2,0,0,1,0,9066.92,0.211843,0.211569,-3.04627,5,0.0159757,10,-0.000644497,-2.51623,-0.545328,-0.108192,12.8537,0.211569,
2,0,0,1,0,9066.94,0.209846,0.209538,-3.06996,5,0.0159144,10,-0.000643274,-2.51287,-0.555509,-0.106209,12.7332,0.209538,
2,0,0,1,0,9066.96,0.207848,0.207528,-3.09773,5,0.0158526,10,-0.000642865,-2.50896,-0.368983,-0.159899,19.3982,0.207528,
2,0,0,1,0,9066.98,0.205851,0.205546,-3.1474,5,0.0157903,10,-0.000646935,-2.50205,-0.429403,-0.1374,16.7907,0.205546,
2,0,0,1,0,9067,0.203853,0.203521,-3.165,5,0.0157271,10,-0.000644145,-2.49963,-0.684025,-0.0862542,10.6672,0.203521,
2,0,0,1,0,9067.02,0.201856,0.201507,-3.19049,5,0.0156634,10,-0.000642904,-2.49614,-0.541733,-0.10891,13.5669,0.201507,
2,0,0,1,0,9067.04,0.199858,0.199543,-3.21897,5,0.0155992,10,-0.000642324,-2.49228,-0.430657,-0.137,17.2417,0.199543,
2,0,0,1,0,9067.06,0.19786,0.197519,-3.25924,5,0.0155346,10,-0.000643762,-2.48688,-0.472204,-0.124946,15.85,0.197519,
2,0,0,1,0,9067.08,0.195863,0.195557,-3.28215,5,0.0154691,10,-0.000641848,-2.48384,-0.460081,-0.128238,16.4753,0.195557,
2,0,0,1,0,9067.1,0.193865,0.193537,-3.32484,5,0.0154029,10,-0.00064348,-2.47823,-0.419164,-0.140756,18.2308,0.193537,
2,0,0,1,0,9067.12,0.191868,0.191527,-3.35562,5,0.015336,10,-0.000642692,-2.47423,-0.42081,-0.140206,18.3914,0.1915271,
2,0,0,1,0,9067.14,0.18987,0.189577,-3.39767,5,0.0152688,10,-0.000644121,-2.46882,-0.421458,-0.13999,18.5341,0.189577,
2,0,0,1,0,9067.16,0.187872,0.187541,-3.42951,5,0.0152004,10,-0.000643172,-2.46477,-0.432765,-0.136333,18.2734,0.187541,
2,0,0,1,0,9067.18,0.185875,0.185538,-3.47148,5,0.0151313,10,-0.000644092,-2.45949,-0.43311,-0.136224,18.4281,0.185538,
2,0,0,1,0,9067.2,0.183877,0.183536,-3.5033,5,0.0150614,10,-0.000642983,-2.45552,-0.327303,-0.180261,24.765,0.183536,
2,0,0,1,0,9067.22,0.18188,0.181581,-3.56948,5,0.014991,10,-0.00064815,-2.4474,-0.310846,-0.189804,26.3331,0.181581,
2,0,0,1,0,9067.24,0.179882,0.179595,-3.6071,5,0.0149191,10,-0.000647815,-2.44284,-0.3936,-0.149898,21.1288,0.179595,
2,0,0,1,0,9067.26,0.177885,0.177567,-3.65429,5,0.0148463,10,-0.000648881,-2.4372,-0.350022,-0.168561,24.0479,0.177567,
2,0,0,1,0,9067.28,0.175887,0.175544,-3.70451,5,0.0147726,10,-0.000650304,-2.43127,-0.278195,-0.212081,30.7476,0.175544,
2,0,0,1,0,9067.3,0.173896,0.173604,-3.77614,5,0.0146981,10,-0.000655553,-2.42295,-0.259984,-0.226937,33.3936,0.173604,
2,0,0,1,0,9067.32,0.171892,0.171571,-3.83719,5,0.0146218,10,-0.000658349,-2.41599,-0.274038,-0.215298,32.2748,0.1715707,
2,0,0,1,0,9067.34,0.169894,0.169554,-3.90685,5,0.0145443,10,-0.000662423,-2.40817,-0.249625,-0.236355,36.0575,0.169554,
2,0,0,1,0,9067.36,0.167897,0.167562,-3.98173,5,0.0144654,10,-0.000667187,-2.39993,-0.226509,-0.260475,40.5319,0.167562,
2,0,0,1,0,9067.38,0.165899,0.165563,-4.06862,5,0.0143848,10,-0.000673612,-2.39055,-0.211709,-0.278684,44.2583,0.165563,
2,0,0,1,0,9067.4,0.163901,0.163576,-4.15813,5,0.0143028,10,-0.000680172,-2.3811,-0.196895,-0.299651,48.7031,0.163576,
2,0,0,1,0,9067.42,0.161904,0.161589,-4.26214,5,0.0142185,10,-0.000688717,-2.37037,-0.183171,-0.322103,53.5986,0.161589,
2,0,0,1,0,9067.44,0.159906,0.159601,-4.37122,5,0.0141321,10,-0.000697649,-2.3594,-0.175224,-0.336711,57.5009,0.159601,
2,0,0,1,0,9067.46,0.157909,0.157603,-4.49138,5,0.0140434,10,-0.000707854,-2.34762,-0.152646,-0.386514,67.9593,0.157603,
2,0,0,1,0,9067.48,0.155911,0.155616,-4.64202,5,0.0139524,10,-0.000722372,-2.33329,-0.135595,-0.435121,78.8906,0.1556159,
2,0,0,1,0,9067.5,0.153913,0.153646,-4.80353,5,0.0138577,10,-0.000738043,-2.31844,-0.138308,-0.426584,79.9377,0.153646,
2,0,0,1,0,9067.52,0.151916,0.151579,-4.96473,5,0.0137599,10,-0.000752548,-2.3041,-0.123299,-0.478513,93.1451,0.151579,
2,0,0,1,0,9067.54,0.149918,0.149641,-5.17656,5,0.0136583,10,-0.000774627,-2.28596,-0.107731,-0.547663,110.783,0.149641,
2,0,0,1,0,9067.56,0.147921,0.147578,-5.40799,5,0.0135529,10,-0.000798099,-2.26696,-0.10808,-0.545894,115.173,0.147578,
2,0,0,1,0,9067.58,0.145923,0.145598,-5.64222,5,0.0134422,10,-0.000821496,-2.24855,-0.0987629,-0.59739,132.052,0.145598,
2,0,0,1,0,9067.6,0.143926,0.14364,-5.92799,5,0.0133264,10,-0.000851496,-2.22709,-0.0907703,-0.649992,150.583,0.14364,
2,0,0,1,0,9067.62,0.141928,0.141627,-6.24012,5,0.0132045,10,-0.000883773,-2.20481,-0.0896903,-0.65782,160.365,0.141627,
2,0,0,1,0,9067.64,0.13993,0.139597,-6.57629,5,0.0130769,10,-0.000918032,-2.18202,-0.0879492,-0.670842,172.246,0.139597,
2,0,0,1,0,9067.66,0.137933,0.137622,-6.93009,5,0.0129418,10,-0.000953731,-2.15926,-0.0868203,-0.679565,183.905,0.137622,
2,0,0,1,0,9067.68,0.135935,0.135635,-7.30499,5,0.0127994,10,-0.000990811,-2.13638,-0.0906623,-0.650766,185.181,0.135635,
2,0,0,1,0,9067.7,0.133938,0.133653,-7.66496,5,0.0126494,10,-0.00102445,-2.11549,-0.0907903,-0.649849,194.89,0.133653,
2,0,0,1,0,9067.72,0.13194,0.131674,-8.07689,5,0.0124928,10,-0.00106352,-2.09276,-0.0928281,-0.635583,199.958,0.131674,
2,0,0,1,0,9067.74,0.129942,0.129622,-8.47099,5,0.0123272,10,-0.00109803,-2.07207,-0.101568,-0.580892,191.698,0.129622,
2,0,0,1,0,9067.76,0.127945,0.127659,-8.84655,5,0.0121539,10,-0.00112934,-2.05323,-0.110328,-0.534769,184.373,0.127659,
2,0,0,1,0,9067.78,0.125947,0.125627,-9.20765,5,0.0119733,10,-0.00115673,-2.03585,-0.117734,-0.501129,179.95,0.125627,
2,0,0,1,0,9067.8,0.12395,0.123667,-9.565,5,0.0117865,10,-0.00118287,-2.01931,-0.129167,-0.456774,170.079,0.123667,
2,0,0,1,0,9067.82,0.121952,0.121663,-9.88189,5,0.0115919,10,-0.00120226,-2.00516,-0.150949,-0.39086,150.455,0.121663,
2,0,0,1,0,9067.84,0.119955,0.119661,-10.1678,5,0.0113912,10,-0.00121668,-1.99278,-0.168502,-0.350143,138.763,0.1196606,
2,0,0,1,0,9067.86,0.117957,0.117696,-10.4323,5,0.0111851,10,-0.00122784,-1.98162,-0.188519,-0.312966,127.281,0.117696,
2,0,0,1,0,9067.88,0.115955,0.115651,-10.6782,5,0.0109738,10,-0.00123493,-1.9715,-0.217952,-0.270702,112.605,0.115651,
2,0,0,1,0,9067.9,0.113962,0.113647,-10.8883,5,0.0107589,10,-0.00123742,-1.96304,-0.262109,-0.225097,95.4859,0.1136467,
2,0,0,1,0,9067.92,0.111964,0.111621,-11.0629,5,0.0105393,10,-0.00123485,-1.95613,-0.308363,-0.191333,82.5323,0.111621,
2,0,0,1,0,9067.94,0.109967,0.109641,-11.2189,5,0.0103163,10,-0.00123005,-1.95005,-0.379857,-0.155322,67.8759,0.109641,
2,0,0,1,0,9067.96,0.107969,0.107641,-11.3331,5,0.0100906,10,-0.0012199,-1.94565,-0.500013,-0.117997,52.1387,0.107641,
2,0,0,1,0,9067.98,0.105971,0.105671,-11.4259,5,0.00986396,10,-0.00120738,-1.94211,-0.697774,-0.0845546,37.6462,0.105671,
2,0,0,1,0,9068,0.103974,0.103637,-11.4838,5,0.00963468,10,-0.00119015,-1.93991,-1.17968,-0.0500134,22.3894,0.103637,
2,0,0,1,0,9068.02,0.101976,0.101656,-11.5158,5,0.00940459,10,-0.00117065,-1.93871,-4.5317,-0.0130194,5.84094,0.101656,
2,0,0,1,0,9068.04,0.0999786,0.099635,-11.5072,5,0.00917432,10,-0.00114652,-1.93903,3.74875,0.0157386,-7.06465,0.099635,
2,0,0,1,0,9068.06,0.0979811,0.0976756,-11.4876,5,0.00894539,10,-0.00112206,-1.93977,1.38111,0.0427191,-19.1213,0.0976756,
2,0,0,1,0,9068.08,0.0959835,0.0956598,-11.4312,5,0.00871605,10,-0.0010935,-1.94191,0.686544,0.0859377,-38.2687,0.0956598,
2,0,0,1,0,9068.1,0.0939859,0.0936419,-11.3333,5,0.00848828,10,-0.00106127,-1.94564,0.512104,0.115211,-50.9353,0.0936419,
2,0,0,1,0,9068.12,0.0919883,0.0916286,-11.2259,5,0.00826256,10,-0.00102861,-1.94978,0.451625,0.130639,-57.204,0.0916286,
2,0,0,1,0,9068.14,0.0899907,0.0896909,-11.1073,5,0.00804017,10,-0.000996221,-1.95439,0.345762,0.170638,-73.7964,0.0896909,
2,0,0,1,0,9068.16,0.0879931,0.0877318,-10.9383,5,0.00781957,10,-0.000959636,-1.96105,0.305575,0.193078,-82.4429,0.0877318,
2,0,0,1,0,9068.18,0.0859955,0.0856769,-10.7763,5,0.00760232,10,-0.000923284,-1.96753,0.299972,0.196685,-82.6715,0.0856769,
2,0,0,1,0,9068.2,0.083998,0.0836849,-10.6037,5,0.00738845,10,-0.000887371,-1.97454,0.285655,0.206543,-85.4789,0.0836849,
2,0,0,1,0,9068.22,0.0820004,0.081675,-10.4343,5,0.00717903,10,-0.000852219,-1.98154,0.282418,0.20891,-85.0664,0.08167503,
2,0,0,1,0,9068.24,0.0800028,0.079707,-10.2653,5,0.00697202,10,-0.000818218,-1.98863,0.284309,0.207521,-83.1564,0.079707,
2,0,0,1,0,9068.26,0.0780052,0.0776887,-10.1028,5,0.00676829,10,-0.000784872,-1.99556,0.300576,0.19629,-77.4403,0.0776887,
2,0,0,1,0,9068.28,0.0760076,0.0756887,-9.95415,5,0.00656758,10,-0.000753416,-2.002,0.340505,0.173272,-67.3947,0.07568866,
2,0,0,1,0,9068.3,0.07401,0.0736563,-9.83101,5,0.00637078,10,-0.000724116,-2.0074,0.37572,0.157032,-60.2548,0.0736563,
2,0,0,1,0,9068.32,0.0720124,0.0716503,-9.71082,5,0.00617535,10,-0.000695784,-2.01274,0.373695,0.157883,-59.8506,0.0716503,
2,0,0,1,0,9068.34,0.0700148,0.0697412,-9.59669,5,0.00598219,10,-0.000669285,-2.01788,0.400708,0.147239,-55.1684,0.0697412,
2,0,0,1,0,9068.36,0.0680173,0.0676732,-9.49141,5,0.00579128,10,-0.000642314,-2.02267,0.524374,0.112515,-41.7671,0.0676732,
2,0,0,1,0,9068.38,0.0660106,0.0656851,-9.42729,5,0.00560218,10,-0.000619232,-2.02561,0.555176,0.106273,-39.0452,0.0656851,
2,0,0,1,0,9068.4,0.0640221,0.0637275,-9.33735,5,0.00541545,10,-0.000595046,-2.02978,0.474763,0.124272,-45.2867,0.06372755,
2,0,0,1,0,9068.42,0.0620245,0.0617342,-9.24836,5,0.00522954,10,-0.00057094,-2.03394,0.522519,0.112915,-40.7863,0.0617342,
2,0,0,1,0,9068.44,0.0600269,0.0597271,-9.17419,5,0.00504524,10,-0.000547948,-2.03743,0.600944,0.0981788,-35.1631,0.05972711,
2,0,0,1,0,9068.46,0.0580361,0.0576919,-9.10622,5,0.00486327,10,-0.000525355,-2.04066,0.599594,0.0984,-34.9591,0.0576919,
2,0,0,1,0,9068.48,0.0560317,0.0556855,-9.0329,5,0.00468168,10,-0.000503002,-2.04417,0.583371,0.101136,-35.6627,0.0556855,
2,0,0,1,0,9068.5,0.0540342,0.0537269,-8.96482,5,0.00450162,10,-0.000481652,-2.04746,0.634904,0.0929274,-32.5226,0.0537269,
2,0,0,1,0,9068.52,0.0520366,0.051682,-8.90269,5,0.00432284,10,-0.000460109,-2.05048,0.590671,0.0998864,-34.6749,0.051682,
2,0,0,1,0,9068.54,0.050039,0.0497086,-8.82548,5,0.00414551,10,-0.000438703,-2.05426,0.556654,0.10599,-36.5263,0.0497086,
2,0,0,1,0,9068.56,0.0480414,0.0477291,-8.7583,5,0.00397041,10,-0.000418026,-2.05758,0.610526,0.0966381,-33.0378,0.0477291,
2,0,0,1,0,9068.58,0.0460438,0.0457481,-8.69464,5,0.00379582,10,-0.000397764,-2.06075,0.543787,0.108498,-36.7747,0.0457481,
2,0,0,1,0,9068.6,0.0440462,0.043746,-8.61183,5,0.00362269,10,-0.000376733,-2.0649,0.493878,0.119463,-40.1599,0.043746,
2,0,0,1,0,9068.62,0.0420486,0.0417361,-8.53351,5,0.00345122,10,-0.000356155,-2.06887,0.580718,0.101598,-33.8757,0.0417361,
2,0,0,1,0,9068.64,0.040051,0.0397246,-8.4756,5,0.00328189,10,-0.00033669,-2.07183,0.543057,0.108644,-35.8773,0.0397246,
2,0,0,1,0,9068.66,0.0380535,0.0377357,-8.38999,5,0.00311319,10,-0.000316602,-2.07624,0.428746,0.137611,-45.034,0.0377357,
2,0,0,1,0,9068.68,0.0360559,0.0357337,-8.29587,5,0.00294634,10,-0.000296442,-2.08114,0.428174,0.137794,-44.6381,0.0357337,
2,0,0,1,0,9068.7,0.0340583,0.0337455,-8.21188,5,0.0027812,10,-0.000277114,-2.08556,0.452378,0.130422,-41.8038,0.0337455,
2,0,0,1,0,9068.72,0.0320607,0.031782,-8.13068,5,0.00261848,10,-0.000258409,-2.08987,0.400123,0.147455,-46.7203,0.031782,
2,0,0,1,0,9068.74,0.0300631,0.0297696,-8.02612,5,0.00245688,10,-0.000238934,-2.09549,0.366724,0.160884,-50.4114,0.0297696,
2,0,0,1,0,9068.76,0.0280655,0.0277588,-7.92786,5,0.00229729,10,-0.000220068,-2.10084,0.370297,0.159331,-49.2899,0.0277588,
2,0,0,1,0,9068.78,0.0260679,0.0257525,-7.82812,5,0.00213965,10,-0.000201594,-2.10634,0.351729,0.167743,-51.2258,0.0257525,
2,0,0,1,0,9068.8,0.0240704,0.0237577,-7.7229,5,0.00198482,10,-0.000183478,-2.11222,0.341574,0.17273,-52.0621,0.0237577,
2,0,0,1,0,9068.82,0.0220728,0.0217353,-7.61897,5,0.00183136,10,-0.000165601,-2.1181,0.33183,0.177802,-52.8522,0.0217353,
2,0,0,1,0,9068.84,0.0200752,0.0197545,-7.51133,5,0.00168001,10,-0.000148383,-2.12428,0.31464,0.187516,-54.9539,0.0197545,
2,0,0,1,0,9068.86,0.0180776,0.0177612,-7.40058,5,0.00153077,10,-0.000131443,-2.13073,0.354658,0.166357,-48.1397,0.01776121,
2,0,0,1,0,9068.88,0.01608,0.0157599,-7.31903,5,0.00138431,10,-0.000115347,-2.13555,0.383581,0.153814,-43.8994,0.0157599,
2,0,0,1,0,9068.9,0.0140824,0.0137906,-7.22628,5,0.00123884,10,-9.96545e-05,-2.14109,0.358063,0.164775,-46.458,0.0137906,
2,0,0,1,0,9068.92,0.0120848,0.0117063,-7.13071,5,0.0010953,10,-8.34744e-05,-2.14687,0.356861,0.165331,-46.0243,0.0117063,
2,0,0,1,0,9068.94,0.0100872,0.00975319,-7.04046,5,0.000953669,10,-6.8667e-05,-2.1524,0.403885,0.146081,-40.1992,0.00975319,
2,0,0,1,0,9068.96,0.00809193,0.00776249,-6.97217,5,0.000814285,10,-5.41214e-05,-2.15663,0.442975,0.13319,-36.2253,0.00776249,
2,0,0,1,0,9068.98,0.00609208,0.00582513,-6.89816,5,0.000675551,10,-4.01827e-05,-2.16127,0.430516,0.137045,-36.8947,0.00582513,
2,0,0,1,0,9069,0.00409449,0.00376891,-6.82482,5,0.00053827,10,-2.57221e-05,-2.16591,1.05732,0.0558016,-14.9558,0.003768906,
2,0,0,1,0,9069.02,0.0020969,0.0017309,-6.83693,5,0.000402059,10,-1.18341e-05,-2.16514,0.921165,0.0640493,-16.9743,0.0017309,
2,0,0,1,0,9069.04,9.14991e-05,-0.000248541,-6.75663,5,0.000266174,10,1.6793e-06,-2.17027,0.503929,0.11708,-30.9559,-0.000248541,
2,0,0,1,0,9069.06,-0.00189827,-0.00227016,-6.71307,5,0.000132065,10,1.52397e-05,-2.17308,0.736976,0.0800569,-20.9778,-0.00227016,
2,0,0,1,0,9069.08,-0.00389586,-0.00428179,-6.67202,5,-1.76496e-06,10,2.85682e-05,-2.17574,0.871293,0.0677155,-17.6484,-0.00428179,
2,0,0,1,0,9069.1,-0.00589345,-0.00622663,-6.64325,5,-0.000134944,10,4.1365e-05,-2.17762,1.15024,0.0512939,-13.3032,-0.00622663,
2,0,0,1,0,9069.12,-0.00789103,-0.00826773,-6.619,5,-0.000267608,10,5.47241e-05,-2.17921,2.11188,0.0279372,-7.22727,-0.00826773,
2,0,0,1,0,9069.14,-0.00988862,-0.0102494,-6.61418,5,-0.000399423,10,6.77915e-05,-2.17952,7.57443,0.00778937,-2.01092,-0.01024943,
2,0,0,1,0,9069.16,-0.0118862,-0.0122545,-6.61098,5,-0.000531751,10,8.1014e-05,-2.17973,4.58937,0.0128558,-3.31516,-0.0122545,
2,0,0,1,0,9069.18,-0.0138838,-0.0142304,-6.60098,5,-0.000663983,10,9.39348e-05,-2.18039,20.0597,0.00294122,-0.75868,-0.0142304,
2,0,0,1,0,9069.2,-0.0158814,-0.0161982,-6.60799,5,-0.000796151,10,0.000107037,-2.17993,-1.9178,-0.0307645,7.94443,-0.0161982,
2,0,0,1,0,9069.22,-0.017879,-0.0182234,-6.6327,5,-0.00092808,10,0.000120871,-2.17831,-1.76347,-0.0334568,8.65092,-0.0182234,
2,0,0,1,0,9069.24,-0.0198766,-0.0202334,-6.6429,5,-0.00106092,10,0.000134408,-2.17764,-1.83961,-0.032072,8.32286,-0.0202334,
2,0,0,1,0,9069.26,-0.0218741,-0.0222438,-6.66616,5,-0.001194,10,0.000148281,-2.17612,-1.29618,-0.0455185,11.8428,-0.0222438,
2,0,0,1,0,9069.28,-0.0238717,-0.024238,-6.69032,5,-0.00132759,10,0.00016216,-2.17455,-0.958954,-0.0615254,16.0834,-0.024238,
2,0,0,1,0,9069.3,-0.0258693,-0.0262381,-6.7304,5,-0.00146122,10,0.000176593,-2.17196,-1.0146,-0.0581511,15.2525,-0.0262381,
2,0,0,1,0,9069.32,-0.0278669,-0.0282362,-6.7513,5,-0.00159601,10,0.000190631,-2.17061,-1.10847,-0.0532268,14.0385,-0.0282362,
2,0,0,1,0,9069.34,-0.0298645,-0.0301957,-6.78596,5,-0.00173145,10,0.000204907,-2.16839,-0.840609,-0.0701872,18.5943,-0.0301957,
2,0,0,1,0,9069.36,-0.0318621,-0.0322181,-6.82535,5,-0.00186766,10,0.0002199,-2.16588,-0.728775,-0.0809578,21.5765,-0.03221808,
2,0,0,1,0,9069.38,-0.0338597,-0.0341958,-6.87227,5,-0.00200399,10,0.000235003,-2.1629,-0.695581,-0.0848212,22.7435,-0.0341958,
2,0,0,1,0,9069.4,-0.0358573,-0.0362,-6.91591,5,-0.00214195,10,0.000250355,-2.16015,-0.672158,-0.087777,23.7031,-0.03619995,
2,0,0,1,0,9069.42,-0.0378548,-0.0381718,-6.96651,5,-0.00228087,10,0.000265924,-2.15698,-0.71933,-0.0820207,22.2815,-0.0381718,
2,0,0,1,0,9069.44,-0.0398524,-0.0402357,-7.00583,5,-0.00242069,10,0.000281884,-2.15454,-0.589419,-0.100099,27.4315,-0.04023568,
2,0,0,1,0,9069.46,-0.04185,-0.0422242,-7.07768,5,-0.00256083,10,0.000298849,-2.15011,-0.537128,-0.109843,30.2898,-0.0422242,
2,0,0,1,0,9069.48,-0.0438476,-0.0442045,-7.12604,5,-0.00270292,10,0.000315003,-2.14715,-0.679326,-0.0868508,24.1524,-0.0442045,
2,0,0,1,0,9069.5,-0.0458452,-0.046203,-7.17377,5,-0.00284602,10,0.00033145,-2.14425,-0.605454,-0.0974475,27.3068,-0.046203,
2,0,0,1,0,9069.52,-0.0478428,-0.0481816,-7.23465,5,-0.00299022,10,0.000348577,-2.14058,-0.462692,-0.127515,36.0582,-0.0481816,
2,0,0,1,0,9069.54,-0.0498495,-0.0502053,-7.31809,5,-0.00313573,10,0.000367407,-2.1356,-0.470589,-0.125375,35.7483,-0.0502053,
2,0,0,1,0,9069.56,-0.051838,-0.0521889,-7.3779,5,-0.00328199,10,0.000385045,-2.13207,-0.545204,-0.108216,31.165,-0.0521889,
2,0,0,1,0,9069.58,-0.0538355,-0.0541387,-7.44067,5,-0.00343015,10,0.000402829,-2.12839,-0.51071,-0.115525,33.5649,-0.0541387,
2,0,0,1,0,9069.6,-0.0558331,-0.0561786,-7.51181,5,-0.00357975,10,0.000422003,-2.12426,-0.47313,-0.124701,36.5702,-0.0561786,
2,0,0,1,0,9069.62,-0.0578216,-0.058182,-7.58854,5,-0.00373005,10,0.000441517,-2.11984,-0.455194,-0.129615,38.3858,-0.058182,
2,0,0,1,0,9069.64,-0.0598283,-0.0601836,-7.66555,5,-0.0038827,10,0.00046134,-2.11546,-0.439903,-0.13412,40.1412,-0.0601836,
2,0,0,1,0,9069.66,-0.0618259,-0.0621991,-7.74979,5,-0.00403689,10,0.00048203,-2.11071,-0.418931,-0.140835,42.5992,-0.0621991,
2,0,0,1,0,9069.68,-0.0638235,-0.064185,-7.83601,5,-0.0041928,10,0.000502954,-2.10591,-0.419425,-0.140669,43.0157,-0.064185,
2,0,0,1,0,9069.7,-0.0658211,-0.0661979,-7.9218,5,-0.00435036,10,0.000524406,-2.10118,-0.395391,-0.149219,46.1722,-0.06619785,
2,0,0,1,0,9069.72,-0.0678186,-0.0682077,-8.02174,5,-0.00450911,10,0.000547145,-2.09573,-0.366938,-0.16079,50.3356,-0.0682077,
2,0,0,1,0,9069.74,-0.0698162,-0.0701737,-8.12193,5,-0.00467056,10,0.000569946,-2.09034,-0.39473,-0.149469,47.3384,-0.0701737,
2,0,0,1,0,9069.76,-0.0718138,-0.0721704,-8.20933,5,-0.00483392,10,0.000592471,-2.08569,-0.38717,-0.152388,48.8853,-0.0721704,
2,0,0,1,0,9069.78,-0.0738114,-0.0741966,-8.31859,5,-0.00499926,10,0.000617211,-2.07995,-0.339688,-0.173689,56.4104,-0.0741966,
2,0,0,1,0,9069.8,-0.075809,-0.076181,-8.43557,5,-0.00516611,10,0.00064263,-2.07389,-0.344115,-0.171454,56.412,-0.076181,
2,0,0,1,0,9069.82,-0.0778066,-0.078186,-8.54364,5,-0.00533602,10,0.000667993,-2.06836,-0.347293,-0.169886,56.6754,-0.07818599,
2,0,0,1,0,9069.84,-0.0798042,-0.0801728,-8.66181,5,-0.0055081,10,0.000694441,-2.06239,-0.338869,-0.174109,58.8463,-0.0801728,
2,0,0,1,0,9069.86,-0.0818018,-0.0821705,-8.77811,5,-0.00568257,10,0.000721301,-2.0566,-0.325017,-0.181529,62.2432,-0.0821705,
2,0,0,1,0,9069.88,-0.0837994,-0.0841768,-8.91103,5,-0.00585869,10,0.000750102,-2.05007,-0.322399,-0.183003,63.5926,-0.0841768,
2,0,0,1,0,9069.9,-0.0857969,-0.0861486,-9.03109,5,-0.00603815,10,0.000778015,-2.04426,-0.328606,-0.179546,63.3194,-0.0861486,
2,0,0,1,0,9069.92,-0.0877945,-0.0881561,-9.16299,5,-0.00622015,10,0.000807773,-2.03796,-0.334706,-0.176274,63.0024,-0.0881561,
2,0,0,1,0,9069.94,-0.0897921,-0.0901992,-9.28629,5,-0.00640465,10,0.000837616,-2.03216,-0.33985,-0.173606,62.9261,-0.0901992,
2,0,0,1,0,9069.96,-0.0917897,-0.0921336,-9.41329,5,-0.00659073,10,0.00086728,-2.02626,-0.329493,-0.179063,65.7927,-0.0921336,
2,0,0,1,0,9069.98,-0.0937873,-0.0941217,-9.54436,5,-0.00678035,10,0.000898332,-2.02025,-0.363515,-0.162304,60.3968,-0.0941217,
2,0,0,1,0,9070,-0.0957849,-0.0961814,-9.65776,5,-0.00697244,10,0.000928897,-2.01512,-0.38427,-0.153538,57.8833,-0.0961814,
2,0,0,1,0,9070.02,-0.0977825,-0.0981309,-9.77642,5,-0.00716686,10,0.00095937,-2.00982,-0.361246,-0.163324,62.3361,-0.0981309,
2,0,0,1,0,9070.04,-0.0997501,-0.100111,-9.90274,5,-0.0073597,10,0.000991378,-2.00424,0.00698056,8.45205,-2770.49,-0.100111,
2,0,0,1,1,9070.05,-0.0987313,-0.0990762,-7.1576,5,-0.00749018,10,0.000709148,-2.14523,-0.00876749,-6.72941,1795.19,-0.0990762,
2,0,0,1,1,9070.07,-0.0967337,-0.0970898,-4.47829,5,-0.00760411,10,0.000434796,-2.34889,-0.00917728,-6.42892,1132.03,-0.09708982,
2,0,0,1,1,9070.09,-0.0947361,-0.095064,-2.61562,5,-0.00767368,10,0.000248651,-2.58242,-0.00708858,-8.32325,814.01,-0.095064,
2,0,0,1,1,9070.11,-0.0927386,-0.0930876,-1.22041,5,-0.00771105,10,0.000113605,-2.9135,-0.00307039,-19.2158,630.305,-0.0930876,
2,0,0,1,1,9070.13,-0.090741,-0.0911316,-0.137037,5,-0.0077239,10,1.24884e-05,-3.86316,-0.0168923,-3.49272,479.112,-0.0911316,
2,1,0,1,1,9070.15,-0.0887434,-0.0890677,0.70556,5,-0.00771766,10,-6.28426e-05,-3.15147,0.00399231,14.7784,381.687,-0.08906769,
2,1,0,1,1,9070.17,-0.0867458,-0.0871,1.40176,5,-0.00769608,10,-0.000122093,-2.85333,0.00887187,6.65023,319.114,-0.0871,
2,1,0,1,1,9070.19,-0.0847482,-0.0851216,1.96481,5,-0.00766198,10,-0.000167248,-2.70668,0.0163554,3.60736,263.826,-0.0851216,
2,1,0,1,1,9070.21,-0.0827529,-0.0831574,2.44194,5,-0.0076179,10,-0.000203065,-2.61227,0.0249419,2.36549,219.444,-0.0831574,
2,1,0,1,1,9070.23,-0.080753,-0.0811185,2.84327,5,-0.00756467,10,-0.000230641,-2.54618,0.0348566,1.69265,184.873,-0.0811185,
2,1,0,1,1,9070.25,-0.0787554,-0.0791195,3.18842,5,-0.00750407,10,-0.000252266,-2.49642,0.0462523,1.27561,156.581,-0.0791195,
2,1,0,1,1,9070.27,-0.0767579,-0.0771293,3.46791,5,-0.00743725,10,-0.000267477,-2.45993,0.0596038,0.98987,133.244,-0.0771293,
2,1,0,1,1,9070.29,-0.0747603,-0.075103,3.72361,5,-0.00736504,10,-0.000279654,-2.42904,0.069969,0.84323,122.021,-0.075103,
2,1,0,1,1,9070.31,-0.0727627,-0.0731074,3.95866,5,-0.00728824,10,-0.000289407,-2.40245,0.0885023,0.666649,102.117,-0.0731074,
2,1,0,1,1,9070.33,-0.0707651,-0.0710895,4.13345,5,-0.00720705,10,-0.000293845,-2.38369,0.109142,0.540582,87.1029,-0.0710895,
2,1,0,1,1,9070.35,-0.0687675,-0.0691492,4.30343,5,-0.00712246,10,-0.000297579,-2.36619,0.124387,0.474328,79.3992,-0.0691492,
2,1,0,1,1,9070.37,-0.0667699,-0.0671181,4.44877,5,-0.00703468,10,-0.000298593,-2.35176,0.148318,0.397793,68.9567,-0.0671181,
2,1,0,1,1,9070.39,-0.0647723,-0.0650943,4.58304,5,-0.00694447,10,-0.00029833,-2.33885,0.172813,0.34141,60.8812,-0.0650943,
2,1,0,1,1,9070.41,-0.0627748,-0.0631252,4.69186,5,-0.00685155,10,-0.000296175,-2.32865,0.199243,0.296121,54.193,-0.0631252,
2,1,0,1,1,9070.43,-0.0607772,-0.0611419,4.79723,5,-0.00675646,10,-0.000293312,-2.31901,0.224993,0.26223,49.0066,-0.0611419,
2,1,0,1,1,9070.45,-0.0587796,-0.0591507,4.88664,5,-0.00665943,10,-0.000289048,-2.31099,0.269452,0.218963,41.7106,-0.0591507,
2,1,0,1,1,9070.47,-0.056782,-0.0571002,4.96582,5,-0.0065612,10,-0.000283549,-2.30401,0.310586,0.189963,36.7702,-0.0571002,
2,1,0,1,1,9070.49,-0.0547844,-0.0551524,5.03366,5,-0.00646101,10,-0.000277618,-2.29812,0.355578,0.165927,32.5739,-0.0551524,
2,1,0,1,1,9070.51,-0.0527868,-0.0531279,5.09521,5,-0.00635954,10,-0.000270698,-2.29284,0.434394,0.135821,26.9661,-0.0531279,
2,1,0,1,1,9070.53,-0.0507892,-0.0511607,5.1413,5,-0.00625704,10,-0.000263032,-2.28893,0.457676,0.128912,25.8954,-0.0511607,
2,1,0,1,1,9070.55,-0.0487916,-0.0491052,5.19938,5,-0.00615396,10,-0.000255316,-2.28405,0.502558,0.117399,23.7727,-0.0491052,
2,1,0,1,1,9070.57,-0.046794,-0.0471713,5.23614,5,-0.00604939,10,-0.000246995,-2.28099,0.773386,0.0762879,15.5723,-0.0471713,
2,1,0,1,1,9070.59,-0.0447965,-0.0451159,5.2615,5,-0.00594423,10,-0.000237377,-2.27889,0.892845,0.0660809,13.5734,-0.0451159,
2,1,0,1,1,9070.61,-0.0427989,-0.0431755,5.29038,5,-0.00583851,10,-0.000228415,-2.27651,0.736832,0.0800725,16.5443,-0.0431755,
2,1,0,1,1,9070.63,-0.0408013,-0.0411535,5.32706,5,-0.00573267,10,-0.000219227,-2.27351,1.1062,0.053336,11.0584,-0.0411535,
2,1,0,1,1,9070.65,-0.0388037,-0.0391514,5.33488,5,-0.00562583,10,-0.000208868,-2.27288,1.97422,0.0298852,6.22754,-0.03915143,
2,1,0,1,1,9070.67,-0.0368061,-0.0371693,5.35187,5,-0.00551874,10,-0.000198925,-2.27149,1.43123,0.0412232,8.6105,-0.0371693,
2,1,0,1,1,9070.69,-0.0348085,-0.0351497,5.36933,5,-0.00541127,10,-0.000188731,-2.27008,1.47966,0.0398739,8.35446,-0.0351497,
2,1,0,1,1,9070.71,-0.0328109,-0.0331447,5.38549,5,-0.00530409,10,-0.0001785,-2.26877,2.87924,0.0204915,4.30089,-0.0331447,
2,1,0,1,1,9070.73,-0.0308134,-0.0311236,5.38665,5,-0.00519623,10,-0.000167652,-2.26868,8.28498,0.00712132,1.49758,-0.0311236,
2,1,0,1,1,9070.75,-0.0288158,-0.029168,5.39145,5,-0.00508824,10,-0.000157258,-2.26829,5.20483,0.0113356,2.38511,-0.029168,
2,1,0,1,1,9070.77,-0.0268182,-0.0271599,5.3961,5,-0.00498019,10,-0.000146558,-2.26792,3.85263,0.0153142,3.22615,-0.0271599,
2,1,0,1,1,9070.79,-0.0248138,-0.0251488,5.40441,5,-0.00487219,10,-0.000135915,-2.26725,8.55331,0.00689791,1.45343,-0.0251488,
2,1,0,1,1,9070.81,-0.022823,-0.0231986,5.40186,5,-0.00476456,10,-0.000125315,-2.26746,-7.47262,-0.00789549,-1.66429,-0.0231986,
2,1,0,1,1,9070.83,-0.0208254,-0.0212131,5.39786,5,-0.00465636,10,-0.000114505,-2.26778,-2.62609,-0.0224668,-4.72804,-0.0212131,
2,1,0,1,1,9070.85,-0.0188278,-0.0191658,5.38279,5,-0.00454834,10,-0.000103165,-2.26899,-5.97014,-0.00988251,-2.08025,-0.0191658,
2,1,0,1,1,9070.87,-0.0168393,-0.0171768,5.38947,5,-0.00444098,10,-9.2574e-05,-2.26845,5.06192,0.0116557,2.45076,-0.0171768,
2,1,0,1,1,9070.89,-0.0148327,-0.0151887,5.39254,5,-0.00433293,10,-8.19057e-05,-2.26821,-9.60046,-0.00614554,-1.29199,-0.0151887,
2,1,0,1,1,9070.91,-0.0128351,-0.0131659,5.38428,5,-0.00422504,10,-7.08889e-05,-2.26887,-5.01593,-0.0117625,-2.47316,-0.0131659,
2,1,0,1,1,9070.93,-0.0108375,-0.0111235,5.38249,5,-0.00411728,10,-5.98723e-05,-2.26902,-15.6278,-0.00377532,-0.793082,-0.0111235,
2,1,0,1,1,9070.95,-0.00883989,-0.00917403,5.38112,5,-0.00400946,10,-4.93666e-05,-2.26913,-15.221,-0.00387621,-0.814001,-0.009174034,
2,1,0,1,1,9070.97,-0.0068423,-0.00717809,5.37927,5,-0.00390214,10,-3.86129e-05,-2.26928,-15.3794,-0.0038363,-0.805414,-0.00717809,
2,1,0,1,1,9070.99,-0.00484471,-0.00517392,5.3779,5,-0.00379443,10,-2.78248e-05,-2.26939,12.0562,0.00489376,1.02777,-0.00517392,
2,1,0,1,1,9071.01,-0.00284713,-0.00318925,5.38337,5,-0.00368673,10,-1.71689e-05,-2.26895,-95.0162,-0.000620947,-0.13032,-0.003189252,
2,1,0,1,1,9071.03,-0.000849538,-0.00119753,5.37738,5,-0.00357898,10,-6.43958e-06,-2.26943, , , ,-0.00119753,
2,1,0,1,1,9071.04,-2.55332e-05,-0.000325324,5.40991,5,-0.00353539,10,-1.75997e-06,-2.26681, , , ,-0.000325324,