File: Figure_codes/Fig_3-5/rawdata_trumpetplot_data/after 10th/20221101_1-115_003_TrumpetPlot_ParaChange_from10_every3_02_CV_C01_0.csv
mode,ox/red,error,control changes,counter inc.,time/s,control/V,Ewe/V,<I>/mA,cycle number,(Q-Qo)/C,I Range,P/W,log(|I|),Tafel slope mV/dec,alpha_eff,dI/d(E-IR),E-IR/V,
2,0,0,0,0,340.03,2.44065e-05,-0.000325324,-0.329638,1,0.0000000E+000,10,1.07239e-07,-3.48196, , , ,-0.000325324,
2,0,0,1,0,341.304,0.00129791,0.000948286,-0.165121,1,-0.000228044,10,-1.56582e-07,-3.7822, , , ,0.000948286,
2,0,0,1,0,342.802,0.00279612,0.00253254,-0.13224,1,-0.000420332,10,-3.34902e-07,-3.87864,-0.0175,-3.37143,18.6504,0.00253254,
2,0,0,1,0,344.3,0.00429431,0.00399591,-0.112955,1,-0.000576836,10,-4.51359e-07,-3.94709,-0.0243149,-2.4265,10.8523,0.00399591,
2,0,0,1,0,345.798,0.00579242,0.00546239,-0.0984257,1,-0.000708644,10,-5.37639e-07,-4.00689,-0.0261454,-2.25661,8.78602,0.00546239,
2,0,0,1,0,347.296,0.00729061,0.00698938,-0.0864336,1,-0.000821222,10,-6.04117e-07,-4.06332,-0.0290975,-2.02766,6.98992,0.00698938,
2,0,0,1,0,348.795,0.00878882,0.00842303,-0.0777054,1,-0.000918853,10,-6.54515e-07,-4.10955,-0.031567,-1.86904,5.75967,0.00842303,
2,0,0,1,0,350.293,0.010287,0.00995322,-0.0704025,1,-0.00100445,10,-7.00731e-07,-4.15241,-0.0339723,-1.73671,4.80749,0.00995322,
2,0,0,1,0,351.791,0.0117852,0.0114633,-0.0636017,1,-0.00108004,10,-7.29082e-07,-4.19653,-0.0346587,-1.70231,4.24985,0.01146326,
2,0,0,1,0,353.289,0.0132834,0.0129637,-0.0582178,1,-0.00114652,10,-7.54721e-07,-4.23494,-0.0369601,-1.59632,3.62651,0.0129637,
2,0,0,1,0,354.787,0.0147815,0.0144207,-0.0529139,1,-0.00120449,10,-7.63053e-07,-4.27643,-0.0365852,-1.61267,3.33043,0.0144207,
2,0,0,1,0,356.285,0.0162797,0.0159434,-0.0482082,1,-0.00125498,10,-7.68601e-07,-4.31688,-0.0420527,-1.403,2.6677,0.0159434,
2,0,0,1,0,357.784,0.0177779,0.0174587,-0.0437591,1,-0.00129898,10,-7.63978e-07,-4.35893,-0.0426851,-1.38221,2.39913,0.0174587,
2,0,0,1,0,359.282,0.0192761,0.0189655,-0.0403896,1,-0.00133788,10,-7.66012e-07,-4.39373,-0.0404065,-1.46016,2.31169,0.01896554,
2,0,0,1,0,360.78,0.0207743,0.0204576,-0.037016,1,-0.00137146,10,-7.57256e-07,-4.43161,-0.0431179,-1.36834,2.00554,0.0204576,
2,0,0,1,0,362.278,0.0222725,0.0219846,-0.034377,1,-0.00140004,10,-7.55764e-07,-4.46373,-0.0368262,-1.60212,2.14613,0.0219846,
2,0,0,1,0,363.776,0.0237707,0.0234564,-0.0309116,1,-0.0014241,10,-7.25077e-07,-4.50988,-0.03724,-1.58432,1.91491,0.0234564,
2,0,0,1,0,365.275,0.0252689,0.024977,-0.0282564,1,-0.00144374,10,-7.05762e-07,-4.54888,-0.0315123,-1.87229,2.04456,0.024977,
2,0,0,1,0,366.773,0.0267671,0.026468,-0.0251507,1,-0.00145876,10,-6.65688e-07,-4.59945,-0.030941,-1.90685,1.87273,0.026468,
2,0,0,1,0,368.271,0.0282653,0.0279695,-0.0224417,1,-0.00146935,10,-6.27684e-07,-4.64894,-0.0318767,-1.85088,1.6405,0.0279695,
2,0,0,1,0,369.769,0.0297635,0.02947,-0.0202691,1,-0.00147604,10,-5.97331e-07,-4.69317,-0.0289839,-2.03561,1.60026,0.02947,
2,0,0,1,0,371.267,0.0312617,0.0309471,-0.0177909,1,-0.00147943,10,-5.50577e-07,-4.7498,-0.0256151,-2.30333,1.57285,0.0309471,
2,0,0,1,0,372.766,0.0327599,0.0324211,-0.0154012,1,-0.00147892,10,-4.99325e-07,-4.81245,-0.0226716,-2.60238,1.54394,0.0324211,
2,0,0,1,0,374.264,0.0342581,0.0339555,-0.0128398,1,-0.0014747,10,-4.35982e-07,-4.89144,-0.0213019,-2.76971,1.40172,0.0339555,
2,0,0,1,0,375.762,0.0357563,0.0353818,-0.0110392,1,-0.00146728,10,-3.90588e-07,-4.95706,-0.017531,-3.36546,1.38538,0.0353818,
2,0,0,1,0,377.26,0.0372544,0.0369543,-0.00847567,1,-0.0014564,10,-3.13212e-07,-5.07183,-0.012532,-4.70795,1.47,0.0369543,
2,0,0,1,0,378.758,0.0387526,0.0384421,-0.00615648,1,-0.00144181,10,-2.36668e-07,-5.21067,-0.00606644,-9.72564,1.78413,0.0384421,
2,0,0,1,0,380.257,0.0402508,0.0399256,-0.00358029,1,-0.00142357,10,-1.42945e-07,-5.44608,-0.00359721,-16.4016,1.54117,0.0399256,
2,0,0,1,0,381.755,0.041749,0.0414642,-0.0010589,1,-0.00140125,10,-4.39064e-08,-5.97515,-0.0097317,-6.06266,1.44862,0.0414642,
2,1,0,1,0,383.253,0.0432472,0.042969,0.0012334,1,-0.00137585,10,5.29979e-08,-5.9089,0.013795,4.27693,1.75407,0.04296897,
2,1,0,1,0,384.751,0.0447454,0.0444259,0.00395786,1,-0.00134685,10,1.75832e-07,-5.40254,0.00313965,18.7919,1.42091,0.0444259,
2,0,0,1,0,386.249,0.0462435,0.0459667,0.00580746,1,-0.001314,10,2.66949e-07,-5.23601,0.0086253,6.84034,1.48625,0.04596667,
2,0,0,1,0,387.747,0.0477417,0.0474374,0.00819922,1,-0.00127762,10,3.8895e-07,-5.08623,0.012363,4.77229,1.4649,0.0474374,
2,0,0,1,0,389.246,0.0492399,0.0489782,0.0106819,1,-0.00123769,10,5.2318e-07,-4.97135,0.0168144,3.50889,1.43811,0.0489782,
2,0,0,1,0,390.744,0.0507381,0.0504225,0.0122749,1,-0.00119512,10,6.18934e-07,-4.91098,0.0205345,2.87321,1.42635,0.0504225,
2,0,0,1,0,392.242,0.0522363,0.0519166,0.0147402,1,-0.00114898,10,7.65264e-07,-4.8315,0.017842,3.3068,1.86456,0.0519166,
2,1,0,1,0,393.74,0.0537345,0.0534405,0.0176267,1,-0.00109879,10,9.41978e-07,-4.75383,0.0220304,2.67811,1.73959,0.05344047,
2,1,0,1,0,395.238,0.0552327,0.0549038,0.0200366,1,-0.00104505,10,1.10009e-06,-4.69818,0.031961,1.846,1.39486,0.05490385,
2,1,0,1,0,396.737,0.0567309,0.0564086,0.0210821,1,-0.000988206,10,1.18921e-06,-4.67609,0.0311316,1.89518,1.61035,0.0564086,
2,1,0,1,0,398.235,0.0582291,0.0579048,0.0242528,1,-0.000928058,10,1.40435e-06,-4.61524,0.0338984,1.7405,1.64796,0.0579048,
2,1,0,1,0,399.733,0.0597273,0.0594519,0.027048,1,-0.000863726,10,1.60806e-06,-4.56786,0.0486098,1.21375,1.25389,0.0594519,
2,1,0,1,0,401.231,0.0612255,0.0608973,0.0284767,1,-0.000796075,10,1.73415e-06,-4.54551,0.060478,0.975561,1.10267,0.0608973,
2,1,0,1,0,402.729,0.0627237,0.0624391,0.0307006,1,-0.000725485,10,1.91692e-06,-4.51285,0.0613794,0.961234,1.16951,0.0624391,
2,1,0,1,0,404.228,0.0642219,0.063911,0.0328724,1,-0.000651985,10,2.10091e-06,-4.48317,0.0564536,1.04511,1.34442,0.063911,
2,1,0,1,0,405.726,0.0657201,0.0654295,0.0342164,1,-0.000575434,10,2.23876e-06,-4.46577,0.0678149,0.870016,1.18642,0.0654295,
2,1,0,1,0,407.224,0.0672183,0.0668886,0.0372091,1,-0.000496065,10,2.48887e-06,-4.42935,0.0742269,0.79486,1.12498,0.0668886,
2,1,0,1,0,408.722,0.0687164,0.0684113,0.0387705,1,-0.00041368,10,2.65234e-06,-4.4115,0.0677029,0.871454,1.30532,0.0684113,
2,1,0,1,0,410.22,0.0702146,0.0699266,0.0405063,1,-0.000329435,10,2.83247e-06,-4.39248,0.082471,0.715403,1.12037,0.0699266,
2,1,0,1,0,411.719,0.0717128,0.0713794,0.0412673,1,-0.000241921,10,2.94563e-06,-4.38439,0.073035,0.807832,1.31636,0.0713794,
2,1,0,1,0,413.217,0.073211,0.0729445,0.0437461,1,-0.000151735,10,3.19104e-06,-4.35906,0.0812512,0.726143,1.24209,0.0729445,
2,1,0,1,0,414.715,0.0747092,0.0743751,0.0457046,1,-5.84287e-05,10,3.39929e-06,-4.34004,0.0954389,0.618197,1.10442,0.0743751,
2,1,0,1,0,416.213,0.0762074,0.0758565,0.0471006,1,3.66784e-05,10,3.57288e-06,-4.32697,0.101119,0.583468,1.09412,0.0758565,
2,1,0,1,0,417.711,0.0777055,0.0773696,0.0486437,1,0.000134916,10,3.76354e-06,-4.31297,0.0850143,0.694001,1.32132,0.0773696,
2,1,0,1,0,419.209,0.0792037,0.0789156,0.0516969,1,0.000235842,10,4.07969e-06,-4.28654,0.107106,0.550858,1.09058,0.0789156,
2,1,0,1,0,420.708,0.0807019,0.0804522,0.0532616,1,0.000339621,10,4.28501e-06,-4.27359,0.104808,0.562931,1.15136,0.0804522,
2,1,0,1,0,422.206,0.0822001,0.0819462,0.0539257,1,0.000445426,10,4.41901e-06,-4.2682,0.125188,0.47129,0.990208,0.0819462,
2,1,0,1,0,423.704,0.0836983,0.083399,0.056173,1,0.000553589,10,4.68477e-06,-4.25047,0.104378,0.565252,1.23368,0.083399,
2,1,0,1,0,425.202,0.0851965,0.0848995,0.0577041,1,0.000664617,10,4.89905e-06,-4.23879,0.129465,0.455723,1.02486,0.0848995,
2,1,0,1,0,426.7,0.0866947,0.0863862,0.0591121,1,0.000778303,10,5.10647e-06,-4.22832,0.164,0.359756,0.827007,0.0863862,
2,1,0,1,0,428.199,0.0881929,0.0878877,0.0611035,1,0.000894297,10,5.37025e-06,-4.21393,0.124024,0.475716,1.13718,0.0878877,
2,1,0,1,0,429.697,0.0896911,0.089402,0.0628417,1,0.00101244,10,5.61817e-06,-4.20175,0.0991726,0.594922,1.46828,0.089402,
2,1,0,1,0,431.195,0.0911893,0.0908697,0.0639138,1,0.00113373,10,5.80782e-06,-4.19441,0.123532,0.477609,1.20856,0.0908697,
2,1,0,1,0,432.693,0.0926875,0.0923659,0.0662988,1,0.00125857,10,6.12375e-06,-4.17849,0.125756,0.469162,1.21175,0.0923659,
2,1,0,1,0,434.191,0.0941857,0.0938473,0.0688543,1,0.00138578,10,6.46179e-06,-4.16207,0.132943,0.443799,1.17868,0.0938473,
2,1,0,1,0,435.69,0.0956839,0.0953499,0.0704465,1,0.00151525,10,6.71706e-06,-4.15214,0.112212,0.525792,1.4515,0.0953499,
2,1,0,1,0,437.188,0.0971821,0.0968684,0.0725453,1,0.00164865,10,7.02735e-06,-4.13939,0.0864619,0.682382,1.94121,0.0968684,
2,1,0,1,0,438.686,0.0986803,0.0983816,0.0751921,1,0.00178576,10,7.39752e-06,-4.12383,0.116381,0.506956,1.49073,0.0983816,
2,1,0,1,0,440.184,0.100178,0.0998799,0.0772006,1,0.00192662,10,7.71079e-06,-4.11238,0.104805,0.562952,1.70556,0.0998799,
2,1,0,1,0,441.682,0.101677,0.101388,0.079587,1,0.0020705,10,8.06915e-06,-4.09916,0.110608,0.533414,1.67877,0.101388,
2,1,0,1,0,443.181,0.103175,0.102878,0.0830044,1,0.00221869,10,8.5393e-06,-4.0809,0.0951671,0.619962,1.99884,0.102878,
2,1,0,1,0,444.679,0.104673,0.104365,0.0864348,1,0.00237156,10,9.0208e-06,-4.06331,0.0963277,0.612492,2.04518,0.104365,
2,1,0,1,0,446.177,0.106171,0.105878,0.0889501,1,0.00252885,10,9.41782e-06,-4.05085,0.101248,0.582729,2.00184,0.105878,
2,1,0,1,0,447.675,0.107669,0.107325,0.0908701,1,0.00269033,10,9.75263e-06,-4.04158,0.110432,0.534267,1.91296,0.107325,
2,1,0,1,0,449.173,0.109167,0.108834,0.0945492,1,0.00285652,10,1.02902e-05,-4.02434,0.104454,0.56484,2.0961,0.108834,
2,1,0,1,0,450.671,0.110666,0.110348,0.0976148,1,0.00302757,10,1.07716e-05,-4.01048,0.116995,0.504297,1.93499,0.110348,
2,1,0,1,0,452.17,0.112164,0.111863,0.100724,1,0.00320348,10,1.12673e-05,-3.99687,0.138916,0.424716,1.66253,0.111863,
2,1,0,1,0,453.668,0.113662,0.113379,0.1039,1,0.00338428,10,1.17801e-05,-3.98338,0.124584,0.473574,1.9182,0.113379,
2,1,0,1,0,455.166,0.11516,0.114836,0.10715,1,0.00356882,10,1.23047e-05,-3.97001,0.13037,0.452557,1.88825,0.114836,
2,1,0,1,0,456.664,0.116658,0.116346,0.110468,1,0.00375867,10,1.28525e-05,-3.95676,0.138733,0.425277,1.82146,0.1163459,
2,1,0,1,0,458.162,0.118157,0.11786,0.112951,1,0.00395305,10,1.33124e-05,-3.94711,0.12755,0.462565,2.03133,0.11786,
2,1,0,1,0,459.661,0.119655,0.119337,0.116023,1,0.00415168,10,1.38458e-05,-3.93546,0.137347,0.429568,1.93746,0.119337,
2,1,0,1,0,461.159,0.121153,0.120853,0.117773,1,0.00435439,10,1.42332e-05,-3.92895,0.1364,0.432552,2.00029,0.120853,
2,1,0,1,0,462.657,0.122651,0.122338,0.120933,1,0.00456213,10,1.47948e-05,-3.91745,0.119361,0.494298,2.3318,0.122338,
2,1,0,1,0,464.155,0.124149,0.123808,0.123894,1,0.0047748,10,1.53391e-05,-3.90695,0.150427,0.392216,1.90282,0.123808,
2,1,0,1,0,465.653,0.125648,0.125368,0.127449,1,0.00499118,10,1.59781e-05,-3.89466,0.16957,0.34794,1.72356,0.125368,
2,1,0,1,0,467.152,0.127146,0.126832,0.128453,1,0.0052113,10,1.62919e-05,-3.89126,0.16112,0.366186,1.84808,0.126832,
2,1,0,1,0,468.65,0.128644,0.128357,0.132803,1,0.00543521,10,1.70463e-05,-3.87679,0.183706,0.321165,1.65029,0.128357,
2,1,0,1,0,470.148,0.130142,0.129859,0.136419,1,0.00566406,10,1.77152e-05,-3.86512,0.180196,0.327422,1.71822,0.129859,
2,1,0,1,0,471.646,0.13164,0.131347,0.136995,1,0.00589632,10,1.79939e-05,-3.8633,0.198323,0.297495,1.59822,0.131347,
2,1,0,1,0,473.144,0.133139,0.13283,0.138272,1,0.00613119,10,1.83667e-05,-3.85927,0.217933,0.270726,1.47358,0.13283,
2,1,0,1,0,474.643,0.134637,0.134325,0.143222,1,0.0063758,10,1.92383e-05,-3.84399,0.351704,0.167755,0.916095,0.134325,
2,1,0,1,0,476.141,0.136135,0.135847,0.141847,1,0.00661792,10,1.92695e-05,-3.84818,-0.146159,-0.403669,-2.2962,0.135847,
2,1,0,1,0,477.639,0.137633,0.137328,0.14126,1,0.00685928,10,1.9399e-05,-3.84998,-0.456635,-0.129206,-0.708651,0.137328,
2,1,0,1,0,479.137,0.139131,0.138855,0.140917,1,0.00709963,10,1.9567e-05,-3.85104,-0.412694,-0.142963,-0.780033,0.138855,
2,1,0,1,0,480.635,0.14063,0.140314,0.138613,1,0.00733732,10,1.94494e-05,-3.8582,-0.218651,-0.269836,-1.4494,0.140314,
2,1,0,1,0,482.133,0.142128,0.141809,0.13714,1,0.00757277,10,1.94477e-05,-3.86284,-0.171453,-0.344118,-1.81577,0.141809,
2,1,0,1,0,483.632,0.143626,0.143333,0.132837,1,0.00780404,10,1.90399e-05,-3.87668,-0.131008,-0.450354,-2.32481,0.143333,
2,1,0,1,0,485.13,0.145124,0.144834,0.128493,1,0.00802891,10,1.86101e-05,-3.89112,-0.0906484,-0.650866,-3.27467,0.144834,
2,1,0,1,0,486.628,0.146622,0.146333,0.124066,1,0.00824655,10,1.8155e-05,-3.90635,-0.0908759,-0.649237,-3.15281,0.146333,
2,1,0,1,0,488.126,0.14812,0.147856,0.118532,1,0.00845712,10,1.75256e-05,-3.92617,-0.0832804,-0.70845,-3.27318,0.147856,
2,1,0,1,0,489.624,0.149619,0.149314,0.113879,1,0.00865984,10,1.70038e-05,-3.94355,-0.0732437,-0.80553,-3.59218,0.149314,
2,1,0,1,0,491.123,0.151117,0.150843,0.108681,1,0.00885421,10,1.63938e-05,-3.96385,-0.0655942,-0.89947,-3.79563,0.150843,
2,1,0,1,0,492.621,0.152615,0.152311,0.102682,1,0.00903984,10,1.56395e-05,-3.98851,-0.0658944,-0.895372,-3.59238,0.152311,
2,1,0,1,0,494.119,0.154113,0.153815,0.0984667,1,0.00921721,10,1.51457e-05,-4.00671,-0.066257,-0.890472,-3.38045,0.153815,
2,1,0,1,0,495.617,0.155611,0.155322,0.0936406,1,0.00938716,10,1.45445e-05,-4.02854,-0.0629504,-0.937245,-3.40981,0.155322,
2,1,0,1,0,497.115,0.15711,0.15682,0.0882277,1,0.00954979,10,1.38358e-05,-4.0544,-0.0672276,-0.877615,-3.03002,0.15682,
2,1,0,1,0,498.614,0.158608,0.15831,0.0841354,1,0.00970559,10,1.33195e-05,-4.07502,-0.0686759,-0.859107,-2.84259,0.15831,
2,1,0,1,0,500.112,0.160106,0.159781,0.0799922,1,0.0098548,10,1.27813e-05,-4.09695,-0.0789463,-0.747343,-2.36654,0.159781,
2,1,0,1,0,501.61,0.161604,0.161287,0.0775175,1,0.00999929,10,1.25026e-05,-4.1106,-0.08913,-0.661955,-1.99901,0.161287,
2,1,0,1,0,503.108,0.163102,0.162778,0.0749852,1,0.0101391,10,1.22059e-05,-4.12502,-0.101023,-0.584023,-1.70795,0.162778,
2,1,0,1,0,504.606,0.164601,0.164303,0.0720157,1,0.0102751,10,1.18324e-05,-4.14257,-0.100681,-0.586006,-1.64566,0.164303,
2,1,0,1,0,506.105,0.166099,0.165799,0.0695117,1,0.0104071,10,1.1525e-05,-4.15794,-0.120119,-0.491179,-1.3416,0.165799,
2,1,0,1,0,507.603,0.167597,0.167292,0.0684473,1,0.0105363,10,1.14507e-05,-4.16464,-0.153224,-0.385058,-1.02455,0.167292,
2,1,0,1,0,509.101,0.169095,0.168775,0.0665378,1,0.0106629,10,1.12299e-05,-4.17693,-0.139008,-0.424436,-1.10239,0.168775,
2,1,0,1,0,510.599,0.170593,0.170285,0.0650735,1,0.0107868,10,1.1081e-05,-4.1866,-0.130217,-0.453091,-1.15369,0.170285,
2,1,0,1,0,512.097,0.172091,0.171807,0.0632816,1,0.010908,10,1.08722e-05,-4.19872,-0.18028,-0.327269,-0.809259,0.171807,
2,1,0,1,0,513.595,0.17359,0.1733,0.0622776,1,0.0110274,10,1.07927e-05,-4.20567,-0.250551,-0.235481,-0.570862,0.1733,
2,1,0,1,0,515.094,0.175088,0.174778,0.0610357,1,0.0111447,10,1.06677e-05,-4.21442,-0.189212,-0.31182,-0.742757,0.174778,
2,1,0,1,0,516.592,0.176586,0.176292,0.0599729,1,0.0112604,10,1.05727e-05,-4.22205,-0.299126,-0.197241,-0.461852,0.176292,
2,1,0,1,0,518.09,0.178084,0.177807,0.0589488,1,0.0113745,10,1.04815e-05,-4.22953,-0.378285,-0.155967,-0.361105,0.177807,
2,1,0,1,0,519.588,0.179582,0.179282,0.0586882,1,0.0114876,10,1.05217e-05,-4.23145,-0.300775,-0.19616,-0.448713,0.179282,
2,1,0,1,0,521.086,0.181081,0.180785,0.0580666,1,0.0116003,10,1.04976e-05,-4.23607,-0.37356,-0.15794,-0.357932,0.180785,
2,1,0,1,0,522.585,0.182579,0.182254,0.0578664,1,0.0117121,10,1.05464e-05,-4.23757,-0.264732,-0.222867,-0.500977,0.182254,
2,1,0,1,0,524.083,0.184077,0.183764,0.0572847,1,0.011823,10,1.05269e-05,-4.24196,-0.280176,-0.210582,-0.46952,0.183764,
2,1,0,1,0,525.581,0.185575,0.185256,0.0571768,1,0.0119329,10,1.05924e-05,-4.24278,-0.36902,-0.159883,-0.353457,0.185256,
2,1,0,1,0,527.079,0.187073,0.186744,0.0561193,1,0.0120418,10,1.048e-05,-4.25089,-0.379736,-0.155371,-0.339721,0.1867442,
2,1,0,1,0,528.577,0.188572,0.188279,0.0557811,1,0.0121503,10,1.05024e-05,-4.25351,-0.58956,-0.100075,-0.217131,0.188279,
2,1,0,1,0,530.076,0.19007,0.189727,0.0556944,1,0.0122581,10,1.05667e-05,-4.25419,-0.77028,-0.0765955,-0.16659,0.189727,
2,1,0,1,0,531.574,0.191568,0.191223,0.0552942,1,0.0123654,10,1.05735e-05,-4.25732,-1.88405,-0.0313156,-0.067573,0.191223,
2,1,0,1,0,533.072,0.193066,0.192747,0.0553993,1,0.0124728,10,1.06781e-05,-4.2565,3.77386,0.0156339,0.0335612,0.192747,
2,1,0,1,0,534.57,0.194564,0.194255,0.0550408,1,0.0125798,10,1.06919e-05,-4.25932,-0.824677,-0.0715432,-0.154699,0.194255,
2,1,0,1,0,536.068,0.196063,0.195744,0.0547518,1,0.0126869,10,1.07173e-05,-4.2616,9.12855,0.00646324,0.0138494,0.195744,
2,1,0,1,0,537.567,0.197561,0.197225,0.0544801,1,0.0127933,10,1.07449e-05,-4.26376,-7.18703,-0.00820923,-0.0177773,0.197225,
2,1,0,1,0,539.065,0.199059,0.198715,0.0550119,1,0.0128996,10,1.09317e-05,-4.25954,9.12103,0.00646857,0.0138056,0.198715,
2,1,0,1,0,540.563,0.200557,0.200243,0.0543836,1,0.0130061,10,1.08899e-05,-4.26453,1.46135,0.0403737,0.0858895,0.200243,
2,1,0,1,0,542.061,0.202055,0.201779,0.0541961,1,0.0131122,10,1.09356e-05,-4.26603,-0.495319,-0.119115,-0.253298,0.201779,
2,1,0,1,0,543.559,0.203554,0.203226,0.0542631,1,0.0132178,10,1.10277e-05,-4.2655,3.15675,0.0186901,0.0395767,0.203226,
2,1,0,1,0,545.057,0.205052,0.204723,0.0540086,1,0.0133233,10,1.10568e-05,-4.26754,1.06144,0.0555847,0.117883,0.2047233,
2,1,0,1,0,546.556,0.20655,0.206233,0.0542937,1,0.0134286,10,1.11972e-05,-4.26525,2.04725,0.0288192,0.0609458,0.206233,
2,1,0,1,0,548.054,0.208048,0.207772,0.0536519,1,0.0135341,10,1.11474e-05,-4.27041,-1.61665,-0.0364951,-0.077023,0.207772,
2,1,0,1,0,549.552,0.209546,0.209223,0.0542528,1,0.0136391,10,1.13509e-05,-4.26558,2.58604,0.0228148,0.0483961,0.209223,
2,1,0,1,0,551.05,0.211044,0.210742,0.0544926,1,0.0137442,10,1.14839e-05,-4.26366,6.28721,0.00938412,0.0198159,0.210742,
2,1,0,1,0,552.548,0.212543,0.212232,0.0544758,1,0.0138496,10,1.15615e-05,-4.2638,0.747868,0.0788909,0.166273,0.2122321,
2,1,0,1,0,554.047,0.214041,0.213773,0.0547512,1,0.0139551,10,1.17043e-05,-4.26161,0.582134,0.101351,0.215858,0.213773,
2,1,0,1,0,555.545,0.215539,0.215238,0.0545397,1,0.0140608,10,1.1739e-05,-4.26329,1.22614,0.0481184,0.102199,0.2152383,
2,1,0,1,0,557.043,0.217037,0.216766,0.0545508,1,0.0141663,10,1.18248e-05,-4.2632,0.439968,0.134101,0.287506,0.216766,
2,1,0,1,0,558.541,0.218535,0.218279,0.0543136,1,0.0142722,10,1.18555e-05,-4.26509,-4.45021,-0.0132578,-0.0281545,0.218279,
2,1,0,1,0,560.039,0.220034,0.21975,0.0546277,1,0.0143786,10,1.20045e-05,-4.26259,-1.85664,-0.0317779,-0.0683132,0.21975,
2,1,0,1,0,561.538,0.221532,0.221261,0.0545093,1,0.0144845,10,1.20608e-05,-4.26353,2.83561,0.0208068,0.0447557,0.2212615,
2,1,0,1,0,563.036,0.22303,0.222759,0.0546954,1,0.0145906,10,1.21839e-05,-4.26205,1.30545,0.045195,0.0969053,0.2227588,
2,1,0,1,0,564.534,0.224528,0.224212,0.0549259,1,0.0146968,10,1.2315e-05,-4.26022,-1.199,-0.0492077,-0.105968,0.224212,
2,1,0,1,0,566.032,0.226026,0.225721,0.0554665,1,0.0148034,10,1.25199e-05,-4.25597,5.13795,0.0114832,0.0248824,0.225721,
2,1,0,1,0,567.53,0.227525,0.227208,0.0556079,1,0.0149102,10,1.26346e-05,-4.25486,-1.70912,-0.0345207,-0.0745343,0.227208,
2,1,0,1,0,569.029,0.229023,0.228683,0.0552673,1,0.0150168,10,1.26387e-05,-4.25753,54.1388,0.00108979,0.00234269,0.228683,
2,1,0,1,0,570.527,0.230521,0.230199,0.0549857,1,0.0151235,10,1.26576e-05,-4.25975,0.739279,0.0798075,0.171744,0.230199,
2,1,0,1,0,572.025,0.232019,0.23173,0.0550391,1,0.0152302,10,1.27542e-05,-4.25933,1.95019,0.0302534,0.0658411,0.23173,
2,1,0,1,0,573.523,0.233517,0.233186,0.0552848,1,0.0153367,10,1.28916e-05,-4.25739,3.56216,0.016563,0.036093,0.233186,
2,1,0,1,0,575.021,0.235016,0.234712,0.0563268,1,0.0154438,10,1.32205e-05,-4.24929,1.41725,0.04163,0.0900013,0.234712,
2,1,0,1,0,576.52,0.236514,0.236231,0.0557302,1,0.0155509,10,1.31652e-05,-4.25391,0.836528,0.0705296,0.153365,0.236231,
2,1,0,1,0,578.018,0.238012,0.237726,0.0559152,1,0.0156582,10,1.32925e-05,-4.25247,1.33904,0.0440614,0.0961925,0.237726,
2,1,0,1,0,579.516,0.23951,0.239199,0.0564239,1,0.0157657,10,1.34966e-05,-4.24854,0.414736,0.142259,0.314387,0.239199,
2,1,0,1,0,581.014,0.241008,0.240731,0.0566809,1,0.0158737,10,1.36448e-05,-4.24656,0.906771,0.0650661,0.143114,0.240731,
2,1,0,1,0,582.512,0.242506,0.24217,0.0563954,1,0.015982,10,1.36572e-05,-4.24876,-171.869,-0.000343285,-0.000758631,0.24217,
2,1,0,1,0,584.01,0.244005,0.243672,0.0568238,1,0.0160901,10,1.38464e-05,-4.24547,1.08357,0.0544499,0.120126,0.243672,
2,1,0,1,0,585.509,0.245503,0.245239,0.0574913,1,0.0161987,10,1.40991e-05,-4.2404,0.996927,0.0591819,0.130928,0.245239,
2,1,0,1,0,587.007,0.247001,0.246684,0.056638,1,0.0163073,10,1.39717e-05,-4.24689,3.18192,0.0185422,0.0410809,0.246684,
2,1,0,1,0,588.505,0.248499,0.248196,0.0565247,1,0.0164159,10,1.40292e-05,-4.24776,3.41537,0.0172748,0.0384735,0.248196,
2,1,0,1,0,590.003,0.249997,0.249715,0.0576016,1,0.0165248,10,1.4384e-05,-4.23957,1.13745,0.0518703,0.115835,0.249715,
2,1,0,1,0,591.501,0.251496,0.251198,0.0580499,1,0.0166343,10,1.4582e-05,-4.2362,3.02339,0.0195145,0.0441199,0.251198,
2,1,0,1,0,593,0.252994,0.252707,0.0575136,1,0.0167443,10,1.45341e-05,-4.24023,2.1191,0.027842,0.0628319,0.252707,
2,1,0,1,0,594.498,0.254492,0.254231,0.0579454,1,0.0168543,10,1.47315e-05,-4.23698,0.841219,0.0701363,0.159671,0.254231,
2,1,0,1,0,595.996,0.25599,0.255726,0.0582259,1,0.0169642,10,1.48899e-05,-4.23488,1.30211,0.0453111,0.103237,0.255726,
2,1,0,1,0,597.494,0.257488,0.257181,0.0586545,1,0.0170749,10,1.50848e-05,-4.2317,2.48424,0.0237497,0.0539174,0.257181,
2,1,0,1,0,598.992,0.258987,0.258721,0.0584187,1,0.0171858,10,1.51142e-05,-4.23345,3.71654,0.015875,0.0359988,0.258721,
2,1,0,1,0,600.491,0.260485,0.260222,0.0588232,1,0.0172968,10,1.53071e-05,-4.23045,0.565635,0.104308,0.237532,0.260222,
2,1,0,1,0,601.989,0.261983,0.261698,0.0584355,1,0.0174075,10,1.52925e-05,-4.23332,2.35572,0.0250455,0.0574352,0.261698,
2,1,0,1,0,603.487,0.263481,0.26317,0.0586809,1,0.0175185,10,1.5443e-05,-4.2315,2.40536,0.0245286,0.0563165,0.26317,
2,1,0,1,0,604.985,0.264979,0.264709,0.0586982,1,0.0176299,10,1.5538e-05,-4.23138,2.52572,0.0233597,0.054058,0.264709,
2,1,0,1,0,606.483,0.266477,0.266175,0.0596166,1,0.0177416,10,1.58685e-05,-4.22463,0.542619,0.108732,0.25085,0.266175,
2,1,0,1,0,607.982,0.267976,0.267673,0.0595269,1,0.0178535,10,1.59338e-05,-4.22529,-2.25422,-0.0261731,-0.0601806,0.267673,
2,1,0,1,0,609.48,0.269474,0.269154,0.0592274,1,0.0179655,10,1.59413e-05,-4.22748,3.26791,0.0180543,0.0420445,0.269154,
2,1,0,1,0,610.978,0.270972,0.270674,0.0597907,1,0.0180775,10,1.61838e-05,-4.22337,2.12507,0.0277638,0.0644369,0.270674,
2,1,0,1,0,612.476,0.27247,0.27215,0.0596349,1,0.01819,10,1.62297e-05,-4.2245,-1.26746,-0.0465498,-0.108412,0.27215,
2,1,0,1,0,613.974,0.273968,0.273661,0.0599051,1,0.0183024,10,1.63937e-05,-4.22254,1.83367,0.032176,0.0751228,0.273661,
2,1,0,1,0,615.472,0.275467,0.275209,0.0604671,1,0.0184151,10,1.66411e-05,-4.21848,5.61836,0.0105013,0.0244746,0.275209,
2,1,0,1,0,616.971,0.276965,0.276688,0.0599644,1,0.0185279,10,1.65914e-05,-4.22211,-2.03859,-0.0289415,-0.0680301,0.2766878,
2,1,0,1,0,618.469,0.278463,0.278184,0.0597931,1,0.0186405,10,1.66335e-05,-4.22335,5.68813,0.0103725,0.0242706,0.278184,
2,1,0,1,0,619.967,0.279961,0.279651,0.0601799,1,0.0187535,10,1.68293e-05,-4.22055,3.71323,0.0158891,0.0372739,0.279651,
2,1,0,1,0,621.465,0.281459,0.28119,0.0600278,1,0.0188662,10,1.68792e-05,-4.22165,-33.1519,-0.00177968,-0.00419225,0.28119,
2,1,0,1,0,622.963,0.282958,0.28268,0.0598508,1,0.0189791,10,1.69186e-05,-4.22293,0.590589,0.0999003,0.23603,0.28268,
2,1,0,1,0,624.462,0.284456,0.284153,0.0602741,1,0.0190927,10,1.71271e-05,-4.21987,0.885533,0.0666265,0.156936,0.2841531,
2,1,0,1,0,625.96,0.285954,0.285646,0.0608856,1,0.0192065,10,1.73917e-05,-4.21549,3.11211,0.0189582,0.0451421,0.285646,
2,1,0,1,0,627.458,0.287452,0.287119,0.0609808,1,0.0193203,10,1.75088e-05,-4.21481,1.81267,0.0325486,0.0775594,0.287119,
2,1,0,1,0,628.956,0.28895,0.288666,0.0609093,1,0.0194345,10,1.75825e-05,-4.21532,1.07348,0.0549616,0.131462,0.288666,
2,1,0,1,0,630.454,0.290448,0.290151,0.0612147,1,0.0195488,10,1.77615e-05,-4.21314,0.701321,0.0841269,0.20137,0.290151,
2,1,0,1,0,631.953,0.291947,0.291643,0.0614735,1,0.0196637,10,1.79283e-05,-4.21131,-2.33132,-0.0253076,-0.0607573,0.291643,
2,1,0,1,0,633.451,0.293445,0.293134,0.061354,1,0.0197783,10,1.79849e-05,-4.21216,1.3674,0.0431477,0.103667,0.293134,
2,1,0,1,0,634.949,0.294943,0.294649,0.0616089,1,0.019893,10,1.8153e-05,-4.21036,1.07865,0.0546982,0.131523,0.294649,
2,1,0,1,0,636.447,0.296441,0.296136,0.0623195,1,0.0200083,10,1.8455e-05,-4.20538,29.6248,0.00199158,0.00479734,0.296136,
2,1,0,1,0,637.945,0.297939,0.297675,0.0622173,1,0.0201237,10,1.85206e-05,-4.20609,1.6369,0.0360437,0.0879801,0.2976754,
2,1,0,1,0,639.443,0.299438,0.299186,0.0623724,1,0.0202394,10,1.8661e-05,-4.20501,-0.00670333,-8.80159,-15.9051,0.299186,
2,1,0,1,0,640.293,0.299737,0.299424,0.0390979,1,0.0202909,10,1.17069e-05,-4.40785,0.00313515,18.8189,30.95,0.299424,
2,1,0,1,0,641.791,0.298239,0.297933,0.0288107,1,0.0203174,10,8.58367e-06,-4.54045,0.00835496,7.06168,10.984,0.297933,
2,1,0,1,0,643.289,0.296741,0.296472,0.024537,1,0.0203342,10,7.27453e-06,-4.61018,0.0224844,2.62404,2.61308,0.296472,
2,1,0,1,0,644.788,0.295243,0.294911,0.021197,1,0.0203454,10,6.25122e-06,-4.67373,0.0273627,2.15622,1.83813,0.294911,
2,1,0,1,0,646.286,0.293745,0.293478,0.0189545,1,0.0203531,10,5.56272e-06,-4.72229,0.0301982,1.95376,1.45855,0.293478,
2,1,0,1,0,647.784,0.292246,0.291913,0.0168448,1,0.0203577,10,4.91722e-06,-4.77353,0.0351214,1.67989,1.12846,0.291913,
2,1,0,1,0,649.282,0.290748,0.290449,0.0152159,1,0.0203592,10,4.41945e-06,-4.8177,0.026249,2.2477,1.32246,0.2904487,
2,1,0,1,0,650.78,0.28925,0.288941,0.0133084,1,0.0203581,10,3.84533e-06,-4.87588,0.0282923,2.08538,1.10914,0.288941,
2,1,0,1,0,652.279,0.287752,0.287456,0.0116827,1,0.0203544,10,3.35828e-06,-4.93246,0.0271764,2.171,1.01508,0.287456,
2,1,0,1,0,653.777,0.286254,0.285961,0.0113279,1,0.0203489,10,3.23935e-06,-4.94585,0.0247055,2.38813,0.967586,0.285961,
2,1,0,1,0,655.275,0.284755,0.284468,0.00972134,1,0.0203416,10,2.76541e-06,-5.01227,0.0297481,1.98332,0.746968,0.284468,
2,1,0,1,0,656.773,0.283257,0.282953,0.00805928,1,0.0203323,10,2.2804e-06,-5.0937,0.0230364,2.56116,0.823319,0.282953,
2,1,0,1,0,658.271,0.281759,0.281473,0.00745402,1,0.0203211,10,2.09811e-06,-5.12761,0.0192186,3.06994,0.844922,0.281473,
2,1,0,1,0,659.77,0.280261,0.279993,0.00616564,1,0.0203086,10,1.72634e-06,-5.21002,0.0235306,2.50737,0.623914,0.279993,
2,1,0,1,0,661.268,0.278763,0.278501,0.00540778,1,0.0202946,10,1.50607e-06,-5.26698,0.0218371,2.70183,0.545274,0.278501,
2,1,0,1,0,662.766,0.277264,0.277004,0.00424766,1,0.0202791,10,1.17662e-06,-5.37185,0.0161819,3.64606,0.648883,0.277004,
2,1,0,1,0,664.264,0.275766,0.275447,0.0031563,1,0.0202622,10,8.69395e-07,-5.50082,0.00961769,6.13453,0.8125,0.275447,
2,1,0,1,0,665.762,0.274268,0.273948,0.00218763,1,0.020244,10,5.99295e-07,-5.66003,0.00916447,6.43791,0.61581,0.273948,
2,0,0,1,0,667.26,0.27277,0.27246,0.00115223,1,0.0202242,10,3.13936e-07,-5.93846,0.0070548,8.3631,0.514135,0.27246,
2,1,0,1,0,668.759,0.271272,0.270967,0.000632562,1,0.020203,10,1.71403e-07,-6.1989,0.00348473,16.931,0.562295,0.270967,
2,0,0,1,0,670.257,0.269774,0.269473,0.000117076,1,0.0201806,10,3.15489e-08,-6.93153,0.0188856,3.12407,0.570608,0.269473,
2,1,0,1,0,671.755,0.268275,0.267948,-0.000849291,1,0.0201573,10,-2.27566e-07,-6.07094,-0.00296317,-19.9111,0.450403,0.267948,
2,1,0,1,0,673.253,0.266777,0.266457,-0.00173937,1,0.0201329,10,-4.63469e-07,-5.75961,-0.00366237,-16.1098,0.676381,0.266457,
2,0,0,1,0,674.751,0.265279,0.265001,-0.00270806,1,0.0201066,10,-7.1764e-07,-5.56734,-0.00890633,-6.6245,0.684735,0.265001,
2,1,0,1,0,676.25,0.263781,0.263492,-0.00304744,1,0.0200792,10,-8.02975e-07,-5.51607,-0.0166165,-3.55069,0.504264,0.263492,
2,1,0,1,0,677.748,0.262283,0.261993,-0.00391428,1,0.0200506,10,-1.02551e-06,-5.40735,-0.0146287,-4.03315,0.586135,0.261993,
2,1,0,1,0,679.246,0.260784,0.260546,-0.00441202,1,0.0200213,10,-1.14954e-06,-5.35536,-0.0403025,-1.46393,0.272672,0.2605463,
2,1,0,1,0,680.744,0.259286,0.258971,-0.00544726,1,0.0199909,10,-1.41068e-06,-5.26382,-0.03625,-1.62759,0.34925,0.258971,
2,0,0,1,0,682.242,0.257788,0.257476,-0.00595717,1,0.0199593,10,-1.53383e-06,-5.22496,-0.0334418,-1.76426,0.40769,0.257476,
2,0,0,1,0,683.741,0.25629,0.255991,-0.00690011,1,0.0199265,10,-1.76637e-06,-5.16114,-0.0463942,-1.27171,0.32881,0.255991,
2,1,0,1,0,685.239,0.254792,0.254507,-0.00740805,1,0.0198928,10,-1.8854e-06,-5.1303,-0.0526835,-1.11989,0.332057,0.254507,
2,1,0,1,0,686.737,0.253293,0.252954,-0.00773283,1,0.0198584,10,-1.95605e-06,-5.11166,-0.0392093,-1.50475,0.481109,0.252954,
2,1,0,1,0,688.235,0.251795,0.251449,-0.00914422,1,0.0198227,10,-2.29931e-06,-5.03885,-0.0303869,-1.94163,0.62009,0.251449,
2,0,0,1,0,689.733,0.250297,0.24998,-0.00964689,1,0.0197856,10,-2.41153e-06,-5.01561,-0.0411233,-1.43471,0.529162,0.24998,
2,1,0,1,0,691.232,0.248799,0.248512,-0.010442,1,0.0197473,10,-2.59497e-06,-4.98122,-0.0449859,-1.31152,0.522907,0.248512,
2,0,0,1,0,692.73,0.247301,0.246985,-0.0111313,1,0.0197081,10,-2.74926e-06,-4.95345,-0.04995,-1.18118,0.521264,0.246985,
2,0,0,1,0,694.228,0.245802,0.24553,-0.0117553,1,0.0196679,10,-2.88627e-06,-4.92977,-0.0533833,-1.10521,0.500896,0.24553,
2,0,0,1,0,695.726,0.244304,0.243995,-0.0125729,1,0.0196264,10,-3.06773e-06,-4.90056,-0.0695615,-0.84817,0.404312,0.243995,
2,0,0,1,0,697.224,0.242806,0.242452,-0.0132376,1,0.0195841,10,-3.20949e-06,-4.87819,-0.0836054,-0.705696,0.359064,0.242452,
2,0,0,1,0,698.722,0.241308,0.240998,-0.0139568,1,0.0195412,10,-3.36357e-06,-4.85521,-0.0787688,-0.749027,0.40309,0.240998,
2,0,0,1,0,700.221,0.23981,0.239555,-0.0143563,1,0.0194971,10,-3.43912e-06,-4.84296,-0.0744583,-0.79239,0.44518,0.2395546,
2,0,0,1,0,701.719,0.238312,0.238012,-0.014895,1,0.019452,10,-3.54518e-06,-4.82696,-0.0724016,-0.814899,0.485813,0.2380117,
2,0,0,1,0,703.217,0.236813,0.236456,-0.0156003,1,0.0194059,10,-3.68879e-06,-4.80687,-0.076367,-0.772585,0.473107,0.236456,
2,0,0,1,0,704.715,0.235315,0.235005,-0.016688,1,0.0193587,10,-3.92178e-06,-4.7776,-0.0528897,-1.11553,0.709733,0.235005,
2,0,0,1,0,706.213,0.233817,0.233542,-0.0171123,1,0.0193103,10,-3.99643e-06,-4.76669,-0.10201,-0.578377,0.383283,0.233542,
2,1,0,1,0,707.712,0.232319,0.232014,-0.0179451,1,0.0192608,10,-4.16352e-06,-4.74605,-0.148762,-0.396606,0.273407,0.232014,
2,0,0,1,0,709.21,0.230821,0.230464,-0.0183438,1,0.0192103,10,-4.22759e-06,-4.73651,-0.123753,-0.476756,0.336588,0.230464,
2,1,0,1,0,710.708,0.229322,0.22899,-0.0189089,1,0.0191595,10,-4.32994e-06,-4.72333,-0.14243,-0.414238,0.302397,0.22899,
2,0,0,1,0,712.206,0.227824,0.227542,-0.0193281,1,0.0191078,10,-4.39797e-06,-4.71381,-0.126424,-0.466684,0.345079,0.227542,
2,0,0,1,0,713.704,0.226326,0.226064,-0.0200709,1,0.0190553,10,-4.53732e-06,-4.69743,-0.163191,-0.36154,0.279455,0.226064,
2,0,0,1,0,715.203,0.224828,0.224543,-0.0203659,1,0.0190017,10,-4.57302e-06,-4.6911,-0.223515,-0.263965,0.208625,0.224543,
2,0,0,1,0,716.701,0.22333,0.22299,-0.0208412,1,0.0189474,10,-4.64738e-06,-4.68108,-0.114435,-0.515575,0.420222,0.22299,
2,0,0,1,0,718.199,0.221831,0.221532,-0.0208301,1,0.0188928,10,-4.61454e-06,-4.68131,-0.117464,-0.502281,0.420523,0.2215319,
2,0,0,1,0,719.697,0.220333,0.220065,-0.0216404,1,0.0188367,10,-4.7623e-06,-4.66473,-0.145366,-0.405871,0.345668,0.220065,
2,0,0,1,0,721.195,0.218835,0.218529,-0.0224248,1,0.0187796,10,-4.90046e-06,-4.64927,-0.396623,-0.148756,0.131519,0.218529,
2,0,0,1,0,722.694,0.217337,0.217022,-0.0234166,1,0.0187219,10,-5.08191e-06,-4.63048,-0.241475,-0.244332,0.224432,0.217022,
2,0,0,1,0,724.192,0.215839,0.215551,-0.0240023,1,0.0186636,10,-5.17373e-06,-4.61975,-0.125941,-0.468474,0.436608,0.215551,
2,0,0,1,0,725.69,0.21434,0.214033,-0.0244847,1,0.0186041,10,-5.24052e-06,-4.61111,-0.107493,-0.548875,0.52315,0.214033,
2,0,0,1,0,727.188,0.212842,0.212512,-0.025216,1,0.0185433,10,-5.35871e-06,-4.59832,-0.0875324,-0.674036,0.655153,0.212512,
2,0,0,1,0,728.686,0.211344,0.211058,-0.0259976,1,0.0184812,10,-5.48702e-06,-4.58507,-0.167475,-0.352291,0.352565,0.2110583,
2,0,0,1,0,730.184,0.209846,0.209549,-0.0262506,1,0.0184184,10,-5.5008e-06,-4.58086,-0.154506,-0.381861,0.395415,0.209549,
2,0,0,1,0,731.683,0.208348,0.20807,-0.0276719,1,0.0183542,10,-5.7577e-06,-4.55796,-0.118937,-0.496063,0.522614,0.20807,
2,0,0,1,0,733.181,0.20685,0.206509,-0.0281879,1,0.0182888,10,-5.82106e-06,-4.54994,-0.17619,-0.334865,0.362842,0.206509,
2,0,0,1,0,734.679,0.205351,0.205005,-0.0294069,1,0.0182226,10,-6.02858e-06,-4.53155,-0.185626,-0.317844,0.356508,0.205005,
2,0,0,1,0,736.177,0.203853,0.203518,-0.0292323,1,0.0181554,10,-5.94929e-06,-4.53414,-0.130673,-0.45151,0.516199,0.203518,
2,0,0,1,0,737.675,0.202355,0.202035,-0.0301189,1,0.0180873,10,-6.08507e-06,-4.52116,-0.124124,-0.47533,0.562542,0.202035,
2,0,0,1,0,739.174,0.200857,0.200547,-0.030859,1,0.0180177,10,-6.1887e-06,-4.51062,-0.128846,-0.457912,0.551708,0.200547,
2,0,0,1,0,740.672,0.199359,0.199044,-0.0319204,1,0.0179465,10,-6.35355e-06,-4.49593,-0.131444,-0.448861,0.548361,0.1990438,
2,0,0,1,0,742.17,0.19786,0.197532,-0.0318644,1,0.0178745,10,-6.29423e-06,-4.49669,-0.145038,-0.406789,0.517955,0.197532,
2,0,0,1,0,743.668,0.196362,0.196014,-0.0330012,1,0.0178016,10,-6.4687e-06,-4.48147,-0.121196,-0.486815,0.62679,0.196014,
2,0,0,1,0,745.166,0.194864,0.194561,-0.0342431,1,0.0177273,10,-6.66238e-06,-4.46543,-0.125172,-0.471351,0.618306,0.194561,
2,0,0,1,0,746.665,0.193366,0.193057,-0.0344893,1,0.0176516,10,-6.65839e-06,-4.46232,-0.159243,-0.370503,0.499432,0.193057,
2,0,0,1,0,748.163,0.191868,0.191583,-0.0354665,1,0.0175749,10,-6.79478e-06,-4.45018,-0.157771,-0.37396,0.515329,0.191583,
2,0,0,1,0,749.661,0.190369,0.190042,-0.0369797,1,0.0174969,10,-7.0277e-06,-4.43204,-0.132312,-0.445917,0.630313,0.190042,
2,0,0,1,0,751.159,0.188871,0.188568,-0.037104,1,0.017417,10,-6.99663e-06,-4.43058,-0.120112,-0.491208,0.714637,0.188568,
2,0,0,1,0,752.657,0.187373,0.187063,-0.0379182,1,0.017336,10,-7.0931e-06,-4.42115,-0.14579,-0.404693,0.604182,0.187063,
2,0,0,1,0,754.156,0.185875,0.1856,-0.0393051,1,0.0172536,10,-7.29503e-06,-4.40555,-0.101637,-0.580497,0.88714,0.1856,
2,0,0,1,0,755.654,0.184377,0.184092,-0.0403822,1,0.0171694,10,-7.43404e-06,-4.39381,-0.106382,-0.554603,0.86499,0.184092,
2,0,0,1,0,757.152,0.182878,0.18262,-0.0416816,1,0.0170832,10,-7.61191e-06,-4.38006,-0.122824,-0.480361,0.775216,0.18262,
2,0,0,1,0,758.65,0.18138,0.181106,-0.0429055,1,0.016995,10,-7.77043e-06,-4.36749,-0.127418,-0.463042,0.775962,0.181106,
2,0,0,1,0,760.148,0.179882,0.179608,-0.0435821,1,0.0169048,10,-7.82768e-06,-4.36069,-0.139521,-0.422874,0.720355,0.179608,
2,0,0,1,0,761.646,0.178384,0.178115,-0.0457017,1,0.0168127,10,-8.14014e-06,-4.34007,-0.115455,-0.511023,0.903849,0.178115,
2,0,0,1,0,763.145,0.176886,0.17657,-0.0468886,1,0.0167187,10,-8.27911e-06,-4.32893,-0.114952,-0.513258,0.937323,0.17657,
2,0,0,1,0,764.643,0.175388,0.175048,-0.0483079,1,0.0166209,10,-8.4562e-06,-4.31598,-0.105859,-0.557346,1.04965,0.175048,
2,0,0,1,0,766.141,0.173889,0.173579,-0.0496343,1,0.0165213,10,-8.61548e-06,-4.30422,-0.190943,-0.308992,0.615533,0.173579,
2,0,0,1,0,767.639,0.172391,0.172085,-0.0517165,1,0.0164191,10,-8.89964e-06,-4.28637,-0.135921,-0.434077,0.876962,0.172085,
2,0,0,1,0,769.137,0.170893,0.170561,-0.0540017,1,0.0163142,10,-9.2106e-06,-4.26759,-0.101627,-0.580556,1.22167,0.170561,
2,0,0,1,0,770.636,0.169395,0.169087,-0.0559296,1,0.0162061,10,-9.45698e-06,-4.25236,-0.0905881,-0.6513,1.40704,0.169087,
2,0,0,1,0,772.134,0.167897,0.16763,-0.0576207,1,0.0160945,10,-9.65898e-06,-4.23942,-0.0903185,-0.653244,1.47825,0.16763,
2,0,0,1,0,773.632,0.166398,0.16609,-0.0601356,1,0.0159796,10,-9.98789e-06,-4.22087,-0.0814312,-0.724538,1.71273,0.1660895,
2,0,0,1,0,775.13,0.1649,0.164579,-0.0629592,1,0.0158609,10,-1.03618e-05,-4.20094,-0.0862552,-0.684016,1.67992,0.164579,
2,0,0,1,0,776.628,0.163402,0.163126,-0.0658137,1,0.0157375,10,-1.07359e-05,-4.18168,-0.0716285,-0.823695,2.11382,0.163126,
2,0,0,1,0,778.127,0.161904,0.161572,-0.0693437,1,0.0156096,10,-1.1204e-05,-4.15899,-0.0722527,-0.816578,2.21282,0.161572,
2,0,0,1,0,779.625,0.160406,0.1601,-0.0732308,1,0.0154763,10,-1.17243e-05,-4.13531,-0.0651506,-0.905595,2.56515,0.1601,
2,0,0,1,0,781.123,0.158907,0.158616,-0.0762989,1,0.0153373,10,-1.21022e-05,-4.11748,-0.0609123,-0.968606,2.89879,0.158616,
2,0,0,1,0,782.621,0.157409,0.157133,-0.0804183,1,0.0151921,10,-1.26364e-05,-4.09465,-0.0645447,-0.914095,2.87382,0.157133,
2,0,0,1,0,784.119,0.155911,0.155662,-0.0849357,1,0.01504,10,-1.32212e-05,-4.07091,-0.0607307,-0.971502,3.24785,0.155662,
2,0,0,1,0,785.618,0.154413,0.154061,-0.0911541,1,0.0148801,10,-1.40433e-05,-4.04022,-0.0605586,-0.974264,3.42562,0.154061,
2,0,0,1,0,787.116,0.152915,0.152603,-0.0960423,1,0.0147121,10,-1.46564e-05,-4.01754,-0.0567687,-1.03931,3.91542,0.152603,
2,0,0,1,0,788.614,0.151417,0.15111,-0.102216,1,0.0145358,10,-1.5446e-05,-3.99048,-0.0573853,-1.02814,4.12492,0.15111,
2,0,0,1,0,790.112,0.149918,0.14961,-0.108984,1,0.0143495,10,-1.63051e-05,-3.96264,-0.0585776,-1.00721,4.28026,0.14961,
2,0,0,1,0,791.61,0.14842,0.148155,-0.115613,1,0.0141532,10,-1.71286e-05,-3.93699,-0.0621737,-0.948955,4.2731,0.148155,
2,0,0,1,0,793.108,0.146922,0.146587,-0.122103,1,0.0139472,10,-1.78986e-05,-3.91327,-0.0621168,-0.949824,4.51969,0.146587,
2,0,0,1,0,794.607,0.145424,0.145138,-0.129736,1,0.0137315,10,-1.88297e-05,-3.88694,-0.0687464,-0.858227,4.30238,0.145138,
2,0,0,1,0,796.105,0.143926,0.143601,-0.135324,1,0.0135051,10,-1.94326e-05,-3.86862,-0.0707149,-0.834336,4.39512,0.143601,
2,0,0,1,0,797.603,0.142427,0.142122,-0.141455,1,0.0132691,10,-2.01039e-05,-3.84938,-0.0828418,-0.712201,3.93646,0.1421223,
2,0,0,1,0,799.101,0.140929,0.140664,-0.147394,1,0.013024,10,-2.0733e-05,-3.83152,-0.0920454,-0.640988,3.681,0.1406642,
2,0,0,1,0,800.599,0.139431,0.139125,-0.152589,1,0.0127712,10,-2.12289e-05,-3.81648,-0.105432,-0.559605,3.32254,0.1391245,
2,0,0,1,0,802.098,0.137933,0.137629,-0.157401,1,0.0125104,10,-2.16631e-05,-3.80299,-0.129251,-0.456476,2.79054,0.137629,
2,0,0,1,0,803.596,0.136435,0.136114,-0.162069,1,0.0122428,10,-2.20599e-05,-3.7903,-0.161012,-0.366433,2.28909,0.136114,
2,0,0,1,0,805.094,0.134936,0.134619,-0.164985,1,0.0119697,10,-2.22102e-05,-3.78255,-0.220678,-0.267358,1.70641,0.134619,
2,0,0,1,0,806.592,0.133438,0.133137,-0.165806,1,0.0116933,10,-2.2075e-05,-3.7804,-0.282634,-0.208751,1.35197,0.1331374,
2,0,0,1,0,808.09,0.13194,0.131676,-0.168411,1,0.0114139,10,-2.21756e-05,-3.77363,-0.338766,-0.174162,1.14127,0.131676,
2,0,0,1,0,809.589,0.130442,0.130151,-0.169513,1,0.0111317,10,-2.20623e-05,-3.7708,-0.831026,-0.0709965,0.470296,0.130151,
2,0,0,1,0,811.087,0.128944,0.128641,-0.169472,1,0.010848,10,-2.18011e-05,-3.7709,-8.05377,-0.00732576,0.0484722,0.128641,
2,0,0,1,0,812.585,0.127445,0.127131,-0.170021,1,0.0105637,10,-2.1615e-05,-3.7695,2.08769,0.0282609,-0.187067,0.127131,
2,0,0,1,0,814.083,0.125947,0.125627,-0.169495,1,0.0102811,10,-2.1293e-05,-3.77084,0.687079,0.0858707,-0.568134,0.125627,
2,0,0,1,0,815.581,0.124449,0.124135,-0.169747,1,0.00999858,10,-2.10715e-05,-3.7702,0.71564,0.0824436,-0.542947,0.124135,
2,0,0,1,0,817.08,0.122951,0.122644,-0.168495,1,0.00971745,10,-2.06649e-05,-3.77341,0.611714,0.0964502,-0.630605,0.122644,
2,0,0,1,0,818.578,0.121453,0.121123,-0.167111,1,0.00943764,10,-2.0241e-05,-3.77699,0.539025,0.109457,-0.711563,0.121123,
2,0,0,1,0,820.076,0.119955,0.119676,-0.165349,1,0.00916061,10,-1.97883e-05,-3.7816,0.425968,0.138508,-0.894811,0.119676,
2,0,0,1,0,821.574,0.118456,0.118134,-0.163645,1,0.00888526,10,-1.9332e-05,-3.7861,0.59386,0.09935,-0.633761,0.118134,
2,0,0,1,0,823.072,0.116958,0.116633,-0.162143,1,0.00861134,10,-1.89113e-05,-3.7901,0.359079,0.164309,-1.04057,0.116633,
2,0,0,1,0,824.57,0.11546,0.115163,-0.160652,1,0.00834035,10,-1.8501e-05,-3.79411,0.318234,0.185398,-1.16744,0.115163,
2,0,0,1,0,826.069,0.113962,0.113681,-0.158106,1,0.00807246,10,-1.79737e-05,-3.80105,0.29135,0.202505,-1.2555,0.113681,
2,0,0,1,0,827.567,0.112464,0.112168,-0.157058,1,0.00780716,10,-1.76169e-05,-3.80394,0.278526,0.211829,-1.29886,0.112168,
2,0,0,1,0,829.065,0.110965,0.110654,-0.155102,1,0.00754445,10,-1.71626e-05,-3.80938,0.283703,0.207964,-1.25985,0.110654,
2,0,0,1,0,830.563,0.109467,0.109187,-0.153209,1,0.00728491,10,-1.67284e-05,-3.81472,0.259173,0.227647,-1.3633,0.109187,
2,0,0,1,0,832.061,0.107969,0.107644,-0.150289,1,0.00702856,10,-1.61777e-05,-3.82307,0.2422,0.2436,-1.43957,0.107644,
2,0,0,1,0,833.56,0.106471,0.10615,-0.149294,1,0.00677587,10,-1.58475e-05,-3.82596,0.263803,0.223652,-1.30974,0.1061501,
2,0,0,1,0,835.058,0.104973,0.104634,-0.146471,1,0.00652606,10,-1.53258e-05,-3.83425,0.228159,0.258591,-1.48575,0.1046337,
2,0,0,1,0,836.556,0.103474,0.103195,-0.145053,1,0.00627892,10,-1.49687e-05,-3.83847,0.206809,0.285288,-1.61639,0.1031947,
2,0,0,1,0,838.054,0.101976,0.101671,-0.143455,1,0.00603572,10,-1.45852e-05,-3.84328,0.233707,0.252453,-1.40591,0.101671,
2,0,0,1,0,839.552,0.100478,0.100171,-0.141447,1,0.00579582,10,-1.4169e-05,-3.84941,0.279359,0.211198,-1.16227,0.100171,
2,0,0,1,0,841.051,0.0989798,0.0986689,-0.139226,1,0.00555813,10,-1.37373e-05,-3.85628,0.241133,0.244679,-1.32258,0.0986689,
2,0,0,1,0,842.549,0.0974816,0.0971896,-0.137178,1,0.0053233,10,-1.33323e-05,-3.86271,0.228225,0.258517,-1.38449,0.0971896,
2,0,0,1,0,844.047,0.0959834,0.0956626,-0.13521,1,0.00509198,10,-1.29345e-05,-3.86899,0.247681,0.238209,-1.26472,0.0956626,
2,0,0,1,0,845.545,0.0944852,0.0941431,-0.133181,1,0.00486397,10,-1.25381e-05,-3.87556,0.291993,0.20206,-1.05495,0.09414307,
2,0,0,1,0,847.043,0.0929871,0.0926469,-0.132169,1,0.00463761,10,-1.22451e-05,-3.87887,0.435744,0.1354,-0.697924,0.0926469,
2,0,0,1,0,848.542,0.0914889,0.0912004,-0.130818,1,0.0044131,10,-1.19307e-05,-3.88333,0.41419,0.142447,-0.726992,0.0912004,
2,0,0,1,0,850.04,0.0899907,0.0896979,-0.129721,1,0.00419075,10,-1.16357e-05,-3.88699,0.314673,0.187496,-0.949069,0.0896979,
2,0,0,1,0,851.538,0.0884925,0.0881826,-0.128067,1,0.00397047,10,-1.12933e-05,-3.89256,0.361731,0.163105,-0.816641,0.0881826,
2,0,0,1,0,853.036,0.0869943,0.0866778,-0.127813,1,0.00375192,10,-1.10786e-05,-3.89342,0.444653,0.132688,-0.660105,0.0866778,
2,0,0,1,0,854.534,0.0854961,0.0851614,-0.126545,1,0.00353444,10,-1.07768e-05,-3.89775,0.425443,0.138679,-0.683467,0.0851614,
2,0,0,1,0,856.032,0.083998,0.0836823,-0.124818,1,0.00331843,10,-1.04451e-05,-3.90372,0.317522,0.185814,-0.906648,0.0836823,
2,0,0,1,0,857.531,0.0824998,0.0821744,-0.123905,1,0.0031045,10,-1.01818e-05,-3.90691,0.413822,0.142573,-0.692359,0.0821744,
2,0,0,1,0,859.029,0.0810016,0.0806876,-0.123137,1,0.00289263,10,-9.93567e-06,-3.90961,0.497801,0.118521,-0.571395,0.0806876,
2,0,0,1,0,860.527,0.0795034,0.0792126,-0.121889,1,0.00268186,10,-9.65511e-06,-3.91404,0.414808,0.142235,-0.678752,0.0792126,
2,0,0,1,0,862.025,0.0780052,0.0776888,-0.121363,1,0.00247227,10,-9.42851e-06,-3.91592,0.50666,0.116449,-0.55029,0.0776888,
2,0,0,1,0,863.523,0.076507,0.0761682,-0.120291,1,0.00226422,10,-9.16237e-06,-3.91977,0.471171,0.12522,-0.586836,0.0761682,
2,0,0,1,0,865.022,0.0750088,0.07469,-0.119913,1,0.00205799,10,-8.95632e-06,-3.92113,0.568203,0.103836,-0.484609,0.07469,
2,0,0,1,0,866.52,0.0735106,0.0731852,-0.118702,1,0.00185227,10,-8.68722e-06,-3.92554,0.675002,0.0874072,-0.403746,0.0731852,
2,0,0,1,0,868.018,0.0720124,0.0716869,-0.117924,1,0.00164774,10,-8.45357e-06,-3.9284,0.491082,0.120143,-0.553395,0.0716869,
2,0,0,1,0,869.516,0.0705142,0.0701927,-0.116876,1,0.00144471,10,-8.20386e-06,-3.93227,0.328557,0.179573,-0.820052,0.0701927,
2,0,0,1,0,871.014,0.069016,0.0687198,-0.115688,1,0.00124379,10,-7.95003e-06,-3.93671,0.406192,0.145252,-0.657841,0.0687198,
2,0,0,1,0,872.513,0.0675178,0.067197,-0.114442,1,0.00104392,10,-7.69016e-06,-3.94141,0.630265,0.0936114,-0.418505,0.06719704,
2,0,0,1,0,874.011,0.0660196,0.0656998,-0.114945,1,0.000845201,10,-7.55184e-06,-3.93951,0.374518,0.157536,-0.701362,0.0656998,
2,0,0,1,0,875.509,0.0645214,0.0641579,-0.112883,1,0.000648192,10,-7.24232e-06,-3.94737,0.335303,0.17596,-0.777063,0.06415794,
2,0,0,1,0,877.007,0.0630233,0.0626978,-0.111804,1,0.000452645,10,-7.00987e-06,-3.95154,0.474698,0.12429,-0.541257,0.06269785,
2,0,0,1,0,878.505,0.0615251,0.0612059,-0.111405,1,0.000258626,10,-6.81862e-06,-3.9531,0.342751,0.172137,-0.74561,0.0612059,
2,0,0,1,0,880.004,0.0600269,0.0596979,-0.10982,1,6.60369e-05,10,-6.55604e-06,-3.95932,0.310503,0.190014,-0.816015,0.0596979,
2,0,0,1,0,881.502,0.0585287,0.0582155,-0.1092,1,-0.000125028,10,-6.35714e-06,-3.96178,0.316641,0.186331,-0.789583,0.0582155,
2,0,0,1,0,883,0.0570305,0.0567054,-0.108209,1,-0.000314637,10,-6.13605e-06,-3.96574,0.466659,0.126431,-0.533903,0.0567054,
2,0,0,1,0,884.498,0.0555323,0.0552442,-0.107253,1,-0.000502621,10,-5.9251e-06,-3.96959,0.616508,0.0957003,-0.401107,0.0552442,
2,0,0,1,0,885.996,0.0540342,0.0537163,-0.106793,1,-0.000689393,10,-5.73653e-06,-3.97146,0.288555,0.204467,-0.846003,0.05371625,
2,0,0,1,0,887.494,0.052536,0.0522137,-0.104715,1,-0.000875345,10,-5.46753e-06,-3.97999,0.377874,0.156137,-0.641432,0.0522137,
2,0,0,1,0,888.993,0.0510378,0.0507057,-0.104853,1,-0.00105909,10,-5.31665e-06,-3.97942,0.269712,0.218752,-0.88963,0.0507057,
2,0,0,1,0,890.491,0.0495396,0.0492435,-0.103624,1,-0.00124079,10,-5.1028e-06,-3.98454,0.363576,0.162277,-0.653164,0.0492435,
2,0,0,1,0,891.989,0.0480414,0.0477154,-0.101999,1,-0.00142123,10,-4.86692e-06,-3.9914,0.694955,0.0848976,-0.338506,0.0477154,
2,0,0,1,0,893.487,0.0465432,0.0461863,-0.10156,1,-0.00160047,10,-4.69066e-06,-3.99328,0.672711,0.0877049,-0.346845,0.0461863,
2,0,0,1,0,894.985,0.045045,0.0447706,-0.100687,1,-0.00177867,10,-4.5078e-06,-3.99703,0.320019,0.184364,-0.723693,0.0447706,
2,0,0,1,0,896.484,0.0435468,0.0432436,-0.0995204,1,-0.00195559,10,-4.30362e-06,-4.00209,0.489711,0.120479,-0.467944,0.0432436,
2,0,0,1,0,897.982,0.0420486,0.0417675,-0.0988796,1,-0.00213104,10,-4.12996e-06,-4.00489,0.309902,0.190383,-0.736712,0.0417675,
2,0,0,1,0,899.48,0.0405504,0.0402437,-0.0991625,1,-0.00230571,10,-3.99067e-06,-4.00365,0.488872,0.120686,-0.46283,0.0402437,
2,0,0,1,0,900.978,0.0390522,0.0387273,-0.0974263,1,-0.00247928,10,-3.77306e-06,-4.01132,0.527681,0.11181,-0.426642,0.0387273,
2,0,0,1,0,902.476,0.037554,0.0371982,-0.0959763,1,-0.00265155,10,-3.57014e-06,-4.01784,0.511791,0.115281,-0.435169,0.0371982,
2,0,0,1,0,903.975,0.0360558,0.0357496,-0.0963216,1,-0.00282291,10,-3.44346e-06,-4.01628,1.25797,0.0469011,-0.176642,0.0357496,
2,0,0,1,0,905.473,0.0345576,0.0342555,-0.096139,1,-0.00299375,10,-3.29329e-06,-4.0171,0.638316,0.0924307,-0.345915,0.0342555,
2,0,0,1,0,906.971,0.0330594,0.032772,-0.0952005,1,-0.00316388,10,-3.11991e-06,-4.02136,0.784429,0.0752139,-0.281162,0.032772,
2,0,0,1,0,908.469,0.0315613,0.0312313,-0.0953586,1,-0.00333325,10,-2.97817e-06,-4.02064,1.49254,0.0395298,-0.146957,0.0312313,
2,0,0,1,0,909.967,0.0300631,0.0297234,-0.0949911,1,-0.003502,10,-2.82346e-06,-4.02232,3.14288,0.0187726,-0.0691377,0.0297234,
2,0,0,1,0,911.466,0.0285649,0.0281932,-0.094388,1,-0.00367043,10,-2.6611e-06,-4.02508,1.47006,0.0401345,-0.147986,0.0281932,
2,0,0,1,0,912.964,0.0270667,0.0267649,-0.0942739,1,-0.00383837,10,-2.52323e-06,-4.02561,1.70196,0.0346659,-0.126848,0.0267649,
2,0,0,1,0,914.462,0.0255685,0.0252782,-0.0940268,1,-0.004006,10,-2.37682e-06,-4.02675,-1.51965,-0.0388247,0.142798,0.0252782,
2,0,0,1,0,915.96,0.0240703,0.0237141,-0.0936553,1,-0.00417313,10,-2.22095e-06,-4.02847,-16.9874,-0.00347316,0.0127747,0.0237141,
2,0,0,1,0,917.458,0.0225722,0.0222593,-0.0944266,1,-0.00434091,10,-2.10187e-06,-4.02491,-0.904059,-0.0652612,0.240164,0.0222593,
2,0,0,1,0,918.956,0.021074,0.0207641,-0.094284,1,-0.00450893,10,-1.95772e-06,-4.02556,-0.822318,-0.0717484,0.264203,0.0207641,
2,0,0,1,0,920.455,0.0195758,0.0192498,-0.0948536,1,-0.00467733,10,-1.82592e-06,-4.02295,-2.01716,-0.0292491,0.108895,0.01924983,
2,0,0,1,0,921.953,0.0180776,0.0178024,-0.0945132,1,-0.0048456,10,-1.68256e-06,-4.02451,-0.757641,-0.0778733,0.288891,0.01780236,
2,0,0,1,0,923.451,0.0165794,0.0162563,-0.09534,1,-0.00501452,10,-1.54988e-06,-4.02072,-0.760692,-0.0775609,0.287025,0.0162563,
2,0,0,1,0,924.949,0.0150812,0.0147505,-0.0960635,1,-0.00518451,10,-1.41699e-06,-4.01744,-0.781905,-0.0754568,0.28194,0.0147505,
2,0,0,1,0,926.447,0.013583,0.0132648,-0.0958296,1,-0.00535494,10,-1.27116e-06,-4.0185,-1.05761,-0.0557861,0.208872,0.0132648,
2,0,0,1,0,927.946,0.0120848,0.0117559,-0.0969595,1,-0.00552581,10,-1.13985e-06,-4.01341,-0.744588,-0.0792384,0.300411,0.0117559,
2,0,0,1,0,929.444,0.0105866,0.0102384,-0.0976012,1,-0.00569764,10,-9.99281e-07,-4.01054,-0.405148,-0.145626,0.554854,0.0102384,
2,0,0,1,0,930.942,0.00908843,0.00878889,-0.0981975,1,-0.0058707,10,-8.63047e-07,-4.0079,-0.66285,-0.0890095,0.34197,0.00878889,
2,0,0,1,0,932.44,0.00759024,0.00728729,-0.0989237,1,-0.00604463,10,-7.20886e-07,-4.0047,-0.60019,-0.0983022,0.379543,0.00728729,
2,0,0,1,0,933.938,0.00609203,0.00578149,-0.0996379,1,-0.00621945,10,-5.76055e-07,-4.00158,-0.356263,-0.165608,0.64229,0.00578149,
2,0,0,1,0,935.437,0.00459384,0.00427255,-0.100342,1,-0.00639513,10,-4.28715e-07,-3.99852,-0.500254,-0.11794,0.462454,0.00427255,
2,0,0,1,0,936.935,0.00309563,0.00278159,-0.101214,1,-0.00657216,10,-2.81536e-07,-3.99476,-0.361307,-0.163296,0.646189,0.00278159,
2,0,0,1,0,938.433,0.00159744,0.00123871,-0.102728,1,-0.00675302,10,-1.2725e-07,-3.98831, , , ,0.00123871,
2,0,0,1,0,939.831,0.000199235,-0.000159207,-0.103415,1,-0.00692103,10,1.64644e-08,-3.98542, , , ,-0.000159207,