File: Figure_codes/Fig_3-5/rawdata_trumpetplot_data/after 10th/20221101_1-115_003_TrumpetPlot_ParaChange_from10_every3_12_CV_C01_3.csv
mode,ox/red,error,control changes,counter inc.,time/s,control/V,Ewe/V,<I>/mA,cycle number,(Q-Qo)/C,I Range,P/W,log(|I|),Tafel slope mV/dec,alpha_eff,dI/d(E-IR),E-IR/V,
2,1,0,1,0,7106.91,2.44065e-05,-0.000115363,19.4357,4,0.0000000E+000,10,-2.24216e-06,-1.7114, , , ,-0.000115363,
2,1,0,1,0,7106.92,0.00200257,0.00160462,20.4932,4,6.22846e-05,10,3.28837e-05,-1.68839, , , ,0.00160462,
2,1,0,1,0,7106.92,0.004408,0.00408385,21.4931,4,0.000146449,10,8.77744e-05,-1.6677, , , ,0.00408385,
2,1,0,1,0,7106.92,0.0068051,0.00644325,22.272,4,0.000234093,10,0.000143504,-1.65224,0.156805,0.376264,323.289,0.00644325,
2,1,0,1,0,7106.93,0.00920221,0.00885037,22.9836,4,0.000324712,10,0.000203414,-1.63858,0.187355,0.31491,280.365,0.00885037,
2,1,0,1,0,7106.93,0.0115993,0.0112522,23.6121,4,0.000417996,10,0.000265688,-1.62687,0.214248,0.275382,252.216,0.0112522,
2,1,0,1,0,7106.94,0.0140075,0.0136848,24.1848,4,0.000513663,10,0.000330964,-1.61646,0.243606,0.242194,227.402,0.0136848,
2,1,0,1,0,7106.94,0.0164046,0.016093,24.7058,4,0.000611503,10,0.00039759,-1.6072,0.270901,0.217792,209.138,0.01609295,
2,1,0,1,0,7106.94,0.0188017,0.0184481,25.1662,4,0.000711316,10,0.000464269,-1.59918,0.299456,0.197024,193.01,0.0184481,
2,1,0,1,0,7106.95,0.0212099,0.0208807,25.6258,4,0.000812937,10,0.000535084,-1.59132,0.329589,0.179011,178.502,0.0208807,
2,1,0,1,0,7106.95,0.023607,0.0233005,26.0408,4,0.000916329,10,0.000606764,-1.58435,0.356441,0.165525,167.725,0.02330053,
2,1,0,1,0,7106.96,0.0260041,0.0256642,26.4143,4,0.0010213,10,0.000677902,-1.57816,0.384951,0.153266,157.764,0.0256642,
2,1,0,1,0,7106.96,0.0284012,0.0280596,26.7783,4,0.00112772,10,0.000751389,-1.57222,0.410647,0.143676,150.023,0.0280596,
2,1,0,1,0,7106.96,0.0308067,0.0304742,27.1393,4,0.00123563,10,0.000827048,-1.5664,0.428079,0.137825,145.817,0.0304742,
2,1,0,1,0,7106.97,0.0332038,0.0329142,27.483,4,0.00134491,10,0.000904582,-1.56094,0.444438,0.132752,142.239,0.0329142,
2,1,0,1,0,7106.97,0.0356009,0.0352789,27.8163,4,0.00145554,10,0.000981329,-1.5557,0.46441,0.127043,137.814,0.0352789,
2,1,0,1,0,7106.98,0.0380091,0.0376489,28.1423,4,0.00156748,10,0.00105952,-1.55064,0.477579,0.12354,135.602,0.0376489,
2,1,0,1,0,7106.98,0.0404062,0.0400783,28.4629,4,0.00168073,10,0.00114074,-1.54572,0.485367,0.121557,135.007,0.0400783,
2,1,0,1,0,7106.98,0.0428033,0.04246,28.7775,4,0.00179526,10,0.00122189,-1.54095,0.487967,0.12091,135.844,0.04246,
2,1,0,1,0,7106.99,0.0452032,0.0448628,29.1102,4,0.00191107,10,0.00130597,-1.53595,0.49369,0.119508,135.777,0.0448628,
2,1,0,1,0,7106.99,0.0476058,0.0472318,29.444,4,0.00202823,10,0.00139069,-1.531,0.496038,0.118942,136.614,0.0472318,
2,1,0,1,0,7107,0.0500029,0.0497057,29.7701,4,0.00214671,10,0.00147974,-1.52622,0.490614,0.120257,139.745,0.0497057,
2,1,0,1,0,7107,0.0524,0.0520884,30.0929,4,0.00226646,10,0.00156749,-1.52154,0.494714,0.119261,140.167,0.0520884,
2,1,0,1,0,7107,0.0548082,0.0544574,30.451,4,0.00238757,10,0.00165828,-1.5164,0.483645,0.12199,145.001,0.0544574,
2,1,0,1,0,7107.01,0.0572053,0.0568794,30.7963,4,0.0025101,10,0.00175167,-1.5115,0.477818,0.123478,148.409,0.0568794,
2,1,0,1,0,7107.01,0.0596024,0.0592483,31.1538,4,0.00263403,10,0.00184581,-1.50649,0.483173,0.122109,148.487,0.0592483,
2,1,0,1,0,7107.02,0.0620051,0.0616491,31.5117,4,0.00275939,10,0.00194267,-1.50153,0.47639,0.123848,152.352,0.0616491,
2,1,0,1,0,7107.02,0.0644077,0.0640594,31.8768,4,0.00288622,10,0.00204201,-1.49653,0.471798,0.125054,155.656,0.0640594,
2,1,0,1,0,7107.02,0.0668048,0.0664623,32.2563,4,0.00301452,10,0.00214383,-1.49139,0.46355,0.127279,160.313,0.0664623,
2,1,0,1,0,7107.03,0.0692019,0.0688312,32.6454,4,0.00314437,10,0.00224702,-1.48618,0.460801,0.128038,163.177,0.0688312,
2,1,0,1,0,7107.03,0.0716074,0.0712309,33.0478,4,0.0032758,10,0.00235403,-1.48086,0.462832,0.127476,164.354,0.0712309,
2,1,0,1,0,7107.04,0.0740045,0.0736804,33.4467,4,0.00340883,10,0.00246437,-1.47565,0.458814,0.128592,167.867,0.0736804,
2,1,0,1,0,7107.04,0.0764016,0.0760271,33.8283,4,0.00354342,10,0.00257187,-1.47072,0.451922,0.130554,172.58,0.0760271,
2,1,0,1,0,7107.04,0.0788042,0.0784852,34.266,4,0.00367965,10,0.00268937,-1.46514,0.451133,0.130782,174.962,0.0784852,
2,1,0,1,0,7107.05,0.0812069,0.0808573,34.7091,4,0.00381766,10,0.00280649,-1.45956,0.444064,0.132864,179.831,0.0808573,
2,1,0,1,0,7107.05,0.083604,0.0832771,35.1258,4,0.00395736,10,0.00292517,-1.45437,0.452891,0.130274,178.527,0.0832771,
2,1,0,1,0,7107.06,0.0860011,0.0855931,35.5486,4,0.00409875,10,0.00304271,-1.44918,0.467197,0.126285,175.171,0.0855931,
2,1,0,1,0,7107.06,0.0884065,0.0880638,35.976,4,0.00424186,10,0.00316818,-1.44399,0.466081,0.126587,177.674,0.0880638,
2,1,0,1,0,7107.06,0.0908036,0.0904465,36.3889,4,0.00438662,10,0.00329125,-1.43903,0.467283,0.126262,179.367,0.0904465,
2,1,0,1,0,7107.07,0.0932007,0.092789,36.8158,4,0.00453308,10,0.0034161,-1.43397,0.459625,0.128366,184.616,0.092789,
2,1,0,1,0,7107.07,0.0956034,0.0951664,37.2657,4,0.00468126,10,0.00354644,-1.42869,0.455489,0.129531,188.487,0.0951664,
2,1,0,1,0,7107.08,0.098006,0.0976255,37.7412,4,0.00483133,10,0.00368451,-1.42318,0.459614,0.128369,188.994,0.0976255,
2,1,0,1,0,7107.08,0.100403,0.100041,38.1974,4,0.00498324,10,0.00382131,-1.41797,0.458696,0.128625,191.707,0.1000411,
2,1,0,1,0,7107.08,0.1028,0.102486,38.6485,4,0.005137,10,0.00396095,-1.41287,0.4684,0.125961,190.006,0.102486,
2,1,0,1,0,7107.09,0.105208,0.104887,39.1292,4,0.00529261,10,0.00410415,-1.4075,0.478318,0.123349,188.213,0.104887,
2,1,0,1,0,7107.09,0.107606,0.107286,39.5768,4,0.00545005,10,0.00424602,-1.40256,0.47782,0.123477,190.633,0.107286,
2,1,0,1,0,7107.1,0.110003,0.109682,40.012,4,0.00560928,10,0.0043886,-1.39781,0.489386,0.120559,188.31,0.109682,
2,1,0,1,0,7107.1,0.112408,0.112114,40.4839,4,0.0057703,10,0.0045388,-1.39272,0.485668,0.121482,191.945,0.112114,
2,1,0,1,0,7107.1,0.114805,0.114451,40.9302,4,0.00593318,10,0.0046845,-1.38796,0.481956,0.122418,195.61,0.114451,
2,1,0,1,0,7107.11,0.117202,0.116827,41.4082,4,0.0060979,10,0.00483761,-1.38291,0.478026,0.123424,199.54,0.116827,
2,1,0,1,0,7107.11,0.119599,0.119277,41.8887,4,0.00626454,10,0.00499636,-1.3779,0.476232,0.123889,202.574,0.119277,
2,1,0,1,0,7107.12,0.122008,0.121621,42.381,4,0.00643313,10,0.00515444,-1.37283,0.473788,0.124528,206.041,0.121621,
2,1,0,1,0,7107.12,0.124405,0.124073,42.8794,4,0.00660371,10,0.00532018,-1.36775,0.459997,0.128262,214.792,0.124073,
2,1,0,1,0,7107.12,0.126802,0.126489,43.3989,4,0.00677631,10,0.00548946,-1.36252,0.455397,0.129557,219.623,0.126489,
2,1,0,1,0,7107.13,0.129207,0.128861,43.9473,4,0.00695102,10,0.00566308,-1.35707,0.444059,0.132865,227.968,0.128861,
2,1,0,1,0,7107.13,0.131604,0.13131,44.5089,4,0.00712798,10,0.00584448,-1.35155,0.434203,0.135881,236.074,0.13131,
2,1,0,1,0,7107.14,0.134001,0.13367,45.0671,4,0.00730722,10,0.00602411,-1.34614,0.430377,0.137089,241.293,0.13367,
2,1,0,1,0,7107.14,0.136399,0.136042,45.6541,4,0.00748872,10,0.00621087,-1.34052,0.42355,0.139299,248.376,0.136042,
2,1,0,1,0,7107.14,0.138807,0.138499,46.2729,4,0.00767266,10,0.00640874,-1.33467,0.415554,0.141979,256.471,0.138499,
2,1,0,1,0,7107.15,0.141204,0.140885,46.887,4,0.00785904,10,0.00660566,-1.32895,0.414826,0.142228,260.326,0.140885,
2,1,0,1,0,7107.15,0.143601,0.14326,47.5268,4,0.00804791,10,0.00680869,-1.32306,0.415406,0.14203,263.418,0.14326,
2,1,0,1,0,7107.16,0.146009,0.145696,48.1673,4,0.00823937,10,0.00701777,-1.31725,0.418223,0.141073,265.074,0.145696,
2,1,0,1,0,7107.16,0.148406,0.148074,48.7952,4,0.00843335,10,0.00722532,-1.31162,0.42765,0.137963,262.649,0.148074,
2,1,0,1,0,7107.16,0.150803,0.150468,49.4271,4,0.00862986,10,0.00743718,-1.30603,0.430728,0.136977,264.199,0.150468,
2,1,0,1,0,7107.17,0.153206,0.152892,50.0565,4,0.00882891,10,0.00765323,-1.30054,0.439311,0.134301,262.301,0.152892,
2,1,0,1,0,7107.17,0.155606,0.155274,50.698,4,0.00903049,10,0.0078721,-1.29501,0.452885,0.130276,257.534,0.155274,
2,1,0,1,0,7107.18,0.158003,0.157681,51.3149,4,0.00923458,10,0.00809137,-1.28976,0.463681,0.127243,254.574,0.157681,
2,1,0,1,0,7107.18,0.1604,0.160066,51.8991,4,0.00944105,10,0.00830731,-1.28484,0.486757,0.12121,245.358,0.160066,
2,1,0,1,0,7107.18,0.162808,0.162459,52.492,4,0.00964991,10,0.00852779,-1.27991,0.505977,0.116606,238.688,0.162459,
2,1,0,1,0,7107.19,0.165205,0.164883,53.0554,4,0.00986108,10,0.00874793,-1.27527,0.524678,0.11245,232.612,0.164883,
2,1,0,1,0,7107.19,0.167602,0.167261,53.6018,4,0.0100744,10,0.0089655,-1.27082,0.563164,0.104765,218.883,0.1672613,
2,1,0,1,0,7107.2,0.170008,0.169635,54.1248,4,0.01029,10,0.00918143,-1.2666,0.602638,0.0979029,206.474,0.169635,
2,1,0,1,0,7107.2,0.172405,0.172045,54.5903,4,0.0105075,10,0.00939197,-1.26288,0.659428,0.0894715,190.351,0.172045,
2,1,0,1,0,7107.2,0.174802,0.174467,55.0343,4,0.0107268,10,0.00960165,-1.25937,0.741134,0.0796078,170.697,0.174467,
2,1,0,1,0,7107.21,0.177199,0.176897,55.436,4,0.0109478,10,0.00980647,-1.25621,0.84467,0.0698497,150.783,0.176897,
2,1,0,1,0,7107.21,0.179607,0.179261,55.768,4,0.0111702,10,0.00999702,-1.25362,1.0471,0.0563459,122.308,0.179261,
2,1,0,1,0,7107.22,0.182005,0.181666,56.0409,4,0.0113939,10,0.0101807,-1.25149,1.41976,0.0415564,90.609,0.181666,
2,1,0,1,0,7107.22,0.184402,0.184072,56.2091,4,0.0116184,10,0.0103465,-1.25019,2.48076,0.023783,51.9949,0.184072,
2,1,0,1,0,7107.22,0.18681,0.186477,56.304,4,0.0118435,10,0.0104994,-1.24946,25.3053,0.00233153,5.10153,0.186477,
2,1,0,1,0,7107.23,0.189207,0.188904,56.2694,4,0.0120686,10,0.0106295,-1.24973,-2.97107,-0.0198581,-43.4006,0.188904,
2,1,0,1,0,7107.23,0.191604,0.191287,56.09,4,0.0122934,10,0.0107293,-1.25111,-1.29214,-0.0456607,-99.4762,0.191287,
2,1,0,1,0,7107.24,0.194001,0.193664,55.7928,4,0.0125172,10,0.0108051,-1.25342,-0.788083,-0.0748652,-162.121,0.193664,
2,1,0,1,0,7107.24,0.196407,0.196121,55.3446,4,0.0127395,10,0.0108543,-1.25692,-0.566712,-0.104109,-223.499,0.196121,
2,1,0,1,0,7107.24,0.198804,0.198505,54.7129,4,0.0129595,10,0.0108608,-1.26191,-0.435507,-0.135474,-287.58,0.198505,
2,1,0,1,0,7107.25,0.201201,0.20091,53.9393,4,0.0131768,10,0.0108369,-1.2681,-0.343857,-0.171583,-359.006,0.20091,
2,1,0,1,0,7107.25,0.203609,0.203321,53.0156,4,0.0133907,10,0.0107792,-1.2756,-0.291836,-0.202169,-415.712,0.2033215,
2,1,0,1,0,7107.26,0.206006,0.20567,51.9165,4,0.0136004,10,0.0106777,-1.28469,-0.249944,-0.236053,-475.582,0.2056703,
2,1,0,1,0,7107.26,0.208403,0.208123,50.7146,4,0.0138056,10,0.0105549,-1.29487,-0.220543,-0.267522,-526.75,0.208123,
2,1,0,1,0,7107.26,0.210803,0.210505,49.3762,4,0.0140057,10,0.0103939,-1.30648,-0.200777,-0.293858,-563.744,0.2105047,
2,1,0,1,0,7107.27,0.213206,0.212894,47.9733,4,0.0142003,10,0.0102132,-1.319,-0.182749,-0.322848,-602.055,0.2128938,
2,1,0,1,0,7107.27,0.215603,0.215285,46.4962,4,0.0143891,10,0.0100099,-1.33258,-0.173435,-0.340185,-615.41,0.215285,
2,1,0,1,0,7107.28,0.218,0.21767,44.9669,4,0.0145718,10,0.00978794,-1.34711,-0.16461,-0.358423,-627.938,0.21767,
2,1,0,1,0,7107.28,0.220408,0.220123,43.4573,4,0.0147485,10,0.00956593,-1.36194,-0.160526,-0.367542,-622.815,0.220123,
2,1,0,1,0,7107.28,0.222805,0.222497,41.9432,4,0.0149192,10,0.00933223,-1.37734,-0.158102,-0.373176,-610.948,0.222497,
2,1,0,1,0,7107.29,0.225202,0.224941,40.4823,4,0.0150838,10,0.00910613,-1.39273,-0.155273,-0.379977,-600.866,0.224941,
2,1,0,1,0,7107.29,0.227605,0.227322,39.0701,4,0.0152428,10,0.00888149,-1.40816,-0.156779,-0.376327,-574.651,0.227322,
2,1,0,1,0,7107.3,0.230008,0.229678,37.7158,4,0.0153962,10,0.0086625,-1.42348,-0.159018,-0.371027,-547.344,0.2296779,
2,1,0,1,0,7107.3,0.232405,0.232074,36.4395,4,0.0155444,10,0.00845667,-1.43843,-0.164498,-0.358667,-511.701,0.232074,
2,1,0,1,0,7107.3,0.234802,0.234521,35.2389,4,0.0156876,10,0.00826425,-1.45298,-0.171087,-0.344854,-476.016,0.234521,
2,1,0,1,0,7107.31,0.237207,0.236932,34.1524,4,0.0158263,10,0.00809181,-1.46658,-0.177165,-0.333023,-445.289,0.236932,
2,1,0,1,0,7107.31,0.239604,0.23933,33.1214,4,0.0159607,10,0.00792694,-1.47989,-0.187194,-0.31518,-408.821,0.23933,
2,1,0,1,0,7107.32,0.242002,0.241658,32.1718,4,0.0160912,10,0.00777459,-1.49252,-0.195786,-0.301349,-379.89,0.241658,
2,1,0,1,0,7107.32,0.244404,0.244129,31.3108,4,0.016218,10,0.00764388,-1.50431,-0.207965,-0.283702,-347.948,0.244129,
2,1,0,1,0,7107.32,0.246807,0.246497,30.5189,4,0.0163416,10,0.00752281,-1.51543,-0.224052,-0.263332,-314.725,0.246497,
2,1,0,1,0,7107.33,0.249204,0.248906,29.7893,4,0.0164621,10,0.00741474,-1.52594,-0.236912,-0.249038,-290.607,0.248906,
2,1,0,1,0,7107.33,0.251601,0.251333,29.1268,4,0.0165799,10,0.00732055,-1.53571,-0.252289,-0.233859,-266.673,0.2513335,
2,1,0,1,0,7107.34,0.254006,0.253688,28.533,4,0.0166951,10,0.00723848,-1.54465,-0.271086,-0.217643,-242.981,0.253688,
2,1,0,1,0,7107.34,0.256404,0.256107,27.956,4,0.0168081,10,0.00715974,-1.55352,-0.293371,-0.20111,-220.189,0.256107,
2,1,0,1,0,7107.34,0.258801,0.258512,27.4552,4,0.0169188,10,0.0070975,-1.56138,-0.310928,-0.189755,-203.977,0.2585125,
2,1,0,1,0,7107.35,0.261203,0.260956,27.0081,4,0.0170277,10,0.00704793,-1.56851,-0.336822,-0.175166,-184.992,0.260956,
2,1,0,1,0,7107.35,0.263606,0.263273,26.5779,4,0.0171348,10,0.00699723,-1.57548,-0.358775,-0.164448,-170.878,0.263273,
2,1,0,1,0,7107.36,0.266003,0.265683,26.1846,4,0.0172403,10,0.00695681,-1.58195,-0.38159,-0.154616,-158.352,0.265683,
2,1,0,1,0,7107.36,0.2684,0.268128,25.812,4,0.0173443,10,0.00692094,-1.58818,-0.41185,-0.143256,-144.675,0.268128,
2,1,0,1,0,7107.36,0.270808,0.270534,25.4913,4,0.0174468,10,0.00689628,-1.59361,-0.437935,-0.134723,-134.257,0.270534,
2,1,0,1,0,7107.37,0.273205,0.272875,25.1887,4,0.0175482,10,0.00687337,-1.59879,-0.474451,-0.124354,-122.402,0.272875,
2,1,0,1,0,7107.37,0.275603,0.275284,24.8956,4,0.0176483,10,0.00685337,-1.60388,-0.495729,-0.119017,-115.813,0.275284,
2,1,0,1,0,7107.38,0.278008,0.277709,24.6393,4,0.0177474,10,0.00684257,-1.60837,-0.523594,-0.112683,-108.46,0.277709,
2,1,0,1,0,7107.38,0.280405,0.280094,24.3842,4,0.0178454,10,0.00682987,-1.61289,-0.567935,-0.103885,-98.9904,0.280094,
2,1,0,1,0,7107.38,0.282802,0.282498,24.145,4,0.0179424,10,0.00682091,-1.61717,-0.585945,-0.100692,-95.0405,0.282498,
2,1,0,1,0,7107.39,0.285199,0.28491,23.9427,4,0.0180386,10,0.00682152,-1.62083,-0.625405,-0.0943389,-88.2062,0.28491,
2,1,0,1,0,7107.39,0.287608,0.287207,23.7366,4,0.0181339,10,0.00681733,-1.62458,-0.663041,-0.088984,-82.4634,0.2872071,
2,1,0,1,0,7107.4,0.290005,0.289709,23.5361,4,0.0182284,10,0.00681862,-1.62826,-0.677824,-0.0870432,-80.0211,0.289709,
2,1,0,1,0,7107.4,0.292402,0.292127,23.3509,4,0.0183222,10,0.00682144,-1.6317,-0.727133,-0.0811406,-74.0249,0.292127,
2,1,0,1,0,7107.4,0.294807,0.294518,23.1739,4,0.0184152,10,0.00682513,-1.635,-0.754254,-0.0782229,-70.8233,0.294518,
2,1,0,1,0,7107.41,0.297204,0.296893,23.0197,4,0.0185076,10,0.00683437,-1.6379,-0.746032,-0.0790851,-71.2409,0.296893,
2,1,0,1,0,7107.41,0.299421,0.299171,22.866,4,0.0185925,10,0.00684084,-1.64081,-0.0949226,-0.621559,-532.161,0.299171,
2,1,0,0,0,7107.41,0.300012,0.299651,22.8149,4,0.0186153,10,0.00683652,-1.64178,0.00165896,35.5644,26221.7,0.299651,
2,1,0,1,0,7107.41,0.299243,0.299078,20.7468,4,0.0186428,10,0.00620493,-1.68305,0.0159878,3.69032,2346.51,0.299078,
2,1,0,1,0,7107.42,0.296846,0.296598,15.2903,4,0.0187139,10,0.00453507,-1.81558,0.0167804,3.516,1915.97,0.296598,
2,1,0,1,0,7107.42,0.294449,0.294164,11.119,4,0.018766,10,0.00327082,-1.95393,0.0155978,3.78258,1632.45,0.294164,
2,1,0,1,0,7107.43,0.292041,0.291795,7.7639,4,0.0188032,10,0.00226547,-2.10992,0.0127332,4.63355,1307.97,0.291795,
2,1,0,1,0,7107.43,0.289644,0.289427,4.99066,4,0.0188283,10,0.00144443,-2.30184,0.00799022,7.38403,1088.15,0.289427,
2,1,0,1,0,7107.43,0.287247,0.28695,2.67141,4,0.0188433,10,0.000766562,-2.57326,0.0106544,5.53761,907.853,0.28695,
2,1,0,1,0,7107.44,0.284841,0.284594,0.705222,4,0.0188498,10,0.000200702,-3.15167,0.0302113,1.95291,762.776,0.284594,
2,0,0,1,0,7107.44,0.282444,0.282174,-0.970652,4,0.018849,10,-0.000273893,-3.01294,-0.0718952,-0.820639,658.518,0.282174,
2,0,0,1,0,7107.45,0.280047,0.279753,-2.3877,4,0.0188421,10,-0.000667966,-2.62202,-0.0116594,-5.06031,563.234,0.279753,
2,0,0,1,0,7107.45,0.27765,0.277382,-3.6293,4,0.0188299,10,-0.0010067,-2.44018,-0.0126285,-4.67198,484.598,0.2773824,
2,0,0,1,0,7107.45,0.275242,0.274977,-4.7113,4,0.018813,10,-0.0012955,-2.32686,-0.0221102,-2.66845,427.392,0.274977,
2,0,0,1,0,7107.46,0.272845,0.27251,-5.65407,4,0.0187922,10,-0.00154079,-2.24764,-0.032198,-1.83241,373.866,0.27251,
2,0,0,1,0,7107.46,0.270448,0.270146,-6.49378,4,0.0187678,10,-0.00175427,-2.1875,-0.0430505,-1.37048,329.433,0.270146,
2,0,0,1,0,7107.47,0.268039,0.267728,-7.23857,4,0.0187402,10,-0.00193797,-2.14035,-0.054428,-1.084,294.659,0.267728,
2,0,0,1,0,7107.47,0.265642,0.265367,-7.87729,4,0.0187099,10,-0.00209037,-2.10362,-0.0671822,-0.878209,263.363,0.265367,
2,0,0,1,0,7107.47,0.263245,0.262971,-8.46463,4,0.0186772,10,-0.00222596,-2.07239,-0.0809198,-0.729117,236.611,0.262971,
2,0,0,1,0,7107.48,0.260843,0.260586,-9.01168,4,0.0186422,10,-0.00234832,-2.04519,-0.0954552,-0.618091,213.91,0.260586,
2,0,0,1,0,7107.48,0.258443,0.258198,-9.49369,4,0.0186051,10,-0.00245125,-2.02256,-0.110831,-0.532344,194.587,0.258198,
2,0,0,1,0,7107.49,0.256046,0.255733,-9.93807,4,0.0185661,10,-0.00254149,-2.0027,-0.127756,-0.461818,177.43,0.255733,
2,0,0,1,0,7107.49,0.253649,0.253389,-10.3293,4,0.0185255,10,-0.00261733,-1.98593,-0.143556,-0.41099,164.671,0.253389,
2,0,0,1,0,7107.49,0.25124,0.250918,-10.727,4,0.0184834,10,-0.0026916,-1.96952,-0.16119,-0.366028,152.165,0.250918,
2,0,0,1,0,7107.5,0.248843,0.248564,-11.0801,4,0.0184397,10,-0.00275411,-1.95546,-0.175524,-0.336135,144.445,0.248564,
2,0,0,1,0,7107.5,0.246446,0.246128,-11.3996,4,0.0183948,10,-0.00280577,-1.94311,-0.198835,-0.296728,131.374,0.246128,
2,0,0,1,0,7107.51,0.244041,0.243747,-11.722,4,0.0183485,10,-0.0028572,-1.931,-0.219143,-0.269231,122.493,0.243747,
2,0,0,1,0,7107.51,0.241644,0.24134,-11.9853,4,0.018301,10,-0.00289253,-1.92135,-0.233946,-0.252195,117.667,0.24134,
2,0,0,1,0,7107.51,0.239247,0.238967,-12.2556,4,0.0182525,10,-0.00292869,-1.91166,-0.255133,-0.231252,110.526,0.238967,
2,0,0,1,0,7107.52,0.236849,0.236536,-12.5283,4,0.0182029,10,-0.0029634,-1.90211,-0.265468,-0.222249,108.394,0.236536,
2,0,0,1,0,7107.52,0.234441,0.234114,-12.7867,4,0.0181523,10,-0.00299355,-1.89324,-0.285126,-0.206926,102.904,0.234114,
2,0,0,1,0,7107.53,0.232044,0.231768,-13.0229,4,0.0181006,10,-0.00301828,-1.88529,-0.304576,-0.193712,98.2378,0.231768,
2,0,0,1,0,7107.53,0.229647,0.229381,-13.2421,4,0.0180481,10,-0.00303748,-1.87804,-0.323568,-0.182342,94.1742,0.229381,
2,0,0,1,0,7107.53,0.227239,0.226929,-13.472,4,0.0179946,10,-0.0030572,-1.87057,-0.342403,-0.172312,90.4636,0.226929,
2,0,0,1,0,7107.54,0.224842,0.224512,-13.691,4,0.0179403,10,-0.00307379,-1.86356,-0.355047,-0.166175,88.6157,0.224512,
2,0,0,1,0,7107.54,0.222445,0.222171,-13.891,4,0.0178851,10,-0.00308618,-1.85727,-0.367644,-0.160481,86.953,0.222171,
2,0,0,1,0,7107.55,0.220047,0.219756,-14.095,4,0.0178291,10,-0.00309746,-1.85093,-0.389011,-0.151667,83.3723,0.219756,
2,0,0,1,0,7107.55,0.217642,0.217372,-14.3031,4,0.0177723,10,-0.00310909,-1.84457,-0.395065,-0.149343,83.2781,0.2173719,
2,0,0,1,0,7107.55,0.215245,0.214962,-14.4872,4,0.0177147,10,-0.00311419,-1.83902,-0.400206,-0.147424,83.3866,0.214962,
2,0,0,1,0,7107.56,0.212848,0.212537,-14.6933,4,0.0176563,10,-0.00312287,-1.83288,-0.420429,-0.140333,80.434,0.2125375,
2,0,0,1,0,7107.56,0.21044,0.210117,-14.8988,4,0.0175971,10,-0.00313048,-1.82685,-0.417007,-0.141484,82.1515,0.2101166,
2,0,0,1,0,7107.57,0.208042,0.207755,-15.0766,4,0.0175371,10,-0.00313224,-1.8217,-0.435132,-0.135591,79.7563,0.207755,
2,0,0,1,0,7107.57,0.205645,0.205364,-15.2757,4,0.0174764,10,-0.00313707,-1.816,-0.445724,-0.132369,78.9024,0.205364,
2,0,0,1,0,7107.57,0.203246,0.20296,-15.4572,4,0.0174149,10,-0.00313718,-1.81087,-0.442533,-0.133323,80.4398,0.2029599,
2,0,0,1,0,7107.58,0.200843,0.200538,-15.6546,4,0.0173527,10,-0.00313934,-1.80536,-0.458827,-0.128589,78.5395,0.200538,
2,0,0,1,0,7107.58,0.198446,0.19815,-15.8492,4,0.0172896,10,-0.00314053,-1.79999,-0.449671,-0.131207,81.1402,0.1981499,
2,0,0,1,0,7107.59,0.196049,0.195748,-16.0309,4,0.0172259,10,-0.00313802,-1.79504,-0.458886,-0.128572,80.4823,0.195748,
2,0,0,1,0,7107.59,0.19364,0.1933,-16.241,4,0.0171613,10,-0.00313938,-1.78939,-0.46115,-0.127941,81.0698,0.1933,
2,0,0,1,0,7107.59,0.191243,0.190896,-16.4306,4,0.0170959,10,-0.00313653,-1.78435,-0.443679,-0.132979,85.2944,0.190896,
2,0,0,1,0,7107.6,0.188846,0.188526,-16.6295,4,0.0170298,10,-0.00313508,-1.77912,-0.452141,-0.13049,84.7604,0.188526,
2,0,0,1,0,7107.6,0.186444,0.18619,-16.8462,4,0.0169629,10,-0.00313658,-1.7735,-0.440496,-0.13394,88.0658,0.18619,
2,0,0,1,0,7107.61,0.184041,0.183719,-17.0531,4,0.016895,10,-0.00313297,-1.7682,-0.430607,-0.137016,91.2385,0.1837188,
2,0,0,1,0,7107.61,0.181644,0.18135,-17.2713,4,0.0168263,10,-0.00313214,-1.76268,-0.427859,-0.137896,93.0568,0.18135,
2,0,0,1,0,7107.61,0.179247,0.178951,-17.503,4,0.0167567,10,-0.00313219,-1.75689,-0.407742,-0.144699,98.9514,0.178951,
2,0,0,1,0,7107.62,0.176841,0.176535,-17.7446,4,0.0166862,10,-0.00313254,-1.75093,-0.394145,-0.149691,103.785,0.176535,
2,0,0,1,0,7107.62,0.174444,0.174148,-18.0002,4,0.0166147,10,-0.00313468,-1.74472,-0.383419,-0.153879,108.199,0.174148,
2,0,0,1,0,7107.63,0.172047,0.171736,-18.269,4,0.0165421,10,-0.00313745,-1.73828,-0.367032,-0.160749,114.749,0.171736,
2,0,0,1,0,7107.63,0.169644,0.169359,-18.5409,4,0.0164685,10,-0.00314007,-1.73187,-0.352049,-0.16759,121.503,0.169359,
2,0,0,1,0,7107.63,0.167242,0.166916,-18.8484,4,0.0163937,10,-0.00314609,-1.72473,-0.337209,-0.174966,128.907,0.166916,
2,0,0,1,0,7107.64,0.164845,0.164554,-19.1658,4,0.0163176,10,-0.00315381,-1.71747,-0.318327,-0.185344,138.887,0.1645541,
2,0,0,1,0,7107.64,0.162448,0.162182,-19.5006,4,0.0162403,10,-0.00316265,-1.70995,-0.306284,-0.192631,146.904,0.162182,
2,0,0,1,0,7107.65,0.160042,0.159745,-19.8761,4,0.0161615,10,-0.00317512,-1.70167,-0.294006,-0.200676,155.896,0.159745,
2,0,0,1,0,7107.65,0.157645,0.157375,-20.2499,4,0.0160812,10,-0.00318684,-1.69358,-0.274259,-0.215125,170.536,0.157375,
2,0,0,1,0,7107.65,0.155248,0.154942,-20.6644,4,0.0159993,10,-0.00320177,-1.68478,-0.262078,-0.225124,182.215,0.154942,
2,0,0,1,0,7107.66,0.152845,0.152531,-21.1464,4,0.0159157,10,-0.00322549,-1.67476,-0.24451,-0.241299,199.591,0.152531,
2,0,0,1,0,7107.66,0.150443,0.150133,-21.6277,4,0.0158301,10,-0.00324702,-1.66499,-0.231032,-0.255376,216.055,0.150133,
2,0,0,1,0,7107.67,0.148046,0.147766,-22.1679,4,0.0157425,10,-0.00327566,-1.65428,-0.222493,-0.265177,230.077,0.147766,
2,0,0,1,0,7107.67,0.145648,0.145407,-22.7242,4,0.0156527,10,-0.00330427,-1.64351,-0.208597,-0.282842,251.806,0.145407,
2,0,0,1,0,7107.67,0.14324,0.142938,-23.3537,4,0.0155604,10,-0.00333812,-1.63164,-0.20149,-0.292818,267.799,0.142938,
2,0,0,1,0,7107.68,0.140843,0.140559,-24.0383,4,0.0154656,10,-0.00337881,-1.6191,-0.190243,-0.310129,291.738,0.140559,
2,0,0,1,0,7107.68,0.138446,0.138133,-24.7475,4,0.015368,10,-0.00341845,-1.60647,-0.182153,-0.323903,313.805,0.138133,
2,0,0,1,0,7107.69,0.136041,0.135762,-25.5382,4,0.0152673,10,-0.00346711,-1.59281,-0.177099,-0.333146,332.906,0.135762,
2,0,0,1,0,7107.69,0.133644,0.133371,-26.3559,4,0.0151635,10,-0.0035151,-1.57912,-0.16811,-0.35096,362.062,0.133371,
2,0,0,1,0,7107.69,0.131246,0.130948,-27.2381,4,0.0150563,10,-0.00356676,-1.56482,-0.165601,-0.356277,379.968,0.130948,
2,0,0,1,0,7107.7,0.128849,0.128611,-28.1953,4,0.0149453,10,-0.00362621,-1.54982,-0.160722,-0.367093,404.728,0.128611,
2,0,0,1,0,7107.7,0.126441,0.12613,-29.1979,4,0.0148304,10,-0.00368274,-1.53465,-0.158576,-0.372061,424.306,0.12613,
2,0,0,1,0,7107.71,0.124044,0.12379,-30.2335,4,0.0147114,10,-0.0037426,-1.51951,-0.159947,-0.368872,435.407,0.12379,
2,0,0,1,0,7107.71,0.121647,0.121378,-31.2987,4,0.0145883,10,-0.00379896,-1.50447,-0.159711,-0.369418,451.32,0.121378,
2,0,0,1,0,7107.71,0.119241,0.118971,-32.3922,4,0.0144608,10,-0.00385375,-1.48956,-0.163238,-0.361436,456.746,0.118971,
2,0,0,1,0,7107.72,0.116844,0.116577,-33.5095,4,0.0143289,10,-0.00390644,-1.47483,-0.166399,-0.354569,463.278,0.116577,
2,0,0,1,0,7107.72,0.114447,0.114172,-34.6264,4,0.0141925,10,-0.00395337,-1.46059,-0.170217,-0.346616,467.924,0.114172,
2,0,0,1,0,7107.73,0.11205,0.11175,-35.7589,4,0.0140517,10,-0.00399606,-1.44662,-0.178189,-0.331109,460.832,0.1117501,
2,0,0,1,0,7107.73,0.109642,0.109365,-36.8872,4,0.0139062,10,-0.00403417,-1.43312,-0.184189,-0.320323,459.746,0.109365,
2,0,0,1,0,7107.73,0.107245,0.107039,-37.9051,4,0.0137565,10,-0.00405731,-1.4213,-0.189883,-0.310718,459.683,0.107039,
2,0,0,1,0,7107.74,0.104848,0.104631,-39.0131,4,0.0136026,10,-0.00408196,-1.40879,-0.199324,-0.296,450.46,0.104631,
2,0,0,1,0,7107.74,0.10244,0.102217,-40.1411,4,0.0134442,10,-0.0041031,-1.39641,-0.207207,-0.28474,444.66,0.102217,
2,0,0,1,0,7107.75,0.100042,0.0998354,-41.18,4,0.0132814,10,-0.00411122,-1.38531,-0.217178,-0.271666,435.402,0.0998354,
2,0,0,1,0,7107.75,0.0976454,0.0973784,-42.2006,4,0.0131145,10,-0.00410943,-1.37468,-0.232782,-0.253456,416.567,0.0973784,
2,0,0,1,0,7107.75,0.0952427,0.0950338,-43.1915,4,0.0129437,10,-0.00410465,-1.3646,-0.246806,-0.239054,402.033,0.0950338,
2,0,0,1,0,7107.76,0.0928428,0.092596,-44.1489,4,0.0127689,10,-0.00408801,-1.35508,-0.26123,-0.225855,388.067,0.092596,
2,0,0,1,0,7107.76,0.0904457,0.0901761,-45.0633,4,0.0125903,10,-0.00406364,-1.34618,-0.279978,-0.210731,369.638,0.09017612,
2,0,0,1,0,7107.77,0.0880486,0.0878347,-45.9042,4,0.0124083,10,-0.00403198,-1.33815,-0.297819,-0.198107,354.23,0.0878347,
2,0,0,1,0,7107.77,0.0856404,0.085417,-46.7462,4,0.0122229,10,-0.00399292,-1.33025,-0.319718,-0.184538,335.964,0.085417,
2,0,0,1,0,7107.77,0.0832433,0.083064,-47.5254,4,0.0120342,10,-0.00394765,-1.32307,-0.339952,-0.173554,321.281,0.083064,
2,0,0,1,0,7107.78,0.0808462,0.0806261,-48.2718,4,0.0118426,10,-0.00389197,-1.31631,-0.369776,-0.159556,300.039,0.0806261,
2,0,0,1,0,7107.78,0.0784408,0.0782094,-48.9966,4,0.011648,10,-0.003832,-1.30983,-0.403502,-0.14622,278.839,0.0782094,
2,0,0,1,0,7107.79,0.0760437,0.0757376,-49.6504,4,0.0114506,10,-0.0037604,-1.30408,-0.443766,-0.132953,256.854,0.0757376,
2,0,0,1,0,7107.79,0.0736466,0.0733782,-50.2262,4,0.0112508,10,-0.00368551,-1.29907,-0.500802,-0.117811,230.355,0.0733782,
2,0,0,1,0,7107.79,0.0712495,0.0709637,-50.7536,4,0.0110487,10,-0.00360166,-1.29453,-0.563648,-0.104675,206.843,0.0709637,
2,0,0,1,0,7107.8,0.0688413,0.068547,-51.2224,4,0.0108447,10,-0.00351114,-1.29054,-0.650403,-0.090713,180.877,0.068547,
2,0,0,1,0,7107.8,0.0664442,0.0661749,-51.6284,4,0.0106389,10,-0.0034165,-1.28711,-0.772799,-0.0763459,153.415,0.0661749,
2,0,0,1,0,7107.81,0.0640471,0.0637529,-51.9672,4,0.0104317,10,-0.00331306,-1.28427,-0.951079,-0.0620348,125.465,0.0637529,
2,0,0,1,0,7107.81,0.0616389,0.0613235,-52.2326,4,0.0102233,10,-0.00320308,-1.28206,-1.22288,-0.0482469,98.0996,0.0613235,
2,0,0,1,0,7107.81,0.0592417,0.0589323,-52.4287,4,0.0100139,10,-0.00308975,-1.28043,-1.69796,-0.0347475,70.9316,0.0589323,
2,0,0,1,0,7107.82,0.0568446,0.0565411,-52.5735,4,0.00980384,10,-0.00297256,-1.27923,-2.56204,-0.0230285,47.1463,0.0565411,
2,0,0,1,0,7107.82,0.0544475,0.0541764,-52.6465,4,0.00959339,10,-0.0028522,-1.27863,-5.74027,-0.0102783,21.0712,0.0541764,
2,0,0,1,0,7107.83,0.0520421,0.0517152,-52.6856,4,0.00938268,10,-0.00272464,-1.27831,46.576,0.00126675,-2.59847,0.0517152,
2,0,0,1,0,7107.83,0.049645,0.0493218,-52.6312,4,0.00917202,10,-0.00259587,-1.27876,5.97636,0.00987223,-20.2461,0.0493218,
2,0,0,1,0,7107.83,0.0472479,0.0469943,-52.5487,4,0.00896165,10,-0.00246949,-1.27944,2.87416,0.0205277,-42.0473,0.0469943,
2,0,0,1,0,7107.84,0.0448397,0.044532,-52.4512,4,0.00875167,10,-0.00233576,-1.28024,2.2043,0.0267658,-54.7036,0.044532,
2,0,0,1,0,7107.84,0.0424426,0.0421736,-52.2844,4,0.00854221,10,-0.00220502,-1.28163,1.77303,0.0332764,-67.8164,0.0421736,
2,0,0,1,0,7107.85,0.0400455,0.03974,-52.1071,4,0.00833344,10,-0.00207073,-1.2831,1.48048,0.0398518,-80.97,0.03974,
2,0,0,1,0,7107.85,0.0376456,0.0373149,-51.8922,4,0.00812546,10,-0.00193635,-1.2849,1.37565,0.0428887,-86.8093,0.0373149,
2,0,0,1,0,7107.85,0.035243,0.0349173,-51.6727,4,0.00791835,10,-0.00180427,-1.28674,1.24667,0.0473259,-95.3942,0.0349173,
2,0,0,1,0,7107.86,0.0328459,0.0324974,-51.4444,4,0.00771214,10,-0.00167181,-1.28866,1.20883,0.0488077,-97.9498,0.0324974,
2,0,0,1,0,7107.86,0.0304488,0.0301582,-51.193,4,0.00750688,10,-0.00154389,-1.29079,1.15191,0.0512192,-102.311,0.0301582,
2,0,0,1,0,7107.87,0.0280406,0.0277489,-50.9553,4,0.00730261,10,-0.00141395,-1.29281,1.10076,0.0535992,-106.542,0.0277489,
2,0,0,1,0,7107.87,0.0256435,0.0253768,-50.6966,4,0.00709933,10,-0.00128652,-1.29502,1.10184,0.053547,-105.915,0.0253768,
2,0,0,1,0,7107.87,0.0232463,0.0229262,-50.4246,4,0.00689712,10,-0.00115605,-1.29736,1.06159,0.0555769,-109.378,0.0229262,
2,0,0,1,0,7107.88,0.0208437,0.020553,-50.1757,4,0.00669595,10,-0.00103126,-1.29951,1.04501,0.0564589,-110.529,0.020553,
2,0,0,1,0,7107.88,0.018441,0.0181417,-49.9044,4,0.00649581,10,-0.000905349,-1.30186,1.01638,0.0580494,-113.006,0.0181417,
2,0,0,1,0,7107.89,0.0160439,0.0157494,-49.6325,4,0.00629677,10,-0.000781681,-1.30423,0.972821,0.0606484,-117.418,0.0157494,
2,0,0,1,0,7107.89,0.0136468,0.0133465,-49.3421,4,0.00609886,10,-0.000658544,-1.30678,0.936914,0.0629727,-121.217,0.0133465,
2,0,0,1,0,7107.89,0.0112414,0.0109213,-49.0447,4,0.00590209,10,-0.000535635,-1.30941,0.900344,0.0655305,-125.383,0.0109213,
2,0,0,1,0,7107.9,0.00884431,0.00858209,-48.7457,4,0.00570655,10,-0.00041834,-1.31206,0.866219,0.0681121,-129.503,0.008582091,
2,0,0,1,0,7107.9,0.0064472,0.00612619,-48.4259,4,0.00551222,10,-0.000296666,-1.31492,0.873628,0.0675345,-127.637,0.00612619,
2,0,0,1,0,7107.91,0.00404455,0.00375194,-48.0996,4,0.0053192,10,-0.000180467,-1.31786,0.821576,0.0718132,-134.77,0.00375194,
2,0,0,1,0,7107.91,0.0016419,0.00128119,-47.8143,4,0.00512747,10,-6.12593e-05,-1.32044,0.768723,0.0767507,-142.971,0.00128119,
2,0,0,1,0,7107.91,-0.000755207,-0.00115032,-47.434,4,0.004937,10,5.45643e-05,-1.32391,0.720809,0.0818524,-151.298,-0.00115032,
2,0,0,1,0,7107.92,-0.00315231,-0.00354472,-47.0432,4,0.00474811,10,0.000166755,-1.3275,0.639379,0.092277,-169.252,-0.00354472,
2,0,0,1,0,7107.92,-0.00555774,-0.005937,-46.6336,4,0.00456078,10,0.000276864,-1.3313,0.602365,0.0979473,-178.042,-0.005936997,
2,0,0,1,0,7107.93,-0.00795485,-0.00831337,-46.1904,4,0.00437517,10,0.000383998,-1.33545,0.569578,0.103585,-186.542,-0.008313369,
2,0,0,1,0,7107.93,-0.010352,-0.0107269,-45.729,4,0.00419137,10,0.000490528,-1.33981,0.538084,0.109648,-195.542,-0.0107269,
2,0,0,1,0,7107.93,-0.0127546,-0.0131255,-45.256,4,0.00400944,10,0.000594008,-1.34432,0.515132,0.114534,-202.11,-0.0131255,
2,0,0,1,0,7107.94,-0.0151573,-0.0154658,-44.7704,4,0.00382946,10,0.00069241,-1.34901,0.498192,0.118428,-206.723,-0.0154658,
2,0,0,1,0,7107.94,-0.0175544,-0.0178888,-44.2551,4,0.00365146,10,0.000791673,-1.35404,0.479119,0.123143,-212.553,-0.0178888,
2,0,0,1,0,7107.95,-0.0199515,-0.0203501,-43.7397,4,0.00347553,10,0.000890104,-1.35912,0.470297,0.125453,-214.097,-0.02035005,
2,0,0,1,0,7107.95,-0.0223597,-0.0227264,-43.2153,4,0.00330166,10,0.00098213,-1.36436,0.461707,0.127787,-215.508,-0.0227264,
2,0,0,1,0,7107.95,-0.0247568,-0.0251208,-42.7032,4,0.00312987,10,0.00107274,-1.36954,0.463517,0.127288,-212.191,-0.0251208,
2,0,0,1,0,7107.96,-0.0271539,-0.0274834,-42.1874,4,0.00296014,10,0.00115945,-1.37482,0.468443,0.125949,-207.5,-0.0274834,
2,0,0,1,0,7107.96,-0.0295593,-0.0299351,-41.7058,4,0.00279241,10,0.00124847,-1.3798,0.476895,0.123717,-201.48,-0.0299351,
2,0,0,1,0,7107.97,-0.0319564,-0.0322998,-41.2289,4,0.0026266,10,0.00133168,-1.3848,0.49957,0.118102,-190.185,-0.0322998,
2,0,0,1,0,7107.97,-0.0343535,-0.0347164,-40.7699,4,0.00246267,10,0.00141539,-1.38966,0.518624,0.113763,-181.284,-0.0347164,
2,0,0,1,0,7107.97,-0.0367506,-0.0371363,-40.3516,4,0.00230049,10,0.00149851,-1.39414,0.549594,0.107352,-169.303,-0.03713629,
2,0,0,1,0,7107.98,-0.0391588,-0.0395127,-39.9695,4,0.00213987,10,0.0015793,-1.39827,0.593684,0.0993795,-155.214,-0.0395127,
2,0,0,1,0,7107.98,-0.0415559,-0.0419049,-39.6027,4,0.00198078,10,0.00165955,-1.40228,0.636477,0.0926978,-143.483,-0.0419049,
2,0,0,1,0,7107.99,-0.043953,-0.044328,-39.2781,4,0.00182306,10,0.00174112,-1.40585,0.687811,0.0857794,-131.684,-0.044328,
2,0,0,1,0,7107.99,-0.0463585,-0.0467033,-38.9789,4,0.00166659,10,0.00182044,-1.40917,0.768426,0.0767803,-116.985,-0.0467033,
2,0,0,1,0,7107.99,-0.0487556,-0.0490892,-38.7085,4,0.00151125,10,0.00190017,-1.41219,0.843703,0.0699298,-105.81,-0.0490892,
2,0,0,1,0,7108,-0.0511527,-0.0514709,-38.4836,4,0.0013569,10,0.00198078,-1.41472,0.981884,0.0600886,-90.3843,-0.0514709,
2,0,0,1,0,7108,-0.0535498,-0.0538833,-38.267,4,0.00120343,10,0.00206195,-1.41718,1.1301,0.0522079,-78.1002,-0.0538833,
2,0,0,1,0,7108.01,-0.055958,-0.0563275,-38.109,4,0.00105068,10,0.00214658,-1.41897,1.2848,0.0459217,-68.3786,-0.0563275,
2,0,0,1,0,7108.01,-0.0583551,-0.0587188,-37.9564,4,0.000898583,10,0.00222875,-1.42071,1.64325,0.0359045,-53.2606,-0.0587188,
2,0,0,1,0,7108.01,-0.0607522,-0.0610877,-37.826,4,0.000747046,10,0.0023107,-1.42221,1.87534,0.031461,-46.5179,-0.0610877,
2,0,0,1,0,7108.02,-0.0631604,-0.0635277,-37.7534,4,0.000595898,10,0.00239838,-1.42304,2.53711,0.0232548,-34.2982,-0.0635277,
2,0,0,1,0,7108.02,-0.0655575,-0.0658765,-37.6648,4,0.000445057,10,0.00248122,-1.42406,3.70526,0.0159233,-23.4361,-0.0658765,
2,0,0,1,0,7108.03,-0.0679546,-0.0683176,-37.6272,4,0.000294474,10,0.0025706,-1.4245,5.06919,0.0116389,-17.1115,-0.0683176,
2,0,0,1,0,7108.03,-0.0703573,-0.0707416,-37.5998,4,0.000144037,10,0.00265987,-1.42481,16.0105,0.00368508,-5.41309,-0.0707416,
2,0,0,1,0,7108.03,-0.0727571,-0.0730989,-37.5896,4,-6.3297e-06,10,0.00274776,-1.42493,-58.4351,-0.00100967,1.48295,-0.0730989,
2,0,0,1,0,7108.04,-0.0751543,-0.0755379,-37.6125,4,-0.000156724,10,0.00284117,-1.42467,-8.62499,-0.00684059,10.0507,-0.07553786,
2,0,0,1,0,7108.04,-0.0775514,-0.0779217,-37.6414,4,-0.000307222,10,0.00293308,-1.42433,-5.27867,-0.0111771,16.4312,-0.0779217,
2,0,0,1,0,7108.05,-0.0799595,-0.0803182,-37.696,4,-0.000457875,10,0.00302768,-1.4237,-4.16598,-0.0141623,20.8442,-0.0803182,
2,0,0,1,0,7108.05,-0.0823567,-0.0826988,-37.7473,4,-0.000608745,10,0.00312166,-1.42311,-2.85063,-0.0206972,30.5227,-0.0826988,
2,0,0,1,0,7108.05,-0.0847538,-0.0851515,-37.8129,4,-0.000759881,10,0.00321982,-1.42236,-2.42687,-0.0243112,35.9289,-0.0851515,
2,0,0,1,0,7108.06,-0.0871592,-0.0875024,-37.9339,4,-0.000911368,10,0.00331931,-1.42097,-2.06839,-0.0285246,42.2462,-0.08750245,
2,0,0,1,0,7108.06,-0.0895563,-0.0899159,-38.0409,4,-0.00106335,10,0.00342048,-1.41975,-1.78605,-0.0330338,49.0504,-0.0899159,
2,0,0,1,0,7108.07,-0.0919534,-0.0922806,-38.1521,4,-0.00121573,10,0.0035207,-1.41848,-1.67205,-0.035286,52.5859,-0.0922806,
2,0,0,1,0,7108.07,-0.0943505,-0.0947153,-38.282,4,-0.00136861,10,0.00362589,-1.41701,-1.48849,-0.0396375,59.2842,-0.0947153,
2,0,0,1,0,7108.07,-0.0967587,-0.0971087,-38.439,4,-0.00152208,10,0.00373276,-1.41523,-1.4051,-0.0419899,62.9371,-0.09710867,
2,0,0,1,0,7108.08,-0.0991558,-0.099484,-38.6081,4,-0.00167617,10,0.00384089,-1.41332,-2.51923,-0.0234199,35.0806,-0.099484,
2,0,0,1,0,7108.08,-0.0999548,-0.100362,-38.6607,4,-0.00172638,10,0.00388007,-1.41273,0.0205437,2.87193,-4000.33,-0.100362,
2,0,0,1,1,7108.08,-0.0999548,-0.100381,-38.4807,4,-0.00174949,10,0.00386274,-1.41476,-0.024296,-2.42838,3119.13,-0.100381,
2,0,0,1,1,7108.08,-0.0979573,-0.098449,-33.0772,4,-0.00185842,10,0.00325641,-1.48047,-0.0307431,-1.91913,2270.75,-0.098449,
2,0,0,1,1,7108.09,-0.0955546,-0.0960207,-27.8056,4,-0.00197941,10,0.00266991,-1.55587,-0.0307111,-1.92113,2083.25,-0.0960207,
2,0,0,1,1,7108.09,-0.0931519,-0.0935849,-23.2717,4,-0.00208094,10,0.00217788,-1.63317,-0.0298795,-1.9746,1797.17,-0.0935849,
2,0,0,1,1,7108.1,-0.0907548,-0.0911661,-19.2837,4,-0.00216554,10,0.00175802,-1.71481,-0.027462,-2.14842,1600.33,-0.0911661,
2,0,0,1,1,7108.1,-0.0883577,-0.0887813,-15.7026,4,-0.00223507,10,0.00139409,-1.80403,-0.0245358,-2.40465,1438.01,-0.08878129,
2,0,0,1,1,7108.1,-0.0859523,-0.0864028,-12.4139,4,-0.00229092,10,0.00107259,-1.90609,-0.02086,-2.82838,1312.19,-0.0864028,
2,0,0,1,1,7108.11,-0.0835552,-0.0839596,-9.43044,4,-0.00233423,10,0.000791776,-2.02547,-0.0166307,-3.54765,1201.13,-0.0839596,
2,0,0,1,1,7108.11,-0.0811581,-0.0815599,-6.67854,4,-0.00236612,10,0.000544701,-2.17532,-0.0115066,-5.12751,1102.6,-0.0815599,
2,0,0,1,1,7108.12,-0.0787554,-0.079157,-4.14254,4,-0.00238746,10,0.000327911,-2.38273,-0.00669558,-8.81178,1024.86,-0.07915704,
2,0,0,1,1,7108.12,-0.0763528,-0.0767881,-1.81269,4,-0.00239909,10,0.000139193,-2.74168,-0.0212904,-2.7712,948.007,-0.0767881,
2,0,0,1,1,7108.12,-0.0739557,-0.0744128,0.353743,4,-0.00240176,10,-2.6323e-05,-3.45131,0.711954,0.0828705,877.986,-0.0744128,
2,1,0,1,1,7108.13,-0.0715586,-0.0720078,2.37696,4,-0.00239607,10,-0.00017116,-2.62398,0.0183433,3.21644,819.175,-0.0720078,
2,1,0,1,1,7108.13,-0.0691532,-0.069572,4.27297,4,-0.00238255,10,-0.000297279,-2.36927,0.00722262,8.16878,755.099,-0.069572,
2,1,0,1,1,7108.14,-0.0667561,-0.0672285,6.01828,4,-0.00236175,10,-0.0004046,-2.22053,0.0163917,3.59938,706.094,-0.0672285,
2,1,0,1,1,7108.14,-0.0643589,-0.06478,7.6274,4,-0.00233426,10,-0.000494104,-2.11762,0.0241194,2.44616,665.172,-0.06478,
2,1,0,1,1,7108.14,-0.0619563,-0.0624079,9.15536,4,-0.00230052,10,-0.000571367,-2.03832,0.0322994,1.82666,616.569,-0.0624079,
2,1,0,1,1,7108.15,-0.0595536,-0.0600453,10.6099,4,-0.00226083,10,-0.000637073,-1.97429,0.0399677,1.47619,585.991,-0.0600453,
2,1,0,1,1,7108.15,-0.0571565,-0.0576032,11.9529,4,-0.00221554,10,-0.000688528,-1.92252,0.0489293,1.20582,545.297,-0.0576032,
2,1,0,1,1,7108.16,-0.0547594,-0.0552247,13.2267,4,-0.00216502,10,-0.000730443,-1.87855,0.0586847,1.00537,506.437,-0.0552247,
2,1,0,1,1,7108.16,-0.0523512,-0.0527603,14.4162,4,-0.00210959,10,-0.000760601,-1.84115,0.0677524,0.870818,480.252,-0.0527603,
2,1,0,1,1,7108.16,-0.0499541,-0.0503606,15.5146,4,-0.00204961,10,-0.000781322,-1.80926,0.0785252,0.751351,448.07,-0.0503606,
2,1,0,1,1,7108.17,-0.047557,-0.0480118,16.5592,4,-0.00198536,10,-0.000795039,-1.78096,0.0895879,0.658571,420.226,-0.0480118,
2,1,0,1,1,7108.17,-0.0451544,-0.0456058,17.5367,4,-0.00191705,10,-0.000799775,-1.75605,0.101868,0.579183,391.603,-0.04560576,
2,1,0,1,1,7108.18,-0.0427545,-0.0431626,18.4494,4,-0.00184496,10,-0.000796323,-1.73402,0.116493,0.506468,360.64,-0.0431626,
2,1,0,1,1,7108.18,-0.0403574,-0.0407692,19.2706,4,-0.00176941,10,-0.000785646,-1.71511,0.130489,0.452144,337.388,-0.0407692,
2,1,0,1,1,7108.18,-0.0379603,-0.0383526,20.0427,4,-0.00169069,10,-0.000768691,-1.69804,0.145889,0.404418,314.464,-0.0383526,
2,1,0,1,1,7108.19,-0.0355521,-0.0359455,20.796,4,-0.00160892,10,-0.000747521,-1.68202,0.161603,0.365092,294.274,-0.0359455,
2,1,0,1,1,7108.19,-0.033155,-0.0335404,21.4752,4,-0.00152429,10,-0.000720288,-1.66806,0.177466,0.332459,276.872,-0.03354045,
2,1,0,1,1,7108.2,-0.0307579,-0.0311535,22.1002,4,-0.00143709,10,-0.000688499,-1.6556,0.200766,0.293875,252.177,-0.0311535,
2,1,0,1,1,7108.2,-0.0283524,-0.0287898,22.6904,4,-0.00134745,10,-0.000653253,-1.64416,0.221855,0.26594,234.384,-0.0287898,
2,1,0,1,1,7108.2,-0.0259553,-0.026317,23.2241,4,-0.00125554,10,-0.000611187,-1.63406,0.241896,0.243907,220.272,-0.026317,
2,1,0,1,1,7108.21,-0.0235582,-0.0239279,23.7282,4,-0.00116158,10,-0.000567766,-1.62473,0.269047,0.219293,202.457,-0.0239279,
2,1,0,1,1,7108.21,-0.0211611,-0.0215632,24.2127,4,-0.00106563,10,-0.000522102,-1.61596,0.293918,0.200737,188.941,-0.0215632,
2,1,0,1,1,7108.22,-0.0187529,-0.0191157,24.649,4,-0.000967842,10,-0.000471184,-1.6082,0.323012,0.182656,175.064,-0.0191157,
2,1,0,1,1,7108.22,-0.0163558,-0.0167372,25.0341,4,-0.000868426,10,-0.000419001,-1.60147,0.360392,0.163711,159.567,-0.0167372,
2,1,0,1,1,7108.22,-0.0139587,-0.0143344,25.4077,4,-0.000767493,10,-0.000364203,-1.59503,0.392656,0.150259,148.691,-0.0143344,
2,1,0,1,1,7108.23,-0.0115505,-0.0119124,25.7527,4,-0.000665147,10,-0.000306776,-1.58918,0.431358,0.136777,137.121,-0.01191239,
2,1,0,1,1,7108.23,-0.0091534,-0.00951481,26.0766,4,-0.000561444,10,-0.000248114,-1.58375,0.48447,0.121783,123.568,-0.00951481,
2,1,0,1,1,7108.24,-0.00675629,-0.00712041,26.3527,4,-0.000456546,10,-0.000187642,-1.57917,0.527456,0.111858,114.805,-0.00712041,
2,1,0,1,1,7108.24,-0.00435919,-0.00469102,26.5993,4,-0.000350616,10,-0.000124778,-1.57513,0.627242,0.0940625,97.3317,-0.00469102,
2,1,0,1,1,7108.24,-0.00195376,-0.00233692,26.852,4,-0.000243652,10,-6.27508e-05,-1.57102, , , ,-0.00233692,
2,1,0,0,1,7108.25,-7.54729e-05,-0.000478022,26.9561,4,-0.000160175,10,-1.28856e-05,-1.56934, , , ,-0.000478022,