File: Figure_codes/Fig_3-5/rawdata_trumpetplot_data/after 10th/20221101_1-115_003_TrumpetPlot_ParaChange_from10_every3_11_CV_C01_8.csv
mode,ox/red,error,control changes,counter inc.,time/s,control/V,Ewe/V,<I>/mA,cycle number,(Q-Qo)/C,I Range,P/W,log(|I|),Tafel slope mV/dec,alpha_eff,dI/d(E-IR),E-IR/V,
2,1,0,1,0,16955.6,2.44065e-05,-0.000287149,10.3277,9,0.0000000E+000,10,-2.96559e-06,-1.986, , , ,-0.0002871489,
2,1,0,1,0,16955.6,0.00214129,0.00171808,11.7441,9,5.69079e-05,10,2.01773e-05,-1.93018, , , ,0.00171808,
2,1,0,1,0,16955.6,0.00454949,0.00421004,12.8899,9,0.000131132,10,5.42668e-05,-1.88975,0.067994,0.867724,426.721,0.00421004,
2,1,0,1,0,16955.6,0.0069466,0.00659065,13.7631,9,0.000211224,10,9.07075e-05,-1.86128,0.0910843,0.647752,344.469,0.00659065,
2,1,0,1,0,16955.6,0.0093437,0.00894157,14.5354,9,0.000296237,10,0.000129969,-1.83757,0.111826,0.527604,296.865,0.00894157,
2,1,0,1,0,16955.6,0.0117408,0.0113975,15.1971,9,0.000385551,10,0.000173209,-1.81824,0.133581,0.44168,260.425,0.0113975,
2,1,0,1,0,16955.6,0.0141462,0.0137473,15.779,9,0.000478547,10,0.000216919,-1.80192,0.153753,0.383732,235.473,0.0137473,
2,1,0,1,0,16955.6,0.0165433,0.0162181,16.3133,9,0.000574898,10,0.00026457,-1.78746,0.17978,0.32818,208.113,0.0162181,
2,1,0,1,0,16955.6,0.0189404,0.0186284,16.778,9,0.000674254,10,0.000312546,-1.77526,0.203741,0.289583,189.178,0.0186284,
2,1,0,1,0,16955.6,0.0213486,0.0210196,17.2208,9,0.0007763,10,0.000361975,-1.76395,0.225044,0.26217,175.833,0.0210196,
2,1,0,1,0,16955.6,0.0237457,0.0233981,17.6156,9,0.000880848,10,0.000412173,-1.7541,0.24973,0.236255,162.168,0.02339809,
2,1,0,1,0,16955.6,0.0261429,0.0257872,17.9908,9,0.000987732,10,0.000463932,-1.74495,0.269429,0.218981,153.58,0.0257872,
2,1,0,1,0,16955.6,0.02854,0.0282293,18.3378,9,0.00109677,10,0.000517663,-1.73665,0.29289,0.201441,144.023,0.0282293,
2,1,0,1,0,16955.6,0.0309482,0.0305908,18.6683,9,0.0012079,10,0.00057108,-1.72889,0.311822,0.189211,137.803,0.0305908,
2,1,0,1,0,16955.6,0.0333453,0.033017,19.0035,9,0.00132095,10,0.000627441,-1.72117,0.337897,0.17461,129.382,0.033017,
2,1,0,1,0,16955.7,0.0357424,0.0354189,19.3166,9,0.00143593,10,0.000684171,-1.71407,0.353057,0.167112,125.862,0.0354189,
2,1,0,1,0,16955.7,0.0381478,0.037791,19.6059,9,0.00155271,10,0.000740925,-1.70761,0.362,0.162983,124.755,0.037791,
2,1,0,1,0,16955.7,0.0405449,0.0402278,19.9108,9,0.00167129,10,0.000800968,-1.70091,0.366765,0.160866,124.973,0.0402278,
2,1,0,1,0,16955.7,0.042942,0.0426148,20.2126,9,0.00179171,10,0.000861355,-1.69438,0.378571,0.155849,122.848,0.0426148,
2,1,0,1,0,16955.7,0.0453391,0.0449434,20.4802,9,0.00191382,10,0.000920452,-1.68867,0.386804,0.152532,122.018,0.0449434,
2,1,0,1,0,16955.7,0.0477473,0.0474555,20.7926,9,0.0020377,10,0.000986723,-1.68209,0.381053,0.154834,125.59,0.0474555,
2,1,0,1,0,16955.7,0.0501444,0.0497757,21.0887,9,0.00216338,10,0.0010497,-1.67595,0.39863,0.148007,121.749,0.0497757,
2,1,0,1,0,16955.7,0.0525415,0.0522051,21.3713,9,0.00229079,10,0.00111569,-1.67017,0.403731,0.146137,121.949,0.0522051,
2,1,0,1,0,16955.7,0.0549469,0.054573,21.6745,9,0.00241995,10,0.00118284,-1.66405,0.399157,0.147811,125.024,0.054573,
2,1,0,1,0,16955.7,0.057344,0.0569897,21.9701,9,0.00255094,10,0.00125207,-1.65817,0.40604,0.145306,124.59,0.0569897,
2,1,0,1,0,16955.7,0.0597411,0.0593363,22.2739,9,0.00268372,10,0.00132165,-1.6522,0.404487,0.145864,126.827,0.0593363,
2,1,0,1,0,16955.7,0.0621438,0.0618156,22.5783,9,0.00281829,10,0.00139569,-1.64631,0.397718,0.148346,130.781,0.06181556,
2,1,0,1,0,16955.7,0.0645465,0.0641887,22.903,9,0.00295475,10,0.00147012,-1.64011,0.399232,0.147784,132.051,0.0641887,
2,1,0,1,0,16955.7,0.0669436,0.0666181,23.2188,9,0.00309314,10,0.0015468,-1.63416,0.410636,0.14368,130.069,0.0666181,
2,1,0,1,0,16955.7,0.0693407,0.0689987,23.5148,9,0.00323339,10,0.00162249,-1.62866,0.414429,0.142365,130.699,0.0689987,
2,1,0,1,0,16955.7,0.0717489,0.0713709,23.8385,9,0.00337545,10,0.00170137,-1.62272,0.419059,0.140792,130.951,0.0713709,
2,1,0,1,0,16955.7,0.074146,0.0737929,24.1486,9,0.00351944,10,0.001782,-1.61711,0.441789,0.133548,125.744,0.0737929,
2,1,0,1,0,16955.8,0.0765431,0.0761332,24.4342,9,0.00366525,10,0.00186025,-1.612,0.44271,0.13327,127.159,0.0761332,
2,1,0,1,0,16955.8,0.0789485,0.0785604,24.7438,9,0.00381275,10,0.00194388,-1.60653,0.430155,0.13716,132.586,0.0785604,
2,1,0,1,0,16955.8,0.0813456,0.0809612,25.0863,9,0.00396229,10,0.00203102,-1.60056,0.419041,0.140798,137.722,0.08096119,
2,1,0,1,0,16955.8,0.0837427,0.0833832,25.4041,9,0.00411381,10,0.00211827,-1.5951,0.433686,0.136043,134.887,0.0833832,
2,1,0,1,0,16955.8,0.0861398,0.0857924,25.7253,9,0.00426724,10,0.00220703,-1.58964,0.447834,0.131745,132.268,0.0857924,
2,1,0,1,0,16955.8,0.088548,0.0882186,26.0576,9,0.00442264,10,0.00229876,-1.58407,0.452617,0.130353,132.474,0.0882186,
2,1,0,1,0,16955.8,0.0909451,0.0905738,26.3661,9,0.0045799,10,0.00238808,-1.57895,0.480925,0.12268,126.187,0.0905738,
2,1,0,1,0,16955.8,0.0933422,0.0930032,26.664,9,0.00473902,10,0.00247984,-1.57407,0.474808,0.124261,129.316,0.0930032,
2,1,0,1,0,16955.8,0.0957476,0.0954114,26.9745,9,0.00489995,10,0.00257367,-1.56905,0.484175,0.121857,128.281,0.0954114,
2,1,0,1,0,16955.8,0.0981447,0.0978089,27.2885,9,0.00506278,10,0.00266905,-1.56402,0.493946,0.119446,127.109,0.0978089,
2,1,0,1,0,16955.8,0.100542,0.100212,27.5844,9,0.00522744,10,0.00276428,-1.55934,0.505697,0.116671,125.599,0.100212,
2,1,0,1,0,16955.8,0.102939,0.102636,27.8701,9,0.00539382,10,0.00286048,-1.55486,0.506293,0.116533,126.866,0.102636,
2,1,0,1,0,16955.8,0.105347,0.104998,28.2013,9,0.00556209,10,0.00296109,-1.54973,0.503301,0.117226,128.937,0.104998,
2,1,0,1,0,16955.8,0.107744,0.107406,28.5065,9,0.00573227,10,0.00306176,-1.54506,0.512155,0.1152,128.143,0.1074056,
2,1,0,1,0,16955.8,0.110141,0.10981,28.8136,9,0.00590422,10,0.003164,-1.5404,0.490706,0.120235,135.326,0.10981,
2,1,0,1,0,16955.8,0.11255,0.112223,29.1613,9,0.00607813,10,0.00327257,-1.53519,0.478525,0.123295,140.247,0.112223,
2,1,0,1,0,16955.9,0.114947,0.114622,29.4886,9,0.00625411,10,0.00338003,-1.53035,0.466738,0.126409,145.528,0.114622,
2,1,0,1,0,16955.9,0.117344,0.116982,29.8332,9,0.00643208,10,0.00348995,-1.5253,0.457665,0.128915,150.23,0.116982,
2,1,0,1,0,16955.9,0.119744,0.119396,30.2089,9,0.00661225,10,0.00360681,-1.51987,0.433507,0.136099,160.539,0.119396,
2,1,0,1,0,16955.9,0.122146,0.12181,30.6006,9,0.00679474,10,0.00372746,-1.51427,0.423746,0.139234,166.305,0.12181,
2,1,0,1,0,16955.9,0.124543,0.124202,31.001,9,0.00697961,10,0.0038504,-1.50862,0.423574,0.139291,168.563,0.124202,
2,1,0,1,0,16955.9,0.126941,0.126585,31.4152,9,0.0071669,10,0.0039767,-1.50286,0.404262,0.145945,179.081,0.126585,
2,1,0,1,0,16955.9,0.129349,0.129002,31.8681,9,0.00735676,10,0.00411105,-1.49664,0.398706,0.147979,184.015,0.129002,
2,1,0,1,0,16955.9,0.131746,0.131428,32.3223,9,0.00754937,10,0.00424806,-1.4905,0.401748,0.146858,185.142,0.131428,
2,1,0,1,0,16955.9,0.134143,0.133779,32.7518,9,0.00774462,10,0.00438151,-1.48476,0.394749,0.149462,191.215,0.133779,
2,1,0,1,0,16955.9,0.13654,0.136214,33.2249,9,0.00794257,10,0.00452568,-1.47854,0.394685,0.149486,193.789,0.136214,
2,1,0,1,0,16955.9,0.138945,0.138602,33.7022,9,0.00814344,10,0.00467118,-1.47234,0.405868,0.145367,191.044,0.138602,
2,1,0,1,0,16955.9,0.141343,0.14099,34.1289,9,0.00834696,10,0.00481183,-1.46688,0.425193,0.13876,184.879,0.14099,
2,1,0,1,0,16955.9,0.14374,0.14341,34.5867,9,0.00855316,10,0.00496007,-1.46109,0.428687,0.13763,185.714,0.14341,
2,1,0,1,0,16955.9,0.146148,0.145799,35.0359,9,0.00876211,10,0.00510818,-1.45549,0.449982,0.131116,179.089,0.1457987,
2,1,0,1,0,16955.9,0.148545,0.148222,35.4385,9,0.00897358,10,0.00525276,-1.45052,0.492878,0.119705,165.535,0.148222,
2,1,0,1,0,16955.9,0.150942,0.150618,35.8372,9,0.00918748,10,0.00539773,-1.44567,0.501041,0.117755,164.651,0.150618,
2,1,0,1,0,16955.9,0.153345,0.153024,36.2273,9,0.00940373,10,0.00554366,-1.44096,0.535427,0.110192,155.704,0.153024,
2,1,0,1,0,16956,0.155747,0.155413,36.5924,9,0.00962226,10,0.00568695,-1.43661,0.600671,0.0982235,140.109,0.155413,
2,1,0,1,0,16956,0.158144,0.157799,36.9169,9,0.00984282,10,0.00582546,-1.43277,0.661794,0.0891516,128.347,0.1577993,
2,1,0,1,0,16956,0.160542,0.160239,37.2012,9,0.0100652,10,0.00596109,-1.42944,0.742113,0.0795027,115.344,0.160239,
2,1,0,1,0,16956,0.162947,0.162624,37.4805,9,0.0102893,10,0.00609524,-1.42619,0.885913,0.066598,97.2351,0.162624,
2,1,0,1,0,16956,0.165344,0.165003,37.6665,9,0.0105148,10,0.00621507,-1.42404,1.21732,0.0484671,71.1686,0.165003,
2,1,0,1,0,16956,0.167741,0.167442,37.8099,9,0.0107412,10,0.00633095,-1.42239,1.78314,0.0330878,48.7721,0.167442,
2,1,0,1,0,16956,0.170149,0.169842,37.9187,9,0.0109684,10,0.00644021,-1.42115,5.6583,0.0104272,15.3883,0.169842,
2,1,0,1,0,16956,0.172547,0.172238,37.8887,9,0.0111959,10,0.00652586,-1.42149,-3.43111,-0.0171956,-25.3657,0.172238,
2,1,0,1,0,16956,0.174944,0.174623,37.7757,9,0.011423,10,0.00659649,-1.42279,-1.29166,-0.0456776,-67.1936,0.174623,
2,1,0,1,0,16956,0.177341,0.177047,37.5709,9,0.011649,10,0.0066518,-1.42515,-0.740602,-0.0796649,-116.453,0.177047,
2,1,0,1,0,16956,0.179746,0.17941,37.2383,9,0.0118735,10,0.00668093,-1.42901,-0.505528,-0.11671,-169.043,0.17941,
2,1,0,1,0,16956,0.182143,0.181862,36.7649,9,0.0120955,10,0.00668615,-1.43457,-0.382463,-0.154263,-220.64,0.181862,
2,1,0,1,0,16956,0.18454,0.184214,36.1658,9,0.0123143,10,0.00666225,-1.4417,-0.305286,-0.193261,-271.93,0.184214,
2,1,0,1,0,16956,0.186949,0.186619,35.4613,9,0.0125291,10,0.00661775,-1.45025,-0.250495,-0.235533,-324.82,0.186619,
2,1,0,1,0,16956,0.189346,0.189068,34.6148,9,0.0127393,10,0.00654453,-1.46074,-0.214005,-0.275694,-371.271,0.189068,
2,1,0,1,0,16956,0.191743,0.191387,33.6612,9,0.0129441,10,0.0064423,-1.47287,-0.192262,-0.306873,-402.353,0.191387,
2,1,0,1,0,16956,0.19414,0.193808,32.6535,9,0.013143,10,0.00632849,-1.48607,-0.170752,-0.345529,-439.233,0.193808,
2,1,0,1,0,16956.1,0.196548,0.196214,31.572,9,0.0133356,10,0.00619485,-1.5007,-0.160447,-0.367722,-452.16,0.1962136,
2,1,0,1,0,16956.1,0.198945,0.198632,30.4391,9,0.0135215,10,0.0060462,-1.51657,-0.149458,-0.394758,-468.676,0.198632,
2,1,0,1,0,16956.1,0.201342,0.201042,29.3202,9,0.0137007,10,0.00589457,-1.53283,-0.14508,-0.406673,-465.068,0.201042,
2,1,0,1,0,16956.1,0.203748,0.20339,28.2043,9,0.0138732,10,0.00573648,-1.54969,-0.142584,-0.413792,-455.566,0.20339,
2,1,0,1,0,16956.1,0.206145,0.205805,27.1108,9,0.014039,10,0.00557954,-1.56686,-0.142618,-0.413694,-438.422,0.205805,
2,1,0,1,0,16956.1,0.208542,0.208197,26.0974,9,0.0141986,10,0.00543341,-1.5834,-0.14509,-0.406643,-414.507,0.208197,
2,1,0,1,0,16956.1,0.210939,0.210616,25.1091,9,0.0143521,10,0.00528839,-1.60017,-0.146131,-0.403748,-396.358,0.210616,
2,1,0,1,0,16956.1,0.213347,0.213003,24.2028,9,0.0144999,10,0.00515527,-1.61613,-0.154385,-0.382161,-361.614,0.213003,
2,1,0,1,0,16956.1,0.215744,0.215401,23.3594,9,0.0146425,10,0.00503162,-1.63154,-0.161364,-0.365634,-334.067,0.215401,
2,1,0,1,0,16956.1,0.218141,0.217844,22.591,9,0.0147802,10,0.0049213,-1.64607,-0.170915,-0.3452,-305.007,0.217844,
2,1,0,1,0,16956.1,0.220547,0.220241,21.8986,9,0.0149136,10,0.00482299,-1.65958,-0.180235,-0.327351,-280.177,0.220241,
2,1,0,1,0,16956.1,0.222944,0.222622,21.2452,9,0.015043,10,0.00472965,-1.67274,-0.19351,-0.304893,-253.451,0.222622,
2,1,0,1,0,16956.1,0.225341,0.225026,20.6781,9,0.0151686,10,0.0046531,-1.68449,-0.208614,-0.282819,-228.748,0.225026,
2,1,0,1,0,16956.1,0.227744,0.227425,20.1595,9,0.0152911,10,0.00458476,-1.69552,-0.221003,-0.266965,-210.299,0.227425,
2,1,0,1,0,16956.1,0.230146,0.229834,19.6831,9,0.0154105,10,0.00452383,-1.70591,-0.244761,-0.241052,-185.552,0.229834,
2,1,0,1,0,16956.1,0.232543,0.232197,19.2603,9,0.0155273,10,0.0044722,-1.71534,-0.260484,-0.226501,-170.443,0.232197,
2,1,0,1,0,16956.2,0.234941,0.234641,18.874,9,0.0156416,10,0.0044286,-1.72414,-0.286149,-0.206186,-152.092,0.234641,
2,1,0,1,0,16956.2,0.237349,0.237054,18.5273,9,0.0157538,10,0.00439198,-1.73219,-0.308721,-0.191111,-138.395,0.237054,
2,1,0,1,0,16956.2,0.239746,0.239425,18.2079,9,0.0158639,10,0.00435943,-1.73974,-0.329537,-0.179039,-127.394,0.239425,
2,1,0,1,0,16956.2,0.242143,0.241818,17.9203,9,0.0159723,10,0.00433345,-1.74666,-0.362646,-0.162693,-113.9,0.241818,
2,1,0,1,0,16956.2,0.244548,0.24425,17.6551,9,0.016079,10,0.00431226,-1.75313,-0.37991,-0.1553,-107.116,0.24425,
2,1,0,1,0,16956.2,0.246946,0.246618,17.4147,9,0.0161842,10,0.00429477,-1.75908,-0.415358,-0.142046,-96.6052,0.246618,
2,1,0,1,0,16956.2,0.249343,0.249025,17.1938,9,0.0162879,10,0.00428169,-1.76463,-0.441202,-0.133725,-89.7956,0.249025,
2,1,0,1,0,16956.2,0.25174,0.251416,16.9854,9,0.0163905,10,0.0042704,-1.76992,-0.473105,-0.124708,-82.7229,0.251416,
2,1,0,1,0,16956.2,0.254148,0.253844,16.7952,9,0.0164918,10,0.00426336,-1.77481,-0.503016,-0.117292,-76.9416,0.253844,
2,1,0,1,0,16956.2,0.256545,0.256212,16.6207,9,0.016592,10,0.00425843,-1.77935,-0.536912,-0.109888,-71.3454,0.256212,
2,1,0,1,0,16956.2,0.258942,0.258646,16.4607,9,0.0166912,10,0.00425749,-1.78355,-0.581485,-0.101464,-65.2004,0.258646,
2,1,0,1,0,16956.2,0.261348,0.261056,16.311,9,0.0167895,10,0.00425809,-1.78752,-0.608027,-0.0970352,-61.8019,0.261056,
2,1,0,1,0,16956.2,0.263745,0.263423,16.1655,9,0.0168869,10,0.00425837,-1.79141,-0.670809,-0.0879536,-55.5038,0.2634232,
2,1,0,1,0,16956.2,0.266142,0.265784,16.0265,9,0.0169835,10,0.00425959,-1.79516,-0.703612,-0.083853,-52.4837,0.265784,
2,1,0,1,0,16956.2,0.268539,0.26822,15.8955,9,0.0170793,10,0.00426351,-1.79872,-0.695323,-0.0848527,-52.7093,0.26822,
2,1,0,1,0,16956.2,0.270947,0.27065,15.7812,9,0.0171743,10,0.00427117,-1.80186,-0.758218,-0.0778141,-47.935,0.27065,
2,1,0,1,0,16956.2,0.273344,0.273003,15.6781,9,0.0172687,10,0.00428017,-1.80471,-0.767367,-0.0768863,-47.0199,0.273003,
2,1,0,1,0,16956.3,0.275741,0.27541,15.5638,9,0.0173624,10,0.00428643,-1.80788,-0.783692,-0.0752847,-45.7486,0.27541,
2,1,0,1,0,16956.3,0.278149,0.27784,15.4638,9,0.0174554,10,0.00429647,-1.81068,-0.844205,-0.0698882,-42.1629,0.2778405,
2,1,0,1,0,16956.3,0.280547,0.28024,15.36,9,0.0175479,10,0.0043045,-1.81361,-0.899292,-0.0656071,-39.3351,0.28024,
2,1,0,1,0,16956.3,0.282944,0.282629,15.2683,9,0.0176397,10,0.00431526,-1.81621,-0.918908,-0.0642067,-38.2664,0.282629,
2,1,0,1,0,16956.3,0.285344,0.285,15.163,9,0.017731,10,0.00432147,-1.81921,-0.917577,-0.0642998,-38.0849,0.285,
2,1,0,1,0,16956.3,0.287746,0.287412,15.0857,9,0.0178218,10,0.0043358,-1.82143,-0.980953,-0.0601456,-35.4148,0.287412,
2,1,0,1,0,16956.3,0.290143,0.28979,14.9982,9,0.017912,10,0.00434633,-1.82396,-0.915252,-0.0644631,-37.713,0.28979,
2,1,0,1,0,16956.3,0.29254,0.292229,14.9118,9,0.0180018,10,0.00435765,-1.82647,-0.998735,-0.0590747,-34.4022,0.292229,
2,1,0,1,0,16956.3,0.294949,0.294602,14.83,9,0.018091,10,0.00436895,-1.82886,-1.08283,-0.0544868,-31.5532,0.294602,
2,1,0,1,0,16956.3,0.297346,0.297042,14.7685,9,0.0181798,10,0.00438687,-1.83066,-1.15687,-0.0509998,-29.3926,0.297042,
2,1,0,1,0,16956.3,0.299621,0.299325,14.6803,9,0.0182637,10,0.00439419,-1.83326,-0.0664464,-0.887934,-486.49,0.2993249,
2,1,0,1,0,16956.3,0.299962,0.299785,14.537,9,0.0182813,10,0.00435796,-1.83753,0.00807744,7.30429,3258.45,0.299785,
2,1,0,1,0,16956.3,0.297903,0.297681,9.98524,9,0.018342,10,0.00297241,-2.00064,0.0125634,4.69616,1716.51,0.297681,
2,1,0,1,0,16956.3,0.295506,0.295218,6.47506,9,0.0183904,10,0.00191156,-2.18876,0.0114056,5.17288,1297.49,0.295218,
2,1,0,1,0,16956.3,0.293101,0.292869,3.86248,9,0.0184209,10,0.0011312,-2.41313,0.00829493,7.11278,968.871,0.292869,
2,1,0,1,0,16956.3,0.290704,0.290401,1.81637,9,0.0184375,10,0.000527475,-2.7408,0.00507519,11.6252,765.608,0.290401,
2,1,0,1,0,16956.3,0.288307,0.288001,0.20212,9,0.0184432,10,5.82109e-05,-3.69439,0.029344,2.01064,618.152,0.2880013,
2,0,0,1,0,16956.3,0.28591,0.285645,-1.09224,9,0.0184403,10,-0.000311993,-2.96168,-0.0116687,-5.05627,497.669,0.2856451,
2,0,0,1,0,16956.4,0.283501,0.283225,-2.19286,9,0.0184302,10,-0.000621073,-2.65899,-0.00935461,-6.30705,414.42,0.283225,
2,0,0,1,0,16956.4,0.281104,0.280794,-3.09397,9,0.0184142,10,-0.000868768,-2.50948,-0.0187582,-3.1453,344.983,0.280794,
2,0,0,1,0,16956.4,0.278707,0.278445,-3.83315,9,0.0183933,10,-0.00106732,-2.41644,-0.0287797,-2.05006,293.378,0.278445,
2,0,0,1,0,16956.4,0.276302,0.275964,-4.49045,9,0.0183683,10,-0.0012392,-2.34771,-0.0397762,-1.4833,251.956,0.2759636,
2,0,0,1,0,16956.4,0.273905,0.273612,-5.04606,9,0.0183396,10,-0.00138066,-2.29705,-0.0526312,-1.12101,216.209,0.273612,
2,0,0,1,0,16956.4,0.271508,0.27118,-5.51535,9,0.0183078,10,-0.00149565,-2.25843,-0.0661514,-0.891893,190.162,0.27118,
2,0,0,1,0,16956.4,0.269105,0.268798,-5.94813,9,0.0182734,10,-0.00159885,-2.22562,-0.0799161,-0.738274,169.588,0.268798,
2,0,0,1,0,16956.4,0.266702,0.266363,-6.32791,9,0.0182364,10,-0.00168552,-2.19874,-0.0971754,-0.60715,148.57,0.266363,
2,0,0,1,0,16956.4,0.264305,0.263982,-6.6677,9,0.0181974,10,-0.00176015,-2.17602,-0.117026,-0.504162,130.26,0.263982,
2,0,0,1,0,16956.4,0.261908,0.261594,-6.96055,9,0.0181565,10,-0.00182084,-2.15736,-0.131252,-0.449518,121.753,0.261594,
2,0,0,1,0,16956.4,0.2595,0.25919,-7.25451,9,0.0181138,10,-0.0018803,-2.13939,-0.147372,-0.400348,112.813,0.25919,
2,0,0,1,0,16956.4,0.257103,0.25679,-7.50468,9,0.0180695,10,-0.00192713,-2.12467,-0.173398,-0.340258,99.1973,0.25679,
2,0,0,1,0,16956.4,0.254706,0.25436,-7.71736,9,0.0180238,10,-0.00196299,-2.11253,-0.189686,-0.311041,93.6559,0.25436,
2,0,0,1,0,16956.4,0.2523,0.251975,-7.95124,9,0.0179768,10,-0.00200351,-2.09957,-0.208278,-0.283275,87.7643,0.251975,
2,0,0,1,0,16956.4,0.249903,0.2496,-8.1487,9,0.0179285,10,-0.00203391,-2.08891,-0.227762,-0.259042,82.0784,0.2496,
2,0,0,1,0,16956.4,0.247506,0.247202,-8.32908,9,0.017879,10,-0.00205897,-2.0794,-0.251215,-0.234859,76.396,0.247202,
2,0,0,1,0,16956.5,0.245109,0.24477,-8.51152,9,0.0178285,10,-0.00208336,-2.06999,-0.262317,-0.224919,74.6665,0.24477,
2,0,0,1,0,16956.5,0.242701,0.242396,-8.70385,9,0.0177768,10,-0.00210978,-2.06029,-0.285258,-0.20683,69.9835,0.242396,
2,0,0,1,0,16956.5,0.240304,0.23998,-8.84409,9,0.0177241,10,-0.0021224,-2.05335,-0.322136,-0.183152,63.2283,0.23998,
2,0,0,1,0,16956.5,0.237906,0.237598,-8.99547,9,0.0176706,10,-0.00213731,-2.04598,-0.331639,-0.177904,62.4926,0.237598,
2,0,0,1,0,16956.5,0.235501,0.235151,-9.15776,9,0.0176161,10,-0.00215345,-2.03821,-0.344848,-0.17109,61.0878,0.235151,
2,0,0,1,0,16956.5,0.233104,0.232779,-9.30239,9,0.0175607,10,-0.0021654,-2.03141,-0.361991,-0.162988,59.1119,0.232779,
2,0,0,1,0,16956.5,0.230707,0.230403,-9.43306,9,0.0175045,10,-0.00217341,-2.02535,-0.376977,-0.156508,57.6687,0.230403,
2,0,0,1,0,16956.5,0.22831,0.228006,-9.56171,9,0.0174475,10,-0.00218012,-2.01946,-0.387063,-0.15243,56.9643,0.228006,
2,0,0,1,0,16956.5,0.225902,0.225574,-9.71266,9,0.0173896,10,-0.00219093,-2.01266,-0.40255,-0.146566,55.4272,0.225574,
2,0,0,1,0,16956.5,0.223504,0.223179,-9.83291,9,0.0173309,10,-0.0021945,-2.00732,-0.437568,-0.134836,51.7237,0.223179,
2,0,0,1,0,16956.5,0.221107,0.220815,-9.94895,9,0.0172716,10,-0.00219688,-2.00222,-0.423933,-0.139173,54.1468,0.220815,
2,0,0,1,0,16956.5,0.218699,0.218357,-10.1074,9,0.0172114,10,-0.00220702,-1.99536,-0.442772,-0.133251,52.3926,0.218357,
2,0,0,1,0,16956.5,0.216302,0.215994,-10.2084,9,0.0171504,10,-0.00220495,-1.99104,-0.472887,-0.124766,49.6984,0.2159944,
2,0,0,1,0,16956.5,0.213905,0.213585,-10.3268,9,0.0170889,10,-0.00220565,-1.98603,-0.480069,-0.122899,49.6131,0.213585,
2,0,0,1,0,16956.5,0.211505,0.2112,-10.4577,9,0.0170265,10,-0.00220868,-1.98056,-0.470557,-0.125383,51.1119,0.2112,
2,0,0,1,0,16956.5,0.209102,0.208811,-10.5743,9,0.0169634,10,-0.00220803,-1.97575,-0.479573,-0.123026,50.7587,0.208811,
2,0,0,1,0,16956.5,0.206705,0.206404,-10.6953,9,0.0168996,10,-0.00220755,-1.97081,-0.491651,-0.120004,50.0743,0.2064041,
2,0,0,1,0,16956.6,0.204308,0.20396,-10.8114,9,0.0168351,10,-0.00220509,-1.96612,-0.462421,-0.127589,53.8605,0.20396,
2,0,0,1,0,16956.6,0.2019,0.201575,-10.9479,9,0.0167698,10,-0.00220682,-1.96067,-0.49875,-0.118296,50.473,0.201575,
2,0,0,1,0,16956.6,0.199503,0.199166,-11.0569,9,0.0167038,10,-0.00220216,-1.95637,-0.514893,-0.114587,49.4339,0.199166,
2,0,0,1,0,16956.6,0.197106,0.196807,-11.1641,9,0.0166371,10,-0.00219717,-1.95218,-0.487443,-0.12104,52.8329,0.196807,
2,0,0,1,0,16956.6,0.194709,0.194374,-11.2978,9,0.0165697,10,-0.002196,-1.94701,-0.496316,-0.118876,52.4263,0.194374,
2,0,0,1,0,16956.6,0.192303,0.192023,-11.4324,9,0.0165014,10,-0.00219528,-1.94186,-0.505039,-0.116823,52.0626,0.192023,
2,0,0,1,0,16956.6,0.189906,0.189555,-11.5448,9,0.0164325,10,-0.00218838,-1.93761,-0.50433,-0.116987,52.8069,0.1895553,
2,0,0,1,0,16956.6,0.187509,0.187167,-11.6885,9,0.0163628,10,-0.0021877,-1.93224,-0.470858,-0.125303,57.1773,0.187167,
2,0,0,1,0,16956.6,0.185101,0.184785,-11.8402,9,0.0162922,10,-0.00218788,-1.92664,-0.475639,-0.124044,57.2232,0.184785,
2,0,0,1,0,16956.6,0.182704,0.182372,-11.9549,9,0.0162208,10,-0.00218023,-1.92246,-0.478717,-0.123246,57.6035,0.182372,
2,0,0,1,0,16956.6,0.180307,0.179988,-12.1082,9,0.0161486,10,-0.00217933,-1.91692,-0.435096,-0.135602,64.115,0.179988,
2,0,0,1,0,16956.6,0.177904,0.177609,-12.2629,9,0.0160755,10,-0.00217801,-1.91141,-0.421362,-0.140022,67.0294,0.177609,
2,0,0,1,0,16956.6,0.175501,0.175192,-12.4212,9,0.0160014,10,-0.0021761,-1.90584,-0.413625,-0.142641,69.2047,0.1751921,
2,0,0,1,0,16956.6,0.173104,0.172801,-12.5872,9,0.0159264,10,-0.00217507,-1.90007,-0.402332,-0.146645,72.1411,0.172801,
2,0,0,1,0,16956.6,0.170707,0.17041,-12.7597,9,0.0158503,10,-0.00217438,-1.89416,-0.376459,-0.156724,78.1882,0.17041,
2,0,0,1,0,16956.6,0.168302,0.167968,-12.9696,9,0.015773,10,-0.00217848,-1.88707,-0.365617,-0.161371,81.6777,0.167968,
2,0,0,1,0,16956.6,0.165905,0.165582,-13.1725,9,0.0156946,10,-0.00218112,-1.88033,-0.343558,-0.171732,88.4216,0.165582,
2,0,0,1,0,16956.7,0.163507,0.16319,-13.3902,9,0.0156149,10,-0.00218515,-1.87321,-0.314056,-0.187865,98.3645,0.16319,
2,0,0,1,0,16956.7,0.161099,0.160828,-13.6579,9,0.0155338,10,-0.00219656,-1.86462,-0.299711,-0.196857,104.823,0.160828,
2,0,0,1,0,16956.7,0.158702,0.15837,-13.89,9,0.0154511,10,-0.00219976,-1.8573,-0.275728,-0.213979,116.22,0.15837,
2,0,0,1,0,16956.7,0.156305,0.156008,-14.1814,9,0.0153669,10,-0.00221241,-1.84828,-0.255057,-0.231321,128.309,0.156008,
2,0,0,1,0,16956.7,0.153908,0.153585,-14.5041,9,0.0152808,10,-0.00222762,-1.83851,-0.242743,-0.243055,137.664,0.153585,
2,0,0,1,0,16956.7,0.151503,0.151224,-14.8402,9,0.0151927,10,-0.00224419,-1.82856,-0.227726,-0.259083,150.358,0.151224,
2,0,0,1,0,16956.7,0.149105,0.148784,-15.216,9,0.0151026,10,-0.00226389,-1.8177,-0.211966,-0.278346,165.627,0.148784,
2,0,0,1,0,16956.7,0.146708,0.146384,-15.6372,9,0.0150099,10,-0.00228904,-1.80584,-0.196539,-0.300196,183.544,0.146384,
2,0,0,1,0,16956.7,0.1443,0.143997,-16.1046,9,0.0149147,10,-0.00231902,-1.79305,-0.186166,-0.316922,199.49,0.143997,
2,0,0,1,0,16956.7,0.141903,0.141616,-16.5949,9,0.0148166,10,-0.00235011,-1.78002,-0.1741,-0.338886,219.993,0.141616,
2,0,0,1,0,16956.7,0.139506,0.139221,-17.1509,9,0.0147153,10,-0.00238777,-1.76571,-0.161942,-0.364327,244.606,0.139221,
2,0,0,1,0,16956.7,0.137109,0.136839,-17.766,9,0.0146105,10,-0.00243109,-1.75041,-0.154335,-0.382286,265.606,0.1368393,
2,0,0,1,0,16956.7,0.134701,0.134411,-18.4394,9,0.0145018,10,-0.00247846,-1.73425,-0.147308,-0.400522,288.47,0.134411,
2,0,0,1,0,16956.7,0.132303,0.132,-19.1461,9,0.0143891,10,-0.00252728,-1.71792,-0.143024,-0.412518,308.755,0.132,
2,0,0,1,0,16956.7,0.129906,0.129581,-19.9149,9,0.0142719,10,-0.00258059,-1.70082,-0.14034,-0.420407,326.812,0.129581,
2,0,0,1,0,16956.7,0.127501,0.127194,-20.7212,9,0.0141499,10,-0.00263561,-1.68359,-0.140976,-0.418511,338.397,0.127194,
2,0,0,1,0,16956.8,0.125104,0.124806,-21.5377,9,0.0140231,10,-0.00268803,-1.6668,-0.142166,-0.415008,349.076,0.124806,
2,0,0,1,0,16956.8,0.122707,0.122411,-22.4025,9,0.0138912,10,-0.00274232,-1.6497,-0.142894,-0.412893,360.764,0.122411,
2,0,0,1,0,16956.8,0.12031,0.120028,-23.2508,9,0.0137541,10,-0.00279074,-1.63356,-0.145721,-0.404883,367.555,0.120028,
2,0,0,1,0,16956.8,0.117901,0.117612,-24.1408,9,0.0136118,10,-0.00283924,-1.61725,-0.152618,-0.386587,364.098,0.117612,
2,0,0,1,0,16956.8,0.115504,0.115183,-25.0369,9,0.0134641,10,-0.00288382,-1.60142,-0.162127,-0.363913,354.561,0.115183,
2,0,0,1,0,16956.8,0.113107,0.112832,-25.8423,9,0.0133113,10,-0.00291583,-1.58767,-0.169986,-0.347087,349.956,0.112832,
2,0,0,1,0,16956.8,0.110702,0.110452,-26.6886,9,0.0131537,10,-0.00294781,-1.57367,-0.175027,-0.337091,351.072,0.110452,
2,0,0,1,0,16956.8,0.108305,0.108029,-27.5408,9,0.012991,10,-0.00297521,-1.56002,-0.183878,-0.320865,344.11,0.108029,
2,0,0,1,0,16956.8,0.105908,0.105598,-28.3331,9,0.0128233,10,-0.00299191,-1.54771,-0.198349,-0.297456,328.415,0.105598,
2,0,0,1,0,16956.8,0.103505,0.103235,-29.1079,9,0.0126509,10,-0.00300495,-1.53599,-0.21436,-0.275238,312.193,0.103235,
2,0,0,1,0,16956.8,0.101102,0.100825,-29.8342,9,0.0124739,10,-0.00300803,-1.52529,-0.230608,-0.255845,297.431,0.100825,
2,0,0,1,0,16956.8,0.0987052,0.0984441,-30.532,9,0.0122927,10,-0.0030057,-1.51524,-0.251016,-0.235045,279.676,0.0984441,
2,0,0,1,0,16956.8,0.0963081,0.0960508,-31.1937,9,0.0121075,10,-0.00299618,-1.50593,-0.272673,-0.216376,262.979,0.0960508,
2,0,0,1,0,16956.8,0.0938999,0.0935959,-31.7932,9,0.0119184,10,-0.00297571,-1.49767,-0.29597,-0.199344,247.154,0.0935959,
2,0,0,1,0,16956.8,0.0915028,0.0912281,-32.3792,9,0.0117258,10,-0.0029539,-1.48973,-0.323048,-0.182635,230.452,0.0912281,
2,0,0,1,0,16956.8,0.0891057,0.0888432,-32.9261,9,0.0115299,10,-0.00292526,-1.48246,-0.355194,-0.166106,213.089,0.0888432,
2,0,0,1,0,16956.8,0.0867002,0.0864308,-33.4063,9,0.0113309,10,-0.00288733,-1.47617,-0.394662,-0.149495,194.652,0.0864308,
2,0,0,1,0,16956.9,0.0843031,0.0840184,-33.8608,9,0.011129,10,-0.00284493,-1.4703,-0.445582,-0.132411,174.677,0.08401835,
2,0,0,1,0,16956.9,0.081906,0.0815921,-34.2425,9,0.0109246,10,-0.00279392,-1.46543,-0.521573,-0.113119,150.963,0.0815921,
2,0,0,1,0,16956.9,0.0795089,0.0792062,-34.5787,9,0.0107181,10,-0.00273885,-1.46119,-0.631726,-0.0933949,125.889,0.0792062,
2,0,0,1,0,16956.9,0.0771007,0.0767864,-34.868,9,0.0105097,10,-0.00267739,-1.45757,-0.768984,-0.0767247,104.221,0.0767864,
2,0,0,1,0,16956.9,0.0747036,0.0743824,-35.0798,9,0.0102997,10,-0.00260932,-1.45494,-1.03883,-0.0567945,77.6394,0.0743824,
2,0,0,1,0,16956.9,0.0723065,0.0720145,-35.2383,9,0.0100887,10,-0.00253767,-1.45299,-1.54314,-0.0382337,52.508,0.0720145,
2,0,0,1,0,16956.9,0.0699011,0.0695682,-35.3538,9,0.00987697,10,-0.0024595,-1.45156,-2.5801,-0.0228673,31.5042,0.06956818,
2,0,0,1,0,16956.9,0.067504,0.0672014,-35.3919,9,0.00966474,10,-0.00237838,-1.4511,-6.5656,-0.00898623,12.3968,0.0672014,
2,0,0,1,0,16956.9,0.0651069,0.0648176,-35.4075,9,0.00945232,10,-0.00229503,-1.4509,9.92876,0.00594233,-8.19872,0.06481757,
2,0,0,1,0,16956.9,0.0627098,0.0623882,-35.3412,9,0.00924007,10,-0.00220488,-1.45172,2.8606,0.020625,-28.4276,0.0623882,
2,0,0,1,0,16956.9,0.0603016,0.0600118,-35.2658,9,0.00902824,10,-0.00211637,-1.45265,1.90744,0.0309315,-42.5284,0.0600118,
2,0,0,1,0,16956.9,0.0579045,0.0575707,-35.1461,9,0.00881702,10,-0.00202338,-1.45412,1.415,0.0416961,-57.1241,0.0575707,
2,0,0,1,0,16956.9,0.0555074,0.0551997,-34.9675,9,0.00860668,10,-0.0019302,-1.45633,1.26958,0.0464721,-63.4353,0.0551997,
2,0,0,1,0,16956.9,0.0530992,0.0527979,-34.8249,9,0.00839731,10,-0.00183868,-1.45811,1.11856,0.0527464,-71.6355,0.0527979,
2,0,0,1,0,16956.9,0.0507021,0.0504066,-34.6459,9,0.00818892,10,-0.00174638,-1.46035,1.01789,0.0579633,-78.3262,0.0504066,
2,0,0,1,0,16956.9,0.048305,0.0479688,-34.4425,9,0.0079817,10,-0.00165216,-1.46291,0.986481,0.0598085,-80.4002,0.0479688,
2,0,0,1,0,16956.9,0.0459051,0.0455786,-34.2417,9,0.00777569,10,-0.00156069,-1.46544,0.953579,0.0618722,-82.6893,0.04557861,
2,0,0,1,0,16957,0.0435024,0.0431969,-34.0507,9,0.00757078,10,-0.00147089,-1.46787,0.974089,0.0605694,-80.4731,0.0431969,
2,0,0,1,0,16957,0.0411053,0.0407824,-33.8496,9,0.00736711,10,-0.00138047,-1.47045,0.909891,0.0648429,-85.6544,0.0407824,
2,0,0,1,0,16957,0.0387082,0.0384198,-33.6472,9,0.00716465,10,-0.00129272,-1.47305,0.958643,0.0615454,-80.8209,0.0384198,
2,0,0,1,0,16957,0.0363,0.0359756,-33.4521,9,0.00696341,10,-0.00120346,-1.47558,0.948674,0.0621921,-81.1832,0.0359756,
2,0,0,1,0,16957,0.0339029,0.0336247,-33.2543,9,0.0067633,10,-0.00111816,-1.47815,0.905038,0.0651906,-84.5647,0.0336247,
2,0,0,1,0,16957,0.0315058,0.0311847,-33.0502,9,0.00656441,10,-0.00103066,-1.48083,0.903655,0.0652904,-84.2315,0.0311847,
2,0,0,1,0,16957,0.0291087,0.0287637,-32.8343,9,0.00636681,10,-0.000944436,-1.48367,0.910927,0.0647692,-83.0417,0.0287637,
2,0,0,1,0,16957,0.0267033,0.0263821,-32.6637,9,0.00617029,10,-0.000861735,-1.48594,0.901239,0.0654655,-83.3744,0.0263821,
2,0,0,1,0,16957,0.0243062,0.0240004,-32.4364,9,0.00597498,10,-0.000778487,-1.48897,0.828043,0.0712523,-90.2102,0.0240004,
2,0,0,1,0,16957,0.0219091,0.0215954,-32.2245,9,0.00578103,10,-0.0006959,-1.49181,0.831497,0.0709563,-89.2755,0.0215954,
2,0,0,1,0,16957,0.0195009,0.0191204,-32.0231,9,0.0055883,10,-0.000612295,-1.49454,0.811693,0.0726876,-90.7827,0.01912041,
2,0,0,1,0,16957,0.0171038,0.0167769,-31.7896,9,0.00539688,10,-0.000533332,-1.49771,0.759186,0.0777148,-96.4113,0.0167769,
2,0,0,1,0,16957,0.0147067,0.0143698,-31.5606,9,0.00520686,10,-0.00045352,-1.50085,0.757899,0.0778468,-95.8528,0.01436979,
2,0,0,1,0,16957,0.012304,0.012004,-31.3242,9,0.00501824,10,-0.000376017,-1.50412,0.706804,0.0834743,-101.986,0.012004,
2,0,0,1,0,16957,0.00990136,0.00956933,-31.0619,9,0.00483109,10,-0.000297241,-1.50777,0.648667,0.0909557,-110.199,0.00956933,
2,0,0,1,0,16957,0.00750426,0.00716327,-30.7865,9,0.00464555,10,-0.000220532,-1.51164,0.590817,0.0998617,-119.935,0.00716327,
2,0,0,1,0,16957.1,0.00510715,0.00479644,-30.4938,9,0.00446173,10,-0.000146262,-1.51579,0.62588,0.0942672,-112.28,0.00479644,
2,0,0,1,0,16957.1,0.00270173,0.00236599,-30.2072,9,0.00427965,10,-7.147e-05,-1.51989,0.578881,0.101921,-120.144,0.00236599,
2,0,0,1,0,16957.1,0.000304623,-9.09737e-05,-29.9298,9,0.00409911,10,2.72283e-06,-1.5239,0.522844,0.112844,-131.609,-9.09737e-05,
2,0,0,1,0,16957.1,-0.00209248,-0.00248007,-29.5743,9,0.00392061,10,7.33464e-05,-1.52909,0.477845,0.123471,-142.62,-0.00248007,
2,0,0,1,0,16957.1,-0.00450068,-0.00487553,-29.2606,9,0.00374417,10,0.000142661,-1.53372,0.465268,0.126809,-144.656,-0.00487553,
2,0,0,1,0,16957.1,-0.00689779,-0.00728159,-28.9061,9,0.00356972,10,0.000210483,-1.53901,0.458392,0.128711,-145.093,-0.00728159,
2,0,0,1,0,16957.1,-0.00929489,-0.00965372,-28.5309,9,0.00339749,10,0.000275429,-1.54468,0.446743,0.132067,-147.16,-0.00965372,
2,0,0,1,0,16957.1,-0.011692,-0.0120153,-28.191,9,0.00322737,10,0.000338722,-1.54989,0.462949,0.127444,-140.208,-0.0120153,
2,0,0,1,0,16957.1,-0.0140974,-0.014451,-27.8537,9,0.00305924,10,0.000402514,-1.55512,0.458969,0.128549,-139.724,-0.014451,
2,0,0,1,0,16957.1,-0.0164945,-0.0168656,-27.5118,9,0.0028932,10,0.000464001,-1.56048,0.460625,0.128087,-137.62,-0.0168656,
2,0,0,1,0,16957.1,-0.0188916,-0.019296,-27.1899,9,0.00272913,10,0.000524656,-1.56559,0.492236,0.119861,-127.273,-0.019296,
2,0,0,1,0,16957.1,-0.0212998,-0.0216989,-26.8983,9,0.00256691,10,0.000583663,-1.57028,0.508297,0.116074,-121.893,-0.0216989,
2,0,0,1,0,16957.1,-0.0236969,-0.024035,-26.6095,9,0.00240642,10,0.000639557,-1.57496,0.526402,0.112082,-116.433,-0.024035,
2,0,0,1,0,16957.1,-0.026094,-0.0265131,-26.3432,9,0.0022476,10,0.00069844,-1.57933,0.600894,0.0981871,-101.071,-0.0265131,
2,0,0,1,0,16957.1,-0.0284912,-0.028811,-26.1072,9,0.00209032,10,0.000752176,-1.58324,0.649863,0.0907884,-92.5727,-0.028811,
2,0,0,1,0,16957.1,-0.0308994,-0.0312341,-25.9088,9,0.00193428,10,0.000809236,-1.58655,0.714933,0.0825252,-83.4379,-0.0312341,
2,0,0,1,0,16957.1,-0.0332965,-0.0336094,-25.6964,9,0.0017795,10,0.00086364,-1.59013,0.784854,0.0751732,-75.4946,-0.0336094,
2,0,0,1,0,16957.2,-0.0356936,-0.0360515,-25.5317,9,0.00162585,10,0.000920455,-1.59292,0.946456,0.0623378,-62.2036,-0.0360515,
2,0,0,1,0,16957.2,-0.038099,-0.0384798,-25.4107,9,0.00147304,10,0.0009778,-1.59498,1.07521,0.0548728,-54.4123,-0.0384798,
2,0,0,1,0,16957.2,-0.0404961,-0.0408838,-25.2735,9,0.00132101,10,0.00103328,-1.59733,1.21876,0.0484099,-47.7945,-0.0408838,
2,0,0,1,0,16957.2,-0.0428932,-0.0432877,-25.1677,9,0.0011697,10,0.00108945,-1.59916,1.66668,0.0353998,-34.81,-0.0432877,
2,0,0,1,0,16957.2,-0.0452903,-0.0456704,-25.0943,9,0.0010189,10,0.00114607,-1.60042,2.07464,0.0284386,-27.869,-0.0456704,
2,0,0,1,0,16957.2,-0.0476985,-0.0480765,-25.0368,9,0.000868482,10,0.00120368,-1.60142,2.55157,0.023123,-22.6074,-0.0480765,
2,0,0,1,0,16957.2,-0.0500956,-0.0505038,-24.9944,9,0.000718416,10,0.00126231,-1.60216,3.59978,0.0163899,-15.9986,-0.0505038,
2,0,0,1,0,16957.2,-0.0524927,-0.0528314,-24.9595,9,0.000568557,10,0.00131864,-1.60276,8.59891,0.00686133,-6.68878,-0.0528314,
2,0,0,1,0,16957.2,-0.0548981,-0.0552237,-24.9695,9,0.000418776,10,0.00137891,-1.60259,29.6282,0.00199135,-1.94056,-0.0552237,
2,0,0,1,0,16957.2,-0.0572953,-0.0576499,-24.9625,9,0.000269016,10,0.00143908,-1.60271,-15.5164,-0.00380244,3.70673,-0.0576499,
2,0,0,1,0,16957.2,-0.0596924,-0.0600824,-24.9756,9,0.000119229,10,0.00150059,-1.60248,-4.37394,-0.013489,13.1601,-0.0600824,
2,0,0,1,0,16957.2,-0.062095,-0.0624355,-25.0207,9,-3.07477e-05,10,0.00156218,-1.6017,-3.51021,-0.0168081,16.4089,-0.0624355,
2,0,0,1,0,16957.2,-0.0644977,-0.0648532,-25.0587,9,-0.000181035,10,0.00162514,-1.60104,-2.71883,-0.0217005,21.2276,-0.0648532,
2,0,0,1,0,16957.2,-0.0668948,-0.067255,-25.1025,9,-0.000331509,10,0.00168827,-1.60028,-2.59689,-0.0227195,22.2828,-0.067255,
2,0,0,1,0,16957.2,-0.0692919,-0.0696971,-25.1808,9,-0.000482386,10,0.00175503,-1.59893,-1.89366,-0.0311566,30.623,-0.0696971,
2,0,0,1,0,16957.2,-0.0717001,-0.0720544,-25.2578,9,-0.000633739,10,0.00181993,-1.5976,-1.68818,-0.0349488,34.4637,-0.0720544,
2,0,0,1,0,16957.2,-0.0740972,-0.0744319,-25.3386,9,-0.000785528,10,0.001886,-1.59622,-1.61277,-0.0365829,36.2219,-0.0744319,
2,0,0,1,0,16957.3,-0.0764943,-0.0769206,-25.4498,9,-0.0009379,10,0.00195761,-1.59432,-1.37251,-0.0429869,42.6982,-0.0769206,
2,0,0,1,0,16957.3,-0.0788997,-0.0792726,-25.5601,9,-0.00109091,10,0.00202622,-1.59244,-1.27324,-0.0463385,46.2228,-0.0792726,
2,0,0,1,0,16957.3,-0.0812968,-0.0816861,-25.6734,9,-0.0012446,10,0.00209716,-1.59052,-1.1799,-0.0500042,50.0956,-0.0816861,
2,0,0,1,0,16957.3,-0.0836939,-0.0840285,-25.7925,9,-0.00139899,10,0.00216731,-1.58851,-1.06959,-0.0551614,55.5538,-0.0840285,
2,0,0,1,0,16957.3,-0.086091,-0.0864473,-25.9276,9,-0.00155415,10,0.00224137,-1.58624,-0.983784,-0.0599725,60.7161,-0.0864473,
2,0,0,1,0,16957.3,-0.0884992,-0.0888682,-26.0765,9,-0.00171021,10,0.00231737,-1.58375,-0.963558,-0.0612314,62.3198,-0.0888682,
2,0,0,1,0,16957.3,-0.0908963,-0.0912128,-26.2202,9,-0.00186713,10,0.00239162,-1.58136,-0.943394,-0.0625401,64.0483,-0.0912128,
2,0,0,1,0,16957.3,-0.0932934,-0.0936613,-26.3891,9,-0.00202498,10,0.00247163,-1.57858,-0.863462,-0.0683296,70.399,-0.0936613,
2,0,0,1,0,16957.3,-0.0956989,-0.0960355,-26.5658,9,-0.00218385,10,0.00255126,-1.57568,-0.853471,-0.0691295,71.6597,-0.0960355,
2,0,0,1,0,16957.3,-0.098096,-0.098502,-26.7291,9,-0.00234375,10,0.00263287,-1.57302,-0.969067,-0.0608833,63.3603,-0.09850204,
2,0,0,0,0,16957.3,-0.0999548,-0.100381,-26.8604,9,-0.00246972,10,0.00269628,-1.57089,0.0237755,2.48155,-2413.07,-0.100381,
2,0,0,1,1,16957.3,-0.0994555,-0.0998954,-25.2333,9,-0.00251365,10,0.00252069,-1.59803,-0.0209792,-2.81231,2461.65,-0.0998954,
2,0,0,1,1,16957.3,-0.0970583,-0.0974554,-19.9497,9,-0.00264775,10,0.0019442,-1.70006,-0.0237367,-2.48561,1954.99,-0.09745542,
2,0,0,1,1,16957.3,-0.0946501,-0.0950716,-15.9225,9,-0.00275463,10,0.00151378,-1.79799,-0.0237674,-2.48239,1552.57,-0.0950716,
2,0,0,1,1,16957.3,-0.092253,-0.0926666,-12.5774,9,-0.00283957,10,0.0011655,-1.90041,-0.0219659,-2.68598,1312.44,-0.0926666,
2,0,0,1,1,16957.3,-0.0898559,-0.0902478,-9.68365,9,-0.00290588,10,0.000873929,-2.01396,-0.0191939,-3.0739,1138.89,-0.0902478,
2,0,0,1,1,16957.3,-0.0874588,-0.0878884,-7.09603,9,-0.00295583,10,0.000623659,-2.14898,-0.0154715,-3.81347,1017.14,-0.0878884,
2,0,0,1,1,16957.4,-0.0850534,-0.085458,-4.78458,9,-0.00299109,10,0.000408881,-2.32016,-0.0110317,-5.3482,914.369,-0.085458,
2,0,0,1,1,16957.4,-0.0826563,-0.0830636,-2.73416,9,-0.00301338,10,0.000227109,-2.56318,-0.00478673,-12.3257,831.006,-0.08306358,
2,0,0,1,1,16957.4,-0.0802592,-0.0806236,-0.857367,9,-0.00302389,10,6.9124e-05,-3.06683,-0.0164609,-3.58425,754.177,-0.0806236,
2,1,0,1,1,16957.4,-0.077851,-0.0782737,0.870908,9,-0.0030236,10,-6.81692e-05,-3.06003,0.0213872,2.75866,688.65,-0.0782737,
2,1,0,1,1,16957.4,-0.0754539,-0.0758539,2.42509,9,-0.00301352,10,-0.000183952,-2.61527,0.00558784,10.5586,627.023,-0.0758539,
2,1,0,1,1,16957.4,-0.0730568,-0.0734849,3.85436,9,-0.00299449,10,-0.000283237,-2.41405,0.01364,4.32552,580.167,-0.0734849,
2,1,0,1,1,16957.4,-0.0706597,-0.0710958,5.16614,9,-0.00296721,10,-0.000367291,-2.28683,0.0211859,2.78487,531.053,-0.0710958,
2,1,0,1,1,16957.4,-0.0682542,-0.0686696,6.39184,9,-0.00293232,10,-0.000438925,-2.19437,0.0290058,2.03407,491.142,-0.0686696,
2,1,0,1,1,16957.4,-0.0658571,-0.0663007,7.52627,9,-0.00289043,10,-0.000498997,-2.12342,0.0372202,1.58516,455.387,-0.06630066,
2,1,0,1,1,16957.4,-0.06346,-0.0638851,8.57325,9,-0.00284201,10,-0.000547703,-2.06685,0.0458628,1.28644,423.733,-0.0638851,
2,1,0,1,1,16957.4,-0.0610518,-0.0614451,9.56631,9,-0.00278744,10,-0.000587802,-2.01926,0.0556282,1.06061,390.055,-0.0614451,
2,1,0,1,1,16957.4,-0.0586547,-0.0590581,10.452,9,-0.00272725,10,-0.000617276,-1.9808,0.0666703,0.884952,357.564,-0.0590581,
2,1,0,1,1,16957.4,-0.0562576,-0.0566351,11.2832,9,-0.00266196,10,-0.000639023,-1.94757,0.0772222,0.764029,334.196,-0.0566351,
2,1,0,1,1,16957.4,-0.053855,-0.0542629,12.0688,9,-0.00259183,10,-0.000654887,-1.91834,0.0897338,0.6575,307.279,-0.0542629,
2,1,0,1,1,16957.4,-0.0514523,-0.051842,12.7686,9,-0.0025172,10,-0.000661951,-1.89386,0.102619,0.574944,285.024,-0.051842,
2,1,0,1,1,16957.4,-0.0490552,-0.0494444,13.4251,9,-0.00243854,10,-0.000663796,-1.87208,0.116815,0.505073,263.581,-0.0494444,
2,1,0,1,1,16957.4,-0.0466581,-0.0470553,14.0316,9,-0.00235606,10,-0.000660262,-1.85289,0.131312,0.449312,245.054,-0.0470553,
2,1,0,1,1,16957.5,-0.0442527,-0.0446365,14.5848,9,-0.00227009,10,-0.000651014,-1.8361,0.150954,0.390847,221.785,-0.0446365,
2,1,0,1,1,16957.5,-0.0418556,-0.0422199,15.1051,9,-0.00218091,10,-0.000637734,-1.82088,0.170368,0.346309,203.538,-0.0422199,
2,1,0,1,1,16957.5,-0.0394585,-0.039834,15.5823,9,-0.00208878,10,-0.000620703,-1.80737,0.187049,0.315426,191.319,-0.039834,
2,1,0,1,1,16957.5,-0.0370558,-0.0374576,16.0192,9,-0.00199393,10,-0.000600041,-1.79536,0.212587,0.277534,173.131,-0.0374576,
2,1,0,1,1,16957.5,-0.0346532,-0.035024,16.4299,9,-0.00189652,10,-0.000575442,-1.78436,0.233533,0.252641,161.518,-0.035024,
2,1,0,1,1,16957.5,-0.0322561,-0.0326041,16.7835,9,-0.00179684,10,-0.000547211,-1.77512,0.262456,0.224799,147.063,-0.0326041,
2,1,0,1,1,16957.5,-0.0298589,-0.0302405,17.1258,9,-0.00169505,10,-0.000517891,-1.76635,0.288091,0.204796,136.653,-0.0302405,
2,1,0,1,1,16957.5,-0.0274535,-0.0278323,17.444,9,-0.00159129,10,-0.000485506,-1.75835,0.330704,0.178407,121.226,-0.0278323,
2,1,0,1,1,16957.5,-0.0250564,-0.025457,17.7042,9,-0.0014858,10,-0.000450696,-1.75192,0.362174,0.162905,112.531,-0.025457,
2,1,0,1,1,16957.5,-0.0226593,-0.022982,17.9825,9,-0.00137868,10,-0.000413273,-1.74515,0.402477,0.146592,102.665,-0.022982,
2,1,0,1,1,16957.5,-0.0202511,-0.0206226,18.2156,9,-0.00127007,10,-0.000375653,-1.73956,0.458594,0.128654,91.3177,-0.0206226,
2,1,0,1,1,16957.5,-0.017854,-0.018207,18.4145,9,-0.00116016,10,-0.000335272,-1.73484,0.505746,0.116659,83.7769,-0.018207,
2,1,0,1,1,16957.5,-0.0154569,-0.0158242,18.6129,9,-0.00104906,10,-0.000294534,-1.73019,0.566852,0.104084,75.5125,-0.01582423,
2,1,0,1,1,16957.5,-0.0130598,-0.0134107,18.7685,9,-0.000936864,10,-0.000251699,-1.72657,0.624128,0.0945319,69.2388,-0.0134107,
2,1,0,1,1,16957.5,-0.0106516,-0.0110248,18.9345,9,-0.000823711,10,-0.000208749,-1.72275,0.696009,0.0847691,62.6139,-0.01102483,
2,1,0,1,1,16957.5,-0.00825448,-0.00863467,19.083,9,-0.000709633,10,-0.000164776,-1.71935,0.802285,0.0735399,54.6998,-0.00863467,
2,1,0,1,1,16957.5,-0.00585738,-0.00626466,19.1993,9,-0.000594785,10,-0.000120277,-1.71672,0.906083,0.0651155,48.7614,-0.00626466,
2,1,0,1,1,16957.6,-0.00345195,-0.00385118,19.3089,9,-0.00047925,10,-7.43619e-05,-1.71424,0.997677,0.0591374,44.5237,-0.00385118,
2,1,0,1,1,16957.6,-0.00105485,-0.00142072,19.4037,9,-0.000363082,10,-2.75674e-05,-1.71211, , , ,-0.00142072,
2,1,0,0,1,16957.6,-7.54729e-05,-0.000401673,19.4433,9,-0.000314524,10,-7.80985e-06,-1.71123, , , ,-0.000401673,