File: Figure_codes/Fig_3-5/rawdata_trumpetplot_data/after 10th/20221101_1-115_003_TrumpetPlot_ParaChange_from10_every3_12_CV_C01_19.csv
mode,ox/red,error,control changes,counter inc.,time/s,control/V,Ewe/V,<I>/mA,cycle number,(Q-Qo)/C,I Range,P/W,log(|I|),Tafel slope mV/dec,alpha_eff,dI/d(E-IR),E-IR/V,
2,1,0,1,0,38629,2.44065e-05,-0.000344411,16.1213,20,0.0000000E+000,10,-5.55236e-06,-1.7926, , , ,-0.000344411,
2,1,0,1,0,38629,0.00200257,0.00159189,17.0814,20,5.18863e-05,10,2.71917e-05,-1.76748, , , ,0.00159189,
2,1,0,1,0,38629,0.004408,0.00403507,17.8963,20,0.000121993,10,7.22128e-05,-1.74724, , , ,0.00403507,
2,1,0,1,0,38629,0.0068051,0.00643477,18.5391,20,0.00019496,10,0.000119295,-1.73191,0.157379,0.374891,268.453,0.00643477,
2,1,0,1,0,38629,0.00920221,0.00885886,19.138,20,0.000270394,10,0.00016954,-1.7181,0.18497,0.318971,236.692,0.00885886,
2,1,0,1,0,38629,0.0115993,0.0112596,19.6767,20,0.000348095,10,0.000221552,-1.70605,0.20659,0.28559,218.154,0.0112596,
2,1,0,1,0,38629,0.0140075,0.0136699,20.1768,20,0.000427873,10,0.000275815,-1.69515,0.229961,0.256565,201.144,0.0136699,
2,1,0,1,0,38629,0.0164046,0.0160866,20.6446,20,0.000509566,10,0.000332102,-1.68519,0.249207,0.236751,190.133,0.0160866,
2,1,0,1,0,38629,0.0188017,0.018463,21.0698,20,0.00059306,10,0.00038901,-1.67634,0.269277,0.219105,179.811,0.01846296,
2,1,0,1,0,38629,0.0212099,0.0208828,21.5064,20,0.000678254,10,0.000449114,-1.66743,0.291335,0.202516,169.518,0.0208828,
2,1,0,1,0,38629,0.023607,0.0232698,21.903,20,0.000765125,10,0.000509677,-1.6595,0.308715,0.191115,162.909,0.0232698,
2,1,0,1,0,38629,0.0260041,0.0256896,22.2725,20,0.000853523,10,0.000572173,-1.65223,0.333098,0.177125,153.702,0.0256896,
2,1,0,1,0,38629,0.0284012,0.0280543,22.6323,20,0.000943368,10,0.000634934,-1.64527,0.352631,0.167314,147.594,0.0280543,
2,1,0,1,0,38629.1,0.0308067,0.0304689,22.9798,20,0.00103465,10,0.000700169,-1.63865,0.367886,0.160376,143.68,0.0304689,
2,1,0,1,0,38629.1,0.0332038,0.0328612,23.3186,20,0.0011273,10,0.000766276,-1.6323,0.383556,0.153824,139.863,0.0328612,
2,1,0,1,0,38629.1,0.0356009,0.035299,23.6532,20,0.00122129,10,0.000834936,-1.62611,0.401009,0.147129,135.653,0.035299,
2,1,0,1,0,38629.1,0.0380091,0.0376648,23.9764,20,0.00131658,10,0.000903067,-1.62022,0.417524,0.141309,132.063,0.0376648,
2,1,0,1,0,38629.1,0.0404062,0.0400656,24.2816,20,0.00141312,10,0.000972856,-1.61472,0.429924,0.137234,129.973,0.04006556,
2,1,0,1,0,38629.1,0.0428033,0.0424589,24.5861,20,0.00151089,10,0.0010439,-1.60931,0.445527,0.132427,127.036,0.0424589,
2,1,0,1,0,38629.1,0.0452032,0.0448353,24.8927,20,0.00160986,10,0.00111607,-1.60393,0.457101,0.129074,125.324,0.0448353,
2,1,0,1,0,38629.1,0.0476058,0.0472488,25.1939,20,0.00171007,10,0.00119038,-1.5987,0.467418,0.126225,124.012,0.0472488,
2,1,0,1,0,38629.1,0.0500029,0.049675,25.4859,20,0.00181148,10,0.00126601,-1.5937,0.481354,0.122571,121.864,0.049675,
2,1,0,1,0,38629.1,0.0524,0.0520153,25.7712,20,0.00191401,10,0.0013405,-1.58887,0.486488,0.121277,121.995,0.0520153,
2,1,0,1,0,38629.1,0.0548082,0.0544754,26.0675,20,0.00201772,10,0.00142004,-1.5839,0.489943,0.120422,122.518,0.0544754,
2,1,0,1,0,38629.1,0.0572053,0.0568475,26.3649,20,0.00212263,10,0.00149878,-1.57897,0.49366,0.119516,122.95,0.05684755,
2,1,0,1,0,38629.1,0.0596024,0.0592706,26.6615,20,0.00222869,10,0.00158025,-1.57411,0.498818,0.11828,123.025,0.0592706,
2,1,0,1,0,38629.1,0.0620051,0.0616597,26.957,20,0.00233596,10,0.00166216,-1.56933,0.506851,0.116405,122.427,0.0616597,
2,1,0,1,0,38629.1,0.0644077,0.0640392,27.244,20,0.0024444,10,0.00174469,-1.56473,0.50813,0.116112,123.486,0.0640392,
2,1,0,1,0,38629.1,0.0668048,0.066457,27.5414,20,0.002554,10,0.00183032,-1.56001,0.509053,0.115901,124.623,0.066457,
2,1,0,1,0,38629.1,0.0692019,0.06888,27.8482,20,0.00266481,10,0.00191818,-1.5552,0.513714,0.11485,124.798,0.06888,
2,1,0,1,0,38629.1,0.0716074,0.0712701,28.1547,20,0.00277683,10,0.00200659,-1.55045,0.513577,0.114881,126.172,0.0712701,
2,1,0,1,0,38629.1,0.0740045,0.0737069,28.4506,20,0.00289008,10,0.002097,-1.54591,0.514207,0.11474,127.405,0.0737069,
2,1,0,1,0,38629.1,0.0764016,0.0760441,28.751,20,0.00300453,10,0.00218634,-1.54135,0.516747,0.114176,128.178,0.0760441,
2,1,0,1,0,38629.1,0.0788042,0.0784226,29.0639,20,0.00312018,10,0.00227927,-1.53665,0.51301,0.115007,130.46,0.0784226,
2,1,0,1,0,38629.1,0.0812069,0.0808732,29.3856,20,0.00323712,10,0.0023765,-1.53187,0.514753,0.114618,131.392,0.0808732,
2,1,0,1,0,38629.1,0.083604,0.0832114,29.6905,20,0.00335528,10,0.00247059,-1.52738,0.521075,0.113228,131.197,0.0832114,
2,1,0,1,0,38629.1,0.0860011,0.0855846,30.0046,20,0.00347471,10,0.00256793,-1.52281,0.529954,0.11133,130.37,0.0855846,
2,1,0,1,0,38629.1,0.0884065,0.0880309,30.3245,20,0.00359543,10,0.0026695,-1.51821,0.525372,0.112301,132.906,0.0880309,
2,1,0,1,0,38629.2,0.0908036,0.0904487,30.6339,20,0.00371737,10,0.0027708,-1.5138,0.528735,0.111587,133.44,0.0904487,
2,1,0,1,0,38629.2,0.0932007,0.0928229,30.9679,20,0.00384062,10,0.00287453,-1.50909,0.525978,0.112172,135.586,0.0928229,
2,1,0,1,0,38629.2,0.0956034,0.095195,31.287,20,0.00396518,10,0.00297836,-1.50464,0.520556,0.11334,138.42,0.095195,
2,1,0,1,0,38629.2,0.098006,0.0976456,31.6281,20,0.00409106,10,0.00308835,-1.49993,0.531193,0.111071,137.068,0.0976456,
2,1,0,1,0,38629.2,0.100403,0.100042,31.9618,20,0.00421827,10,0.00319753,-1.49537,0.530188,0.111281,138.785,0.100042,
2,1,0,1,0,38629.2,0.1028,0.102415,32.2827,20,0.00434679,10,0.00330625,-1.49103,0.536722,0.109926,138.521,0.102415,
2,1,0,1,0,38629.2,0.105208,0.104909,32.6352,20,0.00447667,10,0.00342374,-1.48631,0.54725,0.107812,137.239,0.104909,
2,1,0,1,0,38629.2,0.107606,0.107249,32.9584,20,0.00460789,10,0.00353474,-1.48203,0.543764,0.108503,139.516,0.107249,
2,1,0,1,0,38629.2,0.110003,0.109659,33.2816,20,0.0047404,10,0.00364963,-1.4778,0.564248,0.104564,135.791,0.109659,
2,1,0,1,0,38629.2,0.112408,0.112006,33.6208,20,0.00487422,10,0.00376571,-1.47339,0.5677,0.103928,136.3,0.112006,
2,1,0,1,0,38629.2,0.114805,0.114401,33.9241,20,0.00500936,10,0.00388095,-1.46949,0.54831,0.107603,142.603,0.114401,
2,1,0,1,0,38629.2,0.117202,0.116791,34.259,20,0.00514574,10,0.00400115,-1.46523,0.546553,0.107949,144.549,0.116791,
2,1,0,1,0,38629.2,0.119599,0.119207,34.6432,20,0.0052836,10,0.00412971,-1.46038,0.529372,0.111453,150.712,0.119207,
2,1,0,1,0,38629.2,0.122008,0.12162,35.0106,20,0.00542295,10,0.004258,-1.4558,0.520802,0.113287,154.748,0.12162,
2,1,0,1,0,38629.2,0.124405,0.124091,35.3845,20,0.00556377,10,0.0043909,-1.45119,0.523601,0.112681,155.618,0.124091,
2,1,0,1,0,38629.2,0.126802,0.126451,35.7538,20,0.00570608,10,0.00452108,-1.44668,0.524381,0.112514,157.038,0.126451,
2,1,0,1,0,38629.2,0.129207,0.128833,36.1412,20,0.00584991,10,0.00465619,-1.442,0.521543,0.113126,159.572,0.128833,
2,1,0,1,0,38629.2,0.131604,0.131272,36.5263,20,0.00599529,10,0.00479488,-1.43739,0.51627,0.114281,162.913,0.1312722,
2,1,0,1,0,38629.2,0.134001,0.133674,36.9136,20,0.00614222,10,0.00493439,-1.43281,0.516368,0.11426,164.677,0.133674,
2,1,0,1,0,38629.2,0.136399,0.136013,37.3116,20,0.00629071,10,0.00507488,-1.42816,0.510038,0.115678,168.535,0.136013,
2,1,0,1,0,38629.2,0.138807,0.138479,37.7296,20,0.00644086,10,0.00522475,-1.42332,0.50474,0.116892,172.15,0.138479,
2,1,0,1,0,38629.2,0.141204,0.140899,38.1486,20,0.00659266,10,0.00537509,-1.41852,0.504772,0.116884,174.004,0.140899,
2,1,0,1,0,38629.2,0.143601,0.143301,38.571,20,0.00674614,10,0.00552728,-1.41374,0.508835,0.115951,174.492,0.143301,
2,1,0,1,0,38629.2,0.146009,0.145663,38.9907,20,0.00690131,10,0.00567951,-1.40904,0.512739,0.115068,175.033,0.145663,
2,1,0,1,0,38629.2,0.148406,0.148065,39.4023,20,0.00705813,10,0.00583409,-1.40448,0.521345,0.113169,173.998,0.148065,
2,1,0,1,0,38629.3,0.150803,0.150423,39.8157,20,0.0072166,10,0.00598921,-1.39995,0.531974,0.110908,172.306,0.150423,
2,1,0,1,0,38629.3,0.153206,0.152854,40.233,20,0.00737674,10,0.00614976,-1.39542,0.545787,0.108101,169.646,0.152854,
2,1,0,1,0,38629.3,0.155606,0.155219,40.6373,20,0.00753853,10,0.0063077,-1.39107,0.567506,0.103964,164.751,0.155219,
2,1,0,1,0,38629.3,0.158003,0.157671,41.032,20,0.00770193,10,0.00646955,-1.38688,0.58324,0.101159,161.885,0.157671,
2,1,0,1,0,38629.3,0.1604,0.16007,41.405,20,0.00786683,10,0.00662768,-1.38295,0.605746,0.0974005,157.339,0.16007,
2,1,0,1,0,38629.3,0.162808,0.162453,41.7871,20,0.00803326,10,0.00678846,-1.37896,0.632792,0.0932376,151.949,0.162453,
2,1,0,1,0,38629.3,0.165205,0.164865,42.155,20,0.00820118,10,0.00694987,-1.37515,0.648711,0.0909497,149.49,0.164865,
2,1,0,1,0,38629.3,0.167603,0.167287,42.4931,20,0.0083705,10,0.00710853,-1.37168,0.702414,0.0839961,139.166,0.167287,
2,1,0,1,0,38629.3,0.170008,0.169638,42.8353,20,0.00854118,10,0.00726649,-1.3682,0.758442,0.077791,129.869,0.169638,
2,1,0,1,0,38629.3,0.172405,0.172079,43.1266,20,0.00871315,10,0.00742118,-1.36525,0.804085,0.0733754,123.367,0.172079,
2,1,0,1,0,38629.3,0.174802,0.174496,43.4058,20,0.00888626,10,0.00757416,-1.36245,0.901102,0.0654754,110.814,0.174496,
2,1,0,1,0,38629.3,0.177199,0.176859,43.674,20,0.00906046,10,0.00772414,-1.35978,0.994339,0.0593359,100.984,0.176859,
2,1,0,1,0,38629.3,0.179607,0.179263,43.902,20,0.00923563,10,0.00787,-1.35752,1.15723,0.0509837,87.193,0.179263,
2,1,0,1,0,38629.3,0.182005,0.181662,44.0944,20,0.00941165,10,0.00801025,-1.35562,1.45803,0.0404655,69.4989,0.181662,
2,1,0,1,0,38629.3,0.184402,0.184059,44.2396,20,0.00958834,10,0.00814271,-1.35419,1.95443,0.0301879,52.0166,0.1840592,
2,1,0,1,0,38629.3,0.18681,0.186489,44.3432,20,0.0097655,10,0.00826951,-1.35317,3.16683,0.0186306,32.1733,0.186489,
2,1,0,1,0,38629.3,0.189207,0.188874,44.4019,20,0.00994301,10,0.00838639,-1.3526,7.85391,0.00751218,12.9883,0.188874,
2,1,0,1,0,38629.3,0.191604,0.19129,44.4041,20,0.0101206,10,0.00849407,-1.35258,-14.2724,-0.00413384,-7.14838,0.19129,
2,1,0,1,0,38629.3,0.194001,0.193646,44.3641,20,0.0102982,10,0.00859095,-1.35297,-3.40837,-0.0173103,-29.8997,0.193646,
2,1,0,1,0,38629.3,0.196407,0.196113,44.2744,20,0.0104755,10,0.00868278,-1.35385,-2.0162,-0.0292629,-50.4347,0.196113,
2,1,0,1,0,38629.3,0.198804,0.198445,44.1158,20,0.0106523,10,0.00875454,-1.35541,-1.41479,-0.0417024,-71.6396,0.198445,
2,1,0,1,0,38629.3,0.201201,0.200879,43.9205,20,0.0108283,10,0.00882273,-1.35733,-1.05208,-0.0560793,-95.8948,0.2008794,
2,1,0,1,0,38629.3,0.203609,0.203289,43.6734,20,0.0110035,10,0.0088783,-1.35978,-0.874289,-0.0674834,-114.721,0.203289,
2,1,0,1,0,38629.3,0.206006,0.20565,43.3598,20,0.0111775,10,0.00891696,-1.36291,-0.720508,-0.0818867,-138.227,0.20565,
2,1,0,1,0,38629.3,0.208403,0.208101,43.008,20,0.0113503,10,0.00895,-1.36645,-0.622834,-0.0947283,-158.621,0.208101,
2,1,0,1,0,38629.4,0.210803,0.210491,42.5919,20,0.0115214,10,0.00896522,-1.37067,-0.553301,-0.106633,-176.869,0.2104909,
2,1,0,1,0,38629.4,0.213206,0.212908,42.1476,20,0.0116909,10,0.00897354,-1.37523,-0.48896,-0.120664,-198.03,0.212908,
2,1,0,1,0,38629.4,0.215603,0.215299,41.6533,20,0.0118585,10,0.00896791,-1.38035,-0.453496,-0.1301,-211.046,0.215299,
2,1,0,1,0,38629.4,0.218,0.217683,41.1105,20,0.012024,10,0.00894904,-1.38605,-0.410076,-0.143876,-230.409,0.217683,
2,1,0,1,0,38629.4,0.220408,0.220138,40.5559,20,0.0121872,10,0.00892791,-1.39195,-0.38098,-0.154864,-244.585,0.220138,
2,1,0,1,0,38629.4,0.222805,0.222484,39.9411,20,0.0123482,10,0.00888625,-1.39858,-0.361769,-0.163087,-253.799,0.222484,
2,1,0,1,0,38629.4,0.225202,0.224895,39.3061,20,0.0125066,10,0.00883976,-1.40554,-0.337382,-0.174876,-267.948,0.224895,
2,1,0,1,0,38629.4,0.227605,0.227316,38.6655,20,0.0126625,10,0.0087893,-1.41268,-0.327028,-0.180413,-271.905,0.227316,
2,1,0,1,0,38629.4,0.230008,0.229702,37.9933,20,0.0128157,10,0.00872714,-1.42029,-0.314761,-0.187444,-277.665,0.229702,
2,1,0,1,0,38629.4,0.232405,0.232109,37.3239,20,0.0129663,10,0.00866323,-1.42801,-0.305325,-0.193237,-281.299,0.232109,
2,1,0,1,0,38629.4,0.234802,0.234504,36.6382,20,0.0131142,10,0.0085918,-1.43607,-0.299573,-0.196947,-281.534,0.234504,
2,1,0,1,0,38629.4,0.237207,0.236906,35.968,20,0.0132593,10,0.00852103,-1.44408,-0.294628,-0.200253,-281.012,0.236906,
2,1,0,1,0,38629.4,0.239604,0.239281,35.2966,20,0.0134018,10,0.00844579,-1.45227,-0.292621,-0.201626,-277.695,0.239281,
2,1,0,1,0,38629.4,0.242002,0.241718,34.6238,20,0.0135415,10,0.0083692,-1.46062,-0.291859,-0.202152,-273.271,0.241718,
2,1,0,1,0,38629.4,0.244404,0.24409,33.9762,20,0.0136787,10,0.00829324,-1.46883,-0.291753,-0.202226,-268.26,0.24409,
2,1,0,1,0,38629.4,0.246807,0.246519,33.3409,20,0.0138132,10,0.00821917,-1.47702,-0.292465,-0.201733,-262.597,0.246519,
2,1,0,1,0,38629.4,0.249204,0.248898,32.7167,20,0.0139453,10,0.00814312,-1.48523,-0.297108,-0.198581,-253.75,0.248898,
2,1,0,1,0,38629.4,0.251601,0.251269,32.1158,20,0.0140749,10,0.00806969,-1.49328,-0.298743,-0.197494,-247.722,0.251269,
2,1,0,1,0,38629.4,0.254006,0.253699,31.5378,20,0.0142021,10,0.00800112,-1.50117,-0.304572,-0.193714,-238.588,0.253699,
2,1,0,1,0,38629.4,0.256404,0.256096,30.9686,20,0.0143271,10,0.00793092,-1.50908,-0.312513,-0.188792,-228.438,0.256096,
2,1,0,1,0,38629.4,0.258801,0.258487,30.4289,20,0.0144498,10,0.00786547,-1.51671,-0.317847,-0.185624,-220.711,0.258487,
2,1,0,1,0,38629.4,0.261203,0.260887,29.9187,20,0.0145705,10,0.00780538,-1.52406,-0.324774,-0.181665,-212.27,0.260887,
2,1,0,1,0,38629.4,0.263606,0.263294,29.4202,20,0.0146891,10,0.00774615,-1.53135,-0.332009,-0.177706,-204.174,0.263294,
2,1,0,1,0,38629.4,0.266003,0.265678,28.9346,20,0.0148057,10,0.00768729,-1.53858,-0.342632,-0.172196,-194.704,0.265678,
2,1,0,1,0,38629.4,0.2684,0.268069,28.4725,20,0.0149205,10,0.00763259,-1.54557,-0.352953,-0.167161,-186.054,0.268069,
2,1,0,1,0,38629.5,0.270808,0.270501,28.0466,20,0.0150335,10,0.00758666,-1.55212,-0.363283,-0.162408,-177.945,0.270501,
2,1,0,1,0,38629.5,0.273205,0.272877,27.6372,20,0.0151448,10,0.00754156,-1.55851,-0.379378,-0.155518,-167.869,0.272877,
2,1,0,1,0,38629.5,0.275603,0.275247,27.2319,20,0.0152545,10,0.00749549,-1.56492,-0.387693,-0.152182,-161.913,0.275247,
2,1,0,1,0,38629.5,0.278008,0.277675,26.8599,20,0.0153627,10,0.00745833,-1.5709,-0.395811,-0.149061,-156.362,0.277675,
2,1,0,1,0,38629.5,0.280405,0.280106,26.4916,20,0.0154693,10,0.00742045,-1.57689,-0.416816,-0.141549,-146.492,0.280106,
2,1,0,1,0,38629.5,0.282802,0.282493,26.1337,20,0.0155745,10,0.00738258,-1.5828,-0.425129,-0.138781,-141.763,0.282493,
2,1,0,1,0,38629.5,0.285199,0.284905,25.817,20,0.0156784,10,0.0073554,-1.58809,-0.441297,-0.133697,-134.82,0.2849049,
2,1,0,1,0,38629.5,0.287608,0.28727,25.4998,20,0.015781,10,0.00732531,-1.59346,-0.460262,-0.128188,-127.654,0.28727,
2,1,0,1,0,38629.5,0.290005,0.289713,25.1964,20,0.0158824,10,0.00729971,-1.59866,-0.46928,-0.125725,-123.739,0.289713,
2,1,0,1,0,38629.5,0.292402,0.292085,24.9092,20,0.0159825,10,0.0072756,-1.60364,-0.493638,-0.119521,-116.308,0.292085,
2,1,0,1,0,38629.5,0.294807,0.294499,24.6298,20,0.0160816,10,0.00725346,-1.60854,-0.502581,-0.117394,-112.983,0.294499,
2,1,0,1,0,38629.5,0.297204,0.296916,24.3778,20,0.0161796,10,0.00723816,-1.61301,-0.507047,-0.11636,-111.162,0.296916,
2,1,0,1,0,38629.5,0.299421,0.299129,24.1325,20,0.0162693,10,0.00721873,-1.6174,-0.110908,-0.531974,-487.958,0.299129,
2,1,0,0,0,38629.5,0.300012,0.299785,24.0533,20,0.0162934,10,0.00721081,-1.61883,0.00278716,21.1685,17614.5,0.299785,
2,1,0,1,0,38629.5,0.299243,0.299045,22.4116,20,0.016323,10,0.00670208,-1.64953,0.0258974,2.27822,1738.34,0.299045,
2,1,0,1,0,38629.5,0.296846,0.296584,18.5319,20,0.0164041,10,0.00549627,-1.73208,0.0305577,1.93077,1358.68,0.296584,
2,1,0,1,0,38629.5,0.294449,0.294215,15.5903,20,0.0164718,10,0.00458691,-1.80715,0.0310706,1.8989,1186.25,0.294215,
2,1,0,1,0,38629.5,0.292041,0.29173,13.1092,20,0.0165289,10,0.00382435,-1.88242,0.0309011,1.90932,985.741,0.29173,
2,1,0,1,0,38629.5,0.289644,0.289389,10.9571,20,0.0165767,10,0.00317087,-1.9603,0.0293488,2.01031,858.497,0.2893894,
2,1,0,1,0,38629.5,0.287247,0.286964,9.04908,20,0.0166165,10,0.00259676,-2.0434,0.0268957,2.19366,766.146,0.286964,
2,1,0,1,0,38629.5,0.284841,0.284588,7.32522,20,0.016649,10,0.00208467,-2.13518,0.0241151,2.4466,685.451,0.284588,
2,1,0,1,0,38629.5,0.282444,0.282162,5.77871,20,0.016675,10,0.00163053,-2.23817,0.0206741,2.85381,619.064,0.282162,
2,1,0,1,0,38629.5,0.280047,0.279806,4.38848,20,0.0166952,10,0.00122793,-2.35769,0.0166795,3.53728,558.484,0.279806,
2,1,0,1,0,38629.5,0.27765,0.277365,3.10681,20,0.01671,10,0.000861721,-2.50769,0.011574,5.09762,513.182,0.277365,
2,1,0,1,0,38629.5,0.275242,0.274929,1.93068,20,0.0167199,10,0.000530799,-2.71429,0.00645418,9.14136,469.095,0.274929,
2,1,0,1,0,38629.5,0.272845,0.272572,0.857657,20,0.0167254,10,0.000233774,-3.06669,0.0206809,2.85287,433.364,0.2725724,
2,1,0,1,0,38629.5,0.270448,0.270153,-0.140135,20,0.0167267,10,-3.78579e-05,-3.85345,1.28637,0.0458654,398.227,0.270153,
2,0,0,1,0,38629.6,0.26804,0.267741,-1.06401,20,0.0167242,10,-0.000284879,-2.97306,-0.0194588,-3.03205,367.291,0.2677412,
2,0,0,1,0,38629.6,0.265642,0.265315,-1.89774,20,0.0167182,10,-0.000503498,-2.72176,-0.00691598,-8.53097,342.142,0.265315,
2,0,0,1,0,38629.6,0.263245,0.262921,-2.68737,20,0.0167089,10,-0.000706566,-2.57067,-0.0163444,-3.6098,317.885,0.262921,
2,0,0,1,0,38629.6,0.260843,0.260553,-3.42464,20,0.0166966,10,-0.000892299,-2.46539,-0.0240419,-2.45405,298.16,0.2605527,
2,0,0,1,0,38629.6,0.258443,0.258136,-4.11735,20,0.0166814,10,-0.00106284,-2.38538,-0.0320644,-1.84004,277.514,0.258136,
2,0,0,1,0,38629.6,0.256046,0.25571,-4.76161,20,0.0166636,10,-0.00121759,-2.32225,-0.0405522,-1.45492,258.856,0.2557098,
2,0,0,1,0,38629.6,0.253649,0.253349,-5.34351,20,0.0166433,10,-0.00135378,-2.27217,-0.0491043,-1.20152,243.747,0.253349,
2,0,0,1,0,38629.6,0.25124,0.250915,-5.91951,20,0.0166207,10,-0.00148529,-2.22771,-0.058367,-1.01084,228.264,0.250915,
2,0,0,1,0,38629.6,0.248843,0.248553,-6.45314,20,0.0165959,10,-0.00160395,-2.19023,-0.0671309,-0.87888,217.123,0.248553,
2,0,0,1,0,38629.6,0.246446,0.246131,-6.94808,20,0.0165691,10,-0.00171014,-2.15814,-0.0777744,-0.758604,202.684,0.246131,
2,0,0,1,0,38629.6,0.244041,0.243734,-7.43132,20,0.0165403,10,-0.00181126,-2.12893,-0.0886055,-0.665873,190.477,0.243734,
2,0,0,1,0,38629.6,0.241644,0.241318,-7.8646,20,0.0165096,10,-0.00189787,-2.10432,-0.0985384,-0.598751,182.018,0.241318,
2,0,0,1,0,38629.6,0.239247,0.23895,-8.2823,20,0.0164772,10,-0.00197906,-2.08185,-0.110395,-0.534446,171.661,0.23895,
2,0,0,1,0,38629.6,0.236849,0.236528,-8.696,20,0.0164432,10,-0.00205685,-2.06068,-0.120673,-0.488925,164.703,0.236528,
2,0,0,1,0,38629.6,0.234441,0.234105,-9.08416,20,0.0164076,10,-0.00212665,-2.04172,-0.132107,-0.446607,157.135,0.234105,
2,0,0,1,0,38629.6,0.232044,0.23171,-9.44712,20,0.0163705,10,-0.00218899,-2.0247,-0.145541,-0.405385,148.609,0.23171,
2,0,0,1,0,38629.6,0.229647,0.229352,-9.79044,20,0.016332,10,-0.00224546,-2.0092,-0.157026,-0.375734,142.999,0.229352,
2,0,0,1,0,38629.6,0.227239,0.226901,-10.1267,20,0.0162922,10,-0.00229776,-1.99453,-0.170386,-0.346273,136.326,0.226901,
2,0,0,1,0,38629.6,0.224842,0.224542,-10.4516,20,0.016251,10,-0.00234683,-1.98082,-0.183783,-0.321031,130.356,0.224542,
2,0,0,1,0,38629.6,0.222445,0.222102,-10.7569,20,0.0162085,10,-0.00238912,-1.96831,-0.196035,-0.300967,125.886,0.222102,
2,0,0,1,0,38629.6,0.220047,0.219739,-11.0436,20,0.0161649,10,-0.00242671,-1.95689,-0.212708,-0.277376,119.224,0.219739,
2,0,0,1,0,38629.6,0.217642,0.217335,-11.3309,20,0.0161201,10,-0.00246261,-1.94573,-0.225261,-0.261918,115.538,0.217335,
2,0,0,1,0,38629.6,0.215245,0.214948,-11.5955,20,0.0160742,10,-0.00249243,-1.93571,-0.235429,-0.250607,113.266,0.2149478,
2,0,0,1,0,38629.6,0.212848,0.21249,-11.8675,20,0.0160272,10,-0.00252172,-1.92564,-0.250328,-0.235691,108.976,0.21249,
2,0,0,1,0,38629.6,0.21044,0.2101,-12.1354,20,0.0159792,10,-0.00254965,-1.91595,-0.261965,-0.225221,106.38,0.2101,
2,0,0,1,0,38629.7,0.208043,0.207714,-12.3794,20,0.0159302,10,-0.00257137,-1.9073,-0.276769,-0.213174,102.758,0.207714,
2,0,0,1,0,38629.7,0.205645,0.205273,-12.6248,20,0.0158801,10,-0.00259152,-1.89878,-0.292014,-0.202045,99.4075,0.205273,
2,0,0,1,0,38629.7,0.203246,0.202944,-12.8484,20,0.0158292,10,-0.0026075,-1.89115,-0.304242,-0.193925,97.1865,0.202944,
2,0,0,1,0,38629.7,0.200843,0.200493,-13.0903,20,0.0157772,10,-0.00262453,-1.88305,-0.319332,-0.184761,94.2316,0.2004934,
2,0,0,1,0,38629.7,0.198446,0.198092,-13.3145,20,0.0157244,10,-0.0026375,-1.87567,-0.324762,-0.181671,94.2707,0.198092,
2,0,0,1,0,38629.7,0.196049,0.195747,-13.5224,20,0.0156707,10,-0.00264697,-1.86895,-0.341889,-0.172571,91.06,0.195747,
2,0,0,1,0,38629.7,0.19364,0.193335,-13.7543,20,0.0156161,10,-0.00265917,-1.86156,-0.349727,-0.168703,90.474,0.193335,
2,0,0,1,0,38629.7,0.191243,0.19094,-13.9603,20,0.0155607,10,-0.00266557,-1.85511,-0.355114,-0.166144,90.4665,0.1909402,
2,0,0,1,0,38629.7,0.188846,0.188551,-14.1777,20,0.0155044,10,-0.00267322,-1.84839,-0.375814,-0.156992,86.8066,0.188551,
2,0,0,1,0,38629.7,0.186444,0.186147,-14.3909,20,0.0154472,10,-0.00267882,-1.84191,-0.38132,-0.154726,86.7864,0.186147,
2,0,0,1,0,38629.7,0.184041,0.183706,-14.5901,20,0.0153892,10,-0.00268029,-1.83594,-0.393422,-0.149966,85.3687,0.1837061,
2,0,0,1,0,38629.7,0.181644,0.181353,-14.7923,20,0.0153305,10,-0.00268263,-1.82996,-0.394641,-0.149503,86.3644,0.181353,
2,0,0,1,0,38629.7,0.179247,0.178891,-15.0024,20,0.0152708,10,-0.00268379,-1.82384,-0.393343,-0.149996,87.8504,0.178891,
2,0,0,1,0,38629.7,0.176841,0.176536,-15.2209,20,0.0152104,10,-0.00268704,-1.81756,-0.398596,-0.148019,87.8745,0.176536,
2,0,0,1,0,38629.7,0.174444,0.17412,-15.4322,20,0.0151491,10,-0.00268706,-1.81157,-0.399993,-0.147503,88.7748,0.17412,
2,0,0,1,0,38629.7,0.172047,0.171716,-15.6391,20,0.0150869,10,-0.00268549,-1.80579,-0.405941,-0.145341,88.7379,0.171716,
2,0,0,1,0,38629.7,0.169644,0.169362,-15.8483,20,0.0150239,10,-0.0026841,-1.80002,-0.405755,-0.145408,89.9999,0.169362,
2,0,0,1,0,38629.7,0.167242,0.166906,-16.0755,20,0.01496,10,-0.00268309,-1.79384,-0.393918,-0.149778,94.0209,0.166906,
2,0,0,1,0,38629.7,0.164845,0.164537,-16.2947,20,0.0148953,10,-0.00268108,-1.78795,-0.385549,-0.153029,97.4212,0.164537,
2,0,0,1,0,38629.7,0.162448,0.162148,-16.5387,20,0.0148296,10,-0.00268172,-1.7815,-0.384249,-0.153546,99.1415,0.162148,
2,0,0,1,0,38629.7,0.160042,0.159743,-16.7854,20,0.0147629,10,-0.00268135,-1.77507,-0.375888,-0.156962,102.813,0.159743,
2,0,0,1,0,38629.7,0.157645,0.157354,-17.0225,20,0.0146953,10,-0.00267855,-1.76898,-0.364332,-0.16194,107.782,0.157354,
2,0,0,1,0,38629.7,0.155248,0.154928,-17.2826,20,0.0146266,10,-0.00267756,-1.76239,-0.352735,-0.167264,113.089,0.154928,
2,0,0,1,0,38629.7,0.152845,0.152487,-17.5801,20,0.0145569,10,-0.00268072,-1.75498,-0.332937,-0.177211,121.733,0.152487,
2,0,0,1,0,38629.7,0.150443,0.150113,-17.8744,20,0.014486,10,-0.00268319,-1.74777,-0.3212,-0.183686,128.251,0.150113,
2,0,0,1,0,38629.8,0.148046,0.147732,-18.1938,20,0.0144138,10,-0.0026878,-1.74008,-0.307035,-0.19216,136.675,0.147732,
2,0,0,1,0,38629.8,0.145648,0.14534,-18.5123,20,0.0143403,10,-0.00269057,-1.73254,-0.290469,-0.20312,147.228,0.14534,
2,0,0,1,0,38629.8,0.14324,0.142939,-18.885,20,0.0142655,10,-0.0026994,-1.72388,-0.276675,-0.213247,157.605,0.142939,
2,0,0,1,0,38629.8,0.140843,0.140506,-19.2889,20,0.0141891,10,-0.0027102,-1.71469,-0.259363,-0.227481,171.586,0.140506,
2,0,0,1,0,38629.8,0.138446,0.138167,-19.7013,20,0.0141111,10,-0.00272206,-1.70551,-0.248983,-0.236964,182.644,0.138167,
2,0,0,1,0,38629.8,0.136041,0.135701,-20.1661,20,0.0140313,10,-0.00273657,-1.69538,-0.238209,-0.247681,195.328,0.135701,
2,0,0,1,0,38629.8,0.133644,0.133329,-20.6401,20,0.0139497,10,-0.00275193,-1.68529,-0.226588,-0.260384,210.3,0.133329,
2,0,0,1,0,38629.8,0.131246,0.130955,-21.1545,20,0.013866,10,-0.00277028,-1.6746,-0.216214,-0.272878,226.076,0.130955,
2,0,0,1,0,38629.8,0.128849,0.128562,-21.7212,20,0.0137802,10,-0.00279252,-1.66312,-0.206125,-0.286234,243.395,0.128562,
2,0,0,1,0,38629.8,0.126441,0.126139,-22.328,20,0.0136921,10,-0.00281643,-1.65115,-0.199264,-0.296089,258.492,0.126139,
2,0,0,1,0,38629.8,0.124044,0.123721,-22.9787,20,0.0136014,10,-0.00284295,-1.63867,-0.195867,-0.301225,270.368,0.123721,
2,0,0,1,0,38629.8,0.121647,0.121375,-23.6307,20,0.0135082,10,-0.00286819,-1.62652,-0.191911,-0.307434,283.931,0.121375,
2,0,0,1,0,38629.8,0.119241,0.118931,-24.325,20,0.0134122,10,-0.00289301,-1.61395,-0.191474,-0.308135,292.895,0.118931,
2,0,0,1,0,38629.8,0.116844,0.11654,-25.0534,20,0.0133134,10,-0.00291972,-1.60113,-0.191895,-0.30746,300.564,0.11654,
2,0,0,1,0,38629.8,0.114447,0.114132,-25.7874,20,0.0132116,10,-0.00294316,-1.58859,-0.193856,-0.304349,306.117,0.114132,
2,0,0,1,0,38629.8,0.11205,0.111755,-26.5222,20,0.0131069,10,-0.002964,-1.57639,-0.197713,-0.298412,308.649,0.111755,
2,0,0,1,0,38629.8,0.109642,0.109292,-27.2757,20,0.0129993,10,-0.00298102,-1.56422,-0.202577,-0.291247,309.72,0.109292,
2,0,0,1,0,38629.8,0.107245,0.106973,-28.0062,20,0.0128886,10,-0.00299591,-1.55275,-0.206298,-0.285994,312.505,0.106973,
2,0,0,1,0,38629.8,0.104848,0.104521,-28.7639,20,0.012775,10,-0.00300644,-1.54115,-0.212428,-0.277742,311.466,0.1045213,
2,0,0,1,0,38629.8,0.10244,0.102134,-29.5288,20,0.0126583,10,-0.0030159,-1.52975,-0.223374,-0.264131,303.379,0.102134,
2,0,0,1,0,38629.8,0.100042,0.0997601,-30.2446,20,0.0125387,10,-0.00301721,-1.51935,-0.232159,-0.254137,299.203,0.0997601,
2,0,0,1,0,38629.8,0.0976454,0.0974251,-30.9029,20,0.0124163,10,-0.00301071,-1.51,-0.241166,-0.244645,295.118,0.0974251,
2,0,0,1,0,38629.8,0.0952427,0.0949914,-31.6153,20,0.0122912,10,-0.00300318,-1.5001,-0.250861,-0.23519,290.219,0.0949914,
2,0,0,1,0,38629.8,0.0928428,0.092632,-32.3331,20,0.0121632,10,-0.00299508,-1.49035,-0.25871,-0.228055,287.156,0.092632,
2,0,0,1,0,38629.8,0.0904457,0.0901496,-33.0338,20,0.0120324,10,-0.00297798,-1.48104,-0.270878,-0.21781,280.061,0.0901496,
2,0,0,1,0,38629.9,0.0880486,0.0878093,-33.6641,20,0.0118989,10,-0.00295602,-1.47283,-0.288817,-0.204281,267.957,0.0878093,
2,0,0,1,0,38629.9,0.0856404,0.0853523,-34.3148,20,0.0117629,10,-0.00292885,-1.46452,-0.30616,-0.19271,257.615,0.0853523,
2,0,0,1,0,38629.9,0.0832433,0.0829749,-34.9208,20,0.0116244,10,-0.00289755,-1.45692,-0.322903,-0.182717,248.529,0.0829749,
2,0,0,1,0,38629.9,0.0808462,0.0805657,-35.5027,20,0.0114835,10,-0.0028603,-1.44974,-0.343781,-0.171621,237.366,0.0805657,
2,0,0,1,0,38629.9,0.0784408,0.0781341,-36.0687,20,0.0113403,10,-0.00281819,-1.44287,-0.370385,-0.159294,223.69,0.0781341,
2,0,0,1,0,38629.9,0.0760437,0.0757758,-36.588,20,0.0111949,10,-0.00277248,-1.43666,-0.397706,-0.148351,211.371,0.0757758,
2,0,0,1,0,38629.9,0.0736466,0.0733931,-37.0642,20,0.0110476,10,-0.00272025,-1.43105,-0.425598,-0.138628,200.262,0.0733931,
2,0,0,1,0,38629.9,0.0712495,0.0709616,-37.5328,20,0.0108983,10,-0.00266338,-1.42559,-0.458885,-0.128572,188.093,0.0709616,
2,0,0,1,0,38629.9,0.0688413,0.0685968,-37.9786,20,0.0107473,10,-0.00260521,-1.42046,-0.48685,-0.121187,179.331,0.06859684,
2,0,0,1,0,38629.9,0.0664442,0.0661579,-38.397,20,0.0105945,10,-0.00254027,-1.4157,-0.525594,-0.112254,167.923,0.0661579,
2,0,0,1,0,38629.9,0.0640471,0.0638091,-38.7829,20,0.0104401,10,-0.0024747,-1.41136,-0.581111,-0.10153,153.391,0.0638091,
2,0,0,1,0,38629.9,0.0616389,0.0613935,-39.1395,20,0.0102842,10,-0.00240291,-1.40739,-0.6378,-0.0925055,141.05,0.0613935,
2,0,0,1,0,38629.9,0.0592417,0.0589747,-39.4546,20,0.0101269,10,-0.00232682,-1.4039,-0.715997,-0.0824025,126.675,0.0589747,
2,0,0,1,0,38629.9,0.0568446,0.0565612,-39.7506,20,0.00996851,10,-0.00224835,-1.40066,-0.794268,-0.0742823,115.069,0.0565612,
2,0,0,1,0,38629.9,0.0544475,0.0541711,-40.0038,20,0.00980898,10,-0.00216705,-1.3979,-0.900686,-0.0655056,102.115,0.0541711,
2,0,0,1,0,38629.9,0.0520421,0.0517332,-40.2511,20,0.00964842,10,-0.00208232,-1.39522,-1.02341,-0.0576503,90.4099,0.0517332,
2,0,0,1,0,38629.9,0.049645,0.0493537,-40.437,20,0.00948702,10,-0.00199572,-1.39322,-1.1287,-0.0522724,82.4149,0.0493537,
2,0,0,1,0,38629.9,0.0472479,0.0469444,-40.6201,20,0.00932487,10,-0.00190689,-1.39126,-1.33659,-0.0441421,69.9163,0.0469444,
2,0,0,1,0,38629.9,0.0448397,0.04455,-40.7967,20,0.00916203,10,-0.00181749,-1.38938,-1.48276,-0.0397905,63.2668,0.04455,
2,0,0,1,0,38629.9,0.0424426,0.0421652,-40.92,20,0.00899859,10,-0.0017254,-1.38806,-1.72927,-0.0341184,54.4349,0.04216516,
2,0,0,1,0,38629.9,0.0400455,0.0397188,-41.0466,20,0.00883464,10,-0.00163032,-1.38672,-2.143,-0.0275315,44.0615,0.0397188,
2,0,0,1,0,38629.9,0.0376456,0.0373244,-41.1438,20,0.00867025,10,-0.00153567,-1.3857,-2.46344,-0.0239502,38.421,0.0373244,
2,0,0,1,0,38629.9,0.035243,0.0349491,-41.2197,20,0.00850551,10,-0.00144059,-1.3849,-3.20253,-0.0184229,29.6141,0.0349491,
2,0,0,1,0,38629.9,0.0328459,0.0325176,-41.2907,20,0.00834046,10,-0.00134267,-1.38415,-3.65573,-0.016139,25.993,0.0325176,
2,0,0,1,0,38629.9,0.0304488,0.0301232,-41.3308,20,0.0081752,10,-0.00124501,-1.38373,-4.77766,-0.0123492,19.9118,0.0301232,
2,0,0,1,0,38630,0.0280406,0.0277362,-41.393,20,0.00800974,10,-0.00114808,-1.38307,-7.65131,-0.0077111,12.4439,0.0277362,
2,0,0,1,0,38630,0.0256435,0.0253503,-41.4108,20,0.00784414,10,-0.00104978,-1.38289,-10.701,-0.00551349,8.90252,0.0253503,
2,0,0,1,0,38630,0.0232464,0.022957,-41.4097,20,0.00767851,10,-0.00095064,-1.3829,-56.4887,-0.00104446,1.68759,0.02295696,
2,0,0,1,0,38630,0.0208437,0.020518,-41.4163,20,0.00751287,10,-0.00084978,-1.38283,39.8229,0.00148156,-2.39373,0.020518,
2,0,0,1,0,38630,0.018441,0.0181268,-41.4092,20,0.00734721,10,-0.000750617,-1.3829,15.8181,0.00372991,-6.02364,0.01812681,
2,0,0,1,0,38630,0.0160439,0.015726,-41.3878,20,0.00718163,10,-0.000650867,-1.38313,8.59254,0.00686642,-11.0842,0.01572605,
2,0,0,1,0,38630,0.0136468,0.0133189,-41.3516,20,0.00701615,10,-0.000550759,-1.38351,5.78514,0.0101985,-16.4503,0.0133189,
2,0,0,1,0,38630,0.0112414,0.0109033,-41.3097,20,0.00685082,10,-0.000450413,-1.38395,4.58329,0.0128729,-20.7426,0.0109033,
2,0,0,1,0,38630,0.00884431,0.00857679,-41.2521,20,0.0066857,10,-0.000353811,-1.38455,3.95541,0.0149163,-24.0048,0.00857679,
2,0,0,1,0,38630,0.0064472,0.00612513,-41.1886,20,0.00652081,10,-0.000252286,-1.38522,3.9251,0.0150314,-24.1653,0.00612513,
2,0,0,1,0,38630,0.00404455,0.00367877,-41.1202,20,0.00635622,10,-0.000151272,-1.38594,3.13171,0.0188396,-30.2223,0.00367877,
2,0,0,1,0,38630,0.0016419,0.00128331,-41.0772,20,0.00619189,10,-5.2715e-05,-1.3864,2.6139,0.0225716,-36.1298,0.00128331,
2,0,0,1,0,38630,-0.000755207,-0.00115774,-40.9579,20,0.00602783,10,4.74187e-05,-1.38766,2.23646,0.026381,-42.1275,-0.00115774,
2,0,0,1,0,38630,-0.00315231,-0.00349064,-40.8412,20,0.00586425,10,0.000142562,-1.3889,1.77132,0.0333084,-53.0647,-0.00349064,
2,0,0,1,0,38630,-0.00555774,-0.00592003,-40.7158,20,0.00570114,10,0.000241039,-1.39024,1.63134,0.0361666,-57.4255,-0.00592003,
2,0,0,1,0,38630,-0.00795485,-0.0083367,-40.5667,20,0.00553858,10,0.000338193,-1.39183,1.53365,0.0384703,-60.8771,-0.0083367,
2,0,0,1,0,38630,-0.010352,-0.0106441,-40.4131,20,0.00537665,10,0.000430163,-1.39348,1.37731,0.042837,-67.5268,-0.0106441,
2,0,0,1,0,38630,-0.0127546,-0.013116,-40.2553,20,0.00521532,10,0.000527986,-1.39518,1.30367,0.0452568,-71.0473,-0.013116,
2,0,0,1,0,38630,-0.0151573,-0.0154902,-40.0696,20,0.00505469,10,0.000620686,-1.39719,1.22261,0.0482572,-75.4228,-0.0154902,
2,0,0,1,0,38630,-0.0175544,-0.0179196,-39.8859,20,0.00489479,10,0.000714739,-1.39918,1.14434,0.0515579,-80.2212,-0.0179196,
2,0,0,1,0,38630,-0.0199515,-0.0203087,-39.6842,20,0.00473565,10,0.000805935,-1.40138,1.1,0.0536364,-83.0363,-0.0203087,
2,0,0,1,0,38630,-0.0223597,-0.0227275,-39.4842,20,0.00457733,10,0.000897377,-1.40358,1.03844,0.056816,-87.5092,-0.0227275,
2,0,0,1,0,38630,-0.0247568,-0.0251198,-39.27,20,0.00441984,10,0.000986452,-1.40594,1.03323,0.0571023,-87.4963,-0.0251198,
2,0,0,1,0,38630,-0.0271539,-0.0274898,-39.0484,20,0.00426321,10,0.00107343,-1.4084,0.999494,0.0590299,-89.9606,-0.0274898,
2,0,0,1,0,38630,-0.0295593,-0.0299255,-38.8428,20,0.00410745,10,0.00116239,-1.41069,0.968858,0.0608964,-92.2755,-0.0299255,
2,0,0,1,0,38630.1,-0.0319564,-0.0323539,-38.6182,20,0.00395256,10,0.00124945,-1.41321,0.973078,0.0606323,-91.3566,-0.0323539,
2,0,0,1,0,38630.1,-0.0343535,-0.0346899,-38.3869,20,0.00379858,10,0.00133164,-1.41582,0.9651,0.0611335,-91.6189,-0.0346899,
2,0,0,1,0,38630.1,-0.0367506,-0.0371055,-38.17,20,0.0036455,10,0.00141632,-1.41828,0.957794,0.0615999,-91.7821,-0.0371055,
2,0,0,1,0,38630.1,-0.0391588,-0.0395339,-37.9625,20,0.00349325,10,0.0015008,-1.42065,0.992844,0.0594252,-88.0376,-0.0395339,
2,0,0,1,0,38630.1,-0.0415559,-0.0419081,-37.7413,20,0.00334188,10,0.00158167,-1.42318,1.00653,0.0586171,-86.3637,-0.0419081,
2,0,0,1,0,38630.1,-0.043953,-0.0443375,-37.5375,20,0.00319134,10,0.00166432,-1.42553,1.01326,0.0582276,-85.3423,-0.0443375,
2,0,0,1,0,38630.1,-0.0463585,-0.0467425,-37.3377,20,0.00304161,10,0.00174526,-1.42785,1.0809,0.0545844,-79.5822,-0.0467425,
2,0,0,1,0,38630.1,-0.0487556,-0.0490415,-37.1511,20,0.00289265,10,0.00182194,-1.43003,1.10881,0.0532101,-77.1806,-0.0490415,
2,0,0,1,0,38630.1,-0.0511527,-0.051508,-36.9773,20,0.00274441,10,0.00190463,-1.43206,1.19055,0.0495569,-71.5477,-0.051508,
2,0,0,1,0,38630.1,-0.0535498,-0.0539225,-36.7978,20,0.00259689,10,0.00198423,-1.43418,1.25403,0.0470482,-67.6129,-0.0539225,
2,0,0,1,0,38630.1,-0.055958,-0.0563275,-36.6519,20,0.00244998,10,0.00206451,-1.4359,1.31094,0.0450059,-64.4016,-0.0563275,
2,0,0,1,0,38630.1,-0.0583551,-0.0587092,-36.4974,20,0.00230371,10,0.00214273,-1.43774,1.49327,0.0395106,-56.3221,-0.0587092,
2,0,0,1,0,38630.1,-0.0607522,-0.0611492,-36.3564,20,0.00215803,10,0.00222317,-1.43942,1.5348,0.0384414,-54.5927,-0.0611492,
2,0,0,1,0,38630.1,-0.0631604,-0.0635521,-36.2554,20,0.00201282,10,0.00230411,-1.44063,1.73031,0.034098,-48.2602,-0.0635521,
2,0,0,1,0,38630.1,-0.0655575,-0.0659327,-36.1275,20,0.00186807,10,0.00238199,-1.44216,1.94938,0.030266,-42.7016,-0.0659327,
2,0,0,1,0,38630.1,-0.0679546,-0.0682889,-36.0351,20,0.00172376,10,0.0024608,-1.44327,1.99523,0.0295706,-41.6107,-0.06828893,
2,0,0,1,0,38630.1,-0.0703573,-0.0707332,-35.9472,20,0.00157982,10,0.00254266,-1.44434,2.47741,0.0238152,-33.4292,-0.0707332,
2,0,0,1,0,38630.1,-0.0727571,-0.0731053,-35.8579,20,0.00143623,10,0.0026214,-1.44542,2.72712,0.0216346,-30.302,-0.0731053,
2,0,0,1,0,38630.1,-0.0751543,-0.0754997,-35.8077,20,0.0012929,10,0.00270347,-1.44602,3.38873,0.0174107,-24.3459,-0.0754997,
2,0,0,1,0,38630.1,-0.0775514,-0.0779291,-35.743,20,0.00114982,10,0.00278542,-1.44681,4.47142,0.0131949,-18.4197,-0.0779291,
2,0,0,1,0,38630.1,-0.0799595,-0.08035,-35.713,20,0.0010069,10,0.00286954,-1.44717,4.94791,0.0119242,-16.6263,-0.08035,
2,0,0,1,0,38630.1,-0.0823567,-0.0827105,-35.681,20,0.000864139,10,0.00295119,-1.44756,9.06078,0.00651158,-9.07217,-0.08271046,
2,0,0,1,0,38630.1,-0.0847538,-0.0851399,-35.6474,20,0.000721494,10,0.00303502,-1.44797,13.4953,0.00437188,-6.08842,-0.0851399,
2,0,0,1,0,38630.1,-0.0871592,-0.08753,-35.6559,20,0.000578902,10,0.00312096,-1.44787,32.9025,0.00179317,-2.49619,-0.08753,
2,0,0,1,0,38630.1,-0.0895563,-0.0899085,-35.6548,20,0.000436278,10,0.00320567,-1.44788,-26.373,-0.00223714,3.11363,-0.0899085,
2,0,0,1,0,38630.2,-0.0919534,-0.0923231,-35.657,20,0.000293654,10,0.00329196,-1.44786,-13.6366,-0.0043266,6.02551,-0.09232305,
2,0,0,1,0,38630.2,-0.0943505,-0.0947302,-35.6773,20,0.000150992,10,0.00337972,-1.44761,-7.72124,-0.00764126,10.6481,-0.0947302,
2,0,0,1,0,38630.2,-0.0967587,-0.0971299,-35.7137,20,8.20976e-06,10,0.00346887,-1.44716,-6.06216,-0.00973251,13.5644,-0.0971299,
2,0,0,1,0,38630.2,-0.0991558,-0.0995614,-35.7576,20,-0.000134732,10,0.00356008,-1.44663,4.33492,0.0136104,-18.9228,-0.0995614,
2,0,0,1,0,38630.2,-0.0999548,-0.100419,-35.7668,20,-0.000181218,10,0.00359167,-1.44652,0.0228341,2.58386,-3372.29,-0.100419,
2,0,0,1,1,38630.2,-0.0999548,-0.100286,-35.5722,20,-0.000202588,10,0.00356738,-1.44889,-0.0307986,-1.91567,2347.7,-0.100286,
2,0,0,1,1,38630.2,-0.0979573,-0.098448,-31.2687,20,-0.000304448,10,0.00307834,-1.50489,-0.0400499,-1.47316,1701.75,-0.098448,
2,0,0,1,1,38630.2,-0.0955546,-0.096008,-27.4152,20,-0.00042122,10,0.00263208,-1.56201,-0.0411379,-1.4342,1559.66,-0.096008,
2,0,0,1,1,38630.2,-0.093152,-0.0936136,-24.1853,20,-0.00052397,10,0.00226407,-1.61645,-0.0437725,-1.34788,1289.92,-0.09361358,
2,0,0,1,1,38630.2,-0.0907548,-0.0911736,-21.3604,20,-0.000614699,10,0.00194751,-1.67039,-0.0435421,-1.35501,1136.06,-0.0911736,
2,0,0,1,1,38630.2,-0.0883578,-0.0887993,-18.8228,20,-0.000694761,10,0.00167145,-1.72532,-0.0423683,-1.39255,1023.25,-0.08879932,
2,0,0,1,1,38630.2,-0.0859523,-0.0863784,-16.4754,20,-0.000765075,10,0.00142312,-1.78316,-0.0400572,-1.4729,944.26,-0.0863784,
2,0,0,1,1,38630.2,-0.0835552,-0.0839798,-14.3274,20,-0.000826426,10,0.00120321,-1.84383,-0.0375493,-1.57127,871.743,-0.0839798,
2,0,0,1,1,38630.2,-0.0811581,-0.0815981,-12.3187,20,-0.000879476,10,0.00100518,-1.90944,-0.0345222,-1.70905,811.155,-0.0815981,
2,0,0,1,1,38630.2,-0.0787555,-0.0791719,-10.4301,20,-0.000924751,10,0.000825771,-1.98171,-0.0309468,-1.9065,761.513,-0.0791719,
2,0,0,1,1,38630.2,-0.0763528,-0.0767626,-8.67558,20,-0.000962761,10,0.00066596,-2.0617,-0.0271737,-2.17122,712.532,-0.0767626,
2,0,0,1,1,38630.2,-0.0739557,-0.0743672,-7.0073,20,-0.000993944,10,0.000521113,-2.15445,-0.0226818,-2.6012,676.241,-0.0743672,
2,0,0,1,1,38630.2,-0.0715586,-0.0719293,-5.42938,20,-0.00101865,10,0.000390531,-2.26525,-0.0179195,-3.2925,639.84,-0.0719293,
2,0,0,1,1,38630.2,-0.0691532,-0.0695635,-3.93255,20,-0.00103722,10,0.000273562,-2.40533,-0.0124791,-4.72789,606.025,-0.06956353,
2,0,0,1,1,38630.2,-0.066756,-0.0671426,-2.52031,20,-0.00104997,10,0.00016922,-2.59855,-0.00540513,-10.9155,579.551,-0.0671426,
2,0,0,1,1,38630.2,-0.0643589,-0.0647737,-1.1934,20,-0.00105723,10,7.73012e-05,-2.92321,-0.0202133,-2.91886,547.58,-0.0647737,
2,0,0,1,1,38630.2,-0.0619563,-0.0623994,0.093677,20,-0.00105928,10,-5.84539e-06,-4.02837,-1.37855,-0.0427986,519.854,-0.0623994,
2,1,0,1,1,38630.2,-0.0595536,-0.0599732,1.31892,20,-0.00105631,10,-7.91e-05,-2.87978,0.0200748,2.939,498.123,-0.0599732,
2,1,0,1,1,38630.2,-0.0571565,-0.0575237,2.48014,20,-0.00104859,10,-0.000142667,-2.60552,0.00566648,10.4121,474.635,-0.0575237,
2,1,0,1,1,38630.2,-0.0547594,-0.0551664,3.59221,20,-0.00103631,10,-0.000198169,-2.44464,0.0151346,3.89834,453.519,-0.0551664,
2,1,0,1,1,38630.2,-0.0523512,-0.0527868,4.65615,20,-0.00101969,10,-0.000245783,-2.33197,0.0222828,2.64778,436.43,-0.0527868,
2,1,0,1,1,38630.2,-0.0499541,-0.0503967,5.66206,20,-0.000998956,10,-0.000285349,-2.24703,0.0293834,2.00794,418.568,-0.0503967,
2,1,0,1,1,38630.3,-0.047557,-0.0479959,6.63834,20,-0.000974244,10,-0.000318613,-2.17794,0.0367396,1.6059,400.047,-0.0479959,
2,1,0,1,1,38630.3,-0.0451544,-0.0456323,7.58288,20,-0.000945691,10,-0.000346024,-2.12017,0.0441009,1.33784,383.789,-0.04563228,
2,1,0,1,1,38630.3,-0.0427545,-0.0431986,8.49188,20,-0.000913436,10,-0.000366838,-2.071,0.0517669,1.13973,368.109,-0.0431986,
2,1,0,1,1,38630.3,-0.0403574,-0.0407989,9.34557,20,-0.000877671,10,-0.000381289,-2.02939,0.0604635,0.975795,349.312,-0.04079894,
2,1,0,1,1,38630.3,-0.0379603,-0.0384215,10.1628,20,-0.000838562,10,-0.000390469,-1.99299,0.0689165,0.856108,334.9,-0.0384215,
2,1,0,1,1,38630.3,-0.0355521,-0.0359348,10.9703,20,-0.000796218,10,-0.000394217,-1.95978,0.0770849,0.765389,323.21,-0.0359348,
2,1,0,1,1,38630.3,-0.033155,-0.033532,11.7292,20,-0.000750734,10,-0.000393305,-1.93073,0.0865021,0.682064,308.581,-0.033532,
2,1,0,1,1,38630.3,-0.0307579,-0.0312171,12.4425,20,-0.000702312,10,-0.000388419,-1.90509,0.0954295,0.618257,297.581,-0.0312171,
2,1,0,1,1,38630.3,-0.0283524,-0.0287389,13.1506,20,-0.000651061,10,-0.000377935,-1.88105,0.10564,0.558498,284.251,-0.0287389,
2,1,0,1,1,38630.3,-0.0259553,-0.0264113,13.8043,20,-0.000597072,10,-0.000364591,-1.85998,0.116572,0.506125,270.784,-0.0264113,
2,1,0,1,1,38630.3,-0.0235582,-0.0239692,14.4475,20,-0.000540496,10,-0.000346294,-1.84021,0.126746,0.4655,260.903,-0.0239692,
2,1,0,1,1,38630.3,-0.0211611,-0.0215568,15.0584,20,-0.000481397,10,-0.00032461,-1.82222,0.139207,0.423829,247.566,-0.0215568,
2,1,0,1,1,38630.3,-0.0187529,-0.0191815,15.6442,20,-0.000419901,10,-0.000300079,-1.80565,0.151551,0.389307,236.35,-0.0191815,
2,1,0,1,1,38630.3,-0.0163558,-0.0167616,16.1933,20,-0.000356158,10,-0.000271426,-1.79067,0.162917,0.362148,227.889,-0.0167616,
2,1,0,1,1,38630.3,-0.0139587,-0.0143545,16.7199,20,-0.000290267,10,-0.000240006,-1.77677,0.176993,0.333346,216.861,-0.0143545,
2,1,0,1,1,38630.3,-0.0115505,-0.0119887,17.2388,20,-0.000222297,10,-0.000206672,-1.76349,0.189264,0.311733,208.96,-0.0119887,
2,1,0,1,1,38630.3,-0.0091534,-0.00952329,17.7387,20,-0.000152281,10,-0.000168931,-1.75108,0.20253,0.291315,200.795,-0.00952329,
2,1,0,1,1,38630.3,-0.00675629,-0.00717131,18.1973,20,-8.03508e-05,10,-0.000130498,-1.73999,0.219401,0.268914,190.416,-0.00717131,
2,1,0,1,1,38630.3,-0.00435919,-0.00480342,18.6377,20,-6.62323e-06,10,-8.95248e-05,-1.72961,0.24681,0.239051,172.768,-0.00480342,
2,1,0,1,1,38630.3,-0.00195376,-0.00232101,19.0797,20,6.88707e-05,10,-4.42842e-05,-1.71943, , , ,-0.00232101,
2,1,0,0,1,38630.3,-7.54729e-05,-0.000363498,19.3212,20,0.000128467,10,-7.02322e-06,-1.71397, , , ,-0.000363498,