File: Figure_codes/Fig_3-5/rawdata_trumpetplot_data/after 10th/20221101_1-115_003_TrumpetPlot_ParaChange_from10_every3_02_CV_C01_6.csv
mode,ox/red,error,control changes,counter inc.,time/s,control/V,Ewe/V,<I>/mA,cycle number,(Q-Qo)/C,I Range,P/W,log(|I|),Tafel slope mV/dec,alpha_eff,dI/d(E-IR),E-IR/V,
2,0,0,1,0,12160.8,2.44065e-05,-0.000287149,-0.360167,7,0.0000000E+000,10,1.03422e-07,-3.4435, , , ,-0.0002871489,
2,0,0,1,0,12162.1,0.00129791,0.000922853,-0.173495,7,-0.000249387,10,-1.6011e-07,-3.76071, , , ,0.000922853,
2,0,0,1,0,12163.6,0.00279612,0.00251875,-0.13888,7,-0.000458215,10,-3.49804e-07,-3.85736,-0.0176461,-3.34352,19.634,0.00251875,
2,0,0,1,0,12165.1,0.00429431,0.00401287,-0.119399,7,-0.000630186,10,-4.79133e-07,-3.923,-0.0259859,-2.27046,10.7617,0.00401287,
2,0,0,1,0,12166.6,0.00579242,0.00548996,-0.104633,7,-0.00077721,10,-5.74429e-07,-3.98033,-0.0270342,-2.18242,9.07675,0.00548996,
2,0,0,1,0,12168.1,0.00729061,0.00699466,-0.0931926,7,-0.000904583,10,-6.5185e-07,-4.03062,-0.0301901,-1.95429,7.22656,0.00699466,
2,0,0,1,0,12169.6,0.00878882,0.00845908,-0.0840328,7,-0.00101678,10,-7.1084e-07,-4.07555,-0.0343374,-1.71824,5.70119,0.00845908,
2,0,0,1,0,12171.1,0.010287,0.0100094,-0.0757161,7,-0.00111632,10,-7.57871e-07,-4.12081,-0.03566,-1.65451,4.96454,0.01000938,
2,0,0,1,0,12172.6,0.0117852,0.0114908,-0.0694699,7,-0.00120482,10,-7.98264e-07,-4.1582,-0.0363622,-1.62257,4.42191,0.0114908,
2,0,0,1,0,12174.1,0.0132834,0.0129902,-0.0638054,7,-0.00128405,10,-8.28844e-07,-4.19514,-0.0374223,-1.5766,3.8748,0.0129902,
2,0,0,1,0,12175.6,0.0147815,0.0144567,-0.0582121,7,-0.00135477,10,-8.41554e-07,-4.23499,-0.0371502,-1.58815,3.58476,0.0144567,
2,0,0,1,0,12177.1,0.0162797,0.0159677,-0.0527864,7,-0.00141738,10,-8.42878e-07,-4.27748,-0.0382603,-1.54207,3.20328,0.0159677,
2,0,0,1,0,12178.6,0.0177779,0.0174333,-0.0482812,7,-0.00147321,10,-8.417e-07,-4.31622,-0.04031,-1.46366,2.7716,0.0174333,
2,0,0,1,0,12180.1,0.0192761,0.0189263,-0.0440506,7,-0.00152288,10,-8.33715e-07,-4.35605,-0.0389025,-1.51661,2.63766,0.0189263,
2,0,0,1,0,12181.6,0.0207743,0.0204745,-0.0403508,7,-0.0015665,10,-8.26163e-07,-4.39415,-0.0373179,-1.58101,2.50973,0.0204745,
2,0,0,1,0,12183.1,0.0222725,0.0219761,-0.0371035,7,-0.00160424,10,-8.15391e-07,-4.43058,-0.0362799,-1.62625,2.36357,0.0219761,
2,0,0,1,0,12184.6,0.0237707,0.0234532,-0.0330879,7,-0.00163684,10,-7.76017e-07,-4.48033,-0.0405045,-1.45663,1.92352,0.0234532,
2,0,0,1,0,12186.1,0.0252689,0.0249653,-0.0309064,7,-0.00166514,10,-7.71588e-07,-4.50995,-0.0355006,-1.66194,1.96157,0.0249653,
2,0,0,1,0,12187.6,0.0267671,0.02645,-0.0277042,7,-0.00168872,10,-7.32776e-07,-4.55745,-0.0277133,-2.12894,2.26023,0.02644998,
2,0,0,1,0,12189.1,0.0282653,0.0279494,-0.0245995,7,-0.00170762,10,-6.87542e-07,-4.60907,-0.0298917,-1.97379,1.881,0.0279494,
2,0,0,1,0,12190.6,0.0297635,0.029452,-0.0218923,7,-0.00172182,10,-6.44772e-07,-4.65971,-0.0286454,-2.05967,1.73246,0.029452,
2,0,0,1,0,12192,0.0312617,0.0308931,-0.0196056,7,-0.00173209,10,-6.05678e-07,-4.70762,-0.0220922,-2.67063,1.93247,0.0308931,
2,0,0,1,0,12193.5,0.0327599,0.0324604,-0.0158887,7,-0.00173893,10,-5.15752e-07,-4.79891,-0.0206741,-2.85381,1.79124,0.0324604,
2,0,0,1,0,12195,0.0342581,0.033928,-0.0136572,7,-0.00174001,10,-4.6336e-07,-4.86464,-0.0141928,-4.15705,2.23681,0.033928,
2,0,0,1,0,12196.5,0.0357563,0.0354645,-0.0106078,7,-0.00173756,10,-3.762e-07,-4.97438,-0.0175971,-3.35283,1.41378,0.0354645,
2,0,0,1,0,12198,0.0372544,0.036933,-0.00855682,7,-0.00173127,10,-3.16029e-07,-5.06769,-0.01072,-5.50373,1.6575,0.036933,
2,0,0,1,0,12199.5,0.0387526,0.0384028,-0.00623026,7,-0.00172168,10,-2.3926e-07,-5.20549,-0.00698852,-8.44242,1.65109,0.0384028,
2,0,0,1,0,12201,0.0402508,0.0399595,-0.00336519,7,-0.00170809,10,-1.34471e-07,-5.47299,-0.00364878,-16.1698,1.54423,0.0399595,
2,0,0,1,0,12202.5,0.041749,0.0414112,-0.00133009,7,-0.00169096,10,-5.50806e-08,-5.87612,-0.0069331,-8.5099,1.29556,0.04141124,
2,0,0,1,0,12204,0.0432472,0.0429361,0.0007146,7,-0.00167115,10,3.06821e-08,-6.14594,0.0147944,3.98801,1.31264,0.0429361,
2,1,0,1,0,12205.5,0.0447454,0.0444504,0.00316357,7,-0.00164848,10,1.40622e-07,-5.49982,0.00330125,17.872,1.27505,0.0444504,
2,0,0,1,0,12207,0.0462435,0.0459423,0.00525961,7,-0.00162207,10,2.41639e-07,-5.27905,0.006089,9.68961,1.60623,0.0459423,
2,1,0,1,0,12208.5,0.0477417,0.0474438,0.00748242,7,-0.0015921,10,3.54994e-07,-5.12596,0.0103637,5.69295,1.46796,0.0474438,
2,1,0,1,0,12210,0.0492399,0.0489316,0.0089873,7,-0.0015587,10,4.39763e-07,-5.04637,0.0147163,4.00916,1.48728,0.0489316,
2,1,0,1,0,12211.5,0.0507381,0.0504236,0.0107836,7,-0.00152266,10,5.43747e-07,-4.96724,0.0199915,2.95125,1.33648,0.0504236,
2,1,0,1,0,12213,0.0522363,0.0519103,0.0127602,7,-0.00148317,10,6.62385e-07,-4.89414,0.0219129,2.69248,1.40074,0.0519103,
2,0,0,1,0,12214.5,0.0537345,0.0534405,0.0150889,7,-0.00144076,10,8.0636e-07,-4.82134,0.0292925,2.01416,1.21177,0.0534405,
2,1,0,1,0,12216,0.0552327,0.0549398,0.0178416,7,-0.00139551,10,9.80213e-07,-4.74857,0.0290694,2.02963,1.371,0.0549398,
2,1,0,1,0,12217.5,0.0567309,0.056381,0.0181551,7,-0.00134783,10,1.0236e-06,-4.741,0.0324114,1.82035,1.35239,0.05638098,
2,1,0,1,0,12219,0.0582291,0.0579451,0.0213641,7,-0.00129702,10,1.23795e-06,-4.67032,0.0383443,1.53869,1.23891,0.0579451,
2,1,0,1,0,12220.5,0.0597273,0.0594212,0.0227944,7,-0.00124312,10,1.35447e-06,-4.64217,0.0465748,1.26678,1.1193,0.0594212,
2,1,0,1,0,12222,0.0612255,0.0609121,0.0239452,7,-0.00118681,10,1.45856e-06,-4.62078,0.053191,1.10921,1.06322,0.0609121,
2,1,0,1,0,12223.5,0.0627237,0.0623776,0.0266836,7,-0.0011279,10,1.66446e-06,-4.57376,0.0494824,1.19234,1.22977,0.0623776,
2,1,0,1,0,12225,0.0642219,0.0638887,0.0281227,7,-0.00106624,10,1.79672e-06,-4.55094,0.0508165,1.16104,1.30687,0.0638887,
2,1,0,1,0,12226.5,0.0657201,0.0654167,0.0303896,7,-0.00100178,10,1.98799e-06,-4.51728,0.0640633,0.920965,1.07392,0.0654167,
2,1,0,1,0,12228,0.0672183,0.0668908,0.0323196,7,-0.00093397,10,2.16188e-06,-4.49053,0.0693784,0.850409,1.04264,0.0668908,
2,1,0,1,0,12229.5,0.0687164,0.0683858,0.0334241,7,-0.000864226,10,2.28573e-06,-4.47594,0.0905344,0.651686,0.838468,0.0683858,
2,1,0,1,0,12231,0.0702146,0.0699244,0.034686,7,-0.000793045,10,2.4254e-06,-4.45985,0.0905694,0.651434,0.879536,0.0699244,
2,1,0,1,0,12232.5,0.0717128,0.0714207,0.0362759,7,-0.00071952,10,2.59085e-06,-4.44038,0.0808317,0.729912,1.01513,0.0714207,
2,1,0,1,0,12234,0.073211,0.0728788,0.0370087,7,-0.00064359,10,2.69715e-06,-4.4317,0.0804575,0.733306,1.07542,0.0728788,
2,1,0,1,0,12235.5,0.0747092,0.0744058,0.0384801,7,-0.000565305,10,2.86314e-06,-4.41476,0.0948114,0.622288,0.94669,0.0744058,
2,1,0,1,0,12237,0.0762074,0.075883,0.040031,7,-0.000485127,10,3.03767e-06,-4.3976,0.0860725,0.685469,1.09137,0.075883,
2,1,0,1,0,12238.5,0.0777055,0.0773695,0.0429945,7,-0.000402114,10,3.32646e-06,-4.36659,0.0837969,0.704083,1.15163,0.0773695,
2,1,0,1,0,12240,0.0792037,0.0788276,0.0448112,7,-0.000316604,10,3.53236e-06,-4.34861,0.109138,0.540601,0.91693,0.0788276,
2,1,0,1,0,12241.5,0.0807019,0.0803684,0.0455861,7,-0.000228795,10,3.66368e-06,-4.34117,0.101808,0.579523,1.0089,0.08036837,
2,1,0,1,0,12243,0.0822001,0.0818805,0.0461416,7,-0.000139107,10,3.7781e-06,-4.33591,0.106398,0.55452,1.00777,0.0818805,
2,1,0,1,0,12244.5,0.0836983,0.0833778,0.0485153,7,-4.72595e-05,10,4.0451e-06,-4.31412,0.115881,0.509142,0.953806,0.0833778,
2,1,0,1,0,12246,0.0851965,0.0848836,0.0499207,7,4.71604e-05,10,4.23745e-06,-4.30172,0.110368,0.534577,1.04197,0.0848836,
2,1,0,1,0,12247.5,0.0866947,0.0864,0.0509256,7,0.00014401,10,4.39997e-06,-4.29306,0.139721,0.42227,0.837876,0.0864,
2,1,0,1,0,12249,0.0881929,0.0878453,0.0529323,7,0.000243389,10,4.64986e-06,-4.27628,0.0899471,0.655941,1.37119,0.0878453,
2,1,0,1,0,12250.5,0.0896911,0.0893331,0.0545877,7,0.000344971,10,4.87649e-06,-4.26291,0.0973529,0.606043,1.30642,0.0893331,
2,1,0,1,0,12252,0.0911893,0.0908877,0.0571817,7,0.000450011,10,5.19711e-06,-4.24274,0.0831795,0.709309,1.57487,0.0908877,
2,1,0,1,0,12253.5,0.0926875,0.0923627,0.059823,7,0.000559111,10,5.52542e-06,-4.22313,0.0870618,0.677679,1.55364,0.0923627,
2,1,0,1,0,12255,0.0941857,0.0938568,0.0617783,7,0.000671325,10,5.79831e-06,-4.20916,0.108276,0.544905,1.30369,0.0938568,
2,1,0,1,0,12256.5,0.0956839,0.0953541,0.0636623,7,0.000786046,10,6.07046e-06,-4.19612,0.0996783,0.591904,1.4766,0.0953541,
2,1,0,1,0,12258,0.0971821,0.0968387,0.0662736,7,0.000904996,10,6.41786e-06,-4.17866,0.0888497,0.664043,1.70575,0.0968387,
2,1,0,1,0,12259.5,0.0986803,0.098371,0.0683993,7,0.00102707,10,6.72851e-06,-4.16495,0.108997,0.5413,1.45149,0.098371,
2,1,0,1,0,12261,0.100178,0.0998513,0.0707845,7,0.00115278,10,7.06793e-06,-4.15006,0.104807,0.562941,1.55355,0.0998513,
2,1,0,1,0,12262.5,0.101677,0.1014,0.0726549,7,0.00128172,10,7.36724e-06,-4.13874,0.106964,0.55159,1.57589,0.1014,
2,1,0,1,0,12264,0.103175,0.102848,0.075533,7,0.00141478,10,7.76841e-06,-4.12186,0.0987868,0.597246,1.75425,0.102848,
2,1,0,1,0,12265.5,0.104673,0.104363,0.078933,7,0.00155165,10,8.23771e-06,-4.10274,0.113439,0.520105,1.58581,0.104363,
2,1,0,1,0,12267,0.106171,0.105901,0.0801103,7,0.00169212,10,8.48376e-06,-4.09631,0.113278,0.520841,1.62937,0.105901,
2,1,0,1,0,12268.5,0.107669,0.107374,0.0820879,7,0.00183571,10,8.81409e-06,-4.08572,0.120987,0.487655,1.57246,0.107374,
2,1,0,1,0,12270,0.109167,0.108842,0.0846515,7,0.00198248,10,9.21367e-06,-4.07237,0.117621,0.501613,1.66213,0.108842,
2,1,0,1,0,12271.5,0.110666,0.110356,0.0868405,7,0.00213331,10,9.58334e-06,-4.06128,0.125444,0.470328,1.59667,0.110356,
2,1,0,1,0,12273,0.112164,0.111848,0.0891547,7,0.00228727,10,9.97175e-06,-4.04986,0.217991,0.270654,0.940437,0.111848,
2,1,0,1,0,12274.5,0.113662,0.113309,0.090773,7,0.00244408,10,1.02854e-05,-4.04204,0.193601,0.30475,1.08134,0.113309,
2,1,0,1,0,12275.9,0.11516,0.114816,0.0931313,7,0.00260284,10,1.06929e-05,-4.0309,0.17496,0.33722,1.22507,0.114816,
2,1,0,1,0,12277.4,0.116658,0.116327,0.0948785,7,0.00276496,10,1.10369e-05,-4.02283,0.179462,0.32876,1.21003,0.116327,
2,1,0,1,0,12278.9,0.118157,0.117853,0.0959283,7,0.00293033,10,1.13054e-05,-4.01805,0.195465,0.301845,1.13225,0.1178527,
2,1,0,1,0,12280.4,0.119655,0.119329,0.0984003,7,0.003098,10,1.1742e-05,-4.007,0.173126,0.340793,1.31409,0.1193288,
2,1,0,1,0,12281.9,0.121153,0.120846,0.1,7,0.003268,10,1.20847e-05,-4,0.158807,0.37152,1.46078,0.120846,
2,1,0,1,0,12283.4,0.122651,0.122311,0.102529,7,0.00344206,10,1.25404e-05,-3.98915,0.125089,0.471664,1.87818,0.122311,
2,1,0,1,0,12284.9,0.124149,0.123844,0.104507,7,0.00362,10,1.29425e-05,-3.98086,0.160704,0.367134,1.50061,0.123844,
2,1,0,1,0,12286.4,0.125648,0.125314,0.106552,7,0.00380083,10,1.33525e-05,-3.97244,0.218825,0.269622,1.12574,0.1253138,
2,1,0,1,0,12287.9,0.127146,0.126865,0.107805,7,0.00398444,10,1.36767e-05,-3.96736,0.230392,0.256085,1.07841,0.126865,
2,1,0,1,0,12289.4,0.128644,0.128331,0.111265,7,0.0041707,10,1.42787e-05,-3.95364,0.334094,0.176597,0.755832,0.128331,
2,1,0,1,0,12290.9,0.130142,0.129824,0.111682,7,0.00435897,10,1.4499e-05,-3.95202,0.474258,0.124405,0.537169,0.129824,
2,1,0,1,0,12292.4,0.13164,0.131352,0.111388,7,0.00454842,10,1.4631e-05,-3.95316,17.1722,0.00343579,0.0148626,0.131352,
2,1,0,1,0,12293.9,0.133139,0.132827,0.111233,7,0.00473778,10,1.47747e-05,-3.95377,-0.936515,-0.0629995,-0.273176,0.132827,
2,1,0,1,0,12295.4,0.134637,0.134301,0.110627,7,0.0049261,10,1.48573e-05,-3.95614,-0.330596,-0.178466,-0.768555,0.134301,
2,1,0,1,0,12296.9,0.136135,0.135856,0.109222,7,0.00511305,10,1.48385e-05,-3.96169,-0.176529,-0.334222,-1.41674,0.135856,
2,1,0,1,0,12298.4,0.137633,0.1373,0.10701,7,0.00529697,10,1.46925e-05,-3.97057,-0.132452,-0.445445,-1.84049,0.1373,
2,1,0,1,0,12299.9,0.139131,0.138832,0.104521,7,0.00547672,10,1.45109e-05,-3.9808,-0.0988278,-0.596998,-2.39842,0.138832,
2,1,0,1,0,12301.4,0.14063,0.140303,0.100575,7,0.005651,10,1.4111e-05,-3.99751,-0.0864979,-0.682098,-2.65098,0.140303,
2,1,0,1,0,12302.9,0.142128,0.141825,0.0964681,7,0.00581929,10,1.36816e-05,-4.01562,-0.0798375,-0.739002,-2.75525,0.141825,
2,1,0,1,0,12304.4,0.143626,0.143305,0.091871,7,0.00598129,10,1.31655e-05,-4.03682,-0.0689894,-0.855204,-3.02229,0.143305,
2,1,0,1,0,12305.9,0.145124,0.144828,0.0865501,7,0.00613572,10,1.25349e-05,-4.06273,-0.0615088,-0.959212,-3.24579,0.144828,
2,1,0,1,0,12307.4,0.146622,0.146283,0.0816143,7,0.00628203,10,1.19388e-05,-4.08823,-0.0623046,-0.946961,-3.04094,0.146283,
2,1,0,1,0,12308.9,0.14812,0.147797,0.0771977,7,0.00642173,10,1.14096e-05,-4.1124,-0.0686286,-0.8597,-2.59854,0.1477975,
2,1,0,1,0,12310.4,0.149619,0.149303,0.0734467,7,0.00655521,10,1.09658e-05,-4.13403,-0.070055,-0.842196,-2.42818,0.149303,
2,1,0,1,0,12311.9,0.151117,0.15077,0.0700074,7,0.0066831,10,1.0555e-05,-4.15486,-0.0794117,-0.742964,-2.03978,0.15077,
2,1,0,1,0,12313.4,0.152615,0.15231,0.0664721,7,0.00680621,10,1.01243e-05,-4.17736,-0.089876,-0.65646,-1.72513,0.1523096,
2,1,0,1,0,12314.9,0.154113,0.153797,0.0653629,7,0.00692545,10,1.00526e-05,-4.18467,-0.100793,-0.585357,-1.49071,0.153797,
2,1,0,1,0,12316.4,0.155611,0.155292,0.063227,7,0.00704131,10,9.81862e-06,-4.1991,-0.111946,-0.527041,-1.29435,0.155292,
2,1,0,1,0,12317.9,0.15711,0.15681,0.0610372,7,0.00715431,10,9.57125e-06,-4.21441,-0.102079,-0.577985,-1.37485,0.15681,
2,1,0,1,0,12319.4,0.158608,0.158251,0.0592066,7,0.00726443,10,9.36952e-06,-4.22763,-0.132701,-0.444609,-1.0337,0.158251,
2,1,0,1,0,12320.9,0.160106,0.159787,0.0579622,7,0.00737193,10,9.26159e-06,-4.23685,-0.183637,-0.321286,-0.730446,0.159787,
2,1,0,1,0,12322.4,0.161604,0.161296,0.0570658,7,0.00747791,10,9.20447e-06,-4.24362,-0.173915,-0.339246,-0.752391,0.161296,
2,1,0,1,0,12323.9,0.163102,0.162805,0.0556611,7,0.00758215,10,9.06194e-06,-4.25445,-0.190428,-0.309828,-0.668533,0.162805,
2,1,0,1,0,12325.4,0.164601,0.164251,0.0546334,7,0.00768467,10,8.97358e-06,-4.26254,-0.178843,-0.329898,-0.703125,0.164251,
2,1,0,1,0,12326.9,0.166099,0.165771,0.053429,7,0.00778533,10,8.85701e-06,-4.27222,-0.212425,-0.277745,-0.582413,0.165771,
2,1,0,1,0,12328.4,0.167597,0.167288,0.0532269,7,0.00788497,10,8.90421e-06,-4.27387,-0.445056,-0.132568,-0.274341,0.167288,
2,1,0,1,0,12329.9,0.169095,0.16878,0.0530221,7,0.00798422,10,8.94905e-06,-4.27554,-0.520695,-0.11331,-0.232734,0.16878,
2,1,0,1,0,12331.4,0.170593,0.170265,0.0521799,7,0.00808247,10,8.88444e-06,-4.2825,-0.368552,-0.160086,-0.327537,0.170265,
2,1,0,1,0,12332.9,0.172091,0.171784,0.0518541,7,0.00817958,10,8.9077e-06,-4.28522,-0.431361,-0.136776,-0.275989,0.171784,
2,1,0,1,0,12334.4,0.17359,0.173293,0.0515253,7,0.00827663,10,8.92897e-06,-4.28798,-2.31136,-0.0255261,-0.0513209,0.173293,
2,1,0,1,0,12335.9,0.175088,0.174751,0.0510203,7,0.00837279,10,8.91585e-06,-4.29226,-0.567163,-0.104027,-0.207813,0.174751,
2,1,0,1,0,12337.4,0.176586,0.176224,0.0506461,7,0.00846867,10,8.92504e-06,-4.29545,-0.590744,-0.099874,-0.197401,0.176224,
2,1,0,1,0,12338.9,0.178084,0.177748,0.0501855,7,0.00856407,10,8.92036e-06,-4.29942,-0.860689,-0.0685497,-0.134559,0.177748,
2,1,0,1,0,12340.4,0.179582,0.179292,0.0506178,7,0.00865895,10,9.07535e-06,-4.2957,-0.529229,-0.111483,-0.220331,0.179292,
2,1,0,1,0,12341.9,0.181081,0.180767,0.0502722,7,0.00875358,10,9.08755e-06,-4.29867,-2.04912,-0.0287929,-0.0568097,0.1807667,
2,1,0,1,0,12343.4,0.182579,0.182269,0.0497754,7,0.00884814,10,9.07252e-06,-4.30299,-0.687469,-0.0858221,-0.168494,0.182269,
2,1,0,1,0,12344.9,0.184077,0.183776,0.0505326,7,0.00894284,10,9.28669e-06,-4.29643,1.68387,0.0350383,0.0688607,0.183776,
2,1,0,1,0,12346.4,0.185575,0.185259,0.0499936,7,0.00903724,10,9.26174e-06,-4.30109,-8.0829,-0.00729936,-0.0143357,0.185259,
2,1,0,1,0,12347.9,0.187073,0.186794,0.0504142,7,0.00913172,10,9.41707e-06,-4.29745,-3.85949,-0.015287,-0.0298169,0.186794,
2,1,0,1,0,12349.4,0.188572,0.188263,0.0503382,7,0.00922612,10,9.47681e-06,-4.2981,162.708,0.000362613,0.0007049,0.1882627,
2,1,0,1,0,12350.9,0.19007,0.189764,0.0502729,7,0.00932042,10,9.54001e-06,-4.29867,6.41244,0.00920087,0.0180199,0.189764,
2,1,0,1,0,12352.4,0.191568,0.191253,0.0500587,7,0.0094143,10,9.57388e-06,-4.30052,5.80455,0.0101644,0.0197644,0.191253,
2,1,0,1,0,12353.9,0.193066,0.192757,0.0503322,7,0.00950842,10,9.70187e-06,-4.29815,0.798794,0.0738613,0.144516,0.1927567,
2,1,0,1,0,12355.4,0.194564,0.19428,0.0500951,7,0.00960249,10,9.7325e-06,-4.3002,-54.4771,-0.00108302,-0.00212243,0.19428,
2,1,0,1,0,12356.9,0.196063,0.195767,0.0499471,7,0.00969652,10,9.77799e-06,-4.30149,9.00587,0.00655129,0.0128296,0.195767,
2,1,0,1,0,12358.3,0.197561,0.197262,0.0502098,7,0.00979042,10,9.90451e-06,-4.29921,1.25349,0.0470686,0.0927812,0.197262,
2,1,0,1,0,12359.8,0.199059,0.198738,0.0509783,7,0.00988468,10,1.01313e-05,-4.29262,0.439195,0.134337,0.263731,0.198738,
2,1,0,1,0,12361.3,0.200557,0.200238,0.0505021,7,0.00997921,10,1.01124e-05,-4.29669,-12.8065,-0.00460703,-0.0090731,0.200238,
2,1,0,1,0,12362.8,0.202055,0.201736,0.0506982,7,0.0100739,10,1.02277e-05,-4.29501,2.02168,0.0291837,0.0576625,0.201736,
2,1,0,1,0,12364.3,0.203554,0.203225,0.0501874,7,0.0101687,10,1.01993e-05,-4.29941,-2.51863,-0.0234254,-0.0462165,0.203225,
2,1,0,1,0,12365.8,0.205052,0.204727,0.0501673,7,0.0102632,10,1.02706e-05,-4.29958,0.729658,0.0808598,0.160655,0.2047265,
2,1,0,1,0,12367.3,0.20655,0.206235,0.0506283,7,0.0103577,10,1.04414e-05,-4.29561,1.32744,0.0444466,0.087998,0.206235,
2,1,0,1,0,12368.8,0.208048,0.207732,0.0504665,7,0.0104527,10,1.04835e-05,-4.297,1.06087,0.0556145,0.11006,0.207732,
2,1,0,1,0,12370.3,0.209546,0.209247,0.0510187,7,0.0105475,10,1.06755e-05,-4.29227,2.81893,0.0209299,0.0416694,0.209247,
2,1,0,1,0,12371.8,0.211044,0.210714,0.0512587,7,0.0106422,10,1.08009e-05,-4.29023,8.45132,0.00698115,0.0138648,0.210714,
2,1,0,1,0,12373.3,0.212543,0.212208,0.0510166,7,0.0107374,10,1.08261e-05,-4.29229,1.19812,0.0492439,0.0981284,0.212208,
2,1,0,1,0,12374.8,0.214041,0.213766,0.0512757,7,0.0108327,10,1.0961e-05,-4.29009,0.634508,0.0929855,0.185482,0.213766,
2,1,0,1,0,12376.3,0.215539,0.215243,0.0512431,7,0.0109283,10,1.10297e-05,-4.29036,0.889478,0.066331,0.13348,0.215243,
2,1,0,1,0,12377.8,0.217037,0.216684,0.0518097,7,0.0110241,10,1.12263e-05,-4.28559,1.57891,0.0373676,0.0757882,0.216684,
2,1,0,1,0,12379.3,0.218535,0.218233,0.0517724,7,0.0111204,10,1.12984e-05,-4.2859,0.667171,0.0884331,0.180049,0.218233,
2,1,0,1,0,12380.8,0.220034,0.219727,0.051868,7,0.0112172,10,1.13968e-05,-4.2851,2.29751,0.02568,0.0519961,0.219727,
2,1,0,1,0,12382.3,0.221532,0.221239,0.0525719,7,0.011314,10,1.1631e-05,-4.27925,-41.0831,-0.00143611,-0.00291488,0.221239,
2,1,0,1,0,12383.8,0.22303,0.222671,0.0517873,7,0.0114105,10,1.15315e-05,-4.28578,1.30377,0.0452533,0.0920168,0.222671,
2,1,0,1,0,12385.3,0.224528,0.224235,0.052293,7,0.0115071,10,1.17259e-05,-4.28156,6.58966,0.00895342,0.0181625,0.224235,
2,1,0,1,0,12386.8,0.226026,0.225695,0.0526904,7,0.0116041,10,1.1892e-05,-4.27827,1.13954,0.0517755,0.106307,0.225695,
2,1,0,1,0,12388.3,0.227525,0.227235,0.0528681,7,0.0117013,10,1.20135e-05,-4.27681,0.781095,0.075535,0.155391,0.227235,
2,1,0,1,0,12389.8,0.229023,0.228728,0.0530152,7,0.0117989,10,1.21261e-05,-4.2756,2.32963,0.0253259,0.0523446,0.228728,
2,1,0,1,0,12391.3,0.230521,0.230228,0.0532102,7,0.0118968,10,1.22505e-05,-4.27401,0.903494,0.065302,0.135996,0.230228,
2,1,0,1,0,12392.8,0.232019,0.231705,0.0531053,7,0.0119946,10,1.23048e-05,-4.27486,0.708121,0.0833191,0.173593,0.2317054,
2,1,0,1,0,12394.3,0.233517,0.233213,0.0535209,7,0.0120932,10,1.24818e-05,-4.27148,2.5552,0.0230902,0.0480611,0.233213,
2,1,0,1,0,12395.8,0.235016,0.234726,0.0535322,7,0.0121918,10,1.25654e-05,-4.27138,1.63845,0.0360096,0.0754794,0.234726,
2,1,0,1,0,12397.3,0.236514,0.23622,0.053631,7,0.0122902,10,1.26687e-05,-4.27058,1.53579,0.0384167,0.0805991,0.23622,
2,1,0,1,0,12398.8,0.238012,0.237696,0.0539708,7,0.0123891,10,1.28286e-05,-4.26784,0.856341,0.0688978,0.144507,0.2376956,
2,1,0,1,0,12400.3,0.23951,0.239209,0.0537055,7,0.0124881,10,1.28468e-05,-4.26998,1.0077,0.058549,0.123256,0.239209,
2,1,0,1,0,12401.8,0.241008,0.240685,0.0542877,7,0.0125875,10,1.30662e-05,-4.2653,32.1277,0.00183642,0.00388182,0.240685,
2,1,0,1,0,12403.3,0.242506,0.242207,0.0543252,7,0.0126868,10,1.31579e-05,-4.265,0.432116,0.136537,0.291139,0.242207,
2,1,0,1,0,12404.8,0.244005,0.243685,0.0546752,7,0.0127867,10,1.33235e-05,-4.26221,0.493052,0.119663,0.254853,0.243685,
2,1,0,1,0,12406.3,0.245503,0.245206,0.0550741,7,0.0128874,10,1.35045e-05,-4.25905,0.490532,0.120277,0.257523,0.245206,
2,1,0,1,0,12407.8,0.247001,0.246722,0.0551592,7,0.012988,10,1.3609e-05,-4.25838,0.640377,0.0921333,0.19757,0.246722,
2,1,0,1,0,12409.3,0.248499,0.248177,0.0549999,7,0.0130889,10,1.36497e-05,-4.25964,0.597395,0.0987622,0.213528,0.248177,
2,1,0,1,0,12410.8,0.249997,0.249685,0.0558427,7,0.01319,10,1.39431e-05,-4.25303,0.436166,0.13527,0.29504,0.249685,
2,1,0,1,0,12412.3,0.251496,0.25123,0.0559216,7,0.0132919,10,1.40492e-05,-4.25242,0.738904,0.079848,0.173512,0.25123,
2,1,0,1,0,12413.8,0.252994,0.252708,0.05612,7,0.0133943,10,1.4182e-05,-4.25088,1.91297,0.0308421,0.0673385,0.2527079,
2,1,0,1,0,12415.3,0.254492,0.254216,0.05609,7,0.0134966,10,1.4259e-05,-4.25111,2.90797,0.0202891,0.0449112,0.254216,
2,1,0,1,0,12416.8,0.25599,0.255672,0.056227,7,0.0135987,10,1.43757e-05,-4.25005,1.35191,0.043642,0.096766,0.255672,
2,1,0,1,0,12418.3,0.257488,0.257217,0.0565482,7,0.0137015,10,1.45452e-05,-4.24758,1.25024,0.0471909,0.104906,0.257217,
2,1,0,1,0,12419.8,0.258987,0.25872,0.0571981,7,0.013805,10,1.47983e-05,-4.24262,0.852144,0.0692371,0.153947,0.2587204,
2,1,0,1,0,12421.3,0.260485,0.260209,0.0571666,7,0.0139087,10,1.48753e-05,-4.24286,-6.29379,-0.00937432,-0.0208902,0.2602092,
2,1,0,1,0,12422.8,0.261983,0.261679,0.0571391,7,0.0140122,10,1.49521e-05,-4.24307,4.03269,0.0146304,0.0328011,0.261679,
2,1,0,1,0,12424.3,0.263481,0.263172,0.0580473,7,0.0141165,10,1.52764e-05,-4.23622,2.42561,0.0243238,0.0546909,0.263172,
2,1,0,1,0,12425.8,0.264979,0.264671,0.0576094,7,0.0142208,10,1.52476e-05,-4.23951,-12.5631,-0.00469627,-0.010582,0.2646713,
2,1,0,1,0,12427.3,0.266477,0.26619,0.0584953,7,0.0143253,10,1.55709e-05,-4.23288,-3.12856,-0.0188585,-0.0425383,0.26619,
2,1,0,1,0,12428.8,0.267976,0.267667,0.0574454,7,0.0144298,10,1.53762e-05,-4.24074,0.893798,0.0660105,0.149501,0.267667,
2,1,0,1,0,12430.3,0.269474,0.269124,0.0580808,7,0.0145346,10,1.56309e-05,-4.23597,0.476752,0.123754,0.280932,0.269124,
2,1,0,1,0,12431.8,0.270972,0.270706,0.0586421,7,0.0146399,10,1.58748e-05,-4.23179,0.444037,0.132872,0.302779,0.270706,
2,1,0,1,0,12433.3,0.27247,0.272163,0.0585084,7,0.0147455,10,1.59238e-05,-4.23278,0.697979,0.0845298,0.193341,0.272163,
2,1,0,1,0,12434.8,0.273968,0.273658,0.0587266,7,0.0148513,10,1.6071e-05,-4.23117,3.66588,0.0160944,0.0369916,0.273658,
2,1,0,1,0,12436.3,0.275467,0.275157,0.0592805,7,0.0149576,10,1.63114e-05,-4.22709,0.627835,0.0939737,0.216052,0.275157,
2,1,0,1,0,12437.8,0.276965,0.276678,0.059212,7,0.0150639,10,1.63827e-05,-4.22759,-5.18029,-0.0113893,-0.0261669,0.276678,
2,1,0,1,0,12439.3,0.278463,0.278204,0.0595752,7,0.0151704,10,1.65741e-05,-4.22493,-0.773737,-0.0762533,-0.17636,0.2782042,
2,1,0,1,0,12440.7,0.279961,0.279711,0.0592703,7,0.0152768,10,1.65786e-05,-4.22716,60.7152,0.00097175,0.00224174,0.279711,
2,1,0,1,0,12442.2,0.281459,0.281125,0.0590579,7,0.015383,10,1.66026e-05,-4.22872,-15.4919,-0.00380845,-0.00883394,0.281125,
2,1,0,1,0,12443.7,0.282958,0.282634,0.0592565,7,0.0154897,10,1.67479e-05,-4.22726,0.928921,0.0635146,0.147785,0.282634,
2,1,0,1,0,12445.2,0.284456,0.284116,0.0596589,7,0.0155966,10,1.695e-05,-4.22432,0.632272,0.0933143,0.218306,0.284116,
2,1,0,1,0,12446.7,0.285954,0.28567,0.060442,7,0.0157043,10,1.72664e-05,-4.21866,-5.09157,-0.0115878,-0.0269584,0.28567,
2,1,0,1,0,12448.2,0.287452,0.287165,0.0599121,7,0.0158119,10,1.72046e-05,-4.22249,1.6176,0.0364738,0.0863749,0.287165,
2,1,0,1,0,12449.7,0.28895,0.288608,0.0604426,7,0.0159194,10,1.74442e-05,-4.21866,0.515347,0.114486,0.270794,0.288608,
2,1,0,1,0,12451.2,0.290448,0.290172,0.0605645,7,0.0160276,10,1.75741e-05,-4.21778,0.813707,0.0725077,0.171942,0.290172,
2,1,0,1,0,12452.7,0.291947,0.291618,0.0609025,7,0.016136,10,1.77603e-05,-4.21537,2.81401,0.0209665,0.0501515,0.291618,
2,1,0,1,0,12454.2,0.293445,0.293142,0.0612996,7,0.0162446,10,1.79695e-05,-4.21254,5.51349,0.010701,0.0254546,0.293142,
2,1,0,1,0,12455.7,0.294943,0.29468,0.0611501,7,0.0163533,10,1.80197e-05,-4.2136,-2.97491,-0.0198325,-0.0473554,0.29468,
2,1,0,1,0,12457.2,0.296441,0.296143,0.0611443,7,0.0164619,10,1.81075e-05,-4.21364,1.667,0.0353929,0.0846305,0.296143,
2,1,0,1,0,12458.7,0.297939,0.297658,0.0613414,7,0.0165708,10,1.82588e-05,-4.21225,0.771383,0.076486,0.183016,0.297658,
2,1,0,1,0,12460.2,0.299438,0.299149,0.0610652,7,0.0166796,10,1.82676e-05,-4.21421,-0.00515233,-11.4511,-18.8393,0.2991493,
2,1,0,1,0,12461.1,0.299737,0.299419,0.0331786,7,0.016728,10,9.93429e-06,-4.47914,0.00256094,23.0384,33.1332,0.299419,
2,1,0,1,0,12462.6,0.298239,0.297953,0.02234,7,0.01675,10,6.65627e-06,-4.65092,0.00652664,9.03987,12.0498,0.297953,
2,1,0,1,0,12464.1,0.296741,0.296451,0.0178489,7,0.0167625,10,5.29132e-06,-4.74839,0.0163849,3.60087,2.56999,0.296451,
2,1,0,1,0,12465.6,0.295243,0.29496,0.0143745,7,0.0167695,10,4.23991e-06,-4.84241,0.0188845,3.12425,1.82795,0.29496,
2,1,0,1,0,12467.1,0.293745,0.293428,0.0121233,7,0.0167724,10,3.55733e-06,-4.91638,0.0180675,3.26553,1.56756,0.293428,
2,1,0,1,0,12468.6,0.292246,0.292,0.0101603,7,0.0167721,10,2.96681e-06,-4.99309,0.0180056,3.27675,1.29484,0.292,
2,1,0,1,0,12470.1,0.290748,0.290454,0.0078706,7,0.0167688,10,2.28605e-06,-5.10399,0.0165944,3.55542,1.13931,0.290454,
2,1,0,1,0,12471.6,0.28925,0.288947,0.00671977,7,0.0167628,10,1.94166e-06,-5.17265,0.0174676,3.37769,0.884567,0.288947,
2,1,0,1,0,12473.1,0.287752,0.287466,0.00502369,7,0.0167546,10,1.44414e-06,-5.29898,0.0137147,4.30195,0.859531,0.287466,
2,1,0,1,0,12474.6,0.286254,0.285974,0.00404708,7,0.0167445,10,1.15736e-06,-5.39286,0.0100627,5.86325,0.852034,0.285974,
2,1,0,1,0,12476.1,0.284755,0.284491,0.00286205,7,0.0167326,10,8.14229e-07,-5.54332,0.00512498,11.5122,0.889517,0.284491,
2,1,0,1,0,12477.6,0.283257,0.282953,0.00116575,7,0.0167183,10,3.29851e-07,-5.9334,0.00324367,18.1893,0.927198,0.282953,
2,1,0,1,0,12479.1,0.281759,0.281477,0.000163077,7,0.0167023,10,4.59024e-08,-6.78761,0.0799308,0.738139,0.80258,0.281477,
2,0,0,1,0,12480.6,0.280261,0.279987,-0.000613837,7,0.0166847,10,-1.71866e-07,-6.21195,-0.00593811,-9.93582,0.749174,0.2799868,
2,0,0,1,0,12482,0.278763,0.27847,-0.00214987,7,0.0166651,10,-5.98676e-07,-5.66759,-0.00557923,-10.5749,0.70668,0.2784704,
2,1,0,1,0,12483.5,0.277264,0.276962,-0.00313289,7,0.0166437,10,-8.67693e-07,-5.50405,-0.0096887,-6.08957,0.683357,0.276962,
2,1,0,1,0,12485,0.275766,0.275458,-0.0046358,7,0.016621,10,-1.27697e-06,-5.33387,-0.0192545,-3.06421,0.450509,0.275458,
2,1,0,1,0,12486.5,0.274268,0.273976,-0.00505282,7,0.0165967,10,-1.38435e-06,-5.29647,-0.0182371,-3.23517,0.609833,0.273976,
2,0,0,1,0,12488,0.27277,0.272476,-0.00576766,7,0.0165716,10,-1.57155e-06,-5.239,-0.0226743,-2.60207,0.598385,0.272476,
2,0,0,1,0,12489.5,0.271272,0.27095,-0.00682416,7,0.0165449,10,-1.84901e-06,-5.16595,-0.0284951,-2.07053,0.527689,0.27095,
2,1,0,1,0,12491,0.269774,0.26946,-0.00776008,7,0.0165168,10,-2.09103e-06,-5.11013,-0.0347905,-1.69587,0.471928,0.26946,
2,0,0,1,0,12492.5,0.268275,0.267967,-0.00835887,7,0.0164878,10,-2.2399e-06,-5.07785,-0.0361535,-1.63193,0.509361,0.2679671,
2,0,0,1,0,12494,0.266777,0.26647,-0.00930619,7,0.0164579,10,-2.47982e-06,-5.03123,-0.0391533,-1.5069,0.538352,0.26647,
2,1,0,1,0,12495.5,0.265279,0.264998,-0.00993162,7,0.0164265,10,-2.63186e-06,-5.00298,-0.0424637,-1.38942,0.533722,0.264998,
2,0,0,1,0,12497,0.263781,0.263487,-0.0101834,7,0.0163937,10,-2.68318e-06,-4.99211,-0.0428772,-1.37602,0.57192,0.2634868,
2,0,0,1,0,12498.5,0.262283,0.261971,-0.0110583,7,0.0163599,10,-2.89696e-06,-4.95631,-0.0569892,-1.03528,0.463809,0.261971,
2,0,0,1,0,12500,0.260784,0.260524,-0.012569,7,0.0163252,10,-3.27452e-06,-4.9007,-0.0525926,-1.12183,0.520573,0.260524,
2,0,0,1,0,12501.5,0.259286,0.258998,-0.0129917,7,0.0162888,10,-3.36483e-06,-4.88633,-0.0615611,-0.958397,0.462689,0.258998,
2,0,0,1,0,12503,0.257788,0.257486,-0.013522,7,0.0162518,10,-3.48173e-06,-4.86896,-0.0908327,-0.649545,0.338271,0.257486,
2,0,0,1,0,12504.5,0.25629,0.255965,-0.0134881,7,0.0162141,10,-3.45248e-06,-4.87005,-0.0695819,-0.847922,0.454697,0.255965,
2,1,0,1,0,12506,0.254792,0.254475,-0.0142546,7,0.0161755,10,-3.62743e-06,-4.84605,-0.0586823,-1.00541,0.570214,0.254475,
2,0,0,1,0,12507.5,0.253293,0.252996,-0.0153969,7,0.0161357,10,-3.89537e-06,-4.81257,-0.0748959,-0.78776,0.466759,0.252996,
2,0,0,1,0,12509,0.251795,0.251467,-0.0162821,7,0.0160945,10,-4.09441e-06,-4.78829,-0.0800002,-0.737498,0.458533,0.251467,
2,0,0,1,0,12510.5,0.250297,0.250006,-0.0165298,7,0.0160523,10,-4.13254e-06,-4.78173,-0.0819807,-0.719682,0.471616,0.250006,
2,0,0,1,0,12512,0.248799,0.248484,-0.0179509,7,0.0160089,10,-4.4605e-06,-4.74591,-0.0756819,-0.779579,0.530817,0.248484,
2,0,0,1,0,12513.5,0.247301,0.24701,-0.0183963,7,0.0159643,10,-4.54408e-06,-4.73527,-0.117305,-0.502961,0.358869,0.24701,
2,0,0,1,0,12515,0.245802,0.245534,-0.018788,7,0.0159188,10,-4.6131e-06,-4.72612,-0.120306,-0.490417,0.364127,0.245534,
2,0,0,1,0,12516.5,0.244304,0.244015,-0.0196751,7,0.0158723,10,-4.801e-06,-4.70608,-0.108111,-0.545736,0.410842,0.244015,
2,0,0,1,0,12518,0.242806,0.242568,-0.0201656,7,0.0158251,10,-4.89153e-06,-4.69539,-0.178442,-0.330639,0.2567,0.242568,
2,0,0,1,0,12519.5,0.241308,0.240979,-0.0207719,7,0.0157773,10,-5.0056e-06,-4.68252,-0.137534,-0.428985,0.347299,0.240979,
2,0,0,1,0,12521,0.23981,0.239488,-0.0211202,7,0.0157285,10,-5.05804e-06,-4.6753,-0.115191,-0.512191,0.420237,0.239488,
2,0,0,1,0,12522.5,0.238312,0.237995,-0.0216649,7,0.0156786,10,-5.15613e-06,-4.66424,-0.208847,-0.282503,0.237973,0.237995,
2,0,0,1,0,12524,0.236813,0.236464,-0.0220025,7,0.0156281,10,-5.20281e-06,-4.65753,-0.165547,-0.356394,0.310304,0.2364645,
2,0,0,1,0,12525.5,0.235315,0.234999,-0.0224942,7,0.0155771,10,-5.28611e-06,-4.64793,-0.115605,-0.510357,0.4571,0.234999,
2,0,0,1,0,12527,0.233817,0.233514,-0.0231149,7,0.015525,10,-5.39766e-06,-4.63611,-0.140115,-0.421083,0.378756,0.233514,
2,0,0,1,0,12528.5,0.232319,0.232008,-0.0239981,7,0.0154717,10,-5.56773e-06,-4.61982,-0.119911,-0.492032,0.460703,0.232008,
2,0,0,1,0,12530,0.230821,0.230471,-0.0242642,7,0.0154176,10,-5.5922e-06,-4.61503,-0.114571,-0.514964,0.482371,0.230471,
2,0,0,1,0,12531.5,0.229322,0.229012,-0.024838,7,0.0153628,10,-5.68821e-06,-4.60488,-0.188828,-0.312454,0.30467,0.229012,
2,0,0,1,0,12533,0.227824,0.227531,-0.0256227,7,0.0153072,10,-5.82995e-06,-4.59138,-0.146025,-0.404041,0.397524,0.2275306,
2,0,0,1,0,12534.5,0.226326,0.226019,-0.0258669,7,0.015251,10,-5.84641e-06,-4.58726,-0.189648,-0.311103,0.319487,0.226019,
2,0,0,1,0,12536,0.224828,0.22453,-0.0266451,7,0.0151938,10,-5.98261e-06,-4.57438,-0.150492,-0.392047,0.403348,0.22453,
2,0,0,1,0,12537.5,0.22333,0.223013,-0.027352,7,0.0151354,10,-6.09986e-06,-4.56301,-0.135868,-0.434247,0.459706,0.223013,
2,0,0,1,0,12539,0.221831,0.221546,-0.0280344,7,0.0150764,10,-6.2109e-06,-4.55231,-0.150025,-0.393268,0.431425,0.221546,
2,0,0,1,0,12540.5,0.220333,0.220063,-0.0287041,7,0.0150162,10,-6.31672e-06,-4.54206,-0.186098,-0.317037,0.349241,0.220063,
2,0,0,1,0,12542,0.218835,0.218574,-0.0292309,7,0.0149549,10,-6.38912e-06,-4.53416,-0.193777,-0.304473,0.344038,0.218574,
2,0,0,1,0,12543.5,0.217337,0.217025,-0.0299009,7,0.0148928,10,-6.48924e-06,-4.52432,-0.181127,-0.325738,0.378108,0.217025,
2,0,0,1,0,12545,0.215839,0.215551,-0.0299012,7,0.0148304,10,-6.44523e-06,-4.52431,-0.210674,-0.280054,0.33063,0.215551,
2,0,0,1,0,12546.5,0.21434,0.213998,-0.0309374,7,0.0147668,10,-6.62053e-06,-4.50952,-0.145575,-0.40529,0.48824,0.213998,
2,0,0,1,0,12548,0.212842,0.212521,-0.0309635,7,0.0147024,10,-6.58039e-06,-4.50915,-0.195517,-0.301763,0.368908,0.212521,
2,0,0,1,0,12549.5,0.211344,0.21104,-0.031528,7,0.0146372,10,-6.65368e-06,-4.5013,-0.234478,-0.251623,0.313571,0.21104,
2,0,0,1,0,12551,0.209846,0.209567,-0.0319876,7,0.0145713,10,-6.70356e-06,-4.49502,-0.154297,-0.382381,0.479916,0.209567,
2,0,0,1,0,12552.5,0.208348,0.208034,-0.032845,7,0.0145044,10,-6.83288e-06,-4.48353,-0.170809,-0.345415,0.440878,0.208034,
2,0,0,1,0,12554,0.20685,0.206534,-0.0338416,7,0.0144365,10,-6.98943e-06,-4.47055,-0.336051,-0.175568,0.230628,0.206534,
2,0,0,1,0,12555.5,0.205351,0.205046,-0.0338983,7,0.0143675,10,-6.95071e-06,-4.46982,-0.295729,-0.199507,0.261536,0.205046,
2,0,0,1,0,12557,0.203853,0.203509,-0.0347616,7,0.0142981,10,-7.0743e-06,-4.4589,-0.240893,-0.244922,0.332207,0.203509,
2,0,0,1,0,12558.5,0.202355,0.201986,-0.0350107,7,0.0142277,10,-7.07169e-06,-4.4558,-0.140061,-0.421245,0.581766,0.201986,
2,0,0,1,0,12560,0.200857,0.200518,-0.0356753,7,0.0141564,10,-7.15354e-06,-4.44763,-0.268615,-0.219645,0.310091,0.200518,
2,0,0,1,0,12561.5,0.199359,0.199067,-0.036504,7,0.0140838,10,-7.26675e-06,-4.43766,-0.192795,-0.306025,0.433118,0.199067,
2,0,0,1,0,12563,0.19786,0.197543,-0.0369149,7,0.0140104,10,-7.2923e-06,-4.4328,-0.228319,-0.25841,0.376702,0.197543,
2,0,0,1,0,12564.5,0.196362,0.196031,-0.0382387,7,0.0139361,10,-7.49597e-06,-4.4175,-0.188984,-0.312196,0.459347,0.196031,
2,0,0,1,0,12565.9,0.194864,0.194554,-0.0388842,7,0.0138602,10,-7.56508e-06,-4.41023,-0.206477,-0.285746,0.428325,0.194554,
2,0,0,1,0,12567.4,0.193366,0.19301,-0.039327,7,0.0137835,10,-7.5905e-06,-4.40531,-0.189961,-0.31059,0.476404,0.19301,
2,0,0,1,0,12568.9,0.191868,0.191496,-0.0397228,7,0.0137058,10,-7.60675e-06,-4.40096,-0.212736,-0.27734,0.431079,0.191496,
2,0,0,1,0,12570.4,0.190369,0.190089,-0.0404087,7,0.0136271,10,-7.68123e-06,-4.39353,-0.18746,-0.314734,0.498457,0.190089,
2,0,0,1,0,12571.9,0.188871,0.188527,-0.0412614,7,0.0135472,10,-7.77888e-06,-4.38446,-0.152254,-0.387511,0.628014,0.188527,
2,0,0,1,0,12573.4,0.187373,0.187104,-0.0425016,7,0.0134657,10,-7.9522e-06,-4.37159,-0.181842,-0.324458,0.532597,0.187104,
2,0,0,1,0,12574.9,0.185875,0.185538,-0.0429908,7,0.0133832,10,-7.97645e-06,-4.36662,-0.245218,-0.240602,0.406617,0.185538,
2,0,0,1,0,12576.4,0.184377,0.184051,-0.0431189,7,0.0132998,10,-7.93606e-06,-4.36533,-0.193479,-0.304943,0.519103,0.184051,
2,0,0,1,0,12577.9,0.182878,0.182601,-0.0445505,7,0.013215,10,-8.13496e-06,-4.35115,-0.156056,-0.378068,0.658801,0.182601,
2,0,0,1,0,12579.4,0.18138,0.181085,-0.0453363,7,0.0131287,10,-8.20971e-06,-4.34355,-0.175421,-0.336333,0.593069,0.181085,
2,0,0,1,0,12580.9,0.179882,0.179593,-0.0461715,7,0.0130411,10,-8.29207e-06,-4.33563,-0.220657,-0.267383,0.485503,0.179593,
2,0,0,1,0,12582.4,0.178384,0.178063,-0.0471572,7,0.0129522,10,-8.39693e-06,-4.32645,-0.17172,-0.343582,0.631619,0.178063,
2,0,0,1,0,12583.9,0.176886,0.17658,-0.0477944,7,0.0128622,10,-8.43954e-06,-4.32062,-0.161565,-0.365178,0.682943,0.17658,
2,0,0,1,0,12585.4,0.175388,0.175078,-0.0485125,7,0.0127707,10,-8.49346e-06,-4.31415,-0.177753,-0.33192,0.635332,0.175078,
2,0,0,1,0,12586.9,0.173889,0.173546,-0.0498867,7,0.0126777,10,-8.65766e-06,-4.30202,-0.178809,-0.32996,0.640832,0.173546,
2,0,0,1,0,12588.4,0.172391,0.172048,-0.0509204,7,0.0125827,10,-8.76075e-06,-4.29311,-0.150771,-0.391322,0.775507,0.172048,
2,0,0,1,0,12589.9,0.170893,0.170565,-0.0518588,7,0.0124865,10,-8.84532e-06,-4.28518,-0.169356,-0.348378,0.709094,0.170565,
2,0,0,1,0,12591.4,0.169395,0.169123,-0.0533195,7,0.0123883,10,-9.01757e-06,-4.27311,-0.133428,-0.442184,0.916479,0.169123,
2,0,0,1,0,12592.9,0.167897,0.167618,-0.054616,7,0.012288,10,-9.1546e-06,-4.26268,-0.130588,-0.451801,0.960851,0.1676176,
2,0,0,1,0,12594.4,0.166398,0.166038,-0.0554662,7,0.0121858,10,-9.20947e-06,-4.25597,-0.13435,-0.439153,0.964344,0.166038,
2,0,0,1,0,12595.9,0.1649,0.164576,-0.0575156,7,0.0120813,10,-9.4657e-06,-4.24021,-0.124539,-0.473747,1.06678,0.164576,
2,0,0,1,0,12597.4,0.163402,0.163137,-0.0591722,7,0.0119741,10,-9.65319e-06,-4.22788,-0.110995,-0.531557,1.22809,0.163137,
2,0,0,1,0,12598.9,0.161904,0.161582,-0.061176,7,0.0118643,10,-9.88492e-06,-4.21342,-0.122951,-0.479866,1.138,0.161582,
2,0,0,1,0,12600.4,0.160406,0.160102,-0.0633081,7,0.0117512,10,-1.01358e-05,-4.19854,-0.101357,-0.582103,1.42807,0.160102,
2,0,0,1,0,12601.9,0.158907,0.158605,-0.0644386,7,0.0116354,10,-1.02203e-05,-4.19085,-0.10171,-0.58008,1.47617,0.158605,
2,0,0,1,0,12603.4,0.157409,0.157084,-0.0677551,7,0.0115159,10,-1.06432e-05,-4.16906,-0.0939498,-0.627995,1.64897,0.157084,
2,0,0,1,0,12604.9,0.155911,0.155548,-0.0701182,7,0.0113926,10,-1.09068e-05,-4.15417,-0.0944945,-0.624375,1.70312,0.155548,
2,0,0,1,0,12606.4,0.154413,0.154088,-0.0724657,7,0.0112653,10,-1.11661e-05,-4.13987,-0.0947393,-0.622762,1.76274,0.154088,
2,0,0,1,0,12607.9,0.152915,0.152596,-0.0754428,7,0.0111338,10,-1.15123e-05,-4.12238,-0.0884213,-0.66726,1.98259,0.152596,
2,0,0,1,0,12609.4,0.151417,0.151089,-0.0791545,7,0.0109976,10,-1.19594e-05,-4.10152,-0.081838,-0.720936,2.22377,0.1510891,
2,0,0,1,0,12610.9,0.149918,0.14955,-0.0824917,7,0.0108561,10,-1.23367e-05,-4.08359,-0.0732202,-0.805788,2.59917,0.14955,
2,0,0,1,0,12612.4,0.14842,0.148078,-0.0862725,7,0.0107088,10,-1.2775e-05,-4.06413,-0.0758084,-0.778278,2.62855,0.148078,
2,0,0,1,0,12613.9,0.146922,0.146639,-0.0901141,7,0.0105554,10,-1.32142e-05,-4.04521,-0.0661944,-0.891314,3.15579,0.146639,
2,0,0,1,0,12615.4,0.145424,0.145121,-0.0951111,7,0.0103958,10,-1.38026e-05,-4.02177,-0.0634268,-0.930206,3.45788,0.145121,
2,0,0,1,0,12616.9,0.143926,0.143631,-0.100157,7,0.0102283,10,-1.43857e-05,-3.99932,-0.0612282,-0.963609,3.75699,0.143631,
2,0,0,1,0,12618.4,0.142427,0.142062,-0.105918,7,0.0100521,10,-1.50469e-05,-3.97503,-0.0624521,-0.944724,3.90109,0.142062,
2,0,0,1,0,12619.9,0.140929,0.140614,-0.11132,7,0.00986789,10,-1.56532e-05,-3.95343,-0.0689376,-0.855847,3.73787,0.140614,
2,0,0,1,0,12621.4,0.139431,0.13913,-0.116619,7,0.00967532,10,-1.62252e-05,-3.93323,-0.0689411,-0.855803,3.92199,0.13913,
2,0,0,1,0,12622.9,0.137933,0.137594,-0.123138,7,0.00947413,10,-1.69431e-05,-3.90961,-0.0761492,-0.774794,3.71432,0.1375943,
2,0,0,1,0,12624.4,0.136435,0.136129,-0.12852,7,0.00926389,10,-1.74952e-05,-3.89103,-0.0840948,-0.70159,3.50119,0.136129,
2,0,0,1,0,12625.9,0.134936,0.134649,-0.133428,7,0.00904579,10,-1.79658e-05,-3.87475,-0.0954922,-0.617852,3.21616,0.134649,
2,0,0,1,0,12627.4,0.133438,0.133094,-0.137566,7,0.00882062,10,-1.83092e-05,-3.86149,-0.108221,-0.545181,2.93405,0.133094,
2,0,0,1,0,12628.9,0.13194,0.131604,-0.142339,7,0.00858889,10,-1.87323e-05,-3.84668,-0.132667,-0.444724,2.47712,0.131604,
2,0,0,1,0,12630.4,0.130442,0.130128,-0.1456,7,0.00835096,10,-1.89467e-05,-3.83684,-0.168994,-0.349126,1.98922,0.130128,
2,0,0,1,0,12631.9,0.128944,0.128643,-0.149371,7,0.00810799,10,-1.92156e-05,-3.82573,-0.22543,-0.261722,1.51409,0.128643,
2,0,0,1,0,12633.4,0.127445,0.127139,-0.151512,7,0.00786102,10,-1.9263e-05,-3.81955,-0.290164,-0.203334,1.19539,0.127139,
2,0,0,1,0,12634.9,0.125947,0.125594,-0.153249,7,0.0076118,10,-1.92471e-05,-3.8146,-0.412628,-0.142986,0.851378,0.125594,
2,0,0,1,0,12636.4,0.124449,0.124155,-0.154009,7,0.00736023,10,-1.91209e-05,-3.81245,-0.627832,-0.0939742,0.561622,0.124155,
2,0,0,1,0,12637.9,0.122951,0.122635,-0.154895,7,0.00710707,10,-1.89956e-05,-3.80996,-0.979308,-0.0602467,0.362048,0.122635,
2,0,0,1,0,12639.4,0.121453,0.121152,-0.1553,7,0.00685387,10,-1.88148e-05,-3.80883,4.6338,0.0127325,-0.0766125,0.121152,
2,0,0,1,0,12640.9,0.119955,0.119641,-0.154763,7,0.00660102,10,-1.85159e-05,-3.81033,46.0313,0.00128174,-0.00773746,0.1196406,
2,0,0,1,0,12642.4,0.118456,0.118152,-0.154276,7,0.00634835,10,-1.8228e-05,-3.8117,310.096,0.000190263,-0.00114271,0.118152,
2,0,0,1,0,12643.9,0.116958,0.11661,-0.15397,7,0.00609562,10,-1.79544e-05,-3.81256,1.92246,0.0306898,-0.184029,0.11661,
2,0,0,1,0,12645.4,0.11546,0.115155,-0.15351,7,0.00584385,10,-1.76774e-05,-3.81386,0.749557,0.0787131,-0.471642,0.115155,
2,0,0,1,0,12646.9,0.113962,0.113622,-0.151791,7,0.00559321,10,-1.72468e-05,-3.81875,0.558501,0.10564,-0.628788,0.113622,
2,0,0,1,0,12648.3,0.112464,0.112111,-0.152142,7,0.00534348,10,-1.70567e-05,-3.81775,0.535515,0.110174,-0.652153,0.112111,
2,0,0,1,0,12649.8,0.110965,0.110699,-0.15115,7,0.00509476,10,-1.67321e-05,-3.82059,0.561777,0.105024,-0.618127,0.110699,
2,0,0,1,0,12651.3,0.109467,0.109134,-0.150526,7,0.00484755,10,-1.64275e-05,-3.82239,0.466624,0.12644,-0.740907,0.109134,
2,0,0,1,0,12652.8,0.107969,0.107653,-0.14897,7,0.00460155,10,-1.60371e-05,-3.8269,0.682474,0.0864501,-0.504906,0.107653,
2,0,0,1,0,12654.3,0.106471,0.106148,-0.148864,7,0.00435702,10,-1.58016e-05,-3.82721,0.891622,0.0661716,-0.385057,0.106148,
2,0,0,1,0,12655.8,0.104973,0.104668,-0.14764,7,0.00411339,10,-1.54531e-05,-3.8308,0.58354,0.101107,-0.58435,0.104668,
2,0,0,1,0,12657.3,0.103474,0.103144,-0.146354,7,0.00387107,10,-1.50956e-05,-3.83459,0.366212,0.161109,-0.919414,0.103144,
2,0,0,1,0,12658.8,0.101976,0.101671,-0.145726,7,0.00363062,10,-1.48161e-05,-3.83646,0.416221,0.141752,-0.804037,0.1016709,
2,0,0,1,0,12660.3,0.100478,0.100134,-0.143908,7,0.00339287,10,-1.44101e-05,-3.84192,0.35838,0.16463,-0.927071,0.100134,
2,0,0,1,0,12661.8,0.0989798,0.0986541,-0.142928,7,0.0031566,10,-1.41004e-05,-3.84488,0.415192,0.142103,-0.790235,0.0986541,
2,0,0,1,0,12663.3,0.0974816,0.0971578,-0.142067,7,0.00292213,10,-1.38029e-05,-3.84751,0.360261,0.16377,-0.902288,0.0971578,
2,0,0,1,0,12664.8,0.0959834,0.095635,-0.140069,7,0.00268973,10,-1.33955e-05,-3.85366,0.385118,0.1532,-0.838945,0.095635,
2,0,0,1,0,12666.3,0.0944852,0.0942013,-0.138675,7,0.00246006,10,-1.30633e-05,-3.858,0.315211,0.187176,-1.01532,0.0942013,
2,0,0,1,0,12667.8,0.0929871,0.0927116,-0.137308,7,0.00223195,10,-1.27301e-05,-3.8623,0.537478,0.109772,-0.588154,0.09271159,
2,0,0,1,0,12669.3,0.0914889,0.0911601,-0.136152,7,0.00200582,10,-1.24116e-05,-3.86598,0.384249,0.153546,-0.818336,0.0911601,
2,0,0,1,0,12670.8,0.0899907,0.0897064,-0.135002,7,0.00178172,10,-1.21105e-05,-3.86966,0.343388,0.171818,-0.901676,0.0897064,
2,0,0,1,0,12672.3,0.0884925,0.0881772,-0.13275,7,0.00155982,10,-1.17055e-05,-3.87697,0.29708,0.198599,-1.03253,0.0881772,
2,0,0,1,0,12673.8,0.0869943,0.0866662,-0.132695,7,0.00134047,10,-1.15002e-05,-3.87715,0.38143,0.154681,-0.797582,0.0866662,
2,0,0,1,0,12675.3,0.0854961,0.085171,-0.131376,7,0.00112254,10,-1.11894e-05,-3.88149,0.349536,0.168795,-0.860348,0.085171,
2,0,0,1,0,12676.8,0.083998,0.0836929,-0.130168,7,0.000906146,10,-1.08942e-05,-3.88549,0.377838,0.156151,-0.789485,0.0836929,
2,0,0,1,0,12678.3,0.0824998,0.0821722,-0.128874,7,0.000691398,10,-1.05898e-05,-3.88984,0.485494,0.121526,-0.61238,0.0821722,
2,0,0,1,0,12679.8,0.0810016,0.080729,-0.12745,7,0.000478599,10,-1.02889e-05,-3.89466,0.429696,0.137306,-0.686456,0.080729,
2,0,0,1,0,12681.3,0.0795034,0.0791914,-0.127776,7,0.000266523,10,-1.01187e-05,-3.89355,0.483292,0.122079,-0.604142,0.0791914,
2,0,0,1,0,12682.8,0.0780052,0.0776602,-0.12619,7,5.59187e-05,10,-9.79995e-06,-3.89897,0.418912,0.140841,-0.692887,0.0776602,
2,0,0,1,0,12684.3,0.076507,0.076201,-0.125809,7,-0.000153463,10,-9.58675e-06,-3.90029,0.891588,0.0661741,-0.32401,0.076201,
2,0,0,1,0,12685.8,0.0750088,0.0746899,-0.12478,7,-0.000361212,10,-9.31981e-06,-3.90385,0.494937,0.119207,-0.580709,0.07468988,
2,0,0,1,0,12687.3,0.0735106,0.0731831,-0.124148,7,-0.000568422,10,-9.08554e-06,-3.90606,0.596844,0.0988533,-0.477177,0.0731831,
2,0,0,1,0,12688.8,0.0720124,0.0716869,-0.123372,7,-0.000774689,10,-8.84417e-06,-3.90878,0.471993,0.125002,-0.601163,0.0716869,
2,0,0,1,0,12690.3,0.0705142,0.0701938,-0.122185,7,-0.000979368,10,-8.57662e-06,-3.91298,0.47587,0.123983,-0.593371,0.07019379,
2,0,0,1,0,12691.8,0.069016,0.0686976,-0.121178,7,-0.00118244,10,-8.32464e-06,-3.91658,0.909102,0.0648992,-0.308844,0.0686976,
2,0,0,1,0,12693.3,0.0675178,0.0671928,-0.120785,7,-0.00138478,10,-8.11586e-06,-3.91799,3.54127,0.0166607,-0.0788218,0.0671928,
2,0,0,1,0,12694.8,0.0660196,0.065722,-0.121595,7,-0.00158693,10,-7.99145e-06,-3.91509,0.819979,0.071953,-0.338896,0.065722,
2,0,0,1,0,12696.3,0.0645214,0.0642088,-0.120515,7,-0.00178861,10,-7.73816e-06,-3.91896,0.827759,0.0712768,-0.333401,0.0642088,
2,0,0,1,0,12697.8,0.0630233,0.0627053,-0.118718,7,-0.00198867,10,-7.44423e-06,-3.92548,0.562308,0.104925,-0.488998,0.0627053,
2,0,0,1,0,12699.3,0.0615251,0.0612132,-0.118758,7,-0.00218755,10,-7.26958e-06,-3.92534,0.679091,0.0868808,-0.402682,0.0612132,
2,0,0,1,0,12700.8,0.0600269,0.0596852,-0.118246,7,-0.00238562,10,-7.05755e-06,-3.92721,0.566018,0.104237,-0.480891,0.0596852,
2,0,0,1,0,12702.3,0.0585287,0.058206,-0.117485,7,-0.00258289,10,-6.83831e-06,-3.93002,0.449913,0.131136,-0.599992,0.058206,
2,0,0,1,0,12703.8,0.0570305,0.0567065,-0.116908,7,-0.00277934,10,-6.62945e-06,-3.93216,0.65019,0.0907428,-0.415555,0.0567065,
2,0,0,1,0,12705.3,0.0555323,0.055224,-0.116682,7,-0.00297458,10,-6.44365e-06,-3.933,1.09361,0.0539495,-0.245177,0.055224,
2,0,0,1,0,12706.8,0.0540342,0.0537237,-0.116084,7,-0.00316937,10,-6.23644e-06,-3.93523,0.634803,0.0929423,-0.42082,0.0537237,
2,0,0,1,0,12708.3,0.052536,0.0522476,-0.115536,7,-0.00336357,10,-6.0365e-06,-3.93728,0.69712,0.084634,-0.380419,0.0522476,
2,0,0,1,0,12709.8,0.0510378,0.0507238,-0.114675,7,-0.00355664,10,-5.81677e-06,-3.94053,0.482533,0.122271,-0.548305,0.0507238,
2,0,0,1,0,12711.3,0.0495396,0.0491914,-0.114317,7,-0.00374836,10,-5.6234e-06,-3.94189,0.594803,0.0991926,-0.441871,0.0491914,
2,0,0,1,0,12712.8,0.0480414,0.0477355,-0.113084,7,-0.0039392,10,-5.39812e-06,-3.9466,1.36096,0.0433516,-0.192056,0.0477355,
2,0,0,1,0,12714.3,0.0465432,0.0462573,-0.112273,7,-0.00412894,10,-5.19347e-06,-3.94972,0.509193,0.11587,-0.511479,0.0462573,
2,0,0,1,0,12715.8,0.045045,0.0447048,-0.111659,7,-0.00431797,10,-4.99171e-06,-3.95211,0.698276,0.0844938,-0.370955,0.04470484,
2,0,0,1,0,12717.3,0.0435468,0.0431927,-0.111806,7,-0.00450585,10,-4.82918e-06,-3.95154,0.663431,0.0889317,-0.387966,0.0431927,
2,0,0,1,0,12718.8,0.0420486,0.0417315,-0.1112,7,-0.00469338,10,-4.64054e-06,-3.9539,0.802197,0.073548,-0.318269,0.0417315,
2,0,0,1,0,12720.3,0.0405504,0.0401641,-0.111188,7,-0.00488025,10,-4.46575e-06,-3.95394,0.577347,0.102192,-0.440135,0.0401641,
2,0,0,1,0,12721.8,0.0390522,0.0386891,-0.110366,7,-0.00506625,10,-4.26995e-06,-3.95717,0.511831,0.115272,-0.495354,0.0386891,
2,0,0,1,0,12723.3,0.037554,0.0372109,-0.109388,7,-0.00525105,10,-4.07041e-06,-3.96103,0.494348,0.119349,-0.510379,0.0372109,
2,0,0,1,0,12724.8,0.0360558,0.035738,-0.109378,7,-0.00543494,10,-3.90896e-06,-3.96107,0.853975,0.0690887,-0.295231,0.035738,
2,0,0,1,0,12726.3,0.0345576,0.0342375,-0.108689,7,-0.00561841,10,-3.72126e-06,-3.96381,0.635088,0.0929005,-0.39413,0.0342375,
2,0,0,1,0,12727.8,0.0330594,0.0327391,-0.107711,7,-0.00580123,10,-3.52636e-06,-3.96774,0.328289,0.17972,-0.755041,0.0327391,
2,0,0,1,0,12729.3,0.0315613,0.031243,-0.107051,7,-0.00598275,10,-3.3446e-06,-3.97041,0.489668,0.12049,-0.505658,0.031243,
2,0,0,1,0,12730.7,0.0300631,0.0297277,-0.106631,7,-0.00616275,10,-3.16988e-06,-3.97212,1.15523,0.0510723,-0.212821,0.0297277,
2,0,0,1,0,12732.2,0.0285649,0.0282728,-0.106487,7,-0.00634251,10,-3.0107e-06,-3.9727,0.688021,0.0857532,-0.354406,0.0282728,
2,0,0,1,0,12733.7,0.0270667,0.0267575,-0.106139,7,-0.00652196,10,-2.84002e-06,-3.97412,1.24046,0.047563,-0.196248,0.0267575,
2,0,0,1,0,12735.2,0.0255685,0.0252124,-0.10603,7,-0.00670015,10,-2.67328e-06,-3.97457,0.620236,0.095125,-0.392051,0.0252124,
2,0,0,1,0,12736.7,0.0240703,0.0237639,-0.104826,7,-0.0068777,10,-2.49107e-06,-3.97953,-5.33956,-0.0110496,0.0454064,0.0237639,
2,0,0,1,0,12738.2,0.0225722,0.0222572,-0.104897,7,-0.0070553,10,-2.33472e-06,-3.97924,1.6501,0.0357555,-0.146329,0.0222572,
2,0,0,1,0,12739.7,0.021074,0.0207736,-0.104663,7,-0.00723278,10,-2.17422e-06,-3.98021,1.26233,0.0467388,-0.191625,0.0207736,
2,0,0,1,0,12741.2,0.0195758,0.0192562,-0.104558,7,-0.00740972,10,-2.01339e-06,-3.98064,1.23379,0.0478203,-0.195138,0.0192562,
2,0,0,1,0,12742.7,0.0180776,0.0177122,-0.103779,7,-0.00758626,10,-1.83815e-06,-3.98389,3.96112,0.0148948,-0.0608148,0.0177122,
2,0,0,1,0,12744.2,0.0165794,0.0162807,-0.104605,7,-0.00776266,10,-1.70305e-06,-3.98045,3.74273,0.0157639,-0.0641783,0.0162807,
2,0,0,1,0,12745.7,0.0150812,0.0147781,-0.104807,7,-0.00793914,10,-1.54884e-06,-3.97961,-6.75397,-0.00873561,0.0356144,0.0147781,
2,0,0,1,0,12747.2,0.013583,0.0132288,-0.104491,7,-0.00811579,10,-1.38229e-06,-3.98092,-4.40988,-0.0133791,0.054452,0.0132288,
2,0,0,1,0,12748.7,0.0120848,0.0117718,-0.105262,7,-0.00829262,10,-1.23913e-06,-3.97773,-6.71194,-0.00879031,0.0360019,0.0117718,
2,0,0,1,0,12750.2,0.0105866,0.0102586,-0.105534,7,-0.00846961,10,-1.08263e-06,-3.97661,-2.31212,-0.0255177,0.10475,0.0102586,
2,0,0,1,0,12751.7,0.00908843,0.00878779,-0.105047,7,-0.00864711,10,-9.2313e-07,-3.97862,-1.21448,-0.0485806,0.199705,0.008787795,
2,0,0,1,0,12753.2,0.00759024,0.00725335,-0.105517,7,-0.00882515,10,-7.65352e-07,-3.97668,-1.47411,-0.0400241,0.164894,0.00725335,
2,0,0,1,0,12754.7,0.00609203,0.00576558,-0.106072,7,-0.00900383,10,-6.11564e-07,-3.9744,-0.850951,-0.0693342,0.288464,0.005765582,
2,0,0,1,0,12756.2,0.00459384,0.00428526,-0.106858,7,-0.00918281,10,-4.57916e-07,-3.97119,-0.5936,-0.0993935,0.413908,0.00428526,
2,0,0,1,0,12757.7,0.00309563,0.00276675,-0.107425,7,-0.00936314,10,-2.9722e-07,-3.96889,-0.460407,-0.128148,0.537709,0.00276675,
2,0,0,1,0,12759.2,0.00159744,0.00121326,-0.108532,7,-0.00954658,10,-1.31677e-07,-3.96444, , , ,0.001213257,
2,0,0,1,0,12760.6,0.000199235,-0.0001821,-0.108793,7,-0.00971677,10,1.98111e-08,-3.9634, , , ,-0.0001821,