File: Figure_codes/Fig_3-5/rawdata_trumpetplot_data/after 10th/20221101_1-115_003_TrumpetPlot_ParaChange_from10_every3_14_CV_C01_0.csv
mode,ox/red,error,control changes,counter inc.,time/s,control/V,Ewe/V,<I>/mA,cycle number,(Q-Qo)/C,I Range,P/W,log(|I|),Tafel slope mV/dec,alpha_eff,dI/d(E-IR),E-IR/V,
2,1,0,0,0,1199.11,2.44065e-05,-0.000248974,48.7097,1,0.0000000E+000,10,-1.21275e-05,-1.31238, , , ,-0.000248974,
2,1,0,1,0,1199.11,0.00332042,0.00295345,49.9881,1,0.000153461,10,0.000147637,-1.30113, , , ,0.00295345,
2,1,0,1,0,1199.11,0.0073156,0.00695649,51.0121,1,0.000355641,10,0.000354865,-1.29233, , , ,0.00695649,
2,1,0,1,0,1199.12,0.0113108,0.0109606,51.8604,1,0.000561506,10,0.00056842,-1.28516,0.596961,0.0988339,198.884,0.0109606,
2,1,0,1,0,1199.12,0.0153059,0.0149668,52.5717,1,0.000770464,10,0.00078683,-1.27925,0.703335,0.0838861,171.467,0.0149668,
2,1,0,1,0,1199.13,0.0193011,0.0189454,53.1686,1,0.000982035,10,0.0010073,-1.27434,0.839133,0.0703107,145.482,0.0189454,
2,1,0,1,0,1199.13,0.0233462,0.0229962,53.7624,1,0.00119602,10,0.00123633,-1.26952,0.980857,0.0601515,125.758,0.0229962,
2,1,0,1,0,1199.13,0.0273414,0.026995,54.1931,1,0.00141198,10,0.00146294,-1.26606,1.14476,0.0515394,108.687,0.026995,
2,1,0,1,0,1199.14,0.0313366,0.0309535,54.5821,1,0.00162958,10,0.00168951,-1.26295,1.38789,0.0425107,90.3876,0.0309535,
2,1,0,1,0,1199.14,0.0353317,0.0349714,54.9104,1,0.0018486,10,0.00192029,-1.26035,1.55444,0.0379558,81.2346,0.0349714,
2,1,0,1,0,1199.15,0.0393269,0.0389723,55.2064,1,0.00206889,10,0.00215152,-1.25801,1.77357,0.0332662,71.6041,0.0389723,
2,1,0,1,0,1199.15,0.0433221,0.0429912,55.4925,1,0.00229032,10,0.00238569,-1.25577,1.9624,0.0300652,65.0357,0.0429912,
2,1,0,1,0,1199.15,0.0473173,0.0469624,55.7284,1,0.00251279,10,0.00261714,-1.25392,2.15302,0.0274034,59.549,0.0469624,
2,1,0,1,0,1199.16,0.0513124,0.0509156,55.9474,1,0.00273617,10,0.0028486,-1.25222,2.45854,0.023998,52.3603,0.0509156,
2,1,0,1,0,1199.16,0.0553076,0.0549579,56.1583,1,0.00296041,10,0.00308634,-1.25059,2.1341,0.0276463,60.6501,0.0549579,
2,1,0,1,0,1199.17,0.0593028,0.0588528,56.3231,1,0.0031854,10,0.00331477,-1.24931,1.9433,0.0303607,66.9244,0.0588528,
2,1,0,1,0,1199.17,0.0633479,0.0629608,56.6987,1,0.00341139,10,0.0035698,-1.24643,1.72197,0.0342631,75.9063,0.0629608,
2,1,0,1,0,1199.17,0.0673431,0.0669373,57.0196,1,0.00363886,10,0.00381674,-1.24398,1.49704,0.0394111,87.7159,0.06693732,
2,1,0,1,0,1199.18,0.0713383,0.0710231,57.3778,1,0.00386769,10,0.00407515,-1.24126,1.47585,0.0399771,89.5762,0.0710231,
2,1,0,1,0,1199.18,0.0753334,0.0750166,57.7409,1,0.00409795,10,0.00433152,-1.23852,1.3587,0.0434237,97.9571,0.0750166,
2,1,0,1,0,1199.19,0.0793286,0.0789984,58.1353,1,0.00432973,10,0.0045926,-1.23556,1.23003,0.0479662,109.033,0.0789984,
2,1,0,1,0,1199.19,0.0833238,0.0829898,58.5921,1,0.00456323,10,0.00486254,-1.23216,1.09786,0.0537408,123.149,0.0829898,
2,1,0,1,0,1199.19,0.0873189,0.087014,59.1213,1,0.0047987,10,0.00514438,-1.22826,0.98274,0.0600362,138.796,0.08701399,
2,1,0,1,0,1199.2,0.0913141,0.0909555,59.7037,1,0.00503639,10,0.00543039,-1.224,0.891625,0.0661713,154.472,0.0909555,
2,1,0,1,0,1199.2,0.0953093,0.0949872,60.3545,1,0.00527658,10,0.00573291,-1.21929,0.819825,0.0719665,169.834,0.0949872,
2,1,0,1,0,1199.21,0.0993045,0.0989446,61.0567,1,0.00551946,10,0.00604123,-1.21427,0.750733,0.0785899,187.705,0.0989446,
2,1,0,1,0,1199.21,0.103319,0.103,61.8362,1,0.00576528,10,0.00636911,-1.20876,0.705522,0.0836261,202.213,0.103,
2,1,0,1,0,1199.21,0.107345,0.107022,62.7195,1,0.00601454,10,0.00671234,-1.2026,0.66994,0.0880675,215.732,0.107022,
2,1,0,1,0,1199.22,0.11134,0.110996,63.5917,1,0.00626723,10,0.00705844,-1.1966,0.640937,0.0920527,228.65,0.110996,
2,1,0,1,0,1199.22,0.115335,0.114954,64.5103,1,0.00652354,10,0.00741569,-1.19037,0.626354,0.0941959,237.448,0.114954,
2,1,0,1,0,1199.23,0.11933,0.118982,65.4906,1,0.00678363,10,0.00779221,-1.18382,0.607981,0.0970424,248.265,0.118982,
2,1,0,1,0,1199.23,0.123325,0.122942,66.4996,1,0.00704768,10,0.00817557,-1.17718,0.591412,0.0997612,259.16,0.122942,
2,1,0,1,0,1199.23,0.127321,0.126953,67.5533,1,0.0073159,10,0.0085761,-1.17035,0.578209,0.102039,269.278,0.126953,
2,1,0,1,0,1199.24,0.131316,0.130972,68.6617,1,0.00758844,10,0.00899276,-1.16329,0.567931,0.103886,278.561,0.130972,
2,1,0,1,0,1199.24,0.135311,0.134961,69.7935,1,0.00786546,10,0.00941942,-1.15619,0.556426,0.106034,289,0.134961,
2,1,0,1,0,1199.25,0.139306,0.138962,70.9623,1,0.00814709,10,0.00986108,-1.14897,0.542739,0.108708,301.418,0.138962,
2,1,0,1,0,1199.25,0.143301,0.142939,72.1731,1,0.00843345,10,0.0103163,-1.14162,0.532955,0.110704,312.245,0.142939,
2,1,0,1,0,1199.25,0.147346,0.14698,73.4867,1,0.00872495,10,0.0108011,-1.13379,0.524006,0.112594,323.069,0.14698,
2,1,0,1,0,1199.26,0.151342,0.151022,74.8084,1,0.00902167,10,0.0112977,-1.12605,0.516172,0.114303,333.758,0.151022,
2,1,0,1,0,1199.26,0.155337,0.154996,76.1422,1,0.00932368,10,0.0118017,-1.11837,0.511021,0.115455,343.303,0.154996,
2,1,0,1,0,1199.27,0.159332,0.158983,77.5279,1,0.00963117,10,0.0123256,-1.11054,0.506429,0.116502,352.762,0.158983,
2,1,0,1,0,1199.27,0.163327,0.162922,78.9597,1,0.00994429,10,0.0128643,-1.10259,0.500766,0.11782,363.308,0.162922,
2,1,0,1,0,1199.27,0.167322,0.166964,80.4322,1,0.0102632,10,0.0134293,-1.09457,0.499405,0.118141,370.957,0.1669644,
2,1,0,1,0,1199.28,0.171317,0.170991,81.9534,1,0.0105881,10,0.0140133,-1.08643,0.50604,0.116592,372.747,0.170991,
2,1,0,1,0,1199.28,0.175313,0.174967,83.4575,1,0.0109191,10,0.0146023,-1.07853,0.510566,0.115558,376.138,0.174967,
2,1,0,1,0,1199.29,0.179308,0.178995,84.9507,1,0.0112561,10,0.0152057,-1.07083,0.520105,0.113439,376.02,0.1789947,
2,1,0,1,0,1199.29,0.183303,0.182954,86.4466,1,0.011599,10,0.0158158,-1.06325,0.535857,0.110104,371.244,0.182954,
2,1,0,1,0,1199.29,0.187348,0.18704,87.9882,1,0.011948,10,0.0164573,-1.05558,0.557583,0.105814,362.66,0.18704,
2,1,0,1,0,1199.3,0.191343,0.19098,89.4023,1,0.0123029,10,0.0170741,-1.04865,0.595596,0.0990605,344.796,0.19098,
2,1,0,1,0,1199.3,0.195338,0.194995,90.7534,1,0.0126634,10,0.0176965,-1.04214,0.64831,0.0910058,321.522,0.194995,
2,1,0,1,0,1199.31,0.199334,0.199013,91.9836,1,0.013029,10,0.0183059,-1.03629,0.722748,0.0816329,292.244,0.199013,
2,1,0,1,0,1199.31,0.203329,0.202982,93.114,1,0.0133994,10,0.0189005,-1.03099,0.826831,0.0713568,258.443,0.202982,
2,1,0,1,0,1199.31,0.207324,0.207055,94.1001,1,0.0137739,10,0.0194839,-1.02641,1.01025,0.0584017,213.53,0.207055,
2,1,0,1,0,1199.32,0.211319,0.210981,94.8848,1,0.0141521,10,0.0200189,-1.0228,1.39629,0.0422549,155.6,0.2109808,
2,1,0,1,0,1199.32,0.215314,0.215045,95.407,1,0.0145328,10,0.0205168,-1.02042,2.59385,0.0227461,84.1302,0.215045,
2,1,0,1,0,1199.33,0.219309,0.219016,95.6088,1,0.0149149,10,0.0209398,-1.0195,878.691,6.71453e-05,0.248648,0.219016,
2,1,0,1,0,1199.33,0.223305,0.223074,95.4477,1,0.0152971,10,0.0212919,-1.02023,-2.33468,-0.0252712,-93.3542,0.223074,
2,1,0,1,0,1199.33,0.227314,0.227036,94.8888,1,0.0156778,10,0.0215432,-1.02278,-1.07969,-0.0546451,-200.438,0.227036,
2,1,0,1,0,1199.34,0.231345,0.231107,93.9075,1,0.0160555,10,0.0217027,-1.0273,-0.67397,-0.087541,-317.333,0.231107,
2,1,0,1,0,1199.34,0.23534,0.23511,92.3827,1,0.0164281,10,0.0217201,-1.03441,-0.482448,-0.122293,-435.997,0.23511,
2,1,0,1,0,1199.35,0.239335,0.239086,90.3665,1,0.0167935,10,0.0216054,-1.04399,-0.37152,-0.158807,-554.141,0.239086,
2,1,0,1,0,1199.35,0.24333,0.243056,87.9043,1,0.0171499,10,0.0213657,-1.05599,-0.30549,-0.193132,-655.979,0.243056,
2,1,0,1,0,1199.35,0.247326,0.247076,85.0586,1,0.0174957,10,0.0210159,-1.07028,-0.261423,-0.225688,-742.342,0.247076,
2,1,0,1,0,1199.36,0.251321,0.251108,81.8889,1,0.0178293,10,0.0205629,-1.08678,-0.231203,-0.255187,-809.122,0.251108,
2,1,0,1,0,1199.36,0.255316,0.255103,78.4761,1,0.0181498,10,0.0200195,-1.10526,-0.210072,-0.280855,-854.92,0.255103,
2,1,0,1,0,1199.37,0.259311,0.259093,74.9288,1,0.0184562,10,0.0194135,-1.12535,-0.195235,-0.302199,-880.22,0.259093,
2,1,0,1,0,1199.37,0.263306,0.263125,71.3378,1,0.0187484,10,0.0187708,-1.14668,-0.188472,-0.313043,-870.714,0.263125,
2,1,0,1,0,1199.37,0.267302,0.267091,67.8199,1,0.0190263,10,0.0181141,-1.16864,-0.183804,-0.320995,-850.468,0.267091,
2,1,0,1,0,1199.38,0.271347,0.271132,64.5194,1,0.0192907,10,0.0174933,-1.19031,-0.183279,-0.321914,-811.687,0.271132,
2,1,0,1,0,1199.38,0.275342,0.275113,61.3038,1,0.0195419,10,0.0168655,-1.21251,-0.185794,-0.317556,-762.161,0.275113,
2,1,0,1,0,1199.39,0.279337,0.279169,58.3151,1,0.0197808,10,0.0162798,-1.23422,-0.189251,-0.311756,-713.407,0.2791692,
2,1,0,1,0,1199.39,0.283332,0.283148,55.5821,1,0.0200083,10,0.0157379,-1.25507,-0.197327,-0.298996,-652.844,0.283148,
2,1,0,1,0,1199.39,0.287327,0.287111,53.1204,1,0.0202254,10,0.0152514,-1.27474,-0.208952,-0.282362,-589.358,0.2871106,
2,1,0,1,0,1199.4,0.291322,0.29103,50.9127,1,0.0204332,10,0.0148171,-1.29317,-0.222798,-0.264814,-530.409,0.29103,
2,1,0,1,0,1199.4,0.295318,0.295104,48.9239,1,0.0206326,10,0.0144376,-1.31048,-0.232906,-0.253321,-493.55,0.295104,
2,1,0,1,0,1199.41,0.299013,0.298789,47.2859,1,0.0208105,10,0.0141285,-1.32527,-0.101262,-0.582647,-1061.67,0.298789,
2,1,0,1,0,1199.41,0.300012,0.299804,46.8557,1,0.0208576,10,0.0140475,-1.32924,0.00218944,26.9476,41529.4,0.299804,
2,1,0,1,0,1199.41,0.298714,0.298759,42.7067,1,0.0209142,10,0.012759,-1.3695,0.0252511,2.33653,3043.92,0.298759,
2,1,0,1,0,1199.41,0.294718,0.294681,31.3523,1,0.0210602,10,0.00923894,-1.50373,0.0272322,2.16656,2386.36,0.294681,
2,1,0,1,0,1199.42,0.290723,0.29065,22.5124,1,0.0211665,10,0.00654324,-1.64758,0.0245946,2.3989,2062.15,0.29065,
2,1,0,1,0,1199.42,0.286728,0.286596,15.3379,1,0.0212411,10,0.0043958,-1.81423,0.0190581,3.09579,1669.69,0.286596,
2,1,0,1,0,1199.42,0.282733,0.28262,9.42497,1,0.0212898,10,0.00266368,-2.02572,0.00901899,6.54175,1378.55,0.28262,
2,1,0,1,0,1199.43,0.278738,0.278591,4.48781,1,0.0213169,10,0.00125026,-2.34797,0.0230191,2.56309,1147.98,0.278591,
2,1,0,1,0,1199.43,0.274742,0.27459,0.373036,1,0.021326,10,0.000102432,-3.42825,0.0841833,0.700852,964.654,0.27459,
2,0,0,1,0,1199.44,0.270747,0.270551,-3.08132,1,0.0213201,10,-0.000833656,-2.51126,-0.0575554,-1.0251,809.121,0.270551,
2,0,0,1,0,1199.44,0.266702,0.266554,-6.07339,1,0.0213013,10,-0.00161888,-2.21657,-0.0110538,-5.33752,686.973,0.266554,
2,0,0,1,0,1199.44,0.262707,0.262476,-8.55116,1,0.0212717,10,-0.00224448,-2.06797,-0.0263195,-2.24169,589.759,0.2624763,
2,0,0,1,0,1199.45,0.258712,0.258481,-10.6938,1,0.0212329,10,-0.00276415,-1.97087,-0.0436579,-1.35142,503.569,0.2584807,
2,0,0,1,0,1199.45,0.254717,0.254502,-12.5465,1,0.0211861,10,-0.00319311,-1.90148,-0.0616245,-0.957412,437.137,0.254502,
2,0,0,1,0,1199.46,0.250722,0.250521,-14.1468,1,0.0211325,10,-0.00354406,-1.84934,-0.0814069,-0.724755,382.307,0.250521,
2,0,0,1,0,1199.46,0.246726,0.246492,-15.5386,1,0.021073,10,-0.00383014,-1.80859,-0.103511,-0.569986,335.186,0.246492,
2,0,0,1,0,1199.46,0.242731,0.242518,-16.7964,1,0.0210081,10,-0.00407343,-1.77478,-0.127247,-0.463663,296.951,0.242518,
2,0,0,1,0,1199.47,0.238736,0.23851,-17.9068,1,0.0209386,10,-0.00427095,-1.74698,-0.151301,-0.389952,267.709,0.23851,
2,0,0,1,0,1199.47,0.234741,0.234503,-18.9035,1,0.0208648,10,-0.00443291,-1.72346,-0.176348,-0.334565,243.939,0.234503,
2,0,0,1,0,1199.48,0.230746,0.230512,-19.8164,1,0.0207872,10,-0.00456793,-1.70297,-0.20385,-0.289429,221.671,0.230512,
2,0,0,1,0,1199.48,0.226701,0.226496,-20.7049,1,0.0207062,10,-0.00468957,-1.68393,-0.231441,-0.254924,203.918,0.226496,
2,0,0,1,0,1199.48,0.222705,0.22253,-21.4492,1,0.0206218,10,-0.00477308,-1.66859,-0.259366,-0.227478,189.022,0.22253,
2,0,0,1,0,1199.49,0.21871,0.218451,-22.1766,1,0.0205345,10,-0.00484451,-1.6541,-0.292341,-0.201819,173.83,0.218451,
2,0,0,1,0,1199.49,0.214715,0.214525,-22.8385,1,0.0204443,10,-0.00489941,-1.64133,-0.317407,-0.185881,165.027,0.214525,
2,0,0,1,0,1199.5,0.21072,0.210455,-23.4933,1,0.0203516,10,-0.00494428,-1.62906,-0.339898,-0.173581,158.655,0.210455,
2,0,0,1,0,1199.5,0.206725,0.206469,-24.0997,1,0.0202563,10,-0.00497583,-1.61799,-0.357847,-0.164875,154.819,0.206469,
2,0,0,1,0,1199.5,0.202729,0.202489,-24.7091,1,0.0201587,10,-0.00500333,-1.60714,-0.373577,-0.157933,152.154,0.202489,
2,0,0,1,0,1199.51,0.198734,0.198461,-25.3255,1,0.0200585,10,-0.00502611,-1.59644,-0.381992,-0.154453,152.489,0.198461,
2,0,0,1,0,1199.51,0.194739,0.194519,-25.918,1,0.019956,10,-0.00504154,-1.5864,-0.386545,-0.152634,154.437,0.194519,
2,0,0,1,0,1199.52,0.190744,0.190503,-26.5342,1,0.019851,10,-0.00505486,-1.57619,-0.386501,-0.152652,158.312,0.190503,
2,0,0,1,0,1199.52,0.186735,0.186476,-27.1822,1,0.0197435,10,-0.00506882,-1.56572,-0.38223,-0.154357,163.917,0.186476,
2,0,0,1,0,1199.52,0.182704,0.182439,-27.8619,1,0.0196333,10,-0.0050831,-1.55499,-0.377648,-0.15623,169.972,0.182439,
2,0,0,1,0,1199.53,0.178709,0.178494,-28.5447,1,0.0195205,10,-0.00509507,-1.54447,-0.368989,-0.159896,178.373,0.178494,
2,0,0,1,0,1199.53,0.174713,0.174439,-29.2647,1,0.0194048,10,-0.00510491,-1.53366,-0.358225,-0.164701,188.6,0.174439,
2,0,0,1,0,1199.54,0.170718,0.170488,-30.034,1,0.0192861,10,-0.00512043,-1.52239,-0.342227,-0.1724,202.79,0.170488,
2,0,0,1,0,1199.54,0.166723,0.166476,-30.8726,1,0.0191642,10,-0.00513953,-1.51043,-0.322091,-0.183178,221.645,0.166476,
2,0,0,1,0,1199.54,0.162728,0.162473,-31.7937,1,0.0190388,10,-0.00516561,-1.49766,-0.301219,-0.195871,244.211,0.162473,
2,0,0,1,0,1199.55,0.158733,0.158438,-32.8113,1,0.0189095,10,-0.00519855,-1.48398,-0.282262,-0.209025,269.003,0.158438,
2,0,0,1,0,1199.55,0.154737,0.154494,-33.9399,1,0.0187759,10,-0.00524351,-1.46929,-0.264808,-0.222803,296.588,0.154494,
2,0,0,1,0,1199.56,0.150742,0.150492,-35.1722,1,0.0186376,10,-0.00529314,-1.4538,-0.246005,-0.239833,331.272,0.150492,
2,0,0,1,0,1199.56,0.146747,0.14649,-36.5339,1,0.0184941,10,-0.00535186,-1.4373,-0.233408,-0.252776,362.742,0.14649,
2,0,0,1,0,1199.56,0.142702,0.142455,-38.1059,1,0.0183447,10,-0.00542838,-1.41901,-0.220629,-0.267417,399.48,0.142455,
2,0,0,1,0,1199.57,0.138707,0.138466,-39.7539,1,0.0181888,10,-0.00550457,-1.40062,-0.210118,-0.280795,437.48,0.138466,
2,0,0,1,0,1199.57,0.134712,0.134501,-41.5603,1,0.0180261,10,-0.0055899,-1.38132,-0.204747,-0.288161,469.41,0.134501,
2,0,0,1,0,1199.58,0.130717,0.130539,-43.512,1,0.0178558,10,-0.00568004,-1.36139,-0.199239,-0.296127,504.473,0.130539,
2,0,0,1,0,1199.58,0.126721,0.126494,-45.5982,1,0.0176774,10,-0.0057679,-1.34105,-0.196354,-0.300477,535.9,0.126494,
2,0,0,1,0,1199.58,0.122726,0.122526,-47.7952,1,0.0174904,10,-0.00585616,-1.32062,-0.1948,-0.302875,566.072,0.122526,
2,0,0,1,0,1199.59,0.118731,0.118558,-50.1042,1,0.0172944,10,-0.00594025,-1.30013,-0.194913,-0.3027,592.624,0.118558,
2,0,0,1,0,1199.59,0.114736,0.11457,-52.5521,1,0.0170889,10,-0.00602087,-1.27941,-0.198589,-0.297096,608.837,0.11457,
2,0,0,1,0,1199.6,0.110741,0.110583,-55.0277,1,0.0168735,10,-0.00608511,-1.25942,-0.203918,-0.289332,620.327,0.110583,
2,0,0,1,0,1199.6,0.106745,0.106546,-57.5247,1,0.0166481,10,-0.006129,-1.24015,-0.212705,-0.277379,621.331,0.106546,
2,0,0,1,0,1199.6,0.102703,0.102493,-60.0699,1,0.0164127,10,-0.00615673,-1.22134,-0.22454,-0.26276,613.195,0.102493,
2,0,0,1,0,1199.61,0.0987052,0.0985109,-62.5299,1,0.0161673,10,-0.00615988,-1.20391,-0.237039,-0.248905,604.402,0.0985109,
2,0,0,1,0,1199.61,0.09471,0.0945917,-64.8333,1,0.0159122,10,-0.00613269,-1.1882,-0.251865,-0.234252,591.036,0.0945917,
2,0,0,1,0,1199.62,0.0907148,0.0905971,-67.164,1,0.0156481,10,-0.00608486,-1.17286,-0.26861,-0.219649,574.276,0.0905971,
2,0,0,1,0,1199.62,0.0867197,0.086611,-69.4566,1,0.0153745,10,-0.0060157,-1.15829,-0.286273,-0.206097,556.436,0.08661104,
2,0,0,1,0,1199.62,0.0827245,0.0826069,-71.6632,1,0.015092,10,-0.00591987,-1.1447,-0.309036,-0.190916,531.402,0.0826069,
2,0,0,1,0,1199.63,0.0787293,0.0786272,-73.7164,1,0.014801,10,-0.00579612,-1.13244,-0.337163,-0.17499,501.235,0.0786272,
2,0,0,1,0,1199.63,0.0747341,0.0746359,-75.6458,1,0.0145021,10,-0.00564589,-1.12122,-0.367554,-0.160521,472.186,0.0746359,
2,0,0,1,0,1199.64,0.070739,0.0706053,-77.4792,1,0.0141956,10,-0.00547044,-1.11081,-0.401119,-0.147089,443.249,0.0706053,
2,0,0,1,0,1199.64,0.0667438,0.0666245,-79.2099,1,0.013882,10,-0.00527732,-1.10122,-0.439783,-0.134157,413.259,0.0666245,
2,0,0,1,0,1199.64,0.0627403,0.0625928,-80.8237,1,0.0135618,10,-0.00505898,-1.09246,-0.495519,-0.119067,373.872,0.0625928,
2,0,0,1,0,1199.65,0.0587035,0.0585124,-82.309,1,0.0132352,10,-0.0048161,-1.08455,-0.572095,-0.10313,329.417,0.05851239,
2,0,0,1,0,1199.65,0.0547083,0.0544701,-83.5117,1,0.0129034,10,-0.00454889,-1.07825,-0.677313,-0.0871089,282.422,0.0544701,
2,0,0,1,0,1199.66,0.0507132,0.0504438,-84.5401,1,0.0125671,10,-0.00426452,-1.07294,-0.840148,-0.0702257,230.6,0.0504438,
2,0,0,1,0,1199.66,0.046718,0.0465001,-85.3686,1,0.0122272,10,-0.00396965,-1.0687,-1.06033,-0.0556431,184.534,0.0465001,
2,0,0,1,0,1199.66,0.0427228,0.0425204,-85.9967,1,0.0118843,10,-0.00365662,-1.06552,-1.43833,-0.0410198,137.081,0.0425204,
2,0,0,1,0,1199.67,0.0387276,0.0384951,-86.4596,1,0.0115393,10,-0.00332827,-1.06319,-2.17,-0.027189,91.357,0.0384951,
2,0,0,1,0,1199.67,0.0347325,0.0344921,-86.7267,1,0.0111929,10,-0.00299138,-1.06185,-3.93788,-0.0149827,50.5214,0.0344921,
2,0,0,1,0,1199.68,0.0307373,0.030523,-86.8282,1,0.0108457,10,-0.00265026,-1.06134,-17.4701,-0.0033772,11.4076,0.030523,
2,0,0,1,0,1199.68,0.0267421,0.026469,-86.8077,1,0.0104984,10,-0.00229772,-1.06144,12.4271,0.0047477,-16.0455,0.026469,
2,0,0,1,0,1199.68,0.022747,0.0224501,-86.6427,1,0.0101515,10,-0.00194514,-1.06227,4.62811,0.0127482,-43.026,0.0224501,
2,0,0,1,0,1199.69,0.0187018,0.0184428,-86.4692,1,0.00980523,10,-0.00159474,-1.06314,2.95047,0.0199968,-67.3245,0.0184428,
2,0,0,1,0,1199.69,0.0147067,0.0143878,-86.134,1,0.00946006,10,-0.00123928,-1.06483,2.3196,0.0254354,-85.3273,0.0143878,
2,0,0,1,0,1199.7,0.0107115,0.0104643,-85.7302,1,0.00911633,10,-0.000897107,-1.06687,1.84013,0.032063,-107.125,0.0104643,
2,0,0,1,0,1199.7,0.00671632,0.00644219,-85.2768,1,0.00877437,10,-0.000549369,-1.06917,1.64882,0.0357831,-118.954,0.00644219,
2,0,0,1,0,1199.7,0.00272115,0.0024487,-84.7558,1,0.00843436,10,-0.000207542,-1.07183,1.4634,0.040317,-133.203,0.0024487,
2,0,0,1,0,1199.71,-0.00127403,-0.00158827,-84.2336,1,0.00809633,10,0.000133786,-1.07451,1.29837,0.0454416,-149.102,-0.00158827,
2,0,0,1,0,1199.71,-0.0052692,-0.00558176,-83.5928,1,0.00776072,10,0.000466595,-1.07783,1.16184,0.0507816,-165.333,-0.00558176,
2,0,0,1,0,1199.72,-0.00926438,-0.00960176,-82.8846,1,0.00742783,10,0.000795838,-1.08153,1.01346,0.0582163,-187.938,-0.00960176,
2,0,0,1,0,1199.72,-0.0132596,-0.0135815,-82.1055,1,0.00709791,10,0.00111511,-1.08563,0.924133,0.0638436,-204.174,-0.01358147,
2,0,0,1,0,1199.72,-0.0172547,-0.0176068,-81.2231,1,0.00677133,10,0.00143008,-1.09032,0.828649,0.0712002,-225.261,-0.0176068,
2,0,0,1,0,1199.73,-0.0212915,-0.0216225,-80.3177,1,0.00644838,10,0.00173667,-1.09519,0.742118,0.0795022,-248.524,-0.0216225,
2,0,0,1,0,1199.73,-0.025295,-0.0256245,-79.2753,1,0.00612925,10,0.00203139,-1.10086,0.675795,0.0873045,-269.339,-0.0256245,
2,0,0,1,0,1199.74,-0.0292902,-0.0295979,-78.1251,1,0.00581454,10,0.00231233,-1.10721,0.617966,0.0954746,-290.508,-0.0295979,
2,0,0,1,0,1199.74,-0.0332854,-0.033602,-76.915,1,0.00550455,10,0.00258449,-1.11399,0.581814,0.101407,-303.981,-0.033602,
2,0,0,1,0,1199.74,-0.0372805,-0.0376506,-75.6614,1,0.00519952,10,0.0028487,-1.12113,0.558668,0.105608,-311.601,-0.0376506,
2,0,0,1,0,1199.75,-0.0412757,-0.041678,-74.3953,1,0.00489953,10,0.00310065,-1.12845,0.547286,0.107805,-312.959,-0.041678,
2,0,0,1,0,1199.75,-0.0452709,-0.0456121,-73.135,1,0.00460461,10,0.00333584,-1.13587,0.548654,0.107536,-307.147,-0.0456121,
2,0,0,1,0,1199.76,-0.0492661,-0.0495897,-71.9115,1,0.00431467,10,0.00356607,-1.1432,0.559742,0.105406,-296.257,-0.0495897,
2,0,0,1,0,1199.76,-0.0532612,-0.0535906,-70.7655,1,0.00402945,10,0.00379237,-1.15018,0.588204,0.100305,-277.565,-0.0535906,
2,0,0,1,0,1199.76,-0.0572564,-0.0575544,-69.6918,1,0.00374867,10,0.00401107,-1.15682,0.64471,0.0915141,-249.639,-0.0575544,
2,0,0,1,0,1199.77,-0.0612544,-0.0615161,-68.7206,1,0.00347198,10,0.00422742,-1.16291,0.701701,0.0840814,-226.219,-0.0615161,
2,0,0,1,0,1199.77,-0.0652967,-0.0655732,-67.9213,1,0.00319869,10,0.00445382,-1.16799,0.781605,0.0754857,-200.532,-0.0655732,
2,0,0,1,0,1199.78,-0.0692919,-0.0695964,-67.1446,1,0.00292865,10,0.00467303,-1.17299,0.886861,0.0665268,-174.752,-0.0695964,
2,0,0,1,0,1199.78,-0.0732871,-0.0736037,-66.4734,1,0.00266152,10,0.00489269,-1.17735,0.991357,0.0595144,-154.861,-0.07360369,
2,0,0,1,0,1199.78,-0.0772822,-0.0775792,-65.9136,1,0.00239681,10,0.00511352,-1.18103,1.16049,0.0508404,-131.136,-0.0775792,
2,0,0,1,0,1199.79,-0.0812774,-0.0815811,-65.4423,1,0.00213418,10,0.00533886,-1.18414,1.40811,0.0419002,-107.294,-0.0815811,
2,0,0,1,0,1199.79,-0.0852726,-0.0855672,-65.0503,1,0.00187324,10,0.00556617,-1.18675,1.74208,0.0338675,-86.2055,-0.0855672,
2,0,0,1,0,1199.8,-0.0892678,-0.0895607,-64.7613,1,0.00161367,10,0.00580007,-1.18868,2.21862,0.0265931,-67.3595,-0.0895607,
2,0,0,1,0,1199.8,-0.0932629,-0.0935892,-64.5334,1,0.00135514,10,0.00603963,-1.19022,3.13668,0.0188097,-47.4735,-0.0935892,
2,0,0,1,0,1199.8,-0.0972581,-0.0975487,-64.3668,1,0.00109737,10,0.0062789,-1.19134,5.53147,0.0106662,-26.8682,-0.0975487,
2,0,0,1,0,1199.81,-0.101253,-0.101543,-64.2919,1,0.000840078,10,0.00652841,-1.19184,11.6591,0.00506043,-12.7247,-0.101543,
2,0,0,1,0,1199.81,-0.105298,-0.105634,-64.3295,1,0.000582867,10,0.0067954,-1.19159,-87.4863,-0.000674391,1.69445,-0.105634,
2,0,0,1,0,1199.82,-0.109294,-0.109643,-64.3291,1,0.000325564,10,0.00705322,-1.19159,-11.7176,-0.00503515,12.6537,-0.109643,
2,0,0,1,0,1199.82,-0.113289,-0.113566,-64.3939,1,6.81394e-05,10,0.00731297,-1.19116,-7.26067,-0.00812597,20.4525,-0.113566,
2,0,0,1,0,1199.82,-0.117284,-0.117595,-64.495,1,-0.000189649,10,0.00758426,-1.19047,-4.70331,-0.0125444,31.6167,-0.117595,
2,0,0,1,0,1199.83,-0.121279,-0.121575,-64.6555,1,-0.000447968,10,0.00786052,-1.18939,-3.61064,-0.0163406,41.276,-0.121575,
2,0,0,1,0,1199.83,-0.125274,-0.125592,-64.8334,1,-0.00070695,10,0.00814257,-1.1882,-2.89613,-0.020372,51.6034,-0.125592,
2,0,0,1,0,1199.84,-0.129269,-0.12959,-65.0553,1,-0.000966762,10,0.00843052,-1.18672,-2.56662,-0.0229874,58.4224,-0.12959,
2,0,0,1,0,1199.84,-0.133265,-0.133539,-65.3177,1,-0.0012275,10,0.00872246,-1.18497,-2.21182,-0.0266749,68.0583,-0.133539,
2,0,0,1,0,1199.84,-0.13726,-0.137571,-65.59,1,-0.00148934,10,0.00902325,-1.18316,-1.9153,-0.0308046,78.9654,-0.137571,
2,0,0,1,0,1199.85,-0.141255,-0.141563,-65.9204,1,-0.00175241,10,0.00933189,-1.18098,-1.80436,-0.0326985,84.211,-0.141563,
2,0,0,1,0,1199.85,-0.145286,-0.145555,-66.316,1,-0.00201684,10,0.00965266,-1.17838,-1.66375,-0.035462,91.7884,-0.145555,
2,0,0,1,0,1199.86,-0.149295,-0.149556,-66.6666,1,-0.00228287,10,0.00997042,-1.17609,-1.61226,-0.0365945,95.2299,-0.149556,
2,0,0,1,0,1199.86,-0.15329,-0.153592,-67.0606,1,-0.00255036,10,0.0103,-1.17353,-1.60339,-0.036797,96.3347,-0.153592,
2,0,0,1,0,1199.86,-0.157286,-0.157572,-67.4449,1,-0.00281939,10,0.0106274,-1.17105,-1.52219,-0.03876,102.076,-0.157572,
2,0,0,1,0,1199.87,-0.161281,-0.161521,-67.8541,1,-0.00309003,10,0.0109599,-1.16842,-1.49794,-0.0393874,104.358,-0.161521,
2,0,0,1,0,1199.87,-0.165276,-0.165555,-68.2996,1,-0.00336235,10,0.0113073,-1.16558,-1.44142,-0.0409319,109.126,-0.165555,
2,0,0,1,0,1199.88,-0.169271,-0.169544,-68.7253,1,-0.00363644,10,0.011652,-1.16288,-1.40398,-0.0420234,112.76,-0.169544,
2,0,0,1,0,1199.88,-0.173266,-0.173547,-69.1882,1,-0.0039123,10,0.0120074,-1.15997,-1.37665,-0.0428576,115.78,-0.173547,
2,0,0,1,0,1199.88,-0.177261,-0.177565,-69.6632,1,-0.00419002,10,0.0123697,-1.157,-1.3215,-0.0446464,121.428,-0.177565,
2,0,0,1,0,1199.89,-0.181257,-0.18155,-70.1516,1,-0.00446971,10,0.012736,-1.15396,-1.26159,-0.0467665,128.148,-0.18155,
2,0,0,1,0,1199.89,-0.185252,-0.1855,-70.6627,1,-0.00475139,10,0.0131079,-1.15081,-1.22673,-0.0480952,132.741,-0.1855,
2,0,0,1,0,1199.9,-0.189297,-0.189611,-71.2468,1,-0.00503533,10,0.0135092,-1.14723,-1.18763,-0.0496787,138.142,-0.189611,
2,0,0,1,0,1199.9,-0.193292,-0.193563,-71.7868,1,-0.00532146,10,0.0138953,-1.14396,-1.15727,-0.0509821,142.67,-0.193563,
2,0,0,1,0,1199.9,-0.197287,-0.197554,-72.3623,1,-0.00560981,10,0.0142954,-1.14049,-1.50177,-0.039287,110.152,-0.1975536,
2,0,0,1,0,1199.91,-0.199984,-0.200189,-72.7584,1,-0.0058057,10,0.0145654,-1.13812,0.0651398,0.905744,-2382.29,-0.200189,
2,0,0,1,1,1199.91,-0.199984,-0.200456,-72.4413,1,-0.00584921,10,0.0145213,-1.14001,-0.0345928,-1.70556,4175.16,-0.200456,
2,0,0,1,1,1199.91,-0.196688,-0.197174,-63.1851,1,-0.00605614,10,0.0124585,-1.19939,-0.0555612,-1.06189,2418.95,-0.197174,
2,0,0,1,1,1199.91,-0.192693,-0.193152,-53.9844,1,-0.00628913,10,0.0104272,-1.26773,-0.0568273,-1.03823,2184.97,-0.193152,
2,0,0,1,1,1199.92,-0.188698,-0.189133,-46.015,1,-0.00648805,10,0.00870296,-1.3371,-0.0555836,-1.06146,1911.45,-0.189133,
2,0,0,1,1,1199.92,-0.184653,-0.185091,-38.8688,1,-0.00665694,10,0.00719426,-1.4104,-0.0523978,-1.126,1701.05,-0.185091,
2,0,0,1,1,1199.93,-0.180657,-0.18111,-32.4793,1,-0.00679884,10,0.00588232,-1.48839,-0.0478591,-1.23278,1541.91,-0.18111,
2,0,0,1,1,1199.93,-0.176662,-0.177071,-26.6296,1,-0.00691636,10,0.00471532,-1.57464,-0.0422629,-1.39602,1412.23,-0.177071,
2,0,0,1,1,1199.93,-0.172667,-0.173067,-21.2423,1,-0.00701143,10,0.00367633,-1.6728,-0.0358625,-1.64517,1301.46,-0.173067,
2,0,0,1,1,1199.94,-0.168672,-0.169058,-16.2276,1,-0.00708576,10,0.00274341,-1.78975,-0.0282639,-2.08747,1212.61,-0.169058,
2,0,0,1,1,1199.94,-0.164677,-0.165057,-11.5877,1,-0.00714083,10,0.00191263,-1.936,-0.0193101,-3.05539,1132.81,-0.165057,
2,0,0,1,1,1199.95,-0.160682,-0.161078,-7.23631,1,-0.00717794,10,0.00116561,-2.14048,-0.0113704,-5.18891,1056.5,-0.161078,
2,0,0,1,1,1199.95,-0.156686,-0.157113,-3.16966,1,-0.00719829,10,0.000497995,-2.49899,-0.0366483,-1.6099,992.728,-0.157113,
2,0,0,1,1,1199.95,-0.152691,-0.153093,0.639922,1,-0.00720291,10,-9.79675e-05,-3.19387,0.583687,0.101082,938.128,-0.153093,
2,1,0,1,1,1199.96,-0.148696,-0.149101,4.25223,1,-0.00719271,10,-0.000634014,-2.37138,0.0298282,1.978,879.323,-0.149101,
2,1,0,1,1,1199.96,-0.14467,-0.14515,7.70556,1,-0.00716845,10,-0.00111847,-2.1132,0.0118951,4.96004,835.145,-0.14515,
2,1,0,1,1,1199.97,-0.140656,-0.141105,10.9065,1,-0.00713081,10,-0.00153896,-1.96232,0.0267163,2.20839,788.337,-0.141105,
2,1,0,1,1,1199.97,-0.136661,-0.137179,13.93,1,-0.00708081,10,-0.00191091,-1.85605,0.0394924,1.49396,743.282,-0.137179,
2,1,0,1,1,1199.97,-0.132665,-0.133131,16.8426,1,-0.00701895,10,-0.00224226,-1.77359,0.0516563,1.14216,709.167,-0.1331307,
2,1,0,1,1,1199.98,-0.12867,-0.12912,19.6205,1,-0.0069457,10,-0.0025334,-1.70729,0.0645164,0.914497,671.342,-0.12912,
2,1,0,1,1,1199.98,-0.124675,-0.125111,22.249,1,-0.00686167,10,-0.00278359,-1.65269,0.0778706,0.757667,637.338,-0.125111,
2,1,0,1,1,1199.99,-0.12068,-0.121113,24.716,1,-0.00676746,10,-0.00299343,-1.60702,0.092134,0.640372,603.132,-0.1211131,
2,1,0,1,1,1199.99,-0.116685,-0.117081,27.0714,1,-0.00666361,10,-0.00316956,-1.56749,0.107069,0.551049,571.158,-0.117081,
2,1,0,1,1,1199.99,-0.112689,-0.113088,29.2901,1,-0.00655064,10,-0.00331236,-1.53328,0.122854,0.480243,540.468,-0.113088,
2,1,0,1,1,1200,-0.108694,-0.109104,31.3914,1,-0.00642902,10,-0.00342493,-1.50319,0.138595,0.425702,515.302,-0.109104,
2,1,0,1,1,1200,-0.104699,-0.105061,33.3918,1,-0.00629923,10,-0.00350816,-1.47636,0.156083,0.378004,487.39,-0.105061,
2,1,0,1,1,1200.01,-0.100654,-0.10106,35.3274,1,-0.00616151,10,-0.00357018,-1.45189,0.175588,0.336014,458.396,-0.10106,
2,1,0,1,1,1200.01,-0.0966588,-0.0970779,37.0932,1,-0.00601645,10,-0.00360093,-1.43071,0.193858,0.304346,436.847,-0.0970779,
2,1,0,1,1,1200.01,-0.0926637,-0.0929848,38.7804,1,-0.00586451,10,-0.00360598,-1.41139,0.215729,0.273492,411.237,-0.0929848,
2,1,0,1,1,1200.02,-0.0886685,-0.0890464,40.3876,1,-0.00570598,10,-0.00359637,-1.39375,0.237449,0.248475,389.226,-0.0890464,
2,1,0,1,1,1200.02,-0.0846733,-0.0850338,41.9179,1,-0.00554118,10,-0.00356444,-1.3776,0.25877,0.228002,370.749,-0.0850338,
2,1,0,1,1,1200.03,-0.0806781,-0.0810159,43.3449,1,-0.00537049,10,-0.00351163,-1.36306,0.285146,0.206912,348.212,-0.0810159,
2,1,0,1,1,1200.03,-0.076683,-0.0770436,44.6905,1,-0.00519425,10,-0.00344312,-1.34978,0.310291,0.190144,330.288,-0.0770436,
2,1,0,1,1,1200.03,-0.0726878,-0.0729961,45.9765,1,-0.00501277,10,-0.0033561,-1.33746,0.335819,0.17569,314.079,-0.0729961,
2,1,0,1,1,1200.04,-0.0686926,-0.069028,47.2044,1,-0.00482626,10,-0.00325843,-1.32602,0.359613,0.164065,301.348,-0.069028,
2,1,0,1,1,1200.04,-0.0646974,-0.0650494,48.3597,1,-0.00463499,10,-0.00314577,-1.31552,0.392146,0.150454,283.053,-0.06504938,
2,1,0,1,1,1200.05,-0.0606523,-0.0610177,49.5199,1,-0.00443916,10,-0.00302159,-1.30522,0.428437,0.13771,264.96,-0.0610177,
2,1,0,1,1,1200.05,-0.0566571,-0.0569924,50.5064,1,-0.00423901,10,-0.00287848,-1.29665,0.463607,0.127263,250.009,-0.0569924,
2,1,0,1,1,1200.05,-0.052662,-0.0529745,51.4579,1,-0.00403498,10,-0.00272596,-1.28855,0.511776,0.115285,231.013,-0.0529745,
2,1,0,1,1,1200.06,-0.0486668,-0.049016,52.3682,1,-0.00382724,10,-0.00256688,-1.28093,0.548055,0.107653,219.45,-0.049016,
2,1,0,1,1,1200.06,-0.0446716,-0.0450215,53.2153,1,-0.00361596,10,-0.00239583,-1.27396,0.596348,0.0989355,204.918,-0.0450215,
2,1,0,1,1,1200.07,-0.0406764,-0.0410799,53.9984,1,-0.00340143,10,-0.00221825,-1.26762,0.651727,0.0905287,190.341,-0.04107995,
2,1,0,1,1,1200.07,-0.0366813,-0.0370599,54.7191,1,-0.0031839,10,-0.00202789,-1.26186,0.708812,0.0832379,177.438,-0.03705994,
2,1,0,1,1,1200.07,-0.0326861,-0.0330399,55.4091,1,-0.00296356,10,-0.00183071,-1.25642,0.776374,0.0759943,164.022,-0.0330399,
2,1,0,1,1,1200.08,-0.0286909,-0.0290337,56.0521,1,-0.00274055,10,-0.0016274,-1.25141,0.83229,0.0708888,154.791,-0.02903372,
2,1,0,1,1,1200.08,-0.0246957,-0.0250328,56.6304,1,-0.00251511,10,-0.00141762,-1.24695,0.912109,0.0646853,142.746,-0.0250328,
2,1,0,1,1,1200.09,-0.0206756,-0.0210308,57.2003,1,-0.00228739,10,-0.00120297,-1.2426,1.02208,0.0577252,128.585,-0.02103083,
2,1,0,1,1,1200.09,-0.0166554,-0.0170151,57.6966,1,-0.00205748,10,-0.000981711,-1.23885,1.12728,0.0523385,117.589,-0.01701507,
2,1,0,1,1,1200.09,-0.0126603,-0.0129951,58.1144,1,-0.0018258,10,-0.000755201,-1.23572,1.29802,0.0454537,102.923,-0.0129951,
2,1,0,1,1,1200.1,-0.0086651,-0.00899945,58.5158,1,-0.00159248,10,-0.00052661,-1.23273,1.50019,0.0393283,89.6314,-0.008999452,
2,1,0,1,1,1200.1,-0.00466992,-0.00501656,58.8485,1,-0.00135772,10,-0.000295217,-1.23026, , , ,-0.00501656,
2,1,0,1,1,1200.11,-0.000974387,-0.00132105,59.1032,1,-0.00113947,10,-7.80781e-05,-1.22839, , , ,-0.00132105,
2,1,0,1,1,1200.11,-0.000175352,-0.000516197,59.1419,1,-0.00109217,10,-3.05288e-05,-1.2281, , , ,-0.000516197,