File: Figure_codes/Fig_3-5/rawdata_trumpetplot_data/after 10th/20221101_1-115_003_TrumpetPlot_ParaChange_from10_every3_06_CV_C01_23.csv
mode,ox/red,error,control changes,counter inc.,time/s,control/V,Ewe/V,<I>/mA,cycle number,(Q-Qo)/C,I Range,P/W,log(|I|),Tafel slope mV/dec,alpha_eff,dI/d(E-IR),E-IR/V,
2,0,0,0,0,46463,2.44065e-05,-0.000382585,-1.41344,24,0.0000000E+000,10,5.4076e-07,-2.84972, , , ,-0.000382585,
2,0,0,1,0,46463,0.00129787,0.000972614,-0.362072,24,-2.44012e-05,10,-3.52157e-07,-3.4412, , , ,0.000972614,
2,1,0,1,0,46463.1,0.00279427,0.00248528,0.28764,24,-2.40651e-05,10,7.14867e-07,-3.54115,0.0969957,0.608274,343.796,0.00248528,
2,1,0,1,0,46463.1,0.00429425,0.00398188,0.647036,24,-5.3598e-06,10,2.57642e-06,-3.18907,0.00433195,13.6197,207.783,0.00398188,
2,1,0,1,0,46463.2,0.00579422,0.00546853,0.893194,24,2.45109e-05,10,4.88446e-06,-3.04905,0.0130137,4.5337,140.06,0.00546853,
2,1,0,1,0,46463.2,0.00729063,0.00698086,1.06534,24,6.18851e-05,10,7.43702e-06,-2.97251,0.0233099,2.53111,99.625,0.00698086,
2,1,0,1,0,46463.2,0.00878704,0.00850052,1.1877,24,0.000104693,10,1.0096e-05,-2.92529,0.0360218,1.6379,74.0636,0.00850052,
2,1,0,1,0,46463.3,0.010287,0.00999924,1.28605,24,0.000151789,10,1.28596e-05,-2.89074,0.0490451,1.20298,59.3923,0.00999924,
2,1,0,1,0,46463.3,0.011787,0.0114778,1.35659,24,0.000202102,10,1.55706e-05,-2.86755,0.0646989,0.911917,48.0792,0.0114778,
2,1,0,1,0,46463.3,0.0132825,0.0129596,1.42567,24,0.000254858,10,1.84761e-05,-2.84598,0.0803713,0.734093,40.76,0.0129596,
2,1,0,1,0,46463.4,0.014778,0.0144343,1.4832,24,0.000309901,10,2.1409e-05,-2.8288,0.0943732,0.625177,36.029,0.0144343,
2,1,0,1,0,46463.4,0.0162815,0.0159698,1.5355,24,0.000367341,10,2.45216e-05,-2.81375,0.108525,0.543654,32.3014,0.0159698,
2,1,0,1,0,46463.5,0.017778,0.0174905,1.57839,24,0.000426153,10,2.76067e-05,-2.80179,0.129788,0.454589,27.92,0.0174905,
2,1,0,1,0,46463.5,0.0192744,0.0189779,1.61535,24,0.000486431,10,3.06561e-05,-2.79173,0.139477,0.423009,26.6546,0.0189779,
2,1,0,1,0,46463.5,0.0207743,0.0204502,1.65532,24,0.000548425,10,3.38517e-05,-2.78112,0.149599,0.394386,25.4595,0.0204502,
2,1,0,1,0,46463.6,0.0222743,0.0219564,1.69094,24,0.000611875,10,3.7127e-05,-2.77187,0.162149,0.363862,24.0632,0.0219564,
2,1,0,1,0,46463.6,0.0237707,0.0234239,1.72583,24,0.000676519,10,4.04257e-05,-2.763,0.175136,0.336882,22.7513,0.0234239,
2,1,0,1,0,46463.6,0.0252671,0.0249589,1.76278,24,0.000742441,10,4.3997e-05,-2.7538,0.178229,0.331034,22.8121,0.0249589,
2,1,0,1,0,46463.7,0.0267671,0.0264349,1.79795,24,0.000809788,10,4.75287e-05,-2.74522,0.170996,0.345036,24.2077,0.0264349,
2,1,0,1,0,46463.7,0.0282671,0.0279599,1.83896,24,0.000878499,10,5.1417e-05,-2.73543,0.183101,0.322226,23.0348,0.0279599,
2,1,0,1,0,46463.8,0.0297626,0.0294555,1.87014,24,0.000948416,10,5.50858e-05,-2.72813,0.183711,0.321156,23.3684,0.0294555,
2,1,0,1,0,46463.8,0.0312581,0.0309792,1.89936,24,0.00101954,10,5.88408e-05,-2.72139,0.20085,0.293751,21.8091,0.0309792,
2,1,0,1,0,46463.8,0.0327616,0.0324297,1.93201,24,0.00109224,10,6.26547e-05,-2.71399,0.20259,0.291229,22.0069,0.0324297,
2,1,0,1,0,46463.9,0.034258,0.0339463,1.96502,24,0.00116586,10,6.67052e-05,-2.70663,0.201949,0.292153,22.4815,0.0339463,
2,1,0,1,0,46463.9,0.0357545,0.0354119,2.00158,24,0.00124078,10,7.088e-05,-2.69863,0.220511,0.26756,20.9158,0.0354119,
2,1,0,1,0,46463.9,0.0372544,0.0369142,2.03367,24,0.00131712,10,7.50713e-05,-2.69172,0.222056,0.265699,21.1168,0.0369142,
2,1,0,1,0,46464,0.0387544,0.0384284,2.06671,24,0.00139458,10,7.94202e-05,-2.68472,0.220951,0.267027,21.5936,0.0384284,
2,1,0,1,0,46464,0.0402508,0.039915,2.10599,24,0.00147319,10,8.40605e-05,-2.67654,0.202611,0.291198,23.8761,0.039915,
2,1,0,1,0,46464.1,0.0417472,0.041427,2.14166,24,0.00155321,10,8.87226e-05,-2.66925,0.221895,0.265892,22.1383,0.04142699,
2,1,0,1,0,46464.1,0.0432472,0.0429649,2.1712,24,0.00163469,10,9.32852e-05,-2.6633,0.244206,0.241599,20.4746,0.0429649,
2,1,0,1,0,46464.1,0.0447472,0.0444084,2.20581,24,0.00171731,10,9.79563e-05,-2.65643,0.221613,0.26623,22.9221,0.0444084,
2,1,0,1,0,46464.2,0.0462427,0.0459256,2.23741,24,0.001801,10,0.000102754,-2.65026,0.217954,0.270699,23.6495,0.0459256,
2,1,0,1,0,46464.2,0.0477382,0.0474357,2.26809,24,0.00188596,10,0.000107589,-2.64434,0.23458,0.251513,22.3021,0.0474357,
2,1,0,1,0,46464.2,0.0492417,0.0489409,2.30638,24,0.00197264,10,0.000112876,-2.63707,0.247013,0.238854,21.4454,0.0489409,
2,1,0,1,0,46464.3,0.0507381,0.0504168,2.33372,24,0.00205996,10,0.000117659,-2.63195,0.244172,0.241633,22.0272,0.0504168,
2,1,0,1,0,46464.3,0.0522345,0.0518795,2.37262,24,0.00214853,10,0.000123091,-2.62477,0.240305,0.245521,22.6648,0.05187951,
2,1,0,1,0,46464.4,0.0537345,0.0534217,2.40656,24,0.00223862,10,0.000128562,-2.6186,0.266625,0.221285,20.7068,0.0534217,
2,1,0,1,0,46464.4,0.0552345,0.0549301,2.43014,24,0.00232995,10,0.000133488,-2.61437,0.283298,0.208261,19.7654,0.05493008,
2,1,0,1,0,46464.4,0.0567309,0.0564046,2.45826,24,0.00242211,10,0.000138657,-2.60937,0.287078,0.205519,19.7711,0.0564046,
2,1,0,1,0,46464.5,0.0582273,0.0579223,2.49128,24,0.00251532,10,0.000144301,-2.60358,0.281829,0.209347,20.3854,0.0579223,
2,1,0,1,0,46464.5,0.0597309,0.0593684,2.5223,24,0.00261023,10,0.000149745,-2.5982,0.292031,0.202033,19.8947,0.0593684,
2,1,0,1,0,46464.5,0.0612264,0.0609274,2.55201,24,0.00270577,10,0.000155487,-2.59312,0.330741,0.178387,17.7595,0.0609274,
2,1,0,1,0,46464.6,0.0627219,0.062419,2.58112,24,0.0028024,10,0.000161111,-2.58819,0.323319,0.182482,18.3599,0.062419,
2,1,0,1,0,46464.6,0.0642218,0.0639241,2.61105,24,0.00290025,10,0.000166909,-2.58319,0.314777,0.187434,19.0724,0.0639241,
2,1,0,1,0,46464.7,0.0657218,0.0654111,2.63562,24,0.00299915,10,0.000172398,-2.57912,0.315364,0.187085,19.2435,0.0654111,
2,1,0,1,0,46464.7,0.0672182,0.0668994,2.66428,24,0.0030989,10,0.000178238,-2.57442,0.340014,0.173522,18.0242,0.0668994,
2,1,0,1,0,46464.7,0.0687146,0.0684098,2.69195,24,0.00319973,10,0.000184156,-2.56993,0.370756,0.159134,16.7152,0.0684098,
2,1,0,1,0,46464.8,0.0702146,0.0698736,2.71073,24,0.00330166,10,0.000189409,-2.56691,0.390809,0.150969,16.0195,0.0698736,
2,1,0,1,0,46464.8,0.0717146,0.0713549,2.74076,24,0.00340457,10,0.000195567,-2.56213,0.384923,0.153278,16.3752,0.0713549,
2,1,0,1,0,46464.8,0.073211,0.0728996,2.76387,24,0.00350811,10,0.000201485,-2.55848,0.399833,0.147562,15.9108,0.0728996,
2,1,0,1,0,46464.9,0.0747074,0.0744037,2.79299,24,0.00361254,10,0.000207809,-2.55393,0.446651,0.132094,14.3496,0.0744037,
2,1,0,1,0,46464.9,0.0762109,0.0758723,2.80868,24,0.00371836,10,0.000213101,-2.5515,0.439011,0.134393,14.7161,0.0758723,
2,1,0,1,0,46465,0.0777064,0.0774057,2.82658,24,0.00382434,10,0.000218794,-2.54874,0.505342,0.116753,12.8957,0.0774057,
2,1,0,1,0,46465,0.079202,0.0788828,2.85163,24,0.00393119,10,0.000224944,-2.54491,0.464316,0.127069,14.1334,0.0788828,
2,1,0,1,0,46465,0.0807019,0.0803807,2.86882,24,0.00403908,10,0.000230597,-2.5423,0.521861,0.113057,12.6639,0.0803807,
2,1,0,1,0,46465.1,0.0822019,0.0818812,2.8865,24,0.00414773,10,0.00023635,-2.53963,0.51709,0.1141,12.8728,0.0818812,
2,1,0,1,0,46465.1,0.0836983,0.0833767,2.90714,24,0.00425667,10,0.000242388,-2.53653,0.580334,0.101666,11.5478,0.0833767,
2,1,0,1,0,46465.1,0.0851947,0.0848617,2.92766,24,0.00436631,10,0.000248446,-2.53348,0.564967,0.104431,11.9274,0.0848617,
2,1,0,1,0,46465.2,0.0866947,0.0863962,2.94686,24,0.004477,10,0.000254598,-2.53064,0.542198,0.108816,12.4969,0.0863962,
2,1,0,1,0,46465.2,0.0881947,0.0878966,2.96931,24,0.00458846,10,0.000260992,-2.52734,0.503798,0.11711,13.5365,0.0878966,
2,1,0,1,0,46465.3,0.0896911,0.0893994,2.98306,24,0.00470024,10,0.000266684,-2.52534,0.489186,0.120608,14.0544,0.0893994,
2,1,0,1,0,46465.3,0.0911875,0.090863,3.00611,24,0.00481287,10,0.000273144,-2.522,0.413297,0.142755,16.7682,0.090863,
2,1,0,1,0,46465.3,0.0926901,0.0923835,3.0325,24,0.00492708,10,0.000280153,-2.5182,0.402042,0.146751,17.3669,0.0923835,
2,1,0,1,0,46465.4,0.0941856,0.0938702,3.05305,24,0.00504164,10,0.00028659,-2.51527,0.385655,0.152986,18.2845,0.0938702,
2,1,0,1,0,46465.4,0.095682,0.0953527,3.08439,24,0.0051571,10,0.000294105,-2.51083,0.380147,0.155203,18.7184,0.0953527,
2,1,0,1,0,46465.4,0.097182,0.0968601,3.11698,24,0.00527401,10,0.000301911,-2.50627,0.309782,0.190457,23.1682,0.0968601,
2,1,0,1,0,46465.5,0.098682,0.0983813,3.15421,24,0.00539216,10,0.000310315,-2.50111,0.293648,0.200921,24.7096,0.0983813,
2,1,0,1,0,46465.5,0.100178,0.0998623,3.19264,24,0.00551138,10,0.000318824,-2.49585,0.275499,0.214157,26.6688,0.0998623,
2,1,0,1,0,46465.6,0.101675,0.101395,3.22949,24,0.00563211,10,0.000327455,-2.49087,0.252252,0.233893,29.5618,0.101395,
2,1,0,1,0,46465.6,0.103175,0.102828,3.27767,24,0.00575478,10,0.000337037,-2.48443,0.234933,0.251136,32.2064,0.102828,
2,1,0,1,0,46465.6,0.104675,0.104373,3.32994,24,0.00587935,10,0.000347556,-2.47756,0.226387,0.260616,33.9192,0.104373,
2,1,0,1,0,46465.7,0.106171,0.105844,3.38298,24,0.00600555,10,0.000358068,-2.4707,0.220145,0.268005,35.3931,0.105844,
2,1,0,1,0,46465.7,0.107667,0.107397,3.43607,24,0.00613368,10,0.000369023,-2.46394,0.227425,0.259426,34.774,0.107397,
2,1,0,1,0,46465.7,0.10917,0.108885,3.49022,24,0.00626444,10,0.000380034,-2.45715,0.219454,0.268849,36.6189,0.1088855,
2,1,0,1,0,46465.8,0.110666,0.110365,3.54483,24,0.00639653,10,0.000391224,-2.4504,0.211558,0.278883,38.5649,0.110365,
2,1,0,1,0,46465.8,0.112162,0.111896,3.60188,24,0.00653084,10,0.000403038,-2.44347,0.227694,0.259119,36.3606,0.1118965,
2,1,0,1,0,46465.9,0.113662,0.113358,3.65643,24,0.00666757,10,0.000414483,-2.43694,0.237699,0.248213,35.401,0.113358,
2,1,0,1,0,46465.9,0.115162,0.114816,3.70834,24,0.00680624,10,0.000425778,-2.43082,0.259231,0.227597,32.9243,0.1148162,
2,1,0,1,0,46465.9,0.116658,0.116332,3.75741,24,0.0069465,10,0.000437108,-2.42511,0.259877,0.227031,33.3086,0.116332,
2,1,0,1,0,46466,0.118155,0.117816,3.81055,24,0.00708867,10,0.000448943,-2.41901,0.282512,0.208841,31.018,0.117816,
2,1,0,1,0,46466,0.119655,0.119334,3.85521,24,0.007233,10,0.000460057,-2.41395,0.324231,0.181969,27.3288,0.119334,
2,1,0,1,0,46466,0.121155,0.120849,3.89117,24,0.00737876,10,0.000470246,-2.40992,0.35625,0.165614,25.1334,0.120849,
2,1,0,1,0,46466.1,0.122651,0.122356,3.92913,24,0.00752554,10,0.000480752,-2.4057,0.3727,0.158304,24.2166,0.122356,
2,1,0,1,0,46466.1,0.124147,0.123832,3.96062,24,0.00767365,10,0.000490452,-2.40224,0.434266,0.135862,20.9708,0.123832,
2,1,0,1,0,46466.2,0.12565,0.125314,3.99005,24,0.0078237,10,0.00050001,-2.39902,0.536753,0.10992,17.0829,0.125314,
2,1,0,1,0,46466.2,0.127146,0.126851,4.00623,24,0.00797394,10,0.000508196,-2.39726,0.606882,0.0972183,15.2273,0.126851,
2,1,0,1,0,46466.2,0.128642,0.128301,4.03108,24,0.00812494,10,0.000517193,-2.39458,0.673867,0.0875544,13.7941,0.128301,
2,1,0,1,0,46466.3,0.130142,0.12984,4.05511,24,0.00827725,10,0.000526516,-2.392,0.72789,0.0810562,12.8239,0.12984,
2,1,0,1,0,46466.3,0.131642,0.131302,4.07348,24,0.00843033,10,0.000534858,-2.39003,0.855989,0.0689261,10.9434,0.131302,
2,1,0,1,0,46466.3,0.133139,0.132837,4.09395,24,0.00858366,10,0.000543825,-2.38786,1.11648,0.0528448,8.42211,0.132837,
2,1,0,1,0,46466.4,0.134635,0.134352,4.10303,24,0.0087374,10,0.00055125,-2.3869,1.37994,0.0427553,6.83988,0.134352,
2,1,0,1,0,46466.4,0.136135,0.135824,4.11554,24,0.008892,10,0.000558991,-2.38557,1.66579,0.0354185,5.67969,0.135824,
2,1,0,1,0,46466.5,0.137635,0.137373,4.11824,24,0.00904696,10,0.000565735,-2.38529,7.86443,0.00750213,1.20465,0.137373,
2,1,0,1,0,46466.5,0.13913,0.1388,4.11605,24,0.00920163,10,0.000571309,-2.38552,-2.68987,-0.0219341,-3.51915,0.1388,
2,1,0,1,0,46466.5,0.140626,0.140288,4.1052,24,0.00935594,10,0.000575911,-2.38667,-0.856364,-0.0688959,-11.0214,0.1402882,
2,1,0,1,0,46466.6,0.14213,0.141819,4.08246,24,0.00951054,10,0.000578969,-2.38908,-0.551819,-0.106919,-16.989,0.141819,
2,1,0,1,0,46466.6,0.143626,0.143306,4.051,24,0.00966333,10,0.000580533,-2.39244,-0.342984,-0.17202,-27.0956,0.143306,
2,1,0,1,0,46466.6,0.145122,0.144815,4.00627,24,0.00981462,10,0.00058017,-2.39726,-0.229101,-0.257528,-40.0541,0.1448153,
2,1,0,1,0,46466.7,0.146622,0.146293,3.93301,24,0.00996405,10,0.000575373,-2.40528,-0.181071,-0.325838,-49.8675,0.146293,
2,1,0,1,0,46466.7,0.148122,0.147808,3.85301,24,0.0101106,10,0.000569507,-2.4142,-0.147803,-0.399179,-59.805,0.147808,
2,1,0,1,0,46466.8,0.149619,0.149313,3.75327,24,0.0102535,10,0.00056041,-2.42559,-0.124771,-0.472866,-69.0817,0.149313,
2,1,0,1,0,46466.8,0.151115,0.150802,3.64335,24,0.0103926,10,0.000549425,-2.4385,-0.107776,-0.547432,-77.6516,0.150802,
2,1,0,1,0,46466.8,0.152615,0.152312,3.51798,24,0.0105276,10,0.000535831,-2.45371,-0.0939601,-0.627926,-86.1085,0.152312,
2,1,0,1,0,46466.9,0.154115,0.153808,3.38952,24,0.0106578,10,0.000521336,-2.46986,-0.0903458,-0.653047,-86.3881,0.153808,
2,1,0,1,0,46466.9,0.155611,0.15529,3.26536,24,0.0107828,10,0.000507079,-2.48607,-0.0875447,-0.673941,-85.7142,0.15529,
2,1,0,1,0,46466.9,0.157106,0.156764,3.13533,24,0.010903,10,0.000491506,-2.50372,-0.0828433,-0.712188,-86.8733,0.156764,
2,1,0,1,0,46467,0.15861,0.158279,3.00423,24,0.0110188,10,0.000475505,-2.52227,-0.0833014,-0.708272,-83.0427,0.158279,
2,1,0,1,0,46467,0.160106,0.159789,2.88134,24,0.0111294,10,0.000460406,-2.54041,-0.0840962,-0.701578,-79.0758,0.159789,
2,1,0,1,0,46467.1,0.161602,0.161297,2.77205,24,0.0112357,10,0.000447122,-2.5572,-0.0905521,-0.651559,-70.6542,0.161297,
2,1,0,1,0,46467.1,0.163102,0.162804,2.66549,24,0.0113382,10,0.000433952,-2.57422,-0.0941317,-0.626781,-65.4826,0.162804,
2,1,0,1,0,46467.1,0.164602,0.164309,2.56915,24,0.0114371,10,0.000422134,-2.59021,-0.0991827,-0.594862,-59.9287,0.164309,
2,1,0,1,0,46467.2,0.166099,0.165755,2.48987,24,0.0115323,10,0.000412707,-2.60382,-0.105632,-0.558544,-54.4231,0.165755,
2,1,0,1,0,46467.2,0.167595,0.167291,2.41478,24,0.0116245,10,0.000403972,-2.61712,-0.117608,-0.501669,-47.3347,0.167291,
2,1,0,1,0,46467.2,0.169095,0.168765,2.35027,24,0.0117144,10,0.000396643,-2.62888,-0.13051,-0.452073,-41.4738,0.1687652,
2,1,0,1,0,46467.3,0.170595,0.170308,2.28818,24,0.0118019,10,0.000389695,-2.64051,-0.135183,-0.436445,-38.9782,0.170308,
2,1,0,1,0,46467.3,0.172091,0.171778,2.22837,24,0.0118869,10,0.000382785,-2.65201,-0.146595,-0.402469,-35.1364,0.171778,
2,1,0,1,0,46467.4,0.173586,0.173251,2.17973,24,0.0119699,10,0.00037764,-2.6616,-0.161256,-0.365878,-31.2546,0.173251,
2,1,0,1,0,46467.4,0.17509,0.174801,2.13445,24,0.0120516,10,0.000373103,-2.67071,-0.175254,-0.336654,-28.1247,0.174801,
2,1,0,1,0,46467.4,0.176586,0.176283,2.09551,24,0.0121314,10,0.000369404,-2.67871,-0.201488,-0.292821,-24.015,0.176283,
2,1,0,1,0,46467.5,0.178082,0.177801,2.06236,24,0.0122097,10,0.000366689,-2.68564,-0.211559,-0.278883,-22.4852,0.177801,
2,1,0,1,0,46467.5,0.179582,0.179272,2.03362,24,0.012287,10,0.000364572,-2.69173,-0.234018,-0.252118,-19.9851,0.179272,
2,1,0,1,0,46467.5,0.181082,0.180812,2.00746,24,0.0123632,10,0.000362973,-2.69735,-0.272767,-0.216302,-16.9198,0.180812,
2,1,0,1,0,46467.6,0.182579,0.182269,1.97971,24,0.0124383,10,0.000360839,-2.7034,-0.26922,-0.219151,-16.922,0.182269,
2,1,0,1,0,46467.6,0.184075,0.183766,1.95596,24,0.0125125,10,0.000359439,-2.70864,-0.287429,-0.205268,-15.6964,0.183766,
2,1,0,1,0,46467.7,0.185579,0.185292,1.92985,24,0.0125862,10,0.000357586,-2.71448,-0.330706,-0.178406,-13.4801,0.185292,
2,1,0,1,0,46467.7,0.187074,0.186763,1.91478,24,0.0126587,10,0.000357612,-2.71788,-0.40016,-0.147441,-11.0295,0.186763,
2,1,0,1,0,46467.7,0.18857,0.188291,1.89882,24,0.0127307,10,0.000357532,-2.72152,-0.410641,-0.143678,-10.6602,0.188291,
2,1,0,1,0,46467.8,0.19007,0.189752,1.88482,24,0.0128023,10,0.000357648,-2.72473,-0.44339,-0.133066,-9.77592,0.189752,
2,1,0,1,0,46467.8,0.19157,0.19126,1.86844,24,0.0128732,10,0.000357357,-2.72852,-0.454627,-0.129777,-9.47725,0.19126,
2,1,0,1,0,46467.8,0.193066,0.192741,1.86,24,0.0129434,10,0.0003585,-2.73049,-0.672009,-0.0877964,-6.35202,0.192741,
2,1,0,1,0,46467.9,0.194563,0.194275,1.84604,24,0.0130133,10,0.000358641,-2.73376,-0.650521,-0.0906965,-6.52944,0.194275,
2,1,0,1,0,46467.9,0.196063,0.19577,1.83671,24,0.013083,10,0.000359573,-2.73596,-0.571742,-0.103193,-7.39712,0.19577,
2,1,0,1,0,46468,0.197563,0.197281,1.8203,24,0.0131522,10,0.00035911,-2.73986,-0.661724,-0.089161,-6.35587,0.1972809,
2,1,0,1,0,46468,0.199059,0.198763,1.81234,24,0.0132207,10,0.000360225,-2.74176,-0.670085,-0.0880486,-6.24884,0.198763,
2,1,0,1,0,46468,0.200555,0.200233,1.80731,24,0.0132891,10,0.000361884,-2.74297,-0.875961,-0.0673546,-4.7555,0.2002333,
2,1,0,1,0,46468.1,0.202059,0.201733,1.80135,24,0.0133575,10,0.000363391,-2.7444,-0.811347,-0.0727186,-5.09549,0.201733,
2,1,0,1,0,46468.1,0.203554,0.203252,1.79473,24,0.0134252,10,0.000364782,-2.746,-1.01326,-0.0582277,-4.064,0.203252,
2,1,0,1,0,46468.1,0.20505,0.204743,1.78369,24,0.0134926,10,0.000365197,-2.74868,-1.10888,-0.0532066,-3.71098,0.204743,
2,1,0,1,0,46468.2,0.20655,0.206244,1.77966,24,0.0135599,10,0.000367044,-2.74966,-1.64759,-0.0358099,-2.48935,0.206244,
2,1,0,1,0,46468.2,0.20805,0.207768,1.7733,24,0.0136273,10,0.000368435,-2.75122,-0.937081,-0.0629615,-4.35783,0.207768,
2,1,0,1,0,46468.3,0.209546,0.209198,1.76701,24,0.0136941,10,0.000369655,-2.75276,-0.889692,-0.0663151,-4.58312,0.209198,
2,1,0,1,0,46468.3,0.211043,0.210759,1.75954,24,0.0137607,10,0.000370839,-2.7546,-0.969998,-0.0608248,-4.18934,0.210759,
2,1,0,1,0,46468.3,0.212543,0.212232,1.75737,24,0.0138272,10,0.00037297,-2.75514,-1.08349,-0.0544535,-3.73157,0.212232,
2,1,0,1,0,46468.4,0.214043,0.213738,1.75394,24,0.0138936,10,0.000374883,-2.75599,-1.34957,-0.0437177,-2.985,0.213738,
2,1,0,1,0,46468.4,0.215539,0.21522,1.75103,24,0.0139596,10,0.000376857,-2.75671,-0.910354,-0.06481,-4.4128,0.21522,
2,1,0,1,0,46468.4,0.217035,0.216739,1.73907,24,0.0140254,10,0.000376925,-2.75968,-1.66289,-0.0354803,-2.41114,0.216739,
2,1,0,1,0,46468.5,0.218538,0.218221,1.73551,24,0.0140913,10,0.000378724,-2.76057,-4.10707,-0.0143655,-0.974837,0.218221,
2,1,0,1,0,46468.5,0.220034,0.219761,1.73095,24,0.0141568,10,0.000380395,-2.76172,-2.06569,-0.0285618,-1.93396,0.219761,
2,1,0,1,0,46468.6,0.22153,0.22125,1.7261,24,0.0142222,10,0.000381901,-2.76293,-1.20261,-0.0490598,-3.31443,0.22125,
2,1,0,1,0,46468.6,0.22303,0.22275,1.72459,24,0.0142876,10,0.000384152,-2.76331,-1.48557,-0.0397154,-2.67683,0.22275,
2,1,0,1,0,46468.6,0.22453,0.224197,1.72377,24,0.0143528,10,0.000386464,-2.76352,-1.94828,-0.0302831,-2.0378,0.224197,
2,1,0,1,0,46468.7,0.226026,0.225726,1.72102,24,0.0144177,10,0.000388479,-2.76421,-2.33405,-0.025278,-1.6919,0.225726,
2,1,0,1,0,46468.7,0.227523,0.227236,1.71781,24,0.0144826,10,0.000390349,-2.76502,-1.15632,-0.0510238,-3.40609,0.227236,
2,1,0,1,0,46468.7,0.229023,0.228671,1.71282,24,0.0145474,10,0.000391673,-2.76629,-1.47962,-0.0398752,-2.66775,0.2286714,
2,1,0,1,0,46468.8,0.230523,0.230211,1.70806,24,0.0146121,10,0.000393214,-2.7675,-2.39603,-0.0246241,-1.64427,0.2302108,
2,1,0,1,0,46468.8,0.232019,0.231739,1.70305,24,0.0146765,10,0.000394664,-2.76877,-5.50992,-0.010708,-0.714047,0.231739,
2,1,0,1,0,46468.9,0.233515,0.233188,1.70512,24,0.0147409,10,0.000397614,-2.76824,-2.66994,-0.0220979,-1.47063,0.233188,
2,1,0,1,0,46468.9,0.235018,0.234731,1.70171,24,0.0148056,10,0.000399443,-2.76911,-1.25795,-0.0469017,-3.11227,0.234731,
2,1,0,1,0,46468.9,0.236514,0.236229,1.69926,24,0.0148696,10,0.000401416,-2.76974,-2.6002,-0.0226906,-1.50243,0.236229,
2,1,0,1,0,46469,0.23801,0.237705,1.69791,24,0.0149336,10,0.000403603,-2.77008,-5.17643,-0.0113978,-0.752468,0.237705,
2,1,0,1,0,46469,0.23951,0.239189,1.69394,24,0.0149977,10,0.000405172,-2.7711,-3.08029,-0.019154,-1.26363,0.239189,
2,1,0,1,0,46469,0.24101,0.240751,1.6918,24,0.0150617,10,0.000407304,-2.77165,-1.6474,-0.035814,-2.35993,0.240751,
2,1,0,1,0,46469.1,0.242506,0.242221,1.67904,24,0.0151254,10,0.000406698,-2.77494,-1.47333,-0.0400455,-2.63492,0.2422208,
2,1,0,1,0,46469.1,0.244003,0.243689,1.67881,24,0.0151889,10,0.000409107,-2.775,-9.76311,-0.00604316,-0.398035,0.243689,
2,1,0,1,0,46469.2,0.245503,0.245211,1.68616,24,0.0152526,10,0.000413466,-2.7731,16.5642,0.00356191,0.234238,0.245211,
2,1,0,1,0,46469.2,0.247003,0.246674,1.67919,24,0.0153163,10,0.000414214,-2.7749,-1.88015,-0.0313804,-2.05607,0.246674,
2,1,0,1,0,46469.2,0.248499,0.248201,1.67428,24,0.0153797,10,0.000415558,-2.77617,-2.90781,-0.0202902,-1.32838,0.248201,
2,1,0,1,0,46469.3,0.249995,0.249669,1.67825,24,0.015443,10,0.000419007,-2.77514,-1.91615,-0.030791,-2.0102,0.249669,
2,1,0,1,0,46469.3,0.251498,0.251211,1.67491,24,0.0155065,10,0.000420757,-2.77601,-2.45997,-0.0239841,-1.56459,0.251211,
2,1,0,1,0,46469.3,0.252994,0.252626,1.6679,24,0.0155696,10,0.000421354,-2.77783,-2.15152,-0.0274225,-1.78597,0.252626,
2,1,0,1,0,46469.4,0.25449,0.254203,1.66626,24,0.0156326,10,0.000423569,-2.77826,-1.56984,-0.0375834,-2.45159,0.254203,
2,1,0,1,0,46469.4,0.25599,0.25566,1.66313,24,0.0156957,10,0.000425196,-2.77907,-5.14554,-0.0114662,-0.747251,0.25566,
2,1,0,1,0,46469.5,0.25749,0.257181,1.66097,24,0.0157586,10,0.00042717,-2.77964,-16.3985,-0.00359788,-0.233749,0.257181,
2,1,0,1,0,46469.5,0.258987,0.258688,1.66148,24,0.0158214,10,0.000429806,-2.7795,-3.6241,-0.0162799,-1.05497,0.258688,
2,1,0,1,0,46469.5,0.260483,0.260164,1.66241,24,0.0158841,10,0.000432499,-2.77926,-1.44943,-0.0407057,-2.63337,0.260164,
2,1,0,1,0,46469.6,0.261983,0.261687,1.65685,24,0.0159468,10,0.000433576,-2.78072,-2.76476,-0.02134,-1.3793,0.261687,
2,1,0,1,0,46469.6,0.263483,0.263155,1.65571,24,0.0160095,10,0.000435708,-2.78102,-6.56253,-0.00899044,-0.579941,0.263155,
2,1,0,1,0,46469.6,0.264978,0.264663,1.65162,24,0.0160719,10,0.000437121,-2.78209,-5.82742,-0.0101245,-0.653393,0.264663,
2,1,0,1,0,46469.7,0.266474,0.26617,1.65203,24,0.0161343,10,0.000439722,-2.78198,-2.17779,-0.0270917,-1.74678,0.26617,
2,1,0,1,0,46469.7,0.267977,0.267701,1.64077,24,0.0161968,10,0.000439234,-2.78495,-3.07407,-0.0191928,-1.23568,0.267701,
2,1,0,1,0,46469.8,0.269474,0.269219,1.64317,24,0.0162589,10,0.000442374,-2.78432,-4.13753,-0.0142597,-0.916294,0.269219,
2,1,0,1,0,46469.8,0.27097,0.270658,1.64479,24,0.016321,10,0.000445174,-2.78389,-6.54366,-0.00901636,-0.57811,0.270658,
2,1,0,1,0,46469.8,0.27247,0.272169,1.64253,24,0.0163832,10,0.000447045,-2.78449,-2.30167,-0.0256335,-1.63874,0.272169,
2,1,0,1,0,46469.9,0.27397,0.273716,1.64035,24,0.0164454,10,0.000448991,-2.78506,-1.46497,-0.0402739,-2.56935,0.273716,
2,1,0,1,0,46469.9,0.275467,0.275198,1.6396,24,0.0165072,10,0.000451215,-2.78526,-1.76948,-0.0333432,-2.13054,0.275198,
2,1,0,1,0,46469.9,0.276963,0.276705,1.63572,24,0.0165689,10,0.00045261,-2.78629,-1.84131,-0.0320424,-2.04395,0.276705,
2,1,0,1,0,46470,0.278463,0.278178,1.63149,24,0.0166307,10,0.000453843,-2.78742,-1.55409,-0.0379644,-2.41862,0.278178,
2,1,0,1,0,46470,0.279963,0.27966,1.62983,24,0.0166924,10,0.000455798,-2.78786,-1.65685,-0.0356098,-2.26723,0.2796604,
2,1,0,1,0,46470.1,0.281459,0.281116,1.62489,24,0.0167538,10,0.000456782,-2.78918,-2.38135,-0.0247759,-1.57355,0.281116,
2,1,0,1,0,46470.1,0.282954,0.282651,1.62552,24,0.0168151,10,0.000459456,-2.78901,-15.6057,-0.00378066,-0.239327,0.282651,
2,1,0,1,0,46470.1,0.284458,0.284218,1.62598,24,0.0168767,10,0.000462134,-2.78888,-4.53732,-0.0130033,-0.821794,0.284218,
2,1,0,1,0,46470.2,0.285954,0.285662,1.62189,24,0.0169379,10,0.000463314,-2.78998,-1.29529,-0.0455496,-2.86768,0.285662,
2,1,0,1,0,46470.2,0.28745,0.28717,1.61376,24,0.0169989,10,0.000463422,-2.79216,-1.58058,-0.037328,-2.354,0.2871699,
2,1,0,1,0,46470.2,0.28895,0.28865,1.61052,24,0.01706,10,0.000464878,-2.79303,-3.25491,-0.0181264,-1.14045,0.28865,
2,1,0,1,0,46470.3,0.29045,0.290164,1.6092,24,0.017121,10,0.000466934,-2.79339,-2.63173,-0.0224187,-1.40976,0.290164,
2,1,0,1,0,46470.3,0.291947,0.291664,1.6037,24,0.0171818,10,0.000467742,-2.79488,-1.05027,-0.0561758,-3.52417,0.291664,
2,1,0,1,0,46470.4,0.293443,0.293146,1.60235,24,0.0172424,10,0.000469722,-2.79524,-1.29775,-0.0454635,-2.84595,0.2931459,
2,1,0,1,0,46470.4,0.294943,0.294636,1.60319,24,0.0173031,10,0.000472357,-2.79502,-1.85363,-0.0318295,-1.98742,0.294636,
2,1,0,1,0,46470.4,0.296443,0.296135,1.60015,24,0.0173636,10,0.00047386,-2.79584,-5.61583,-0.010506,-0.654729,0.296135,
2,1,0,1,0,46470.5,0.297939,0.297664,1.60072,24,0.017424,10,0.000476475,-2.79569,-2.82805,-0.0208625,-1.2967,0.297664,
2,1,0,1,0,46470.5,0.299434,0.299102,1.59232,24,0.0174843,10,0.000476264,-2.79797,-0.0178706,-3.30151,-178.669,0.299102,
2,1,0,0,0,46470.5,0.299962,0.299689,1.5209,24,0.017508,10,0.000455797,-2.8179,0.00111551,52.8907,1685.77,0.2996892,
2,1,0,1,0,46470.5,0.298689,0.298435,0.54192,24,0.0175367,10,0.000161728,-3.26606,0.00135549,43.5268,500.22,0.298435,
2,1,0,1,0,46470.6,0.297189,0.296891,0.084793,24,0.0175466,10,2.51743e-05,-4.07164,0.00659052,8.95225,246.847,0.296891,
2,0,0,1,0,46470.6,0.295692,0.295368,-0.144155,24,0.0175444,10,-4.25787e-05,-3.84117,-0.0201427,-2.92909,127.846,0.295368,
2,0,0,1,0,46470.7,0.294196,0.293927,-0.271269,24,0.0175358,10,-7.97335e-05,-3.5666,-0.0060341,-9.77776,75.5487,0.293927,
2,0,0,1,0,46470.7,0.292696,0.292383,-0.361752,24,0.0175231,10,-0.00010577,-3.44159,-0.0146293,-4.03299,51.9819,0.292383,
2,0,0,1,0,46470.7,0.291196,0.290876,-0.430544,24,0.0175075,10,-0.000125235,-3.36598,-0.0234471,-2.5163,39.9976,0.290876,
2,0,0,1,0,46470.8,0.2897,0.289387,-0.482415,24,0.0174899,10,-0.000139604,-3.31658,-0.0335472,-1.75872,32.1915,0.289387,
2,0,0,1,0,46470.8,0.288205,0.287853,-0.521103,24,0.0174704,10,-0.000150001,-3.28308,-0.045253,-1.30378,26.144,0.287853,
2,0,0,1,0,46470.8,0.286701,0.286371,-0.55447,24,0.0174494,10,-0.000158784,-3.25612,-0.0538065,-1.09652,23.7767,0.286371,
2,0,0,1,0,46470.9,0.285205,0.284925,-0.586812,24,0.0174273,10,-0.000167198,-3.2315,-0.0646387,-0.912766,21.0274,0.2849251,
2,0,0,1,0,46470.9,0.283708,0.283375,-0.619375,24,0.017404,10,-0.000175515,-3.20805,-0.0749073,-0.787641,18.9448,0.283375,
2,0,0,1,0,46471,0.282208,0.281882,-0.64587,24,0.0173795,10,-0.000182059,-3.18985,-0.0925975,-0.637166,15.9659,0.281882,
2,0,0,1,0,46471,0.280708,0.280393,-0.673589,24,0.0173541,10,-0.000188869,-3.17161,-0.107685,-0.547895,14.3133,0.280393,
2,0,0,1,0,46471,0.279212,0.278871,-0.695442,24,0.017328,10,-0.000193939,-3.15774,-0.115646,-0.510176,13.7416,0.278871,
2,0,0,1,0,46471.1,0.277716,0.277416,-0.715974,24,0.0173011,10,-0.000198623,-3.1451,-0.110374,-0.534546,14.8594,0.277416,
2,0,0,1,0,46471.1,0.276216,0.275898,-0.734735,24,0.0172732,10,-0.000202712,-3.13387,-0.1291,-0.457009,13.0778,0.275898,
2,0,0,1,0,46471.1,0.274716,0.274373,-0.752117,24,0.0172447,10,-0.00020636,-3.12371,-0.151982,-0.388203,11.4138,0.274373,
2,0,0,1,0,46471.2,0.27322,0.272917,-0.763178,24,0.0172156,10,-0.000208284,-3.11737,-0.154853,-0.381006,11.4612,0.272917,
2,0,0,1,0,46471.2,0.271725,0.271436,-0.784194,24,0.0171859,10,-0.000212859,-3.10558,-0.140653,-0.419472,12.8723,0.2714363,
2,0,0,1,0,46471.3,0.270221,0.269928,-0.802016,24,0.0171553,10,-0.000216487,-3.09582,-0.175421,-0.336334,10.5612,0.269928,
2,0,0,1,0,46471.3,0.268725,0.268431,-0.823227,24,0.0171242,10,-0.000220979,-3.08448,-0.203112,-0.29048,9.25182,0.268431,
2,0,0,1,0,46471.3,0.267228,0.266932,-0.835119,24,0.0170926,10,-0.00022292,-3.07825,-0.193956,-0.304192,9.8935,0.266932,
2,0,0,1,0,46471.4,0.265728,0.265451,-0.850847,24,0.0170605,10,-0.000225858,-3.07015,-0.201811,-0.292353,9.66775,0.265451,
2,0,0,1,0,46471.4,0.264228,0.263921,-0.864537,24,0.0170277,10,-0.00022817,-3.06322,-0.229108,-0.257521,8.66557,0.263921,
2,0,0,1,0,46471.4,0.262732,0.262408,-0.872431,24,0.0169945,10,-0.000228933,-3.05927,-0.244328,-0.241479,8.25554,0.2624082,
2,0,0,1,0,46471.5,0.261236,0.260934,-0.885209,24,0.0169609,10,-0.000230981,-3.05295,-0.255978,-0.230488,8.00693,0.260934,
2,0,0,1,0,46471.5,0.259736,0.259432,-0.899392,24,0.0169267,10,-0.000233331,-3.04605,-0.260063,-0.226868,8.00158,0.259432,
2,0,0,1,0,46471.6,0.258236,0.257956,-0.913163,24,0.0168921,10,-0.000235556,-3.03945,-0.232312,-0.253968,9.04704,0.257956,
2,0,0,1,0,46471.6,0.256741,0.256484,-0.929037,24,0.016857,10,-0.000238283,-3.03197,-0.252626,-0.233547,8.41797,0.256484,
2,0,0,1,0,46471.6,0.255241,0.254921,-0.94166,24,0.0168213,10,-0.000240049,-3.02611,-0.295858,-0.19942,7.29126,0.254921,
2,0,0,1,0,46471.7,0.253741,0.253457,-0.946977,24,0.0167853,10,-0.000240018,-3.02366,-0.260676,-0.226335,8.3811,0.253457,
2,0,0,1,0,46471.7,0.252245,0.251893,-0.96213,24,0.016749,10,-0.000242354,-3.01677,-0.292543,-0.20168,7.55024,0.251893,
2,0,0,1,0,46471.7,0.250748,0.250474,-0.970771,24,0.0167121,10,-0.000243153,-3.01288,-0.285618,-0.206569,7.85441,0.250474,
2,0,0,1,0,46471.8,0.249248,0.248928,-0.981241,24,0.0166748,10,-0.000244258,-3.00822,-0.33215,-0.177631,6.80938,0.248928,
2,0,0,1,0,46471.8,0.247748,0.247419,-0.990705,24,0.0166372,10,-0.000245119,-3.00406,-0.310018,-0.190311,7.3751,0.247419,
2,0,0,1,0,46471.9,0.246252,0.24596,-1.00599,24,0.0165992,10,-0.000247432,-2.99741,-0.284668,-0.207259,8.10153,0.24596,
2,0,0,1,0,46471.9,0.244756,0.244446,-1.01765,24,0.0165608,10,-0.00024876,-2.9924,-0.355223,-0.166093,6.56717,0.244446,
2,0,0,1,0,46471.9,0.243252,0.242934,-1.02343,24,0.0165217,10,-0.000248626,-2.98994,-0.457369,-0.128999,5.14785,0.242934,
2,0,0,1,0,46472,0.241756,0.24143,-1.03105,24,0.0164826,10,-0.000248926,-2.98672,-0.369215,-0.159799,6.45261,0.24143,
2,0,0,1,0,46472,0.240261,0.239949,-1.04168,24,0.0164432,10,-0.000249951,-2.98226,-0.325683,-0.181158,7.37924,0.239949,
2,0,0,1,0,46472,0.238761,0.238424,-1.05168,24,0.0164031,10,-0.000250746,-2.97812,-0.341209,-0.172915,7.12305,0.238424,
2,0,0,1,0,46472.1,0.237261,0.236946,-1.06289,24,0.0163628,10,-0.000251847,-2.97351,-0.495569,-0.119055,4.9301,0.236946,
2,0,0,1,0,46472.1,0.235765,0.235438,-1.07363,24,0.0163221,10,-0.000252775,-2.96914,-0.396824,-0.148681,6.21937,0.235438,
2,0,0,1,0,46472.2,0.234268,0.233933,-1.08187,24,0.0162812,10,-0.000253085,-2.96582,-0.373381,-0.158016,6.67121,0.233933,
2,0,0,1,0,46472.2,0.232768,0.232457,-1.09622,24,0.0162398,10,-0.000254825,-2.9601,-0.426226,-0.138424,5.89336,0.232457,
2,0,0,1,0,46472.2,0.231268,0.231011,-1.1057,24,0.0161979,10,-0.00025543,-2.95636,-0.402149,-0.146712,6.30819,0.231011,
2,0,0,1,0,46472.3,0.229772,0.229427,-1.11221,24,0.0161559,10,-0.00025517,-2.95381,-0.562075,-0.104968,4.55402,0.229427,
2,0,0,1,0,46472.3,0.228275,0.227975,-1.11859,24,0.0161135,10,-0.00025501,-2.95133,-0.412236,-0.143122,6.25966,0.227975,
2,0,0,1,0,46472.3,0.226772,0.226468,-1.12642,24,0.0160706,10,-0.000255099,-2.9483,-0.38192,-0.154482,6.8042,0.226468,
2,0,0,1,0,46472.4,0.225276,0.224978,-1.13905,24,0.0160276,10,-0.000256262,-2.94346,-0.446281,-0.132204,5.87337,0.224978,
2,0,0,1,0,46472.4,0.223781,0.223435,-1.14815,24,0.0159842,10,-0.000256537,-2.94,-0.461445,-0.127859,5.72062,0.223435,
2,0,0,1,0,46472.5,0.222281,0.221986,-1.15458,24,0.0159404,10,-0.0002563,-2.93758,-0.423183,-0.13942,6.27586,0.221986,
2,0,0,1,0,46472.5,0.220781,0.220456,-1.16212,24,0.0158963,10,-0.000256198,-2.93475,-0.38002,-0.155255,7.04235,0.220456,
2,0,0,1,0,46472.5,0.219284,0.218972,-1.17423,24,0.0158519,10,-0.000257124,-2.93025,-0.397222,-0.148532,6.79297,0.218972,
2,0,0,1,0,46472.6,0.217788,0.217513,-1.18284,24,0.0158071,10,-0.000257283,-2.92707,-0.500372,-0.117912,5.44317,0.217513,
2,0,0,1,0,46472.6,0.216288,0.215993,-1.18553,24,0.015762,10,-0.000256067,-2.92609,-0.533539,-0.110582,5.1509,0.215993,
2,0,0,1,0,46472.6,0.214788,0.214491,-1.19707,24,0.0157166,10,-0.000256761,-2.92188,-0.477146,-0.123652,5.81401,0.214491,
2,0,0,1,0,46472.7,0.213292,0.212932,-1.20821,24,0.0156709,10,-0.000257267,-2.91786,-0.443999,-0.132883,6.26255,0.212932,
2,0,0,1,0,46472.7,0.211796,0.21154,-1.21762,24,0.0156249,10,-0.000257576,-2.91449,-0.49127,-0.120097,5.6891,0.21154,
2,0,0,1,0,46472.8,0.210293,0.209954,-1.22734,24,0.0155782,10,-0.000257685,-2.91104,-0.482771,-0.122211,5.83184,0.2099544,
2,0,0,1,0,46472.8,0.208797,0.208493,-1.23572,24,0.0155316,10,-0.00025764,-2.90808,-0.420697,-0.140243,6.76977,0.208493,
2,0,0,1,0,46472.8,0.207301,0.207036,-1.24065,24,0.0154846,10,-0.000256859,-2.90635,-0.386974,-0.152465,7.4028,0.207036,
2,0,0,1,0,46472.9,0.205801,0.205506,-1.25327,24,0.015437,10,-0.000257555,-2.90196,-0.456796,-0.12916,6.31286,0.205506,
2,0,0,1,0,46472.9,0.204301,0.203972,-1.25975,24,0.015389,10,-0.000256953,-2.89972,-0.64444,-0.0915523,4.52591,0.203972,
2,0,0,1,0,46472.9,0.202804,0.202467,-1.26702,24,0.015341,10,-0.000256529,-2.89722,-0.618082,-0.0954567,4.74298,0.202467,
2,0,0,1,0,46473,0.201308,0.200966,-1.27815,24,0.0152927,10,-0.000256865,-2.89342,-0.451443,-0.130692,6.52367,0.200966,
2,0,0,1,0,46473,0.199808,0.19951,-1.29131,24,0.0152439,10,-0.000257629,-2.88897,-0.459443,-0.128416,6.46258,0.19951,
2,0,0,1,0,46473.1,0.198308,0.197968,-1.3008,24,0.0151946,10,-0.000257516,-2.88579,-0.590551,-0.0999067,5.05378,0.197968,
2,0,0,1,0,46473.1,0.196812,0.196535,-1.30958,24,0.0151452,10,-0.000257378,-2.88287,-0.425642,-0.138614,7.07141,0.196535,
2,0,0,1,0,46473.1,0.195316,0.194979,-1.31761,24,0.0150955,10,-0.000256907,-2.88021,-0.355264,-0.166074,8.53889,0.194979,
2,0,0,1,0,46473.2,0.193813,0.19351,-1.32761,24,0.0150451,10,-0.000256906,-2.87693,-0.422572,-0.139621,7.25111,0.1935098,
2,0,0,1,0,46473.2,0.192317,0.191984,-1.33752,24,0.0149945,10,-0.000256783,-2.8737,-0.525948,-0.112178,5.85938,0.191984,
2,0,0,1,0,46473.2,0.190821,0.190514,-1.34533,24,0.0149435,10,-0.000256303,-2.87117,-0.611165,-0.096537,5.09227,0.190514,
2,0,0,1,0,46473.3,0.189321,0.188985,-1.35907,24,0.0148922,10,-0.000256844,-2.86676,-0.439204,-0.134334,7.12744,0.188985,
2,0,0,1,0,46473.3,0.187821,0.187485,-1.36845,24,0.0148404,10,-0.000256564,-2.86377,-0.483679,-0.121982,6.50915,0.187485,
2,0,0,1,0,46473.4,0.186324,0.186002,-1.38212,24,0.0147883,10,-0.000257076,-2.85946,-0.510477,-0.115578,6.21097,0.186002,
2,0,0,1,0,46473.4,0.184828,0.184518,-1.3918,24,0.0147358,10,-0.000256813,-2.85642,-0.480556,-0.122774,6.65557,0.184518,
2,0,0,1,0,46473.4,0.183328,0.18302,-1.40007,24,0.0146829,10,-0.000256241,-2.85385,-0.441037,-0.133776,7.32342,0.18302,
2,0,0,1,0,46473.5,0.181828,0.181496,-1.41085,24,0.0146295,10,-0.000256063,-2.85052,-0.400862,-0.147183,8.11817,0.181496,
2,0,0,1,0,46473.5,0.180332,0.179999,-1.42763,24,0.0145758,10,-0.000256972,-2.84538,-0.390166,-0.151218,8.41247,0.179999,
2,0,0,1,0,46473.5,0.178836,0.178501,-1.43682,24,0.0145216,10,-0.000256473,-2.8426,-0.415566,-0.141975,7.95932,0.178501,
2,0,0,1,0,46473.6,0.177333,0.177035,-1.4481,24,0.0144667,10,-0.000256364,-2.8392,-0.36388,-0.162141,9.17179,0.177035,
2,0,0,1,0,46473.6,0.175837,0.175484,-1.46453,24,0.0144116,10,-0.000257002,-2.8343,-0.319539,-0.184641,10.5202,0.175484,
2,0,0,1,0,46473.7,0.174341,0.174016,-1.48055,24,0.014356,10,-0.000257639,-2.82958,-0.330615,-0.178455,10.2759,0.174016,
2,0,0,1,0,46473.7,0.172841,0.172485,-1.49069,24,0.0142996,10,-0.000257123,-2.82661,-0.370552,-0.159222,9.26089,0.1724852,
2,0,0,1,0,46473.7,0.171341,0.171043,-1.49933,24,0.0142427,10,-0.000256451,-2.8241,-0.32332,-0.182482,10.7555,0.171043,
2,0,0,1,0,46473.8,0.169844,0.169503,-1.52161,24,0.0141855,10,-0.000257918,-2.8177,-0.324041,-0.182076,10.8458,0.169503,
2,0,0,1,0,46473.8,0.168348,0.168052,-1.54168,24,0.0141275,10,-0.000259082,-2.81201,-0.268903,-0.21941,13.2151,0.168052,
2,0,0,1,0,46473.8,0.166848,0.166521,-1.55871,24,0.0140687,10,-0.000259557,-2.80724,-0.298293,-0.197792,12.0153,0.166521,
2,0,0,1,0,46473.9,0.165348,0.165055,-1.57633,24,0.0140092,10,-0.000260181,-2.80235,-0.291586,-0.202342,12.4769,0.165055,
2,0,0,1,0,46473.9,0.163852,0.163548,-1.59844,24,0.0139492,10,-0.000261423,-2.7963,-0.263251,-0.22412,13.9819,0.163548,
2,0,0,1,0,46474,0.162357,0.162026,-1.62137,24,0.0138884,10,-0.000262705,-2.79012,-0.235224,-0.250825,15.844,0.162026,
2,0,0,1,0,46474,0.160853,0.160526,-1.6426,24,0.0138264,10,-0.00026368,-2.78447,-0.226362,-0.260644,16.7055,0.1605259,
2,0,0,1,0,46474,0.159357,0.159033,-1.66788,24,0.0137638,10,-0.000265248,-2.77783,-0.210719,-0.279994,18.2743,0.159033,
2,0,0,1,0,46474.1,0.157861,0.157557,-1.68869,24,0.0137002,10,-0.000266064,-2.77245,-0.203427,-0.29003,19.2434,0.157557,
2,0,0,1,0,46474.1,0.156361,0.156048,-1.72212,24,0.0136354,10,-0.000268733,-2.76394,-0.17885,-0.329885,22.2674,0.1560477,
2,0,0,1,0,46474.1,0.154861,0.154541,-1.75973,24,0.0135693,10,-0.000271949,-2.75455,-0.177385,-0.332609,22.85,0.154541,
2,0,0,1,0,46474.2,0.153364,0.153061,-1.79847,24,0.0135021,10,-0.000275276,-2.7451,-0.167402,-0.352444,24.7203,0.153061,
2,0,0,1,0,46474.2,0.151868,0.151544,-1.83451,24,0.0134336,10,-0.000278009,-2.73648,-0.154513,-0.381844,27.3414,0.151544,
2,0,0,1,0,46474.3,0.150368,0.15005,-1.87835,24,0.0133634,10,-0.000281847,-2.72622,-0.135407,-0.435722,31.9799,0.15005,
2,0,0,1,0,46474.3,0.148868,0.148538,-1.92751,24,0.0132914,10,-0.000286309,-2.715,-0.126166,-0.467638,35.2621,0.148538,
2,0,0,1,0,46474.3,0.147372,0.147053,-1.98045,24,0.0132177,10,-0.000291231,-2.70324,-0.122217,-0.482748,37.3788,0.147053,
2,0,0,1,0,46474.4,0.145877,0.145574,-2.03327,24,0.0131418,10,-0.000295991,-2.6918,-0.112056,-0.526523,42.0486,0.145574,
2,0,0,1,0,46474.4,0.144373,0.144051,-2.10512,24,0.0130632,10,-0.000303246,-2.67672,-0.100651,-0.586182,48.2776,0.1440513,
2,0,0,1,0,46474.4,0.142877,0.142522,-2.18282,24,0.0129824,10,-0.000311099,-2.66098,-0.098959,-0.596207,50.7642,0.142522,
2,0,0,1,0,46474.5,0.14138,0.141057,-2.26076,24,0.0128987,10,-0.000318896,-2.64575,-0.0931291,-0.633529,55.8477,0.141057,
2,0,0,1,0,46474.5,0.13988,0.139525,-2.34923,24,0.0128116,10,-0.000327776,-2.62907,-0.0901142,-0.654725,59.9359,0.139525,
2,0,0,1,0,46474.6,0.13838,0.138076,-2.43815,24,0.0127214,10,-0.000336652,-2.61294,-0.0903578,-0.652959,62.2075,0.138076,
2,0,0,1,0,46474.6,0.136884,0.136546,-2.53403,24,0.0126277,10,-0.000346012,-2.59619,-0.0889309,-0.663437,65.6628,0.136546,
2,0,0,1,0,46474.6,0.135388,0.135091,-2.63285,24,0.0125304,10,-0.000355674,-2.57957,-0.0915143,-0.644708,66.3098,0.135091,
2,0,0,1,0,46474.7,0.133888,0.133553,-2.73626,24,0.0124289,10,-0.000365437,-2.56284,-0.0905074,-0.65188,69.5993,0.1335533,
2,0,0,1,0,46474.7,0.132389,0.132064,-2.83951,24,0.0123237,10,-0.000374998,-2.54676,-0.0922481,-0.63958,70.9383,0.132064,
2,0,0,1,0,46474.7,0.130893,0.130553,-2.94443,24,0.0122148,10,-0.000384404,-2.531,-0.0941573,-0.626611,71.9057,0.130553,
2,0,0,1,0,46474.8,0.129393,0.1291,-3.05458,24,0.0121015,10,-0.000394345,-2.51505,-0.0995618,-0.592597,70.4209,0.1291,
2,0,0,1,0,46474.8,0.127893,0.127575,-3.15223,24,0.0119845,10,-0.000402145,-2.50138,-0.111284,-0.530173,65.0748,0.1275747,
2,0,0,1,0,46474.9,0.126397,0.126047,-3.25041,24,0.011864,10,-0.000409704,-2.48806,-0.114655,-0.514585,65.1401,0.126047,
2,0,0,1,0,46474.9,0.1249,0.124606,-3.34341,24,0.0117399,10,-0.000416607,-2.47581,-0.118798,-0.49664,64.8061,0.1246056,
2,0,0,1,0,46474.9,0.1234,0.123062,-3.43544,24,0.011612,10,-0.000422773,-2.46402,-0.128425,-0.459412,61.6591,0.123062,
2,0,0,1,0,46475,0.1219,0.121595,-3.52558,24,0.0114807,10,-0.000428692,-2.45277,-0.147613,-0.399693,54.9474,0.121595,
2,0,0,1,0,46475,0.120404,0.120096,-3.60973,24,0.0113465,10,-0.000433514,-2.44252,-0.158912,-0.371274,52.2101,0.120096,
2,0,0,1,0,46475,0.118908,0.118638,-3.6869,24,0.0112094,10,-0.000437406,-2.43334,-0.165777,-0.3559,51.1343,0.118638,
2,0,0,1,0,46475.1,0.117404,0.117141,-3.76478,24,0.0110687,10,-0.000441011,-2.42426,-0.181942,-0.324279,47.5083,0.117141,
2,0,0,1,0,46475.1,0.115909,0.115653,-3.83434,24,0.010926,10,-0.000443455,-2.41631,-0.206927,-0.285124,42.4852,0.115653,
2,0,0,1,0,46475.2,0.114413,0.114077,-3.89453,24,0.0107809,10,-0.000444276,-2.40954,-0.240282,-0.245545,37.2164,0.114077,
2,0,0,1,0,46475.2,0.112913,0.112582,-3.94141,24,0.0106333,10,-0.000443732,-2.40435,-0.263329,-0.224055,34.4513,0.112582,
2,0,0,1,0,46475.2,0.111413,0.111057,-3.98858,24,0.0104839,10,-0.00044296,-2.39918,-0.297224,-0.198503,30.8771,0.111057,
2,0,0,1,0,46475.3,0.109917,0.109596,-4.02936,24,0.0103331,10,-0.000441601,-2.39476,-0.374584,-0.157508,24.749,0.109596,
2,0,0,1,0,46475.3,0.10842,0.108082,-4.06826,24,0.010181,10,-0.000439705,-2.39059,-0.509312,-0.115843,18.3475,0.108082,
2,0,0,1,0,46475.3,0.10692,0.106628,-4.08859,24,0.0100274,10,-0.000435958,-2.38843,-0.697805,-0.0845508,13.4655,0.106628,
2,0,0,1,0,46475.4,0.10542,0.105086,-4.10776,24,0.00987307,10,-0.000431669,-2.3864,-0.88235,-0.0668669,10.6981,0.105086,
2,0,0,1,0,46475.4,0.103924,0.103607,-4.12198,24,0.00971851,10,-0.000427064,-2.38489,-1.81694,-0.0324722,5.21021,0.103607,
2,0,0,1,0,46475.5,0.102427,0.102154,-4.12638,24,0.00956365,10,-0.000421525,-2.38443,-10.4003,-0.00567291,0.911376,0.102154,
2,0,0,1,0,46475.5,0.100924,0.100615,-4.11144,24,0.00940799,10,-0.000413671,-2.38601,2.95881,0.0199405,-3.20325,0.100615,
2,0,0,1,0,46475.5,0.0994284,0.0990523,-4.10791,24,0.00925347,10,-0.000406897,-2.38638,1.34159,0.0439776,-7.05183,0.09905228,
2,0,0,1,0,46475.6,0.0979329,0.0976058,-4.09585,24,0.00909938,10,-0.000399778,-2.38766,1.04352,0.0565393,-9.03234,0.09760575,
2,0,0,1,0,46475.6,0.0964329,0.0960608,-4.07611,24,0.00894544,10,-0.000391554,-2.38975,0.658595,0.0895846,-14.2313,0.0960608,
2,0,0,1,0,46475.6,0.094933,0.0946237,-4.05392,24,0.00879226,10,-0.000383597,-2.39212,0.547842,0.107695,-17.0236,0.0946237,
2,0,0,1,0,46475.7,0.0934365,0.0931062,-4.03436,24,0.0086404,10,-0.000375624,-2.39423,0.615852,0.0958022,-15.0616,0.0931062,
2,0,0,1,0,46475.7,0.0919401,0.0915946,-4.0052,24,0.00848944,10,-0.000366855,-2.39738,0.565935,0.104252,-16.3014,0.0915946,
2,0,0,1,0,46475.8,0.0904402,0.0901467,-3.98106,24,0.00833901,10,-0.000358879,-2.4,0.476429,0.123838,-19.2224,0.09014672,
2,0,0,1,0,46475.8,0.0889402,0.088626,-3.95485,24,0.00818958,10,-0.000350502,-2.40287,0.490948,0.120176,-18.5405,0.08862599,
2,0,0,1,0,46475.8,0.0874438,0.0871057,-3.92215,24,0.00804168,10,-0.000341642,-2.40648,0.506658,0.116449,-17.8526,0.0871057,
2,0,0,1,0,46475.9,0.0859483,0.0856665,-3.89904,24,0.00789476,10,-0.000334017,-2.40904,0.579139,0.101875,-15.5153,0.0856665,
2,0,0,1,0,46475.9,0.0844447,0.08411,-3.87712,24,0.00774792,10,-0.000326105,-2.41149,0.562025,0.104978,-15.8701,0.08411,
2,0,0,1,0,46475.9,0.0829492,0.0826467,-3.85567,24,0.00760275,10,-0.000318659,-2.4139,0.590254,0.099957,-15.0158,0.0826467,
2,0,0,1,0,46476,0.0814528,0.081141,-3.82911,24,0.0074585,10,-0.000310698,-2.4169,0.610846,0.0965873,-14.4297,0.081141,
2,0,0,1,0,46476,0.0799528,0.0796264,-3.80488,24,0.00731468,10,-0.000302969,-2.41966,0.768246,0.0767983,-11.41,0.0796264,
2,0,0,1,0,46476.1,0.0784529,0.0781256,-3.78812,24,0.00717158,10,-0.000295949,-2.42158,0.721838,0.0817358,-12.0876,0.0781256,
2,0,0,1,0,46476.1,0.0769565,0.0766184,-3.76849,24,0.00702954,10,-0.000288735,-2.42383,0.644519,0.0915412,-13.4705,0.0766184,
2,0,0,1,0,46476.1,0.0754601,0.0751205,-3.74359,24,0.00688823,10,-0.00028122,-2.42671,0.728402,0.0809992,-11.8661,0.0751205,
2,0,0,1,0,46476.2,0.0739601,0.073622,-3.7335,24,0.00674733,10,-0.000274868,-2.42788,0.720459,0.0818922,-11.9373,0.073622,
2,0,0,1,0,46476.2,0.0724601,0.0721356,-3.71904,24,0.006607,10,-0.000268275,-2.42957,0.772263,0.0763988,-11.0793,0.07213559,
2,0,0,1,0,46476.2,0.0709637,0.070635,-3.70251,24,0.00646766,10,-0.000261527,-2.4315,0.644223,0.0915832,-13.2017,0.070635,
2,0,0,1,0,46476.3,0.0694682,0.0691036,-3.68298,24,0.00632898,10,-0.000254507,-2.4338,0.686035,0.0860015,-12.3466,0.0691036,
2,0,0,1,0,46476.3,0.0679647,0.0676443,-3.66429,24,0.00619028,10,-0.000247868,-2.43601,0.753017,0.0783515,-11.2101,0.0676443,
2,0,0,1,0,46476.4,0.0664691,0.0661751,-3.64434,24,0.00605299,10,-0.000241164,-2.43838,0.779115,0.075727,-10.78,0.0661751,
2,0,0,1,0,46476.4,0.0649727,0.064666,-3.6253,24,0.0059162,10,-0.000234433,-2.44066,0.669048,0.0881851,-12.4832,0.064666,
2,0,0,1,0,46476.4,0.0634727,0.0631293,-3.61011,24,0.00577974,10,-0.000227903,-2.44248,0.644353,0.0915647,-12.9044,0.0631293,
2,0,0,1,0,46476.5,0.0619728,0.0616193,-3.59181,24,0.0056441,10,-0.000221325,-2.44469,0.66742,0.0884001,-12.3896,0.0616193,
2,0,0,1,0,46476.5,0.0604764,0.0601566,-3.57579,24,0.0055095,10,-0.000215107,-2.44663,0.687164,0.0858602,-11.9667,0.0601566,
2,0,0,1,0,46476.5,0.05898,0.0586487,-3.55806,24,0.00537557,10,-0.000208675,-2.44879,0.648425,0.0909897,-12.6011,0.0586487,
2,0,0,1,0,46476.6,0.05748,0.0571273,-3.53813,24,0.00524199,10,-0.000202124,-2.45123,0.551054,0.107068,-14.7514,0.05712733,
2,0,0,1,0,46476.6,0.05598,0.0556562,-3.50896,24,0.00510924,10,-0.000195296,-2.45482,0.596983,0.0988303,-13.5436,0.0556562,
2,0,0,1,0,46476.7,0.0544836,0.0541558,-3.48969,24,0.00497767,10,-0.000188987,-2.45721,0.690756,0.0854136,-11.6434,0.0541558,
2,0,0,1,0,46476.7,0.0529881,0.0526491,-3.47287,24,0.00484674,10,-0.000182844,-2.45931,0.616762,0.095661,-12.9652,0.05264914,
2,0,0,1,0,46476.7,0.0514846,0.051184,-3.45126,24,0.0047158,10,-0.000176649,-2.46202,0.54263,0.10873,-14.6445,0.051184,
2,0,0,1,0,46476.8,0.049989,0.049676,-3.42515,24,0.00458644,10,-0.000170148,-2.46532,0.535107,0.110258,-14.7601,0.049676,
2,0,0,1,0,46476.8,0.0484926,0.0481602,-3.41103,24,0.00445793,10,-0.000164276,-2.46711,0.534408,0.110402,-14.682,0.0481602,
2,0,0,1,0,46476.8,0.0469927,0.046634,-3.39025,24,0.00432983,10,-0.000158101,-2.46977,0.535356,0.110207,-14.5652,0.046634,
2,0,0,1,0,46476.9,0.0454927,0.0451981,-3.36438,24,0.00420256,10,-0.000152063,-2.4731,0.496037,0.118943,-15.6047,0.0451981,
2,0,0,1,0,46476.9,0.0439963,0.0436844,-3.3421,24,0.00407641,10,-0.000145997,-2.47598,0.495951,0.118963,-15.5067,0.0436844,
2,0,0,1,0,46477,0.0424999,0.0421694,-3.31866,24,0.00395127,10,-0.000139946,-2.47904,0.531301,0.111048,-14.4119,0.0421694,
2,0,0,1,0,46477,0.0409999,0.0406863,-3.29306,24,0.00382659,10,-0.000133982,-2.4824,0.490939,0.120178,-15.4643,0.0406863,
2,0,0,1,0,46477,0.0394999,0.0391939,-3.27637,24,0.00370263,10,-0.000128414,-2.48461,0.470419,0.12542,-16.0165,0.0391939,
2,0,0,1,0,46477.1,0.0380044,0.0376845,-3.24947,24,0.00357995,10,-0.000122455,-2.48819,0.424963,0.138836,-17.5979,0.0376845,
2,0,0,1,0,46477.1,0.0365089,0.0361822,-3.22505,24,0.00345833,10,-0.00011669,-2.49146,0.44775,0.13177,-16.5687,0.0361822,
2,0,0,1,0,46477.1,0.0350054,0.0347019,-3.1993,24,0.00333696,10,-0.000111022,-2.49495,0.522721,0.112871,-14.0688,0.0347019,
2,0,0,1,0,46477.2,0.033509,0.0331722,-3.17683,24,0.00321717,10,-0.000105383,-2.49801,0.45028,0.131029,-16.22,0.0331722,
2,0,0,1,0,46477.2,0.0320125,0.0316853,-3.14713,24,0.00309826,10,-9.97179e-05,-2.50208,0.409423,0.144105,-17.6983,0.0316853,
2,0,0,1,0,46477.3,0.0305126,0.0302407,-3.11669,24,0.00298011,10,-9.42507e-05,-2.50631,0.383814,0.15372,-18.7459,0.0302407,
2,0,0,1,0,46477.3,0.0290126,0.0286739,-3.08838,24,0.00286295,10,-8.85561e-05,-2.51027,0.428635,0.137646,-16.6322,0.0286739,
2,0,0,1,0,46477.3,0.0275162,0.02718,-3.06902,24,0.00274704,10,-8.3416e-05,-2.513,0.42876,0.137606,-16.4965,0.02718,
2,0,0,1,0,46477.4,0.0260198,0.0256757,-3.04661,24,0.00263204,10,-7.82239e-05,-2.51618,0.38693,0.152482,-18.1046,0.0256757,
2,0,0,1,0,46477.4,0.0245198,0.0242017,-3.01681,24,0.00251767,10,-7.3012e-05,-2.52045,0.434998,0.135633,-15.9665,0.0242017,
2,0,0,1,0,46477.4,0.0230198,0.0227274,-2.99721,24,0.00240434,10,-6.81186e-05,-2.52328,0.450991,0.130823,-15.2854,0.0227274,
2,0,0,1,0,46477.5,0.0215243,0.0212253,-2.97239,24,0.00229212,10,-6.30898e-05,-2.52689,0.482197,0.122357,-14.1728,0.0212253,
2,0,0,1,0,46477.5,0.0200288,0.0196893,-2.94729,24,0.00218073,10,-5.803e-05,-2.53058,0.44939,0.131289,-15.1059,0.01968926,
2,0,0,1,0,46477.6,0.0185253,0.0182018,-2.92613,24,0.00206956,10,-5.32609e-05,-2.53371,0.469741,0.125601,-14.3687,0.0182018,
2,0,0,1,0,46477.6,0.0170289,0.0167379,-2.90004,24,0.00195989,10,-4.85406e-05,-2.5376,0.456119,0.129352,-14.6897,0.0167379,
2,0,0,1,0,46477.6,0.0155325,0.0152184,-2.88486,24,0.0018509,10,-4.3903e-05,-2.53988,0.532532,0.110791,-12.4858,0.0152184,
2,0,0,1,0,46477.7,0.0140325,0.0137315,-2.8719,24,0.0017423,10,-3.94354e-05,-2.54183,0.509661,0.115763,-12.9524,0.0137315,
2,0,0,1,0,46477.7,0.0125325,0.0122381,-2.84937,24,0.00163437,10,-3.48707e-05,-2.54525,0.528454,0.111646,-12.411,0.01223805,
2,0,0,1,0,46477.7,0.0110361,0.0107443,-2.83555,24,0.00152748,10,-3.0466e-05,-2.54736,0.59606,0.0989833,-10.948,0.0107443,
2,0,0,1,0,46477.8,0.0095397,0.0092514,-2.81959,24,0.00142115,10,-2.60851e-05,-2.54981,0.77812,0.0758238,-8.33966,0.009251398,
2,0,0,1,0,46477.8,0.00803616,0.00771214,-2.80583,24,0.00131475,10,-2.1639e-05,-2.55194,0.789578,0.0747235,-8.18761,0.00771214,
2,0,0,1,0,46477.9,0.00654064,0.00623526,-2.79164,24,0.00120937,10,-1.74066e-05,-2.55414,0.698623,0.0844518,-9.21491,0.00623526,
2,0,0,1,0,46477.9,0.00504513,0.00472327,-2.77588,24,0.00110449,10,-1.31112e-05,-2.5566,1.02359,0.0576404,-6.26856,0.00472327,
2,0,0,1,0,46477.9,0.00354515,0.00323496,-2.77265,24,0.000999763,10,-8.96943e-06,-2.5571,-5.81305,-0.0101496,1.10325,0.00323496,
2,0,0,1,0,46478,0.00204518,0.0016872,-2.80066,24,0.000895048,10,-4.72527e-06,-2.55274,3.73977,0.0157764,-1.70359,0.0016872,
2,0,0,1,0,46478,0.000548773,0.000142657,-2.77554,24,0.000790322,10,-3.95949e-07,-2.55665, , , ,0.000142657,
2,0,0,1,0,46478,0.000177222,-0.000242103,-2.76353,24,0.000764381,10,6.69059e-07,-2.55854, , , ,-0.000242103,