File: Figure_codes/Fig_3-5/rawdata_trumpetplot_data/after 10th/20221101_1-115_003_TrumpetPlot_ParaChange_from10_every3_10_CV_C01_32.csv
mode,ox/red,error,control changes,counter inc.,time/s,control/V,Ewe/V,<I>/mA,cycle number,(Q-Qo)/C,I Range,P/W,log(|I|),Tafel slope mV/dec,alpha_eff,dI/d(E-IR),E-IR/V,
2,1,0,0,0,64234.7,-2.44065e-05,-0.000248974,5.07791,33,0.0000000E+000,10,-1.26427e-06,-2.29432, , , ,-0.000248974,
2,1,0,1,0,64234.7,0.00179726,0.00140128,5.74084,33,4.80864e-05,10,8.04454e-06,-2.24102, , , ,0.00140128,
2,1,0,1,0,64234.7,0.00379485,0.00346908,6.24642,33,0.000108256,10,2.16693e-05,-2.20437,0.0659806,0.894203,215.194,0.003469076,
2,1,0,1,0,64234.7,0.00579244,0.00545177,6.61248,33,0.000172679,10,3.60497e-05,-2.17964,0.0867079,0.680446,174.973,0.00545177,
2,1,0,1,0,64234.7,0.00779002,0.00745435,6.94373,33,0.000240499,10,5.1761e-05,-2.15841,0.104251,0.565944,152.727,0.00745435,
2,1,0,1,0,64234.7,0.00977853,0.00946994,7.22616,33,0.000310733,10,6.84313e-05,-2.14109,0.122845,0.48028,135.108,0.00946994,
2,1,0,1,0,64234.8,0.0117761,0.0114177,7.47922,33,0.000384295,10,8.53956e-05,-2.12614,0.144253,0.409003,119.105,0.0114177,
2,1,0,1,0,64234.8,0.0137737,0.0134679,7.70233,33,0.000460253,10,0.000103734,-2.11338,0.164456,0.358759,107.72,0.0134679,
2,1,0,1,0,64234.8,0.0157713,0.0154356,7.91202,33,0.000538327,10,0.000122127,-2.10171,0.182602,0.323107,99.612,0.0154356,
2,1,0,1,0,64234.8,0.017778,0.0174606,8.10005,33,0.000618469,10,0.000141432,-2.09151,0.207146,0.284823,89.9284,0.0174606,
2,1,0,1,0,64234.8,0.0197755,0.0194274,8.271,33,0.000700318,10,0.000160684,-2.08244,0.231451,0.254913,82.1925,0.0194274,
2,1,0,1,0,64234.8,0.0217731,0.0214229,8.42573,33,0.000783844,10,0.000180504,-2.07439,0.24965,0.236331,77.7097,0.0214229,
2,1,0,1,0,64234.8,0.0237707,0.0234262,8.58175,33,0.000868884,10,0.000201038,-2.06642,0.268934,0.219384,73.4008,0.0234262,
2,1,0,1,0,64234.8,0.0257774,0.0254582,8.72192,33,0.000955415,10,0.000222044,-2.05939,0.296269,0.199144,67.7526,0.0254582,
2,1,0,1,0,64234.8,0.027775,0.0274571,8.85485,33,0.00104327,10,0.000243129,-2.05282,0.323956,0.182123,62.8871,0.0274571,
2,1,0,1,0,64234.8,0.0297726,0.0294787,8.97476,33,0.00113246,10,0.000264564,-2.04698,0.340373,0.173339,60.7131,0.0294787,
2,1,0,1,0,64234.9,0.0317701,0.0314247,9.09573,33,0.00122284,10,0.000285831,-2.04116,0.333751,0.176779,62.762,0.0314247,
2,1,0,1,0,64234.9,0.0337586,0.0333956,9.22059,33,0.00131355,10,0.000307927,-2.03524,0.352889,0.167191,60.1248,0.0333956,
2,1,0,1,0,64234.9,0.0357562,0.0353958,9.33449,33,0.00140631,10,0.000330402,-2.02991,0.393154,0.150069,54.6359,0.0353958,
2,1,0,1,0,64234.9,0.0377538,0.0373713,9.43781,33,0.00150022,10,0.000352704,-2.02513,0.39675,0.148708,54.8097,0.03737133,
2,1,0,1,0,64234.9,0.0397514,0.0394097,9.5545,33,0.00159517,10,0.00037654,-2.01979,0.378313,0.155956,58.1557,0.0394097,
2,1,0,1,0,64234.9,0.0417399,0.041416,9.67303,33,0.00169036,10,0.000400619,-2.01444,0.391306,0.150777,56.8863,0.041416,
2,1,0,1,0,64234.9,0.0437375,0.0433942,9.78116,33,0.0017876,10,0.000424445,-2.00961,0.42821,0.137783,52.5731,0.0433942,
2,1,0,1,0,64234.9,0.0457351,0.0453845,9.88166,33,0.00188592,10,0.000448474,-2.00517,0.43262,0.136378,52.6106,0.0453845,
2,1,0,1,0,64234.9,0.0477327,0.0473444,9.98898,33,0.00198527,10,0.000472922,-2.00048,0.411267,0.143459,55.9572,0.0473444,
2,1,0,1,0,64234.9,0.0497393,0.0494353,10.1083,33,0.00208578,10,0.000499709,-1.99532,0.417444,0.141336,55.7143,0.0494353,
2,1,0,1,0,64235,0.0517369,0.0513675,10.2131,33,0.00218735,10,0.000524622,-1.99084,0.429977,0.137217,54.7069,0.0513675,
2,1,0,1,0,64235,0.0537345,0.0533768,10.324,33,0.00229008,10,0.000551061,-1.98615,0.425781,0.138569,55.8359,0.0533768,
2,1,0,1,0,64235,0.0557321,0.0553836,10.4374,33,0.00239388,10,0.000578059,-1.98141,0.452125,0.130495,53.1176,0.0553836,
2,1,0,1,0,64235,0.0577297,0.05738,10.5366,33,0.00249881,10,0.00060459,-1.9773,0.435575,0.135453,55.7676,0.05738,
2,1,0,1,0,64235,0.0597364,0.0594171,10.6623,33,0.00260485,10,0.000633524,-1.97215,0.41377,0.142591,59.2914,0.05941711,
2,1,0,1,0,64235,0.0617339,0.0613727,10.7733,33,0.00271208,10,0.000661189,-1.96765,0.44642,0.132163,55.5673,0.0613727,
2,1,0,1,0,64235,0.0637315,0.0634246,10.885,33,0.00282036,10,0.000690376,-1.96317,0.453268,0.130166,55.2897,0.0634246,
2,1,0,1,0,64235,0.0657291,0.0653854,10.9952,33,0.00292979,10,0.000718925,-1.9588,0.420028,0.140467,60.322,0.0653854,
2,1,0,1,0,64235,0.0677176,0.0673742,11.1232,33,0.00303931,10,0.00074942,-1.95377,0.436694,0.135106,58.5862,0.0673742,
2,1,0,1,0,64235,0.0697152,0.0693561,11.2278,33,0.00315114,10,0.000778719,-1.9497,0.458035,0.128811,56.4798,0.0693561,
2,1,0,1,0,64235.1,0.0717128,0.0713475,11.3477,33,0.00326401,10,0.000809627,-1.94509,0.431766,0.136648,60.5239,0.07134755,
2,1,0,1,0,64235.1,0.0737104,0.0733764,11.4712,33,0.00337815,10,0.000841712,-1.94039,0.43321,0.136193,60.9566,0.07337638,
2,1,0,1,0,64235.1,0.0756989,0.0753238,11.59,33,0.0034923,10,0.000873005,-1.93592,0.459115,0.128508,58.1058,0.07532379,
2,1,0,1,0,64235.1,0.0776965,0.0773349,11.7012,33,0.00360876,10,0.000904908,-1.93177,0.476249,0.123885,56.5846,0.0773349,
2,1,0,1,0,64235.1,0.0796941,0.0793486,11.8178,33,0.00372633,10,0.000937724,-1.92746,0.46659,0.126449,58.3175,0.0793486,
2,1,0,1,0,64235.1,0.0816917,0.0813311,11.9342,33,0.00384511,10,0.000970623,-1.92321,0.487231,0.121093,56.3804,0.0813311,
2,1,0,1,0,64235.1,0.0836983,0.0833483,12.0433,33,0.00396497,10,0.00100379,-1.91926,0.504621,0.11692,54.9585,0.0833483,
2,1,0,1,0,64235.1,0.0856959,0.0853524,12.1552,33,0.00408599,10,0.00103748,-1.91524,0.520314,0.113393,53.766,0.0853524,
2,1,0,1,0,64235.1,0.0876935,0.0873106,12.2563,33,0.00420804,10,0.00107011,-1.91164,0.537691,0.109728,52.4965,0.0873106,
2,1,0,1,0,64235.1,0.0896911,0.0893096,12.363,33,0.00433117,10,0.00110413,-1.90788,0.502607,0.117388,56.6729,0.0893096,
2,1,0,1,0,64235.2,0.0916977,0.0913537,12.4854,33,0.00445542,10,0.00114059,-1.9036,0.502784,0.117347,57.1448,0.0913537,
2,1,0,1,0,64235.2,0.0936953,0.0933466,12.5936,33,0.00458088,10,0.00117557,-1.89985,0.542569,0.108742,53.4404,0.0933466,
2,1,0,1,0,64235.2,0.0956929,0.0953681,12.7,33,0.00470735,10,0.00121117,-1.8962,0.544933,0.10827,53.662,0.0953681,
2,1,0,1,0,64235.2,0.0976905,0.0973115,12.8064,33,0.00483489,10,0.00124621,-1.89257,0.539339,0.109393,54.6868,0.0973115,
2,1,0,1,0,64235.2,0.099679,0.0993813,12.9194,33,0.00496217,10,0.00128395,-1.88876,0.570767,0.10337,52.0845,0.0993813,
2,1,0,1,0,64235.2,0.101677,0.101329,13.0157,33,0.00509192,10,0.00131886,-1.88553,0.570219,0.103469,52.591,0.101329,
2,1,0,1,0,64235.2,0.103674,0.10336,13.1287,33,0.00522263,10,0.00135699,-1.88178,0.529045,0.111522,57.1433,0.10336,
2,1,0,1,0,64235.2,0.105672,0.105319,13.2437,33,0.00535453,10,0.00139481,-1.87799,0.509327,0.115839,59.8837,0.105319,
2,1,0,1,0,64235.2,0.107656,0.107294,13.3643,33,0.0054862,10,0.00143391,-1.87405,0.521829,0.113064,58.9551,0.107294,
2,1,0,1,0,64235.2,0.109658,0.109306,13.4787,33,0.00562046,10,0.00147331,-1.87035,0.501381,0.117675,61.9454,0.109306,
2,1,0,1,0,64235.3,0.111655,0.111315,13.6133,33,0.00575591,10,0.00151536,-1.86604,0.461143,0.127943,67.976,0.111315,
2,1,0,1,0,64235.3,0.113653,0.11329,13.7495,33,0.00589276,10,0.00155769,-1.86171,0.459848,0.128303,68.851,0.11329,
2,1,0,1,0,64235.3,0.115651,0.115304,13.888,33,0.00603091,10,0.00160134,-1.85736,0.433065,0.136238,73.892,0.115304,
2,1,0,1,0,64235.3,0.117657,0.117307,14.0464,33,0.00617065,10,0.00164774,-1.85244,0.414448,0.142358,78.0183,0.117307,
2,1,0,1,0,64235.3,0.119655,0.119284,14.1986,33,0.00631187,10,0.00169367,-1.84776,0.430006,0.137208,76.021,0.119284,
2,1,0,1,0,64235.3,0.121652,0.12128,14.3484,33,0.00645468,10,0.00174017,-1.8432,0.416125,0.141784,79.4518,0.12128,
2,1,0,1,0,64235.3,0.12365,0.123328,14.5199,33,0.00659904,10,0.00179071,-1.83804,0.384357,0.153503,87.0004,0.123328,
2,1,0,1,0,64235.3,0.125657,0.125298,14.6979,33,0.00674521,10,0.00184162,-1.83274,0.397862,0.148293,85.0095,0.125298,
2,1,0,1,0,64235.3,0.127654,0.127317,14.8589,33,0.00689297,10,0.00189179,-1.82801,0.413626,0.142641,82.7382,0.127317,
2,1,0,1,0,64235.3,0.129652,0.129296,15.0287,33,0.00704246,10,0.00194315,-1.82308,0.401879,0.14681,86.1121,0.129296,
2,1,0,1,0,64235.4,0.131649,0.131293,15.2013,33,0.00719362,10,0.00199583,-1.81812,0.416126,0.141784,84.0759,0.131293,
2,1,0,1,0,64235.4,0.133638,0.133249,15.3611,33,0.007345,10,0.00204686,-1.81358,0.430534,0.137039,82.1647,0.133249,
2,1,0,1,0,64235.4,0.135636,0.135244,15.5259,33,0.00749944,10,0.00209979,-1.80894,0.442225,0.133416,80.8264,0.135244,
2,1,0,1,0,64235.4,0.137633,0.137274,15.6864,33,0.00765554,10,0.00215333,-1.80448,0.476219,0.123893,75.8034,0.137274,
2,1,0,1,0,64235.4,0.139631,0.139259,15.8303,33,0.00781311,10,0.0022045,-1.80051,0.501394,0.117672,72.6982,0.139259,
2,1,0,1,0,64235.4,0.141619,0.141243,15.9749,33,0.00797058,10,0.00225634,-1.79656,0.517185,0.114079,71.1152,0.1412427,
2,1,0,1,0,64235.4,0.143617,0.143291,16.117,33,0.00813104,10,0.00230943,-1.79271,0.557276,0.105872,66.554,0.143291,
2,1,0,1,0,64235.4,0.145614,0.145238,16.2408,33,0.0082929,10,0.00235879,-1.78939,0.624389,0.0944924,59.875,0.145238,
2,1,0,1,0,64235.4,0.147612,0.147282,16.356,33,0.00845588,10,0.00240895,-1.78632,0.648359,0.0909989,58.0941,0.147282,
2,1,0,1,0,64235.4,0.149619,0.149284,16.4759,33,0.00862006,10,0.00245958,-1.78315,0.723915,0.0815013,52.3558,0.149284,
2,1,0,1,0,64235.5,0.151616,0.151273,16.5649,33,0.00878528,10,0.00250583,-1.78081,0.938521,0.0628649,40.6207,0.151273,
2,1,0,1,0,64235.5,0.153614,0.153275,16.638,33,0.00895135,10,0.00255018,-1.7789,1.12337,0.0525205,34.0922,0.153275,
2,1,0,1,0,64235.5,0.155611,0.155253,16.7006,33,0.00911805,10,0.00259282,-1.77727,1.3912,0.0424095,27.629,0.155253,
2,1,0,1,0,64235.5,0.157618,0.157273,16.7485,33,0.00928533,10,0.00263409,-1.77602,3.20624,0.0184016,12.0111,0.157273,
2,1,0,1,0,64235.5,0.159616,0.159304,16.7493,33,0.00945282,10,0.00266822,-1.776,-9.80285,-0.00601866,-3.93218,0.159304,
2,1,0,1,0,64235.5,0.161613,0.161303,16.7326,33,0.00962029,10,0.00269902,-1.77644,-2.37615,-0.02483,-16.1997,0.161303,
2,1,0,1,0,64235.5,0.163611,0.163251,16.6853,33,0.0097874,10,0.0027239,-1.77767,-1.22522,-0.0481545,-31.329,0.163251,
2,1,0,1,0,64235.5,0.165618,0.165269,16.6084,33,0.0099539,10,0.00274485,-1.77967,-0.794646,-0.0742469,-48.0676,0.165269,
2,1,0,1,0,64235.5,0.167597,0.167266,16.4923,33,0.0101177,10,0.00275861,-1.78272,-0.578537,-0.101981,-65.5792,0.167266,
2,1,0,1,0,64235.5,0.169595,0.169261,16.3466,33,0.0102819,10,0.00276684,-1.78657,-0.451803,-0.130588,-83.1997,0.169261,
2,1,0,1,0,64235.6,0.171592,0.171274,16.1589,33,0.0104444,10,0.0027676,-1.79159,-0.364918,-0.16168,-101.86,0.171274,
2,1,0,1,0,64235.6,0.173572,0.173241,15.9412,33,0.0106033,10,0.00276166,-1.79748,-0.317525,-0.185812,-115.513,0.173241,
2,1,0,1,0,64235.6,0.175578,0.175234,15.7015,33,0.0107615,10,0.00275143,-1.80406,-0.281214,-0.209805,-128.406,0.175234,
2,1,0,1,0,64235.6,0.177576,0.177253,15.426,33,0.0109171,10,0.00273431,-1.81175,-0.246627,-0.239228,-143.891,0.177253,
2,1,0,1,0,64235.6,0.179573,0.179233,15.1261,33,0.0110698,10,0.00271109,-1.82027,-0.227317,-0.259549,-153.137,0.179233,
2,1,0,1,0,64235.6,0.181571,0.181247,14.8143,33,0.0112195,10,0.00268506,-1.82932,-0.216819,-0.272116,-157.258,0.181247,
2,1,0,1,0,64235.6,0.183578,0.18325,14.4944,33,0.0113661,10,0.00265609,-1.8388,-0.203241,-0.290295,-164.09,0.18325,
2,1,0,1,0,64235.6,0.185575,0.185248,14.1579,33,0.0115093,10,0.00262272,-1.849,-0.194693,-0.303041,-167.428,0.185248,
2,1,0,1,0,64235.6,0.187573,0.187251,13.8244,33,0.0116492,10,0.00258864,-1.85935,-0.190735,-0.30933,-166.848,0.187251,
2,1,0,1,0,64235.6,0.18957,0.189255,13.4893,33,0.0117858,10,0.00255291,-1.87001,-0.189899,-0.310691,-163.618,0.189255,
2,1,0,1,0,64235.7,0.191577,0.191258,13.1687,33,0.011919,10,0.00251863,-1.88046,-0.189225,-0.311798,-160.248,0.1912584,
2,1,0,1,0,64235.7,0.193575,0.193219,12.854,33,0.0120491,10,0.00248364,-1.89096,-0.190766,-0.309279,-155.186,0.193219,
2,1,0,1,0,64235.7,0.195572,0.195244,12.5502,33,0.0121761,10,0.00245035,-1.90135,-0.194145,-0.303896,-148.85,0.195244,
2,1,0,1,0,64235.7,0.19757,0.197266,12.2517,33,0.0123001,10,0.00241684,-1.9118,-0.200788,-0.293842,-140.673,0.197266,
2,1,0,1,0,64235.7,0.199558,0.199242,11.9878,33,0.01242,10,0.00238847,-1.92126,-0.206132,-0.286224,-133.872,0.199242,
2,1,0,1,0,64235.7,0.201556,0.201228,11.7213,33,0.0125385,10,0.00235865,-1.93103,-0.206037,-0.286357,-131.048,0.201228,
2,1,0,1,0,64235.7,0.203553,0.203204,11.4686,33,0.0126544,10,0.00233046,-1.94049,-0.217744,-0.27096,-121.353,0.203204,
2,1,0,1,0,64235.7,0.205551,0.205246,11.2337,33,0.0127678,10,0.00230567,-1.94948,-0.235642,-0.25038,-109.89,0.2052459,
2,1,0,1,0,64235.7,0.20754,0.207229,11.0262,33,0.0128779,10,0.00228496,-1.95757,-0.238335,-0.247551,-106.486,0.2072293,
2,1,0,1,0,64235.7,0.209537,0.209195,10.8131,33,0.0129871,10,0.00226205,-1.96605,-0.240068,-0.245764,-103.766,0.209195,
2,1,0,1,0,64235.7,0.211535,0.211205,10.6137,33,0.0130942,10,0.00224167,-1.97413,-0.255218,-0.231175,-95.8238,0.211205,
2,1,0,1,0,64235.8,0.213532,0.213179,10.4314,33,0.0131994,10,0.00222375,-1.98166,-0.27224,-0.216721,-88.2675,0.213179,
2,1,0,1,0,64235.8,0.215539,0.215208,10.2604,33,0.0133027,10,0.00220812,-1.98884,-0.280439,-0.210384,-84.2511,0.2152078,
2,1,0,1,0,64235.8,0.217537,0.217196,10.0929,33,0.0134045,10,0.00219214,-1.99598,-0.290578,-0.203043,-80.0181,0.217196,
2,1,0,1,0,64235.8,0.219534,0.219245,9.93736,33,0.0135046,10,0.00217871,-2.00273,-0.313757,-0.188044,-72.9772,0.219245,
2,1,0,1,0,64235.8,0.221532,0.221255,9.79673,33,0.0136033,10,0.00216757,-2.00892,-0.312546,-0.188773,-72.1624,0.221255,
2,1,0,1,0,64235.8,0.223534,0.223169,9.65418,33,0.0137005,10,0.00215451,-2.01528,-0.337262,-0.174938,-65.9795,0.223169,
2,1,0,1,0,64235.8,0.225536,0.225257,9.53266,33,0.0137965,10,0.0021473,-2.02079,-0.361612,-0.163158,-60.6918,0.225257,
2,1,0,1,0,64235.8,0.227534,0.227197,9.4097,33,0.0138912,10,0.00213786,-2.02642,-0.353858,-0.166733,-61.2385,0.227197,
2,1,0,1,0,64235.8,0.229531,0.229212,9.29049,33,0.0139847,10,0.00212949,-2.03196,-0.37161,-0.158768,-57.5842,0.229212,
2,1,0,1,0,64235.8,0.231529,0.231219,9.17808,33,0.014077,10,0.00212215,-2.03725,-0.412249,-0.143117,-51.3269,0.231219,
2,1,0,1,0,64235.9,0.233517,0.233135,9.08913,33,0.0141675,10,0.00211899,-2.04148,-0.439158,-0.134348,-47.6259,0.233135,
2,1,0,1,0,64235.9,0.235515,0.235183,8.98933,33,0.0142578,10,0.00211414,-2.04627,-0.428158,-0.1378,-48.3499,0.235183,
2,1,0,1,0,64235.9,0.237512,0.2372,8.8926,33,0.0143472,10,0.00210932,-2.05097,-0.443234,-0.133113,-46.2177,0.2372,
2,1,0,1,0,64235.9,0.23951,0.23918,8.80459,33,0.0144356,10,0.00210588,-2.05529,-0.484673,-0.121732,-41.8501,0.23918,
2,1,0,1,0,64235.9,0.241499,0.24118,8.72604,33,0.0145224,10,0.00210454,-2.05918,-0.481024,-0.122655,-41.747,0.24118,
2,1,0,1,0,64235.9,0.243496,0.243163,8.63831,33,0.0146092,10,0.00210052,-2.06357,-0.517089,-0.1141,-38.5109,0.243163,
2,1,0,1,0,64235.9,0.245494,0.245203,8.57111,33,0.0146953,10,0.00210166,-2.06696,-0.539295,-0.109402,-36.5686,0.245203,
2,1,0,1,0,64235.9,0.247491,0.24717,8.49176,33,0.0147805,10,0.00209891,-2.071,-0.529453,-0.111436,-36.9539,0.24717,
2,1,0,1,0,64235.9,0.249498,0.249194,8.42359,33,0.0148651,10,0.00209911,-2.0745,-0.591414,-0.0997609,-32.8055,0.249194,
2,1,0,1,0,64235.9,0.251496,0.251167,8.36064,33,0.014949,10,0.00209992,-2.07776,-0.600535,-0.0982458,-32.0543,0.251167,
2,1,0,1,0,64236,0.253493,0.25315,8.2968,33,0.0150323,10,0.00210034,-2.08109,-0.581727,-0.101422,-32.8318,0.2531499,
2,1,0,1,0,64236,0.255491,0.255177,8.22901,33,0.015115,10,0.00209985,-2.08465,-0.641435,-0.0919812,-29.5694,0.255177,
2,1,0,1,0,64236,0.257497,0.257171,8.1779,33,0.0151971,10,0.00210312,-2.08736,-0.760621,-0.0775682,-24.7621,0.257171,
2,1,0,1,0,64236,0.259495,0.259147,8.1307,33,0.0152786,10,0.00210704,-2.08987,-0.690176,-0.0854855,-27.1008,0.259147,
2,1,0,1,0,64236,0.261493,0.2612,8.0687,33,0.0153596,10,0.00210755,-2.0932,-0.680371,-0.0867174,-27.3315,0.2612,
2,1,0,1,0,64236,0.26349,0.263145,8.02143,33,0.01544,10,0.0021108,-2.09575,-0.835978,-0.070576,-22.1034,0.2631447,
2,1,0,1,0,64236,0.265479,0.26516,7.98118,33,0.0155192,10,0.00211629,-2.09793,-0.771338,-0.0764904,-23.8028,0.26516,
2,1,0,1,0,64236,0.267476,0.267152,7.92606,33,0.0155987,10,0.00211746,-2.10094,-0.744885,-0.0792068,-24.5211,0.267152,
2,1,0,1,0,64236,0.269474,0.269117,7.88416,33,0.0156777,10,0.00212176,-2.10324,-0.856283,-0.0689025,-21.1998,0.269117,
2,1,0,1,0,64236,0.271471,0.271134,7.84164,33,0.0157563,10,0.00212613,-2.10559,-0.981844,-0.060091,-18.4021,0.271134,
2,1,0,1,0,64236.1,0.27346,0.273167,7.80962,33,0.0158337,10,0.00213333,-2.10737,-0.811596,-0.0726963,-22.1225,0.273167,
2,1,0,1,0,64236.1,0.275458,0.275112,7.75363,33,0.0159115,10,0.00213312,-2.11049,-0.766635,-0.0769597,-23.3184,0.275112,
2,1,0,1,0,64236.1,0.277455,0.277093,7.71807,33,0.0159889,10,0.00213863,-2.11249,-0.947509,-0.0622686,-18.7511,0.2770932,
2,1,0,1,0,64236.1,0.279453,0.279116,7.67854,33,0.0160658,10,0.00214321,-2.11472,-0.950952,-0.0620431,-18.5972,0.279116,
2,1,0,1,0,64236.1,0.281455,0.281125,7.64309,33,0.0161424,10,0.00214866,-2.11673,-0.970991,-0.0607627,-18.122,0.281125,
2,1,0,1,0,64236.1,0.283457,0.283144,7.60555,33,0.0162186,10,0.00215347,-2.11887,-0.973757,-0.0605901,-17.9875,0.283144,
2,1,0,1,0,64236.1,0.285455,0.285147,7.57075,33,0.0162945,10,0.00215878,-2.12086,-0.906808,-0.0650634,-19.2154,0.285147,
2,1,0,1,0,64236.1,0.287452,0.287105,7.52943,33,0.01637,10,0.00216174,-2.12324,-0.995768,-0.0592507,-17.4264,0.287105,
2,1,0,1,0,64236.1,0.28945,0.289112,7.50165,33,0.0164451,10,0.00216882,-2.12484,-1.08167,-0.0545454,-15.9601,0.289112,
2,1,0,1,0,64236.1,0.291456,0.291107,7.46557,33,0.01652,10,0.00217328,-2.12694,-1.03302,-0.0571141,-16.6465,0.291107,
2,1,0,1,0,64236.2,0.293454,0.293125,7.43485,33,0.0165945,10,0.00217934,-2.12873,-1.03999,-0.0567313,-16.455,0.293125,
2,1,0,1,0,64236.2,0.295452,0.295166,7.39877,33,0.0166687,10,0.00218387,-2.13084,-1.18606,-0.0497444,-14.3777,0.295166,
2,1,0,1,0,64236.2,0.297449,0.297138,7.37715,33,0.0167426,10,0.00219203,-2.13211,-1.31923,-0.0447231,-12.8689,0.297138,
2,1,0,1,0,64236.2,0.299438,0.29916,7.34737,33,0.0168154,10,0.00219804,-2.13387,-0.0754359,-0.782121,-217.356,0.29916,
2,1,0,1,0,64236.2,0.299746,0.299469,6.87063,33,0.0168464,10,0.00205754,-2.163,0.00925423,6.37546,1491.75,0.299469,
2,1,0,1,0,64236.2,0.29774,0.297466,4.82046,33,0.0169036,10,0.00143392,-2.31691,0.0137317,4.29661,837.542,0.297466,
2,1,0,1,0,64236.2,0.295742,0.29544,3.49607,33,0.0169447,10,0.00103288,-2.45642,0.0138802,4.25067,582.536,0.2954396,
2,1,0,1,0,64236.2,0.293745,0.293422,2.46423,33,0.0169742,10,0.000723059,-2.60832,0.0122158,4.82982,461.124,0.293422,
2,1,0,1,0,64236.2,0.291747,0.291396,1.63132,33,0.0169944,10,0.00047536,-2.78746,0.00944384,6.24746,383.32,0.291396,
2,1,0,1,0,64236.2,0.289745,0.289411,0.926757,33,0.0170071,10,0.000268213,-3.03303,0.00597297,9.87784,321.238,0.289411,
2,1,0,1,0,64236.3,0.287743,0.28741,0.350945,33,0.0170133,10,0.000100865,-3.45476,0.00503393,11.7205,269.189,0.28741,
2,0,0,1,0,64236.3,0.285745,0.285414,-0.148976,33,0.0170142,10,-4.25198e-05,-3.82688,-0.0188749,-3.12585,231.128,0.2854144,
2,0,0,1,0,64236.3,0.283748,0.283422,-0.570882,33,0.0170105,10,-0.0001618,-3.24345,-0.00492615,-11.9769,202.918,0.283422,
2,0,0,1,0,64236.3,0.28175,0.281437,-0.955999,33,0.0170028,10,-0.000269054,-3.01954,-0.0114373,-5.15856,176.642,0.281437,
2,0,0,1,0,64236.3,0.279761,0.279419,-1.27787,33,0.0169916,10,-0.000357061,-2.89351,-0.0183703,-3.2117,155.619,0.279419,
2,0,0,1,0,64236.3,0.277764,0.277434,-1.57898,33,0.0169772,10,-0.000438062,-2.80162,-0.0255165,-2.31223,138.886,0.277434,
2,0,0,1,0,64236.3,0.275766,0.275417,-1.83368,33,0.0169601,10,-0.000505027,-2.73668,-0.0338436,-1.74332,123.308,0.275417,
2,0,0,1,0,64236.3,0.273769,0.27347,-2.06774,33,0.0169406,10,-0.000565466,-2.6845,-0.0422089,-1.39781,111.683,0.27347,
2,0,0,1,0,64236.3,0.27178,0.271449,-2.27682,33,0.016919,10,-0.000618041,-2.64267,-0.0507939,-1.16156,102.727,0.271449,
2,0,0,1,0,64236.3,0.269783,0.269489,-2.47677,33,0.0168952,10,-0.00066746,-2.60612,-0.060792,-0.970523,93.1489,0.269489,
2,0,0,1,0,64236.4,0.267785,0.26743,-2.65124,33,0.0168695,10,-0.000709021,-2.57655,-0.0721055,-0.818246,84.4486,0.2674298,
2,0,0,1,0,64236.4,0.265787,0.265428,-2.81966,33,0.0168421,10,-0.000748417,-2.5498,-0.0818935,-0.720448,78.8829,0.265428,
2,0,0,1,0,64236.4,0.263781,0.263443,-2.96572,33,0.0168132,10,-0.000781298,-2.52787,-0.0924742,-0.638016,73.7898,0.2634432,
2,0,0,1,0,64236.4,0.261783,0.261465,-3.1121,33,0.0167827,10,-0.000813706,-2.50695,-0.106233,-0.555381,67.1313,0.261465,
2,0,0,1,0,64236.4,0.259786,0.259469,-3.23253,33,0.016751,10,-0.00083874,-2.49046,-0.118596,-0.497487,62.836,0.259469,
2,0,0,1,0,64236.4,0.257788,0.257457,-3.36397,33,0.016718,10,-0.000866077,-2.47315,-0.127974,-0.461031,60.3093,0.257457,
2,0,0,1,0,64236.4,0.255781,0.255462,-3.47417,33,0.0166837,10,-0.000887517,-2.45915,-0.144382,-0.408638,55.4027,0.255462,
2,0,0,1,0,64236.4,0.253784,0.253442,-3.58638,33,0.0166484,10,-0.000908941,-2.44534,-0.160684,-0.36718,51.2458,0.253442,
2,0,0,1,0,64236.4,0.251786,0.251443,-3.68011,33,0.0166121,10,-0.000925339,-2.43414,-0.167115,-0.35305,50.7959,0.251443,
2,0,0,1,0,64236.4,0.249789,0.249459,-3.78871,33,0.0165747,10,-0.000945128,-2.42151,-0.17784,-0.331759,48.8941,0.249459,
2,0,0,1,0,64236.5,0.2478,0.247473,-3.87422,33,0.0165368,10,-0.000958765,-2.41182,-0.199047,-0.296413,44.8581,0.247473,
2,0,0,1,0,64236.5,0.245802,0.245458,-3.96819,33,0.0164976,10,-0.000974024,-2.40141,-0.209911,-0.281072,43.4448,0.245458,
2,0,0,1,0,64236.5,0.243805,0.243469,-4.04818,33,0.0164575,10,-0.000985608,-2.39274,-0.231615,-0.254733,40.2369,0.243469,
2,0,0,1,0,64236.5,0.241807,0.241495,-4.12765,33,0.0164166,10,-0.000996807,-2.3843,-0.238948,-0.246916,39.7627,0.241495,
2,0,0,1,0,64236.5,0.239819,0.239514,-4.20546,33,0.0163753,10,-0.00100726,-2.37619,-0.241292,-0.244517,40.1453,0.239514,
2,0,0,1,0,64236.5,0.237821,0.237522,-4.28716,33,0.0163329,10,-0.00101829,-2.36783,-0.270606,-0.218029,36.3985,0.237522,
2,0,0,1,0,64236.5,0.235824,0.235524,-4.35066,33,0.0162897,10,-0.00102469,-2.36144,-0.294464,-0.200364,34.0591,0.235524,
2,0,0,1,0,64236.5,0.233826,0.23348,-4.4248,33,0.0162458,10,-0.0010331,-2.35411,-0.294928,-0.200049,34.5121,0.23348,
2,0,0,1,0,64236.5,0.231824,0.231455,-4.49109,33,0.0162013,10,-0.00103949,-2.34765,-0.299722,-0.196849,34.5167,0.2314554,
2,0,0,1,0,64236.5,0.229822,0.229511,-4.56181,33,0.016156,10,-0.00104699,-2.34086,-0.327943,-0.17991,31.9741,0.229511,
2,0,0,1,0,64236.6,0.227824,0.22751,-4.61723,33,0.0161101,10,-0.00105047,-2.33562,-0.343891,-0.171566,30.9552,0.22751,
2,0,0,1,0,64236.6,0.225827,0.22553,-4.68505,33,0.0160637,10,-0.00105662,-2.32929,-0.372973,-0.158189,28.8637,0.22553,
2,0,0,1,0,64236.6,0.223829,0.223467,-4.73393,33,0.0160165,10,-0.00105788,-2.32478,-0.367908,-0.160366,29.6929,0.223467,
2,0,0,1,0,64236.6,0.221822,0.221519,-4.80415,33,0.0159688,10,-0.00106421,-2.31838,-0.373299,-0.15805,29.5583,0.221519,
2,0,0,1,0,64236.6,0.219825,0.21952,-4.85061,33,0.0159205,10,-0.00106481,-2.3142,-0.40124,-0.147044,27.8895,0.21952,
2,0,0,1,0,64236.6,0.217827,0.217503,-4.91614,33,0.0158717,10,-0.00106928,-2.30838,-0.419581,-0.140616,26.917,0.217503,
2,0,0,1,0,64236.6,0.21583,0.215473,-4.95953,33,0.0158223,10,-0.00106865,-2.30456,-0.404153,-0.145984,28.3298,0.215473,
2,0,0,1,0,64236.6,0.213841,0.213511,-5.02925,33,0.0157728,10,-0.0010738,-2.2985,-0.395546,-0.149161,29.2079,0.213511,
2,0,0,1,0,64236.6,0.211843,0.211493,-5.07579,33,0.0157223,10,-0.00107349,-2.2945,-0.468719,-0.125875,24.9523,0.211493,
2,0,0,1,0,64236.6,0.209846,0.209483,-5.12974,33,0.0156713,10,-0.0010746,-2.2899,-0.485275,-0.12158,24.3149,0.209483,
2,0,0,1,0,64236.7,0.207848,0.20748,-5.17337,33,0.0156197,10,-0.00107337,-2.28623,-0.412105,-0.143167,28.9803,0.20748,
2,0,0,1,0,64236.7,0.20586,0.205535,-5.24417,33,0.0155681,10,-0.00107786,-2.28032,-0.41884,-0.140865,28.753,0.205535,
2,0,0,1,0,64236.7,0.203862,0.203514,-5.28739,33,0.0155155,10,-0.00107606,-2.27676,-0.522473,-0.112925,23.3156,0.2035142,
2,0,0,1,0,64236.7,0.201865,0.201551,-5.33706,33,0.0154624,10,-0.00107569,-2.2727,-0.512758,-0.115064,23.958,0.201551,
2,0,0,1,0,64236.7,0.199867,0.199515,-5.38321,33,0.0154087,10,-0.00107403,-2.26896,-0.464246,-0.127088,26.7405,0.199515,
2,0,0,1,0,64236.7,0.19786,0.197472,-5.44612,33,0.0153546,10,-0.00107546,-2.26391,-0.50973,-0.115748,24.5386,0.197472,
2,0,0,1,0,64236.7,0.195863,0.195512,-5.48142,33,0.0152999,10,-0.00107169,-2.26111,-0.511916,-0.115253,24.7153,0.195512,
2,0,0,1,0,64236.7,0.193865,0.193525,-5.54367,33,0.0152448,10,-0.00107284,-2.2562,-0.485258,-0.121585,26.2582,0.193525,
2,0,0,1,0,64236.7,0.191868,0.191512,-5.58647,33,0.0151891,10,-0.00106987,-2.25286,-0.494822,-0.119235,26.0382,0.191512,
2,0,0,1,0,64236.7,0.189861,0.189527,-5.64779,33,0.015133,10,-0.00107041,-2.24812,-0.490727,-0.12023,26.4586,0.189527,
2,0,0,1,0,64236.8,0.187863,0.18754,-5.69156,33,0.0150763,10,-0.00106739,-2.24477,-0.513912,-0.114806,25.5338,0.18754,
2,0,0,1,0,64236.8,0.185866,0.185514,-5.75025,33,0.0150191,10,-0.00106675,-2.24031,-0.544707,-0.108315,24.2663,0.185514,
2,0,0,1,0,64236.8,0.183868,0.183493,-5.78976,33,0.0149613,10,-0.00106238,-2.23734,-0.468602,-0.125906,28.5322,0.183493,
2,0,0,1,0,64236.8,0.18188,0.181549,-5.86338,33,0.0149037,10,-0.00106449,-2.23185,-0.452851,-0.130286,29.7369,0.181549,
2,0,0,1,0,64236.8,0.179882,0.179538,-5.90739,33,0.0148448,10,-0.0010606,-2.2286,-0.530759,-0.111162,25.6591,0.179538,
2,0,0,1,0,64236.8,0.177885,0.177548,-5.96605,33,0.0147855,10,-0.00105926,-2.22431,-0.525006,-0.11238,26.138,0.177548,
2,0,0,1,0,64236.8,0.175887,0.175526,-6.01224,33,0.0147256,10,-0.00105531,-2.22096,-0.483208,-0.122101,28.7025,0.175526,
2,0,0,1,0,64236.8,0.173908,0.173543,-6.081,33,0.0146658,10,-0.00105531,-2.21602,-0.45092,-0.130844,31.0133,0.1735428,
2,0,0,1,0,64236.8,0.171901,0.171568,-6.13499,33,0.0146046,10,-0.00105257,-2.21219,-0.455394,-0.129558,31.0595,0.1715681,
2,0,0,1,0,64236.8,0.169903,0.16955,-6.20501,33,0.014543,10,-0.00105206,-2.20726,-0.453204,-0.130184,31.4901,0.16955,
2,0,0,1,0,64236.9,0.167906,0.167552,-6.26146,33,0.0144806,10,-0.00104912,-2.20332,-0.433164,-0.136207,33.3365,0.167552,
2,0,0,1,0,64236.9,0.165908,0.16556,-6.33803,33,0.0144177,10,-0.00104932,-2.19805,-0.430028,-0.1372,33.8876,0.16556,
2,0,0,1,0,64236.9,0.163901,0.163563,-6.39664,33,0.0143539,10,-0.00104625,-2.19405,-0.408106,-0.14457,36.1678,0.163563,
2,0,0,1,0,64236.9,0.161904,0.161547,-6.48316,33,0.0142896,10,-0.00104734,-2.18821,-0.387946,-0.152083,38.4187,0.161547,
2,0,0,1,0,64236.9,0.159906,0.159578,-6.54974,33,0.0142244,10,-0.00104519,-2.18378,-0.394834,-0.14943,38.2488,0.1595778,
2,0,0,1,0,64236.9,0.157909,0.157583,-6.63478,33,0.0141584,10,-0.00104553,-2.17817,-0.343082,-0.171971,44.5567,0.157583,
2,0,0,1,0,64236.9,0.155902,0.155558,-6.72884,33,0.0140916,10,-0.00104673,-2.17206,-0.315946,-0.186741,49.065,0.155558,
2,0,0,1,0,64236.9,0.153904,0.153585,-6.83094,33,0.0140238,10,-0.00104913,-2.16552,-0.33176,-0.177839,47.3605,0.153585,
2,0,0,1,0,64236.9,0.151907,0.15153,-6.91962,33,0.013955,10,-0.00104853,-2.15992,-0.296496,-0.198991,53.883,0.15153,
2,0,0,1,0,64236.9,0.149909,0.149579,-7.04683,33,0.0138851,10,-0.00105405,-2.15201,-0.251157,-0.234913,64.5961,0.149579,
2,0,0,1,0,64237,0.147921,0.147597,-7.1737,33,0.0138146,10,-0.00105881,-2.14426,-0.252571,-0.233598,65.4299,0.147597,
2,0,0,1,0,64237,0.145923,0.145575,-7.30879,33,0.0137422,10,-0.00106398,-2.13615,-0.234515,-0.251583,71.8282,0.145575,
2,0,0,1,0,64237,0.143926,0.143619,-7.45938,33,0.0136684,10,-0.00107131,-2.1273,-0.207218,-0.284724,83.0321,0.143619,
2,0,0,1,0,64237,0.141928,0.141606,-7.63837,33,0.0135929,10,-0.00108164,-2.117,-0.197857,-0.298196,88.8699,0.141606,
2,0,0,1,0,64237,0.139939,0.139604,-7.81624,33,0.0135164,10,-0.00109118,-2.107,-0.185209,-0.318559,97.3581,0.139604,
2,0,0,1,0,64237,0.137942,0.137615,-8.02687,33,0.0134372,10,-0.00110462,-2.09545,-0.172608,-0.341815,107.095,0.137615,
2,0,0,1,0,64237,0.135944,0.135611,-8.24384,33,0.0133558,10,-0.00111796,-2.08387,-0.164284,-0.359134,115.762,0.135611,
2,0,0,1,0,64237,0.133947,0.13356,-8.4963,33,0.0132721,10,-0.00113477,-2.07077,-0.150265,-0.39264,130.27,0.13356,
2,0,0,1,0,64237,0.13194,0.131617,-8.76409,33,0.0131858,10,-0.00115351,-2.05729,-0.143493,-0.411171,140.755,0.131617,
2,0,0,1,0,64237,0.129942,0.129606,-9.0528,33,0.0130967,10,-0.0011733,-2.04322,-0.143956,-0.409847,144.791,0.1296064,
2,0,0,1,0,64237.1,0.127945,0.127594,-9.34672,33,0.0130047,10,-0.00119258,-2.02934,-0.139505,-0.422924,154.451,0.127594,
2,0,0,1,0,64237.1,0.125947,0.125615,-9.66922,33,0.0129096,10,-0.0012146,-2.01461,-0.135336,-0.435951,164.491,0.1256154,
2,0,0,1,0,64237.1,0.123941,0.123642,-9.99677,33,0.0128112,10,-0.00123602,-2.00014,-0.140721,-0.41927,163.497,0.1236416,
2,0,0,1,0,64237.1,0.121943,0.121624,-10.3219,33,0.0127096,10,-0.00125538,-1.98624,-0.148266,-0.397933,160.101,0.121624,
2,0,0,1,0,64237.1,0.119945,0.1197,-10.6278,33,0.0126048,10,-0.00127215,-1.97356,-0.148236,-0.398014,165.414,0.1197,
2,0,0,1,0,64237.1,0.117948,0.117626,-10.983,33,0.0124967,10,-0.0012919,-1.95928,-0.148442,-0.397461,170.179,0.117626,
2,0,0,1,0,64237.1,0.115946,0.115623,-11.3216,33,0.0123852,10,-0.00130904,-1.94609,-0.15635,-0.377359,166.581,0.1156232,
2,0,0,1,0,64237.1,0.113962,0.113648,-11.6457,33,0.0122714,10,-0.00132352,-1.93383,-0.167116,-0.353047,160.331,0.113648,
2,0,0,1,0,64237.1,0.111964,0.11166,-11.957,33,0.0121534,10,-0.00133512,-1.92238,-0.175194,-0.33677,157.163,0.11166,
2,0,0,1,0,64237.1,0.109967,0.109641,-12.2755,33,0.0120322,10,-0.0013459,-1.91096,-0.183214,-0.322029,154.113,0.109641,
2,0,0,1,0,64237.2,0.107969,0.107662,-12.5732,33,0.0119078,10,-0.00135365,-1.90055,-0.192962,-0.305759,150.007,0.107662,
2,0,0,1,0,64237.2,0.10598,0.10567,-12.8712,33,0.0117819,10,-0.0013601,-1.89038,-0.205045,-0.287741,144.41,0.10567,
2,0,0,1,0,64237.2,0.103983,0.103663,-13.1506,33,0.0116517,10,-0.00136324,-1.88105,-0.219479,-0.268819,137.932,0.103663,
2,0,0,1,0,64237.2,0.101985,0.101636,-13.4277,33,0.0115187,10,-0.00136473,-1.872,-0.23375,-0.252406,132.109,0.101636,
2,0,0,1,0,64237.2,0.0999877,0.0996922,-13.6752,33,0.0113832,10,-0.00136332,-1.86406,-0.243705,-0.242096,129.245,0.0996922,
2,0,0,1,0,64237.2,0.0979811,0.0977184,-13.934,33,0.0112451,10,-0.0013616,-1.85593,-0.266649,-0.221265,120.149,0.0977184,
2,0,0,1,0,64237.2,0.0959835,0.0956986,-14.1551,33,0.0111045,10,-0.00135462,-1.84909,-0.297733,-0.198164,109.453,0.0956986,
2,0,0,1,0,64237.2,0.0939859,0.0937014,-14.3736,33,0.0109619,10,-0.00134683,-1.84243,-0.322531,-0.182928,102.53,0.0937014,
2,0,0,1,0,64237.2,0.0919883,0.0916487,-14.5703,33,0.0108171,10,-0.00133535,-1.83653,-0.345633,-0.170701,97.0467,0.0916487,
2,0,0,1,0,64237.2,0.0899816,0.0896913,-14.7628,33,0.0106703,10,-0.00132409,-1.83083,-0.387784,-0.152147,87.5535,0.0896913,
2,0,0,1,0,64237.3,0.087984,0.0876403,-14.9213,33,0.0105218,10,-0.0013077,-1.82619,-0.444464,-0.132744,77.2786,0.0876403,
2,0,0,1,0,64237.3,0.0859865,0.0856882,-15.0721,33,0.0103718,10,-0.00129151,-1.82182,-0.512876,-0.115037,67.595,0.0856882,
2,0,0,1,0,64237.3,0.0839889,0.0836398,-15.1917,33,0.0102204,10,-0.00127063,-1.81839,-0.605849,-0.097384,57.7187,0.0836398,
2,0,0,1,0,64237.3,0.0820004,0.0817064,-15.302,33,0.0100694,10,-0.00125027,-1.81525,-0.729877,-0.0808355,48.2262,0.0817064,
2,0,0,1,0,64237.3,0.0800028,0.0796863,-15.3823,33,0.00991598,10,-0.00122576,-1.81298,-0.949906,-0.0621114,37.2745,0.0796863,
2,0,0,1,0,64237.3,0.0780052,0.0776631,-15.4527,33,0.0097618,10,-0.0012001,-1.811,-1.19782,-0.0492561,29.6836,0.0776631,
2,0,0,1,0,64237.3,0.0760076,0.0756875,-15.501,33,0.009607,10,-0.00117324,-1.80964,-1.65839,-0.0355768,21.5144,0.0756875,
2,0,0,1,0,64237.3,0.0740191,0.0737031,-15.5379,33,0.00945342,10,-0.00114519,-1.80861,-2.81085,-0.0209901,12.719,0.0737031,
2,0,0,1,0,64237.3,0.0720215,0.0716781,-15.552,33,0.00929794,10,-0.00111474,-1.80821,-6.72073,-0.00877881,5.32708,0.0716781,
2,0,0,1,0,64237.3,0.0700239,0.0696982,-15.5592,33,0.0091424,10,-0.00108445,-1.80801,22.9879,0.00256657,-1.55746,0.0696982,
2,0,0,1,0,64237.4,0.0680263,0.0676871,-15.5458,33,0.00898688,10,-0.00105225,-1.80839,20.0778,0.00293857,-1.78397,0.0676871,
2,0,0,1,0,64237.4,0.0660197,0.0657281,-15.5521,33,0.00883146,10,-0.00102221,-1.80821,5.3722,0.0109825,-6.65735,0.0657281,
2,0,0,1,0,64237.4,0.0640221,0.0636571,-15.519,33,0.00867609,10,-0.000987894,-1.80914,2.56413,0.0230098,-13.9402,0.0636571,
2,0,0,1,0,64237.4,0.0620245,0.0616364,-15.4951,33,0.00852106,10,-0.000955063,-1.80981,2.14728,0.0274766,-16.6062,0.0616364,
2,0,0,1,0,64237.4,0.0600269,0.0597043,-15.4533,33,0.00836628,10,-0.000922631,-1.81098,2.31103,0.0255297,-15.4083,0.0597043,
2,0,0,1,0,64237.4,0.0580248,0.057714,-15.4347,33,0.00821187,10,-0.000890796,-1.8115,2.14766,0.0274718,-16.5322,0.057714,
2,0,0,1,0,64237.4,0.0560227,0.0556543,-15.3864,33,0.00805772,10,-0.000856319,-1.81286,1.91184,0.0308602,-18.5442,0.05565431,
2,0,0,1,0,64237.4,0.0540251,0.0536918,-15.3601,33,0.007904,10,-0.000824709,-1.81361,2.10706,0.0280011,-16.7777,0.0536918,
2,0,0,1,0,64237.4,0.0520275,0.0516755,-15.3196,33,0.00775058,10,-0.00079165,-1.81475,1.70878,0.0345275,-20.6423,0.0516755,
2,0,0,1,0,64237.4,0.0500299,0.0497086,-15.2778,33,0.0075976,10,-0.000759441,-1.81594,1.8192,0.0324318,-19.3418,0.0497086,
2,0,0,1,0,64237.5,0.0480414,0.0477198,-15.2431,33,0.00744645,10,-0.0007274,-1.81693,2.02568,0.029126,-17.3267,0.0477198,
2,0,0,1,0,64237.5,0.0460438,0.0456958,-15.2083,33,0.00729423,10,-0.000694956,-1.81792,1.71277,0.0344472,-20.4376,0.0456958,
2,0,0,1,0,64237.5,0.0440462,0.0437409,-15.1618,33,0.00714237,10,-0.000663192,-1.81925,1.55542,0.0379318,-22.4478,0.0437409,
2,0,0,1,0,64237.5,0.0420486,0.041732,-15.1193,33,0.00699103,10,-0.00063096,-1.82047,1.66287,0.0354808,-20.9366,0.041732,
2,0,0,1,0,64237.5,0.0400601,0.0397416,-15.0781,33,0.00684154,10,-0.000599226,-1.82165,1.68364,0.0350431,-20.6207,0.0397416,
2,0,0,1,0,64237.5,0.0380625,0.037707,-15.0363,33,0.00669098,10,-0.000566976,-1.82286,1.38998,0.0424466,-24.8946,0.037707,
2,0,0,1,0,64237.5,0.036065,0.0357176,-14.9779,33,0.00654093,10,-0.000534975,-1.82455,1.26994,0.0464589,-27.1643,0.0357176,
2,0,0,1,0,64237.5,0.0340674,0.0337022,-14.9276,33,0.00639144,10,-0.000503091,-1.82601,1.35126,0.0436628,-25.4354,0.0337022,
2,0,0,1,0,64237.5,0.0320607,0.0316945,-14.8756,33,0.00624238,10,-0.000471474,-1.82753,1.17801,0.0500845,-29.0646,0.03169452,
2,0,0,1,0,64237.5,0.0300631,0.0297129,-14.8116,33,0.00609397,10,-0.000440096,-1.8294,1.08967,0.0541448,-31.3018,0.0297129,
2,0,0,1,0,64237.6,0.0280655,0.0277166,-14.7511,33,0.00594611,10,-0.000408848,-1.83118,1.11871,0.0527392,-30.3616,0.0277166,
2,0,0,1,0,64237.6,0.0260679,0.0257384,-14.6909,33,0.00579891,10,-0.000378121,-1.83295,1.07237,0.0550181,-31.5378,0.0257384,
2,0,0,1,0,64237.6,0.0240613,0.023723,-14.6251,33,0.00565229,10,-0.000346951,-1.8349,1.02097,0.0577882,-32.9831,0.023723,
2,0,0,1,0,64237.6,0.0220637,0.0217309,-14.5588,33,0.00550644,10,-0.000316375,-1.83688,0.878647,0.0671487,-38.1255,0.0217309,
2,0,0,1,0,64237.6,0.0200661,0.0197051,-14.4719,33,0.00536127,10,-0.00028517,-1.83947,0.776685,0.0759639,-42.9069,0.0197051,
2,0,0,1,0,64237.6,0.0180685,0.0177374,-14.3874,33,0.00521696,10,-0.000255194,-1.84202,0.843391,0.0699557,-39.2977,0.0177374,
2,0,0,1,0,64237.6,0.01608,0.0157446,-14.3163,33,0.00507489,10,-0.000225404,-1.84417,0.836826,0.0705045,-39.3699,0.0157446,
2,0,0,1,0,64237.6,0.0140824,0.013719,-14.2292,33,0.00493221,10,-0.00019521,-1.84682,0.711311,0.0829454,-46.0434,0.013719,
2,0,0,1,0,64237.6,0.0120848,0.0117291,-14.1314,33,0.00479039,10,-0.000165749,-1.84981,0.663578,0.088912,-49.0351,0.0117291,
2,0,0,1,0,64237.6,0.0100872,0.00973608,-14.0339,33,0.00464964,10,-0.000136635,-1.85282,0.67166,0.087842,-48.1179,0.00973608,
2,0,0,1,0,64237.7,0.00810328,0.00776943,-13.9409,33,0.00451117,10,-0.000108313,-1.85571,0.653314,0.0903087,-49.1202,0.00776943,
2,0,0,1,0,64237.7,0.00610116,0.0057965,-13.8404,33,0.00437229,10,-8.02258e-05,-1.85885,0.603936,0.0976925,-52.7518,0.0057965,
2,0,0,1,0,64237.7,0.00410357,0.00380621,-13.7318,33,0.00423443,10,-5.22662e-05,-1.86227,0.776922,0.0759407,-40.7733,0.00380621,
2,0,0,1,0,64237.7,0.00210598,0.00173611,-13.6748,33,0.00409762,10,-2.3741e-05,-1.86408,0.690473,0.0854486,-45.4833,0.00173611,
2,0,0,1,0,64237.7,0.00010174,-0.000263724,-13.5467,33,0.00396152,10,3.57258e-06,-1.86817,0.560639,0.105237,-55.7031,-0.000263724,
2,0,0,1,0,64237.7,-0.00189827,-0.00227744,-13.4513,33,0.00382654,10,3.06344e-05,-1.87124,0.612185,0.0963761,-50.569,-0.00227744,
2,0,0,1,0,64237.7,-0.00389586,-0.00428681,-13.3432,33,0.00369257,10,5.72e-05,-1.87474,0.59068,0.0998848,-52.0318,-0.00428681,
2,0,0,1,0,64237.7,-0.00589345,-0.00624934,-13.2446,33,0.00355966,10,8.27699e-05,-1.87796,0.600572,0.0982397,-50.7675,-0.00624934,
2,0,0,1,0,64237.7,-0.00789103,-0.00828734,-13.1401,33,0.0034277,10,0.000108897,-1.8814,0.684367,0.0862111,-44.2626,-0.00828734,
2,0,0,1,0,64237.7,-0.0098977,-0.010262,-13.067,33,0.00329664,10,0.000134094,-1.88382,0.718933,0.0820661,-41.8186,-0.010262,
2,0,0,1,0,64237.8,-0.0118953,-0.0122566,-12.9742,33,0.0031664,10,0.000159019,-1.88692,0.690184,0.0854845,-43.3032,-0.0122566,
2,0,0,1,0,64237.8,-0.0138929,-0.0142782,-12.8931,33,0.00303706,10,0.000184089,-1.88964,0.738,0.0799458,-40.2307,-0.01427816,
2,0,0,1,0,64237.8,-0.0158905,-0.0162173,-12.8148,33,0.00290849,10,0.000207821,-1.89229,0.888606,0.0663962,-33.2371,-0.0162173,
2,0,0,1,0,64237.8,-0.017879,-0.0182618,-12.7607,33,0.00278191,10,0.000233033,-1.89413,0.941076,0.0626942,-31.2,-0.0182618,
2,0,0,1,0,64237.8,-0.0198766,-0.0202652,-12.6885,33,0.00265467,10,0.000257136,-1.89659,0.931914,0.0633105,-31.3737,-0.0202652,
2,0,0,1,0,64237.8,-0.0218741,-0.022267,-12.635,33,0.00252814,10,0.000281344,-1.89842,1.10727,0.0532843,-26.2769,-0.022267,
2,0,0,1,0,64237.8,-0.0238717,-0.0242545,-12.5837,33,0.00240208,10,0.000305211,-1.90019,1.16647,0.0505798,-24.8438,-0.0242545,
2,0,0,1,0,64237.8,-0.0258602,-0.026232,-12.5365,33,0.00227777,10,0.000328858,-1.90182,1.25191,0.0471279,-23.0602,-0.026232,
2,0,0,1,0,64237.8,-0.0278578,-0.0282301,-12.492,33,0.00215264,10,0.000352651,-1.90337,1.44847,0.0407326,-19.8653,-0.0282301,
2,0,0,1,0,64237.8,-0.0298554,-0.0302516,-12.4567,33,0.00202794,10,0.000376834,-1.9046,1.69268,0.034856,-16.9471,-0.0302516,
2,0,0,1,0,64237.9,-0.031853,-0.0322237,-12.4243,33,0.00190349,10,0.000400358,-1.90573,2.21073,0.0266881,-12.9473,-0.0322237,
2,0,0,1,0,64237.9,-0.0338597,-0.0342452,-12.4049,33,0.00177939,10,0.00042481,-1.90641,2.59435,0.0227417,-11.0073,-0.0342452,
2,0,0,1,0,64237.9,-0.0358573,-0.0362685,-12.3798,33,0.00165546,10,0.000448997,-1.90729,3.01249,0.0195851,-9.46707,-0.0362685,
2,0,0,1,0,64237.9,-0.0378548,-0.0382761,-12.3668,33,0.00153172,10,0.000473353,-1.90774,3.61113,0.0163384,-7.88376,-0.0382761,
2,0,0,1,0,64237.9,-0.0398524,-0.0402638,-12.3483,33,0.00140807,10,0.00049719,-1.90839,13.6474,0.00432316,-2.08582,-0.04026382,
2,0,0,1,0,64237.9,-0.0418591,-0.0422194,-12.3586,33,0.00128456,10,0.000521771,-1.90803,-10.5525,-0.00559111,2.69562,-0.0422194,
2,0,0,1,0,64237.9,-0.0438567,-0.0442748,-12.3591,33,0.00116095,10,0.000547197,-1.90801,34.4933,0.00171048,-0.824881,-0.0442748,
2,0,0,1,0,64237.9,-0.0458543,-0.0462494,-12.3552,33,0.00103738,10,0.000571423,-1.90815,-23.322,-0.0025298,1.22045,-0.0462494,
2,0,0,1,0,64237.9,-0.0478519,-0.0482189,-12.3639,33,0.000913753,10,0.000596175,-1.90784,-3.50373,-0.0168392,8.13023,-0.0482189,
2,0,0,1,0,64237.9,-0.0498585,-0.0502196,-12.3875,33,0.000790023,10,0.000622096,-1.90702,-3.31876,-0.0177777,8.59009,-0.0502196,
2,0,0,1,0,64238,-0.051838,-0.0522055,-12.3982,33,0.000667294,10,0.000647253,-1.90664,-3.47138,-0.0169961,8.22757,-0.0522055,
2,0,0,1,0,64238,-0.0538356,-0.0542057,-12.4203,33,0.000543256,10,0.000673251,-1.90587,-2.54038,-0.0232249,11.258,-0.0542057,
2,0,0,1,0,64238,-0.0558331,-0.0561884,-12.443,33,0.00041892,10,0.000699153,-1.90507,-2.13477,-0.0276376,13.4256,-0.0561884,
2,0,0,1,0,64238,-0.0578126,-0.0582111,-12.4741,33,0.00029564,10,0.000726131,-1.90399,-2.02131,-0.029189,14.2071,-0.0582111,
2,0,0,1,0,64238,-0.0598192,-0.0602135,-12.5002,33,0.00017075,10,0.000752682,-1.90308,-1.75081,-0.0336986,16.4488,-0.06021354,
2,0,0,1,0,64238,-0.0618168,-0.0622325,-12.5402,33,4.55798e-05,10,0.00078041,-1.90169,-1.57218,-0.0375276,18.3609,-0.0622325,
2,0,0,1,0,64238,-0.0638144,-0.0641846,-12.5731,33,-8.00106e-05,10,0.000807001,-1.90056,-1.61997,-0.0364203,17.8747,-0.0641846,
2,0,0,1,0,64238,-0.065812,-0.0662,-12.6112,33,-0.000205901,10,0.000834859,-1.89925,-1.42495,-0.041405,20.3834,-0.0662,
2,0,0,1,0,64238,-0.0678187,-0.0682233,-12.6554,33,-0.000332301,10,0.000863396,-1.89772,-1.23829,-0.0476462,23.538,-0.06822329,
2,0,0,1,0,64238,-0.0698163,-0.070217,-12.7057,33,-0.0004591,10,0.000892157,-1.896,-1.34703,-0.0438002,21.7056,-0.070217,
2,0,0,1,0,64238.1,-0.0718138,-0.0721405,-12.7405,33,-0.000586405,10,0.000919104,-1.89481,-1.16121,-0.0508091,25.2937,-0.0721405,
2,0,0,1,0,64238.1,-0.0738114,-0.074182,-12.806,33,-0.000714136,10,0.000949974,-1.89259,-0.996592,-0.0592018,29.5745,-0.074182,
2,0,0,1,0,64238.1,-0.0758181,-0.0761905,-12.8602,33,-0.000842548,10,0.000979829,-1.89075,-1.07864,-0.0546984,27.4545,-0.0761905,
2,0,0,1,0,64238.1,-0.0778157,-0.0781947,-12.9162,33,-0.000971455,10,0.00100997,-1.88887,-1.00115,-0.0589324,29.715,-0.0781947,
2,0,0,1,0,64238.1,-0.0798133,-0.0802101,-12.9797,33,-0.00110099,10,0.0010411,-1.88674,-0.902075,-0.0654048,33.1396,-0.0802101,
2,0,0,1,0,64238.1,-0.0818109,-0.0822351,-13.0501,33,-0.00123112,10,0.00107317,-1.88439,-0.843869,-0.069916,35.6099,-0.0822351,
2,0,0,1,0,64238.1,-0.0837994,-0.0841998,-13.1218,33,-0.00136072,10,0.00110485,-1.88201,-0.843352,-0.0699589,35.8231,-0.0841998,
2,0,0,1,0,64238.1,-0.0857969,-0.0861857,-13.1916,33,-0.00149222,10,0.00113693,-1.8797,-0.862539,-0.0684027,35.2144,-0.0861857,
2,0,0,1,0,64238.1,-0.0877945,-0.0881493,-13.2608,33,-0.00162451,10,0.00116893,-1.87743,-0.786086,-0.0750554,38.8693,-0.0881493,
2,0,0,1,0,64238.1,-0.0897921,-0.0902131,-13.3481,33,-0.00175752,10,0.00120418,-1.87458,-0.751015,-0.0785603,40.9065,-0.0902131,
2,0,0,1,0,64238.2,-0.0917806,-0.0921319,-13.4238,33,-0.00189,10,0.00123676,-1.87213,-0.776057,-0.0760254,39.8395,-0.09213189,
2,0,0,1,0,64238.2,-0.0937782,-0.0942011,-13.507,33,-0.00202464,10,0.00127238,-1.86944,-0.749428,-0.0787267,41.5014,-0.0942011,
2,0,0,1,0,64238.2,-0.0957758,-0.0961793,-13.5917,33,-0.00216019,10,0.00130724,-1.86673,-0.720763,-0.0818577,43.4236,-0.0961793,
2,0,0,1,0,64238.2,-0.0977734,-0.0981522,-13.6786,33,-0.0022965,10,0.00134258,-1.86396,-0.659674,-0.0894382,47.7675,-0.0981522,
2,0,0,1,0,64238.2,-0.0997412,-0.100095,-13.7788,33,-0.00243105,10,0.00137918,-1.86079,0.106046,0.55636,-290.81,-0.100095,
2,0,0,1,1,64238.2,-0.0996711,-0.1001,-13.1121,33,-0.00247152,10,0.00131253,-1.88233,-0.0176081,-3.35073,1584.11,-0.1001,
2,0,0,1,1,64238.2,-0.0976826,-0.0980811,-10.5888,33,-0.00258732,10,0.00103856,-1.97515,-0.0231245,-2.5514,1076.79,-0.09808106,
2,0,0,1,1,64238.2,-0.095685,-0.0960968,-8.80154,33,-0.00268374,10,0.0008458,-2.05544,-0.0251002,-2.35058,812.994,-0.0960968,
2,0,0,1,1,64238.2,-0.0936874,-0.0940783,-7.3346,33,-0.00276402,10,0.000690027,-2.13462,-0.0246122,-2.39718,686.602,-0.0940783,
2,0,0,1,1,64238.2,-0.0916898,-0.0920868,-6.04832,33,-0.00283065,10,0.000556971,-2.21837,-0.0230029,-2.56489,605.694,-0.0920868,
2,0,0,1,1,64238.2,-0.0897013,-0.0901026,-4.92651,33,-0.00288473,10,0.000443892,-2.30746,-0.0207633,-2.84156,542.611,-0.0901026,
2,0,0,1,1,64238.3,-0.0877037,-0.0881184,-3.89497,33,-0.00292865,10,0.000343219,-2.4095,-0.018338,-3.21736,485.185,-0.0881184,
2,0,0,1,1,64238.3,-0.0857062,-0.086063,-2.96658,33,-0.00296275,10,0.000255313,-2.52774,-0.0148703,-3.96764,451.021,-0.086063,
2,0,0,1,1,64238.3,-0.0837086,-0.0841638,-2.11139,33,-0.00298797,10,0.000177703,-2.67543,-0.0112368,-5.2506,417.047,-0.0841638,
2,0,0,1,1,64238.3,-0.0817019,-0.0821214,-1.32277,33,-0.00300492,10,0.000108628,-2.87851,-0.00724495,-8.14361,376.186,-0.0821214,
2,0,0,1,1,64238.3,-0.0797043,-0.0800878,-0.578051,33,-0.0030143,10,4.62949e-05,-3.23803,-0.00345831,-17.0604,347.334,-0.0800878,
2,0,0,1,1,64238.3,-0.0777067,-0.0780585,0.0884377,33,-0.00301661,10,-6.90331e-06,-4.05336,0.0413202,1.42787,325.01,-0.0780585,
2,1,0,1,1,64238.3,-0.0757091,-0.0760864,0.722446,33,-0.00301245,10,-5.49683e-05,-3.14119,0.00337989,17.4562,311.393,-0.0760864,
2,1,0,1,1,64238.3,-0.0737025,-0.074084,1.32607,33,-0.00300208,10,-9.82404e-05,-2.87743,0.00960924,6.13992,289.876,-0.074084,
2,1,0,1,1,64238.3,-0.0717049,-0.0720989,1.87833,33,-0.00298599,10,-0.000135426,-2.72623,0.0154963,3.80735,267.999,-0.0720989,
2,1,0,1,1,64238.3,-0.0697073,-0.0701364,2.38402,33,-0.00296461,10,-0.000167207,-2.62269,0.0216104,2.73016,249.581,-0.0701364,
2,1,0,1,1,64238.4,-0.0677097,-0.0680966,2.87722,33,-0.00293824,10,-0.000195929,-2.54103,0.027462,2.14842,237.423,-0.0680966,
2,1,0,1,1,64238.4,-0.0657212,-0.0661432,3.33209,33,-0.00290745,10,-0.000220395,-2.47728,0.0339351,1.73861,223.964,-0.0661432,
2,1,0,1,1,64238.4,-0.0637236,-0.0641374,3.76393,33,-0.00287194,10,-0.000241409,-2.42436,0.0416736,1.41576,206.219,-0.0641374,
2,1,0,1,1,64238.4,-0.061726,-0.0621126,4.16328,33,-0.00283225,10,-0.000258592,-2.38056,0.0484997,1.2165,196.737,-0.0621126,
2,1,0,1,1,64238.4,-0.0597284,-0.060149,4.54861,33,-0.00278863,10,-0.000273594,-2.34212,0.0563746,1.04657,184.754,-0.060149,
2,1,0,1,1,64238.4,-0.0577399,-0.0581053,4.90365,33,-0.0027418,10,-0.000284928,-2.30948,0.0648907,0.909221,173.474,-0.0581053,
2,1,0,1,1,64238.4,-0.0557423,-0.0561315,5.24554,33,-0.00269105,10,-0.00029444,-2.28021,0.073967,0.797653,162.547,-0.0561315,
2,1,0,1,1,64238.4,-0.0537448,-0.0541108,5.55293,33,-0.00263698,10,-0.000300474,-2.25548,0.0834772,0.70678,152.94,-0.0541108,
2,1,0,1,1,64238.4,-0.0517472,-0.0521474,5.85486,33,-0.00257987,10,-0.000305316,-2.23248,0.09249,0.637907,145.36,-0.0521474,
2,1,0,1,1,64238.4,-0.049745,-0.0501111,6.13432,33,-0.00251986,10,-0.000307398,-2.21223,0.102641,0.574818,137.494,-0.0501111,
2,1,0,1,1,64238.5,-0.0477429,-0.0480983,6.41159,33,-0.00245708,10,-0.000308387,-2.19303,0.114106,0.517061,128.902,-0.0480983,
2,1,0,1,1,64238.5,-0.0457453,-0.0461245,6.64821,33,-0.00239173,10,-0.000306645,-2.1773,0.129032,0.457252,118.573,-0.0461245,
2,1,0,1,1,64238.5,-0.0437477,-0.0441221,6.88306,33,-0.00232408,10,-0.000303695,-2.16222,0.141052,0.418285,112.128,-0.0441221,
2,1,0,1,1,64238.5,-0.0417501,-0.0421474,7.09416,33,-0.00225413,10,-0.000299,-2.1491,0.154357,0.382232,105.809,-0.0421474,
2,1,0,1,1,64238.5,-0.0397435,-0.0401137,7.30718,33,-0.00218208,10,-0.000293118,-2.13625,0.173357,0.340338,96.8057,-0.0401137,
2,1,0,1,1,64238.5,-0.0377459,-0.0381,7.48597,33,-0.00210806,10,-0.000285215,-2.12575,0.186409,0.316509,92.5287,-0.0381,
2,1,0,1,1,64238.5,-0.0357483,-0.0361123,7.67743,33,-0.0020322,10,-0.00027725,-2.11478,0.197463,0.29879,89.331,-0.0361123,
2,1,0,1,1,64238.5,-0.0337507,-0.0341559,7.8383,33,-0.00195456,10,-0.000267724,-2.10578,0.218496,0.270028,82.617,-0.0341559,
2,1,0,1,1,64238.5,-0.0317622,-0.0321574,8.00417,33,-0.00187614,10,-0.000257393,-2.09668,0.243022,0.242776,75.6921,-0.0321574,
2,1,0,1,1,64238.5,-0.0297646,-0.030154,8.14121,33,-0.0017954,10,-0.00024549,-2.08931,0.271413,0.217381,69.0644,-0.030154,
2,1,0,1,1,64238.6,-0.027767,-0.0281769,8.27908,33,-0.00171329,10,-0.000233279,-2.08202,0.303974,0.194096,62.614,-0.0281769,
2,1,0,1,1,64238.6,-0.0257694,-0.0261497,8.39194,33,-0.00162989,10,-0.000219446,-2.07614,0.315439,0.187041,61.3307,-0.0261497,
2,1,0,1,1,64238.6,-0.0237809,-0.0241524,8.52591,33,-0.00154613,10,-0.000205921,-2.06926,0.332156,0.177627,58.9816,-0.0241524,
2,1,0,1,1,64238.6,-0.0217833,-0.0221855,8.62575,33,-0.00146034,10,-0.000191367,-2.0642,0.386081,0.152818,51.4496,-0.0221855,
2,1,0,1,1,64238.6,-0.0197858,-0.0202187,8.7283,33,-0.00137355,10,-0.000176474,-2.05907,0.430968,0.136901,46.5798,-0.0202187,
2,1,0,1,1,64238.6,-0.0177882,-0.0182015,8.81132,33,-0.00128581,10,-0.000160379,-2.05496,0.456973,0.12911,44.4294,-0.01820147,
2,1,0,1,1,64238.6,-0.0157815,-0.0161895,8.90731,33,-0.00119721,10,-0.000144205,-2.05025,0.499586,0.118098,40.9903,-0.0161895,
2,1,0,1,1,64238.6,-0.0137839,-0.0141767,8.9763,33,-0.00110772,10,-0.000127254,-2.0469,0.560416,0.105279,36.9033,-0.01417665,
2,1,0,1,1,64238.6,-0.0117863,-0.0121447,9.05657,33,-0.0010176,10,-0.00010999,-2.04304,0.602117,0.0979876,34.5925,-0.0121447,
2,1,0,1,1,64238.6,-0.00978874,-0.0101484,9.11565,33,-0.000926702,10,-9.25089e-05,-2.04021,0.644084,0.091603,32.6094,-0.0101484,
2,1,0,1,1,64238.7,-0.00778207,-0.00814852,9.18689,33,-0.000835189,10,-7.48596e-05,-2.03683,0.728159,0.0810263,29.0062,-0.00814852,
2,1,0,1,1,64238.7,-0.00578449,-0.00619988,9.23018,33,-0.000743091,10,-5.7226e-05,-2.03479,0.851175,0.069316,24.9862,-0.00619988,
2,1,0,1,1,64238.7,-0.0037869,-0.00417749,9.28611,33,-0.000650507,10,-3.87927e-05,-2.03217,0.912159,0.0646817,23.4184,-0.004177493,
2,1,0,1,1,64238.7,-0.00178931,-0.0021846,9.32421,33,-0.000557425,10,-2.03697e-05,-2.03039,1.12115,0.0526245,19.1457,-0.0021846,
2,1,0,1,1,64238.7,-2.55332e-05,-0.000401673,9.3584,33,-0.000476151,10,-3.75901e-06,-2.0288, , , ,-0.000401673,