File: Figure_codes/Fig_3-5/rawdata_trumpetplot_data/after 10th/20221101_1-115_003_TrumpetPlot_ParaChange_from10_every3_04_CV_C01_1.csv
mode,ox/red,error,control changes,counter inc.,time/s,control/V,Ewe/V,<I>/mA,cycle number,(Q-Qo)/C,I Range,P/W,log(|I|),Tafel slope mV/dec,alpha_eff,dI/d(E-IR),E-IR/V,
2,0,0,1,0,3030.15,2.44065e-05,-0.000401673,-0.376704,2,0.0000000E+000,10,1.51312e-07,-3.424, , , ,-0.000401673,
2,1,0,1,0,3030.27,0.00129787,0.000907929,0.236781,2,1.24763e-05,10,2.14981e-07,-3.62565, , , ,0.000907929,
2,1,0,1,0,3030.42,0.00279606,0.00250384,0.32319,2,5.91099e-05,10,8.09217e-07,-3.49054,0.0119583,4.93383,46.9963,0.00250384,
2,1,0,1,0,3030.57,0.00429425,0.00399053,0.341691,2,0.000111828,10,1.36353e-06,-3.46637,0.0574433,1.0271,13.764,0.00399053,
2,1,0,1,0,3030.72,0.00579244,0.00548464,0.361237,2,0.000167799,10,1.98126e-06,-3.44221,0.0619821,0.951888,13.4849,0.00548464,
2,1,0,1,0,3030.87,0.00729063,0.00697133,0.383074,2,0.000226829,10,2.67054e-06,-3.41672,0.0770702,0.765536,11.3911,0.00697133,
2,1,0,1,0,3031.02,0.00878882,0.00845908,0.399314,2,0.000288461,10,3.37783e-06,-3.39869,0.100679,0.586024,9.08294,0.00845908,
2,1,0,1,0,3031.17,0.010287,0.00998713,0.413165,2,0.0003522,10,4.12633e-06,-3.38388,0.123564,0.477484,7.65214,0.00998713,
2,1,0,1,0,3031.32,0.0117852,0.0114717,0.422962,2,0.000417688,10,4.85209e-06,-3.3737,0.124445,0.474104,7.82492,0.0114717,
2,1,0,1,0,3031.47,0.0132838,0.0129802,0.434465,2,0.000484748,10,5.63946e-06,-3.36205,0.131492,0.448696,7.65557,0.01298024,
2,1,0,1,0,3031.62,0.0147814,0.0144652,0.444602,2,0.000553538,10,6.43125e-06,-3.35203,0.149102,0.395703,6.85823,0.0144652,
2,1,0,1,0,3031.77,0.0162789,0.0159904,0.454529,2,0.00062393,10,7.26809e-06,-3.34244,0.176633,0.334025,5.89251,0.0159904,
2,1,0,1,0,3031.92,0.017778,0.0174736,0.464701,2,0.000695699,10,8.12001e-06,-3.33283,0.178561,0.330419,5.97741,0.0174736,
2,1,0,1,0,3032.07,0.0192761,0.0189412,0.473438,2,0.000768383,10,8.96749e-06,-3.32474,0.196659,0.300011,5.52328,0.0189412,
2,1,0,1,0,3032.22,0.0207743,0.0204544,0.480808,2,0.000842733,10,9.83465e-06,-3.31803,0.163222,0.361471,6.75801,0.0204544,
2,1,0,1,0,3032.37,0.0222725,0.0219962,0.490299,2,0.000918404,10,1.07847e-05,-3.30954,0.181148,0.325701,6.23571,0.02199623,
2,1,0,1,0,3032.52,0.0237707,0.0234755,0.498464,2,0.000995467,10,1.17017e-05,-3.30237,0.20276,0.290984,5.66112,0.0234755,
2,1,0,1,0,3032.67,0.0252689,0.0249548,0.507613,2,0.0010736,10,1.26674e-05,-3.29447,0.190921,0.309029,6.15896,0.0249548,
2,1,0,1,0,3032.82,0.0267671,0.0264234,0.517047,2,0.00115321,10,1.36622e-05,-3.28647,0.164631,0.358377,7.21531,0.02642343,
2,1,0,1,0,3032.97,0.0282662,0.0280035,0.530453,2,0.00123448,10,1.48545e-05,-3.27535,0.185909,0.31736,6.5393,0.0280035,
2,1,0,1,0,3033.12,0.0297635,0.0294438,0.535608,2,0.00131699,10,1.57703e-05,-3.27115,0.203615,0.289762,6.07154,0.0294438,
2,1,0,1,0,3033.27,0.031261,0.0309541,0.54161,2,0.00140081,10,1.67651e-05,-3.26631,0.184801,0.319263,6.79606,0.0309541,
2,1,0,1,0,3033.42,0.0327598,0.0324773,0.553743,2,0.00148602,10,1.79841e-05,-3.25669,0.191425,0.308215,6.69081,0.0324773,
2,1,0,1,0,3033.57,0.034258,0.0339566,0.564305,2,0.00157276,10,1.91619e-05,-3.24849,0.168703,0.349726,7.71519,0.0339566,
2,1,0,1,0,3033.72,0.0357562,0.0354167,0.574293,2,0.00166111,10,2.03396e-05,-3.24087,0.213301,0.276605,6.19872,0.0354167,
2,1,0,1,0,3033.87,0.0372544,0.0369469,0.583471,2,0.001751,10,2.15575e-05,-3.23398,0.207232,0.284705,6.50968,0.0369469,
2,1,0,1,0,3034.02,0.0387526,0.0384219,0.596425,2,0.00184227,10,2.29158e-05,-3.22444,0.183948,0.320743,7.50009,0.0384219,
2,1,0,1,0,3034.17,0.0402508,0.0399171,0.608218,2,0.00193545,10,2.42783e-05,-3.21594,0.188815,0.312475,7.43008,0.0399171,
2,1,0,1,0,3034.32,0.041749,0.0414738,0.621928,2,0.00203054,10,2.57937e-05,-3.20626,0.194759,0.302938,7.32705,0.04147378,
2,1,0,1,0,3034.47,0.0432472,0.0429202,0.632655,2,0.00212718,10,2.71537e-05,-3.19883,0.196904,0.299639,7.37149,0.0429202,
2,1,0,1,0,3034.62,0.0447458,0.0444285,0.642067,2,0.00222537,10,2.85261e-05,-3.19242,0.182291,0.323658,8.10573,0.0444285,
2,1,0,1,0,3034.77,0.0462433,0.0459197,0.655956,2,0.00232538,10,3.01213e-05,-3.18312,0.16581,0.355829,9.07666,0.0459197,
2,1,0,1,0,3034.92,0.0477409,0.0474482,0.666004,2,0.00242734,10,3.16007e-05,-3.17652,0.181726,0.324665,8.45619,0.0474482,
2,1,0,1,0,3035.07,0.0492399,0.0489602,0.677837,2,0.00253113,10,3.31871e-05,-3.16887,0.199545,0.295672,7.83755,0.0489602,
2,1,0,1,0,3035.22,0.0507381,0.0504353,0.686821,2,0.00263634,10,3.464e-05,-3.16316,0.214057,0.275627,7.42542,0.0504353,
2,1,0,1,0,3035.37,0.0522363,0.0519485,0.70094,2,0.00274338,10,3.64128e-05,-3.15432,0.176573,0.334139,9.13546,0.0519485,
2,1,0,1,0,3035.52,0.0537345,0.0533896,0.717023,2,0.00285243,10,3.82816e-05,-3.14447,0.200281,0.294586,8.20007,0.0533896,
2,1,0,1,0,3035.67,0.0552327,0.0549378,0.726608,2,0.00296325,10,3.99182e-05,-3.1387,0.242447,0.243352,6.87013,0.0549378,
2,1,0,1,0,3035.82,0.0567309,0.0563778,0.732483,2,0.00307561,10,4.12957e-05,-3.1352,0.230614,0.255838,7.34051,0.0563778,
2,1,0,1,0,3035.97,0.0582291,0.0578868,0.747435,2,0.00318946,10,4.32666e-05,-3.12643,0.230184,0.256317,7.47076,0.0578868,
2,1,0,1,0,3036.12,0.0597282,0.0594065,0.759973,2,0.00330531,10,4.51473e-05,-3.1192,0.231931,0.254386,7.52687,0.0594065,
2,1,0,1,0,3036.27,0.0612255,0.0609357,0.770592,2,0.00342269,10,4.69566e-05,-3.11318,0.287622,0.20513,6.15094,0.0609357,
2,1,0,1,0,3036.42,0.062723,0.0624521,0.77932,2,0.00354172,10,4.86701e-05,-3.10828,0.242984,0.242814,7.39641,0.0624521,
2,1,0,1,0,3036.57,0.0642218,0.0639629,0.790632,2,0.00366209,10,5.05711e-05,-3.10203,0.225619,0.261502,8.08142,0.0639629,
2,1,0,1,0,3036.72,0.06572,0.0654082,0.80085,2,0.00378435,10,5.23822e-05,-3.09645,0.236349,0.249631,7.79495,0.0654082,
2,1,0,1,0,3036.87,0.0672182,0.0669044,0.813023,2,0.00390834,10,5.43949e-05,-3.0899,0.319474,0.184679,5.84389,0.0669044,
2,1,0,1,0,3037.02,0.0687164,0.0684229,0.821975,2,0.00403367,10,5.62419e-05,-3.08514,0.325869,0.181054,5.80162,0.0684229,
2,1,0,1,0,3037.17,0.0702146,0.0698948,0.829684,2,0.00415991,10,5.79906e-05,-3.08109,0.310285,0.190148,6.17733,0.0698948,
2,1,0,1,0,3037.32,0.0717128,0.0714112,0.838959,2,0.00428798,10,5.9911e-05,-3.07626,0.26569,0.222063,7.2642,0.0714112,
2,1,0,1,0,3037.47,0.073211,0.072866,0.850734,2,0.00441751,10,6.19897e-05,-3.07021,0.316432,0.186454,6.19151,0.072866,
2,1,0,1,0,3037.62,0.0747092,0.0744185,0.85972,2,0.00454853,10,6.3979e-05,-3.06564,0.350504,0.168329,5.63795,0.0744185,
2,1,0,1,0,3037.76,0.0762078,0.0758836,0.86355,2,0.00468071,10,6.55293e-05,-3.06371,0.317943,0.185568,6.29062,0.0758836,
2,1,0,1,0,3037.91,0.0777053,0.0774173,0.878442,2,0.00481416,10,6.80067e-05,-3.05629,0.291238,0.202584,6.92751,0.0774173,
2,1,0,1,0,3038.06,0.0792029,0.0789222,0.88695,2,0.00494913,10,7.00001e-05,-3.0521,0.313806,0.188014,6.49133,0.07892219,
2,1,0,1,0,3038.21,0.0807019,0.080414,0.893204,2,0.0050856,10,7.18262e-05,-3.04905,0.362532,0.162744,5.6648,0.080414,
2,1,0,1,0,3038.36,0.0822001,0.0819272,0.897692,2,0.00522295,10,7.35454e-05,-3.04687,0.360434,0.163691,5.7648,0.0819272,
2,1,0,1,0,3038.51,0.0836983,0.0833535,0.909968,2,0.00536141,10,7.5849e-05,-3.04097,0.323117,0.182596,6.49463,0.0833535,
2,1,0,1,0,3038.66,0.0851965,0.0848762,0.918045,2,0.00550139,10,7.79202e-05,-3.03714,0.331648,0.177899,6.39198,0.0848762,
2,1,0,1,0,3038.81,0.0866947,0.0863746,0.929435,2,0.0056429,10,8.02795e-05,-3.03178,0.406914,0.144994,5.25213,0.0863746,
2,1,0,1,0,3038.96,0.0881929,0.0878984,0.939152,2,0.0057857,10,8.25499e-05,-3.02726,0.363087,0.162496,5.95015,0.0878984,
2,1,0,1,0,3039.11,0.0896911,0.0893851,0.951021,2,0.00592958,10,8.50071e-05,-3.02181,0.303063,0.194679,7.21105,0.0893851,
2,1,0,1,0,3039.26,0.0911902,0.0909086,0.960933,2,0.00607538,10,8.73571e-05,-3.01731,0.242175,0.243626,9.1134,0.0909086,
2,1,0,1,0,3039.41,0.0926875,0.092421,0.975181,2,0.00622316,10,9.01273e-05,-3.01091,0.262016,0.225177,8.53213,0.092421,
2,1,0,1,0,3039.56,0.094185,0.093895,0.983553,2,0.00637274,10,9.23507e-05,-3.0072,0.257077,0.229503,8.83232,0.09389504,
2,1,0,1,0,3039.71,0.0956838,0.0954018,0.994625,2,0.00652393,10,9.4889e-05,-3.00234,0.241671,0.244134,9.52455,0.0954018,
2,1,0,1,0,3039.86,0.097182,0.0968715,1.01261,2,0.00667734,10,9.80928e-05,-2.99456,0.190395,0.309882,12.2475,0.0968715,
2,1,0,1,0,3040.01,0.0986802,0.0983752,1.03074,2,0.00683333,10,0.000101399,-2.98685,0.201349,0.293023,11.7677,0.0983752,
2,1,0,1,0,3040.16,0.100178,0.0998608,1.04631,2,0.00699183,10,0.000104485,-2.98034,0.217771,0.270927,11.0634,0.0998608,
2,1,0,1,0,3040.31,0.101677,0.101387,1.0612,2,0.00715276,10,0.000107592,-2.9742,0.194199,0.303812,12.6324,0.101387,
2,1,0,1,0,3040.46,0.103175,0.10286,1.08604,2,0.00731645,10,0.00011171,-2.96415,0.190024,0.310487,13.1585,0.10286,
2,1,0,1,0,3040.61,0.104673,0.10437,1.10885,2,0.00748355,10,0.000115731,-2.95513,0.185714,0.317692,13.7101,0.10437,
2,1,0,1,0,3040.76,0.106171,0.105857,1.12733,2,0.00765407,10,0.000119336,-2.94795,0.195299,0.302101,13.2556,0.105857,
2,1,0,1,0,3040.91,0.10767,0.107386,1.14558,2,0.00782763,10,0.00012302,-2.94097,0.191567,0.307986,13.8228,0.107386,
2,1,0,1,0,3041.06,0.109167,0.108864,1.16794,2,0.00800388,10,0.000127146,-2.93258,0.177386,0.332607,15.2113,0.108864,
2,1,0,1,0,3041.21,0.110665,0.110335,1.19099,2,0.0081837,10,0.000131408,-2.92409,0.184547,0.319702,14.8582,0.110335,
2,1,0,1,0,3041.36,0.112164,0.11185,1.213,2,0.0083671,10,0.000135673,-2.91614,0.218633,0.269858,12.7227,0.11185,
2,1,0,1,0,3041.51,0.113662,0.113377,1.23332,2,0.00855334,10,0.00013983,-2.90892,0.225333,0.261835,12.5986,0.113377,
2,1,0,1,0,3041.66,0.11516,0.114844,1.25042,2,0.00874205,10,0.000143604,-2.90294,0.214053,0.275633,13.4466,0.114844,
2,1,0,1,0,3041.81,0.116658,0.116366,1.27385,2,0.00893413,10,0.000148233,-2.89488,0.219894,0.268311,13.2976,0.116366,
2,1,0,1,0,3041.96,0.118157,0.117832,1.29408,2,0.00912935,10,0.000152484,-2.88804,0.249233,0.236727,11.9166,0.117832,
2,1,0,1,0,3042.11,0.119655,0.119334,1.30866,2,0.00932706,10,0.000156167,-2.88317,0.315294,0.187127,9.55953,0.119334,
2,1,0,1,0,3042.26,0.121153,0.12082,1.32089,2,0.00952688,10,0.00015959,-2.87913,0.263957,0.223521,11.5649,0.12082,
2,1,0,1,0,3042.41,0.122652,0.122338,1.34091,2,0.0097295,10,0.000164045,-2.8726,0.24963,0.23635,12.3574,0.122338,
2,1,0,1,0,3042.56,0.124149,0.123824,1.35817,2,0.00993464,10,0.000168173,-2.86705,0.268451,0.219779,11.6546,0.123824,
2,1,0,1,0,3042.71,0.125647,0.125291,1.37599,2,0.0101424,10,0.000172399,-2.86139,0.282636,0.208749,11.1803,0.125291,
2,1,0,1,0,3042.86,0.127146,0.126843,1.38457,2,0.0103524,10,0.000175623,-2.85869,0.319056,0.18492,10.0201,0.126843,
2,1,0,1,0,3043.01,0.128644,0.128318,1.40414,2,0.0105645,10,0.000180176,-2.85259,0.316667,0.186316,10.2113,0.128318,
2,1,0,1,0,3043.16,0.130142,0.129869,1.42034,2,0.010779,10,0.000184458,-2.84761,0.349395,0.168863,9.3355,0.129869,
2,1,0,1,0,3043.31,0.13164,0.131349,1.43294,2,0.0109957,10,0.000188214,-2.84377,0.573924,0.102801,5.72802,0.131349,
2,1,0,1,0,3043.46,0.133139,0.13282,1.44425,2,0.0112141,10,0.000191826,-2.84036,0.565107,0.104405,5.87176,0.13282,
2,1,0,1,0,3043.61,0.134637,0.134327,1.44794,2,0.0114335,10,0.000194498,-2.83925,0.768246,0.0767983,4.34629,0.1343272,
2,1,0,1,0,3043.76,0.136135,0.135894,1.45675,2,0.0116541,10,0.000197965,-2.83661,2.45447,0.0240377,1.36068,0.135894,
2,1,0,1,0,3043.91,0.137633,0.137323,1.45716,2,0.0118753,10,0.000200102,-2.83649,-1.34376,-0.0439065,-2.48478,0.137323,
2,1,0,1,0,3044.06,0.139132,0.13879,1.45193,2,0.012096,10,0.000201514,-2.83805,-0.548898,-0.107488,-6.0541,0.13879,
2,1,0,1,0,3044.21,0.140629,0.140329,1.4378,2,0.0123149,10,0.000201765,-2.8423,-0.351811,-0.167704,-9.37261,0.140329,
2,1,0,1,0,3044.36,0.142127,0.141816,1.41871,2,0.0125317,10,0.000201195,-2.84811,-0.253753,-0.23251,-12.7957,0.141816,
2,1,0,1,0,3044.51,0.143626,0.143319,1.39668,2,0.0127458,10,0.000200171,-2.8549,-0.16208,-0.364017,-19.694,0.143319,
2,1,0,1,0,3044.66,0.145124,0.144818,1.35977,2,0.0129552,10,0.000196919,-2.86653,-0.118096,-0.499593,-26.3975,0.1448178,
2,1,0,1,0,3044.81,0.146622,0.146335,1.31586,2,0.0131584,10,0.000192557,-2.88079,-0.1034,-0.570602,-29.2614,0.146335,
2,1,0,1,0,3044.96,0.14812,0.147825,1.27088,2,0.0133551,10,0.000187868,-2.8959,-0.0912474,-0.646594,-31.9074,0.147825,
2,1,0,1,0,3045.11,0.149619,0.149333,1.22178,2,0.0135448,10,0.000182452,-2.91301,-0.0802295,-0.735391,-34.9233,0.149333,
2,1,0,1,0,3045.26,0.151117,0.150754,1.16889,2,0.0137266,10,0.000176214,-2.93223,-0.0719234,-0.820317,-37.2266,0.150754,
2,1,0,1,0,3045.41,0.152615,0.152269,1.10887,2,0.0139001,10,0.000168847,-2.95512,-0.0708282,-0.833002,-36.1936,0.152269,
2,1,0,1,0,3045.56,0.154114,0.15377,1.06062,2,0.0140653,10,0.000163091,-2.97444,-0.0740117,-0.797171,-33.0405,0.15377,
2,1,0,1,0,3045.71,0.155612,0.155318,1.0127,2,0.0142232,10,0.00015729,-2.99452,-0.0739797,-0.797516,-31.5004,0.155318,
2,1,0,1,0,3045.86,0.157109,0.156796,0.964207,2,0.0143741,10,0.000151184,-3.01583,-0.0716331,-0.823642,-30.994,0.156796,
2,1,0,1,0,3046.01,0.158608,0.15829,0.921305,2,0.0145182,10,0.000145834,-3.0356,-0.0761316,-0.774974,-27.9469,0.15829,
2,1,0,1,0,3046.15,0.160106,0.15983,0.880928,2,0.0146557,10,0.000140799,-3.05506,-0.0831259,-0.709767,-24.5305,0.15983,
2,1,0,1,0,3046.3,0.161604,0.161305,0.847802,2,0.0147881,10,0.000136755,-3.07171,-0.0910704,-0.64785,-21.4634,0.161305,
2,1,0,1,0,3046.45,0.163102,0.16282,0.818397,2,0.0149155,10,0.000133252,-3.08704,-0.0968589,-0.609133,-19.4199,0.16282,
2,1,0,1,0,3046.6,0.164601,0.164289,0.790812,2,0.0150387,10,0.000129922,-3.10193,-0.100892,-0.584782,-18.0392,0.164289,
2,1,0,1,0,3046.75,0.166099,0.165805,0.762512,2,0.0151576,10,0.000126429,-3.11775,-0.108283,-0.544867,-16.2792,0.165805,
2,1,0,1,0,3046.9,0.167597,0.167306,0.741776,2,0.0152731,10,0.000124103,-3.12973,-0.131046,-0.450222,-13.0466,0.167306,
2,1,0,1,0,3047.05,0.169095,0.168776,0.724095,2,0.0153858,10,0.00012221,-3.1402,-0.141294,-0.417569,-11.8121,0.168776,
2,1,0,1,0,3047.2,0.170594,0.170295,0.704568,2,0.0154956,10,0.000119984,-3.15208,-0.141255,-0.417685,-11.5249,0.170295,
2,1,0,1,0,3047.35,0.172091,0.171804,0.686323,2,0.0156026,10,0.000117913,-3.16347,-0.16035,-0.367946,-9.91332,0.171804,
2,1,0,1,0,3047.5,0.173589,0.173301,0.674394,2,0.0157075,10,0.000116873,-3.17109,-0.191977,-0.307328,-8.10358,0.173301,
2,1,0,1,0,3047.65,0.175088,0.174763,0.662478,2,0.0158104,10,0.000115776,-3.17883,-0.185618,-0.317857,-8.20895,0.174763,
2,1,0,1,0,3047.8,0.176586,0.176297,0.650794,2,0.0159116,10,0.000114733,-3.18656,-0.192459,-0.306559,-7.76292,0.176297,
2,1,0,1,0,3047.95,0.178084,0.177774,0.635043,2,0.016011,10,0.000112894,-3.1972,-0.21924,-0.269112,-6.7213,0.177774,
2,1,0,1,0,3048.1,0.179582,0.179287,0.629822,2,0.0161089,10,0.000112919,-3.20078,-0.240066,-0.245765,-6.06692,0.179287,
2,1,0,1,0,3048.25,0.181081,0.180743,0.620632,2,0.0162055,10,0.000112175,-3.20717,-0.243208,-0.242591,-5.90118,0.180743,
2,1,0,1,0,3048.4,0.182579,0.182286,0.612379,2,0.0163011,10,0.000111628,-3.21298,-0.228057,-0.258708,-6.19733,0.182286,
2,1,0,1,0,3048.55,0.184077,0.183759,0.60679,2,0.0163953,10,0.000111503,-3.21696,-0.277174,-0.212862,-5.044,0.183759,
2,1,0,1,0,3048.7,0.185576,0.185267,0.600888,2,0.0164884,10,0.000111325,-3.22121,-0.313731,-0.188059,-4.40224,0.185267,
2,1,0,1,0,3048.85,0.187074,0.186791,0.596397,2,0.0165807,10,0.000111402,-3.22446,-0.40546,-0.145514,-3.37107,0.186791,
2,1,0,1,0,3049,0.188571,0.188218,0.590069,2,0.0166723,10,0.000111061,-3.2291,-0.447328,-0.131894,-3.03103,0.188218,
2,1,0,1,0,3049.15,0.19007,0.189777,0.583012,2,0.016763,10,0.000110642,-3.23432,-0.448962,-0.131414,-2.99802,0.189777,
2,1,0,1,0,3049.3,0.191568,0.191253,0.578766,2,0.0168527,10,0.000110691,-3.2375,-0.566899,-0.104075,-2.3554,0.191253,
2,1,0,1,0,3049.45,0.193066,0.192772,0.572085,2,0.0169419,10,0.000110282,-3.24254,-0.849702,-0.0694361,-1.55337,0.192772,
2,1,0,1,0,3049.6,0.194564,0.194207,0.572394,2,0.0170306,10,0.000111163,-3.24231,-0.57251,-0.103055,-2.30317,0.194207,
2,1,0,1,0,3049.75,0.196063,0.195757,0.565327,2,0.0171187,10,0.000110666,-3.2477,-0.405513,-0.145495,-3.22716,0.195757,
2,1,0,1,0,3049.9,0.197561,0.197234,0.559812,2,0.0172061,10,0.000110414,-3.25196,-0.460126,-0.128226,-2.82451,0.197234,
2,1,0,1,0,3050.05,0.199059,0.198733,0.560783,2,0.017293,10,0.000111446,-3.2512,-0.7083,-0.083298,-1.81667,0.198733,
2,1,0,1,0,3050.2,0.200557,0.200259,0.559774,2,0.0173795,10,0.0001121,-3.25199,-0.649762,-0.0908025,-1.97292,0.200259,
2,1,0,1,0,3050.35,0.202056,0.20176,0.55434,2,0.0174656,10,0.000111844,-3.25622,-0.58531,-0.100801,-2.1723,0.20176,
2,1,0,1,0,3050.5,0.203553,0.203195,0.550996,2,0.0175512,10,0.00011196,-3.25885,-0.754397,-0.0782082,-1.68653,0.203195,
2,1,0,1,0,3050.65,0.205051,0.204785,0.545801,2,0.0176363,10,0.000111772,-3.26297,4.64535,0.0127009,0.273881,0.204785,
2,1,0,1,0,3050.8,0.20655,0.206227,0.546046,2,0.0177212,10,0.000112609,-3.26277,-1.06592,-0.0553514,-1.18401,0.206227,
2,1,0,1,0,3050.95,0.208048,0.207745,0.545089,2,0.017806,10,0.00011324,-3.26353,-0.725013,-0.0813779,-1.72262,0.207745,
2,1,0,1,0,3051.1,0.209546,0.209246,0.542798,2,0.0178903,10,0.000113578,-3.26536,-0.803561,-0.0734232,-1.55356,0.209246,
2,1,0,1,0,3051.25,0.211044,0.210696,0.538949,2,0.0179739,10,0.000113554,-3.26845,-0.830864,-0.0710104,-1.49398,0.210696,
2,1,0,1,0,3051.4,0.212543,0.212255,0.538266,2,0.0180573,10,0.00011425,-3.269,-0.810383,-0.0728051,-1.52816,0.212255,
2,1,0,1,0,3051.55,0.214041,0.213757,0.535342,2,0.0181405,10,0.000114433,-3.27137,-0.918326,-0.0642473,-1.34057,0.213757,
2,1,0,1,0,3051.7,0.215539,0.215236,0.534794,2,0.0182233,10,0.000115107,-3.27181,-1.22936,-0.0479923,-1.00064,0.215236,
2,1,0,1,0,3051.85,0.217038,0.216716,0.531489,2,0.0183059,10,0.000115182,-3.27451,-1.40482,-0.0419982,-0.871438,0.2167161,
2,1,0,1,0,3052,0.218535,0.218262,0.531427,2,0.0183882,10,0.000115991,-3.27456,-5.37912,-0.0109683,-0.226457,0.218262,
2,1,0,1,0,3052.15,0.220033,0.219772,0.528134,2,0.0184704,10,0.000116069,-3.27726,-0.944117,-0.0624922,-1.28968,0.2197718,
2,1,0,1,0,3052.3,0.221532,0.221264,0.527701,2,0.0185523,10,0.000116761,-3.27761,-1.18382,-0.0498386,-1.02505,0.221264,
2,1,0,1,0,3052.45,0.22303,0.222716,0.521729,2,0.0186338,10,0.000116198,-3.28255,-1.66875,-0.0353558,-0.72254,0.222716,
2,1,0,1,0,3052.6,0.224528,0.224216,0.523372,2,0.018715,10,0.000117348,-3.28119,-1.86481,-0.0316387,-0.646564,0.224216,
2,1,0,1,0,3052.75,0.226026,0.225718,0.521835,2,0.0187961,10,0.000117788,-3.28247,-1.03221,-0.0571587,-1.16224,0.225718,
2,1,0,1,0,3052.9,0.227525,0.227223,0.520943,2,0.018877,10,0.00011837,-3.28321,-0.673436,-0.0876104,-1.77912,0.227223,
2,1,0,1,0,3053.05,0.229023,0.228743,0.518408,2,0.0189577,10,0.000118582,-3.28533,-0.970344,-0.0608032,-1.23441,0.228743,
2,1,0,1,0,3053.2,0.230521,0.230209,0.518325,2,0.019038,10,0.000119323,-3.2854,-1.75704,-0.0335792,-0.681988,0.230209,
2,1,0,1,0,3053.35,0.232019,0.23171,0.515591,2,0.0191183,10,0.000119467,-3.2877,-1.65192,-0.035716,-0.718846,0.23171,
2,1,0,1,0,3053.5,0.233518,0.233211,0.516016,2,0.0191985,10,0.00012034,-3.28734,-1.02401,-0.0576168,-1.15829,0.233211,
2,1,0,1,0,3053.65,0.235015,0.234744,0.514138,2,0.0192785,10,0.000120691,-3.28892,-9.87955,-0.00597193,-0.119698,0.234744,
2,1,0,1,0,3053.8,0.236513,0.236224,0.513123,2,0.019358,10,0.000121212,-3.28978,-3.52091,-0.016757,-0.335997,0.236224,
2,1,0,1,0,3053.95,0.238012,0.237778,0.510678,2,0.0194377,10,0.000121428,-3.29185,-5.47942,-0.0107676,-0.214525,0.237778,
2,1,0,1,0,3054.1,0.23951,0.239195,0.5114,2,0.0195171,10,0.000122324,-3.29124,-1.58313,-0.0372681,-0.742438,0.239195,
2,1,0,1,0,3054.25,0.241008,0.240724,0.508443,2,0.0195963,10,0.000122395,-3.29376,-1.23211,-0.0478852,-0.951214,0.240724,
2,1,0,1,0,3054.39,0.242506,0.242171,0.506721,2,0.0196751,10,0.000122713,-3.29523,-1.15225,-0.0512042,-1.0182,0.242171,
2,1,0,1,0,3054.54,0.244005,0.24371,0.506347,2,0.019754,10,0.000123402,-3.29555,132.479,0.000445354,0.00878897,0.24371,
2,1,0,1,0,3054.69,0.245503,0.245174,0.508022,2,0.0198328,10,0.000124554,-3.29412,-0.928302,-0.0635569,-1.25955,0.245174,
2,1,0,1,0,3054.84,0.247001,0.246679,0.50579,2,0.0199114,10,0.000124768,-3.29603,-0.938451,-0.0628695,-1.23627,0.2466794,
2,1,0,1,0,3054.99,0.2485,0.248183,0.50408,2,0.0199898,10,0.000125104,-3.2975,-1.00923,-0.0584604,-1.1493,0.248183,
2,1,0,1,0,3055.14,0.249997,0.249735,0.503925,2,0.0200679,10,0.000125848,-3.29763,-1.55162,-0.0380248,-0.744734,0.2497354,
2,1,0,1,0,3055.29,0.251495,0.251197,0.501985,2,0.020146,10,0.000126097,-3.29931,-2.10488,-0.0280301,-0.548637,0.251197,
2,1,0,1,0,3055.44,0.252994,0.252661,0.500737,2,0.020224,10,0.000126517,-3.30039,-1.03622,-0.0569377,-1.11317,0.252661,
2,1,0,1,0,3055.59,0.254492,0.254211,0.499121,2,0.0203017,10,0.000126882,-3.30179,-1.27157,-0.0463992,-0.907293,0.254211,
2,1,0,1,0,3055.74,0.25599,0.25564,0.4968,2,0.0203792,10,0.000127002,-3.30382,-7.58471,-0.0077788,-0.151623,0.25564,
2,1,0,1,0,3055.89,0.257488,0.257236,0.496512,2,0.0204567,10,0.000127721,-3.30407,-1.25529,-0.0470012,-0.911527,0.257236,
2,1,0,1,0,3056.04,0.258987,0.258701,0.497522,2,0.0205341,10,0.00012871,-3.30319,-0.812245,-0.0726381,-1.40702,0.258701,
2,1,0,1,0,3056.19,0.260485,0.260185,0.497498,2,0.0206113,10,0.000129441,-3.30321,-1.32405,-0.0445603,-0.86152,0.260185,
2,1,0,1,0,3056.34,0.261983,0.261659,0.493829,2,0.0206881,10,0.000129215,-3.30642,-1.69894,-0.0347276,-0.670726,0.2616587,
2,1,0,1,0,3056.49,0.263481,0.263185,0.49373,2,0.0207649,10,0.000129942,-3.30651,12.7556,0.00462544,0.0889728,0.263185,
2,1,0,1,0,3056.64,0.26498,0.264683,0.49313,2,0.0208416,10,0.000130523,-3.30704,-1.87969,-0.0313882,-0.6034,0.264683,
2,1,0,1,0,3056.79,0.266477,0.266185,0.491327,2,0.0209182,10,0.000130784,-3.30863,-3.49462,-0.0168831,-0.324792,0.266185,
2,1,0,1,0,3056.94,0.267976,0.267636,0.488332,2,0.0209946,10,0.000130695,-3.31129,-5.65102,-0.0104406,-0.200269,0.267636,
2,1,0,1,0,3057.09,0.269474,0.269189,0.489872,2,0.0210708,10,0.000131868,-3.30992,10.3144,0.00572017,0.109384,0.269189,
2,1,0,1,0,3057.24,0.270972,0.270694,0.489171,2,0.021147,10,0.000132416,-3.31054,-1.57458,-0.0374704,-0.712661,0.270694,
2,1,0,1,0,3057.39,0.27247,0.272169,0.487098,2,0.0212231,10,0.000132573,-3.31238,-0.985395,-0.0598745,-1.13703,0.272169,
2,1,0,1,0,3057.54,0.273968,0.273666,0.485723,2,0.0212989,10,0.000132926,-3.31361,-2.10081,-0.0280845,-0.532982,0.273666,
2,1,0,1,0,3057.69,0.275467,0.275142,0.485549,2,0.0213745,10,0.000133595,-3.31377,-1.11859,-0.0527451,-1.00066,0.275142,
2,1,0,1,0,3057.84,0.276965,0.276633,0.485773,2,0.0214501,10,0.000134381,-3.31357,-1.27624,-0.0462295,-0.876167,0.2766327,
2,1,0,1,0,3057.99,0.278463,0.27813,0.484301,2,0.0215256,10,0.000134699,-3.31488,-0.972507,-0.0606679,-1.14255,0.27813,
2,1,0,1,0,3058.14,0.279962,0.279655,0.483446,2,0.0216009,10,0.000135198,-3.31565,-1.38909,-0.0424738,-0.800705,0.279655,
2,1,0,1,0,3058.29,0.281459,0.281168,0.483148,2,0.0216759,10,0.000135846,-3.31592,-1.96486,-0.0300275,-0.565216,0.281168,
2,1,0,1,0,3058.44,0.282957,0.282685,0.482478,2,0.0217509,10,0.000136389,-3.31652,-3.96376,-0.0148849,-0.278753,0.282685,
2,1,0,1,0,3058.59,0.284456,0.284138,0.481391,2,0.0218259,10,0.000136782,-3.3175,-8.84295,-0.00667198,-0.125016,0.284138,
2,1,0,1,0,3058.74,0.285954,0.285673,0.480146,2,0.0219007,10,0.000137165,-3.31863,-1.47604,-0.0399718,-0.748742,0.285673,
2,1,0,1,0,3058.89,0.287452,0.287165,0.47809,2,0.0219751,10,0.000137291,-3.32049,-2.06685,-0.0285459,-0.533089,0.287165,
2,1,0,1,0,3059.04,0.28895,0.288636,0.477072,2,0.0220496,10,0.0001377,-3.32142,-73.9819,-0.000797492,-0.0148031,0.288636,
2,1,0,1,0,3059.19,0.290449,0.290153,0.476518,2,0.022124,10,0.000138263,-3.32192,-1.14966,-0.0513194,-0.955061,0.290153,
2,1,0,1,0,3059.34,0.291947,0.291649,0.476259,2,0.0221982,10,0.0001389,-3.32216,-0.761865,-0.0774416,-1.44009,0.291649,
2,1,0,1,0,3059.49,0.293445,0.293127,0.474628,2,0.0222721,10,0.000139126,-3.32365,-1.35394,-0.0435765,-0.807929,0.293127,
2,1,0,1,0,3059.64,0.294943,0.294673,0.476056,2,0.022346,10,0.000140281,-3.32234,-1.11458,-0.0529349,-0.980092,0.294673,
2,1,0,1,0,3059.79,0.296442,0.296141,0.475996,2,0.0224199,10,0.000140962,-3.3224,-1.47256,-0.0400662,-0.73832,0.296141,
2,1,0,1,0,3059.94,0.297939,0.297674,0.472838,2,0.0224937,10,0.000140752,-3.32529,-1.82777,-0.0322797,-0.594967,0.297674,
2,1,0,1,0,3060.09,0.299437,0.299162,0.46914,2,0.0225671,10,0.000140349,-3.3287,-0.00137174,-43.0111,-253.413,0.299162,
2,1,0,1,0,3060.17,0.299738,0.299437,0.156819,2,0.0226002,10,4.69573e-05,-3.8046,0.0010606,55.629,429.132,0.299437,
2,0,0,1,0,3060.32,0.29824,0.297947,-0.0226591,2,0.022601,10,-6.75122e-06,-4.64476,0.00442324,13.3386,138.235,0.297947,
2,0,0,1,0,3060.47,0.296741,0.29646,-0.0528754,2,0.0225923,10,-1.56754e-05,-4.27675,-0.00402617,-14.6541,17.9148,0.29646,
2,0,0,1,0,3060.62,0.295243,0.294929,-0.0744327,2,0.0225797,10,-2.19524e-05,-4.12824,-0.0122512,-4.81586,12.4932,0.294929,
2,0,0,1,0,3060.77,0.293745,0.293398,-0.0886846,2,0.0225645,10,-2.60198e-05,-4.05215,-0.0203277,-2.90244,9.56436,0.293398,
2,0,0,1,0,3060.92,0.292246,0.291941,-0.101726,2,0.0225474,10,-2.9698e-05,-3.99257,-0.0289979,-2.03463,7.90526,0.291941,
2,0,0,1,0,3061.07,0.290748,0.29043,-0.114338,2,0.0225283,10,-3.32071e-05,-3.94181,-0.033357,-1.76874,7.58965,0.29043,
2,0,0,1,0,3061.22,0.28925,0.288976,-0.123507,2,0.0225076,10,-3.56906e-05,-3.90831,-0.0515801,-1.14385,5.52819,0.288976,
2,0,0,1,0,3061.37,0.287752,0.287427,-0.131664,2,0.0224856,10,-3.78437e-05,-3.88053,-0.0531438,-1.1102,5.71616,0.287427,
2,0,0,1,0,3061.52,0.286253,0.285937,-0.139855,2,0.0224624,10,-3.99897e-05,-3.85432,-0.0604436,-0.976117,5.34584,0.285937,
2,0,0,1,0,3061.67,0.284755,0.284504,-0.147768,2,0.022438,10,-4.20404e-05,-3.83042,-0.059218,-0.996318,5.66304,0.284504,
2,0,0,1,0,3061.82,0.283258,0.282959,-0.156525,2,0.0224124,10,-4.42901e-05,-3.80542,-0.0711179,-0.829608,5.0304,0.282959,
2,0,0,1,0,3061.97,0.281759,0.281441,-0.160509,2,0.0223858,10,-4.51738e-05,-3.7945,-0.0950722,-0.620581,3.89765,0.281441,
2,0,0,1,0,3062.12,0.280261,0.279975,-0.166796,2,0.0223583,10,-4.66987e-05,-3.77782,-0.0876995,-0.672752,4.36911,0.279975,
2,0,0,1,0,3062.27,0.278763,0.278459,-0.1732,2,0.0223299,10,-4.82291e-05,-3.76145,-0.1066,-0.553469,3.73467,0.278459,
2,0,0,1,0,3062.42,0.277264,0.276926,-0.179711,2,0.0223005,10,-4.97667e-05,-3.74543,-0.113256,-0.520946,3.63035,0.276926,
2,0,0,1,0,3062.57,0.275766,0.275432,-0.182794,2,0.0222703,10,-5.03473e-05,-3.73804,-0.142277,-0.414683,2.9599,0.275432,
2,0,0,1,0,3062.72,0.274268,0.273962,-0.189357,2,0.0222394,10,-5.18766e-05,-3.72272,-0.13885,-0.424917,3.15678,0.273962,
2,0,0,1,0,3062.87,0.27277,0.272496,-0.194902,2,0.0222077,10,-5.311e-05,-3.71018,-0.136455,-0.432377,3.30494,0.272496,
2,0,0,1,0,3063.02,0.271272,0.270979,-0.201068,2,0.0221752,10,-5.44851e-05,-3.69666,-0.163552,-0.360742,2.81365,0.2709786,
2,0,0,1,0,3063.17,0.269773,0.269487,-0.207056,2,0.0221418,10,-5.57989e-05,-3.68391,-0.147142,-0.400972,3.1913,0.2694875,
2,0,0,1,0,3063.32,0.268275,0.267983,-0.211401,2,0.022108,10,-5.6652e-05,-3.67489,-0.155776,-0.37875,3.09694,0.267983,
2,0,0,1,0,3063.47,0.266778,0.266443,-0.214224,2,0.0220735,10,-5.70785e-05,-3.66913,-0.132166,-0.446409,3.71699,0.266443,
2,0,0,1,0,3063.62,0.265279,0.264996,-0.217861,2,0.0220382,10,-5.77322e-05,-3.66182,-0.157674,-0.37419,3.18963,0.264996,
2,0,0,1,0,3063.77,0.263781,0.263501,-0.220638,2,0.0220023,10,-5.81381e-05,-3.65632,-0.1761,-0.335037,2.89305,0.263501,
2,0,0,1,0,3063.92,0.262283,0.262006,-0.226524,2,0.0219657,10,-5.93507e-05,-3.64489,-0.219327,-0.269004,2.38539,0.262006,
2,0,0,1,0,3064.07,0.260784,0.260466,-0.229071,2,0.0219287,10,-5.96651e-05,-3.64003,-0.232058,-0.254247,2.29639,0.260466,
2,0,0,1,0,3064.22,0.259286,0.259013,-0.234448,2,0.0218911,10,-6.0725e-05,-3.62995,-0.174659,-0.337801,3.07557,0.259013,
2,0,0,1,0,3064.37,0.257788,0.257483,-0.241597,2,0.0218528,10,-6.22071e-05,-3.61691,-0.257255,-0.229345,2.13104,0.2574828,
2,0,0,1,0,3064.52,0.25629,0.255975,-0.242754,2,0.0218139,10,-6.2139e-05,-3.61483,-0.246752,-0.239107,2.26322,0.255975,
2,0,0,1,0,3064.67,0.254791,0.254485,-0.245522,2,0.0217745,10,-6.24817e-05,-3.60991,-0.225133,-0.262067,2.50817,0.254485,
2,0,0,1,0,3064.82,0.253293,0.252983,-0.24972,2,0.0217347,10,-6.31749e-05,-3.60255,-0.210064,-0.280867,2.73084,0.252983,
2,0,0,1,0,3064.97,0.251796,0.251491,-0.252714,2,0.0216942,10,-6.35553e-05,-3.59737,-0.18932,-0.311641,3.08211,0.251491,
2,0,0,1,0,3065.12,0.250297,0.250007,-0.255887,2,0.0216532,10,-6.39736e-05,-3.59195,-0.360321,-0.163743,1.63459,0.250007,
2,0,0,1,0,3065.27,0.248799,0.24849,-0.261255,2,0.0216116,10,-6.49192e-05,-3.58293,-0.233838,-0.252311,2.56364,0.24849,
2,0,0,1,0,3065.42,0.247301,0.246956,-0.26289,2,0.0215697,10,-6.49222e-05,-3.58023,-0.21156,-0.278881,2.86524,0.246956,
2,0,0,1,0,3065.57,0.245802,0.245533,-0.267039,2,0.0215271,10,-6.55668e-05,-3.57343,-0.232222,-0.254068,2.63819,0.245533,
2,0,0,1,0,3065.72,0.244304,0.244032,-0.27142,2,0.021484,10,-6.62351e-05,-3.56636,-0.228991,-0.257652,2.70707,0.244032,
2,0,0,1,0,3065.87,0.242806,0.242541,-0.273779,2,0.0214403,10,-6.64024e-05,-3.5626,-0.346175,-0.170434,1.81822,0.242541,
2,0,0,1,0,3066.02,0.241308,0.24099,-0.27571,2,0.0213965,10,-6.64435e-05,-3.55955,-0.322238,-0.183095,1.97907,0.24099,
2,0,0,1,0,3066.17,0.23981,0.239506,-0.281476,2,0.021352,10,-6.74151e-05,-3.55056,-0.243935,-0.241867,2.63302,0.239506,
2,0,0,1,0,3066.32,0.238311,0.238014,-0.283715,2,0.0213069,10,-6.75284e-05,-3.54712,-0.218241,-0.270343,2.98316,0.238014,
2,0,0,1,0,3066.47,0.236814,0.236514,-0.284183,2,0.0212614,10,-6.72132e-05,-3.5464,-0.394508,-0.149553,1.6759,0.236514,
2,0,0,1,0,3066.62,0.235316,0.235019,-0.287043,2,0.0212155,10,-6.74605e-05,-3.54205,-0.323484,-0.182389,2.06483,0.235019,
2,0,0,1,0,3066.77,0.233817,0.233503,-0.29253,2,0.0211691,10,-6.83065e-05,-3.53383,-0.335043,-0.176097,2.01043,0.233503,
2,0,0,1,0,3066.92,0.232319,0.232016,-0.297468,2,0.0211221,10,-6.90173e-05,-3.52656,-0.257076,-0.229504,2.63522,0.232016,
2,0,0,1,0,3067.07,0.230821,0.23055,-0.299564,2,0.0210746,10,-6.90645e-05,-3.52351,-0.40033,-0.147378,1.71439,0.23055,
2,0,0,1,0,3067.21,0.229322,0.229026,-0.299535,2,0.0210267,10,-6.86012e-05,-3.52355,-0.326777,-0.180551,2.13208,0.229026,
2,0,0,1,0,3067.36,0.227824,0.227556,-0.304317,2,0.0209783,10,-6.92492e-05,-3.51667,-0.419468,-0.140654,1.68101,0.227556,
2,0,0,1,0,3067.51,0.226326,0.226051,-0.307556,2,0.0209294,10,-6.95235e-05,-3.51208,-0.36479,-0.161737,1.95906,0.2260513,
2,0,0,1,0,3067.66,0.224828,0.224489,-0.310589,2,0.02088,10,-6.97239e-05,-3.50781,-0.688085,-0.0857452,1.04005,0.224489,
2,0,0,1,0,3067.81,0.223329,0.223019,-0.315149,2,0.02083,10,-7.02842e-05,-3.50148,-0.476613,-0.12379,1.51995,0.223019,
2,0,0,1,0,3067.96,0.221831,0.221543,-0.320977,2,0.0207799,10,-7.11104e-05,-3.49353,-0.305409,-0.193183,2.40381,0.2215433,
2,0,0,1,0,3068.11,0.220334,0.220041,-0.322276,2,0.020729,10,-7.09141e-05,-3.49177,-0.293217,-0.201216,2.51236,0.220041,
2,0,0,1,0,3068.26,0.218835,0.218522,-0.325312,2,0.0206774,10,-7.1088e-05,-3.4877,-0.275156,-0.214424,2.71958,0.2185224,
2,0,0,1,0,3068.41,0.217337,0.217032,-0.327706,2,0.0206255,10,-7.11225e-05,-3.48452,-0.396067,-0.148965,1.91306,0.217032,
2,0,0,1,0,3068.56,0.215839,0.215514,-0.331443,2,0.0205732,10,-7.14305e-05,-3.47959,-0.347792,-0.169642,2.20936,0.215514,
2,0,0,1,0,3068.71,0.21434,0.213988,-0.33467,2,0.0205204,10,-7.16154e-05,-3.47538,-0.24538,-0.240443,3.12621,0.213988,
2,0,0,1,0,3068.86,0.212842,0.212499,-0.339643,2,0.0204669,10,-7.2174e-05,-3.46898,-0.328115,-0.179815,2.37902,0.212499,
2,0,0,1,0,3069.01,0.211344,0.211017,-0.343486,2,0.0204129,10,-7.24813e-05,-3.46409,-0.327703,-0.180041,2.39961,0.211017,
2,0,0,1,0,3069.16,0.209846,0.209528,-0.345212,2,0.0203585,10,-7.23315e-05,-3.46191,-0.384379,-0.153494,2.07376,0.209528,
2,0,0,1,0,3069.31,0.208348,0.208045,-0.349829,2,0.0203037,10,-7.27799e-05,-3.45614,-0.24069,-0.245129,3.35193,0.208045,
2,0,0,1,0,3069.46,0.206849,0.206528,-0.358778,2,0.0202479,10,-7.40978e-05,-3.44517,-0.270305,-0.218272,3.00725,0.206528,
2,0,0,1,0,3069.61,0.205352,0.205003,-0.35729,2,0.0201915,10,-7.32458e-05,-3.44698,-0.414093,-0.14248,1.97938,0.205003,
2,0,0,1,0,3069.76,0.203854,0.203499,-0.361846,2,0.0201348,10,-7.36352e-05,-3.44148,-0.321232,-0.183668,2.60577,0.203499,
2,0,0,1,0,3069.91,0.202355,0.202016,-0.361689,2,0.0200777,10,-7.30671e-05,-3.44166,-0.237978,-0.247922,3.54315,0.202016,
2,0,0,1,0,3070.06,0.200857,0.200551,-0.369902,2,0.0200198,10,-7.41841e-05,-3.43191,-0.281149,-0.209853,3.02693,0.200551,
2,0,0,1,0,3070.21,0.199359,0.199014,-0.374334,2,0.0199612,10,-7.44977e-05,-3.42674,-0.334593,-0.176334,2.56347,0.199014,
2,0,0,1,0,3070.36,0.19786,0.197522,-0.379507,2,0.019902,10,-7.49611e-05,-3.42078,-0.392956,-0.150144,2.21591,0.197522,
2,0,0,1,0,3070.51,0.196362,0.196084,-0.382128,2,0.0198423,10,-7.49292e-05,-3.41779,-0.370415,-0.159281,2.36955,0.196084,
2,0,0,1,0,3070.66,0.194864,0.194556,-0.387425,2,0.0197818,10,-7.5376e-05,-3.41181,-0.249043,-0.236907,3.57588,0.194556,
2,0,0,1,0,3070.81,0.193366,0.193065,-0.392098,2,0.0197205,10,-7.57005e-05,-3.40661,-0.332785,-0.177291,2.71268,0.193065,
2,0,0,1,0,3070.96,0.191867,0.191542,-0.397231,2,0.0196585,10,-7.60863e-05,-3.40096,-0.296545,-0.198958,3.0959,0.191542,
2,0,0,1,0,3071.11,0.190369,0.190054,-0.401525,2,0.0195961,10,-7.63117e-05,-3.39629,-0.24717,-0.238702,3.74826,0.190054,
2,0,0,1,0,3071.26,0.188872,0.188575,-0.406074,2,0.0195328,10,-7.65753e-05,-3.39139,-0.200213,-0.294686,4.66955,0.188575,
2,0,0,1,0,3071.41,0.187373,0.187075,-0.411153,2,0.0194685,10,-7.69164e-05,-3.386,-0.232626,-0.253626,4.08546,0.187075,
2,0,0,1,0,3071.56,0.185875,0.185547,-0.418691,2,0.0194034,10,-7.76868e-05,-3.37811,-0.228564,-0.258134,4.2147,0.185547,
2,0,0,1,0,3071.71,0.184377,0.184061,-0.419571,2,0.0193374,10,-7.72269e-05,-3.37719,-0.232728,-0.253515,4.18929,0.184061,
2,0,0,1,0,3071.86,0.182878,0.182559,-0.432292,2,0.0192705,10,-7.89187e-05,-3.36422,-0.212064,-0.278218,4.69014,0.182559,
2,0,0,1,0,3072.01,0.18138,0.181058,-0.439294,2,0.0192024,10,-7.95378e-05,-3.35724,-0.219891,-0.268315,4.58927,0.181058,
2,0,0,1,0,3072.16,0.179882,0.17959,-0.444556,2,0.0191332,10,-7.98377e-05,-3.35207,-0.238032,-0.247866,4.31059,0.1795896,
2,0,0,1,0,3072.31,0.178384,0.178073,-0.453355,2,0.0190628,10,-8.07303e-05,-3.34356,-0.227448,-0.2594,4.60407,0.178073,
2,0,0,1,0,3072.46,0.176886,0.176582,-0.463231,2,0.0189915,10,-8.17983e-05,-3.3342,-0.183203,-0.322047,5.82419,0.176582,
2,0,0,1,0,3072.61,0.175387,0.175031,-0.473169,2,0.0189185,10,-8.28194e-05,-3.32498,-0.158913,-0.371273,6.8296,0.175031,
2,0,0,1,0,3072.76,0.17389,0.173605,-0.482708,2,0.0188442,10,-8.38004e-05,-3.31632,-0.149283,-0.395222,7.43425,0.173605,
2,0,0,1,0,3072.91,0.172392,0.172063,-0.492353,2,0.0187683,10,-8.47155e-05,-3.30772,-0.142087,-0.415239,7.98401,0.172063,
2,0,0,1,0,3073.06,0.170893,0.170575,-0.503463,2,0.018691,10,-8.58782e-05,-3.29803,-0.138974,-0.42454,8.34891,0.170575,
2,0,0,1,0,3073.21,0.169395,0.1691,-0.515397,2,0.0186116,10,-8.71537e-05,-3.28786,-0.119825,-0.492386,9.92793,0.1691,
2,0,0,1,0,3073.36,0.167897,0.167589,-0.529982,2,0.0185302,10,-8.88191e-05,-3.27574,-0.126868,-0.465052,9.63404,0.167589,
2,0,0,1,0,3073.51,0.166398,0.166103,-0.544502,2,0.0184466,10,-9.04435e-05,-3.264,-0.135888,-0.43418,9.2832,0.166103,
2,0,0,1,0,3073.66,0.1649,0.164617,-0.559042,2,0.018361,10,-9.20276e-05,-3.25256,-0.114866,-0.513642,11.3008,0.164617,
2,0,0,1,0,3073.81,0.163402,0.16308,-0.580058,2,0.0182726,10,-9.45959e-05,-3.23653,-0.102015,-0.578347,13.101,0.16308,
2,0,0,1,0,3073.96,0.161904,0.161571,-0.602648,2,0.0181813,10,-9.73706e-05,-3.21994,-0.0988202,-0.597044,14.0164,0.161571,
2,0,0,1,0,3074.11,0.160405,0.160066,-0.624001,2,0.0180866,10,-9.9881e-05,-3.20481,-0.0915216,-0.644657,15.6555,0.160066,
2,0,0,1,0,3074.26,0.158907,0.158591,-0.643921,2,0.0179888,10,-0.00010212,-3.19117,-0.0876277,-0.673303,17.0249,0.158591,
2,0,0,1,0,3074.41,0.15741,0.157121,-0.673525,2,0.0178873,10,-0.000105825,-3.17165,-0.0787964,-0.748765,19.8014,0.157121,
2,0,0,1,0,3074.56,0.155911,0.155611,-0.700874,2,0.0177812,10,-0.000109063,-3.15436,-0.0766183,-0.770051,21.1896,0.155611,
2,0,0,1,0,3074.71,0.154413,0.154087,-0.737063,2,0.0176703,10,-0.000113572,-3.1325,-0.0777621,-0.758725,21.7944,0.154087,
2,0,0,1,0,3074.86,0.152915,0.152575,-0.77279,2,0.0175544,10,-0.000117908,-3.11194,-0.0724544,-0.814306,24.605,0.152575,
2,0,0,1,0,3075.01,0.151417,0.151121,-0.809217,2,0.0174333,10,-0.00012229,-3.09193,-0.0685221,-0.861036,27.3447,0.151121,
2,0,0,1,0,3075.16,0.149918,0.149602,-0.852494,2,0.0173057,10,-0.000127535,-3.06931,-0.0651623,-0.905432,30.135,0.149602,
2,0,0,1,0,3075.31,0.14842,0.148081,-0.900241,2,0.0171715,10,-0.000133308,-3.04564,-0.0676655,-0.871937,30.6307,0.148081,
2,0,0,1,0,3075.45,0.146922,0.146617,-0.946565,2,0.0170303,10,-0.000138783,-3.02385,-0.067147,-0.87867,32.4779,0.146617,
2,0,0,1,0,3075.6,0.145424,0.145126,-0.995981,2,0.016882,10,-0.000144543,-3.00175,-0.0677422,-0.870948,33.9107,0.145126,
2,0,0,1,0,3075.75,0.143925,0.143646,-1.04742,2,0.0167258,10,-0.000150458,-2.97988,-0.0649357,-0.908591,37.1114,0.143646,
2,0,0,1,0,3075.9,0.142428,0.142145,-1.10629,2,0.0165614,10,-0.000157254,-2.95613,-0.0712083,-0.828555,35.5635,0.142145,
2,0,0,1,0,3076.05,0.14093,0.140604,-1.15266,2,0.0163892,10,-0.000162068,-2.9383,-0.0800809,-0.736755,33.1141,0.140604,
2,0,0,1,0,3076.2,0.139431,0.139119,-1.20106,2,0.0162094,10,-0.00016709,-2.92044,-0.0859951,-0.686086,32.1827,0.139119,
2,0,0,1,0,3076.35,0.137933,0.137619,-1.25014,2,0.0160225,10,-0.000172043,-2.90304,-0.0942868,-0.62575,30.4544,0.137619,
2,0,0,1,0,3076.5,0.136435,0.13616,-1.29636,2,0.0158286,10,-0.000176512,-2.88727,-0.103464,-0.570246,28.7548,0.13616,
2,0,0,1,0,3076.65,0.134936,0.134597,-1.3346,2,0.0156282,10,-0.000179632,-2.87465,-0.129253,-0.45647,23.6736,0.134597,
2,0,0,1,0,3076.8,0.133438,0.133099,-1.37084,2,0.0154223,10,-0.000182458,-2.86301,-0.152473,-0.386954,20.6617,0.133099,
2,0,0,1,0,3076.95,0.13194,0.131644,-1.39858,2,0.0152121,10,-0.000184115,-2.85431,-0.174616,-0.337884,18.4552,0.131644,
2,0,0,1,0,3077.1,0.130442,0.130148,-1.42485,2,0.0149974,10,-0.000185441,-2.84623,-0.209052,-0.282227,15.6518,0.130148,
2,0,0,1,0,3077.25,0.128943,0.128638,-1.44713,2,0.0147789,10,-0.000186156,-2.83949,-0.313573,-0.188154,10.5641,0.128638,
2,0,0,1,0,3077.4,0.127445,0.127092,-1.46334,2,0.014558,10,-0.000185978,-2.83466,-0.396631,-0.148753,8.45624,0.127092,
2,0,0,1,0,3077.55,0.125948,0.12564,-1.4681,2,0.0143359,10,-0.000184452,-2.83325,-0.572218,-0.103108,5.89916,0.12564,
2,0,0,1,0,3077.7,0.124449,0.124171,-1.47459,2,0.0141122,10,-0.000183101,-2.83133,-0.91762,-0.0642968,3.69162,0.124171,
2,0,0,1,0,3077.85,0.122951,0.122587,-1.47978,2,0.0138878,10,-0.000181403,-2.8298,-3.59309,-0.0164204,0.945501,0.122587,
2,0,0,1,0,3078,0.121453,0.12112,-1.47613,2,0.0136634,10,-0.000178789,-2.83088,1.10459,0.0534137,-3.07446,0.12112,
2,0,0,1,0,3078.15,0.119955,0.119648,-1.46316,2,0.01344,10,-0.000175064,-2.83471,0.775818,0.0760488,-4.36143,0.119648,
2,0,0,1,0,3078.3,0.118456,0.118158,-1.46445,2,0.0132173,10,-0.000173036,-2.83433,0.801596,0.0736032,-4.19798,0.118158,
2,0,0,1,0,3078.45,0.116958,0.116653,-1.45721,2,0.0129955,10,-0.000169989,-2.83648,0.456948,0.129118,-7.3241,0.116653,
2,0,0,1,0,3078.6,0.11546,0.115124,-1.4451,2,0.0127753,10,-0.000166366,-2.8401,0.350426,0.168366,-9.47342,0.115124,
2,0,0,1,0,3078.75,0.113962,0.113669,-1.42405,2,0.0125571,10,-0.000161871,-2.84647,0.335671,0.175767,-9.80356,0.113669,
2,0,0,1,0,3078.9,0.112463,0.11214,-1.4174,2,0.0123411,10,-0.000158948,-2.84851,0.351468,0.167868,-9.27963,0.1121398,
2,0,0,1,0,3079.05,0.110966,0.110646,-1.40176,2,0.012127,10,-0.000155099,-2.85333,0.335407,0.175906,-9.6189,0.110646,
2,0,0,1,0,3079.2,0.109468,0.109171,-1.38755,2,0.0119151,10,-0.00015148,-2.85775,0.260241,0.226713,-12.2488,0.109171,
2,0,0,1,0,3079.35,0.107969,0.107654,-1.36998,2,0.0117055,10,-0.000147483,-2.86329,0.26589,0.221897,-11.8662,0.107654,
2,0,0,1,0,3079.5,0.106471,0.106158,-1.35051,2,0.0114991,10,-0.000143367,-2.8695,0.312189,0.188988,-10.0059,0.1061575,
2,0,0,1,0,3079.65,0.104973,0.104664,-1.33454,2,0.0112948,10,-0.000139679,-2.87467,0.267451,0.220601,-11.4824,0.104664,
2,0,0,1,0,3079.8,0.103474,0.10313,-1.32018,2,0.0110927,10,-0.00013615,-2.87937,0.23412,0.252007,-12.9538,0.10313,
2,0,0,1,0,3079.95,0.101976,0.101656,-1.30074,2,0.0108936,10,-0.000132228,-2.88581,0.226101,0.260945,-13.2212,0.101656,
2,0,0,1,0,3080.1,0.100478,0.100203,-1.28129,2,0.0106977,10,-0.000128389,-2.89235,0.242285,0.243515,-12.1834,0.100203,
2,0,0,1,0,3080.25,0.0989798,0.098688,-1.26557,2,0.0105042,10,-0.000124897,-2.89771,0.286398,0.206007,-10.1471,0.098688,
2,0,0,1,0,3080.4,0.0974808,0.097129,-1.24954,2,0.010313,10,-0.000121366,-2.90325,0.28144,0.209636,-10.208,0.097129,
2,0,0,1,0,3080.55,0.0959833,0.0956817,-1.23095,2,0.0101245,10,-0.000117779,-2.90976,0.253458,0.23278,-11.1785,0.0956817,
2,0,0,1,0,3080.7,0.0944857,0.0942051,-1.21075,2,0.0099388,10,-0.000114059,-2.91695,0.260678,0.226333,-10.7298,0.0942051,
2,0,0,1,0,3080.85,0.0929871,0.0926914,-1.19589,2,0.00975529,10,-0.000110848,-2.92231,0.318652,0.185155,-8.65724,0.0926914,
2,0,0,1,0,3081,0.0914889,0.0911665,-1.1882,2,0.00957384,10,-0.000108324,-2.92511,0.320402,0.184144,-8.50287,0.0911665,
2,0,0,1,0,3081.15,0.0899907,0.0897106,-1.16968,2,0.00939444,10,-0.000104933,-2.93193,0.266263,0.221586,-10.099,0.0897106,
2,0,0,1,0,3081.3,0.0884925,0.0882069,-1.15167,2,0.00921734,10,-0.000101586,-2.93867,0.313764,0.18804,-8.49385,0.0882069,
2,0,0,1,0,3081.45,0.0869943,0.086681,-1.14446,2,0.00904242,10,-9.92029e-05,-2.9414,0.367416,0.160581,-7.17945,0.086681,
2,0,0,1,0,3081.6,0.0854961,0.0851774,-1.13392,2,0.00886891,10,-9.65841e-05,-2.94542,0.336999,0.175075,-7.74733,0.0851774,
2,0,0,1,0,3081.75,0.083998,0.0837034,-1.12274,2,0.00869689,10,-9.39769e-05,-2.94972,0.301259,0.195845,-8.57335,0.0837034,
2,0,0,1,0,3081.9,0.0824998,0.0821881,-1.11516,2,0.00852651,10,-9.16527e-05,-2.95266,0.378674,0.155807,-6.77288,0.0821881,
2,0,0,1,0,3082.05,0.0810011,0.0806853,-1.10171,2,0.00835794,10,-8.88915e-05,-2.95793,0.416828,0.141545,-6.10515,0.0806853,
2,0,0,1,0,3082.2,0.0795036,0.0791566,-1.0945,2,0.00819063,10,-8.66373e-05,-2.96078,0.454917,0.129694,-5.53466,0.0791566,
2,0,0,1,0,3082.35,0.0780061,0.0776686,-1.08726,2,0.00802428,10,-8.44463e-05,-2.96366,0.491892,0.119945,-5.07693,0.0776686,
2,0,0,1,0,3082.5,0.076507,0.0761724,-1.07678,2,0.00785925,10,-8.20208e-05,-2.96787,0.44883,0.131453,-5.5247,0.0761724,
2,0,0,1,0,3082.65,0.0750088,0.0747515,-1.06651,2,0.00769586,10,-7.97232e-05,-2.97204,0.44687,0.132029,-5.50799,0.0747515,
2,0,0,1,0,3082.8,0.0735106,0.0731874,-1.06016,2,0.00753347,10,-7.75904e-05,-2.97463,0.65215,0.0904699,-3.7356,0.0731874,
2,0,0,1,0,3082.95,0.0720124,0.071741,-1.05345,2,0.00737218,10,-7.55756e-05,-2.97739,0.465018,0.126877,-5.21686,0.071741,
2,0,0,1,0,3083.1,0.0705142,0.0701822,-1.04496,2,0.00721209,10,-7.33377e-05,-2.9809,0.378328,0.155949,-6.35269,0.07018216,
2,0,0,1,0,3083.25,0.069016,0.0687124,-1.03404,2,0.00705338,10,-7.10512e-05,-2.98546,0.382052,0.154429,-6.24541,0.0687124,
2,0,0,1,0,3083.4,0.0675179,0.0671621,-1.02814,2,0.00689598,10,-6.90524e-05,-2.98795,0.547359,0.10779,-4.32799,0.0671621,
2,0,0,1,0,3083.55,0.0660188,0.065714,-1.0262,2,0.0067394,10,-6.74356e-05,-2.98877,0.479164,0.123131,-4.90874,0.065714,
2,0,0,1,0,3083.69,0.0645213,0.0641942,-1.01412,2,0.00658396,10,-6.51009e-05,-2.99391,0.402572,0.146557,-5.78428,0.06419415,
2,0,0,1,0,3083.84,0.0630237,0.0627048,-1.00205,2,0.00642998,10,-6.28332e-05,-2.99911,0.396749,0.148708,-5.82897,0.0627048,
2,0,0,1,0,3083.99,0.0615251,0.0612313,-0.993475,2,0.00627751,10,-6.08317e-05,-3.00284,0.457904,0.128848,-5.00901,0.0612313,
2,0,0,1,0,3084.14,0.0600269,0.0596969,-0.987221,2,0.00612605,10,-5.8934e-05,-3.00559,0.393012,0.150123,-5.78053,0.0596969,
2,0,0,1,0,3084.29,0.0585287,0.0581932,-0.977418,2,0.00597592,10,-5.68791e-05,-3.00992,0.292928,0.201415,-7.66696,0.0581932,
2,0,0,1,0,3084.44,0.0570305,0.0567298,-0.969356,2,0.00582716,10,-5.49914e-05,-3.01352,0.333263,0.177037,-6.68797,0.0567298,
2,0,0,1,0,3084.59,0.0555323,0.0552241,-0.959274,2,0.00568017,10,-5.2975e-05,-3.01806,0.351515,0.167845,-6.28013,0.0552241,
2,0,0,1,0,3084.74,0.0540341,0.0537193,-0.951476,2,0.00553436,10,-5.11127e-05,-3.0216,0.346484,0.170282,-6.30558,0.0537193,
2,0,0,1,0,3084.89,0.052536,0.0521839,-0.940914,2,0.00538968,10,-4.91006e-05,-3.02645,0.302492,0.195047,-7.15244,0.0521839,
2,0,0,1,0,3085.04,0.0510378,0.0507428,-0.931444,2,0.00524663,10,-4.72641e-05,-3.03084,0.278858,0.211577,-7.69128,0.05074279,
2,0,0,1,0,3085.19,0.0495391,0.0492398,-0.918535,2,0.00510535,10,-4.52285e-05,-3.0369,0.332232,0.177587,-6.38241,0.0492398,
2,0,0,1,0,3085.34,0.0480416,0.0477333,-0.910099,2,0.00496537,10,-4.34421e-05,-3.04091,0.493178,0.119632,-4.24651,0.0477333,
2,0,0,1,0,3085.49,0.0465441,0.0462264,-0.900108,2,0.0048268,10,-4.16087e-05,-3.04571,0.336631,0.175266,-6.1641,0.0462264,
2,0,0,1,0,3085.64,0.045045,0.0447027,-0.89199,2,0.00468956,10,-3.98744e-05,-3.04964,0.292662,0.201598,-7.01083,0.0447027,
2,0,0,1,0,3085.79,0.0435468,0.0432489,-0.876946,2,0.00455412,10,-3.79269e-05,-3.05703,0.324576,0.181776,-6.24246,0.0432489,
2,0,0,1,0,3085.94,0.0420486,0.0417802,-0.871404,2,0.00442024,10,-3.64075e-05,-3.05978,0.310259,0.190164,-6.47661,0.0417802,
2,0,0,1,0,3086.09,0.0405504,0.0402638,-0.865645,2,0.00428749,10,-3.48542e-05,-3.06266,0.331089,0.1782,-5.98753,0.04026385,
2,0,0,1,0,3086.24,0.0390523,0.0387507,-0.854134,2,0.0041559,10,-3.30983e-05,-3.06847,0.282023,0.209202,-6.95456,0.0387507,
2,0,0,1,0,3086.39,0.0375541,0.0372534,-0.841207,2,0.00402597,10,-3.13378e-05,-3.0751,0.296474,0.199005,-6.56087,0.0372534,
2,0,0,1,0,3086.54,0.0360559,0.0357624,-0.835445,2,0.00389758,10,-2.98775e-05,-3.07808,0.340289,0.173382,-5.66349,0.0357624,
2,0,0,1,0,3086.69,0.0345568,0.0342091,-0.826655,2,0.0037702,10,-2.82791e-05,-3.08268,0.353514,0.166896,-5.38777,0.0342091,
2,0,0,1,0,3086.84,0.0330593,0.0327445,-0.819735,2,0.00364402,10,-2.68418e-05,-3.08633,0.326498,0.180705,-5.77111,0.0327445,
2,0,0,1,0,3086.99,0.0315618,0.0312466,-0.812326,2,0.003519,10,-2.53824e-05,-3.09027,0.412882,0.142898,-4.52063,0.03124663,
2,0,0,1,0,3087.14,0.0300631,0.0297669,-0.804441,2,0.00339526,10,-2.39457e-05,-3.09451,0.423299,0.139381,-4.37355,0.0297669,
2,0,0,1,0,3087.29,0.0285649,0.0282484,-0.796918,2,0.00327241,10,-2.25116e-05,-3.09859,0.520205,0.113417,-3.52204,0.02824839,
2,0,0,1,0,3087.44,0.0270667,0.0267681,-0.791697,2,0.00315046,10,-2.11922e-05,-3.10144,0.510991,0.115462,-3.56601,0.02676806,
2,0,0,1,0,3087.59,0.0255685,0.0252368,-0.785084,2,0.00302932,10,-1.9813e-05,-3.10508,0.497253,0.118652,-3.64086,0.0252368,
2,0,0,1,0,3087.74,0.0240704,0.0237756,-0.778991,2,0.00290932,10,-1.8521e-05,-3.10847,0.601915,0.0980205,-2.99304,0.0237756,
2,0,0,1,0,3087.89,0.0225722,0.0222592,-0.774035,2,0.00278986,10,-1.72294e-05,-3.11124,0.912831,0.0646341,-1.95767,0.0222592,
2,0,0,1,0,3088.04,0.021074,0.0207322,-0.772849,2,0.00267094,10,-1.60229e-05,-3.11191,0.710989,0.082983,-2.50347,0.0207322,
2,0,0,1,0,3088.19,0.0195758,0.0192858,-0.770225,2,0.00255259,10,-1.48544e-05,-3.11338,0.65058,0.0906883,-2.71994,0.0192858,
2,0,0,1,0,3088.34,0.0180771,0.0177904,-0.764102,2,0.00243471,10,-1.35937e-05,-3.11685,1.30748,0.0451251,-1.34988,0.0177904,
2,0,0,1,0,3088.49,0.0165796,0.0162861,-0.765348,2,0.00231742,10,-1.24645e-05,-3.11614,1.66211,0.035497,-1.06045,0.0162861,
2,0,0,1,0,3088.64,0.0150821,0.0147249,-0.763568,2,0.00220015,10,-1.12435e-05,-3.11715,1.75252,0.0336658,-1.00181,0.0147249,
2,0,0,1,0,3088.79,0.013583,0.0132436,-0.760652,2,0.00208293,10,-1.00738e-05,-3.11881,1.12417,0.0524832,-1.5562,0.0132436,
2,0,0,1,0,3088.94,0.0120848,0.0117972,-0.758311,2,0.00196626,10,-8.94598e-06,-3.12015,2.56324,0.0230178,-0.683781,0.0117972,
2,0,0,1,0,3089.09,0.0105866,0.0102872,-0.757513,2,0.00184987,10,-7.79271e-06,-3.12061,4.70285,0.0125456,-0.372423,0.0102872,
2,0,0,1,0,3089.24,0.00908845,0.00879205,-0.758076,2,0.00173339,10,-6.66504e-06,-3.12029,8.59878,0.00686144,-0.203512,0.00879205,
2,0,0,1,0,3089.39,0.00759027,0.00730006,-0.760405,2,0.00161672,10,-5.551e-06,-3.11896,117.352,0.00050276,-0.0148982,0.00730006,
2,0,0,1,0,3089.54,0.00609208,0.00582291,-0.761544,2,0.00150004,10,-4.43441e-06,-3.1183,7.48619,0.00788118,-0.233751,0.00582291,
2,0,0,1,0,3089.69,0.00459389,0.00430547,-0.762381,2,0.00138345,10,-3.28241e-06,-3.11783,-2.02416,-0.0291479,0.865657,0.00430547,
2,0,0,1,0,3089.84,0.0030948,0.00279767,-0.763201,2,0.00126639,10,-2.13518e-06,-3.11736,-0.569766,-0.103551,3.08351,0.00279767,
2,0,0,1,0,3089.99,0.00159728,0.00121947,-0.776018,2,0.00114724,10,-9.46332e-07,-3.11013, , , ,0.001219471,
2,0,0,1,0,3090.13,0.000199195,-0.000163081,-0.767954,2,0.00103685,10,1.25239e-07,-3.11466, , , ,-0.000163081,