File: Figure_codes/Fig_3-5/rawdata_trumpetplot_data/after 10th/20221101_1-115_003_TrumpetPlot_ParaChange_from10_every3_13_CV_C01_29.csv
mode,ox/red,error,control changes,counter inc.,time/s,control/V,Ewe/V,<I>/mA,cycle number,(Q-Qo)/C,I Range,P/W,log(|I|),Tafel slope mV/dec,alpha_eff,dI/d(E-IR),E-IR/V,
2,1,0,1,0,58331.6,2.44065e-05,-0.000344411,15.1533,30,0.0000000E+000,10,-5.21896e-06,-1.81949, , , ,-0.000344411,
2,1,0,1,0,58331.6,0.00266289,0.00224086,16.3638,30,4.93665e-05,10,3.66691e-05,-1.78612, , , ,0.00224086,
2,1,0,1,0,58331.6,0.00586735,0.00547722,17.3714,30,0.000117001,10,9.51472e-05,-1.76016, , , ,0.00547722,
2,1,0,1,0,58331.6,0.00906349,0.00865102,18.2448,30,0.000188334,10,0.000157836,-1.73886,0.15451,0.381852,268.704,0.00865102,
2,1,0,1,0,58331.7,0.0122624,0.0118195,19.0405,30,0.000263008,10,0.000225049,-1.72032,0.177877,0.33169,244.618,0.0118195,
2,1,0,1,0,58331.7,0.0154641,0.0150559,19.8073,30,0.000340797,10,0.000298216,-1.70318,0.198185,0.297701,228.625,0.0150559,
2,1,0,1,0,58331.7,0.0186602,0.018305,20.5093,30,0.000421518,10,0.000375423,-1.68805,0.217383,0.27141,216.086,0.018305,
2,1,0,1,0,58331.7,0.0218675,0.0215084,21.1843,30,0.000504996,10,0.000455641,-1.67399,0.236375,0.249603,205.526,0.0215084,
2,1,0,1,0,58331.7,0.0250636,0.0246981,21.8234,30,0.000591104,10,0.000538996,-1.66108,0.251281,0.234797,199.369,0.0246981,
2,1,0,1,0,58331.7,0.0282597,0.0278889,22.4448,30,0.000679715,10,0.000625961,-1.64888,0.268822,0.219476,191.724,0.0278889,
2,1,0,1,0,58331.7,0.031467,0.0310712,23.0545,30,0.000770804,10,0.000716332,-1.63724,0.285035,0.206992,185.704,0.0310712,
2,1,0,1,0,58331.7,0.0346631,0.0342492,23.627,30,0.000864233,10,0.000809206,-1.62659,0.302486,0.19505,179.459,0.0342492,
2,1,0,1,0,58331.7,0.0378704,0.0374623,24.1937,30,0.000959936,10,0.000906351,-1.6163,0.32134,0.183606,173.005,0.0374623,
2,1,0,1,0,58331.7,0.0410665,0.0406944,24.7428,30,0.00105785,10,0.00100689,-1.60655,0.335372,0.175924,169.551,0.0406944,
2,1,0,1,0,58331.7,0.0442626,0.0438597,25.267,30,0.00115792,10,0.0011082,-1.59745,0.353038,0.167121,164.579,0.04385969,
2,1,0,1,0,58331.7,0.0474671,0.0470367,25.7951,30,0.00126009,10,0.00121332,-1.58846,0.367434,0.160573,161.417,0.0470367,
2,1,0,1,0,58331.7,0.0506632,0.0502794,26.3031,30,0.00136435,10,0.00132251,-1.57999,0.38157,0.154624,158.508,0.0502794,
2,1,0,1,0,58331.7,0.0538621,0.0534436,26.8008,30,0.00147059,10,0.00143233,-1.57185,0.39694,0.148637,155.332,0.0534436,
2,1,0,1,0,58331.7,0.0570638,0.0566418,27.2931,30,0.00157885,10,0.00154593,-1.56395,0.40828,0.144509,153.837,0.0566418,
2,1,0,1,0,58331.7,0.06026,0.0598432,27.7844,30,0.00168906,10,0.00166271,-1.5562,0.418674,0.140921,152.721,0.0598432,
2,1,0,1,0,58331.7,0.0634672,0.0631008,28.2755,30,0.00180124,10,0.00178421,-1.54859,0.433107,0.136225,150.162,0.06310077,
2,1,0,1,0,58331.7,0.0666633,0.0662724,28.76,30,0.00191535,10,0.001906,-1.54121,0.440255,0.134013,150.29,0.0662724,
2,1,0,1,0,58331.7,0.0698595,0.0694643,29.2185,30,0.00203136,10,0.00202964,-1.53434,0.454717,0.129751,147.927,0.0694643,
2,1,0,1,0,58331.7,0.0730667,0.0726423,29.708,30,0.00214927,10,0.00215805,-1.52713,0.461622,0.12781,148.142,0.0726423,
2,1,0,1,0,58331.7,0.0762628,0.0759094,30.1703,30,0.00226908,10,0.00229021,-1.52042,0.466412,0.126498,148.903,0.0759094,
2,1,0,1,0,58331.7,0.0794701,0.0790927,30.6592,30,0.00239077,10,0.00242492,-1.51344,0.479774,0.122975,147.053,0.0790927,
2,1,0,1,0,58331.7,0.0826662,0.0822687,31.1251,30,0.00251438,10,0.00256062,-1.50689,0.483225,0.122096,148.23,0.08226867,
2,1,0,1,0,58331.7,0.0858624,0.0854552,31.5921,30,0.00263986,10,0.00269971,-1.50042,0.492771,0.119731,147.617,0.0854552,
2,1,0,1,0,58331.7,0.0890668,0.0886894,32.0647,30,0.00276722,10,0.0028438,-1.49397,0.498424,0.118373,148.127,0.0886894,
2,1,0,1,0,58331.8,0.092263,0.0918452,32.5417,30,0.00289647,10,0.0029888,-1.48756,0.506195,0.116556,147.984,0.0918452,
2,1,0,1,0,58331.8,0.0954674,0.095071,33.0215,30,0.00302765,10,0.00313939,-1.4812,0.51413,0.114757,147.804,0.095071,
2,1,0,1,0,58331.8,0.0986636,0.0982882,33.4912,30,0.00316073,10,0.00329179,-1.47507,0.520695,0.11331,148.068,0.0982882,
2,1,0,1,0,58331.8,0.10186,0.101499,33.958,30,0.00329569,10,0.00344671,-1.46906,0.528326,0.111673,147.996,0.101499,
2,1,0,1,0,58331.8,0.105067,0.104685,34.4428,30,0.00343254,10,0.00360563,-1.4629,0.532594,0.110778,148.879,0.104685,
2,1,0,1,0,58331.8,0.108263,0.10784,34.9113,30,0.0035713,10,0.00376485,-1.45703,0.534576,0.110368,150.357,0.10784,
2,1,0,1,0,58331.8,0.111465,0.111099,35.3985,30,0.00371197,10,0.00393273,-1.45102,0.544773,0.108302,149.576,0.111099,
2,1,0,1,0,58331.8,0.114666,0.114245,35.8745,30,0.00385457,10,0.00409849,-1.44521,0.547711,0.107721,150.782,0.114245,
2,1,0,1,0,58331.8,0.117863,0.117443,36.3512,30,0.00399907,10,0.00426921,-1.43948,0.554304,0.10644,151.016,0.117443,
2,1,0,1,0,58331.8,0.12107,0.12062,36.8383,30,0.00414549,10,0.00444345,-1.4337,0.556487,0.106022,152.428,0.12062,
2,1,0,1,0,58331.8,0.124266,0.123872,37.3273,30,0.00429385,10,0.0046238,-1.42797,0.549858,0.1073,156.374,0.1238716,
2,1,0,1,0,58331.8,0.127462,0.127008,37.8199,30,0.0044442,10,0.00480344,-1.42228,0.551491,0.106983,158.012,0.127008,
2,1,0,1,0,58331.8,0.130667,0.130232,38.351,30,0.00459659,10,0.00499453,-1.41622,0.542059,0.108844,162.933,0.130232,
2,1,0,1,0,58331.8,0.133863,0.133482,38.8706,30,0.00475109,10,0.00518853,-1.41038,0.544899,0.108277,164.236,0.133482,
2,1,0,1,0,58331.8,0.137067,0.13662,39.4044,30,0.00490767,10,0.00538343,-1.40445,0.544925,0.108272,166.511,0.13662,
2,1,0,1,0,58331.8,0.140263,0.139863,39.931,30,0.00506641,10,0.00558485,-1.39869,0.544162,0.108424,168.975,0.139863,
2,1,0,1,0,58331.8,0.143459,0.14302,40.4805,30,0.00522729,10,0.00578953,-1.39275,0.560404,0.105281,166.218,0.14302,
2,1,0,1,0,58331.8,0.146667,0.146173,41.0151,30,0.00539035,10,0.0059953,-1.38706,0.552075,0.10687,171.039,0.146173,
2,1,0,1,0,58331.8,0.149863,0.149361,41.5222,30,0.00555549,10,0.00620178,-1.38172,0.558348,0.105669,171.422,0.149361,
2,1,0,1,0,58331.8,0.153064,0.152577,42.1057,30,0.00572277,10,0.00642435,-1.37566,0.560773,0.105212,172.936,0.1525768,
2,1,0,1,0,58331.8,0.156266,0.155817,42.6741,30,0.00589239,10,0.00664937,-1.36984,0.556809,0.105961,176.359,0.1558174,
2,1,0,1,0,58331.8,0.159462,0.159028,43.2382,30,0.00606428,10,0.0068761,-1.36413,0.585862,0.100706,169.745,0.159028,
2,1,0,1,0,58331.8,0.16267,0.162232,43.7921,30,0.00623839,10,0.00710448,-1.3586,0.607973,0.0970438,165.607,0.1622318,
2,1,0,1,0,58331.8,0.165866,0.165453,44.2914,30,0.00641462,10,0.00732816,-1.35368,0.639856,0.0922083,159.243,0.165453,
2,1,0,1,0,58331.8,0.169062,0.168635,44.7968,30,0.00659283,10,0.00755428,-1.34875,0.677044,0.0871435,152.234,0.168635,
2,1,0,1,0,58331.9,0.172266,0.171853,45.2805,30,0.00677305,10,0.00778158,-1.34409,0.702349,0.0840039,148.298,0.171853,
2,1,0,1,0,58331.9,0.175462,0.175071,45.7467,30,0.00695516,10,0.00800894,-1.33964,0.74863,0.0788107,140.539,0.175071,
2,1,0,1,0,58331.9,0.178667,0.178267,46.1917,30,0.00713908,10,0.00823446,-1.33544,0.79796,0.0739386,133.101,0.178267,
2,1,0,1,0,58331.9,0.181863,0.181472,46.6009,30,0.00732473,10,0.00845675,-1.33161,0.862236,0.0684267,124.278,0.181472,
2,1,0,1,0,58331.9,0.185059,0.184639,46.9823,30,0.00751195,10,0.00867478,-1.32807,0.951942,0.0619786,113.475,0.184639,
2,1,0,1,0,58331.9,0.188266,0.187875,47.3379,30,0.00770065,10,0.00889359,-1.32479,1.06561,0.0553676,102.1,0.187875,
2,1,0,1,0,58331.9,0.191463,0.19105,47.6423,30,0.00789066,10,0.00910207,-1.32201,1.23985,0.0475865,88.2963,0.19105,
2,1,0,1,0,58331.9,0.194664,0.194257,47.9063,30,0.00808178,10,0.00930614,-1.31961,1.50942,0.0390879,72.9236,0.194257,
2,1,0,1,0,58331.9,0.197866,0.197411,48.11,30,0.00827386,10,0.00949744,-1.31776,1.92235,0.0306915,57.5061,0.197411,
2,1,0,1,0,58331.9,0.201062,0.200694,48.2727,30,0.00846666,10,0.00968804,-1.3163,2.63256,0.0224117,42.1376,0.200694,
2,1,0,1,0,58331.9,0.204269,0.203873,48.3796,30,0.00866,10,0.00986329,-1.31534,4.17238,0.0141406,26.6447,0.203873,
2,1,0,1,0,58331.9,0.207465,0.207088,48.4469,30,0.00885366,10,0.0100328,-1.31473,10.6744,0.00552726,10.4274,0.207088,
2,1,0,1,0,58331.9,0.210662,0.21028,48.4529,30,0.00904748,10,0.0101887,-1.31468,-20.0413,-0.00294391,-5.55433,0.21028,
2,1,0,1,0,58331.9,0.213866,0.213507,48.4063,30,0.00924122,10,0.0103351,-1.3151,-5.26837,-0.0111989,-21.1148,0.213507,
2,1,0,1,0,58331.9,0.217062,0.216691,48.3084,30,0.00943467,10,0.010468,-1.31598,-2.98175,-0.019787,-37.2314,0.216691,
2,1,0,1,0,58331.9,0.220267,0.219934,48.1757,30,0.00962763,10,0.0105955,-1.31717,-2.10339,-0.0280499,-52.621,0.219934,
2,1,0,1,0,58331.9,0.223463,0.223142,47.974,30,0.00981993,10,0.010705,-1.31899,-1.6334,-0.0361209,-67.4889,0.223142,
2,1,0,1,0,58331.9,0.226659,0.226302,47.7331,30,0.0100114,10,0.0108021,-1.32118,-1.30884,-0.0450782,-83.8117,0.226302,
2,1,0,1,0,58331.9,0.229866,0.229494,47.4443,30,0.0102017,10,0.0108882,-1.32382,-1.12398,-0.0524921,-97.0096,0.229494,
2,1,0,1,0,58331.9,0.233062,0.232662,47.1089,30,0.0103908,10,0.0109605,-1.3269,-0.981359,-0.0601207,-110.331,0.232662,
2,1,0,1,0,58331.9,0.236264,0.23587,46.7393,30,0.0105785,10,0.0110244,-1.33032,-0.864522,-0.0682458,-124.237,0.23587,
2,1,0,1,0,58331.9,0.239466,0.239113,46.3195,30,0.0107646,10,0.0110756,-1.33424,-0.789014,-0.0747769,-134.934,0.239113,
2,1,0,1,0,58331.9,0.242662,0.242282,45.8557,30,0.0109489,10,0.01111,-1.33861,-0.711523,-0.0829207,-148.17,0.242282,
2,1,0,1,0,58331.9,0.245869,0.245506,45.3759,30,0.0111313,10,0.01114,-1.34317,-0.656836,-0.0898246,-158.8,0.245506,
2,1,0,1,0,58331.9,0.249065,0.24865,44.8457,30,0.0113117,10,0.0111509,-1.34828,-0.618519,-0.0953892,-166.716,0.24865,
2,1,0,1,0,58332,0.252261,0.251866,44.2944,30,0.0114899,10,0.0111563,-1.35365,-0.58315,-0.101175,-174.721,0.251866,
2,1,0,1,0,58332,0.255466,0.255048,43.7273,30,0.0116659,10,0.0111526,-1.35925,-0.562412,-0.104905,-178.842,0.255048,
2,1,0,1,0,58332,0.258662,0.25829,43.1422,30,0.0118396,10,0.0111432,-1.3651,-0.540775,-0.109103,-183.533,0.25829,
2,1,0,1,0,58332,0.261866,0.261543,42.5398,30,0.0120109,10,0.011126,-1.3712,-0.520361,-0.113383,-188.097,0.261543,
2,1,0,1,0,58332,0.265063,0.264722,41.9349,30,0.0121798,10,0.0111011,-1.37742,-0.510406,-0.115594,-189.104,0.264722,
2,1,0,1,0,58332,0.268259,0.267891,41.3117,30,0.0123462,10,0.011067,-1.38393,-0.496387,-0.118859,-191.599,0.267891,
2,1,0,1,0,58332,0.271466,0.271113,40.7172,30,0.0125102,10,0.011039,-1.39022,-0.492086,-0.119898,-190.457,0.271113,
2,1,0,1,0,58332,0.274662,0.274311,40.0934,30,0.0126718,10,0.0109981,-1.39693,-0.489189,-0.120608,-188.7,0.274311,
2,1,0,1,0,58332,0.277869,0.277534,39.4948,30,0.0128309,10,0.0109611,-1.40346,-0.483407,-0.12205,-188.146,0.277534,
2,1,0,1,0,58332,0.281065,0.280714,38.8919,30,0.0129876,10,0.0109175,-1.41014,-0.484736,-0.121716,-184.786,0.280714,
2,1,0,1,0,58332,0.284262,0.283926,38.3065,30,0.0131419,10,0.0108762,-1.41673,-0.483698,-0.121977,-182.416,0.283926,
2,1,0,1,0,58332,0.287469,0.28709,37.732,30,0.013294,10,0.0108325,-1.42329,-0.487072,-0.121132,-178.412,0.28709,
2,1,0,1,0,58332,0.290665,0.290289,37.1681,30,0.0134437,10,0.0107895,-1.42983,-0.493489,-0.119557,-173.507,0.2902886,
2,1,0,1,0,58332,0.293861,0.2935,36.6108,30,0.0135912,10,0.0107453,-1.43639,-0.49927,-0.118173,-169.234,0.2935,
2,1,0,1,0,58332,0.297066,0.296717,36.0873,30,0.0137365,10,0.0107077,-1.44265,-0.496982,-0.118716,-168.538,0.296717,
2,1,0,1,0,58332,0.299638,0.299231,35.6774,30,0.0138514,10,0.0106758,-1.44761,-0.14218,-0.414967,-568.507,0.299231,
2,1,0,1,0,58332,0.300012,0.299613,35.5966,30,0.0138692,10,0.0106652,-1.44859,0.0126155,4.6768,5926.63,0.299613,
2,1,0,1,0,58332,0.298983,0.298726,33.6394,30,0.0139134,10,0.010049,-1.47315,0.0478422,1.23322,1460.49,0.298726,
2,1,0,1,0,58332,0.295786,0.295539,29.1048,30,0.014038,10,0.0086016,-1.53604,0.0530118,1.11296,1240.65,0.295539,
2,1,0,1,0,58332,0.292579,0.292313,25.5734,30,0.0141468,10,0.00747544,-1.59221,0.0559463,1.05458,1075.16,0.292313,
2,1,0,1,0,58332,0.289383,0.289075,22.5234,30,0.0142426,10,0.00651098,-1.64737,0.0573505,1.02876,912.625,0.289075,
2,1,0,1,0,58332,0.286187,0.285873,19.8202,30,0.014327,10,0.00566605,-1.70289,0.0563377,1.04726,813.046,0.285873,
2,1,0,1,0,58332,0.282983,0.282673,17.3631,30,0.014401,10,0.00490808,-1.76037,0.0540766,1.09104,739.185,0.282673,
2,1,0,1,0,58332,0.279786,0.27946,15.1232,30,0.0144657,10,0.00422632,-1.82036,0.051374,1.14844,675.7,0.27946,
2,1,0,1,0,58332,0.276582,0.276264,13.0531,30,0.0145218,10,0.00360611,-1.88428,0.0477881,1.23462,624.838,0.276264,
2,1,0,1,0,58332,0.273386,0.273052,11.1567,30,0.01457,10,0.00304637,-1.95246,0.0439683,1.34188,577.254,0.273052,
2,1,0,1,0,58332,0.27019,0.269905,9.38561,30,0.0146109,10,0.00253323,-2.02754,0.0396211,1.48911,535.309,0.269905,
2,1,0,1,0,58332.1,0.266982,0.26667,7.74041,30,0.0146449,10,0.00206414,-2.11124,0.0346131,1.70456,500.089,0.26667,
2,1,0,1,0,58332.1,0.263786,0.263478,6.20905,30,0.0146726,10,0.00163595,-2.20697,0.0291755,2.02225,466.043,0.263478,
2,1,0,1,0,58332.1,0.260585,0.260283,4.77144,30,0.0146944,10,0.00124193,-2.32135,0.0230848,2.5558,435.994,0.260283,
2,1,0,1,0,58332.1,0.257383,0.257093,3.41426,30,0.0147106,10,0.00087778,-2.4667,0.0157982,3.7346,410.5,0.2570926,
2,1,0,1,0,58332.1,0.254187,0.253868,2.15866,30,0.0147216,10,0.000548015,-2.66582,0.00852735,6.91892,382.562,0.253868,
2,1,0,1,0,58332.1,0.25098,0.250703,0.964581,30,0.0147277,10,0.000241823,-3.01566,0.0285751,2.06474,359.627,0.250703,
2,1,0,1,0,58332.1,0.247783,0.247424,-0.148121,30,0.0147292,10,-3.66487e-05,-3.82938,-1.26128,-0.0467779,340.716,0.247424,
2,0,0,1,0,58332.1,0.244587,0.244231,-1.21114,30,0.0147264,10,-0.000295798,-2.9168,-0.0249053,-2.36897,321.361,0.244231,
2,0,0,1,0,58332.1,0.241383,0.241047,-2.20978,30,0.0147194,10,-0.000532661,-2.65565,-0.00893941,-6.59999,304.159,0.241047,
2,0,0,1,0,58332.1,0.238187,0.23787,-3.15945,30,0.0147086,10,-0.000751537,-2.50039,-0.0210388,-2.80434,288.895,0.23787,
2,0,0,1,0,58332.1,0.234982,0.234573,-4.05689,30,0.014694,10,-0.000951636,-2.39181,-0.0310364,-1.90099,273.431,0.234573,
2,0,0,1,0,58332.1,0.231786,0.231458,-4.90108,30,0.014676,10,-0.0011344,-2.30971,-0.0411029,-1.43542,259.131,0.231458,
2,0,0,1,0,58332.1,0.22859,0.22826,-5.70598,30,0.0146547,10,-0.00130245,-2.24367,-0.0508645,-1.15994,248.346,0.22826,
2,0,0,1,0,58332.1,0.225383,0.225026,-6.48763,30,0.0146302,10,-0.00145988,-2.18791,-0.061289,-0.962652,236.519,0.225026,
2,0,0,1,0,58332.1,0.222187,0.221849,-7.2168,30,0.0146027,10,-0.00160104,-2.14166,-0.0723661,-0.815299,224.301,0.221849,
2,0,0,1,0,58332.1,0.218979,0.218642,-7.93234,30,0.0145723,10,-0.00173434,-2.1006,-0.0834366,-0.707124,214.641,0.218642,
2,0,0,1,0,58332.1,0.215783,0.215408,-8.58872,30,0.0145392,10,-0.00185008,-2.06607,-0.0948184,-0.622242,205.626,0.215408,
2,0,0,1,0,58332.1,0.212587,0.212256,-9.22847,30,0.0145035,10,-0.0019588,-2.03487,-0.106949,-0.551667,196.669,0.212256,
2,0,0,1,0,58332.1,0.20938,0.209019,-9.85496,30,0.0144653,10,-0.00205987,-2.00635,-0.118531,-0.497758,189.437,0.209019,
2,0,0,1,0,58332.1,0.206184,0.205826,-10.4529,30,0.0144246,10,-0.00215147,-1.98076,-0.130903,-0.450714,182.147,0.205826,
2,0,0,1,0,58332.1,0.202988,0.202598,-11.0154,30,0.0143816,10,-0.00223169,-1.958,-0.143915,-0.409965,174.948,0.2025983,
2,0,0,1,0,58332.1,0.199783,0.199401,-11.57,30,0.0143364,10,-0.00230708,-1.93667,-0.157304,-0.375069,168.328,0.199401,
2,0,0,1,0,58332.1,0.196587,0.196243,-12.09,30,0.014289,10,-0.00237259,-1.91757,-0.169319,-0.348455,163.596,0.196243,
2,0,0,1,0,58332.1,0.193382,0.192988,-12.6139,30,0.0142395,10,-0.00243433,-1.89915,-0.18251,-0.32327,158.359,0.192988,
2,0,0,1,0,58332.1,0.190186,0.189826,-13.1049,30,0.014188,10,-0.00248765,-1.88257,-0.195495,-0.301798,153.692,0.189826,
2,0,0,1,0,58332.2,0.18699,0.186657,-13.5881,30,0.0141346,10,-0.00253633,-1.86684,-0.208971,-0.282336,149.228,0.186657,
2,0,0,1,0,58332.2,0.183783,0.183445,-14.057,30,0.0140792,10,-0.00257869,-1.85211,-0.221646,-0.26619,145.629,0.183445,
2,0,0,1,0,58332.2,0.180587,0.180234,-14.5171,30,0.014022,10,-0.00261648,-1.83812,-0.233835,-0.252314,142.624,0.180234,
2,0,0,1,0,58332.2,0.17738,0.176998,-14.973,30,0.013963,10,-0.00265019,-1.82469,-0.245748,-0.240083,139.918,0.176998,
2,0,0,1,0,58332.2,0.174183,0.173825,-15.4183,30,0.0139021,10,-0.00268009,-1.81196,-0.255368,-0.231039,138.751,0.173825,
2,0,0,1,0,58332.2,0.170987,0.170668,-15.8447,30,0.0138396,10,-0.00270419,-1.80012,-0.268872,-0.219435,135.526,0.170668,
2,0,0,1,0,58332.2,0.16778,0.167432,-16.2934,30,0.0137753,10,-0.00272804,-1.78799,-0.276962,-0.213026,135.265,0.167432,
2,0,0,1,0,58332.2,0.164584,0.164186,-16.7093,30,0.0137092,10,-0.00274344,-1.77704,-0.284773,-0.207183,135.003,0.164186,
2,0,0,1,0,58332.2,0.161382,0.161004,-17.1526,30,0.0136415,10,-0.00276163,-1.76567,-0.290742,-0.202929,135.805,0.161004,
2,0,0,1,0,58332.2,0.158183,0.157827,-17.5784,30,0.0135719,10,-0.00277434,-1.75502,-0.292137,-0.20196,138.546,0.157827,
2,0,0,1,0,58332.2,0.154987,0.154635,-18.0313,30,0.0135007,10,-0.00278827,-1.74397,-0.296207,-0.199185,140.172,0.154635,
2,0,0,1,0,58332.2,0.151783,0.151436,-18.4758,30,0.0134276,10,-0.0027979,-1.7334,-0.29536,-0.199756,144.107,0.151436,
2,0,0,1,0,58332.2,0.148587,0.148247,-18.9407,30,0.0133527,10,-0.00280791,-1.7226,-0.29301,-0.201358,149.063,0.148247,
2,0,0,1,0,58332.2,0.145385,0.14503,-19.4225,30,0.013276,10,-0.00281684,-1.71169,-0.289409,-0.203863,154.734,0.14503,
2,0,0,1,0,58332.2,0.142183,0.141844,-19.9379,30,0.0131972,10,-0.00282808,-1.70032,-0.282036,-0.209193,163.018,0.141844,
2,0,0,1,0,58332.2,0.138987,0.138649,-20.4543,30,0.0131163,10,-0.00283598,-1.68921,-0.274301,-0.215092,172.113,0.138649,
2,0,0,1,0,58332.2,0.13578,0.135426,-21.0308,30,0.0130333,10,-0.00284812,-1.67714,-0.268241,-0.219951,180.952,0.135426,
2,0,0,1,0,58332.2,0.132584,0.132241,-21.6236,30,0.012948,10,-0.00285953,-1.66507,-0.25602,-0.23045,194.991,0.132241,
2,0,0,1,0,58332.2,0.129388,0.128983,-22.2653,30,0.0128602,10,-0.00287184,-1.65237,-0.247292,-0.238584,207.903,0.128983,
2,0,0,1,0,58332.2,0.12618,0.125824,-22.9552,30,0.0127696,10,-0.00288831,-1.63912,-0.239936,-0.245899,220.792,0.125824,
2,0,0,1,0,58332.2,0.122984,0.122692,-23.6781,30,0.0126763,10,-0.00290513,-1.62565,-0.232626,-0.253626,234.906,0.122692,
2,0,0,1,0,58332.2,0.119782,0.119447,-24.4486,30,0.01258,10,-0.0029203,-1.61175,-0.227706,-0.259106,247.715,0.119447,
2,0,0,1,0,58332.2,0.116584,0.116225,-25.2622,30,0.0124805,10,-0.00293609,-1.59753,-0.224896,-0.262343,259.08,0.116225,
2,0,0,1,0,58332.2,0.113387,0.113104,-26.106,30,0.0123777,10,-0.0029527,-1.58326,-0.222661,-0.264977,270.296,0.113104,
2,0,0,1,0,58332.2,0.110183,0.109855,-27.004,30,0.0122714,10,-0.00296653,-1.56857,-0.223517,-0.263962,278.185,0.109855,
2,0,0,1,0,58332.3,0.106987,0.106667,-27.903,30,0.0121615,10,-0.00297631,-1.55435,-0.22642,-0.260578,283.564,0.106667,
2,0,0,1,0,58332.3,0.103785,0.103421,-28.8241,30,0.012048,10,-0.00298101,-1.54024,-0.231883,-0.254439,285.997,0.1034206,
2,0,0,1,0,58332.3,0.100583,0.100288,-29.7402,30,0.0119307,10,-0.00298259,-1.52666,-0.236768,-0.249189,288.956,0.100288,
2,0,0,1,0,58332.3,0.0973873,0.0970126,-30.6769,30,0.0118098,10,-0.00297605,-1.51319,-0.244329,-0.241478,288.639,0.0970126,
2,0,0,1,0,58332.3,0.0941801,0.093877,-31.5986,30,0.0116851,10,-0.00296638,-1.50033,-0.255269,-0.231129,284.436,0.09387695,
2,0,0,1,0,58332.3,0.0909839,0.0906681,-32.505,30,0.0115568,10,-0.00294717,-1.48805,-0.265284,-0.222403,281.612,0.0906681,
2,0,0,1,0,58332.3,0.0877878,0.0874329,-33.3967,30,0.0114249,10,-0.00291997,-1.4763,-0.279877,-0.210807,274.1,0.0874329,
2,0,0,1,0,58332.3,0.0845806,0.0842198,-34.2795,30,0.0112895,10,-0.00288702,-1.46497,-0.294995,-0.200003,266.802,0.0842198,
2,0,0,1,0,58332.3,0.0813844,0.0811181,-35.0958,30,0.0111506,10,-0.0028469,-1.45475,-0.307587,-0.191816,262.268,0.0811181,
2,0,0,1,0,58332.3,0.0781828,0.0778903,-35.9142,30,0.0110085,10,-0.00279736,-1.44473,-0.32595,-0.181009,253.39,0.0778903,
2,0,0,1,0,58332.3,0.0749838,0.0747419,-36.7251,30,0.0108632,10,-0.00274491,-1.43504,-0.345493,-0.170771,244.202,0.0747419,
2,0,0,1,0,58332.3,0.0717877,0.0714801,-37.5076,30,0.0107146,10,-0.00268105,-1.42588,-0.363622,-0.162257,236.897,0.0714801,
2,0,0,1,0,58332.3,0.0685832,0.0682766,-38.2317,30,0.010563,10,-0.00261033,-1.41758,-0.392452,-0.150337,223.818,0.0682766,
2,0,0,1,0,58332.3,0.0653871,0.0650837,-38.948,30,0.0104086,10,-0.00253488,-1.40951,-0.420889,-0.140179,212.549,0.0650837,
2,0,0,1,0,58332.3,0.0621854,0.0618696,-39.6062,30,0.0102514,10,-0.00245042,-1.40224,-0.453349,-0.130143,200.629,0.06186964,
2,0,0,1,0,58332.3,0.0589837,0.0586831,-40.2276,30,0.0100916,10,-0.00236068,-1.39548,-0.491018,-0.120159,188.223,0.0586831,
2,0,0,1,0,58332.3,0.0557876,0.0554817,-40.7987,30,0.00992948,10,-0.00226358,-1.38935,-0.531028,-0.111105,176.585,0.0554817,
2,0,0,1,0,58332.3,0.0525804,0.0523143,-41.3515,30,0.00976512,10,-0.00216328,-1.38351,-0.570475,-0.103423,166.622,0.0523143,
2,0,0,1,0,58332.3,0.0493842,0.0490864,-41.8635,30,0.00959862,10,-0.00205493,-1.37816,-0.610482,-0.096645,157.659,0.04908644,
2,0,0,1,0,58332.3,0.0461881,0.0459254,-42.3534,30,0.00943013,10,-0.00194509,-1.37311,-0.656348,-0.0898913,148.376,0.0459254,
2,0,0,1,0,58332.3,0.0429808,0.0426773,-42.8175,30,0.00925972,10,-0.00182733,-1.36838,-0.705459,-0.0836334,139.541,0.0426773,
2,0,0,1,0,58332.3,0.0397847,0.0395099,-43.2514,30,0.00908755,10,-0.00170886,-1.364,-0.757084,-0.0779306,131.367,0.0395099,
2,0,0,1,0,58332.3,0.036583,0.0362619,-43.6531,30,0.00891369,10,-0.00158294,-1.35999,-0.829186,-0.0711541,121.048,0.0362619,
2,0,0,1,0,58332.3,0.0333841,0.0330552,-44.0441,30,0.00873825,10,-0.00145589,-1.35611,-0.896517,-0.0658102,112.942,0.0330552,
2,0,0,1,0,58332.3,0.030188,0.0298263,-44.373,30,0.00856137,10,-0.00132348,-1.35288,-0.97812,-0.0603198,104.329,0.0298263,
2,0,0,1,0,58332.4,0.0269835,0.0266398,-44.7049,30,0.00838316,10,-0.00119093,-1.34964,-1.08422,-0.0544168,94.8226,0.0266398,
2,0,0,1,0,58332.4,0.0237874,0.0234479,-44.9899,30,0.00820373,10,-0.00105492,-1.34688,-1.17625,-0.0501593,87.9595,0.0234479,
2,0,0,1,0,58332.4,0.0205857,0.0202296,-45.2602,30,0.0080232,10,-0.000915596,-1.34428,-1.30297,-0.0452813,79.9023,0.0202296,
2,0,0,1,0,58332.4,0.017384,0.0170367,-45.498,30,0.00784163,10,-0.000775136,-1.34201,-1.4281,-0.0413137,73.2929,0.01703671,
2,0,0,1,0,58332.4,0.0141878,0.0138385,-45.7278,30,0.00765914,10,-0.000632805,-1.33982,-1.59748,-0.0369332,65.8403,0.0138385,
2,0,0,1,0,58332.4,0.0109806,0.0106499,-45.9279,30,0.00747579,10,-0.000489127,-1.33792,-1.82802,-0.0322754,57.7748,0.0106499,
2,0,0,1,0,58332.4,0.00778448,0.00748775,-46.0992,30,0.00729172,10,-0.000345179,-1.33631,-1.96163,-0.030077,54.0829,0.00748775,
2,0,0,1,0,58332.4,0.00458834,0.00422064,-46.2385,30,0.00710702,10,-0.000195156,-1.335,-2.32508,-0.0253754,45.7736,0.00422064,
2,0,0,1,0,58332.4,0.0013811,0.000977916,-46.4233,30,0.00692169,10,-4.53981e-05,-1.33326,-2.74054,-0.0215286,38.9432,0.000977916,
2,0,0,1,0,58332.4,-0.00181504,-0.00217467,-46.515,30,0.0067358,10,0.000101155,-1.33241,-3.29745,-0.0178926,32.433,-0.00217467,
2,0,0,1,0,58332.4,-0.0050195,-0.00543118,-46.6023,30,0.00654955,10,0.000253105,-1.33159,-5.02205,-0.0117482,21.3474,-0.00543118,
2,0,0,1,0,58332.4,-0.00821564,-0.0086071,-46.6545,30,0.00636303,10,0.00040156,-1.33111,-6.78687,-0.00869325,15.8155,-0.0086071,
2,0,0,1,0,58332.4,-0.0114118,-0.011817,-46.6965,30,0.00617633,10,0.00055181,-1.33072,-12.6216,-0.00467454,8.51167,-0.011817,
2,0,0,1,0,58332.4,-0.0146162,-0.0149833,-46.7175,30,0.00598948,10,0.000699984,-1.33052,-41.9348,-0.00140695,2.56264,-0.01498333,
2,0,0,1,0,58332.4,-0.0178124,-0.0181762,-46.7107,30,0.00580261,10,0.000849025,-1.33058,26.6076,0.00221741,-4.03881,-0.0181762,
2,0,0,1,0,58332.4,-0.0210196,-0.0214009,-46.6873,30,0.0056158,10,0.00099915,-1.3308,9.50181,0.00620934,-11.3035,-0.0214009,
2,0,0,1,0,58332.4,-0.0242158,-0.0246341,-46.6447,30,0.00542913,10,0.00114905,-1.3312,6.90818,0.0085406,-15.536,-0.0246341,
2,0,0,1,0,58332.4,-0.0274119,-0.0278376,-46.5722,30,0.00524269,10,0.00129646,-1.33187,4.94492,0.0119314,-21.6749,-0.0278376,
2,0,0,1,0,58332.4,-0.0306191,-0.0310199,-46.5112,30,0.00505653,10,0.00144277,-1.33244,4.21112,0.0140105,-25.4157,-0.0310199,
2,0,0,1,0,58332.4,-0.0338153,-0.034234,-46.4091,30,0.00487069,10,0.00158877,-1.3334,3.67827,0.0160402,-29.0379,-0.034234,
2,0,0,1,0,58332.4,-0.037017,-0.0374247,-46.3196,30,0.00468525,10,0.0017335,-1.33424,3.09117,0.0190866,-34.481,-0.0374247,
2,0,0,1,0,58332.4,-0.0402187,-0.0406038,-46.2015,30,0.00450021,10,0.00187596,-1.33534,2.93139,0.020127,-36.272,-0.04060382,
2,0,0,1,0,58332.4,-0.0434148,-0.0438275,-46.0696,30,0.00431568,10,0.00201911,-1.33659,2.72213,0.0216742,-38.9692,-0.0438275,
2,0,0,1,0,58332.4,-0.0466193,-0.0469928,-45.9463,30,0.00413167,10,0.00215915,-1.33775,2.59239,0.0227589,-40.8048,-0.0469928,
2,0,0,1,0,58332.4,-0.0498154,-0.050227,-45.8207,30,0.00394816,10,0.00230144,-1.33894,2.60004,0.022692,-40.5687,-0.050227,
2,0,0,1,0,58332.5,-0.0530115,-0.0533775,-45.6803,30,0.00376517,10,0.0024383,-1.34027,2.44898,0.0240917,-42.9407,-0.0533775,
2,0,0,1,0,58332.5,-0.056216,-0.0566276,-45.5503,30,0.00358273,10,0.00257941,-1.34151,2.51302,0.0234778,-41.7392,-0.0566276,
2,0,0,1,0,58332.5,-0.0594121,-0.0598025,-45.3963,30,0.00340083,10,0.00271481,-1.34298,2.51379,0.0234706,-41.5971,-0.0598025,
2,0,0,1,0,58332.5,-0.0626194,-0.0629975,-45.2877,30,0.00321947,10,0.00285301,-1.34402,2.52987,0.0233213,-41.2172,-0.0629975,
2,0,0,1,0,58332.5,-0.0658155,-0.0662264,-45.1458,30,0.00303861,10,0.00298985,-1.34538,2.71708,0.0217145,-38.2631,-0.0662264,
2,0,0,1,0,58332.5,-0.0690117,-0.0694416,-45.0221,30,0.00285827,10,0.00312641,-1.34657,2.7082,0.0217857,-38.2957,-0.0694416,
2,0,0,1,0,58332.5,-0.0722189,-0.0726037,-44.9065,30,0.00267842,10,0.00326038,-1.34769,2.93205,0.0201224,-35.2766,-0.0726037,
2,0,0,1,0,58332.5,-0.075415,-0.0758221,-44.7966,30,0.00249903,10,0.00339657,-1.34876,3.16096,0.0186652,-32.6437,-0.0758221,
2,0,0,1,0,58332.5,-0.0786167,-0.0789895,-44.6956,30,0.00232006,10,0.00353048,-1.34974,3.31433,0.0178015,-31.06,-0.0789895,
2,0,0,1,0,58332.5,-0.0818184,-0.0822513,-44.604,30,0.00214148,10,0.00366874,-1.35063,3.7506,0.0157308,-27.3942,-0.0822513,
2,0,0,1,0,58332.5,-0.0850146,-0.0853954,-44.5092,30,0.00196326,10,0.00380088,-1.35155,4.08894,0.0144292,-25.0785,-0.0853954,
2,0,0,1,0,58332.5,-0.088219,-0.0885904,-44.4468,30,0.00178536,10,0.00393756,-1.35216,4.82833,0.0122196,-21.2066,-0.0885904,
2,0,0,1,0,58332.5,-0.0914152,-0.0918141,-44.374,30,0.00160772,10,0.00407415,-1.35287,5.80777,0.0101588,-17.6015,-0.0918141,
2,0,0,1,0,58332.5,-0.0946141,-0.0950197,-44.3332,30,0.00143033,10,0.00421253,-1.35327,6.762,0.00872523,-15.102,-0.0950197,
2,0,0,1,0,58332.5,-0.0978158,-0.0982518,-44.2829,30,0.00125309,10,0.00435087,-1.35376,9.45971,0.00623698,-10.7842,-0.0982518,
2,0,0,1,0,58332.5,-0.101012,-0.101405,-44.2533,30,0.00107601,10,0.00448752,-1.35405,12.2883,0.00480131,-8.29721,-0.101405,
2,0,0,1,0,58332.5,-0.104219,-0.104626,-44.2358,30,0.000899046,10,0.00462821,-1.35423,22.6928,0.00259994,-4.49037,-0.104626,
2,0,0,1,0,58332.5,-0.107415,-0.107817,-44.227,30,0.000722117,10,0.00476841,-1.35431,-506.769,-0.000116424,0.201078,-0.107817,
2,0,0,1,0,58332.5,-0.110611,-0.111007,-44.2256,30,0.000545198,10,0.00490937,-1.35433,-38.3242,-0.0015395,2.65879,-0.111007,
2,0,0,1,0,58332.5,-0.113819,-0.11423,-44.2558,30,0.000368227,10,0.00505534,-1.35403,-13.9982,-0.00421482,7.28262,-0.11423,
2,0,0,1,0,58332.5,-0.117015,-0.117426,-44.2698,30,0.000191162,10,0.00519843,-1.35389,-9.2681,-0.00636592,11.005,-0.117426,
2,0,0,1,0,58332.5,-0.120216,-0.120621,-44.3203,30,1.39835e-05,10,0.00534596,-1.3534,-7.39575,-0.00797755,13.806,-0.120621,
2,0,0,1,0,58332.5,-0.123418,-0.123848,-44.3669,30,-0.000163394,10,0.00549475,-1.35294,-5.46314,-0.0107997,18.709,-0.123848,
2,0,0,1,0,58332.5,-0.126614,-0.126996,-44.4321,30,-0.000340992,10,0.00564271,-1.3523,-4.87726,-0.012097,20.987,-0.126996,
2,0,0,1,0,58332.5,-0.129819,-0.130203,-44.5089,30,-0.000518883,10,0.00579518,-1.35155,-4.27476,-0.013802,23.9803,-0.1302029,
2,0,0,1,0,58332.6,-0.133015,-0.133377,-44.588,30,-0.000697081,10,0.005947,-1.35078,-3.69016,-0.0159885,27.8356,-0.1333767,
2,0,0,1,0,58332.6,-0.136214,-0.136591,-44.6725,30,-0.000875609,10,0.00610185,-1.34996,-3.42413,-0.0172307,30.06,-0.136591,
2,0,0,1,0,58332.6,-0.139416,-0.139786,-44.7881,30,-0.00105456,10,0.00626074,-1.34884,-3.05501,-0.0193126,33.7698,-0.139786,
2,0,0,1,0,58332.6,-0.142612,-0.143049,-44.895,30,-0.00123395,10,0.00642217,-1.3478,-2.86887,-0.0205656,36.0401,-0.143049,
2,0,0,1,0,58332.6,-0.145819,-0.146237,-45.0223,30,-0.00141378,10,0.00658394,-1.34657,-2.79474,-0.0211111,37.0958,-0.146237,
2,0,0,1,0,58332.6,-0.149015,-0.149436,-45.1354,30,-0.00159412,10,0.00674483,-1.34548,-2.631,-0.0224249,39.5117,-0.149436,
2,0,0,1,0,58332.6,-0.152211,-0.152567,-45.2622,30,-0.00177493,10,0.00690552,-1.34426,-2.55613,-0.0230818,40.7906,-0.152567,
2,0,0,1,0,58332.6,-0.155418,-0.155836,-45.4003,30,-0.0019563,10,0.007075,-1.34294,-2.47851,-0.0238047,42.182,-0.155836,
2,0,0,1,0,58332.6,-0.158615,-0.159003,-45.543,30,-0.00213821,10,0.00724145,-1.34158,-2.43029,-0.024277,43.1454,-0.159003,
2,0,0,1,0,58332.6,-0.161816,-0.162234,-45.6752,30,-0.00232066,10,0.00741006,-1.34032,-2.48938,-0.0237007,42.2421,-0.162234,
2,0,0,1,0,58332.6,-0.165018,-0.16539,-45.8155,30,-0.00250366,10,0.00757744,-1.33899,-2.47945,-0.0237956,42.5463,-0.16539,
2,0,0,1,0,58332.6,-0.168214,-0.16858,-45.9386,30,-0.00268718,10,0.00774434,-1.33782,-2.50656,-0.0235382,42.2053,-0.16858,
2,0,0,1,0,58332.6,-0.171419,-0.171786,-46.0869,30,-0.00287124,10,0.00791707,-1.33642,-2.59438,-0.0227415,40.894,-0.1717857,
2,0,0,1,0,58332.6,-0.174615,-0.174994,-46.2138,30,-0.00305586,10,0.00808717,-1.33523,-2.64171,-0.022334,40.2654,-0.1749945,
2,0,0,1,0,58332.6,-0.177814,-0.178168,-46.338,30,-0.00324098,10,0.00825597,-1.33406,-2.85619,-0.0206569,37.3466,-0.178168,
2,0,0,1,0,58332.6,-0.181015,-0.181374,-46.4538,30,-0.00342659,10,0.0084255,-1.33298,-2.93285,-0.020117,36.4652,-0.181374,
2,0,0,1,0,58332.6,-0.184211,-0.184604,-46.5656,30,-0.00361264,10,0.00859619,-1.33193,-3.00457,-0.0196368,35.6865,-0.184604,
2,0,0,1,0,58332.6,-0.187419,-0.187777,-46.6799,30,-0.00379916,10,0.0087654,-1.33087,-3.22094,-0.0183176,33.3609,-0.187777,
2,0,0,1,0,58332.6,-0.190615,-0.190975,-46.7951,30,-0.00398612,10,0.00893668,-1.3298,-3.30602,-0.0178462,32.5771,-0.190975,
2,0,0,1,0,58332.6,-0.193811,-0.194142,-46.8797,30,-0.0041735,10,0.00910133,-1.32902,-3.70413,-0.0159281,29.1281,-0.194142,
2,0,0,1,0,58332.6,-0.197018,-0.197405,-46.9826,30,-0.00436125,10,0.00927461,-1.32806,-6.40233,-0.00921539,16.8587,-0.197405,
2,0,0,1,0,58332.6,-0.199647,-0.200012,-47.0363,30,-0.00451639,10,0.00940784,-1.32757,0.251376,0.234708,-419.131,-0.200012,
2,0,0,1,0,58332.6,-0.200134,-0.200551,-46.9565,30,-0.00454461,10,0.00941719,-1.3283,-0.0169953,-3.47155,5866.93,-0.200551,
2,0,0,1,1,58332.6,-0.198935,-0.199456,-44.6526,30,-0.00461261,10,0.00890622,-1.35015,-0.0612757,-0.962862,1553.17,-0.199456,
2,0,0,1,1,58332.6,-0.195739,-0.196185,-39.8217,30,-0.00478061,10,0.00781241,-1.39988,-0.0699367,-0.84362,1301.84,-0.196185,
2,0,0,1,1,58332.6,-0.192535,-0.192977,-36.1094,30,-0.0049319,10,0.00696828,-1.44238,-0.0754283,-0.782199,1127.34,-0.192977,
2,0,0,1,1,58332.7,-0.189339,-0.189792,-32.9503,30,-0.00506958,10,0.00625371,-1.48214,-0.0808353,-0.72988,950.175,-0.189792,
2,0,0,1,1,58332.7,-0.186137,-0.186594,-30.1531,30,-0.00519542,10,0.00562639,-1.52067,-0.0832158,-0.709,841.21,-0.186594,
2,0,0,1,1,58332.7,-0.182935,-0.183357,-27.6331,30,-0.00531067,10,0.00506673,-1.55857,-0.0837967,-0.704085,763.374,-0.183357,
2,0,0,1,1,58332.7,-0.179739,-0.180162,-25.3293,30,-0.00541631,10,0.00456337,-1.59638,-0.0834328,-0.707156,701.14,-0.180162,
2,0,0,1,1,58332.7,-0.176532,-0.176998,-23.183,30,-0.00551308,10,0.00410334,-1.63483,-0.0817198,-0.72198,653.909,-0.176998,
2,0,0,1,1,58332.7,-0.173336,-0.173803,-21.1843,30,-0.00560157,10,0.00368189,-1.67399,-0.0795492,-0.741679,612.718,-0.173803,
2,0,0,1,1,58332.7,-0.17014,-0.170585,-19.2817,30,-0.00568229,10,0.00328918,-1.71485,-0.0771254,-0.764988,574.757,-0.170585,
2,0,0,1,1,58332.7,-0.166932,-0.167367,-17.4896,30,-0.00575562,10,0.00292719,-1.75722,-0.0734308,-0.803477,546.97,-0.167367,
2,0,0,1,1,58332.7,-0.163736,-0.164138,-15.7919,30,-0.005822,10,0.00259205,-1.80157,-0.0694692,-0.849297,520.86,-0.164138,
2,0,0,1,1,58332.7,-0.160532,-0.16098,-14.1708,30,-0.00588176,10,0.00228122,-1.8486,-0.0650293,-0.907283,498.073,-0.16098,
2,0,0,1,1,58332.7,-0.157336,-0.157789,-12.6168,30,-0.00593516,10,0.0019908,-1.89905,-0.0599108,-0.984797,479.73,-0.157789,
2,0,0,1,1,58332.7,-0.154139,-0.154583,-11.1221,30,-0.00598247,10,0.00171929,-1.95381,-0.0547822,-1.07699,460.984,-0.154583,
2,0,0,1,1,58332.7,-0.150935,-0.151378,-9.67058,30,-0.00602388,10,0.00146391,-2.01455,-0.0492967,-1.19683,443.538,-0.151378,
2,0,0,1,1,58332.7,-0.147739,-0.148218,-8.28774,30,-0.00605964,10,0.00122839,-2.08156,-0.0434032,-1.35935,428.451,-0.148218,
2,0,0,1,1,58332.7,-0.144532,-0.144985,-6.93758,30,-0.00608995,10,0.00100585,-2.15879,-0.037214,-1.58543,412.943,-0.144985,
2,0,0,1,1,58332.7,-0.141335,-0.141798,-5.64471,30,-0.00611497,10,0.000800411,-2.24836,-0.0304592,-1.93702,401.067,-0.141798,
2,0,0,1,1,58332.7,-0.138139,-0.138545,-4.37127,30,-0.00613487,10,0.000605618,-2.35939,-0.0232011,-2.54298,390.13,-0.138545,
2,0,0,1,1,58332.7,-0.134932,-0.135388,-3.1421,30,-0.00614975,10,0.000425404,-2.50278,-0.0150557,-3.91877,378.383,-0.135388,
2,0,0,1,1,58332.7,-0.131736,-0.132204,-1.95131,30,-0.0061598,10,0.00025797,-2.70967,-0.0115498,-5.10833,370.662,-0.132204,
2,0,0,1,1,58332.7,-0.12854,-0.128981,-0.79493,30,-0.00616516,10,0.000102531,-3.09967,-0.0381504,-1.54651,359.359,-0.128981,
2,1,0,1,1,58332.7,-0.125333,-0.125819,0.345758,30,-0.00616593,10,-4.35029e-05,-3.46123,0.110471,0.534075,352.07,-0.125819,
2,1,0,1,1,58332.7,-0.122136,-0.122603,1.45242,30,-0.00616221,10,-0.000178071,-2.83791,0.0194794,3.02884,343.885,-0.122603,
2,1,0,1,1,58332.7,-0.118932,-0.119428,2.54668,30,-0.0061541,10,-0.000304145,-2.59403,0.0113203,5.21189,335.809,-0.119428,
2,1,0,1,1,58332.7,-0.115736,-0.116213,3.59592,30,-0.00614169,10,-0.000417892,-2.44419,0.021657,2.72429,328.289,-0.116213,
2,1,0,1,1,58332.7,-0.11254,-0.113065,4.62887,30,-0.00612514,10,-0.000523361,-2.33453,0.0307144,1.92092,320.139,-0.113065,
2,1,0,1,1,58332.8,-0.109335,-0.109838,5.64309,30,-0.00610447,10,-0.000619825,-2.24848,0.0391764,1.50601,315.192,-0.109838,
2,1,0,1,1,58332.8,-0.106139,-0.10665,6.63738,30,-0.0060798,10,-0.000707878,-2.178,0.0479135,1.23139,307.817,-0.1066502,
2,1,0,1,1,58332.8,-0.102932,-0.103412,7.63076,30,-0.00605116,10,-0.00078911,-2.11743,0.05661,1.04222,301.543,-0.103412,
2,1,0,1,1,58332.8,-0.0997357,-0.100207,8.58661,30,-0.00601862,10,-0.00086044,-2.06618,0.0650527,0.906957,297.361,-0.100207,
2,1,0,1,1,58332.8,-0.0965395,-0.0969793,9.52048,30,-0.0059823,10,-0.00092329,-2.02134,0.0741198,0.796009,291.139,-0.0969793,
2,1,0,1,1,58332.8,-0.0933323,-0.0938203,10.4525,30,-0.00594225,10,-0.000980655,-1.98078,0.0827089,0.713345,287.153,-0.0938203,
2,1,0,1,1,58332.8,-0.0901362,-0.0906052,11.3593,30,-0.00589852,10,-0.00102921,-1.94465,0.0915039,0.644781,282.574,-0.0906052,
2,1,0,1,1,58332.8,-0.0869345,-0.0874144,12.2601,30,-0.00585119,10,-0.00107171,-1.91151,0.10145,0.581569,275.423,-0.0874144,
2,1,0,1,1,58332.8,-0.0837328,-0.0842003,13.1315,30,-0.00580032,10,-0.00110568,-1.88169,0.110789,0.532543,270.59,-0.0842003,
2,1,0,1,1,58332.8,-0.0805366,-0.0809809,13.9887,30,-0.005746,10,-0.00113282,-1.85422,0.12112,0.48712,264.045,-0.0809809,
2,1,0,1,1,58332.8,-0.0773322,-0.0777637,14.834,30,-0.00568827,10,-0.00115355,-1.82874,0.131085,0.450088,258.846,-0.0777637,
2,1,0,1,1,58332.8,-0.074136,-0.0745506,15.6567,30,-0.00562721,10,-0.00116722,-1.8053,0.140909,0.418711,254.389,-0.0745506,
2,1,0,1,1,58332.8,-0.0709371,-0.0713174,16.4662,30,-0.00556286,10,-0.00117432,-1.78341,0.15087,0.391065,249.954,-0.0713174,
2,1,0,1,1,58332.8,-0.0677354,-0.0681182,17.2609,30,-0.00549532,10,-0.00117578,-1.76294,0.160782,0.366957,246.013,-0.0681182,
2,1,0,1,1,58332.8,-0.0645393,-0.0649995,18.0245,30,-0.00542465,10,-0.00117158,-1.74414,0.171558,0.343906,241.044,-0.0649995,
2,1,0,1,1,58332.8,-0.061332,-0.0617929,18.7953,30,-0.00535093,10,-0.00116141,-1.72595,0.182791,0.322773,235.927,-0.0617929,
2,1,0,1,1,58332.8,-0.0581359,-0.0585639,19.5403,30,-0.00527417,10,-0.00114436,-1.70907,0.193968,0.304173,231.158,-0.0585639,
2,1,0,1,1,58332.8,-0.0549398,-0.0553286,20.2783,30,-0.00519445,10,-0.00112197,-1.69297,0.206454,0.285779,225.408,-0.0553286,
2,1,0,1,1,58332.8,-0.0517325,-0.0521432,20.9963,30,-0.0051118,10,-0.00109482,-1.67786,0.217157,0.271693,221.906,-0.0521432,
2,1,0,1,1,58332.8,-0.0485364,-0.0489291,21.6949,30,-0.00502636,10,-0.00106151,-1.66364,0.227904,0.25888,218.655,-0.0489291,
2,1,0,1,1,58332.8,-0.0453347,-0.045768,22.3798,30,-0.00493813,10,-0.00102428,-1.65014,0.241433,0.244374,212.941,-0.045768,
2,1,0,1,1,58332.8,-0.042133,-0.0425815,23.0655,30,-0.00484718,10,-0.000982164,-1.63704,0.254036,0.23225,208.511,-0.0425815,
2,1,0,1,1,58332.8,-0.0389369,-0.0393812,23.7139,30,-0.00475354,10,-0.000933881,-1.625,0.267298,0.220727,203.799,-0.0393812,
2,1,0,1,1,58332.8,-0.0357324,-0.0361215,24.3654,30,-0.00465732,10,-0.000880114,-1.61323,0.283355,0.208219,197.536,-0.0361215,
2,1,0,1,1,58332.8,-0.0325363,-0.032988,24.9844,30,-0.00455855,10,-0.000824184,-1.60233,0.29617,0.19921,193.841,-0.032988,
2,1,0,1,1,58332.9,-0.0293374,-0.0297728,25.5957,30,-0.00445733,10,-0.000762056,-1.59183,0.311436,0.189445,188.918,-0.0297728,
2,1,0,1,1,58332.9,-0.0261357,-0.0265927,26.1928,30,-0.00435366,10,-0.000696537,-1.58182,0.32607,0.180943,184.666,-0.0265927,
2,1,0,1,1,58332.9,-0.0229395,-0.0233574,26.7768,30,-0.00424765,10,-0.000625435,-1.57224,0.341852,0.172589,180.044,-0.0233574,
2,1,0,1,1,58332.9,-0.0197323,-0.0201634,27.3526,30,-0.00413933,10,-0.000551522,-1.563,0.361055,0.16341,174.063,-0.0201634,
2,1,0,1,1,58332.9,-0.0165361,-0.0169864,27.8978,30,-0.00402878,10,-0.000473884,-1.55443,0.374655,0.157478,171.2,-0.0169864,
2,1,0,1,1,58332.9,-0.01334,-0.013767,28.4253,30,-0.00391607,10,-0.000391332,-1.5463,0.39637,0.148851,164.948,-0.013767,
2,1,0,1,1,58332.9,-0.0101328,-0.0105826,28.9638,30,-0.00380122,10,-0.000306513,-1.53814,0.413704,0.142614,160.948,-0.0105826,
2,1,0,1,1,58332.9,-0.00693663,-0.00737385,29.4622,30,-0.00368431,10,-0.00021725,-1.53073,0.431007,0.136889,157.077,-0.00737385,
2,1,0,1,1,58332.9,-0.00373494,-0.00416294,29.9617,30,-0.00356541,10,-0.000124729,-1.52343, , , ,-0.00416294,
2,1,0,1,1,58332.9,-0.000774628,-0.00118584,30.4015,30,-0.00345372,10,-3.60515e-05,-1.5171, , , ,-0.001185844,
2,1,0,0,1,58332.9,-0.000125413,-0.000478022,30.5058,30,-0.00342937,10,-1.45825e-05,-1.51562, , , ,-0.000478022,