File: Figure_codes/Fig_3-5/rawdata_trumpetplot_data/after 10th/20221101_1-115_003_TrumpetPlot_ParaChange_from10_every3_06_CV_C01_6.csv
mode,ox/red,error,control changes,counter inc.,time/s,control/V,Ewe/V,<I>/mA,cycle number,(Q-Qo)/C,I Range,P/W,log(|I|),Tafel slope mV/dec,alpha_eff,dI/d(E-IR),E-IR/V,
2,0,0,0,0,12970.8,2.44065e-05,-0.000363498,-1.4217,7,0.0000000E+000,10,5.16787e-07,-2.84719, , , ,-0.000363498,
2,0,0,1,0,12970.8,0.00129787,0.000911773,-0.103618,7,-1.97325e-05,10,-9.44763e-08,-3.98456, , , ,0.000911773,
2,1,0,1,0,12970.9,0.00279427,0.00246875,0.624065,7,-7.9562e-06,10,1.54066e-06,-3.20477,0.0121717,4.84732,384.247,0.00246875,
2,1,0,1,0,12970.9,0.00429425,0.00400649,0.967748,7,2.30983e-05,10,3.87728e-06,-3.01424,0.00900294,6.55342,195.306,0.00400649,
2,1,0,1,0,12970.9,0.00579422,0.00548745,1.165,7,6.40929e-05,10,6.39287e-06,-2.93367,0.0211736,2.78649,118.795,0.00548745,
2,1,0,1,0,12971,0.00729063,0.00698461,1.30545,7,0.000111141,10,9.11803e-06,-2.88424,0.0365761,1.61308,79.7957,0.00698461,
2,1,0,1,0,12971,0.00878703,0.00844001,1.40278,7,0.000162578,10,1.18395e-05,-2.85301,0.0537254,1.09818,59.3204,0.00844001,
2,1,0,1,0,12971.1,0.010287,0.00998367,1.4814,7,0.000217415,10,1.47898e-05,-2.82933,0.0749547,0.787142,45.0101,0.009983669,
2,1,0,1,0,12971.1,0.011787,0.0115047,1.54877,7,0.000274823,10,1.78182e-05,-2.81001,0.0877409,0.672434,40.2422,0.0115047,
2,1,0,1,0,12971.1,0.0132825,0.0129322,1.60231,7,0.000334165,10,2.07214e-05,-2.79525,0.103067,0.572442,35.6641,0.0129322,
2,1,0,1,0,12971.2,0.014778,0.0144477,1.65054,7,0.000395526,10,2.38466e-05,-2.78237,0.115748,0.509729,32.6698,0.0144477,
2,1,0,1,0,12971.2,0.0162816,0.0159955,1.6958,7,0.000459123,10,2.71252e-05,-2.77062,0.131372,0.449108,29.6486,0.0159955,
2,1,0,1,0,12971.2,0.017778,0.0174586,1.73563,7,0.000523995,10,3.03017e-05,-2.76054,0.148118,0.398332,27.0335,0.0174586,
2,1,0,1,0,12971.3,0.0192744,0.0189658,1.77348,7,0.00059032,10,3.36355e-05,-2.75117,0.155767,0.37877,26.317,0.01896582,
2,1,0,1,0,12971.3,0.0207743,0.0205043,1.81905,7,0.000658319,10,3.72984e-05,-2.74016,0.158125,0.373122,26.4486,0.0205043,
2,1,0,1,0,12971.4,0.0222743,0.0219699,1.86344,7,0.000727891,10,4.09394e-05,-2.72969,0.160635,0.367293,26.58,0.0219699,
2,1,0,1,0,12971.4,0.0237707,0.0234743,1.90014,7,0.000798737,10,4.46045e-05,-2.72121,0.175869,0.335478,24.7526,0.0234743,
2,1,0,1,0,12971.4,0.0252671,0.0249628,1.93389,7,0.000870905,10,4.82753e-05,-2.71357,0.172219,0.342587,25.8513,0.0249628,
2,1,0,1,0,12971.5,0.0267671,0.0264852,1.974,7,0.000944656,10,5.22816e-05,-2.70465,0.171449,0.344126,26.4601,0.0264852,
2,1,0,1,0,12971.5,0.0282671,0.0279381,2.00996,7,0.00101994,10,5.61542e-05,-2.69681,0.175772,0.335662,26.3467,0.0279381,
2,1,0,1,0,12971.5,0.0297626,0.0294618,2.04475,7,0.0010964,10,6.0242e-05,-2.68936,0.190805,0.309217,24.7241,0.0294618,
2,1,0,1,0,12971.6,0.0312581,0.0309172,2.07577,7,0.00117421,10,6.41771e-05,-2.68282,0.1943,0.303654,24.697,0.0309172,
2,1,0,1,0,12971.6,0.0327616,0.0324364,2.12048,7,0.00125376,10,6.87808e-05,-2.67356,0.188117,0.313635,25.9499,0.0324364,
2,1,0,1,0,12971.7,0.034258,0.0339482,2.16045,7,0.00133437,10,7.33432e-05,-2.66546,0.187507,0.314655,26.4626,0.0339482,
2,1,0,1,0,12971.7,0.0357545,0.0354378,2.19806,7,0.00141641,10,7.78945e-05,-2.65796,0.222012,0.265751,22.7036,0.0354378,
2,1,0,1,0,12971.7,0.0372544,0.0369566,2.23485,7,0.00150008,10,8.25925e-05,-2.65075,0.216058,0.273075,23.737,0.03695656,
2,1,0,1,0,12971.8,0.0387544,0.0384538,2.26419,7,0.001585,10,8.70668e-05,-2.64509,0.21235,0.277844,24.6209,0.0384538,
2,1,0,1,0,12971.8,0.0402508,0.0399124,2.30837,7,0.00167113,10,9.21329e-05,-2.63669,0.216226,0.272863,24.5789,0.0399124,
2,1,0,1,0,12971.8,0.0417472,0.0414422,2.34445,7,0.00175874,10,9.7159e-05,-2.62996,0.220407,0.267686,24.4883,0.0414422,
2,1,0,1,0,12971.9,0.0432472,0.0429398,2.37921,7,0.001848,10,0.000102163,-2.62357,0.225869,0.261213,24.2708,0.04293976,
2,1,0,1,0,12971.9,0.0447472,0.0444213,2.41478,7,0.00193841,10,0.000107268,-2.61712,0.23204,0.254267,23.9805,0.0444213,
2,1,0,1,0,12972,0.0462427,0.0459653,2.45473,7,0.00203002,10,0.000112833,-2.61,0.216518,0.272495,26.0202,0.0459653,
2,1,0,1,0,12972,0.0477382,0.0474356,2.48956,7,0.00212299,10,0.000118094,-2.60388,0.246711,0.239146,23.1966,0.0474356,
2,1,0,1,0,12972,0.0492417,0.0489266,2.52527,7,0.0022178,10,0.000123553,-2.59769,0.271441,0.217358,21.3482,0.0489266,
2,1,0,1,0,12972.1,0.0507381,0.0504463,2.55304,7,0.00231335,10,0.000128791,-2.59294,0.27352,0.215707,21.4999,0.0504463,
2,1,0,1,0,12972.1,0.0522345,0.0519204,2.58566,7,0.00241009,10,0.000134249,-2.58743,0.246888,0.238974,24.1701,0.0519204,
2,1,0,1,0,12972.1,0.0537345,0.0534043,2.62679,7,0.00250849,10,0.000140282,-2.58057,0.251758,0.234352,24.0118,0.0534043,
2,1,0,1,0,12972.2,0.0552345,0.0549263,2.66003,7,0.00260821,10,0.000146106,-2.57511,0.278802,0.211619,21.93,0.0549263,
2,1,0,1,0,12972.2,0.0567309,0.0564107,2.68851,7,0.00270888,10,0.000151661,-2.57049,0.294762,0.200161,21.015,0.0564107,
2,1,0,1,0,12972.3,0.0582273,0.057884,2.72225,7,0.00281064,10,0.000157575,-2.56507,0.296048,0.199292,21.1624,0.057884,
2,1,0,1,0,12972.3,0.0597309,0.0594267,2.75714,7,0.00291417,10,0.000163848,-2.55954,0.28122,0.2098,22.5085,0.0594267,
2,1,0,1,0,12972.3,0.0612264,0.0609088,2.78699,7,0.00301841,10,0.000169752,-2.55486,0.30479,0.193576,21.0021,0.0609088,
2,1,0,1,0,12972.4,0.0627219,0.0624217,2.81668,7,0.0031238,10,0.000175822,-2.55026,0.347299,0.169882,18.6868,0.0624217,
2,1,0,1,0,12972.4,0.0642218,0.0639326,2.8401,7,0.0032305,10,0.000181575,-2.54667,0.308995,0.190941,21.2133,0.0639326,
2,1,0,1,0,12972.4,0.0657218,0.0654114,2.87547,7,0.00333837,10,0.000188089,-2.54129,0.321911,0.183281,20.5813,0.0654114,
2,1,0,1,0,12972.5,0.0672182,0.0668941,2.90287,7,0.00344719,10,0.000194185,-2.53717,0.323717,0.182258,20.6647,0.0668941,
2,1,0,1,0,12972.5,0.0687146,0.0684251,2.93383,7,0.00355705,10,0.000200748,-2.53257,0.400163,0.14744,16.8735,0.0684251,
2,1,0,1,0,12972.6,0.0702146,0.0699488,2.96189,7,0.00366812,10,0.000207181,-2.52843,0.423407,0.139346,16.0933,0.0699488,
2,1,0,1,0,12972.6,0.0717146,0.0713762,2.98993,7,0.00378022,10,0.00021341,-2.52434,0.354929,0.16623,19.3441,0.0713762,
2,1,0,1,0,12972.6,0.073211,0.0728979,3.01555,7,0.00389301,10,0.000219827,-2.52063,0.380774,0.154948,18.2187,0.0728979,
2,1,0,1,0,12972.7,0.0747074,0.0744066,3.04227,7,0.00400685,10,0.000226365,-2.5168,0.418024,0.14114,16.7375,0.0744066,
2,1,0,1,0,12972.7,0.0762109,0.0758985,3.06054,7,0.00412224,10,0.00023229,-2.5142,0.418841,0.140865,16.8501,0.0758985,
2,1,0,1,0,12972.7,0.0777064,0.0774146,3.08363,7,0.00423786,10,0.000238718,-2.51094,0.427316,0.138071,16.6559,0.0774146,
2,1,0,1,0,12972.8,0.079202,0.0789228,3.11411,7,0.00435443,10,0.000245775,-2.50667,0.455943,0.129402,15.7182,0.0789228,
2,1,0,1,0,12972.8,0.0807019,0.0804068,3.13694,7,0.00447226,10,0.000252231,-2.50349,0.504531,0.11694,14.3065,0.08040683,
2,1,0,1,0,12972.9,0.0822019,0.0818972,3.15404,7,0.00459087,10,0.000258307,-2.50113,0.468709,0.125878,15.5154,0.0818972,
2,1,0,1,0,12972.9,0.0836983,0.0834118,3.18445,7,0.00470996,10,0.000265621,-2.49697,0.451769,0.130598,16.2246,0.0834118,
2,1,0,1,0,12972.9,0.0851947,0.0849064,3.21064,7,0.00483012,10,0.000272604,-2.49341,0.410369,0.143773,17.997,0.0849064,
2,1,0,1,0,12973,0.0866947,0.0864064,3.23705,7,0.0049516,10,0.000279702,-2.48985,0.474393,0.12437,15.7045,0.08640644,
2,1,0,1,0,12973,0.0881947,0.0879143,3.26084,7,0.00507403,10,0.000286674,-2.48667,0.453619,0.130065,16.5737,0.0879143,
2,1,0,1,0,12973,0.0896911,0.0894094,3.28225,7,0.00519692,10,0.000293464,-2.48383,0.410591,0.143695,18.463,0.0894094,
2,1,0,1,0,12973.1,0.0911875,0.0908638,3.31445,7,0.00532097,10,0.000301163,-2.47959,0.328699,0.179496,23.2618,0.0908638,
2,1,0,1,0,12973.1,0.0926901,0.0923664,3.3547,7,0.00544702,10,0.000309861,-2.47435,0.30512,0.193366,25.2852,0.0923664,
2,1,0,1,0,12973.2,0.0941856,0.0938704,3.3866,7,0.00557368,10,0.000317902,-2.47024,0.330206,0.178676,23.6227,0.0938704,
2,1,0,1,0,12973.2,0.0956821,0.0953885,3.42296,7,0.0057016,10,0.000326511,-2.4656,0.295298,0.199798,26.7234,0.0953885,
2,1,0,1,0,12973.2,0.097182,0.0968639,3.4646,7,0.00583136,10,0.000335595,-2.46035,0.260664,0.226345,30.624,0.09686394,
2,1,0,1,0,12973.3,0.098682,0.0983883,3.51027,7,0.00596278,10,0.00034537,-2.45466,0.252683,0.233494,32.0456,0.0983883,
2,1,0,1,0,12973.3,0.100178,0.0998667,3.56225,7,0.00609569,10,0.000355751,-2.44828,0.246895,0.238968,33.2574,0.09986674,
2,1,0,1,0,12973.3,0.101675,0.101353,3.60963,7,0.00623056,10,0.000365849,-2.44254,0.228266,0.258471,36.5503,0.1013535,
2,1,0,1,0,12973.4,0.103175,0.102867,3.6727,7,0.00636774,10,0.000377798,-2.43501,0.215171,0.2742,39.3813,0.102867,
2,1,0,1,0,12973.4,0.104675,0.104386,3.74005,7,0.00650726,10,0.000390409,-2.42712,0.20474,0.28817,42.002,0.104386,
2,1,0,1,0,12973.5,0.106171,0.105848,3.80277,7,0.00664884,10,0.000402516,-2.4199,0.208579,0.282866,41.8642,0.105848,
2,1,0,1,0,12973.5,0.107667,0.107415,3.86878,7,0.00679275,10,0.000415566,-2.41243,0.211506,0.278952,42.0344,0.107415,
2,1,0,1,0,12973.5,0.10917,0.108889,3.92829,7,0.00693973,10,0.000427747,-2.4058,0.211494,0.278968,42.7249,0.1088889,
2,1,0,1,0,12973.6,0.110666,0.11039,3.9893,7,0.00708838,10,0.00044038,-2.3991,0.213773,0.275994,42.9928,0.11039,
2,1,0,1,0,12973.6,0.112162,0.111825,4.05086,7,0.00723939,10,0.000452986,-2.39245,0.23421,0.251911,39.8277,0.111825,
2,1,0,1,0,12973.6,0.113662,0.113372,4.11302,7,0.00739318,10,0.000466301,-2.38584,0.252446,0.233714,37.4889,0.1133718,
2,1,0,1,0,12973.7,0.115162,0.114851,4.1642,7,0.00754897,10,0.000478261,-2.38047,0.262239,0.224986,36.5837,0.114851,
2,1,0,1,0,12973.7,0.116658,0.116364,4.22096,7,0.0077064,10,0.000491169,-2.37459,0.276658,0.21326,35.0743,0.116364,
2,1,0,1,0,12973.8,0.118155,0.117859,4.27536,7,0.00786589,10,0.000503889,-2.36903,0.305658,0.193026,32.1263,0.117859,
2,1,0,1,0,12973.8,0.119655,0.119363,4.31871,7,0.00802756,10,0.000515493,-2.36465,0.367829,0.1604,26.9787,0.119363,
2,1,0,1,0,12973.8,0.121155,0.120871,4.35365,7,0.00819074,10,0.000526231,-2.36115,0.36543,0.161454,27.4218,0.1208713,
2,1,0,1,0,12973.9,0.122651,0.122316,4.39472,7,0.00835492,10,0.000537543,-2.35707,0.39124,0.150803,25.8547,0.122316,
2,1,0,1,0,12973.9,0.124147,0.12387,4.4328,7,0.0085206,10,0.000549092,-2.35332,0.418318,0.141041,24.393,0.1238704,
2,1,0,1,0,12973.9,0.12565,0.125359,4.46451,7,0.00868849,10,0.000559666,-2.35023,0.478894,0.123201,21.4603,0.125359,
2,1,0,1,0,12974,0.127146,0.126833,4.49131,7,0.00885675,10,0.000569645,-2.34763,0.468454,0.125946,22.1037,0.126833,
2,1,0,1,0,12974,0.128642,0.128314,4.5302,7,0.00902604,10,0.000581288,-2.34388,0.478249,0.123367,21.8271,0.128314,
2,1,0,1,0,12974.1,0.130142,0.129817,4.56276,7,0.00919712,10,0.000592322,-2.34077,0.436935,0.135032,24.0353,0.129817,
2,1,0,1,0,12974.1,0.131642,0.131325,4.60316,7,0.00936958,10,0.00060451,-2.33694,0.533885,0.110511,19.7846,0.131325,
2,1,0,1,0,12974.1,0.133139,0.132799,4.6272,7,0.00954275,10,0.000614488,-2.33468,0.63024,0.0936151,16.8923,0.132799,
2,1,0,1,0,12974.2,0.134635,0.134321,4.65231,7,0.00971681,10,0.000624904,-2.33233,0.658124,0.0896488,16.2881,0.134321,
2,1,0,1,0,12974.2,0.136135,0.135838,4.67985,7,0.00989241,10,0.000635701,-2.32977,0.691632,0.0853055,15.5638,0.135838,
2,1,0,1,0,12974.2,0.137635,0.137338,4.69733,7,0.0100689,10,0.000645121,-2.32815,1.26495,0.0466422,8.5372,0.137338,
2,1,0,1,0,12974.3,0.13913,0.138843,4.70738,7,0.0102454,10,0.000653586,-2.32722,-155.623,-0.000379122,-0.0694861,0.138843,
2,1,0,1,0,12974.3,0.140626,0.140338,4.69694,7,0.0104218,10,0.000659161,-2.32818,-1.25207,-0.0471218,-8.6184,0.140338,
2,1,0,1,0,12974.4,0.14213,0.141839,4.67851,7,0.0105987,10,0.000663595,-2.32989,-0.606732,-0.0972423,-17.6957,0.141839,
2,1,0,1,0,12974.4,0.143626,0.143314,4.64506,7,0.0107738,10,0.0006657,-2.33301,-0.335345,-0.175938,-31.7359,0.143314,
2,1,0,1,0,12974.4,0.145122,0.144811,4.5877,7,0.010947,10,0.000664347,-2.33841,-0.210708,-0.280009,-49.816,0.144811,
2,1,0,1,0,12974.5,0.146622,0.14632,4.49323,7,0.0111179,10,0.000657451,-2.34744,-0.164003,-0.359749,-62.943,0.14632,
2,1,0,1,0,12974.5,0.148122,0.147853,4.39133,7,0.0112852,10,0.000649273,-2.3574,-0.134482,-0.438719,-74.9117,0.147853,
2,1,0,1,0,12974.5,0.149619,0.149323,4.26706,7,0.0114479,10,0.000637172,-2.36987,-0.111606,-0.528646,-87.787,0.149323,
2,1,0,1,0,12974.6,0.151115,0.150815,4.13192,7,0.0116057,10,0.000623156,-2.38385,-0.0951495,-0.620077,-99.5558,0.150815,
2,1,0,1,0,12974.6,0.152615,0.152297,3.97173,7,0.0117583,10,0.000604884,-2.40102,-0.0854697,-0.690303,-106.778,0.152297,
2,1,0,1,0,12974.7,0.154115,0.153801,3.8145,7,0.0119047,10,0.000586675,-2.41856,-0.081595,-0.723084,-107.429,0.153801,
2,1,0,1,0,12974.7,0.155611,0.155291,3.64979,7,0.0120448,10,0.000566778,-2.43773,-0.0782398,-0.754092,-107.205,0.155291,
2,1,0,1,0,12974.7,0.157106,0.156824,3.48904,7,0.0121788,10,0.000547167,-2.45729,-0.0750379,-0.786269,-106.889,0.156824,
2,1,0,1,0,12974.8,0.15861,0.158337,3.33635,7,0.0123077,10,0.000528267,-2.47673,-0.0769643,-0.766589,-99.9177,0.158337,
2,1,0,1,0,12974.8,0.160106,0.159847,3.1855,7,0.0124301,10,0.000509193,-2.49682,-0.07988,-0.738608,-92.204,0.159847,
2,1,0,1,0,12974.8,0.161602,0.161301,3.05368,7,0.0125474,10,0.000492563,-2.51518,-0.0856336,-0.688982,-82.4797,0.161301,
2,1,0,1,0,12974.9,0.163102,0.162783,2.93698,7,0.0126603,10,0.000478093,-2.5321,-0.0904328,-0.652418,-75.0271,0.162783,
2,1,0,1,0,12974.9,0.164602,0.164289,2.8325,7,0.0127691,10,0.00046535,-2.54783,-0.09369,-0.629736,-69.738,0.164289,
2,1,0,1,0,12975,0.166099,0.165782,2.73383,7,0.0128737,10,0.000453218,-2.56323,-0.0992942,-0.594194,-63.542,0.165782,
2,1,0,1,0,12975,0.167595,0.16731,2.6471,7,0.0129748,10,0.000442886,-2.57723,-0.115154,-0.512358,-52.9685,0.16731,
2,1,0,1,0,12975,0.169095,0.168768,2.57558,7,0.0130732,10,0.000434675,-2.58912,-0.122413,-0.481975,-48.4166,0.168768,
2,1,0,1,0,12975.1,0.170595,0.170254,2.50147,7,0.0131689,10,0.000425886,-2.6018,-0.129657,-0.455046,-44.4525,0.170254,
2,1,0,1,0,12975.1,0.172091,0.171774,2.4302,7,0.0132617,10,0.000417445,-2.61436,-0.137681,-0.428526,-40.845,0.171774,
2,1,0,1,0,12975.1,0.173586,0.173274,2.37401,7,0.0133522,10,0.000411353,-2.62452,-0.159383,-0.370177,-34.473,0.173274,
2,1,0,1,0,12975.2,0.17509,0.174771,2.32667,7,0.0134412,10,0.000406635,-2.63326,-0.169807,-0.347453,-31.6258,0.174771,
2,1,0,1,0,12975.2,0.176586,0.176268,2.28251,7,0.013528,10,0.000402334,-2.64159,-0.169092,-0.348922,-31.0591,0.176268,
2,1,0,1,0,12975.3,0.178083,0.177749,2.23868,7,0.0136131,10,0.000397923,-2.65001,-0.182069,-0.324053,-28.3031,0.177749,
2,1,0,1,0,12975.3,0.179582,0.179286,2.19884,7,0.0136967,10,0.000394221,-2.65781,-0.206129,-0.286229,-24.6051,0.179286,
2,1,0,1,0,12975.3,0.181082,0.180774,2.16675,7,0.0137791,10,0.000391692,-2.66419,-0.232494,-0.25377,-21.4555,0.180774,
2,1,0,1,0,12975.4,0.182579,0.182289,2.1325,7,0.0138601,10,0.000388732,-2.67111,-0.225486,-0.261657,-21.7952,0.182289,
2,1,0,1,0,12975.4,0.184075,0.183791,2.10359,7,0.01394,10,0.000386621,-2.67704,-0.250809,-0.235238,-19.3573,0.183791,
2,1,0,1,0,12975.4,0.185579,0.185257,2.07566,7,0.0140191,10,0.000384529,-2.68284,-0.270211,-0.218348,-17.7503,0.185257,
2,1,0,1,0,12975.5,0.187074,0.186793,2.05209,7,0.0140969,10,0.000383315,-2.6878,-0.350976,-0.168102,-13.4654,0.1867931,
2,1,0,1,0,12975.5,0.18857,0.188261,2.03014,7,0.0141739,10,0.000382196,-2.69247,-0.364091,-0.162048,-12.8567,0.188261,
2,1,0,1,0,12975.6,0.19007,0.189772,2.01495,7,0.0142503,10,0.000382381,-2.69574,-0.351425,-0.167888,-13.1616,0.1897718,
2,1,0,1,0,12975.6,0.19157,0.191254,1.99542,7,0.014326,10,0.000381633,-2.69997,-0.387267,-0.15235,-11.8415,0.191254,
2,1,0,1,0,12975.6,0.193066,0.192723,1.97804,7,0.0144008,10,0.000381213,-2.70377,-0.499156,-0.1182,-9.10742,0.192723,
2,1,0,1,0,12975.7,0.194563,0.19426,1.96367,7,0.0144751,10,0.000381463,-2.70693,-0.435394,-0.135509,-10.3823,0.19426,
2,1,0,1,0,12975.7,0.196063,0.195751,1.94573,7,0.014549,10,0.00038088,-2.71092,-0.409954,-0.143919,-10.9575,0.195751,
2,1,0,1,0,12975.7,0.197563,0.197204,1.92843,7,0.0146224,10,0.000380294,-2.7148,-0.50342,-0.117198,-8.86062,0.1972037,
2,1,0,1,0,12975.8,0.199059,0.198741,1.9186,7,0.014695,10,0.000381304,-2.71702,-0.61286,-0.0962699,-7.23981,0.198741,
2,1,0,1,0,12975.8,0.200555,0.200268,1.91129,7,0.0147672,10,0.00038277,-2.71867,-0.637911,-0.0924894,-6.89773,0.200268,
2,1,0,1,0,12975.9,0.202059,0.201724,1.90221,7,0.0148394,10,0.000383722,-2.72074,-0.602016,-0.098004,-7.25162,0.201724,
2,1,0,1,0,12975.9,0.203554,0.20326,1.88829,7,0.0149109,10,0.000383815,-2.72393,-0.66839,-0.0882718,-6.49885,0.20326,
2,1,0,1,0,12975.9,0.20505,0.204739,1.87843,7,0.0149819,10,0.000384589,-2.7262,-0.929464,-0.0634775,-4.67001,0.204739,
2,1,0,1,0,12976,0.20655,0.206249,1.87127,7,0.0150528,10,0.000385947,-2.72786,-0.897775,-0.0657181,-4.79864,0.206249,
2,1,0,1,0,12976,0.20805,0.207761,1.8628,7,0.0151236,10,0.000387017,-2.72983,-0.788503,-0.0748253,-5.43922,0.207761,
2,1,0,1,0,12976,0.209546,0.209274,1.8545,7,0.0151939,10,0.000388098,-2.73177,-0.601346,-0.0981133,-7.12659,0.209274,
2,1,0,1,0,12976.1,0.211043,0.210745,1.844,7,0.0152636,10,0.000388613,-2.73424,-0.661396,-0.0892053,-6.44825,0.2107448,
2,1,0,1,0,12976.1,0.212543,0.212266,1.84548,7,0.0153334,10,0.000391733,-2.73389,-1.44946,-0.0407049,-2.92264,0.212266,
2,1,0,1,0,12976.2,0.214043,0.21374,1.83998,7,0.015403,10,0.000393278,-2.73519,-0.92135,-0.0640365,-4.58469,0.2137403,
2,1,0,1,0,12976.2,0.215539,0.215236,1.83052,7,0.0154721,10,0.000393995,-2.73742,-0.83331,-0.070802,-5.05177,0.2152361,
2,1,0,1,0,12976.2,0.217035,0.216741,1.82108,7,0.0155409,10,0.000394703,-2.73967,-0.887905,-0.0664485,-4.72074,0.2167411,
2,1,0,1,0,12976.3,0.218538,0.218259,1.81615,7,0.0156098,10,0.000396391,-2.74085,-2.31483,-0.0254878,-1.80621,0.218259,
2,1,0,1,0,12976.3,0.220034,0.219733,1.81419,7,0.0156782,10,0.000398638,-2.74132,-1.43956,-0.0409846,-2.90064,0.219733,
2,1,0,1,0,12976.3,0.22153,0.221259,1.806,7,0.0157465,10,0.000399595,-2.74328,-0.829747,-0.071106,-5.01638,0.2212595,
2,1,0,1,0,12976.4,0.22303,0.222707,1.796,7,0.0158147,10,0.000399981,-2.74569,-1.16708,-0.0505533,-3.55508,0.222707,
2,1,0,1,0,12976.4,0.22453,0.224212,1.79889,7,0.0158827,10,0.000403334,-2.74499,-1.17519,-0.0502048,-3.51633,0.224212,
2,1,0,1,0,12976.5,0.226026,0.225767,1.79363,7,0.0159504,10,0.000404942,-2.74627,-1.35713,-0.0434741,-3.03593,0.225767,
2,1,0,1,0,12976.5,0.227523,0.227227,1.7911,7,0.0160179,10,0.000406987,-2.74688,-0.800309,-0.0737215,-5.12745,0.227227,
2,1,0,1,0,12976.5,0.229023,0.228715,1.78294,7,0.0160854,10,0.000407786,-2.74886,-1.2215,-0.0483012,-3.35955,0.228715,
2,1,0,1,0,12976.6,0.230523,0.230274,1.77705,7,0.0161526,10,0.000409208,-2.7503,-1.62542,-0.0362983,-2.52233,0.230274,
2,1,0,1,0,12976.6,0.232019,0.231684,1.77162,7,0.0162196,10,0.000410456,-2.75163,-3.22854,-0.0182745,-1.26617,0.231684,
2,1,0,1,0,12976.6,0.233515,0.233179,1.76736,7,0.0162865,10,0.000412112,-2.75267,-0.94094,-0.0627033,-4.33753,0.233179,
2,1,0,1,0,12976.7,0.235018,0.234695,1.76373,7,0.0163536,10,0.000413939,-2.75357,-1.40064,-0.0421237,-2.90428,0.234695,
2,1,0,1,0,12976.7,0.236514,0.236223,1.76029,7,0.0164201,10,0.000415821,-2.75442,-2.30696,-0.0255747,-1.75732,0.236223,
2,1,0,1,0,12976.8,0.23801,0.237717,1.76131,7,0.0164865,10,0.000418695,-2.75416,-2.2932,-0.0257282,-1.7611,0.237717,
2,1,0,1,0,12976.8,0.23951,0.23925,1.75865,7,0.0165529,10,0.000420756,-2.75482,-2.33485,-0.0252693,-1.72652,0.23925,
2,1,0,1,0,12976.8,0.24101,0.240711,1.75053,7,0.0166193,10,0.000421372,-2.75683,-1.43667,-0.0410673,-2.80374,0.240711,
2,1,0,1,0,12976.9,0.242506,0.24217,1.74328,7,0.0166852,10,0.00042217,-2.75863,-1.73689,-0.0339688,-2.31799,0.24217,
2,1,0,1,0,12976.9,0.244003,0.243692,1.74071,7,0.016751,10,0.000424197,-2.75927,-2.99444,-0.0197032,-1.34288,0.243692,
2,1,0,1,0,12976.9,0.245503,0.245213,1.73935,7,0.0168169,10,0.00042651,-2.75961,-5.52298,-0.0106826,-0.726055,0.245213,
2,1,0,1,0,12977,0.247003,0.246709,1.73545,7,0.0168828,10,0.000428152,-2.76059,-2.22125,-0.0265617,-1.79885,0.246709,
2,1,0,1,0,12977,0.248499,0.248227,1.72753,7,0.0169483,10,0.00042882,-2.76257,-1.86585,-0.0316209,-2.13963,0.248227,
2,1,0,1,0,12977,0.249995,0.249687,1.73142,7,0.0170136,10,0.000432314,-2.7616,-1.48146,-0.0398255,-2.68698,0.249687,
2,1,0,1,0,12977.1,0.251498,0.251213,1.73078,7,0.0170791,10,0.000434794,-2.76176,-3.09382,-0.0190703,-1.28135,0.251213,
2,1,0,1,0,12977.1,0.252994,0.25264,1.72224,7,0.0171443,10,0.000435105,-2.76391,-0.983563,-0.059986,-4.0229,0.25264,
2,1,0,1,0,12977.2,0.25449,0.25419,1.71801,7,0.0172093,10,0.000436701,-2.76497,-1.41701,-0.0416369,-2.79318,0.25419,
2,1,0,1,0,12977.2,0.25599,0.255639,1.71212,7,0.0172742,10,0.000437683,-2.76647,-1.37808,-0.0428133,-2.87304,0.255639,
2,1,0,1,0,12977.2,0.25749,0.257216,1.71087,7,0.0173391,10,0.000440063,-2.76678,-11.7269,-0.00503115,-0.336718,0.257216,
2,1,0,1,0,12977.3,0.258987,0.258727,1.71042,7,0.0174038,10,0.00044253,-2.7669,-2.23429,-0.0264066,-1.76357,0.258727,
2,1,0,1,0,12977.3,0.260483,0.260212,1.70877,7,0.0174683,10,0.000444644,-2.76732,-1.0469,-0.0563571,-3.75973,0.260212,
2,1,0,1,0,12977.3,0.261983,0.261661,1.7034,7,0.0175328,10,0.000445713,-2.76868,-1.61696,-0.0364881,-2.42339,0.261661,
2,1,0,1,0,12977.4,0.263483,0.263188,1.70403,7,0.0175972,10,0.00044848,-2.76852,236.313,0.000249669,0.0165137,0.263188,
2,1,0,1,0,12977.4,0.264978,0.264708,1.69677,7,0.0176613,10,0.000449149,-2.77038,-2.41218,-0.0244592,-1.61857,0.264708,
2,1,0,1,0,12977.5,0.266474,0.266143,1.69036,7,0.0177254,10,0.000449877,-2.77202,-1.64835,-0.0357933,-2.36177,0.266143,
2,1,0,1,0,12977.5,0.267977,0.267658,1.68297,7,0.0177895,10,0.00045046,-2.77392,-1.98523,-0.0297195,-1.96245,0.2676577,
2,1,0,1,0,12977.5,0.269474,0.269157,1.68383,7,0.0178532,10,0.000453214,-2.7737,-2.4944,-0.023653,-1.55877,0.269157,
2,1,0,1,0,12977.6,0.27097,0.270694,1.68624,7,0.0179169,10,0.000456455,-2.77308,-2.90076,-0.0203395,-1.33645,0.270694,
2,1,0,1,0,12977.6,0.27247,0.272164,1.6838,7,0.0179806,10,0.00045827,-2.77371,-1.00865,-0.0584938,-3.83508,0.272164,
2,1,0,1,0,12977.6,0.27397,0.273722,1.67764,7,0.0180442,10,0.000459208,-2.7753,-1.36527,-0.0432148,-2.82844,0.2737222,
2,1,0,1,0,12977.7,0.275467,0.275181,1.67526,7,0.0181074,10,0.000461001,-2.77592,-1.57141,-0.0375458,-2.45008,0.275181,
2,1,0,1,0,12977.7,0.276963,0.276647,1.67371,7,0.0181706,10,0.000463028,-2.77632,-1.06313,-0.0554963,-3.61582,0.276647,
2,1,0,1,0,12977.8,0.278463,0.278172,1.67021,7,0.0182337,10,0.000464605,-2.77723,-0.909542,-0.0648678,-4.21449,0.278172,
2,1,0,1,0,12977.8,0.279963,0.279662,1.66544,7,0.0182968,10,0.000465761,-2.77847,-2.07628,-0.0284162,-1.84707,0.279662,
2,1,0,1,0,12977.8,0.281459,0.281129,1.65538,7,0.0183595,10,0.000465377,-2.7811,-1.92994,-0.0305709,-1.98458,0.2811293,
2,1,0,1,0,12977.9,0.282954,0.282676,1.65435,7,0.0184221,10,0.000467645,-2.78137,51.6108,0.00114317,0.0739573,0.2826764,
2,1,0,1,0,12977.9,0.284458,0.284151,1.65673,7,0.018485,10,0.000470761,-2.78075,-2.14133,-0.027553,-1.77897,0.284151,
2,1,0,1,0,12977.9,0.285954,0.285683,1.65248,7,0.0185474,10,0.000472084,-2.78186,-1.62274,-0.0363582,-2.33993,0.285683,
2,1,0,1,0,12978,0.28745,0.287132,1.64808,7,0.0186096,10,0.000473217,-2.78302,-1.81273,-0.0325475,-2.08662,0.287132,
2,1,0,1,0,12978,0.28895,0.288649,1.64588,7,0.0186719,10,0.000475083,-2.7836,-7.64811,-0.00771432,-0.493892,0.288649,
2,1,0,1,0,12978.1,0.29045,0.290164,1.63998,7,0.0187341,10,0.000475863,-2.78516,-2.72989,-0.0216126,-1.38379,0.290164,
2,1,0,1,0,12978.1,0.291947,0.29169,1.63586,7,0.0187959,10,0.000477164,-2.78625,-0.927052,-0.0636426,-4.06663,0.29169,
2,1,0,1,0,12978.1,0.293443,0.293172,1.62809,7,0.0188577,10,0.000477311,-2.78832,-1.42412,-0.0414292,-2.64431,0.293172,
2,1,0,1,0,12978.2,0.294943,0.294632,1.62208,7,0.0189193,10,0.000477917,-2.78993,-4.1171,-0.0143305,-0.913679,0.294632,
2,1,0,1,0,12978.2,0.296443,0.296147,1.63157,7,0.018981,10,0.000483184,-2.7874,-1.90542,-0.0309643,-1.96142,0.296147,
2,1,0,1,0,12978.2,0.297939,0.29766,1.62419,7,0.0190424,10,0.000483455,-2.78936,-1.11731,-0.0528052,-3.33203,0.29766,
2,1,0,1,0,12978.3,0.299434,0.299148,1.61912,7,0.0191036,10,0.000484357,-2.79072,-0.0127965,-4.61062,-240.637,0.299148,
2,1,0,0,0,12978.3,0.299962,0.299727,1.53712,7,0.0191277,10,0.000460716,-2.81329,0.00058711,100.492,2048.53,0.299727,
2,1,0,1,0,12978.3,0.298689,0.298402,0.278099,7,0.0191506,10,8.29855e-05,-3.5558,0.00348611,16.9243,575.926,0.2984024,
2,0,0,1,0,12978.4,0.297189,0.296886,-0.131643,7,0.0191512,10,-3.90831e-05,-3.8806,0.0168513,3.50121,226.823,0.296886,
2,0,0,1,0,12978.4,0.295692,0.295387,-0.299588,7,0.0191421,10,-8.84945e-05,-3.52348,-0.00424796,-13.889,91.173,0.295387,
2,0,0,1,0,12978.4,0.294196,0.293892,-0.38662,7,0.0191284,10,-0.000113625,-3.41272,-0.0160111,-3.68494,51.1578,0.293892,
2,0,0,1,0,12978.5,0.292696,0.292389,-0.445747,7,0.019112,10,-0.000130331,-3.35091,-0.0266003,-2.21802,37.8127,0.292389,
2,0,0,1,0,12978.5,0.291196,0.290877,-0.502325,7,0.0190936,10,-0.000146115,-3.29902,-0.0356703,-1.65404,31.4402,0.290877,
2,0,0,1,0,12978.6,0.2897,0.289387,-0.545487,7,0.0190734,10,-0.000157857,-3.26322,-0.0491952,-1.1993,24.9655,0.289387,
2,0,0,1,0,12978.6,0.288205,0.287882,-0.578548,7,0.0190518,10,-0.000166554,-3.23766,-0.0582567,-1.01276,22.547,0.287882,
2,0,0,1,0,12978.6,0.286701,0.286417,-0.602748,7,0.0190288,10,-0.000172637,-3.21986,-0.0658944,-0.895372,21.1507,0.286417,
2,0,0,1,0,12978.7,0.285205,0.284967,-0.638451,7,0.0190048,10,-0.000181938,-3.19487,-0.0779913,-0.756494,18.8469,0.284967,
2,0,0,1,0,12978.7,0.283708,0.283408,-0.663718,7,0.0189798,10,-0.000188103,-3.17802,-0.0889799,-0.663071,17.1665,0.283408,
2,0,0,1,0,12978.7,0.282208,0.281946,-0.686389,7,0.0189536,10,-0.000193525,-3.16343,-0.116107,-0.508153,13.6273,0.281946,
2,0,0,1,0,12978.8,0.280709,0.280385,-0.710096,7,0.0189266,10,-0.0001991,-3.14868,-0.127861,-0.461437,12.8335,0.280385,
2,0,0,1,0,12978.8,0.279212,0.278894,-0.73573,7,0.018899,10,-0.000205191,-3.13328,-0.126293,-0.467169,13.3714,0.278894,
2,0,0,1,0,12978.9,0.277716,0.277429,-0.756437,7,0.0188705,10,-0.000209858,-3.12123,-0.130991,-0.450413,13.143,0.277429,
2,0,0,1,0,12978.9,0.276216,0.275868,-0.77873,7,0.0188412,10,-0.000214827,-3.10861,-0.138311,-0.426574,12.8174,0.275868,
2,0,0,1,0,12978.9,0.274716,0.27438,-0.795765,7,0.0188112,10,-0.000218342,-3.09922,-0.160639,-0.367283,11.3005,0.27438,
2,0,0,1,0,12979,0.27322,0.272889,-0.808718,7,0.0187806,10,-0.00022069,-3.0922,-0.164035,-0.35968,11.3625,0.272889,
2,0,0,1,0,12979,0.271725,0.271436,-0.82141,7,0.0187494,10,-0.00022296,-3.08544,-0.141872,-0.415869,13.4222,0.271436,
2,0,0,1,0,12979,0.270221,0.269923,-0.839342,7,0.0187173,10,-0.000226558,-3.07606,-0.180752,-0.326414,10.7336,0.269923,
2,0,0,1,0,12979.1,0.268725,0.268416,-0.858971,7,0.0186848,10,-0.000230562,-3.06602,-0.227876,-0.258913,8.66808,0.268416,
2,0,0,1,0,12979.1,0.267228,0.266915,-0.870961,7,0.0186518,10,-0.000232472,-3.06,-0.207363,-0.284525,9.64937,0.266915,
2,0,0,1,0,12979.2,0.265728,0.265456,-0.887558,7,0.0186182,10,-0.000235607,-3.0518,-0.20906,-0.282216,9.70043,0.265456,
2,0,0,1,0,12979.2,0.264228,0.263944,-0.903619,7,0.018584,10,-0.000238505,-3.04401,-0.251389,-0.234696,8.20712,0.263944,
2,0,0,1,0,12979.2,0.262732,0.262404,-0.913371,7,0.0185494,10,-0.000239672,-3.03935,-0.269994,-0.218523,7.76457,0.262404,
2,0,0,1,0,12979.3,0.261236,0.260972,-0.924986,7,0.0185143,10,-0.000241396,-3.03386,-0.251861,-0.234256,8.47452,0.260972,
2,0,0,1,0,12979.3,0.259736,0.259433,-0.938609,7,0.0184787,10,-0.000243507,-3.02752,-0.227825,-0.25897,9.53445,0.259433,
2,0,0,1,0,12979.3,0.258236,0.257938,-0.948723,7,0.0184426,10,-0.000244712,-3.02286,-0.238253,-0.247636,9.23674,0.257938,
2,0,0,1,0,12979.4,0.256741,0.256411,-0.964406,7,0.018406,10,-0.000247284,-3.01574,-0.282638,-0.208747,7.85063,0.256411,
2,0,0,1,0,12979.4,0.255241,0.254936,-0.981662,7,0.0183689,10,-0.000250261,-3.00804,-0.288411,-0.204569,7.7818,0.254936,
2,0,0,1,0,12979.5,0.253741,0.253422,-0.988662,7,0.0183315,10,-0.000250549,-3.00495,-0.253863,-0.232409,8.95211,0.2534225,
2,0,0,1,0,12979.5,0.252245,0.251914,-1.00064,7,0.0182937,10,-0.000252075,-2.99972,-0.289791,-0.203595,7.91357,0.251914,
2,0,0,1,0,12979.5,0.250748,0.250466,-1.015,7,0.0182554,10,-0.000254224,-2.99353,-0.309573,-0.190585,7.49637,0.2504665,
2,0,0,1,0,12979.6,0.249248,0.248907,-1.0204,7,0.0182166,10,-0.000253985,-2.99123,-0.343428,-0.171797,6.8503,0.248907,
2,0,0,1,0,12979.6,0.247748,0.247448,-1.0256,7,0.0181775,10,-0.000253783,-2.98902,-0.355168,-0.166119,6.71396,0.247448,
2,0,0,1,0,12979.6,0.246252,0.245989,-1.04302,7,0.0181381,10,-0.000256571,-2.98171,-0.29124,-0.202582,8.2541,0.245989,
2,0,0,1,0,12979.7,0.244756,0.244476,-1.05604,7,0.0180981,10,-0.000258178,-2.97632,-0.29122,-0.202596,8.32896,0.244476,
2,0,0,1,0,12979.7,0.243252,0.242928,-1.0663,7,0.0180576,10,-0.000259033,-2.97212,-0.379153,-0.15561,6.46019,0.242928,
2,0,0,1,0,12979.8,0.241756,0.24147,-1.074,7,0.0180169,10,-0.00025934,-2.96899,-0.406221,-0.145241,6.07206,0.24147,
2,0,0,1,0,12979.8,0.240261,0.239938,-1.08575,7,0.0179759,10,-0.000260512,-2.96427,-0.328465,-0.179623,7.57979,0.239938,
2,0,0,1,0,12979.8,0.238761,0.238429,-1.09179,7,0.0179344,10,-0.000260313,-2.96186,-0.322006,-0.183226,7.81664,0.238429,
2,0,0,1,0,12979.9,0.237261,0.236961,-1.10352,7,0.0178925,10,-0.00026149,-2.95722,-0.527103,-0.111933,4.81555,0.236961,
2,0,0,1,0,12979.9,0.235765,0.235455,-1.11132,7,0.0178503,10,-0.000261665,-2.95416,-0.414345,-0.142394,6.20242,0.235455,
2,0,0,1,0,12979.9,0.234268,0.234004,-1.11737,7,0.0178079,10,-0.000261468,-2.9518,-0.455461,-0.129539,5.70643,0.234004,
2,0,0,1,0,12980,0.232768,0.232464,-1.13258,7,0.017765,10,-0.000263285,-2.94593,-0.411625,-0.143334,6.341,0.232464,
2,0,0,1,0,12980,0.231268,0.230963,-1.14312,7,0.0177216,10,-0.000264018,-2.94191,-0.509784,-0.115735,5.15414,0.230963,
2,0,0,1,0,12980.1,0.229772,0.229485,-1.15687,7,0.017678,10,-0.000265483,-2.93672,-0.445097,-0.132555,5.94335,0.229485,
2,0,0,1,0,12980.1,0.228275,0.228011,-1.16499,7,0.0176341,10,-0.000265629,-2.93368,-0.39694,-0.148637,6.72644,0.228011,
2,0,0,1,0,12980.1,0.226772,0.226486,-1.17168,7,0.0175897,10,-0.00026537,-2.93119,-0.334895,-0.176175,8.03075,0.226486,
2,0,0,1,0,12980.2,0.225276,0.224994,-1.18411,7,0.017545,10,-0.000266419,-2.92661,-0.342223,-0.172402,7.94979,0.224994,
2,0,0,1,0,12980.2,0.223781,0.223457,-1.18639,7,0.0175,10,-0.000265107,-2.92577,-0.477682,-0.123513,5.75804,0.223457,
2,0,0,1,0,12980.2,0.222281,0.222006,-1.19383,7,0.0174545,10,-0.000265038,-2.92306,-0.415547,-0.141981,6.6674,0.222006,
2,0,0,1,0,12980.3,0.220781,0.2205,-1.2067,7,0.0174087,10,-0.000266078,-2.9184,-0.352972,-0.167152,7.88533,0.2205,
2,0,0,1,0,12980.3,0.219284,0.218985,-1.22313,7,0.0173626,10,-0.000267848,-2.91253,-0.444056,-0.132866,6.30953,0.218985,
2,0,0,1,0,12980.4,0.217788,0.217448,-1.23113,7,0.0173161,10,-0.000267708,-2.9097,-0.472903,-0.124761,5.96515,0.217448,
2,0,0,1,0,12980.4,0.216288,0.215978,-1.23557,7,0.0172692,10,-0.000266856,-2.90813,-0.489209,-0.120603,5.81483,0.215978,
2,0,0,1,0,12980.4,0.214788,0.214509,-1.24412,7,0.0172221,10,-0.000266875,-2.90514,-0.473219,-0.124678,6.06238,0.214509,
2,0,0,1,0,12980.5,0.213292,0.212966,-1.25706,7,0.0171746,10,-0.000267711,-2.90064,-0.453705,-0.13004,6.37221,0.212966,
2,0,0,1,0,12980.5,0.211796,0.211484,-1.26474,7,0.0171268,10,-0.000267471,-2.898,-0.586897,-0.100529,4.96246,0.211484,
2,0,0,1,0,12980.5,0.210293,0.209987,-1.27588,7,0.0170784,10,-0.000267918,-2.89419,-0.498483,-0.118359,5.9014,0.209987,
2,0,0,1,0,12980.6,0.208797,0.208471,-1.28148,7,0.0170301,10,-0.000267151,-2.89229,-0.329361,-0.179135,9.02218,0.208471,
2,0,0,1,0,12980.6,0.207301,0.206991,-1.29459,7,0.0169812,10,-0.000267968,-2.88787,-0.359793,-0.163983,8.27414,0.206991,
2,0,0,1,0,12980.7,0.205801,0.20545,-1.31368,7,0.0169316,10,-0.000269896,-2.88151,-0.399046,-0.147852,7.50762,0.20545,
2,0,0,1,0,12980.7,0.204301,0.204002,-1.31825,7,0.0168817,10,-0.000268926,-2.88,-0.654253,-0.0901791,4.61904,0.2040015,
2,0,0,1,0,12980.7,0.202804,0.202505,-1.32257,7,0.0168318,10,-0.000267828,-2.87858,-0.514154,-0.114752,5.92301,0.202505,
2,0,0,1,0,12980.8,0.201308,0.201023,-1.33482,7,0.0167815,10,-0.000268328,-2.87458,-0.352618,-0.16732,8.71524,0.2010227,
2,0,0,1,0,12980.8,0.199808,0.199514,-1.34052,7,0.0167306,10,-0.000267452,-2.87273,-0.409397,-0.144114,7.58187,0.1995137,
2,0,0,1,0,12980.8,0.198308,0.197993,-1.35264,7,0.0166793,10,-0.000267813,-2.86882,-0.499144,-0.118202,6.25792,0.197993,
2,0,0,1,0,12980.9,0.196812,0.196531,-1.35735,7,0.0166278,10,-0.000266761,-2.86731,-0.431241,-0.136814,7.30593,0.196531,
2,0,0,1,0,12980.9,0.195316,0.195004,-1.3787,7,0.0165759,10,-0.000268851,-2.86053,-0.317943,-0.185568,9.96796,0.195004,
2,0,0,1,0,12981,0.193813,0.1935,-1.39576,7,0.0165232,10,-0.000270079,-2.85519,-0.387123,-0.152406,8.24517,0.1935,
2,0,0,1,0,12981,0.192317,0.192016,-1.4036,7,0.0164703,10,-0.000269514,-2.85276,-0.508121,-0.116114,6.32291,0.192016,
2,0,0,1,0,12981,0.190821,0.190466,-1.40831,7,0.0164171,10,-0.000268235,-2.8513,-0.422922,-0.139505,7.68514,0.1904657,
2,0,0,1,0,12981.1,0.189321,0.188971,-1.42122,7,0.0163633,10,-0.00026857,-2.84734,-0.423263,-0.139393,7.74539,0.188971,
2,0,0,1,0,12981.1,0.187821,0.187512,-1.43243,7,0.016309,10,-0.000268598,-2.84393,-0.365284,-0.161518,9.07101,0.187512,
2,0,0,1,0,12981.1,0.186324,0.185988,-1.4454,7,0.0162544,10,-0.000268828,-2.84001,-0.440423,-0.133962,7.58079,0.185988,
2,0,0,1,0,12981.2,0.184828,0.184544,-1.46275,7,0.0161992,10,-0.000269941,-2.83483,-0.4003,-0.14739,8.42217,0.184544,
2,0,0,1,0,12981.2,0.183328,0.183014,-1.47817,7,0.0161435,10,-0.000270525,-2.83028,-0.316869,-0.186197,10.755,0.183014,
2,0,0,1,0,12981.3,0.181828,0.181509,-1.4942,7,0.0160872,10,-0.000271211,-2.82559,-0.291338,-0.202514,11.7669,0.181509,
2,0,0,1,0,12981.3,0.180332,0.180018,-1.51643,7,0.0160304,10,-0.000272985,-2.81918,-0.289023,-0.204136,11.9937,0.180018,
2,0,0,1,0,12981.3,0.178836,0.178523,-1.52906,7,0.0159729,10,-0.000272971,-2.81558,-0.317036,-0.186099,11.0752,0.178523,
2,0,0,1,0,12981.4,0.177333,0.17704,-1.53993,7,0.0159147,10,-0.000272629,-2.8125,-0.286144,-0.20619,12.4203,0.17704,
2,0,0,1,0,12981.4,0.175837,0.17556,-1.55342,7,0.0158561,10,-0.000272719,-2.80871,-0.262733,-0.224562,13.7,0.17556,
2,0,0,1,0,12981.4,0.174341,0.174012,-1.57816,7,0.0157967,10,-0.000274619,-2.80185,-0.269132,-0.219223,13.5436,0.174012,
2,0,0,1,0,12981.5,0.172841,0.172519,-1.6005,7,0.0157364,10,-0.000276117,-2.79574,-0.25747,-0.229153,14.2976,0.172519,
2,0,0,1,0,12981.5,0.171341,0.171036,-1.61699,7,0.0156754,10,-0.000276564,-2.79129,-0.26267,-0.224616,14.2074,0.171036,
2,0,0,1,0,12981.6,0.169844,0.169518,-1.64743,7,0.0156138,10,-0.000279269,-2.78319,-0.220204,-0.267934,17.1815,0.169518,
2,0,0,1,0,12981.6,0.168348,0.167997,-1.67503,7,0.0155511,10,-0.0002814,-2.77598,-0.212624,-0.277485,18.0413,0.167997,
2,0,0,1,0,12981.6,0.166848,0.166542,-1.69786,7,0.0154873,10,-0.000282764,-2.7701,-0.224786,-0.262472,17.3668,0.1665417,
2,0,0,1,0,12981.7,0.165348,0.165032,-1.72357,7,0.0154225,10,-0.000284444,-2.76357,-0.204151,-0.289001,19.4885,0.165032,
2,0,0,1,0,12981.7,0.163852,0.163552,-1.75265,7,0.0153568,10,-0.000286648,-2.75631,-0.197369,-0.298932,20.5566,0.163552,
2,0,0,1,0,12981.7,0.162357,0.162042,-1.78297,7,0.01529,10,-0.000288916,-2.74886,-0.167266,-0.352731,24.7214,0.162042,
2,0,0,1,0,12981.8,0.160853,0.160563,-1.82218,7,0.0152213,10,-0.000292576,-2.73941,-0.178683,-0.330194,23.4947,0.1605632,
2,0,0,1,0,12981.8,0.159357,0.159044,-1.86627,7,0.0151516,10,-0.000296818,-2.72903,-0.170058,-0.346941,25.2509,0.159044,
2,0,0,1,0,12981.9,0.157861,0.157532,-1.91024,7,0.0150806,10,-0.000300925,-2.71891,-0.149932,-0.393511,29.2826,0.157532,
2,0,0,1,0,12981.9,0.156361,0.156047,-1.95817,7,0.0150075,10,-0.000305567,-2.70815,-0.12862,-0.458715,34.947,0.156047,
2,0,0,1,0,12981.9,0.154861,0.154565,-2.01186,7,0.0149325,10,-0.000310963,-2.6964,-0.124677,-0.473223,37.1292,0.154565,
2,0,0,1,0,12982,0.153364,0.153053,-2.06397,7,0.0148556,10,-0.000315898,-2.6853,-0.126502,-0.466395,37.7331,0.153053,
2,0,0,1,0,12982,0.151868,0.151568,-2.12354,7,0.0147766,10,-0.000321861,-2.67294,-0.107548,-0.548592,45.7694,0.151568,
2,0,0,1,0,12982,0.150368,0.150041,-2.19702,7,0.0146948,10,-0.000329642,-2.65817,-0.0986126,-0.598301,51.5729,0.1500407,
2,0,0,1,0,12982.1,0.148868,0.148552,-2.27816,7,0.0146102,10,-0.000338426,-2.64242,-0.093971,-0.627853,56.0224,0.148552,
2,0,0,1,0,12982.1,0.147372,0.147058,-2.36339,7,0.0145227,10,-0.000347556,-2.62647,-0.0897741,-0.657205,60.6319,0.147058,
2,0,0,1,0,12982.2,0.145877,0.145576,-2.45422,7,0.0144319,10,-0.000357275,-2.61009,-0.0861489,-0.68486,65.7501,0.145576,
2,0,0,1,0,12982.2,0.144373,0.144021,-2.56452,7,0.014337,10,-0.000369345,-2.59099,-0.0802205,-0.735473,73.6041,0.144021,
2,0,0,1,0,12982.2,0.142877,0.142585,-2.67867,7,0.0142385,10,-0.000381937,-2.57208,-0.0793526,-0.743517,77.6769,0.142585,
2,0,0,1,0,12982.3,0.14138,0.141009,-2.79332,7,0.0141354,10,-0.000393884,-2.55388,-0.0787559,-0.74915,81.6878,0.141009,
2,0,0,1,0,12982.3,0.13988,0.139582,-2.91859,7,0.0140275,10,-0.000407382,-2.53483,-0.0789827,-0.746999,85.3823,0.139582,
2,0,0,1,0,12982.3,0.13838,0.138053,-3.05325,7,0.0139148,10,-0.00042151,-2.51524,-0.0790977,-0.745913,89.0755,0.138053,
2,0,0,1,0,12982.4,0.136884,0.13659,-3.19537,7,0.0137973,10,-0.000436454,-2.49548,-0.0793392,-0.743643,92.5666,0.13659,
2,0,0,1,0,12982.4,0.135388,0.135092,-3.33723,7,0.0136745,10,-0.000450832,-2.47661,-0.0830657,-0.710281,92.2703,0.135092,
2,0,0,1,0,12982.5,0.133888,0.133551,-3.47977,7,0.0135462,10,-0.000464728,-2.45845,-0.0866293,-0.681063,92.1816,0.133551,
2,0,0,1,0,12982.5,0.132389,0.132072,-3.61245,7,0.0134127,10,-0.000477104,-2.4422,-0.0913638,-0.64577,90.7623,0.132072,
2,0,0,1,0,12982.5,0.130893,0.130575,-3.7443,7,0.0132744,10,-0.000488913,-2.42663,-0.0956099,-0.617091,90.0318,0.130575,
2,0,0,1,0,12982.6,0.129393,0.12908,-3.87679,7,0.0131307,10,-0.000500414,-2.41153,-0.105865,-0.557312,84.1267,0.12908,
2,0,0,1,0,12982.6,0.127893,0.127591,-3.99286,7,0.0129822,10,-0.000509453,-2.39872,-0.115335,-0.511553,79.7846,0.127591,
2,0,0,1,0,12982.6,0.126397,0.126122,-4.10556,7,0.0128299,10,-0.000517801,-2.38663,-0.125666,-0.469498,75.3611,0.126122,
2,0,0,1,0,12982.7,0.1249,0.124593,-4.22323,7,0.0126733,10,-0.000526185,-2.37436,-0.140526,-0.41985,68.9931,0.124593,
2,0,0,1,0,12982.7,0.1234,0.123063,-4.32368,7,0.0125122,10,-0.000532087,-2.36415,-0.156955,-0.375903,63.2721,0.123063,
2,0,0,1,0,12982.8,0.1219,0.121583,-4.41772,7,0.0123477,10,-0.000537118,-2.3548,-0.185404,-0.318223,54.6165,0.121583,
2,0,0,1,0,12982.8,0.120404,0.12012,-4.49252,7,0.0121805,10,-0.000539642,-2.34751,-0.212926,-0.277091,48.4166,0.12012,
2,0,0,1,0,12982.8,0.118908,0.118557,-4.56155,7,0.0120106,10,-0.000540804,-2.34089,-0.235331,-0.250711,44.5312,0.118557,
2,0,0,1,0,12982.9,0.117404,0.117108,-4.62018,7,0.0118373,10,-0.000541058,-2.33534,-0.270963,-0.217742,39.2092,0.117108,
2,0,0,1,0,12982.9,0.115909,0.115565,-4.67185,7,0.0116626,10,-0.000539901,-2.33051,-0.354965,-0.166213,30.2685,0.115565,
2,0,0,1,0,12982.9,0.114413,0.114102,-4.71215,7,0.0114863,10,-0.000537668,-2.32678,-0.498274,-0.118409,21.7545,0.1141023,
2,0,0,1,0,12983,0.112913,0.112625,-4.74338,7,0.0113083,10,-0.000534224,-2.32391,-0.649241,-0.0908753,16.8114,0.112625,
2,0,0,1,0,12983,0.111413,0.111107,-4.76608,7,0.0111293,10,-0.000529544,-2.32184,-0.835071,-0.0706526,13.1156,0.111107,
2,0,0,1,0,12983.1,0.109917,0.10964,-4.7873,7,0.01095,10,-0.000524879,-2.31991,-1.4617,-0.040364,7.51711,0.10964,
2,0,0,1,0,12983.1,0.10842,0.108164,-4.79274,7,0.0107703,10,-0.000518401,-2.31942,-9.74198,-0.00605626,1.12946,0.108164,
2,0,0,1,0,12983.1,0.10692,0.106608,-4.78684,7,0.0105901,10,-0.000510316,-2.31995,2.91481,0.0202414,-3.77657,0.106608,
2,0,0,1,0,12983.2,0.10542,0.105103,-4.77208,7,0.0104102,10,-0.000501561,-2.32129,1.45172,0.0406414,-7.57149,0.105103,
2,0,0,1,0,12983.2,0.103924,0.103613,-4.76226,7,0.010231,10,-0.000493431,-2.32219,0.856726,0.0688669,-12.7895,0.103613,
2,0,0,1,0,12983.2,0.102427,0.102091,-4.73957,7,0.0100526,10,-0.000483866,-2.32426,0.549523,0.107366,-19.8444,0.102091,
2,0,0,1,0,12983.3,0.100924,0.100596,-4.70525,7,0.00987425,10,-0.00047333,-2.32742,0.485887,0.121428,-22.2897,0.100596,
2,0,0,1,0,12983.3,0.0994284,0.0991549,-4.6719,7,0.00969826,10,-0.000463241,-2.33051,0.4229,0.139513,-25.4089,0.0991549,
2,0,0,1,0,12983.4,0.0979329,0.0976005,-4.63777,7,0.00952365,10,-0.000452649,-2.33369,0.399192,0.147799,-26.6708,0.09760046,
2,0,0,1,0,12983.4,0.0964329,0.0960941,-4.58926,7,0.00935012,10,-0.000441001,-2.33826,0.325936,0.181017,-32.3194,0.0960941,
2,0,0,1,0,12983.4,0.094933,0.094645,-4.53356,7,0.00917837,10,-0.000429078,-2.34356,0.311875,0.189178,-33.4567,0.094645,
2,0,0,1,0,12983.5,0.0934366,0.0930976,-4.48306,7,0.00900914,10,-0.000417362,-2.34843,0.301244,0.195855,-34.3196,0.0930976,
2,0,0,1,0,12983.5,0.0919401,0.0916283,-4.43019,7,0.00884173,10,-0.000405931,-2.35358,0.316289,0.186538,-32.2973,0.0916283,
2,0,0,1,0,12983.5,0.0904402,0.0901156,-4.38223,7,0.00867567,10,-0.000394907,-2.3583,0.289359,0.203899,-34.8863,0.09011557,
2,0,0,1,0,12983.6,0.0889402,0.088589,-4.33459,7,0.00851153,10,-0.000383997,-2.36305,0.290404,0.203166,-34.3854,0.088589,
2,0,0,1,0,12983.6,0.0874438,0.0870989,-4.28467,7,0.00834988,10,-0.00037319,-2.36808,0.300396,0.196407,-32.8315,0.0870989,
2,0,0,1,0,12983.7,0.0859483,0.0855996,-4.2397,7,0.00818995,10,-0.000362917,-2.37266,0.347852,0.169612,-28.0262,0.0855996,
2,0,0,1,0,12983.7,0.0844447,0.0841064,-4.20097,7,0.00803082,10,-0.000353329,-2.37665,0.350571,0.168297,-27.5106,0.0841064,
2,0,0,1,0,12983.7,0.0829492,0.0826542,-4.15465,7,0.00787407,10,-0.0003434,-2.38147,0.340502,0.173274,-28.0778,0.08265423,
2,0,0,1,0,12983.8,0.0814528,0.0811958,-4.10903,7,0.00771891,10,-0.000333636,-2.38626,0.393294,0.150015,-24.1095,0.0811958,
2,0,0,1,0,12983.8,0.0799528,0.0796656,-4.07402,7,0.00756476,10,-0.000324559,-2.38998,0.457173,0.129054,-20.5651,0.0796656,
2,0,0,1,0,12983.8,0.0784529,0.0781319,-4.04626,7,0.00741175,10,-0.000316142,-2.39295,0.486305,0.121323,-19.191,0.0781319,
2,0,0,1,0,12983.9,0.0769565,0.0766274,-4.02063,7,0.00726021,10,-0.000308091,-2.39571,0.469443,0.125681,-19.7078,0.0766274,
2,0,0,1,0,12983.9,0.0754601,0.0751807,-3.98929,7,0.00710977,10,-0.000299918,-2.3991,0.478726,0.123244,-19.194,0.0751807,
2,0,0,1,0,12984,0.0739601,0.0736251,-3.96771,7,0.0069601,10,-0.000292123,-2.40146,0.523145,0.112779,-17.448,0.07362514,
2,0,0,1,0,12984,0.0724601,0.0721206,-3.94366,7,0.00681129,10,-0.000284419,-2.4041,0.600864,0.0981919,-15.0838,0.0721206,
2,0,0,1,0,12984,0.0709637,0.0706536,-3.91819,7,0.00666367,10,-0.000276834,-2.40691,0.536779,0.109915,-16.7776,0.0706536,
2,0,0,1,0,12984.1,0.0694682,0.0691501,-3.88766,7,0.00651697,10,-0.000268832,-2.41031,0.554731,0.106358,-16.1644,0.0691501,
2,0,0,1,0,12984.1,0.0679646,0.0676606,-3.86589,7,0.00637048,10,-0.000261568,-2.41275,0.654561,0.0901368,-13.6314,0.06766063,
2,0,0,1,0,12984.1,0.0664691,0.0661374,-3.84611,7,0.00622555,10,-0.000254371,-2.41498,0.653509,0.0902819,-13.5744,0.0661374,
2,0,0,1,0,12984.2,0.0649727,0.0646435,-3.82727,7,0.00608127,10,-0.000247408,-2.41711,0.59012,0.0999797,-14.9268,0.0646435,
2,0,0,1,0,12984.2,0.0634727,0.0631917,-3.80987,7,0.00593743,10,-0.000240752,-2.41909,0.581408,0.101478,-15.0597,0.0631917,
2,0,0,1,0,12984.3,0.0619728,0.0616722,-3.78332,7,0.00579456,10,-0.000233326,-2.42213,0.550159,0.107242,-15.8133,0.0616722,
2,0,0,1,0,12984.3,0.0604764,0.0601271,-3.76538,7,0.00565286,10,-0.000226401,-2.42419,0.578251,0.102032,-14.9583,0.0601271,
2,0,0,1,0,12984.3,0.05898,0.0586623,-3.73975,7,0.00551193,10,-0.000219382,-2.42716,0.603399,0.0977794,-14.2657,0.0586623,
2,0,0,1,0,12984.4,0.05748,0.0571247,-3.71574,7,0.00537138,10,-0.00021226,-2.42995,0.49651,0.11883,-17.2402,0.0571247,
2,0,0,1,0,12984.4,0.05598,0.0556525,-3.68728,7,0.00523182,10,-0.000205206,-2.43329,0.544553,0.108346,-15.643,0.0556525,
2,0,0,1,0,12984.4,0.0544836,0.0541523,-3.66742,7,0.00509349,10,-0.000198599,-2.43564,0.696324,0.0847307,-12.1496,0.0541523,
2,0,0,1,0,12984.5,0.0529881,0.052674,-3.65509,7,0.00495585,10,-0.000192529,-2.4371,0.611486,0.0964862,-13.7403,0.052674,
2,0,0,1,0,12984.5,0.0514846,0.0511571,-3.6304,7,0.00481826,10,-0.000185721,-2.44004,0.498267,0.11841,-16.7395,0.0511571,
2,0,0,1,0,12984.5,0.049989,0.0496978,-3.60225,7,0.00468236,10,-0.000179024,-2.44343,0.480727,0.122731,-17.2397,0.04969776,
2,0,0,1,0,12984.6,0.0484926,0.0481498,-3.58369,7,0.00454746,10,-0.000172554,-2.44567,0.503661,0.117142,-16.3495,0.0481498,
2,0,0,1,0,12984.6,0.0469927,0.0466819,-3.55853,7,0.00441298,10,-0.000166119,-2.44873,0.513048,0.114999,-15.9533,0.0466819,
2,0,0,1,0,12984.7,0.0454927,0.0452034,-3.53155,7,0.0042794,10,-0.000159638,-2.45203,0.417695,0.141251,-19.4481,0.0452034,
2,0,0,1,0,12984.7,0.0439963,0.0436558,-3.50014,7,0.00414712,10,-0.000152801,-2.45591,0.453843,0.130001,-17.8003,0.0436558,
2,0,0,1,0,12984.7,0.0424999,0.0421811,-3.47528,7,0.00401598,10,-0.000146591,-2.45901,0.48468,0.12173,-16.5679,0.0421811,
2,0,0,1,0,12984.8,0.0409999,0.0407149,-3.4527,7,0.00388534,10,-0.000140577,-2.46184,0.490884,0.120191,-16.2023,0.04071492,
2,0,0,1,0,12984.8,0.0394999,0.039168,-3.43269,7,0.00375555,10,-0.000134452,-2.46437,0.430566,0.137029,-18.3191,0.039168,
2,0,0,1,0,12984.8,0.0380044,0.0377176,-3.40492,7,0.00362715,10,-0.000128425,-2.46789,0.384398,0.153487,-20.3366,0.0377176,
2,0,0,1,0,12984.9,0.0365089,0.036163,-3.36946,7,0.00349996,10,-0.00012185,-2.47244,0.39443,0.149583,-19.6656,0.03616298,
2,0,0,1,0,12984.9,0.0350054,0.0346841,-3.34223,7,0.00337319,10,-0.000115922,-2.47596,0.429946,0.137227,-17.8881,0.0346841,
2,0,0,1,0,12985,0.033509,0.0332067,-3.30929,7,0.00324811,10,-0.000109891,-2.48026,0.387316,0.15233,-19.7029,0.0332067,
2,0,0,1,0,12985,0.0320125,0.0317206,-3.27779,7,0.00312409,10,-0.000103973,-2.48442,0.361919,0.16302,-20.8989,0.0317206,
2,0,0,1,0,12985,0.0305126,0.0302201,-3.24206,7,0.00300096,10,-9.79753e-05,-2.48918,0.36449,0.16187,-20.5725,0.0302201,
2,0,0,1,0,12985.1,0.0290126,0.0286678,-3.21697,7,0.00287905,10,-9.22235e-05,-2.49255,0.389089,0.151636,-19.0647,0.0286678,
2,0,0,1,0,12985.1,0.0275162,0.0272357,-3.19465,7,0.00275849,10,-8.70087e-05,-2.49558,0.362017,0.162976,-20.289,0.0272357,
2,0,0,1,0,12985.1,0.0260198,0.0256951,-3.16679,7,0.00263894,10,-8.1371e-05,-2.49938,0.35053,0.168317,-20.7347,0.0256951,
2,0,0,1,0,12985.2,0.0245198,0.0242168,-3.131,7,0.00252026,10,-7.58226e-05,-2.50432,0.363387,0.162361,-19.846,0.0242168,
2,0,0,1,0,12985.2,0.0230198,0.0227245,-3.10689,7,0.00240274,10,-7.06024e-05,-2.50767,0.37436,0.157602,-19.0785,0.0227245,
2,0,0,1,0,12985.3,0.0215243,0.0212132,-3.07373,7,0.00228653,10,-6.52035e-05,-2.51233,0.392152,0.150452,-18.0678,0.0212132,
2,0,0,1,0,12985.3,0.0200288,0.0196715,-3.04769,7,0.00217135,10,-5.99527e-05,-2.51603,0.360517,0.163654,-19.4736,0.0196715,
2,0,0,1,0,12985.3,0.0185253,0.0182156,-3.01554,7,0.00205652,10,-5.49299e-05,-2.52064,0.380134,0.155209,-18.3234,0.0182156,
2,0,0,1,0,12985.4,0.0170289,0.0166752,-2.99522,7,0.00194343,10,-4.99459e-05,-2.52357,0.429099,0.137497,-16.1064,0.0166752,
2,0,0,1,0,12985.4,0.0155325,0.0152121,-2.97445,7,0.0018312,10,-4.52476e-05,-2.52659,0.472449,0.124881,-14.4915,0.0152121,
2,0,0,1,0,12985.4,0.0140325,0.0136916,-2.95719,7,0.00171936,10,-4.04887e-05,-2.52912,0.486953,0.121162,-13.9384,0.0136916,
2,0,0,1,0,12985.5,0.0125325,0.0122341,-2.93291,7,0.00160839,10,-3.58816e-05,-2.5327,0.434477,0.135795,-15.5198,0.0122341,
2,0,0,1,0,12985.5,0.0110361,0.0107363,-2.9089,7,0.00149858,10,-3.12308e-05,-2.53627,0.510553,0.115561,-13.1317,0.0107363,
2,0,0,1,0,12985.6,0.0095397,0.00920385,-2.88849,7,0.00138946,10,-2.65853e-05,-2.53933,0.640229,0.0921546,-10.4033,0.00920385,
2,0,0,1,0,12985.6,0.00803616,0.00771742,-2.87938,7,0.00128031,10,-2.22214e-05,-2.5407,0.766214,0.077002,-8.66599,0.00771742,
2,0,0,1,0,12985.6,0.00654064,0.00622725,-2.85871,7,0.00117236,10,-1.78019e-05,-2.54383,0.609282,0.0968353,-10.8273,0.00622725,
2,0,0,1,0,12985.7,0.00504513,0.00473861,-2.84555,7,0.00106495,10,-1.3484e-05,-2.54583,0.898963,0.0656312,-7.30016,0.00473861,
2,0,0,1,0,12985.7,0.00354515,0.00323212,-2.83804,7,0.000957781,10,-9.17288e-06,-2.54698,-10.8121,-0.00545687,0.607191,0.00323212,
2,0,0,1,0,12985.7,0.00204518,0.00171514,-2.87129,7,0.000850602,10,-4.92468e-06,-2.54192,4.02576,0.0146556,-1.62061,0.00171514,
2,0,0,1,0,12985.8,0.000548773,0.000194465,-2.84311,7,0.000743359,10,-5.52885e-07,-2.54621, , , ,0.000194465,
2,0,0,1,0,12985.8,0.000177222,-0.0002066,-2.83021,7,0.000716811,10,5.84722e-07,-2.54818, , , ,-0.0002066,