File: Figure_codes/Fig_3-5/rawdata_trumpetplot_data/after 10th/20221101_1-115_003_TrumpetPlot_ParaChange_from10_every3_14_CV_C01_13.csv
mode,ox/red,error,control changes,counter inc.,time/s,control/V,Ewe/V,<I>/mA,cycle number,(Q-Qo)/C,I Range,P/W,log(|I|),Tafel slope mV/dec,alpha_eff,dI/d(E-IR),E-IR/V,
2,1,0,1,0,26810.8,2.44065e-05,-0.000248974,38.9841,14,0.0000000E+000,10,-9.70604e-06,-1.40911, , , ,-0.000248974,
2,1,0,1,0,26810.8,0.00332042,0.00296512,40.4059,14,0.00012367,10,0.000119808,-1.39356, , , ,0.00296512,
2,1,0,1,0,26810.8,0.0073156,0.00695437,41.5242,14,0.000287699,10,0.000288774,-1.3817, , , ,0.00695437,
2,1,0,1,0,26810.8,0.0113108,0.010968,42.4948,14,0.000455874,10,0.000466083,-1.37166,0.414066,0.142489,234.99,0.010968,
2,1,0,1,0,26810.8,0.0153059,0.0149244,43.3632,14,0.000627686,10,0.000647169,-1.36288,0.466342,0.126517,213.386,0.0149244,
2,1,0,1,0,26810.8,0.0193011,0.0189603,44.1646,14,0.000802859,10,0.000837374,-1.35493,0.517221,0.114071,196.088,0.0189603,
2,1,0,1,0,26810.8,0.0233462,0.0230344,44.9554,14,0.000981229,10,0.00103552,-1.34722,0.56596,0.104248,182.309,0.0230344,
2,1,0,1,0,26810.8,0.0273414,0.0269865,45.6358,14,0.00116248,10,0.00123155,-1.34069,0.61281,0.0962778,171.036,0.0269865,
2,1,0,1,0,26810.8,0.0313366,0.0309758,46.2895,14,0.00134641,10,0.00143385,-1.33452,0.671427,0.0878725,158.457,0.0309758,
2,1,0,1,0,26810.8,0.0353317,0.0349639,46.9018,14,0.00153286,10,0.00163987,-1.32881,0.713524,0.0826881,151.132,0.0349639,
2,1,0,1,0,26810.8,0.0393269,0.0389606,47.479,14,0.0017217,10,0.00184981,-1.3235,0.762893,0.0773372,143.137,0.0389606,
2,1,0,1,0,26810.8,0.0433221,0.0429636,48.0505,14,0.00191282,10,0.00206442,-1.3183,0.804748,0.0733149,137.311,0.0429636,
2,1,0,1,0,26810.8,0.0473173,0.0469571,48.577,14,0.00210612,10,0.00228104,-1.31357,0.844598,0.0698558,132.307,0.0469571,
2,1,0,1,0,26810.9,0.0513124,0.0509347,49.0948,14,0.00230154,10,0.00250063,-1.30896,0.884107,0.066734,127.779,0.0509347,
2,1,0,1,0,26810.9,0.0553076,0.0549738,49.5977,14,0.00249898,10,0.00272657,-1.30454,0.892193,0.0661292,127.999,0.0549738,
2,1,0,1,0,26810.9,0.0593028,0.0589122,50.0884,14,0.00269842,10,0.00295081,-1.30026,0.923522,0.0638859,124.887,0.0589122,
2,1,0,1,0,26810.9,0.0633479,0.0629937,50.6297,14,0.00289986,10,0.00318935,-1.29559,0.937176,0.0629551,124.277,0.0629937,
2,1,0,1,0,26810.9,0.0673431,0.0669744,51.0979,14,0.00310335,10,0.00342225,-1.2916,0.949638,0.0621289,123.844,0.0669744,
2,1,0,1,0,26810.9,0.0713382,0.0709202,51.5795,14,0.00330875,10,0.00365803,-1.28752,0.978072,0.0603228,121.46,0.0709202,
2,1,0,1,0,26810.9,0.0753334,0.0749657,52.0765,14,0.00351612,10,0.00390395,-1.28336,0.977932,0.0603314,122.599,0.0749657,
2,1,0,1,0,26810.9,0.0793286,0.0789549,52.5683,14,0.00372544,10,0.00415053,-1.27928,0.980653,0.060164,123.412,0.0789549,
2,1,0,1,0,26810.9,0.0833238,0.0829166,53.0524,14,0.00393674,10,0.00439892,-1.27529,0.991345,0.0595151,123.222,0.08291658,
2,1,0,1,0,26810.9,0.0873189,0.0869111,53.5529,14,0.00415001,10,0.00465435,-1.27122,0.991327,0.0595162,124.385,0.0869111,
2,1,0,1,0,26810.9,0.0913141,0.0908866,54.0383,14,0.00436524,10,0.00491136,-1.2673,0.948977,0.0621722,131.258,0.0908866,
2,1,0,1,0,26810.9,0.0953093,0.0948568,54.5463,14,0.00458243,10,0.00517408,-1.26323,0.911383,0.0647368,138.08,0.0948568,
2,1,0,1,0,26810.9,0.0993045,0.0989224,55.1533,14,0.0048019,10,0.00545589,-1.25843,0.868987,0.0678952,146.282,0.0989224,
2,1,0,1,0,26810.9,0.103319,0.102958,55.7687,14,0.00502376,10,0.00574185,-1.25361,0.852695,0.0691924,150.554,0.102958,
2,1,0,1,0,26810.9,0.107345,0.106968,56.3907,14,0.0052482,10,0.00603198,-1.24879,0.862501,0.0684057,150.439,0.106968,
2,1,0,1,0,26810.9,0.11134,0.111007,56.9777,14,0.00547497,10,0.00632491,-1.24429,0.8668,0.0680664,151.343,0.111007,
2,1,0,1,0,26810.9,0.115335,0.114964,57.5666,14,0.00570412,10,0.0066181,-1.23983,0.873309,0.0675591,151.862,0.114964,
2,1,0,1,0,26810.9,0.11933,0.11898,58.1935,14,0.0059357,10,0.00692386,-1.23513,0.855665,0.0689522,156.665,0.11898,
2,1,0,1,0,26810.9,0.123325,0.122968,58.8205,14,0.00616978,10,0.00723305,-1.23047,0.836662,0.0705183,161.964,0.122968,
2,1,0,1,0,26810.9,0.127321,0.126957,59.4766,14,0.00640645,10,0.007551,-1.22565,0.827887,0.0712658,165.497,0.126957,
2,1,0,1,0,26810.9,0.131316,0.130938,60.1538,14,0.00664577,10,0.00787643,-1.22074,0.814995,0.0723931,169.995,0.130938,
2,1,0,1,0,26810.9,0.135311,0.134934,60.8338,14,0.00688781,10,0.00820853,-1.21586,0.797916,0.0739427,175.649,0.134934,
2,1,0,1,0,26810.9,0.139306,0.138956,61.5383,14,0.00713263,10,0.00855112,-1.21085,0.77534,0.0760956,182.971,0.138956,
2,1,0,1,0,26810.9,0.143301,0.142918,62.28,14,0.00738031,10,0.00890091,-1.20565,0.755476,0.0780964,190.015,0.142918,
2,1,0,1,0,26810.9,0.147346,0.146995,63.0917,14,0.00763118,10,0.00927415,-1.20003,0.740692,0.0796552,196.141,0.146995,
2,1,0,1,0,26811,0.151342,0.150959,63.8788,14,0.00788519,10,0.00964305,-1.19464,0.736517,0.0801068,199.68,0.150959,
2,1,0,1,0,26811,0.155337,0.154956,64.6767,14,0.00814235,10,0.0100221,-1.18925,0.739194,0.0798166,201.506,0.154956,
2,1,0,1,0,26811,0.159332,0.158986,65.4885,14,0.00840277,10,0.0104118,-1.18383,0.741545,0.0795636,203.362,0.1589859,
2,1,0,1,0,26811,0.163327,0.162983,66.3133,14,0.00866645,10,0.0108079,-1.1784,0.743112,0.0793959,205.466,0.162983,
2,1,0,1,0,26811,0.167322,0.166961,67.1331,14,0.00893344,10,0.0112086,-1.17306,0.754054,0.0782437,204.93,0.166961,
2,1,0,1,0,26811,0.171317,0.170987,67.9704,14,0.00920374,10,0.011622,-1.16768,0.777049,0.0759282,201.229,0.170987,
2,1,0,1,0,26811,0.175313,0.174947,68.7595,14,0.00947728,10,0.0120293,-1.16267,0.809374,0.0728958,195.407,0.174947,
2,1,0,1,0,26811,0.179308,0.178963,69.5291,14,0.00975396,10,0.0124431,-1.15783,0.838237,0.0703858,190.876,0.178963,
2,1,0,1,0,26811,0.183303,0.182985,70.2642,14,0.0100336,10,0.0128573,-1.15327,0.894514,0.0659576,180.695,0.182985,
2,1,0,1,0,26811,0.187348,0.186994,71.0259,14,0.0103162,10,0.0132814,-1.14858,0.966093,0.0610707,168.924,0.1869944,
2,1,0,1,0,26811,0.191343,0.190965,71.6537,14,0.0106016,10,0.0136833,-1.14476,1.0686,0.0552126,154.042,0.190965,
2,1,0,1,0,26811,0.195338,0.195005,72.2389,14,0.0108895,10,0.0140869,-1.14123,1.25492,0.047015,132.249,0.195005,
2,1,0,1,0,26811,0.199334,0.198973,72.727,14,0.0111795,10,0.0144707,-1.1383,1.49735,0.0394028,111.557,0.198973,
2,1,0,1,0,26811,0.203329,0.202956,73.1367,14,0.0114713,10,0.0148435,-1.13586,1.93112,0.0305522,86.9592,0.202956,
2,1,0,1,0,26811,0.207324,0.206998,73.4424,14,0.0117645,10,0.0152024,-1.13405,2.84526,0.0207363,59.2389,0.206998,
2,1,0,1,0,26811,0.211319,0.210962,73.6265,14,0.0120587,10,0.0155324,-1.13297,6.20764,0.00950442,27.2091,0.210962,
2,1,0,1,0,26811,0.215314,0.214985,73.6756,14,0.0123533,10,0.0158391,-1.13268,-27.7541,-0.00212582,-6.08903,0.214985,
2,1,0,1,0,26811,0.219309,0.218961,73.5722,14,0.0126479,10,0.0161095,-1.13329,-4.1697,-0.0141497,-40.479,0.218961,
2,1,0,1,0,26811,0.223305,0.222973,73.3451,14,0.0129417,10,0.016354,-1.13463,-2.30226,-0.025627,-73.0987,0.222973,
2,1,0,1,0,26811,0.227314,0.226949,72.9794,14,0.0132343,10,0.0165626,-1.1368,-1.55016,-0.0380605,-107.988,0.226949,
2,1,0,1,0,26811,0.231345,0.231004,72.5046,14,0.0135254,10,0.0167489,-1.13963,-1.15521,-0.051073,-143.883,0.231004,
2,1,0,1,0,26811,0.23534,0.235039,71.836,14,0.013814,10,0.0168843,-1.14366,-0.919872,-0.0641394,-179.052,0.235039,
2,1,0,1,0,26811,0.239335,0.238997,71.0395,14,0.0140997,10,0.0169782,-1.1485,-0.759872,-0.0776447,-214.468,0.238997,
2,1,0,1,0,26811,0.24333,0.243024,70.1011,14,0.0143819,10,0.0170363,-1.15427,-0.657208,-0.0897738,-244.772,0.243024,
2,1,0,1,0,26811,0.247326,0.246993,69.0755,14,0.0146602,10,0.0170612,-1.16068,-0.581089,-0.101533,-272.746,0.246993,
2,1,0,1,0,26811.1,0.251321,0.251009,67.9271,14,0.0149341,10,0.0170503,-1.16796,-0.524645,-0.112457,-297.108,0.251009,
2,1,0,1,0,26811.1,0.255316,0.255021,66.6691,14,0.0152032,10,0.017002,-1.17608,-0.477541,-0.12355,-320.549,0.255021,
2,1,0,1,0,26811.1,0.259311,0.259027,65.3467,14,0.0154672,10,0.0169265,-1.18478,-0.442777,-0.13325,-338.969,0.259027,
2,1,0,1,0,26811.1,0.263306,0.262983,63.9499,14,0.0157256,10,0.0168178,-1.19416,-0.425611,-0.138624,-345.445,0.262983,
2,1,0,1,0,26811.1,0.267302,0.266983,62.5124,14,0.0159784,10,0.0166897,-1.20403,-0.401669,-0.146887,-357.945,0.266983,
2,1,0,1,0,26811.1,0.271347,0.271096,61.1158,14,0.0162256,10,0.0165683,-1.21385,-0.388859,-0.151726,-361.221,0.271096,
2,1,0,1,0,26811.1,0.275342,0.275019,59.6224,14,0.0164669,10,0.0163973,-1.22459,-0.378418,-0.155912,-362.372,0.275019,
2,1,0,1,0,26811.1,0.279337,0.279046,58.1476,14,0.0167023,10,0.0162259,-1.23547,-0.36421,-0.161994,-367.584,0.279046,
2,1,0,1,0,26811.1,0.283332,0.283049,56.6904,14,0.0169318,10,0.0160462,-1.24649,-0.364846,-0.161712,-357.906,0.283049,
2,1,0,1,0,26811.1,0.287327,0.287008,55.267,14,0.0171556,10,0.0158621,-1.25753,-0.363593,-0.16227,-350.237,0.287008,
2,1,0,1,0,26811.1,0.291322,0.291021,53.895,14,0.0173738,10,0.0156846,-1.26845,-0.365924,-0.161236,-339.722,0.291021,
2,1,0,1,0,26811.1,0.295318,0.295012,52.5559,14,0.0175865,10,0.0155046,-1.27938,-0.367182,-0.160683,-333.214,0.295012,
2,1,0,1,0,26811.1,0.299013,0.298701,51.3731,14,0.0177788,10,0.0153452,-1.28926,-0.143328,-0.411644,-815.165,0.298701,
2,1,0,0,0,26811.1,0.300012,0.299632,51.0605,14,0.01783,10,0.0152993,-1.29192,0.00389387,15.152,27054,0.299632,
2,1,0,1,0,26811.1,0.298714,0.298605,47.7127,14,0.0178929,10,0.0142473,-1.32137,0.0431919,1.366,2219.77,0.298605,
2,1,0,1,0,26811.1,0.294718,0.294531,39.5597,14,0.0180659,10,0.0116516,-1.40275,0.0498298,1.18403,1769.17,0.294531,
2,1,0,1,0,26811.1,0.290723,0.290523,33.219,14,0.0182105,10,0.00965087,-1.47861,0.0511175,1.1542,1529.63,0.290523,
2,1,0,1,0,26811.1,0.286728,0.286509,27.8443,14,0.0183319,10,0.00797764,-1.55526,0.0502213,1.1748,1284.56,0.286509,
2,1,0,1,0,26811.1,0.282733,0.282541,23.1406,14,0.0184332,10,0.00653819,-1.63562,0.0474024,1.24466,1121.07,0.282541,
2,1,0,1,0,26811.1,0.278738,0.278505,18.9735,14,0.0185169,10,0.00528422,-1.72185,0.0434816,1.3569,993.627,0.278505,
2,1,0,1,0,26811.1,0.274742,0.274493,15.248,14,0.0185849,10,0.00418547,-1.81679,0.0384799,1.53327,889.766,0.2744928,
2,1,0,1,0,26811.1,0.270747,0.270474,11.911,14,0.0186388,10,0.00322162,-1.92405,0.0326671,1.8061,801.256,0.270474,
2,1,0,1,0,26811.1,0.266702,0.266483,8.85212,14,0.0186799,10,0.00235893,-2.05295,0.0257232,2.29365,725.196,0.2664825,
2,1,0,1,0,26811.1,0.262707,0.262476,6.13011,14,0.0187095,10,0.00160901,-2.21253,0.017022,3.46609,659.288,0.2624763,
2,1,0,1,0,26811.1,0.258712,0.258483,3.63761,14,0.0187287,10,0.00094026,-2.43918,0.0146169,4.03643,595.201,0.258483,
2,1,0,1,0,26811.1,0.254717,0.254485,1.36977,14,0.0187384,10,0.000348586,-2.86335,0.0430755,1.36969,545.461,0.254485,
2,0,0,1,0,26811.2,0.250722,0.250425,-0.705462,14,0.0187395,10,-0.000176665,-3.15153,-0.203384,-0.290091,499.24,0.250425,
2,0,0,1,0,26811.2,0.246726,0.246463,-2.60448,14,0.0187327,10,-0.000641907,-2.58428,-0.0250333,-2.35686,458.73,0.246463,
2,0,0,1,0,26811.2,0.242731,0.242461,-4.36106,14,0.0187185,10,-0.00105739,-2.36041,-0.0155649,-3.79059,424.434,0.2424611,
2,0,0,1,0,26811.2,0.238736,0.238459,-5.98181,14,0.0186976,10,-0.00142642,-2.22317,-0.0300877,-1.96093,391.519,0.238459,
2,0,0,1,0,26811.2,0.234741,0.234465,-7.47952,14,0.0186705,10,-0.00175368,-2.12613,-0.0433183,-1.36201,365.607,0.234465,
2,0,0,1,0,26811.2,0.230746,0.230437,-8.87893,14,0.0186376,10,-0.00204604,-2.05164,-0.0572179,-1.03115,338.119,0.230437,
2,0,0,1,0,26811.2,0.226701,0.226447,-10.216,14,0.0185994,10,-0.00231338,-1.99072,-0.0715331,-0.824792,315.161,0.226447,
2,0,0,1,0,26811.2,0.222705,0.222432,-11.4008,14,0.018556,10,-0.00253591,-1.94306,-0.0865269,-0.681869,294.52,0.222432,
2,0,0,1,0,26811.2,0.21871,0.218422,-12.5356,14,0.018508,10,-0.00273805,-1.90185,-0.10356,-0.569717,272.863,0.218422,
2,0,0,1,0,26811.2,0.214715,0.214444,-13.5892,14,0.0184556,10,-0.00291412,-1.86681,-0.118874,-0.496323,258.784,0.214444,
2,0,0,1,0,26811.2,0.21072,0.210426,-14.5874,14,0.0183991,10,-0.00306958,-1.83602,-0.136571,-0.432011,242.594,0.210426,
2,0,0,1,0,26811.2,0.206725,0.206469,-15.5319,14,0.0183388,10,-0.00320685,-1.80878,-0.153732,-0.383786,230.008,0.206469,
2,0,0,1,0,26811.2,0.202729,0.202427,-16.4159,14,0.0182748,10,-0.00332302,-1.78473,-0.171645,-0.343733,218.265,0.202427,
2,0,0,1,0,26811.2,0.198734,0.198438,-17.2707,14,0.0182074,10,-0.00342716,-1.76269,-0.189821,-0.310819,207.959,0.198438,
2,0,0,1,0,26811.2,0.194739,0.194433,-18.0781,14,0.0181366,10,-0.00351499,-1.74285,-0.205624,-0.286932,201.287,0.194433,
2,0,0,1,0,26811.2,0.190744,0.190448,-18.8635,14,0.0180626,10,-0.00359253,-1.72438,-0.223532,-0.263945,193.486,0.190448,
2,0,0,1,0,26811.2,0.186735,0.186458,-19.6302,14,0.0179856,10,-0.00366021,-1.70707,-0.238942,-0.246922,188.406,0.186458,
2,0,0,1,0,26811.2,0.182704,0.182358,-20.3819,14,0.0179054,10,-0.00371681,-1.69075,-0.254877,-0.231484,183.382,0.182358,
2,0,0,1,0,26811.2,0.178709,0.178384,-21.1019,14,0.0178223,10,-0.00376424,-1.67568,-0.271354,-0.217428,178.45,0.178384,
2,0,0,1,0,26811.2,0.174713,0.174406,-21.8053,14,0.0177365,10,-0.00380299,-1.66144,-0.283063,-0.208434,177.017,0.174406,
2,0,0,1,0,26811.2,0.170718,0.170406,-22.4946,14,0.0176478,10,-0.00383323,-1.64792,-0.294576,-0.200288,175.648,0.170406,
2,0,0,1,0,26811.2,0.166723,0.166432,-23.2011,14,0.0175563,10,-0.00386141,-1.63449,-0.301168,-0.195904,177.345,0.166432,
2,0,0,1,0,26811.2,0.162728,0.162463,-23.8984,14,0.0174621,10,-0.0038826,-1.62163,-0.302546,-0.195012,182.036,0.162463,
2,0,0,1,0,26811.2,0.158733,0.158397,-24.6444,14,0.0173649,10,-0.00390361,-1.60828,-0.304054,-0.194044,186.772,0.158397,
2,0,0,1,0,26811.2,0.154737,0.15444,-25.4011,14,0.0172648,10,-0.00392294,-1.59515,-0.299965,-0.196689,195.212,0.15444,
2,0,0,1,0,26811.3,0.150742,0.150455,-26.1852,14,0.0171615,10,-0.0039397,-1.58194,-0.289767,-0.203612,208.82,0.150455,
2,0,0,1,0,26811.3,0.146747,0.146434,-27.0275,14,0.017055,10,-0.00395774,-1.56819,-0.282989,-0.208489,220.791,0.146434,
2,0,0,1,0,26811.3,0.142702,0.142405,-27.9839,14,0.0169449,10,-0.00398506,-1.55309,-0.271269,-0.217497,238.12,0.142405,
2,0,0,1,0,26811.3,0.138707,0.138381,-28.9467,14,0.016831,10,-0.00400568,-1.5384,-0.259763,-0.227131,257.414,0.138381,
2,0,0,1,0,26811.3,0.134712,0.134403,-30.0076,14,0.016713,10,-0.0040331,-1.52277,-0.251393,-0.234693,276.015,0.1344025,
2,0,0,1,0,26811.3,0.130717,0.130421,-31.1495,14,0.0165906,10,-0.00406254,-1.50655,-0.239724,-0.246117,300.519,0.130421,
2,0,0,1,0,26811.3,0.126721,0.126429,-32.3935,14,0.0164634,10,-0.00409549,-1.48954,-0.230051,-0.256465,325.632,0.126429,
2,0,0,1,0,26811.3,0.122726,0.122396,-33.7507,14,0.016331,10,-0.00413094,-1.47172,-0.22279,-0.264823,350.075,0.122396,
2,0,0,1,0,26811.3,0.118731,0.118464,-35.1979,14,0.016193,10,-0.00416966,-1.45348,-0.217534,-0.271222,373.522,0.118464,
2,0,0,1,0,26811.3,0.114736,0.114425,-36.749,14,0.016049,10,-0.00420502,-1.43475,-0.216323,-0.27274,391.416,0.1144255,
2,0,0,1,0,26811.3,0.110741,0.110483,-38.3499,14,0.0158986,10,-0.004237,-1.41624,-0.217248,-0.27158,406.523,0.1104829,
2,0,0,1,0,26811.3,0.106745,0.106506,-39.97,14,0.0157418,10,-0.00425706,-1.39827,-0.221408,-0.266476,415.749,0.106506,
2,0,0,1,0,26811.3,0.102703,0.102479,-41.696,14,0.0155784,10,-0.00427296,-1.37991,-0.229032,-0.257605,418.326,0.102479,
2,0,0,1,0,26811.3,0.0987052,0.0984558,-43.3884,14,0.0154081,10,-0.00427184,-1.36263,-0.238212,-0.247678,418.03,0.0984558,
2,0,0,1,0,26811.3,0.09471,0.0944676,-45.0495,14,0.015231,10,-0.00425571,-1.34631,-0.251613,-0.234487,411,0.0944676,
2,0,0,1,0,26811.3,0.0907148,0.0904105,-46.6986,14,0.0150473,10,-0.00422204,-1.3307,-0.265435,-0.222277,403.66,0.0904105,
2,0,0,1,0,26811.3,0.0867197,0.0864382,-48.2887,14,0.0148572,10,-0.00417399,-1.31615,-0.282648,-0.20874,391.959,0.0864382,
2,0,0,1,0,26811.3,0.0827245,0.0825094,-49.8253,14,0.0146608,10,-0.00411106,-1.30255,-0.304224,-0.193936,375.57,0.0825094,
2,0,0,1,0,26811.3,0.0787293,0.0784841,-51.3143,14,0.0144584,10,-0.00402736,-1.28976,-0.326773,-0.180554,360.08,0.0784841,
2,0,0,1,0,26811.3,0.0747341,0.0745277,-52.6636,14,0.0142502,10,-0.0039249,-1.27849,-0.349567,-0.16878,346.065,0.0745277,
2,0,0,1,0,26811.3,0.070739,0.0705204,-54.0204,14,0.0140367,10,-0.00380954,-1.26744,-0.377556,-0.156268,328.671,0.0705204,
2,0,0,1,0,26811.3,0.0667438,0.0665535,-55.3471,14,0.0138178,10,-0.00368354,-1.25691,-0.402988,-0.146407,315.155,0.0665535,
2,0,0,1,0,26811.3,0.0627403,0.0625388,-56.5551,14,0.0135939,10,-0.00353689,-1.24753,-0.439351,-0.134289,295.317,0.06253875,
2,0,0,1,0,26811.3,0.0587035,0.0584594,-57.7277,14,0.0133651,10,-0.00337472,-1.23862,-0.491662,-0.120001,269.201,0.0584594,
2,0,0,1,0,26811.3,0.0547083,0.0545284,-58.7431,14,0.013132,10,-0.00320317,-1.23104,-0.545748,-0.108109,246.869,0.0545284,
2,0,0,1,0,26811.4,0.0507132,0.0504957,-59.6699,14,0.0128951,10,-0.00301307,-1.22425,-0.615138,-0.0959134,222.665,0.0504957,
2,0,0,1,0,26811.4,0.046718,0.0465075,-60.5127,14,0.0126546,10,-0.0028143,-1.21815,-0.686036,-0.0860013,202.584,0.04650753,
2,0,0,1,0,26811.4,0.0427228,0.0425151,-61.2779,14,0.0124109,10,-0.00260524,-1.2127,-0.757692,-0.0778681,185.825,0.0425151,
2,0,0,1,0,26811.4,0.0387276,0.0384378,-62.0028,14,0.0121643,10,-0.00238325,-1.20759,-0.847243,-0.0696376,168.094,0.0384378,
2,0,0,1,0,26811.4,0.0347325,0.0344592,-62.6498,14,0.0119149,10,-0.00215886,-1.20308,-0.953627,-0.0618691,150.863,0.0344592,
2,0,0,1,0,26811.4,0.0307373,0.0304721,-63.2082,14,0.0116631,10,-0.00192608,-1.19923,-1.09911,-0.05368,132.088,0.0304721,
2,0,0,1,0,26811.4,0.0267421,0.0264648,-63.6993,14,0.0114092,10,-0.00168579,-1.19587,-1.2403,-0.0475691,118.056,0.0264648,
2,0,0,1,0,26811.4,0.022747,0.0224883,-64.1095,14,0.0111535,10,-0.00144171,-1.19308,-1.44784,-0.0407504,101.82,0.0224883,
2,0,0,1,0,26811.4,0.0187018,0.0184311,-64.542,14,0.0108962,10,-0.00118958,-1.19016,-1.68881,-0.0349358,87.8064,0.0184311,
2,0,0,1,0,26811.4,0.0147067,0.0143974,-64.8449,14,0.0106374,10,-0.000933595,-1.18812,-1.97345,-0.0298969,75.5068,0.0143974,
2,0,0,1,0,26811.4,0.0107115,0.0104251,-65.1077,14,0.0103774,10,-0.000678753,-1.18637,-2.54265,-0.0232041,58.8752,0.0104251,
2,0,0,1,0,26811.4,0.00671632,0.00643583,-65.3216,14,0.0101165,10,-0.000420399,-1.18494,-3.02107,-0.0195295,49.7272,0.00643583,
2,0,0,1,0,26811.4,0.00272115,0.00237659,-65.4873,14,0.00985491,10,-0.000155636,-1.18384,-4.01159,-0.0147074,37.5431,0.002376592,
2,0,0,1,0,26811.4,-0.00127403,-0.00167734,-65.6442,14,0.00959257,10,0.000110108,-1.1828,-5.73407,-0.0102894,26.3154,-0.00167734,
2,0,0,1,0,26811.4,-0.0052692,-0.00559767,-65.7092,14,0.00932985,10,0.000367818,-1.18237,-10.1488,-0.00581348,14.8848,-0.00559767,
2,0,0,1,0,26811.4,-0.00926438,-0.00960601,-65.7438,14,0.00906693,10,0.000631535,-1.18215,-134.131,-0.000439869,1.12705,-0.00960601,
2,0,0,1,0,26811.4,-0.0132596,-0.013609,-65.7252,14,0.00880399,10,0.000894457,-1.18227,25.7435,0.00229184,-5.87302,-0.013609,
2,0,0,1,0,26811.4,-0.0172547,-0.0176036,-65.6622,14,0.0085412,10,0.00115589,-1.18268,8.54182,0.00690719,-17.6841,-0.0176036,
2,0,0,1,0,26811.4,-0.0212915,-0.0216862,-65.6147,14,0.0082787,10,0.00142293,-1.183,5.20965,0.0113251,-28.9466,-0.0216862,
2,0,0,1,0,26811.4,-0.025295,-0.0256351,-65.4603,14,0.00801654,10,0.00167808,-1.18402,3.71806,0.0158685,-40.4633,-0.0256351,
2,0,0,1,0,26811.4,-0.0292902,-0.0296806,-65.26,14,0.00775512,10,0.00193695,-1.18535,2.76672,0.0213249,-54.2463,-0.0296806,
2,0,0,1,0,26811.4,-0.0332854,-0.0336306,-65.0137,14,0.00749458,10,0.00218645,-1.187,2.30299,0.0256189,-64.9282,-0.0336306,
2,0,0,1,0,26811.4,-0.0372805,-0.0376463,-64.749,14,0.00723509,10,0.00243756,-1.18877,2.01427,0.0292909,-73.9254,-0.0376463,
2,0,0,1,0,26811.4,-0.0412757,-0.0416324,-64.4216,14,0.00697676,10,0.00268203,-1.19097,1.84132,0.0320422,-80.4936,-0.0416324,
2,0,0,1,0,26811.4,-0.0452709,-0.0456185,-64.0818,14,0.00671977,10,0.00292331,-1.19327,1.67538,0.0352159,-88.0201,-0.0456185,
2,0,0,1,0,26811.5,-0.0492661,-0.0496024,-63.7281,14,0.00646419,10,0.00316107,-1.19567,1.59488,0.0369933,-91.9446,-0.0496024,
2,0,0,1,0,26811.5,-0.0532612,-0.0536034,-63.3444,14,0.00621007,10,0.00339547,-1.19829,1.53955,0.038323,-94.7061,-0.0536034,
2,0,0,1,0,26811.5,-0.0572564,-0.0575862,-62.9547,14,0.00595751,10,0.00362533,-1.20097,1.5442,0.0382074,-93.8977,-0.0575862,
2,0,0,1,0,26811.5,-0.0612544,-0.0615978,-62.5684,14,0.0057065,10,0.00385408,-1.20364,1.53507,0.0384347,-93.8797,-0.0615978,
2,0,0,1,0,26811.5,-0.0652967,-0.0656549,-62.2208,14,0.00545686,10,0.0040851,-1.20606,1.5334,0.0384766,-93.4034,-0.0656549,
2,0,0,1,0,26811.5,-0.0692919,-0.0696728,-61.8358,14,0.0052088,10,0.00430827,-1.20876,1.55308,0.0379889,-91.6691,-0.0696728,
2,0,0,1,0,26811.5,-0.0732871,-0.0736472,-61.4546,14,0.00496227,10,0.00452596,-1.21145,1.55908,0.0378428,-90.8156,-0.0736472,
2,0,0,1,0,26811.5,-0.0772822,-0.0776353,-61.0983,14,0.0047172,10,0.00474339,-1.21397,1.62354,0.0363403,-86.7145,-0.0776353,
2,0,0,1,0,26811.5,-0.0812774,-0.0816564,-60.7676,14,0.00447352,10,0.00496206,-1.21633,1.73648,0.0339768,-80.6337,-0.0816564,
2,0,0,1,0,26811.5,-0.0852726,-0.0856149,-60.4534,14,0.00423112,10,0.00517571,-1.21858,1.87325,0.0314961,-74.3698,-0.08561492,
2,0,0,1,0,26811.5,-0.0892678,-0.0895957,-60.1686,14,0.00398991,10,0.00539085,-1.22063,2.02228,0.029175,-68.5652,-0.0895957,
2,0,0,1,0,26811.5,-0.0932629,-0.0935934,-59.9115,14,0.00374979,10,0.00560732,-1.22249,2.29471,0.0257113,-60.175,-0.0935934,
2,0,0,1,0,26811.5,-0.0972581,-0.097624,-59.6728,14,0.00351065,10,0.00582549,-1.22422,2.75572,0.02141,-49.9393,-0.097624,
2,0,0,1,0,26811.5,-0.101253,-0.101662,-59.4878,14,0.00327236,10,0.00604765,-1.22557,3.15242,0.0187158,-43.5043,-0.101662,
2,0,0,1,0,26811.5,-0.105298,-0.105644,-59.3672,14,0.00303467,10,0.00627178,-1.22645,3.73438,0.0157991,-36.6127,-0.105644,
2,0,0,1,0,26811.5,-0.109294,-0.109682,-59.2116,14,0.00279754,10,0.00649444,-1.22759,4.37603,0.0134826,-31.1701,-0.109682,
2,0,0,1,0,26811.5,-0.113289,-0.113636,-59.0865,14,0.00256098,10,0.00671436,-1.22851,5.05453,0.0116727,-26.9463,-0.113636,
2,0,0,1,0,26811.5,-0.117284,-0.117654,-58.9893,14,0.00232483,10,0.00694033,-1.22923,6.67421,0.00884,-20.3717,-0.117654,
2,0,0,1,0,26811.5,-0.121279,-0.121649,-58.9359,14,0.00208899,10,0.00716947,-1.22962,10.1451,0.00581561,-13.3863,-0.121649,
2,0,0,1,0,26811.5,-0.125274,-0.125641,-58.8864,14,0.00185336,10,0.00739855,-1.22998,20.7388,0.00284491,-6.54366,-0.125641,
2,0,0,1,0,26811.5,-0.129269,-0.129622,-58.8725,14,0.00161783,10,0.00763116,-1.23009,87.3057,0.000675787,-1.55404,-0.1296218,
2,0,0,1,0,26811.5,-0.133265,-0.133616,-58.8849,14,0.00138233,10,0.00786798,-1.23,-24.9758,-0.00236229,5.4329,-0.133616,
2,0,0,1,0,26811.5,-0.13726,-0.137611,-58.9111,14,0.00114674,10,0.00810681,-1.2298,-10.0006,-0.00589963,13.5801,-0.137611,
2,0,0,1,0,26811.5,-0.141255,-0.141581,-58.973,14,0.000910965,10,0.00834947,-1.22935,-7.84192,-0.00752367,17.3309,-0.141581,
2,0,0,1,0,26811.5,-0.145286,-0.145645,-59.0901,14,0.000674906,10,0.00860615,-1.22849,-6.29118,-0.00937821,21.625,-0.145645,
2,0,0,1,0,26811.6,-0.149295,-0.149656,-59.1628,14,0.000438376,10,0.00885408,-1.22795,-5.59385,-0.0105473,24.3553,-0.149656,
2,0,0,1,0,26811.6,-0.15329,-0.153642,-59.2578,14,0.000201532,10,0.00910449,-1.22725,-5.49291,-0.0107411,24.8535,-0.153642,
2,0,0,1,0,26811.6,-0.157286,-0.157623,-59.3637,14,-3.5715e-05,10,0.00935709,-1.22648,-4.74873,-0.0124244,28.7981,-0.157623,
2,0,0,1,0,26811.6,-0.161281,-0.161662,-59.4882,14,-0.000273439,10,0.00961698,-1.22557,-4.39441,-0.0134261,31.1799,-0.161662,
2,0,0,1,0,26811.6,-0.165276,-0.165574,-59.6212,14,-0.000511664,10,0.00987172,-1.2246,-4.09345,-0.0144133,33.5431,-0.165574,
2,0,0,1,0,26811.6,-0.169271,-0.169575,-59.7546,14,-0.000750433,10,0.0101329,-1.22363,-3.92177,-0.0150442,35.0914,-0.169575,
2,0,0,1,0,26811.6,-0.173266,-0.173621,-59.9004,14,-0.000989751,10,0.0104,-1.22257,-3.8093,-0.0154884,36.2138,-0.173621,
2,0,0,1,0,26811.6,-0.177261,-0.17762,-60.0482,14,-0.00122965,10,0.0106658,-1.2215,-3.57772,-0.0164909,38.6563,-0.17762,
2,0,0,1,0,26811.6,-0.181257,-0.181582,-60.2009,14,-0.00147018,10,0.0109314,-1.2204,-3.261,-0.0180926,42.5348,-0.181582,
2,0,0,1,0,26811.6,-0.185252,-0.185592,-60.3737,14,-0.00171134,10,0.0112049,-1.21915,-3.22663,-0.0182853,43.0967,-0.1855922,
2,0,0,1,0,26811.6,-0.189297,-0.189585,-60.5794,14,-0.00195331,10,0.0114849,-1.21768,-3.17041,-0.0186096,43.9779,-0.189585,
2,0,0,1,0,26811.6,-0.193292,-0.193598,-60.7368,14,-0.00219596,10,0.0117585,-1.21655,-3.13613,-0.018813,44.5664,-0.193598,
2,0,0,1,0,26811.6,-0.197287,-0.197615,-60.9061,14,-0.00243926,10,0.012036,-1.21534,-15.2452,-0.00387007,9.15731,-0.1976151,
2,0,0,0,0,26811.6,-0.199984,-0.200246,-61.0268,14,-0.00260386,10,0.0122204,-1.21448,0.0616503,0.957012,-2123.97,-0.200246,
2,0,0,0,1,26811.6,-0.199984,-0.200589,-60.6802,14,-0.00264031,10,0.0121718,-1.21695,-0.0377017,-1.56492,3259.19,-0.200589,
2,0,0,1,1,26811.6,-0.196688,-0.197162,-53.1669,14,-0.00281374,10,0.0104825,-1.27436,-0.0640333,-0.921395,1809.75,-0.1971623,
2,0,0,1,1,26811.6,-0.192693,-0.193187,-46.4735,14,-0.00301191,10,0.00897806,-1.33279,-0.0688758,-0.856614,1583.23,-0.193187,
2,0,0,1,1,26811.6,-0.188698,-0.189157,-40.9591,14,-0.00318599,10,0.00774772,-1.38765,-0.0726324,-0.812309,1320.09,-0.189157,
2,0,0,1,1,26811.6,-0.184653,-0.185093,-36.1453,14,-0.00333958,10,0.00669023,-1.44195,-0.0735517,-0.802157,1142.69,-0.185093,
2,0,0,1,1,26811.6,-0.180657,-0.181063,-31.9146,14,-0.00347516,10,0.00577856,-1.49601,-0.072078,-0.818557,1023.73,-0.181063,
2,0,0,1,1,26811.6,-0.176662,-0.17708,-28.0688,14,-0.00359466,10,0.00497042,-1.55178,-0.0691737,-0.852925,932.929,-0.17708,
2,0,0,1,1,26811.6,-0.172667,-0.173109,-24.5302,14,-0.00369942,10,0.00424639,-1.6103,-0.0652845,-0.903737,860.374,-0.173109,
2,0,0,1,1,26811.6,-0.168672,-0.169101,-21.2259,14,-0.00379054,10,0.00358931,-1.67313,-0.0603535,-0.977573,802.212,-0.169101,
2,0,0,1,1,26811.6,-0.164677,-0.165075,-18.1592,14,-0.00386896,10,0.00299763,-1.7409,-0.0548249,-1.07615,750.654,-0.165075,
2,0,0,1,1,26811.6,-0.160682,-0.161132,-15.2747,14,-0.00393547,10,0.00246123,-1.81603,-0.0486388,-1.21302,705.043,-0.1611318,
2,0,0,1,1,26811.6,-0.156686,-0.157144,-12.5456,14,-0.00399082,10,0.00197146,-1.90151,-0.0413752,-1.42598,670.009,-0.157144,
2,0,0,1,1,26811.6,-0.152691,-0.15313,-9.96577,14,-0.00403554,10,0.00152606,-2.00149,-0.0336088,-1.75549,635.377,-0.15313,
2,0,0,1,1,26811.7,-0.148696,-0.149134,-7.47849,14,-0.00407014,10,0.0011153,-2.12619,-0.0248448,-2.37474,605.294,-0.149134,
2,0,0,1,1,26811.7,-0.14467,-0.145115,-5.09822,14,-0.00409507,10,0.00073983,-2.29258,-0.0138349,-4.26458,579.683,-0.145115,
2,0,0,1,1,26811.7,-0.140656,-0.141105,-2.83751,14,-0.00411066,10,0.000400387,-2.54706,-0.0217241,-2.71588,551.05,-0.141105,
2,0,0,1,1,26811.7,-0.136661,-0.137139,-0.696098,14,-0.0041175,10,9.54622e-05,-3.15733,-0.0885433,-0.666341,530.522,-0.137139,
2,1,0,1,1,26811.7,-0.132665,-0.133086,1.36486,14,-0.00411594,10,-0.000181644,-2.86491,0.0588001,1.0034,510.337,-0.133086,
2,1,0,1,1,26811.7,-0.12867,-0.129159,3.36677,14,-0.00410624,10,-0.00043485,-2.47279,0.0158179,3.72994,489.904,-0.129159,
2,1,0,1,1,26811.7,-0.124675,-0.125166,5.29674,14,-0.00408871,10,-0.000662971,-2.27599,0.0194626,3.03146,476.589,-0.125166,
2,1,0,1,1,26811.7,-0.12068,-0.121149,7.13741,14,-0.00406363,10,-0.000864691,-2.14646,0.0318715,1.85118,457.743,-0.121149,
2,1,0,1,1,26811.7,-0.116685,-0.117207,8.93289,14,-0.00403129,10,-0.00104699,-2.04901,0.0432324,1.36472,444.673,-0.117207,
2,1,0,1,1,26811.7,-0.112689,-0.113177,10.6826,14,-0.0039919,10,-0.00120903,-1.97132,0.0542468,1.08762,433.295,-0.113177,
2,1,0,1,1,26811.7,-0.108694,-0.109203,12.3952,14,-0.00394554,10,-0.00135359,-1.90675,0.06543,0.901727,422.497,-0.109203,
2,1,0,1,1,26811.7,-0.104699,-0.105187,14.0538,14,-0.00389245,10,-0.00147827,-1.85221,0.0771481,0.764762,409.151,-0.105187,
2,1,0,1,1,26811.7,-0.100654,-0.101158,15.7132,14,-0.00383268,10,-0.00158952,-1.80374,0.0892641,0.66096,396.316,-0.101158,
2,1,0,1,1,26811.7,-0.0966588,-0.0971055,17.2583,14,-0.00376658,10,-0.00167588,-1.763,0.101553,0.580979,384.727,-0.0971055,
2,1,0,1,1,26811.7,-0.0926636,-0.0931109,18.7726,14,-0.00369435,10,-0.00174793,-1.72648,0.114768,0.514082,372.051,-0.0931109,
2,1,0,1,1,26811.7,-0.0886685,-0.089057,20.2594,14,-0.00361612,10,-0.00180424,-1.69337,0.126631,0.465922,364.163,-0.089057,
2,1,0,1,1,26811.7,-0.0846733,-0.0850773,21.6962,14,-0.00353205,10,-0.00184585,-1.66362,0.140226,0.420751,352.589,-0.0850773,
2,1,0,1,1,26811.7,-0.0806781,-0.0811262,23.0774,14,-0.00344235,10,-0.00187218,-1.63681,0.153292,0.384886,343.836,-0.0811262,
2,1,0,1,1,26811.7,-0.076683,-0.0770956,24.4194,14,-0.00334721,10,-0.00188263,-1.61226,0.167386,0.352478,333.769,-0.0770956,
2,1,0,1,1,26811.7,-0.0726878,-0.073117,25.7401,14,-0.00324675,10,-0.00188204,-1.58939,0.181599,0.324892,324.484,-0.073117,
2,1,0,1,1,26811.7,-0.0686926,-0.0691107,27.0253,14,-0.00314108,10,-0.00186774,-1.56823,0.19316,0.305446,320.725,-0.0691107,
2,1,0,1,1,26811.7,-0.0646974,-0.0650886,28.2813,14,-0.00303032,10,-0.00184079,-1.5485,0.20957,0.281529,309.302,-0.0650886,
2,1,0,1,1,26811.7,-0.0606523,-0.0610866,29.5539,14,-0.00291455,10,-0.00180535,-1.52939,0.224983,0.262241,300.585,-0.06108664,
2,1,0,1,1,26811.7,-0.0566571,-0.057055,30.7081,14,-0.00279391,10,-0.00175205,-1.51275,0.240252,0.245576,292.927,-0.057055,
2,1,0,1,1,26811.7,-0.052662,-0.0530721,31.8463,14,-0.00266866,10,-0.00169015,-1.49694,0.260149,0.226793,280.991,-0.0530721,
2,1,0,1,1,26811.8,-0.0486668,-0.0490945,32.9664,14,-0.00253893,10,-0.00161847,-1.48193,0.275293,0.214317,274.769,-0.0490945,
2,1,0,1,1,26811.8,-0.0446716,-0.0451021,34.0454,14,-0.00240477,10,-0.00153552,-1.46794,0.293857,0.200778,265.834,-0.0451021,
2,1,0,1,1,26811.8,-0.0406764,-0.0411033,35.0912,14,-0.00226639,10,-0.00144236,-1.4548,0.313855,0.187985,256.637,-0.0411033,
2,1,0,1,1,26811.8,-0.0366813,-0.0370928,36.0941,14,-0.00212393,10,-0.00133883,-1.44256,0.332923,0.177218,248.989,-0.0370928,
2,1,0,1,1,26811.8,-0.0326861,-0.0330813,37.076,14,-0.00197747,10,-0.00122652,-1.43091,0.353904,0.166712,240.628,-0.0330813,
2,1,0,1,1,26811.8,-0.0286909,-0.0291026,38.0291,14,-0.00182717,10,-0.00110675,-1.41988,0.371829,0.158675,234.994,-0.0291026,
2,1,0,1,1,26811.8,-0.0246957,-0.0250911,38.9442,14,-0.00167312,10,-0.000977153,-1.40956,0.393342,0.149997,227.539,-0.0250911,
2,1,0,1,1,26811.8,-0.0206756,-0.0210531,39.8634,14,-0.00151542,10,-0.000839247,-1.39943,0.421283,0.140048,217.236,-0.0210531,
2,1,0,1,1,26811.8,-0.0166554,-0.0170649,40.7204,14,-0.00135415,10,-0.000694889,-1.39019,0.445672,0.132384,209.805,-0.0170649,
2,1,0,1,1,26811.8,-0.0126603,-0.013064,41.5133,14,-0.00118957,10,-0.000542329,-1.38181,0.476428,0.123838,200.313,-0.013064,
2,1,0,1,1,26811.8,-0.0086651,-0.00900475,42.3192,14,-0.00102183,10,-0.000381074,-1.37346,0.506556,0.116473,191.851,-0.00900475,
2,1,0,1,1,26811.8,-0.00466992,-0.00503777,43.0714,14,-0.000850979,10,-0.000216984,-1.36581, , , ,-0.005037772,
2,1,0,1,1,26811.8,-0.000974387,-0.00138944,43.7277,14,-0.000690356,10,-6.07571e-05,-1.35924, , , ,-0.00138944,
2,1,0,0,1,26811.8,-0.000175352,-0.000516197,43.8619,14,-0.000655337,10,-2.26413e-05,-1.35791, , , ,-0.000516197,