File: Figure_codes/Fig_3-5/rawdata_trumpetplot_data/after 10th/20221101_1-115_003_TrumpetPlot_ParaChange_from10_every3_12_CV_C01_23.csv
mode,ox/red,error,control changes,counter inc.,time/s,control/V,Ewe/V,<I>/mA,cycle number,(Q-Qo)/C,I Range,P/W,log(|I|),Tafel slope mV/dec,alpha_eff,dI/d(E-IR),E-IR/V,
2,1,0,1,0,46509.5,2.44065e-05,-0.000153538,15.2989,24,0.0000000E+000,10,-2.34896e-06,-1.81534, , , ,-0.000153538,
2,1,0,1,0,46509.5,0.00200257,0.00165976,16.2432,24,4.9323e-05,10,2.69597e-05,-1.78933, , , ,0.00165976,
2,1,0,1,0,46509.5,0.004408,0.00405203,17.0208,24,0.000116007,10,6.89688e-05,-1.76902, , , ,0.00405203,
2,1,0,1,0,46509.5,0.0068051,0.00645704,17.6463,24,0.000185439,10,0.000113943,-1.75335,0.153934,0.38328,261.205,0.00645704,
2,1,0,1,0,46509.5,0.00920221,0.00886204,18.2256,24,0.000257256,10,0.000161516,-1.73932,0.181249,0.325519,229.964,0.00886204,
2,1,0,1,0,46509.5,0.0115993,0.0112225,18.741,24,0.000331254,10,0.000210321,-1.72721,0.203654,0.289707,210.796,0.0112225,
2,1,0,1,0,46509.5,0.0140075,0.0136477,19.2274,24,0.000407254,10,0.000262409,-1.71608,0.225433,0.261719,195.577,0.0136477,
2,1,0,1,0,46509.5,0.0164046,0.0160983,19.6787,24,0.00048512,10,0.000316792,-1.706,0.243565,0.242235,185.517,0.0160983,
2,1,0,1,0,46509.6,0.0188017,0.0184481,20.1004,24,0.000564746,10,0.000370815,-1.69679,0.262675,0.224612,175.83,0.0184481,
2,1,0,1,0,46509.6,0.0212099,0.020887,20.5339,24,0.000646043,10,0.000428893,-1.68753,0.282823,0.208611,166.633,0.020887,
2,1,0,1,0,46509.6,0.023607,0.0232337,20.9129,24,0.000728968,10,0.000485886,-1.67958,0.303062,0.19468,158.445,0.0232337,
2,1,0,1,0,46509.6,0.0260041,0.0256886,21.2767,24,0.000813394,10,0.000546568,-1.6721,0.323954,0.182125,151.022,0.0256886,
2,1,0,1,0,46509.6,0.0284012,0.0280798,21.6265,24,0.000899231,10,0.000607268,-1.66501,0.342116,0.172456,145.416,0.0280798,
2,1,0,1,0,46509.6,0.0308067,0.0304455,21.9775,24,0.000986497,10,0.000669117,-1.65802,0.356107,0.16568,141.925,0.03044555,
2,1,0,1,0,46509.6,0.0332038,0.0328665,22.3137,24,0.00107511,10,0.000733372,-1.65143,0.369462,0.159692,138.876,0.0328665,
2,1,0,1,0,46509.6,0.0356009,0.0352672,22.6362,24,0.00116504,10,0.000798315,-1.6452,0.392603,0.150279,132.611,0.0352672,
2,1,0,1,0,46509.6,0.0380091,0.0376351,22.9535,24,0.00125626,10,0.000863859,-1.63915,0.408987,0.144259,129.085,0.0376351,
2,1,0,1,0,46509.6,0.0404062,0.0400889,23.2563,24,0.00134869,10,0.000932319,-1.63346,0.422138,0.139765,126.758,0.0400889,
2,1,0,1,0,46509.6,0.0428033,0.0424737,23.5539,24,0.00144234,10,0.00100042,-1.62794,0.438518,0.134544,123.634,0.0424737,
2,1,0,1,0,46509.6,0.0452032,0.0448597,23.8521,24,0.00153718,10,0.00107,-1.62247,0.448108,0.131665,122.491,0.0448597,
2,1,0,1,0,46509.6,0.0476058,0.0472933,24.1476,24,0.00163322,10,0.00114202,-1.61713,0.462838,0.127474,120.023,0.0472933,
2,1,0,1,0,46509.6,0.0500029,0.0496675,24.4296,24,0.00173042,10,0.00121336,-1.61208,0.464595,0.126992,121.067,0.0496675,
2,1,0,1,0,46509.6,0.0524,0.0520789,24.7067,24,0.00182873,10,0.0012867,-1.60719,0.477303,0.123611,119.22,0.0520789,
2,1,0,1,0,46509.6,0.0548082,0.0544468,25.0128,24,0.0019282,10,0.00136187,-1.60184,0.483051,0.12214,119.149,0.0544468,
2,1,0,1,0,46509.6,0.0572053,0.056855,25.2876,24,0.00202883,10,0.00143772,-1.59709,0.479401,0.12307,121.431,0.056855,
2,1,0,1,0,46509.6,0.0596024,0.0592462,25.5709,24,0.0021306,10,0.00151498,-1.59225,0.503884,0.11709,116.855,0.05924619,
2,1,0,1,0,46509.6,0.0620051,0.06163,25.8665,24,0.00223351,10,0.00159415,-1.58726,0.501146,0.11773,118.788,0.06163,
2,1,0,1,0,46509.6,0.0644077,0.064088,26.1394,24,0.00233755,10,0.00167522,-1.5827,0.503938,0.117078,119.444,0.064088,
2,1,0,1,0,46509.6,0.0668048,0.0664559,26.428,24,0.00244271,10,0.0017563,-1.57793,0.510835,0.115497,119.16,0.0664559,
2,1,0,1,0,46509.6,0.0692019,0.0688651,26.7198,24,0.00254903,10,0.00184006,-1.57317,0.504667,0.116909,121.902,0.06886515,
2,1,0,1,0,46509.6,0.0716074,0.0712585,27.0138,24,0.00265654,10,0.00192496,-1.56841,0.516362,0.114261,120.406,0.0712585,
2,1,0,1,0,46509.6,0.0740045,0.0736455,27.3045,24,0.00276521,10,0.00201085,-1.56377,0.515761,0.114394,121.875,0.07364545,
2,1,0,1,0,46509.6,0.0764016,0.0760473,27.5829,24,0.00287502,10,0.0020976,-1.55936,0.517862,0.11393,122.721,0.0760473,
2,1,0,1,0,46509.7,0.0788042,0.0784406,27.8868,24,0.00298599,10,0.00218746,-1.5546,0.521534,0.113128,123.153,0.0784406,
2,1,0,1,0,46509.7,0.0812069,0.080888,28.1956,24,0.00309819,10,0.00228068,-1.54982,0.517852,0.113932,125.309,0.080888,
2,1,0,1,0,46509.7,0.083604,0.0832877,28.4919,24,0.00321159,10,0.00237303,-1.54528,0.522391,0.112942,125.565,0.0832877,
2,1,0,1,0,46509.7,0.0860011,0.0856779,28.7897,24,0.00332619,10,0.00246664,-1.54076,0.531291,0.11105,124.769,0.0856779,
2,1,0,1,0,46509.7,0.0884065,0.0880712,29.0961,24,0.003442,10,0.00256253,-1.53617,0.525948,0.112178,127.379,0.0880712,
2,1,0,1,0,46509.7,0.0908036,0.0904646,29.3904,24,0.00355901,10,0.00265879,-1.53179,0.523066,0.112797,129.436,0.0904646,
2,1,0,1,0,46509.7,0.0932007,0.0928303,29.7075,24,0.00367724,10,0.00275775,-1.52713,0.532264,0.110847,128.523,0.0928303,
2,1,0,1,0,46509.7,0.0956034,0.0952247,30.0254,24,0.00379674,10,0.00285916,-1.52251,0.531574,0.110991,129.984,0.0952247,
2,1,0,1,0,46509.7,0.098006,0.0976796,30.331,24,0.00391749,10,0.00296272,-1.51811,0.546195,0.10802,127.801,0.09767957,
2,1,0,1,0,46509.7,0.100403,0.100035,30.6344,24,0.00403945,10,0.0030645,-1.51379,0.541861,0.108884,130.242,0.100035,
2,1,0,1,0,46509.7,0.1028,0.102411,30.9319,24,0.00416262,10,0.00316777,-1.50959,0.53676,0.109919,132.815,0.1024111,
2,1,0,1,0,46509.7,0.105208,0.104872,31.2819,24,0.0042871,10,0.00328061,-1.50471,0.541409,0.108975,132.988,0.1048723,
2,1,0,1,0,46509.7,0.107606,0.10723,31.5994,24,0.0044129,10,0.00338839,-1.50032,0.534923,0.110296,135.939,0.10723,
2,1,0,1,0,46509.7,0.110003,0.109653,31.9135,24,0.00453995,10,0.00349939,-1.49603,0.560176,0.105324,131.155,0.1096526,
2,1,0,1,0,46509.7,0.112408,0.112023,32.2385,24,0.00466828,10,0.00361144,-1.49163,0.55624,0.106069,133.44,0.112023,
2,1,0,1,0,46509.7,0.114805,0.114474,32.5413,24,0.00479788,10,0.00372514,-1.48757,0.559031,0.10554,134.08,0.114474,
2,1,0,1,0,46509.7,0.117202,0.116824,32.8797,24,0.00492874,10,0.00384114,-1.48307,0.567329,0.103996,133.432,0.116824,
2,1,0,1,0,46509.7,0.119599,0.119249,33.2002,24,0.00506093,10,0.0039591,-1.47886,0.563821,0.104643,135.514,0.119249,
2,1,0,1,0,46509.7,0.122008,0.121643,33.5221,24,0.00519443,10,0.00407772,-1.47467,0.559527,0.105446,138.017,0.121643,
2,1,0,1,0,46509.7,0.124405,0.124001,33.8323,24,0.00532916,10,0.00419523,-1.47067,0.538425,0.109579,144.933,0.124001,
2,1,0,1,0,46509.7,0.126802,0.126428,34.2052,24,0.00546529,10,0.0043245,-1.46591,0.519514,0.113568,151.766,0.126428,
2,1,0,1,0,46509.7,0.129207,0.128839,34.59,24,0.00560292,10,0.00445652,-1.46105,0.510612,0.115548,155.951,0.128839,
2,1,0,1,0,46509.7,0.131604,0.131195,34.9718,24,0.00574208,10,0.00458812,-1.45628,0.511539,0.115338,157.351,0.131195,
2,1,0,1,0,46509.7,0.134001,0.133699,35.3448,24,0.00588278,10,0.00472557,-1.45168,0.512539,0.115113,158.791,0.133699,
2,1,0,1,0,46509.7,0.136399,0.136052,35.7196,24,0.00602494,10,0.00485974,-1.44709,0.520388,0.113377,158.112,0.136052,
2,1,0,1,0,46509.8,0.138807,0.138427,36.1125,24,0.00616866,10,0.00499894,-1.44234,0.510865,0.11549,162.785,0.138427,
2,1,0,1,0,46509.8,0.141204,0.140899,36.5061,24,0.00631392,10,0.00514365,-1.43763,0.513969,0.114793,163.522,0.140899,
2,1,0,1,0,46509.8,0.143601,0.143249,36.8994,24,0.00646076,10,0.00528581,-1.43298,0.522182,0.112987,162.662,0.143249,
2,1,0,1,0,46509.8,0.146009,0.145673,37.2927,24,0.0066092,10,0.00543252,-1.42838,0.527082,0.111937,162.851,0.1456725,
2,1,0,1,0,46509.8,0.148406,0.148037,37.6758,24,0.00675917,10,0.00557742,-1.42394,0.537738,0.109719,161.305,0.148037,
2,1,0,1,0,46509.8,0.150803,0.150444,38.0606,24,0.00691069,10,0.005726,-1.41952,0.540982,0.109061,162.006,0.150444,
2,1,0,1,0,46509.8,0.153206,0.152878,38.4525,24,0.00706376,10,0.00587854,-1.41508,0.553272,0.106638,159.98,0.152878,
2,1,0,1,0,46509.8,0.155606,0.155241,38.8427,24,0.0072184,10,0.00602997,-1.41069,0.571347,0.103265,156.399,0.155241,
2,1,0,1,0,46509.8,0.158003,0.15766,39.2153,24,0.00737456,10,0.0061827,-1.40654,0.586911,0.100526,153.731,0.15766,
2,1,0,1,0,46509.8,0.1604,0.16006,39.5645,24,0.00753215,10,0.0063327,-1.40269,0.611755,0.0964438,148.877,0.16006,
2,1,0,1,0,46509.8,0.162808,0.162466,39.9265,24,0.00769118,10,0.0064867,-1.39874,0.63562,0.0928228,144.553,0.162466,
2,1,0,1,0,46509.8,0.165205,0.164852,40.2737,24,0.00785162,10,0.0066392,-1.39498,0.64951,0.0908376,142.669,0.164852,
2,1,0,1,0,46509.8,0.167602,0.167235,40.5993,24,0.00801339,10,0.00678962,-1.39148,0.696582,0.0846993,134.095,0.167235,
2,1,0,1,0,46509.8,0.170008,0.16964,40.9312,24,0.00817649,10,0.00694357,-1.38795,0.74763,0.078916,125.888,0.16964,
2,1,0,1,0,46509.8,0.172405,0.172065,41.2136,24,0.00834081,10,0.00709142,-1.38496,0.802169,0.0735505,118.162,0.172065,
2,1,0,1,0,46509.8,0.174802,0.174449,41.4818,24,0.00850624,10,0.00723645,-1.38214,0.89866,0.0656533,106.183,0.174449,
2,1,0,1,0,46509.8,0.177199,0.176857,41.7363,24,0.0086727,10,0.00738135,-1.37949,0.993996,0.0593564,96.5408,0.176857,
2,1,0,1,0,46509.8,0.179607,0.179291,41.956,24,0.00884011,10,0.00752231,-1.37721,1.16069,0.0508318,83.0835,0.179291,
2,1,0,1,0,46509.8,0.182005,0.181667,42.1406,24,0.00900834,10,0.00765556,-1.3753,1.4151,0.0416931,68.4461,0.181667,
2,1,0,1,0,46509.8,0.184402,0.184085,42.2824,24,0.00917721,10,0.00778354,-1.37384,1.83654,0.0321256,52.9198,0.184085,
2,1,0,1,0,46509.8,0.18681,0.186488,42.3954,24,0.00934657,10,0.00790622,-1.37268,2.71818,0.0217057,35.8431,0.186488,
2,1,0,1,0,46509.8,0.189207,0.188863,42.4625,24,0.0095163,10,0.0080196,-1.37199,5.15387,0.0114477,18.9309,0.188863,
2,1,0,1,0,46509.8,0.191604,0.191268,42.4847,24,0.00968622,10,0.00812597,-1.37177,98.0255,0.000601884,0.995966,0.191268,
2,1,0,1,0,46509.8,0.194001,0.193668,42.4638,24,0.00985613,10,0.00822386,-1.37198,-5.24093,-0.0112575,-18.6165,0.193668,
2,1,0,1,0,46509.8,0.196407,0.196067,42.405,24,0.0100259,10,0.00831423,-1.37258,-2.63097,-0.0224252,-37.0266,0.196067,
2,1,0,1,0,46509.9,0.198804,0.198467,42.2838,24,0.0101953,10,0.00839193,-1.37383,-1.81125,-0.0325742,-53.6541,0.198467,
2,1,0,1,0,46509.9,0.201201,0.200845,42.1301,24,0.0103641,10,0.00846164,-1.37541,-1.30022,-0.0453768,-74.4582,0.200845,
2,1,0,1,0,46509.9,0.203609,0.203289,41.9476,24,0.0105322,10,0.00852747,-1.37729,-1.07748,-0.0547573,-89.433,0.203289,
2,1,0,1,0,46509.9,0.206006,0.205708,41.6871,24,0.0106995,10,0.00857539,-1.38,-0.878012,-0.0671972,-109.102,0.205708,
2,1,0,1,0,46509.9,0.208403,0.208141,41.4186,24,0.0108657,10,0.0086209,-1.3828,-0.738111,-0.0799337,-128.924,0.208141,
2,1,0,1,0,46509.9,0.210803,0.21048,41.0789,24,0.0110307,10,0.00864631,-1.38638,-0.654301,-0.0901726,-144.264,0.2104803,
2,1,0,1,0,46509.9,0.213206,0.212858,40.7139,24,0.0111942,10,0.00866627,-1.39026,-0.573484,-0.10288,-163.153,0.212858,
2,1,0,1,0,46509.9,0.215603,0.215264,40.3086,24,0.0113563,10,0.00867699,-1.3946,-0.532628,-0.110772,-173.936,0.2152638,
2,1,0,1,0,46509.9,0.218,0.217685,39.8615,24,0.0115166,10,0.00867724,-1.39945,-0.484279,-0.121831,-189.209,0.217685,
2,1,0,1,0,46509.9,0.220408,0.220124,39.4016,24,0.0116751,10,0.00867322,-1.40449,-0.447695,-0.131786,-202.269,0.220124,
2,1,0,1,0,46509.9,0.222805,0.222504,38.8887,24,0.0118316,10,0.0086529,-1.41018,-0.422255,-0.139726,-211.746,0.222504,
2,1,0,1,0,46509.9,0.225202,0.224887,38.3622,24,0.0119861,10,0.00862715,-1.4161,-0.394131,-0.149696,-223.864,0.224887,
2,1,0,1,0,46509.9,0.227605,0.227338,37.8175,24,0.0121384,10,0.00859735,-1.42231,-0.376624,-0.156655,-230.934,0.227338,
2,1,0,1,0,46509.9,0.230008,0.229711,37.2554,24,0.0122885,10,0.00855797,-1.42881,-0.363638,-0.162249,-235.655,0.229711,
2,1,0,1,0,46509.9,0.232405,0.232074,36.6786,24,0.0124363,10,0.00851217,-1.43559,-0.35066,-0.168254,-240.685,0.232074,
2,1,0,1,0,46509.9,0.234802,0.234515,36.0931,24,0.0125818,10,0.0084644,-1.44258,-0.341926,-0.172552,-242.956,0.234515,
2,1,0,1,0,46509.9,0.237207,0.236907,35.5144,24,0.012725,10,0.0084136,-1.4496,-0.334903,-0.17617,-244.03,0.236907,
2,1,0,1,0,46509.9,0.239604,0.239299,34.9259,24,0.0128658,10,0.00835773,-1.45685,-0.329839,-0.178875,-243.72,0.239299,
2,1,0,1,0,46509.9,0.242001,0.241683,34.3339,24,0.0130042,10,0.00829791,-1.46428,-0.326027,-0.180966,-242.534,0.241683,
2,1,0,1,0,46509.9,0.244404,0.244099,33.7574,24,0.0131403,10,0.00824015,-1.47163,-0.322932,-0.182701,-240.737,0.244099,
2,1,0,1,0,46509.9,0.246807,0.246477,33.1933,24,0.0132742,10,0.00818138,-1.47895,-0.326151,-0.180898,-234.363,0.246477,
2,1,0,1,0,46509.9,0.249204,0.248854,32.6256,24,0.0134058,10,0.00811901,-1.48644,-0.329487,-0.179066,-228.147,0.248854,
2,1,0,1,0,46509.9,0.251601,0.251281,32.0845,24,0.0135351,10,0.00806222,-1.4937,-0.328431,-0.179642,-225.048,0.251281,
2,1,0,1,0,46509.9,0.254006,0.253729,31.5604,24,0.0136624,10,0.00800779,-1.50086,-0.334895,-0.176175,-217.046,0.253729,
2,1,0,1,0,46509.9,0.256404,0.256086,31.0307,24,0.0137875,10,0.00794654,-1.50821,-0.338902,-0.174092,-211.014,0.256086,
2,1,0,1,0,46510,0.258801,0.258495,30.533,24,0.0139106,10,0.00789264,-1.51523,-0.340416,-0.173318,-206.723,0.258495,
2,1,0,1,0,46510,0.261203,0.260908,30.053,24,0.0140317,10,0.00784107,-1.52211,-0.350704,-0.168233,-197.435,0.260908,
2,1,0,1,0,46510,0.263606,0.263285,29.5849,24,0.0141509,10,0.00778927,-1.52893,-0.355192,-0.166107,-191.887,0.263285,
2,1,0,1,0,46510,0.266003,0.265706,29.1314,24,0.0142683,10,0.0077404,-1.53564,-0.362555,-0.162734,-185.175,0.2657063,
2,1,0,1,0,46510,0.2684,0.268119,28.6864,24,0.0143839,10,0.00769137,-1.54232,-0.372647,-0.158327,-177.49,0.268119,
2,1,0,1,0,46510,0.270808,0.27049,28.2787,24,0.0144978,10,0.0076491,-1.54854,-0.379503,-0.155466,-171.716,0.27049,
2,1,0,1,0,46510,0.273205,0.272883,27.8814,24,0.0146101,10,0.00760836,-1.55469,-0.391188,-0.150822,-164.195,0.272883,
2,1,0,1,0,46510,0.275603,0.275279,27.4877,24,0.0147208,10,0.00756677,-1.56086,-0.400341,-0.147374,-158.237,0.2752786,
2,1,0,1,0,46510,0.278008,0.277667,27.1187,24,0.0148299,10,0.00752996,-1.56673,-0.407043,-0.144948,-153.526,0.2776666,
2,1,0,1,0,46510,0.280405,0.280093,26.7591,24,0.0149377,10,0.00749504,-1.57253,-0.425526,-0.138652,-144.937,0.280093,
2,1,0,1,0,46510,0.282802,0.282459,26.4113,24,0.015044,10,0.0074601,-1.57821,-0.436653,-0.135119,-139.442,0.282459,
2,1,0,1,0,46510,0.285199,0.284892,26.0943,24,0.015149,10,0.00743406,-1.58345,-0.448872,-0.131441,-133.945,0.2848922,
2,1,0,1,0,46510,0.287608,0.287273,25.7792,24,0.0152527,10,0.00740566,-1.58873,-0.46592,-0.126631,-127.47,0.287273,
2,1,0,1,0,46510,0.290005,0.289684,25.4744,24,0.0153552,10,0.00737954,-1.5939,-0.47349,-0.124607,-123.983,0.289684,
2,1,0,1,0,46510,0.292402,0.292083,25.1845,24,0.0154565,10,0.00735596,-1.59887,-0.49293,-0.119692,-117.751,0.292083,
2,1,0,1,0,46510,0.294807,0.294484,24.9051,24,0.0155566,10,0.00733415,-1.60371,-0.504836,-0.11687,-113.726,0.2944836,
2,1,0,1,0,46510,0.297204,0.296908,24.6447,24,0.0156557,10,0.0073172,-1.60828,-0.515973,-0.114347,-110.484,0.296908,
2,1,0,1,0,46510,0.299421,0.299117,24.4017,24,0.0157464,10,0.00729896,-1.61258,-0.116433,-0.506729,-470.991,0.299117,
2,1,0,0,0,46510,0.300012,0.299766,24.3357,24,0.0157708,10,0.007295,-1.61376,0.00262537,22.4731,19097.5,0.299766,
2,1,0,1,0,46510,0.299243,0.299039,22.7596,24,0.0158008,10,0.006806,-1.64284,0.028338,2.08201,1635.52,0.299039,
2,1,0,1,0,46510,0.296846,0.296619,19.1366,24,0.0158838,10,0.00567628,-1.71814,0.0334206,1.76538,1289.74,0.296619,
2,1,0,1,0,46510,0.294449,0.294215,16.3857,24,0.0159545,10,0.00482091,-1.78554,0.0347188,1.69937,1114.68,0.294215,
2,1,0,1,0,46510,0.292041,0.291785,14.0426,24,0.016015,10,0.00409741,-1.85255,0.0351227,1.67983,929.749,0.291785,
2,1,0,1,0,46510,0.289644,0.289383,11.9962,24,0.0160668,10,0.00347149,-1.92096,0.0338962,1.74061,816.434,0.289383,
2,1,0,1,0,46510,0.287247,0.286972,10.1667,24,0.0161109,10,0.00291756,-1.99282,0.0319754,1.84517,728.881,0.286972,
2,1,0,1,0,46510,0.284841,0.284565,8.50647,24,0.016148,10,0.00242064,-2.07025,0.0293833,2.00794,660.397,0.284565,
2,1,0,1,0,46510,0.282444,0.282135,7.00911,24,0.0161789,10,0.00197752,-2.15434,0.026372,2.23722,600.607,0.282135,
2,1,0,1,0,46510.1,0.280047,0.27977,5.64804,24,0.016204,10,0.00158015,-2.2481,0.0228015,2.58755,550.006,0.27977,
2,1,0,1,0,46510.1,0.27765,0.277354,4.39018,24,0.0162239,10,0.00121763,-2.35752,0.0186869,3.15728,507.517,0.277354,
2,1,0,1,0,46510.1,0.275242,0.274965,3.22649,24,0.016239,10,0.00088717,-2.49127,0.0139369,4.23337,468.78,0.274965,
2,1,0,1,0,46510.1,0.272845,0.272579,2.15908,24,0.0162496,10,0.000588521,-2.66573,0.00749975,7.86692,432.997,0.272579,
2,1,0,1,0,46510.1,0.270448,0.270201,1.16225,24,0.0162562,10,0.00031404,-2.9347,0.013345,4.42112,399.677,0.270201,
2,1,0,1,0,46510.1,0.26804,0.267745,0.229788,24,0.0162588,10,6.15246e-05,-3.63867,0.0526333,1.12096,371.251,0.267745,
2,0,0,1,0,46510.1,0.265642,0.265354,-0.61458,24,0.016258,10,-0.000163081,-3.21142,-0.0354925,-1.66232,346.575,0.265354,
2,0,0,1,0,46510.1,0.263245,0.262947,-1.41669,24,0.0162538,10,-0.000372514,-2.84873,-0.00871876,-6.76702,324.324,0.262947,
2,0,0,1,0,46510.1,0.260843,0.260593,-2.16777,24,0.0162466,10,-0.000564906,-2.66399,-0.0126236,-4.67378,304.209,0.260593,
2,0,0,1,0,46510.1,0.258443,0.258183,-2.87165,24,0.0162364,10,-0.000741409,-2.54187,-0.020627,-2.86033,283.717,0.258183,
2,0,0,1,0,46510.1,0.256046,0.25577,-3.53011,24,0.0162235,10,-0.000902898,-2.45221,-0.0283565,-2.08065,266.971,0.25577,
2,0,0,1,0,46510.1,0.253649,0.253328,-4.14576,24,0.0162081,10,-0.00105024,-2.3824,-0.0363905,-1.6213,250.577,0.253328,
2,0,0,1,0,46510.1,0.25124,0.250959,-4.73971,24,0.0161903,10,-0.00118947,-2.32425,-0.0445797,-1.32347,236.33,0.250959,
2,0,0,1,0,46510.1,0.248843,0.248515,-5.29415,24,0.0161701,10,-0.00131568,-2.2762,-0.0527232,-1.11905,225.007,0.248515,
2,0,0,1,0,46510.1,0.246446,0.246126,-5.80937,24,0.0161479,10,-0.00142984,-2.23587,-0.0619445,-0.952465,211.698,0.246126,
2,0,0,1,0,46510.1,0.244041,0.243712,-6.30936,24,0.0161236,10,-0.00153767,-2.20001,-0.0708829,-0.832359,201.618,0.243712,
2,0,0,1,0,46510.1,0.241644,0.241364,-6.77109,24,0.0160973,10,-0.00163429,-2.16934,-0.0802782,-0.734945,191.745,0.241364,
2,0,0,1,0,46510.1,0.239247,0.238971,-7.21832,24,0.0160693,10,-0.00172497,-2.14156,-0.0904558,-0.652253,181.927,0.238971,
2,0,0,1,0,46510.1,0.236849,0.236555,-7.6446,24,0.0160395,10,-0.00180837,-2.11664,-0.100724,-0.585757,173.163,0.236555,
2,0,0,1,0,46510.1,0.234441,0.234115,-8.05545,24,0.0160081,10,-0.0018859,-2.09391,-0.111693,-0.528235,164.633,0.234115,
2,0,0,1,0,46510.1,0.232044,0.231727,-8.43986,24,0.015975,10,-0.00195574,-2.07366,-0.122052,-0.483399,158.096,0.2317266,
2,0,0,1,0,46510.1,0.229647,0.229327,-8.80611,24,0.0159405,10,-0.00201948,-2.05522,-0.132886,-0.443989,151.824,0.2293269,
2,0,0,1,0,46510.1,0.227239,0.22696,-9.16147,24,0.0159046,10,-0.00207929,-2.03803,-0.144904,-0.407166,144.854,0.22696,
2,0,0,1,0,46510.1,0.224842,0.224542,-9.50874,24,0.0158672,10,-0.00213512,-2.02188,-0.157647,-0.374254,138.092,0.224542,
2,0,0,1,0,46510.1,0.222445,0.222151,-9.8269,24,0.0158285,10,-0.00218306,-2.00758,-0.168523,-0.3501,133.756,0.222151,
2,0,0,1,0,46510.2,0.220047,0.219711,-10.134,24,0.0157885,10,-0.00222654,-1.99422,-0.183497,-0.321531,126.803,0.219711,
2,0,0,1,0,46510.2,0.217642,0.21736,-10.4455,24,0.0157473,10,-0.00227044,-1.98107,-0.193649,-0.304675,123.775,0.21736,
2,0,0,1,0,46510.2,0.215245,0.214943,-10.726,24,0.0157049,10,-0.00230548,-1.96956,-0.202041,-0.29202,122.032,0.2149425,
2,0,0,1,0,46510.2,0.212848,0.212553,-11.0149,24,0.0156614,10,-0.00234125,-1.95802,-0.220748,-0.267273,114.615,0.212553,
2,0,0,1,0,46510.2,0.21044,0.210134,-11.3027,24,0.0156168,10,-0.00237508,-1.94682,-0.226973,-0.259943,114.266,0.210134,
2,0,0,1,0,46510.2,0.208043,0.207731,-11.5492,24,0.0155711,10,-0.00239912,-1.93745,-0.244813,-0.241001,108.432,0.207731,
2,0,0,1,0,46510.2,0.205645,0.20538,-11.8187,24,0.0155243,10,-0.00242733,-1.92743,-0.25896,-0.227834,104.914,0.20538,
2,0,0,1,0,46510.2,0.203246,0.202932,-12.0581,24,0.0154765,10,-0.00244698,-1.91872,-0.265765,-0.222001,104.331,0.202932,
2,0,0,1,0,46510.2,0.200843,0.200534,-12.3099,24,0.0154277,10,-0.00246855,-1.90975,-0.287321,-0.205345,98.4724,0.200534,
2,0,0,1,0,46510.2,0.198446,0.198153,-12.5484,24,0.015378,10,-0.00248651,-1.90141,-0.291749,-0.202229,98.8773,0.198153,
2,0,0,1,0,46510.2,0.196049,0.195733,-12.7687,24,0.0153273,10,-0.00249925,-1.89385,-0.308552,-0.191215,95.2451,0.195733,
2,0,0,1,0,46510.2,0.19364,0.193301,-13.0105,24,0.0152758,10,-0.00251493,-1.88571,-0.318355,-0.185328,93.9895,0.193301,
2,0,0,1,0,46510.2,0.191243,0.190902,-13.2273,24,0.0152233,10,-0.00252511,-1.87853,-0.324183,-0.181996,93.8629,0.190902,
2,0,0,1,0,46510.2,0.188846,0.18854,-13.4519,24,0.0151699,10,-0.00253623,-1.87122,-0.338595,-0.174249,91.413,0.18854,
2,0,0,1,0,46510.2,0.186444,0.186112,-13.6717,24,0.0151156,10,-0.00254447,-1.86418,-0.346464,-0.170292,90.7576,0.186112,
2,0,0,1,0,46510.2,0.184041,0.18375,-13.8835,24,0.0150605,10,-0.0025511,-1.8575,-0.35971,-0.164021,88.8141,0.18375,
2,0,0,1,0,46510.2,0.181644,0.181352,-14.094,24,0.0150045,10,-0.00255598,-1.85097,-0.365941,-0.161228,88.6697,0.181352,
2,0,0,1,0,46510.2,0.179247,0.178925,-14.3059,24,0.0149477,10,-0.00255969,-1.84448,-0.370684,-0.159165,88.8729,0.178925,
2,0,0,1,0,46510.2,0.176841,0.176538,-14.5207,24,0.01489,10,-0.00256345,-1.83801,-0.37426,-0.157644,89.32,0.176538,
2,0,0,1,0,46510.2,0.174444,0.174118,-14.7395,24,0.0148315,10,-0.00256642,-1.83152,-0.37884,-0.155739,89.5379,0.174118,
2,0,0,1,0,46510.2,0.172047,0.171764,-14.9504,24,0.0147721,10,-0.00256794,-1.82535,-0.383173,-0.153978,89.8355,0.171764,
2,0,0,1,0,46510.2,0.169644,0.169326,-15.1654,24,0.0147118,10,-0.0025679,-1.81915,-0.385265,-0.153141,90.6674,0.169326,
2,0,0,1,0,46510.2,0.167242,0.166898,-15.3867,24,0.0146507,10,-0.002568,-1.81285,-0.383179,-0.153975,92.4927,0.166898,
2,0,0,1,0,46510.2,0.164845,0.164523,-15.6095,24,0.0145887,10,-0.00256812,-1.80661,-0.375148,-0.157271,95.8752,0.164523,
2,0,0,1,0,46510.2,0.162448,0.162124,-15.8421,24,0.0145258,10,-0.00256837,-1.80019,-0.378971,-0.155685,96.2585,0.162124,
2,0,0,1,0,46510.3,0.160042,0.15974,-16.0845,24,0.0144619,10,-0.00256933,-1.79359,-0.371861,-0.158662,99.5879,0.15974,
2,0,0,1,0,46510.3,0.157645,0.157331,-16.3076,24,0.0143971,10,-0.00256569,-1.78761,-0.361345,-0.163279,104.109,0.1573306,
2,0,0,1,0,46510.3,0.155248,0.154915,-16.5663,24,0.0143313,10,-0.00256637,-1.78077,-0.352399,-0.167424,108.455,0.154915,
2,0,0,1,0,46510.3,0.152845,0.152502,-16.8438,24,0.0142644,10,-0.00256871,-1.77356,-0.335691,-0.175757,115.625,0.152502,
2,0,0,1,0,46510.3,0.150443,0.150161,-17.1233,24,0.0141965,10,-0.00257126,-1.76641,-0.325907,-0.181033,121.079,0.150161,
2,0,0,1,0,46510.3,0.148046,0.147724,-17.4183,24,0.0141273,10,-0.00257311,-1.75899,-0.314347,-0.187691,127.8,0.147724,
2,0,0,1,0,46510.3,0.145648,0.145373,-17.7216,24,0.014057,10,-0.00257625,-1.7515,-0.29931,-0.19712,136.718,0.145373,
2,0,0,1,0,46510.3,0.14324,0.142949,-18.0646,24,0.0139854,10,-0.00258232,-1.74317,-0.285053,-0.206979,146.292,0.142949,
2,0,0,1,0,46510.3,0.140843,0.140557,-18.4364,24,0.0139124,10,-0.00259136,-1.73432,-0.268932,-0.219386,158.155,0.1405571,
2,0,0,1,0,46510.3,0.138446,0.138137,-18.8209,24,0.0138379,10,-0.00259986,-1.72536,-0.258323,-0.228396,168.134,0.138137,
2,0,0,1,0,46510.3,0.136041,0.135755,-19.2429,24,0.0137617,10,-0.00261231,-1.71573,-0.248919,-0.237025,178.367,0.135755,
2,0,0,1,0,46510.3,0.133644,0.133319,-19.6838,24,0.0136838,10,-0.00262422,-1.70589,-0.234311,-0.251803,193.939,0.133319,
2,0,0,1,0,46510.3,0.131246,0.13093,-20.1536,24,0.0136041,10,-0.0026387,-1.69565,-0.223681,-0.263768,208.219,0.13093,
2,0,0,1,0,46510.3,0.128849,0.128558,-20.6787,24,0.0135224,10,-0.00265841,-1.68448,-0.211963,-0.278351,225.317,0.128558,
2,0,0,1,0,46510.3,0.126441,0.126142,-21.2444,24,0.0134385,10,-0.00267981,-1.67276,-0.20376,-0.289556,240.48,0.126142,
2,0,0,1,0,46510.3,0.124044,0.123766,-21.8363,24,0.0133523,10,-0.00270258,-1.66082,-0.200233,-0.294657,251.437,0.123766,
2,0,0,1,0,46510.3,0.121647,0.121386,-22.4486,24,0.0132637,10,-0.00272495,-1.64881,-0.195623,-0.3016,264.645,0.121386,
2,0,0,1,0,46510.3,0.119241,0.118945,-23.0957,24,0.0131725,10,-0.00274712,-1.63647,-0.195589,-0.301652,272.169,0.118945,
2,0,0,1,0,46510.3,0.116844,0.116597,-23.7704,24,0.0130787,10,-0.00277156,-1.62396,-0.195838,-0.30127,279.452,0.116597,
2,0,0,1,0,46510.3,0.114447,0.114159,-24.4508,24,0.0129822,10,-0.00279129,-1.61171,-0.196707,-0.299938,286.105,0.114159,
2,0,0,1,0,46510.3,0.11205,0.111764,-25.1376,24,0.012883,10,-0.00280947,-1.59968,-0.202694,-0.291079,285.405,0.111764,
2,0,0,1,0,46510.3,0.109642,0.109357,-25.8389,24,0.0127809,10,-0.00282566,-1.58773,-0.203387,-0.290087,292.371,0.109357,
2,0,0,1,0,46510.3,0.107245,0.106936,-26.5278,24,0.0126761,10,-0.00283677,-1.5763,-0.208144,-0.283458,293.415,0.106936,
2,0,0,1,0,46510.3,0.104848,0.104585,-27.2501,24,0.0125685,10,-0.00284995,-1.56463,-0.215399,-0.27391,290.851,0.104585,
2,0,0,1,0,46510.3,0.10244,0.102147,-27.9593,24,0.012458,10,-0.00285596,-1.55347,-0.223895,-0.263516,286.58,0.102147,
2,0,0,1,0,46510.4,0.100042,0.0997781,-28.6249,24,0.0123448,10,-0.00285614,-1.54326,-0.23516,-0.250893,279.745,0.0997781,
2,0,0,1,0,46510.4,0.0976454,0.097442,-29.2485,24,0.012229,10,-0.00285004,-1.5339,-0.242216,-0.243584,278.229,0.097442,
2,0,0,1,0,46510.4,0.0952427,0.0949989,-29.9318,24,0.0121106,10,-0.00284348,-1.52387,-0.250885,-0.235168,274.664,0.0949989,
2,0,0,1,0,46510.4,0.0928428,0.092597,-30.6164,24,0.0119894,10,-0.00283499,-1.51405,-0.259395,-0.227453,271.088,0.09259703,
2,0,0,1,0,46510.4,0.0904457,0.090156,-31.2677,24,0.0118655,10,-0.00281897,-1.5049,-0.269792,-0.218687,266.244,0.090156,
2,0,0,1,0,46510.4,0.0880486,0.0877828,-31.867,24,0.0117392,10,-0.00279738,-1.49666,-0.286954,-0.205608,255.392,0.0877828,
2,0,0,1,0,46510.4,0.0856404,0.0853735,-32.4944,24,0.0116104,10,-0.00277417,-1.48819,-0.302477,-0.195056,246.882,0.0853735,
2,0,0,1,0,46510.4,0.0832433,0.0829876,-33.0705,24,0.0114792,10,-0.00274445,-1.48056,-0.316473,-0.18643,240.144,0.0829876,
2,0,0,1,0,46510.4,0.0808462,0.0806134,-33.6236,24,0.0113458,10,-0.00271052,-1.47336,-0.340017,-0.173521,227.333,0.0806134,
2,0,0,1,0,46510.4,0.0784408,0.0781851,-34.1719,24,0.0112101,10,-0.00267173,-1.46633,-0.363872,-0.162145,215.738,0.0781851,
2,0,0,1,0,46510.4,0.0760437,0.0758097,-34.6686,24,0.0110724,10,-0.00262822,-1.46006,-0.391104,-0.150855,203.656,0.07580974,
2,0,0,1,0,46510.4,0.0736466,0.0734164,-35.1354,24,0.0109327,10,-0.00257952,-1.45425,-0.418748,-0.140896,192.938,0.0734164,
2,0,0,1,0,46510.4,0.0712495,0.0710156,-35.5783,24,0.0107912,10,-0.00252661,-1.44882,-0.451216,-0.130758,181.347,0.0710156,
2,0,0,1,0,46510.4,0.0688413,0.0686075,-36.0198,24,0.010648,10,-0.00247122,-1.44346,-0.478933,-0.123191,172.889,0.0686075,
2,0,0,1,0,46510.4,0.0664442,0.0661558,-36.4193,24,0.010503,10,-0.00240935,-1.43867,-0.513109,-0.114985,163.165,0.0661558,
2,0,0,1,0,46510.4,0.0640471,0.0637975,-36.7984,24,0.0103565,10,-0.00234765,-1.43417,-0.561954,-0.104991,150.555,0.0637975,
2,0,0,1,0,46510.4,0.0616389,0.0613681,-37.1524,24,0.0102086,10,-0.00227997,-1.43001,-0.602498,-0.0979256,141.771,0.0613681,
2,0,0,1,0,46510.4,0.0592418,0.0589312,-37.4766,24,0.0100593,10,-0.00220854,-1.42624,-0.667839,-0.0883446,129.001,0.05893125,
2,0,0,1,0,46510.4,0.0568446,0.0565496,-37.7812,24,0.00990877,10,-0.00213651,-1.42272,-0.726926,-0.0811637,119.497,0.0565496,
2,0,0,1,0,46510.4,0.0544475,0.0541796,-38.0392,24,0.0097571,10,-0.00206094,-1.41977,-0.813385,-0.0725363,107.541,0.0541796,
2,0,0,1,0,46510.4,0.0520421,0.0517322,-38.3039,24,0.00960435,10,-0.00198154,-1.41676,-0.911932,-0.0646978,96.5648,0.0517322,
2,0,0,1,0,46510.4,0.049645,0.0493632,-38.5055,24,0.0094507,10,-0.00190076,-1.41448,-0.979581,-0.0602298,90.4333,0.0493632,
2,0,0,1,0,46510.4,0.0472479,0.0469211,-38.711,24,0.00929623,10,-0.00181636,-1.41217,-1.1282,-0.0522957,78.9444,0.0469211,
2,0,0,1,0,46510.4,0.0448397,0.0445543,-38.9096,24,0.00914098,10,-0.00173359,-1.40994,-1.22376,-0.048212,73.1105,0.04455426,
2,0,0,1,0,46510.4,0.0424426,0.0421599,-39.0596,24,0.00898504,10,-0.00164675,-1.40827,-1.38818,-0.0425017,64.723,0.0421599,
2,0,0,1,0,46510.5,0.0400455,0.03974,-39.2091,24,0.00882849,10,-0.00155817,-1.40661,-1.64293,-0.0359114,54.9011,0.03974,
2,0,0,1,0,46510.5,0.0376456,0.0373414,-39.331,24,0.0086714,10,-0.00146867,-1.40526,-1.82566,-0.0323171,49.5643,0.0373414,
2,0,0,1,0,46510.5,0.035243,0.0349438,-39.4372,24,0.00851384,10,-0.00137809,-1.40409,-2.14052,-0.0275634,42.3954,0.0349438,
2,0,0,1,0,46510.5,0.0328459,0.0325091,-39.5379,24,0.00835586,10,-0.00128534,-1.40299,-2.37054,-0.0248888,38.3816,0.0325091,
2,0,0,1,0,46510.5,0.0304488,0.0301751,-39.6146,24,0.00819753,10,-0.00119538,-1.40215,-2.82925,-0.0208536,32.2217,0.0301751,
2,0,0,1,0,46510.5,0.0280406,0.0277744,-39.6982,24,0.0080389,10,-0.00110259,-1.40123,-3.71183,-0.0158951,24.5995,0.0277744,
2,0,0,1,0,46510.5,0.0256435,0.0253418,-39.7466,24,0.00788001,10,-0.00100725,-1.4007,-4.33485,-0.0136106,21.0961,0.0253418,
2,0,0,1,0,46510.5,0.0232464,0.0229771,-39.7724,24,0.00772097,10,-0.000913854,-1.40042,-6.54326,-0.00901691,13.9937,0.0229771,
2,0,0,1,0,46510.5,0.0208437,0.0205827,-39.8169,24,0.00756178,10,-0.00081954,-1.39993,-9.97849,-0.00591272,9.18189,0.0205827,
2,0,0,1,0,46510.5,0.018441,0.0181056,-39.8335,24,0.00740248,10,-0.00072121,-1.39975,-14.7299,-0.00400546,6.22195,0.0181056,
2,0,0,1,0,46510.5,0.0160439,0.0157441,-39.8347,24,0.00724313,10,-0.000627161,-1.39974,113.826,0.000518333,-0.805375,0.0157441,
2,0,0,1,0,46510.5,0.0136468,0.0133062,-39.8326,24,0.00708379,10,-0.00053002,-1.39976,20.4403,0.00288645,-4.48479,0.0133062,
2,0,0,1,0,46510.5,0.0112414,0.0109351,-39.8092,24,0.00692449,10,-0.000435319,-1.40002,10.6805,0.00552409,-8.579,0.0109351,
2,0,0,1,0,46510.5,0.00884431,0.00852483,-39.7905,24,0.00676529,10,-0.000339208,-1.40022,6.58272,0.00896285,-13.9099,0.00852483,
2,0,0,1,0,46510.5,0.0064472,0.00613467,-39.7523,24,0.0066062,10,-0.000243867,-1.40064,7.37857,0.00799613,-12.4043,0.00613467,
2,0,0,1,0,46510.5,0.00404455,0.00376254,-39.6998,24,0.00644731,10,-0.000149372,-1.40121,4.43029,0.0133174,-20.6288,0.00376254,
2,0,0,1,0,46510.5,0.0016419,0.00129816,-39.6896,24,0.00628859,10,-5.15234e-05,-1.40132,3.54148,0.0166597,-25.7655,0.00129816,
2,0,0,1,0,46510.5,-0.000755207,-0.00112911,-39.5914,24,0.00613004,10,4.47031e-05,-1.4024,2.97729,0.0198167,-30.5887,-0.00112911,
2,0,0,1,0,46510.5,-0.00315231,-0.00346095,-39.5051,24,0.00597187,10,0.000136725,-1.40335,2.14369,0.0275226,-42.4118,-0.00346095,
2,0,0,1,0,46510.5,-0.00555774,-0.00590518,-39.4041,24,0.00581405,10,0.000232688,-1.40446,1.97194,0.0299197,-45.9726,-0.00590518,
2,0,0,1,0,46510.5,-0.00795485,-0.00832715,-39.2814,24,0.00565667,10,0.000327102,-1.40581,1.80368,0.032711,-50.1227,-0.00832715,
2,0,0,1,0,46510.5,-0.0103519,-0.0106929,-39.1517,24,0.00549981,10,0.000418646,-1.40725,1.63583,0.0360673,-55.0911,-0.0106929,
2,0,0,1,0,46510.5,-0.0127546,-0.0131234,-39.0208,24,0.00534348,10,0.000512084,-1.4087,1.53732,0.0383784,-58.4114,-0.0131234,
2,0,0,1,0,46510.5,-0.0151573,-0.0155241,-38.8742,24,0.0051877,10,0.000603488,-1.41034,1.43674,0.0410652,-62.2645,-0.0155241,
2,0,0,1,0,46510.5,-0.0175544,-0.0179928,-38.7168,24,0.00503254,10,0.000696623,-1.4121,1.31735,0.0447867,-67.636,-0.0179928,
2,0,0,1,0,46510.6,-0.0199515,-0.0203257,-38.5519,24,0.004878,10,0.000783594,-1.41395,1.24922,0.0472293,-71.0248,-0.0203257,
2,0,0,1,0,46510.6,-0.0223597,-0.0227042,-38.3728,24,0.00472417,10,0.000871221,-1.41598,1.18148,0.0499375,-74.7619,-0.0227042,
2,0,0,1,0,46510.6,-0.0247568,-0.0250986,-38.1941,24,0.00457105,10,0.000958618,-1.418,1.16854,0.0504902,-75.2553,-0.0250986,
2,0,0,1,0,46510.6,-0.0271539,-0.0274823,-38.0074,24,0.00441865,10,0.00104453,-1.42013,1.14283,0.0516263,-76.5727,-0.0274823,
2,0,0,1,0,46510.6,-0.0295593,-0.0298746,-37.8333,24,0.00426699,10,0.00113026,-1.42213,1.12406,0.0524881,-77.473,-0.0298746,
2,0,0,1,0,46510.6,-0.0319564,-0.0322817,-37.6394,24,0.00411605,10,0.00121506,-1.42436,1.10948,0.0531782,-78.0974,-0.0322817,
2,0,0,1,0,46510.6,-0.0343535,-0.0347154,-37.4491,24,0.00396589,10,0.00130006,-1.42656,1.11851,0.0527487,-77.1152,-0.0347154,
2,0,0,1,0,46510.6,-0.0367506,-0.0371024,-37.2561,24,0.00381652,10,0.00138229,-1.4288,1.12355,0.0525121,-76.3824,-0.03710236,
2,0,0,1,0,46510.6,-0.0391588,-0.0395328,-37.0885,24,0.00366783,10,0.00146621,-1.43076,1.13333,0.0520591,-75.3469,-0.03953281,
2,0,0,1,0,46510.6,-0.0415559,-0.0418975,-36.9049,24,0.00351988,10,0.00154622,-1.43292,1.15663,0.0510104,-73.4601,-0.0418975,
2,0,0,1,0,46510.6,-0.043953,-0.0443343,-36.7243,24,0.00337264,10,0.00162815,-1.43505,1.15772,0.050962,-73.0663,-0.04433433,
2,0,0,1,0,46510.6,-0.0463585,-0.0467605,-36.5466,24,0.00322612,10,0.00170894,-1.43715,1.20929,0.048789,-69.6332,-0.0467605,
2,0,0,1,0,46510.6,-0.0487556,-0.0491178,-36.3882,24,0.00308025,10,0.00178731,-1.43904,1.25767,0.0469123,-66.6518,-0.04911783,
2,0,0,1,0,46510.6,-0.0511527,-0.0514741,-36.2381,24,0.00293501,10,0.00186532,-1.44084,1.34756,0.0437829,-61.9412,-0.0514741,
2,0,0,1,0,46510.6,-0.0535498,-0.0538865,-36.0877,24,0.00279038,10,0.00194464,-1.44264,1.40238,0.0420714,-59.2765,-0.0538865,
2,0,0,1,0,46510.6,-0.055958,-0.056301,-35.9556,24,0.00264629,10,0.00202434,-1.44423,1.45331,0.0405971,-56.9784,-0.056301,
2,0,0,1,0,46510.6,-0.0583551,-0.0587474,-35.8174,24,0.00250276,10,0.00210418,-1.44591,1.64902,0.0357787,-50.0529,-0.0587474,
2,0,0,1,0,46510.6,-0.0607522,-0.0611174,-35.6886,24,0.00235976,10,0.00218119,-1.44747,1.72186,0.0342653,-47.7736,-0.0611174,
2,0,0,1,0,46510.6,-0.0631604,-0.0635213,-35.6054,24,0.00221718,10,0.0022617,-1.44848,1.88555,0.0312906,-43.4848,-0.06352134,
2,0,0,1,0,46510.6,-0.0655575,-0.0659444,-35.4949,24,0.002075,10,0.00234069,-1.44983,2.13869,0.0275869,-38.2259,-0.0659444,
2,0,0,1,0,46510.6,-0.0679546,-0.0683123,-35.4015,24,0.00193323,10,0.00241835,-1.45098,2.13663,0.0276135,-38.1737,-0.0683123,
2,0,0,1,0,46510.6,-0.0703572,-0.0707013,-35.3222,24,0.0017918,10,0.00249733,-1.45195,2.57281,0.0229321,-31.6309,-0.0707013,
2,0,0,1,0,46510.6,-0.0727571,-0.0730915,-35.2401,24,0.00165068,10,0.00257575,-1.45296,2.94597,0.0200273,-27.5664,-0.0730915,
2,0,0,1,0,46510.6,-0.0751543,-0.0755336,-35.1916,24,0.00150982,10,0.00265815,-1.45356,3.52242,0.0167499,-23.0174,-0.0755336,
2,0,0,1,0,46510.6,-0.0775514,-0.0779132,-35.1368,24,0.00136918,10,0.00273762,-1.45424,4.37062,0.0134992,-18.5185,-0.07791318,
2,0,0,1,0,46510.7,-0.0799596,-0.0803405,-35.1004,24,0.00122871,10,0.00281998,-1.45469,5.0223,0.0117476,-16.0991,-0.0803405,
2,0,0,1,0,46510.7,-0.0823567,-0.082737,-35.0615,24,0.0010884,10,0.00290088,-1.45517,7.97838,0.00739498,-10.1265,-0.082737,
2,0,0,1,0,46510.7,-0.0847538,-0.08509,-35.0378,24,0.000948194,10,0.00298136,-1.45546,10.6193,0.00555594,-7.60294,-0.08509,
2,0,0,1,0,46510.7,-0.0871592,-0.0875332,-35.0394,24,0.000808064,10,0.00306711,-1.45544,20.1176,0.00293275,-4.0108,-0.0875332,
2,0,0,1,0,46510.7,-0.0895563,-0.0899286,-35.0275,24,0.000667927,10,0.00314997,-1.45559,-439.217,-0.00013433,0.183689,-0.0899286,
2,0,0,1,0,46510.7,-0.0919534,-0.0923135,-35.0231,24,0.000527816,10,0.0032331,-1.45565,-28.1576,-0.00209535,2.86647,-0.0923135,
2,0,0,1,0,46510.7,-0.0943505,-0.0947068,-35.0395,24,0.000387686,10,0.00331848,-1.45544,-10.853,-0.00543627,7.43902,-0.0947068,
2,0,0,1,0,46510.7,-0.0967587,-0.0970875,-35.0668,24,0.000247469,10,0.00340454,-1.4551,-6.45951,-0.00913383,12.5022,-0.09708745,
2,0,0,1,0,46510.7,-0.0991558,-0.0995285,-35.0989,24,0.000107138,10,0.00349334,-1.45471,3.70833,0.0159101,-21.7183,-0.0995285,
2,0,0,1,0,46510.7,-0.0999548,-0.100267,-35.1225,24,6.15037e-05,10,0.00352161,-1.45441,0.0231979,2.54333,-3264.6,-0.100267,
2,0,0,1,1,46510.7,-0.0999548,-0.100419,-34.9155,24,4.05283e-05,10,0.00350618,-1.45698,-0.0317592,-1.85773,2244.91,-0.100419,
2,0,0,1,1,46510.7,-0.0979573,-0.0983928,-30.8052,24,-5.963e-05,10,0.00303102,-1.51138,-0.0409996,-1.43904,1644.59,-0.0983928,
2,0,0,1,1,46510.7,-0.0955546,-0.0959952,-27.167,24,-0.000174994,10,0.0026079,-1.56596,-0.0438214,-1.34637,1452.95,-0.09599524,
2,0,0,1,1,46510.7,-0.093152,-0.0935828,-24.1305,24,-0.000277169,10,0.0022582,-1.61743,-0.046452,-1.27013,1213.11,-0.0935828,
2,0,0,1,1,46510.7,-0.0907548,-0.0911672,-21.4728,24,-0.000368032,10,0.00195761,-1.66811,-0.046582,-1.26658,1068.02,-0.0911672,
2,0,0,1,1,46510.7,-0.0883577,-0.088723,-19.0746,24,-0.000448849,10,0.00169236,-1.71954,-0.0454595,-1.29786,967.516,-0.088723,
2,0,0,1,1,46510.7,-0.0859523,-0.0863466,-16.862,24,-0.000520449,10,0.00145598,-1.77309,-0.0435926,-1.35344,889.364,-0.0863466,
2,0,0,1,1,46510.7,-0.0835552,-0.0839649,-14.825,24,-0.000583584,10,0.00124478,-1.829,-0.0408483,-1.44437,831.375,-0.0839649,
2,0,0,1,1,46510.7,-0.0811581,-0.0815536,-12.9227,24,-0.00063886,10,0.00105389,-1.88865,-0.0380428,-1.55089,775.114,-0.0815536,
2,0,0,1,1,46510.7,-0.0787554,-0.0791698,-11.1323,24,-0.000686772,10,0.000881343,-1.95341,-0.0349005,-1.69052,724.664,-0.0791698,
2,0,0,1,1,46510.7,-0.0763528,-0.0767966,-9.45966,24,-0.000727775,10,0.00072647,-2.02412,-0.0312446,-1.88833,682.425,-0.0767966,
2,0,0,1,1,46510.7,-0.0739557,-0.0743693,-7.87142,24,-0.000762271,10,0.000585392,-2.10395,-0.0271441,-2.17359,646.146,-0.0743693,
2,0,0,1,1,46510.7,-0.0715586,-0.0719441,-6.36501,24,-0.000790585,10,0.000457926,-2.1962,-0.0228404,-2.58314,610.085,-0.0719441,
2,0,0,1,1,46510.7,-0.0691532,-0.0695763,-4.93352,24,-0.000813019,10,0.000343256,-2.30684,-0.0179204,-3.29233,581.625,-0.0695763,
2,0,0,1,1,46510.7,-0.0667561,-0.0671607,-3.58093,24,-0.000829892,10,0.000240497,-2.446,-0.0123721,-4.76878,551.529,-0.0671607,
2,0,0,1,1,46510.7,-0.0643589,-0.0647864,-2.29777,24,-0.000841502,10,0.000148864,-2.63869,-0.00605822,-9.73883,527.481,-0.0647864,
2,0,0,1,1,46510.8,-0.0619563,-0.0623326,-1.06397,24,-0.000848084,10,6.63201e-05,-2.97307,-0.0210012,-2.80936,503.505,-0.0623326,
2,0,0,1,1,46510.8,-0.0595536,-0.0599796,0.128553,24,-0.0008498,10,-7.71054e-06,-3.89092,1.93028,0.0305654,482.578,-0.05997958,
2,1,0,1,1,46510.8,-0.0571565,-0.057565,1.25051,24,-0.000846917,10,-7.19858e-05,-2.90291,0.0191656,3.07843,462.23,-0.05756503,
2,1,0,1,1,46510.8,-0.0547594,-0.0552088,2.32417,24,-0.000839644,10,-0.000128315,-2.63373,0.00630165,9.36263,436.774,-0.0552088,
2,1,0,1,1,46510.8,-0.0523512,-0.0527656,3.35818,24,-0.000828152,10,-0.000177197,-2.4739,0.0152431,3.8706,423.169,-0.0527656,
2,1,0,1,1,46510.8,-0.0499541,-0.0503521,4.33357,24,-0.000812665,10,-0.000218205,-2.36315,0.0224867,2.62377,404.682,-0.0503521,
2,1,0,1,1,46510.8,-0.047557,-0.048015,5.29179,24,-0.000793305,10,-0.000254085,-2.2764,0.0294868,2.0009,389.68,-0.048015,
2,1,0,1,1,46510.8,-0.0451544,-0.0456185,6.2052,24,-0.000770204,10,-0.000283072,-2.20724,0.036495,1.61666,375.466,-0.0456185,
2,1,0,1,1,46510.8,-0.0427545,-0.0432124,7.08087,24,-0.000743521,10,-0.000305982,-2.14991,0.0442143,1.33441,357.63,-0.0432124,
2,1,0,1,1,46510.8,-0.0403574,-0.0407788,7.92804,24,-0.000713392,10,-0.000323296,-2.10083,0.0517858,1.13931,344.475,-0.0407788,
2,1,0,1,1,46510.8,-0.0379603,-0.0384067,8.72802,24,-0.000679995,10,-0.000335214,-2.05908,0.0594021,0.99323,332.527,-0.0384067,
2,1,0,1,1,46510.8,-0.0355521,-0.0359783,9.52599,24,-0.000643395,10,-0.000342729,-2.02109,0.0675781,0.873065,319.409,-0.0359783,
2,1,0,1,1,46510.8,-0.033155,-0.0336104,10.2738,24,-0.000603708,10,-0.000345307,-1.98827,0.0764283,0.771965,305.313,-0.0336104,
2,1,0,1,1,46510.8,-0.0307579,-0.0312033,10.9865,24,-0.000561116,10,-0.000342816,-1.95914,0.08573,0.688207,291.897,-0.0312033,
2,1,0,1,1,46510.8,-0.0283524,-0.0287262,11.6836,24,-0.000515719,10,-0.000335625,-1.93242,0.0950017,0.621042,280.5,-0.0287262,
2,1,0,1,1,46510.8,-0.0259553,-0.026371,12.3303,24,-0.00046761,10,-0.000325164,-1.90903,0.104336,0.565483,270.191,-0.026371,
2,1,0,1,1,46510.8,-0.0235582,-0.0239713,12.9776,24,-0.000416928,10,-0.00031109,-1.88681,0.114172,0.516764,259.99,-0.0239713,
2,1,0,1,1,46510.8,-0.0211611,-0.021561,13.5918,24,-0.000363715,10,-0.000293053,-1.86672,0.123696,0.476975,251.281,-0.021561,
2,1,0,1,1,46510.8,-0.0187529,-0.0191253,14.1797,24,-0.000308097,10,-0.000271191,-1.84833,0.136855,0.431114,237.074,-0.0191253,
2,1,0,1,1,46510.8,-0.0163558,-0.016785,14.7391,24,-0.000250212,10,-0.000247396,-1.83153,0.147641,0.399618,228.73,-0.01678496,
2,1,0,1,1,46510.8,-0.0139587,-0.0143206,15.2655,24,-0.000190146,10,-0.000218611,-1.81629,0.159246,0.370496,219.975,-0.0143206,
2,1,0,1,1,46510.8,-0.0115505,-0.0119262,15.7956,24,-0.000127977,10,-0.000188381,-1.80146,0.173566,0.339929,208.621,-0.0119262,
2,1,0,1,1,46510.8,-0.0091534,-0.00950421,16.2961,24,-6.37392e-05,10,-0.000154882,-1.78792,0.183769,0.321055,203.192,-0.00950421,
2,1,0,1,1,46510.8,-0.00675629,-0.00712147,16.7551,24,2.43062e-06,10,-0.000119321,-1.77585,0.197743,0.298367,194.561,-0.00712147,
2,1,0,1,1,46510.8,-0.00435919,-0.00476737,17.2066,24,7.04105e-05,10,-8.20304e-05,-1.7643,0.217569,0.271178,180.916,-0.00476737,
2,1,0,1,1,46510.9,-0.00195376,-0.00236237,17.6563,24,0.00014021,10,-4.17107e-05,-1.7531, , , ,-0.00236237,
2,1,0,0,1,46510.9,-7.54729e-05,-0.000535284,17.9188,24,0.000195413,10,-9.59162e-06,-1.74669, , , ,-0.000535284,