File: Figure_codes/Fig_3-5/rawdata_trumpetplot_data/after 10th/20221101_1-115_003_TrumpetPlot_ParaChange_from10_every3_05_CV_C01_26.csv
mode,ox/red,error,control changes,counter inc.,time/s,control/V,Ewe/V,<I>/mA,cycle number,(Q-Qo)/C,I Range,P/W,log(|I|),Tafel slope mV/dec,alpha_eff,dI/d(E-IR),E-IR/V,
2,0,0,1,0,52343.4,2.44065e-05,-0.000363498,-0.74433,27,0.0000000E+000,10,2.70563e-07,-3.12823, , , ,-0.000363498,
2,0,0,1,0,52343.5,0.00129787,0.000899136,-0.00568759,27,-1.70966e-05,10,-5.11392e-09,-5.24507, , , ,0.000899136,
2,1,0,1,0,52343.5,0.00279606,0.00250173,0.33735,27,-1.86167e-06,10,8.43959e-07,-3.47192,0.00968315,6.09306,178.318,0.00250173,
2,1,0,1,0,52343.6,0.00429425,0.00396265,0.488388,27,3.08558e-05,10,1.93531e-06,-3.31124,0.0108082,5.45884,85.6537,0.00396265,
2,1,0,1,0,52343.7,0.00579244,0.00543785,0.574481,27,7.21875e-05,10,3.12394e-06,-3.24072,0.0242805,2.42993,51.7166,0.00543785,
2,1,0,1,0,52343.8,0.00729063,0.00695835,0.63878,27,0.000118903,10,4.44485e-06,-3.19465,0.0400108,1.4746,35.8116,0.00695835,
2,1,0,1,0,52343.8,0.00878882,0.00845799,0.686601,27,0.000169759,10,5.80727e-06,-3.1633,0.0574012,1.02785,27.0033,0.00845799,
2,1,0,1,0,52343.9,0.010287,0.00993521,0.718599,27,0.000223578,10,7.13943e-06,-3.14351,0.0778693,0.75768,21.0661,0.00993521,
2,1,0,1,0,52344,0.0117852,0.0114463,0.746253,27,0.000279861,10,8.54181e-06,-3.12711,0.0902434,0.653787,19.0183,0.0114463,
2,1,0,1,0,52344.1,0.0132847,0.012906,0.774374,27,0.000338166,10,9.99409e-06,-3.11105,0.100442,0.587405,17.8131,0.012906,
2,1,0,1,0,52344.1,0.0147802,0.0144131,0.799822,27,0.000398276,10,1.15279e-05,-3.09701,0.116843,0.50495,15.7415,0.0144131,
2,1,0,1,0,52344.2,0.0162798,0.0159403,0.823187,27,0.000460441,10,1.31219e-05,-3.0845,0.136881,0.431032,13.7777,0.0159403,
2,1,0,1,0,52344.3,0.017778,0.0174375,0.842433,27,0.000524043,10,1.469e-05,-3.07446,0.152341,0.387289,12.7289,0.0174375,
2,1,0,1,0,52344.4,0.0192761,0.0189327,0.861476,27,0.000588917,10,1.631e-05,-3.06476,0.150955,0.390845,13.1455,0.0189327,
2,1,0,1,0,52344.4,0.0207743,0.0204457,0.880003,27,0.000655382,10,1.79923e-05,-3.05552,0.153897,0.383373,13.1265,0.0204457,
2,1,0,1,0,52344.5,0.0222725,0.0219602,0.900296,27,0.000723315,10,1.97707e-05,-3.04561,0.164481,0.358703,12.5921,0.0219602,
2,1,0,1,0,52344.6,0.0237707,0.0234859,0.920277,27,0.000792617,10,2.16136e-05,-3.03608,0.188385,0.313189,11.2387,0.0234859,
2,1,0,1,0,52344.7,0.0252689,0.0249453,0.934449,27,0.000863128,10,2.33102e-05,-3.02944,0.17999,0.327795,11.9825,0.0249453,
2,1,0,1,0,52344.7,0.0267671,0.0264418,0.953181,27,0.000935013,10,2.52038e-05,-3.02082,0.178477,0.330575,12.3011,0.0264418,
2,1,0,1,0,52344.8,0.0282653,0.0279439,0.974996,27,0.00100833,10,2.72452e-05,-3.011,0.176992,0.333349,12.6426,0.02794393,
2,1,0,1,0,52344.9,0.0297644,0.0294693,0.991659,27,0.00108317,10,2.92235e-05,-3.00364,0.191311,0.308398,11.9126,0.0294693,
2,1,0,1,0,52345,0.0312599,0.0309458,1.00537,27,0.00115904,10,3.11119e-05,-2.99767,0.184803,0.319258,12.5528,0.03094575,
2,1,0,1,0,52345,0.0327599,0.032415,1.02582,27,0.00123637,10,3.3252e-05,-2.98893,0.194859,0.302783,12.1177,0.032415,
2,1,0,1,0,52345.1,0.034258,0.0339067,1.04445,27,0.00131507,10,3.5414e-05,-2.98111,0.197538,0.298677,12.1598,0.03390668,
2,1,0,1,0,52345.2,0.0357562,0.0354232,1.06401,27,0.0013951,10,3.76906e-05,-2.97305,0.234506,0.251593,10.4141,0.0354232,
2,1,0,1,0,52345.3,0.0372544,0.03691,1.07958,27,0.00147652,10,3.98473e-05,-2.96675,0.211857,0.278489,11.7362,0.03691,
2,1,0,1,0,52345.3,0.0387526,0.0383965,1.09513,27,0.00155912,10,4.20491e-05,-2.96053,0.21265,0.277451,11.9108,0.0383965,
2,1,0,1,0,52345.4,0.0402508,0.0398821,1.11863,27,0.00164317,10,4.46134e-05,-2.95131,0.206435,0.285804,12.455,0.0398821,
2,1,0,1,0,52345.5,0.041749,0.041427,1.13665,27,0.00172876,10,4.70879e-05,-2.94437,0.213045,0.276937,12.2544,0.04142699,
2,1,0,1,0,52345.6,0.0432472,0.0429601,1.15453,27,0.00181566,10,4.95989e-05,-2.93759,0.238783,0.247086,11.1106,0.0429601,
2,1,0,1,0,52345.6,0.0447449,0.0443526,1.16643,27,0.00190367,10,5.17344e-05,-2.93314,0.223343,0.264167,12.0489,0.0443526,
2,1,0,1,0,52345.7,0.0462445,0.0458776,1.18748,27,0.00199319,10,5.44785e-05,-2.92538,0.202621,0.291184,13.4777,0.0458776,
2,1,0,1,0,52345.8,0.04774,0.0474189,1.20571,27,0.00208384,10,5.71736e-05,-2.91876,0.239201,0.246655,11.6022,0.0474189,
2,1,0,1,0,52345.9,0.0492399,0.0489425,1.22293,27,0.00217608,10,5.98532e-05,-2.9126,0.254396,0.231922,11.0575,0.0489425,
2,1,0,1,0,52345.9,0.0507381,0.0504012,1.23639,27,0.00226937,10,6.23156e-05,-2.90784,0.254467,0.231857,11.2097,0.0504012,
2,1,0,1,0,52346,0.0522363,0.0519283,1.2564,27,0.00236392,10,6.52425e-05,-2.90087,0.245929,0.239907,11.7362,0.0519283,
2,1,0,1,0,52346.1,0.0537345,0.0533961,1.27623,27,0.00245985,10,6.81459e-05,-2.89407,0.256312,0.230188,11.4326,0.0533961,
2,1,0,1,0,52346.2,0.0552327,0.0549293,1.29133,27,0.00255701,10,7.09318e-05,-2.88896,0.293452,0.201055,10.1002,0.0549293,
2,1,0,1,0,52346.2,0.0567309,0.0563888,1.30229,27,0.00265532,10,7.34345e-05,-2.88529,0.304302,0.193886,9.8618,0.05638884,
2,1,0,1,0,52346.3,0.0582291,0.0579123,1.32031,27,0.00275465,10,7.64621e-05,-2.87932,0.298454,0.197685,10.1758,0.0579123,
2,1,0,1,0,52346.4,0.0597291,0.0593986,1.33488,27,0.00285531,10,7.92898e-05,-2.87456,0.300962,0.196038,10.2152,0.0593986,
2,1,0,1,0,52346.5,0.0612246,0.0609129,1.34966,27,0.00295688,10,8.22118e-05,-2.86978,0.339792,0.173636,9.14007,0.0609129,
2,1,0,1,0,52346.5,0.0627241,0.0624089,1.36235,27,0.00305985,10,8.50228e-05,-2.86571,0.33027,0.178642,9.5066,0.0624089,
2,1,0,1,0,52346.6,0.0642218,0.0638828,1.37519,27,0.00316354,10,8.78509e-05,-2.86164,0.329119,0.179267,9.64353,0.0638828,
2,1,0,1,0,52346.7,0.06572,0.0653648,1.39233,27,0.00326836,10,9.10094e-05,-2.85626,0.315501,0.187004,10.152,0.0653648,
2,1,0,1,0,52346.8,0.0672182,0.0668852,1.40699,27,0.00337434,10,9.41071e-05,-2.85171,0.342647,0.172189,9.43691,0.0668852,
2,1,0,1,0,52346.8,0.0687164,0.0684147,1.41847,27,0.00348134,10,9.70444e-05,-2.84818,0.43354,0.136089,7.52747,0.0684147,
2,1,0,1,0,52346.9,0.0702146,0.0698512,1.42886,27,0.00358908,10,9.98075e-05,-2.84501,0.416908,0.141518,7.90199,0.0698512,
2,1,0,1,0,52347,0.0717128,0.0713709,1.44257,27,0.00369777,10,0.000102958,-2.84086,0.374073,0.157723,8.87198,0.0713709,
2,1,0,1,0,52347.1,0.073211,0.0728619,1.45325,27,0.00380737,10,0.000105886,-2.83766,0.45096,0.130832,7.42518,0.0728619,
2,1,0,1,0,52347.1,0.0747092,0.0743593,1.46472,27,0.00391791,10,0.000108916,-2.83424,0.492135,0.119886,6.84357,0.0743593,
2,1,0,1,0,52347.2,0.0762087,0.0758415,1.47201,27,0.00402928,10,0.00011164,-2.83209,0.560794,0.105208,6.05687,0.0758415,
2,1,0,1,0,52347.3,0.0777042,0.0773468,1.48381,27,0.004141,10,0.000114768,-2.82862,0.449893,0.131142,7.59876,0.0773468,
2,1,0,1,0,52347.4,0.0792037,0.0788289,1.49598,27,0.00425387,10,0.000117926,-2.82508,0.448252,0.131622,7.6736,0.0788289,
2,1,0,1,0,52347.4,0.0807019,0.0803889,1.50623,27,0.00436752,10,0.000121084,-2.82211,0.565073,0.104411,6.12119,0.0803889,
2,1,0,1,0,52347.5,0.0822001,0.0818827,1.51248,27,0.00448182,10,0.000123846,-2.82031,0.54547,0.108164,6.39002,0.0818827,
2,1,0,1,0,52347.6,0.0836983,0.0833418,1.52293,27,0.00459665,10,0.000126924,-2.81732,0.53247,0.110804,6.59238,0.0833418,
2,1,0,1,0,52347.7,0.0851965,0.0848081,1.5352,27,0.0047123,10,0.000130197,-2.81384,0.492235,0.119861,7.17854,0.0848081,
2,1,0,1,0,52347.7,0.0866947,0.0863344,1.5441,27,0.00482883,10,0.000133309,-2.81132,0.5832,0.101166,6.09584,0.0863344,
2,1,0,1,0,52347.8,0.0881929,0.0878623,1.55682,27,0.00494612,10,0.000136786,-2.80776,0.55941,0.105468,6.41038,0.0878623,
2,1,0,1,0,52347.9,0.0896911,0.089359,1.5682,27,0.00506408,10,0.000140133,-2.8046,0.414144,0.142462,8.72909,0.089359,
2,1,0,1,0,52348,0.0911893,0.0908718,1.58277,27,0.00518309,10,0.00014383,-2.80058,0.357295,0.16513,10.192,0.0908718,
2,1,0,1,0,52348,0.0926883,0.0923252,1.5983,27,0.00530354,10,0.000147563,-2.79634,0.337035,0.175056,10.9076,0.0923252,
2,1,0,1,0,52348.1,0.0941839,0.0938693,1.61334,27,0.00542485,10,0.000151443,-2.79227,0.352954,0.167161,10.544,0.0938693,
2,1,0,1,0,52348.2,0.0956838,0.0953988,1.62975,27,0.00554761,10,0.000155476,-2.78788,0.302159,0.195262,12.4583,0.0953988,
2,1,0,1,0,52348.3,0.097182,0.0968567,1.65069,27,0.00567166,10,0.00015988,-2.78233,0.241881,0.243922,15.7379,0.0968567,
2,1,0,1,0,52348.3,0.0986802,0.0983458,1.67363,27,0.00579742,10,0.000164594,-2.77634,0.243547,0.242253,15.8457,0.0983458,
2,1,0,1,0,52348.4,0.100178,0.0998578,1.70046,27,0.00592506,10,0.000169804,-2.76943,0.237932,0.24797,16.4544,0.0998578,
2,1,0,1,0,52348.5,0.101677,0.10131,1.72177,27,0.00605445,10,0.000174434,-2.76402,0.223079,0.26448,17.8379,0.10131,
2,1,0,1,0,52348.6,0.103175,0.102885,1.75036,27,0.00618575,10,0.000180086,-2.75687,0.203865,0.289407,19.8223,0.102885,
2,1,0,1,0,52348.6,0.104673,0.104335,1.78464,27,0.00631939,10,0.0001862,-2.74845,0.198339,0.297471,20.7072,0.104335,
2,1,0,1,0,52348.7,0.106171,0.105821,1.81624,27,0.00645539,10,0.000192196,-2.74083,0.218654,0.269833,19.0874,0.105821,
2,1,0,1,0,52348.8,0.107669,0.107347,1.84429,27,0.00659364,10,0.000197979,-2.73417,0.207191,0.284761,20.5053,0.107347,
2,1,0,1,0,52348.9,0.109168,0.108813,1.87361,27,0.00673417,10,0.000203872,-2.72732,0.207125,0.284852,20.852,0.108813,
2,1,0,1,0,52348.9,0.110664,0.110332,1.90532,27,0.00687679,10,0.000210218,-2.72003,0.216374,0.272676,20.2514,0.110332,
2,1,0,1,0,52349,0.112164,0.111848,1.93662,27,0.00702206,10,0.000216606,-2.71296,0.24822,0.237692,17.9309,0.1118477,
2,1,0,1,0,52349.1,0.113662,0.113322,1.96314,27,0.00716924,10,0.000222467,-2.70705,0.271433,0.217365,16.6221,0.113322,
2,1,0,1,0,52349.2,0.11516,0.114813,1.98594,27,0.00731825,10,0.000228011,-2.70203,0.279907,0.210784,16.3261,0.1148126,
2,1,0,1,0,52349.2,0.116658,0.116308,2.00987,27,0.00746915,10,0.000233765,-2.69683,0.296599,0.198922,15.5909,0.116308,
2,1,0,1,0,52349.3,0.118157,0.117836,2.03286,27,0.00762184,10,0.000239543,-2.69189,0.354296,0.166527,13.1937,0.117836,
2,1,0,1,0,52349.4,0.119655,0.119313,2.05168,27,0.007776,10,0.000244792,-2.68789,0.464882,0.126914,10.1482,0.1193128,
2,1,0,1,0,52349.5,0.121153,0.120811,2.06173,27,0.0079313,10,0.000249079,-2.68577,0.505273,0.116768,9.41105,0.120811,
2,1,0,1,0,52349.5,0.122653,0.122337,2.07821,27,0.00808788,10,0.000254242,-2.68231,0.484759,0.12171,9.87747,0.122337,
2,1,0,1,0,52349.6,0.124149,0.123809,2.09256,27,0.0082451,10,0.000259079,-2.67932,0.570297,0.103455,8.44481,0.123809,
2,1,0,1,0,52349.7,0.125648,0.1253,2.10558,27,0.00840372,10,0.000263829,-2.67663,0.698638,0.08445,6.92785,0.1253,
2,1,0,1,0,52349.8,0.127146,0.12681,2.10922,27,0.00856289,10,0.000267471,-2.67588,0.825368,0.0714832,5.89108,0.12681,
2,1,0,1,0,52349.8,0.128644,0.128304,2.12117,27,0.00872265,10,0.000272154,-2.67342,0.850851,0.0693423,5.7394,0.128304,
2,1,0,1,0,52349.9,0.130142,0.129808,2.13188,27,0.00888309,10,0.000276734,-2.67124,0.927587,0.0636059,5.28688,0.129808,
2,1,0,1,0,52350,0.13164,0.131309,2.13636,27,0.00904408,10,0.000280523,-2.67033,2.63291,0.0224087,1.86659,0.131309,
2,1,0,1,0,52350.1,0.133139,0.132818,2.14194,27,0.00920545,10,0.000284487,-2.66919,3.65612,0.0161373,1.34659,0.132818,
2,1,0,1,0,52350.1,0.134637,0.134253,2.13944,27,0.00936685,10,0.000287226,-2.6697,-5.48771,-0.0107513,-0.897407,0.134253,
2,1,0,1,0,52350.2,0.136135,0.135778,2.1397,27,0.00952825,10,0.000290524,-2.66965,-1.25282,-0.0470939,-3.91941,0.135778,
2,1,0,1,0,52350.3,0.137633,0.137309,2.13014,27,0.00968928,10,0.000292487,-2.67159,-0.574776,-0.102649,-8.50452,0.137309,
2,1,0,1,0,52350.4,0.139133,0.138782,2.11622,27,0.00984964,10,0.000293693,-2.67444,-0.371379,-0.158867,-13.0587,0.138782,
2,1,0,1,0,52350.4,0.140628,0.140265,2.08973,27,0.010008,10,0.000293116,-2.67991,-0.26246,-0.224796,-18.2683,0.140265,
2,1,0,1,0,52350.5,0.142128,0.141793,2.0589,27,0.0101647,10,0.000291936,-2.68637,-0.207489,-0.284352,-22.749,0.1417927,
2,1,0,1,0,52350.6,0.143626,0.143311,2.01828,27,0.0103186,10,0.000289241,-2.69502,-0.153488,-0.384394,-30.1367,0.1433108,
2,1,0,1,0,52350.7,0.145124,0.144809,1.97027,27,0.0104692,10,0.000285313,-2.70548,-0.120245,-0.490667,-37.5323,0.144809,
2,1,0,1,0,52350.7,0.146622,0.14632,1.90561,27,0.0106155,10,0.000278829,-2.71997,-0.101046,-0.583893,-43.3362,0.14632,
2,1,0,1,0,52350.8,0.14812,0.147807,1.84213,27,0.0107571,10,0.00027228,-2.73468,-0.0945948,-0.623713,-44.7124,0.147807,
2,1,0,1,0,52350.9,0.149619,0.149273,1.77383,27,0.0108936,10,0.000264785,-2.75109,-0.085233,-0.69222,-47.7481,0.149273,
2,1,0,1,0,52351,0.151117,0.150783,1.69953,27,0.0110247,10,0.000256259,-2.76967,-0.0768785,-0.767444,-50.7257,0.150783,
2,1,0,1,0,52351,0.152615,0.152231,1.62453,27,0.0111503,10,0.000247304,-2.78927,-0.0794444,-0.742658,-47.0943,0.152231,
2,1,0,1,0,52351.1,0.154113,0.153755,1.55311,27,0.0112703,10,0.000238798,-2.8088,-0.078183,-0.75464,-45.8807,0.153755,
2,1,0,1,0,52351.2,0.155613,0.15526,1.48752,27,0.0113854,10,0.000230952,-2.82754,-0.0801196,-0.736399,-42.7933,0.15526,
2,1,0,1,0,52351.3,0.157108,0.156787,1.42638,27,0.0114956,10,0.000223637,-2.84577,-0.0838909,-0.703294,-39.1612,0.156787,
2,1,0,1,0,52351.3,0.158608,0.158279,1.36935,27,0.0116016,10,0.00021674,-2.86348,-0.0884234,-0.667244,-35.8017,0.158279,
2,1,0,1,0,52351.4,0.160106,0.159764,1.32057,27,0.0117033,10,0.000210981,-2.87924,-0.0979889,-0.602109,-31.1399,0.159764,
2,1,0,1,0,52351.5,0.161604,0.161255,1.27617,27,0.0118015,10,0.00020579,-2.89409,-0.106521,-0.553881,-27.6444,0.161255,
2,1,0,1,0,52351.6,0.163102,0.162791,1.23626,27,0.0118968,10,0.000201253,-2.90789,-0.120562,-0.489373,-23.6962,0.162791,
2,1,0,1,0,52351.6,0.164601,0.16429,1.2042,27,0.0119893,10,0.000197837,-2.9193,-0.129434,-0.45583,-21.4726,0.16429,
2,1,0,1,0,52351.7,0.166099,0.165778,1.17407,27,0.0120793,10,0.000194635,-2.93031,-0.14253,-0.413949,-19.0379,0.165778,
2,1,0,1,0,52351.8,0.167597,0.167259,1.14878,27,0.0121674,10,0.000192144,-2.93976,-0.172477,-0.342075,-15.3738,0.167259,
2,1,0,1,0,52351.9,0.169095,0.168776,1.12807,27,0.0122538,10,0.000190391,-2.94766,-0.191513,-0.308073,-13.579,0.168776,
2,1,0,1,0,52351.9,0.170593,0.170254,1.10823,27,0.0123387,10,0.000188681,-2.95537,-0.187213,-0.315149,-13.6651,0.170254,
2,1,0,1,0,52352,0.172092,0.17178,1.0881,27,0.0124221,10,0.000186914,-2.96333,-0.22387,-0.263546,-11.2345,0.17178,
2,1,0,1,0,52352.1,0.173588,0.173242,1.07595,27,0.0125041,10,0.0001864,-2.96821,-0.274777,-0.21472,-9.03408,0.173242,
2,1,0,1,0,52352.2,0.175088,0.17477,1.06203,27,0.0125854,10,0.000185611,-2.97386,-0.308182,-0.191445,-7.94584,0.17477,
2,1,0,1,0,52352.2,0.176586,0.176231,1.05029,27,0.0126657,10,0.000185093,-2.97869,-0.315388,-0.187071,-7.66469,0.176231,
2,1,0,1,0,52352.3,0.178084,0.177742,1.03948,27,0.012745,10,0.00018476,-2.98318,-0.319714,-0.18454,-7.50023,0.177742,
2,1,0,1,0,52352.4,0.179582,0.179216,1.02784,27,0.0128236,10,0.000184206,-2.98807,-0.412231,-0.143124,-5.77221,0.179216,
2,1,0,1,0,52352.5,0.181081,0.180737,1.02264,27,0.0129016,10,0.000184828,-2.99028,-0.461233,-0.127918,-5.10449,0.180737,
2,1,0,1,0,52352.5,0.182579,0.18227,1.01438,27,0.012979,10,0.000184891,-2.9938,-0.405055,-0.145659,-5.77079,0.18227,
2,1,0,1,0,52352.6,0.184077,0.183735,1.00858,27,0.0130559,10,0.000185311,-2.99629,-0.524037,-0.112587,-4.42702,0.183735,
2,1,0,1,0,52352.7,0.185577,0.18524,1.00088,27,0.0131323,10,0.000185402,-2.99962,-0.538471,-0.10957,-4.27956,0.1852396,
2,1,0,1,0,52352.8,0.187073,0.186725,0.995659,27,0.0132081,10,0.000185914,-3.00189,-0.793219,-0.0743805,-2.88605,0.186725,
2,1,0,1,0,52352.8,0.188572,0.188228,0.989652,27,0.0132838,10,0.00018628,-3.00452,-0.714077,-0.0826241,-3.19931,0.188228,
2,1,0,1,0,52352.9,0.19007,0.189713,0.986197,27,0.0133589,10,0.000187094,-3.00604,-0.88574,-0.066611,-2.56763,0.189713,
2,1,0,1,0,52353,0.191568,0.191262,0.97859,27,0.0134337,10,0.000187167,-3.0094,-0.86915,-0.0678824,-2.59817,0.191262,
2,1,0,1,0,52353.1,0.193066,0.192734,0.97805,27,0.0135082,10,0.000188504,-3.00964,-1.88743,-0.0312594,-1.19163,0.192734,
2,1,0,1,0,52353.1,0.194564,0.194236,0.97596,27,0.0135825,10,0.000189566,-3.01057,-1.12875,-0.05227,-1.98885,0.194236,
2,1,0,1,0,52353.2,0.196063,0.195715,0.97156,27,0.0136565,10,0.000190149,-3.01253,-0.7048,-0.0837117,-3.17122,0.195715,
2,1,0,1,0,52353.3,0.197561,0.197226,0.964609,27,0.0137302,10,0.000190246,-3.01565,-0.881038,-0.0669665,-2.52699,0.197226,
2,1,0,1,0,52353.4,0.199059,0.198728,0.965947,27,0.0138036,10,0.00019196,-3.01505,-1.03839,-0.0568187,-2.13927,0.198728,
2,1,0,1,0,52353.4,0.200557,0.200241,0.962644,27,0.0138768,10,0.000192761,-3.01653,-1.19807,-0.0492458,-1.84769,0.200241,
2,1,0,1,0,52353.5,0.202057,0.201736,0.958983,27,0.0139499,10,0.000193461,-3.01819,-1.19538,-0.0493565,-1.84496,0.201736,
2,1,0,1,0,52353.6,0.203552,0.203196,0.954681,27,0.0140227,10,0.000193987,-3.02014,-1.2053,-0.0489506,-1.82795,0.203196,
2,1,0,1,0,52353.7,0.205052,0.204667,0.951621,27,0.0140953,10,0.000194766,-3.02154,-7.36047,-0.00801579,-0.299768,0.204667,
2,1,0,1,0,52353.7,0.20655,0.20622,0.950704,27,0.0141677,10,0.000196054,-3.02195,-2.95368,-0.0199751,-0.742724,0.2062197,
2,1,0,1,0,52353.8,0.208048,0.207699,0.949608,27,0.0142402,10,0.000197232,-3.02246,-1.13946,-0.0517787,-1.9146,0.207699,
2,1,0,1,0,52353.9,0.209546,0.20926,0.947837,27,0.0143124,10,0.000198344,-3.02327,-0.883593,-0.0667728,-2.47021,0.20926,
2,1,0,1,0,52354,0.211044,0.210728,0.945214,27,0.0143843,10,0.000199183,-3.02447,-1.30996,-0.0450394,-1.66363,0.210728,
2,1,0,1,0,52354,0.212543,0.212213,0.94306,27,0.0144561,10,0.00020013,-3.02546,-4.53018,-0.0130238,-0.479383,0.212213,
2,1,0,1,0,52354.1,0.214041,0.213743,0.943431,27,0.0145278,10,0.000201652,-3.02529,-3.77232,-0.0156402,-0.574389,0.213743,
2,1,0,1,0,52354.2,0.215539,0.215222,0.940095,27,0.0145994,10,0.000202329,-3.02683,-1.20135,-0.0491116,-1.8006,0.215222,
2,1,0,1,0,52354.3,0.217037,0.216704,0.935936,27,0.0146708,10,0.000202821,-3.02875,-1.35217,-0.0436336,-1.59873,0.216704,
2,1,0,1,0,52354.3,0.218536,0.218188,0.936535,27,0.0147421,10,0.00020434,-3.02848,-5.50803,-0.0107116,-0.391456,0.218188,
2,1,0,1,0,52354.4,0.220032,0.219727,0.936445,27,0.0148132,10,0.000205763,-3.02852,-3.09169,-0.0190834,-0.695179,0.219727,
2,1,0,1,0,52354.5,0.221532,0.221236,0.933156,27,0.0148844,10,0.000206448,-3.03005,-1.20159,-0.0491018,-1.78853,0.221236,
2,1,0,1,0,52354.6,0.22303,0.222695,0.929018,27,0.0149554,10,0.000206887,-3.03198,-1.541,-0.0382868,-1.39149,0.222695,
2,1,0,1,0,52354.6,0.224528,0.224217,0.930071,27,0.0150262,10,0.000208537,-3.03148,-1.80032,-0.0327719,-1.19004,0.224217,
2,1,0,1,0,52354.7,0.226026,0.225676,0.929858,27,0.0150969,10,0.000209847,-3.03158,-2.68106,-0.0220062,-0.797823,0.225676,
2,1,0,1,0,52354.8,0.227525,0.22721,0.927429,27,0.0151676,10,0.000210721,-3.03272,-1.07615,-0.0548251,-1.98265,0.22721,
2,1,0,1,0,52354.9,0.229023,0.22869,0.927502,27,0.0152382,10,0.00021211,-3.03268,-2.75222,-0.0214372,-0.776517,0.22869,
2,1,0,1,0,52354.9,0.230521,0.230197,0.924584,27,0.0153085,10,0.000212836,-3.03405,-2.34976,-0.025109,-0.908165,0.230197,
2,1,0,1,0,52355,0.232019,0.231702,0.922868,27,0.0153789,10,0.00021383,-3.03486,-13.4943,-0.00437221,-0.15785,0.231702,
2,1,0,1,0,52355.1,0.233517,0.233154,0.925514,27,0.0154492,10,0.000215788,-3.03362,-3.14178,-0.0187792,-0.675151,0.233154,
2,1,0,1,0,52355.2,0.235016,0.234702,0.923125,27,0.0155195,10,0.000216659,-3.03474,-1.83101,-0.0322227,-1.15996,0.234702,
2,1,0,1,0,52355.2,0.236512,0.236193,0.920372,27,0.0155895,10,0.000217386,-3.03604,-4.45943,-0.0132304,-0.475754,0.236193,
2,1,0,1,0,52355.3,0.238012,0.2377,0.918391,27,0.0156595,10,0.000218301,-3.03697,-7.59212,-0.00777122,-0.278766,0.2377,
2,1,0,1,0,52355.4,0.23951,0.239163,0.918025,27,0.0157295,10,0.000219558,-3.03715,-2.11722,-0.0278667,-0.998642,0.239163,
2,1,0,1,0,52355.5,0.241008,0.240672,0.916712,27,0.0157994,10,0.000220627,-3.03777,-2.2158,-0.0266269,-0.954195,0.240672,
2,1,0,1,0,52355.5,0.242506,0.242201,0.914591,27,0.015869,10,0.000221515,-3.03877,-1.93422,-0.0305033,-1.09235,0.242201,
2,1,0,1,0,52355.6,0.244005,0.243691,0.914848,27,0.0159387,10,0.00022294,-3.03865,3.80287,0.0155146,0.553611,0.243691,
2,1,0,1,0,52355.7,0.245503,0.245215,0.916934,27,0.0160083,10,0.000224846,-3.03766,-4.93891,-0.0119459,-0.426472,0.245215,
2,1,0,1,0,52355.8,0.247001,0.246648,0.915051,27,0.016078,10,0.000225695,-3.03855,-1.5137,-0.0389774,-1.38776,0.246648,
2,1,0,1,0,52355.8,0.248501,0.248193,0.912151,27,0.0161475,10,0.00022639,-3.03993,-1.77457,-0.0332475,-1.18478,0.248193,
2,1,0,1,0,52355.9,0.249997,0.249665,0.91062,27,0.0162167,10,0.00022735,-3.04066,-4.42725,-0.0133265,-0.47458,0.249665,
2,1,0,1,0,52356,0.251496,0.251181,0.909535,27,0.0162861,10,0.000228458,-3.04118,-2.42132,-0.0243669,-0.865438,0.251181,
2,1,0,1,0,52356.1,0.252994,0.25267,0.907514,27,0.0163554,10,0.000229301,-3.04215,-1.42044,-0.0415364,-1.47367,0.25267,
2,1,0,1,0,52356.1,0.254492,0.254173,0.908435,27,0.0164245,10,0.0002309,-3.04171,-3.47235,-0.0169914,-0.602412,0.254173,
2,1,0,1,0,52356.2,0.25599,0.255661,0.903183,27,0.0164934,10,0.000230908,-3.04422,-2.93862,-0.0200775,-0.710031,0.255661,
2,1,0,1,0,52356.3,0.257488,0.257164,0.904798,27,0.0165624,10,0.000232682,-3.04345,24.0371,0.00245453,0.086623,0.257164,
2,1,0,1,0,52356.4,0.258987,0.258684,0.90688,27,0.0166314,10,0.000234596,-3.04245,-1.91342,-0.0308348,-1.08865,0.258684,
2,1,0,1,0,52356.4,0.260485,0.260176,0.904389,27,0.0167002,10,0.0002353,-3.04364,-1.14826,-0.0513822,-1.81341,0.260176,
2,1,0,1,0,52356.5,0.261983,0.261681,0.899909,27,0.0167689,10,0.000235489,-3.0458,-4.26597,-0.0138304,-0.487261,0.261681,
2,1,0,1,0,52356.6,0.263481,0.263117,0.899898,27,0.0168375,10,0.000236778,-3.04581,14.2828,0.00413083,0.145343,0.263117,
2,1,0,1,0,52356.7,0.264981,0.264663,0.9014,27,0.0169061,10,0.000238567,-3.04508,-3.39046,-0.0174018,-0.612098,0.264663,
2,1,0,1,0,52356.7,0.266476,0.266184,0.898093,27,0.0169744,10,0.000239058,-3.04668,-2.23194,-0.0264344,-0.928326,0.266184,
2,1,0,1,0,52356.8,0.267976,0.267632,0.894578,27,0.0170428,10,0.000239418,-3.04838,-4.03416,-0.0146251,-0.512745,0.267632,
2,1,0,1,0,52356.9,0.269474,0.269152,0.896703,27,0.017111,10,0.000241349,-3.04735,27.5261,0.00214342,0.0750267,0.269152,
2,1,0,1,0,52357,0.270972,0.270623,0.897732,27,0.0171792,10,0.000242947,-3.04685,-1.34444,-0.0438845,-1.53147,0.270623,
2,1,0,1,0,52357,0.27247,0.27218,0.894935,27,0.0172474,10,0.000243583,-3.04821,-1.63868,-0.0360046,-1.2528,0.27218,
2,1,0,1,0,52357.1,0.273968,0.273611,0.889763,27,0.0173153,10,0.000243449,-3.05073,-1.60139,-0.036843,-1.2835,0.273611,
2,1,0,1,0,52357.2,0.275467,0.275122,0.892433,27,0.0173831,10,0.000245528,-3.04942,-2.20658,-0.0267382,-0.930562,0.2751219,
2,1,0,1,0,52357.3,0.276965,0.276631,0.889908,27,0.0174508,10,0.000246176,-3.05066,-1.6912,-0.0348864,-1.21264,0.276631,
2,1,0,1,0,52357.3,0.278463,0.27815,0.888051,27,0.0175185,10,0.000247012,-3.05156,-1.10026,-0.0536239,-1.85522,0.27815,
2,1,0,1,0,52357.4,0.279961,0.279632,0.888209,27,0.0175861,10,0.000248372,-3.05148,-3.29238,-0.0179202,-0.619762,0.279632,
2,1,0,1,0,52357.5,0.28146,0.281128,0.884814,27,0.0176536,10,0.000248746,-3.05315,-6.44656,-0.00915217,-0.31641,0.281128,
2,1,0,1,0,52357.6,0.282956,0.282644,0.882712,27,0.0177208,10,0.000249493,-3.05418,-2.58042,-0.0228645,-0.788756,0.282644,
2,1,0,1,0,52357.6,0.284456,0.284169,0.882534,27,0.0177881,10,0.000250789,-3.05427,-1.91814,-0.0307589,-1.05947,0.2841689,
2,1,0,1,0,52357.7,0.285954,0.285647,0.880342,27,0.0178553,10,0.000251467,-3.05535,-1.25407,-0.0470468,-1.61518,0.285647,
2,1,0,1,0,52357.8,0.287452,0.287129,0.877481,27,0.0179222,10,0.00025195,-3.05676,-1.45888,-0.040442,-1.38927,0.287129,
2,1,0,1,0,52357.9,0.28895,0.28861,0.879427,27,0.0179891,10,0.000253811,-3.0558,-8.57661,-0.00687917,-0.235537,0.28861,
2,1,0,1,0,52357.9,0.290449,0.290124,0.876847,27,0.0180558,10,0.000254395,-3.05708,-3.05536,-0.0193103,-0.660259,0.290124,
2,1,0,1,0,52358,0.291947,0.291586,0.875654,27,0.0181226,10,0.000255328,-3.05767,-2.1819,-0.0270407,-0.92275,0.291586,
2,1,0,1,0,52358.1,0.293445,0.2931,0.872047,27,0.0181891,10,0.000255597,-3.05946,-1.23056,-0.0479455,-1.63406,0.2931,
2,1,0,1,0,52358.2,0.294943,0.294643,0.874121,27,0.0182554,10,0.000257553,-3.05843,-2.02722,-0.0291039,-0.991812,0.294643,
2,1,0,1,0,52358.2,0.296441,0.296156,0.872297,27,0.0183218,10,0.000258336,-3.05934,-2.44208,-0.0241597,-0.820201,0.296156,
2,1,0,1,0,52358.3,0.29794,0.29763,0.868265,27,0.0183882,10,0.000258422,-3.06135,-1.30993,-0.0450405,-1.52405,0.29763,
2,1,0,1,0,52358.4,0.299436,0.299102,0.864467,27,0.0184542,10,0.000258564,-3.06325,-0.00439968,-13.4101,-293.682,0.299102,
2,1,0,1,0,52358.4,0.299739,0.299385,0.598096,27,0.0184882,10,0.000179061,-3.22323,0.000831477,70.9581,673.081,0.299385,
2,1,0,1,0,52358.5,0.298239,0.297883,0.0922862,27,0.0185084,10,2.74905e-05,-4.03486,0.00361858,16.3047,251.979,0.297883,
2,0,0,1,0,52358.6,0.296741,0.296414,-0.0501886,27,0.018508,10,-1.48766e-05,-4.29939,0.0311243,1.89563,81.7672,0.2964136,
2,0,0,1,0,52358.6,0.295243,0.294923,-0.122533,27,0.0185002,10,-3.61378e-05,-3.91175,-0.00392921,-15.0157,40.1047,0.294923,
2,0,0,1,0,52358.7,0.293745,0.293389,-0.165025,27,0.0184882,10,-4.84166e-05,-3.78245,-0.01334,-4.42278,25.574,0.293389,
2,0,0,1,0,52358.8,0.292246,0.291893,-0.195605,27,0.0184737,10,-5.70958e-05,-3.70862,-0.0219721,-2.68522,19.7942,0.2918928,
2,0,0,1,0,52358.9,0.290748,0.290408,-0.22303,27,0.0184568,10,-6.47695e-05,-3.65164,-0.030356,-1.9436,16.364,0.290408,
2,0,0,1,0,52358.9,0.28925,0.288941,-0.241927,27,0.0184382,10,-6.99027e-05,-3.61632,-0.0415945,-1.41846,13.3645,0.288941,
2,0,0,1,0,52359,0.287752,0.287428,-0.262152,27,0.0184182,10,-7.53499e-05,-3.58145,-0.0546018,-1.08055,10.9631,0.287428,
2,0,0,1,0,52359.1,0.286254,0.285911,-0.275951,27,0.0183969,10,-7.88975e-05,-3.55917,-0.0597201,-0.987942,10.6687,0.285911,
2,0,0,1,0,52359.2,0.284754,0.284425,-0.292759,27,0.0183743,10,-8.32681e-05,-3.53349,-0.0667838,-0.883448,10.0717,0.284425,
2,0,0,1,0,52359.2,0.283259,0.282944,-0.309156,27,0.0183507,10,-8.74738e-05,-3.50982,-0.0789483,-0.747324,8.94787,0.282944,
2,0,0,1,0,52359.3,0.281759,0.281421,-0.319969,27,0.018326,10,-9.00459e-05,-3.49489,-0.0880196,-0.670305,8.34154,0.281421,
2,0,0,1,0,52359.4,0.280261,0.279951,-0.329707,27,0.0183003,10,-9.23019e-05,-3.48187,-0.0962949,-0.612701,7.91738,0.279951,
2,0,0,1,0,52359.5,0.278763,0.27848,-0.344891,27,0.0182739,10,-9.60453e-05,-3.46232,-0.103272,-0.571306,7.67345,0.27848,
2,0,0,1,0,52359.5,0.277264,0.276948,-0.356088,27,0.0182466,10,-9.86177e-05,-3.44844,-0.106448,-0.554263,7.69575,0.276948,
2,0,0,1,0,52359.6,0.275766,0.275446,-0.36547,27,0.0182184,10,-0.000100667,-3.43715,-0.150888,-0.391018,5.54504,0.275446,
2,0,0,1,0,52359.7,0.274268,0.273952,-0.376152,27,0.0181894,10,-0.000103047,-3.42464,-0.139684,-0.422383,6.20277,0.273952,
2,0,0,1,0,52359.8,0.27277,0.272449,-0.386097,27,0.0181599,10,-0.000105192,-3.4133,-0.137689,-0.428501,6.46255,0.272449,
2,0,0,1,0,52359.8,0.271272,0.270914,-0.396661,27,0.0181296,10,-0.000107461,-3.40158,-0.137654,-0.428612,6.5917,0.270914,
2,0,0,1,0,52359.9,0.269774,0.269449,-0.40451,27,0.0180985,10,-0.000108995,-3.39307,-0.174733,-0.337657,5.3033,0.2694492,
2,0,0,1,0,52360,0.268274,0.267915,-0.41285,27,0.0180668,10,-0.000110609,-3.38421,-0.202369,-0.291547,4.67656,0.267915,
2,0,0,1,0,52360.1,0.266779,0.266482,-0.420075,27,0.0180347,10,-0.000111942,-3.37667,-0.175997,-0.335233,5.49205,0.266482,
2,0,0,1,0,52360.1,0.265279,0.264942,-0.42719,27,0.0180019,10,-0.00011318,-3.36938,-0.157013,-0.375766,6.24853,0.264942,
2,0,0,1,0,52360.2,0.263781,0.263495,-0.435427,27,0.0179685,10,-0.000114733,-3.36108,-0.193929,-0.304235,5.17229,0.263495,
2,0,0,1,0,52360.3,0.262283,0.261986,-0.441537,27,0.0179345,10,-0.000115676,-3.35503,-0.230866,-0.255559,4.40638,0.261986,
2,0,0,1,0,52360.4,0.260784,0.260472,-0.447909,27,0.0179,10,-0.000116668,-3.34881,-0.221537,-0.266321,4.68302,0.260472,
2,0,0,1,0,52360.4,0.259286,0.258971,-0.4568,27,0.017865,10,-0.000118298,-3.34027,-0.195767,-0.301379,5.36273,0.258971,
2,0,0,1,0,52360.5,0.257788,0.257491,-0.465136,27,0.0178293,10,-0.000119769,-3.33242,-0.231412,-0.254956,4.5991,0.257491,
2,0,0,1,0,52360.6,0.25629,0.255981,-0.472276,27,0.0177931,10,-0.000120894,-3.3258,-0.276136,-0.213663,3.91662,0.255981,
2,0,0,1,0,52360.7,0.25479,0.254457,-0.47575,27,0.0177564,10,-0.000121058,-3.32262,-0.260832,-0.226199,4.21862,0.2544567,
2,0,0,1,0,52360.7,0.253294,0.252979,-0.486665,27,0.0177194,10,-0.000123116,-3.31277,-0.265077,-0.222577,4.20745,0.2529788,
2,0,0,1,0,52360.8,0.251795,0.251475,-0.490214,27,0.0176817,10,-0.000123277,-3.30961,-0.229011,-0.25763,4.93388,0.2514748,
2,0,0,1,0,52360.9,0.250297,0.249976,-0.496678,27,0.0176436,10,-0.000124157,-3.30392,-0.297145,-0.198556,3.8404,0.249976,
2,0,0,1,0,52361,0.248799,0.248457,-0.503331,27,0.017605,10,-0.000125056,-3.29815,-0.308973,-0.190955,3.74737,0.248457,
2,0,0,1,0,52361,0.247301,0.247001,-0.507695,27,0.0175661,10,-0.000125401,-3.2944,-0.288743,-0.204334,4.06801,0.2470006,
2,0,0,1,0,52361.1,0.245802,0.245446,-0.517197,27,0.0175267,10,-0.000126944,-3.28634,-0.2672,-0.220808,4.42838,0.245446,
2,0,0,1,0,52361.2,0.244304,0.244002,-0.522501,27,0.0174867,10,-0.000127492,-3.28191,-0.288534,-0.204482,4.15038,0.244002,
2,0,0,1,0,52361.3,0.242806,0.242514,-0.527666,27,0.0174463,10,-0.000127966,-3.27764,-0.396848,-0.148672,3.06042,0.2425139,
2,0,0,1,0,52361.3,0.241308,0.241013,-0.530239,27,0.0174057,10,-0.000127794,-3.27553,-0.383712,-0.153761,3.18789,0.241013,
2,0,0,1,0,52361.4,0.23981,0.239442,-0.53686,27,0.0173646,10,-0.000128547,-3.27014,-0.255658,-0.230777,4.82842,0.239442,
2,0,0,1,0,52361.5,0.23831,0.237956,-0.543357,27,0.0173229,10,-0.000129295,-3.26491,-0.338474,-0.174312,3.69626,0.237956,
2,0,0,1,0,52361.6,0.236815,0.236477,-0.548661,27,0.017281,10,-0.000129746,-3.2607,-0.361061,-0.163407,3.497,0.236477,
2,0,0,1,0,52361.6,0.235315,0.234976,-0.551191,27,0.0172385,10,-0.000129516,-3.2587,-0.328393,-0.179663,3.87391,0.234976,
2,0,0,1,0,52361.7,0.233817,0.2335,-0.558444,27,0.0171958,10,-0.000130397,-3.25302,-0.363184,-0.162452,3.53694,0.2335,
2,0,0,1,0,52361.8,0.232319,0.232008,-0.564639,27,0.0171525,10,-0.000131001,-3.24823,-0.351586,-0.167811,3.68875,0.232008,
2,0,0,1,0,52361.9,0.230821,0.230501,-0.569889,27,0.0171089,10,-0.00013136,-3.24421,-0.404319,-0.145924,3.23091,0.230501,
2,0,0,1,0,52361.9,0.229322,0.228979,-0.571302,27,0.0170648,10,-0.000130816,-3.24313,-0.442233,-0.133414,2.9841,0.2289793,
2,0,0,1,0,52362,0.227824,0.227481,-0.579468,27,0.0170205,10,-0.000131818,-3.23697,-0.430297,-0.137115,3.11077,0.227481,
2,0,0,1,0,52362.1,0.226326,0.226012,-0.586154,27,0.0169757,10,-0.000132478,-3.23199,-0.38822,-0.151976,3.46968,0.226012,
2,0,0,1,0,52362.2,0.224828,0.224528,-0.592336,27,0.0169305,10,-0.000132996,-3.22743,-0.45816,-0.128776,2.96377,0.224528,
2,0,0,1,0,52362.2,0.22333,0.222983,-0.597051,27,0.0168849,10,-0.000133133,-3.22399,-0.399669,-0.147622,3.42147,0.222983,
2,0,0,1,0,52362.3,0.22183,0.221511,-0.602392,27,0.016839,10,-0.000133436,-3.22012,-0.407566,-0.144762,3.38971,0.2215108,
2,0,0,1,0,52362.4,0.220335,0.220033,-0.607631,27,0.0167927,10,-0.000133699,-3.21636,-0.313223,-0.188364,4.45256,0.220033,
2,0,0,1,0,52362.5,0.218835,0.218479,-0.613407,27,0.0167458,10,-0.000134017,-3.21225,-0.382759,-0.154144,3.68373,0.218479,
2,0,0,1,0,52362.5,0.217337,0.217044,-0.616857,27,0.0166986,10,-0.000133885,-3.20982,-0.553032,-0.106685,2.56605,0.217044,
2,0,0,1,0,52362.6,0.215839,0.215515,-0.619028,27,0.0166512,10,-0.00013341,-3.20829,-0.505569,-0.1167,2.83339,0.215515,
2,0,0,1,0,52362.7,0.21434,0.214026,-0.62743,27,0.0166034,10,-0.000134286,-3.20243,-0.315939,-0.186745,4.56257,0.214026,
2,0,0,1,0,52362.8,0.212842,0.212517,-0.632858,27,0.0165552,10,-0.000134493,-3.19869,-0.460832,-0.128029,3.15205,0.212517,
2,0,0,1,0,52362.8,0.211344,0.211002,-0.634418,27,0.0165065,10,-0.000133864,-3.19762,-0.416943,-0.141506,3.50613,0.211002,
2,0,0,1,0,52362.9,0.209846,0.209537,-0.638207,27,0.0164576,10,-0.000133728,-3.19504,-0.406491,-0.145145,3.63382,0.209537,
2,0,0,1,0,52363,0.208348,0.20802,-0.6468,27,0.0164083,10,-0.000134547,-3.18923,-0.364794,-0.161735,4.09468,0.20802,
2,0,0,1,0,52363.1,0.20685,0.206525,-0.655335,27,0.0163585,10,-0.000135343,-3.18354,-0.394589,-0.149523,3.8023,0.2065247,
2,0,0,1,0,52363.1,0.20535,0.205011,-0.655901,27,0.0163081,10,-0.000134467,-3.18316,-0.442909,-0.13321,3.40477,0.205011,
2,0,0,1,0,52363.2,0.203855,0.203481,-0.661948,27,0.0162576,10,-0.000134694,-3.17918,-0.483883,-0.12193,3.15633,0.203481,
2,0,0,1,0,52363.3,0.202355,0.20199,-0.666283,27,0.0162068,10,-0.000134582,-3.17634,-0.431773,-0.136646,3.57137,0.20199,
2,0,0,1,0,52363.4,0.200857,0.200529,-0.671751,27,0.0161555,10,-0.000134705,-3.17279,-0.373236,-0.158077,4.14847,0.200529,
2,0,0,1,0,52363.4,0.199359,0.199027,-0.676585,27,0.0161038,10,-0.000134658,-3.16968,-0.399119,-0.147826,3.90231,0.199027,
2,0,0,1,0,52363.5,0.19786,0.197523,-0.682072,27,0.0160517,10,-0.000134725,-3.16617,-0.439571,-0.134222,3.57419,0.197523,
2,0,0,1,0,52363.6,0.196362,0.196026,-0.689867,27,0.0159993,10,-0.000135232,-3.16123,-0.419065,-0.14079,3.7794,0.196026,
2,0,0,1,0,52363.7,0.194864,0.194541,-0.695903,27,0.0159464,10,-0.000135382,-3.15745,-0.33811,-0.1745,4.72279,0.194541,
2,0,0,1,0,52363.7,0.193366,0.193013,-0.700493,27,0.0158929,10,-0.000135205,-3.1546,-0.384039,-0.15363,4.19319,0.193013,
2,0,0,1,0,52363.8,0.191866,0.191542,-0.706814,27,0.015839,10,-0.000135385,-3.15069,-0.440006,-0.134089,3.69665,0.191542,
2,0,0,1,0,52363.9,0.19037,0.190046,-0.70975,27,0.0157849,10,-0.000134885,-3.14889,-0.447778,-0.131762,3.66048,0.190046,
2,0,0,1,0,52364,0.188871,0.188546,-0.717594,27,0.0157303,10,-0.000135299,-3.14412,-0.336009,-0.17559,4.90803,0.188546,
2,0,0,1,0,52364,0.187373,0.18706,-0.723288,27,0.0156752,10,-0.000135298,-3.14069,-0.383572,-0.153817,4.34338,0.18706,
2,0,0,1,0,52364.1,0.185875,0.185499,-0.729412,27,0.0156196,10,-0.000135305,-3.13703,-0.546555,-0.107949,3.06528,0.185499,
2,0,0,1,0,52364.2,0.184377,0.184064,-0.732252,27,0.0155636,10,-0.000134782,-3.13534,-0.417088,-0.141457,4.05917,0.1840644,
2,0,0,1,0,52364.3,0.182878,0.18253,-0.74078,27,0.0155072,10,-0.000135215,-3.13031,-0.35966,-0.164044,4.75788,0.18253,
2,0,0,1,0,52364.3,0.18138,0.181083,-0.749521,27,0.0154502,10,-0.000135725,-3.12522,-0.352395,-0.167426,4.89399,0.181083,
2,0,0,1,0,52364.4,0.179882,0.179503,-0.755715,27,0.0153927,10,-0.000135653,-3.12164,-0.472778,-0.124794,3.68014,0.179503,
2,0,0,1,0,52364.5,0.178384,0.178052,-0.762418,27,0.0153347,10,-0.00013575,-3.11781,-0.414571,-0.142316,4.23538,0.178052,
2,0,0,1,0,52364.6,0.176886,0.176538,-0.770243,27,0.0152763,10,-0.000135977,-3.11337,-0.368368,-0.160166,4.81746,0.176538,
2,0,0,1,0,52364.6,0.175386,0.175037,-0.779093,27,0.0152171,10,-0.00013637,-3.10841,-0.328886,-0.179393,5.43019,0.175037,
2,0,0,1,0,52364.7,0.173891,0.173528,-0.786296,27,0.0151575,10,-0.000136444,-3.10441,-0.368838,-0.159962,4.8893,0.1735276,
2,0,0,1,0,52364.8,0.172391,0.172065,-0.793459,27,0.0150972,10,-0.000136527,-3.10048,-0.334427,-0.176421,5.46272,0.172065,
2,0,0,1,0,52364.9,0.170893,0.170594,-0.800144,27,0.0150364,10,-0.0001365,-3.09683,-0.342363,-0.172332,5.38094,0.170594,
2,0,0,1,0,52364.9,0.169395,0.169052,-0.809011,27,0.0149748,10,-0.000136765,-3.09205,-0.257968,-0.228711,7.23055,0.169052,
2,0,0,1,0,52365,0.167897,0.167567,-0.821093,27,0.0149124,10,-0.000137588,-3.08561,-0.260078,-0.226855,7.27601,0.167567,
2,0,0,1,0,52365.1,0.166398,0.166018,-0.831538,27,0.0148493,10,-0.000138051,-3.08012,-0.307139,-0.192096,6.24328,0.166018,
2,0,0,1,0,52365.2,0.1649,0.16457,-0.838547,27,0.0147855,10,-0.000138,-3.07647,-0.270805,-0.217869,7.16406,0.16457,
2,0,0,1,0,52365.2,0.163402,0.163073,-0.855561,27,0.0147209,10,-0.000139519,-3.06775,-0.231393,-0.254977,8.48302,0.163073,
2,0,0,1,0,52365.3,0.161904,0.161544,-0.868471,27,0.0146553,10,-0.000140296,-3.06124,-0.227094,-0.259805,8.7826,0.161544,
2,0,0,1,0,52365.4,0.160406,0.1601,-0.882199,27,0.0145888,10,-0.00014124,-3.05443,-0.226453,-0.260539,8.94734,0.1601,
2,0,0,1,0,52365.5,0.158906,0.15855,-0.892242,27,0.0145211,10,-0.000141465,-3.04952,-0.212329,-0.27787,9.70161,0.15855,
2,0,0,1,0,52365.5,0.157411,0.157107,-0.90807,27,0.0144527,10,-0.000142664,-3.04188,-0.176463,-0.334347,11.9117,0.157107,
2,0,0,1,0,52365.6,0.155911,0.155584,-0.926683,27,0.0143827,10,-0.000144177,-3.03307,-0.170859,-0.345313,12.4954,0.155584,
2,0,0,1,0,52365.7,0.154413,0.154083,-0.945943,27,0.0143113,10,-0.000145754,-3.02413,-0.176365,-0.334533,12.3289,0.154083,
2,0,0,1,0,52365.8,0.152915,0.152621,-0.96492,27,0.0142385,10,-0.000147267,-3.01551,-0.155205,-0.380142,14.3515,0.152621,
2,0,0,1,0,52365.8,0.151417,0.151059,-0.987745,27,0.0141642,10,-0.000149208,-3.00536,-0.141097,-0.418153,16.1783,0.151059,
2,0,0,1,0,52365.9,0.149918,0.149581,-1.01503,27,0.0140881,10,-0.00015183,-2.99352,-0.127712,-0.461976,18.2955,0.149581,
2,0,0,1,0,52366,0.14842,0.148094,-1.04527,27,0.0140098,10,-0.000154799,-2.98077,-0.121989,-0.483652,19.7186,0.148094,
2,0,0,1,0,52366.1,0.146922,0.146572,-1.07458,27,0.0139293,10,-0.000157505,-2.96876,-0.114283,-0.516262,21.6989,0.146572,
2,0,0,1,0,52366.1,0.145424,0.145106,-1.10671,27,0.0138463,10,-0.00016059,-2.95597,-0.103868,-0.568031,24.6607,0.145106,
2,0,0,1,0,52366.2,0.143926,0.143568,-1.14923,27,0.0137606,10,-0.000164992,-2.93959,-0.0900217,-0.655398,29.4696,0.143568,
2,0,0,1,0,52366.3,0.142426,0.14209,-1.19464,27,0.0136716,10,-0.000169747,-2.92276,-0.089137,-0.661902,30.9043,0.14209,
2,0,0,1,0,52366.4,0.140931,0.140571,-1.23873,27,0.0135793,10,-0.00017413,-2.90702,-0.0900142,-0.655452,31.7292,0.140571,
2,0,0,1,0,52366.4,0.139431,0.139054,-1.28371,27,0.0134833,10,-0.000178505,-2.89153,-0.0890428,-0.662602,33.391,0.139054,
2,0,0,1,0,52366.5,0.137933,0.137581,-1.34355,27,0.0133837,10,-0.000184848,-2.87175,-0.0872858,-0.67594,35.4187,0.137581,
2,0,0,1,0,52366.6,0.136435,0.136073,-1.39987,27,0.0132799,10,-0.000190484,-2.85391,-0.0861694,-0.684698,37.32,0.136073,
2,0,0,1,0,52366.7,0.134936,0.13458,-1.45175,27,0.0131718,10,-0.000195377,-2.83811,-0.0900315,-0.655326,37.1218,0.13458,
2,0,0,1,0,52366.7,0.133438,0.133086,-1.51035,27,0.0130595,10,-0.000201007,-2.82092,-0.0903368,-0.653111,38.5087,0.133086,
2,0,0,1,0,52366.8,0.13194,0.131634,-1.56897,27,0.0129431,10,-0.000206529,-2.80439,-0.0953785,-0.618588,37.9119,0.131634,
2,0,0,1,0,52366.9,0.130442,0.130084,-1.62789,27,0.0128222,10,-0.000211763,-2.78838,-0.0974255,-0.605591,38.4008,0.130084,
2,0,0,1,0,52367,0.128942,0.128624,-1.68328,27,0.0126967,10,-0.000216509,-2.77384,-0.107308,-0.549821,36.0127,0.128624,
2,0,0,1,0,52367,0.127446,0.127136,-1.73865,27,0.0125674,10,-0.000221044,-2.75979,-0.112203,-0.525832,35.5835,0.127136,
2,0,0,1,0,52367.1,0.125947,0.125593,-1.78942,27,0.012434,10,-0.000224739,-2.74729,-0.121327,-0.486289,33.916,0.125593,
2,0,0,1,0,52367.2,0.124449,0.1241,-1.84222,27,0.0122969,10,-0.000228619,-2.73466,-0.128668,-0.458546,32.8481,0.1241,
2,0,0,1,0,52367.3,0.122951,0.122626,-1.88998,27,0.0121559,10,-0.000231761,-2.72354,-0.141982,-0.415546,30.5762,0.122626,
2,0,0,1,0,52367.3,0.121453,0.121103,-1.93117,27,0.0120116,10,-0.00023387,-2.71418,-0.15964,-0.369581,27.8212,0.121103,
2,0,0,1,0,52367.4,0.119955,0.119635,-1.97153,27,0.0118642,10,-0.000235863,-2.7052,-0.1802,-0.327413,25.156,0.119635,
2,0,0,1,0,52367.5,0.118456,0.118127,-2.00888,27,0.0117138,10,-0.000237304,-2.69705,-0.191553,-0.308008,24.1297,0.118127,
2,0,0,1,0,52367.6,0.116958,0.116637,-2.04777,27,0.0115606,10,-0.000238845,-2.68872,-0.212837,-0.277208,22.0786,0.116637,
2,0,0,1,0,52367.6,0.11546,0.115103,-2.07575,27,0.011405,10,-0.000238925,-2.68282,-0.278869,-0.211569,17.0866,0.115103,
2,0,0,1,0,52367.7,0.113962,0.113665,-2.09556,27,0.0112474,10,-0.000238192,-2.6787,-0.344951,-0.171039,13.97,0.113665,
2,0,0,1,0,52367.8,0.112462,0.112151,-2.11788,27,0.0110882,10,-0.000237522,-2.6741,-0.438239,-0.13463,11.1087,0.112151,
2,0,0,1,0,52367.9,0.110967,0.110607,-2.13271,27,0.010928,10,-0.000235892,-2.67107,-0.547738,-0.107716,8.94312,0.110607,
2,0,0,1,0,52367.9,0.109467,0.109169,-2.14269,27,0.0107664,10,-0.000233915,-2.66904,-1.21498,-0.0485605,4.05104,0.109169,
2,0,0,1,0,52368,0.107969,0.107648,-2.1463,27,0.0106043,10,-0.000231046,-2.66831,-2.21401,-0.0266485,2.23216,0.107648,
2,0,0,1,0,52368.1,0.106471,0.106124,-2.148,27,0.0104423,10,-0.000227953,-2.66797,438.496,0.000134551,-0.0112838,0.106124,
2,0,0,1,0,52368.2,0.104973,0.104644,-2.14821,27,0.01028,10,-0.000224798,-2.66792,2.81173,0.0209835,-1.75708,0.104644,
2,0,0,1,0,52368.2,0.103474,0.10312,-2.14536,27,0.0101178,10,-0.000221229,-2.6685,1.30195,0.0453167,-3.78602,0.1031201,
2,0,0,1,0,52368.3,0.101976,0.101628,-2.13957,27,0.0099562,10,-0.000217441,-2.66967,0.775585,0.0760716,-6.3437,0.101628,
2,0,0,1,0,52368.4,0.100478,0.100114,-2.12629,27,0.00979538,10,-0.00021287,-2.67238,0.784778,0.0751805,-6.24272,0.100114,
2,0,0,1,0,52368.5,0.0989798,0.0986549,-2.11828,27,0.00963522,10,-0.000208978,-2.67402,0.750544,0.0786097,-6.48896,0.0986549,
2,0,0,1,0,52368.5,0.0974817,0.0971333,-2.10931,27,0.00947581,10,-0.000204884,-2.67586,0.629003,0.0937992,-7.70707,0.0971333,
2,0,0,1,0,52368.6,0.0959821,0.0956737,-2.09471,27,0.00931711,10,-0.000200409,-2.67888,0.591284,0.0997828,-8.15172,0.0956737,
2,0,0,1,0,52368.7,0.0944866,0.0941492,-2.07982,27,0.00915989,10,-0.000195814,-2.68197,0.533897,0.110508,-8.97424,0.09414915,
2,0,0,1,0,52368.8,0.0929871,0.0926393,-2.06495,27,0.00900317,10,-0.000191296,-2.68509,0.645983,0.0913337,-7.37394,0.0926393,
2,0,0,1,0,52368.8,0.0914889,0.0911388,-2.05877,27,0.00884747,10,-0.000187634,-2.68639,0.611562,0.0964742,-7.745,0.09113881,
2,0,0,1,0,52368.9,0.0899907,0.0896268,-2.04338,27,0.00869264,10,-0.000183141,-2.68965,0.557482,0.105833,-8.43574,0.0896268,
2,0,0,1,0,52369,0.0884925,0.08817,-2.03066,27,0.00853876,10,-0.000179043,-2.69236,0.573033,0.102961,-8.16365,0.08817,
2,0,0,1,0,52369.1,0.0869943,0.0865886,-2.01973,27,0.00838586,10,-0.000174885,-2.69471,0.62033,0.0951106,-7.50016,0.0865886,
2,0,0,1,0,52369.1,0.0854961,0.0851559,-2.00954,27,0.00823367,10,-0.000171124,-2.6969,0.732614,0.0805335,-6.32019,0.0851559,
2,0,0,1,0,52369.2,0.083998,0.0836469,-1.99958,27,0.00808231,10,-0.000167259,-2.69906,0.576094,0.102414,-7.99603,0.0836469,
2,0,0,1,0,52369.3,0.0824998,0.0821332,-1.99142,27,0.00793166,10,-0.000163562,-2.70084,0.603055,0.0978351,-7.59592,0.0821332,
2,0,0,1,0,52369.4,0.081002,0.0806401,-1.98059,27,0.00778187,10,-0.000159715,-2.70321,0.79589,0.0741309,-5.73426,0.0806401,
2,0,0,1,0,52369.4,0.0795025,0.0791337,-1.97082,27,0.00763259,10,-0.000155958,-2.70535,0.786891,0.0749786,-5.77251,0.0791337,
2,0,0,1,0,52369.5,0.078007,0.0776684,-1.96395,27,0.00748427,10,-0.000152537,-2.70687,0.780463,0.0755961,-5.78552,0.0776684,
2,0,0,1,0,52369.6,0.076507,0.0761807,-1.95384,27,0.00733621,10,-0.000148845,-2.70911,0.655179,0.0900518,-6.86039,0.0761807,
2,0,0,1,0,52369.7,0.0750088,0.0746656,-1.94232,27,0.0071892,10,-0.000145024,-2.71168,0.643576,0.0916753,-6.94717,0.0746656,
2,0,0,1,0,52369.7,0.0735106,0.0731736,-1.93277,27,0.00704293,10,-0.000141428,-2.71382,0.75924,0.0777093,-5.85839,0.0731736,
2,0,0,1,0,52369.8,0.0720124,0.0716784,-1.92415,27,0.0068973,10,-0.00013792,-2.71576,0.707028,0.0834479,-6.26339,0.07167837,
2,0,0,1,0,52369.9,0.0705142,0.0702067,-1.91348,27,0.00675239,10,-0.000134339,-2.71818,0.569737,0.103557,-7.72646,0.0702067,
2,0,0,1,0,52370,0.069016,0.0687063,-1.89949,27,0.00660837,10,-0.000130507,-2.72136,0.580975,0.101553,-7.53715,0.0687063,
2,0,0,1,0,52370,0.0675179,0.0671833,-1.89208,27,0.00646518,10,-0.000127116,-2.72306,0.838248,0.0703849,-5.2008,0.0671833,
2,0,0,1,0,52370.1,0.0660179,0.0656663,-1.88691,27,0.00632248,10,-0.000123906,-2.72425,0.742699,0.07944,-5.83223,0.0656663,
2,0,0,1,0,52370.2,0.0645224,0.0641821,-1.87485,27,0.00618072,10,-0.000120332,-2.72703,0.621987,0.0948572,-6.92712,0.06418214,
2,0,0,1,0,52370.3,0.0630229,0.0626886,-1.86099,27,0.00603944,10,-0.000116663,-2.73026,0.615091,0.0959208,-6.96501,0.0626886,
2,0,0,1,0,52370.3,0.0615251,0.0611611,-1.85048,27,0.00589928,10,-0.000113177,-2.73272,0.614566,0.0960026,-6.9469,0.06116109,
2,0,0,1,0,52370.4,0.0600269,0.0596842,-1.83984,27,0.00575993,10,-0.000109809,-2.73522,0.615228,0.0958993,-6.89277,0.05968418,
2,0,0,1,0,52370.5,0.0585287,0.0581973,-1.83012,27,0.0056212,10,-0.000106508,-2.73752,0.493631,0.119523,-8.51997,0.05819732,
2,0,0,1,0,52370.6,0.0570305,0.0566748,-1.82034,27,0.00548328,10,-0.000103167,-2.73985,0.563389,0.104723,-7.43286,0.0566748,
2,0,0,1,0,52370.6,0.0555323,0.0552041,-1.80685,27,0.00534644,10,-9.97457e-05,-2.74308,0.52485,0.112413,-7.94068,0.0552041,
2,0,0,1,0,52370.7,0.0540342,0.0537013,-1.79677,27,0.00521031,10,-9.6489e-05,-2.74551,0.582419,0.101302,-7.09933,0.05370133,
2,0,0,1,0,52370.8,0.052536,0.0521934,-1.78595,27,0.00507483,10,-9.32146e-05,-2.74813,0.573818,0.10282,-7.16248,0.0521934,
2,0,0,1,0,52370.9,0.0510378,0.0507356,-1.77254,27,0.00494029,10,-8.99308e-05,-2.7514,0.48564,0.121489,-8.41174,0.0507356,
2,0,0,1,0,52370.9,0.0495382,0.0491714,-1.76098,27,0.00480659,10,-8.65898e-05,-2.75425,0.550926,0.107092,-7.36157,0.0491714,
2,0,0,1,0,52371,0.0480427,0.047733,-1.74962,27,0.00467413,10,-8.35146e-05,-2.75706,0.610832,0.0965896,-6.59956,0.047733,
2,0,0,1,0,52371.1,0.0465432,0.0462153,-1.73722,27,0.00454208,10,-8.02859e-05,-2.76015,0.547478,0.107767,-7.31057,0.0462153,
2,0,0,1,0,52371.2,0.045045,0.0446965,-1.725,27,0.00441107,10,-7.71016e-05,-2.76321,0.477653,0.123521,-8.32031,0.0446965,
2,0,0,1,0,52371.2,0.0435468,0.0432098,-1.7123,27,0.00428103,10,-7.39882e-05,-2.76642,0.459076,0.128519,-8.59232,0.0432098,
2,0,0,1,0,52371.3,0.0420486,0.0417082,-1.70158,27,0.00415205,10,-7.09698e-05,-2.76915,0.484148,0.121863,-8.0946,0.04170816,
2,0,0,1,0,52371.4,0.0405504,0.0401809,-1.69021,27,0.0040239,10,-6.79142e-05,-2.77206,0.493785,0.119485,-7.87367,0.0401809,
2,0,0,1,0,52371.5,0.0390523,0.0387409,-1.67754,27,0.00389652,10,-6.49895e-05,-2.77533,0.4424,0.133364,-8.71474,0.0387409,
2,0,0,1,0,52371.5,0.0375541,0.0372164,-1.66192,27,0.00377021,10,-6.18506e-05,-2.77939,0.387142,0.152399,-9.90496,0.0372164,
2,0,0,1,0,52371.6,0.0360559,0.0357042,-1.64869,27,0.00364508,10,-5.8865e-05,-2.78286,0.458363,0.128719,-8.29657,0.0357042,
2,0,0,1,0,52371.7,0.0345577,0.0342408,-1.637,27,0.00352082,10,-5.60521e-05,-2.78595,0.491916,0.119939,-7.66106,0.0342408,
2,0,0,1,0,52371.8,0.0330582,0.0326549,-1.62546,27,0.00339724,10,-5.30794e-05,-2.78902,0.431886,0.13661,-8.65863,0.0326549,
2,0,0,1,0,52371.8,0.0315626,0.0312083,-1.61238,27,0.00327502,10,-5.03196e-05,-2.79253,0.42257,0.139622,-8.78522,0.0312083,
2,0,0,1,0,52371.9,0.0300631,0.0297485,-1.59841,27,0.00315356,10,-4.75505e-05,-2.79631,0.455364,0.129567,-8.08934,0.0297485,
2,0,0,1,0,52372,0.0285649,0.0282102,-1.58679,27,0.00303312,10,-4.47636e-05,-2.79948,0.492323,0.11984,-7.41495,0.0282102,
2,0,0,1,0,52372.1,0.0270667,0.026698,-1.57744,27,0.00291343,10,-4.21144e-05,-2.80205,0.450072,0.13109,-8.05563,0.026698,
2,0,0,1,0,52372.1,0.0255685,0.0252622,-1.5632,27,0.00279468,10,-3.94897e-05,-2.80599,0.403193,0.146332,-8.92852,0.0252622,
2,0,0,1,0,52372.2,0.0240704,0.023715,-1.54889,27,0.00267688,10,-3.67318e-05,-2.80998,0.449582,0.131233,-7.9564,0.02371498,
2,0,0,1,0,52372.3,0.0225722,0.0222687,-1.53874,27,0.00255992,10,-3.42656e-05,-2.81284,0.511528,0.115341,-6.93071,0.0222687,
2,0,0,1,0,52372.4,0.021074,0.0206948,-1.53186,27,0.00244373,10,-3.17015e-05,-2.81478,0.526047,0.112157,-6.70125,0.0206948,
2,0,0,1,0,52372.4,0.0195758,0.0192358,-1.52118,27,0.00232833,10,-2.92612e-05,-2.81782,0.503064,0.117281,-6.95691,0.0192358,
2,0,0,1,0,52372.5,0.018078,0.0177722,-1.50596,27,0.00221371,10,-2.67642e-05,-2.82219,0.591574,0.099734,-5.87786,0.0177722,
2,0,0,1,0,52372.6,0.0165785,0.0162621,-1.50049,27,0.00209967,10,-2.44011e-05,-2.82377,0.677852,0.0870396,-5.10137,0.0162621,
2,0,0,1,0,52372.7,0.015083,0.0147618,-1.494,27,0.00198647,10,-2.20542e-05,-2.82565,0.723817,0.0815124,-4.75275,0.0147618,
2,0,0,1,0,52372.7,0.013583,0.013251,-1.48645,27,0.00187352,10,-1.96968e-05,-2.82785,0.598298,0.098613,-5.71278,0.013251,
2,0,0,1,0,52372.8,0.0120848,0.0117411,-1.47962,27,0.00176128,10,-1.73723e-05,-2.82985,0.779148,0.0757238,-4.37341,0.0117411,
2,0,0,1,0,52372.9,0.0105866,0.0102373,-1.47096,27,0.0016497,10,-1.50587e-05,-2.8324,0.862325,0.0684197,-3.93522,0.0102373,
2,0,0,1,0,52373,0.00908846,0.00873288,-1.46675,27,0.00153845,10,-1.2809e-05,-2.83364,1.21158,0.0486968,-2.78911,0.00873288,
2,0,0,1,0,52373,0.00759027,0.00723428,-1.46455,27,0.00142756,10,-1.05949e-05,-2.8343,1.0549,0.0559296,-3.19575,0.00723428,
2,0,0,1,0,52373.1,0.00609208,0.00577958,-1.45885,27,0.00131698,10,-8.43153e-06,-2.83599,0.990354,0.0595746,-3.3869,0.00577958,
2,0,0,1,0,52373.2,0.00459389,0.0042397,-1.45461,27,0.00120681,10,-6.16711e-06,-2.83725,1.81395,0.0325258,-1.84894,0.0042397,
2,0,0,1,0,52373.3,0.00309391,0.0027468,-1.45312,27,0.00109669,10,-3.99143e-06,-2.8377,-1.3736,-0.0429529,2.44217,0.0027468,
2,0,0,1,0,52373.3,0.0015984,0.00120908,-1.4666,27,0.000986132,10,-1.77323e-06,-2.83369, , , ,0.00120908,
2,0,0,1,0,52373.4,0.000199195,-0.000156154,-1.45729,27,0.000882813,10,2.27562e-07,-2.83645, , , ,-0.000156154,