File: Figure_codes/Fig_3-5/rawdata_trumpetplot_data/after 10th/20221101_1-115_003_TrumpetPlot_ParaChange_from10_every3_09_CV_C01_6.csv
mode,ox/red,error,control changes,counter inc.,time/s,control/V,Ewe/V,<I>/mA,cycle number,(Q-Qo)/C,I Range,P/W,log(|I|),Tafel slope mV/dec,alpha_eff,dI/d(E-IR),E-IR/V,
2,0,0,0,0,13003.3,2.44065e-05,-0.000229887,-5.37591,7,0.0000000E+000,10,1.23585e-06,-2.26955, , , ,-0.000229887,
2,0,0,1,0,13003.3,0.00179726,0.00140415,-2.59838,7,-6.69552e-05,10,-3.64853e-06,-2.5853, , , ,0.00140415,
2,0,0,1,0,13003.3,0.00379485,0.00350957,-0.713725,7,-9.80443e-05,10,-2.50487e-06,-3.14647,-0.00559927,-10.5371,762.149,0.00350957,
2,1,0,1,0,13003.4,0.00579244,0.0054573,0.490719,7,-9.92061e-05,10,2.678e-06,-3.30917,0.0145983,4.04156,515.687,0.0054573,
2,1,0,1,0,13003.4,0.00779002,0.00748429,1.33599,7,-8.01886e-05,10,9.99895e-06,-2.8742,0.00666764,8.84871,366.059,0.00748429,
2,1,0,1,0,13003.4,0.00978761,0.009463,1.95704,7,-4.68499e-05,10,1.85195e-05,-2.7084,0.0153986,3.83152,272.617,0.009463,
2,1,0,1,0,13003.4,0.0117852,0.0114472,2.41635,7,-2.74421e-06,10,2.76605e-05,-2.61684,0.0265413,2.22295,203.323,0.0114472,
2,1,0,1,0,13003.4,0.0137828,0.0135013,2.77812,7,4.94651e-05,10,3.75081e-05,-2.55625,0.0387865,1.52115,162.158,0.01350127,
2,1,0,1,0,13003.5,0.0157804,0.0154963,3.07294,7,0.00010824,10,4.76194e-05,-2.51245,0.0516662,1.14194,135.469,0.0154963,
2,1,0,1,0,13003.5,0.017778,0.0174807,3.3172,7,0.000172062,10,5.79867e-05,-2.47923,0.0688562,0.856858,109.889,0.0174807,
2,1,0,1,0,13003.5,0.0197755,0.0194637,3.50891,7,0.000240531,10,6.82962e-05,-2.45483,0.0856174,0.689112,94.1931,0.0194637,
2,1,0,1,0,13003.5,0.0217731,0.0214848,3.69436,7,0.000312791,10,7.93728e-05,-2.43246,0.0963819,0.612148,87.955,0.0214848,
2,1,0,1,0,13003.5,0.0237707,0.0234546,3.85993,7,0.000388549,10,9.0533e-05,-2.41342,0.110922,0.531904,79.9363,0.0234546,
2,1,0,1,0,13003.6,0.0257683,0.0254525,4.01153,7,0.000467069,10,0.000102103,-2.39669,0.126646,0.465865,72.7929,0.0254525,
2,1,0,1,0,13003.6,0.0277659,0.0274541,4.15107,7,0.00054886,10,0.000113964,-2.38184,0.138283,0.42666,69.0783,0.0274541,
2,1,0,1,0,13003.6,0.0297635,0.0294643,4.28865,7,0.00063341,10,0.000126362,-2.36768,0.155371,0.379737,63.3954,0.0294643,
2,1,0,1,0,13003.6,0.0317611,0.0314893,4.40688,7,0.000720515,10,0.00013877,-2.35587,0.156529,0.376927,64.9529,0.0314893,
2,1,0,1,0,13003.6,0.0337586,0.0334074,4.54476,7,0.000809723,10,0.000151829,-2.34249,0.161978,0.364246,64.4197,0.0334074,
2,1,0,1,0,13003.7,0.0357562,0.0354003,4.65883,7,0.000901955,10,0.000164924,-2.33172,0.186665,0.316075,57.4767,0.03540032,
2,1,0,1,0,13003.7,0.0377538,0.0374327,4.77613,7,0.000996553,10,0.000178783,-2.32092,0.188972,0.312216,58.1863,0.0374327,
2,1,0,1,0,13003.7,0.0397514,0.0394373,4.89373,7,0.00109346,10,0.000192995,-2.31036,0.179487,0.328714,62.8785,0.0394373,
2,1,0,1,0,13003.7,0.041749,0.041452,5.02886,7,0.0011923,10,0.000208456,-2.29853,0.193352,0.305143,59.7019,0.041452,
2,1,0,1,0,13003.7,0.0437466,0.0434744,5.13475,7,0.00129409,10,0.00022323,-2.28948,0.219695,0.268554,53.8302,0.0434744,
2,1,0,1,0,13003.8,0.0457442,0.0454634,5.24479,7,0.00139801,10,0.000238446,-2.28027,0.214056,0.275629,56.4273,0.0454634,
2,1,0,1,0,13003.8,0.0477418,0.0474337,5.35816,7,0.00150422,10,0.000254158,-2.27098,0.209234,0.281981,59.0052,0.0474337,
2,1,0,1,0,13003.8,0.0497484,0.049457,5.48043,7,0.00161268,10,0.000271046,-2.26119,0.223402,0.264098,56.37,0.049457,
2,1,0,1,0,13003.8,0.0517369,0.051398,5.58163,7,0.00172282,10,0.000286884,-2.25324,0.245191,0.240629,52.4404,0.051398,
2,1,0,1,0,13003.8,0.0537345,0.0534362,5.6891,7,0.00183567,10,0.000304004,-2.24496,0.24675,0.239108,53.0743,0.0534362,
2,1,0,1,0,13003.9,0.0557321,0.055415,5.79483,7,0.0019507,10,0.000321121,-2.23696,0.250594,0.23544,53.2356,0.055415,
2,1,0,1,0,13003.9,0.0577206,0.0573904,5.89961,7,0.00206715,10,0.000338581,-2.22918,0.261336,0.225763,51.9709,0.0573904,
2,1,0,1,0,13003.9,0.0597273,0.0594297,6.00348,7,0.00218639,10,0.000356785,-2.2216,0.275764,0.213951,50.1045,0.05942969,
2,1,0,1,0,13003.9,0.0617249,0.0614469,6.10286,7,0.00230767,10,0.000375001,-2.21447,0.291072,0.202699,48.2543,0.0614469,
2,1,0,1,0,13003.9,0.0637224,0.0634463,6.19729,7,0.00243087,10,0.000393195,-2.2078,0.292192,0.201922,48.8576,0.0634463,
2,1,0,1,0,13004,0.06572,0.0654405,6.29797,7,0.002556,10,0.000412142,-2.2008,0.276085,0.213702,52.5566,0.0654405,
2,1,0,1,0,13004,0.0677176,0.0674396,6.40717,7,0.00268265,10,0.000432097,-2.19333,0.308233,0.191414,47.7519,0.0674396,
2,1,0,1,0,13004,0.0697152,0.0694089,6.48748,7,0.00281181,10,0.000450289,-2.18792,0.335135,0.176048,44.624,0.0694089,
2,1,0,1,0,13004,0.0717128,0.0713895,6.58343,7,0.00294273,10,0.000469987,-2.18155,0.322676,0.182846,46.9538,0.0713895,
2,1,0,1,0,13004,0.0737104,0.0733658,6.67327,7,0.00307547,10,0.00048959,-2.17566,0.32495,0.181566,47.311,0.0733658,
2,1,0,1,0,13004.1,0.075708,0.0753516,6.77088,7,0.00320944,10,0.000510196,-2.16936,0.360072,0.163856,43.228,0.0753516,
2,1,0,1,0,13004.1,0.0777056,0.07739,6.84722,7,0.00334573,10,0.000529906,-2.16449,0.402914,0.146433,39.1473,0.07739,
2,1,0,1,0,13004.1,0.0797031,0.0794163,6.93,7,0.00348372,10,0.000550355,-2.15927,0.375449,0.157145,42.514,0.0794163,
2,1,0,1,0,13004.1,0.0817007,0.0814009,7.01774,7,0.00362336,10,0.000571251,-2.1538,0.388129,0.152011,41.604,0.0814009,
2,1,0,1,0,13004.1,0.0836983,0.0834157,7.09639,7,0.0037639,10,0.000591951,-2.14896,0.4229,0.139513,38.6285,0.0834157,
2,1,0,1,0,13004.2,0.0856959,0.0853958,7.17206,7,0.00390676,10,0.000612464,-2.14436,0.442343,0.133381,37.3243,0.0853958,
2,1,0,1,0,13004.2,0.0876935,0.0873871,7.24462,7,0.00405109,10,0.000633087,-2.13998,0.453391,0.13013,36.7947,0.0873871,
2,1,0,1,0,13004.2,0.0896911,0.0893776,7.31857,7,0.0041969,10,0.000654116,-2.13557,0.407672,0.144724,41.3822,0.08937759,
2,1,0,1,0,13004.2,0.0916887,0.0913688,7.4094,7,0.00434361,10,0.000676988,-2.13022,0.379749,0.155366,44.9197,0.0913688,
2,1,0,1,0,13004.2,0.0936862,0.0933886,7.49874,7,0.0044928,10,0.000700297,-2.12501,0.413549,0.142668,41.72,0.0933886,
2,1,0,1,0,13004.3,0.0956838,0.0953915,7.57722,7,0.00464369,10,0.000722803,-2.12049,0.386898,0.152495,45.1629,0.0953915,
2,1,0,1,0,13004.3,0.0976814,0.0973844,7.6792,7,0.00479638,10,0.000747834,-2.11468,0.314529,0.187582,56.2826,0.0973844,
2,1,0,1,0,13004.3,0.099679,0.0993511,7.80008,7,0.00495052,10,0.000774947,-2.1079,0.325016,0.18153,55.1845,0.09935113,
2,1,0,1,0,13004.3,0.101677,0.101398,7.90072,7,0.00510774,10,0.000801121,-2.10233,0.315834,0.186807,57.7155,0.101398,
2,1,0,1,0,13004.3,0.103674,0.103407,8.03415,7,0.00526725,10,0.000830786,-2.09506,0.276133,0.213665,66.9905,0.103407,
2,1,0,1,0,13004.4,0.105672,0.105391,8.16818,7,0.00542946,10,0.000860853,-2.08787,0.250583,0.235451,75.1878,0.105391,
2,1,0,1,0,13004.4,0.107667,0.107375,8.33254,7,0.00559373,10,0.000894709,-2.07922,0.235533,0.250496,81.4182,0.1073753,
2,1,0,1,0,13004.4,0.109667,0.10935,8.49051,7,0.00576204,10,0.000928437,-2.07107,0.240027,0.245806,81.4883,0.10935,
2,1,0,1,0,13004.4,0.111665,0.111377,8.65861,7,0.00593372,10,0.000964367,-2.06255,0.231842,0.254484,86.0111,0.1113767,
2,1,0,1,0,13004.4,0.113662,0.113323,8.83221,7,0.00610883,10,0.00100089,-2.05393,0.236462,0.249512,85.9515,0.113323,
2,1,0,1,0,13004.5,0.11566,0.115313,8.99697,7,0.00628727,10,0.00103747,-2.0459,0.235417,0.250619,88.0942,0.115313,
2,1,0,1,0,13004.5,0.117657,0.117312,9.18363,7,0.00646842,10,0.00107735,-2.03699,0.246262,0.239583,85.7417,0.117312,
2,1,0,1,0,13004.5,0.119655,0.119377,9.34539,7,0.00665391,10,0.00111563,-2.0294,0.276667,0.213253,77.7314,0.119377,
2,1,0,1,0,13004.5,0.121652,0.121353,9.49772,7,0.00684248,10,0.00115257,-2.02238,0.289274,0.203959,75.5741,0.121353,
2,1,0,1,0,13004.5,0.12365,0.123341,9.64497,7,0.00703414,10,0.00118962,-2.0157,0.295981,0.199337,75.0374,0.123341,
2,1,0,1,0,13004.6,0.125648,0.125312,9.79484,7,0.00722787,10,0.00122741,-2.009,0.331677,0.177884,67.8905,0.125312,
2,1,0,1,0,13004.6,0.127645,0.127317,9.91491,7,0.0074252,10,0.00126234,-2.00371,0.366296,0.161072,62.3547,0.127317,
2,1,0,1,0,13004.6,0.129643,0.129324,10.045,7,0.00762496,10,0.00129906,-1.99805,0.378582,0.155845,61.0423,0.129324,
2,1,0,1,0,13004.6,0.13164,0.131312,10.1587,7,0.00782716,10,0.00133396,-1.99316,0.412929,0.142882,56.6433,0.131312,
2,1,0,1,0,13004.6,0.133638,0.133329,10.2719,7,0.00803067,10,0.00136954,-1.98835,0.454333,0.129861,52.0123,0.133329,
2,1,0,1,0,13004.7,0.135636,0.135326,10.3675,7,0.0082372,10,0.00140299,-1.98432,0.494705,0.119263,48.2589,0.135326,
2,1,0,1,0,13004.7,0.137633,0.137339,10.4654,7,0.00844568,10,0.0014373,-1.98025,0.520995,0.113245,46.2274,0.137339,
2,1,0,1,0,13004.7,0.139631,0.139324,10.5523,7,0.00865603,10,0.00147019,-1.97665,0.567552,0.103955,42.803,0.1393237,
2,1,0,1,0,13004.7,0.141628,0.141317,10.6357,7,0.00886698,10,0.001503,-1.97324,0.656776,0.0898328,37.2547,0.141317,
2,1,0,1,0,13004.7,0.143626,0.143304,10.7006,7,0.00908053,10,0.00153344,-1.97059,0.926065,0.0637104,26.577,0.143304,
2,1,0,1,0,13004.8,0.145624,0.145329,10.7423,7,0.00929514,10,0.00156117,-1.9689,3.67052,0.016074,6.72114,0.145329,
2,1,0,1,0,13004.8,0.147621,0.147314,10.7276,7,0.00951001,10,0.00158032,-1.9695,-2.3253,-0.0253731,-10.6164,0.147314,
2,1,0,1,0,13004.8,0.149619,0.149308,10.7,7,0.00972347,10,0.0015976,-1.97061,-0.743393,-0.0793658,-33.0226,0.149308,
2,1,0,1,0,13004.8,0.151616,0.151313,10.5955,7,0.0099367,10,0.00160324,-1.97488,-0.354726,-0.166326,-68.5653,0.151313,
2,1,0,1,0,13004.8,0.153614,0.153292,10.4269,7,0.0101472,10,0.00159835,-1.98185,-0.234353,-0.251757,-102.091,0.153292,
2,1,0,1,0,13004.9,0.155611,0.155299,10.1886,7,0.0103535,10,0.00158228,-1.99189,-0.178408,-0.330704,-131.123,0.155299,
2,1,0,1,0,13004.9,0.157609,0.157333,9.89694,7,0.0105536,10,0.00155712,-2.0045,-0.135277,-0.436144,-167.627,0.157333,
2,1,0,1,0,13004.9,0.159607,0.159316,9.51522,7,0.010748,10,0.00151593,-2.02158,-0.107027,-0.551264,-204.167,0.159316,
2,1,0,1,0,13004.9,0.161604,0.161265,9.09416,7,0.0109342,10,0.00146657,-2.04124,-0.0940225,-0.62751,-222.066,0.1612653,
2,1,0,1,0,13004.9,0.163602,0.163282,8.63446,7,0.0111116,10,0.00140986,-2.06376,-0.0874586,-0.674605,-227.105,0.163282,
2,1,0,1,0,13005,0.165606,0.165315,8.17438,7,0.0112797,10,0.00135135,-2.08755,-0.0837275,-0.704667,-224.775,0.165315,
2,1,0,1,0,13005,0.167597,0.167311,7.72893,7,0.0114381,10,0.00129314,-2.11188,-0.0828755,-0.711911,-215.018,0.167311,
2,1,0,1,0,13005,0.169595,0.169292,7.3194,7,0.0115886,10,0.00123911,-2.13552,-0.0845048,-0.698185,-199.626,0.169292,
2,1,0,1,0,13005,0.171592,0.171274,6.93787,7,0.0117312,10,0.00118828,-2.15877,-0.0890501,-0.662549,-179.851,0.171274,
2,1,0,1,0,13005,0.173581,0.173269,6.60398,7,0.011866,10,0.00114427,-2.18019,-0.0992625,-0.594383,-153.678,0.173269,
2,1,0,1,0,13005.1,0.175587,0.175284,6.32158,7,0.0119953,10,0.00110807,-2.19917,-0.110933,-0.531851,-131.433,0.175284,
2,1,0,1,0,13005.1,0.177585,0.177348,6.06791,7,0.0121192,10,0.00107613,-2.21696,-0.116965,-0.504424,-119.627,0.177348,
2,1,0,1,0,13005.1,0.179582,0.179324,5.83828,7,0.0122383,10,0.00104694,-2.23371,-0.128637,-0.458655,-104.879,0.179324,
2,1,0,1,0,13005.1,0.18158,0.181282,5.6553,7,0.0123533,10,0.00102521,-2.24754,-0.148166,-0.398203,-87.9882,0.181282,
2,1,0,1,0,13005.1,0.183578,0.183294,5.48895,7,0.0124643,10,0.00100609,-2.26051,-0.15798,-0.373464,-80.0696,0.183294,
2,1,0,1,0,13005.2,0.185575,0.185283,5.33496,7,0.0125726,10,0.000988477,-2.27287,-0.173647,-0.33977,-70.8882,0.185283,
2,1,0,1,0,13005.2,0.187573,0.187293,5.20546,7,0.0126781,10,0.000974948,-2.28354,-0.195015,-0.302541,-61.5215,0.187293,
2,1,0,1,0,13005.2,0.18957,0.189298,5.08798,7,0.0127811,10,0.000963142,-2.29345,-0.208855,-0.282492,-56.15,0.1892976,
2,1,0,1,0,13005.2,0.191568,0.191268,4.98231,7,0.0128815,10,0.000952955,-2.30257,-0.22953,-0.257047,-50.0465,0.191268,
2,1,0,1,0,13005.2,0.193566,0.193234,4.89098,7,0.0129804,10,0.000945103,-2.3106,-0.257818,-0.228844,-43.7129,0.193234,
2,1,0,1,0,13005.3,0.195563,0.195262,4.80769,7,0.0130775,10,0.00093876,-2.31806,-0.271239,-0.217521,-40.8176,0.1952624,
2,1,0,1,0,13005.3,0.197561,0.197267,4.72637,7,0.013173,10,0.000932356,-2.32547,-0.300283,-0.196481,-36.3094,0.197267,
2,1,0,1,0,13005.3,0.199558,0.199238,4.66335,7,0.0132666,10,0.000929114,-2.3313,-0.333262,-0.177038,-32.2103,0.199238,
2,1,0,1,0,13005.3,0.201556,0.20125,4.59805,7,0.0133594,10,0.00092536,-2.33743,-0.34031,-0.173371,-31.1285,0.20125,
2,1,0,1,0,13005.3,0.203553,0.203249,4.53847,7,0.0134509,10,0.000922441,-2.34309,-0.361594,-0.163166,-28.9134,0.2032492,
2,1,0,1,0,13005.4,0.205551,0.205214,4.48344,7,0.0135412,10,0.000920067,-2.34839,-0.475966,-0.123958,-21.7433,0.205214,
2,1,0,1,0,13005.4,0.207549,0.207277,4.45089,7,0.0136302,10,0.000922568,-2.35155,-0.522877,-0.112837,-19.5691,0.207277,
2,1,0,1,0,13005.4,0.209546,0.209255,4.40438,7,0.0137189,10,0.000921637,-2.35612,-0.404005,-0.146038,-25.0858,0.209255,
2,1,0,1,0,13005.4,0.211544,0.211202,4.35245,7,0.0138065,10,0.000919244,-2.36127,-0.447301,-0.131902,-22.4429,0.211202,
2,1,0,1,0,13005.4,0.213541,0.213216,4.31547,7,0.0138934,10,0.000920128,-2.36497,-0.644733,-0.0915107,-15.4327,0.213216,
2,1,0,1,0,13005.5,0.215539,0.215238,4.29015,7,0.0139791,10,0.000923404,-2.36753,-0.568645,-0.103755,-17.3344,0.215238,
2,1,0,1,0,13005.5,0.217537,0.217193,4.24653,7,0.0140646,10,0.000922318,-2.37197,-0.539011,-0.10946,-18.1722,0.217193,
2,1,0,1,0,13005.5,0.219534,0.219214,4.21791,7,0.0141493,10,0.000924623,-2.3749,-0.732873,-0.0805051,-13.2574,0.219214,
2,1,0,1,0,13005.5,0.221532,0.221247,4.19278,7,0.0142336,10,0.000927642,-2.3775,-0.698573,-0.0844579,-13.8103,0.221247,
2,1,0,1,0,13005.5,0.223525,0.223266,4.16195,7,0.0143168,10,0.00092922,-2.3807,-0.722735,-0.0816343,-13.2735,0.223266,
2,1,0,1,0,13005.6,0.225527,0.225231,4.1399,7,0.0144001,10,0.000932435,-2.38301,-0.864144,-0.0682757,-11.0315,0.225231,
2,1,0,1,0,13005.6,0.227525,0.22723,4.11821,7,0.0144828,10,0.000935782,-2.38529,-0.757256,-0.0779129,-12.5121,0.22723,
2,1,0,1,0,13005.6,0.229522,0.229222,4.08997,7,0.0145651,10,0.000937511,-2.38828,-0.81623,-0.0722835,-11.5526,0.229222,
2,1,0,1,0,13005.6,0.23152,0.231202,4.07233,7,0.0146468,10,0.00094153,-2.39016,-1.28882,-0.0457782,-7.28116,0.231202,
2,1,0,1,0,13005.6,0.233517,0.233198,4.06102,7,0.014728,10,0.00094702,-2.39136,-1.10812,-0.0532433,-8.42674,0.233198,
2,1,0,1,0,13005.7,0.235515,0.23522,4.03847,7,0.0148092,10,0.000949929,-2.39378,-0.850887,-0.0693394,-10.9301,0.23522,
2,1,0,1,0,13005.7,0.237512,0.237211,4.01716,7,0.0148898,10,0.000952913,-2.39608,-1.05196,-0.0560856,-8.80079,0.237211,
2,1,0,1,0,13005.7,0.23951,0.239241,4.00308,7,0.0149702,10,0.000957702,-2.39761,-1.8559,-0.0317905,-4.97171,0.239241,
2,1,0,1,0,13005.7,0.241508,0.2412,3.99732,7,0.01505,10,0.000964154,-2.39823,-1.50254,-0.0392669,-6.11598,0.2412,
2,1,0,1,0,13005.7,0.243505,0.243205,3.97884,7,0.0151298,10,0.000967674,-2.40024,-1.26847,-0.0465126,-7.22962,0.243205,
2,1,0,1,0,13005.8,0.245503,0.245231,3.96818,7,0.0152093,10,0.00097312,-2.40141,-1.27335,-0.0463344,-7.16878,0.245231,
2,1,0,1,0,13005.8,0.2475,0.247227,3.95,7,0.0152886,10,0.000976548,-2.4034,-1.20338,-0.0490288,-7.56408,0.247227,
2,1,0,1,0,13005.8,0.249498,0.249205,3.93812,7,0.0153672,10,0.000981399,-2.40471,-1.48085,-0.0398419,-6.12298,0.2492048,
2,1,0,1,0,13005.8,0.251496,0.251194,3.92571,7,0.015446,10,0.000986117,-2.40608,-1.33299,-0.0442615,-6.77923,0.251194,
2,1,0,1,0,13005.8,0.253493,0.253202,3.91102,7,0.0155245,10,0.00099028,-2.40771,-1.10264,-0.053508,-8.16388,0.253202,
2,1,0,1,0,13005.9,0.255491,0.255176,3.89321,7,0.0156028,10,0.000993454,-2.40969,-2.28545,-0.0258155,-3.93255,0.255176,
2,1,0,1,0,13005.9,0.257488,0.25714,3.89554,7,0.0156804,10,0.0010017,-2.40943,-3.29064,-0.0179297,-2.72037,0.25714,
2,1,0,1,0,13005.9,0.259486,0.259224,3.88219,7,0.0157584,10,0.00100636,-2.41092,-1.1189,-0.0527304,-7.98326,0.259224,
2,1,0,1,0,13005.9,0.261484,0.261198,3.86314,7,0.015836,10,0.00100904,-2.41306,-1.31251,-0.044952,-6.78696,0.261198,
2,1,0,1,0,13005.9,0.263481,0.263201,3.8552,7,0.0159133,10,0.00101469,-2.41395,-7.67952,-0.00768277,-1.15761,0.2632015,
2,1,0,1,0,13006,0.265479,0.265202,3.85851,7,0.0159902,10,0.00102328,-2.41358,-1.83565,-0.0321412,-4.8238,0.265202,
2,1,0,1,0,13006,0.267476,0.267179,3.83601,7,0.0160673,10,0.0010249,-2.41612,-1.00435,-0.0587447,-8.80596,0.267179,
2,1,0,1,0,13006,0.269474,0.269172,3.82355,7,0.0161441,10,0.00102919,-2.41753,-2.23219,-0.0264315,-3.94888,0.2691718,
2,1,0,1,0,13006,0.271471,0.271157,3.8203,7,0.0162207,10,0.0010359,-2.4179,-6.84869,-0.00861478,-1.28464,0.271157,
2,1,0,1,0,13006,0.273469,0.273176,3.8184,7,0.0162968,10,0.00104309,-2.41812,-1.82933,-0.0322522,-4.79652,0.273176,
2,1,0,1,0,13006.1,0.275467,0.275164,3.80109,7,0.016373,10,0.00104592,-2.42009,-1.15617,-0.0510305,-7.57461,0.275164,
2,1,0,1,0,13006.1,0.277464,0.277143,3.78835,7,0.016449,10,0.00104992,-2.42155,-1.28848,-0.0457902,-6.76853,0.277143,
2,1,0,1,0,13006.1,0.279462,0.279159,3.77404,7,0.0165248,10,0.00105356,-2.42319,-1.90483,-0.0309739,-4.56825,0.279159,
2,1,0,1,0,13006.1,0.281464,0.281182,3.7699,7,0.0166004,10,0.00106003,-2.42367,-2.24061,-0.0263321,-3.87051,0.281182,
2,1,0,1,0,13006.1,0.283457,0.283139,3.75864,7,0.0166755,10,0.00106422,-2.42497,-1.62421,-0.0363253,-5.32945,0.283139,
2,1,0,1,0,13006.2,0.285455,0.285149,3.74876,7,0.0167507,10,0.00106896,-2.42611,-1.53773,-0.0383682,-5.61115,0.285149,
2,1,0,1,0,13006.2,0.287452,0.287183,3.73595,7,0.0168258,10,0.0010729,-2.4276,-1.7451,-0.033809,-4.93335,0.287183,
2,1,0,1,0,13006.2,0.28945,0.289135,3.7291,7,0.0169005,10,0.00107821,-2.4284,-2.54017,-0.0232268,-3.3805,0.289135,
2,1,0,1,0,13006.2,0.291447,0.291109,3.72267,7,0.0169749,10,0.0010837,-2.42915,-1.57163,-0.0375407,-5.44734,0.291109,
2,1,0,1,0,13006.2,0.293445,0.293176,3.70708,7,0.0170494,10,0.00108683,-2.43097,-1.29868,-0.0454307,-6.57678,0.293176,
2,1,0,1,0,13006.3,0.295442,0.29515,3.6961,7,0.0171235,10,0.0010909,-2.43226,-1.81481,-0.0325104,-4.69169,0.29515,
2,1,0,1,0,13006.3,0.29744,0.29713,3.68853,7,0.0171976,10,0.00109597,-2.43315,-2.3817,-0.0247723,-3.56644,0.29713,
2,1,0,1,0,13006.3,0.299438,0.299139,3.68187,7,0.0172711,10,0.00110139,-2.43393,-0.0295346,-1.99766,-262.974,0.299139,
2,1,0,1,0,13006.3,0.299737,0.299459,3.07615,7,0.0173009,10,0.000921181,-2.51199,0.00249121,23.6833,1749.52,0.299459,
2,1,0,1,0,13006.3,0.29774,0.297495,0.805645,7,0.0173358,10,0.000239676,-3.09386,0.0033356,17.688,813.131,0.297495,
2,0,0,1,0,13006.3,0.295742,0.29544,-0.191909,7,0.0173406,10,-5.66975e-05,-3.7169,0.0774145,0.762131,371.746,0.29544,
2,0,0,1,0,13006.4,0.293745,0.293409,-0.713441,7,0.0173311,10,-0.00020933,-3.14664,-0.00559488,-10.5453,203.294,0.293409,
2,0,0,1,0,13006.4,0.291747,0.291394,-1.01437,7,0.0173136,10,-0.000295581,-2.9938,-0.0169625,-3.47826,128.709,0.291394,
2,0,0,1,0,13006.4,0.289754,0.2894,-1.22946,7,0.0172911,10,-0.000355806,-2.91028,-0.0297226,-1.98502,92.1066,0.2894,
2,0,0,1,0,13006.4,0.287752,0.287397,-1.38249,7,0.0172648,10,-0.000397323,-2.85934,-0.0461726,-1.27781,67.7318,0.287397,
2,0,0,1,0,13006.4,0.285754,0.28547,-1.49561,7,0.017236,10,-0.000426951,-2.82518,-0.0631714,-0.933968,54.2073,0.28547,
2,0,0,1,0,13006.5,0.283757,0.28344,-1.59702,7,0.017205,10,-0.000452658,-2.79669,-0.0797712,-0.739615,45.7861,0.28344,
2,0,0,1,0,13006.5,0.281759,0.281434,-1.68042,7,0.0171721,10,-0.000472928,-2.77458,-0.0971076,-0.607574,39.7187,0.281434,
2,0,0,1,0,13006.5,0.279761,0.279447,-1.75562,7,0.0171377,10,-0.000490602,-2.75557,-0.110739,-0.532785,36.4417,0.279447,
2,0,0,1,0,13006.5,0.277764,0.277417,-1.82682,7,0.0171018,10,-0.000506789,-2.73831,-0.12841,-0.459464,32.6347,0.277417,
2,0,0,1,0,13006.5,0.275766,0.275455,-1.88588,7,0.0170646,10,-0.000519474,-2.72449,-0.15016,-0.392915,28.8817,0.275455,
2,0,0,1,0,13006.6,0.273769,0.273453,-1.9413,7,0.0170263,10,-0.000530854,-2.71191,-0.157081,-0.375603,28.4821,0.273453,
2,0,0,1,0,13006.6,0.271771,0.271402,-2.00132,7,0.0169869,10,-0.000543162,-2.69868,-0.166563,-0.354221,27.5857,0.271402,
2,0,0,1,0,13006.6,0.269774,0.269489,-2.05065,7,0.0169463,10,-0.000552628,-2.68811,-0.191516,-0.308068,24.6449,0.269489,
2,0,0,1,0,13006.6,0.267776,0.267434,-2.09911,7,0.0169048,10,-0.000561373,-2.67797,-0.220239,-0.267891,21.8951,0.267434,
2,0,0,1,0,13006.6,0.265778,0.26548,-2.13843,7,0.0168624,10,-0.000567709,-2.66991,-0.211905,-0.278427,23.3039,0.26548,
2,0,0,1,0,13006.7,0.263781,0.263499,-2.19082,7,0.0168192,10,-0.000577278,-2.65939,-0.221883,-0.265906,22.6589,0.263499,
2,0,0,1,0,13006.7,0.261783,0.261477,-2.22913,7,0.016775,10,-0.000582866,-2.65186,-0.282866,-0.208579,18.128,0.261477,
2,0,0,1,0,13006.7,0.259786,0.259488,-2.26352,7,0.0167301,10,-0.000587357,-2.64522,-0.259851,-0.227054,20.1059,0.259488,
2,0,0,1,0,13006.7,0.257788,0.257489,-2.30931,7,0.0166844,10,-0.000594622,-2.63652,-0.25839,-0.228337,20.5341,0.257489,
2,0,0,1,0,13006.7,0.25579,0.255495,-2.34553,7,0.016638,10,-0.000599269,-2.62976,-0.332039,-0.17769,16.24,0.255495,
2,0,0,1,0,13006.8,0.253793,0.253462,-2.37471,7,0.0165908,10,-0.000601899,-2.62439,-0.358586,-0.164535,15.2589,0.253462,
2,0,0,1,0,13006.8,0.251795,0.251443,-2.40735,7,0.0165429,10,-0.000605311,-2.61846,-0.32117,-0.183703,17.2723,0.251443,
2,0,0,1,0,13006.8,0.249798,0.249452,-2.44397,7,0.0164944,10,-0.000609653,-2.6119,-0.316981,-0.186131,17.7408,0.249452,
2,0,0,1,0,13006.8,0.2478,0.247489,-2.4775,7,0.0164454,10,-0.000613153,-2.60599,-0.375153,-0.157269,15.1827,0.247489,
2,0,0,1,0,13006.8,0.245802,0.245523,-2.50362,7,0.0163955,10,-0.000614696,-2.60143,-0.376891,-0.156544,15.3241,0.245523,
2,0,0,1,0,13006.9,0.243805,0.243456,-2.5393,7,0.016345,10,-0.000618207,-2.59529,-0.396184,-0.148921,14.7222,0.243456,
2,0,0,1,0,13006.9,0.241807,0.241502,-2.56282,7,0.0162939,10,-0.000618926,-2.59128,-0.37144,-0.158841,15.935,0.241502,
2,0,0,1,0,13006.9,0.23981,0.239519,-2.60204,7,0.0162425,10,-0.000623237,-2.58469,-0.368867,-0.159949,16.2021,0.239519,
2,0,0,1,0,13006.9,0.237812,0.237448,-2.6285,7,0.0161901,10,-0.000624133,-2.58029,-0.483115,-0.122124,12.52,0.237448,
2,0,0,1,0,13006.9,0.235815,0.235541,-2.65184,7,0.0161373,10,-0.000624617,-2.57645,-0.449636,-0.131217,13.5982,0.235541,
2,0,0,1,0,13007,0.233817,0.233481,-2.68244,7,0.0160839,10,-0.0006263,-2.57147,-0.396727,-0.148717,15.574,0.2334813,
2,0,0,1,0,13007,0.231815,0.231478,-2.71511,7,0.0160299,10,-0.00062849,-2.56621,-0.388536,-0.151852,16.0854,0.231478,
2,0,0,1,0,13007,0.229822,0.229513,-2.74628,7,0.0159755,10,-0.000630306,-2.56125,-0.538593,-0.109545,11.7065,0.229513,
2,0,0,1,0,13007,0.227824,0.227514,-2.76152,7,0.0159205,10,-0.000628285,-2.55885,-0.51874,-0.113737,12.2983,0.227514,
2,0,0,1,0,13007,0.225827,0.225542,-2.79512,7,0.0158649,10,-0.000630415,-2.5536,-0.443936,-0.132902,14.4739,0.225542,
2,0,0,1,0,13007.1,0.223829,0.223487,-2.81981,7,0.0158087,10,-0.00063019,-2.54978,-0.471377,-0.125165,13.7871,0.223487,
2,0,0,1,0,13007.1,0.221831,0.221563,-2.84996,7,0.0157523,10,-0.000631448,-2.54516,-0.508895,-0.115937,12.874,0.221563,
2,0,0,1,0,13007.1,0.219834,0.219516,-2.87093,7,0.0156951,10,-0.000630215,-2.54198,-0.52192,-0.113044,12.6863,0.219516,
2,0,0,1,0,13007.1,0.217836,0.217514,-2.90134,7,0.0156373,10,-0.000631081,-2.5374,-0.546265,-0.108006,12.2044,0.217514,
2,0,0,1,0,13007.1,0.215839,0.215499,-2.91996,7,0.015579,10,-0.000629248,-2.53462,-0.494465,-0.119321,13.6365,0.215499,
2,0,0,1,0,13007.2,0.213841,0.213539,-2.95554,7,0.0155204,10,-0.000631124,-2.52936,-0.454039,-0.129945,14.9597,0.213539,
2,0,0,1,0,13007.2,0.211843,0.211488,-2.97995,7,0.015461,10,-0.000630226,-2.52579,-0.611358,-0.0965065,11.2156,0.211488,
2,0,0,1,0,13007.2,0.209846,0.209554,-3.00024,7,0.0154011,10,-0.000628711,-2.52284,-0.529779,-0.111367,13.0645,0.209554,
2,0,0,1,0,13007.2,0.207848,0.207509,-3.03194,7,0.0153407,10,-0.000629155,-2.51828,-0.370313,-0.159325,18.8906,0.207509,
2,0,0,1,0,13007.2,0.205851,0.205531,-3.07623,7,0.0152799,10,-0.000632261,-2.51198,-0.456772,-0.129167,15.4372,0.205531,
2,0,0,1,0,13007.3,0.203853,0.203559,-3.09291,7,0.0152181,10,-0.000629592,-2.50963,-0.76449,-0.0771756,9.32152,0.203559,
2,0,0,1,0,13007.3,0.201856,0.201523,-3.11359,7,0.015156,10,-0.000627461,-2.50674,-0.498722,-0.118302,14.4133,0.201523,
2,0,0,1,0,13007.3,0.199858,0.199537,-3.15089,7,0.0150933,10,-0.000628719,-2.50157,-0.418878,-0.140852,17.3043,0.199537,
2,0,0,1,0,13007.3,0.19786,0.197539,-3.18253,7,0.0150303,10,-0.000628675,-2.49723,-0.524681,-0.112449,13.9507,0.1975392,
2,0,0,1,0,13007.3,0.195863,0.195512,-3.20704,7,0.0149663,10,-0.000627015,-2.4939,-0.493052,-0.119663,15.0022,0.195512,
2,0,0,1,0,13007.4,0.193865,0.193542,-3.24249,7,0.0149018,10,-0.00062756,-2.48912,-0.45533,-0.129576,16.3833,0.193542,
2,0,0,1,0,13007.4,0.191868,0.191505,-3.27269,7,0.0148366,10,-0.000626736,-2.4851,-0.409291,-0.144152,18.4479,0.191505,
2,0,0,1,0,13007.4,0.18987,0.189551,-3.31613,7,0.0147711,10,-0.000628575,-2.47937,-0.449228,-0.131337,16.9455,0.189551,
2,0,0,1,0,13007.4,0.187872,0.187559,-3.33956,7,0.0147045,10,-0.000626364,-2.47631,-0.487676,-0.120982,15.8067,0.187559,
2,0,0,1,0,13007.4,0.185875,0.185533,-3.37964,7,0.0146372,10,-0.000627034,-2.47113,-0.471486,-0.125136,16.4704,0.185533,
2,0,0,1,0,13007.5,0.183877,0.18354,-3.40575,7,0.0145693,10,-0.000625092,-2.46779,-0.375281,-0.157215,20.9924,0.18354,
2,0,0,1,0,13007.5,0.18188,0.181539,-3.46348,7,0.014501,10,-0.000628756,-2.46049,-0.337032,-0.175058,23.5862,0.181539,
2,0,0,1,0,13007.5,0.179882,0.179572,-3.49934,7,0.0144313,10,-0.000628384,-2.45601,-0.459777,-0.128323,17.5187,0.179572,
2,0,0,1,0,13007.5,0.177885,0.177573,-3.53296,7,0.0143609,10,-0.000627358,-2.45186,-0.387989,-0.152066,21.0159,0.177573,
2,0,0,1,0,13007.5,0.175887,0.175572,-3.58341,7,0.0142896,10,-0.000629146,-2.4457,-0.30948,-0.190643,26.6834,0.175572,
2,0,0,1,0,13007.6,0.173896,0.173548,-3.64034,7,0.0142177,10,-0.000631776,-2.43886,-0.296195,-0.199193,28.2959,0.173548,
2,0,0,1,0,13007.6,0.171892,0.171561,-3.69691,7,0.0141442,10,-0.000634244,-2.43216,-0.306737,-0.192347,27.7407,0.171561,
2,0,0,1,0,13007.6,0.169894,0.169555,-3.75113,7,0.0140697,10,-0.000636022,-2.42584,-0.289321,-0.203926,29.8936,0.169555,
2,0,0,1,0,13007.6,0.167897,0.167577,-3.816,7,0.013994,10,-0.000639473,-2.41839,-0.255899,-0.23056,34.3658,0.1675767,
2,0,0,1,0,13007.6,0.165899,0.165566,-3.88822,7,0.0139169,10,-0.000643756,-2.41025,-0.242493,-0.243306,36.9372,0.165566,
2,0,0,1,0,13007.7,0.163901,0.163545,-3.96492,7,0.0138387,10,-0.000648443,-2.40177,-0.225489,-0.261653,40.5254,0.1635451,
2,0,0,1,0,13007.7,0.161904,0.161572,-4.05008,7,0.0137586,10,-0.000654378,-2.39254,-0.215175,-0.274195,43.3464,0.161572,
2,0,0,1,0,13007.7,0.159906,0.159559,-4.13771,7,0.0136767,10,-0.000660208,-2.38324,-0.203537,-0.289874,46.8677,0.159559,
2,0,0,1,0,13007.7,0.157909,0.157582,-4.23706,7,0.0135929,10,-0.000667685,-2.37293,-0.176921,-0.333483,55.2738,0.157582,
2,0,0,1,0,13007.7,0.155911,0.15557,-4.35819,7,0.0135072,10,-0.000678003,-2.36069,-0.158446,-0.372368,63.3992,0.15557,
2,0,0,1,0,13007.8,0.153913,0.153582,-4.49065,7,0.0134186,10,-0.000689683,-2.34769,-0.154333,-0.382291,67.0007,0.153582,
2,0,0,1,0,13007.8,0.151916,0.151572,-4.62603,7,0.0133274,10,-0.000701178,-2.33479,-0.141293,-0.417571,75.6329,0.151572,
2,0,0,1,0,13007.8,0.149918,0.149561,-4.79479,7,0.0132331,10,-0.000717113,-2.31923,-0.123243,-0.478731,89.7009,0.149561,
2,0,0,1,0,13007.8,0.147921,0.14762,-4.98056,7,0.0131358,10,-0.00073523,-2.30272,-0.117859,-0.500599,97.4117,0.14762,
2,0,0,1,0,13007.8,0.145923,0.145582,-5.18235,7,0.0130341,10,-0.000754459,-2.28547,-0.112137,-0.526143,106.59,0.145582,
2,0,0,1,0,13007.9,0.143926,0.143618,-5.40718,7,0.0129282,10,-0.000776566,-2.26703,-0.100601,-0.586473,124.179,0.143618,
2,0,0,1,0,13007.9,0.141928,0.141606,-5.67609,7,0.0128173,10,-0.00080377,-2.24595,-0.0956146,-0.617061,136.693,0.1416063,
2,0,0,1,0,13007.9,0.13993,0.139618,-5.95394,7,0.0127016,10,-0.000831275,-2.2252,-0.0945755,-0.62384,145.102,0.139618,
2,0,0,1,0,13007.9,0.137933,0.137631,-6.25293,7,0.0125795,10,-0.000860596,-2.20392,-0.0947541,-0.622664,152.053,0.137631,
2,0,0,1,0,13007.9,0.135935,0.135562,-6.57054,7,0.0124512,10,-0.000890719,-2.1824,-0.0930751,-0.633897,162.758,0.135562,
2,0,0,1,0,13008,0.133938,0.133556,-6.91619,7,0.0123162,10,-0.000923697,-2.16013,-0.089404,-0.659926,178.03,0.133556,
2,0,0,1,0,13008,0.13194,0.131656,-7.26609,7,0.0121751,10,-0.000956621,-2.1387,-0.0953292,-0.618908,175.261,0.131656,
2,0,0,1,0,13008,0.129942,0.129616,-7.60672,7,0.0120264,10,-0.00098595,-2.1188,-0.10205,-0.578147,171.637,0.129616,
2,0,0,1,0,13008,0.127945,0.127623,-7.95827,7,0.0118706,10,-0.00101566,-2.09918,-0.105762,-0.557858,173.053,0.127623,
2,0,0,1,0,13008,0.125947,0.125606,-8.30059,7,0.0117079,10,-0.00104261,-2.08089,-0.111278,-0.530202,171.653,0.125606,
2,0,0,1,0,13008.1,0.12395,0.123638,-8.64224,7,0.0115393,10,-0.00106851,-2.06337,-0.120863,-0.488154,164.302,0.123638,
2,0,0,1,0,13008.1,0.121952,0.121616,-8.95622,7,0.0113633,10,-0.00108922,-2.04788,-0.14051,-0.419899,146.401,0.121616,
2,0,0,1,0,13008.1,0.119955,0.119611,-9.23186,7,0.0111813,10,-0.00110423,-2.03471,-0.1526,-0.386632,139.269,0.1196107,
2,0,0,1,0,13008.1,0.117957,0.117647,-9.50896,7,0.0109937,10,-0.0011187,-2.02187,-0.163316,-0.361262,133.907,0.117647,
2,0,0,1,0,13008.1,0.115955,0.115602,-9.76861,7,0.0108008,10,-0.00112927,-2.01017,-0.18724,-0.315104,119.846,0.115602,
2,0,0,1,0,13008.2,0.113962,0.113666,-9.98603,7,0.0106041,10,-0.00113507,-2.00061,-0.216575,-0.272423,106.063,0.113666,
2,0,0,1,0,13008.2,0.111964,0.111663,-10.1864,7,0.0104023,10,-0.00113745,-1.99198,-0.245789,-0.240043,95.3274,0.111663,
2,0,0,1,0,13008.2,0.109967,0.109662,-10.3678,7,0.0101967,10,-0.00113695,-1.98431,-0.291199,-0.202611,81.8418,0.109662,
2,0,0,1,0,13008.2,0.107969,0.107639,-10.5157,7,0.00998787,10,-0.00113191,-1.97816,-0.348731,-0.169185,69.3693,0.107639,
2,0,0,1,0,13008.2,0.105971,0.105655,-10.6457,7,0.00977722,10,-0.00112477,-1.97283,-0.417429,-0.141341,58.6479,0.105655,
2,0,0,1,0,13008.3,0.103974,0.103656,-10.7493,7,0.00956316,10,-0.00111424,-1.96862,-0.538163,-0.109632,45.9389,0.103656,
2,0,0,1,0,13008.3,0.101976,0.101674,-10.8286,7,0.00934723,10,-0.00110098,-1.96543,-0.826444,-0.0713902,30.1159,0.101674,
2,0,0,1,0,13008.3,0.0999786,0.0996731,-10.8693,7,0.00913019,10,-0.00108338,-1.9638,-1.30068,-0.0453609,19.2385,0.09967313,
2,0,0,1,0,13008.3,0.0979811,0.0976362,-10.9063,7,0.00891337,10,-0.00106485,-1.96232,-3.14754,-0.0187448,7.96307,0.0976362,
2,0,0,1,0,13008.3,0.0959835,0.0956768,-10.9011,7,0.00869524,10,-0.00104298,-1.96253,2.54534,0.0231796,-9.84859,0.0956768,
2,0,0,1,0,13008.4,0.0939859,0.0937067,-10.8676,7,0.00847752,10,-0.00101836,-1.96387,1.11846,0.052751,-22.3497,0.0937067,
2,0,0,1,0,13008.4,0.0919883,0.0916602,-10.8113,7,0.00826068,10,-0.000990969,-1.96612,0.844017,0.0699038,-29.4844,0.0916602,
2,0,0,1,0,13008.4,0.0899907,0.0896436,-10.7478,7,0.00804604,10,-0.000963469,-1.96868,0.562453,0.104898,-43.9011,0.0896436,
2,0,0,1,0,13008.4,0.0879931,0.0876802,-10.6366,7,0.00783216,10,-0.000932621,-1.9732,0.423444,0.139334,-57.8162,0.0876802,
2,0,0,1,0,13008.4,0.0859955,0.0856656,-10.5178,7,0.00762062,10,-0.000901013,-1.97808,0.387651,0.152199,-62.4321,0.0856656,
2,0,0,1,0,13008.5,0.083998,0.0836637,-10.3859,7,0.0074116,10,-0.000868918,-1.98356,0.355772,0.165837,-67.1916,0.08366365,
2,0,0,1,0,13008.5,0.0820004,0.0816343,-10.2469,7,0.00720627,10,-0.0008365,-1.98941,0.335001,0.176119,-70.4158,0.08163435,
2,0,0,1,0,13008.5,0.0800028,0.0796742,-10.1049,7,0.00700274,10,-0.000805102,-1.99547,0.331607,0.177921,-70.1837,0.0796742,
2,0,0,1,0,13008.5,0.0780052,0.0776804,-9.96941,7,0.00680195,10,-0.000774428,-2.00133,0.343911,0.171556,-66.7548,0.0776804,
2,0,0,1,0,13008.5,0.0760076,0.0756621,-9.8371,7,0.00660391,10,-0.000744296,-2.00713,0.362005,0.162981,-62.6121,0.0756621,
2,0,0,1,0,13008.6,0.07401,0.073681,-9.719,7,0.00640943,10,-0.000716106,-2.01238,0.370241,0.159356,-60.4436,0.073681,
2,0,0,1,0,13008.6,0.0720124,0.0717679,-9.60172,7,0.00621618,10,-0.000689096,-2.01765,0.41876,0.140892,-52.857,0.0717679,
2,0,0,1,0,13008.6,0.0700148,0.0696792,-9.50748,7,0.00602511,10,-0.000662473,-2.02193,0.444451,0.132748,-49.221,0.0696792,
2,0,0,1,0,13008.6,0.0680173,0.0676802,-9.40052,7,0.00583611,10,-0.000636229,-2.02685,0.502402,0.117436,-43.1755,0.06768018,
2,0,0,1,0,13008.6,0.0660106,0.0656617,-9.33402,7,0.00564885,10,-0.000612888,-2.02993,0.554993,0.106308,-38.6833,0.0656617,
2,0,0,1,0,13008.7,0.0640221,0.0637271,-9.24761,7,0.00546391,10,-0.000589323,-2.03397,0.523456,0.112712,-40.7005,0.06372714,
2,0,0,1,0,13008.7,0.0620245,0.0616728,-9.17167,7,0.00527967,10,-0.000565642,-2.03755,0.57992,0.101738,-36.4258,0.0616728,
2,0,0,1,0,13008.7,0.0600269,0.0596997,-9.1009,7,0.00509689,10,-0.000543321,-2.04092,0.604456,0.0976084,-34.6775,0.0596997,
2,0,0,1,0,13008.7,0.0580361,0.057737,-9.03519,7,0.00491637,10,-0.000521665,-2.04406,0.647667,0.0910962,-32.1257,0.057737,
2,0,0,1,0,13008.7,0.0560317,0.0556855,-8.97195,7,0.00473612,10,-0.000499608,-2.04711,0.648627,0.0909613,-31.8481,0.0556855,
2,0,0,1,0,13008.8,0.0540342,0.0537451,-8.90805,7,0.00455727,10,-0.000478765,-2.05022,0.663589,0.0889104,-30.9182,0.0537451,
2,0,0,1,0,13008.8,0.0520366,0.0517141,-8.84915,7,0.00437959,10,-0.000457626,-2.0531,0.63192,0.0933663,-32.2215,0.0517141,
2,0,0,1,0,13008.8,0.050039,0.0497073,-8.77795,7,0.00420319,10,-0.000436328,-2.05661,0.659658,0.0894402,-30.6742,0.0497073,
2,0,0,1,0,13008.8,0.0480414,0.0477187,-8.7266,7,0.0040289,10,-0.000416422,-2.05915,0.701878,0.0840601,-28.6092,0.0477187,
2,0,0,1,0,13008.8,0.0460438,0.0457137,-8.66369,7,0.00385497,10,-0.00039605,-2.0623,0.605975,0.0973638,-32.9088,0.0457137,
2,0,0,1,0,13008.9,0.0440462,0.0437216,-8.59506,7,0.00368238,10,-0.000375789,-2.06575,0.561085,0.105153,-35.2692,0.0437216,
2,0,0,1,0,13008.9,0.0420486,0.0417863,-8.52518,7,0.00351121,10,-0.000356235,-2.0693,0.621974,0.0948593,-31.5839,0.0417863,
2,0,0,1,0,13008.9,0.040051,0.039703,-8.46814,7,0.00334206,10,-0.00033621,-2.07221,0.629442,0.0937338,-30.9547,0.039703,
2,0,0,1,0,13008.9,0.0380535,0.0377057,-8.39887,7,0.00317335,10,-0.000316685,-2.07578,0.514361,0.114705,-37.5764,0.0377057,
2,0,0,1,0,13008.9,0.0360559,0.0357666,-8.32022,7,0.00300621,10,-0.000297586,-2.07987,0.502135,0.117498,-38.1611,0.0357666,
2,0,0,1,0,13009,0.0340583,0.0336878,-8.24554,7,0.00284054,10,-0.000277774,-2.08378,0.524087,0.112577,-36.2328,0.0336878,
2,0,0,1,0,13009,0.0320607,0.0317302,-8.17397,7,0.00267706,10,-0.000259361,-2.08757,0.462965,0.127439,-40.6087,0.0317302,
2,0,0,1,0,13009,0.0300631,0.0297301,-8.08482,7,0.0025145,10,-0.000240363,-2.09233,0.419384,0.140683,-44.3893,0.0297301,
2,0,0,1,0,13009,0.0280655,0.027731,-7.99645,7,0.00235365,10,-0.000221749,-2.0971,0.421023,0.140135,-43.7348,0.027731,
2,0,0,1,0,13009,0.0260679,0.0257206,-7.90946,7,0.00219454,10,-0.000203436,-2.10185,0.402695,0.146513,-45.2061,0.0257206,
2,0,0,1,0,13009.1,0.0240704,0.0237455,-7.81628,7,0.00203807,10,-0.000185602,-2.107,0.377416,0.156326,-47.6744,0.0237455,
2,0,0,1,0,13009.1,0.0220728,0.0217444,-7.7199,7,0.00188264,10,-0.000167865,-2.11239,0.368108,0.160279,-48.2883,0.0217444,
2,0,0,1,0,13009.1,0.0200752,0.0197628,-7.62396,7,0.00172917,10,-0.000150671,-2.11782,0.352554,0.16735,-49.7666,0.0197628,
2,0,0,1,0,13009.1,0.0180776,0.0177417,-7.5207,7,0.00157761,10,-0.00013343,-2.12374,0.378481,0.155886,-45.8174,0.0177417,
2,0,0,1,0,13009.1,0.01608,0.0157259,-7.439,7,0.00142878,10,-0.000116985,-2.12849,0.393645,0.149881,-43.4811,0.0157259,
2,0,0,1,0,13009.2,0.0140824,0.0137433,-7.34685,7,0.00128092,10,-0.00010097,-2.1339,0.365914,0.16124,-46.2321,0.0137433,
2,0,0,1,0,13009.2,0.0120848,0.0117599,-7.25564,7,0.00113488,10,-8.53253e-05,-2.13932,0.372061,0.158576,-44.9097,0.0117599,
2,0,0,1,0,13009.2,0.0100872,0.00974531,-7.1673,7,0.000990748,10,-6.98475e-05,-2.14464,0.402918,0.146432,-40.9941,0.009745311,
2,0,0,1,0,13009.2,0.00809193,0.00776076,-7.0917,7,0.000848922,10,-5.5037e-05,-2.14925,0.439364,0.134285,-37.1718,0.007760758,
2,0,0,1,0,13009.2,0.00609208,0.00575485,-7.01897,7,0.000707823,10,-4.03931e-05,-2.15373,0.429334,0.137422,-37.6304,0.00575485,
2,0,0,1,0,13009.3,0.00409449,0.00377628,-6.94177,7,0.000568246,10,-2.62141e-05,-2.15853,0.756556,0.077985,-21.2323,0.00377628,
2,0,0,1,0,13009.3,0.0020969,0.00173871,-6.93369,7,0.000429908,10,-1.20557e-05,-2.15904,0.742906,0.0794178,-21.3801,0.00173871,
2,0,0,1,0,13009.3,9.14991e-05,-0.000302332,-6.85457,7,0.000292134,10,2.07236e-06,-2.16402,0.445862,0.132328,-35.4393,-0.000302332,
2,0,0,1,0,13009.3,-0.00189827,-0.00227597,-6.79142,7,0.00015628,10,1.5457e-05,-2.16804,0.586712,0.10056,-26.6906,-0.00227597,
2,0,0,1,0,13009.3,-0.00389586,-0.00431125,-6.74757,7,2.08357e-05,10,2.90905e-05,-2.17085,0.784228,0.0752332,-19.8243,-0.00431125,
2,0,0,1,0,13009.4,-0.00589345,-0.00625567,-6.71252,7,-0.000113782,10,4.19913e-05,-2.17311,0.83426,0.0707214,-18.5227,-0.00625567,
2,0,0,1,0,13009.4,-0.00789103,-0.00824781,-6.67465,7,-0.000247691,10,5.50512e-05,-2.17557,1.37343,0.0429582,-11.2161,-0.00824781,
2,0,0,1,0,13009.4,-0.00988862,-0.0102542,-6.66767,7,-0.000380519,10,6.83717e-05,-2.17603,2.15701,0.0273527,-7.10987,-0.0102542,
2,0,0,1,0,13009.4,-0.0118862,-0.0122644,-6.64609,7,-0.000513651,10,8.15106e-05,-2.17743,1.63087,0.0361769,-9.38755,-0.0122644,
2,0,0,1,0,13009.4,-0.0138838,-0.014227,-6.63038,7,-0.000646538,10,9.43302e-05,-2.17846,4.30992,0.0136893,-3.54689,-0.01422697,
2,0,0,1,0,13009.5,-0.0158814,-0.0162789,-6.63185,7,-0.000779207,10,0.000107959,-2.17837,-3.9849,-0.0148059,3.83569,-0.0162789,
2,0,0,1,0,13009.5,-0.017879,-0.0182637,-6.64586,7,-0.000911354,10,0.000121378,-2.17745,-4.19449,-0.0140661,3.64457,-0.0182637,
2,0,0,1,0,13009.5,-0.0198766,-0.0202649,-6.64638,7,-0.00104428,10,0.000134689,-2.17741,-7.95655,-0.00741527,1.92438,-0.0202649,
2,0,0,1,0,13009.5,-0.0218741,-0.0222081,-6.65345,7,-0.00117726,10,0.000147761,-2.17695,-2.5183,-0.0234285,6.08809,-0.0222081,
2,0,0,1,0,13009.5,-0.0238717,-0.0242326,-6.67054,7,-0.00131058,10,0.000161645,-2.17584,-1.20638,-0.0489066,12.7485,-0.0242326,
2,0,0,1,0,13009.6,-0.0258693,-0.0262581,-6.70508,7,-0.00144373,10,0.000176062,-2.1736,-1.26055,-0.0468051,12.2295,-0.0262581,
2,0,0,1,0,13009.6,-0.0278669,-0.0282384,-6.71952,7,-0.00157797,10,0.000189748,-2.17266,-1.33648,-0.0441457,11.5915,-0.0282384,
2,0,0,1,0,13009.6,-0.0298645,-0.03022,-6.75101,7,-0.00171266,10,0.000204015,-2.17063,-1.14665,-0.0514544,13.5473,-0.03022,
2,0,0,1,0,13009.6,-0.0318621,-0.0321981,-6.77317,7,-0.00184796,10,0.000218083,-2.16921,-0.893336,-0.0660446,17.4912,-0.0321981,
2,0,0,1,0,13009.6,-0.0338597,-0.0342377,-6.82128,7,-0.00198328,10,0.000233545,-2.16613,-0.770517,-0.0765719,20.3629,-0.03423769,
2,0,0,1,0,13009.7,-0.0358573,-0.0362232,-6.85513,7,-0.00212007,10,0.000248315,-2.16398,-0.843962,-0.0699084,18.7129,-0.0362232,
2,0,0,1,0,13009.7,-0.0378548,-0.0382539,-6.89644,7,-0.0022577,10,0.000263816,-2.16138,-0.79552,-0.0741653,19.9561,-0.0382539,
2,0,0,1,0,13009.7,-0.0398524,-0.0401888,-6.93427,7,-0.00239611,10,0.00027868,-2.159,-0.632757,-0.0932428,25.2785,-0.0401888,
2,0,0,1,0,13009.7,-0.04185,-0.0422315,-6.99699,7,-0.00253469,10,0.000295494,-2.15509,-0.595831,-0.0990213,27.0059,-0.0422315,
2,0,0,1,0,13009.7,-0.0438476,-0.0441954,-7.04247,7,-0.00267507,10,0.000311245,-2.15227,-0.731653,-0.0806393,22.1594,-0.0441954,
2,0,0,1,0,13009.8,-0.0458452,-0.0462316,-7.08563,7,-0.00281641,10,0.00032758,-2.14962,-0.660777,-0.0892889,24.7126,-0.0462316,
2,0,0,1,0,13009.8,-0.0478428,-0.0481989,-7.14141,7,-0.00295871,10,0.000344208,-2.14622,-0.510642,-0.115541,32.2386,-0.0481989,
2,0,0,1,0,13009.8,-0.0498495,-0.050207,-7.21379,7,-0.00310222,10,0.000362183,-2.14184,-0.540363,-0.109186,30.6931,-0.050207,
2,0,0,1,0,13009.8,-0.051838,-0.0522213,-7.26487,7,-0.00324631,10,0.000379381,-2.13877,-0.624332,-0.0945011,26.8021,-0.0522213,
2,0,0,1,0,13009.8,-0.0538355,-0.0542034,-7.3209,7,-0.00339218,10,0.000396818,-2.13544,-0.561934,-0.104995,30.0141,-0.0542034,
2,0,0,1,0,13009.9,-0.0558331,-0.0562255,-7.38505,7,-0.00353928,10,0.000415228,-2.13165,-0.500318,-0.117925,34.0032,-0.0562255,
2,0,0,1,0,13009.9,-0.0578216,-0.058186,-7.45632,7,-0.00368702,10,0.000433853,-2.12748,-0.470686,-0.125349,36.4832,-0.05818595,
2,0,0,1,0,13009.9,-0.0598283,-0.0602244,-7.53094,7,-0.00383696,10,0.000453546,-2.12315,-0.464132,-0.127119,37.3569,-0.0602244,
2,0,0,1,0,13009.9,-0.0618259,-0.0621448,-7.60421,7,-0.00398831,10,0.000472562,-2.11895,-0.459791,-0.128319,38.0881,-0.0621448,
2,0,0,1,0,13009.9,-0.0638235,-0.0641581,-7.68077,7,-0.0041412,10,0.000492784,-2.1146,-0.462279,-0.127628,38.2617,-0.0641581,
2,0,0,1,0,13010,-0.0658211,-0.0662052,-7.75957,7,-0.00429562,10,0.000513724,-2.11016,-0.436068,-0.1353,40.9938,-0.0662052,
2,0,0,1,0,13010,-0.0678186,-0.0682077,-7.84678,7,-0.00445102,10,0.000535211,-2.10531,-0.404443,-0.14588,44.6836,-0.0682077,
2,0,0,1,0,13010,-0.0698162,-0.0702032,-7.93821,7,-0.00460891,10,0.000557288,-2.10028,-0.414346,-0.142393,44.0898,-0.0702032,
2,0,0,1,0,13010,-0.0718138,-0.0721737,-8.02164,7,-0.00476855,10,0.000578952,-2.09574,-0.407752,-0.144696,45.3324,-0.0721737,
2,0,0,1,0,13010,-0.0738114,-0.0741646,-8.11779,7,-0.00493001,10,0.000602053,-2.09056,-0.365917,-0.161239,51.1165,-0.0741646,
2,0,0,1,0,13010.1,-0.075809,-0.0761649,-8.22566,7,-0.00509278,10,0.000626506,-2.08483,-0.363451,-0.162333,52.0761,-0.0761649,
2,0,0,1,0,13010.1,-0.0778066,-0.078104,-8.32294,7,-0.00525834,10,0.000650055,-2.07972,-0.376617,-0.156658,50.9097,-0.078104,
2,0,0,1,0,13010.1,-0.0798042,-0.0801602,-8.42906,7,-0.00542589,10,0.000675675,-2.07422,-0.366948,-0.160786,52.8979,-0.0801602,
2,0,0,1,0,13010.1,-0.0818018,-0.0821687,-8.53795,7,-0.00559559,10,0.000701553,-2.06865,-0.351145,-0.168022,56.006,-0.0821687,
2,0,0,1,0,13010.1,-0.0837994,-0.0841726,-8.65377,7,-0.00576677,10,0.000728411,-2.06279,-0.35078,-0.168197,56.785,-0.0841726,
2,0,0,1,0,13010.2,-0.0857969,-0.0861581,-8.76449,7,-0.00594099,10,0.000755132,-2.05727,-0.351821,-0.167699,57.3833,-0.0861581,
2,0,0,1,0,13010.2,-0.0877945,-0.0881648,-8.88286,7,-0.0061175,10,0.000783155,-2.05145,-0.34705,-0.170004,58.9324,-0.0881648,
2,0,0,1,0,13010.2,-0.0897921,-0.0901777,-9.00137,7,-0.0062964,10,0.000811723,-2.04569,-0.350433,-0.168363,59.1295,-0.0901777,
2,0,0,1,0,13010.2,-0.0917897,-0.0921098,-9.11612,7,-0.00647668,10,0.000839684,-2.04019,-0.36632,-0.161061,57.2973,-0.09210977,
2,0,0,1,0,13010.2,-0.0937873,-0.0941777,-9.23056,7,-0.00666024,10,0.000869313,-2.03477,-0.375611,-0.157077,56.5821,-0.0941777,
2,0,0,1,0,13010.3,-0.0957849,-0.0961515,-9.34481,7,-0.00684608,10,0.000898518,-2.02943,-0.383905,-0.153684,56.0267,-0.0961515,
2,0,0,1,0,13010.3,-0.0977825,-0.0981435,-9.45276,7,-0.00703412,10,0.000927727,-2.02444,-0.379842,-0.155328,57.3314,-0.0981435,
2,0,0,1,0,13010.3,-0.0997501,-0.100101,-9.57127,7,-0.00722057,10,0.000958098,-2.01903,0.00788945,7.47834,-2416.83,-0.100101,
2,0,0,1,1,13010.3,-0.0987313,-0.0990714,-7.21014,7,-0.00734894,10,0.000714319,-2.14206,-0.0101645,-5.80453,1572.71,-0.0990714,
2,0,0,1,1,13010.3,-0.0967337,-0.0970968,-4.84577,7,-0.0074675,10,0.000470508,-2.31464,-0.011052,-5.33842,1020.05,-0.0970968,
2,0,0,1,1,13010.4,-0.0947361,-0.0950809,-3.13957,7,-0.00754621,10,0.000298513,-2.50313,-0.00952314,-6.19544,747.948,-0.0950809,
2,0,0,1,1,13010.4,-0.0927386,-0.0930581,-1.82502,7,-0.00759496,10,0.000169833,-2.73873,-0.00653907,-9.02269,594.734,-0.0930581,
2,0,0,1,1,13010.4,-0.090741,-0.0911026,-0.773533,7,-0.00762017,10,7.04708e-05,-3.11152,-0.00278255,-21.2035,476.85,-0.0911026,
2,0,0,1,1,13010.4,-0.0887434,-0.0890876,0.0682902,7,-0.00762674,10,-6.08381e-06,-4.16564,1.67217,0.0352835,386.631,-0.0890876,
2,1,0,1,1,13010.4,-0.0867458,-0.0870901,0.777818,7,-0.00761781,10,-6.77403e-05,-3.10912,0.00306305,19.2619,325.15,-0.0870901,
2,1,0,1,1,13010.5,-0.0847482,-0.085105,1.36324,7,-0.00759598,10,-0.000116018,-2.86543,0.0104264,5.65873,274.352,-0.085105,
2,1,0,1,1,13010.5,-0.0827529,-0.0831357,1.86271,7,-0.0075636,10,-0.000154858,-2.72985,0.0178455,3.30616,230.723,-0.0831357,
2,1,0,1,1,13010.5,-0.080753,-0.0810738,2.29332,7,-0.00752172,10,-0.000185928,-2.63954,0.0258996,2.27803,198.963,-0.0810738,
2,1,0,1,1,13010.5,-0.0787554,-0.0791261,2.66049,7,-0.00747183,10,-0.000210514,-2.57504,0.0346594,1.70228,174.244,-0.0791261,
2,1,0,1,1,13010.5,-0.0767579,-0.0771193,2.98238,7,-0.00741506,10,-0.000229999,-2.52544,0.0451142,1.30779,150.69,-0.0771193,
2,1,0,1,1,13010.6,-0.0747603,-0.0751142,3.26503,7,-0.00735233,10,-0.00024525,-2.48611,0.0553012,1.06689,135.08,-0.0751142,
2,1,0,1,1,13010.6,-0.0727627,-0.0731323,3.52094,7,-0.00728443,10,-0.000257494,-2.45334,0.0689451,0.855754,116.599,-0.0731323,
2,1,0,1,1,13010.6,-0.0707651,-0.0711459,3.72773,7,-0.00721168,10,-0.000265213,-2.42856,0.0847606,0.696078,101.048,-0.0711459,
2,1,0,1,1,13010.6,-0.0687675,-0.0691256,3.92581,7,-0.00713486,10,-0.000271374,-2.40607,0.0989475,0.596276,90.9261,-0.0691256,
2,1,0,1,1,13010.6,-0.0667699,-0.0671334,4.09257,7,-0.00705444,10,-0.000274748,-2.388,0.116605,0.505981,80.6586,-0.0671334,
2,1,0,1,1,13010.7,-0.0647723,-0.065135,4.24768,7,-0.0069711,10,-0.000276673,-2.37185,0.135499,0.435426,71.9719,-0.065135,
2,1,0,1,1,13010.7,-0.0627748,-0.0631213,4.38133,7,-0.00688464,10,-0.000276555,-2.35839,0.159779,0.369261,63.0178,-0.0631213,
2,1,0,1,1,13010.7,-0.0607772,-0.0611232,4.5005,7,-0.00679558,10,-0.000275085,-2.34674,0.182127,0.323951,56.8111,-0.0611232,
2,1,0,1,1,13010.7,-0.0587796,-0.0591368,4.60769,7,-0.00670429,10,-0.000272484,-2.33652,0.212012,0.278286,49.9553,-0.0591368,
2,1,0,1,1,13010.7,-0.056782,-0.0571242,4.70027,7,-0.00661149,10,-0.000268499,-2.32788,0.242311,0.243488,44.6285,-0.0571242,
2,1,0,1,1,13010.8,-0.0547844,-0.0551333,4.78636,7,-0.00651642,10,-0.000263888,-2.31999,0.274279,0.215109,40.1212,-0.0551333,
2,1,0,1,1,13010.8,-0.0527868,-0.0531698,4.85892,7,-0.00641977,10,-0.000258348,-2.31346,0.336158,0.175513,33.2393,-0.0531698,
2,1,0,1,1,13010.8,-0.0507892,-0.0511258,4.91957,7,-0.00632182,10,-0.000251517,-2.30807,0.348712,0.169194,32.5181,-0.0511258,
2,1,0,1,1,13010.8,-0.0487916,-0.0491082,4.991,7,-0.00622306,10,-0.000245099,-2.30181,0.391385,0.150747,29.2843,-0.0491082,
2,1,0,1,1,13010.8,-0.046794,-0.0471435,5.03619,7,-0.00612262,10,-0.000237423,-2.2979,0.534852,0.110311,21.6706,-0.0471435,
2,1,0,1,1,13010.9,-0.0447965,-0.0451549,5.07667,7,-0.00602135,10,-0.000229237,-2.29442,0.603531,0.097758,19.3615,-0.0451549,
2,1,0,1,1,13010.9,-0.0427989,-0.0431395,5.11371,7,-0.00591927,10,-0.000220603,-2.29126,0.573702,0.102841,20.5397,-0.0431395,
2,1,0,1,1,13010.9,-0.0408013,-0.0411598,5.15873,7,-0.00581691,10,-0.000212332,-2.28746,0.771435,0.0764809,15.354,-0.0411598,
2,1,0,1,1,13010.9,-0.0388037,-0.0391817,5.17448,7,-0.0057134,10,-0.000202745,-2.28613,1.0882,0.0542178,10.9621,-0.0391817,
2,1,0,1,1,13010.9,-0.0368061,-0.0371444,5.20275,7,-0.00560944,10,-0.000193253,-2.28377,0.982098,0.0600755,12.1895,-0.0371444,
2,1,0,1,1,13011,-0.0348085,-0.0351418,5.22372,7,-0.00550498,10,-0.000183571,-2.28202,1.1515,0.0512376,10.4454,-0.0351418,
2,1,0,1,1,13011,-0.0328109,-0.0331434,5.24454,7,-0.00540066,10,-0.000173822,-2.28029,1.50849,0.0391119,7.99778,-0.0331434,
2,1,0,1,1,13011,-0.0308134,-0.0311709,5.25548,7,-0.00529553,10,-0.000163818,-2.27939,2.60168,0.0226777,4.64981,-0.0311709,
2,1,0,1,1,13011,-0.0288158,-0.0291611,5.26306,7,-0.00519022,10,-0.000153476,-2.27876,3.83824,0.0153716,3.15654,-0.0291611,
2,1,0,1,1,13011,-0.0268182,-0.027212,5.26798,7,-0.00508471,10,-0.000143352,-2.27836,3.2511,0.0181477,3.73286,-0.02721199,
2,1,0,1,1,13011.1,-0.0248138,-0.0251375,5.27807,7,-0.00497912,10,-0.000132678,-2.27752,2.71935,0.0216964,4.46821,-0.0251375,
2,1,0,1,1,13011.1,-0.022823,-0.0231944,5.28593,7,-0.00487382,10,-0.000122604,-2.27688,4.76403,0.0123845,2.55347,-0.0231944,
2,1,0,1,1,13011.1,-0.0208254,-0.0211981,5.28813,7,-0.00476792,10,-0.000112099,-2.2767,-7.5116,-0.00785452,-1.61934,-0.0211981,
2,1,0,1,1,13011.1,-0.0188278,-0.0191898,5.27944,7,-0.00466208,10,-0.000101312,-2.27741,-9.049,-0.00652006,-1.34492,-0.0191898,
2,1,0,1,1,13011.1,-0.0168393,-0.017212,5.28277,7,-0.00455677,10,-9.09269e-05,-2.27714,3.75584,0.0157089,3.24065,-0.017212,
2,1,0,1,1,13011.2,-0.0148327,-0.0151675,5.29248,7,-0.0044507,10,-8.02734e-05,-2.27634,-33.7798,-0.0017466,-0.360048,-0.0151675,
2,1,0,1,1,13011.2,-0.0128351,-0.0131568,5.28131,7,-0.00434481,10,-6.94851e-05,-2.27726,-4.30193,-0.0137148,-2.82974,-0.0131568,
2,1,0,1,1,13011.2,-0.0108375,-0.0111652,5.28115,7,-0.00423899,10,-5.89651e-05,-2.27727,7.00495,0.00842262,1.73717,-0.0111652,
2,1,0,1,1,13011.2,-0.00883989,-0.00911287,5.28834,7,-0.0041331,10,-4.81919e-05,-2.27668,9.46837,0.00623128,1.28493,-0.00911287,
2,1,0,1,1,13011.2,-0.0068423,-0.00719095,5.28626,7,-0.00402762,10,-3.80132e-05,-2.27685,506.939,0.000116385,0.0240206,-0.00719095,
2,1,0,1,1,13011.3,-0.00484471,-0.00520919,5.28843,7,-0.00392167,10,-2.75484e-05,-2.27667,20.3385,0.0029009,0.598608,-0.00520919,
2,1,0,1,1,13011.3,-0.00284713,-0.00320585,5.28865,7,-0.00381569,10,-1.69546e-05,-2.27666,75.4928,0.000781532,0.161311,-0.00320585,
2,1,0,1,1,13011.3,-0.000849538,-0.00122409,5.28907,7,-0.00370966,10,-6.47429e-06,-2.27662, , , ,-0.00122409,
2,1,0,1,1,13011.3,-2.55332e-05,-0.000306236,5.3196,7,-0.00366674,10,-1.62905e-06,-2.27412, , , ,-0.000306236,