File: Figure_codes/Fig_3-5/rawdata_trumpetplot_data/after 10th/20221101_1-115_003_TrumpetPlot_ParaChange_from10_every3_14_CV_C01_29.csv
mode,ox/red,error,control changes,counter inc.,time/s,control/V,Ewe/V,<I>/mA,cycle number,(Q-Qo)/C,I Range,P/W,log(|I|),Tafel slope mV/dec,alpha_eff,dI/d(E-IR),E-IR/V,
2,1,0,1,0,58332.9,2.44065e-05,-0.000287149,29.9652,30,0.0000000E+000,10,-8.60447e-06,-1.52338, , , ,-0.0002871489,
2,1,0,1,0,58332.9,0.00332042,0.00293331,31.2335,30,9.54366e-05,10,9.16174e-05,-1.50538, , , ,0.00293331,
2,1,0,1,0,58332.9,0.0073156,0.00690453,32.2471,30,0.000222543,10,0.000222651,-1.49151, , , ,0.00690453,
2,1,0,1,0,58332.9,0.0113108,0.0109616,33.1506,30,0.000353446,10,0.000363385,-1.47951,0.344452,0.171286,220.32,0.0109616,
2,1,0,1,0,58332.9,0.0153059,0.0149074,33.9788,30,0.000487788,10,0.000506536,-1.46879,0.381046,0.154837,204.628,0.0149074,
2,1,0,1,0,58332.9,0.0193011,0.0188755,34.7459,30,0.000625341,10,0.000655845,-1.4591,0.414689,0.142275,192.467,0.0188755,
2,1,0,1,0,58332.9,0.0233462,0.0229591,35.5323,30,0.000766023,10,0.00081579,-1.44938,0.44828,0.131614,181.928,0.0229591,
2,1,0,1,0,58332.9,0.0273414,0.0269102,36.2201,30,0.000909599,10,0.00097469,-1.44105,0.47769,0.123511,174.135,0.0269102,
2,1,0,1,0,58332.9,0.0313366,0.0309588,36.899,30,0.00105592,10,0.00114235,-1.43299,0.513877,0.114814,165.031,0.03095879,
2,1,0,1,0,58332.9,0.0353317,0.0349289,37.5414,30,0.00120487,10,0.00131128,-1.42549,0.543951,0.108466,158.643,0.0349289,
2,1,0,1,0,58332.9,0.0393269,0.0388811,38.16,30,0.00135634,10,0.0014837,-1.41839,0.573885,0.102808,152.905,0.0388811,
2,1,0,1,0,58332.9,0.0433221,0.0429371,38.7627,30,0.00151026,10,0.00166436,-1.41159,0.600887,0.0981882,148.355,0.0429371,
2,1,0,1,0,58332.9,0.0473173,0.0469614,39.3459,30,0.00166653,10,0.00184774,-1.4051,0.627793,0.09398,144.148,0.0469614,
2,1,0,1,0,58332.9,0.0513124,0.0509146,39.9129,30,0.00182512,10,0.00203215,-1.39889,0.653546,0.0902767,140.473,0.0509146,
2,1,0,1,0,58332.9,0.0553076,0.0548773,40.4658,30,0.00198594,10,0.00222065,-1.39291,0.670762,0.0879597,138.849,0.0548773,
2,1,0,1,0,58332.9,0.0593028,0.0588591,40.9993,30,0.00214892,10,0.00241318,-1.38722,0.697831,0.0845477,135.244,0.05885914,
2,1,0,1,0,58333,0.0633479,0.062982,41.5703,30,0.00231409,10,0.00261818,-1.38122,0.72738,0.0811131,131.405,0.062982,
2,1,0,1,0,58333,0.0673431,0.0669479,42.0813,30,0.00248143,10,0.00281726,-1.37591,0.749106,0.0787605,129.183,0.0669479,
2,1,0,1,0,58333,0.0713382,0.0709107,42.5727,30,0.0026508,10,0.00301885,-1.37087,0.785122,0.0751475,124.814,0.0709107,
2,1,0,1,0,58333,0.0753334,0.0749105,43.0729,30,0.00282215,10,0.00322661,-1.3658,0.80645,0.0731602,122.93,0.0749105,
2,1,0,1,0,58333,0.0793286,0.0789369,43.5617,30,0.00299545,10,0.00343863,-1.36089,0.818359,0.0720955,122.526,0.0789369,
2,1,0,1,0,58333,0.0833238,0.0829007,44.0424,30,0.00317071,10,0.00365114,-1.35613,0.833431,0.0707917,121.666,0.0829007,
2,1,0,1,0,58333,0.0873189,0.0869313,44.5356,30,0.00334792,10,0.00387154,-1.35129,0.846313,0.0697142,121.131,0.0869313,
2,1,0,1,0,58333,0.0913141,0.0908866,45.0166,30,0.00352706,10,0.00409141,-1.34663,0.854267,0.0690651,121.305,0.0908866,
2,1,0,1,0,58333,0.0953093,0.0948981,45.4951,30,0.00370815,10,0.0043174,-1.34204,0.861323,0.0684992,121.636,0.09489812,
2,1,0,1,0,58333,0.0993045,0.0988789,45.9806,30,0.00389115,10,0.00454651,-1.33743,0.856781,0.0688624,123.63,0.09887889,
2,1,0,1,0,58333,0.103319,0.102906,46.4787,30,0.0040761,10,0.00478296,-1.33275,0.861354,0.0684968,124.259,0.102906,
2,1,0,1,0,58333,0.107345,0.106942,47.0016,30,0.00426316,10,0.00502645,-1.32789,0.872843,0.0675952,123.899,0.106942,
2,1,0,1,0,58333,0.11134,0.11091,47.4848,30,0.00445218,10,0.00526655,-1.32345,0.882354,0.0668666,123.858,0.11091,
2,1,0,1,0,58333,0.115335,0.114906,47.9663,30,0.00464316,10,0.00551162,-1.31906,0.910504,0.0647993,121.291,0.114906,
2,1,0,1,0,58333,0.11933,0.118905,48.4603,30,0.00483606,10,0.00576215,-1.31461,0.923341,0.0638984,120.792,0.118905,
2,1,0,1,0,58333,0.123325,0.122884,48.9352,30,0.0050309,10,0.00601338,-1.31038,0.896809,0.0657888,125.715,0.122884,
2,1,0,1,0,58333,0.127321,0.126795,49.4035,30,0.00522761,10,0.00626413,-1.30624,0.886031,0.0665891,128.592,0.126795,
2,1,0,1,0,58333,0.131316,0.130875,49.9738,30,0.00542644,10,0.0065403,-1.30126,0.863947,0.0682912,133.254,0.130875,
2,1,0,1,0,58333,0.135311,0.134906,50.5179,30,0.00562748,10,0.00681518,-1.29655,0.844078,0.0698988,137.776,0.1349062,
2,1,0,1,0,58333,0.139306,0.138946,51.0756,30,0.00583073,10,0.00709676,-1.29179,0.836483,0.0705334,140.651,0.138946,
2,1,0,1,0,58333,0.143301,0.142914,51.6244,30,0.00603618,10,0.00737787,-1.28715,0.831499,0.0709562,143.044,0.142914,
2,1,0,1,0,58333,0.147346,0.146944,52.234,30,0.00624399,10,0.00767547,-1.28205,0.82708,0.0713353,145.398,0.146944,
2,1,0,1,0,58333,0.151342,0.150928,52.8097,30,0.00645413,10,0.00797046,-1.27729,0.822016,0.0717748,147.904,0.150928,
2,1,0,1,0,58333,0.155337,0.154894,53.3943,30,0.00666659,10,0.00827044,-1.27251,0.829166,0.0711558,148.319,0.154894,
2,1,0,1,0,58333,0.159332,0.158947,53.9956,30,0.00688143,10,0.00858242,-1.26764,0.82727,0.0713189,150.312,0.158947,
2,1,0,1,0,58333.1,0.163327,0.162921,54.6037,30,0.0070987,10,0.0088961,-1.26278,0.831243,0.0709781,151.238,0.162921,
2,1,0,1,0,58333.1,0.167322,0.166936,55.2159,30,0.0073184,10,0.00921751,-1.25794,0.841875,0.0700817,150.952,0.166936,
2,1,0,1,0,58333.1,0.171317,0.170926,55.819,30,0.00754054,10,0.00954092,-1.25322,0.871723,0.067682,147.321,0.170926,
2,1,0,1,0,58333.1,0.175313,0.174905,56.4045,30,0.00776504,10,0.00986541,-1.24869,0.902748,0.065356,143.743,0.174905,
2,1,0,1,0,58333.1,0.179308,0.178914,56.9598,30,0.00799183,10,0.0101909,-1.24443,0.92785,0.0635879,141.314,0.1789141,
2,1,0,1,0,58333.1,0.183303,0.1829,57.5107,30,0.00822084,10,0.0105187,-1.24025,0.984114,0.0599524,134.479,0.1829,
2,1,0,1,0,58333.1,0.187348,0.186953,58.0838,30,0.00845204,10,0.0108589,-1.23594,1.04348,0.0565414,127.941,0.186953,
2,1,0,1,0,58333.1,0.191343,0.190936,58.5604,30,0.00868538,10,0.0111813,-1.2324,1.12797,0.0523066,119.342,0.190936,
2,1,0,1,0,58333.1,0.195338,0.194956,59.0122,30,0.00892059,10,0.0115048,-1.22906,1.27285,0.0463528,106.607,0.194956,
2,1,0,1,0,58333.1,0.199334,0.19893,59.4237,30,0.0091575,10,0.0118212,-1.22604,1.40998,0.0418446,96.8935,0.19893,
2,1,0,1,0,58333.1,0.203329,0.202932,59.7873,30,0.00939598,10,0.0121328,-1.22339,1.63369,0.0361146,84.1156,0.202932,
2,1,0,1,0,58333.1,0.207324,0.20694,60.111,30,0.00963582,10,0.0124394,-1.22105,1.95879,0.0301206,70.513,0.20694,
2,1,0,1,0,58333.1,0.211319,0.210899,60.3533,30,0.00987679,10,0.0127285,-1.2193,2.52025,0.0234104,55.0257,0.210899,
2,1,0,1,0,58333.1,0.215314,0.214897,60.5496,30,0.0101186,10,0.0130119,-1.21789,3.56886,0.0165319,38.9838,0.214897,
2,1,0,1,0,58333.1,0.219309,0.218962,60.6694,30,0.0103611,10,0.0132843,-1.21703,5.50777,0.0107121,25.3159,0.218962,
2,1,0,1,0,58333.1,0.223305,0.222947,60.7351,30,0.010604,10,0.0135407,-1.21656,13.5454,0.00435572,10.3069,0.222947,
2,1,0,1,0,58333.1,0.227314,0.226889,60.7581,30,0.0108469,10,0.0137853,-1.2164,-26.7683,-0.0022041,-5.21513,0.226889,
2,1,0,1,0,58333.1,0.231345,0.230948,60.715,30,0.0110899,10,0.014022,-1.2167,-6.67576,-0.00883795,-20.8908,0.230948,
2,1,0,1,0,58333.1,0.23534,0.235,60.5857,30,0.0113326,10,0.0142377,-1.21763,-3.6837,-0.0160165,-37.7886,0.235,
2,1,0,1,0,58333.1,0.239335,0.238979,60.4002,30,0.0115745,10,0.0144344,-1.21896,-2.60945,-0.0226101,-53.1982,0.238979,
2,1,0,1,0,58333.1,0.24333,0.242924,60.1522,30,0.0118156,10,0.0146124,-1.22075,-2.0298,-0.0290669,-68.1108,0.2429245,
2,1,0,1,0,58333.1,0.247326,0.246971,59.8627,30,0.0120556,10,0.0147843,-1.22284,-1.65864,-0.0355713,-82.9268,0.246971,
2,1,0,1,0,58333.1,0.251321,0.250924,59.5011,30,0.0122943,10,0.0149303,-1.22547,-1.41342,-0.0417427,-96.7251,0.250924,
2,1,0,1,0,58333.1,0.255316,0.254953,59.0755,30,0.0125315,10,0.0150615,-1.22859,-1.21118,-0.048713,-112.094,0.2549527,
2,1,0,1,0,58333.1,0.259311,0.258949,58.6021,30,0.0127668,10,0.015175,-1.23209,-1.07521,-0.0548728,-125.259,0.258949,
2,1,0,1,0,58333.2,0.263306,0.262959,58.0705,30,0.0130001,10,0.0152702,-1.23604,-0.981704,-0.0600996,-135.986,0.262959,
2,1,0,1,0,58333.2,0.267302,0.26696,57.4925,30,0.0132312,10,0.0153482,-1.24039,-0.882443,-0.0668599,-149.757,0.26696,
2,1,0,1,0,58333.2,0.271347,0.271001,56.8932,30,0.0134599,10,0.0154181,-1.24494,-0.812754,-0.0725927,-160.84,0.271001,
2,1,0,1,0,58333.2,0.275342,0.274986,56.2006,30,0.0136861,10,0.0154544,-1.25026,-0.753145,-0.0783382,-171.539,0.274986,
2,1,0,1,0,58333.2,0.279337,0.27898,55.4936,30,0.0139094,10,0.0154816,-1.25576,-0.701118,-0.0841513,-182.031,0.27898,
2,1,0,1,0,58333.2,0.283332,0.282972,54.7458,30,0.0141298,10,0.0154915,-1.26165,-0.669644,-0.0881065,-188.041,0.282972,
2,1,0,1,0,58333.2,0.287327,0.286971,53.9862,30,0.0143472,10,0.0154924,-1.26772,-0.641863,-0.0919199,-193.473,0.286971,
2,1,0,1,0,58333.2,0.291322,0.290942,53.2002,30,0.0145615,10,0.0154782,-1.27409,-0.622675,-0.0947524,-196.677,0.290942,
2,1,0,1,0,58333.2,0.295318,0.294968,52.4004,30,0.0147726,10,0.0154565,-1.28067,-0.611927,-0.0964167,-198.336,0.294968,
2,1,0,1,0,58333.2,0.299013,0.298679,51.6566,30,0.0149651,10,0.0154287,-1.28687,-0.207406,-0.284466,-566.563,0.298679,
2,1,0,0,0,58333.2,0.300012,0.299746,51.4523,30,0.0150167,10,0.0154226,-1.2886,0.00575318,10.2552,19036.2,0.299746,
2,1,0,1,0,58333.2,0.298714,0.298486,48.9262,30,0.0150809,10,0.0146038,-1.31046,0.0634421,0.929981,1621.98,0.298486,
2,1,0,1,0,58333.2,0.294718,0.294476,43.0338,30,0.0152637,10,0.0126724,-1.36619,0.0755359,0.781085,1289.6,0.294476,
2,1,0,1,0,58333.2,0.290723,0.290493,38.3793,30,0.0154259,10,0.0111489,-1.4159,0.078891,0.747867,1140.3,0.290493,
2,1,0,1,0,58333.2,0.286728,0.286455,34.3119,30,0.0155707,10,0.00982883,-1.46455,0.08094,0.728935,983.448,0.286455,
2,1,0,1,0,58333.2,0.282733,0.282444,30.6338,30,0.0157002,10,0.00865232,-1.5138,0.0801783,0.73586,883.16,0.282444,
2,1,0,1,0,58333.2,0.278738,0.278474,27.2961,30,0.0158156,10,0.00760125,-1.5639,0.077699,0.75934,809.722,0.278474,
2,1,0,1,0,58333.2,0.274742,0.274449,24.21,30,0.0159182,10,0.00664441,-1.61601,0.0746778,0.790061,744.835,0.274449,
2,1,0,1,0,58333.2,0.270747,0.270454,21.3552,30,0.016009,10,0.00577558,-1.6705,0.0706191,0.835469,693.187,0.270454,
2,1,0,1,0,58333.2,0.266702,0.266373,18.6639,30,0.0160887,10,0.00497157,-1.729,0.0663186,0.889645,644.627,0.266373,
2,1,0,1,0,58333.2,0.262707,0.262447,16.1864,30,0.0161581,10,0.00424808,-1.79085,0.0613831,0.961177,601.955,0.262447,
2,1,0,1,0,58333.2,0.258712,0.258419,13.8765,30,0.016218,10,0.00358595,-1.85772,0.0557688,1.05794,564.624,0.258419,
2,1,0,1,0,58333.2,0.254717,0.254416,11.7013,30,0.0162689,10,0.00297699,-1.93177,0.0501154,1.17728,526.314,0.254416,
2,1,0,1,0,58333.2,0.250722,0.250437,9.6662,30,0.0163114,10,0.00242078,-2.01474,0.0433594,1.36072,496.381,0.2504375,
2,1,0,1,0,58333.2,0.246726,0.246417,7.75009,30,0.016346,10,0.00190976,-2.11069,0.0359604,1.64069,469.814,0.246417,
2,1,0,1,0,58333.2,0.242731,0.242411,5.93047,30,0.0163731,10,0.00143761,-2.22691,0.0282469,2.08873,439.555,0.242411,
2,1,0,1,0,58333.2,0.238736,0.238497,4.22237,30,0.0163933,10,0.00100702,-2.37444,0.018709,3.15356,417.689,0.238497,
2,1,0,1,0,58333.3,0.234741,0.234392,2.61353,30,0.0164067,10,0.000612592,-2.58277,0.013639,4.32583,393.508,0.234392,
2,1,0,1,0,58333.3,0.230746,0.230469,1.08857,30,0.016414,10,0.000250882,-2.96314,0.0422836,1.39534,372.408,0.230469,
2,0,0,1,0,58333.3,0.226701,0.226341,-0.393382,30,0.0164152,10,-8.90384e-05,-3.40519,-0.231781,-0.25455,354.329,0.2263408,
2,0,0,1,0,58333.3,0.222705,0.222432,-1.76043,30,0.0164108,10,-0.000391575,-2.75438,-0.0269868,-2.18625,334.648,0.222432,
2,0,0,1,0,58333.3,0.21871,0.218368,-3.06454,30,0.016401,10,-0.000669196,-2.51363,-0.0139305,-4.23532,318.911,0.218368,
2,0,0,1,0,58333.3,0.214715,0.214385,-4.29399,30,0.0163861,10,-0.000920566,-2.36714,-0.0279614,-2.11005,301.499,0.214385,
2,0,0,1,0,58333.3,0.21072,0.210412,-5.47312,30,0.0163665,10,-0.00115161,-2.26176,-0.0400767,-1.47218,288.694,0.210412,
2,0,0,1,0,58333.3,0.206725,0.206389,-6.59734,30,0.0163422,10,-0.00136162,-2.18063,-0.0520745,-1.13299,276.159,0.206389,
2,0,0,1,0,58333.3,0.20273,0.202371,-7.68255,30,0.0163135,10,-0.00155473,-2.11449,-0.0644188,-0.915881,264.016,0.202371,
2,0,0,1,0,58333.3,0.198734,0.198379,-8.71413,30,0.0162806,10,-0.0017287,-2.05978,-0.0768843,-0.767387,253.44,0.198379,
2,0,0,1,0,58333.3,0.194739,0.1944,-9.70058,30,0.0162437,10,-0.0018858,-2.0132,-0.0895324,-0.658979,244.342,0.1944003,
2,0,0,1,0,58333.3,0.190744,0.190399,-10.6498,30,0.0162029,10,-0.00202772,-1.97266,-0.102372,-0.576331,235.995,0.190399,
2,0,0,1,0,58333.3,0.186735,0.186397,-11.5857,30,0.0161583,10,-0.00215954,-1.93608,-0.115561,-0.510552,227.78,0.1863974,
2,0,0,1,0,58333.3,0.182704,0.182349,-12.4972,30,0.01611,10,-0.00227884,-1.90319,-0.128781,-0.458143,220.531,0.182349,
2,0,0,1,0,58333.3,0.178709,0.178346,-13.3575,30,0.0160582,10,-0.00238225,-1.87428,-0.142567,-0.413842,213.507,0.178346,
2,0,0,1,0,58333.3,0.174713,0.17436,-14.1871,30,0.016003,10,-0.00247365,-1.84811,-0.156518,-0.376954,207.255,0.17436,
2,0,0,1,0,58333.3,0.170718,0.170405,-15.0001,30,0.0159446,10,-0.00255609,-1.82391,-0.168661,-0.349814,203.72,0.170405,
2,0,0,1,0,58333.3,0.166723,0.166371,-15.8087,30,0.0158829,10,-0.00263011,-1.8011,-0.180771,-0.32638,200.446,0.166371,
2,0,0,1,0,58333.3,0.162728,0.162407,-16.6046,30,0.015818,10,-0.00269669,-1.77977,-0.191703,-0.307768,198.711,0.162407,
2,0,0,1,0,58333.3,0.158733,0.158356,-17.3949,30,0.0157499,10,-0.00275459,-1.75958,-0.201122,-0.293355,198.585,0.158356,
2,0,0,1,0,58333.3,0.154737,0.154352,-18.1901,30,0.0156786,10,-0.00280767,-1.74017,-0.209934,-0.281041,199.083,0.1543519,
2,0,0,1,0,58333.3,0.150742,0.150406,-18.979,30,0.0156042,10,-0.00285456,-1.72173,-0.213429,-0.276439,204.816,0.150406,
2,0,0,1,0,58333.3,0.146747,0.146403,-19.7906,30,0.0155266,10,-0.00289741,-1.70354,-0.218489,-0.270037,208.771,0.146403,
2,0,0,1,0,58333.3,0.142702,0.142375,-20.6682,30,0.0154456,10,-0.00294262,-1.6847,-0.221732,-0.266087,214.468,0.142375,
2,0,0,1,0,58333.3,0.138707,0.138386,-21.5232,30,0.0153611,10,-0.00297852,-1.66709,-0.222314,-0.26539,222.929,0.138386,
2,0,0,1,0,58333.4,0.134712,0.134354,-22.4218,30,0.0152732,10,-0.00301245,-1.64933,-0.224289,-0.263053,230.572,0.134354,
2,0,0,1,0,58333.4,0.130717,0.130413,-23.3552,30,0.0151815,10,-0.00304583,-1.63162,-0.222262,-0.265452,242.554,0.130413,
2,0,0,1,0,58333.4,0.126721,0.126401,-24.3513,30,0.015086,10,-0.00307802,-1.61348,-0.219249,-0.2691,256.368,0.126401,
2,0,0,1,0,58333.4,0.122726,0.122361,-25.4104,30,0.0149864,10,-0.00310922,-1.59499,-0.217153,-0.271698,269.968,0.122361,
2,0,0,1,0,58333.4,0.118731,0.118389,-26.5145,30,0.0148825,10,-0.00313904,-1.57652,-0.215292,-0.274047,284.032,0.1183893,
2,0,0,1,0,58333.4,0.114736,0.114364,-27.688,30,0.014774,10,-0.00316651,-1.55771,-0.21558,-0.27368,295.879,0.114364,
2,0,0,1,0,58333.4,0.110741,0.110414,-28.8921,30,0.0146607,10,-0.00319009,-1.53922,-0.21572,-0.273502,308.644,0.110414,
2,0,0,1,0,58333.4,0.106745,0.106419,-30.127,30,0.0145426,10,-0.0032061,-1.52104,-0.220721,-0.267306,314.347,0.106419,
2,0,0,1,0,58333.4,0.102703,0.102374,-31.4576,30,0.0144193,10,-0.00322044,-1.50227,-0.227849,-0.258944,316.97,0.102374,
2,0,0,1,0,58333.4,0.0987052,0.0983657,-32.7171,30,0.0142909,10,-0.00321823,-1.48523,-0.23579,-0.250223,318.449,0.0983657,
2,0,0,1,0,58333.4,0.09471,0.0943753,-33.9758,30,0.0141573,10,-0.00320648,-1.46883,-0.248536,-0.23739,314.072,0.0943753,
2,0,0,1,0,58333.4,0.0907148,0.0904084,-35.2257,30,0.0140188,10,-0.0031847,-1.45314,-0.259024,-0.227778,312.441,0.0904084,
2,0,0,1,0,58333.4,0.0867197,0.0864265,-36.4662,30,0.0138753,10,-0.00315165,-1.43811,-0.272908,-0.21619,306.857,0.0864265,
2,0,0,1,0,58333.4,0.0827245,0.082433,-37.6951,30,0.0137268,10,-0.00310732,-1.42372,-0.288261,-0.204675,300.115,0.082433,
2,0,0,1,0,58333.4,0.0787293,0.0784162,-38.873,30,0.0135736,10,-0.00304827,-1.41035,-0.307744,-0.191718,289.886,0.0784162,
2,0,0,1,0,58333.4,0.0747342,0.0744365,-40.0191,30,0.0134156,10,-0.00297888,-1.39773,-0.328814,-0.179433,279.327,0.0744365,
2,0,0,1,0,58333.4,0.070739,0.0703932,-41.1141,30,0.0132532,10,-0.00289415,-1.38601,-0.350114,-0.168517,269.577,0.07039319,
2,0,0,1,0,58333.4,0.0667438,0.0664294,-42.1653,30,0.0130866,10,-0.00280102,-1.37504,-0.378608,-0.155834,255.635,0.0664294,
2,0,0,1,0,58333.4,0.0627403,0.0624306,-43.1824,30,0.0129158,10,-0.0026959,-1.36469,-0.407115,-0.144922,243.317,0.0624306,
2,0,0,1,0,58333.4,0.0587035,0.058417,-44.1143,30,0.012741,10,-0.00257702,-1.35542,-0.437017,-0.135006,231.785,0.058417,
2,0,0,1,0,58333.4,0.0547083,0.054485,-44.9848,30,0.0125627,10,-0.002451,-1.34693,-0.477831,-0.123475,216.311,0.054485,
2,0,0,1,0,58333.4,0.0507132,0.050448,-45.8696,30,0.0123809,10,-0.00231403,-1.33848,-0.512779,-0.115059,205.375,0.050448,
2,0,0,1,0,58333.4,0.046718,0.0464481,-46.6395,30,0.0121957,10,-0.00216632,-1.33125,-0.551081,-0.107062,194.414,0.0464481,
2,0,0,1,0,58333.4,0.0427228,0.0424292,-47.3977,30,0.0120076,10,-0.00201105,-1.32424,-0.603563,-0.0977528,180.437,0.0424292,
2,0,0,1,0,58333.4,0.0387276,0.0384156,-48.1089,30,0.0118165,10,-0.00184813,-1.31777,-0.650626,-0.0906818,169.817,0.0384156,
2,0,0,1,0,58333.5,0.0347325,0.0344645,-48.7536,30,0.0116227,10,-0.00168027,-1.31199,-0.70627,-0.0835375,158.611,0.03446449,
2,0,0,1,0,58333.5,0.0307373,0.0304636,-49.354,30,0.0114264,10,-0.0015035,-1.30668,-0.765952,-0.0770284,148.148,0.0304636,
2,0,0,1,0,58333.5,0.0267421,0.0264924,-49.9255,30,0.0112278,10,-0.00132264,-1.30168,-0.8078,-0.0730379,142.201,0.0264924,
2,0,0,1,0,58333.5,0.022747,0.0224618,-50.4724,30,0.0110269,10,-0.0011337,-1.29695,-0.860394,-0.0685732,134.958,0.0224618,
2,0,0,1,0,58333.5,0.0187018,0.0183951,-51.0387,30,0.0108238,10,-0.000938861,-1.2921,-0.932284,-0.0632854,125.789,0.0183951,
2,0,0,1,0,58333.5,0.0147067,0.0144175,-51.5195,30,0.0106186,10,-0.000742783,-1.28803,-1.01262,-0.0582648,116.894,0.0144175,
2,0,0,1,0,58333.5,0.0107115,0.0104134,-51.948,30,0.0104117,10,-0.000540956,-1.28443,-1.13868,-0.0518142,104.898,0.0104134,
2,0,0,1,0,58333.5,0.00671632,0.00637008,-52.3535,30,0.010203,10,-0.000333496,-1.28105,-1.25321,-0.0470793,96.074,0.006370083,
2,0,0,1,0,58333.5,0.00272115,0.00237235,-52.7194,30,0.00999282,10,-0.000125069,-1.27803,-1.39385,-0.0423288,86.9643,0.00237235,
2,0,0,1,0,58333.5,-0.00127403,-0.00168583,-53.0666,30,0.00978116,10,8.94611e-05,-1.27518,-1.58065,-0.0373263,77.159,-0.00168583,
2,0,0,1,0,58333.5,-0.0052692,-0.0056422,-53.3443,30,0.0095683,10,0.000300979,-1.27291,-1.82255,-0.0323721,67.2838,-0.0056422,
2,0,0,1,0,58333.5,-0.00926437,-0.00960282,-53.5859,30,0.0093544,10,0.000514576,-1.27095,-2.16952,-0.027195,56.8003,-0.00960282,
2,0,0,1,0,58333.5,-0.0132596,-0.0136568,-53.7979,30,0.0091396,10,0.000734705,-1.26923,-2.46064,-0.0239775,50.2939,-0.01365676,
2,0,0,1,0,58333.5,-0.0172547,-0.0176163,-53.9715,30,0.00892405,10,0.000950779,-1.26784,-2.98492,-0.019766,41.5943,-0.0176163,
2,0,0,1,0,58333.5,-0.0212915,-0.0216628,-54.15,30,0.00870782,10,0.00117304,-1.2664,-3.86792,-0.0152537,32.1792,-0.0216628,
2,0,0,1,0,58333.5,-0.025295,-0.0257072,-54.2558,30,0.00849099,10,0.00139477,-1.26555,-5.36332,-0.0110007,23.2512,-0.0257072,
2,0,0,1,0,58333.5,-0.0292902,-0.0296774,-54.3134,30,0.00827385,10,0.00161188,-1.26509,-9.30185,-0.00634283,13.431,-0.0296774,
2,0,0,1,0,58333.5,-0.0332854,-0.0336783,-54.345,30,0.00805651,10,0.00183025,-1.26484,-21.6951,-0.00271951,5.76326,-0.0336783,
2,0,0,1,0,58333.5,-0.0372805,-0.0376824,-54.3652,30,0.00783907,10,0.00204861,-1.26468,-423.081,-0.000139453,0.29561,-0.0376824,
2,0,0,1,0,58333.5,-0.0412757,-0.04166,-54.3477,30,0.00762163,10,0.00226413,-1.26482,23.3144,0.00253063,-5.36302,-0.04166,
2,0,0,1,0,58333.5,-0.0452709,-0.0457076,-54.3182,30,0.00740428,10,0.00248275,-1.26505,10.7037,0.00551209,-11.675,-0.0457076,
2,0,0,1,0,58333.5,-0.0492661,-0.0496162,-54.2595,30,0.00718714,10,0.00269215,-1.26552,8.43794,0.00699222,-14.7983,-0.0496162,
2,0,0,1,0,58333.5,-0.0532612,-0.053614,-54.1792,30,0.00697026,10,0.00290476,-1.26617,6.55209,0.00900476,-19.0356,-0.053614,
2,0,0,1,0,58333.5,-0.0572564,-0.05767,-54.1108,30,0.00675368,10,0.00312057,-1.26672,6.57733,0.00897021,-18.9417,-0.05767,
2,0,0,1,0,58333.5,-0.0612544,-0.0616455,-54.0148,30,0.00653745,10,0.00332977,-1.26749,5.81964,0.0101381,-21.3685,-0.0616455,
2,0,0,1,0,58333.6,-0.0652967,-0.0656984,-53.9549,30,0.00632142,10,0.00354475,-1.26797,5.02901,0.0117319,-24.6846,-0.0656984,
2,0,0,1,0,58333.6,-0.0692919,-0.0696653,-53.8362,30,0.00610586,10,0.00375052,-1.26893,4.94667,0.0119272,-25.0496,-0.0696653,
2,0,0,1,0,58333.6,-0.0732871,-0.0736822,-53.7155,30,0.00589076,10,0.00395788,-1.2699,4.3904,0.0134384,-28.1788,-0.0736822,
2,0,0,1,0,58333.6,-0.0772822,-0.0776332,-53.6143,30,0.00567611,10,0.00416225,-1.27072,4.4149,0.0133638,-27.9612,-0.0776332,
2,0,0,1,0,58333.6,-0.0812774,-0.0816787,-53.5046,30,0.00546189,10,0.00437018,-1.27161,4.67879,0.0126101,-26.3316,-0.0816787,
2,0,0,1,0,58333.6,-0.0852726,-0.0856817,-53.3884,30,0.0052481,10,0.00457441,-1.27255,4.60795,0.012804,-26.6842,-0.0856817,
2,0,0,1,0,58333.6,-0.0892678,-0.0896498,-53.2951,30,0.00503475,10,0.00477789,-1.27331,4.92671,0.0119755,-24.9132,-0.0896498,
2,0,0,1,0,58333.6,-0.0932629,-0.0936348,-53.1873,30,0.00482179,10,0.00498018,-1.27419,5.39203,0.0109421,-22.7211,-0.0936348,
2,0,0,1,0,58333.6,-0.0972581,-0.0976505,-53.1066,30,0.00460921,10,0.00518589,-1.27485,6.44939,0.00914815,-18.9732,-0.0976505,
2,0,0,1,0,58333.6,-0.101253,-0.101647,-53.0256,30,0.00439696,10,0.00538991,-1.27551,7.05003,0.00836876,-17.3259,-0.101647,
2,0,0,1,0,58333.6,-0.105298,-0.105698,-52.9906,30,0.00418493,10,0.005601,-1.2758,7.63588,0.00772668,-15.9755,-0.105698,
2,0,0,1,0,58333.6,-0.109294,-0.109663,-52.9096,30,0.00397313,10,0.00580222,-1.27647,9.13521,0.00645853,-13.3384,-0.109663,
2,0,0,1,0,58333.6,-0.113289,-0.1137,-52.8503,30,0.00376161,10,0.00600906,-1.27695,9.1115,0.00647533,-13.3644,-0.1136998,
2,0,0,1,0,58333.6,-0.117284,-0.117722,-52.8112,30,0.0035503,10,0.00621704,-1.27727,12.5506,0.00470098,-9.69276,-0.117722,
2,0,0,1,0,58333.6,-0.121279,-0.121678,-52.777,30,0.00333913,10,0.00642182,-1.27755,17.1429,0.00344167,-7.09112,-0.121678,
2,0,0,1,0,58333.6,-0.125274,-0.125699,-52.7542,30,0.00312808,10,0.00663117,-1.27774,27.7639,0.00212506,-4.37698,-0.125699,
2,0,0,1,0,58333.6,-0.129269,-0.129645,-52.7372,30,0.0029171,10,0.00683712,-1.27788,79.0915,0.000745972,-1.53614,-0.129645,
2,0,0,1,0,58333.6,-0.133265,-0.133626,-52.7416,30,0.00270616,10,0.00704764,-1.27785,-71.5618,-0.000824462,1.69786,-0.133626,
2,0,0,1,0,58333.6,-0.13726,-0.137665,-52.7525,30,0.00249517,10,0.00726217,-1.27776,-16.1768,-0.0036472,7.51513,-0.137665,
2,0,0,1,0,58333.6,-0.141255,-0.141619,-52.7812,30,0.00228408,10,0.00747484,-1.27752,-12.8719,-0.00458364,9.44823,-0.141619,
2,0,0,1,0,58333.6,-0.145286,-0.145702,-52.8578,30,0.00207283,10,0.00770148,-1.27689,-9.89963,-0.00595982,12.2927,-0.145702,
2,0,0,1,0,58333.6,-0.149295,-0.149662,-52.8931,30,0.00186131,10,0.00791611,-1.2766,-8.53345,-0.00691397,14.2729,-0.149662,
2,0,0,1,0,58333.6,-0.15329,-0.153673,-52.9493,30,0.00164962,10,0.00813687,-1.27614,-8.70766,-0.00677564,14.0068,-0.1536729,
2,0,0,1,0,58333.6,-0.157286,-0.157703,-53.0108,30,0.0014377,10,0.00835999,-1.27564,-7.07039,-0.00834466,17.2703,-0.1577035,
2,0,0,1,0,58333.6,-0.161281,-0.161663,-53.0814,30,0.0012255,10,0.00858131,-1.27506,-6.62973,-0.0088993,18.4409,-0.161663,
2,0,0,1,0,58333.7,-0.165276,-0.165607,-53.1685,30,0.00101299,10,0.00880506,-1.27435,-6.0697,-0.00972041,20.171,-0.165607,
2,0,0,1,0,58333.7,-0.169271,-0.169625,-53.2434,30,0.00080017,10,0.00903139,-1.27373,-5.53392,-0.0106615,22.1599,-0.1696246,
2,0,0,1,0,58333.7,-0.173266,-0.173647,-53.3324,30,0.000586997,10,0.00926099,-1.27301,-5.50724,-0.0107132,22.3043,-0.173647,
2,0,0,1,0,58333.7,-0.177261,-0.177624,-53.4351,30,0.000373466,10,0.00949137,-1.27217,-5.09775,-0.0115737,24.1365,-0.1776243,
2,0,0,1,0,58333.7,-0.181257,-0.181606,-53.5253,30,0.00015953,10,0.00972053,-1.27144,-4.65603,-0.0126717,26.4796,-0.181606,
2,0,0,1,0,58333.7,-0.185252,-0.185627,-53.6297,30,-5.47972e-05,10,0.00995512,-1.27059,-4.84097,-0.0121876,25.5134,-0.185627,
2,0,0,1,0,58333.7,-0.189297,-0.189666,-53.7566,30,-0.000269624,10,0.0101958,-1.26957,-4.76647,-0.0123781,25.9577,-0.189666,
2,0,0,1,0,58333.7,-0.193292,-0.193669,-53.8445,30,-0.00048485,10,0.010428,-1.26886,-4.80396,-0.0122815,25.7954,-0.1936693,
2,0,0,1,0,58333.7,-0.197287,-0.197685,-53.9427,30,-0.000700432,10,0.0106637,-1.26807,19.3141,0.00305476,-6.40455,-0.197685,
2,0,0,0,0,58333.7,-0.199984,-0.200227,-54.0063,30,-0.00084616,10,0.0108135,-1.26756,0.0667545,0.883836,-1749.75,-0.200227,
2,0,0,0,1,58333.7,-0.199984,-0.200628,-53.6864,30,-0.000878412,10,0.010771,-1.27014,-0.0437724,-1.34788,2527.12,-0.200628,
2,0,0,1,1,58333.7,-0.196688,-0.197162,-47.7326,30,-0.00103309,10,0.00941107,-1.32118,-0.0745739,-0.791162,1412.62,-0.1971623,
2,0,0,1,1,58333.7,-0.192693,-0.193191,-42.5859,30,-0.00121286,10,0.00822721,-1.37073,-0.0820925,-0.718702,1220.36,-0.1931911,
2,0,0,1,1,58333.7,-0.188698,-0.189167,-38.3826,30,-0.0013742,10,0.00726072,-1.41587,-0.0886905,-0.665235,1013.56,-0.189167,
2,0,0,1,1,58333.7,-0.184653,-0.185075,-34.7062,30,-0.0015199,10,0.00642325,-1.45959,-0.092171,-0.640114,876.53,-0.185075,
2,0,0,1,1,58333.7,-0.180657,-0.18112,-31.4732,30,-0.00165185,10,0.00570044,-1.50206,-0.0926513,-0.636796,787.061,-0.18112,
2,0,0,1,1,58333.7,-0.176662,-0.177149,-28.5247,30,-0.00177148,10,0.00505313,-1.54478,-0.091739,-0.643129,717.622,-0.177149,
2,0,0,1,1,58333.7,-0.172667,-0.173166,-25.7893,30,-0.00187977,10,0.00446584,-1.58856,-0.0898581,-0.656591,661.28,-0.173166,
2,0,0,1,1,58333.7,-0.168672,-0.169098,-23.2407,30,-0.00197753,10,0.00392994,-1.63375,-0.0863344,-0.683389,619.161,-0.169098,
2,0,0,1,1,58333.7,-0.164677,-0.165078,-20.8644,30,-0.00206547,10,0.00344424,-1.6806,-0.0824628,-0.715474,580.428,-0.165078,
2,0,0,1,1,58333.7,-0.160681,-0.161135,-18.6093,30,-0.00214414,10,0.00299861,-1.73027,-0.0770461,-0.765775,552.481,-0.161135,
2,0,0,1,1,58333.7,-0.156686,-0.157123,-16.4775,30,-0.00221406,10,0.00258901,-1.78311,-0.0712162,-0.828464,527.312,-0.157123,
2,0,0,1,1,58333.7,-0.152691,-0.153149,-14.4294,30,-0.00227564,10,0.00220986,-1.84075,-0.0650524,-0.906962,503.072,-0.153149,
2,0,0,1,1,58333.7,-0.148696,-0.14916,-12.4707,30,-0.00232922,10,0.00186013,-1.90411,-0.0584884,-1.00875,480.98,-0.14916,
2,0,0,1,1,58333.7,-0.14467,-0.145155,-10.57,30,-0.00237513,10,0.00153429,-1.97592,-0.0512627,-1.15094,462.292,-0.145155,
2,0,0,1,1,58333.7,-0.140656,-0.141086,-8.76377,30,-0.00241357,10,0.00123644,-2.05731,-0.0435335,-1.35528,444.897,-0.141086,
2,0,0,1,1,58333.8,-0.136661,-0.13715,-7.03302,30,-0.00244498,10,0.000964577,-2.15286,-0.0353805,-1.66759,426.81,-0.13715,
2,0,0,1,1,58333.8,-0.132665,-0.133146,-5.34602,30,-0.00246955,10,0.000711799,-2.27197,-0.026039,-2.26583,415.161,-0.133146,
2,0,0,1,1,58333.8,-0.12867,-0.129101,-3.71824,30,-0.00248751,10,0.000480029,-2.42966,-0.0151201,-3.9021,401.05,-0.129101,
2,0,0,1,1,58333.8,-0.124675,-0.125121,-2.13597,30,-0.00249904,10,0.000267255,-2.67041,-0.0203214,-2.90334,389.831,-0.125121,
2,0,0,1,1,58333.8,-0.12068,-0.121146,-0.614757,30,-0.00250437,10,7.44753e-05,-3.2113,-0.0791869,-0.745073,379.767,-0.121146,
2,1,0,1,1,58333.8,-0.116685,-0.117184,0.876173,30,-0.00250368,10,-0.000102674,-3.05741,0.0650207,0.907404,369.582,-0.117184,
2,1,0,1,1,58333.8,-0.112689,-0.113153,2.33848,30,-0.00249709,10,-0.000264605,-2.63107,0.0172846,3.41345,360.946,-0.113153,
2,1,0,1,1,58333.8,-0.108694,-0.109177,3.75676,30,-0.00248474,10,-0.000410152,-2.42519,0.0183692,3.2119,352.528,-0.109177,
2,1,0,1,1,58333.8,-0.104699,-0.105208,5.13797,30,-0.0024668,10,-0.000540556,-2.28921,0.0304327,1.9387,344.053,-0.105208,
2,1,0,1,1,58333.8,-0.100654,-0.101171,6.52127,30,-0.0024433,10,-0.000659764,-2.18567,0.0413883,1.42552,336.959,-0.1011711,
2,1,0,1,1,58333.8,-0.0966588,-0.0971659,7.83874,30,-0.00241443,10,-0.000761659,-2.10575,0.0522991,1.12813,328.701,-0.0971659,
2,1,0,1,1,58333.8,-0.0926637,-0.0931852,9.1454,30,-0.00238033,10,-0.000852216,-2.0388,0.0633437,0.931426,321.414,-0.0931852,
2,1,0,1,1,58333.8,-0.0886685,-0.0891726,10.4088,30,-0.00234108,10,-0.000928183,-1.9826,0.0746031,0.790852,313.202,-0.0891726,
2,1,0,1,1,58333.8,-0.0846733,-0.0851918,11.6572,30,-0.00229681,10,-0.000993101,-1.9334,0.0858344,0.68737,306.575,-0.0851918,
2,1,0,1,1,58333.8,-0.0806781,-0.0810997,12.8707,30,-0.00224762,10,-0.00104381,-1.8904,0.096625,0.610608,302.007,-0.0810997,
2,1,0,1,1,58333.8,-0.076683,-0.0771454,14.0628,30,-0.00219362,10,-0.00108488,-1.85193,0.108369,0.544435,295.075,-0.0771454,
2,1,0,1,1,58333.8,-0.0726878,-0.0731604,15.2446,30,-0.00213488,10,-0.0011153,-1.81688,0.119521,0.493637,290.249,-0.0731604,
2,1,0,1,1,58333.8,-0.0686926,-0.069168,16.3855,30,-0.0020715,10,-0.00113335,-1.78554,0.131115,0.449987,285.29,-0.069168,
2,1,0,1,1,58333.8,-0.0646974,-0.0651575,17.4979,30,-0.00200359,10,-0.00114012,-1.75701,0.144465,0.408404,276.886,-0.0651575,
2,1,0,1,1,58333.8,-0.0606523,-0.061093,18.6424,30,-0.00193122,10,-0.00113892,-1.7295,0.156875,0.376096,271.192,-0.061093,
2,1,0,1,1,58333.8,-0.0566571,-0.0571112,19.6884,30,-0.00185445,10,-0.00112443,-1.70579,0.169832,0.347403,265.104,-0.0571112,
2,1,0,1,1,58333.8,-0.052662,-0.0531187,20.7379,30,-0.00177348,10,-0.00110157,-1.68324,0.185197,0.31858,256.47,-0.0531187,
2,1,0,1,1,58333.8,-0.0486668,-0.0490669,21.7636,30,-0.00168839,10,-0.00106787,-1.66227,0.197401,0.298884,252.451,-0.0490669,
2,1,0,1,1,58333.8,-0.0446716,-0.0450787,22.7496,30,-0.00159924,10,-0.00102552,-1.64303,0.211889,0.278448,246.116,-0.04507874,
2,1,0,1,1,58333.8,-0.0406764,-0.041133,23.7222,30,-0.0015062,10,-0.000975762,-1.62485,0.226197,0.260835,240.584,-0.041133,
2,1,0,1,1,58333.9,-0.0366813,-0.0371331,24.6722,30,-0.00140931,10,-0.000916156,-1.60779,0.238981,0.246881,236.905,-0.0371331,
2,1,0,1,1,58333.9,-0.0326861,-0.0330845,25.6087,30,-0.00130863,10,-0.000847251,-1.59161,0.255533,0.23089,229.926,-0.0330845,
2,1,0,1,1,58333.9,-0.0286909,-0.0291514,26.5228,30,-0.00120426,10,-0.000773178,-1.57638,0.269807,0.218674,225.614,-0.0291514,
2,1,0,1,1,58333.9,-0.0246957,-0.025142,27.3989,30,-0.00109632,10,-0.000688863,-1.56227,0.285495,0.206658,220.448,-0.025142,
2,1,0,1,1,58333.9,-0.0206756,-0.0211284,28.2831,30,-0.000984869,10,-0.000597576,-1.54847,0.303687,0.194279,213.827,-0.0211284,
2,1,0,1,1,58333.9,-0.0166554,-0.0170967,29.1332,30,-0.000869918,10,-0.000498082,-1.53561,0.31946,0.184687,209.343,-0.0170967,
2,1,0,1,1,58333.9,-0.0126603,-0.0131244,29.9498,30,-0.000751652,10,-0.000393074,-1.52361,0.339823,0.17362,202.414,-0.0131244,
2,1,0,1,1,58333.9,-0.0086651,-0.00911504,30.754,30,-0.00063015,10,-0.000280324,-1.5121,0.359529,0.164104,196.269,-0.00911504,
2,1,0,1,1,58333.9,-0.00466992,-0.00513109,31.5212,30,-0.000505511,10,-0.000161738,-1.5014, , , ,-0.00513109,
2,1,0,1,1,58333.9,-0.000974387,-0.00142125,32.2098,30,-0.00038757,10,-4.57783e-05,-1.49201, , , ,-0.00142125,
2,1,0,0,1,58333.9,-0.000175352,-0.000630721,32.3548,30,-0.000361764,10,-2.04068e-05,-1.49006, , , ,-0.000630721,