File: Figure_codes/Fig_3-5/rawdata_trumpetplot_data/after 10th/20221101_1-115_003_TrumpetPlot_ParaChange_from10_every3_04_CV_C01_14.csv
mode,ox/red,error,control changes,counter inc.,time/s,control/V,Ewe/V,<I>/mA,cycle number,(Q-Qo)/C,I Range,P/W,log(|I|),Tafel slope mV/dec,alpha_eff,dI/d(E-IR),E-IR/V,
2,0,0,1,0,28641.8,2.44065e-05,-0.00042076,-0.3837,15,0.0000000E+000,10,1.61446e-07,-3.41601, , , ,-0.00042076,
2,1,0,1,0,28642,0.00129787,0.000948225,0.127811,15,-2.76826e-06,10,1.21193e-07,-3.89343, , , ,0.000948225,
2,1,0,1,0,28642.1,0.00279606,0.00245294,0.260547,15,3.05818e-05,10,6.39107e-07,-3.58411,0.00402367,14.6632,69.1519,0.00245294,
2,1,0,1,0,28642.3,0.00429425,0.0039619,0.29804,15,7.48671e-05,10,1.18081e-06,-3.52572,0.0263338,2.24046,24.7376,0.0039619,
2,1,0,1,0,28642.4,0.00579244,0.00544541,0.325405,15,0.000124107,10,1.77196e-06,-3.48758,0.0423127,1.39438,17.4618,0.00544541,
2,1,0,1,0,28642.6,0.00729063,0.00698406,0.352203,15,0.000177162,10,2.45981e-06,-3.45321,0.0563691,1.04667,14.1309,0.00698406,
2,1,0,1,0,28642.7,0.00878882,0.00848878,0.370516,15,0.000233446,10,3.14522e-06,-3.43119,0.0720004,0.81944,11.7619,0.00848878,
2,1,0,1,0,28642.9,0.010287,0.00992244,0.385872,15,0.000292403,10,3.82879e-06,-3.41356,0.088017,0.670325,10.0242,0.00992244,
2,1,0,1,0,28643,0.0117852,0.0114728,0.399708,15,0.000353703,10,4.58575e-06,-3.39826,0.0982348,0.600602,9.39793,0.01147276,
2,1,0,1,0,28643.2,0.0132838,0.0129589,0.415021,15,0.000417048,10,5.37822e-06,-3.38193,0.100124,0.589272,9.54823,0.0129589,
2,1,0,1,0,28643.3,0.0147814,0.0144564,0.428224,15,0.00048248,10,6.19059e-06,-3.36833,0.112679,0.523613,8.73104,0.0144564,
2,1,0,1,0,28643.5,0.0162789,0.0159561,0.439731,15,0.000549998,10,7.01638e-06,-3.35681,0.124652,0.473318,8.09548,0.0159561,
2,1,0,1,0,28643.6,0.017778,0.0174778,0.450082,15,0.000619123,10,7.86645e-06,-3.34671,0.148828,0.39643,6.97051,0.01747784,
2,1,0,1,0,28643.8,0.0192761,0.0189709,0.462372,15,0.000689699,10,8.77162e-06,-3.33501,0.140243,0.420698,7.57362,0.0189709,
2,1,0,1,0,28643.9,0.0207743,0.020429,0.474663,15,0.000762137,10,9.69687e-06,-3.32361,0.14357,0.41095,7.58079,0.020429,
2,1,0,1,0,28644.1,0.0222725,0.0219782,0.484713,15,0.000836327,10,1.06531e-05,-3.31452,0.14967,0.394201,7.44962,0.0219782,
2,1,0,1,0,28644.2,0.0237707,0.0234246,0.496026,15,0.000912136,10,1.16192e-05,-3.3045,0.161947,0.364316,7.04973,0.0234246,
2,1,0,1,0,28644.4,0.0252689,0.0249686,0.505531,15,0.000989383,10,1.26224e-05,-3.29625,0.164405,0.35887,7.10854,0.0249686,
2,1,0,1,0,28644.5,0.0267671,0.0264796,0.517312,15,0.00106836,10,1.36982e-05,-3.28625,0.148097,0.398388,8.02222,0.0264796,
2,1,0,1,0,28644.7,0.0282662,0.0279524,0.530129,15,0.00114919,10,1.48184e-05,-3.27562,0.160923,0.366635,7.58015,0.0279524,
2,1,0,1,0,28644.8,0.0297635,0.0294137,0.539852,15,0.00123152,10,1.5879e-05,-3.26773,0.188866,0.312391,6.58478,0.0294137,
2,1,0,1,0,28645,0.031261,0.0309602,0.545547,15,0.00131534,10,1.68902e-05,-3.26317,0.17934,0.328985,7.06397,0.0309602,
2,1,0,1,0,28645.1,0.0327599,0.0325261,0.559635,15,0.00140059,10,1.82027e-05,-3.2521,0.181583,0.324921,7.10748,0.0325261,
2,1,0,1,0,28645.3,0.034258,0.0339407,0.572176,15,0.00148756,10,1.942e-05,-3.24247,0.172572,0.341886,7.61158,0.0339407,
2,1,0,1,0,28645.4,0.0357562,0.0354433,0.581728,15,0.00157613,10,2.06183e-05,-3.23528,0.224473,0.262838,5.94127,0.03544325,
2,1,0,1,0,28645.6,0.0372544,0.0369702,0.59164,15,0.00166632,10,2.18731e-05,-3.22794,0.196106,0.300858,6.95559,0.0369702,
2,1,0,1,0,28645.7,0.0387526,0.038459,0.601351,15,0.00175777,10,2.31274e-05,-3.22087,0.196908,0.299632,7.04646,0.038459,
2,1,0,1,0,28645.9,0.0402508,0.0399595,0.612717,15,0.0018511,10,2.44839e-05,-3.21274,0.190509,0.309696,7.39612,0.0399595,
2,1,0,1,0,28646,0.041749,0.041478,0.624404,15,0.00194611,10,2.58991e-05,-3.20453,0.242316,0.243484,5.91132,0.041478,
2,1,0,1,0,28646.2,0.0432472,0.042935,0.635241,15,0.00204255,10,2.72741e-05,-3.19706,0.226696,0.26026,6.43531,0.042935,
2,1,0,1,0,28646.3,0.0447458,0.0444032,0.642054,15,0.00214033,10,2.85093e-05,-3.19243,0.221197,0.266731,6.68556,0.0444032,
2,1,0,1,0,28646.5,0.0462433,0.0459261,0.653167,15,0.00223966,10,2.99974e-05,-3.18498,0.209597,0.281492,7.17084,0.0459261,
2,1,0,1,0,28646.6,0.0477409,0.0474081,0.662069,15,0.00234057,10,3.13874e-05,-3.1791,0.224344,0.262989,6.79411,0.0474081,
2,1,0,1,0,28646.8,0.0492399,0.0489412,0.67279,15,0.00244295,10,3.29271e-05,-3.17212,0.275358,0.214266,5.62788,0.0489412,
2,1,0,1,0,28646.9,0.0507381,0.0504088,0.679162,15,0.00254649,10,3.42357e-05,-3.16803,0.25149,0.234602,6.23286,0.0504088,
2,1,0,1,0,28647.1,0.0522363,0.0519251,0.691444,15,0.00265142,10,3.59033e-05,-3.16024,0.239738,0.246102,6.62802,0.0519251,
2,1,0,1,0,28647.2,0.0537345,0.0534203,0.700722,15,0.00275788,10,3.74328e-05,-3.15445,0.287316,0.205349,5.60199,0.0534203,
2,1,0,1,0,28647.4,0.0552327,0.0548911,0.709415,15,0.00286574,10,3.89406e-05,-3.1491,0.339771,0.173646,4.79235,0.0548911,
2,1,0,1,0,28647.5,0.0567309,0.0563969,0.714647,15,0.00297466,10,4.03039e-05,-3.14591,0.329279,0.179179,5.00802,0.0563969,
2,1,0,1,0,28647.7,0.0582291,0.0578889,0.724803,15,0.00308466,10,4.1958e-05,-3.13978,0.329319,0.179157,5.06257,0.0578889,
2,1,0,1,0,28647.8,0.0597282,0.0594009,0.732678,15,0.00319621,10,4.35218e-05,-3.13509,0.301323,0.195803,5.59126,0.0594009,
2,1,0,1,0,28648,0.0612255,0.0609588,0.740245,15,0.00330887,10,4.51244e-05,-3.13062,0.378245,0.155984,4.50192,0.0609588,
2,1,0,1,0,28648.1,0.062723,0.0624325,0.748636,15,0.00342284,10,4.67392e-05,-3.12573,0.341786,0.172623,5.03684,0.06243246,
2,1,0,1,0,28648.3,0.0642218,0.0638653,0.754535,15,0.0035377,10,4.81886e-05,-3.12232,0.340034,0.173512,5.1241,0.0638653,
2,1,0,1,0,28648.4,0.06572,0.0654061,0.763472,15,0.00365391,10,4.99357e-05,-3.11721,0.324113,0.182035,5.4235,0.0654061,
2,1,0,1,0,28648.6,0.0672182,0.0669575,0.773804,15,0.00377145,10,5.1812e-05,-3.11137,0.365447,0.161446,4.858,0.0669575,
2,1,0,1,0,28648.7,0.0687164,0.0683975,0.778884,15,0.00389001,10,5.32737e-05,-3.10853,0.453691,0.130045,3.94973,0.0683975,
2,1,0,1,0,28648.9,0.0702146,0.0699043,0.783091,15,0.00400928,10,5.47415e-05,-3.10619,0.399299,0.147759,4.52744,0.0699043,
2,1,0,1,0,28649,0.0717128,0.0713889,0.79204,15,0.00412964,10,5.65429e-05,-3.10125,0.373915,0.15779,4.86958,0.0713889,
2,1,0,1,0,28649.2,0.073211,0.0728682,0.797599,15,0.00425103,10,5.81196e-05,-3.09822,0.440687,0.133882,4.17367,0.0728682,
2,1,0,1,0,28649.3,0.0747092,0.074392,0.804734,15,0.00437343,10,5.98657e-05,-3.09435,0.510422,0.115591,3.629,0.074392,
2,1,0,1,0,28649.5,0.0762078,0.0758577,0.807616,15,0.00449657,10,6.12639e-05,-3.0928,0.481021,0.122656,3.87846,0.0758577,
2,1,0,1,0,28649.6,0.0777053,0.0774074,0.815998,15,0.00462046,10,6.31643e-05,-3.08831,0.440664,0.133889,4.26027,0.0774074,
2,1,0,1,0,28649.8,0.0792029,0.0789064,0.822905,15,0.00474525,10,6.49325e-05,-3.08465,0.471773,0.12506,4.00356,0.0789064,
2,1,0,1,0,28649.9,0.0807019,0.0803493,0.826642,15,0.00487118,10,6.64201e-05,-3.08268,0.550177,0.107238,3.45356,0.0803493,
2,1,0,1,0,28650.1,0.0822001,0.0818731,0.829283,15,0.00499766,10,6.7896e-05,-3.0813,0.591533,0.0997408,3.24037,0.0818731,
2,1,0,1,0,28650.2,0.0836983,0.0833948,0.838288,15,0.00512486,10,6.99089e-05,-3.07661,0.471115,0.125235,4.10641,0.0833948,
2,1,0,1,0,28650.4,0.0851965,0.0848614,0.843806,15,0.00525312,10,7.16065e-05,-3.07376,0.441852,0.133529,4.40045,0.0848614,
2,1,0,1,0,28650.5,0.0866947,0.0863799,0.851589,15,0.00538254,10,7.35601e-05,-3.06977,0.491721,0.119987,3.98741,0.0863799,
2,1,0,1,0,28650.7,0.0881929,0.0878963,0.860369,15,0.00551307,10,7.56232e-05,-3.06532,0.406159,0.145263,4.87031,0.0878963,
2,1,0,1,0,28650.8,0.0896911,0.0893787,0.867857,15,0.0056445,10,7.7568e-05,-3.06155,0.336845,0.175155,5.94712,0.0893787,
2,1,0,1,0,28651,0.0911902,0.090879,0.878936,15,0.00577757,10,7.98768e-05,-3.05604,0.255488,0.230931,7.90312,0.090879,
2,1,0,1,0,28651.1,0.0926875,0.09237,0.891421,15,0.00591243,10,8.23405e-05,-3.04992,0.275087,0.214478,7.4405,0.09237,
2,1,0,1,0,28651.3,0.094185,0.0938499,0.900288,15,0.00604886,10,8.44919e-05,-3.04562,0.270555,0.21807,7.66719,0.0938499,
2,1,0,1,0,28651.4,0.0956838,0.095335,0.911243,15,0.00618683,10,8.68734e-05,-3.04037,0.238424,0.247458,8.82275,0.095335,
2,1,0,1,0,28651.6,0.097182,0.0968705,0.924603,15,0.00632672,10,8.95667e-05,-3.03404,0.204458,0.288567,10.4095,0.0968705,
2,1,0,1,0,28651.7,0.0986802,0.0983402,0.940227,15,0.00646889,10,9.24621e-05,-3.02677,0.205214,0.287505,10.5689,0.0983402,
2,1,0,1,0,28651.9,0.100178,0.0998789,0.956984,15,0.00661335,10,9.55825e-05,-3.0191,0.222227,0.265494,9.90424,0.0998789,
2,1,0,1,0,28652,0.101677,0.101385,0.970232,15,0.0067601,10,9.83666e-05,-3.01312,0.204774,0.288122,10.9545,0.101385,
2,1,0,1,0,28652.2,0.103175,0.102896,0.990717,15,0.00690917,10,0.000101941,-3.00405,0.19216,0.307036,11.8688,0.102896,
2,1,0,1,0,28652.3,0.104673,0.104354,1.01055,15,0.00706119,10,0.000105455,-2.99544,0.194652,0.303105,11.9039,0.104354,
2,1,0,1,0,28652.5,0.106171,0.105872,1.02594,15,0.00721591,10,0.000108618,-2.98888,0.224105,0.263269,10.5018,0.105872,
2,1,0,1,0,28652.6,0.10767,0.107333,1.04136,15,0.0073731,10,0.000111773,-2.9824,0.225615,0.261507,10.6137,0.107333,
2,1,0,1,0,28652.8,0.109167,0.108847,1.05515,15,0.00753232,10,0.000114849,-2.97669,0.243649,0.242151,9.99106,0.1088466,
2,1,0,1,0,28652.9,0.110665,0.110333,1.07063,15,0.00769397,10,0.000118125,-2.97036,0.245236,0.240584,10.0514,0.110333,
2,1,0,1,0,28653.1,0.112164,0.111835,1.08531,15,0.00785801,10,0.000121376,-2.96445,0.312342,0.188895,7.98241,0.111835,
2,1,0,1,0,28653.2,0.113662,0.113344,1.09868,15,0.00802398,10,0.000124528,-2.95913,0.342771,0.172126,7.3553,0.113344,
2,1,0,1,0,28653.4,0.11516,0.114849,1.10702,15,0.00819141,10,0.00012714,-2.95584,0.383877,0.153695,6.64586,0.1148486,
2,1,0,1,0,28653.5,0.116658,0.116367,1.12069,15,0.00836063,10,0.000130411,-2.95051,0.345815,0.170611,7.44232,0.116367,
2,1,0,1,0,28653.7,0.118157,0.11784,1.1304,15,0.00853173,10,0.000133207,-2.94677,0.406513,0.145137,6.39656,0.11784,
2,1,0,1,0,28653.8,0.119655,0.119348,1.13811,15,0.00870403,10,0.000135832,-2.94381,0.539345,0.109392,4.86515,0.119348,
2,1,0,1,0,28654,0.121153,0.120882,1.14414,15,0.00887744,10,0.000138306,-2.94152,0.49678,0.118765,5.32082,0.120882,
2,1,0,1,0,28654.1,0.122652,0.122323,1.15565,15,0.00905215,10,0.000141363,-2.93717,0.42709,0.138144,6.21918,0.122323,
2,1,0,1,0,28654.3,0.124149,0.123856,1.16375,15,0.00922816,10,0.000144137,-2.93414,0.45743,0.128982,5.85973,0.123856,
2,1,0,1,0,28654.4,0.125647,0.125339,1.17066,15,0.0094053,10,0.00014673,-2.93157,0.677906,0.0870327,3.96926,0.1253394,
2,1,0,1,0,28654.6,0.127146,0.12684,1.17251,15,0.00958358,10,0.000148721,-2.93088,0.63784,0.0924997,4.24843,0.12684,
2,1,0,1,0,28654.7,0.128644,0.128308,1.18282,15,0.00976246,10,0.000151766,-2.92708,0.727629,0.0810853,3.74504,0.128308,
2,1,0,1,0,28654.9,0.130142,0.129839,1.19049,15,0.00994258,10,0.000154572,-2.92427,0.866405,0.0680975,3.15666,0.129839,
2,1,0,1,0,28655,0.13164,0.131344,1.19428,15,0.0101236,10,0.000156862,-2.92289,3.19306,0.0184776,0.85754,0.131344,
2,1,0,1,0,28655.2,0.133139,0.132814,1.19584,15,0.0103049,10,0.000158825,-2.92233,-4.27457,-0.0138025,-0.642749,0.132814,
2,1,0,1,0,28655.3,0.134637,0.134284,1.19019,15,0.0104859,10,0.000159823,-2.92438,-0.860437,-0.0685698,-3.18377,0.134284,
2,1,0,1,0,28655.5,0.136135,0.135803,1.18712,15,0.0106664,10,0.000161215,-2.92551,-0.446594,-0.132111,-6.08997,0.1358033,
2,1,0,1,0,28655.6,0.137633,0.137347,1.17559,15,0.0108456,10,0.000161464,-2.92974,-0.264365,-0.223176,-10.1662,0.137347,
2,1,0,1,0,28655.8,0.139132,0.138799,1.15801,15,0.0110226,10,0.000160731,-2.93629,-0.196127,-0.300825,-13.5065,0.138799,
2,1,0,1,0,28655.9,0.140629,0.140325,1.1324,15,0.0111963,10,0.000158904,-2.946,-0.154315,-0.382334,-16.8129,0.140325,
2,1,0,1,0,28656.1,0.142127,0.141843,1.10407,15,0.011366,10,0.000156604,-2.957,-0.127654,-0.462187,-19.8155,0.1418429,
2,1,0,1,0,28656.2,0.143626,0.143278,1.06966,15,0.0115314,10,0.000153258,-2.97076,-0.10271,-0.574432,-23.8825,0.143278,
2,1,0,1,0,28656.4,0.145124,0.144819,1.03156,15,0.011691,10,0.00014939,-2.9865,-0.0842038,-0.700681,-28.1172,0.144819,
2,1,0,1,0,28656.5,0.146622,0.146323,0.985935,15,0.0118444,10,0.000144265,-3.00615,-0.0779319,-0.757072,-29.1562,0.146323,
2,1,0,1,0,28656.7,0.14812,0.147818,0.945059,15,0.0119914,10,0.000139696,-3.02454,-0.0767112,-0.769119,-28.3274,0.147818,
2,1,0,1,0,28656.8,0.149619,0.149307,0.903416,15,0.012132,10,0.000134886,-3.04411,-0.0738835,-0.798554,-28.1391,0.149307,
2,1,0,1,0,28657,0.151117,0.150783,0.860505,15,0.0122662,10,0.000129749,-3.06525,-0.0738503,-0.798914,-26.84,0.1507826,
2,1,0,1,0,28657.1,0.152615,0.152274,0.819893,15,0.0123943,10,0.000124848,-3.08624,-0.0778003,-0.758352,-24.3481,0.152274,
2,1,0,1,0,28657.3,0.154114,0.153784,0.786406,15,0.0125169,10,0.000120937,-3.10435,-0.0844746,-0.698435,-21.5438,0.153784,
2,1,0,1,0,28657.4,0.155612,0.155258,0.755551,15,0.0126346,10,0.000117305,-3.12174,-0.0925477,-0.637509,-18.8813,0.1552577,
2,1,0,1,0,28657.5,0.157109,0.156803,0.728393,15,0.0127481,10,0.000114214,-3.13763,-0.0956999,-0.616511,-17.552,0.156803,
2,1,0,1,0,28657.7,0.158608,0.158271,0.704503,15,0.0128578,10,0.000111503,-3.15212,-0.111698,-0.528208,-14.6135,0.158271,
2,1,0,1,0,28657.8,0.160106,0.159758,0.683205,15,0.0129639,10,0.000109147,-3.16545,-0.129816,-0.454489,-12.2075,0.1597579,
2,1,0,1,0,28658,0.161604,0.161272,0.66751,15,0.0130675,10,0.000107651,-3.17554,-0.146479,-0.402789,-10.5267,0.161272,
2,1,0,1,0,28658.1,0.163102,0.162795,0.654748,15,0.0131687,10,0.00010659,-3.18393,-0.152434,-0.387054,-9.86652,0.1627949,
2,1,0,1,0,28658.3,0.164601,0.164309,0.641586,15,0.0132679,10,0.000105418,-3.19275,-0.176783,-0.333743,-8.35127,0.164309,
2,1,0,1,0,28658.4,0.166099,0.1658,0.629166,15,0.013365,10,0.000104316,-3.20123,-0.198283,-0.297555,-7.30964,0.1658,
2,1,0,1,0,28658.6,0.167597,0.167259,0.620114,15,0.0134607,10,0.00010372,-3.20753,-0.242696,-0.243103,-5.8829,0.167259,
2,1,0,1,0,28658.7,0.169095,0.168783,0.610389,15,0.013555,10,0.000103023,-3.21439,-0.275145,-0.214433,-5.11359,0.168783,
2,1,0,1,0,28658.9,0.170594,0.170299,0.602597,15,0.0136482,10,0.000102621,-3.21997,-0.25626,-0.230235,-5.41502,0.170299,
2,1,0,1,0,28659,0.172091,0.17175,0.593913,15,0.01374,10,0.000102004,-3.22628,-0.337627,-0.174749,-4.06847,0.17175,
2,1,0,1,0,28659.2,0.173589,0.173258,0.589716,15,0.0138309,10,0.000102173,-3.22936,-0.39814,-0.148189,-3.4116,0.1732582,
2,1,0,1,0,28659.3,0.175088,0.174745,0.585079,15,0.013921,10,0.000102239,-3.23279,-0.410384,-0.143768,-3.27632,0.174745,
2,1,0,1,0,28659.5,0.176586,0.176278,0.578592,15,0.0140104,10,0.000101993,-3.23763,-0.438874,-0.134435,-3.03838,0.176278,
2,1,0,1,0,28659.6,0.178084,0.177795,0.571843,15,0.014099,10,0.000101671,-3.24272,-0.454843,-0.129715,-2.90939,0.1777954,
2,1,0,1,0,28659.8,0.179582,0.179286,0.570165,15,0.0141869,10,0.000102223,-3.244,-0.414432,-0.142363,-3.18122,0.179286,
2,1,0,1,0,28659.9,0.181081,0.180776,0.566923,15,0.0142743,10,0.000102486,-3.24648,-0.425905,-0.138529,-3.06753,0.180776,
2,1,0,1,0,28660.1,0.182579,0.182282,0.563984,15,0.0143614,10,0.000102804,-3.24873,-0.446712,-0.132076,-2.90423,0.182282,
2,1,0,1,0,28660.2,0.184077,0.183798,0.560516,15,0.0144478,10,0.000103022,-3.25141,-0.479861,-0.122952,-2.69411,0.183798,
2,1,0,1,0,28660.4,0.185576,0.185253,0.558523,15,0.0145336,10,0.000103468,-3.25296,-0.674184,-0.0875132,-1.91088,0.185253,
2,1,0,1,0,28660.5,0.187074,0.186761,0.554967,15,0.0146191,10,0.000103646,-3.25573,-0.877513,-0.0672355,-1.45435,0.186761,
2,1,0,1,0,28660.7,0.188571,0.18825,0.553792,15,0.0147044,10,0.000104252,-3.25665,-1.14254,-0.0516391,-1.11465,0.18825,
2,1,0,1,0,28660.8,0.19007,0.189771,0.550795,15,0.0147893,10,0.000104525,-3.25901,-0.846028,-0.0697376,-1.49561,0.189771,
2,1,0,1,0,28661,0.191568,0.191221,0.548537,15,0.0148737,10,0.000104892,-3.26079,-1.04596,-0.0564075,-1.20833,0.191221,
2,1,0,1,0,28661.1,0.193066,0.19272,0.545177,15,0.0149579,10,0.000105066,-3.26346,-1.62004,-0.0364188,-0.77504,0.19272,
2,1,0,1,0,28661.3,0.194564,0.194207,0.545224,15,0.015042,10,0.000105887,-3.26342,-0.939134,-0.0628238,-1.33943,0.194207,
2,1,0,1,0,28661.4,0.196063,0.195731,0.542568,15,0.0151257,10,0.000106197,-3.26555,-0.689878,-0.0855223,-1.81537,0.195731,
2,1,0,1,0,28661.6,0.197561,0.197258,0.541128,15,0.015209,10,0.000106742,-3.2667,-0.806105,-0.0731915,-1.54841,0.197258,
2,1,0,1,0,28661.7,0.199059,0.198751,0.540033,15,0.015292,10,0.000107332,-3.26758,-2.76869,-0.0213097,-0.44869,0.198751,
2,1,0,1,0,28661.9,0.200557,0.200276,0.539344,15,0.0153749,10,0.000108018,-3.26813,-1.42111,-0.0415169,-0.872019,0.200276,
2,1,0,1,0,28662,0.202056,0.201761,0.537367,15,0.0154576,10,0.00010842,-3.26973,-1.04986,-0.0561978,-1.17608,0.201761,
2,1,0,1,0,28662.2,0.203553,0.203222,0.534477,15,0.01554,10,0.000108617,-3.27207,-1.2891,-0.0457682,-0.955719,0.203222,
2,1,0,1,0,28662.3,0.205051,0.204711,0.534631,15,0.0156221,10,0.000109445,-3.27195,2.13557,0.0276272,0.578083,0.204711,
2,1,0,1,0,28662.5,0.20655,0.206258,0.532933,15,0.0157041,10,0.000109922,-3.27333,-3.39885,-0.0173588,-0.360958,0.206258,
2,1,0,1,0,28662.6,0.208048,0.207747,0.530766,15,0.0157863,10,0.000110265,-3.2751,-0.811187,-0.0727329,-1.50407,0.2077466,
2,1,0,1,0,28662.8,0.209546,0.209229,0.529052,15,0.0158679,10,0.000110693,-3.2765,-0.66411,-0.0888407,-1.8396,0.209229,
2,1,0,1,0,28662.9,0.211044,0.210794,0.527327,15,0.0159491,10,0.000111157,-3.27792,-1.86581,-0.0316216,-0.651364,0.2107942,
2,1,0,1,0,28663.1,0.212543,0.212208,0.527359,15,0.0160303,10,0.00011191,-3.27789,-1.16705,-0.0505548,-1.03939,0.2122077,
2,1,0,1,0,28663.2,0.214041,0.2137,0.527845,15,0.0161113,10,0.0001128,-3.27749,-2.32432,-0.0253838,-0.52192,0.2137,
2,1,0,1,0,28663.4,0.215539,0.215253,0.526717,15,0.0161922,10,0.000113378,-3.27842,-2.20947,-0.0267032,-0.547021,0.215253,
2,1,0,1,0,28663.5,0.217038,0.216672,0.521249,15,0.0162729,10,0.00011294,-3.28295,-1.93463,-0.0304968,-0.623899,0.216672,
2,1,0,1,0,28663.7,0.218535,0.218203,0.522899,15,0.0163534,10,0.000114098,-3.28158,-12.4052,-0.00475608,-0.0969747,0.218203,
2,1,0,1,0,28663.8,0.220033,0.219734,0.52404,15,0.0164338,10,0.000115149,-3.28064,-4.21794,-0.0139879,-0.284939,0.219734,
2,1,0,1,0,28664,0.221532,0.22125,0.521317,15,0.0165142,10,0.000115341,-3.2829,-2.66353,-0.022151,-0.450027,0.22125,
2,1,0,1,0,28664.1,0.22303,0.222745,0.517421,15,0.0165943,10,0.000115253,-3.28616,-1.62348,-0.0363416,-0.736718,0.222745,
2,1,0,1,0,28664.3,0.224528,0.224197,0.518643,15,0.0166741,10,0.000116278,-3.28513,-1.33165,-0.0443059,-0.894933,0.224197,
2,1,0,1,0,28664.4,0.226026,0.225695,0.518882,15,0.016754,10,0.000117109,-3.28493,-1.27909,-0.0461264,-0.933101,0.225695,
2,1,0,1,0,28664.6,0.227525,0.227237,0.516414,15,0.0168336,10,0.000117348,-3.287,-0.952869,-0.0619183,-1.24688,0.227237,
2,1,0,1,0,28664.7,0.229023,0.228746,0.515496,15,0.0169131,10,0.000117917,-3.28778,-1.0523,-0.0560678,-1.13016,0.2287458,
2,1,0,1,0,28664.9,0.230521,0.230217,0.514683,15,0.0169923,10,0.000118489,-3.28846,-1.41708,-0.041635,-0.837493,0.230217,
2,1,0,1,0,28665,0.232019,0.231711,0.514668,15,0.0170715,10,0.000119254,-3.28847,-4.54827,-0.012972,-0.260185,0.231711,
2,1,0,1,0,28665.2,0.233518,0.233202,0.512976,15,0.0171506,10,0.000119627,-3.2899,-3.69066,-0.0159863,-0.31928,0.233202,
2,1,0,1,0,28665.3,0.235015,0.234702,0.512729,15,0.0172296,10,0.000120339,-3.29011,-5.49362,-0.0107397,-0.214895,0.234702,
2,1,0,1,0,28665.5,0.236513,0.236222,0.511357,15,0.0173083,10,0.000120794,-3.29128,-14.4826,-0.00407384,-0.0811075,0.236222,
2,1,0,1,0,28665.6,0.238012,0.237699,0.510831,15,0.0173871,10,0.000121424,-3.29172,-3.02355,-0.0195135,-0.388016,0.237699,
2,1,0,1,0,28665.8,0.23951,0.239172,0.508493,15,0.0174656,10,0.000121617,-3.29371,-2.91941,-0.0202096,-0.402431,0.239172,
2,1,0,1,0,28665.9,0.241008,0.240703,0.508782,15,0.017544,10,0.000122465,-3.29347,-1.78223,-0.0331046,-0.657925,0.240703,
2,1,0,1,0,28666.1,0.242506,0.242182,0.506582,15,0.0176222,10,0.000122685,-3.29535,-2.81933,-0.020927,-0.415304,0.242182,
2,1,0,1,0,28666.2,0.244005,0.243669,0.506771,15,0.0177003,10,0.000123484,-3.29519,23.1085,0.00255318,0.0505377,0.243669,
2,1,0,1,0,28666.4,0.245503,0.245188,0.507039,15,0.0177785,10,0.00012432,-3.29496,-2.47939,-0.0237962,-0.469767,0.245188,
2,1,0,1,0,28666.5,0.247001,0.246666,0.506002,15,0.0178564,10,0.000124813,-3.29585,-1.35502,-0.0435418,-0.859105,0.246666,
2,1,0,1,0,28666.7,0.2485,0.248173,0.502294,15,0.0179342,10,0.000124656,-3.29904,-3.03958,-0.0194106,-0.381565,0.248173,
2,1,0,1,0,28666.8,0.249997,0.249694,0.503388,15,0.0180118,10,0.000125693,-3.2981,-2.09422,-0.0281727,-0.554645,0.249694,
2,1,0,1,0,28667,0.251495,0.251204,0.502175,15,0.0180893,10,0.000126149,-3.29914,-2.38325,-0.0247561,-0.485867,0.251204,
2,1,0,1,0,28667.1,0.252994,0.252681,0.502363,15,0.0181669,10,0.000126938,-3.29898,-1.64049,-0.035965,-0.704816,0.252681,
2,1,0,1,0,28667.3,0.254492,0.254195,0.502092,15,0.0182442,10,0.000127629,-3.29922,-3.10596,-0.0189957,-0.371754,0.254195,
2,1,0,1,0,28667.4,0.25599,0.255689,0.500743,15,0.0183213,10,0.000128034,-3.30038,-3.80508,-0.0155056,-0.303812,0.255689,
2,1,0,1,0,28667.6,0.257488,0.257211,0.499156,15,0.0183983,10,0.000128389,-3.30176,-3.93315,-0.0150007,-0.292684,0.257211,
2,1,0,1,0,28667.7,0.258987,0.258675,0.500605,15,0.0184754,10,0.000129494,-3.3005,-1.14258,-0.0516375,-1.0035,0.258675,
2,1,0,1,0,28667.9,0.260485,0.260196,0.498868,15,0.0185524,10,0.000129804,-3.30201,-1.23202,-0.047889,-0.93142,0.260196,
2,1,0,1,0,28668,0.261983,0.261669,0.496553,15,0.018629,10,0.000129933,-3.30403,-1.35798,-0.043447,-0.844691,0.261669,
2,1,0,1,0,28668.2,0.263481,0.263162,0.497648,15,0.0187056,10,0.000130962,-3.30308,-13.0649,-0.00451591,-0.0874099,0.263162,
2,1,0,1,0,28668.3,0.26498,0.264669,0.494931,15,0.0187821,10,0.000130993,-3.30546,-3.09256,-0.0190781,-0.369554,0.264669,
2,1,0,1,0,28668.5,0.266477,0.266184,0.495685,15,0.0188585,10,0.000131944,-3.30479,-2.94549,-0.0200306,-0.387319,0.266184,
2,1,0,1,0,28668.6,0.267976,0.267666,0.49254,15,0.0189347,10,0.000131836,-3.30756,-2.07146,-0.0284823,-0.549154,0.267666,
2,1,0,1,0,28668.8,0.269474,0.269179,0.493564,15,0.0190107,10,0.000132857,-3.30666,-44.3417,-0.00133058,-0.0255824,0.269179,
2,1,0,1,0,28668.9,0.270972,0.270661,0.494274,15,0.0190866,10,0.00013378,-3.30603,-2.47251,-0.0238624,-0.45814,0.270661,
2,1,0,1,0,28669.1,0.27247,0.272173,0.492266,15,0.0191626,10,0.000133981,-3.3078,-1.26479,-0.046648,-0.8931,0.272173,
2,1,0,1,0,28669.2,0.273968,0.273637,0.488906,15,0.0192383,10,0.000133783,-3.31077,-1.5575,-0.0378812,-0.724755,0.273637,
2,1,0,1,0,28669.4,0.275467,0.275153,0.490378,15,0.0193137,10,0.000134929,-3.30947,-0.88953,-0.0663271,-1.26854,0.275153,
2,1,0,1,0,28669.5,0.276965,0.276671,0.488379,15,0.0193891,10,0.00013512,-3.31124,-1.99157,-0.0296249,-0.564485,0.2766709,
2,1,0,1,0,28669.7,0.278463,0.27816,0.487422,15,0.0194644,10,0.000135581,-3.31209,-0.952692,-0.0619298,-1.17699,0.27816,
2,1,0,1,0,28669.8,0.279962,0.279638,0.487302,15,0.0195395,10,0.000136268,-3.3122,-1.26902,-0.0464925,-0.884198,0.279638,
2,1,0,1,0,28670,0.281459,0.281161,0.485867,15,0.0196144,10,0.000136607,-3.31348,-46.2898,-0.00127458,-0.0241926,0.281161,
2,1,0,1,0,28670.1,0.282957,0.282635,0.484522,15,0.0196893,10,0.000136943,-3.31469,-2.41061,-0.0244752,-0.462266,0.2826353,
2,1,0,1,0,28670.3,0.284456,0.284176,0.485063,15,0.0197642,10,0.000137844,-3.3142,-5.25133,-0.0112352,-0.212049,0.284176,
2,1,0,1,0,28670.4,0.285954,0.285659,0.482934,15,0.0198388,10,0.000137954,-3.31611,-1.54362,-0.0382219,-0.720811,0.285659,
2,1,0,1,0,28670.6,0.287452,0.287148,0.481542,15,0.0199131,10,0.000138274,-3.31737,-2.16388,-0.0272658,-0.513092,0.2871477,
2,1,0,1,0,28670.7,0.28895,0.288632,0.479851,15,0.0199874,10,0.000138501,-3.31889,3.10082,0.0190272,0.356278,0.2886323,
2,1,0,1,0,28670.9,0.290449,0.29018,0.480696,15,0.0200616,10,0.000139489,-3.31813,-1.31677,-0.0448066,-0.841003,0.29018,
2,1,0,1,0,28671,0.291947,0.291667,0.479201,15,0.0201357,10,0.000139767,-3.31948,-1.10323,-0.0534794,-1.00121,0.291667,
2,1,0,1,0,28671.2,0.293445,0.29315,0.478303,15,0.0202095,10,0.000140214,-3.3203,-2.22716,-0.0264911,-0.495907,0.29315,
2,1,0,1,0,28671.3,0.294943,0.294649,0.478712,15,0.0202832,10,0.000141052,-3.31993,-2.88768,-0.0204316,-0.380981,0.294649,
2,1,0,1,0,28671.5,0.296442,0.296147,0.478386,15,0.0203569,10,0.000141673,-3.32022,-2.6428,-0.0223248,-0.416129,0.296147,
2,1,0,1,0,28671.6,0.297939,0.297651,0.476151,15,0.0204306,10,0.000141727,-3.32225,-1.25921,-0.0468549,-0.869725,0.297651,
2,1,0,1,0,28671.8,0.299437,0.299152,0.475221,15,0.020504,10,0.000142163,-3.3231,-0.00269492,-21.8931,-204.672,0.299152,
2,1,0,1,0,28671.9,0.299738,0.299435,0.248483,15,0.0205394,10,7.44046e-05,-3.6047,0.000541475,108.962,414.094,0.299435,
2,1,0,1,0,28672,0.29824,0.297952,0.0156322,15,0.0205504,10,4.65765e-06,-4.80598,0.00341225,17.2907,136.148,0.297952,
2,0,0,1,0,28672.2,0.296741,0.296442,-0.0256703,15,0.020547,10,-7.60976e-06,-4.59057,-0.0352465,-1.67392,24.9763,0.296442,
2,0,0,1,0,28672.3,0.295243,0.294943,-0.050399,15,0.0205388,10,-1.48648e-05,-4.29758,-0.00612888,-9.62655,14.2078,0.294943,
2,0,0,1,0,28672.5,0.293745,0.293421,-0.0679959,15,0.0205276,10,-1.99514e-05,-4.16752,-0.0136618,-4.31861,10.5997,0.293421,
2,0,0,1,0,28672.6,0.292246,0.291912,-0.0831399,15,0.0205141,10,-2.42695e-05,-4.08019,-0.0202298,-2.91649,9.12274,0.291912,
2,0,0,1,0,28672.8,0.290748,0.290436,-0.0962492,15,0.0204984,10,-2.79542e-05,-4.0166,-0.0247781,-2.38113,8.65109,0.290436,
2,0,0,1,0,28672.9,0.28925,0.288979,-0.10935,15,0.0204809,10,-3.15998e-05,-3.96118,-0.0345269,-1.70881,7.1708,0.288979,
2,0,0,1,0,28673.1,0.287752,0.287438,-0.116894,15,0.0204618,10,-3.35997e-05,-3.93221,-0.0422211,-1.3974,6.36396,0.287438,
2,0,0,1,0,28673.2,0.286253,0.285944,-0.12664,15,0.0204413,10,-3.6212e-05,-3.89743,-0.0490785,-1.20216,5.94096,0.285944,
2,0,0,1,0,28673.4,0.284755,0.284473,-0.134487,15,0.0204196,10,-3.8258e-05,-3.87132,-0.0524548,-1.12478,5.88551,0.284473,
2,0,0,1,0,28673.5,0.283258,0.282957,-0.144753,15,0.0203966,10,-4.09589e-05,-3.83937,-0.0605402,-0.974559,5.4434,0.282957,
2,0,0,1,0,28673.7,0.281759,0.281428,-0.15015,15,0.0203724,10,-4.22564e-05,-3.82347,-0.0781051,-0.755392,4.40523,0.281428,
2,0,0,1,0,28673.8,0.280261,0.279933,-0.155674,15,0.0203473,10,-4.35783e-05,-3.80778,-0.0775066,-0.761225,4.65512,0.279933,
2,0,0,1,0,28674,0.278763,0.278464,-0.162049,15,0.0203212,10,-4.51248e-05,-3.79035,-0.095696,-0.616535,3.91636,0.278464,
2,0,0,1,0,28674.1,0.277264,0.276925,-0.169726,15,0.0202941,10,-4.70013e-05,-3.77025,-0.0957274,-0.616333,4.079,0.276925,
2,0,0,1,0,28674.3,0.275766,0.275494,-0.174101,15,0.0202661,10,-4.79638e-05,-3.7592,-0.121592,-0.485229,3.2861,0.275494,
2,0,0,1,0,28674.4,0.274268,0.273951,-0.181342,15,0.0202372,10,-4.96788e-05,-3.7415,-0.117077,-0.503942,3.54583,0.273951,
2,0,0,1,0,28674.6,0.27277,0.272436,-0.185921,15,0.0202076,10,-5.06515e-05,-3.73067,-0.120419,-0.489957,3.57501,0.272436,
2,0,0,1,0,28674.7,0.271272,0.270964,-0.192561,15,0.0201771,10,-5.2177e-05,-3.71543,-0.113625,-0.519253,3.87788,0.270964,
2,0,0,1,0,28674.9,0.269773,0.269475,-0.197605,15,0.0201457,10,-5.32495e-05,-3.7042,-0.142988,-0.412622,3.15522,0.269475,
2,0,0,1,0,28675,0.268275,0.267941,-0.203118,15,0.0201135,10,-5.44235e-05,-3.69225,-0.143677,-0.410643,3.22327,0.267941,
2,0,0,1,0,28675.2,0.266778,0.266459,-0.206963,15,0.0200808,10,-5.51473e-05,-3.68411,-0.13256,-0.445083,3.59573,0.266459,
2,0,0,1,0,28675.3,0.265279,0.265029,-0.211822,15,0.0200474,10,-5.61388e-05,-3.67403,-0.13235,-0.445788,3.67406,0.265029,
2,0,0,1,0,28675.5,0.263781,0.26349,-0.215703,15,0.0200131,10,-5.68355e-05,-3.66614,-0.160333,-0.367984,3.09752,0.26349,
2,0,0,1,0,28675.6,0.262283,0.262027,-0.220935,15,0.0199782,10,-5.78909e-05,-3.65574,-0.183714,-0.321151,2.76417,0.262027,
2,0,0,1,0,28675.8,0.260784,0.260483,-0.222016,15,0.0199427,10,-5.78313e-05,-3.65362,-0.192861,-0.305919,2.67174,0.260483,
2,0,0,1,0,28675.9,0.259286,0.258965,-0.228032,15,0.0199066,10,-5.90522e-05,-3.64201,-0.188535,-0.312939,2.79227,0.258965,
2,0,0,1,0,28676.1,0.257788,0.257493,-0.236721,15,0.0198697,10,-6.09541e-05,-3.62576,-0.223904,-0.263506,2.39548,0.257493,
2,0,0,1,0,28676.2,0.25629,0.255987,-0.23673,15,0.0198323,10,-6.05997e-05,-3.62575,-0.231164,-0.25523,2.34751,0.2559866,
2,0,0,1,0,28676.4,0.254791,0.254491,-0.239672,15,0.0197943,10,-6.09942e-05,-3.62038,-0.253088,-0.233121,2.18647,0.254491,
2,0,0,1,0,28676.5,0.253293,0.252935,-0.243612,15,0.019756,10,-6.1618e-05,-3.6133,-0.253828,-0.232441,2.22078,0.252935,
2,0,0,1,0,28676.7,0.251796,0.251492,-0.247677,15,0.019717,10,-6.22887e-05,-3.60611,-0.222012,-0.265751,2.57348,0.251492,
2,0,0,1,0,28676.8,0.250297,0.249973,-0.251397,15,0.0196774,10,-6.28424e-05,-3.59964,-0.283269,-0.208282,2.03291,0.249973,
2,0,0,1,0,28677,0.248799,0.24851,-0.254874,15,0.0196373,10,-6.33388e-05,-3.59367,-0.248693,-0.23724,2.35906,0.24851,
2,0,0,1,0,28677.1,0.247301,0.246984,-0.258923,15,0.0195968,10,-6.39498e-05,-3.58683,-0.223843,-0.263577,2.65283,0.246984,
2,0,0,1,0,28677.3,0.245802,0.245486,-0.261806,15,0.0195557,10,-6.42698e-05,-3.58202,-0.196519,-0.300226,3.05629,0.245486,
2,0,0,1,0,28677.4,0.244304,0.243983,-0.264359,15,0.019514,10,-6.4499e-05,-3.57781,-0.284168,-0.207624,2.13889,0.243983,
2,0,0,1,0,28677.6,0.242806,0.242513,-0.267348,15,0.0194718,10,-6.48353e-05,-3.57292,-0.319533,-0.184644,1.93217,0.242513,
2,0,0,1,0,28677.7,0.241308,0.240999,-0.270811,15,0.0194294,10,-6.5265e-05,-3.56733,-0.333925,-0.176686,1.87709,0.240999,
2,0,0,1,0,28677.9,0.23981,0.23949,-0.275554,15,0.0193864,10,-6.59925e-05,-3.55979,-0.244434,-0.241374,2.58922,0.23949,
2,0,0,1,0,28678,0.238311,0.238023,-0.277576,15,0.0193427,10,-6.60695e-05,-3.55662,-0.288624,-0.204419,2.21469,0.238023,
2,0,0,1,0,28678.2,0.236814,0.236475,-0.281283,15,0.0192987,10,-6.65164e-05,-3.55086,-0.358605,-0.164526,1.80947,0.236475,
2,0,0,1,0,28678.3,0.235316,0.234976,-0.281523,15,0.0192542,10,-6.61513e-05,-3.55049,-0.376169,-0.156844,1.73753,0.234976,
2,0,0,1,0,28678.5,0.233817,0.233517,-0.286847,15,0.0192094,10,-6.69835e-05,-3.54235,-0.265681,-0.222071,2.4925,0.2335166,
2,0,0,1,0,28678.6,0.232319,0.232004,-0.291682,15,0.019164,10,-6.76715e-05,-3.53509,-0.319613,-0.184598,2.07927,0.232004,
2,0,0,1,0,28678.8,0.230821,0.230425,-0.294026,15,0.019118,10,-6.7751e-05,-3.53161,-0.425837,-0.138551,1.57685,0.230425,
2,0,0,1,0,28678.9,0.229322,0.228988,-0.293784,15,0.0190717,10,-6.7273e-05,-3.53197,-0.389024,-0.151661,1.74621,0.228988,
2,0,0,1,0,28679.1,0.227824,0.227512,-0.298316,15,0.0190251,10,-6.78703e-05,-3.52532,-0.4808,-0.122712,1.43918,0.227512,
2,0,0,1,0,28679.2,0.226326,0.226042,-0.300928,15,0.0189779,10,-6.80223e-05,-3.52154,-0.501946,-0.117543,1.38357,0.226042,
2,0,0,1,0,28679.4,0.224828,0.224499,-0.305262,15,0.0189302,10,-6.8531e-05,-3.51533,-0.441778,-0.133551,1.58748,0.224499,
2,0,0,1,0,28679.5,0.223329,0.223012,-0.308479,15,0.018882,10,-6.87946e-05,-3.51077,-0.317561,-0.185791,2.2333,0.223012,
2,0,0,1,0,28679.7,0.221831,0.221523,-0.312519,15,0.0188336,10,-6.92303e-05,-3.50512,-0.296784,-0.198798,2.41265,0.221523,
2,0,0,1,0,28679.8,0.220334,0.220007,-0.314088,15,0.0187846,10,-6.91016e-05,-3.50295,-0.292541,-0.201681,2.45955,0.220007,
2,0,0,1,0,28680,0.218835,0.218513,-0.316505,15,0.0187349,10,-6.91604e-05,-3.49962,-0.342407,-0.172309,2.12911,0.218513,
2,0,0,1,0,28680.1,0.217337,0.217007,-0.319888,15,0.0186849,10,-6.9418e-05,-3.495,-0.600083,-0.0983198,1.23159,0.2170071,
2,0,0,1,0,28680.3,0.215839,0.215508,-0.321761,15,0.0186347,10,-6.93419e-05,-3.49247,-0.365755,-0.16131,2.03433,0.2155077,
2,0,0,1,0,28680.4,0.21434,0.214039,-0.325171,15,0.0185838,10,-6.95992e-05,-3.48789,-0.307535,-0.191848,2.42668,0.214039,
2,0,0,1,0,28680.6,0.212842,0.212523,-0.327697,15,0.0185325,10,-6.96431e-05,-3.48453,-0.351405,-0.167897,2.15659,0.212523,
2,0,0,1,0,28680.7,0.211344,0.211001,-0.332085,15,0.0184808,10,-7.00702e-05,-3.47875,-0.433567,-0.136081,1.76096,0.211001,
2,0,0,1,0,28680.9,0.209846,0.209534,-0.333725,15,0.0184286,10,-6.99268e-05,-3.47661,-0.459003,-0.12854,1.67828,0.209534,
2,0,0,1,0,28681,0.208348,0.208037,-0.337414,15,0.018376,10,-7.01947e-05,-3.47184,-0.328606,-0.179546,2.37031,0.208037,
2,0,0,1,0,28681.2,0.206849,0.206544,-0.344707,15,0.0183229,10,-7.11971e-05,-3.46255,-0.40041,-0.147349,1.95867,0.206544,
2,0,0,1,0,28681.3,0.205352,0.20506,-0.343102,15,0.0182691,10,-7.03563e-05,-3.46458,-0.574907,-0.102625,1.37339,0.20506,
2,0,0,1,0,28681.5,0.203854,0.203504,-0.34776,15,0.0182151,10,-7.07706e-05,-3.45872,-0.357409,-0.165077,2.24071,0.203504,
2,0,0,1,0,28681.6,0.202355,0.202032,-0.349257,15,0.0181607,10,-7.05612e-05,-3.45685,-0.316028,-0.186692,2.55526,0.202032,
2,0,0,1,0,28681.8,0.200857,0.200559,-0.3527,15,0.0181058,10,-7.07372e-05,-3.45259,-0.389264,-0.151568,2.08502,0.200559,
2,0,0,1,0,28681.9,0.199359,0.199033,-0.357084,15,0.0180503,10,-7.10716e-05,-3.44723,-0.406568,-0.145117,2.01652,0.199033,
2,0,0,1,0,28682.1,0.19786,0.197511,-0.361077,15,0.0179943,10,-7.13165e-05,-3.4424,-0.408053,-0.144589,2.02521,0.197511,
2,0,0,1,0,28682.2,0.196362,0.196038,-0.363774,15,0.017938,10,-7.13134e-05,-3.43917,-0.460386,-0.128153,1.81595,0.196038,
2,0,0,1,0,28682.4,0.194864,0.194549,-0.36679,15,0.0178811,10,-7.13585e-05,-3.43558,-0.322648,-0.182862,2.60891,0.194549,
2,0,0,1,0,28682.5,0.193366,0.193046,-0.370247,15,0.0178236,10,-7.14747e-05,-3.43151,-0.367548,-0.160523,2.3198,0.193046,
2,0,0,1,0,28682.7,0.191867,0.191537,-0.373545,15,0.0177656,10,-7.15477e-05,-3.42766,-0.425535,-0.138649,2.0282,0.191537,
2,0,0,1,0,28682.8,0.190369,0.190051,-0.376418,15,0.0177073,10,-7.15386e-05,-3.42433,-0.308204,-0.191432,2.82089,0.1900512,
2,0,0,1,0,28683,0.188872,0.188508,-0.380584,15,0.0176483,10,-7.17431e-05,-3.41955,-0.286978,-0.205591,3.05731,0.188508,
2,0,0,1,0,28683.1,0.187373,0.187081,-0.384651,15,0.0175887,10,-7.19611e-05,-3.41493,-0.305524,-0.193111,2.89751,0.1870814,
2,0,0,1,0,28683.3,0.185875,0.185548,-0.388023,15,0.0175285,10,-7.19969e-05,-3.41114,-0.363807,-0.162174,2.45179,0.185548,
2,0,0,1,0,28683.4,0.184377,0.184094,-0.390385,15,0.0174679,10,-7.18675e-05,-3.40851,-0.365291,-0.161515,2.47974,0.184094,
2,0,0,1,0,28683.6,0.182878,0.182597,-0.395331,15,0.0174067,10,-7.21863e-05,-3.40304,-0.324889,-0.1816,2.81589,0.182597,
2,0,0,1,0,28683.7,0.18138,0.181071,-0.4013,15,0.0173448,10,-7.26638e-05,-3.39653,-0.312972,-0.188515,2.9504,0.181071,
2,0,0,1,0,28683.9,0.179882,0.179551,-0.405219,15,0.0172821,10,-7.27577e-05,-3.39231,-0.525024,-0.112376,1.77244,0.179551,
2,0,0,1,0,28684,0.178384,0.178032,-0.410093,15,0.0172189,10,-7.30096e-05,-3.38712,-0.353934,-0.166698,2.67036,0.178032,
2,0,0,1,0,28684.2,0.176886,0.17659,-0.412784,15,0.0171552,10,-7.28934e-05,-3.38428,-0.31885,-0.18504,2.98763,0.17659,
2,0,0,1,0,28684.3,0.175387,0.175021,-0.420365,15,0.0170906,10,-7.35726e-05,-3.37637,-0.288691,-0.20437,3.33731,0.175021,
2,0,0,1,0,28684.5,0.17389,0.173571,-0.424108,15,0.0170253,10,-7.36129e-05,-3.37252,-0.265751,-0.222012,3.66538,0.173571,
2,0,0,1,0,28684.6,0.172392,0.172065,-0.430729,15,0.0169592,10,-7.41132e-05,-3.3658,-0.264161,-0.223349,3.74131,0.172065,
2,0,0,1,0,28684.8,0.170893,0.17059,-0.434006,15,0.0168923,10,-7.4037e-05,-3.3625,-0.243201,-0.242598,4.11755,0.17059,
2,0,0,1,0,28684.9,0.169395,0.169109,-0.441779,15,0.0168244,10,-7.47087e-05,-3.35479,-0.20317,-0.290398,4.98903,0.169109,
2,0,0,1,0,28685.1,0.167897,0.167569,-0.447427,15,0.0167554,10,-7.49749e-05,-3.34928,-0.25935,-0.227492,3.98112,0.167569,
2,0,0,1,0,28685.2,0.166398,0.166065,-0.454895,15,0.0166854,10,-7.55422e-05,-3.34209,-0.259838,-0.227064,4.04048,0.1660652,
2,0,0,1,0,28685.4,0.1649,0.164623,-0.459194,15,0.0166145,10,-7.55939e-05,-3.338,-0.190932,-0.309011,5.5913,0.164623,
2,0,0,1,0,28685.5,0.163402,0.163071,-0.471343,15,0.0165425,10,-7.68622e-05,-3.32666,-0.190827,-0.309181,5.67905,0.1630706,
2,0,0,1,0,28685.7,0.161904,0.161585,-0.479944,15,0.016469,10,-7.75518e-05,-3.31881,-0.180458,-0.326945,6.11834,0.161585,
2,0,0,1,0,28685.8,0.160405,0.160072,-0.490531,15,0.0163941,10,-7.85204e-05,-3.30933,-0.175021,-0.337103,6.42048,0.160072,
2,0,0,1,0,28686,0.158907,0.158558,-0.498057,15,0.0163179,10,-7.89709e-05,-3.30272,-0.166442,-0.354478,6.90479,0.158558,
2,0,0,1,0,28686.1,0.15741,0.157089,-0.510319,15,0.0162401,10,-8.01658e-05,-3.29216,-0.137558,-0.428911,8.55869,0.1570895,
2,0,0,1,0,28686.3,0.155911,0.155567,-0.522402,15,0.0161604,10,-8.12687e-05,-3.28199,-0.135969,-0.433922,8.88366,0.155567,
2,0,0,1,0,28686.4,0.154413,0.154044,-0.536274,15,0.0160787,10,-8.26101e-05,-3.27061,-0.135258,-0.436203,9.1366,0.154044,
2,0,0,1,0,28686.6,0.152915,0.152587,-0.551489,15,0.0159949,10,-8.41503e-05,-3.25846,-0.121184,-0.486862,10.5187,0.1525874,
2,0,0,1,0,28686.7,0.151417,0.151076,-0.566842,15,0.0159089,10,-8.56364e-05,-3.24654,-0.109044,-0.541064,12.0205,0.151076,
2,0,0,1,0,28686.9,0.149918,0.149606,-0.586639,15,0.0158201,10,-8.77644e-05,-3.23163,-0.100403,-0.587632,13.4821,0.149606,
2,0,0,1,0,28687,0.14842,0.148143,-0.608873,15,0.0157283,10,-9.02005e-05,-3.21547,-0.0918282,-0.642504,15.2774,0.148143,
2,0,0,1,0,28687.1,0.146922,0.146621,-0.631391,15,0.0156331,10,-9.25748e-05,-3.1997,-0.0903563,-0.65297,16.1354,0.146621,
2,0,0,1,0,28687.3,0.145424,0.145123,-0.656782,15,0.0155344,10,-9.53143e-05,-3.18258,-0.0839203,-0.703048,18.0852,0.145123,
2,0,0,1,0,28687.4,0.143925,0.143633,-0.684528,15,0.0154315,10,-9.83205e-05,-3.16461,-0.074147,-0.795717,21.3184,0.143633,
2,0,0,1,0,28687.6,0.142428,0.142095,-0.717703,15,0.0153241,10,-0.000101982,-3.14406,-0.0742856,-0.794232,22.2213,0.142095,
2,0,0,1,0,28687.7,0.14093,0.140592,-0.749342,15,0.0152117,10,-0.000105351,-3.12532,-0.0769062,-0.767169,22.4727,0.140592,
2,0,0,1,0,28687.9,0.139431,0.139099,-0.781612,15,0.0150944,10,-0.000108721,-3.10701,-0.0759028,-0.77731,23.8594,0.139099,
2,0,0,1,0,28688,0.137933,0.13763,-0.821485,15,0.0149719,10,-0.000113061,-3.0854,-0.0744783,-0.792177,25.3913,0.13763,
2,0,0,1,0,28688.2,0.136435,0.136104,-0.860827,15,0.0148435,10,-0.000117162,-3.06508,-0.0780679,-0.755753,25.2801,0.136104,
2,0,0,1,0,28688.3,0.134936,0.134612,-0.896427,15,0.0147095,10,-0.00012067,-3.04748,-0.0879161,-0.671095,23.4106,0.134612,
2,0,0,1,0,28688.5,0.133438,0.133136,-0.932519,15,0.01457,10,-0.000124152,-3.03034,-0.0898874,-0.656377,23.8912,0.133136,
2,0,0,1,0,28688.6,0.13194,0.13163,-0.971291,15,0.0144253,10,-0.000127851,-3.01265,-0.0908212,-0.649628,24.605,0.13163,
2,0,0,1,0,28688.8,0.130442,0.130114,-1.00469,15,0.0142749,10,-0.000130724,-2.99797,-0.0984271,-0.599428,23.4633,0.130114,
2,0,0,1,0,28688.9,0.128943,0.128612,-1.03932,15,0.014119,10,-0.000133669,-2.98325,-0.112612,-0.523923,21.1897,0.128612,
2,0,0,1,0,28689.1,0.127445,0.127156,-1.07187,15,0.0139585,10,-0.000136295,-2.96986,-0.126004,-0.46824,19.5082,0.127156,
2,0,0,1,0,28689.2,0.125948,0.125651,-1.0989,15,0.0137939,10,-0.000138077,-2.95904,-0.146421,-0.402948,17.2277,0.125651,
2,0,0,1,0,28689.4,0.124449,0.124135,-1.12246,15,0.013625,10,-0.000139336,-2.94983,-0.15412,-0.382818,16.7046,0.124135,
2,0,0,1,0,28689.5,0.122951,0.122649,-1.14753,15,0.0134526,10,-0.000140744,-2.94023,-0.194481,-0.303372,13.5226,0.122649,
2,0,0,1,0,28689.7,0.121453,0.121134,-1.16562,15,0.0132772,10,-0.000141196,-2.93344,-0.253105,-0.233105,10.5511,0.121134,
2,0,0,1,0,28689.8,0.119955,0.119681,-1.17829,15,0.0130995,10,-0.000141019,-2.92875,-0.300064,-0.196624,9.04108,0.119681,
2,0,0,1,0,28690,0.118456,0.118158,-1.19068,15,0.0129196,10,-0.000140689,-2.9242,-0.331268,-0.178104,8.25884,0.118158,
2,0,0,1,0,28690.1,0.116958,0.116609,-1.20469,15,0.0127377,10,-0.000140478,-2.91912,-0.468751,-0.125866,5.89384,0.116609,
2,0,0,1,0,28690.3,0.11546,0.115144,-1.20847,15,0.0125546,10,-0.000139148,-2.91777,-0.923841,-0.0638638,3.00371,0.115144,
2,0,0,1,0,28690.4,0.113962,0.11363,-1.20756,15,0.0123709,10,-0.000137216,-2.91809,-1.87549,-0.0314584,1.48593,0.11363,
2,0,0,1,0,28690.6,0.112463,0.112152,-1.21124,15,0.012187,10,-0.000135843,-2.91677,16.4985,0.00357608,-0.168844,0.112152,
2,0,0,1,0,28690.7,0.110966,0.110635,-1.21204,15,0.012003,10,-0.000134095,-2.91648,2.2634,0.0260669,-1.23184,0.110635,
2,0,0,1,0,28690.9,0.109468,0.109125,-1.21066,15,0.0118192,10,-0.000132113,-2.91698,0.940717,0.0627181,-2.95212,0.109125,
2,0,0,1,0,28691,0.107969,0.107641,-1.20408,15,0.0116358,10,-0.000129608,-2.91935,0.770254,0.0765981,-3.60181,0.107641,
2,0,0,1,0,28691.2,0.106471,0.106148,-1.19623,15,0.0114536,10,-0.000126977,-2.92219,0.740826,0.0796408,-3.72624,0.106148,
2,0,0,1,0,28691.3,0.104973,0.104632,-1.19348,15,0.011272,10,-0.000124876,-2.92318,0.777861,0.075849,-3.52901,0.1046316,
2,0,0,1,0,28691.5,0.103474,0.103143,-1.18792,15,0.0110911,10,-0.000122525,-2.92521,0.593719,0.0993737,-4.59471,0.103143,
2,0,0,1,0,28691.6,0.101976,0.101658,-1.1819,15,0.0109114,10,-0.00012015,-2.92742,0.471025,0.125259,-5.7647,0.101658,
2,0,0,1,0,28691.8,0.100478,0.100163,-1.17074,15,0.010733,10,-0.000117265,-2.93154,0.500161,0.117962,-5.39071,0.100163,
2,0,0,1,0,28691.9,0.0989799,0.0987018,-1.16549,15,0.0105558,10,-0.000115036,-2.93349,0.592582,0.0995643,-4.52028,0.0987018,
2,0,0,1,0,28692.1,0.0974808,0.0972003,-1.15689,15,0.0103795,10,-0.00011245,-2.93671,0.582738,0.101246,-4.56763,0.0972003,
2,0,0,1,0,28692.2,0.0959833,0.0956191,-1.14995,15,0.0102044,10,-0.000109957,-2.93932,0.495572,0.119054,-5.34242,0.09561909,
2,0,0,1,0,28692.4,0.0944857,0.0941946,-1.13998,15,0.0100307,10,-0.00010738,-2.9431,0.504648,0.116913,-5.20928,0.0941946,
2,0,0,1,0,28692.5,0.0929871,0.0926861,-1.13276,15,0.00985797,10,-0.000104991,-2.94586,0.68486,0.086149,-3.81302,0.0926861,
2,0,0,1,0,28692.7,0.0914889,0.0911284,-1.12801,15,0.00968629,10,-0.000102794,-2.94769,0.580029,0.101719,-4.47133,0.0911284,
2,0,0,1,0,28692.8,0.0899907,0.0896841,-1.12018,15,0.0095156,10,-0.000100462,-2.95071,0.461416,0.127867,-5.57899,0.0896841,
2,0,0,1,0,28693,0.0884925,0.088155,-1.10958,15,0.00934613,10,-9.78153e-05,-2.95484,0.497107,0.118687,-5.15223,0.088155,
2,0,0,1,0,28693.1,0.0869943,0.0866683,-1.10465,15,0.00917808,10,-9.57378e-05,-2.95678,0.489044,0.120643,-5.20663,0.0866683,
2,0,0,1,0,28693.3,0.0854962,0.0851742,-1.09765,15,0.00901087,10,-9.34914e-05,-2.95954,0.544315,0.108393,-4.64305,0.0851742,
2,0,0,1,0,28693.4,0.083998,0.0836822,-1.08931,15,0.00884468,10,-9.11559e-05,-2.96285,0.419665,0.140588,-5.97279,0.0836822,
2,0,0,1,0,28693.6,0.0824998,0.0821785,-1.08301,15,0.0086795,10,-8.90006e-05,-2.96537,0.511707,0.1153,-4.87415,0.0821785,
2,0,0,1,0,28693.7,0.0810011,0.080667,-1.07584,15,0.00851567,10,-8.67852e-05,-2.96825,0.569767,0.103551,-4.35172,0.080667,
2,0,0,1,0,28693.9,0.0795036,0.0792193,-1.07032,15,0.00835274,10,-8.47901e-05,-2.97049,0.633345,0.0931563,-3.88144,0.0792193,
2,0,0,1,0,28694,0.0780061,0.0777183,-1.0613,15,0.0081907,10,-8.24824e-05,-2.97416,0.543358,0.108584,-4.49661,0.0777183,
2,0,0,1,0,28694.2,0.076507,0.0762042,-1.05409,15,0.00802962,10,-8.03263e-05,-2.97712,0.547059,0.107849,-4.44291,0.0762042,
2,0,0,1,0,28694.3,0.0750088,0.0747271,-1.04696,15,0.00786993,10,-7.82366e-05,-2.98007,0.537238,0.109821,-4.49089,0.0747271,
2,0,0,1,0,28694.5,0.0735106,0.0732011,-1.04255,15,0.00771096,10,-7.63156e-05,-2.9819,0.668751,0.0882241,-3.58582,0.0732011,
2,0,0,1,0,28694.6,0.0720124,0.0717113,-1.03504,15,0.00755291,10,-7.42243e-05,-2.98504,0.576421,0.102356,-4.14167,0.0717113,
2,0,0,1,0,28694.8,0.0705142,0.0701567,-1.02875,15,0.00739584,10,-7.21738e-05,-2.98769,0.532319,0.110836,-4.45869,0.0701567,
2,0,0,1,0,28694.9,0.0690161,0.0687347,-1.02151,15,0.00723989,10,-7.0213e-05,-2.99076,0.580264,0.101678,-4.06204,0.0687347,
2,0,0,1,0,28695.1,0.0675179,0.0672226,-1.01802,15,0.00708484,10,-6.84336e-05,-2.99225,0.670636,0.0879762,-3.49281,0.0672226,
2,0,0,1,0,28695.2,0.0660188,0.0656823,-1.0148,15,0.00693049,10,-6.66543e-05,-2.99362,0.617866,0.09549,-3.76403,0.0656823,
2,0,0,1,0,28695.4,0.0645213,0.0642051,-1.00596,15,0.00677685,10,-6.45878e-05,-2.99742,0.482819,0.122199,-4.78706,0.0642051,
2,0,0,1,0,28695.5,0.0630237,0.0627407,-0.997919,15,0.0066245,10,-6.26102e-05,-3.0009,0.529588,0.111407,-4.34889,0.0627407,
2,0,0,1,0,28695.7,0.0615251,0.0612196,-0.991962,15,0.00647311,10,-6.07275e-05,-3.00351,0.600075,0.0983211,-3.81167,0.06121961,
2,0,0,1,0,28695.8,0.0600269,0.0597107,-0.986756,15,0.00632253,10,-5.89198e-05,-3.00579,0.588354,0.10028,-3.85954,0.0597107,
2,0,0,1,0,28696,0.0585287,0.058189,-0.980231,15,0.00617282,10,-5.70386e-05,-3.00867,0.403665,0.146161,-5.58741,0.058189,
2,0,0,1,0,28696.1,0.0570305,0.0567086,-0.974368,15,0.006024,10,-5.52551e-05,-3.01128,0.509951,0.115697,-4.4011,0.0567086,
2,0,0,1,0,28696.3,0.0555323,0.0552686,-0.967215,15,0.00587656,10,-5.34567e-05,-3.01448,0.469485,0.12567,-4.75154,0.0552686,
2,0,0,1,0,28696.4,0.0540342,0.0536716,-0.960755,15,0.00572988,10,-5.15653e-05,-3.01739,0.622637,0.0947582,-3.55103,0.0536716,
2,0,0,1,0,28696.6,0.052536,0.0522358,-0.955843,15,0.0055839,10,-4.99293e-05,-3.01961,0.498281,0.118407,-4.41207,0.0522358,
2,0,0,1,0,28696.7,0.0510378,0.050712,-0.94837,15,0.00543903,10,-4.80938e-05,-3.02302,0.434367,0.13583,-5.02544,0.050712,
2,0,0,1,0,28696.9,0.0495391,0.049192,-0.94201,15,0.0052952,10,-4.63394e-05,-3.02594,0.548597,0.107547,-3.95286,0.049192,
2,0,0,1,0,28697,0.0480416,0.0477207,-0.934496,15,0.00515246,10,-4.45948e-05,-3.02942,0.60747,0.0971242,-3.54079,0.0477207,
2,0,0,1,0,28697.2,0.0465441,0.0462793,-0.92809,15,0.00501051,10,-4.29514e-05,-3.03241,0.560241,0.105312,-3.82081,0.0462793,
2,0,0,1,0,28697.3,0.045045,0.0447451,-0.920594,15,0.00486959,10,-4.11921e-05,-3.03593,0.466468,0.126482,-4.54289,0.0447451,
2,0,0,1,0,28697.5,0.0435468,0.0432394,-0.910983,15,0.00472992,10,-3.93903e-05,-3.04049,0.483948,0.121914,-4.34987,0.0432394,
2,0,0,1,0,28697.6,0.0420486,0.0417495,-0.906554,15,0.00459131,10,-3.78482e-05,-3.04261,0.497359,0.118627,-4.19516,0.0417495,
2,0,0,1,0,28697.8,0.0405504,0.0402373,-0.903545,15,0.00445355,10,-3.63562e-05,-3.04405,0.498089,0.118453,-4.1671,0.0402373,
2,0,0,1,0,28697.9,0.0390523,0.038757,-0.894887,15,0.00431675,10,-3.46832e-05,-3.04823,0.383093,0.15401,-5.36423,0.038757,
2,0,0,1,0,28698.1,0.0375541,0.0372279,-0.886595,15,0.00418105,10,-3.30061e-05,-3.05227,0.422488,0.139649,-4.84486,0.0372279,
2,0,0,1,0,28698.2,0.0360559,0.0357773,-0.879178,15,0.00404664,10,-3.14546e-05,-3.05592,0.427344,0.138062,-4.74493,0.0357773,
2,0,0,1,0,28698.4,0.0345568,0.0342175,-0.87439,15,0.00391294,10,-2.99195e-05,-3.05829,0.48647,0.121282,-4.13799,0.0342175,
2,0,0,1,0,28698.5,0.0330593,0.0327296,-0.866559,15,0.00378036,10,-2.83621e-05,-3.0622,0.429101,0.137497,-4.64802,0.0327296,
2,0,0,1,0,28698.7,0.0315618,0.0312199,-0.860097,15,0.00364875,10,-2.68522e-05,-3.06545,0.468376,0.125967,-4.22672,0.0312199,
2,0,0,1,0,28698.8,0.0300631,0.0297616,-0.852423,15,0.00351831,10,-2.53695e-05,-3.06934,0.437716,0.134791,-4.48109,0.0297616,
2,0,0,1,0,28699,0.0285649,0.0282484,-0.846399,15,0.00338878,10,-2.39094e-05,-3.07242,0.530086,0.111303,-3.67072,0.02824839,
2,0,0,1,0,28699.1,0.0270667,0.0267108,-0.840377,15,0.00326009,10,-2.24472e-05,-3.07553,0.440543,0.133926,-4.38833,0.0267108,
2,0,0,1,0,28699.3,0.0255685,0.0252506,-0.834005,15,0.00313243,10,-2.10591e-05,-3.07883,0.39381,0.149818,-4.87485,0.0252506,
2,0,0,1,0,28699.4,0.0240704,0.0237661,-0.823949,15,0.00300594,10,-1.9582e-05,-3.0841,0.473884,0.124503,-4.02256,0.02376605,
2,0,0,1,0,28699.6,0.0225722,0.02229,-0.820607,15,0.0028803,10,-1.82913e-05,-3.08586,0.662979,0.0889923,-2.84869,0.02229,
2,0,0,1,0,28699.7,0.021074,0.020763,-0.815675,15,0.00275533,10,-1.69358e-05,-3.08848,0.615153,0.0959111,-3.05626,0.020763,
2,0,0,1,0,28699.9,0.0195758,0.0192466,-0.810339,15,0.00263124,10,-1.55963e-05,-3.09133,0.471493,0.125134,-3.95761,0.0192466,
2,0,0,1,0,28700,0.0180772,0.0177244,-0.801282,15,0.0025079,10,-1.42022e-05,-3.09621,0.53564,0.110149,-3.45627,0.0177244,
2,0,0,1,0,28700.2,0.0165796,0.0162906,-0.800253,15,0.00238549,10,-1.30366e-05,-3.09677,0.740888,0.0796342,-2.48961,0.0162906,
2,0,0,1,0,28700.3,0.0150821,0.0147324,-0.79678,15,0.00226357,10,-1.17384e-05,-3.09866,0.718845,0.0820761,-2.54828,0.0147324,
2,0,0,1,0,28700.5,0.013583,0.0132362,-0.79269,15,0.002142,10,-1.04922e-05,-3.1009,0.614845,0.0959592,-2.96338,0.0132362,
2,0,0,1,0,28700.6,0.0120848,0.0117527,-0.789621,15,0.0020212,10,-9.28019e-06,-3.10258,0.783056,0.0753458,-2.32403,0.0117527,
2,0,0,1,0,28700.8,0.0105866,0.0102575,-0.78448,15,0.00190122,10,-8.04683e-06,-3.10542,0.787853,0.0748871,-2.30104,0.0102575,
2,0,0,1,0,28700.9,0.00908846,0.00873903,-0.783028,15,0.00178135,10,-6.84291e-06,-3.10622,1.69031,0.0349048,-1.06721,0.00873903,
2,0,0,1,0,28701.1,0.00759027,0.00727567,-0.782033,15,0.00166184,10,-5.68981e-06,-3.10677,0.941942,0.0626366,-1.90997,0.00727567,
2,0,0,1,0,28701.2,0.00609208,0.00578792,-0.782142,15,0.00154255,10,-4.52698e-06,-3.10671,2.57461,0.0229161,-0.697776,0.00578792,
2,0,0,1,0,28701.4,0.00459389,0.00431714,-0.779822,15,0.00142372,10,-3.3666e-06,-3.108,3.10273,0.0190155,-0.578116,0.004317136,
2,0,0,1,0,28701.5,0.0030948,0.00276512,-0.778776,15,0.00130465,10,-2.15341e-06,-3.10859,-1.06202,-0.0555544,1.6903,0.00276512,
2,0,0,1,0,28701.7,0.00159728,0.00123217,-0.788296,15,0.00118444,10,-9.71314e-07,-3.10331, , , ,0.00123217,
2,0,0,1,0,28701.8,0.000199195,-0.000189804,-0.77954,15,0.00107278,10,1.47959e-07,-3.10816, , , ,-0.000189804,