File: Figure_codes/Fig_3-5/rawdata_trumpetplot_data/after 10th/20221101_1-115_003_TrumpetPlot_ParaChange_from10_every3_08_CV_C01_10.csv
mode,ox/red,error,control changes,counter inc.,time/s,control/V,Ewe/V,<I>/mA,cycle number,(Q-Qo)/C,I Range,P/W,log(|I|),Tafel slope mV/dec,alpha_eff,dI/d(E-IR),E-IR/V,
2,0,0,0,0,20876.3,2.44065e-05,-0.000325324,-4.04279,11,0.0000000E+000,10,1.31522e-06,-2.39332, , , ,-0.000325324,
2,0,0,1,0,20876.3,0.0012943,0.000912285,-2.21806,11,-4.70092e-05,10,-2.0235e-06,-2.65403, , , ,0.000912285,
2,0,0,1,0,20876.4,0.00279784,0.00244745,-0.869975,11,-7.48594e-05,10,-2.12922e-06,-3.06049,-0.00398231,-14.8155,746.014,0.00244745,
2,0,0,1,0,20876.4,0.00429425,0.00396373,0.015004,11,-8.19684e-05,10,5.94716e-08,-4.82379,-0.022652,-2.60462,521.867,0.003963728,
2,1,0,1,0,20876.4,0.00579065,0.00549597,0.658097,11,-7.50321e-05,10,3.61688e-06,-3.18171,0.0055582,10.6149,379.157,0.00549597,
2,1,0,1,0,20876.4,0.0072942,0.00695922,1.14521,11,-5.75577e-05,10,7.96974e-06,-2.94112,0.00747014,7.89811,288.126,0.00695922,
2,1,0,1,0,20876.4,0.00878347,0.00848995,1.52333,11,-3.23505e-05,10,1.2933e-05,-2.81721,0.0145579,4.05278,222.911,0.00848995,
2,1,0,1,0,20876.5,0.010287,0.00993615,1.82294,11,-5.7171e-07,10,1.81131e-05,-2.73923,0.0223107,2.64447,179.9,0.00993615,
2,1,0,1,0,20876.5,0.0117905,0.0114829,2.06172,11,3.62952e-05,10,2.36745e-05,-2.68577,0.0316455,1.86441,146.339,0.0114829,
2,1,0,1,0,20876.5,0.013278,0.0129308,2.25954,11,7.67723e-05,10,2.92177e-05,-2.64598,0.0417662,1.41262,122.958,0.01293082,
2,1,0,1,0,20876.5,0.0147816,0.0144346,2.43745,11,0.000121168,10,3.51836e-05,-2.61306,0.0528684,1.11598,104.862,0.0144346,
2,1,0,1,0,20876.5,0.0162851,0.0159415,2.58578,11,0.000168607,10,4.12213e-05,-2.58741,0.0642463,0.918341,91.6925,0.0159415,
2,1,0,1,0,20876.5,0.0177744,0.0174337,2.71015,11,0.000218036,10,4.7248e-05,-2.56701,0.0762468,0.773803,81.2636,0.0174337,
2,1,0,1,0,20876.6,0.0192779,0.0189413,2.82247,11,0.000270233,10,5.34613e-05,-2.54937,0.0882456,0.668588,73.2486,0.01894128,
2,1,0,1,0,20876.6,0.0207743,0.0204532,2.9257,11,0.000324244,10,5.984e-05,-2.53377,0.0963455,0.61238,69.6579,0.0204532,
2,1,0,1,0,20876.6,0.0222707,0.0219997,3.0271,11,0.000380072,10,6.65952e-05,-2.51897,0.105923,0.557009,65.5811,0.02199968,
2,1,0,1,0,20876.6,0.0237743,0.0234667,3.11267,11,0.000438005,10,7.30441e-05,-2.50687,0.119626,0.493202,59.8001,0.0234667,
2,1,0,1,0,20876.6,0.0252636,0.0249483,3.19442,11,0.000496945,10,7.96955e-05,-2.49561,0.126284,0.467199,58.2947,0.0249483,
2,1,0,1,0,20876.7,0.0267671,0.0264307,3.27709,11,0.000558038,10,8.66156e-05,-2.48451,0.132659,0.44475,56.9168,0.0264307,
2,1,0,1,0,20876.7,0.0282706,0.0279822,3.35989,11,0.000620771,10,9.40171e-05,-2.47367,0.13812,0.427165,55.9977,0.0279822,
2,1,0,1,0,20876.7,0.0297581,0.0294645,3.43873,11,0.000684329,10,0.00010132,-2.4636,0.161673,0.364933,48.96,0.0294645,
2,1,0,1,0,20876.7,0.0312617,0.0309114,3.51102,11,0.000749982,10,0.000108531,-2.45457,0.170459,0.346123,47.4773,0.0309114,
2,1,0,1,0,20876.7,0.0327652,0.0324101,3.59081,11,0.000816979,10,0.000116379,-2.44481,0.170141,0.346771,48.5657,0.0324101,
2,1,0,1,0,20876.8,0.0342545,0.033965,3.66814,11,0.000884689,10,0.000124588,-2.43555,0.174548,0.338017,48.2646,0.033965,
2,1,0,1,0,20876.8,0.035758,0.0354382,3.74081,11,0.00095454,10,0.000132567,-2.42703,0.189979,0.310561,45.25,0.0354382,
2,1,0,1,0,20876.8,0.0372544,0.0368953,3.81245,11,0.00102534,10,0.000140662,-2.4188,0.19884,0.296721,44.0954,0.0368953,
2,1,0,1,0,20876.8,0.0387508,0.0384403,3.87895,11,0.00109739,10,0.000149108,-2.41129,0.186847,0.315766,47.8074,0.0384403,
2,1,0,1,0,20876.8,0.0402544,0.0399135,3.95627,11,0.00117117,10,0.000157908,-2.40271,0.191015,0.308877,47.5839,0.0399135,
2,1,0,1,0,20876.8,0.0417437,0.0414578,4.02764,11,0.00124556,10,0.000166977,-2.39495,0.195241,0.302191,47.3876,0.0414578,
2,1,0,1,0,20876.9,0.0432472,0.0429657,4.0971,11,0.00132205,10,0.000176035,-2.38752,0.20465,0.288297,45.9677,0.0429657,
2,1,0,1,0,20876.9,0.0447507,0.0444389,4.15427,11,0.00139979,10,0.000184611,-2.38151,0.20262,0.291185,47.2467,0.0444389,
2,1,0,1,0,20876.9,0.0462382,0.0459222,4.22377,11,0.00147793,10,0.000193965,-2.3743,0.201815,0.292347,48.1823,0.0459222,
2,1,0,1,0,20876.9,0.0477418,0.047469,4.28568,11,0.0015582,10,0.000203437,-2.36798,0.208498,0.282976,47.417,0.047469,
2,1,0,1,0,20876.9,0.0492453,0.0489346,4.35396,11,0.00163979,10,0.00021306,-2.36112,0.220111,0.268047,45.5757,0.0489346,
2,1,0,1,0,20877,0.0507346,0.0504422,4.41493,11,0.00172169,10,0.000222698,-2.35508,0.231254,0.25513,44.0462,0.0504422,
2,1,0,1,0,20877,0.0522381,0.0519446,4.47881,11,0.00180564,10,0.00023265,-2.34884,0.24613,0.23971,41.9785,0.0519446,
2,1,0,1,0,20877,0.0537345,0.0534463,4.55088,11,0.00189041,10,0.000243228,-2.3419,0.244874,0.240941,42.7842,0.0534463,
2,1,0,1,0,20877,0.0552309,0.0549256,4.61515,11,0.00197637,10,0.00025349,-2.33581,0.266592,0.221312,39.8465,0.0549256,
2,1,0,1,0,20877,0.0567345,0.056407,4.67553,11,0.00206401,10,0.000263732,-2.33017,0.283853,0.207854,37.9534,0.056407,
2,1,0,1,0,20877,0.0582237,0.0579056,4.74001,11,0.0021518,10,0.000274473,-2.32422,0.274173,0.215193,39.8155,0.0579056,
2,1,0,1,0,20877.1,0.0597273,0.0594207,4.80556,11,0.00224174,10,0.00028555,-2.31826,0.287824,0.204986,38.4068,0.0594207,
2,1,0,1,0,20877.1,0.0612308,0.060915,4.86612,11,0.00233284,10,0.00029642,-2.31282,0.292295,0.201851,38.278,0.060915,
2,1,0,1,0,20877.1,0.0627183,0.0623936,4.93084,11,0.00242411,10,0.000307653,-2.30708,0.29286,0.201462,38.6861,0.0623936,
2,1,0,1,0,20877.1,0.0642218,0.0638974,4.97841,11,0.00251735,10,0.000318107,-2.30291,0.292103,0.201983,39.2714,0.0638974,
2,1,0,1,0,20877.1,0.0657254,0.0654005,5.03892,11,0.00261171,10,0.000329548,-2.29766,0.286523,0.205917,40.4543,0.0654005,
2,1,0,1,0,20877.2,0.0672147,0.0669019,5.10255,11,0.00270621,10,0.00034137,-2.29221,0.286114,0.206212,40.9769,0.0669019,
2,1,0,1,0,20877.2,0.0687182,0.0684286,5.15546,11,0.00280278,10,0.000352781,-2.28773,0.325126,0.181468,36.4666,0.0684286,
2,1,0,1,0,20877.2,0.0702146,0.0699278,5.20459,11,0.00289985,10,0.000363946,-2.28361,0.313778,0.188031,38.1934,0.0699278,
2,1,0,1,0,20877.2,0.071711,0.0713735,5.25573,11,0.0029979,10,0.00037512,-2.27937,0.316224,0.186577,38.2818,0.0713735,
2,1,0,1,0,20877.2,0.0732146,0.0728912,5.3057,11,0.00309749,10,0.000386739,-2.27526,0.345348,0.170842,35.4112,0.0728912,
2,1,0,1,0,20877.3,0.0747038,0.0743777,5.35621,11,0.00319697,10,0.000398382,-2.27114,0.36595,0.161224,33.733,0.0743777,
2,1,0,1,0,20877.3,0.0762074,0.075888,5.40211,11,0.00329842,10,0.000409955,-2.26744,0.396529,0.148791,31.393,0.075888,
2,1,0,1,0,20877.3,0.0777109,0.077374,5.45588,11,0.00340081,10,0.000422143,-2.26314,0.406928,0.144989,30.869,0.077374,
2,1,0,1,0,20877.3,0.0791984,0.0788751,5.49979,11,0.00350297,10,0.000433796,-2.25965,0.442408,0.133361,28.6509,0.0788751,
2,1,0,1,0,20877.3,0.0807019,0.0804185,5.5467,11,0.00360712,10,0.000446057,-2.25597,0.482402,0.122305,26.4787,0.08041846,
2,1,0,1,0,20877.3,0.0822055,0.0818558,5.5965,11,0.00371213,10,0.000458106,-2.25208,0.484193,0.121852,26.6022,0.0818558,
2,1,0,1,0,20877.4,0.0836947,0.0833388,5.6364,11,0.00381675,10,0.000469731,-2.249,0.451729,0.130609,28.7475,0.0833388,
2,1,0,1,0,20877.4,0.0851983,0.0848927,5.68358,11,0.00392335,10,0.000482495,-2.24538,0.49168,0.119997,26.5933,0.0848927,
2,1,0,1,0,20877.4,0.0866947,0.0863916,5.72694,11,0.00403025,10,0.00049476,-2.24208,0.489823,0.120452,26.8879,0.0863916,
2,1,0,1,0,20877.4,0.0881911,0.0879027,5.77127,11,0.0041379,10,0.000507311,-2.23873,0.479189,0.123125,27.6996,0.08790274,
2,1,0,1,0,20877.4,0.0896946,0.0893667,5.80833,11,0.00424685,10,0.000519071,-2.23595,0.459394,0.12843,29.1348,0.0893667,
2,1,0,1,0,20877.5,0.0911839,0.0908766,5.85494,11,0.00435549,10,0.000532077,-2.23248,0.393117,0.150083,34.3006,0.0908766,
2,1,0,1,0,20877.5,0.0926857,0.0923934,5.90455,11,0.00446627,10,0.000545542,-2.22881,0.376553,0.156684,36.0952,0.0923934,
2,1,0,1,0,20877.5,0.0941892,0.0938648,5.95348,11,0.00457798,10,0.000558822,-2.22523,0.384308,0.153523,35.6963,0.0938648,
2,1,0,1,0,20877.5,0.0956785,0.0953526,5.99986,11,0.00468941,10,0.000572102,-2.22186,0.380308,0.155137,36.3937,0.09535259,
2,1,0,1,0,20877.5,0.097182,0.0968813,6.06255,11,0.00480309,10,0.000587347,-2.21734,0.329513,0.179052,42.3894,0.0968813,
2,1,0,1,0,20877.6,0.0986856,0.098338,6.12874,11,0.00491797,10,0.000602688,-2.21263,0.317546,0.1858,44.4641,0.098338,
2,1,0,1,0,20877.6,0.100175,0.0998548,6.1974,11,0.00503284,10,0.00061884,-2.20779,0.320219,0.184249,44.5913,0.09985479,
2,1,0,1,0,20877.6,0.101678,0.101367,6.25904,11,0.00515021,10,0.000634459,-2.20349,0.310052,0.190291,46.5673,0.1013668,
2,1,0,1,0,20877.6,0.103175,0.102853,6.34614,11,0.00526833,10,0.000652718,-2.19749,0.286975,0.205593,50.9377,0.102853,
2,1,0,1,0,20877.6,0.104671,0.104358,6.4329,11,0.00538796,10,0.000671325,-2.19159,0.262412,0.224837,56.4545,0.104358,
2,1,0,1,0,20877.6,0.106175,0.105863,6.52033,11,0.00550987,10,0.000690263,-2.18573,0.251422,0.234665,59.7187,0.105863,
2,1,0,1,0,20877.7,0.107662,0.107337,6.61551,11,0.00563226,10,0.000710089,-2.17944,0.239107,0.246752,63.7403,0.107337,
2,1,0,1,0,20877.7,0.109166,0.108845,6.71678,11,0.00575773,10,0.00073109,-2.17284,0.239176,0.24668,64.6623,0.108845,
2,1,0,1,0,20877.7,0.110669,0.110334,6.81858,11,0.00588518,10,0.000752324,-2.16631,0.224224,0.26313,70.0206,0.110334,
2,1,0,1,0,20877.7,0.112159,0.111852,6.92318,11,0.00601319,10,0.000774372,-2.15969,0.227835,0.258959,69.9278,0.1118522,
2,1,0,1,0,20877.7,0.113662,0.113352,7.0285,11,0.00614447,10,0.000796694,-2.15314,0.230255,0.256238,70.2327,0.113352,
2,1,0,1,0,20877.8,0.115166,0.114841,7.12969,11,0.00627769,10,0.000818784,-2.14693,0.230466,0.256004,71.1746,0.1148414,
2,1,0,1,0,20877.8,0.116655,0.116341,7.23167,11,0.00641141,10,0.000841339,-2.14076,0.230901,0.255521,72.0547,0.116341,
2,1,0,1,0,20877.8,0.118158,0.117833,7.33219,11,0.00654854,10,0.000863976,-2.13477,0.249493,0.23648,67.6042,0.117833,
2,1,0,1,0,20877.8,0.119655,0.119335,7.42767,11,0.0066868,10,0.000886381,-2.12915,0.270235,0.218328,63.2471,0.119335,
2,1,0,1,0,20877.8,0.121151,0.120849,7.51115,11,0.0068267,10,0.000907719,-2.12429,0.289766,0.203612,59.7,0.120849,
2,1,0,1,0,20877.9,0.122655,0.122357,7.59348,11,0.00696904,10,0.000929113,-2.11956,0.295764,0.199484,59.116,0.122357,
2,1,0,1,0,20877.9,0.124142,0.123821,7.68185,11,0.00711143,10,0.000951177,-2.11453,0.335051,0.176093,52.7638,0.123821,
2,1,0,1,0,20877.9,0.125646,0.125349,7.75926,11,0.00725684,10,0.000972613,-2.11018,0.38727,0.152349,46.0821,0.125349,
2,1,0,1,0,20877.9,0.127149,0.126866,7.82645,11,0.00740364,10,0.000992909,-2.10643,0.417231,0.141408,43.187,0.126866,
2,1,0,1,0,20877.9,0.128639,0.12832,7.8957,11,0.00755007,10,0.00101318,-2.10261,0.453377,0.130134,40.092,0.12832,
2,1,0,1,0,20877.9,0.130142,0.12976,7.96272,11,0.00769935,10,0.00103324,-2.09894,0.461092,0.127957,39.7268,0.12976,
2,1,0,1,0,20878,0.131646,0.131347,8.02346,11,0.00784984,10,0.00105386,-2.09564,0.495464,0.11908,37.2496,0.131347,
2,1,0,1,0,20878,0.133135,0.132848,8.07714,11,0.00799975,10,0.00107303,-2.09274,0.529038,0.111523,35.1475,0.132848,
2,1,0,1,0,20878,0.134639,0.134293,8.13155,11,0.00815222,10,0.00109201,-2.08983,0.559342,0.105481,33.4517,0.134293,
2,1,0,1,0,20878,0.136135,0.135797,8.18328,11,0.00830489,10,0.00111126,-2.08707,0.544788,0.108299,34.5508,0.135797,
2,1,0,1,0,20878,0.137631,0.1373,8.22779,11,0.00845849,10,0.00112967,-2.08472,0.614499,0.0960132,30.7938,0.1373,
2,1,0,1,0,20878.1,0.139135,0.138809,8.27092,11,0.00861375,10,0.00114808,-2.08245,0.69974,0.0843171,27.1831,0.138809,
2,1,0,1,0,20878.1,0.140622,0.140304,8.29831,11,0.00876802,10,0.00116428,-2.08101,0.861019,0.0685235,22.1655,0.140304,
2,1,0,1,0,20878.1,0.142126,0.141796,8.32099,11,0.00892452,10,0.00117988,-2.07983,1.17218,0.0503336,16.3354,0.141796,
2,1,0,1,0,20878.1,0.143629,0.143291,8.34436,11,0.00908146,10,0.00119568,-2.07861,3.33995,0.0176649,5.73954,0.1432914,
2,1,0,1,0,20878.1,0.145119,0.14479,8.33767,11,0.00923687,10,0.00120721,-2.07896,-1.79016,-0.0329579,-10.706,0.14479,
2,1,0,1,0,20878.2,0.146622,0.146303,8.30582,11,0.00939365,10,0.00121517,-2.08062,-0.780113,-0.0756301,-24.4847,0.146303,
2,1,0,1,0,20878.2,0.148126,0.147846,8.26378,11,0.00954974,10,0.00122177,-2.08282,-0.46105,-0.127969,-41.1667,0.147846,
2,1,0,1,0,20878.2,0.149615,0.149272,8.19243,11,0.00970307,10,0.0012229,-2.08659,-0.309552,-0.190598,-60.7216,0.149272,
2,1,0,1,0,20878.2,0.151119,0.150818,8.08981,11,0.00985642,10,0.00122009,-2.09206,-0.219631,-0.268633,-84.4774,0.150818,
2,1,0,1,0,20878.2,0.152615,0.152258,7.95003,11,0.0100067,10,0.00121045,-2.09963,-0.17398,-0.339119,-104.861,0.1522577,
2,1,0,1,0,20878.2,0.154111,0.153791,7.7889,11,0.010154,10,0.00119786,-2.10852,-0.146758,-0.402021,-121.812,0.1537908,
2,1,0,1,0,20878.3,0.155615,0.155266,7.59455,11,0.0102988,10,0.00117918,-2.1195,-0.125738,-0.469228,-138.479,0.155266,
2,1,0,1,0,20878.3,0.157103,0.156799,7.37232,11,0.0104382,10,0.00115597,-2.1324,-0.107472,-0.548979,-157.279,0.156799,
2,1,0,1,0,20878.3,0.158606,0.158327,7.12509,11,0.0105746,10,0.00112809,-2.14721,-0.0952758,-0.619255,-171.641,0.158327,
2,1,0,1,0,20878.3,0.16011,0.159806,6.85352,11,0.0107061,10,0.00109524,-2.16409,-0.0882425,-0.668612,-178.517,0.159806,
2,1,0,1,0,20878.3,0.161599,0.161281,6.58435,11,0.0108312,10,0.00106193,-2.18149,-0.0855446,-0.689699,-176.959,0.161281,
2,1,0,1,0,20878.4,0.163102,0.162798,6.31527,11,0.0109527,10,0.00102811,-2.19961,-0.0811256,-0.727268,-179.089,0.162798,
2,1,0,1,0,20878.4,0.164606,0.164292,6.05307,11,0.011069,10,0.000994468,-2.21802,-0.0831606,-0.70947,-167.63,0.164292,
2,1,0,1,0,20878.4,0.166095,0.165786,5.79465,11,0.0111793,10,0.000960673,-2.23697,-0.0832684,-0.708552,-160.587,0.165786,
2,1,0,1,0,20878.4,0.167599,0.167267,5.55721,11,0.0112862,10,0.000929537,-2.25514,-0.0871263,-0.677178,-147.249,0.167267,
2,1,0,1,0,20878.4,0.169095,0.168779,5.34278,11,0.0113884,10,0.000901751,-2.27223,-0.0908067,-0.649732,-135.872,0.1687794,
2,1,0,1,0,20878.5,0.170592,0.170258,5.14616,11,0.0114867,10,0.000876177,-2.28852,-0.0925161,-0.637727,-128.487,0.170258,
2,1,0,1,0,20878.5,0.172095,0.17175,4.9672,11,0.011582,10,0.000853115,-2.30389,-0.100049,-0.589712,-114.586,0.17175,
2,1,0,1,0,20878.5,0.173583,0.173248,4.80355,11,0.0116731,10,0.000832206,-2.31844,-0.110474,-0.534064,-100.401,0.173248,
2,1,0,1,0,20878.5,0.175086,0.174779,4.66442,11,0.0117623,10,0.000815242,-2.3312,-0.116669,-0.505706,-92.266,0.174779,
2,1,0,1,0,20878.5,0.17659,0.176246,4.53254,11,0.011849,10,0.00079884,-2.34366,-0.121081,-0.487278,-86.3508,0.176246,
2,1,0,1,0,20878.5,0.178079,0.177755,4.42191,11,0.0119325,10,0.000786017,-2.35439,-0.132215,-0.446242,-77.1318,0.177755,
2,1,0,1,0,20878.6,0.179582,0.179269,4.31462,11,0.0120147,10,0.000773477,-2.36506,-0.150467,-0.392113,-66.1984,0.179269,
2,1,0,1,0,20878.6,0.181086,0.180785,4.2219,11,0.0120951,10,0.000763258,-2.37449,-0.164788,-0.358035,-59.1346,0.180785,
2,1,0,1,0,20878.6,0.182575,0.18228,4.14504,11,0.0121731,10,0.000755559,-2.38247,-0.170384,-0.346276,-55.9746,0.18228,
2,1,0,1,0,20878.6,0.184079,0.183785,4.06522,11,0.0122504,10,0.000747128,-2.39092,-0.186636,-0.316123,-50.1735,0.183785,
2,1,0,1,0,20878.6,0.185582,0.185261,3.99126,11,0.0123263,10,0.000739423,-2.39889,-0.215664,-0.273574,-42.6968,0.185261,
2,1,0,1,0,20878.7,0.18707,0.186823,3.93132,11,0.0124001,10,0.000734461,-2.40546,-0.248292,-0.237623,-36.498,0.1868231,
2,1,0,1,0,20878.7,0.188573,0.188233,3.86984,11,0.0124737,10,0.000728432,-2.41231,-0.250115,-0.235892,-35.6824,0.188233,
2,1,0,1,0,20878.7,0.19007,0.189717,3.82035,11,0.0125459,10,0.000724787,-2.4179,-0.268321,-0.219886,-32.8175,0.1897172,
2,1,0,1,0,20878.7,0.191566,0.191256,3.76501,11,0.012617,10,0.000720083,-2.42423,-0.289424,-0.203853,-30.0706,0.191256,
2,1,0,1,0,20878.7,0.19307,0.192717,3.72276,11,0.0126877,10,0.000717438,-2.42913,-0.348056,-0.169513,-24.6923,0.192717,
2,1,0,1,0,20878.8,0.194559,0.194282,3.68991,11,0.012757,10,0.000716883,-2.43298,-0.34356,-0.171731,-24.7712,0.194282,
2,1,0,1,0,20878.8,0.196063,0.195758,3.65157,11,0.0128263,10,0.000714825,-2.43752,-0.322809,-0.182771,-26.1038,0.195758,
2,1,0,1,0,20878.8,0.197566,0.19724,3.61163,11,0.0128949,10,0.000712357,-2.4423,-0.355774,-0.165836,-23.4338,0.19724,
2,1,0,1,0,20878.8,0.199055,0.198736,3.58995,11,0.0129622,10,0.000713454,-2.44491,-0.365627,-0.161367,-22.616,0.198736,
2,1,0,1,0,20878.8,0.200559,0.200255,3.56362,11,0.0130296,10,0.000713631,-2.44811,-0.400402,-0.147352,-20.4971,0.2002548,
2,1,0,1,0,20878.8,0.202062,0.201737,3.53715,11,0.0130965,10,0.000713574,-2.45135,-0.431781,-0.136643,-18.8542,0.201737,
2,1,0,1,0,20878.9,0.20355,0.203256,3.5128,11,0.0131622,10,0.000713998,-2.45435,-0.486687,-0.121228,-16.6179,0.203256,
2,1,0,1,0,20878.9,0.205053,0.204723,3.48709,11,0.0132282,10,0.000713887,-2.45754,-0.610176,-0.0966934,-13.1914,0.2047229,
2,1,0,1,0,20878.9,0.20655,0.206263,3.47224,11,0.0132934,10,0.000716195,-2.45939,-0.69047,-0.0854491,-11.5747,0.206263,
2,1,0,1,0,20878.9,0.208046,0.207727,3.45793,11,0.0133584,10,0.000718305,-2.46118,-0.631441,-0.0934371,-12.5758,0.207727,
2,1,0,1,0,20878.9,0.20955,0.209278,3.43705,11,0.0134234,10,0.000719297,-2.46381,-0.554735,-0.106357,-14.2515,0.209278,
2,1,0,1,0,20879,0.211039,0.210758,3.41748,11,0.0134872,10,0.000720261,-2.46629,-0.722028,-0.0817143,-10.8923,0.210758,
2,1,0,1,0,20879,0.212543,0.212248,3.39816,11,0.0135514,10,0.000721255,-2.46876,-0.926683,-0.063668,-8.44059,0.212248,
2,1,0,1,0,20879,0.214046,0.213754,3.37711,11,0.0136154,10,0.000721872,-2.47145,-1.01333,-0.0582239,-7.68686,0.213754,
2,1,0,1,0,20879,0.215535,0.215228,3.36737,11,0.0136784,10,0.000724753,-2.47271,-0.848977,-0.0694954,-9.13168,0.215228,
2,1,0,1,0,20879,0.217039,0.216762,3.34577,11,0.0137418,10,0.000725234,-2.4755,-0.85627,-0.0689035,-9.02325,0.216762,
2,1,0,1,0,20879.1,0.218543,0.218238,3.33245,11,0.0138049,10,0.000727266,-2.47724,-0.955388,-0.061755,-8.0501,0.218238,
2,1,0,1,0,20879.1,0.22003,0.219712,3.32848,11,0.0138671,10,0.000731306,-2.47775,-0.998084,-0.0591133,-7.68079,0.219712,
2,1,0,1,0,20879.1,0.221534,0.221262,3.31343,11,0.0139298,10,0.000733137,-2.47972,-0.747167,-0.078965,-10.2182,0.221262,
2,1,0,1,0,20879.1,0.22303,0.222707,3.3,11,0.013992,10,0.000734935,-2.48149,-0.830306,-0.0710581,-9.1754,0.222707,
2,1,0,1,0,20879.1,0.224526,0.224227,3.29148,11,0.0140539,10,0.000738038,-2.48261,-0.805881,-0.0732118,-9.42745,0.224227,
2,1,0,1,0,20879.1,0.22603,0.225714,3.28632,11,0.014116,10,0.000741767,-2.48329,-1.00488,-0.0587137,-7.53197,0.225714,
2,1,0,1,0,20879.2,0.227519,0.227243,3.2821,11,0.0141772,10,0.000745834,-2.48385,-0.777021,-0.075931,-9.69746,0.227243,
2,1,0,1,0,20879.2,0.229023,0.2287,3.27028,11,0.0142389,10,0.000747912,-2.48542,-1.09701,-0.0537825,-6.86295,0.2287,
2,1,0,1,0,20879.2,0.230526,0.230218,3.25925,11,0.0143004,10,0.000750338,-2.48688,-1.11266,-0.0530261,-6.74945,0.2302178,
2,1,0,1,0,20879.2,0.232016,0.231717,3.2559,11,0.0143611,10,0.000754449,-2.48733,-3.25309,-0.0181366,-2.29838,0.2317175,
2,1,0,1,0,20879.2,0.233519,0.233204,3.24835,11,0.0144223,10,0.000757529,-2.48834,-1.87775,-0.0314206,-3.97248,0.2332039,
2,1,0,1,0,20879.3,0.235023,0.234732,3.24157,11,0.0144835,10,0.000760898,-2.48924,-1.93699,-0.0304597,-3.84268,0.234732,
2,1,0,1,0,20879.3,0.23651,0.236204,3.22674,11,0.0145437,10,0.000762169,-2.49124,-2.19044,-0.0269352,-3.39334,0.236204,
2,1,0,1,0,20879.3,0.238014,0.237713,3.21347,11,0.0146045,10,0.000763886,-2.49303,-3.44737,-0.0171145,-2.14815,0.237713,
2,1,0,1,0,20879.3,0.23951,0.239201,3.20568,11,0.0146649,10,0.000766803,-2.49408,-2.6941,-0.0218997,-2.74465,0.239201,
2,1,0,1,0,20879.3,0.241006,0.240703,3.20241,11,0.0147251,10,0.000770829,-2.49452,-1.68693,-0.0349747,-4.37368,0.240703,
2,1,0,1,0,20879.4,0.24251,0.242182,3.18934,11,0.0147855,10,0.000772402,-2.4963,-1.25231,-0.0471128,-5.88156,0.242182,
2,1,0,1,0,20879.4,0.243999,0.243678,3.1841,11,0.0148451,10,0.000775895,-2.49701,-1.68123,-0.0350933,-4.3714,0.243678,
2,1,0,1,0,20879.4,0.245503,0.245186,3.18478,11,0.0149052,10,0.000780864,-2.49692,-1.42655,-0.0413585,-5.14,0.245186,
2,1,0,1,0,20879.4,0.247006,0.246698,3.17688,11,0.0149653,10,0.00078373,-2.498,-1.13357,-0.0520482,-6.45389,0.246698,
2,1,0,1,0,20879.4,0.248496,0.248237,3.16967,11,0.0150246,10,0.00078683,-2.49899,-0.955084,-0.0617747,-7.64181,0.248237,
2,1,0,1,0,20879.4,0.249999,0.249703,3.16614,11,0.0150844,10,0.000790594,-2.49947,-0.976976,-0.0603904,-7.46325,0.249703,
2,1,0,1,0,20879.5,0.251503,0.251193,3.16724,11,0.0151441,10,0.000795589,-2.49932,-2.00696,-0.0293977,-3.62787,0.251193,
2,1,0,1,0,20879.5,0.25299,0.252694,3.16106,11,0.015203,10,0.000798782,-2.50017,-0.987759,-0.0597312,-7.35209,0.252694,
2,1,0,1,0,20879.5,0.254494,0.25418,3.14987,11,0.0152625,10,0.000800634,-2.50171,-1.7581,-0.033559,-4.12397,0.25418,
2,1,0,1,0,20879.5,0.25599,0.255662,3.14476,11,0.0153215,10,0.000803996,-2.50241,-5.3726,-0.0109816,-1.34762,0.2556619,
2,1,0,1,0,20879.5,0.257487,0.257173,3.14037,11,0.0153803,10,0.000807619,-2.50302,-5.23909,-0.0112615,-1.37907,0.257173,
2,1,0,1,0,20879.6,0.25899,0.258695,3.1382,11,0.0154395,10,0.000811837,-2.50332,-8.30734,-0.00710215,-0.867906,0.258695,
2,1,0,1,0,20879.6,0.260479,0.260188,3.12835,11,0.015498,10,0.000813957,-2.50468,-1.75956,-0.0335311,-4.09086,0.2601876,
2,1,0,1,0,20879.6,0.261983,0.261713,3.11381,11,0.0155569,10,0.000814922,-2.50671,-2.13627,-0.0276183,-3.36393,0.261713,
2,1,0,1,0,20879.6,0.263486,0.263192,3.10766,11,0.0156157,10,0.000817911,-2.50757,-12.8588,-0.00458831,-0.557547,0.263192,
2,1,0,1,0,20879.6,0.264974,0.264688,3.10406,11,0.0156739,10,0.000821609,-2.50807,-2.25295,-0.0261879,-3.18039,0.264688,
2,1,0,1,0,20879.7,0.266477,0.266205,3.09936,11,0.0157325,10,0.000825064,-2.50873,-1.49789,-0.0393887,-4.77487,0.266205,
2,1,0,1,0,20879.7,0.267981,0.267704,3.08933,11,0.0157911,10,0.000827026,-2.51014,-1.35843,-0.0434326,-5.25379,0.267704,
2,1,0,1,0,20879.7,0.26947,0.269164,3.08768,11,0.0158488,10,0.000831093,-2.51037,-1.4778,-0.0399241,-4.82158,0.269164,
2,1,0,1,0,20879.7,0.270974,0.27064,3.09157,11,0.0159072,10,0.000836702,-2.50982,-1.54683,-0.0381426,-4.59713,0.2706396,
2,1,0,1,0,20879.7,0.27247,0.272161,3.08453,11,0.0159651,10,0.000839488,-2.51081,-1.12483,-0.0524524,-6.30595,0.272161,
2,1,0,1,0,20879.7,0.273967,0.273625,3.0789,11,0.016023,10,0.000842464,-2.5116,-0.965291,-0.0611215,-7.34866,0.2736254,
2,1,0,1,0,20879.8,0.27547,0.275172,3.07094,11,0.016081,10,0.000845037,-2.51273,-1.27851,-0.0461474,-5.53627,0.275172,
2,1,0,1,0,20879.8,0.276959,0.276642,3.06558,11,0.0161382,10,0.000848069,-2.51349,-1.65195,-0.0357153,-4.27408,0.276642,
2,1,0,1,0,20879.8,0.278463,0.278166,3.06626,11,0.0161961,10,0.000852928,-2.51339,-2.21293,-0.0266615,-3.18105,0.278166,
2,1,0,1,0,20879.8,0.279967,0.279664,3.05555,11,0.0162538,10,0.000854528,-2.51491,-2.38166,-0.0247726,-2.9534,0.279664,
2,1,0,1,0,20879.8,0.281454,0.281119,3.04745,11,0.0163107,10,0.000856695,-2.51606,-5.47024,-0.0107856,-1.28374,0.281119,
2,1,0,1,0,20879.9,0.282958,0.28265,3.04295,11,0.0163682,10,0.000860089,-2.51671,-10.5636,-0.00558523,-0.662837,0.28265,
2,1,0,1,0,20879.9,0.284461,0.284129,3.03896,11,0.0164256,10,0.000863457,-2.51728,-3.28477,-0.0179617,-2.12944,0.284129,
2,1,0,1,0,20879.9,0.28595,0.285609,3.03207,11,0.0164823,10,0.000865987,-2.51826,-2.1111,-0.0279475,-3.30649,0.285609,
2,1,0,1,0,20879.9,0.287454,0.287143,3.01696,11,0.0165394,10,0.0008663,-2.52043,-1.30502,-0.0452101,-5.3389,0.287143,
2,1,0,1,0,20879.9,0.28895,0.288603,3.01429,11,0.0165962,10,0.000869932,-2.52082,-4.95236,-0.0119135,-1.40337,0.288603,
2,1,0,1,0,20880,0.290447,0.290163,3.0126,11,0.0166528,10,0.000874145,-2.52106,-1.57689,-0.0374155,-4.4018,0.290163,
2,1,0,1,0,20880,0.29195,0.291669,3.00364,11,0.0167096,10,0.00087607,-2.52235,-1.1696,-0.0504446,-5.91991,0.291669,
2,1,0,1,0,20880,0.29344,0.293123,2.99882,11,0.0167658,10,0.000879024,-2.52305,-1.26771,-0.0465407,-5.45969,0.293123,
2,1,0,1,0,20880,0.294943,0.294653,2.99329,11,0.0168223,10,0.000881983,-2.52385,-1.25122,-0.0471541,-5.51548,0.294653,
2,1,0,1,0,20880,0.296447,0.29615,2.99319,11,0.0168788,10,0.000886435,-2.52387,-1.56921,-0.0375986,-4.38971,0.29615,
2,1,0,1,0,20880,0.297934,0.29765,2.98946,11,0.0169347,10,0.000889814,-2.52441,-1.28257,-0.0460014,-5.35806,0.29765,
2,1,0,1,0,20880.1,0.299438,0.299182,2.98152,11,0.016991,10,0.000892017,-2.52556,-0.0269875,-2.1862,-232.125,0.299182,
2,1,0,1,0,20880.1,0.300012,0.299727,2.98472,11,0.0170119,10,0.000894604,-2.5251,0.00140509,41.9901,2864.42,0.299727,
2,1,0,1,0,20880.1,0.298737,0.298451,1.293,11,0.0170433,10,0.000385897,-2.8884,0.00252313,23.3836,878.092,0.298451,
2,1,0,1,0,20880.1,0.29724,0.296911,0.36935,11,0.0170577,10,0.000109664,-3.43256,0.00498413,11.8376,510.607,0.296911,
2,0,0,1,0,20880.1,0.295744,0.295427,-0.149095,11,0.0170591,10,-4.40468e-05,-3.82654,0.0772548,0.763706,287.052,0.2954272,
2,0,0,1,0,20880.1,0.29424,0.293954,-0.45961,11,0.0170528,10,-0.000135104,-3.33761,-0.00208336,-28.3196,178.358,0.293954,
2,0,0,1,0,20880.2,0.292751,0.292411,-0.666984,11,0.0170419,10,-0.000195034,-3.17588,-0.0111647,-5.28452,121.648,0.292411,
2,0,0,1,0,20880.2,0.291248,0.290901,-0.828315,11,0.0170276,10,-0.000240958,-3.0818,-0.0196874,-2.99684,91.269,0.290901,
2,0,0,1,0,20880.2,0.289744,0.28941,-0.942131,11,0.0170107,10,-0.000272662,-3.02589,-0.0306194,-1.92688,68.7259,0.28941,
2,0,0,1,0,20880.2,0.288257,0.287959,-1.03311,11,0.0169921,10,-0.000297494,-2.98585,-0.0428446,-1.37707,54.5452,0.287959,
2,0,0,1,0,20880.2,0.286753,0.286447,-1.10982,11,0.0169717,10,-0.000317905,-2.95475,-0.0535407,-1.10197,47.2877,0.286447,
2,0,0,1,0,20880.3,0.285249,0.284959,-1.17717,11,0.01695,10,-0.000335446,-2.92916,-0.0700644,-0.842082,38.4817,0.2849592,
2,0,0,1,0,20880.3,0.28376,0.283433,-1.23489,11,0.0169273,10,-0.000350007,-2.90837,-0.0776434,-0.759884,36.4705,0.283433,
2,0,0,1,0,20880.3,0.282257,0.281931,-1.2954,11,0.0169034,10,-0.000365213,-2.8876,-0.0957851,-0.615962,30.8806,0.281931,
2,0,0,1,0,20880.3,0.28076,0.280377,-1.345,11,0.0168786,10,-0.000377108,-2.87128,-0.104086,-0.56684,29.5481,0.280377,
2,0,0,1,0,20880.3,0.279264,0.278952,-1.38409,11,0.016853,10,-0.000386095,-2.85884,-0.109174,-0.540423,29.0607,0.278952,
2,0,0,1,0,20880.4,0.27776,0.277462,-1.42198,11,0.0168265,10,-0.000394545,-2.84711,-0.116755,-0.505331,27.9668,0.277462,
2,0,0,1,0,20880.4,0.276271,0.275957,-1.46235,11,0.0167995,10,-0.000403546,-2.83495,-0.120356,-0.490211,27.8526,0.275957,
2,0,0,1,0,20880.4,0.274767,0.274479,-1.49931,11,0.0167715,10,-0.000411528,-2.82411,-0.138634,-0.425581,24.7716,0.274479,
2,0,0,1,0,20880.4,0.273264,0.27295,-1.52774,11,0.0167428,10,-0.000416997,-2.81595,-0.151356,-0.38981,23.2248,0.2729505,
2,0,0,1,0,20880.4,0.271776,0.271483,-1.55703,11,0.0167139,10,-0.000422707,-2.8077,-0.151249,-0.390086,23.7635,0.271483,
2,0,0,1,0,20880.4,0.270273,0.269979,-1.59227,11,0.0166841,10,-0.00042988,-2.79798,-0.168234,-0.350701,21.7928,0.2699787,
2,0,0,1,0,20880.5,0.268769,0.268421,-1.61773,11,0.0166536,10,-0.000434231,-2.79109,-0.201125,-0.29335,18.5571,0.2684207,
2,0,0,1,0,20880.5,0.26728,0.266934,-1.64258,11,0.0166229,10,-0.000438462,-2.78447,-0.24234,-0.24346,15.6693,0.266934,
2,0,0,1,0,20880.5,0.265777,0.265474,-1.68014,11,0.0165914,10,-0.000446034,-2.77465,-0.251846,-0.234271,15.365,0.265474,
2,0,0,1,0,20880.5,0.26428,0.263975,-1.70389,11,0.0165596,10,-0.000449784,-2.76856,-0.250304,-0.235713,15.696,0.263975,
2,0,0,1,0,20880.5,0.262784,0.262435,-1.73369,11,0.0165272,10,-0.000454982,-2.76103,-0.281665,-0.209468,14.1318,0.262435,
2,0,0,1,0,20880.6,0.26128,0.26097,-1.75675,11,0.0164942,10,-0.000458458,-2.75529,-0.314571,-0.187557,12.866,0.26097,
2,0,0,1,0,20880.6,0.259791,0.259501,-1.77923,11,0.0164612,10,-0.000461713,-2.74977,-0.27679,-0.213158,14.8424,0.2595011,
2,0,0,1,0,20880.6,0.258287,0.257979,-1.80731,11,0.0164273,10,-0.000466248,-2.74297,-0.253601,-0.232649,16.39,0.257979,
2,0,0,1,0,20880.6,0.256786,0.25646,-1.83182,11,0.016393,10,-0.000469788,-2.73712,-0.277238,-0.212813,15.1663,0.25646,
2,0,0,1,0,20880.6,0.255296,0.25497,-1.85274,11,0.0163585,10,-0.000472392,-2.73219,-0.335859,-0.175669,12.6887,0.25497,
2,0,0,1,0,20880.6,0.253793,0.253508,-1.87281,11,0.0163234,10,-0.000474772,-2.72751,-0.316147,-0.186622,13.6308,0.253508,
2,0,0,1,0,20880.7,0.252289,0.251969,-1.89106,11,0.0162879,10,-0.000476489,-2.72329,-0.283319,-0.208246,15.3589,0.2519688,
2,0,0,1,0,20880.7,0.2508,0.250504,-1.91481,11,0.0162523,10,-0.000479668,-2.71787,-0.290771,-0.202909,15.1477,0.250504,
2,0,0,1,0,20880.7,0.249296,0.249027,-1.93161,11,0.016216,10,-0.000481023,-2.71408,-0.312816,-0.18861,14.2239,0.249027,
2,0,0,1,0,20880.7,0.2478,0.247464,-1.94273,11,0.0161795,10,-0.000480757,-2.71159,-0.300968,-0.196034,14.954,0.2474639,
2,0,0,1,0,20880.7,0.246304,0.245979,-1.96465,11,0.0161426,10,-0.000483262,-2.70672,-0.281307,-0.209735,16.1198,0.245979,
2,0,0,1,0,20880.8,0.2448,0.244491,-1.99062,11,0.0161052,10,-0.000486687,-2.70101,-0.347015,-0.170022,13.2192,0.244491,
2,0,0,1,0,20880.8,0.243313,0.24299,-2.01292,11,0.0160677,10,-0.00048912,-2.69617,-0.416768,-0.141566,11.1051,0.24299,
2,0,0,1,0,20880.8,0.241809,0.241539,-2.01669,11,0.0160296,10,-0.00048711,-2.69536,-0.458973,-0.128548,10.1694,0.241539,
2,0,0,1,0,20880.8,0.240306,0.239997,-2.04339,11,0.0159911,10,-0.000490408,-2.68965,-0.408823,-0.144317,11.5312,0.239997,
2,0,0,1,0,20880.8,0.238816,0.238512,-2.06722,11,0.0159527,10,-0.000493056,-2.68461,-0.430872,-0.136931,11.0322,0.238512,
2,0,0,1,0,20880.9,0.237313,0.236969,-2.08344,11,0.0159135,10,-0.000493712,-2.68122,-0.615855,-0.0958017,7.77676,0.236969,
2,0,0,1,0,20880.9,0.235809,0.235495,-2.10555,11,0.0158739,10,-0.000495847,-2.67663,-0.543024,-0.108651,8.90424,0.235495,
2,0,0,1,0,20880.9,0.23432,0.233978,-2.12359,11,0.0158346,10,-0.000496874,-2.67293,-0.423287,-0.139385,11.5367,0.233978,
2,0,0,1,0,20880.9,0.232816,0.232463,-2.13752,11,0.0157944,10,-0.000496895,-2.67009,-0.418853,-0.140861,11.7049,0.232463,
2,0,0,1,0,20880.9,0.23132,0.231011,-2.15637,11,0.0157541,10,-0.000498144,-2.66628,-0.425599,-0.138628,11.642,0.231011,
2,0,0,1,0,20880.9,0.229824,0.22949,-2.17052,11,0.0157135,10,-0.000498114,-2.66344,-0.403506,-0.146218,12.3701,0.22949,
2,0,0,1,0,20881,0.22832,0.227998,-2.18284,11,0.0156725,10,-0.000497682,-2.66098,-0.362917,-0.162572,13.8505,0.227998,
2,0,0,1,0,20881,0.226833,0.226469,-2.19741,11,0.0156315,10,-0.000497646,-2.65809,-0.334282,-0.176498,15.1561,0.226469,
2,0,0,1,0,20881,0.225329,0.225011,-2.22198,11,0.0155898,10,-0.00049997,-2.65326,-0.412908,-0.142889,12.378,0.225011,
2,0,0,1,0,20881,0.223825,0.223533,-2.22847,11,0.0155477,10,-0.000498137,-2.65199,-0.418578,-0.140953,12.2875,0.223533,
2,0,0,1,0,20881,0.222336,0.221968,-2.24303,11,0.0155058,10,-0.000497881,-2.64917,-0.510339,-0.115609,10.1616,0.221968,
2,0,0,1,0,20881.1,0.220833,0.220556,-2.26297,11,0.0154632,10,-0.000499111,-2.64532,-0.526416,-0.112079,9.91523,0.220556,
2,0,0,1,0,20881.1,0.219329,0.219025,-2.28579,11,0.0154202,10,-0.000500646,-2.64096,-0.577487,-0.102167,9.1027,0.219025,
2,0,0,1,0,20881.1,0.21784,0.217512,-2.2998,11,0.0153773,10,-0.000500235,-2.63831,-0.667843,-0.0883442,7.92548,0.217512,
2,0,0,1,0,20881.1,0.216336,0.215996,-2.31307,11,0.0153337,10,-0.000499616,-2.63581,-0.688808,-0.0856552,7.74897,0.215996,
2,0,0,1,0,20881.1,0.21484,0.214489,-2.33307,11,0.01529,10,-0.000500418,-2.63207,-0.659359,-0.0894809,8.15581,0.214489,
2,0,0,1,0,20881.2,0.213343,0.212998,-2.35368,11,0.0152461,10,-0.000501329,-2.62825,-0.585018,-0.100852,9.24679,0.212998,
2,0,0,1,0,20881.2,0.21184,0.211497,-2.3735,11,0.0152015,10,-0.000501988,-2.62461,-0.700912,-0.0841761,7.76099,0.211497,
2,0,0,1,0,20881.2,0.210352,0.21008,-2.38151,11,0.0151572,10,-0.000500309,-2.62315,-0.521922,-0.113044,10.5168,0.21008,
2,0,0,1,0,20881.2,0.208849,0.208531,-2.3993,11,0.0151122,10,-0.000500328,-2.61992,-0.438544,-0.134536,12.6009,0.208531,
2,0,0,1,0,20881.2,0.207345,0.207009,-2.41387,11,0.0150668,10,-0.000499692,-2.61729,-0.378875,-0.155724,14.6784,0.207009,
2,0,0,1,0,20881.2,0.205856,0.205546,-2.44058,11,0.0150214,10,-0.000501651,-2.61251,-0.422094,-0.139779,13.2592,0.205546,
2,0,0,1,0,20881.3,0.204353,0.204007,-2.4503,11,0.0149753,10,-0.00049988,-2.61078,-0.486522,-0.121269,11.5986,0.204007,
2,0,0,1,0,20881.3,0.202849,0.20254,-2.45992,11,0.0149289,10,-0.000498233,-2.60908,-0.525747,-0.112221,10.7981,0.20254,
2,0,0,1,0,20881.3,0.20136,0.201044,-2.47801,11,0.0148827,10,-0.000498188,-2.6059,-0.403647,-0.146167,14.149,0.201044,
2,0,0,1,0,20881.3,0.199856,0.199503,-2.4905,11,0.0148357,10,-0.000496863,-2.60371,-0.486431,-0.121292,11.8385,0.199503,
2,0,0,1,0,20881.3,0.19836,0.198033,-2.51247,11,0.0147886,10,-0.00049755,-2.5999,-0.526038,-0.112159,11.013,0.198033,
2,0,0,1,0,20881.4,0.196863,0.196487,-2.53114,11,0.0147412,10,-0.000497336,-2.59668,-0.528329,-0.111673,11.0449,0.196487,
2,0,0,1,0,20881.4,0.19536,0.194961,-2.54719,11,0.0146932,10,-0.000496604,-2.59394,-0.477471,-0.123568,12.3055,0.194961,
2,0,0,1,0,20881.4,0.193872,0.193511,-2.57247,11,0.0146454,10,-0.0004978,-2.58965,-0.530866,-0.111139,11.154,0.193511,
2,0,0,1,0,20881.4,0.192369,0.192038,-2.59661,11,0.0145966,10,-0.000498648,-2.58559,-0.618805,-0.095345,9.63305,0.192038,
2,0,0,1,0,20881.4,0.190865,0.19051,-2.6114,11,0.0145475,10,-0.000497498,-2.58313,-0.755896,-0.0780531,7.94404,0.19051,
2,0,0,1,0,20881.5,0.189376,0.189048,-2.6275,11,0.0144986,10,-0.000496723,-2.58046,-0.483292,-0.12208,12.5469,0.189048,
2,0,0,1,0,20881.5,0.187872,0.187525,-2.65366,11,0.0144489,10,-0.000497628,-2.57615,-0.46274,-0.127501,13.1871,0.1875249,
2,0,0,1,0,20881.5,0.186369,0.186015,-2.67376,11,0.0143986,10,-0.000497361,-2.57288,-0.444909,-0.132611,13.8139,0.186015,
2,0,0,1,0,20881.5,0.18488,0.184537,-2.69563,11,0.0143486,10,-0.000497445,-2.56934,-0.420166,-0.140421,14.7528,0.184537,
2,0,0,1,0,20881.5,0.183376,0.183038,-2.7113,11,0.0142976,10,-0.000496271,-2.56682,-0.41114,-0.143503,15.2158,0.183038,
2,0,0,1,0,20881.5,0.18188,0.18154,-2.74057,11,0.0142465,10,-0.000497523,-2.56216,-0.330308,-0.178621,19.0786,0.18154,
2,0,0,1,0,20881.6,0.180383,0.180019,-2.76294,11,0.0141949,10,-0.000497382,-2.55863,-0.350738,-0.168217,18.1381,0.180019,
2,0,0,1,0,20881.6,0.17888,0.178587,-2.7861,11,0.0141425,10,-0.00049756,-2.555,-0.372011,-0.158597,17.2345,0.178587,
2,0,0,1,0,20881.6,0.177392,0.177046,-2.80326,11,0.0140903,10,-0.000496306,-2.55234,-0.323443,-0.182412,20.0447,0.1770463,
2,0,0,1,0,20881.6,0.175889,0.17558,-2.83347,11,0.014037,10,-0.0004975,-2.54768,-0.329435,-0.179095,19.8324,0.17558,
2,0,0,1,0,20881.6,0.174385,0.17404,-2.8616,11,0.0139832,10,-0.000498032,-2.54339,-0.337121,-0.175011,19.5973,0.17404,
2,0,0,1,0,20881.7,0.172896,0.17255,-2.88936,11,0.0139294,10,-0.000498559,-2.5392,-0.368979,-0.159901,18.0675,0.17255,
2,0,0,1,0,20881.7,0.171392,0.171031,-2.92009,11,0.0138745,10,-0.000499425,-2.5346,-0.353429,-0.166936,19.0709,0.171031,
2,0,0,1,0,20881.7,0.169889,0.169533,-2.95814,11,0.013819,10,-0.000501503,-2.52898,-0.342689,-0.172168,19.9243,0.169533,
2,0,0,1,0,20881.7,0.1684,0.168042,-3.00036,11,0.0137634,10,-0.000504186,-2.52283,-0.293882,-0.200761,23.4779,0.168042,
2,0,0,1,0,20881.7,0.166896,0.16654,-3.04013,11,0.0137065,10,-0.000506303,-2.51711,-0.2967,-0.198854,23.517,0.1665401,
2,0,0,1,0,20881.8,0.165392,0.165037,-3.07919,11,0.0136489,10,-0.00050818,-2.51156,-0.278069,-0.212178,25.493,0.165037,
2,0,0,1,0,20881.8,0.163905,0.163587,-3.1148,11,0.0135912,10,-0.000509541,-2.50657,-0.256589,-0.22994,28.0121,0.163587,
2,0,0,1,0,20881.8,0.162401,0.16206,-3.16244,11,0.013532,10,-0.000512506,-2.49998,-0.229312,-0.257292,31.7655,0.16206,
2,0,0,1,0,20881.8,0.160905,0.160535,-3.21636,11,0.0134722,10,-0.000516338,-2.49264,-0.217301,-0.271512,34.0494,0.160535,
2,0,0,1,0,20881.8,0.159409,0.159109,-3.26521,11,0.0134115,10,-0.000519526,-2.48609,-0.199124,-0.296297,37.7698,0.159109,
2,0,0,1,0,20881.8,0.157905,0.157581,-3.323,11,0.0133494,10,-0.000523642,-2.47847,-0.180671,-0.326561,42.3865,0.157581,
2,0,0,1,0,20881.9,0.156416,0.156054,-3.38435,11,0.0132869,10,-0.000528143,-2.47052,-0.164731,-0.35816,47.3903,0.156054,
2,0,0,1,0,20881.9,0.154912,0.154576,-3.45508,11,0.0132224,10,-0.000534074,-2.46154,-0.153506,-0.384351,51.8853,0.154576,
2,0,0,1,0,20881.9,0.153409,0.153083,-3.52293,11,0.0131565,10,-0.000539302,-2.4531,-0.159099,-0.370839,51.1924,0.153083,
2,0,0,1,0,20881.9,0.151919,0.151577,-3.60306,11,0.01309,10,-0.00054614,-2.44333,-0.140383,-0.42028,59.3233,0.151577,
2,0,0,1,0,20881.9,0.150416,0.15007,-3.69431,11,0.0130211,10,-0.000554405,-2.43247,-0.135524,-0.435347,63.0055,0.15007,
2,0,0,1,0,20882,0.148912,0.148637,-3.79942,11,0.0129504,10,-0.000564732,-2.42028,-0.122445,-0.481849,71.6302,0.148637,
2,0,0,1,0,20882,0.147425,0.147143,-3.90762,11,0.0128784,10,-0.000574979,-2.40809,-0.120572,-0.489333,74.7798,0.147143,
2,0,0,1,0,20882,0.145921,0.145581,-4.02529,11,0.0128036,10,-0.000586004,-2.3952,-0.113524,-0.519714,81.9074,0.1455805,
2,0,0,1,0,20882,0.144425,0.144079,-4.16516,11,0.0127268,10,-0.000600113,-2.38037,-0.105218,-0.560741,91.2355,0.1440791,
2,0,0,1,0,20882,0.142929,0.142598,-4.31167,11,0.0126475,10,-0.000614835,-2.36535,-0.0982308,-0.600626,101.13,0.142598,
2,0,0,1,0,20882.1,0.141425,0.141101,-4.46789,11,0.0125648,10,-0.000630425,-2.3499,-0.097937,-0.602428,105.034,0.141101,
2,0,0,1,0,20882.1,0.139936,0.139624,-4.63822,11,0.01248,10,-0.000647606,-2.33365,-0.0964845,-0.611497,110.612,0.139624,
2,0,0,1,0,20882.1,0.138432,0.13813,-4.80788,11,0.0123912,10,-0.00066411,-2.31805,-0.0927481,-0.636132,119.448,0.13813,
2,0,0,1,0,20882.1,0.136929,0.136578,-4.99592,11,0.0122989,10,-0.000682333,-2.30138,-0.0885242,-0.666485,129.983,0.136578,
2,0,0,1,0,20882.1,0.135439,0.135112,-5.19495,11,0.012204,10,-0.000701902,-2.28442,-0.0886962,-0.665192,134.711,0.135112,
2,0,0,1,0,20882.1,0.133936,0.133636,-5.39629,11,0.0121043,10,-0.000721137,-2.2679,-0.0909764,-0.64852,136.434,0.133636,
2,0,0,1,0,20882.2,0.132432,0.1321,-5.59762,11,0.0120007,10,-0.000739449,-2.252,-0.0920918,-0.640665,139.872,0.1321,
2,0,0,1,0,20882.2,0.130945,0.130646,-5.78945,11,0.0118946,10,-0.000756371,-2.23736,-0.0952027,-0.61973,140.295,0.130646,
2,0,0,1,0,20882.2,0.129441,0.129089,-6.00916,11,0.0117833,10,-0.000775717,-2.22119,-0.0957266,-0.616339,144.493,0.129089,
2,0,0,1,0,20882.2,0.127945,0.12763,-6.21698,11,0.0116687,10,-0.000793476,-2.20642,-0.103649,-0.569227,138.026,0.12763,
2,0,0,1,0,20882.2,0.126448,0.126148,-6.41661,11,0.0115502,10,-0.00080944,-2.19269,-0.111605,-0.528651,132.414,0.126148,
2,0,0,1,0,20882.3,0.124945,0.124617,-6.61648,11,0.0114274,10,-0.000824528,-2.17937,-0.118595,-0.497491,128.355,0.124617,
2,0,0,1,0,20882.3,0.123456,0.123102,-6.80481,11,0.0113022,10,-0.000837684,-2.16718,-0.128883,-0.457779,121.441,0.123102,
2,0,0,1,0,20882.3,0.121952,0.121596,-6.99075,11,0.0111723,10,-0.00085005,-2.15548,-0.139788,-0.422069,114.935,0.121596,
2,0,0,1,0,20882.3,0.120449,0.120097,-7.16125,11,0.011039,10,-0.000860046,-2.14501,-0.150127,-0.393002,109.629,0.120097,
2,0,0,1,0,20882.3,0.118959,0.118638,-7.32068,11,0.0109042,10,-0.000868511,-2.13545,-0.167617,-0.351994,100.45,0.118638,
2,0,0,1,0,20882.4,0.117456,0.117113,-7.4748,11,0.010765,10,-0.000875398,-2.1264,-0.175665,-0.335867,97.8258,0.117113,
2,0,0,1,0,20882.4,0.115952,0.115615,-7.62263,11,0.0106229,10,-0.000881291,-2.1179,-0.195772,-0.301371,89.3568,0.115615,
2,0,0,1,0,20882.4,0.114465,0.114121,-7.74856,11,0.0104798,10,-0.00088427,-2.11078,-0.215357,-0.273964,82.6976,0.114121,
2,0,0,1,0,20882.4,0.112961,0.112606,-7.8599,11,0.010333,10,-0.000885073,-2.10458,-0.233985,-0.252153,77.3028,0.112606,
2,0,0,1,0,20882.4,0.111465,0.111162,-7.97465,11,0.0101847,10,-0.000886478,-2.09829,-0.257036,-0.22954,71.2954,0.111162,
2,0,0,1,0,20882.4,0.109968,0.109655,-8.07046,11,0.0100346,10,-0.000884964,-2.0931,-0.292365,-0.201803,63.4589,0.109655,
2,0,0,1,0,20882.5,0.108465,0.108151,-8.15077,11,0.00988185,10,-0.000881511,-2.0888,-0.348117,-0.169483,53.8325,0.108151,
2,0,0,1,0,20882.5,0.106976,0.106612,-8.22547,11,0.00972927,10,-0.000876931,-2.08484,-0.408281,-0.144508,46.3433,0.106612,
2,0,0,1,0,20882.5,0.105472,0.105132,-8.28531,11,0.00957381,10,-0.000871055,-2.08169,-0.467439,-0.12622,40.8067,0.105132,
2,0,0,1,0,20882.5,0.103968,0.103642,-8.33735,11,0.00941722,10,-0.000864097,-2.07897,-0.599067,-0.0984866,32.0398,0.103642,
2,0,0,1,0,20882.5,0.102479,0.102172,-8.37953,11,0.00926139,10,-0.000856152,-2.07678,-0.928943,-0.0635131,20.7488,0.102172,
2,0,0,1,0,20882.6,0.100976,0.100625,-8.40662,11,0.00910328,10,-0.000845917,-2.07538,-1.71588,-0.0343847,11.2709,0.100625,
2,0,0,1,0,20882.6,0.0994721,0.0991387,-8.42719,11,0.00894483,10,-0.00083546,-2.07432,-5.95931,-0.00990048,3.25137,0.0991387,
2,0,0,1,0,20882.6,0.0979846,0.097686,-8.42936,11,0.00878792,10,-0.00082343,-2.07421,6.0834,0.00969852,-3.18531,0.097686,
2,0,0,1,0,20882.6,0.0964811,0.0961491,-8.42045,11,0.00862934,10,-0.000809619,-2.07466,1.42408,0.0414304,-13.5915,0.0961491,
2,0,0,1,0,20882.6,0.0949847,0.0946581,-8.3956,11,0.0084719,10,-0.000794711,-2.07595,0.962576,0.0612939,-20.0556,0.0946581,
2,0,0,1,0,20882.7,0.0934883,0.0931794,-8.36418,11,0.00831507,10,-0.000779369,-2.07758,0.718213,0.0821483,-26.7933,0.09317936,
2,0,0,1,0,20882.7,0.0919847,0.0916704,-8.32462,11,0.00815808,10,-0.000763122,-2.07964,0.619674,0.0952113,-30.8852,0.0916704,
2,0,0,1,0,20882.7,0.0904955,0.0901728,-8.27627,11,0.00800356,10,-0.000746294,-2.08217,0.510615,0.115547,-37.2587,0.0901728,
2,0,0,1,0,20882.7,0.0889919,0.0886052,-8.2207,11,0.00784845,10,-0.000728397,-2.08509,0.47404,0.124462,-39.8449,0.08860521,
2,0,0,1,0,20882.7,0.0874884,0.0871273,-8.14006,11,0.00769461,10,-0.000709222,-2.08937,0.433305,0.136163,-43.2276,0.08712732,
2,0,0,1,0,20882.7,0.0860009,0.0856337,-8.06838,11,0.0075437,10,-0.000690925,-2.09321,0.425223,0.138751,-43.6614,0.0856337,
2,0,0,1,0,20882.8,0.0844973,0.0841541,-7.99512,11,0.00739253,10,-0.000672823,-2.09717,0.381693,0.154574,-48.2091,0.0841541,
2,0,0,1,0,20882.8,0.0829938,0.0826486,-7.9173,11,0.00724274,10,-0.000654354,-2.10142,0.365533,0.161408,-49.8745,0.0826486,
2,0,0,1,0,20882.8,0.0815045,0.0811758,-7.83862,11,0.00709602,10,-0.000636306,-2.10576,0.372332,0.158461,-48.5092,0.0811758,
2,0,0,1,0,20882.8,0.080001,0.0796614,-7.76162,11,0.00694911,10,-0.000618302,-2.11005,0.39163,0.150652,-45.6942,0.0796614,
2,0,0,1,0,20882.8,0.0785046,0.0781558,-7.6982,11,0.00680426,10,-0.000601659,-2.11361,0.393108,0.150086,-45.1373,0.0781558,
2,0,0,1,0,20882.9,0.0770082,0.0766555,-7.63081,11,0.00666064,10,-0.000584944,-2.11743,0.392455,0.150336,-44.8315,0.0766555,
2,0,0,1,0,20882.9,0.0755046,0.075148,-7.56231,11,0.00651746,10,-0.000568292,-2.12135,0.416894,0.141523,-41.8675,0.075148,
2,0,0,1,0,20882.9,0.0740154,0.073653,-7.51729,11,0.00637696,10,-0.000553671,-2.12394,0.432703,0.136352,-40.0365,0.073653,
2,0,0,1,0,20882.9,0.0725118,0.0721703,-7.46712,11,0.006236,10,-0.000538905,-2.12685,0.492823,0.119718,-34.8903,0.0721703,
2,0,0,1,0,20882.9,0.0710083,0.070689,-7.42108,11,0.00609592,10,-0.000524589,-2.12953,0.512588,0.115102,-33.305,0.070689,
2,0,0,1,0,20883,0.0695208,0.0691948,-7.3736,11,0.00595822,10,-0.000510215,-2.13232,0.548496,0.107567,-30.9479,0.0691948,
2,0,0,1,0,20883,0.0680173,0.0676736,-7.32945,11,0.00581999,10,-0.00049601,-2.13493,0.666998,0.0884561,-25.309,0.0676736,
2,0,0,1,0,20883,0.0665137,0.0661851,-7.28793,11,0.00568247,10,-0.000482352,-2.1374,0.797697,0.0739629,-21.0447,0.0661851,
2,0,0,1,0,20883,0.0650244,0.0647195,-7.25295,11,0.00554707,10,-0.000469407,-2.13949,0.712897,0.0827609,-23.4172,0.0647195,
2,0,0,1,0,20883,0.0635209,0.0631792,-7.2177,11,0.00541088,10,-0.000456009,-2.1416,0.651436,0.0905691,-25.4904,0.06317921,
2,0,0,1,0,20883,0.0620245,0.0616969,-7.17225,11,0.0052762,10,-0.000442506,-2.14434,0.722319,0.0816814,-22.8758,0.0616969,
2,0,0,1,0,20883.1,0.0605281,0.0601972,-7.1391,11,0.00514221,10,-0.000429754,-2.14636,0.787871,0.0748854,-20.8628,0.0601972,
2,0,0,1,0,20883.1,0.0590246,0.0586869,-7.09859,11,0.00500812,10,-0.000416594,-2.14883,0.760514,0.0775791,-21.5066,0.0586869,
2,0,0,1,0,20883.1,0.0575353,0.0571919,-7.07473,11,0.00487607,10,-0.000404617,-2.15029,0.652334,0.0904445,-24.9541,0.0571919,
2,0,0,1,0,20883.1,0.0560317,0.0556472,-7.02922,11,0.00474333,10,-0.000391156,-2.15309,0.657662,0.0897117,-24.6369,0.0556472,
2,0,0,1,0,20883.1,0.0545282,0.0541935,-6.99649,11,0.00461124,10,-0.000379164,-2.15512,0.731264,0.0806822,-22.0519,0.0541935,
2,0,0,1,0,20883.2,0.0530407,0.0526805,-6.96787,11,0.00448117,10,-0.000367071,-2.1569,0.670524,0.0879909,-23.9182,0.0526805,
2,0,0,1,0,20883.2,0.0515372,0.0511709,-6.92861,11,0.00435031,10,-0.000354543,-2.15935,0.598315,0.0986103,-26.6673,0.0511709,
2,0,0,1,0,20883.2,0.0500336,0.0497042,-6.89334,11,0.00422015,10,-0.000342628,-2.16157,0.582102,0.101357,-27.2638,0.0497042,
2,0,0,1,0,20883.2,0.0485444,0.0482294,-6.8578,11,0.00409213,10,-0.000330748,-2.16382,0.594264,0.0992824,-26.5732,0.0482294,
2,0,0,1,0,20883.2,0.0470408,0.0466431,-6.82252,11,0.00396338,10,-0.000318224,-2.16605,0.642221,0.0918686,-24.4577,0.0466431,
2,0,0,1,0,20883.3,0.0455444,0.0452322,-6.78772,11,0.00383598,10,-0.000307023,-2.16828,0.586929,0.100523,-26.5995,0.0452322,
2,0,0,1,0,20883.3,0.044048,0.043721,-6.75012,11,0.00370928,10,-0.000295123,-2.17069,0.620318,0.0951125,-25.0377,0.04372105,
2,0,0,1,0,20883.3,0.0425445,0.0422309,-6.71053,11,0.00358272,10,-0.000283391,-2.17324,0.627182,0.0940716,-24.6323,0.0422309,
2,0,0,1,0,20883.3,0.0410552,0.0407312,-6.66794,11,0.00345817,10,-0.000271593,-2.17601,0.66903,0.0881874,-22.9448,0.0407312,
2,0,0,1,0,20883.3,0.0395517,0.0391974,-6.6292,11,0.00333299,10,-0.000259847,-2.17854,0.631206,0.0934719,-24.1684,0.0391974,
2,0,0,1,0,20883.3,0.0380481,0.0377004,-6.59227,11,0.00320854,10,-0.000248531,-2.18097,0.567694,0.103929,-26.7004,0.0377004,
2,0,0,1,0,20883.4,0.0365606,0.0361972,-6.53785,11,0.0030863,10,-0.000236652,-2.18457,0.51169,0.115304,-29.4422,0.03619723,
2,0,0,1,0,20883.4,0.0350571,0.0347238,-6.49214,11,0.00296356,10,-0.000225432,-2.18761,0.558619,0.105618,-26.7785,0.0347238,
2,0,0,1,0,20883.4,0.0335535,0.0331787,-6.44828,11,0.00284163,10,-0.000213946,-2.19056,0.516521,0.114226,-28.7653,0.0331787,
2,0,0,1,0,20883.4,0.0320643,0.0317342,-6.40033,11,0.00272182,10,-0.00020311,-2.1938,0.441103,0.133756,-33.4346,0.0317342,
2,0,0,1,0,20883.4,0.0305607,0.0302144,-6.3492,11,0.00260166,10,-0.000191837,-2.19728,0.419291,0.140714,-34.9016,0.0302144,
2,0,0,1,0,20883.5,0.0290643,0.028768,-6.30413,11,0.00248309,10,-0.000181357,-2.20037,0.438126,0.134664,-33.1477,0.028768,
2,0,0,1,0,20883.5,0.0275679,0.027262,-6.25751,11,0.00236544,10,-0.000170592,-2.2036,0.411491,0.143381,-35.0248,0.027262,
2,0,0,1,0,20883.5,0.0260644,0.0257282,-6.208,11,0.00224806,10,-0.000159721,-2.20705,0.385099,0.153207,-37.0863,0.0257282,
2,0,0,1,0,20883.5,0.0245751,0.0242329,-6.15279,11,0.0021329,10,-0.0001491,-2.21093,0.371837,0.158672,-38.1066,0.0242329,
2,0,0,1,0,20883.5,0.0230716,0.0227376,-6.10162,11,0.0020176,10,-0.000138736,-2.21456,0.380519,0.155051,-36.8978,0.0227376,
2,0,0,1,0,20883.6,0.021568,0.0212723,-6.0503,11,0.00190324,10,-0.000128704,-2.21822,0.400596,0.147281,-34.7488,0.0212723,
2,0,0,1,0,20883.6,0.0200805,0.0197682,-5.99726,11,0.00179109,10,-0.000118555,-2.22205,0.368225,0.160228,-37.4769,0.0197682,
2,0,0,1,0,20883.6,0.018577,0.0182569,-5.94637,11,0.00167871,10,-0.000108562,-2.22575,0.391452,0.150721,-34.9467,0.0182569,
2,0,0,1,0,20883.6,0.0170735,0.0167783,-5.88973,11,0.0015674,10,-9.88195e-05,-2.2299,0.411846,0.143257,-32.952,0.0167783,
2,0,0,1,0,20883.6,0.0155842,0.0152826,-5.84079,11,0.00145818,10,-8.92628e-05,-2.23353,0.456485,0.129249,-29.4515,0.0152826,
2,0,0,1,0,20883.6,0.0140806,0.0137148,-5.79375,11,0.00134865,10,-7.946e-05,-2.23704,0.453191,0.130188,-29.4261,0.0137148,
2,0,0,1,0,20883.7,0.0125842,0.0121874,-5.74648,11,0.00124057,10,-7.00346e-05,-2.2406,0.4569,0.129131,-28.9526,0.0121874,
2,0,0,1,0,20883.7,0.0110878,0.0107501,-5.69147,11,0.00113343,10,-6.11838e-05,-2.24478,0.452721,0.130323,-28.995,0.0107501,
2,0,0,1,0,20883.7,0.00958429,0.00924151,-5.64711,11,0.00102657,10,-5.21879e-05,-2.24817,0.495099,0.119168,-26.3088,0.00924151,
2,0,0,1,0,20883.7,0.0080968,0.00779326,-5.60904,11,0.000921593,10,-4.37127e-05,-2.25111,0.511179,0.115419,-25.2924,0.00779326,
2,0,0,1,0,20883.7,0.00659326,0.00627037,-5.56599,11,0.000816247,10,-3.49008e-05,-2.25446,0.46517,0.126835,-27.5937,0.00627037,
2,0,0,1,0,20883.8,0.00508972,0.00477372,-5.52726,11,0.000711658,10,-2.63856e-05,-2.25749,0.517344,0.114044,-24.6585,0.00477372,
2,0,0,1,0,20883.8,0.00360044,0.00326411,-5.49907,11,0.000608839,10,-1.79496e-05,-2.25971,0.964605,0.0611649,-13.1876,0.00326411,
2,0,0,1,0,20883.8,0.0020969,0.00172418,-5.51739,11,0.000505365,10,-9.51296e-06,-2.25827,0.810599,0.0727857,-15.5872,0.001724177,
2,0,0,1,0,20883.8,0.000593362,0.000201964,-5.47131,11,0.000401897,10,-1.10501e-06,-2.26191, , , ,0.000201964,
2,0,0,1,0,20883.8,0.000199195,-0.00019553,-5.45644,11,0.000375062,10,1.0669e-06,-2.26309, , , ,-0.00019553,