File: Figure_codes/Fig_3-5/rawdata_trumpetplot_data/after 10th/20221101_1-115_003_TrumpetPlot_ParaChange_from10_every3_09_CV_C01_31.csv
mode,ox/red,error,control changes,counter inc.,time/s,control/V,Ewe/V,<I>/mA,cycle number,(Q-Qo)/C,I Range,P/W,log(|I|),Tafel slope mV/dec,alpha_eff,dI/d(E-IR),E-IR/V,
2,0,0,0,0,62256.6,2.44065e-05,-0.000458935,-5.2627,32,0.0000000E+000,10,2.41524e-06,-2.27879, , , ,-0.000458935,
2,0,0,1,0,62256.6,0.00179726,0.00137137,-3.3668,32,-7.37639e-05,10,-4.61714e-06,-2.47278, , , ,0.001371373,
2,0,0,1,0,62256.6,0.00379485,0.00344442,-1.99937,32,-0.000126263,10,-6.88668e-06,-2.69911,-0.00770953,-7.65286,584.695,0.00344442,
2,0,0,1,0,62256.6,0.00579244,0.0054017,-1.01029,32,-0.000155729,10,-5.45728e-06,-2.99555,-0.00417656,-14.1264,445.048,0.0054017,
2,0,0,1,0,62256.6,0.00779002,0.00744072,-0.220828,32,-0.000167605,10,-1.64312e-06,-3.65595,-0.010259,-5.75105,354.553,0.00744072,
2,1,0,1,0,62256.7,0.00978761,0.00941008,0.410891,32,-0.00016532,10,3.86652e-06,-3.38627,0.00636485,9.26966,289.555,0.00941008,
2,1,0,1,0,62256.7,0.0117852,0.0114147,0.92985,32,-0.0001516,10,1.06139e-05,-3.03159,0.00768267,7.67962,237.128,0.0114147,
2,1,0,1,0,62256.7,0.0137828,0.0133911,1.3549,32,-0.000128531,10,1.81436e-05,-2.86809,0.0149916,3.93553,197.707,0.0133911,
2,1,0,1,0,62256.7,0.0157804,0.0154425,1.72618,32,-9.74911e-05,10,2.66567e-05,-2.76291,0.0224432,2.62886,172.047,0.0154425,
2,1,0,1,0,62256.7,0.017778,0.0174101,2.04636,32,-5.97177e-05,10,3.56274e-05,-2.68902,0.0307295,1.91998,150.374,0.0174101,
2,1,0,1,0,62256.8,0.0197755,0.0193674,2.31638,32,-1.59427e-05,10,4.48622e-05,-2.63519,0.0414472,1.4235,127.334,0.0193674,
2,1,0,1,0,62256.8,0.0217731,0.0214176,2.55665,32,3.29704e-05,10,5.47574e-05,-2.59233,0.0517982,1.13904,112.794,0.0214176,
2,1,0,1,0,62256.8,0.0237707,0.0234068,2.77201,32,8.64012e-05,10,6.48839e-05,-2.55721,0.0623412,0.946404,101.836,0.0234068,
2,1,0,1,0,62256.8,0.0257683,0.0254556,2.96786,32,0.000143631,10,7.55486e-05,-2.52756,0.0744639,0.79233,91.2498,0.0254556,
2,1,0,1,0,62256.8,0.0277659,0.0274116,3.13744,32,0.000204778,10,8.60021e-05,-2.50342,0.0874425,0.674729,82.4258,0.0274116,
2,1,0,1,0,62256.9,0.0297635,0.0294648,3.29832,32,0.000269287,10,9.71844e-05,-2.48171,0.0975858,0.604596,77.6319,0.0294648,
2,1,0,1,0,62256.9,0.0317611,0.0314078,3.44767,32,0.000336858,10,0.000108284,-2.46247,0.107053,0.551126,74.0631,0.0314078,
2,1,0,1,0,62256.9,0.0337587,0.0334389,3.59266,32,0.000406974,10,0.000120135,-2.44458,0.119659,0.493068,68.9577,0.0334389,
2,1,0,1,0,62256.9,0.0357562,0.0353995,3.72293,32,0.000480196,10,0.00013179,-2.42912,0.134813,0.437642,63.4964,0.0353995,
2,1,0,1,0,62256.9,0.0377538,0.0374203,3.84546,32,0.000555945,10,0.000143898,-2.41505,0.148785,0.396546,59.4424,0.0374203,
2,1,0,1,0,62257,0.0397514,0.039412,3.96144,32,0.000634092,10,0.000156128,-2.40215,0.148069,0.398464,61.668,0.039412,
2,1,0,1,0,62257,0.041749,0.0413562,4.08818,32,0.000714248,10,0.000169072,-2.38847,0.160171,0.368357,58.6222,0.0413562,
2,1,0,1,0,62257,0.0437466,0.0434215,4.19649,32,0.000797143,10,0.000182218,-2.37711,0.182929,0.32253,52.7966,0.0434215,
2,1,0,1,0,62257,0.0457442,0.0454153,4.30249,32,0.000882134,10,0.000195399,-2.36628,0.191441,0.30819,51.7045,0.0454153,
2,1,0,1,0,62257,0.0477418,0.0474108,4.40275,32,0.000969251,10,0.000208738,-2.35628,0.192135,0.307077,52.8192,0.0474108,
2,1,0,1,0,62257.1,0.0497484,0.0494193,4.51398,32,0.00105845,10,0.000223077,-2.34544,0.202754,0.290993,51.1486,0.0494193,
2,1,0,1,0,62257.1,0.0517369,0.0513955,4.60656,32,0.00114924,10,0.000236757,-2.33662,0.216022,0.27312,49.145,0.0513955,
2,1,0,1,0,62257.1,0.0537345,0.0533814,4.7087,32,0.00124244,10,0.000251357,-2.3271,0.21591,0.273262,50.1774,0.0533814,
2,1,0,1,0,62257.1,0.0557321,0.0553495,4.80496,32,0.00133765,10,0.000265952,-2.31831,0.239068,0.246792,46.2356,0.0553495,
2,1,0,1,0,62257.1,0.0577206,0.0573761,4.89339,32,0.00143424,10,0.000280764,-2.31039,0.24283,0.242969,46.4487,0.0573761,
2,1,0,1,0,62257.2,0.0597273,0.0594015,4.99318,32,0.00153327,10,0.000296602,-2.30162,0.240771,0.245046,47.7022,0.0594015,
2,1,0,1,0,62257.2,0.0617249,0.0613684,5.08383,32,0.00163412,10,0.000311986,-2.29381,0.267991,0.220156,43.6441,0.0613684,
2,1,0,1,0,62257.2,0.0637224,0.0633851,5.16704,32,0.00173672,10,0.000327513,-2.28676,0.280082,0.210653,42.4944,0.0633851,
2,1,0,1,0,62257.2,0.06572,0.0653958,5.25498,32,0.00184105,10,0.000343653,-2.27943,0.264381,0.223162,45.7932,0.06539578,
2,1,0,1,0,62257.2,0.0677176,0.0673786,5.34991,32,0.00194675,10,0.00036047,-2.27165,0.283867,0.207844,43.3237,0.0673786,
2,1,0,1,0,62257.3,0.0697152,0.0693899,5.42801,32,0.00205464,10,0.000376649,-2.26536,0.306342,0.192595,40.8164,0.06938985,
2,1,0,1,0,62257.3,0.0717128,0.0713388,5.51155,32,0.0021641,10,0.000393188,-2.25873,0.308816,0.191052,41.0771,0.0713388,
2,1,0,1,0,62257.3,0.0737104,0.0733596,5.59108,32,0.00227519,10,0.000410159,-2.2525,0.315462,0.187028,40.829,0.0733596,
2,1,0,1,0,62257.3,0.075708,0.0753828,5.67666,32,0.0023874,10,0.000427923,-2.24591,0.328015,0.17987,39.8008,0.0753828,
2,1,0,1,0,62257.3,0.0777056,0.0773353,5.74932,32,0.00250165,10,0.000444625,-2.24038,0.364908,0.161685,36.2762,0.0773353,
2,1,0,1,0,62257.4,0.0797031,0.0793855,5.82187,32,0.00261739,10,0.000462172,-2.23494,0.372375,0.158442,35.9989,0.0793855,
2,1,0,1,0,62257.4,0.0817007,0.0813775,5.89483,32,0.0027346,10,0.000479707,-2.22953,0.383587,0.153811,35.3696,0.0813775,
2,1,0,1,0,62257.4,0.0836983,0.0833792,5.96312,32,0.00285261,10,0.0004972,-2.22453,0.406207,0.145246,33.7949,0.0833792,
2,1,0,1,0,62257.4,0.0856959,0.0853597,6.02941,32,0.00297257,10,0.000514669,-2.21973,0.420681,0.140249,32.9985,0.0853597,
2,1,0,1,0,62257.4,0.0876935,0.0873747,6.09497,32,0.00309386,10,0.000532546,-2.21503,0.452846,0.130287,30.9724,0.0873747,
2,1,0,1,0,62257.5,0.0896911,0.0893697,6.15361,32,0.00321638,10,0.000549946,-2.21087,0.446975,0.131999,31.721,0.0893697,
2,1,0,1,0,62257.5,0.0916887,0.0913394,6.22073,32,0.00333961,10,0.000568198,-2.20616,0.414967,0.14218,34.5273,0.0913394,
2,1,0,1,0,62257.5,0.0936863,0.0933721,6.2918,32,0.00346485,10,0.000587479,-2.20123,0.435653,0.135429,33.2257,0.0933721,
2,1,0,1,0,62257.5,0.0956838,0.0953039,6.35246,32,0.00359133,10,0.000605414,-2.19706,0.448535,0.131539,32.6327,0.0953039,
2,1,0,1,0,62257.5,0.0976814,0.0973657,6.42212,32,0.00371912,10,0.000625295,-2.19232,0.401942,0.146787,36.814,0.0973657,
2,1,0,1,0,62257.6,0.099679,0.0993304,6.50069,32,0.00384772,10,0.000645716,-2.18704,0.398677,0.147989,37.5209,0.0993304,
2,1,0,1,0,62257.6,0.101677,0.101345,6.57143,32,0.00397854,10,0.000665981,-2.18234,0.38256,0.154224,39.6029,0.101345,
2,1,0,1,0,62257.6,0.103674,0.10334,6.6595,32,0.00411091,10,0.000688195,-2.17656,0.338271,0.174416,45.3414,0.10334,
2,1,0,1,0,62257.6,0.105672,0.105317,6.75153,32,0.0042451,10,0.000711052,-2.1706,0.316354,0.1865,49.1784,0.105317,
2,1,0,1,0,62257.6,0.107667,0.107311,6.85477,32,0.00438052,10,0.000735593,-2.16401,0.306457,0.192523,51.5,0.107311,
2,1,0,1,0,62257.7,0.109667,0.109327,6.95802,32,0.00451867,10,0.000760696,-2.15751,0.294566,0.200294,54.4265,0.109327,
2,1,0,1,0,62257.7,0.111665,0.111298,7.07177,32,0.004659,10,0.000787075,-2.15047,0.281613,0.209508,57.8329,0.111298,
2,1,0,1,0,62257.7,0.113662,0.113329,7.1895,32,0.00480162,10,0.000814781,-2.1433,0.278938,0.211516,59.3618,0.113329,
2,1,0,1,0,62257.7,0.11566,0.115343,7.3119,32,0.00494662,10,0.00084338,-2.13597,0.263749,0.223698,63.8769,0.115343,
2,1,0,1,0,62257.7,0.117657,0.117337,7.44549,32,0.00509351,10,0.00087363,-2.12811,0.266659,0.221256,64.232,0.117337,
2,1,0,1,0,62257.8,0.119655,0.119312,7.56681,32,0.00524365,10,0.00090281,-2.12109,0.289334,0.203917,60.193,0.119312,
2,1,0,1,0,62257.8,0.121652,0.121282,7.68299,32,0.00539622,10,0.000931813,-2.11447,0.296399,0.199056,59.6997,0.121282,
2,1,0,1,0,62257.8,0.12365,0.123286,7.80405,32,0.00555117,10,0.000962128,-2.10768,0.304909,0.1935,58.9075,0.123286,
2,1,0,1,0,62257.8,0.125648,0.125294,7.91933,32,0.00570773,10,0.000992247,-2.10131,0.333422,0.176953,54.6537,0.125294,
2,1,0,1,0,62257.8,0.127645,0.12733,8.02507,32,0.00586722,10,0.00102183,-2.09555,0.350398,0.16838,52.7326,0.12733,
2,1,0,1,0,62257.9,0.129643,0.129306,8.13088,32,0.00602882,10,0.00105137,-2.08986,0.369642,0.159614,50.6142,0.129306,
2,1,0,1,0,62257.9,0.13164,0.131306,8.2263,32,0.00619249,10,0.00108016,-2.0848,0.41839,0.141017,45.2404,0.131306,
2,1,0,1,0,62257.9,0.133638,0.133277,8.31053,32,0.00635717,10,0.0011076,-2.08037,0.464827,0.126929,41.1515,0.133277,
2,1,0,1,0,62257.9,0.135636,0.135257,8.3889,32,0.00652423,10,0.00113466,-2.07629,0.515047,0.114553,37.4862,0.135257,
2,1,0,1,0,62257.9,0.137633,0.137262,8.45991,32,0.00669273,10,0.00116123,-2.07263,0.607557,0.0971103,32.036,0.137262,
2,1,0,1,0,62258,0.139631,0.139267,8.51738,32,0.0068626,10,0.00118619,-2.06969,0.656426,0.0898807,29.8858,0.139267,
2,1,0,1,0,62258,0.141628,0.141286,8.58016,32,0.00703277,10,0.00121225,-2.0665,0.792203,0.0744759,24.9013,0.141286,
2,1,0,1,0,62258,0.143626,0.143282,8.61735,32,0.00720479,10,0.00123471,-2.06463,1.16716,0.05055,16.9939,0.143282,
2,1,0,1,0,62258,0.145624,0.145283,8.64808,32,0.00737754,10,0.00125642,-2.06308,2.38927,0.0246937,8.32065,0.1452827,
2,1,0,1,0,62258,0.147621,0.147265,8.65049,32,0.00755057,10,0.00127391,-2.06296,-64.395,-0.000916221,-0.30921,0.147265,
2,1,0,1,0,62258.1,0.149619,0.149238,8.64686,32,0.00772276,10,0.00129044,-2.06314,-1.75955,-0.0335314,-11.2905,0.149238,
2,1,0,1,0,62258.1,0.151616,0.151288,8.60507,32,0.00789531,10,0.00130184,-2.06525,-0.682308,-0.0864712,-28.9825,0.151288,
2,1,0,1,0,62258.1,0.153614,0.153278,8.52977,32,0.00806672,10,0.00130743,-2.06906,-0.429811,-0.13727,-45.6178,0.153278,
2,1,0,1,0,62258.1,0.155611,0.155213,8.42598,32,0.00823634,10,0.00130783,-2.07438,-0.344828,-0.1711,-56.2033,0.155213,
2,1,0,1,0,62258.1,0.157609,0.15728,8.30488,32,0.00840285,10,0.00130619,-2.08067,-0.254104,-0.232189,-74.9776,0.15728,
2,1,0,1,0,62258.2,0.159607,0.159237,8.12429,32,0.00856717,10,0.00129369,-2.09021,-0.196349,-0.300486,-95.1437,0.159237,
2,1,0,1,0,62258.2,0.161604,0.161277,7.92451,32,0.00872769,10,0.00127804,-2.10103,-0.171932,-0.34316,-105.919,0.161277,
2,1,0,1,0,62258.2,0.163602,0.163269,7.69729,32,0.00888391,10,0.00125673,-2.11366,-0.149767,-0.393944,-118.182,0.163269,
2,1,0,1,0,62258.2,0.165606,0.165258,7.45413,32,0.00903543,10,0.00123185,-2.1276,-0.135621,-0.435037,-126.397,0.165258,
2,1,0,1,0,62258.2,0.167597,0.167221,7.19772,32,0.00918127,10,0.00120361,-2.14281,-0.131058,-0.450183,-126.465,0.167221,
2,1,0,1,0,62258.3,0.169595,0.16926,6.948,32,0.00932272,10,0.00117602,-2.15814,-0.126999,-0.46457,-125.846,0.16926,
2,1,0,1,0,62258.3,0.171592,0.171251,6.69052,32,0.00945912,10,0.00114576,-2.17454,-0.123568,-0.47747,-124.784,0.171251,
2,1,0,1,0,62258.3,0.173581,0.173241,6.45121,32,0.00958986,10,0.00111761,-2.19036,-0.128518,-0.45908,-115.67,0.173241,
2,1,0,1,0,62258.3,0.175587,0.175257,6.22722,32,0.00971669,10,0.00109136,-2.20571,-0.130181,-0.453216,-110.175,0.175257,
2,1,0,1,0,62258.3,0.177585,0.177228,6.01189,32,0.00983904,10,0.00106548,-2.22099,-0.134,-0.4403,-103.421,0.177228,
2,1,0,1,0,62258.4,0.179582,0.179245,5.81473,32,0.00995723,10,0.00104226,-2.23547,-0.142658,-0.413575,-93.954,0.179245,
2,1,0,1,0,62258.4,0.18158,0.181248,5.63419,32,0.0100716,10,0.00102119,-2.24917,-0.150822,-0.391189,-86.1222,0.181248,
2,1,0,1,0,62258.4,0.183578,0.183237,5.47098,32,0.0101821,10,0.00100248,-2.26193,-0.158147,-0.37307,-79.6859,0.183237,
2,1,0,1,0,62258.4,0.185575,0.185254,5.31496,32,0.01029,10,0.000984621,-2.2745,-0.166784,-0.353751,-73.4908,0.185254,
2,1,0,1,0,62258.4,0.187573,0.187222,5.17808,32,0.0103949,10,0.000969451,-2.28583,-0.181545,-0.324989,-65.7446,0.187222,
2,1,0,1,0,62258.5,0.18957,0.189219,5.05433,32,0.0104973,10,0.000956374,-2.29634,-0.196684,-0.299974,-59.2274,0.189219,
2,1,0,1,0,62258.5,0.191568,0.191208,4.94203,32,0.0105968,10,0.000944953,-2.30609,-0.208025,-0.28362,-54.7439,0.191208,
2,1,0,1,0,62258.5,0.193566,0.193155,4.83882,32,0.0106947,10,0.000934645,-2.31526,-0.231734,-0.254603,-48.1357,0.193155,
2,1,0,1,0,62258.5,0.195563,0.195237,4.74808,32,0.0107906,10,0.000927,-2.32348,-0.241948,-0.243854,-45.1821,0.195237,
2,1,0,1,0,62258.5,0.197561,0.197169,4.6575,32,0.0108846,10,0.000918313,-2.33185,-0.257714,-0.228936,-41.6837,0.197169,
2,1,0,1,0,62258.6,0.199558,0.19918,4.5837,32,0.0109766,10,0.000912983,-2.33878,-0.291466,-0.202425,-36.2115,0.19918,
2,1,0,1,0,62258.6,0.201556,0.201221,4.51076,32,0.0110675,10,0.000907659,-2.34575,-0.292016,-0.202044,-35.5744,0.201221,
2,1,0,1,0,62258.6,0.203553,0.203214,4.44021,32,0.0111571,10,0.000902312,-2.3526,-0.315693,-0.186891,-32.4317,0.203214,
2,1,0,1,0,62258.6,0.205551,0.205165,4.38286,32,0.0112453,10,0.000899208,-2.35824,-0.403674,-0.146158,-25.0408,0.205165,
2,1,0,1,0,62258.6,0.207549,0.207209,4.34016,32,0.0113321,10,0.000899321,-2.36249,-0.412004,-0.143203,-24.2211,0.207209,
2,1,0,1,0,62258.7,0.209546,0.209192,4.28532,32,0.0114184,10,0.000896453,-2.36802,-0.3756,-0.157082,-26.2817,0.209192,
2,1,0,1,0,62258.7,0.211544,0.211232,4.23445,32,0.0115036,10,0.000894449,-2.3732,-0.403195,-0.146331,-24.1927,0.211232,
2,1,0,1,0,62258.7,0.213541,0.213231,4.1876,32,0.0115878,10,0.000892926,-2.37804,-0.463301,-0.127347,-20.839,0.213231,
2,1,0,1,0,62258.7,0.215539,0.215196,4.15183,32,0.0116708,10,0.000893458,-2.38176,-0.53187,-0.110929,-17.9749,0.215196,
2,1,0,1,0,62258.7,0.217537,0.217181,4.11659,32,0.0117535,10,0.000894047,-2.38546,-0.534534,-0.110377,-17.7301,0.2171813,
2,1,0,1,0,62258.8,0.219534,0.219232,4.08028,32,0.0118355,10,0.000894526,-2.38931,-0.564922,-0.104439,-16.6437,0.219232,
2,1,0,1,0,62258.8,0.221532,0.221157,4.05042,32,0.0119168,10,0.000895779,-2.3925,-0.556865,-0.10595,-16.7359,0.221157,
2,1,0,1,0,62258.8,0.223525,0.223141,4.01485,32,0.0119971,10,0.000895878,-2.39633,-0.637605,-0.0925338,-14.5213,0.223141,
2,1,0,1,0,62258.8,0.225527,0.225191,3.99184,32,0.0120773,10,0.000898927,-2.39883,-0.78891,-0.0747867,-11.6492,0.225191,
2,1,0,1,0,62258.8,0.227525,0.227188,3.96771,32,0.0121569,10,0.000901415,-2.40146,-0.672378,-0.0877483,-13.5764,0.227188,
2,1,0,1,0,62258.9,0.229522,0.229219,3.93715,32,0.012236,10,0.000902471,-2.40482,-0.7066,-0.0834984,-12.8458,0.2292192,
2,1,0,1,0,62258.9,0.23152,0.231177,3.91646,32,0.0123145,10,0.000905397,-2.40711,-1.07621,-0.0548218,-8.38799,0.231177,
2,1,0,1,0,62258.9,0.233517,0.233186,3.90388,32,0.0123924,10,0.00091033,-2.4085,-1.03062,-0.0572471,-8.71103,0.233186,
2,1,0,1,0,62258.9,0.235515,0.235182,3.88158,32,0.0124702,10,0.000912877,-2.41099,-0.770294,-0.0765941,-11.5999,0.235182,
2,1,0,1,0,62258.9,0.237512,0.237195,3.85737,32,0.0125476,10,0.00091495,-2.41371,-0.871766,-0.0676787,-10.1991,0.237195,
2,1,0,1,0,62259,0.23951,0.23913,3.84131,32,0.0126246,10,0.000918572,-2.41552,-1.23096,-0.0479299,-7.18885,0.23913,
2,1,0,1,0,62259,0.241508,0.241142,3.829,32,0.012701,10,0.000923333,-2.41691,-1.03339,-0.0570934,-8.52079,0.241142,
2,1,0,1,0,62259,0.243505,0.243162,3.80695,32,0.0127773,10,0.000925707,-2.41942,-1.07785,-0.0547386,-8.14485,0.243162,
2,1,0,1,0,62259,0.245503,0.245153,3.79633,32,0.0128534,10,0.000930683,-2.42064,-1.27426,-0.0463014,-6.85439,0.2451532,
2,1,0,1,0,62259,0.2475,0.247157,3.77957,32,0.0129291,10,0.000934148,-2.42256,-1.23467,-0.047786,-7.05357,0.247157,
2,1,0,1,0,62259.1,0.249498,0.249153,3.76811,32,0.0130043,10,0.000938838,-2.42388,-1.51696,-0.0388935,-5.71958,0.249153,
2,1,0,1,0,62259.1,0.251496,0.251159,3.75668,32,0.0130795,10,0.000943525,-2.4252,-1.35951,-0.0433979,-6.36032,0.251159,
2,1,0,1,0,62259.1,0.253493,0.253173,3.74255,32,0.0131545,10,0.000947512,-2.42683,-1.28937,-0.0457588,-6.68485,0.2531729,
2,1,0,1,0,62259.1,0.255491,0.25516,3.72993,32,0.0132292,10,0.000951731,-2.4283,-1.65409,-0.0356692,-5.19551,0.25516,
2,1,0,1,0,62259.1,0.257488,0.257135,3.72197,32,0.0133033,10,0.000957047,-2.42923,-1.71972,-0.0343079,-4.98092,0.257135,
2,1,0,1,0,62259.2,0.259486,0.259115,3.71023,32,0.0133776,10,0.000961378,-2.4306,-1.10392,-0.0534457,-7.73085,0.259115,
2,1,0,1,0,62259.2,0.261484,0.26116,3.69085,32,0.0134517,10,0.000963901,-2.43287,-1.20813,-0.0488357,-7.04443,0.26116,
2,1,0,1,0,62259.2,0.263481,0.263122,3.68201,32,0.0135255,10,0.000968817,-2.43391,-2.79476,-0.0211109,-3.03585,0.263122,
2,1,0,1,0,62259.2,0.265479,0.265172,3.67867,32,0.0135988,10,0.000975479,-2.43431,-1.7134,-0.0344344,-4.93482,0.2651718,
2,1,0,1,0,62259.2,0.267476,0.267132,3.66222,32,0.0136722,10,0.000978295,-2.43626,-1.18747,-0.0496853,-7.10608,0.267132,
2,1,0,1,0,62259.3,0.269474,0.269098,3.65077,32,0.0137454,10,0.000982416,-2.43762,-1.96931,-0.0299597,-4.27198,0.269098,
2,1,0,1,0,62259.3,0.271471,0.271134,3.64513,32,0.0138185,10,0.000988316,-2.43829,-5.05978,-0.0116606,-1.65987,0.271134,
2,1,0,1,0,62259.3,0.273469,0.273092,3.64414,32,0.013891,10,0.000995186,-2.43841,-1.88668,-0.0312718,-4.43787,0.273092,
2,1,0,1,0,62259.3,0.275467,0.275115,3.62746,32,0.0139637,10,0.000997968,-2.4404,-1.51809,-0.0388647,-5.51018,0.2751151,
2,1,0,1,0,62259.3,0.277464,0.277189,3.62157,32,0.0140362,10,0.00100386,-2.4411,-1.87515,-0.0314642,-4.4434,0.277189,
2,1,0,1,0,62259.4,0.279462,0.279118,3.60967,32,0.0141085,10,0.00100752,-2.44253,-1.653,-0.0356928,-5.03102,0.279118,
2,1,0,1,0,62259.4,0.281464,0.281106,3.60186,32,0.0141806,10,0.0010125,-2.44347,-2.53505,-0.0232737,-3.27269,0.281106,
2,1,0,1,0,62259.4,0.283457,0.283137,3.59652,32,0.0142522,10,0.00101831,-2.44412,-1.86962,-0.0315572,-4.42497,0.2831367,
2,1,0,1,0,62259.4,0.285455,0.285137,3.58402,32,0.0143241,10,0.00102194,-2.44563,-1.28002,-0.0460931,-6.44678,0.2851375,
2,1,0,1,0,62259.4,0.287452,0.28708,3.5711,32,0.0143957,10,0.00102519,-2.4472,-1.62781,-0.0362451,-5.0554,0.28708,
2,1,0,1,0,62259.5,0.28945,0.289138,3.5638,32,0.014467,10,0.00103043,-2.44809,-2.43322,-0.0242477,-3.37293,0.289138,
2,1,0,1,0,62259.5,0.291447,0.291111,3.5575,32,0.014538,10,0.00103563,-2.44886,-1.56401,-0.0377237,-5.23153,0.291111,
2,1,0,1,0,62259.5,0.293445,0.293086,3.54314,32,0.0146091,10,0.00103845,-2.45061,-1.68067,-0.0351051,-4.8607,0.293086,
2,1,0,1,0,62259.5,0.295442,0.295081,3.5382,32,0.01468,10,0.00104406,-2.45122,-2.48449,-0.0237473,-3.27761,0.295081,
2,1,0,1,0,62259.5,0.29744,0.297108,3.52996,32,0.0147507,10,0.00104878,-2.45223,-2.17419,-0.0271365,-3.73918,0.297108,
2,1,0,1,0,62259.6,0.299438,0.299102,3.52317,32,0.0148209,10,0.00105379,-2.45307,-0.0435906,-1.3535,-175.523,0.2991024,
2,1,0,1,0,62259.6,0.299737,0.299421,3.12403,32,0.0148499,10,0.0009354,-2.50528,0.00519378,11.3597,1090.83,0.299421,
2,1,0,1,0,62259.6,0.29774,0.297373,1.63659,32,0.0148954,10,0.000486678,-2.78606,0.00667898,8.83369,581.607,0.297373,
2,1,0,1,0,62259.6,0.295742,0.295386,0.777321,32,0.0149189,10,0.00022961,-3.1094,0.0042751,13.8008,362.83,0.2953862,
2,1,0,1,0,62259.6,0.293745,0.29339,0.191584,32,0.0149282,10,5.62088e-05,-3.71764,0.00747591,7.89202,253.124,0.2933903,
2,0,0,1,0,62259.6,0.291747,0.291412,-0.228578,32,0.0149276,10,-6.66103e-05,-3.64097,-0.00869144,-6.78829,186.203,0.291412,
2,0,0,1,0,62259.7,0.289754,0.289401,-0.551309,32,0.0149197,10,-0.000159549,-3.2586,-0.00740398,-7.96869,141.976,0.289401,
2,0,0,1,0,62259.7,0.287752,0.28738,-0.801125,32,0.0149061,10,-0.000230227,-3.0963,-0.0153821,-3.83563,112.656,0.28738,
2,0,0,1,0,62259.7,0.285754,0.285438,-0.997739,32,0.0148881,10,-0.000284792,-3.00098,-0.0247552,-2.38334,90.2044,0.285438,
2,0,0,1,0,62259.7,0.283757,0.283394,-1.16062,32,0.0148664,10,-0.000328913,-2.93531,-0.0355013,-1.66191,74.0119,0.283394,
2,0,0,1,0,62259.7,0.281759,0.281386,-1.29761,32,0.0148418,10,-0.00036513,-2.88685,-0.0467773,-1.26129,63.1033,0.281386,
2,0,0,1,0,62259.8,0.279761,0.279419,-1.41146,32,0.0148147,10,-0.000394389,-2.85033,-0.0584503,-1.00941,55.3408,0.279419,
2,0,0,1,0,62259.8,0.277764,0.277408,-1.51775,32,0.0147854,10,-0.000421035,-2.8188,-0.0715544,-0.824548,48.4672,0.277408,
2,0,0,1,0,62259.8,0.275766,0.275426,-1.60499,32,0.0147541,10,-0.000442055,-2.79453,-0.0892729,-0.660895,41.2156,0.275426,
2,0,0,1,0,62259.8,0.273769,0.273449,-1.68095,32,0.0147212,10,-0.000459653,-2.77445,-0.101649,-0.580428,38.0659,0.273449,
2,0,0,1,0,62259.8,0.271771,0.2714,-1.75823,32,0.0146869,10,-0.000477184,-2.75492,-0.11117,-0.530717,36.3168,0.2714,
2,0,0,1,0,62259.9,0.269774,0.269402,-1.8279,32,0.014651,10,-0.00049244,-2.73805,-0.132714,-0.444565,31.5845,0.269402,
2,0,0,1,0,62259.9,0.267776,0.267416,-1.88409,32,0.0146138,10,-0.000503836,-2.7249,-0.157273,-0.375144,27.5639,0.267416,
2,0,0,1,0,62259.9,0.265778,0.265387,-1.93857,32,0.0145756,10,-0.000514472,-2.71252,-0.163062,-0.361825,27.3714,0.265387,
2,0,0,1,0,62259.9,0.263781,0.263412,-1.99366,32,0.0145364,10,-0.000525156,-2.70035,-0.172341,-0.342345,26.5992,0.263412,
2,0,0,1,0,62259.9,0.261783,0.261421,-2.04408,32,0.014496,10,-0.000534364,-2.6895,-0.194771,-0.30292,24.1353,0.261421,
2,0,0,1,0,62260,0.259786,0.259413,-2.09019,32,0.0144547,10,-0.000542223,-2.67981,-0.21367,-0.276126,22.5073,0.2594128,
2,0,0,1,0,62260,0.257788,0.257437,-2.13374,32,0.0144125,10,-0.000549304,-2.67086,-0.220446,-0.26764,22.2922,0.257437,
2,0,0,1,0,62260,0.25579,0.255435,-2.17886,32,0.0143696,10,-0.000556559,-2.66177,-0.229018,-0.257622,21.884,0.2554352,
2,0,0,1,0,62260,0.253793,0.253493,-2.22005,32,0.0143256,10,-0.000562767,-2.65364,-0.270286,-0.218287,18.8788,0.253493,
2,0,0,1,0,62260,0.251795,0.251472,-2.25368,32,0.014281,10,-0.000566739,-2.64711,-0.305387,-0.193197,16.9969,0.251472,
2,0,0,1,0,62260.1,0.249798,0.249446,-2.28884,32,0.0142356,10,-0.000570941,-2.64038,-0.290464,-0.203123,18.1508,0.249446,
2,0,0,1,0,62260.1,0.2478,0.247487,-2.32602,32,0.0141897,10,-0.00057566,-2.63339,-0.300036,-0.196643,17.8365,0.247487,
2,0,0,1,0,62260.1,0.245802,0.245464,-2.35987,32,0.0141429,10,-0.000579261,-2.62711,-0.348823,-0.16914,15.5603,0.245464,
2,0,0,1,0,62260.1,0.243805,0.243455,-2.38876,32,0.0140954,10,-0.000581555,-2.62183,-0.388648,-0.151808,14.1486,0.243455,
2,0,0,1,0,62260.1,0.241807,0.241455,-2.41659,32,0.0140473,10,-0.000583497,-2.6168,-0.339563,-0.173753,16.4186,0.241455,
2,0,0,1,0,62260.2,0.23981,0.239477,-2.45406,32,0.0139988,10,-0.000587693,-2.61011,-0.332191,-0.177609,16.9841,0.239477,
2,0,0,1,0,62260.2,0.237812,0.23747,-2.48426,32,0.0139494,10,-0.000589938,-2.6048,-0.409977,-0.143911,13.9398,0.23747,
2,0,0,1,0,62260.2,0.235815,0.235456,-2.51011,32,0.0138995,10,-0.000591022,-2.60031,-0.445809,-0.132344,12.9665,0.235456,
2,0,0,1,0,62260.2,0.233817,0.233413,-2.53687,32,0.0138491,10,-0.000592138,-2.5957,-0.396729,-0.148716,14.7393,0.233413,
2,0,0,1,0,62260.2,0.231815,0.231447,-2.56921,32,0.0137981,10,-0.000594636,-2.5902,-0.391119,-0.150849,15.1115,0.2314472,
2,0,0,1,0,62260.3,0.229822,0.22943,-2.59706,32,0.0137467,10,-0.000595843,-2.58552,-0.478352,-0.12334,12.4861,0.22943,
2,0,0,1,0,62260.3,0.227824,0.227473,-2.61883,32,0.0136947,10,-0.000595713,-2.58189,-0.515856,-0.114373,11.6956,0.227473,
2,0,0,1,0,62260.3,0.225827,0.225458,-2.64351,32,0.0136421,10,-0.000596001,-2.57782,-0.469977,-0.125538,12.9562,0.225458,
2,0,0,1,0,62260.3,0.223829,0.223504,-2.67026,32,0.0135889,10,-0.000596812,-2.57345,-0.441316,-0.133691,13.9361,0.223504,
2,0,0,1,0,62260.3,0.221831,0.221497,-2.6987,32,0.0135355,10,-0.000597756,-2.56884,-0.520814,-0.113284,11.9121,0.221497,
2,0,0,1,0,62260.4,0.219834,0.219447,-2.71858,32,0.0134814,10,-0.000596584,-2.56566,-0.519914,-0.11348,12.059,0.219447,
2,0,0,1,0,62260.4,0.217836,0.217477,-2.74719,32,0.0134267,10,-0.00059745,-2.56111,-0.531276,-0.111053,11.8843,0.217477,
2,0,0,1,0,62260.4,0.215839,0.215481,-2.76571,32,0.0133716,10,-0.000595959,-2.55819,-0.512663,-0.115085,12.4498,0.2154811,
2,0,0,1,0,62260.4,0.213841,0.213493,-2.79678,32,0.0133162,10,-0.000597095,-2.55334,-0.483861,-0.121936,13.2853,0.213493,
2,0,0,1,0,62260.4,0.211843,0.211549,-2.81795,32,0.0132601,10,-0.000596135,-2.55007,-0.597487,-0.0987469,10.8619,0.211549,
2,0,0,1,0,62260.5,0.209846,0.209484,-2.84033,32,0.0132035,10,-0.000595004,-2.54663,-0.585357,-0.100793,11.1735,0.2094841,
2,0,0,1,0,62260.5,0.207848,0.207504,-2.86315,32,0.0131465,10,-0.000594115,-2.54316,-0.447013,-0.131987,14.7831,0.2075036,
2,0,0,1,0,62260.5,0.205851,0.205466,-2.89973,32,0.0130891,10,-0.000595796,-2.53764,-0.525857,-0.112198,12.6473,0.205466,
2,0,0,1,0,62260.5,0.203853,0.203506,-2.91371,32,0.013031,10,-0.000592958,-2.53555,-0.665433,-0.088664,10.1035,0.203506,
2,0,0,1,0,62260.5,0.201856,0.201475,-2.94005,32,0.0129725,10,-0.000592348,-2.53165,-0.553856,-0.106526,12.2151,0.201475,
2,0,0,1,0,62260.6,0.199858,0.199491,-2.96276,32,0.0129135,10,-0.000591043,-2.5283,-0.529275,-0.111473,12.903,0.199491,
2,0,0,1,0,62260.6,0.19786,0.197458,-2.99189,32,0.0128542,10,-0.000590772,-2.52405,-0.591672,-0.0997175,11.6193,0.197458,
2,0,0,1,0,62260.6,0.195863,0.195534,-3.00874,32,0.0127943,10,-0.000588309,-2.52162,-0.566601,-0.10413,12.2579,0.1955338,
2,0,0,1,0,62260.6,0.193865,0.193462,-3.04087,32,0.0127338,10,-0.000588292,-2.517,-0.521647,-0.113103,13.3999,0.193462,
2,0,0,1,0,62260.6,0.191868,0.191493,-3.06288,32,0.0126728,10,-0.00058652,-2.51387,-0.583692,-0.101081,12.0897,0.191493,
2,0,0,1,0,62260.7,0.18987,0.189516,-3.08857,32,0.0126116,10,-0.000585334,-2.51024,-0.593148,-0.0994693,11.984,0.189516,
2,0,0,1,0,62260.7,0.187872,0.187444,-3.11141,32,0.0125496,10,-0.000583214,-2.50704,-0.546054,-0.108048,13.1344,0.187444,
2,0,0,1,0,62260.7,0.185875,0.18551,-3.1412,32,0.0124871,10,-0.000582722,-2.50291,-0.545941,-0.10807,13.2316,0.18551,
2,0,0,1,0,62260.7,0.183877,0.183534,-3.16314,32,0.0124241,10,-0.000580544,-2.49988,-0.474885,-0.124241,15.3789,0.183534,
2,0,0,1,0,62260.7,0.18188,0.181525,-3.20248,32,0.0123608,10,-0.000581329,-2.49451,-0.440407,-0.133967,16.71,0.181525,
2,0,0,1,0,62260.8,0.179882,0.179579,-3.22923,32,0.0122965,10,-0.000579902,-2.4909,-0.596622,-0.0988901,12.4559,0.179579,
2,0,0,1,0,62260.8,0.177885,0.177507,-3.25252,32,0.0122317,10,-0.000577346,-2.48778,-0.541447,-0.108967,13.8522,0.177507,
2,0,0,1,0,62260.8,0.175887,0.175513,-3.28555,32,0.0121664,10,-0.000576657,-2.48339,-0.46439,-0.127048,16.2864,0.175513,
2,0,0,1,0,62260.8,0.173896,0.173545,-3.31706,32,0.0121007,10,-0.000575657,-2.47925,-0.446941,-0.132009,17.101,0.173545,
2,0,0,1,0,62260.8,0.171892,0.171546,-3.3534,32,0.012034,10,-0.000575261,-2.47451,-0.464301,-0.127073,16.6141,0.171546,
2,0,0,1,0,62260.9,0.169894,0.16955,-3.38343,32,0.0119667,10,-0.000573659,-2.47064,-0.450477,-0.130972,17.3171,0.16955,
2,0,0,1,0,62260.9,0.167897,0.167546,-3.42265,32,0.0118986,10,-0.000573453,-2.46564,-0.411675,-0.143317,19.1379,0.167546,
2,0,0,1,0,62260.9,0.165899,0.165543,-3.46011,32,0.0118298,10,-0.000572797,-2.46091,-0.390843,-0.150956,20.4054,0.165543,
2,0,0,1,0,62260.9,0.163901,0.163514,-3.50494,32,0.0117604,10,-0.000573106,-2.45532,-0.358673,-0.164495,22.4995,0.163514,
2,0,0,1,0,62260.9,0.161904,0.161558,-3.54977,32,0.0116899,10,-0.000573494,-2.4498,-0.362223,-0.162883,22.564,0.161558,
2,0,0,1,0,62261,0.159906,0.159541,-3.59458,32,0.0116184,10,-0.000573483,-2.44435,-0.348994,-0.169057,23.7317,0.159541,
2,0,0,1,0,62261,0.157909,0.157567,-3.64449,32,0.0115461,10,-0.00057425,-2.43836,-0.295237,-0.19984,28.4757,0.157567,
2,0,0,1,0,62261,0.155911,0.155548,-3.70829,32,0.0114729,10,-0.000576816,-2.43083,-0.274999,-0.214546,31.0352,0.155548,
2,0,0,1,0,62261,0.153913,0.153545,-3.76931,32,0.011398,10,-0.000578758,-2.42374,-0.266731,-0.221197,32.5685,0.153545,
2,0,0,1,0,62261,0.151916,0.151568,-3.8379,32,0.011322,10,-0.000581704,-2.41591,-0.234025,-0.25211,37.8199,0.151568,
2,0,0,1,0,62261.1,0.149918,0.149577,-3.91936,32,0.0112445,10,-0.000586247,-2.40679,-0.211704,-0.278692,42.664,0.149577,
2,0,0,1,0,62261.1,0.147921,0.147569,-4.00854,32,0.0111656,10,-0.000591534,-2.39701,-0.202966,-0.29069,45.492,0.147569,
2,0,0,1,0,62261.1,0.145923,0.145563,-4.10197,32,0.0110845,10,-0.000597096,-2.38701,-0.194154,-0.303883,48.6856,0.145563,
2,0,0,1,0,62261.1,0.143926,0.143568,-4.20332,32,0.0110015,10,-0.000603461,-2.37641,-0.165751,-0.355955,58.5958,0.143568,
2,0,0,1,0,62261.1,0.141928,0.141566,-4.33621,32,0.0109162,10,-0.000613858,-2.36289,-0.142602,-0.41374,70.0663,0.141566,
2,0,0,1,0,62261.2,0.13993,0.139645,-4.47814,32,0.0108285,10,-0.000625352,-2.3489,-0.139255,-0.423684,74.1053,0.139645,
2,0,0,1,0,62261.2,0.137933,0.137595,-4.63043,32,0.0107375,10,-0.000637126,-2.33438,-0.132653,-0.44477,80.5282,0.137595,
2,0,0,1,0,62261.2,0.135935,0.135596,-4.80421,32,0.0106431,10,-0.000651433,-2.31838,-0.12296,-0.479832,90.0439,0.135596,
2,0,0,1,0,62261.2,0.133938,0.133592,-4.99089,32,0.0105452,10,-0.000666744,-2.30182,-0.117707,-0.501245,97.7605,0.133592,
2,0,0,1,0,62261.2,0.13194,0.13159,-5.19583,32,0.010444,10,-0.000683721,-2.28435,-0.115545,-0.510625,103.541,0.13159,
2,0,0,1,0,62261.3,0.129942,0.129582,-5.40614,32,0.010338,10,-0.000700537,-2.26711,-0.114696,-0.514402,108.593,0.1295817,
2,0,0,1,0,62261.3,0.127945,0.127607,-5.62845,32,0.0102276,10,-0.000718227,-2.24961,-0.118436,-0.498159,109.337,0.127607,
2,0,0,1,0,62261.3,0.125947,0.125546,-5.84735,32,0.0101129,10,-0.000734113,-2.23304,-0.121923,-0.483911,110.484,0.125546,
2,0,0,1,0,62261.3,0.12395,0.123541,-6.07768,32,0.00999437,10,-0.00075084,-2.21626,-0.121767,-0.484533,114.78,0.123541,
2,0,0,1,0,62261.3,0.121952,0.121621,-6.29791,32,0.00987058,10,-0.000765958,-2.2008,-0.130673,-0.45151,110.903,0.121621,
2,0,0,1,0,62261.4,0.119955,0.119598,-6.5149,32,0.00974243,10,-0.00077917,-2.18609,-0.139332,-0.42345,107.619,0.119598,
2,0,0,1,0,62261.4,0.117957,0.117595,-6.7312,32,0.00961,10,-0.000791554,-2.17191,-0.146271,-0.40336,105.874,0.117595,
2,0,0,1,0,62261.4,0.115955,0.115575,-6.94084,32,0.00947328,10,-0.000802188,-2.15859,-0.156603,-0.376749,101.923,0.115575,
2,0,0,1,0,62261.4,0.113962,0.113617,-7.13664,32,0.00933309,10,-0.000810843,-2.14651,-0.16751,-0.352217,98.0322,0.113617,
2,0,0,1,0,62261.4,0.111964,0.111645,-7.32607,32,0.00918842,10,-0.000817922,-2.13513,-0.177767,-0.331894,94.8595,0.111645,
2,0,0,1,0,62261.5,0.109967,0.109644,-7.51353,32,0.00903997,10,-0.000823811,-2.12416,-0.195448,-0.301871,88.4062,0.109644,
2,0,0,1,0,62261.5,0.107969,0.107586,-7.68495,32,0.00888795,10,-0.000826793,-2.11436,-0.211846,-0.278505,83.4883,0.107586,
2,0,0,1,0,62261.5,0.105971,0.105597,-7.85137,32,0.00873333,10,-0.000829083,-2.10505,-0.225249,-0.261932,80.1601,0.105597,
2,0,0,1,0,62261.5,0.103974,0.103651,-8.00041,32,0.00857478,10,-0.000829247,-2.09689,-0.257066,-0.229513,71.597,0.103651,
2,0,0,1,0,62261.5,0.101976,0.10161,-8.13684,32,0.00841334,10,-0.000826784,-2.08954,-0.298071,-0.197939,62.7707,0.10161,
2,0,0,1,0,62261.6,0.0999786,0.0996376,-8.25231,32,0.00824942,10,-0.00082224,-2.08342,-0.331094,-0.178197,57.3827,0.0996376,
2,0,0,1,0,62261.6,0.0979811,0.0976059,-8.36661,32,0.00808395,10,-0.00081663,-2.07745,-0.375142,-0.157274,51.2815,0.0976059,
2,0,0,1,0,62261.6,0.0959835,0.0956204,-8.45832,32,0.00791566,10,-0.000808788,-2.07272,-0.478141,-0.123394,40.679,0.0956204,
2,0,0,1,0,62261.6,0.0939859,0.0936328,-8.52823,32,0.00774583,10,-0.000798522,-2.06914,-0.609918,-0.0967343,32.174,0.0936328,
2,0,0,1,0,62261.6,0.0919883,0.0916282,-8.58676,32,0.00757467,10,-0.00078679,-2.06617,-0.770022,-0.0766212,25.6552,0.0916282,
2,0,0,1,0,62261.7,0.0899907,0.0896276,-8.63098,32,0.00740331,10,-0.000773574,-2.06394,-1.31598,-0.0448336,15.0772,0.0896276,
2,0,0,1,0,62261.7,0.0879931,0.0876177,-8.64723,32,0.00723045,10,-0.000757651,-2.06312,-3.00172,-0.0196554,6.6309,0.0876177,
2,0,0,1,0,62261.7,0.0859955,0.0856262,-8.65751,32,0.00705739,10,-0.00074131,-2.06261,-376.968,-0.000156512,0.0528194,0.08562617,
2,0,0,1,0,62261.7,0.083998,0.0836558,-8.64744,32,0.0068843,10,-0.000723409,-2.06311,3.30474,0.0178531,-6.02378,0.0836558,
2,0,0,1,0,62261.7,0.0820004,0.0816447,-8.63353,32,0.0067123,10,-0.000704882,-2.06381,1.76584,0.0334118,-11.2464,0.0816447,
2,0,0,1,0,62261.8,0.0800028,0.0796414,-8.60229,32,0.00653994,10,-0.000685098,-2.06539,1.28119,0.0460508,-15.461,0.0796414,
2,0,0,1,0,62261.8,0.0780052,0.0776646,-8.572,32,0.0063682,10,-0.000665741,-2.06692,1.03042,0.0572584,-19.1373,0.0776646,
2,0,0,1,0,62261.8,0.0760076,0.0756459,-8.52583,32,0.00619722,10,-0.000644944,-2.06926,0.977891,0.0603339,-20.0895,0.0756459,
2,0,0,1,0,62261.8,0.07401,0.0736766,-8.49188,32,0.00602796,10,-0.000625653,-2.071,0.930045,0.0634378,-21.0048,0.0736766,
2,0,0,1,0,62261.8,0.0720124,0.0716798,-8.44252,32,0.00585864,10,-0.000605159,-2.07353,0.88107,0.066964,-22.0767,0.0716798,
2,0,0,1,0,62261.9,0.0700148,0.0696635,-8.40328,32,0.00569019,10,-0.000585402,-2.07555,0.899324,0.0656048,-21.5051,0.06966354,
2,0,0,1,0,62261.9,0.0680173,0.0676646,-8.35617,32,0.00552268,10,-0.000565417,-2.07799,1.06452,0.0554239,-18.0976,0.0676646,
2,0,0,1,0,62261.9,0.0660106,0.0656383,-8.33043,32,0.00535594,10,-0.000546795,-2.07933,1.07872,0.0546946,-17.7607,0.0656383,
2,0,0,1,0,62261.9,0.0640221,0.0636612,-8.28507,32,0.00519065,10,-0.000527437,-2.0817,0.920744,0.0640786,-20.7287,0.0636612,
2,0,0,1,0,62261.9,0.0620245,0.0616354,-8.24746,32,0.00502535,10,-0.000508336,-2.08368,1.04135,0.056657,-18.239,0.0616354,
2,0,0,1,0,62262,0.0600269,0.059674,-8.21235,32,0.00486078,10,-0.000490064,-2.08553,1.10165,0.0535561,-17.1674,0.059674,
2,0,0,1,0,62262,0.0580361,0.0576927,-8.17978,32,0.00469772,10,-0.000471914,-2.08726,1.0233,0.0576567,-18.3965,0.0576927,
2,0,0,1,0,62262,0.0560317,0.0556907,-8.13907,32,0.00453447,10,-0.000453271,-2.08943,1.00346,0.0587963,-18.683,0.0556907,
2,0,0,1,0,62262,0.0540342,0.0536601,-8.10443,32,0.00437199,10,-0.000434885,-2.09128,1.15402,0.0511255,-16.1746,0.0536601,
2,0,0,1,0,62262,0.0520366,0.0516659,-8.07397,32,0.00421017,10,-0.000417149,-2.09291,0.998633,0.0590808,-18.6008,0.0516659,
2,0,0,1,0,62262.1,0.050039,0.0496626,-8.03008,32,0.00404911,10,-0.000398795,-2.09528,0.926273,0.0636961,-19.9711,0.0496626,
2,0,0,1,0,62262.1,0.0480414,0.0476589,-7.99395,32,0.00388958,10,-0.000380983,-2.09724,1.05558,0.0558936,-17.4405,0.0476589,
2,0,0,1,0,62262.1,0.0460438,0.0456755,-7.96054,32,0.00373,10,-0.000363602,-2.09906,0.920121,0.064122,-19.9063,0.04567552,
2,0,0,1,0,62262.1,0.0440462,0.0437158,-7.91545,32,0.00357125,10,-0.00034603,-2.10152,0.805049,0.0732874,-22.6396,0.0437158,
2,0,0,1,0,62262.1,0.0420486,0.0416987,-7.87051,32,0.00341343,10,-0.00032819,-2.104,0.926808,0.0636593,-19.5668,0.04169872,
2,0,0,1,0,62262.2,0.0400511,0.0396674,-7.83624,32,0.0032571,10,-0.000310843,-2.10589,0.898805,0.0656427,-20.0599,0.0396674,
2,0,0,1,0,62262.2,0.0380535,0.037697,-7.79023,32,0.00310083,10,-0.000293669,-2.10845,0.72974,0.0808508,-24.5704,0.037697,
2,0,0,1,0,62262.2,0.0360559,0.0356603,-7.73778,32,0.0029456,10,-0.000275932,-2.11138,0.717849,0.08219,-24.8287,0.0356603,
2,0,0,1,0,62262.2,0.0340583,0.0337043,-7.6911,32,0.00279133,10,-0.000259223,-2.11401,0.720803,0.0818531,-24.5612,0.0337043,
2,0,0,1,0,62262.2,0.0320607,0.0316679,-7.63972,32,0.00263878,10,-0.000241934,-2.11692,0.635386,0.092857,-27.6715,0.0316679,
2,0,0,1,0,62262.3,0.0300631,0.0297169,-7.58076,32,0.00248657,10,-0.000225276,-2.12029,0.612682,0.0962979,-28.4978,0.02971687,
2,0,0,1,0,62262.3,0.0280655,0.0276841,-7.52619,32,0.00233549,10,-0.000208356,-2.12342,0.602918,0.0978575,-28.7332,0.0276841,
2,0,0,1,0,62262.3,0.0260679,0.0257488,-7.46674,32,0.00218554,10,-0.00019226,-2.12687,0.555631,0.106186,-30.9364,0.02574878,
2,0,0,1,0,62262.3,0.0240704,0.0237507,-7.40451,32,0.00203756,10,-0.000175862,-2.1305,0.557535,0.105823,-30.5815,0.0237507,
2,0,0,1,0,62262.3,0.0220728,0.021711,-7.34326,32,0.00189008,10,-0.000159429,-2.13411,0.543267,0.108602,-31.1133,0.021711,
2,0,0,1,0,62262.4,0.0200752,0.0196673,-7.27746,32,0.00174385,10,-0.000143128,-2.13802,0.490868,0.120195,-34.1264,0.0196673,
2,0,0,1,0,62262.4,0.0180776,0.0177295,-7.20739,32,0.00159897,10,-0.000127784,-2.14222,0.510792,0.115507,-32.517,0.0177295,
2,0,0,1,0,62262.4,0.01608,0.0157367,-7.14965,32,0.00145616,10,-0.000112512,-2.14572,0.548996,0.107469,-29.9751,0.0157367,
2,0,0,1,0,62262.4,0.0140824,0.0137009,-7.08663,32,0.00131383,10,-9.70936e-05,-2.14956,0.486411,0.121297,-33.5253,0.01370095,
2,0,0,1,0,62262.4,0.0120848,0.0117188,-7.01495,32,0.00117286,10,-8.22066e-05,-2.15398,0.472864,0.124772,-34.1761,0.0117188,
2,0,0,1,0,62262.5,0.0100872,0.00972539,-6.95076,32,0.00103328,10,-6.75989e-05,-2.15797,0.524899,0.112403,-30.5049,0.00972539,
2,0,0,1,0,62262.5,0.00809193,0.00772953,-6.89326,32,0.000895597,10,-5.32816e-05,-2.16158,0.534852,0.110311,-29.668,0.00772953,
2,0,0,1,0,62262.5,0.00609208,0.00573403,-6.83235,32,0.000758311,10,-3.91769e-05,-2.16543,0.522511,0.112916,-30.1118,0.005734032,
2,0,0,1,0,62262.5,0.00409449,0.00374461,-6.77326,32,0.000622263,10,-2.53633e-05,-2.1692,0.822658,0.0717187,-19.0157,0.00374461,
2,0,0,1,0,62262.5,0.0020969,0.00169446,-6.75553,32,0.000487236,10,-1.1447e-05,-2.17034,0.793145,0.0743874,-19.5481,0.00169446,
2,0,0,1,0,62262.6,9.14991e-05,-0.000313611,-6.69393,32,0.000352809,10,2.09929e-06,-2.17432,0.538161,0.109633,-28.6578,-0.000313611,
2,0,0,1,0,62262.6,-0.00189827,-0.00231455,-6.64064,32,0.000220089,10,1.53701e-05,-2.17779,0.632459,0.0932867,-24.1964,-0.00231455,
2,0,0,1,0,62262.6,-0.00389586,-0.00425773,-6.5985,32,8.76613e-05,10,2.80946e-05,-2.18055,0.74993,0.078674,-20.2659,-0.00425773,
2,0,0,1,0,62262.6,-0.00589345,-0.00627683,-6.56034,32,-4.3955e-05,10,4.11782e-05,-2.18307,0.778349,0.0758015,-19.4044,-0.00627683,
2,0,0,1,0,62262.6,-0.00789103,-0.00828723,-6.52031,32,-0.000174829,10,5.40353e-05,-2.18573,1.05505,0.0559213,-14.255,-0.00828723,
2,0,0,1,0,62262.7,-0.00988862,-0.0102915,-6.50312,32,-0.000304477,10,6.69269e-05,-2.18688,1.53507,0.0384347,-9.75097,-0.01029151,
2,0,0,1,0,62262.7,-0.0118862,-0.0123031,-6.48115,32,-0.000434335,10,7.97379e-05,-2.18835,1.28622,0.0458709,-11.6004,-0.0123031,
2,0,0,1,0,62262.7,-0.0138838,-0.014279,-6.45686,32,-0.000563757,10,9.21977e-05,-2.18998,1.51061,0.0390571,-9.84903,-0.014279,
2,0,0,1,0,62262.7,-0.0158814,-0.0162988,-6.4418,32,-0.000692773,10,0.000104994,-2.19099,3.22492,0.018295,-4.60357,-0.0162988,
2,0,0,1,0,62262.7,-0.017879,-0.0182994,-6.43835,32,-0.000820984,10,0.000117818,-2.19123,5.66036,0.0104234,-2.61834,-0.0182994,
2,0,0,1,0,62262.8,-0.0198766,-0.0202948,-6.43133,32,-0.000949705,10,0.000130523,-2.1917,4.99637,0.0118086,-2.96442,-0.0202948,
2,0,0,1,0,62262.8,-0.0218741,-0.0222546,-6.42663,32,-0.00107825,10,0.000143022,-2.19202,-22.7437,-0.00259412,0.651242,-0.0222546,
2,0,0,1,0,62262.8,-0.0238717,-0.0242754,-6.43393,32,-0.00120686,10,0.000156186,-2.19152,-4.42799,-0.0133243,3.34542,-0.0242754,
2,0,0,1,0,62262.8,-0.0258693,-0.026314,-6.44021,32,-0.00133499,10,0.000169468,-2.1911,-3.88864,-0.0151724,3.81422,-0.026314,
2,0,0,1,0,62262.8,-0.0278669,-0.0282527,-6.4491,32,-0.00146391,10,0.000182204,-2.1905,-2.74937,-0.0214595,5.4025,-0.0282527,
2,0,0,1,0,62262.9,-0.0298645,-0.0302326,-6.46138,32,-0.00159299,10,0.000195344,-2.18967,-2.18999,-0.0269408,6.79504,-0.0302326,
2,0,0,1,0,62262.9,-0.0318621,-0.0322797,-6.47646,32,-0.00172242,10,0.000209058,-2.18866,-1.4916,-0.0395547,10.0054,-0.0322797,
2,0,0,1,0,62262.9,-0.0338597,-0.0342501,-6.50157,32,-0.00185157,10,0.00022268,-2.18698,-1.35424,-0.0435668,11.0491,-0.03425014,
2,0,0,1,0,62262.9,-0.0358573,-0.0362551,-6.52038,32,-0.0019818,10,0.000236397,-2.18573,-1.37077,-0.0430415,10.9583,-0.03625514,
2,0,0,1,0,62262.9,-0.0378548,-0.0382846,-6.54578,32,-0.00211256,10,0.000250603,-2.18404,-1.21635,-0.0485058,12.3903,-0.0382846,
2,0,0,1,0,62263,-0.0398524,-0.0402664,-6.57008,32,-0.00224382,10,0.000264554,-2.18243,-0.933056,-0.0632331,16.233,-0.0402664,
2,0,0,1,0,62263,-0.04185,-0.0422524,-6.61019,32,-0.00237497,10,0.000279296,-2.17979,-0.860995,-0.0685254,17.6653,-0.0422524,
2,0,0,1,0,62263,-0.0438476,-0.0442834,-6.64105,32,-0.00250753,10,0.000294088,-2.17776,-1.03722,-0.0568826,14.7401,-0.0442834,
2,0,0,1,0,62263,-0.0458452,-0.0462781,-6.66953,32,-0.00264069,10,0.000308653,-2.1759,-0.957529,-0.0616169,16.0464,-0.0462781,
2,0,0,1,0,62263,-0.0478428,-0.0482579,-6.70482,32,-0.00277452,10,0.000323561,-2.17361,-0.685821,-0.0860283,22.5418,-0.0482579,
2,0,0,1,0,62263.1,-0.0498495,-0.0502343,-6.75871,32,-0.00290919,10,0.00033952,-2.17014,-0.685069,-0.0861228,22.6861,-0.0502343,
2,0,0,1,0,62263.1,-0.051838,-0.0522142,-6.79458,32,-0.00304411,10,0.000354773,-2.16784,-0.813331,-0.0725412,19.2425,-0.0522142,
2,0,0,1,0,62263.1,-0.0538355,-0.0542142,-6.8353,32,-0.00318043,10,0.00037057,-2.16524,-0.715712,-0.0824354,22.0021,-0.0542142,
2,0,0,1,0,62263.1,-0.0558331,-0.0562541,-6.88346,32,-0.00331765,10,0.000387223,-2.16219,-0.665898,-0.0886022,23.8011,-0.0562541,
2,0,0,1,0,62263.1,-0.0578216,-0.0582467,-6.93127,32,-0.00345515,10,0.000403724,-2.15919,-0.630344,-0.0935996,25.3268,-0.0582467,
2,0,0,1,0,62263.2,-0.0598283,-0.0602014,-6.98343,32,-0.00359439,10,0.000420413,-2.15593,-0.600788,-0.0982044,26.7688,-0.0602014,
2,0,0,1,0,62263.2,-0.0618259,-0.0622325,-7.03797,32,-0.00373463,10,0.00043799,-2.15255,-0.596018,-0.0989902,27.1913,-0.0622325,
2,0,0,1,0,62263.2,-0.0638235,-0.0642544,-7.09364,32,-0.003876,10,0.000455798,-2.14913,-0.583776,-0.101066,27.9793,-0.0642544,
2,0,0,1,0,62263.2,-0.0658211,-0.0662204,-7.14955,32,-0.00401847,10,0.000473446,-2.14572,-0.549368,-0.107396,29.98,-0.0662204,
2,0,0,1,0,62263.2,-0.0678187,-0.0682148,-7.21237,32,-0.00416149,10,0.000491991,-2.14192,-0.538682,-0.109527,30.8251,-0.0682148,
2,0,0,1,0,62263.3,-0.0698162,-0.0702463,-7.27365,32,-0.00430643,10,0.000510947,-2.13825,-0.534659,-0.110351,31.3306,-0.0702463,
2,0,0,1,0,62263.3,-0.0718138,-0.0722206,-7.33788,32,-0.0044526,10,0.000529946,-2.13443,-0.504797,-0.116879,33.4793,-0.0722206,
2,0,0,1,0,62263.3,-0.0738114,-0.0742036,-7.40613,32,-0.00460007,10,0.000549562,-2.13041,-0.47423,-0.124412,35.9766,-0.0742036,
2,0,0,1,0,62263.3,-0.075809,-0.0762187,-7.48172,32,-0.00474833,10,0.000570247,-2.126,-0.488591,-0.120755,35.2345,-0.0762187,
2,0,0,1,0,62263.3,-0.0778066,-0.0782099,-7.54729,32,-0.00489876,10,0.000590273,-2.12221,-0.475298,-0.124133,36.5958,-0.0782099,
2,0,0,1,0,62263.4,-0.0798042,-0.0801863,-7.62691,32,-0.00505058,10,0.000611574,-2.11765,-0.435669,-0.135424,40.3141,-0.0801863,
2,0,0,1,0,62263.4,-0.0818018,-0.0822165,-7.70881,32,-0.00520399,10,0.000633791,-2.11301,-0.433728,-0.13603,40.9291,-0.0822165,
2,0,0,1,0,62263.4,-0.0837994,-0.0842436,-7.79297,32,-0.00535834,10,0.000656508,-2.1083,-0.43425,-0.135866,41.3102,-0.0842436,
2,0,0,1,0,62263.4,-0.085797,-0.0861992,-7.87334,32,-0.00551501,10,0.000678676,-2.10384,-0.429723,-0.137298,42.2002,-0.0861992,
2,0,0,1,0,62263.4,-0.0877945,-0.0881768,-7.95896,32,-0.00567342,10,0.000701795,-2.09914,-0.411696,-0.143309,44.5257,-0.0881768,
2,0,0,1,0,62263.5,-0.0897921,-0.0901553,-8.04949,32,-0.00583356,10,0.000725704,-2.09423,-0.411269,-0.143458,45.0621,-0.0901553,
2,0,0,1,0,62263.5,-0.0917897,-0.0921714,-8.13896,32,-0.00599466,10,0.000750179,-2.08943,-0.417738,-0.141237,44.8655,-0.0921714,
2,0,0,1,0,62263.5,-0.0937873,-0.0941851,-8.23029,32,-0.00615842,10,0.00077517,-2.08458,-0.422186,-0.139749,44.8783,-0.0941851,
2,0,0,1,0,62263.5,-0.0957849,-0.0961793,-8.31883,32,-0.00632395,10,0.000800099,-2.07994,-0.43758,-0.134833,43.7698,-0.0961793,
2,0,0,1,0,62263.5,-0.0977825,-0.0982051,-8.40625,32,-0.00649123,10,0.000825536,-2.0754,-0.428867,-0.137572,45.1456,-0.0982051,
2,0,0,1,0,62263.6,-0.0997501,-0.100169,-8.49893,32,-0.00665696,10,0.000851327,-2.07064,0.0113833,5.18304,-1545.55,-0.100169,
2,0,0,1,1,62263.6,-0.0987313,-0.0991647,-6.92316,32,-0.0067745,10,0.000686534,-2.1597,-0.0155037,-3.80553,1014.24,-0.0991647,
2,0,0,1,1,62263.6,-0.0967337,-0.0971072,-5.39377,32,-0.00689654,10,0.000523773,-2.26811,-0.0187668,-3.14385,670.071,-0.0971072,
2,0,0,1,1,62263.6,-0.0947362,-0.0951325,-4.22131,32,-0.00699205,10,0.000401584,-2.37455,-0.0180122,-3.27555,540.406,-0.0951325,
2,0,0,1,1,62263.6,-0.0927386,-0.0931266,-3.24265,32,-0.00706623,10,0.000301977,-2.4891,-0.0164793,-3.58024,451.541,-0.09312661,
2,0,0,1,1,62263.7,-0.090741,-0.0911217,-2.41024,32,-0.00712215,10,0.000219625,-2.61794,-0.014178,-4.16137,386.753,-0.0911217,
2,0,0,1,1,62263.7,-0.0887434,-0.0891071,-1.6881,32,-0.00716287,10,0.000150422,-2.7726,-0.011036,-5.34616,341.037,-0.0891071,
2,0,0,1,1,62263.7,-0.0867458,-0.0871224,-1.04636,32,-0.00719003,10,9.11611e-05,-2.98032,-0.00722282,-8.16856,305.75,-0.08712244,
2,0,0,1,1,62263.7,-0.0847482,-0.0851494,-0.478027,32,-0.00720506,10,4.07037e-05,-3.32055,-0.00247757,-23.8136,271.457,-0.0851494,
2,0,0,1,1,62263.7,-0.0827529,-0.08317,0.0265692,32,-0.00720941,10,-2.20976e-06,-4.57562,0.364132,0.162029,244.028,-0.08317,
2,1,0,1,1,62263.8,-0.0807531,-0.0811818,0.490171,32,-0.00720406,10,-3.9793e-05,-3.30965,0.00261687,22.546,218.435,-0.0811818,
2,1,0,1,1,62263.8,-0.0787555,-0.0791647,0.901467,32,-0.00719,10,-7.13643e-05,-3.04505,0.00969919,6.08298,194.876,-0.0791647,
2,1,0,1,1,62263.8,-0.0767579,-0.0771562,1.27468,32,-0.00716809,10,-9.83495e-05,-2.8946,0.015725,3.752,179.268,-0.0771562,
2,1,0,1,1,62263.8,-0.0747603,-0.0751776,1.61622,32,-0.007139,10,-0.000121504,-2.7915,0.0218547,2.69965,166.931,-0.07517758,
2,1,0,1,1,62263.8,-0.0727627,-0.0731667,1.94064,32,-0.00710338,10,-0.00014199,-2.71205,0.0290632,2.03006,150.736,-0.0731667,
2,1,0,1,1,62263.9,-0.0707651,-0.0711659,2.22093,32,-0.00706165,10,-0.000158055,-2.65346,0.0371079,1.58996,136.692,-0.0711659,
2,1,0,1,1,62263.9,-0.0687675,-0.0691642,2.48776,32,-0.00701442,10,-0.000172064,-2.60419,0.0445541,1.32423,127.554,-0.0691642,
2,1,0,1,1,62263.9,-0.0667699,-0.0671513,2.73301,32,-0.00696216,10,-0.000183525,-2.56336,0.0536824,1.09906,116.355,-0.0671513,
2,1,0,1,1,62263.9,-0.0647723,-0.0651845,2.95081,32,-0.00690547,10,-0.000192347,-2.53006,0.0645545,0.913956,104.755,-0.0651845,
2,1,0,1,1,62263.9,-0.0627748,-0.0631643,3.15067,32,-0.00684435,10,-0.00019901,-2.5016,0.073521,0.802492,98.4663,-0.0631643,
2,1,0,1,1,62264,-0.0607772,-0.0611766,3.34546,32,-0.00677923,10,-0.000204664,-2.47554,0.0834539,0.706977,91.8884,-0.0611766,
2,1,0,1,1,62264,-0.0587796,-0.0591802,3.51676,32,-0.00671051,10,-0.000208123,-2.45386,0.0992141,0.594673,81.365,-0.05918023,
2,1,0,1,1,62264,-0.056782,-0.0571715,3.67133,32,-0.00663887,10,-0.000209895,-2.43518,0.112303,0.525362,75.1611,-0.0571715,
2,1,0,1,1,62264,-0.0547844,-0.0551586,3.81903,32,-0.00656385,10,-0.000210652,-2.41805,0.12636,0.466921,69.4034,-0.0551586,
2,1,0,1,1,62264,-0.0527868,-0.0531648,3.94941,32,-0.00648607,10,-0.00020997,-2.40347,0.146426,0.402934,61.9735,-0.0531648,
2,1,0,1,1,62264.1,-0.0507892,-0.0511802,4.06558,32,-0.00640583,10,-0.000208077,-2.39088,0.159707,0.369427,58.617,-0.0511802,
2,1,0,1,1,62264.1,-0.0487916,-0.0491594,4.18419,32,-0.00632364,10,-0.000205692,-2.37839,0.176546,0.33419,54.4326,-0.0491594,
2,1,0,1,1,62264.1,-0.0467941,-0.0471799,4.28333,32,-0.00623886,10,-0.000202087,-2.36822,0.205335,0.287336,47.983,-0.0471799,
2,1,0,1,1,62264.1,-0.0447965,-0.0451814,4.37507,32,-0.00615222,10,-0.000197672,-2.35902,0.23181,0.254519,43.4022,-0.0451814,
2,1,0,1,1,62264.1,-0.0427989,-0.0431846,4.45673,32,-0.00606385,10,-0.000192462,-2.35098,0.256801,0.22975,39.9439,-0.0431846,
2,1,0,1,1,62264.2,-0.0408013,-0.0411631,4.53558,32,-0.00597431,10,-0.000186698,-2.34337,0.288405,0.204573,36.1485,-0.0411631,
2,1,0,1,1,62264.2,-0.0388037,-0.0392373,4.59942,32,-0.00588285,10,-0.000180469,-2.3373,0.331375,0.178046,31.9533,-0.0392373,
2,1,0,1,1,62264.2,-0.0368061,-0.0372037,4.66209,32,-0.00579016,10,-0.000173447,-2.33142,0.355922,0.165766,30.1477,-0.0372037,
2,1,0,1,1,62264.2,-0.0348085,-0.0351954,4.72128,32,-0.00569625,10,-0.000166167,-2.32594,0.410093,0.14387,26.4758,-0.03519538,
2,1,0,1,1,62264.2,-0.0328109,-0.0331629,4.76908,32,-0.00560176,10,-0.000158156,-2.32157,0.465191,0.12683,23.6007,-0.0331629,
2,1,0,1,1,62264.3,-0.0308134,-0.0312199,4.8151,32,-0.00550585,10,-0.000150327,-2.31739,0.546933,0.107874,20.2463,-0.0312199,
2,1,0,1,1,62264.3,-0.0288158,-0.0291975,4.84936,32,-0.00540915,10,-0.000141589,-2.31432,0.648835,0.0909322,17.2101,-0.0291975,
2,1,0,1,1,62264.3,-0.0268182,-0.0272051,4.8842,32,-0.00531171,10,-0.000132875,-2.31121,0.646106,0.0913163,17.4055,-0.02720505,
2,1,0,1,1,62264.3,-0.0248138,-0.0252074,4.91881,32,-0.0052137,10,-0.00012399,-2.30814,0.777313,0.0759025,14.5544,-0.0252074,
2,1,0,1,1,62264.3,-0.022823,-0.0231936,4.94258,32,-0.00511553,10,-0.000114636,-2.30605,1.00592,0.058653,11.3108,-0.0231936,
2,1,0,1,1,62264.4,-0.0208254,-0.0212293,4.96381,32,-0.00501641,10,-0.000105378,-2.30419,1.25343,0.0470708,9.11258,-0.0212293,
2,1,0,1,1,62264.4,-0.0188278,-0.0192554,4.97847,32,-0.00491698,10,-9.58623e-05,-2.3029,1.42924,0.0412806,8.02276,-0.0192554,
2,1,0,1,1,62264.4,-0.0168393,-0.0172298,4.99589,32,-0.00481772,10,-8.6078e-05,-2.30139,1.55341,0.037981,7.40165,-0.0172298,
2,1,0,1,1,62264.4,-0.0148326,-0.0152091,5.00842,32,-0.00471758,10,-7.61735e-05,-2.3003,2.38208,0.0247683,4.83855,-0.0152091,
2,1,0,1,1,62264.4,-0.0128351,-0.0132145,5.01532,32,-0.00461727,10,-6.62748e-05,-2.2997,3.26225,0.0180857,3.54003,-0.0132145,
2,1,0,1,1,62264.5,-0.0108375,-0.0112441,5.02245,32,-0.00451682,10,-5.64732e-05,-2.29908,2.31684,0.0254657,4.99433,-0.0112441,
2,1,0,1,1,62264.5,-0.00883989,-0.00923477,5.0352,32,-0.00441614,10,-4.64989e-05,-2.29798,3.11986,0.0189111,3.71226,-0.00923477,
2,1,0,1,1,62264.5,-0.0068423,-0.00724448,5.0373,32,-0.0043158,10,-3.64926e-05,-2.2978,5.47138,0.0107834,2.12082,-0.00724448,
2,1,0,1,1,62264.5,-0.00484471,-0.00521043,5.04373,32,-0.00421493,10,-2.628e-05,-2.29725,6.14516,0.00960105,1.88889,-0.00521043,
2,1,0,1,1,62264.5,-0.00284713,-0.00322203,5.0449,32,-0.004114,10,-1.62548e-05,-2.29715,22.0282,0.00267839,0.527326,-0.00322203,
2,1,0,1,1,62264.6,-0.000849538,-0.00123778,5.04583,32,-0.004013,10,-6.24563e-06,-2.29707, , , ,-0.00123778,
2,1,0,1,1,62264.6,-2.55332e-05,-0.000382585,5.06328,32,-0.00397209,10,-1.93714e-06,-2.29557, , , ,-0.000382585,