File: Figure_codes/Fig_3-5/rawdata_trumpetplot_data/after 10th/20221101_1-115_003_TrumpetPlot_ParaChange_from10_every3_12_CV_C01_0.csv
mode,ox/red,error,control changes,counter inc.,time/s,control/V,Ewe/V,<I>/mA,cycle number,(Q-Qo)/C,I Range,P/W,log(|I|),Tafel slope mV/dec,alpha_eff,dI/d(E-IR),E-IR/V,
2,1,0,0,0,1196.52,2.44065e-05,-0.000287149,20.3897,1,0.0000000E+000,10,-5.85489e-06,-1.69059, , , ,-0.0002871489,
2,1,0,1,0,1196.53,0.00200257,0.00162901,21.4782,1,6.52768e-05,10,3.49881e-05,-1.668, , , ,0.00162901,
2,1,0,1,0,1196.53,0.004408,0.00410824,22.5439,1,0.000153539,10,9.26157e-05,-1.64697, , , ,0.00410824,
2,1,0,1,0,1196.53,0.0068051,0.00644643,23.374,1,0.000245501,10,0.000150679,-1.63127,0.155688,0.378963,341.357,0.00644643,
2,1,0,1,0,1196.54,0.00920221,0.00885143,24.1165,1,0.000340584,10,0.000213466,-1.61769,0.188001,0.313827,292.95,0.00885143,
2,1,0,1,0,1196.54,0.0115993,0.0112458,24.7609,1,0.000438436,10,0.000278457,-1.60623,0.219955,0.268236,257.475,0.0112458,
2,1,0,1,0,1196.55,0.0140075,0.0136816,25.3484,1,0.000538724,10,0.000346807,-1.59605,0.254795,0.231558,227.661,0.0136816,
2,1,0,1,0,1196.55,0.0164046,0.0160961,25.8585,1,0.000641205,10,0.000416223,-1.5874,0.291931,0.202103,202.946,0.01609613,
2,1,0,1,0,1196.55,0.0188017,0.0184396,26.2994,1,0.000745584,10,0.00048495,-1.58005,0.330784,0.178364,182.49,0.01843963,
2,1,0,1,0,1196.56,0.0212099,0.020922,26.7247,1,0.000851643,10,0.000559135,-1.57309,0.374053,0.157732,163.982,0.020922,
2,1,0,1,0,1196.56,0.023607,0.0232974,27.1032,1,0.000959352,10,0.000631433,-1.56698,0.416279,0.141732,149.408,0.0232974,
2,1,0,1,0,1196.57,0.0260041,0.0257055,27.4343,1,0.00106847,10,0.000705214,-1.56171,0.458774,0.128604,137.394,0.0257055,
2,1,0,1,0,1196.57,0.0284012,0.0280522,27.7356,1,0.00117884,10,0.000778044,-1.55696,0.511039,0.115451,124.795,0.0280522,
2,1,0,1,0,1196.57,0.0308067,0.0304604,28.0352,1,0.00129045,10,0.000853963,-1.5523,0.540912,0.109075,119.193,0.0304604,
2,1,0,1,0,1196.58,0.0332038,0.0328866,28.2999,1,0.00140314,10,0.000930687,-1.54822,0.567227,0.104015,114.81,0.0328866,
2,1,0,1,0,1196.58,0.0356009,0.0352662,28.5739,1,0.00151693,10,0.00100769,-1.54403,0.612704,0.0962944,107.29,0.0352662,
2,1,0,1,0,1196.59,0.0380091,0.0376478,28.8372,1,0.00163177,10,0.00108566,-1.54005,0.620644,0.0950625,106.879,0.0376478,
2,1,0,1,0,1196.59,0.0404062,0.0401006,29.0695,1,0.0017476,10,0.0011657,-1.53656,0.646681,0.0912351,103.501,0.0401006,
2,1,0,1,0,1196.59,0.0428033,0.0424568,29.3227,1,0.00186441,10,0.00124495,-1.5328,0.64832,0.0910045,104.193,0.0424568,
2,1,0,1,0,1196.6,0.0452032,0.0448734,29.5682,1,0.0019822,10,0.00132683,-1.52917,0.636293,0.0927246,107.039,0.0448734,
2,1,0,1,0,1196.6,0.0476058,0.047289,29.8418,1,0.00210107,10,0.00141119,-1.52518,0.641459,0.0919778,107.097,0.047289,
2,1,0,1,0,1196.61,0.0500029,0.0496781,30.0947,1,0.00222097,10,0.00149505,-1.52151,0.616484,0.095704,112.446,0.0496781,
2,1,0,1,0,1196.61,0.0524,0.0520853,30.3539,1,0.00234188,10,0.00158099,-1.51779,0.617179,0.0955962,113.341,0.0520853,
2,1,0,1,0,1196.61,0.0548082,0.0544945,30.6501,1,0.0024639,10,0.00167026,-1.51357,0.594675,0.0992139,118.723,0.0544945,
2,1,0,1,0,1196.62,0.0572053,0.0568348,30.9237,1,0.00258707,10,0.00175754,-1.50971,0.562145,0.104955,126.8,0.0568348,
2,1,0,1,0,1196.62,0.0596024,0.0592918,31.236,1,0.00271142,10,0.00185204,-1.50534,0.556306,0.106057,129.41,0.0592918,
2,1,0,1,0,1196.63,0.0620051,0.0616533,31.5671,1,0.00283706,10,0.00194622,-1.50076,0.52639,0.112084,138.157,0.0616533,
2,1,0,1,0,1196.63,0.0644077,0.0640679,31.889,1,0.00296402,10,0.00204306,-1.49636,0.50876,0.115968,144.465,0.0640679,
2,1,0,1,0,1196.63,0.0668048,0.0664591,32.2534,1,0.0030923,10,0.00214353,-1.49143,0.497409,0.118615,149.427,0.0664591,
2,1,0,1,0,1196.64,0.0692019,0.068827,32.6135,1,0.00322204,10,0.00224469,-1.4866,0.47338,0.124636,158.782,0.068827,
2,1,0,1,0,1196.64,0.0716074,0.0712606,33.0027,1,0.0033533,10,0.00235179,-1.48145,0.467617,0.126172,162.616,0.0712606,
2,1,0,1,0,1196.65,0.0740045,0.0736455,33.4097,1,0.00348618,10,0.00246047,-1.47613,0.449033,0.131393,171.447,0.07364545,
2,1,0,1,0,1196.65,0.0764016,0.0760208,33.8082,1,0.00362066,10,0.00257013,-1.47098,0.432145,0.136528,180.43,0.0760208,
2,1,0,1,0,1196.65,0.0788042,0.0784809,34.2687,1,0.00375685,10,0.00268943,-1.4651,0.427741,0.137934,184.575,0.0784809,
2,1,0,1,0,1196.66,0.0812069,0.0808753,34.7375,1,0.00389492,10,0.00280941,-1.4592,0.416706,0.141587,191.883,0.0808753,
2,1,0,1,0,1196.66,0.083604,0.0832421,35.181,1,0.00403479,10,0.00292854,-1.45369,0.414796,0.142239,195.372,0.0832421,
2,1,0,1,0,1196.67,0.0860011,0.0856683,35.6594,1,0.00417651,10,0.00305489,-1.44783,0.419174,0.140753,195.91,0.0856683,
2,1,0,1,0,1196.67,0.0884065,0.0880489,36.138,1,0.00432016,10,0.00318191,-1.44204,0.418548,0.140964,198.739,0.0880489,
2,1,0,1,0,1196.67,0.0908036,0.0904211,36.6076,1,0.0044657,10,0.0033101,-1.43643,0.415717,0.141923,202.827,0.0904211,
2,1,0,1,0,1196.68,0.0932007,0.0928303,37.0866,1,0.00461314,10,0.00344276,-1.43078,0.40376,0.146126,211.824,0.0928303,
2,1,0,1,0,1196.68,0.0956034,0.0952162,37.596,1,0.00476253,10,0.00357975,-1.42486,0.397411,0.148461,218.115,0.0952162,
2,1,0,1,0,1196.69,0.098006,0.0976297,38.1674,1,0.00491412,10,0.00372628,-1.41831,0.392143,0.150455,224.05,0.0976297,
2,1,0,1,0,1196.69,0.100403,0.100025,38.7024,1,0.00506791,10,0.00387122,-1.41226,0.388366,0.151919,229.421,0.100025,
2,1,0,1,0,1196.69,0.1028,0.102476,39.2477,1,0.00522386,10,0.00402193,-1.40619,0.399614,0.147642,226.172,0.102476,
2,1,0,1,0,1196.7,0.105208,0.104892,39.8159,1,0.00538204,10,0.00417639,-1.39994,0.401459,0.146964,228.229,0.104892,
2,1,0,1,0,1196.7,0.107606,0.107312,40.3574,1,0.00554244,10,0.00433084,-1.39408,0.402888,0.146443,230.557,0.107312,
2,1,0,1,0,1196.71,0.110003,0.109663,40.9021,1,0.00570501,10,0.00448546,-1.38825,0.413457,0.142699,227.749,0.109663,
2,1,0,1,0,1196.71,0.112408,0.112047,41.4544,1,0.00586976,10,0.00464484,-1.38243,0.411509,0.143375,231.951,0.112047,
2,1,0,1,0,1196.71,0.114805,0.114454,41.9936,1,0.00603674,10,0.00480634,-1.37682,0.412237,0.143122,234.71,0.114454,
2,1,0,1,0,1196.72,0.117202,0.116847,42.569,1,0.00620592,10,0.00497409,-1.37091,0.410999,0.143553,238.609,0.116847,
2,1,0,1,0,1196.72,0.119599,0.119281,43.1595,1,0.00637744,10,0.00514812,-1.36492,0.411072,0.143527,241.701,0.119281,
2,1,0,1,0,1196.73,0.122008,0.121656,43.7473,1,0.00655132,10,0.00532214,-1.35905,0.410419,0.143755,245.397,0.121656,
2,1,0,1,0,1196.73,0.124405,0.12411,44.3275,1,0.00672752,10,0.00550149,-1.35333,0.407577,0.144758,250.556,0.1241102,
2,1,0,1,0,1196.73,0.126802,0.12648,44.9329,1,0.0069061,10,0.00568312,-1.34744,0.403399,0.146257,256.682,0.12648,
2,1,0,1,0,1196.74,0.129207,0.128875,45.5632,1,0.00708713,10,0.00587194,-1.34139,0.394469,0.149568,266.097,0.1288746,
2,1,0,1,0,1196.74,0.131604,0.131265,46.2135,1,0.00727075,10,0.00606621,-1.33523,0.39041,0.151123,272.625,0.131265,
2,1,0,1,0,1196.75,0.134001,0.133662,46.8693,1,0.00745699,10,0.00626466,-1.32911,0.384987,0.153252,280.499,0.133662,
2,1,0,1,0,1196.75,0.136399,0.136045,47.5405,1,0.00764586,10,0.00646765,-1.32294,0.380737,0.154963,287.743,0.136045,
2,1,0,1,0,1196.75,0.138807,0.138489,48.2602,1,0.00783754,10,0.00668352,-1.31641,0.373034,0.158163,298.067,0.138489,
2,1,0,1,0,1196.76,0.141204,0.140848,48.971,1,0.00803205,10,0.00689744,-1.31006,0.367605,0.160498,306.966,0.140848,
2,1,0,1,0,1196.76,0.143601,0.143282,49.7367,1,0.00822953,10,0.00712639,-1.30332,0.365813,0.161284,313.078,0.143282,
2,1,0,1,0,1196.77,0.146009,0.145696,50.503,1,0.00843007,10,0.00735807,-1.29668,0.365134,0.161585,318.374,0.145696,
2,1,0,1,0,1196.77,0.148406,0.148032,51.2477,1,0.00863364,10,0.0075863,-1.29033,0.36716,0.160693,321.493,0.148032,
2,1,0,1,0,1196.77,0.150803,0.150464,52.0327,1,0.0088403,10,0.00782907,-1.28372,0.366641,0.16092,326.883,0.150464,
2,1,0,1,0,1196.78,0.153206,0.152879,52.822,1,0.00905009,10,0.00807537,-1.27719,0.369421,0.15971,329.223,0.152879,
2,1,0,1,0,1196.78,0.155606,0.155255,53.6278,1,0.00926308,10,0.00832601,-1.27061,0.375652,0.15706,328.493,0.155255,
2,1,0,1,0,1196.79,0.158003,0.157677,54.4232,1,0.00947927,10,0.00858131,-1.26422,0.381573,0.154623,328.147,0.157677,
2,1,0,1,0,1196.79,0.1604,0.160049,55.1813,1,0.00969856,10,0.00883174,-1.25821,0.394275,0.149642,322.133,0.160049,
2,1,0,1,0,1196.79,0.162808,0.162461,55.9662,1,0.00992092,10,0.00909232,-1.25207,0.406852,0.145016,316.521,0.162461,
2,1,0,1,0,1196.8,0.165205,0.164853,56.7196,1,0.0101464,10,0.0093504,-1.24627,0.415608,0.141961,314.01,0.164853,
2,1,0,1,0,1196.8,0.167602,0.167268,57.4588,1,0.0103748,10,0.00961099,-1.24064,0.436528,0.135157,302.782,0.167268,
2,1,0,1,0,1196.81,0.170008,0.169665,58.2008,1,0.0106062,10,0.00987465,-1.23507,0.459235,0.128475,291.342,0.169665,
2,1,0,1,0,1196.81,0.172405,0.172025,58.862,1,0.0108404,10,0.0101257,-1.23017,0.486764,0.121209,278.087,0.172025,
2,1,0,1,0,1196.81,0.174802,0.174449,59.5152,1,0.0110772,10,0.0103824,-1.22537,0.523052,0.112799,261.715,0.174449,
2,1,0,1,0,1196.82,0.177199,0.176895,60.136,1,0.0113166,10,0.0106378,-1.22087,0.5623,0.104926,245.86,0.176895,
2,1,0,1,0,1196.82,0.179607,0.179286,60.7187,1,0.0115584,10,0.010886,-1.21668,0.633784,0.0930916,220.065,0.179286,
2,1,0,1,0,1196.83,0.182005,0.181671,61.2337,1,0.0118023,10,0.0111244,-1.21301,0.726004,0.0812668,193.655,0.181671,
2,1,0,1,0,1196.83,0.184402,0.184116,61.6427,1,0.0120482,10,0.0113494,-1.21012,0.894759,0.0659396,158.198,0.184116,
2,1,0,1,0,1196.83,0.18681,0.18648,61.9922,1,0.0122955,10,0.0115603,-1.20766,1.2228,0.0482498,116.356,0.18648,
2,1,0,1,0,1196.84,0.189207,0.188876,62.2358,1,0.012544,10,0.0117548,-1.20596,1.97798,0.0298284,72.1599,0.188876,
2,1,0,1,0,1196.84,0.191604,0.191291,62.353,1,0.0127932,10,0.0119276,-1.20514,9.04314,0.00652429,15.8039,0.191291,
2,1,0,1,0,1196.85,0.194001,0.193681,62.3329,1,0.0130426,10,0.0120727,-1.20528,-2.82007,-0.0209215,-50.6161,0.193681,
2,1,0,1,0,1196.85,0.196407,0.196087,62.1441,1,0.0132916,10,0.0121857,-1.2066,-1.16541,-0.0506261,-122.034,0.196087,
2,1,0,1,0,1196.85,0.198804,0.198507,61.7482,1,0.0135394,10,0.0122575,-1.20938,-0.709132,-0.0832003,-199.272,0.198507,
2,1,0,1,0,1196.86,0.201201,0.200901,61.1803,1,0.0137853,10,0.0122912,-1.21339,-0.492637,-0.119764,-284.031,0.200901,
2,1,0,1,0,1196.86,0.203609,0.203295,60.4172,1,0.0140284,10,0.0122825,-1.21884,-0.376116,-0.156867,-367.092,0.203295,
2,1,0,1,0,1196.87,0.206006,0.205702,59.4132,1,0.014268,10,0.0122214,-1.22612,-0.297159,-0.198547,-456.854,0.2057021,
2,1,0,1,0,1196.87,0.208403,0.208141,58.2118,1,0.0145032,10,0.0121163,-1.23499,-0.246339,-0.239507,-540.052,0.208141,
2,1,0,1,0,1196.87,0.210803,0.210506,56.7922,1,0.0147331,10,0.0119551,-1.24571,-0.210248,-0.28062,-617.574,0.210506,
2,1,0,1,0,1196.88,0.213206,0.212929,55.2145,1,0.014957,10,0.0117567,-1.25795,-0.183511,-0.321507,-688.203,0.212929,
2,1,0,1,0,1196.88,0.215603,0.215322,53.4721,1,0.0151743,10,0.0115137,-1.27187,-0.165536,-0.356418,-739.292,0.215322,
2,1,0,1,0,1196.89,0.218,0.217724,51.6168,1,0.0153843,10,0.0112382,-1.28721,-0.1504,-0.392287,-785.979,0.217724,
2,1,0,1,0,1196.89,0.220408,0.220147,49.6645,1,0.0155867,10,0.0109335,-1.30395,-0.139867,-0.421829,-814.029,0.220147,
2,1,0,1,0,1196.89,0.222805,0.222555,47.6483,1,0.0157811,10,0.0106044,-1.32195,-0.132355,-0.445772,-826.853,0.222555,
2,1,0,1,0,1196.9,0.225202,0.224957,45.6291,1,0.0159674,10,0.0102646,-1.34076,-0.127171,-0.463942,-825.337,0.224957,
2,1,0,1,0,1196.9,0.227605,0.227345,43.6616,1,0.0161458,10,0.00992624,-1.3599,-0.123296,-0.478525,-815.096,0.227345,
2,1,0,1,0,1196.91,0.230008,0.229758,41.7317,1,0.0163164,10,0.00958822,-1.37953,-0.12275,-0.480654,-783.453,0.229758,
2,1,0,1,0,1196.91,0.232405,0.232094,39.8736,1,0.0164794,10,0.00925442,-1.39931,-0.123452,-0.477918,-745.646,0.232094,
2,1,0,1,0,1196.91,0.234802,0.234533,38.1263,1,0.0166352,10,0.0089419,-1.41878,-0.125876,-0.468717,-700.209,0.234533,
2,1,0,1,0,1196.92,0.237207,0.236941,36.5066,1,0.0167843,10,0.00864991,-1.43763,-0.130957,-0.450531,-644.817,0.236941,
2,1,0,1,0,1196.92,0.239604,0.239342,35.021,1,0.0169272,10,0.00838201,-1.45567,-0.135458,-0.43556,-598.086,0.239342,
2,1,0,1,0,1196.93,0.242002,0.241747,33.6486,1,0.0170643,10,0.00813447,-1.47303,-0.142971,-0.41267,-544.847,0.241747,
2,1,0,1,0,1196.93,0.244404,0.244111,32.3981,1,0.0171962,10,0.00790873,-1.48948,-0.151528,-0.389367,-495.246,0.244111,
2,1,0,1,0,1196.93,0.246807,0.246518,31.2883,1,0.0173235,10,0.00771314,-1.50462,-0.162452,-0.363183,-446.029,0.246518,
2,1,0,1,0,1196.94,0.249204,0.248923,30.2761,1,0.0174465,10,0.00753643,-1.5189,-0.176359,-0.334546,-397.633,0.248923,
2,1,0,1,0,1196.94,0.251601,0.251308,29.3843,1,0.0175657,10,0.00738452,-1.53188,-0.191471,-0.30814,-355.278,0.251308,
2,1,0,1,0,1196.95,0.254006,0.253683,28.5918,1,0.0176815,10,0.00725327,-1.54376,-0.208726,-0.282668,-316.862,0.253683,
2,1,0,1,0,1196.95,0.256404,0.256156,27.8641,1,0.0177943,10,0.00713757,-1.55495,-0.227302,-0.259566,-283.637,0.256156,
2,1,0,1,0,1196.95,0.258801,0.258556,27.2239,1,0.0179044,10,0.0070389,-1.56505,-0.249911,-0.236084,-252.089,0.258556,
2,1,0,1,0,1196.96,0.261203,0.260916,26.659,1,0.0180121,10,0.00695578,-1.57416,-0.273783,-0.215499,-225.164,0.260916,
2,1,0,1,0,1196.96,0.263606,0.26331,26.1651,1,0.0181177,10,0.00688953,-1.58228,-0.297804,-0.198117,-202.92,0.26331,
2,1,0,1,0,1196.97,0.266003,0.265724,25.7098,1,0.0182214,10,0.00683171,-1.5899,-0.328841,-0.179418,-180.555,0.2657243,
2,1,0,1,0,1196.97,0.2684,0.26809,25.2892,1,0.0183233,10,0.00677979,-1.59706,-0.360738,-0.163554,-162.006,0.26809,
2,1,0,1,0,1196.97,0.270808,0.270483,24.9317,1,0.0184238,10,0.0067436,-1.60325,-0.393309,-0.150009,-146.374,0.270483,
2,1,0,1,0,1196.98,0.273205,0.272893,24.6126,1,0.0185228,10,0.00671661,-1.60884,-0.44147,-0.133644,-128.642,0.272893,
2,1,0,1,0,1196.98,0.275603,0.275301,24.308,1,0.0186206,10,0.00669201,-1.61425,-0.471446,-0.125147,-118.944,0.2753008,
2,1,0,1,0,1196.99,0.278008,0.277725,24.0498,1,0.0187173,10,0.00667922,-1.61889,-0.498088,-0.118453,-111.294,0.277725,
2,1,0,1,0,1196.99,0.280405,0.28013,23.7843,1,0.0188129,10,0.00666269,-1.62371,-0.544634,-0.10833,-100.703,0.28013,
2,1,0,1,0,1196.99,0.282802,0.282488,23.5447,1,0.0189075,10,0.0066511,-1.62811,-0.580133,-0.101701,-93.6696,0.282488,
2,1,0,1,0,1197,0.285199,0.284937,23.3376,1,0.0190013,10,0.00664975,-1.63194,-0.630036,-0.0936455,-85.4234,0.284937,
2,1,0,1,0,1197,0.287608,0.28727,23.1557,1,0.0190943,10,0.00665194,-1.63534,-0.67482,-0.0874308,-79.0359,0.28727,
2,1,0,1,0,1197.01,0.290005,0.289688,22.9677,1,0.0191865,10,0.00665349,-1.63888,-0.708069,-0.0833252,-74.7253,0.289688,
2,1,0,1,0,1197.01,0.292402,0.292092,22.7856,1,0.019278,10,0.00665551,-1.64234,-0.748553,-0.0788187,-70.1813,0.292092,
2,1,0,1,0,1197.01,0.294807,0.294491,22.6237,1,0.0193687,10,0.00666247,-1.64544,-0.790651,-0.0746221,-65.9755,0.294491,
2,1,0,1,0,1197.02,0.297204,0.29692,22.4784,1,0.0194589,10,0.0066743,-1.64823,-0.830031,-0.0710817,-62.5349,0.29692,
2,1,0,1,0,1197.02,0.299421,0.299145,22.3438,1,0.0195418,10,0.00668405,-1.65084,-0.0889356,-0.663402,-552.196,0.299145,
2,1,0,1,0,1197.02,0.300012,0.299842,22.301,1,0.0195642,10,0.00668678,-1.65168,0.00124938,47.2233,33039.2,0.299842,
2,1,0,1,0,1197.02,0.299243,0.299092,20.083,1,0.0195908,10,0.00600666,-1.69717,0.0130537,4.51978,2638.02,0.299092,
2,1,0,1,0,1197.03,0.296846,0.296665,14.0359,1,0.019658,10,0.00416396,-1.85276,0.0136382,4.32608,2058.55,0.296665,
2,1,0,1,0,1197.03,0.294449,0.294242,9.40872,1,0.0197041,10,0.00276844,-2.02647,0.0111765,5.27896,1799.41,0.294242,
2,1,0,1,0,1197.04,0.292041,0.291791,5.72825,1,0.0197338,10,0.00167145,-2.24198,0.00593906,9.93424,1417.06,0.291791,
2,1,0,1,0,1197.04,0.289644,0.289468,2.76512,1,0.0197503,10,0.000800412,-2.55829,0.012982,4.54474,1144.12,0.289468,
2,1,0,1,0,1197.04,0.287247,0.286993,0.330139,1,0.0197561,10,9.47477e-05,-3.4813,0.0416155,1.41774,943.395,0.286993,
2,0,0,1,0,1197.05,0.284841,0.284545,-1.68509,1,0.0197532,10,-0.000479485,-2.77338,-0.040888,-1.44297,779.615,0.284545,
2,0,0,1,0,1197.05,0.282444,0.282156,-3.36125,1,0.0197428,10,-0.000948397,-2.4735,-0.00763115,-7.73147,654.508,0.282156,
2,0,0,1,0,1197.06,0.280047,0.279812,-4.76292,1,0.0197264,10,-0.00133272,-2.32213,-0.01558,-3.7869,549.511,0.279812,
2,0,0,1,0,1197.06,0.27765,0.277416,-5.93778,1,0.0197048,10,-0.00164724,-2.22638,-0.0262201,-2.25018,463.765,0.277416,
2,0,0,1,0,1197.06,0.275242,0.274951,-6.95741,1,0.0196788,10,-0.00191295,-2.15755,-0.0377617,-1.56243,395.445,0.274951,
2,0,0,1,0,1197.07,0.272845,0.272539,-7.82121,1,0.0196492,10,-0.00213159,-2.10673,-0.0501456,-1.17657,343.114,0.2725395,
2,0,0,1,0,1197.07,0.270448,0.27016,-8.57968,1,0.0196163,10,-0.00231789,-2.06653,-0.0645819,-0.913569,295.744,0.27016,
2,0,0,1,0,1197.08,0.268039,0.26776,-9.2509,1,0.0195805,10,-0.00247702,-2.03382,-0.0799939,-0.737556,259.305,0.26776,
2,0,0,1,0,1197.08,0.265642,0.265361,-9.79369,1,0.0195424,10,-0.00259886,-2.00905,-0.0966048,-0.610736,229.679,0.265361,
2,0,0,1,0,1197.08,0.263245,0.262941,-10.3102,1,0.0195021,10,-0.00271098,-1.98673,-0.115731,-0.509801,202.77,0.262941,
2,0,0,1,0,1197.09,0.260843,0.260597,-10.776,1,0.0194599,10,-0.00280821,-1.96754,-0.132438,-0.44549,185.322,0.260597,
2,0,0,1,0,1197.09,0.258443,0.258178,-11.1938,1,0.0194159,10,-0.00289,-1.95102,-0.153818,-0.383569,165.9,0.258178,
2,0,0,1,0,1197.1,0.256046,0.255752,-11.5743,1,0.0193703,10,-0.00296016,-1.9365,-0.176073,-0.335089,150.215,0.255752,
2,0,0,1,0,1197.1,0.253649,0.253403,-11.8924,1,0.0193233,10,-0.00301359,-1.92473,-0.19745,-0.29881,138.141,0.253403,
2,0,0,1,0,1197.1,0.25124,0.250934,-12.2276,1,0.019275,10,-0.00306833,-1.91266,-0.221683,-0.266146,126.438,0.250934,
2,0,0,1,0,1197.11,0.248843,0.248559,-12.5226,1,0.0192255,10,-0.00311261,-1.90231,-0.235491,-0.250541,121.949,0.248559,
2,0,0,1,0,1197.11,0.246446,0.246124,-12.7917,1,0.0191748,10,-0.00314835,-1.89307,-0.26415,-0.223358,111.162,0.246124,
2,0,0,1,0,1197.12,0.244041,0.243747,-13.07,1,0.0191231,10,-0.00318578,-1.88372,-0.289445,-0.203838,103.538,0.243747,
2,0,0,1,0,1197.12,0.241644,0.24136,-13.2918,1,0.0190703,10,-0.00320812,-1.87642,-0.305796,-0.192939,99.8741,0.24136,
2,0,0,1,0,1197.12,0.239247,0.238921,-13.5205,1,0.0190167,10,-0.00323033,-1.86901,-0.327251,-0.18029,95.1507,0.238921,
2,0,0,1,0,1197.13,0.236849,0.236555,-13.7474,1,0.0189621,10,-0.00325202,-1.86178,-0.338808,-0.17414,93.3614,0.236555,
2,0,0,1,0,1197.13,0.234441,0.234114,-13.9867,1,0.0189066,10,-0.00327447,-1.85429,-0.353468,-0.166918,90.8792,0.234114,
2,0,0,1,0,1197.14,0.232044,0.23171,-14.1928,1,0.0188502,10,-0.00328862,-1.84793,-0.370713,-0.159153,87.9877,0.23171,
2,0,0,1,0,1197.14,0.229647,0.229352,-14.3901,1,0.0187931,10,-0.00330041,-1.84194,-0.39237,-0.150368,84.4269,0.229352,
2,0,0,1,0,1197.14,0.227239,0.226947,-14.5928,1,0.0187351,10,-0.00331179,-1.83586,-0.40851,-0.144427,82.1999,0.226947,
2,0,0,1,0,1197.15,0.224842,0.224548,-14.7943,1,0.0186763,10,-0.00332202,-1.82991,-0.416161,-0.141772,81.7738,0.224548,
2,0,0,1,0,1197.15,0.222445,0.222121,-14.981,1,0.0186168,10,-0.0033276,-1.82446,-0.427479,-0.138018,80.6722,0.222121,
2,0,0,1,0,1197.16,0.220047,0.219744,-15.1758,1,0.0185565,10,-0.0033348,-1.81885,-0.440764,-0.133859,79.2564,0.219744,
2,0,0,1,0,1197.16,0.217642,0.21734,-15.3678,1,0.0184953,10,-0.00334004,-1.81339,-0.445638,-0.132395,79.3538,0.21734,
2,0,0,1,0,1197.16,0.215245,0.214952,-15.5548,1,0.0184334,10,-0.00334353,-1.80814,-0.441066,-0.133767,81.2485,0.214952,
2,0,0,1,0,1197.17,0.212848,0.212541,-15.7413,1,0.0183708,10,-0.00334566,-1.80296,-0.449928,-0.131132,80.6124,0.212541,
2,0,0,1,0,1197.17,0.21044,0.210124,-15.9574,1,0.0183074,10,-0.00335304,-1.79704,-0.447232,-0.131922,82.1015,0.210124,
2,0,0,1,0,1197.18,0.208042,0.207735,-16.1421,1,0.0182432,10,-0.00335328,-1.79204,-0.449416,-0.131282,82.6643,0.207735,
2,0,0,1,0,1197.18,0.205645,0.205328,-16.345,1,0.0181782,10,-0.00335607,-1.78662,-0.459169,-0.128493,81.9783,0.205328,
2,0,0,1,0,1197.18,0.203246,0.202952,-16.5339,1,0.0181125,10,-0.00335559,-1.78163,-0.449995,-0.131113,84.658,0.202952,
2,0,0,1,0,1197.19,0.200843,0.200526,-16.7442,1,0.0180459,10,-0.00335766,-1.77613,-0.452036,-0.13052,85.3277,0.200526,
2,0,0,1,0,1197.19,0.198446,0.198145,-16.954,1,0.0179785,10,-0.00335934,-1.77073,-0.433532,-0.136091,90.1004,0.198145,
2,0,0,1,0,1197.2,0.196049,0.195726,-17.1643,1,0.0179102,10,-0.00335949,-1.76537,-0.432324,-0.136472,91.4913,0.1957258,
2,0,0,1,0,1197.2,0.19364,0.193319,-17.4019,1,0.0178411,10,-0.00336411,-1.7594,-0.424692,-0.138924,94.3618,0.193319,
2,0,0,1,0,1197.2,0.191243,0.190962,-17.6192,1,0.017771,10,-0.00336461,-1.75401,-0.405766,-0.145404,100.099,0.190962,
2,0,0,1,0,1197.21,0.188846,0.188518,-17.8624,1,0.0177001,10,-0.00336738,-1.74806,-0.402834,-0.146462,102.234,0.188518,
2,0,0,1,0,1197.21,0.186444,0.18614,-18.1238,1,0.0176281,10,-0.00337356,-1.74175,-0.383454,-0.153865,108.898,0.18614,
2,0,0,1,0,1197.22,0.184041,0.183767,-18.3784,1,0.017555,10,-0.00337734,-1.73569,-0.372231,-0.158504,113.829,0.183767,
2,0,0,1,0,1197.22,0.181644,0.1814,-18.6606,1,0.0174809,10,-0.00338503,-1.72907,-0.357493,-0.165038,120.416,0.1814,
2,0,0,1,0,1197.22,0.179247,0.178954,-18.951,1,0.0174057,10,-0.00339136,-1.72237,-0.339734,-0.173665,128.71,0.178954,
2,0,0,1,0,1197.23,0.176841,0.176546,-19.279,1,0.0173292,10,-0.00340364,-1.71491,-0.328694,-0.179498,135.246,0.176546,
2,0,0,1,0,1197.23,0.174444,0.174151,-19.6161,1,0.0172514,10,-0.00341615,-1.70739,-0.311841,-0.189199,145.027,0.174151,
2,0,0,1,0,1197.24,0.172047,0.171742,-19.9668,1,0.0171722,10,-0.00342914,-1.69969,-0.295691,-0.199533,155.866,0.171742,
2,0,0,1,0,1197.24,0.169644,0.169324,-20.3477,1,0.0170915,10,-0.00344535,-1.69149,-0.282809,-0.208621,166.114,0.169324,
2,0,0,1,0,1197.24,0.167242,0.166973,-20.7712,1,0.0170093,10,-0.00346823,-1.68254,-0.266675,-0.221243,179.761,0.166973,
2,0,0,1,0,1197.25,0.164845,0.164557,-21.2097,1,0.0169253,10,-0.00349021,-1.67347,-0.250165,-0.235844,195.799,0.164557,
2,0,0,1,0,1197.25,0.162448,0.162127,-21.6952,1,0.0168394,10,-0.00351737,-1.66364,-0.241634,-0.244171,207.265,0.162127,
2,0,0,1,0,1197.26,0.160042,0.159735,-22.2252,1,0.0167515,10,-0.00355014,-1.65315,-0.228704,-0.257975,224.213,0.159735,
2,0,0,1,0,1197.26,0.157645,0.157377,-22.76,1,0.0166615,10,-0.00358191,-1.64283,-0.21536,-0.27396,244.227,0.157377,
2,0,0,1,0,1197.26,0.155248,0.154945,-23.3649,1,0.0165692,10,-0.00362027,-1.63144,-0.206793,-0.285309,261.187,0.154945,
2,0,0,1,0,1197.27,0.152845,0.152568,-24.0296,1,0.0164744,10,-0.00366616,-1.61925,-0.195697,-0.301486,283.526,0.152568,
2,0,0,1,0,1197.27,0.150443,0.150131,-24.7334,1,0.0163768,10,-0.00371327,-1.60672,-0.188063,-0.313725,303.516,0.150131,
2,0,0,1,0,1197.28,0.148046,0.147766,-25.4852,1,0.0162763,10,-0.00376583,-1.59371,-0.181155,-0.325688,324.78,0.147766,
2,0,0,1,0,1197.28,0.145648,0.14537,-26.2709,1,0.0161727,10,-0.00381901,-1.58052,-0.174192,-0.338706,348.43,0.14537,
2,0,0,1,0,1197.28,0.14324,0.143,-27.1371,1,0.0160658,10,-0.00388062,-1.56644,-0.169346,-0.3484,370.091,0.143,
2,0,0,1,0,1197.29,0.140843,0.140601,-28.0543,1,0.0159554,10,-0.00394445,-1.552,-0.161907,-0.364406,400.262,0.140601,
2,0,0,1,0,1197.29,0.138446,0.13819,-29.0289,1,0.0158411,10,-0.00401152,-1.53717,-0.159164,-0.370688,421.218,0.13819,
2,0,0,1,0,1197.3,0.136041,0.135791,-30.1053,1,0.0157228,10,-0.00408802,-1.52136,-0.156336,-0.377391,443.84,0.135791,
2,0,0,1,0,1197.3,0.133644,0.13338,-31.1893,1,0.0156001,10,-0.00416003,-1.50599,-0.154024,-0.383058,466.67,0.13338,
2,0,0,1,0,1197.3,0.131246,0.130999,-32.316,1,0.015473,10,-0.00423335,-1.49058,-0.154439,-0.382029,482.621,0.1309986,
2,0,0,1,0,1197.31,0.128849,0.128586,-33.5109,1,0.0153413,10,-0.00430904,-1.47481,-0.154425,-0.382062,499.882,0.128586,
2,0,0,1,0,1197.31,0.126441,0.126175,-34.7461,1,0.0152046,10,-0.00438408,-1.45909,-0.156065,-0.378048,512.156,0.126175,
2,0,0,1,0,1197.32,0.124044,0.123807,-35.9748,1,0.0150631,10,-0.00445393,-1.444,-0.158917,-0.371263,520.995,0.123807,
2,0,0,1,0,1197.32,0.121647,0.121413,-37.2256,1,0.0149165,10,-0.00451965,-1.42916,-0.163526,-0.360798,523.891,0.121413,
2,0,0,1,0,1197.32,0.119241,0.118971,-38.5201,1,0.0147649,10,-0.00458279,-1.41431,-0.169285,-0.348525,522.588,0.118971,
2,0,0,1,0,1197.33,0.116844,0.116568,-39.7793,1,0.0146082,10,-0.00463697,-1.40034,-0.173413,-0.340229,526.987,0.116568,
2,0,0,1,0,1197.33,0.114447,0.11424,-40.9744,1,0.0144466,10,-0.00468091,-1.38749,-0.179336,-0.328992,526.261,0.11424,
2,0,0,1,0,1197.34,0.11205,0.111864,-42.2578,1,0.01428,10,-0.00472711,-1.37409,-0.185942,-0.317303,522.833,0.111864,
2,0,0,1,0,1197.34,0.109642,0.109398,-43.5582,1,0.0141082,10,-0.00476518,-1.36093,-0.192646,-0.306261,519.073,0.109398,
2,0,0,1,0,1197.34,0.107245,0.107041,-44.7601,1,0.0139314,10,-0.00479116,-1.34911,-0.201265,-0.293146,511.048,0.107041,
2,0,0,1,0,1197.35,0.104848,0.1046,-45.9784,1,0.0137498,10,-0.00480933,-1.33745,-0.214749,-0.274739,491.875,0.1046,
2,0,0,1,0,1197.35,0.10244,0.102248,-47.1719,1,0.0135634,10,-0.00482322,-1.32632,-0.226327,-0.260685,478.275,0.102248,
2,0,0,1,0,1197.36,0.100042,0.0998163,-48.2712,1,0.0133724,10,-0.00481826,-1.31631,-0.241931,-0.243871,458.196,0.0998163,
2,0,0,1,0,1197.36,0.0976454,0.0974738,-49.3358,1,0.0131771,10,-0.00480895,-1.30684,-0.259251,-0.227578,437.351,0.0974738,
2,0,0,1,0,1197.36,0.0952427,0.0950084,-50.3731,1,0.0129776,10,-0.00478587,-1.2978,-0.273338,-0.21585,423.542,0.0950084,
2,0,0,1,0,1197.37,0.0928428,0.0926448,-51.3718,1,0.012774,10,-0.00475933,-1.28928,-0.291076,-0.202696,405.56,0.0926448,
2,0,0,1,0,1197.37,0.0904457,0.090209,-52.3403,1,0.0125664,10,-0.00472157,-1.28116,-0.30972,-0.190495,388.197,0.090209,
2,0,0,1,0,1197.38,0.0880486,0.0878231,-53.2498,1,0.0123551,10,-0.00467656,-1.27368,-0.334975,-0.176133,365.081,0.0878231,
2,0,0,1,0,1197.38,0.0856404,0.0853979,-54.1038,1,0.0121403,10,-0.00462036,-1.26677,-0.367218,-0.160667,338.319,0.0853979,
2,0,0,1,0,1197.38,0.0832433,0.0830099,-54.8893,1,0.0119223,10,-0.00455636,-1.26051,-0.405257,-0.145587,311.019,0.0830099,
2,0,0,1,0,1197.39,0.0808462,0.0805646,-55.6032,1,0.0117012,10,-0.00447965,-1.2549,-0.451854,-0.130573,282.578,0.0805646,
2,0,0,1,0,1197.39,0.0784408,0.0781532,-56.2573,1,0.0114774,10,-0.00439669,-1.24982,-0.517707,-0.113964,249.44,0.07815323,
2,0,0,1,0,1197.4,0.0760437,0.0757737,-56.8234,1,0.0112512,10,-0.00430572,-1.24547,-0.594362,-0.099266,219.461,0.0757737,
2,0,0,1,0,1197.4,0.0736466,0.0733666,-57.2947,1,0.0110229,10,-0.00420352,-1.24189,-0.701864,-0.0840619,187.499,0.07336656,
2,0,0,1,0,1197.4,0.0712495,0.0709743,-57.7079,1,0.0107928,10,-0.00409578,-1.23876,-0.850117,-0.0694022,155.928,0.0709743,
2,0,0,1,0,1197.41,0.0688413,0.0685513,-58.0576,1,0.0105612,10,-0.00397992,-1.23614,-1.06578,-0.0553587,125.081,0.0685513,
2,0,0,1,0,1197.41,0.0664442,0.0661717,-58.3207,1,0.0103284,10,-0.00385918,-1.23418,-1.48314,-0.0397804,90.2648,0.0661717,
2,0,0,1,0,1197.42,0.0640471,0.0637317,-58.4999,1,0.0100947,10,-0.0037283,-1.23285,-2.45584,-0.0240244,54.6797,0.0637317,
2,0,0,1,0,1197.42,0.0616389,0.0613447,-58.5771,1,0.00986058,10,-0.0035934,-1.23227,-6.64801,-0.00887483,20.2336,0.0613447,
2,0,0,1,0,1197.42,0.0592417,0.0589737,-58.5813,1,0.00962625,10,-0.00345476,-1.23224,10.2083,0.00577962,-13.181,0.0589737,
2,0,0,1,0,1197.43,0.0568446,0.0565231,-58.5159,1,0.00939204,10,-0.0033075,-1.23273,3.32913,0.0177223,-40.3797,0.0565231,
2,0,0,1,0,1197.43,0.0544475,0.0541372,-58.3734,1,0.00915824,10,-0.00316017,-1.23378,1.90984,0.0308927,-70.2186,0.0541372,
2,0,0,1,0,1197.44,0.0520421,0.0516919,-58.1873,1,0.0089251,10,-0.00300781,-1.23517,1.38433,0.0426199,-96.5571,0.0516919,
2,0,0,1,0,1197.44,0.049645,0.0493144,-57.9031,1,0.00869292,10,-0.00285546,-1.2373,1.15693,0.0509971,-115.069,0.0493144,
2,0,0,1,0,1197.44,0.0472479,0.0469168,-57.5883,1,0.00846198,10,-0.00270186,-1.23967,0.970182,0.0608133,-136.543,0.0469168,
2,0,0,1,0,1197.45,0.0448397,0.0444811,-57.2623,1,0.00823233,10,-0.00254709,-1.24213,0.881747,0.0669126,-149.338,0.0444811,
2,0,0,1,0,1197.45,0.0424426,0.0421259,-56.8812,1,0.00800409,10,-0.00239617,-1.24503,0.814501,0.072437,-160.612,0.0421259,
2,0,0,1,0,1197.46,0.0400455,0.0397655,-56.477,1,0.00777741,10,-0.00224584,-1.24813,0.75637,0.0780041,-171.81,0.0397655,
2,0,0,1,0,1197.46,0.0376456,0.0373159,-56.0463,1,0.0075524,10,-0.00209142,-1.25145,0.732571,0.0805383,-176.119,0.0373159,
2,0,0,1,0,1197.46,0.035243,0.0349258,-55.6206,1,0.00732911,10,-0.00194259,-1.25476,0.714038,0.0826286,-179.327,0.0349258,
2,0,0,1,0,1197.47,0.0328459,0.0325377,-55.1925,1,0.00710752,10,-0.00179584,-1.25812,0.711438,0.0829306,-178.604,0.0325377,
2,0,0,1,0,1197.47,0.0304488,0.0301423,-54.7514,1,0.00688766,10,-0.00165033,-1.26161,0.688672,0.0856721,-183.01,0.0301423,
2,0,0,1,0,1197.48,0.0280406,0.0277076,-54.3302,1,0.00666957,10,-0.00150536,-1.26496,0.664661,0.0887671,-188.063,0.02770758,
2,0,0,1,0,1197.48,0.0256435,0.0253068,-53.8602,1,0.00645324,10,-0.00136303,-1.26873,0.655197,0.0900493,-189.205,0.0253068,
2,0,0,1,0,1197.48,0.0232463,0.0229495,-53.3893,1,0.00623879,10,-0.00122526,-1.27255,0.635499,0.0928404,-193.46,0.0229495,
2,0,0,1,0,1197.49,0.0208437,0.0205414,-52.9348,1,0.00602622,10,-0.00108735,-1.27626,0.616621,0.0956828,-197.567,0.0205414,
2,0,0,1,0,1197.49,0.018441,0.0180833,-52.4683,1,0.00581545,10,-0.000948802,-1.2801,0.594131,0.0993047,-203.101,0.0180833,
2,0,0,1,0,1197.5,0.0160439,0.0157197,-51.9661,1,0.00560664,10,-0.000816891,-1.28428,0.562332,0.10492,-212.551,0.0157197,
2,0,0,1,0,1197.5,0.0136468,0.0133242,-51.4344,1,0.00539989,10,-0.000685324,-1.28875,0.53275,0.110746,-222.139,0.0133242,
2,0,0,1,0,1197.5,0.0112414,0.01095,-50.8961,1,0.00519525,10,-0.000557312,-1.29332,0.50864,0.115996,-230.204,0.01095,
2,0,0,1,0,1197.51,0.00884431,0.00849938,-50.3393,1,0.00499284,10,-0.000427853,-1.29809,0.484119,0.121871,-239.129,0.00849938,
2,0,0,1,0,1197.51,0.0064472,0.00610922,-49.7538,1,0.00479269,10,-0.000303957,-1.30317,0.468288,0.125991,-244.422,0.00610922,
2,0,0,1,0,1197.52,0.00404455,0.00371695,-49.137,1,0.00459499,10,-0.00018264,-1.30859,0.434056,0.135927,-260.339,0.00371695,
2,0,0,1,0,1197.52,0.0016419,0.00131513,-48.5412,1,0.00439977,10,-6.38377e-05,-1.31389,0.406877,0.145007,-274.053,0.00131513,
2,0,0,1,0,1197.52,-0.000755207,-0.00112381,-47.834,1,0.00420708,10,5.37564e-05,-1.32026,0.387666,0.152193,-283.684,-0.00112381,
2,0,0,1,0,1197.53,-0.00315231,-0.0034917,-47.1226,1,0.00401724,10,0.000164538,-1.32677,0.361158,0.163364,-300.202,-0.0034917,
2,0,0,1,0,1197.53,-0.00555774,-0.00589034,-46.4116,1,0.00383023,10,0.00027338,-1.33337,0.348708,0.169196,-306.074,-0.00589034,
2,0,0,1,0,1197.54,-0.00795485,-0.00827944,-45.6609,1,0.00364614,10,0.000378046,-1.34046,0.341675,0.172679,-307.518,-0.00827944,
2,0,0,1,0,1197.54,-0.010352,-0.0107035,-44.9019,1,0.0034651,10,0.000480609,-1.34773,0.335077,0.176079,-308.63,-0.0107035,
2,0,0,1,0,1197.54,-0.0127546,-0.0130831,-44.1731,1,0.00328702,10,0.00057792,-1.35484,0.340802,0.173121,-298.62,-0.0130831,
2,0,0,1,0,1197.55,-0.0151573,-0.0154987,-43.4462,1,0.00311186,10,0.000673359,-1.36205,0.342288,0.172369,-292.53,-0.0154987,
2,0,0,1,0,1197.55,-0.0175544,-0.0179694,-42.7672,1,0.00293951,10,0.000768503,-1.36889,0.350535,0.168314,-281.157,-0.0179694,
2,0,0,1,0,1197.56,-0.0199515,-0.0202832,-42.0996,1,0.00276986,10,0.000853916,-1.37572,0.36245,0.162781,-267.755,-0.0202832,
2,0,0,1,0,1197.56,-0.0223597,-0.0227338,-41.4597,1,0.00260282,10,0.000942538,-1.38237,0.375046,0.157314,-255.012,-0.0227338,
2,0,0,1,0,1197.56,-0.0247568,-0.0251028,-40.8746,1,0.00243822,10,0.00102607,-1.38855,0.40521,0.145604,-232.808,-0.0251028,
2,0,0,1,0,1197.57,-0.0271539,-0.027529,-40.3294,1,0.00227587,10,0.00111023,-1.39438,0.43769,0.134798,-212.695,-0.027529,
2,0,0,1,0,1197.57,-0.0295593,-0.0299033,-39.86,1,0.00211556,10,0.00119194,-1.39946,0.467617,0.126172,-196.594,-0.0299033,
2,0,0,1,0,1197.58,-0.0319564,-0.0323305,-39.4185,1,0.00195708,10,0.00127442,-1.4043,0.517463,0.114018,-175.693,-0.0323305,
2,0,0,1,0,1197.58,-0.0343535,-0.0346889,-38.9901,1,0.00180032,10,0.00135252,-1.40905,0.575142,0.102583,-156.549,-0.0346889,
2,0,0,1,0,1197.58,-0.0367506,-0.0370886,-38.6499,1,0.0016451,10,0.00143347,-1.41285,0.640753,0.0920792,-139.243,-0.0370886,
2,0,0,1,0,1197.59,-0.0391588,-0.0395116,-38.3558,1,0.00149113,10,0.0015155,-1.41617,0.759556,0.0776769,-116.487,-0.0395116,
2,0,0,1,0,1197.59,-0.0415559,-0.0419092,-38.0848,1,0.0013383,10,0.0015961,-1.41925,0.85166,0.0692764,-103.146,-0.0419092,
2,0,0,1,0,1197.6,-0.043953,-0.0443333,-37.8666,1,0.00118645,10,0.00167875,-1.42174,0.976954,0.0603918,-89.3854,-0.0443333,
2,0,0,1,0,1197.6,-0.0463585,-0.0467245,-37.656,1,0.00103544,10,0.00175946,-1.42417,1.19288,0.0494603,-72.8375,-0.0467245,
2,0,0,1,0,1197.6,-0.0487556,-0.0491157,-37.4973,1,0.00088515,10,0.00184171,-1.426,1.42088,0.0415236,-60.8914,-0.0491157,
2,0,0,1,0,1197.61,-0.0511527,-0.0515059,-37.3858,1,0.000735412,10,0.00192559,-1.42729,2.00547,0.0294195,-42.9976,-0.0515059,
2,0,0,1,0,1197.61,-0.0535498,-0.0538907,-37.2846,1,0.000586101,10,0.0020093,-1.42847,2.60672,0.0226338,-32.9827,-0.05389072,
2,0,0,1,0,1197.62,-0.055958,-0.0563148,-37.2436,1,0.000437045,10,0.00209737,-1.42895,3.57712,0.0164937,-23.9909,-0.0563148,
2,0,0,1,0,1197.62,-0.0583551,-0.0586912,-37.1815,1,0.000288207,10,0.00218223,-1.42967,9.27367,0.0063621,-9.24645,-0.0586912,
2,0,0,1,0,1197.62,-0.0607522,-0.0611163,-37.1552,1,0.000139556,10,0.00227079,-1.42998,25.8412,0.00228318,-3.31719,-0.06111633,
2,0,0,1,0,1197.63,-0.0631604,-0.0635213,-37.1956,1,-9.13037e-06,10,0.00236271,-1.42951,-10.3948,-0.00567591,8.24496,-0.0635213,
2,0,0,1,0,1197.63,-0.0655575,-0.0658903,-37.2119,1,-0.000157936,10,0.0024519,-1.42932,-4.95174,-0.011915,17.3159,-0.0658903,
2,0,0,1,0,1197.64,-0.0679546,-0.0682995,-37.2607,1,-0.000306865,10,0.00254489,-1.42875,-4.1288,-0.0142899,20.7992,-0.0682995,
2,0,0,1,0,1197.64,-0.0703573,-0.0706971,-37.3211,1,-0.000456009,10,0.00263849,-1.42805,-2.97539,-0.0198293,28.9045,-0.0706971,
2,0,0,1,0,1197.64,-0.0727571,-0.0731201,-37.3952,1,-0.000605427,10,0.00273435,-1.42718,-2.41879,-0.0243924,35.633,-0.07312014,
2,0,0,1,0,1197.65,-0.0751542,-0.0754806,-37.4891,1,-0.000755177,10,0.0028297,-1.4261,-1.93863,-0.0304339,44.5809,-0.07548061,
2,0,0,1,0,1197.65,-0.0775514,-0.0778877,-37.6024,1,-0.000905381,10,0.00292876,-1.42478,-1.76527,-0.0334227,49.0832,-0.0778877,
2,0,0,1,0,1197.66,-0.0799595,-0.0802789,-37.7483,1,-0.00105607,10,0.00303039,-1.4231,-1.63891,-0.0359995,53.0293,-0.08027894,
2,0,0,1,0,1197.66,-0.0823567,-0.0826818,-37.8646,1,-0.0012073,10,0.00313071,-1.42177,-1.42866,-0.0412975,61.0755,-0.0826818,
2,0,0,1,0,1197.66,-0.0847538,-0.085143,-38.0015,1,-0.00135905,10,0.00323556,-1.4202,-1.35338,-0.0435945,64.7527,-0.085143,
2,0,0,1,0,1197.67,-0.0871592,-0.0874876,-38.1887,1,-0.00151139,10,0.00334104,-1.41807,-1.2404,-0.0475654,70.9208,-0.0874876,
2,0,0,1,0,1197.67,-0.0895563,-0.089918,-38.3724,1,-0.00166452,10,0.00345037,-1.41598,-1.1622,-0.050766,76.0092,-0.089918,
2,0,0,1,0,1197.68,-0.0919534,-0.0923082,-38.5473,1,-0.00181838,10,0.00355823,-1.41401,-1.1303,-0.0521988,78.5647,-0.0923082,
2,0,0,1,0,1197.68,-0.0943505,-0.094727,-38.7299,1,-0.00197295,10,0.00366877,-1.41195,-1.08699,-0.0542782,82.1172,-0.094727,
2,0,0,1,0,1197.68,-0.0967587,-0.0971214,-38.9456,1,-0.00212832,10,0.00378245,-1.40954,-1.00358,-0.0587897,89.2505,-0.0971214,
2,0,0,1,0,1197.69,-0.0991558,-0.0995232,-39.1612,1,-0.00228453,10,0.00389745,-1.40714,-1.61872,-0.0364486,55.3145,-0.0995232,
2,0,0,0,0,1197.69,-0.0999548,-0.100228,-39.2542,1,-0.00233548,10,0.00393438,-1.40611,0.0189195,3.11848,-4385,-0.100228,
2,0,0,0,1,1197.69,-0.0999548,-0.100381,-39.0427,1,-0.00235893,10,0.00391914,-1.40846,-0.0226384,-2.60619,3352.95,-0.100381,
2,0,0,1,1,1197.69,-0.0979573,-0.0984172,-33.2634,1,-0.00246898,10,0.0032737,-1.47803,-0.0273103,-2.16036,2533.29,-0.0984172,
2,0,0,1,1,1197.7,-0.0955546,-0.0960334,-27.4601,1,-0.0025896,10,0.00263708,-1.5613,-0.0271288,-2.17481,2303.31,-0.0960334,
2,0,0,1,1,1197.7,-0.0931519,-0.0935775,-22.4056,1,-0.00268864,10,0.00209666,-1.64964,-0.0254927,-2.31439,2006.87,-0.0935775,
2,0,0,1,1,1197.7,-0.0907548,-0.0912192,-17.9399,1,-0.00276875,10,0.00163647,-1.74618,-0.0227714,-2.59097,1768.74,-0.0912192,
2,0,0,1,1,1197.71,-0.0883577,-0.0887887,-13.9403,1,-0.002832,10,0.00123774,-1.85573,-0.0189849,-3.10773,1605.53,-0.0887887,
2,0,0,1,1,1197.71,-0.0859523,-0.0863254,-10.2891,1,-0.00288002,10,0.000888209,-1.98762,-0.0147194,-4.00833,1448.5,-0.0863254,
2,0,0,1,1,1197.72,-0.0835552,-0.0839787,-6.99447,1,-0.00291416,10,0.000587387,-2.15524,-0.00892268,-6.61236,1332.48,-0.0839787,
2,0,0,1,1,1197.72,-0.0811581,-0.0815726,-3.96696,1,-0.0029357,10,0.000323596,-2.40154,-0.0107947,-5.46565,1219.06,-0.0815726,
2,0,0,1,1,1197.72,-0.0787554,-0.0792101,-1.17694,1,-0.00294565,10,9.32253e-05,-2.92925,-0.0346736,-1.70158,1113,-0.0792101,
2,1,0,1,1,1197.73,-0.0763528,-0.0767828,1.3439,1,-0.002945,10,-0.000103189,-2.87163,0.0563125,1.04773,1030.62,-0.0767828,
2,1,0,1,1,1197.73,-0.0739557,-0.0743735,3.69606,1,-0.00293465,10,-0.000274889,-2.43226,0.0116209,5.07707,943.223,-0.0743735,
2,1,0,1,1,1197.74,-0.0715586,-0.0720396,5.85796,1,-0.00291528,10,-0.000422005,-2.23225,0.0111145,5.3084,875.939,-0.0720396,
2,1,0,1,1,1197.74,-0.0691532,-0.0696229,7.86588,1,-0.0028876,10,-0.000547645,-2.10425,0.0195199,3.02256,807.51,-0.0696229,
2,1,0,1,1,1197.74,-0.0667561,-0.0672412,9.70171,1,-0.00285223,10,-0.000652355,-2.01315,0.0276664,2.13255,747.22,-0.0672412,
2,1,0,1,1,1197.75,-0.0643589,-0.0648129,11.4164,1,-0.00280977,10,-0.000739927,-1.94247,0.036028,1.63762,694.567,-0.0648129,
2,1,0,1,1,1197.75,-0.0619563,-0.0624175,13.0478,1,-0.00276065,10,-0.000814411,-1.88446,0.0446551,1.32124,647.589,-0.0624175,
2,1,0,1,1,1197.76,-0.0595536,-0.0599987,14.5506,1,-0.00270527,10,-0.000873015,-1.83712,0.0541663,1.08924,600.187,-0.0599987,
2,1,0,1,1,1197.76,-0.0571565,-0.0576255,15.9288,1,-0.00264414,10,-0.000917904,-1.79782,0.064304,0.917517,557.924,-0.0576255,
2,1,0,1,1,1197.76,-0.0547594,-0.0551473,17.2175,1,-0.00257769,10,-0.0009495,-1.76403,0.0757211,0.779176,514.131,-0.0551473,
2,1,0,1,1,1197.77,-0.0523512,-0.0527837,18.4227,1,-0.00250625,10,-0.000972419,-1.73465,0.0880218,0.670289,474.312,-0.0527837,
2,1,0,1,1,1197.77,-0.0499541,-0.0503606,19.5058,1,-0.00243028,10,-0.000982324,-1.70984,0.09999,0.590059,443.578,-0.0503606,
2,1,0,1,1,1197.78,-0.047557,-0.047927,20.5289,1,-0.00235007,10,-0.000983888,-1.68763,0.115724,0.509836,404.131,-0.047927,
2,1,0,1,1,1197.78,-0.0451544,-0.0455761,21.4631,1,-0.00226597,10,-0.000978204,-1.66831,0.130523,0.452028,375.044,-0.04557607,
2,1,0,1,1,1197.78,-0.0427545,-0.0431308,22.3238,1,-0.00217829,10,-0.000962841,-1.65123,0.147598,0.399735,345.372,-0.04313077,
2,1,0,1,1,1197.79,-0.0403574,-0.0407364,23.1153,1,-0.00208731,10,-0.000941634,-1.6361,0.166082,0.355247,318.37,-0.0407364,
2,1,0,1,1,1197.79,-0.0379603,-0.0383674,23.8305,1,-0.00199333,10,-0.000914315,-1.62287,0.185147,0.318665,294.842,-0.0383674,
2,1,0,1,1,1197.8,-0.0355521,-0.0359359,24.5322,1,-0.00189651,10,-0.000881589,-1.61026,0.207171,0.284789,271.01,-0.0359359,
2,1,0,1,1,1197.8,-0.033155,-0.0335521,25.148,1,-0.00179708,10,-0.000843767,-1.5995,0.230722,0.255719,249.604,-0.0335521,
2,1,0,1,1,1197.8,-0.0307579,-0.0312086,25.6974,1,-0.00169533,10,-0.000801981,-1.59011,0.261589,0.225544,225.311,-0.0312086,
2,1,0,1,1,1197.81,-0.0283524,-0.028758,26.229,1,-0.00159143,10,-0.000754295,-1.58122,0.29298,0.201379,205.3,-0.028758,
2,1,0,1,1,1197.81,-0.0259553,-0.0263509,26.6919,1,-0.00148553,10,-0.000703354,-1.57362,0.324862,0.181616,188.521,-0.0263509,
2,1,0,1,1,1197.82,-0.0235582,-0.0239395,27.1214,1,-0.00137786,10,-0.000649274,-1.56669,0.366098,0.161159,170.058,-0.0239395,
2,1,0,1,1,1197.82,-0.0211611,-0.0215483,27.5186,1,-0.00126853,10,-0.000592979,-1.56037,0.409779,0.14398,154.115,-0.0215483,
2,1,0,1,1,1197.82,-0.0187529,-0.0191433,27.8641,1,-0.0011577,10,-0.000533411,-1.55496,0.457771,0.128885,139.77,-0.0191433,
2,1,0,1,1,1197.83,-0.0163558,-0.0167224,28.1758,1,-0.00104558,10,-0.000471166,-1.55012,0.516372,0.114259,125.387,-0.0167224,
2,1,0,1,1,1197.83,-0.0139587,-0.0143333,28.4641,1,-0.000932251,10,-0.000407984,-1.5457,0.578313,0.102021,113.104,-0.0143333,
2,1,0,1,1,1197.84,-0.0115505,-0.0119028,28.728,1,-0.000817853,10,-0.000341945,-1.54169,0.656311,0.0898964,100.531,-0.0119028,
2,1,0,1,1,1197.84,-0.0091534,-0.00948194,28.9568,1,-0.000702451,10,-0.000274567,-1.53825,0.765295,0.0770944,86.8932,-0.00948194,
2,1,0,1,1,1197.84,-0.00675629,-0.00714374,29.1387,1,-0.000586222,10,-0.000208159,-1.53553,0.869082,0.0678877,77.0854,-0.00714374,
2,1,0,1,1,1197.85,-0.00435919,-0.00471117,29.3002,1,-0.000469328,10,-0.000138038,-1.53313,1.14745,0.0514182,58.6389,-0.004711167,
2,1,0,1,1,1197.85,-0.00195376,-0.00234222,29.465,1,-0.000351753,10,-6.90134e-05,-1.53069, , , ,-0.00234222,
2,1,0,1,1,1197.86,-7.54729e-05,-0.00042076,29.4882,1,-0.000260293,10,-1.24074e-05,-1.53035, , , ,-0.00042076,