File: Figure_codes/Fig_3-5/rawdata_trumpetplot_data/after 10th/20221101_1-115_003_TrumpetPlot_ParaChange_from10_every3_11_CV_C01_12.csv
mode,ox/red,error,control changes,counter inc.,time/s,control/V,Ewe/V,<I>/mA,cycle number,(Q-Qo)/C,I Range,P/W,log(|I|),Tafel slope mV/dec,alpha_eff,dI/d(E-IR),E-IR/V,
2,1,0,1,0,24836.1,2.44065e-05,-0.000344411,9.92065,13,0.0000000E+000,10,-3.41678e-06,-2.00346, , , ,-0.000344411,
2,1,0,1,0,24836.1,0.00214129,0.00179655,11.1817,13,5.44148e-05,10,2.00885e-05,-1.95149, , , ,0.00179655,
2,1,0,1,0,24836.1,0.00454949,0.00420473,12.1751,13,0.000124753,10,5.11931e-05,-1.91453,0.0738269,0.799167,372.024,0.00420473,
2,1,0,1,0,24836.1,0.0069466,0.00664473,12.9287,13,0.000200182,10,8.59077e-05,-1.88845,0.096584,0.610868,305.483,0.00664473,
2,1,0,1,0,24836.1,0.0093437,0.00901474,13.609,13,0.000279895,10,0.000122682,-1.86617,0.118548,0.497688,262.435,0.00901474,
2,1,0,1,0,24836.1,0.0117408,0.011389,14.1902,13,0.000363376,10,0.000161612,-1.84801,0.140698,0.419337,231.079,0.011389,
2,1,0,1,0,24836.1,0.0141462,0.0138025,14.7153,13,0.000450166,10,0.000203108,-1.83223,0.160069,0.368591,211.009,0.0138025,
2,1,0,1,0,24836.1,0.0165433,0.0161958,15.1998,13,0.000539976,10,0.000246173,-1.81816,0.182341,0.32357,191.287,0.0161958,
2,1,0,1,0,24836.1,0.0189404,0.0185499,15.6258,13,0.000632554,10,0.000289856,-1.80616,0.205515,0.287084,174.803,0.0185499,
2,1,0,1,0,24836.1,0.0213486,0.0210069,16.0368,13,0.000727601,10,0.000336882,-1.79488,0.228876,0.257782,161.073,0.0210069,
2,1,0,1,0,24836.1,0.0237457,0.0234511,16.4182,13,0.000825025,10,0.000385024,-1.78468,0.250452,0.235574,150.642,0.0234511,
2,1,0,1,0,24836.2,0.0261429,0.0257989,16.7581,13,0.000924591,10,0.00043234,-1.77578,0.267658,0.220431,144.091,0.02579885,
2,1,0,1,0,24836.2,0.02854,0.0281975,17.0937,13,0.0010262,10,0.000482001,-1.76716,0.288926,0.204205,136.076,0.02819749,
2,1,0,1,0,24836.2,0.0309482,0.0305866,17.4108,13,0.00112978,10,0.000532538,-1.75918,0.304973,0.19346,131.366,0.0305866,
2,1,0,1,0,24836.2,0.0333453,0.0329895,17.7149,13,0.0012352,10,0.000584406,-1.75166,0.329992,0.178792,123.518,0.0329895,
2,1,0,1,0,24836.2,0.0357424,0.0353786,18.0094,13,0.00134242,10,0.000637147,-1.7445,0.348439,0.169327,118.925,0.03537856,
2,1,0,1,0,24836.2,0.0381478,0.0377952,18.2946,13,0.00145135,10,0.000691448,-1.73768,0.35666,0.165424,118.108,0.0377952,
2,1,0,1,0,24836.2,0.0405449,0.0402193,18.576,13,0.00156198,10,0.000747115,-1.73105,0.376946,0.156521,113.389,0.0402193,
2,1,0,1,0,24836.2,0.042942,0.0425999,18.8531,13,0.00167431,10,0.00080314,-1.72462,0.378385,0.155926,114.68,0.0425999,
2,1,0,1,0,24836.2,0.0453391,0.0450187,19.1113,13,0.0017882,10,0.000860365,-1.71871,0.383167,0.15398,114.912,0.0450187,
2,1,0,1,0,24836.2,0.0477473,0.0473686,19.396,13,0.00190376,10,0.000918763,-1.71229,0.388192,0.151987,114.944,0.0473686,
2,1,0,1,0,24836.2,0.0501444,0.0498171,19.6649,13,0.00202099,10,0.000979646,-1.70631,0.403964,0.146053,112.041,0.0498171,
2,1,0,1,0,24836.2,0.0525415,0.0522136,19.928,13,0.00213977,10,0.00104051,-1.70054,0.404339,0.145917,113.567,0.0522136,
2,1,0,1,0,24836.2,0.0549469,0.0545942,20.2116,13,0.0022602,10,0.00110344,-1.6944,0.405307,0.145569,114.744,0.0545942,
2,1,0,1,0,24836.2,0.057344,0.0569918,20.4756,13,0.00238232,10,0.00116694,-1.68876,0.421101,0.140109,111.936,0.0569918,
2,1,0,1,0,24836.2,0.0597411,0.0593936,20.7417,13,0.00250602,10,0.00123193,-1.68315,0.42341,0.139345,112.864,0.0593936,
2,1,0,1,0,24836.2,0.0621438,0.0617562,21.0231,13,0.00263133,10,0.00129831,-1.6773,0.416416,0.141685,116.281,0.0617562,
2,1,0,1,0,24836.2,0.0645465,0.0641909,21.3037,13,0.00275835,10,0.0013675,-1.67155,0.417529,0.141308,117.457,0.0641909,
2,1,0,1,0,24836.3,0.0669436,0.0665778,21.5841,13,0.00288705,10,0.00143702,-1.66587,0.429924,0.137233,115.553,0.0665778,
2,1,0,1,0,24836.3,0.0693407,0.0690231,21.856,13,0.00301741,10,0.00150857,-1.66043,0.419367,0.140688,120.093,0.06902314,
2,1,0,1,0,24836.3,0.0717489,0.071391,22.1504,13,0.00314946,10,0.00158134,-1.65462,0.417458,0.141332,122.205,0.071391,
2,1,0,1,0,24836.3,0.074146,0.0737875,22.4534,13,0.00328332,10,0.00165678,-1.64872,0.434054,0.135928,119.026,0.07378754,
2,1,0,1,0,24836.3,0.0765431,0.0761671,22.7173,13,0.00341887,10,0.00173031,-1.64364,0.441333,0.133686,118.626,0.0761671,
2,1,0,1,0,24836.3,0.0789485,0.0785679,23.0111,13,0.00355609,10,0.00180793,-1.63806,0.441092,0.133759,120.142,0.0785679,
2,1,0,1,0,24836.3,0.0813456,0.0810269,23.3109,13,0.00369512,10,0.00188881,-1.63244,0.451493,0.130678,118.775,0.0810269,
2,1,0,1,0,24836.3,0.0837427,0.0833673,23.5772,13,0.00383582,10,0.00196556,-1.62751,0.467596,0.126177,116.104,0.0833673,
2,1,0,1,0,24836.3,0.0861398,0.0857786,23.8577,13,0.00397816,10,0.00204648,-1.62237,0.470596,0.125373,116.736,0.0857786,
2,1,0,1,0,24836.3,0.088548,0.0881613,24.1401,13,0.00412218,10,0.00212822,-1.61726,0.459156,0.128497,121.08,0.0881613,
2,1,0,1,0,24836.3,0.0909451,0.0905579,24.4378,13,0.00426793,10,0.00221303,-1.61194,0.46421,0.127098,121.216,0.0905579,
2,1,0,1,0,24836.3,0.0933422,0.093,24.7325,13,0.00441545,10,0.00230012,-1.60673,0.460787,0.128042,123.585,0.093,
2,1,0,1,0,24836.3,0.0957476,0.0953742,25.0327,13,0.00456475,10,0.00238747,-1.60149,0.472187,0.124951,121.997,0.0953742,
2,1,0,1,0,24836.3,0.0981448,0.0977708,25.3174,13,0.00471583,10,0.0024753,-1.59658,0.497851,0.118509,116.995,0.0977708,
2,1,0,1,0,24836.3,0.100542,0.100191,25.5878,13,0.00486856,10,0.00256366,-1.59197,0.507871,0.116171,116.023,0.1001906,
2,1,0,1,0,24836.3,0.102939,0.102587,25.8549,13,0.00502289,10,0.00265238,-1.58746,0.502673,0.117373,118.494,0.102587,
2,1,0,1,0,24836.3,0.105347,0.10501,26.1535,13,0.00517898,10,0.00274639,-1.58247,0.510247,0.11563,117.928,0.10501,
2,1,0,1,0,24836.4,0.107744,0.107411,26.4261,13,0.00533676,10,0.00283845,-1.57797,0.523596,0.112682,116.204,0.107411,
2,1,0,1,0,24836.4,0.110141,0.109838,26.6991,13,0.00549616,10,0.00293258,-1.5735,0.51028,0.115623,120.58,0.109838,
2,1,0,1,0,24836.4,0.11255,0.112172,27.0147,13,0.00565731,10,0.0030303,-1.5684,0.498446,0.118368,124.738,0.112172,
2,1,0,1,0,24836.4,0.114947,0.114606,27.2994,13,0.00582028,10,0.00312867,-1.56385,0.498555,0.118342,126.141,0.114606,
2,1,0,1,0,24836.4,0.117344,0.117005,27.6133,13,0.00598503,10,0.0032309,-1.55888,0.477851,0.123469,133.156,0.117005,
2,1,0,1,0,24836.4,0.119744,0.119397,27.9451,13,0.0061517,10,0.00333655,-1.55369,0.461591,0.127819,139.421,0.119397,
2,1,0,1,0,24836.4,0.122146,0.121806,28.2818,13,0.00632042,10,0.00344489,-1.54849,0.457492,0.128964,142.323,0.121806,
2,1,0,1,0,24836.4,0.124543,0.124161,28.6142,13,0.00649117,10,0.00355277,-1.54342,0.448405,0.131578,147.021,0.124161,
2,1,0,1,0,24836.4,0.126941,0.126568,28.9748,13,0.00666398,10,0.00366729,-1.53798,0.432055,0.136557,154.545,0.126568,
2,1,0,1,0,24836.4,0.129349,0.129003,29.3667,13,0.00683905,10,0.00378839,-1.53214,0.427706,0.137945,158.063,0.129003,
2,1,0,1,0,24836.4,0.131746,0.131407,29.7445,13,0.00701644,10,0.00390863,-1.52659,0.429815,0.137268,159.344,0.131407,
2,1,0,1,0,24836.4,0.134143,0.133761,30.1247,13,0.00719608,10,0.00402951,-1.52108,0.427039,0.138161,162.571,0.133761,
2,1,0,1,0,24836.4,0.13654,0.136183,30.5352,13,0.00737808,10,0.00415837,-1.5152,0.423888,0.139188,165.821,0.136183,
2,1,0,1,0,24836.4,0.138945,0.138589,30.9363,13,0.00756257,10,0.00428743,-1.50953,0.43663,0.135126,163.021,0.138589,
2,1,0,1,0,24836.4,0.141343,0.14096,31.3134,13,0.00774936,10,0.00441394,-1.50427,0.443396,0.133064,162.674,0.14096,
2,1,0,1,0,24836.4,0.14374,0.143418,31.7146,13,0.00793846,10,0.00454845,-1.49874,0.450044,0.131098,162.203,0.143418,
2,1,0,1,0,24836.5,0.146148,0.145818,32.1067,13,0.00812999,10,0.00468173,-1.4934,0.468015,0.126064,157.817,0.145818,
2,1,0,1,0,24836.5,0.148545,0.148264,32.4636,13,0.00832373,10,0.00481319,-1.4886,0.499235,0.118181,149.715,0.148264,
2,1,0,1,0,24836.5,0.150942,0.150621,32.8139,13,0.0085196,10,0.00494248,-1.48394,0.512109,0.11521,147.519,0.150621,
2,1,0,1,0,24836.5,0.153345,0.153022,33.1628,13,0.00871759,10,0.00507464,-1.47935,0.549565,0.107358,138.872,0.153022,
2,1,0,1,0,24836.5,0.155747,0.155402,33.4996,13,0.00891763,10,0.0052059,-1.47496,0.589781,0.100037,130.647,0.155402,
2,1,0,1,0,24836.5,0.158144,0.157806,33.7919,13,0.00911953,10,0.00533255,-1.47119,0.639537,0.0922542,121.604,0.157806,
2,1,0,1,0,24836.5,0.160542,0.16018,34.0749,13,0.00932314,10,0.00545812,-1.46756,0.718768,0.082085,109.066,0.1601799,
2,1,0,1,0,24836.5,0.162947,0.162586,34.3351,13,0.00952843,10,0.00558241,-1.46426,0.825757,0.0714496,95.604,0.162586,
2,1,0,1,0,24836.5,0.165344,0.165023,34.5332,13,0.00973506,10,0.00569876,-1.46176,0.994381,0.0593334,79.9136,0.165023,
2,1,0,1,0,24836.5,0.167741,0.167419,34.7133,13,0.00994282,10,0.00581168,-1.4595,1.25141,0.0471469,63.8022,0.167419,
2,1,0,1,0,24836.5,0.170149,0.169816,34.8526,13,0.0101516,10,0.00591852,-1.45777,2.08286,0.0283264,38.4441,0.169816,
2,1,0,1,0,24836.5,0.172547,0.172208,34.8911,13,0.0103608,10,0.00600853,-1.45729,7.90408,0.0074645,10.1489,0.172208,
2,1,0,1,0,24836.5,0.174944,0.174605,34.8838,13,0.0105702,10,0.00609087,-1.45738,-4.1321,-0.0142784,-19.4061,0.174605,
2,1,0,1,0,24836.5,0.177341,0.177016,34.8077,13,0.0107793,10,0.00616151,-1.45833,-1.48678,-0.0396831,-53.7825,0.177016,
2,1,0,1,0,24836.5,0.179746,0.179429,34.6318,13,0.0109877,10,0.00621396,-1.46053,-0.888896,-0.0663745,-89.5152,0.179429,
2,1,0,1,0,24836.5,0.182143,0.181831,34.3767,13,0.0111947,10,0.00625076,-1.46374,-0.617304,-0.0955769,-127.933,0.1818313,
2,1,0,1,0,24836.5,0.18454,0.184224,34.0358,13,0.0114,10,0.0062702,-1.46806,-0.48339,-0.122055,-161.716,0.184224,
2,1,0,1,0,24836.6,0.186949,0.186654,33.6035,13,0.0116029,10,0.00627224,-1.47361,-0.385432,-0.153075,-200.235,0.186654,
2,1,0,1,0,24836.6,0.189346,0.189021,33.071,13,0.0118029,10,0.00625112,-1.48055,-0.32117,-0.183703,-236.552,0.189021,
2,1,0,1,0,24836.6,0.191743,0.191422,32.4593,13,0.0119994,10,0.00621342,-1.48866,-0.283558,-0.20807,-263.126,0.191422,
2,1,0,1,0,24836.6,0.19414,0.19381,31.7894,13,0.0121922,10,0.00616109,-1.49772,-0.249324,-0.23664,-292.92,0.19381,
2,1,0,1,0,24836.6,0.196548,0.196249,31.0509,13,0.0123807,10,0.0060937,-1.50793,-0.224954,-0.262276,-317.25,0.196249,
2,1,0,1,0,24836.6,0.198945,0.198625,30.2556,13,0.0125645,10,0.00600951,-1.51919,-0.208268,-0.283289,-334.149,0.198625,
2,1,0,1,0,24836.6,0.201342,0.201021,29.4446,13,0.0127435,10,0.005919,-1.53099,-0.19437,-0.303545,-348.283,0.201021,
2,1,0,1,0,24836.6,0.203748,0.203454,28.598,13,0.0129176,10,0.00581839,-1.54366,-0.188989,-0.312187,-348.269,0.203454,
2,1,0,1,0,24836.6,0.206145,0.205775,27.7465,13,0.0130865,10,0.00570954,-1.55679,-0.181963,-0.324241,-351.301,0.205775,
2,1,0,1,0,24836.6,0.208542,0.208257,26.9317,13,0.0132505,10,0.00560872,-1.56974,-0.183523,-0.321485,-337.817,0.208257,
2,1,0,1,0,24836.6,0.210939,0.210633,26.1029,13,0.0134096,10,0.00549813,-1.58331,-0.180163,-0.32748,-333.845,0.210633,
2,1,0,1,0,24836.6,0.213347,0.213023,25.3238,13,0.0135638,10,0.00539455,-1.59647,-0.183341,-0.321804,-318.284,0.213023,
2,1,0,1,0,24836.6,0.215744,0.215379,24.578,13,0.0137134,10,0.0052936,-1.60945,-0.186514,-0.31633,-303.658,0.215379,
2,1,0,1,0,24836.6,0.218141,0.217829,23.8624,13,0.0138586,10,0.00519792,-1.62229,-0.1915,-0.308094,-287.245,0.217829,
2,1,0,1,0,24836.6,0.220547,0.220237,23.2008,13,0.0139997,10,0.00510967,-1.6345,-0.198215,-0.297656,-269.724,0.220237,
2,1,0,1,0,24836.6,0.222944,0.222633,22.5641,13,0.0141369,10,0.00502351,-1.64658,-0.205667,-0.286871,-253.028,0.222633,
2,1,0,1,0,24836.6,0.225341,0.225025,21.9852,13,0.0142705,10,0.00494721,-1.65787,-0.215006,-0.274411,-235.786,0.225025,
2,1,0,1,0,24836.7,0.227744,0.227413,21.4419,13,0.0144007,10,0.00487617,-1.66874,-0.228847,-0.257814,-215.982,0.227413,
2,1,0,1,0,24836.7,0.230146,0.229853,20.9323,13,0.0145278,10,0.00481135,-1.67918,-0.238948,-0.246916,-202.055,0.229853,
2,1,0,1,0,24836.7,0.232543,0.232253,20.4843,13,0.0146519,10,0.00475753,-1.68858,-0.253485,-0.232755,-186.15,0.232253,
2,1,0,1,0,24836.7,0.234941,0.234646,20.0478,13,0.0147735,10,0.00470414,-1.69793,-0.266605,-0.221301,-173.267,0.2346459,
2,1,0,1,0,24836.7,0.237349,0.236996,19.6477,13,0.0148925,10,0.00465641,-1.70669,-0.28584,-0.206409,-158.471,0.236996,
2,1,0,1,0,24836.7,0.239746,0.239404,19.2769,13,0.0150092,10,0.00461497,-1.71496,-0.299801,-0.196797,-148.171,0.239404,
2,1,0,1,0,24836.7,0.242143,0.241782,18.9289,13,0.0151238,10,0.00457667,-1.72288,-0.320263,-0.184224,-136.283,0.241782,
2,1,0,1,0,24836.7,0.244548,0.244239,18.6148,13,0.0152363,10,0.00454647,-1.73014,-0.33446,-0.176404,-128.295,0.244239,
2,1,0,1,0,24836.7,0.246946,0.24662,18.3264,13,0.0153471,10,0.00451966,-1.73692,-0.360792,-0.163529,-117.014,0.24662,
2,1,0,1,0,24836.7,0.249343,0.249047,18.0456,13,0.0154562,10,0.00449421,-1.74363,-0.377248,-0.156396,-110.234,0.249047,
2,1,0,1,0,24836.7,0.25174,0.251439,17.7931,13,0.0155637,10,0.00447388,-1.74975,-0.399252,-0.147776,-102.691,0.2514385,
2,1,0,1,0,24836.7,0.254148,0.253855,17.5505,13,0.0156697,10,0.00445528,-1.75571,-0.422856,-0.139527,-95.6584,0.253855,
2,1,0,1,0,24836.7,0.256545,0.256203,17.3331,13,0.0157743,10,0.00444078,-1.76112,-0.443671,-0.132981,-90.0083,0.256203,
2,1,0,1,0,24836.7,0.258942,0.258643,17.1281,13,0.0158777,10,0.00443007,-1.76629,-0.463049,-0.127416,-85.1751,0.258643,
2,1,0,1,0,24836.7,0.261348,0.260968,16.9299,13,0.0159798,10,0.00441816,-1.77135,-0.494115,-0.119405,-78.9476,0.260968,
2,1,0,1,0,24836.7,0.263745,0.263411,16.7454,13,0.0160808,10,0.00441093,-1.7761,-0.525389,-0.112298,-73.4124,0.263411,
2,1,0,1,0,24836.8,0.266142,0.265808,16.5765,13,0.0161807,10,0.00440616,-1.78051,-0.553848,-0.106527,-68.9417,0.265808,
2,1,0,1,0,24836.8,0.268539,0.268242,16.3957,13,0.0162796,10,0.00439801,-1.78527,-0.572721,-0.103017,-66.0279,0.268242,
2,1,0,1,0,24836.8,0.270947,0.270616,16.2564,13,0.0163776,10,0.00439923,-1.78898,-0.614233,-0.0960547,-60.9443,0.270616,
2,1,0,1,0,24836.8,0.273344,0.273071,16.1204,13,0.0164747,10,0.00440201,-1.79262,-0.626586,-0.0941611,-59.213,0.273071,
2,1,0,1,0,24836.8,0.275741,0.275419,15.9643,13,0.0165709,10,0.00439686,-1.79685,-0.637931,-0.0924865,-57.6799,0.275419,
2,1,0,1,0,24836.8,0.278149,0.27786,15.8429,13,0.0166663,10,0.00440211,-1.80016,-0.697735,-0.0845593,-52.2871,0.27786,
2,1,0,1,0,24836.8,0.280547,0.28023,15.7177,13,0.016761,10,0.00440457,-1.80361,-0.712894,-0.0827612,-50.7608,0.2802296,
2,1,0,1,0,24836.8,0.282944,0.282614,15.5981,13,0.0168549,10,0.00440825,-1.80693,-0.738416,-0.0799007,-48.648,0.282614,
2,1,0,1,0,24836.8,0.285344,0.285066,15.4751,13,0.0169481,10,0.00441143,-1.81037,-0.761673,-0.0774611,-46.8085,0.2850661,
2,1,0,1,0,24836.8,0.287746,0.287406,15.3656,13,0.0170406,10,0.00441619,-1.81345,-0.776704,-0.075962,-45.559,0.287406,
2,1,0,1,0,24836.8,0.290143,0.289838,15.2651,13,0.0171325,10,0.00442441,-1.8163,-0.773557,-0.0762711,-45.4197,0.289838,
2,1,0,1,0,24836.8,0.29254,0.292224,15.1536,13,0.0172238,10,0.00442825,-1.81948,-0.831355,-0.0709685,-42.0089,0.292224,
2,1,0,1,0,24836.8,0.294949,0.294666,15.0616,13,0.0173144,10,0.00443814,-1.82213,-0.899928,-0.0655608,-38.5491,0.294666,
2,1,0,1,0,24836.8,0.297346,0.297025,14.9776,13,0.0174045,10,0.00444874,-1.82456,-0.937262,-0.0629493,-36.8016,0.297025,
2,1,0,1,0,24836.8,0.299621,0.299311,14.8704,13,0.0174896,10,0.00445085,-1.82768,-0.0735789,-0.801861,-447.986,0.299311,
2,1,0,1,0,24836.8,0.299962,0.299708,14.731,13,0.0175074,10,0.00441499,-1.83177,0.00974355,6.05529,2859.74,0.299708,
2,1,0,1,0,24836.8,0.297903,0.297689,10.7964,13,0.0175708,10,0.00321397,-1.96672,0.0160849,3.66803,1487.47,0.297689,
2,1,0,1,0,24836.8,0.295506,0.295249,7.75977,13,0.0176257,10,0.00229107,-2.11015,0.0161202,3.65999,1124.08,0.295249,
2,1,0,1,0,24836.9,0.293101,0.292816,5.43977,13,0.0176648,10,0.00159285,-2.26442,0.0140173,4.20907,881.1,0.292816,
2,1,0,1,0,24836.9,0.290704,0.290399,3.57221,13,0.0176915,10,0.00103736,-2.44706,0.0108908,5.4174,711.864,0.2903989,
2,1,0,1,0,24836.9,0.288307,0.288006,2.03792,13,0.017708,10,0.000586932,-2.69081,0.00602481,9.79285,593.913,0.288006,
2,1,0,1,0,24836.9,0.28591,0.285598,0.762676,13,0.0177162,10,0.000217819,-3.11766,0.0112257,5.25578,496.589,0.285598,
2,0,0,1,0,24836.9,0.283501,0.283227,-0.344514,13,0.0177172,10,-9.75757e-05,-3.46279,-0.0511804,-1.15278,423.785,0.283227,
2,0,0,1,0,24836.9,0.281104,0.280798,-1.27669,13,0.0177122,10,-0.000358492,-2.89391,-0.00215416,-27.3888,363.557,0.280798,
2,0,0,1,0,24836.9,0.278707,0.278394,-2.06918,13,0.0177021,10,-0.000576049,-2.6842,-0.0131086,-4.50085,318.258,0.278394,
2,0,0,1,0,24836.9,0.276302,0.275964,-2.79606,13,0.0176874,10,-0.000771612,-2.55345,-0.021814,-2.70468,275.328,0.2759636,
2,0,0,1,0,24836.9,0.273905,0.273566,-3.41008,13,0.0176686,10,-0.000932882,-2.46724,-0.0308352,-1.9134,244.869,0.273566,
2,0,0,1,0,24836.9,0.271508,0.271141,-3.95078,13,0.0176465,10,-0.00107122,-2.40332,-0.0405125,-1.45634,220.163,0.271141,
2,0,0,1,0,24836.9,0.269105,0.268767,-4.4531,13,0.0176212,10,-0.00119685,-2.35134,-0.0517869,-1.13928,194.359,0.268767,
2,0,0,1,0,24836.9,0.266702,0.266389,-4.8878,13,0.0175931,10,-0.00130206,-2.31089,-0.064062,-0.920982,173.422,0.266389,
2,0,0,1,0,24836.9,0.264305,0.263988,-5.28666,13,0.0175625,10,-0.00139562,-2.27682,-0.0766191,-0.770043,157.47,0.263988,
2,0,0,1,0,24836.9,0.261908,0.261568,-5.64481,13,0.0175296,10,-0.0014765,-2.24835,-0.0878026,-0.671962,147.157,0.2615675,
2,0,0,1,0,24836.9,0.2595,0.259203,-5.99124,13,0.0174947,10,-0.00155295,-2.22248,-0.102798,-0.573943,133.249,0.259203,
2,0,0,1,0,24836.9,0.257103,0.256763,-6.2953,13,0.0174578,10,-0.0016164,-2.20098,-0.1197,-0.492898,120.372,0.2567628,
2,0,0,1,0,24836.9,0.254706,0.254418,-6.56614,13,0.0174192,10,-0.00167055,-2.18269,-0.135132,-0.43661,111.708,0.254418,
2,0,0,1,0,24837,0.2523,0.251998,-6.842,13,0.017379,10,-0.00172417,-2.16482,-0.147306,-0.400527,106.455,0.251998,
2,0,0,1,0,24837,0.249903,0.249567,-7.08394,13,0.0173372,10,-0.00176792,-2.14972,-0.166121,-0.355163,97.745,0.2495669,
2,0,0,1,0,24837,0.247506,0.247169,-7.29631,13,0.017294,10,-0.00180342,-2.1369,-0.179765,-0.328206,93.5097,0.247169,
2,0,0,1,0,24837,0.245109,0.244796,-7.51899,13,0.0172495,10,-0.00184062,-2.12384,-0.192985,-0.305724,89.5798,0.244796,
2,0,0,1,0,24837,0.242701,0.242333,-7.73262,13,0.0172037,10,-0.00187387,-2.11167,-0.211818,-0.278541,83.7752,0.242333,
2,0,0,1,0,24837,0.240304,0.239987,-7.91842,13,0.0171567,10,-0.00190032,-2.10136,-0.236872,-0.249079,76.9477,0.239987,
2,0,0,1,0,24837,0.237906,0.237575,-8.10269,13,0.0171087,10,-0.00192499,-2.09137,-0.249568,-0.236408,74.6745,0.237575,
2,0,0,1,0,24837,0.235501,0.235128,-8.28915,13,0.0170595,10,-0.00194901,-2.08149,-0.263606,-0.223819,72.2248,0.235128,
2,0,0,1,0,24837,0.233104,0.232775,-8.44551,13,0.0170093,10,-0.00196591,-2.07337,-0.286455,-0.205966,67.8271,0.232775,
2,0,0,1,0,24837,0.230707,0.23039,-8.60653,13,0.0169581,10,-0.00198286,-2.06517,-0.29735,-0.19842,66.6718,0.2303905,
2,0,0,1,0,24837,0.22831,0.228013,-8.75922,13,0.016906,10,-0.00199722,-2.05753,-0.31328,-0.18833,64.3899,0.228013,
2,0,0,1,0,24837,0.225902,0.225603,-8.92614,13,0.0168529,10,-0.00201376,-2.04934,-0.330735,-0.17839,61.9745,0.225603,
2,0,0,1,0,24837,0.223504,0.223179,-9.0602,13,0.0167989,10,-0.00202204,-2.04286,-0.35961,-0.164066,58.0204,0.223179,
2,0,0,1,0,24837,0.221107,0.220819,-9.20027,13,0.0167441,10,-0.0020316,-2.0362,-0.350485,-0.168338,60.4724,0.220819,
2,0,0,1,0,24837,0.218699,0.2184,-9.3568,13,0.0166885,10,-0.00204353,-2.02887,-0.378403,-0.155918,56.7925,0.2184,
2,0,0,1,0,24837,0.216302,0.216001,-9.47588,13,0.0166319,10,-0.0020468,-2.02338,-0.400592,-0.147282,54.4789,0.2160008,
2,0,0,1,0,24837.1,0.213905,0.213569,-9.60521,13,0.0165747,10,-0.00205138,-2.01749,-0.402725,-0.146502,54.9743,0.213569,
2,0,0,1,0,24837.1,0.211505,0.211209,-9.74026,13,0.0165166,10,-0.00205723,-2.01143,-0.416415,-0.141685,53.8193,0.211209,
2,0,0,1,0,24837.1,0.209102,0.208775,-9.86718,13,0.0164578,10,-0.00206002,-2.00581,-0.41573,-0.141919,54.6619,0.208775,
2,0,0,1,0,24837.1,0.206705,0.206393,-9.99743,13,0.0163982,10,-0.0020634,-2.00011,-0.441911,-0.133511,52.0723,0.206393,
2,0,0,1,0,24837.1,0.204308,0.203979,-10.1272,13,0.0163378,10,-0.00206573,-1.99451,-0.427137,-0.138129,54.5481,0.203979,
2,0,0,1,0,24837.1,0.2019,0.201563,-10.2541,13,0.0162766,10,-0.00206686,-1.9891,-0.463761,-0.127221,50.8757,0.201563,
2,0,0,1,0,24837.1,0.199503,0.19915,-10.3742,13,0.0162148,10,-0.00206601,-1.98405,-0.466476,-0.12648,51.2028,0.19915,
2,0,0,1,0,24837.1,0.197106,0.196765,-10.493,13,0.0161522,10,-0.00206466,-1.9791,-0.441808,-0.133542,54.7284,0.196765,
2,0,0,1,0,24837.1,0.194709,0.194385,-10.6217,13,0.0160888,10,-0.0020647,-1.97381,-0.465649,-0.126705,52.5142,0.194385,
2,0,0,1,0,24837.1,0.192303,0.191956,-10.7501,13,0.0160246,10,-0.00206355,-1.96859,-0.484764,-0.121709,51.0399,0.191956,
2,0,0,1,0,24837.1,0.189906,0.189585,-10.8628,13,0.0159598,10,-0.00205942,-1.96406,-0.477188,-0.123641,52.4777,0.189585,
2,0,0,1,0,24837.1,0.187509,0.187174,-11.0056,13,0.0158942,10,-0.00205997,-1.95838,-0.465909,-0.126634,54.3514,0.187174,
2,0,0,1,0,24837.1,0.185101,0.18472,-11.1392,13,0.0158277,10,-0.00205763,-1.95315,-0.480988,-0.122664,53.2726,0.18472,
2,0,0,1,0,24837.1,0.182704,0.182356,-11.2562,13,0.0157605,10,-0.00205263,-1.94861,-0.48841,-0.1208,53.1729,0.182356,
2,0,0,1,0,24837.1,0.180307,0.17997,-11.405,13,0.0156926,10,-0.00205256,-1.94291,-0.438456,-0.134563,59.8794,0.17997,
2,0,0,1,0,24837.1,0.177904,0.177579,-11.546,13,0.0156237,10,-0.00205032,-1.93757,-0.447191,-0.131935,59.4345,0.177579,
2,0,0,1,0,24837.1,0.175501,0.17517,-11.6867,13,0.015554,10,-0.00204715,-1.93231,-0.427974,-0.137859,62.9304,0.17517,
2,0,0,1,0,24837.2,0.173104,0.1728,-11.8384,13,0.0154834,10,-0.00204567,-1.92671,-0.420626,-0.140267,64.862,0.1728,
2,0,0,1,0,24837.2,0.170707,0.170375,-11.9949,13,0.0154119,10,-0.00204363,-1.921,-0.399257,-0.147775,69.233,0.170375,
2,0,0,1,0,24837.2,0.168302,0.167978,-12.1686,13,0.0153394,10,-0.00204405,-1.91476,-0.398995,-0.147872,70.2527,0.167978,
2,0,0,1,0,24837.2,0.165905,0.165531,-12.3457,13,0.0152658,10,-0.00204359,-1.90848,-0.379536,-0.155453,74.9625,0.165531,
2,0,0,1,0,24837.2,0.163507,0.163167,-12.534,13,0.0151912,10,-0.00204514,-1.90191,-0.3474,-0.169833,83.1699,0.163167,
2,0,0,1,0,24837.2,0.161099,0.16079,-12.7537,13,0.0151153,10,-0.00205066,-1.89436,-0.334929,-0.176157,87.6059,0.16079,
2,0,0,1,0,24837.2,0.158702,0.158363,-12.9482,13,0.0150382,10,-0.00205051,-1.88779,-0.316296,-0.186534,94.4367,0.158363,
2,0,0,1,0,24837.2,0.156305,0.155946,-13.1865,13,0.0149598,10,-0.00205638,-1.87987,-0.289156,-0.204042,105.226,0.155946,
2,0,0,1,0,24837.2,0.153908,0.153588,-13.4538,13,0.0148798,10,-0.00206635,-1.87115,-0.276893,-0.213078,111.982,0.153588,
2,0,0,1,0,24837.2,0.151503,0.151199,-13.7289,13,0.0147982,10,-0.0020758,-1.86236,-0.255706,-0.230734,123.866,0.151199,
2,0,0,1,0,24837.2,0.149105,0.148752,-14.0417,13,0.0147149,10,-0.00208874,-1.85258,-0.239971,-0.245863,134.944,0.148752,
2,0,0,1,0,24837.2,0.146708,0.146386,-14.3793,13,0.0146296,10,-0.00210493,-1.84226,-0.220791,-0.267221,150.143,0.146386,
2,0,0,1,0,24837.2,0.1443,0.143958,-14.7546,13,0.0145422,10,-0.00212403,-1.83107,-0.209166,-0.282073,162.729,0.143958,
2,0,0,1,0,24837.2,0.141903,0.141594,-15.1653,13,0.0144525,10,-0.00214731,-1.81915,-0.194832,-0.302825,179.534,0.141594,
2,0,0,1,0,24837.2,0.139506,0.139224,-15.6122,13,0.0143601,10,-0.0021736,-1.80654,-0.182185,-0.323847,197.775,0.139224,
2,0,0,1,0,24837.2,0.137109,0.136822,-16.1104,13,0.0142649,10,-0.00220427,-1.79289,-0.170423,-0.346197,218.199,0.136822,
2,0,0,1,0,24837.2,0.134701,0.134401,-16.657,13,0.0141665,10,-0.00223872,-1.7784,-0.162142,-0.363879,237.018,0.134401,
2,0,0,1,0,24837.3,0.132303,0.132032,-17.2497,13,0.0140648,10,-0.00227752,-1.76322,-0.156287,-0.377511,254.624,0.132032,
2,0,0,1,0,24837.3,0.129906,0.129569,-17.8889,13,0.0139593,10,-0.00231785,-1.74742,-0.151613,-0.389149,271.812,0.129569,
2,0,0,1,0,24837.3,0.127501,0.127176,-18.5643,13,0.0138499,10,-0.00236093,-1.73132,-0.149293,-0.395195,286.41,0.127176,
2,0,0,1,0,24837.3,0.125104,0.124788,-19.2493,13,0.0137364,10,-0.00240208,-1.71558,-0.149533,-0.394561,296.737,0.1247878,
2,0,0,1,0,24837.3,0.122707,0.122377,-19.9896,13,0.0136186,10,-0.00244628,-1.6992,-0.150342,-0.392438,305.864,0.122377,
2,0,0,1,0,24837.3,0.12031,0.119993,-20.7148,13,0.0134964,10,-0.00248563,-1.68372,-0.154081,-0.382915,309.62,0.119993,
2,0,0,1,0,24837.3,0.117901,0.117601,-21.4574,13,0.0133698,10,-0.00252342,-1.66842,-0.157976,-0.373475,312.848,0.117601,
2,0,0,1,0,24837.3,0.115504,0.115168,-22.2326,13,0.0132386,10,-0.00256048,-1.65301,-0.164834,-0.357936,310.137,0.1151678,
2,0,0,1,0,24837.3,0.113107,0.112819,-22.976,13,0.0131029,10,-0.00259213,-1.63873,-0.174469,-0.33817,302.53,0.112819,
2,0,0,1,0,24837.3,0.110702,0.110431,-23.6767,13,0.0129629,10,-0.00261465,-1.62568,-0.183472,-0.321575,297.029,0.110431,
2,0,0,1,0,24837.3,0.108305,0.108003,-24.3936,13,0.0128187,10,-0.00263457,-1.61272,-0.190069,-0.310413,295.457,0.108003,
2,0,0,1,0,24837.3,0.105908,0.105634,-25.1188,13,0.0126701,10,-0.00265339,-1.6,-0.197187,-0.299208,292.763,0.105634,
2,0,0,1,0,24837.3,0.103505,0.103206,-25.8032,13,0.0125173,10,-0.00266305,-1.58833,-0.210379,-0.280446,281.957,0.1032064,
2,0,0,1,0,24837.3,0.101102,0.100836,-26.4526,13,0.0123604,10,-0.00266739,-1.57753,-0.225273,-0.261904,270.175,0.100836,
2,0,0,1,0,24837.3,0.0987052,0.0984526,-27.0962,13,0.0121996,10,-0.00266769,-1.56709,-0.24449,-0.241319,254.804,0.0984526,
2,0,0,1,0,24837.3,0.0963081,0.0960529,-27.691,13,0.0120352,10,-0.0026598,-1.55766,-0.261357,-0.225745,243.681,0.0960529,
2,0,0,1,0,24837.4,0.0938999,0.0935705,-28.2583,13,0.0118673,10,-0.00264415,-1.54885,-0.283402,-0.208185,229.375,0.0935705,
2,0,0,1,0,24837.4,0.0915028,0.0911581,-28.811,13,0.011696,10,-0.00262635,-1.54044,-0.309872,-0.190401,213.682,0.0911581,
2,0,0,1,0,24837.4,0.0891057,0.0888421,-29.2957,13,0.0115216,10,-0.00260269,-1.5332,-0.33758,-0.174773,199.588,0.0888421,
2,0,0,1,0,24837.4,0.0867002,0.0864149,-29.7629,13,0.0113444,10,-0.00257195,-1.52633,-0.367988,-0.160331,186.082,0.0864149,
2,0,0,1,0,24837.4,0.0843031,0.0840459,-30.2011,13,0.0111645,10,-0.00253828,-1.51998,-0.397872,-0.148289,174.525,0.0840459,
2,0,0,1,0,24837.4,0.081906,0.0816558,-30.5936,13,0.010982,10,-0.00249814,-1.51437,-0.452144,-0.130489,155.646,0.0816558,
2,0,0,1,0,24837.4,0.0795089,0.0792179,-30.9399,13,0.0107974,10,-0.00245099,-1.50948,-0.51085,-0.115494,139.368,0.0792179,
2,0,0,1,0,24837.4,0.0771007,0.0767959,-31.2752,13,0.0106106,10,-0.00240181,-1.5048,-0.588491,-0.100256,122.161,0.0767959,
2,0,0,1,0,24837.4,0.0747036,0.0743845,-31.5327,13,0.0104221,10,-0.00234555,-1.50124,-0.726027,-0.0812642,99.8672,0.0743845,
2,0,0,1,0,24837.4,0.0723065,0.0719636,-31.7447,13,0.0102323,10,-0.00228446,-1.49833,-0.916514,-0.0643743,79.6738,0.0719636,
2,0,0,1,0,24837.4,0.0699011,0.069582,-31.927,13,0.0100412,10,-0.00222154,-1.49584,-1.15028,-0.0512919,63.8217,0.069582,
2,0,0,1,0,24837.4,0.067504,0.0672109,-32.0565,13,0.00984924,10,-0.00215455,-1.49408,-1.55449,-0.0379546,47.4257,0.0672109,
2,0,0,1,0,24837.4,0.0651069,0.0648186,-32.1507,13,0.00965659,10,-0.00208396,-1.49281,-2.53001,-0.0233201,29.2229,0.0648186,
2,0,0,1,0,24837.4,0.0627098,0.0623998,-32.1875,13,0.00946355,10,-0.00200849,-1.49231,-5.05712,-0.0116667,14.6512,0.0623998,
2,0,0,1,0,24837.4,0.0603016,0.0599758,-32.2208,13,0.0092703,10,-0.00193247,-1.49186,-19.9237,-0.00296129,3.72017,0.0599758,
2,0,0,1,0,24837.4,0.0579045,0.0575633,-32.2102,13,0.00907698,10,-0.00185413,-1.49201,6.82015,0.00865084,-10.865,0.0575633,
2,0,0,1,0,24837.4,0.0555074,0.0551668,-32.158,13,0.00888386,10,-0.00177405,-1.49271,4.47493,0.0131846,-16.5514,0.0551668,
2,0,0,1,0,24837.5,0.0530992,0.0527979,-32.1338,13,0.00869102,10,-0.0016966,-1.49304,3.32757,0.0177306,-22.2134,0.0527979,
2,0,0,1,0,24837.5,0.0507021,0.0504236,-32.0613,13,0.00849844,10,-0.00161665,-1.49402,2.3727,0.0248661,-31.0859,0.0504236,
2,0,0,1,0,24837.5,0.048305,0.0480038,-31.9557,13,0.00830639,10,-0.00153399,-1.49545,2.00453,0.0294334,-36.7212,0.0480038,
2,0,0,1,0,24837.5,0.0459051,0.0455829,-31.8687,13,0.00811492,10,-0.00145267,-1.49664,1.76917,0.033349,-41.4761,0.0455829,
2,0,0,1,0,24837.5,0.0435024,0.0431566,-31.7728,13,0.00792393,10,-0.00137121,-1.49795,1.74063,0.0338958,-42.0178,0.0431566,
2,0,0,1,0,24837.5,0.0411053,0.0407697,-31.6693,13,0.00773361,10,-0.00129115,-1.49936,1.5303,0.0385545,-47.6525,0.04076967,
2,0,0,1,0,24837.5,0.0387082,0.0383498,-31.5506,13,0.00754395,10,-0.00120996,-1.50099,1.57611,0.037434,-46.108,0.0383498,
2,0,0,1,0,24837.5,0.0363,0.0359448,-31.451,13,0.00735496,10,-0.0011305,-1.50237,1.53971,0.0383189,-47.0224,0.0359448,
2,0,0,1,0,24837.5,0.0339029,0.0335695,-31.3354,13,0.00716662,10,-0.00105192,-1.50396,1.4229,0.0414645,-50.6817,0.0335695,
2,0,0,1,0,24837.5,0.0315058,0.0311465,-31.2049,13,0.00697903,10,-0.000971923,-1.50578,1.43169,0.0412101,-50.1983,0.03114648,
2,0,0,1,0,24837.5,0.0291087,0.0287807,-31.0739,13,0.00679224,10,-0.000894329,-1.5076,1.4623,0.0403473,-48.9456,0.0287807,
2,0,0,1,0,24837.5,0.0267033,0.0263948,-30.9643,13,0.00660609,10,-0.000817295,-1.50914,1.31309,0.0449322,-54.2483,0.0263948,
2,0,0,1,0,24837.5,0.0243062,0.0239559,-30.8089,13,0.00642075,10,-0.000738053,-1.51132,1.2245,0.0481828,-57.9573,0.0239559,
2,0,0,1,0,24837.5,0.0219091,0.0215848,-30.6726,13,0.00623633,10,-0.000662062,-1.51325,1.24501,0.047389,-56.747,0.0215848,
2,0,0,1,0,24837.5,0.0195009,0.019183,-30.5449,13,0.00605265,10,-0.000585943,-1.51506,1.16548,0.0506228,-60.2974,0.019183,
2,0,0,1,0,24837.5,0.0171038,0.0167833,-30.3815,13,0.00586985,10,-0.000509902,-1.51739,1.03186,0.0571783,-67.8015,0.0167833,
2,0,0,1,0,24837.5,0.0147067,0.014356,-30.2176,13,0.00568807,10,-0.000433803,-1.51974,1.00426,0.0587496,-69.294,0.014356,
2,0,0,1,0,24837.6,0.012304,0.0119616,-30.065,13,0.00550724,10,-0.000359625,-1.52194,0.960359,0.0614353,-72.0278,0.0119616,
2,0,0,1,0,24837.6,0.00990136,0.00958736,-29.886,13,0.00532742,10,-0.000286527,-1.52453,0.868976,0.067896,-79.1244,0.00958736,
2,0,0,1,0,24837.6,0.00750426,0.00714842,-29.6758,13,0.00514878,10,-0.000212135,-1.5276,0.792973,0.0744035,-86.155,0.00714842,
2,0,0,1,0,24837.6,0.00510715,0.00483249,-29.46,13,0.00497138,10,-0.000142365,-1.53077,0.868278,0.0679506,-78.2066,0.00483249,
2,0,0,1,0,24837.6,0.00270173,0.00239038,-29.2558,13,0.00479522,10,-6.99323e-05,-1.53379,0.772056,0.0764193,-87.2466,0.00239038,
2,0,0,1,0,24837.6,0.000304623,-5.81011e-05,-29.0547,13,0.00462017,10,1.68811e-06,-1.53678,0.685879,0.086021,-97.4207,-0.00005810105,
2,0,0,1,0,24837.6,-0.00209248,-0.00249704,-28.7954,13,0.00444665,10,7.19032e-05,-1.54068,0.616713,0.0956685,-107.523,-0.00249704,
2,0,0,1,0,24837.6,-0.00450068,-0.0048628,-28.557,13,0.00427465,10,0.000138867,-1.54429,0.603917,0.0976955,-108.76,-0.0048628,
2,0,0,1,0,24837.6,-0.00689779,-0.00726569,-28.2771,13,0.00410419,10,0.000205453,-1.54856,0.578894,0.101918,-112.41,-0.007265687,
2,0,0,1,0,24837.6,-0.00929489,-0.00961873,-27.9916,13,0.00393542,10,0.000269243,-1.55297,0.568358,0.103808,-113.466,-0.00961873,
2,0,0,1,0,24837.6,-0.011692,-0.0120799,-27.7267,13,0.0037683,10,0.000334937,-1.5571,0.56173,0.105033,-113.627,-0.0120799,
2,0,0,1,0,24837.6,-0.0140974,-0.0144775,-27.4553,13,0.00360274,10,0.000397484,-1.56137,0.548526,0.107561,-115.208,-0.0144775,
2,0,0,1,0,24837.6,-0.0164945,-0.016891,-27.1745,13,0.00343891,10,0.000459005,-1.56584,0.542582,0.108739,-115.375,-0.016891,
2,0,0,1,0,24837.6,-0.0188916,-0.0192653,-26.9028,13,0.00327673,10,0.000518289,-1.5702,0.581037,0.101543,-106.664,-0.0192653,
2,0,0,1,0,24837.6,-0.0212998,-0.0216543,-26.6592,13,0.00311608,10,0.000577288,-1.57415,0.581012,0.101547,-105.628,-0.0216543,
2,0,0,1,0,24837.6,-0.0236969,-0.0240912,-26.3999,13,0.00295692,10,0.000636006,-1.5784,0.595358,0.0991,-102.143,-0.0240912,
2,0,0,1,0,24837.7,-0.026094,-0.0264877,-26.1621,13,0.00279925,10,0.000692974,-1.58233,0.645853,0.091352,-93.3641,-0.0264877,
2,0,0,1,0,24837.7,-0.0284912,-0.0288556,-25.9451,13,0.00264296,10,0.000748662,-1.58594,0.681241,0.0866067,-87.7506,-0.0288556,
2,0,0,1,0,24837.7,-0.0308994,-0.0312775,-25.7572,13,0.00248785,10,0.000805623,-1.5891,0.724692,0.0814139,-81.8271,-0.0312775,
2,0,0,1,0,24837.7,-0.0332965,-0.0336953,-25.5505,13,0.00233397,10,0.000860932,-1.5926,0.771823,0.0764424,-76.3276,-0.0336953,
2,0,0,1,0,24837.7,-0.0356936,-0.0360727,-25.3904,13,0.0021812,10,0.000915899,-1.59533,0.896328,0.0658241,-65.2761,-0.0360727,
2,0,0,1,0,24837.7,-0.038099,-0.0384427,-25.2546,13,0.00202929,10,0.000970857,-1.59766,0.983977,0.0599608,-59.0819,-0.0384427,
2,0,0,1,0,24837.7,-0.0404961,-0.0408976,-25.1007,13,0.00187825,10,0.00102656,-1.60031,1.04837,0.0562779,-55.1832,-0.0408976,
2,0,0,1,0,24837.7,-0.0428932,-0.0432612,-24.9792,13,0.00172803,10,0.00108063,-1.60242,1.31512,0.0448629,-43.7786,-0.0432612,
2,0,0,1,0,24837.7,-0.0452903,-0.0456662,-24.8836,13,0.00157845,10,0.00113634,-1.60409,1.51336,0.0389861,-37.8751,-0.0456662,
2,0,0,1,0,24837.7,-0.0476985,-0.0480892,-24.7973,13,0.0014294,10,0.00119248,-1.6056,1.81936,0.0324289,-31.4015,-0.0480892,
2,0,0,1,0,24837.7,-0.0500956,-0.0504698,-24.7292,13,0.00128084,10,0.00124808,-1.60679,2.14087,0.0275589,-26.6096,-0.0504698,
2,0,0,1,0,24837.7,-0.0524927,-0.0528876,-24.6706,13,0.00113264,10,0.00130477,-1.60782,2.87879,0.0204947,-19.7476,-0.0528876,
2,0,0,1,0,24837.7,-0.0548981,-0.0552714,-24.6382,13,0.000984723,10,0.00136179,-1.60839,3.58211,0.0164707,-15.8404,-0.0552714,
2,0,0,1,0,24837.7,-0.0572953,-0.0576562,-24.5984,13,0.000837015,10,0.00141825,-1.60909,5.21769,0.0113077,-10.8627,-0.0576562,
2,0,0,1,0,24837.7,-0.0596924,-0.0600718,-24.5793,13,0.000689479,10,0.00147652,-1.60943,21.2597,0.0027752,-2.6647,-0.0600718,
2,0,0,1,0,24837.7,-0.062095,-0.062462,-24.5929,13,0.000541974,10,0.00153612,-1.60919,-43.043,-0.00137072,1.3155,-0.062462,
2,0,0,1,0,24837.7,-0.0644977,-0.0648532,-24.599,13,0.000394404,10,0.00159533,-1.60908,-10.7471,-0.00548987,5.27127,-0.0648532,
2,0,0,1,0,24837.8,-0.0668948,-0.0672985,-24.6098,13,0.000246808,10,0.0016562,-1.60889,-5.79722,-0.0101773,9.78055,-0.0672985,
2,0,0,1,0,24837.8,-0.0692919,-0.0696547,-24.6442,13,9.90426e-05,10,0.00171659,-1.60828,-3.58261,-0.0164684,15.8409,-0.0696547,
2,0,0,1,0,24837.8,-0.0717001,-0.0720534,-24.6783,13,-4.89475e-05,10,0.00177815,-1.60769,-3.00169,-0.0196556,18.9414,-0.0720534,
2,0,0,1,0,24837.8,-0.0740972,-0.074452,-24.7312,13,-0.00019718,10,0.00184129,-1.60675,-2.63003,-0.0224332,21.6677,-0.074452,
2,0,0,1,0,24837.8,-0.0764943,-0.0768666,-24.7993,13,-0.000345785,10,0.00190624,-1.60556,-2.17109,-0.0271753,26.3009,-0.07686656,
2,0,0,1,0,24837.8,-0.0788997,-0.0792546,-24.8656,13,-0.000494767,10,0.00197072,-1.6044,-2.0232,-0.0291617,28.3082,-0.0792546,
2,0,0,1,0,24837.8,-0.0812968,-0.0816946,-24.9357,13,-0.000644179,10,0.00203711,-1.60318,-1.7492,-0.0337297,32.8361,-0.0816946,
2,0,0,1,0,24837.8,-0.0836939,-0.0840582,-25.0329,13,-0.000794096,10,0.00210422,-1.60149,-1.50513,-0.0391994,38.3023,-0.0840582,
2,0,0,1,0,24837.8,-0.086091,-0.0864792,-25.1226,13,-0.000944525,10,0.00217258,-1.59994,-1.39021,-0.0424395,41.632,-0.08647915,
2,0,0,1,0,24837.8,-0.0884992,-0.0888842,-25.2341,13,-0.00109562,10,0.00224291,-1.59801,-1.23184,-0.047896,47.1595,-0.0888842,
2,0,0,1,0,24837.8,-0.0908963,-0.0912722,-25.3381,13,-0.00124733,10,0.00231266,-1.59623,-1.19283,-0.0494624,48.9509,-0.09127219,
2,0,0,1,0,24837.8,-0.0932934,-0.0936942,-25.4657,13,-0.00139976,10,0.00238599,-1.59404,-1.1003,-0.0536217,53.301,-0.0936942,
2,0,0,1,0,24837.8,-0.0956989,-0.0960949,-25.5958,13,-0.00155294,10,0.00245963,-1.59183,-1.07294,-0.054989,54.9409,-0.0960949,
2,0,0,1,0,24837.8,-0.098096,-0.0984522,-25.7172,13,-0.0017069,10,0.00253192,-1.58978,-1.15414,-0.0511203,51.2242,-0.0984522,
2,0,0,0,0,24837.8,-0.0999548,-0.100381,-25.8313,13,-0.00182807,10,0.00259298,-1.58785,0.0257661,2.28983,-2152.83,-0.100381,
2,0,0,1,1,24837.8,-0.0994555,-0.0999262,-24.3353,13,-0.00187039,10,0.00243173,-1.61376,-0.0228728,-2.57948,2210.67,-0.0999262,
2,0,0,1,1,24837.8,-0.0970583,-0.0974628,-19.7322,13,-0.00200126,10,0.00192316,-1.70482,-0.0271513,-2.173,1698.9,-0.0974628,
2,0,0,1,1,24837.8,-0.0946501,-0.0950875,-16.2702,13,-0.00210864,10,0.00154709,-1.78861,-0.0280983,-2.09977,1346.08,-0.0950875,
2,0,0,1,1,24837.9,-0.092253,-0.092655,-13.3895,13,-0.00219714,10,0.0012406,-1.87324,-0.0272616,-2.16421,1132.27,-0.092655,
2,0,0,1,1,24837.9,-0.0898559,-0.0902531,-10.8848,13,-0.00226956,10,0.00098239,-1.96318,-0.0248743,-2.37192,999.208,-0.0902531,
2,0,0,1,1,24837.9,-0.0874588,-0.0878439,-8.62918,13,-0.00232776,10,0.000758021,-2.06403,-0.0219622,-2.68644,891.859,-0.0878439,
2,0,0,1,1,24837.9,-0.0850534,-0.0854474,-6.59512,13,-0.00237307,10,0.000563535,-2.18078,-0.0183975,-3.20695,804.7,-0.0854474,
2,0,0,1,1,24837.9,-0.0826563,-0.0830455,-4.77122,13,-0.00240691,10,0.000396229,-2.32137,-0.0140609,-4.19603,734.066,-0.08304555,
2,0,0,1,1,24837.9,-0.0802592,-0.0806649,-3.07355,13,-0.00243018,10,0.000247928,-2.51236,-0.0090322,-6.53218,670.12,-0.08066494,
2,0,0,1,1,24837.9,-0.077851,-0.0782324,-1.50301,13,-0.00244369,10,0.000117584,-2.82304,-0.00635526,-9.28364,623.936,-0.0782324,
2,0,0,1,1,24837.9,-0.0754539,-0.0758952,-0.0868501,13,-0.00244832,10,6.59151e-06,-4.06123,-0.0776252,-0.760062,571.835,-0.07589522,
2,1,0,1,1,24837.9,-0.0730568,-0.0734637,1.238,13,-0.0024447,10,-9.09484e-05,-2.90728,0.00898829,6.56409,536.91,-0.0734637,
2,1,0,1,1,24837.9,-0.0706597,-0.0711064,2.46876,13,-0.00243339,10,-0.000175545,-2.60752,0.00922709,6.39422,496.512,-0.0711064,
2,1,0,1,1,24837.9,-0.0682542,-0.0686452,3.61553,13,-0.00241495,10,-0.000248189,-2.44183,0.0166089,3.55231,462.411,-0.0686452,
2,1,0,1,1,24837.9,-0.0658571,-0.0662996,4.68402,13,-0.00238992,10,-0.000310549,-2.32938,0.0238288,2.476,433.116,-0.0662996,
2,1,0,1,1,24837.9,-0.06346,-0.0639254,5.68295,13,-0.00235868,10,-0.000363284,-2.24543,0.0313137,1.88416,406.552,-0.0639254,
2,1,0,1,1,24837.9,-0.0610518,-0.0614949,6.63837,13,-0.00232159,10,-0.000408226,-2.17794,0.0397787,1.4832,375.986,-0.0614949,
2,1,0,1,1,24837.9,-0.0586547,-0.0590761,7.51914,13,-0.002279,10,-0.000444201,-2.12383,0.0479524,1.23039,355.765,-0.0590761,
2,1,0,1,1,24837.9,-0.0562576,-0.0567072,8.34481,13,-0.00223134,10,-0.000473211,-2.07858,0.0570316,1.03451,333.381,-0.0567072,
2,1,0,1,1,24838,-0.053855,-0.0542301,9.12932,13,-0.00217884,10,-0.000495084,-2.03956,0.0668858,0.882101,310.894,-0.0542301,
2,1,0,1,1,24838,-0.0514523,-0.0518399,9.83412,13,-0.00212184,10,-0.0005098,-2.00726,0.0767977,0.768252,293.145,-0.0518399,
2,1,0,1,1,24838,-0.0490552,-0.0494731,10.5264,13,-0.00206069,10,-0.000520773,-1.97772,0.0883791,0.667579,272.627,-0.0494731,
2,1,0,1,1,24838,-0.0466581,-0.0470543,11.1677,13,-0.00199553,10,-0.00052549,-1.95203,0.09893,0.596382,258.332,-0.0470543,
2,1,0,1,1,24838,-0.0442527,-0.0446652,11.7531,13,-0.00192667,10,-0.000524954,-1.92985,0.112314,0.525315,240.022,-0.04466518,
2,1,0,1,1,24838,-0.0418556,-0.0422687,12.3048,13,-0.00185441,10,-0.000520107,-1.90993,0.127153,0.464007,222.042,-0.0422687,
2,1,0,1,1,24838,-0.0394585,-0.0398785,12.8307,13,-0.00177891,10,-0.000511668,-1.89175,0.141105,0.418128,208.625,-0.0398785,
2,1,0,1,1,24838,-0.0370558,-0.0374396,13.3084,13,-0.00170044,10,-0.000498261,-1.87587,0.157082,0.3756,194.587,-0.0374396,
2,1,0,1,1,24838,-0.0346532,-0.0350282,13.7655,13,-0.00161914,10,-0.000482179,-1.86121,0.172487,0.342056,183.247,-0.0350282,
2,1,0,1,1,24838,-0.0322561,-0.0326433,14.1818,13,-0.00153523,10,-0.000462941,-1.84827,0.191892,0.307464,169.84,-0.0326433,
2,1,0,1,1,24838,-0.0298589,-0.0302723,14.5828,13,-0.00144887,10,-0.000441455,-1.83616,0.213254,0.276666,157.114,-0.0302723,
2,1,0,1,1,24838,-0.0274535,-0.0278577,14.9507,13,-0.00136023,10,-0.000416494,-1.82534,0.230908,0.255513,148.804,-0.02785773,
2,1,0,1,1,24838,-0.0250564,-0.025493,15.2883,13,-0.0012695,10,-0.000389745,-1.81564,0.257259,0.229341,136.643,-0.02549302,
2,1,0,1,1,24838,-0.0226593,-0.0230647,15.614,13,-0.00117675,10,-0.000360132,-1.80649,0.278802,0.21162,128.645,-0.02306469,
2,1,0,1,1,24838,-0.0202511,-0.0206714,15.9041,13,-0.00108218,10,-0.000328759,-1.79849,0.308616,0.191176,118.478,-0.0206714,
2,1,0,1,1,24838,-0.017854,-0.0182356,16.1685,13,-0.000985938,10,-0.000294843,-1.79133,0.337748,0.174686,110.114,-0.0182356,
2,1,0,1,1,24838,-0.0154569,-0.0158603,16.4309,13,-0.000888086,10,-0.000260599,-1.78434,0.371129,0.158975,101.763,-0.0158603,
2,1,0,1,1,24838.1,-0.0130598,-0.0134394,16.6437,13,-0.000788803,10,-0.000223681,-1.77875,0.407739,0.1447,94.0229,-0.0134394,
2,1,0,1,1,24838.1,-0.0106516,-0.011028,16.8783,13,-0.000688196,10,-0.000186134,-1.77267,0.442635,0.133293,87.7152,-0.011028,
2,1,0,1,1,24838.1,-0.00825448,-0.00861453,17.0889,13,-0.000586265,10,-0.000147213,-1.76729,0.487624,0.120995,80.5567,-0.00861453,
2,1,0,1,1,24838.1,-0.00585738,-0.00625194,17.2608,13,-0.000483203,10,-0.000107914,-1.76294,0.541936,0.108869,73.3099,-0.00625194,
2,1,0,1,1,24838.1,-0.00345195,-0.00378967,17.4376,13,-0.000379089,10,-6.60826e-05,-1.75851,0.584638,0.100917,68.6091,-0.00378967,
2,1,0,1,1,24838.1,-0.00105485,-0.00146314,17.5958,13,-0.000273951,10,-2.57451e-05,-1.75459, , , ,-0.00146314,
2,1,0,0,1,24838.1,-7.54729e-05,-0.000363498,17.6402,13,-0.000229895,10,-6.41217e-06,-1.7535, , , ,-0.000363498,