File: Figure_codes/Fig_3-5/rawdata_trumpetplot_data/after 10th/20221101_1-115_003_TrumpetPlot_ParaChange_from10_every3_07_CV_C01_26.csv
mode,ox/red,error,control changes,counter inc.,time/s,control/V,Ewe/V,<I>/mA,cycle number,(Q-Qo)/C,I Range,P/W,log(|I|),Tafel slope mV/dec,alpha_eff,dI/d(E-IR),E-IR/V,
2,0,0,0,0,52388.4,2.44065e-05,-0.000401673,-2.69504,27,0.0000000E+000,10,1.08252e-06,-2.56943, , , ,-0.000401673,
2,0,0,1,0,52388.4,0.0013005,0.000909827,-1.41381,27,-4.09379e-05,10,-1.28632e-06,-2.84961, , , ,0.000909827,
2,0,0,1,0,52388.5,0.00279471,0.00246555,-0.509656,27,-6.37612e-05,10,-1.25658e-06,-3.29272,-0.00473251,-12.467,520.182,0.00246555,
2,1,0,1,0,52388.5,0.00429425,0.00395514,0.0906291,27,-6.81396e-05,10,3.5845e-07,-4.04273,-0.0569684,-1.03566,358.939,0.00395514,
2,1,0,1,0,52388.5,0.00579379,0.0054326,0.532091,27,-5.95809e-05,10,2.89064e-06,-3.27401,0.00371327,15.8889,267.508,0.0054326,
2,1,0,1,0,52388.5,0.007288,0.00691982,0.876702,27,-4.14768e-05,10,6.06662e-06,-3.05715,0.00816406,7.2268,207.251,0.00691982,
2,1,0,1,0,52388.6,0.00878882,0.00847795,1.13557,27,-1.57737e-05,10,9.62735e-06,-2.94478,0.014885,3.96372,164.177,0.00847795,
2,1,0,1,0,52388.6,0.0102896,0.00994792,1.35339,27,1.58912e-05,10,1.34634e-05,-2.86858,0.0232258,2.54028,128.833,0.00994792,
2,1,0,1,0,52388.6,0.0117838,0.0114588,1.53116,27,5.22815e-05,10,1.75452e-05,-2.81498,0.032647,1.80721,105.029,0.0114588,
2,1,0,1,0,52388.6,0.0132834,0.0129687,1.66799,27,9.26913e-05,10,2.16318e-05,-2.77781,0.0411575,1.43352,92.2817,0.0129687,
2,1,0,1,0,52388.7,0.0147816,0.0144441,1.79075,27,0.000136446,10,2.58658e-05,-2.74696,0.0516278,1.1428,79.3298,0.0144441,
2,1,0,1,0,52388.7,0.0162811,0.0159422,1.90454,27,0.000183184,10,3.03625e-05,-2.72021,0.0668131,0.88306,65.2149,0.0159422,
2,1,0,1,0,52388.7,0.0177753,0.0174588,2.00484,27,0.000232254,10,3.5002e-05,-2.69792,0.0805976,0.732032,56.7421,0.01745878,
2,1,0,1,0,52388.7,0.0192761,0.0189315,2.07919,27,0.000283655,10,3.93623e-05,-2.6821,0.0899057,0.656243,53.1079,0.0189315,
2,1,0,1,0,52388.8,0.020777,0.0204462,2.15939,27,0.00033702,10,4.41512e-05,-2.66567,0.099813,0.591106,49.5988,0.0204462,
2,1,0,1,0,52388.8,0.0222712,0.0219547,2.2289,27,0.000392035,10,4.89348e-05,-2.65191,0.117493,0.502158,43.553,0.0219547,
2,1,0,1,0,52388.8,0.0237707,0.0234299,2.29389,27,0.000448961,10,5.37456e-05,-2.63943,0.132148,0.446468,39.8773,0.0234299,
2,1,0,1,0,52388.8,0.0252703,0.0249514,2.35208,27,0.000507405,10,5.86879e-05,-2.62855,0.133821,0.440889,40.4367,0.0249514,
2,1,0,1,0,52388.9,0.0267645,0.0264806,2.40514,27,0.000567059,10,6.36894e-05,-2.61886,0.131546,0.448513,42.189,0.0264806,
2,1,0,1,0,52388.9,0.0282653,0.0279211,2.46441,27,0.000628417,10,6.88092e-05,-2.60829,0.151639,0.389082,37.4225,0.02792114,
2,1,0,1,0,52388.9,0.0297648,0.0294408,2.52045,27,0.000691166,10,7.42043e-05,-2.59852,0.182832,0.3227,31.6806,0.0294408,
2,1,0,1,0,52388.9,0.031259,0.0309273,2.57129,27,0.000754964,10,7.95233e-05,-2.58985,0.170279,0.34649,34.7179,0.0309273,
2,1,0,1,0,52389,0.0327585,0.0324489,2.61961,27,0.000820246,10,8.50034e-05,-2.58176,0.170055,0.346946,35.5066,0.0324489,
2,1,0,1,0,52389,0.034258,0.0339333,2.67378,27,0.000886832,10,9.07301e-05,-2.57287,0.181198,0.325611,33.9939,0.0339333,
2,1,0,1,0,52389,0.0357576,0.0354386,2.72849,27,0.000954715,10,9.66938e-05,-2.56408,0.201011,0.293516,31.178,0.0354386,
2,1,0,1,0,52389,0.0372518,0.0368904,2.77535,27,0.00102359,10,0.000102384,-2.55668,0.195268,0.30215,32.6922,0.0368904,
2,1,0,1,0,52389.1,0.0387526,0.0384267,2.82053,27,0.0010939,10,0.000108384,-2.54967,0.18535,0.318317,35.0829,0.0384267,
2,1,0,1,0,52389.1,0.0402534,0.0399065,2.87236,27,0.00116546,10,0.000114626,-2.54176,0.204476,0.288542,32.3395,0.0399065,
2,1,0,1,0,52389.1,0.0417476,0.0414586,2.92345,27,0.00123802,10,0.000121202,-2.5341,0.2194,0.268915,30.6343,0.0414586,
2,1,0,1,0,52389.1,0.0432472,0.0429301,2.97255,27,0.00131206,10,0.000127612,-2.52687,0.217149,0.271702,31.4786,0.0429301,
2,1,0,1,0,52389.2,0.0447467,0.0444156,3.00801,27,0.00138719,10,0.000133603,-2.52172,0.21772,0.27099,31.9028,0.0444156,
2,1,0,1,0,52389.2,0.0462463,0.0459183,3.06022,27,0.0014635,10,0.00014052,-2.51425,0.219828,0.268391,32.0827,0.0459183,
2,1,0,1,0,52389.2,0.0477391,0.0474294,3.10877,27,0.00154071,10,0.000147447,-2.50741,0.236693,0.249268,30.2465,0.04742939,
2,1,0,1,0,52389.2,0.0492399,0.0489644,3.15827,27,0.00161943,10,0.000154643,-2.50055,0.232109,0.254191,31.2579,0.0489644,
2,1,0,1,0,52389.3,0.0507408,0.0504015,3.19709,27,0.00169929,10,0.000161138,-2.49524,0.234175,0.251949,31.4838,0.0504015,
2,1,0,1,0,52389.3,0.052235,0.0519373,3.24711,27,0.00177994,10,0.000168646,-2.4885,0.245561,0.240266,30.432,0.0519373,
2,1,0,1,0,52389.3,0.0537345,0.0534398,3.3002,27,0.00186211,10,0.000176362,-2.48146,0.264279,0.223249,28.6894,0.0534398,
2,1,0,1,0,52389.3,0.0552341,0.054876,3.33981,27,0.00194546,10,0.000183276,-2.47628,0.256537,0.229987,29.9206,0.05487597,
2,1,0,1,0,52389.4,0.0567283,0.056422,3.3777,27,0.00202956,10,0.000190577,-2.47138,0.259442,0.227411,30.0474,0.056422,
2,1,0,1,0,52389.4,0.0582291,0.0578915,3.42433,27,0.002115,10,0.00019824,-2.46542,0.290269,0.203259,27.1791,0.0578915,
2,1,0,1,0,52389.4,0.0597299,0.0594012,3.47371,27,0.0022016,10,0.000206342,-2.45921,0.289458,0.203829,27.5785,0.0594012,
2,1,0,1,0,52389.4,0.0612228,0.0609045,3.51296,27,0.00228889,10,0.000213955,-2.45433,0.288897,0.204225,27.9536,0.0609045,
2,1,0,1,0,52389.5,0.0627223,0.0624162,3.55153,27,0.00237759,10,0.000221673,-2.44958,0.275439,0.214204,29.6992,0.0624162,
2,1,0,1,0,52389.5,0.0642218,0.0638852,3.58922,27,0.00246728,10,0.000229298,-2.445,0.294005,0.200677,28.1543,0.0638852,
2,1,0,1,0,52389.5,0.0657214,0.0654117,3.63541,27,0.00255804,10,0.000237798,-2.43945,0.30853,0.19123,27.1228,0.06541165,
2,1,0,1,0,52389.5,0.0672156,0.0668942,3.6821,27,0.00264952,10,0.000246311,-2.4339,0.305724,0.192985,27.669,0.0668942,
2,1,0,1,0,52389.6,0.0687164,0.06838,3.71486,27,0.00274236,10,0.000254022,-2.43006,0.34101,0.173015,25.0733,0.06838,
2,1,0,1,0,52389.6,0.0702172,0.0698542,3.75027,27,0.00283608,10,0.000261972,-2.42594,0.361489,0.163214,23.906,0.0698542,
2,1,0,1,0,52389.6,0.0717114,0.0713447,3.78963,27,0.00293032,10,0.00027037,-2.4214,0.372801,0.158261,23.4192,0.0713447,
2,1,0,1,0,52389.6,0.073211,0.0728578,3.83023,27,0.00302593,10,0.000279062,-2.41677,0.33952,0.173775,25.9278,0.0728578,
2,1,0,1,0,52389.7,0.0747105,0.0744356,3.86036,27,0.00312247,10,0.000287348,-2.41337,0.360722,0.163561,24.6504,0.0744356,
2,1,0,1,0,52389.7,0.0762101,0.0758738,3.88806,27,0.00321983,10,0.000295002,-2.41027,0.429381,0.137407,20.8931,0.0758738,
2,1,0,1,0,52389.7,0.0777042,0.0773947,3.93019,27,0.0033176,10,0.000304176,-2.40559,0.427905,0.137881,21.1482,0.0773947,
2,1,0,1,0,52389.7,0.0792037,0.0788562,3.96817,27,0.00341661,10,0.000312914,-2.40141,0.404624,0.145814,22.5197,0.0788562,
2,1,0,1,0,52389.8,0.0807046,0.080404,3.99558,27,0.0035165,10,0.000321261,-2.39842,0.421295,0.140044,21.7979,0.080404,
2,1,0,1,0,52389.8,0.0821988,0.0818332,4.0173,27,0.00361669,10,0.000328749,-2.39607,0.482416,0.122301,19.2062,0.0818332,
2,1,0,1,0,52389.8,0.0836983,0.0833695,4.05064,27,0.00371798,10,0.0003377,-2.39248,0.539251,0.109411,17.3012,0.0833695,
2,1,0,1,0,52389.8,0.0851979,0.0848382,4.08218,27,0.00382,10,0.000346325,-2.38911,0.494868,0.119224,18.995,0.0848382,
2,1,0,1,0,52389.9,0.0866921,0.0863733,4.10869,27,0.00392235,10,0.000354881,-2.3863,0.479817,0.122964,19.7053,0.0863733,
2,1,0,1,0,52389.9,0.0881929,0.0878244,4.13605,27,0.00402582,10,0.000363246,-2.38341,0.550854,0.107106,17.3048,0.0878244,
2,1,0,1,0,52389.9,0.0896937,0.0893785,4.16686,27,0.00412989,10,0.000372428,-2.38019,0.546466,0.107966,17.5479,0.0893785,
2,1,0,1,0,52389.9,0.0911879,0.0908491,4.19939,27,0.00423436,10,0.000381511,-2.37681,0.424162,0.139098,22.7657,0.0908491,
2,1,0,1,0,52390,0.0926861,0.0923678,4.22971,27,0.00434005,10,0.00039069,-2.37369,0.418774,0.140887,23.2575,0.0923678,
2,1,0,1,0,52390,0.0941856,0.0938842,4.25675,27,0.00444659,10,0.000399642,-2.37092,0.436699,0.135105,22.4929,0.0938842,
2,1,0,1,0,52390,0.0956852,0.0953119,4.29615,27,0.00455394,10,0.000409474,-2.36692,0.431729,0.13666,22.9263,0.0953119,
2,1,0,1,0,52390,0.0971794,0.0968492,4.33536,27,0.00466178,10,0.000419877,-2.36297,0.357078,0.16523,27.9497,0.0968492,
2,1,0,1,0,52390.1,0.0986802,0.09834,4.37586,27,0.00477103,10,0.000430322,-2.35894,0.335971,0.175611,30.0109,0.09834,
2,1,0,1,0,52390.1,0.100181,0.0998216,4.41498,27,0.00488136,10,0.00044071,-2.35507,0.345304,0.170864,29.4899,0.09982156,
2,1,0,1,0,52390.1,0.101675,0.101353,4.46733,27,0.00499239,10,0.000452775,-2.34995,0.322488,0.182953,31.9005,0.101353,
2,1,0,1,0,52390.1,0.103175,0.102835,4.51972,27,0.005105,10,0.000464785,-2.34489,0.275368,0.214258,37.8424,0.102835,
2,1,0,1,0,52390.2,0.104674,0.104377,4.57941,27,0.00521905,10,0.000477985,-2.33919,0.248941,0.237004,42.3625,0.104377,
2,1,0,1,0,52390.2,0.106169,0.105867,4.64112,27,0.00533426,10,0.000491344,-2.33338,0.255084,0.231296,41.9086,0.105867,
2,1,0,1,0,52390.2,0.107668,0.107371,4.70429,27,0.00545156,10,0.000505106,-2.32751,0.258272,0.228441,41.9703,0.107371,
2,1,0,1,0,52390.2,0.109169,0.108886,4.77843,27,0.00557043,10,0.000520301,-2.32072,0.239953,0.245882,45.8688,0.108886,
2,1,0,1,0,52390.3,0.110663,0.110343,4.84761,27,0.00569059,10,0.000534899,-2.31447,0.221475,0.266396,50.3643,0.110343,
2,1,0,1,0,52390.3,0.112163,0.111834,4.914,27,0.00581305,10,0.000549554,-2.30857,0.237078,0.248863,47.7767,0.111834,
2,1,0,1,0,52390.3,0.113662,0.113353,4.99121,27,0.00593728,10,0.00056577,-2.30179,0.251497,0.234595,45.6778,0.113353,
2,1,0,1,0,52390.3,0.115162,0.114779,5.06199,27,0.0060633,10,0.000581009,-2.29568,0.246195,0.239648,47.3363,0.114779,
2,1,0,1,0,52390.4,0.116656,0.116334,5.13342,27,0.0061906,10,0.00059719,-2.28959,0.234549,0.251546,50.3988,0.116334,
2,1,0,1,0,52390.4,0.118157,0.117801,5.20633,27,0.0063203,10,0.00061331,-2.28347,0.251679,0.234426,47.6172,0.117801,
2,1,0,1,0,52390.4,0.119657,0.119322,5.27522,27,0.00645172,10,0.000629449,-2.27776,0.299463,0.19702,40.5309,0.119322,
2,1,0,1,0,52390.4,0.121152,0.120837,5.3395,27,0.00658423,10,0.000645207,-2.2725,0.297238,0.198494,41.3133,0.120837,
2,1,0,1,0,52390.5,0.122651,0.122319,5.39632,27,0.00671877,10,0.000660072,-2.2679,0.302638,0.194953,41.0044,0.122319,
2,1,0,1,0,52390.5,0.124151,0.123846,5.44988,27,0.00685481,10,0.000674945,-2.26361,0.346221,0.170412,36.2518,0.123846,
2,1,0,1,0,52390.5,0.125649,0.125321,5.50785,27,0.00699217,10,0.000690248,-2.25902,0.425352,0.138709,29.7633,0.125321,
2,1,0,1,0,52390.5,0.127143,0.126826,5.54789,27,0.00713024,10,0.000703615,-2.25587,0.419982,0.140482,30.3894,0.126826,
2,1,0,1,0,52390.6,0.128644,0.128344,5.59269,27,0.00726984,10,0.000717789,-2.25238,0.453827,0.130006,28.3697,0.128344,
2,1,0,1,0,52390.6,0.130145,0.129766,5.6294,27,0.00741051,10,0.000730503,-2.24954,0.515749,0.114397,25.1301,0.129766,
2,1,0,1,0,52390.6,0.131639,0.131328,5.6661,27,0.0075516,10,0.000744118,-2.24672,0.673119,0.0876516,19.3567,0.131328,
2,1,0,1,0,52390.6,0.133139,0.132836,5.70215,27,0.00769408,10,0.000757451,-2.24396,0.69279,0.0851629,18.9308,0.132836,
2,1,0,1,0,52390.7,0.134638,0.134306,5.72542,27,0.00783715,10,0.000768957,-2.24219,0.794464,0.0742639,16.5846,0.134306,
2,1,0,1,0,52390.7,0.136132,0.135842,5.74747,27,0.00798037,10,0.000780748,-2.24052,0.842287,0.0700474,15.711,0.135842,
2,1,0,1,0,52390.7,0.137633,0.137341,5.77176,27,0.00812475,10,0.000792699,-2.23869,1.24599,0.047352,10.6537,0.137341,
2,1,0,1,0,52390.7,0.139133,0.138801,5.78948,27,0.00826959,10,0.000803586,-2.23736,1.90364,0.0309933,6.98495,0.138801,
2,1,0,1,0,52390.8,0.140627,0.140294,5.79298,27,0.0084141,10,0.000812721,-2.2371,2.26527,0.0260455,5.88019,0.140294,
2,1,0,1,0,52390.8,0.142126,0.141795,5.79084,27,0.00855931,10,0.000821114,-2.23726,-10.018,-0.00588942,-1.33001,0.141795,
2,1,0,1,0,52390.8,0.143626,0.143313,5.78672,27,0.0087045,10,0.00082931,-2.23757,-1.22815,-0.0480397,-10.8269,0.143313,
2,1,0,1,0,52390.8,0.145125,0.144821,5.76586,27,0.00884933,10,0.000835016,-2.23914,-0.615452,-0.0958645,-21.5297,0.144821,
2,1,0,1,0,52390.9,0.14662,0.146273,5.72263,27,0.00899281,10,0.000837068,-2.2424,-0.461074,-0.127962,-28.5402,0.1462733,
2,1,0,1,0,52390.9,0.14812,0.147822,5.67314,27,0.00913574,10,0.000838614,-2.24618,-0.325738,-0.181127,-40.0176,0.147822,
2,1,0,1,0,52390.9,0.149621,0.14932,5.60333,27,0.00927714,10,0.00083669,-2.25155,-0.23277,-0.253469,-55.2802,0.14932,
2,1,0,1,0,52390.9,0.151116,0.150752,5.51775,27,0.009416,10,0.000831811,-2.25824,-0.193008,-0.305687,-65.5495,0.150752,
2,1,0,1,0,52391,0.152615,0.152269,5.40396,27,0.00955296,10,0.000822852,-2.26729,-0.160485,-0.367636,-77.3468,0.1522685,
2,1,0,1,0,52391,0.154115,0.153773,5.27456,27,0.00968692,10,0.000811086,-2.27781,-0.137656,-0.428604,-88.1513,0.153773,
2,1,0,1,0,52391,0.155614,0.155283,5.13983,27,0.00981755,10,0.000798126,-2.28905,-0.11964,-0.493146,-98.7542,0.155283,
2,1,0,1,0,52391,0.157107,0.156752,4.99059,27,0.00994406,10,0.000782288,-2.30185,-0.108378,-0.544389,-105.605,0.1567525,
2,1,0,1,0,52391.1,0.158608,0.158295,4.82384,27,0.0100671,10,0.00076359,-2.31661,-0.102643,-0.574806,-108.08,0.158295,
2,1,0,1,0,52391.1,0.160109,0.159774,4.65296,27,0.010186,10,0.000743424,-2.33227,-0.0954902,-0.617864,-112.301,0.159774,
2,1,0,1,0,52391.1,0.161603,0.161263,4.49334,27,0.0103002,10,0.000724611,-2.34743,-0.0948825,-0.621821,-109.021,0.161263,
2,1,0,1,0,52391.1,0.163102,0.162789,4.33562,27,0.0104109,10,0.00070579,-2.36295,-0.0950283,-0.620868,-104.993,0.162789,
2,1,0,1,0,52391.2,0.164602,0.164257,4.17781,27,0.0105176,10,0.000686234,-2.37905,-0.0960749,-0.614104,-100.192,0.164257,
2,1,0,1,0,52391.2,0.166096,0.165755,4.02146,27,0.0106201,10,0.000666576,-2.39562,-0.0978546,-0.602935,-95.0883,0.165755,
2,1,0,1,0,52391.2,0.167597,0.167247,3.89073,27,0.0107194,10,0.000650712,-2.40997,-0.102733,-0.574307,-87.4561,0.167247,
2,1,0,1,0,52391.2,0.169098,0.168745,3.77634,27,0.0108156,10,0.000637238,-2.42293,-0.107424,-0.549227,-80.8831,0.168745,
2,1,0,1,0,52391.3,0.170592,0.170283,3.65624,27,0.0109084,10,0.000622596,-2.43696,-0.111913,-0.527196,-75.2589,0.170283,
2,1,0,1,0,52391.3,0.17209,0.171752,3.54003,27,0.0109987,10,0.000608007,-2.45099,-0.12099,-0.487644,-67.6296,0.171752,
2,1,0,1,0,52391.3,0.17359,0.173239,3.4498,27,0.0110865,10,0.000597641,-2.46221,-0.123772,-0.476683,-64.2531,0.173239,
2,1,0,1,0,52391.3,0.175089,0.174721,3.36271,27,0.0111719,10,0.000587535,-2.47331,-0.134516,-0.438609,-57.6098,0.174721,
2,1,0,1,0,52391.4,0.176583,0.176248,3.28137,27,0.0112549,10,0.000578336,-2.48394,-0.146697,-0.402188,-51.5016,0.176248,
2,1,0,1,0,52391.4,0.178084,0.177749,3.20131,27,0.0113364,10,0.00056903,-2.49467,-0.159176,-0.370659,-46.4524,0.177749,
2,1,0,1,0,52391.4,0.179585,0.179231,3.13684,27,0.011416,10,0.000562219,-2.50351,-0.16345,-0.360966,-44.3286,0.179231,
2,1,0,1,0,52391.4,0.181079,0.180773,3.08073,27,0.0114937,10,0.000556914,-2.51135,-0.184767,-0.319322,-38.3761,0.180773,
2,1,0,1,0,52391.5,0.182579,0.182268,3.02611,27,0.0115703,10,0.000551563,-2.51911,-0.192286,-0.306835,-36.2035,0.182268,
2,1,0,1,0,52391.5,0.184078,0.183765,2.97104,27,0.0116456,10,0.000545972,-2.52709,-0.22332,-0.264195,-30.7173,0.183765,
2,1,0,1,0,52391.5,0.185578,0.185237,2.92345,27,0.0117197,10,0.00054153,-2.5341,-0.221204,-0.266723,-30.5007,0.185237,
2,1,0,1,0,52391.5,0.187072,0.186732,2.88911,27,0.0117924,10,0.000539488,-2.53924,-0.258657,-0.228101,-25.7083,0.186732,
2,1,0,1,0,52391.6,0.188573,0.188225,2.84556,27,0.0118644,10,0.000535606,-2.54583,-0.294094,-0.200616,-22.3266,0.188225,
2,1,0,1,0,52391.6,0.190072,0.189743,2.80941,27,0.0119355,10,0.000533066,-2.55138,-0.298176,-0.19787,-21.7406,0.189743,
2,1,0,1,0,52391.6,0.191567,0.191225,2.77886,27,0.0120055,10,0.000531386,-2.55613,-0.293839,-0.20079,-21.8144,0.191225,
2,1,0,1,0,52391.6,0.193066,0.192765,2.75274,27,0.012075,10,0.000530632,-2.56024,-0.356005,-0.165728,-17.8129,0.192765,
2,1,0,1,0,52391.7,0.194566,0.194249,2.73347,27,0.0121439,10,0.000530973,-2.56329,-0.412819,-0.14292,-15.2163,0.194249,
2,1,0,1,0,52391.7,0.19606,0.19574,2.69598,27,0.0122119,10,0.000527712,-2.56928,-0.380216,-0.155175,-16.378,0.1957401,
2,1,0,1,0,52391.7,0.197561,0.197219,2.67559,27,0.0122795,10,0.000527676,-2.57258,-0.356047,-0.165709,-17.3452,0.197219,
2,1,0,1,0,52391.7,0.199062,0.198759,2.65873,27,0.0123465,10,0.000528448,-2.57533,-0.454489,-0.129816,-13.4592,0.198759,
2,1,0,1,0,52391.8,0.200556,0.200245,2.64141,27,0.0124128,10,0.000528931,-2.57816,-0.583432,-0.101126,-10.4134,0.200245,
2,1,0,1,0,52391.8,0.202055,0.201775,2.61926,27,0.0124788,10,0.000528503,-2.58182,-0.532929,-0.110709,-11.3263,0.2017753,
2,1,0,1,0,52391.8,0.203554,0.203236,2.59904,27,0.0125445,10,0.000528217,-2.58519,-0.517101,-0.114098,-11.6018,0.203236,
2,1,0,1,0,52391.8,0.205053,0.204708,2.58899,27,0.0126098,10,0.000529987,-2.58687,-0.69315,-0.0851187,-8.61905,0.204708,
2,1,0,1,0,52391.9,0.206547,0.20619,2.57442,27,0.0126744,10,0.000530819,-2.58932,-0.667093,-0.0884434,-8.88894,0.20619,
2,1,0,1,0,52391.9,0.208048,0.207748,2.56077,27,0.0127391,10,0.000531996,-2.59163,-0.750772,-0.0785858,-7.86004,0.207748,
2,1,0,1,0,52391.9,0.209549,0.209236,2.55473,27,0.0128034,10,0.000534542,-2.59265,-0.561801,-0.105019,-10.4521,0.209236,
2,1,0,1,0,52391.9,0.211043,0.210749,2.53932,27,0.0128671,10,0.000535161,-2.59528,-0.645158,-0.0914505,-9.05595,0.210749,
2,1,0,1,0,52392,0.212543,0.212249,2.52563,27,0.0129307,10,0.000536063,-2.59763,-1.02216,-0.057721,-5.69173,0.212249,
2,1,0,1,0,52392,0.214042,0.213733,2.51281,27,0.0129941,10,0.000537071,-2.59984,-1.07178,-0.0550488,-5.41018,0.213733,
2,1,0,1,0,52392,0.215536,0.215196,2.5035,27,0.013057,10,0.000538743,-2.60145,-0.688167,-0.085735,-8.3921,0.215196,
2,1,0,1,0,52392,0.217036,0.216728,2.49634,27,0.0131199,10,0.000541027,-2.6027,-0.825002,-0.0715149,-6.96827,0.216728,
2,1,0,1,0,52392.1,0.218537,0.21823,2.49013,27,0.0131825,10,0.000543421,-2.60378,-1.56712,-0.0376486,-3.65555,0.21823,
2,1,0,1,0,52392.1,0.220031,0.219753,2.48072,27,0.0132448,10,0.000545146,-2.60542,-1.71925,-0.0343173,-3.32434,0.219753,
2,1,0,1,0,52392.1,0.22153,0.221166,2.47256,27,0.0133071,10,0.000546846,-2.60685,-0.816708,-0.0722412,-6.97468,0.221166,
2,1,0,1,0,52392.1,0.22303,0.222724,2.46492,27,0.0133693,10,0.000548997,-2.6082,-0.793327,-0.0743703,-7.15467,0.222724,
2,1,0,1,0,52392.2,0.224529,0.224225,2.46,27,0.0134312,10,0.000551593,-2.60906,-1.42857,-0.0413,-3.96369,0.224225,
2,1,0,1,0,52392.2,0.226024,0.225711,2.44811,27,0.0134927,10,0.000552564,-2.61117,-1.99173,-0.0296225,-2.83547,0.225711,
2,1,0,1,0,52392.2,0.227525,0.227173,2.44623,27,0.0135543,10,0.000555718,-2.6115,-0.881359,-0.0669421,-6.3896,0.227173,
2,1,0,1,0,52392.2,0.229025,0.228732,2.44152,27,0.0136157,10,0.000558454,-2.61234,-1.04667,-0.0563694,-5.36649,0.228732,
2,1,0,1,0,52392.2,0.23052,0.230207,2.43287,27,0.0136767,10,0.000560062,-2.61388,-2.34088,-0.0252042,-2.39252,0.230207,
2,1,0,1,0,52392.3,0.232019,0.231703,2.42682,27,0.0137378,10,0.000562301,-2.61496,-2.1701,-0.0271877,-2.57886,0.231703,
2,1,0,1,0,52392.3,0.233519,0.233197,2.42582,27,0.0137989,10,0.000565695,-2.61514,-1.15113,-0.0512541,-4.84829,0.233197,
2,1,0,1,0,52392.3,0.235018,0.234674,2.42176,27,0.0138598,10,0.000568325,-2.61587,-1.14712,-0.0514333,-4.85349,0.234674,
2,1,0,1,0,52392.3,0.236511,0.236174,2.41009,27,0.0139202,10,0.0005692,-2.61797,-2.56124,-0.0230358,-2.16828,0.236174,
2,1,0,1,0,52392.4,0.238012,0.237694,2.40633,27,0.0139808,10,0.00057197,-2.61865,-2.69886,-0.021861,-2.05283,0.237694,
2,1,0,1,0,52392.4,0.239513,0.239225,2.40384,27,0.0140413,10,0.000575058,-2.61909,-1.46611,-0.0402426,-3.77327,0.239225,
2,1,0,1,0,52392.4,0.241007,0.24071,2.40119,27,0.0141015,10,0.000577989,-2.61957,-1.25677,-0.0469458,-4.39077,0.24071,
2,1,0,1,0,52392.4,0.242506,0.242223,2.39184,27,0.0141617,10,0.000579359,-2.62127,-1.62942,-0.0362093,-3.38474,0.242223,
2,1,0,1,0,52392.5,0.244006,0.243679,2.38507,27,0.0142219,10,0.000581192,-2.6225,7.22619,0.00816475,0.762554,0.243679,
2,1,0,1,0,52392.5,0.2455,0.245197,2.38464,27,0.0142817,10,0.000584706,-2.62258,-3.21806,-0.018334,-1.71034,0.245197,
2,1,0,1,0,52392.5,0.247001,0.246663,2.38703,27,0.0143417,10,0.000588792,-2.62214,-1.44119,-0.0409384,-3.80171,0.246663,
2,1,0,1,0,52392.5,0.248502,0.248184,2.37497,27,0.0144016,10,0.00058943,-2.62434,-2.44192,-0.0241613,-2.24103,0.248184,
2,1,0,1,0,52392.6,0.249995,0.249689,2.37266,27,0.0144611,10,0.000592428,-2.62476,-3.13694,-0.0188082,-1.74359,0.249689,
2,1,0,1,0,52392.6,0.251494,0.251161,2.36829,27,0.0145208,10,0.000594824,-2.62556,-1.3919,-0.0423881,-3.92098,0.251161,
2,1,0,1,0,52392.6,0.252994,0.252655,2.36839,27,0.0145804,10,0.000598387,-2.62555,-1.50336,-0.0392454,-3.61916,0.252655,
2,1,0,1,0,52392.6,0.254493,0.254172,2.36308,27,0.0146399,10,0.00060063,-2.62652,-3.31039,-0.0178227,-1.64339,0.254172,
2,1,0,1,0,52392.7,0.255988,0.255676,2.35506,27,0.014699,10,0.000602133,-2.628,-3.19256,-0.0184805,-1.70179,0.2556763,
2,1,0,1,0,52392.7,0.257488,0.257202,2.35213,27,0.0147582,10,0.000604972,-2.62854,-3.47595,-0.0169738,-1.56188,0.257202,
2,1,0,1,0,52392.7,0.258989,0.258695,2.35722,27,0.0148175,10,0.000609802,-2.6276,-1.59158,-0.0370701,-3.40009,0.258695,
2,1,0,1,0,52392.7,0.260483,0.26019,2.35489,27,0.0148765,10,0.000612718,-2.62803,-2.22835,-0.026477,-2.42627,0.26019,
2,1,0,1,0,52392.8,0.261983,0.261664,2.34201,27,0.0149355,10,0.00061282,-2.63041,-2.72078,-0.021685,-1.98545,0.261664,
2,1,0,1,0,52392.8,0.263482,0.263187,2.33974,27,0.0149944,10,0.000615789,-2.63083,-2.26352,-0.0260656,-2.38404,0.263187,
2,1,0,1,0,52392.8,0.264982,0.26462,2.34143,27,0.0150533,10,0.000619588,-2.63052,-1.65657,-0.0356157,-3.24957,0.26462,
2,1,0,1,0,52392.8,0.266476,0.266147,2.33836,27,0.0151119,10,0.000622348,-2.63109,-3.03317,-0.0194516,-1.77326,0.266147,
2,1,0,1,0,52392.9,0.267976,0.267628,2.32572,27,0.0151706,10,0.00062243,-2.63344,-2.09162,-0.0282079,-2.56987,0.267628,
2,1,0,1,0,52392.9,0.269477,0.269142,2.32571,27,0.0152292,10,0.000625946,-2.63344,-5.26196,-0.0112126,-1.01889,0.269142,
2,1,0,1,0,52392.9,0.270971,0.270666,2.33086,27,0.0152875,10,0.000630886,-2.63248,-2.39293,-0.0246559,-2.23594,0.270666,
2,1,0,1,0,52392.9,0.27247,0.272179,2.32415,27,0.015346,10,0.000632585,-2.63374,-1.61851,-0.0364534,-3.301,0.272179,
2,1,0,1,0,52393,0.27397,0.273602,2.31527,27,0.0154044,10,0.000633464,-2.6354,-3.52493,-0.0167379,-1.51576,0.273602,
2,1,0,1,0,52393,0.275464,0.27517,2.31101,27,0.0154623,10,0.000635921,-2.6362,-1.67768,-0.0351676,-3.1791,0.27517,
2,1,0,1,0,52393,0.276965,0.276718,2.31265,27,0.0155205,10,0.000639951,-2.63589,-2.00481,-0.0294293,-2.6522,0.276718,
2,1,0,1,0,52393,0.278466,0.278141,2.31138,27,0.0155787,10,0.00064289,-2.63613,-2.11478,-0.0278989,-2.5129,0.278141,
2,1,0,1,0,52393.1,0.27996,0.279664,2.30414,27,0.0156364,10,0.000644386,-2.63749,-5.89566,-0.0100074,-0.900017,0.279664,
2,1,0,1,0,52393.1,0.281458,0.281161,2.29725,27,0.0156943,10,0.000645896,-2.63879,-2.6997,-0.0218543,-1.96489,0.281161,
2,1,0,1,0,52393.1,0.282958,0.282651,2.30163,27,0.0157521,10,0.000650557,-2.63796,-2.39342,-0.024651,-2.20945,0.282651,
2,1,0,1,0,52393.1,0.284457,0.284145,2.29912,27,0.0158099,10,0.000653282,-2.63844,-3.0944,-0.0190667,-1.70655,0.284145,
2,1,0,1,0,52393.2,0.285951,0.285664,2.28831,27,0.0158674,10,0.000653688,-2.64048,-3.36253,-0.0175463,-1.57067,0.285664,
2,1,0,1,0,52393.2,0.287452,0.287151,2.2855,27,0.0159249,10,0.000656285,-2.64102,-1.34881,-0.0437422,-3.91234,0.287151,
2,1,0,1,0,52393.2,0.288953,0.288624,2.28555,27,0.0159824,10,0.000659663,-2.64101,-2.36679,-0.0249283,-2.21766,0.288624,
2,1,0,1,0,52393.2,0.290447,0.290136,2.28141,27,0.0160396,10,0.00066192,-2.6418,-4.31599,-0.0136701,-1.21524,0.290136,
2,1,0,1,0,52393.3,0.291947,0.291602,2.27209,27,0.0160969,10,0.000662545,-2.64358,-2.15133,-0.0274249,-2.43583,0.291602,
2,1,0,1,0,52393.3,0.293446,0.293098,2.26592,27,0.0161541,10,0.000664137,-2.64476,-1.65813,-0.0355822,-3.15588,0.293098,
2,1,0,1,0,52393.3,0.29494,0.294629,2.26975,27,0.0162109,10,0.000668734,-2.64402,-1.45593,-0.040524,-3.58664,0.294629,
2,1,0,1,0,52393.3,0.29644,0.296131,2.26897,27,0.0162679,10,0.000671913,-2.64417,-5.34249,-0.0110435,-0.975519,0.2961311,
2,1,0,1,0,52393.4,0.297941,0.297628,2.26061,27,0.0163249,10,0.00067282,-2.64578,-10.4456,-0.00564833,-0.497678,0.297628,
2,1,0,1,0,52393.4,0.29944,0.299117,2.25279,27,0.0163817,10,0.00067385,-2.64728,-0.00881557,-6.6927,-473.985,0.299117,
2,1,0,1,0,52393.4,0.299736,0.299385,1.88658,27,0.0164112,10,0.000564814,-2.72432,0.00210501,28.0284,1382.44,0.299385,
2,1,0,1,0,52393.4,0.298238,0.297951,0.828508,27,0.016443,10,0.000246855,-3.0817,0.00320026,18.436,560.288,0.297951,
2,1,0,1,0,52393.5,0.296744,0.296379,0.279355,27,0.0164558,10,8.2795e-05,-3.55384,0.00469844,12.5574,310.143,0.296379,
2,0,0,1,0,52393.5,0.295243,0.294888,-0.0592654,27,0.0164578,10,-1.74767e-05,-4.2272,0.043163,1.36691,192.597,0.294888,
2,0,0,1,0,52393.5,0.293742,0.293426,-0.295154,27,0.0164527,10,-8.66057e-05,-3.52995,-0.00344291,-17.1367,130.918,0.293426,
2,0,0,1,0,52393.5,0.292248,0.291892,-0.448704,27,0.0164431,10,-0.000130973,-3.34804,-0.00916513,-6.43744,96.0063,0.291892,
2,0,0,1,0,52393.6,0.290748,0.290364,-0.57292,27,0.0164298,10,-0.000166356,-3.24191,-0.0164935,-3.57717,74.5839,0.290364,
2,0,0,1,0,52393.6,0.289249,0.288923,-0.664689,27,0.0164139,10,-0.000192044,-3.17738,-0.0246917,-2.38946,60.3155,0.288923,
2,0,0,1,0,52393.6,0.287754,0.287394,-0.74505,27,0.0163958,10,-0.000214123,-3.12781,-0.0369729,-1.59576,45.4456,0.287394,
2,0,0,1,0,52393.6,0.286254,0.285934,-0.812323,27,0.016376,10,-0.000232271,-3.09027,-0.0448165,-1.31648,41.0719,0.285934,
2,0,0,1,0,52393.7,0.284754,0.284399,-0.86667,27,0.0163547,10,-0.00024648,-3.06215,-0.053093,-1.11126,37.183,0.284399,
2,0,0,1,0,52393.7,0.28326,0.282928,-0.908521,27,0.0163321,10,-0.000257046,-3.04166,-0.0678342,-0.869768,30.8583,0.282928,
2,0,0,1,0,52393.7,0.28176,0.281383,-0.957337,27,0.0163083,10,-0.000269378,-3.01894,-0.0849145,-0.694817,25.7829,0.281383,
2,0,0,1,0,52393.7,0.280261,0.279922,-0.995382,27,0.0162834,10,-0.000278629,-3.00201,-0.0926389,-0.636881,24.6368,0.279922,
2,0,0,1,0,52393.8,0.278761,0.27845,-1.02976,27,0.0162577,10,-0.000286737,-2.98726,-0.0988753,-0.596711,23.9772,0.27845,
2,0,0,1,0,52393.8,0.277267,0.27699,-1.0606,27,0.0162312,10,-0.000293774,-2.97445,-0.113642,-0.519176,21.524,0.27699,
2,0,0,1,0,52393.8,0.275766,0.275415,-1.09406,27,0.0162038,10,-0.00030132,-2.96096,-0.142947,-0.412742,17.5915,0.275415,
2,0,0,1,0,52393.8,0.274265,0.273938,-1.12982,27,0.0161756,10,-0.0003095,-2.94699,-0.148517,-0.397261,17.367,0.273938,
2,0,0,1,0,52393.9,0.272771,0.272406,-1.15078,27,0.0161469,10,-0.000313478,-2.93901,-0.14202,-0.415433,18.658,0.272406,
2,0,0,1,0,52393.9,0.271272,0.270951,-1.17509,27,0.0161175,10,-0.000318393,-2.92993,-0.16801,-0.351169,16.12,0.270951,
2,0,0,1,0,52393.9,0.269772,0.269472,-1.20437,27,0.0160873,10,-0.000324544,-2.91924,-0.180838,-0.326259,15.2834,0.269472,
2,0,0,1,0,52393.9,0.268273,0.267966,-1.22859,27,0.0160566,10,-0.00032922,-2.91059,-0.183622,-0.321312,15.3204,0.267966,
2,0,0,1,0,52394,0.26678,0.266442,-1.24672,27,0.0160254,10,-0.000332177,-2.90423,-0.17904,-0.329536,16.0241,0.266442,
2,0,0,1,0,52394,0.265279,0.264986,-1.26045,27,0.0159936,10,-0.000334003,-2.89947,-0.20242,-0.291473,14.4034,0.264986,
2,0,0,1,0,52394,0.263778,0.263434,-1.28797,27,0.0159613,10,-0.000339294,-2.8901,-0.230808,-0.255623,12.8206,0.263434,
2,0,0,1,0,52394,0.262284,0.261967,-1.30999,27,0.0159286,10,-0.000343176,-2.88273,-0.246372,-0.239475,12.2172,0.261967,
2,0,0,1,0,52394.1,0.260784,0.260509,-1.32225,27,0.0158953,10,-0.000344458,-2.87869,-0.216741,-0.272215,14.0774,0.260509,
2,0,0,1,0,52394.1,0.259285,0.258961,-1.34111,27,0.0158615,10,-0.000347297,-2.87253,-0.239565,-0.24628,12.9351,0.258961,
2,0,0,1,0,52394.1,0.257791,0.257444,-1.36502,27,0.0158274,10,-0.000351416,-2.86486,-0.283366,-0.208212,11.0626,0.257444,
2,0,0,1,0,52394.1,0.25629,0.255946,-1.38203,27,0.0157927,10,-0.000353725,-2.85948,-0.319594,-0.184609,9.92188,0.255946,
2,0,0,1,0,52394.2,0.254789,0.254455,-1.39565,27,0.0157576,10,-0.00035513,-2.85522,-0.281552,-0.209553,11.403,0.2544547,
2,0,0,1,0,52394.2,0.253296,0.252958,-1.4055,27,0.0157223,10,-0.000355534,-2.85217,-0.307034,-0.192161,10.5865,0.252958,
2,0,0,1,0,52394.2,0.251797,0.251465,-1.42611,27,0.0156864,10,-0.000358617,-2.84585,-0.364255,-0.161974,9.03492,0.251465,
2,0,0,1,0,52394.2,0.250297,0.249964,-1.44404,27,0.0156502,10,-0.000360958,-2.84042,-0.313754,-0.188046,10.5712,0.249964,
2,0,0,1,0,52394.3,0.248797,0.24846,-1.45949,27,0.0156135,10,-0.000362626,-2.8358,-0.28959,-0.203736,11.5806,0.24846,
2,0,0,1,0,52394.3,0.247303,0.246965,-1.46986,27,0.0155766,10,-0.000363005,-2.83272,-0.31919,-0.184843,10.6223,0.246965,
2,0,0,1,0,52394.3,0.245802,0.245488,-1.48841,27,0.0155392,10,-0.000365386,-2.82728,-0.379526,-0.155457,9.03492,0.245488,
2,0,0,1,0,52394.3,0.244302,0.243987,-1.50876,27,0.0155013,10,-0.000368118,-2.82138,-0.404781,-0.145758,8.52715,0.243987,
2,0,0,1,0,52394.4,0.242807,0.242452,-1.51819,27,0.0154633,10,-0.000368088,-2.81867,-0.353118,-0.167083,9.87268,0.242452,
2,0,0,1,0,52394.4,0.241308,0.240987,-1.5261,27,0.0154249,10,-0.000367771,-2.81642,-0.370975,-0.15904,9.50826,0.2409866,
2,0,0,1,0,52394.4,0.239808,0.239463,-1.54187,27,0.0153861,10,-0.00036922,-2.81195,-0.398215,-0.148161,8.92029,0.239463,
2,0,0,1,0,52394.4,0.238309,0.237978,-1.55947,27,0.0153469,10,-0.000371119,-2.80702,-0.420906,-0.140174,8.50199,0.237978,
2,0,0,1,0,52394.5,0.236815,0.236467,-1.57134,27,0.0153076,10,-0.000371571,-2.80373,-0.407796,-0.14468,8.85431,0.236467,
2,0,0,1,0,52394.5,0.235315,0.234988,-1.57798,27,0.0152678,10,-0.000370806,-2.8019,-0.446533,-0.132129,8.15463,0.234988,
2,0,0,1,0,52394.5,0.233814,0.233484,-1.59323,27,0.0152277,10,-0.000371994,-2.79772,-0.455529,-0.12952,8.0628,0.233484,
2,0,0,1,0,52394.5,0.23232,0.232012,-1.61697,27,0.0151874,10,-0.000375157,-2.7913,-0.471207,-0.12521,7.84746,0.232012,
2,0,0,1,0,52394.6,0.230821,0.23049,-1.62106,27,0.0151466,10,-0.000373639,-2.7902,-0.445122,-0.132548,8.36673,0.23049,
2,0,0,1,0,52394.6,0.229321,0.22898,-1.63022,27,0.0151055,10,-0.000373288,-2.78775,-0.490358,-0.12032,7.67825,0.22898,
2,0,0,1,0,52394.6,0.227827,0.227485,-1.64432,27,0.0150643,10,-0.000374059,-2.78401,-0.535672,-0.110142,7.08653,0.227485,
2,0,0,1,0,52394.6,0.226326,0.226027,-1.66296,27,0.0150225,10,-0.000375875,-2.77912,-0.460493,-0.128124,8.28798,0.226027,
2,0,0,1,0,52394.7,0.224825,0.224523,-1.67292,27,0.0149805,10,-0.000375608,-2.77652,-0.416029,-0.141817,9.24263,0.224523,
2,0,0,1,0,52394.7,0.223331,0.222977,-1.68188,27,0.0149383,10,-0.00037502,-2.77421,-0.482225,-0.12235,8.04401,0.222977,
2,0,0,1,0,52394.7,0.221831,0.221483,-1.69411,27,0.0148957,10,-0.000375217,-2.77106,-0.48269,-0.122232,8.09697,0.221483,
2,0,0,1,0,52394.7,0.220333,0.220025,-1.70783,27,0.0148528,10,-0.000375767,-2.76755,-0.47032,-0.125447,8.34152,0.220025,
2,0,0,1,0,52394.8,0.218834,0.218474,-1.72495,27,0.0148094,10,-0.000376856,-2.76322,-0.387405,-0.152295,10.2211,0.218474,
2,0,0,1,0,52394.8,0.21734,0.217011,-1.73118,27,0.014766,10,-0.000375684,-2.76166,-0.525905,-0.112188,7.59916,0.2170109,
2,0,0,1,0,52394.8,0.215839,0.215499,-1.74142,27,0.0147222,10,-0.000375272,-2.7591,-0.683944,-0.0862644,5.87976,0.215499,
2,0,0,1,0,52394.8,0.214338,0.214027,-1.75737,27,0.014678,10,-0.000376125,-2.75514,-0.580452,-0.101645,6.95512,0.214027,
2,0,0,1,0,52394.9,0.212844,0.2125,-1.76777,27,0.0146337,10,-0.000375649,-2.75258,-0.434106,-0.135912,9.36495,0.2125,
2,0,0,1,0,52394.9,0.211344,0.211041,-1.77401,27,0.014589,10,-0.000374389,-2.75104,-0.50519,-0.116788,8.10932,0.211041,
2,0,0,1,0,52394.9,0.209845,0.20954,-1.78698,27,0.0145439,10,-0.000374443,-2.74788,-0.650957,-0.0906358,6.33918,0.20954,
2,0,0,1,0,52394.9,0.20835,0.207982,-1.80575,27,0.0144988,10,-0.000375564,-2.74334,-0.480269,-0.122848,8.6512,0.207982,
2,0,0,1,0,52395,0.206851,0.206563,-1.82437,27,0.0144531,10,-0.000376848,-2.73889,-0.371471,-0.158828,11.2578,0.2065631,
2,0,0,1,0,52395,0.20535,0.20497,-1.82947,27,0.014407,10,-0.000374985,-2.73768,-0.530056,-0.111309,7.94339,0.20497,
2,0,0,1,0,52395,0.203856,0.203494,-1.84468,27,0.0143609,10,-0.000375381,-2.73408,-0.745404,-0.0791517,5.69871,0.203494,
2,0,0,1,0,52395,0.202356,0.201982,-1.85737,27,0.0143143,10,-0.000375156,-2.7311,-0.664323,-0.0888122,6.42534,0.2019819,
2,0,0,1,0,52395.1,0.200857,0.200528,-1.86448,27,0.0142674,10,-0.000373879,-2.72944,-0.385727,-0.152958,11.1288,0.200528,
2,0,0,1,0,52395.1,0.199357,0.199034,-1.87256,27,0.0142203,10,-0.000372705,-2.72756,-0.510216,-0.115637,8.47755,0.199034,
2,0,0,1,0,52395.1,0.197863,0.197496,-1.88705,27,0.0141729,10,-0.000372684,-2.72422,-0.702252,-0.0840154,6.19705,0.197496,
2,0,0,1,0,52395.1,0.196362,0.195989,-1.90474,27,0.0141252,10,-0.000373308,-2.72016,-0.823492,-0.0716462,5.314,0.195989,
2,0,0,1,0,52395.2,0.194861,0.19449,-1.91709,27,0.0140771,10,-0.000372854,-2.71736,-0.413293,-0.142756,10.6558,0.19449,
2,0,0,1,0,52395.2,0.193367,0.193048,-1.92976,27,0.0140288,10,-0.000372537,-2.7145,-0.470719,-0.12534,9.44235,0.193048,
2,0,0,1,0,52395.2,0.191868,0.191539,-1.93891,27,0.01398,10,-0.000371377,-2.71244,-0.672892,-0.0876813,6.65496,0.191539,
2,0,0,1,0,52395.2,0.190368,0.19003,-1.95633,27,0.0139309,10,-0.000371762,-2.70856,-0.541132,-0.109031,8.32366,0.19003,
2,0,0,1,0,52395.3,0.18887,0.188482,-1.97005,27,0.0138815,10,-0.000371319,-2.70552,-0.458295,-0.128738,9.87626,0.188482,
2,0,0,1,0,52395.3,0.187376,0.187035,-1.981,27,0.0138319,10,-0.000370517,-2.70312,-0.44493,-0.132605,10.2631,0.187035,
2,0,0,1,0,52395.3,0.185875,0.185519,-1.99548,27,0.0137817,10,-0.000370199,-2.69995,-0.583528,-0.101109,7.88096,0.185519,
2,0,0,1,0,52395.3,0.184374,0.184012,-2.00978,27,0.0137312,10,-0.000369824,-2.69685,-0.599052,-0.098489,7.71096,0.184012,
2,0,0,1,0,52395.4,0.18288,0.182535,-2.02702,27,0.0136806,10,-0.000370003,-2.69314,-0.422069,-0.139788,11.055,0.182535,
2,0,0,1,0,52395.4,0.18138,0.181052,-2.03826,27,0.0136293,10,-0.000369032,-2.69074,-0.407594,-0.144752,11.5357,0.181052,
2,0,0,1,0,52395.4,0.179881,0.179537,-2.05635,27,0.0135776,10,-0.000369191,-2.6869,-0.532096,-0.110882,8.90585,0.179537,
2,0,0,1,0,52395.4,0.178387,0.178017,-2.08023,27,0.0135257,10,-0.000370315,-2.68189,-0.590739,-0.0998749,8.08338,0.178017,
2,0,0,1,0,52395.5,0.176886,0.17654,-2.09582,27,0.0134733,10,-0.000369995,-2.67865,-0.394829,-0.149432,12.1976,0.17654,
2,0,0,1,0,52395.5,0.175385,0.175007,-2.1084,27,0.0134204,10,-0.000368984,-2.67605,-0.354792,-0.166294,13.6853,0.175007,
2,0,0,1,0,52395.5,0.173892,0.173557,-2.12978,27,0.0133672,10,-0.000369636,-2.67167,-0.402943,-0.146423,12.1626,0.173557,
2,0,0,1,0,52395.5,0.172392,0.172058,-2.14871,27,0.0133134,10,-0.000369703,-2.66782,-0.427681,-0.137953,11.5495,0.172058,
2,0,0,1,0,52395.6,0.170893,0.170539,-2.16533,27,0.0132591,10,-0.000369275,-2.66448,-0.317933,-0.185574,15.6828,0.170539,
2,0,0,1,0,52395.6,0.169393,0.16904,-2.18301,27,0.0132042,10,-0.000369017,-2.66094,-0.296095,-0.19926,17.0229,0.16904,
2,0,0,1,0,52395.6,0.167899,0.167554,-2.20804,27,0.0131491,10,-0.000369966,-2.65599,-0.327152,-0.180345,15.5857,0.167554,
2,0,0,1,0,52395.6,0.166398,0.166052,-2.2355,27,0.0130931,10,-0.000371209,-2.65062,-0.382291,-0.154333,13.4521,0.166052,
2,0,0,1,0,52395.7,0.164898,0.164537,-2.25663,27,0.0130365,10,-0.000371299,-2.64654,-0.279631,-0.210993,18.5921,0.164537,
2,0,0,1,0,52395.7,0.163403,0.163088,-2.28006,27,0.0129796,10,-0.00037185,-2.64205,-0.26222,-0.225002,20.0893,0.163088,
2,0,0,1,0,52395.7,0.161904,0.161557,-2.31553,27,0.0129218,10,-0.00037409,-2.63535,-0.286317,-0.206066,18.5963,0.161557,
2,0,0,1,0,52395.7,0.160404,0.160023,-2.34588,27,0.0128631,10,-0.000375394,-2.62969,-0.294186,-0.200554,18.3194,0.160023,
2,0,0,1,0,52395.8,0.158905,0.158562,-2.37291,27,0.0128038,10,-0.000376253,-2.62472,-0.242877,-0.242922,22.4973,0.158562,
2,0,0,1,0,52395.8,0.157411,0.157072,-2.40413,27,0.0127439,10,-0.000377622,-2.61904,-0.228393,-0.258327,24.3306,0.157072,
2,0,0,1,0,52395.8,0.155911,0.155556,-2.44169,27,0.0126829,10,-0.00037982,-2.61231,-0.210291,-0.280564,26.8061,0.155556,
2,0,0,1,0,52395.8,0.15441,0.154059,-2.49081,27,0.0126208,10,-0.00038373,-2.60366,-0.211464,-0.279008,27.063,0.154059,
2,0,0,1,0,52395.9,0.152916,0.152615,-2.53113,27,0.0125578,10,-0.000386289,-2.59669,-0.193246,-0.30531,30.1748,0.1526154,
2,0,0,1,0,52395.9,0.151417,0.151054,-2.57286,27,0.0124936,10,-0.000388642,-2.58958,-0.17302,-0.341002,34.4011,0.151054,
2,0,0,1,0,52395.9,0.149917,0.149562,-2.63187,27,0.012428,10,-0.000393627,-2.57974,-0.161622,-0.365049,37.6146,0.149562,
2,0,0,1,0,52395.9,0.148423,0.148087,-2.697,27,0.0123613,10,-0.000399391,-2.56912,-0.149403,-0.394904,41.5691,0.1480871,
2,0,0,1,0,52396,0.146922,0.146599,-2.76225,27,0.0122927,10,-0.000404941,-2.55874,-0.13741,-0.429372,46.2682,0.146599,
2,0,0,1,0,52396,0.145421,0.145037,-2.82553,27,0.0122224,10,-0.000409806,-2.5489,-0.125567,-0.46987,52.0545,0.145037,
2,0,0,1,0,52396,0.143927,0.143557,-2.90673,27,0.0121506,10,-0.000417282,-2.5366,-0.116688,-0.505621,57.6022,0.143557,
2,0,0,1,0,52396,0.142429,0.142081,-3.0003,27,0.0120763,10,-0.000426287,-2.52284,-0.112743,-0.523312,61.2914,0.142081,
2,0,0,1,0,52396.1,0.140929,0.140605,-3.09958,27,0.0119996,10,-0.000435818,-2.5087,-0.10761,-0.548276,66.2881,0.140605,
2,0,0,1,0,52396.1,0.13943,0.139079,-3.19272,27,0.0119205,10,-0.000444039,-2.49584,-0.100806,-0.585282,73.1973,0.139079,
2,0,0,1,0,52396.1,0.137935,0.13759,-3.30659,27,0.0118391,10,-0.000454954,-2.48062,-0.10148,-0.581396,75.2072,0.13759,
2,0,0,1,0,52396.1,0.136435,0.136089,-3.42876,27,0.0117545,10,-0.000466617,-2.46486,-0.0996503,-0.59207,79.2016,0.136089,
2,0,0,1,0,52396.2,0.134934,0.134589,-3.5568,27,0.0116668,10,-0.000478705,-2.44894,-0.0958606,-0.615477,85.2616,0.1345886,
2,0,0,1,0,52396.2,0.13344,0.133129,-3.6784,27,0.0115763,10,-0.0004897,-2.43434,-0.0980134,-0.601958,86.4998,0.133129,
2,0,0,1,0,52396.2,0.13194,0.131579,-3.80709,27,0.0114823,10,-0.000500935,-2.41941,-0.0995475,-0.592682,88.2326,0.131579,
2,0,0,1,0,52396.2,0.13044,0.130044,-3.94253,27,0.0113849,10,-0.000512703,-2.40422,-0.102032,-0.578251,88.9238,0.130044,
2,0,0,1,0,52396.3,0.128941,0.128593,-4.07753,27,0.0112842,10,-0.000524343,-2.3896,-0.105683,-0.558271,88.7483,0.128593,
2,0,0,1,0,52396.3,0.127447,0.127099,-4.21252,27,0.0111806,10,-0.000535408,-2.37546,-0.106839,-0.552234,90.6702,0.127099,
2,0,0,1,0,52396.3,0.125946,0.125606,-4.33654,27,0.0110732,10,-0.000544693,-2.36286,-0.115682,-0.510021,86.3749,0.125606,
2,0,0,1,0,52396.3,0.124446,0.124115,-4.47556,27,0.0109626,10,-0.000555484,-2.34915,-0.121655,-0.484976,84.524,0.124115,
2,0,0,1,0,52396.4,0.122952,0.122618,-4.60314,27,0.0108492,10,-0.000564426,-2.33695,-0.12654,-0.466257,83.5186,0.122618,
2,0,0,1,0,52396.4,0.121453,0.121084,-4.71472,27,0.0107323,10,-0.000570876,-2.32654,-0.135983,-0.433877,79.8145,0.121084,
2,0,0,1,0,52396.4,0.119953,0.119612,-4.82608,27,0.0106125,10,-0.000577258,-2.31641,-0.145248,-0.406203,76.5563,0.119612,
2,0,0,1,0,52396.4,0.118459,0.11816,-4.94112,27,0.0104904,10,-0.000583846,-2.30617,-0.157966,-0.373498,71.9892,0.11816,
2,0,0,1,0,52396.5,0.116958,0.11662,-5.05732,27,0.010365,10,-0.000589786,-2.29608,-0.162511,-0.363052,71.442,0.11662,
2,0,0,1,0,52396.5,0.115457,0.115086,-5.15694,27,0.0102369,10,-0.000593491,-2.28761,-0.178869,-0.329851,66.2546,0.115086,
2,0,0,1,0,52396.5,0.113963,0.113585,-5.24468,27,0.0101069,10,-0.000595716,-2.28028,-0.204276,-0.288825,59.0912,0.113585,
2,0,0,1,0,52396.5,0.112464,0.112138,-5.33771,27,0.00997427,10,-0.000598559,-2.27265,-0.221347,-0.26655,55.4336,0.112138,
2,0,0,1,0,52396.6,0.110965,0.110671,-5.41648,27,0.00983943,10,-0.000599445,-2.26628,-0.229619,-0.256947,54.2375,0.110671,
2,0,0,1,0,52396.6,0.109466,0.109152,-5.49478,27,0.00970259,10,-0.000599763,-2.26005,-0.26359,-0.223833,47.9067,0.109152,
2,0,0,1,0,52396.6,0.107972,0.107643,-5.55296,27,0.00956451,10,-0.000597739,-2.25548,-0.309857,-0.190411,41.2758,0.107643,
2,0,0,1,0,52396.6,0.106471,0.106129,-5.61584,27,0.00942439,10,-0.000596002,-2.25059,-0.358892,-0.164395,36.0114,0.106129,
2,0,0,1,0,52396.7,0.10497,0.104639,-5.67527,27,0.00928285,10,-0.000593856,-2.24601,-0.397567,-0.148403,32.7788,0.104639,
2,0,0,1,0,52396.7,0.103476,0.103107,-5.72204,27,0.0091406,10,-0.000589982,-2.24245,-0.47761,-0.123532,27.5043,0.103107,
2,0,0,1,0,52396.7,0.101976,0.101662,-5.74979,27,0.00899681,10,-0.000584537,-2.24035,-0.711804,-0.0828879,18.5795,0.101662,
2,0,0,1,0,52396.7,0.100477,0.100156,-5.77119,27,0.00885237,10,-0.000578019,-2.23873,-1.43465,-0.041125,9.25384,0.100156,
2,0,0,1,0,52396.8,0.0989825,0.0986615,-5.7893,27,0.008708,10,-0.000571181,-2.23737,-1.6386,-0.0360064,8.11914,0.0986615,
2,0,0,1,0,52396.8,0.0974817,0.0972149,-5.79706,27,0.00856278,10,-0.00056356,-2.23679,-3.73745,-0.0157862,3.56661,0.0972149,
2,0,0,1,0,52396.8,0.0959822,0.0956151,-5.79168,27,0.0084175,10,-0.000553772,-2.2372,3.8133,0.0154721,-3.49511,0.0956151,
2,0,0,1,0,52396.8,0.094488,0.0941584,-5.78357,27,0.00827292,10,-0.000544572,-2.2378,1.37488,0.0429128,-9.67986,0.0941584,
2,0,0,1,0,52396.9,0.0929884,0.0926369,-5.77206,27,0.0081281,10,-0.000534706,-2.23867,1.43295,0.0411739,-9.26155,0.0926369,
2,0,0,1,0,52396.9,0.0914889,0.0911377,-5.75172,27,0.00798366,10,-0.000524199,-2.2402,1.0673,0.0552799,-12.3969,0.0911377,
2,0,0,1,0,52396.9,0.0899894,0.0896422,-5.72304,27,0.00783976,10,-0.000513026,-2.24237,0.653757,0.0902476,-20.1439,0.0896422,
2,0,0,1,0,52396.9,0.0884951,0.088162,-5.69066,27,0.00769714,10,-0.0005017,-2.24484,0.580761,0.101591,-22.5641,0.08816196,
2,0,0,1,0,52397,0.0869943,0.08664,-5.66611,27,0.00755484,10,-0.000490912,-2.24671,0.582769,0.101241,-22.3741,0.08664,
2,0,0,1,0,52397,0.0854935,0.0851517,-5.63075,27,0.0074133,10,-0.000479468,-2.24943,0.604201,0.0976496,-21.4457,0.0851517,
2,0,0,1,0,52397,0.0839993,0.0836767,-5.59317,27,0.00727317,10,-0.000468018,-2.25234,0.517397,0.114032,-24.8976,0.0836767,
2,0,0,1,0,52397,0.0824998,0.0821842,-5.56185,27,0.0071333,10,-0.000457097,-2.25478,0.53935,0.109391,-23.7397,0.0821842,
2,0,0,1,0,52397.1,0.0810002,0.080657,-5.52277,27,0.00699441,10,-0.00044545,-2.25784,0.5881,0.100323,-21.6444,0.080657,
2,0,0,1,0,52397.1,0.0795007,0.0791576,-5.49271,27,0.00685629,10,-0.00043479,-2.26021,0.694077,0.085005,-18.2288,0.0791576,
2,0,0,1,0,52397.1,0.0780078,0.0776341,-5.45922,27,0.00671945,10,-0.000423822,-2.26287,0.64717,0.0911662,-19.4453,0.0776341,
2,0,0,1,0,52397.1,0.076507,0.0762055,-5.43792,27,0.0065828,10,-0.0004144,-2.26457,0.624046,0.0945443,-20.0597,0.0762055,
2,0,0,1,0,52397.2,0.0750062,0.0746908,-5.41408,27,0.00644687,10,-0.000404382,-2.26648,0.690022,0.0855045,-18.0359,0.0746908,
2,0,0,1,0,52397.2,0.073512,0.0731838,-5.38261,27,0.00631214,10,-0.00039392,-2.26901,0.861266,0.0685038,-14.3963,0.0731838,
2,0,0,1,0,52397.2,0.0720124,0.071687,-5.35584,27,0.00617751,10,-0.000383944,-2.27117,0.76081,0.0775489,-16.222,0.071687,
2,0,0,1,0,52397.2,0.0705129,0.0702106,-5.33537,27,0.00604342,10,-0.000374599,-2.27284,0.711216,0.0829565,-17.2746,0.0702106,
2,0,0,1,0,52397.3,0.0690187,0.0686683,-5.31169,27,0.00591045,10,-0.000364745,-2.27477,0.795117,0.0742029,-15.3824,0.0686683,
2,0,0,1,0,52397.3,0.0675179,0.0672003,-5.29105,27,0.00577757,10,-0.00035556,-2.27646,1.009,0.0584739,-12.0773,0.0672003,
2,0,0,1,0,52397.3,0.066017,0.0656553,-5.2692,27,0.0056452,10,-0.00034595,-2.27826,0.978422,0.0603012,-12.3972,0.0656553,
2,0,0,1,0,52397.3,0.0645242,0.0641766,-5.25039,27,0.0055138,10,-0.000336953,-2.27981,0.770666,0.0765572,-15.6769,0.0641766,
2,0,0,1,0,52397.4,0.0630246,0.0627198,-5.22423,27,0.00538242,10,-0.000327663,-2.28198,0.77775,0.0758598,-15.468,0.0627198,
2,0,0,1,0,52397.4,0.0615251,0.0611799,-5.20484,27,0.00525171,10,-0.000318432,-2.28359,0.894369,0.0659683,-13.3923,0.06117994,
2,0,0,1,0,52397.4,0.0600256,0.0597125,-5.17786,27,0.0051215,10,-0.000309183,-2.28585,0.858065,0.0687594,-13.9035,0.05971254,
2,0,0,1,0,52397.4,0.0585314,0.0581625,-5.16142,27,0.00499235,10,-0.000300201,-2.28723,0.728419,0.0809974,-16.294,0.0581625,
2,0,0,1,0,52397.5,0.0570305,0.0567156,-5.14116,27,0.00486325,10,-0.000291584,-2.28894,0.655074,0.0900662,-18.0335,0.0567156,
2,0,0,1,0,52397.5,0.0555297,0.05522,-5.10768,27,0.00473482,10,-0.000282046,-2.29178,0.791545,0.0745378,-14.8651,0.05522,
2,0,0,1,0,52397.5,0.0540355,0.0536786,-5.0849,27,0.00460751,10,-0.00027295,-2.29372,0.762683,0.0773585,-15.3573,0.0536786,
2,0,0,1,0,52397.5,0.052536,0.0522037,-5.06352,27,0.00448023,10,-0.000264335,-2.29555,0.677698,0.0870594,-17.1972,0.0522037,
2,0,0,1,0,52397.6,0.0510364,0.0507214,-5.03982,27,0.00435359,10,-0.000255627,-2.29758,0.620193,0.0951317,-18.6904,0.0507214,
2,0,0,1,0,52397.6,0.0495369,0.049174,-5.00811,27,0.00422762,10,-0.000246269,-2.30033,0.717022,0.0822847,-16.0858,0.049174,
2,0,0,1,0,52397.6,0.0480427,0.0476725,-4.97537,27,0.00410285,10,-0.000237188,-2.30317,0.676764,0.0871796,-16.9541,0.0476725,
2,0,0,1,0,52397.6,0.0465432,0.0461975,-4.95397,27,0.00397822,10,-0.000228861,-2.30505,0.599338,0.0984419,-19.0366,0.0461975,
2,0,0,1,0,52397.7,0.0450424,0.0447391,-4.9313,27,0.00385427,10,-0.000220622,-2.30704,0.567378,0.103987,-19.9802,0.0447391,
2,0,0,1,0,52397.7,0.0435482,0.0431997,-4.89945,27,0.00373152,10,-0.000211655,-2.30985,0.63067,0.0935513,-17.8766,0.0431997,
2,0,0,1,0,52397.7,0.0420486,0.0417096,-4.86525,27,0.00360905,10,-0.000202928,-2.31289,0.610337,0.0966678,-18.3796,0.0417096,
2,0,0,1,0,52397.7,0.0405491,0.0402489,-4.84247,27,0.00348728,10,-0.000194904,-2.31493,0.554081,0.106483,-20.1114,0.0402489,
2,0,0,1,0,52397.8,0.0390549,0.0386922,-4.81579,27,0.00336665,10,-0.000186333,-2.31733,0.531132,0.111083,-20.8318,0.0386922,
2,0,0,1,0,52397.8,0.0375541,0.0372209,-4.7799,27,0.00324632,10,-0.000177912,-2.32058,0.541674,0.108922,-20.3206,0.0372209,
2,0,0,1,0,52397.8,0.0360532,0.0357,-4.74583,27,0.00312686,10,-0.000169426,-2.32369,0.461326,0.127892,-23.7096,0.0357,
2,0,0,1,0,52397.8,0.034559,0.0342039,-4.71444,27,0.00300868,10,-0.000161252,-2.32657,0.463011,0.127427,-23.4433,0.0342039,
2,0,0,1,0,52397.9,0.0330595,0.0327169,-4.68371,27,0.00289083,10,-0.000153236,-2.32941,0.462023,0.127699,-23.3119,0.0327169,
2,0,0,1,0,52397.9,0.0315613,0.0311775,-4.64783,27,0.00277383,10,-0.000144908,-2.33275,0.499101,0.118213,-21.4236,0.0311775,
2,0,0,1,0,52397.9,0.0300618,0.0297295,-4.60377,27,0.00265776,10,-0.000136868,-2.33689,0.471247,0.1252,-22.5329,0.0297295,
2,0,0,1,0,52397.9,0.0285676,0.0282399,-4.57011,27,0.00254305,10,-0.000129059,-2.34007,0.477265,0.123621,-22.0679,0.0282399,
2,0,0,1,0,52398,0.0270667,0.0267372,-4.54193,27,0.0024287,10,-0.000121439,-2.34276,0.444578,0.13271,-23.4909,0.0267372,
2,0,0,1,0,52398,0.0255659,0.0252276,-4.51041,27,0.00231518,10,-0.000113787,-2.34578,0.455618,0.129494,-22.7585,0.0252276,
2,0,0,1,0,52398,0.0240717,0.0237575,-4.45912,27,0.00220307,10,-0.000105937,-2.35075,0.435235,0.135559,-23.6582,0.0237575,
2,0,0,1,0,52398,0.0225722,0.0222395,-4.42928,27,0.00209143,10,-9.85048e-05,-2.35367,0.440764,0.133858,-23.1664,0.0222395,
2,0,0,1,0,52398.1,0.0210726,0.0207246,-4.39933,27,0.00198065,10,-9.11746e-05,-2.35661,0.428797,0.137594,-23.61,0.0207246,
2,0,0,1,0,52398.1,0.0195784,0.0192331,-4.36688,27,0.00187111,10,-8.39888e-05,-2.35983,0.462659,0.127524,-21.7202,0.0192331,
2,0,0,1,0,52398.1,0.0180789,0.0177371,-4.32433,27,0.00176199,10,-7.67008e-05,-2.36408,0.457147,0.129061,-21.8299,0.0177371,
2,0,0,1,0,52398.1,0.0165781,0.0162038,-4.29587,27,0.00165374,10,-6.96093e-05,-2.36695,0.446518,0.132134,-22.1835,0.0162038,
2,0,0,1,0,52398.2,0.0150839,0.0147544,-4.27545,27,0.00154664,10,-6.30818e-05,-2.36902,0.474578,0.124321,-20.7032,0.01475443,
2,0,0,1,0,52398.2,0.0135844,0.0132873,-4.24156,27,0.00143979,10,-5.63588e-05,-2.37247,0.502079,0.117511,-19.4341,0.0132873,
2,0,0,1,0,52398.2,0.0120848,0.0117433,-4.20599,27,0.00133371,10,-4.93921e-05,-2.37613,0.547882,0.107688,-17.7177,0.0117433,
2,0,0,1,0,52398.2,0.0105853,0.0102503,-4.1816,27,0.00122841,10,-4.28628e-05,-2.37866,0.498897,0.118261,-19.3345,0.01025034,
2,0,0,1,0,52398.3,0.00909108,0.00874668,-4.16086,27,0.00112413,10,-3.63937e-05,-2.38082,0.598594,0.0985643,-15.9983,0.008746678,
2,0,0,1,0,52398.3,0.00759027,0.00727294,-4.13841,27,0.00102,10,-3.00984e-05,-2.38317,0.625295,0.0943554,-15.2266,0.00727294,
2,0,0,1,0,52398.3,0.00608945,0.00576654,-4.11275,27,0.000916442,10,-2.37163e-05,-2.38587,0.647736,0.0910866,-14.6313,0.005766544,
2,0,0,1,0,52398.3,0.00459524,0.00426569,-4.08979,27,0.000813929,10,-1.74458e-05,-2.3883,0.582079,0.101361,-16.1924,0.00426569,
2,0,0,1,0,52398.4,0.0030957,0.00275599,-4.08149,27,0.000711475,10,-1.12485e-05,-2.38918,1.57213,0.0375287,-5.97642,0.00275599,
2,0,0,1,0,52398.4,0.00159616,0.00118954,-4.08395,27,0.00060904,10,-4.85802e-06,-2.38892, , , ,0.00118954,
2,0,0,1,0,52398.4,0.000199195,-0.0002547,-4.05449,27,0.000513825,10,1.03268e-06,-2.39206, , , ,-0.0002547,