File: Figure_codes/Fig_3-5/rawdata_trumpetplot_data/after 10th/20221101_1-115_003_TrumpetPlot_ParaChange_from10_every3_02_CV_C01_20.csv
mode,ox/red,error,control changes,counter inc.,time/s,control/V,Ewe/V,<I>/mA,cycle number,(Q-Qo)/C,I Range,P/W,log(|I|),Tafel slope mV/dec,alpha_eff,dI/d(E-IR),E-IR/V,
2,0,0,1,0,39742.6,2.44065e-05,-0.000344411,-0.402145,21,0.0000000E+000,10,1.38503e-07,-3.39562, , , ,-0.000344411,
2,0,0,1,0,39743.9,0.00129791,0.000879301,-0.178175,21,-0.000267373,10,-1.56669e-07,-3.74915, , , ,0.000879301,
2,0,0,1,0,39745.4,0.00279612,0.0024944,-0.14218,21,-0.000487948,10,-3.54653e-07,-3.84716,-0.0172016,-3.42991,20.6601,0.0024944,
2,0,0,1,0,39746.9,0.00429431,0.00395666,-0.122004,21,-0.000669994,10,-4.8273e-07,-3.91362,-0.0241588,-2.44218,11.8324,0.00395666,
2,0,0,1,0,39748.4,0.00579242,0.00543585,-0.10706,21,-0.000825578,10,-5.81963e-07,-3.97037,-0.0271427,-2.17369,9.22652,0.00543585,
2,0,0,1,0,39749.9,0.00729061,0.00692145,-0.0952129,21,-0.000961097,10,-6.59012e-07,-4.0213,-0.0301615,-1.95613,7.34639,0.00692145,
2,0,0,1,0,39751.4,0.00878882,0.00843364,-0.0847563,21,-0.00108033,10,-7.14804e-07,-4.07183,-0.0325541,-1.81237,6.09444,0.00843364,
2,0,0,1,0,39752.9,0.010287,0.00995958,-0.0769368,21,-0.00118649,10,-7.66258e-07,-4.11387,-0.034911,-1.69001,5.09712,0.00995958,
2,0,0,1,0,39754.4,0.0117852,0.0114219,-0.0698176,21,-0.00128148,10,-7.97448e-07,-4.15604,-0.0373651,-1.57901,4.33752,0.01142188,
2,0,0,1,0,39755.9,0.0132834,0.0129669,-0.0638931,21,-0.00136663,10,-8.28494e-07,-4.19455,-0.0373284,-1.58057,3.9366,0.0129669,
2,0,0,1,0,39757.4,0.0147815,0.0144163,-0.0585038,21,-0.00144339,10,-8.43412e-07,-4.23282,-0.0387854,-1.52119,3.45696,0.0144163,
2,0,0,1,0,39758.9,0.0162797,0.0159402,-0.0533452,21,-0.0015122,10,-8.50333e-07,-4.2729,-0.0410701,-1.43657,3.02407,0.0159402,
2,0,0,1,0,39760.4,0.0177779,0.0174226,-0.0493256,21,-0.00157409,10,-8.59383e-07,-4.30693,-0.039523,-1.4928,2.85562,0.0174226,
2,0,0,1,0,39761.9,0.0192761,0.0189443,-0.0448828,21,-0.00163023,10,-8.50274e-07,-4.34792,-0.0404348,-1.45914,2.56875,0.0189443,
2,0,0,1,0,39763.4,0.0207743,0.02043,-0.0409002,21,-0.00168009,10,-8.3559e-07,-4.38827,-0.0381497,-1.54654,2.47969,0.02043,
2,0,0,1,0,39764.9,0.0222725,0.0219347,-0.0369749,21,-0.0017242,10,-8.11033e-07,-4.43209,-0.0377403,-1.56332,2.29619,0.0219347,
2,0,0,1,0,39766.4,0.0237707,0.0234426,-0.0340061,21,-0.00176292,10,-7.97193e-07,-4.46844,-0.0360282,-1.63761,2.16856,0.02344263,
2,0,0,1,0,39767.9,0.0252689,0.0249558,-0.030938,21,-0.00179731,10,-7.72085e-07,-4.50951,-0.0334272,-1.76503,2.1141,0.0249558,
2,0,0,1,0,39769.4,0.0267671,0.0264351,-0.0276454,21,-0.00182663,10,-7.30809e-07,-4.55838,-0.0287631,-2.05124,2.23142,0.0264351,
2,0,0,1,0,39770.9,0.0282653,0.0279674,-0.0249944,21,-0.001851,10,-6.99029e-07,-4.60216,-0.0266407,-2.21466,2.12181,0.0279674,
2,0,0,1,0,39772.4,0.0297635,0.0294244,-0.0221568,21,-0.00187128,10,-6.5195e-07,-4.65449,-0.029313,-2.01276,1.6962,0.0294244,
2,0,0,1,0,39773.9,0.0312617,0.0309259,-0.0199064,21,-0.00188735,10,-6.15625e-07,-4.70101,-0.0237153,-2.48784,1.84431,0.0309259,
2,0,0,1,0,39775.4,0.0327599,0.0323734,-0.0165461,21,-0.00189935,10,-5.35655e-07,-4.7813,-0.0214545,-2.75001,1.76472,0.0323734,
2,0,0,1,0,39776.9,0.0342581,0.0339068,-0.0136131,21,-0.00190718,10,-4.61578e-07,-4.86604,-0.0198943,-2.96568,1.60187,0.0339068,
2,0,0,1,0,39778.4,0.0357563,0.0354231,-0.0113808,21,-0.0019111,10,-4.03144e-07,-4.94383,-0.016276,-3.62497,1.62518,0.0354231,
2,0,0,1,0,39779.9,0.0372544,0.036879,-0.00910821,21,-0.00191133,10,-3.35902e-07,-5.04057,-0.0116046,-5.0842,1.66528,0.036879,
2,0,0,1,0,39781.4,0.0387526,0.038405,-0.00640662,21,-0.00190803,10,-2.46046e-07,-5.19337,-0.0086274,-6.83868,1.49143,0.038405,
2,1,0,1,0,39782.9,0.0402508,0.0399107,-0.00457431,21,-0.00190087,10,-1.82564e-07,-5.33967,-0.00539771,-10.9306,1.51557,0.0399107,
2,0,0,1,0,39784.4,0.041749,0.041391,-0.00209601,21,-0.00189022,10,-8.67561e-08,-5.67861,-0.00455808,-12.944,1.43262,0.041391,
2,0,0,1,0,39785.9,0.0432472,0.0429329,0.000303295,21,-0.00187606,10,1.30213e-08,-6.51813,-0.0592084,-0.996479,1.41061,0.0429329,
2,0,0,1,0,39787.4,0.0447454,0.0444164,0.0022061,21,-0.00185915,10,9.79872e-08,-5.65637,0.00369297,15.9763,1.14121,0.0444164,
2,0,0,1,0,39788.9,0.0462435,0.0458829,0.00389726,21,-0.00183907,10,1.78817e-07,-5.40924,0.00547589,10.7745,1.40987,0.0458829,
2,0,0,1,0,39790.4,0.0477417,0.0474183,0.00608969,21,-0.00181601,10,2.88763e-07,-5.21541,0.00936922,6.29721,1.35696,0.0474183,
2,0,0,1,0,39791.9,0.0492399,0.0488966,0.00826618,21,-0.00178943,10,4.04188e-07,-5.0827,0.0132285,4.46005,1.35625,0.0488966,
2,1,0,1,0,39793.4,0.0507381,0.0504077,0.0097423,21,-0.00176037,10,4.91086e-07,-5.01134,0.0208308,2.83235,1.10151,0.0504077,
2,1,0,1,0,39794.8,0.0522363,0.0518732,0.0113389,21,-0.00172846,10,5.88182e-07,-4.94543,0.0171191,3.44643,1.53217,0.05187317,
2,1,0,1,0,39796.3,0.0537345,0.0533895,0.01413,21,-0.00169324,10,7.54394e-07,-4.84986,0.0226645,2.6032,1.36403,0.0533895,
2,1,0,1,0,39797.8,0.0552327,0.0549335,0.0158241,21,-0.00165516,10,8.69271e-07,-4.80068,0.0317008,1.86115,1.10674,0.0549335,
2,1,0,1,0,39799.3,0.0567309,0.056416,0.0168402,21,-0.00161443,10,9.50058e-07,-4.77365,0.0311042,1.89685,1.28589,0.056416,
2,1,0,1,0,39800.8,0.0582291,0.0579154,0.0193159,21,-0.00157107,10,1.11869e-06,-4.71409,0.0347327,1.69869,1.26218,0.05791539,
2,1,0,1,0,39802.3,0.0597273,0.0593724,0.0206852,21,-0.0015244,10,1.22813e-06,-4.68434,0.043258,1.36391,1.12593,0.0593724,
2,1,0,1,0,39803.8,0.0612255,0.0608983,0.0229152,21,-0.00147516,10,1.3955e-06,-4.63988,0.0547368,1.07789,0.953518,0.0608983,
2,1,0,1,0,39805.3,0.0627237,0.0623861,0.0246149,21,-0.00142329,10,1.53563e-06,-4.6088,0.050791,1.16162,1.11248,0.0623861,
2,1,0,1,0,39806.8,0.0642219,0.0639046,0.0260513,21,-0.00136945,10,1.66479e-06,-4.58417,0.0490789,1.20215,1.24386,0.0639046,
2,1,0,1,0,39808.3,0.0657201,0.0654199,0.0279947,21,-0.00131225,10,1.83141e-06,-4.55292,0.0523269,1.12753,1.225,0.0654199,
2,1,0,1,0,39809.8,0.0672183,0.0668557,0.0296222,21,-0.00125238,10,1.98041e-06,-4.52838,0.0550375,1.072,1.24017,0.0668557,
2,1,0,1,0,39811.3,0.0687164,0.0684027,0.0317665,21,-0.00118983,10,2.17292e-06,-4.49803,0.0713906,0.826439,1.00369,0.0684027,
2,1,0,1,0,39812.8,0.0702146,0.0698746,0.0328706,21,-0.00112556,10,2.29682e-06,-4.48319,0.0839611,0.702707,0.900089,0.0698746,
2,1,0,1,0,39814.3,0.0717128,0.07139,0.0340701,21,-0.00105874,10,2.43227e-06,-4.46763,0.0819675,0.719797,0.953928,0.07139,
2,1,0,1,0,39815.8,0.073211,0.0728608,0.0355969,21,-0.000989974,10,2.59362e-06,-4.44859,0.0821948,0.717807,1.00519,0.07286077,
2,1,0,1,0,39817.3,0.0747092,0.0743708,0.0367462,21,-0.000919058,10,2.73284e-06,-4.43479,0.0891468,0.66183,0.956494,0.0743708,
2,1,0,1,0,39818.8,0.0762074,0.0758681,0.0380564,21,-0.000846419,10,2.88726e-06,-4.41957,0.0908433,0.64947,0.974318,0.0758681,
2,1,0,1,0,39820.3,0.0777055,0.0773377,0.0397547,21,-0.000771575,10,3.07454e-06,-4.40061,0.0734144,0.803657,1.23785,0.0773377,
2,1,0,1,0,39821.8,0.0792037,0.0788955,0.0421157,21,-0.000694002,10,3.32274e-06,-4.37556,0.0996794,0.591898,0.949814,0.0788955,
2,1,0,1,0,39823.3,0.0807019,0.0803737,0.0429463,21,-0.000614043,10,3.45176e-06,-4.36707,0.112512,0.524388,0.873703,0.08037369,
2,1,0,1,0,39824.8,0.0822001,0.0818497,0.0441292,21,-0.00053228,10,3.61197e-06,-4.35527,0.100474,0.587215,1.0134,0.0818497,
2,1,0,1,0,39826.3,0.0836983,0.0833757,0.0458789,21,-0.000448421,10,3.82519e-06,-4.33839,0.0904882,0.652018,1.16796,0.08337573,
2,1,0,1,0,39827.8,0.0851965,0.0848656,0.0474837,21,-0.000361828,10,4.02973e-06,-4.32346,0.103888,0.567917,1.05566,0.08486557,
2,1,0,1,0,39829.3,0.0866947,0.0863947,0.0489132,21,-0.00027251,10,4.22584e-06,-4.31057,0.115476,0.510927,0.986294,0.0863947,
2,1,0,1,0,39830.8,0.0881929,0.0879111,0.0509717,21,-0.000180255,10,4.48098e-06,-4.29267,0.0903358,0.653118,1.2998,0.0879111,
2,1,0,1,0,39832.3,0.0896911,0.0893469,0.0532169,21,-8.57101e-05,10,4.75477e-06,-4.27395,0.108373,0.544415,1.13507,0.0893469,
2,1,0,1,0,39833.8,0.0911893,0.0908569,0.0551654,21,1.16147e-05,10,5.01216e-06,-4.25833,0.0960039,0.614558,1.31325,0.09085694,
2,1,0,1,0,39835.3,0.0926875,0.0923542,0.0568921,21,0.000112289,10,5.25423e-06,-4.24495,0.0923443,0.638913,1.40663,0.0923542,
2,1,0,1,0,39836.8,0.0941857,0.0938791,0.0590481,21,0.000215748,10,5.54339e-06,-4.22879,0.102412,0.576102,1.31985,0.0938791,
2,1,0,1,0,39838.3,0.0956839,0.0953138,0.0608992,21,0.000321767,10,5.80453e-06,-4.21539,0.101212,0.582935,1.38726,0.09531381,
2,1,0,1,0,39839.8,0.0971821,0.096844,0.0628466,21,0.000431581,10,6.08631e-06,-4.20172,0.0830596,0.710334,1.73942,0.096844,
2,1,0,1,0,39841.3,0.0986803,0.0983721,0.0650827,21,0.000544882,10,6.40232e-06,-4.18653,0.0995759,0.592513,1.51251,0.0983721,
2,1,0,1,0,39842.8,0.100178,0.0998873,0.0677494,21,0.000661359,10,6.7673e-06,-4.16909,0.112831,0.522906,1.37544,0.0998873,
2,1,0,1,0,39844.3,0.101677,0.101339,0.0690625,21,0.000780753,10,6.99872e-06,-4.16076,0.120494,0.489652,1.32808,0.101339,
2,1,0,1,0,39845.8,0.103175,0.102819,0.0718772,21,0.000903472,10,7.39037e-06,-4.14341,0.123782,0.476644,1.32306,0.102819,
2,1,0,1,0,39847.3,0.104673,0.104327,0.074274,21,0.00102936,10,7.7488e-06,-4.12916,0.133837,0.440833,1.26311,0.104327,
2,1,0,1,0,39848.8,0.106171,0.105857,0.0755095,21,0.00115834,10,7.99324e-06,-4.122,0.128845,0.457914,1.34258,0.1058574,
2,1,0,1,0,39850.3,0.107669,0.107345,0.0766487,21,0.00128993,10,8.22787e-06,-4.11549,0.132705,0.444594,1.34615,0.107345,
2,1,0,1,0,39851.8,0.109167,0.10885,0.0795248,21,0.00142419,10,8.65626e-06,-4.0995,0.151281,0.390003,1.20832,0.10885,
2,1,0,1,0,39853.3,0.110666,0.110338,0.0811231,21,0.00156178,10,8.95092e-06,-4.09086,0.139206,0.423833,1.34505,0.110338,
2,1,0,1,0,39854.8,0.112164,0.11183,0.083131,21,0.00170198,10,9.2965e-06,-4.08024,0.221911,0.265872,0.856701,0.11183,
2,1,0,1,0,39856.3,0.113662,0.113341,0.0846665,21,0.00184461,10,9.59615e-06,-4.07229,0.18865,0.312748,1.03271,0.113341,
2,1,0,1,0,39857.8,0.11516,0.114807,0.0861317,21,0.00198925,10,9.88854e-06,-4.06484,0.183757,0.321076,1.07922,0.1148072,
2,1,0,1,0,39859.3,0.116658,0.116294,0.0876638,21,0.00213682,10,1.01948e-05,-4.05718,0.210471,0.280323,0.955574,0.116294,
2,1,0,1,0,39860.8,0.118157,0.117803,0.0891151,21,0.00228732,10,1.0498e-05,-4.05005,0.206758,0.285357,0.990464,0.117803,
2,1,0,1,0,39862.3,0.119655,0.119333,0.0908191,21,0.00243924,10,1.08377e-05,-4.04182,0.269257,0.219121,0.778977,0.119333,
2,1,0,1,0,39863.8,0.121153,0.120854,0.0916244,21,0.00259274,10,1.10731e-05,-4.03799,0.224078,0.263301,0.947044,0.120854,
2,1,0,1,0,39865.3,0.122651,0.122308,0.0937735,21,0.00274902,10,1.14692e-05,-4.02792,0.159305,0.370358,1.3501,0.122308,
2,1,0,1,0,39866.8,0.124149,0.123791,0.0952865,21,0.00290772,10,1.17956e-05,-4.02097,0.217478,0.271292,1.0042,0.123791,
2,1,0,1,0,39868.3,0.125648,0.125293,0.0966066,21,0.00306889,10,1.21041e-05,-4.01499,0.330468,0.178535,0.670976,0.125293,
2,1,0,1,0,39869.8,0.127146,0.12682,0.0964271,21,0.00323104,10,1.22288e-05,-4.0158,0.354844,0.16627,0.63153,0.12682,
2,1,0,1,0,39871.3,0.128644,0.128338,0.0984226,21,0.00339473,10,1.26314e-05,-4.00691,0.809605,0.072875,0.277821,0.1283381,
2,1,0,1,0,39872.8,0.130142,0.129774,0.0986052,21,0.00355936,10,1.27964e-05,-4.0061,6.59531,0.00894575,0.0342125,0.129774,
2,1,0,1,0,39874.3,0.13164,0.1313,0.0982888,21,0.0037243,10,1.29053e-05,-4.0075,-0.617995,-0.09547,-0.361826,0.1312997,
2,1,0,1,0,39875.8,0.133139,0.132801,0.097566,21,0.00388826,10,1.29569e-05,-4.0107,-0.315171,-0.1872,-0.711248,0.132801,
2,1,0,1,0,39877.3,0.134637,0.134324,0.0957386,21,0.00404987,10,1.286e-05,-4.01891,-0.188108,-0.313649,-1.1686,0.134324,
2,1,0,1,0,39878.7,0.136135,0.135778,0.0937757,21,0.00420934,10,1.27327e-05,-4.02791,-0.146447,-0.402876,-1.47491,0.135778,
2,1,0,1,0,39880.2,0.137633,0.137308,0.0912646,21,0.00436521,10,1.25314e-05,-4.0397,-0.104585,-0.564135,-1.99571,0.137308,
2,1,0,1,0,39881.7,0.139131,0.1388,0.0885504,21,0.00451685,10,1.22908e-05,-4.05281,-0.0903652,-0.652906,-2.22934,0.1388,
2,1,0,1,0,39883.2,0.14063,0.140267,0.0848166,21,0.00466281,10,1.18969e-05,-4.07152,-0.0761719,-0.774564,-2.54366,0.140267,
2,1,0,1,0,39884.7,0.142128,0.141826,0.0807359,21,0.00480319,10,1.14505e-05,-4.09293,-0.0731986,-0.806026,-2.53335,0.141826,
2,1,0,1,0,39886.2,0.143626,0.143278,0.0772069,21,0.00493816,10,1.10621e-05,-4.11234,-0.0695301,-0.848554,-2.54161,0.143278,
2,1,0,1,0,39887.7,0.145124,0.144815,0.0727282,21,0.00506672,10,1.05321e-05,-4.1383,-0.0658718,-0.89568,-2.57495,0.144815,
2,1,0,1,0,39889.2,0.146622,0.146289,0.0692674,21,0.00518929,10,1.0133e-05,-4.15947,-0.0730899,-0.807225,-2.19406,0.146289,
2,1,0,1,0,39890.7,0.14812,0.147794,0.0663315,21,0.00530707,10,9.80342e-06,-4.17828,-0.0781344,-0.75511,-1.94985,0.147794,
2,1,0,1,0,39892.2,0.149619,0.149269,0.0629361,21,0.00541998,10,9.39444e-06,-4.2011,-0.087185,-0.676722,-1.6861,0.149269,
2,1,0,1,0,39893.7,0.151117,0.150752,0.0610619,21,0.00552872,10,9.20519e-06,-4.21423,-0.0871171,-0.677249,-1.60681,0.150752,
2,1,0,1,0,39895.2,0.152615,0.152289,0.0583016,21,0.005634,10,8.87872e-06,-4.23432,-0.109381,-0.539401,-1.24093,0.152289,
2,1,0,1,0,39896.7,0.154113,0.153826,0.0575039,21,0.00573627,10,8.8456e-06,-4.2403,-0.147377,-0.400334,-0.895088,0.153826,
2,1,0,1,0,39898.2,0.155611,0.155325,0.0561515,21,0.00583678,10,8.72175e-06,-4.25064,-0.160226,-0.368231,-0.807815,0.155325,
2,1,0,1,0,39899.7,0.15711,0.156798,0.0544203,21,0.00593541,10,8.533e-06,-4.26424,-0.207734,-0.284017,-0.610412,0.156798,
2,1,0,1,0,39901.2,0.158608,0.158274,0.0542423,21,0.00603255,10,8.58517e-06,-4.26566,-0.187322,-0.314966,-0.664418,0.158274,
2,1,0,1,0,39902.7,0.160106,0.159808,0.0533709,21,0.0061282,10,8.52908e-06,-4.2727,-0.428716,-0.13762,-0.288402,0.159808,
2,1,0,1,0,39904.2,0.161604,0.161266,0.052872,21,0.0062229,10,8.52646e-06,-4.27677,-0.327002,-0.180427,-0.369992,0.161266,
2,1,0,1,0,39905.7,0.163102,0.16279,0.0521342,21,0.00631709,10,8.4869e-06,-4.28288,-0.310708,-0.189889,-0.385861,0.16279,
2,1,0,1,0,39907.2,0.164601,0.164279,0.0515673,21,0.00641015,10,8.47145e-06,-4.28763,-0.315729,-0.186869,-0.377573,0.164279,
2,1,0,1,0,39908.7,0.166099,0.165804,0.0512411,21,0.00650204,10,8.496e-06,-4.29038,-0.448828,-0.131453,-0.263749,0.1658043,
2,1,0,1,0,39910.2,0.167597,0.167237,0.050772,21,0.00659357,10,8.49095e-06,-4.29438,-3.43913,-0.0171555,-0.0342266,0.167237,
2,1,0,1,0,39911.7,0.169095,0.168752,0.0512367,21,0.00668511,10,8.64631e-06,-4.29042,-11.9089,-0.00495427,-0.00987787,0.168752,
2,1,0,1,0,39913.2,0.170593,0.170233,0.0506626,21,0.00677649,10,8.62443e-06,-4.29531,-2.64171,-0.022334,-0.0445086,0.170233,
2,1,0,1,0,39914.7,0.172091,0.171778,0.0510442,21,0.0068678,10,8.76825e-06,-4.29205,-2.67275,-0.0220747,-0.0440605,0.171778,
2,1,0,1,0,39916.2,0.17359,0.173266,0.0512258,21,0.00695904,10,8.87571e-06,-4.29051,2.94606,0.0200267,0.0395122,0.173266,
2,1,0,1,0,39917.7,0.175088,0.174754,0.0509214,21,0.00705044,10,8.89873e-06,-4.2931,0.647771,0.0910816,0.181466,0.174754,
2,1,0,1,0,39919.2,0.176586,0.176268,0.0509684,21,0.00714146,10,8.98413e-06,-4.2927,-2.06407,-0.0285843,-0.0566978,0.176268,
2,1,0,1,0,39920.7,0.178084,0.177738,0.0508303,21,0.00723291,10,9.03448e-06,-4.29388,-3.32296,-0.0177553,-0.0351042,0.177738,
2,1,0,1,0,39922.2,0.179582,0.179303,0.0507902,21,0.00732388,10,9.10685e-06,-4.29422,-0.835372,-0.0706272,-0.140711,0.179303,
2,1,0,1,0,39923.7,0.181081,0.180753,0.0505279,21,0.00741465,10,9.13306e-06,-4.29647,-1.48167,-0.0398199,-0.0789315,0.180753,
2,1,0,1,0,39925.2,0.182579,0.182254,0.0504576,21,0.0075055,10,9.19612e-06,-4.29707,2.85678,0.0206526,0.0410193,0.182254,
2,1,0,1,0,39926.7,0.184077,0.183747,0.0510275,21,0.00759654,10,9.37617e-06,-4.2922,0.947583,0.0622637,0.12391,0.183747,
2,1,0,1,0,39928.2,0.185575,0.185262,0.0511822,21,0.00768761,10,9.4821e-06,-4.29088,1.52769,0.0386204,0.0769027,0.185262,
2,1,0,1,0,39929.7,0.187073,0.18673,0.0513088,21,0.00777893,10,9.58091e-06,-4.28981,0.89362,0.0660236,0.132132,0.18673,
2,1,0,1,0,39931.2,0.188572,0.188222,0.0516228,21,0.00787026,10,9.71656e-06,-4.28716,-10.2007,-0.00578394,-0.0115452,0.188222,
2,1,0,1,0,39932.7,0.19007,0.189731,0.0515735,21,0.00796164,10,9.78511e-06,-4.28757,2.96743,0.0198825,0.0399025,0.1897314,
2,1,0,1,0,39934.2,0.191568,0.191195,0.0516216,21,0.00805285,10,9.86978e-06,-4.28717,1.8669,0.0316032,0.0633809,0.191195,
2,1,0,1,0,39935.7,0.193066,0.192756,0.0514914,21,0.00814455,10,9.92525e-06,-4.28827,0.827303,0.0713161,0.142768,0.1927557,
2,1,0,1,0,39937.2,0.194564,0.19423,0.0506849,21,0.00823631,10,9.8445e-06,-4.29512,-5.02369,-0.0117444,-0.0237484,0.19423,
2,1,0,1,0,39938.7,0.196063,0.195707,0.0511059,21,0.00832759,10,1.00018e-05,-4.29153,2.26316,0.0260697,0.0527924,0.1957067,
2,1,0,1,0,39940.2,0.197561,0.197232,0.0513829,21,0.00841908,10,1.01343e-05,-4.28918,0.487534,0.121017,0.243185,0.197232,
2,1,0,1,0,39941.7,0.199059,0.198724,0.0522474,21,0.00851112,10,1.03828e-05,-4.28194,2.01737,0.0292459,0.0590338,0.198724,
2,1,0,1,0,39943.2,0.200557,0.200186,0.0524342,21,0.00860349,10,1.04966e-05,-4.28039,1.3037,0.0452558,0.092102,0.200186,
2,1,0,1,0,39944.7,0.202055,0.201747,0.0523189,21,0.00869601,10,1.05552e-05,-4.28134,0.78576,0.0750865,0.15312,0.201747,
2,1,0,1,0,39946.2,0.203554,0.203261,0.0525523,21,0.00878889,10,1.06818e-05,-4.27941,1.78898,0.0329796,0.0673851,0.203261,
2,1,0,1,0,39947.7,0.205052,0.204722,0.0525568,21,0.00888197,10,1.07595e-05,-4.27937,1.33008,0.0443582,0.0921024,0.204722,
2,1,0,1,0,39949.2,0.20655,0.206213,0.052614,21,0.0089751,10,1.08497e-05,-4.2789,1.32422,0.0445544,0.0919897,0.206213,
2,1,0,1,0,39950.7,0.208048,0.207717,0.0530777,21,0.00906883,10,1.10251e-05,-4.27509,-4.47076,-0.0131968,-0.0273395,0.207717,
2,1,0,1,0,39952.2,0.209546,0.209244,0.0527158,21,0.00916221,10,1.10304e-05,-4.27806,1.48881,0.0396289,0.08196,0.209244,
2,1,0,1,0,39953.7,0.211044,0.210706,0.0531742,21,0.0092555,10,1.12041e-05,-4.2743,0.714261,0.0826028,0.171026,0.210706,
2,1,0,1,0,39955.2,0.212543,0.212216,0.0535519,21,0.00934955,10,1.13646e-05,-4.27123,0.896408,0.0658182,0.136972,0.212216,
2,1,0,1,0,39956.7,0.214041,0.213705,0.0536877,21,0.00944386,10,1.14733e-05,-4.27013,12.7721,0.00461944,0.00964107,0.213705,
2,1,0,1,0,39958.2,0.215539,0.215228,0.0537784,21,0.00953837,10,1.15746e-05,-4.26939,5.16309,0.0114273,0.0238433,0.215228,
2,1,0,1,0,39959.7,0.217037,0.216687,0.0537785,21,0.00963274,10,1.16531e-05,-4.26939,0.475512,0.124077,0.260601,0.216687,
2,1,0,1,0,39961.1,0.218535,0.218189,0.0541198,21,0.00972758,10,1.18084e-05,-4.26664,0.639779,0.0922194,0.193959,0.218189,
2,1,0,1,0,39962.6,0.220034,0.219766,0.0545647,21,0.00982298,10,1.19915e-05,-4.26309,1.37622,0.0428711,0.0908027,0.219766,
2,1,0,1,0,39964.1,0.221532,0.221236,0.0547295,21,0.00991856,10,1.21081e-05,-4.26178,0.595905,0.0990091,0.21056,0.221236,
2,1,0,1,0,39965.6,0.22303,0.222717,0.05475,21,0.0100145,10,1.21938e-05,-4.26162,1.40592,0.0419655,0.0895974,0.222717,
2,1,0,1,0,39967.1,0.224528,0.224234,0.0552123,21,0.0101108,10,1.23805e-05,-4.25796,2.17481,0.0271288,0.058139,0.2242339,
2,1,0,1,0,39968.6,0.226026,0.225704,0.0553399,21,0.0102073,10,1.24904e-05,-4.25696,0.821268,0.0718402,0.154733,0.225704,
2,1,0,1,0,39970.1,0.227525,0.227226,0.0551943,21,0.0103041,10,1.25416e-05,-4.25811,0.926179,0.0637026,0.137135,0.227226,
2,1,0,1,0,39971.6,0.229023,0.228715,0.0550267,21,0.0104009,10,1.25854e-05,-4.25943,1.01121,0.0583459,0.126195,0.228715,
2,1,0,1,0,39973.1,0.230521,0.230188,0.0553096,21,0.0104979,10,1.27316e-05,-4.2572,0.866921,0.0680569,0.148744,0.230188,
2,1,0,1,0,39974.6,0.232019,0.231693,0.0557979,21,0.0105955,10,1.2928e-05,-4.25338,1.0245,0.0575891,0.126483,0.231693,
2,1,0,1,0,39976.1,0.233517,0.233212,0.0564344,21,0.0106938,10,1.31612e-05,-4.24846,1.2287,0.0480182,0.105462,0.233212,
2,1,0,1,0,39977.6,0.235016,0.234705,0.056593,21,0.0107924,10,1.32827e-05,-4.24724,0.770831,0.0765408,0.168939,0.234705,
2,1,0,1,0,39979.1,0.236514,0.236209,0.0570219,21,0.0108911,10,1.34691e-05,-4.24396,0.910386,0.0648077,0.142922,0.236209,
2,1,0,1,0,39980.6,0.238012,0.237693,0.0576515,21,0.0109906,10,1.37034e-05,-4.23919,0.913694,0.0645731,0.143613,0.237693,
2,1,0,1,0,39982.1,0.23951,0.239196,0.0572074,21,0.01109,10,1.36838e-05,-4.24255,0.935316,0.0630803,0.141152,0.239196,
2,1,0,1,0,39983.6,0.241008,0.240663,0.0575916,21,0.0111895,10,1.38601e-05,-4.23964,0.671897,0.0878111,0.197335,0.240663,
2,1,0,1,0,39985.1,0.242506,0.242172,0.0576876,21,0.0112892,10,1.39703e-05,-4.23892,0.749267,0.0787436,0.177404,0.242172,
2,1,0,1,0,39986.6,0.244005,0.243677,0.0573065,21,0.0113895,10,1.39643e-05,-4.2418,0.502969,0.117304,0.264387,0.243677,
2,1,0,1,0,39988.1,0.245503,0.245195,0.0585724,21,0.0114901,10,1.43616e-05,-4.23231,1.65012,0.0357551,0.0812208,0.245195,
2,1,0,1,0,39989.6,0.247001,0.246656,0.0584125,21,0.0115912,10,1.44078e-05,-4.23349,0.492647,0.119761,0.272231,0.246656,
2,1,0,1,0,39991.1,0.248499,0.248172,0.0585429,21,0.0116922,10,1.45287e-05,-4.23253,25.1946,0.00234177,0.005353,0.248172,
2,1,0,1,0,39992.6,0.249997,0.249639,0.0586435,21,0.0117936,10,1.46397e-05,-4.23178,-4.70622,-0.0125366,-0.028606,0.249639,
2,1,0,1,0,39994.1,0.251496,0.251149,0.058438,21,0.0118952,10,1.46767e-05,-4.2333,-2.76728,-0.0213206,-0.0487657,0.251149,
2,1,0,1,0,39995.6,0.252994,0.252692,0.0589131,21,0.0119966,10,1.48869e-05,-4.22979,-1.73935,-0.0339207,-0.0774444,0.252692,
2,1,0,1,0,39997.1,0.254492,0.254135,0.0587044,21,0.0120986,10,1.49188e-05,-4.23133,0.995915,0.059242,0.13665,0.254135,
2,1,0,1,0,39998.6,0.25599,0.255655,0.058891,21,0.0122002,10,1.50558e-05,-4.22995,1.72695,0.0341642,0.0797174,0.255655,
2,1,0,1,0,40000.1,0.257488,0.257162,0.0594306,21,0.0123023,10,1.52833e-05,-4.22599,2.65465,0.0222252,0.0513942,0.257162,
2,1,0,1,0,40001.6,0.258987,0.258628,0.0596911,21,0.012405,10,1.54378e-05,-4.22409,0.581613,0.101442,0.235168,0.258628,
2,1,0,1,0,40003.1,0.260485,0.260186,0.0599289,21,0.0125078,10,1.55927e-05,-4.22236,1.18711,0.0497004,0.11552,0.260186,
2,1,0,1,0,40004.6,0.261983,0.261664,0.0595129,21,0.0126105,10,1.55724e-05,-4.22539,0.361375,0.163265,0.383275,0.261664,
2,1,0,1,0,40006.1,0.263481,0.263176,0.0604403,21,0.0127139,10,1.59065e-05,-4.21867,0.509977,0.115691,0.271481,0.263176,
2,1,0,1,0,40007.6,0.264979,0.264629,0.0604448,21,0.0128182,10,1.59954e-05,-4.21864,1.87195,0.0315179,0.0740831,0.264629,
2,1,0,1,0,40009.1,0.266477,0.266134,0.0605756,21,0.0129223,10,1.61212e-05,-4.2177,-2.98151,-0.0197886,-0.0470112,0.266134,
2,1,0,1,0,40010.6,0.267976,0.267631,0.060721,21,0.0130263,10,1.62508e-05,-4.21666,12.5579,0.00469825,0.0111327,0.267631,
2,1,0,1,0,40012.1,0.269474,0.269141,0.0608293,21,0.0131306,10,1.63717e-05,-4.21589,0.672598,0.0877196,0.208318,0.269141,
2,1,0,1,0,40013.6,0.270972,0.270613,0.0614018,21,0.0132351,10,1.66161e-05,-4.21182,1.48456,0.0397424,0.0946992,0.270613,
2,1,0,1,0,40015.1,0.27247,0.272139,0.0613163,21,0.01334,10,1.66865e-05,-4.21242,2.81779,0.0209384,0.0499407,0.272139,
2,1,0,1,0,40016.6,0.273968,0.273685,0.0609631,21,0.0134452,10,1.66847e-05,-4.21493,0.658272,0.0896285,0.215491,0.273685,
2,1,0,1,0,40018.1,0.275467,0.27518,0.0615713,21,0.0135503,10,1.69432e-05,-4.21062,2.14518,0.0275035,0.0662918,0.27518,
2,1,0,1,0,40019.6,0.276965,0.276661,0.0616434,21,0.013656,10,1.70543e-05,-4.21011,0.525153,0.112348,0.271613,0.276661,
2,1,0,1,0,40021.1,0.278463,0.278153,0.0619406,21,0.013762,10,1.7229e-05,-4.20802,9.71574,0.00607262,0.0146744,0.2781533,
2,1,0,1,0,40022.6,0.279961,0.279659,0.0622095,21,0.0138684,10,1.73975e-05,-4.20614,1.22809,0.048042,0.116615,0.279659,
2,1,0,1,0,40024.1,0.281459,0.281131,0.0627077,21,0.0139746,10,1.76291e-05,-4.20268,2.05317,0.028736,0.0702789,0.281131,
2,1,0,1,0,40025.6,0.282958,0.282611,0.0627214,21,0.0140812,10,1.77258e-05,-4.20258,1.36398,0.0432556,0.105215,0.282611,
2,1,0,1,0,40027.1,0.284456,0.284144,0.0625953,21,0.014188,10,1.77861e-05,-4.20346,398.249,0.000148148,0.000361058,0.284144,
2,1,0,1,0,40028.6,0.285954,0.285621,0.0625174,21,0.0142945,10,1.78563e-05,-4.204,1.35036,0.0436921,0.106597,0.285621,
2,1,0,1,0,40030.1,0.287452,0.287149,0.0625551,21,0.0144008,10,1.79626e-05,-4.20374,1.22186,0.0482869,0.11817,0.287149,
2,1,0,1,0,40031.6,0.28895,0.288634,0.0628399,21,0.0145076,10,1.81377e-05,-4.20176,0.487318,0.121071,0.297353,0.288634,
2,1,0,1,0,40033.1,0.290448,0.290137,0.0631017,21,0.0146148,10,1.83081e-05,-4.19996,1.45413,0.040574,0.0998597,0.290137,
2,1,0,1,0,40034.6,0.291947,0.291642,0.0630741,21,0.0147222,10,1.8395e-05,-4.20015,1.17691,0.0501312,0.123831,0.291642,
2,1,0,1,0,40036.1,0.293445,0.293121,0.063272,21,0.0148297,10,1.85464e-05,-4.19879,0.674635,0.0874546,0.216499,0.293121,
2,1,0,1,0,40037.6,0.294943,0.294632,0.063167,21,0.0149374,10,1.8611e-05,-4.19951,0.803979,0.073385,0.181512,0.294632,
2,1,0,1,0,40039.1,0.296441,0.296118,0.0636908,21,0.0150455,10,1.886e-05,-4.19592,0.605645,0.0974169,0.242815,0.296118,
2,1,0,1,0,40040.6,0.297939,0.297646,0.0641011,21,0.015154,10,1.90794e-05,-4.19313,3.26631,0.0180632,0.0448653,0.297646,
2,1,0,1,0,40042.1,0.299438,0.299095,0.0642142,21,0.0152626,10,1.92062e-05,-4.19237,-0.00418157,-14.1095,-22.7059,0.299095,
2,1,0,1,0,40042.9,0.299737,0.299463,0.0323624,21,0.0153114,10,9.69134e-06,-4.48996,0.00222617,26.5029,37.0602,0.2994633,
2,1,0,1,0,40044.4,0.298239,0.29794,0.0190568,21,0.0153341,10,5.67778e-06,-4.71995,0.00544232,10.841,13.6745,0.29794,
2,1,0,1,0,40045.9,0.296741,0.296463,0.0144766,21,0.0153463,10,4.29177e-06,-4.83933,0.0128773,4.58172,2.68878,0.296463,
2,1,0,1,0,40047.4,0.295243,0.294919,0.0110393,21,0.0153526,10,3.2557e-06,-4.95706,0.0130937,4.506,2.01924,0.294919,
2,1,0,1,0,40048.9,0.293745,0.293413,0.00842689,21,0.0153548,10,2.47256e-06,-5.07433,0.0129086,4.57059,1.56936,0.293413,
2,1,0,1,0,40050.4,0.292246,0.291908,0.00643832,21,0.0153536,10,1.87939e-06,-5.19123,0.0120528,4.89512,1.30037,0.291908,
2,1,0,1,0,40051.9,0.290748,0.290423,0.00455093,21,0.0153493,10,1.3217e-06,-5.3419,0.00912892,6.46298,1.12472,0.2904233,
2,1,0,1,0,40053.4,0.28925,0.288929,0.0029218,21,0.0153424,10,8.44193e-07,-5.53435,0.00563119,10.4774,1.05995,0.288929,
2,0,0,1,0,40054.9,0.287752,0.287438,0.00158845,21,0.0153332,10,4.5658e-07,-5.79903,0.00380102,15.5221,1.01481,0.287438,
2,1,0,1,0,40056.4,0.286254,0.285925,-1.77154e-05,21,0.0153219,10,-5.06528e-09,-7.75165,0.0330463,1.78538,0.939193,0.285925,
2,1,0,1,0,40057.9,0.284755,0.284456,-0.00121909,21,0.0153085,10,-3.46777e-07,-5.91397,-0.006109,-9.65789,0.863334,0.284456,
2,1,0,1,0,40059.4,0.283257,0.282972,-0.00239858,21,0.015293,10,-6.78729e-07,-5.62005,-0.00421167,-14.0087,0.903958,0.282972,
2,0,0,1,0,40060.9,0.281759,0.281442,-0.00366708,21,0.0152757,10,-1.03207e-06,-5.43568,-0.0111909,-5.27215,0.646729,0.281442,
2,1,0,1,0,40062.4,0.280261,0.279932,-0.00431418,21,0.0152567,10,-1.20768e-06,-5.3651,-0.0156585,-3.76792,0.63289,0.279932,
2,1,0,1,0,40063.9,0.278763,0.278468,-0.00578329,21,0.0152365,10,-1.61046e-06,-5.23783,-0.0199997,-2.95004,0.611271,0.278468,
2,0,0,1,0,40065.4,0.277264,0.276917,-0.00669071,21,0.0152143,10,-1.85277e-06,-5.17453,-0.0215425,-2.73877,0.669694,0.276917,
2,1,0,1,0,40066.9,0.275766,0.275463,-0.0070992,21,0.015191,10,-1.95557e-06,-5.14879,-0.0304166,-1.93973,0.573292,0.275463,
2,0,0,1,0,40068.4,0.274268,0.27393,-0.00862049,21,0.015166,10,-2.36141e-06,-5.06447,-0.0338394,-1.74353,0.574944,0.2739298,
2,1,0,1,0,40069.9,0.27277,0.272494,-0.0094185,21,0.0151394,10,-2.56649e-06,-5.02602,-0.0414811,-1.42233,0.534923,0.272494,
2,0,0,1,0,40071.4,0.271272,0.270939,-0.0104417,21,0.0151118,10,-2.82908e-06,-4.98123,-0.0629891,-0.93667,0.386609,0.270939,
2,0,0,1,0,40072.9,0.269774,0.269508,-0.0111533,21,0.0150826,10,-3.00591e-06,-4.9526,-0.0350611,-1.68278,0.715605,0.269508,
2,0,0,1,0,40074.4,0.268275,0.267993,-0.0119493,21,0.0150524,10,-3.20231e-06,-4.92266,-0.0507049,-1.16359,0.535934,0.267993,
2,0,0,1,0,40075.9,0.266777,0.266442,-0.013124,21,0.0150211,10,-3.4968e-06,-4.88193,-0.0532534,-1.10791,0.546794,0.266442,
2,0,0,1,0,40077.4,0.265279,0.264962,-0.0136546,21,0.0149883,10,-3.61794e-06,-4.86472,-0.0590526,-0.99911,0.518313,0.2649619,
2,0,0,1,0,40078.9,0.263781,0.263462,-0.0145222,21,0.0149543,10,-3.82606e-06,-4.83797,-0.0691655,-0.853026,0.470296,0.263462,
2,0,0,1,0,40080.4,0.262283,0.261985,-0.0145613,21,0.0149192,10,-3.81485e-06,-4.8368,-0.0627298,-0.940542,0.551991,0.2619853,
2,0,0,1,0,40081.9,0.260784,0.260477,-0.0157471,21,0.0148834,10,-4.10176e-06,-4.8028,-0.066961,-0.88111,0.541486,0.260477,
2,0,0,1,0,40083.4,0.259286,0.258972,-0.0164657,21,0.0148461,10,-4.26415e-06,-4.78342,-0.0783409,-0.753119,0.477967,0.258972,
2,0,0,1,0,40084.9,0.257788,0.257477,-0.0173757,21,0.0148075,10,-4.47384e-06,-4.76006,-0.147493,-0.40002,0.268235,0.257477,
2,0,0,1,0,40086.3,0.25629,0.255991,-0.0178962,21,0.0147682,10,-4.58127e-06,-4.74724,-0.108157,-0.545503,0.380188,0.255991,
2,0,0,1,0,40087.8,0.254792,0.25446,-0.0185179,21,0.014728,10,-4.71207e-06,-4.73241,-0.102094,-0.577896,0.41048,0.25446,
2,0,0,1,0,40089.3,0.253293,0.25296,-0.019033,21,0.0146867,10,-4.81458e-06,-4.72049,-0.0859732,-0.68626,0.507136,0.25296,
2,0,0,1,0,40090.8,0.251795,0.251468,-0.0196507,21,0.0146444,10,-4.94154e-06,-4.70662,-0.100369,-0.58783,0.443615,0.251468,
2,0,0,1,0,40092.3,0.250297,0.249968,-0.0199912,21,0.0146012,10,-4.99715e-06,-4.69916,-0.126889,-0.464973,0.370142,0.249968,
2,0,0,1,0,40093.8,0.248799,0.248448,-0.0207199,21,0.0145572,10,-5.14782e-06,-4.68361,-0.115458,-0.511009,0.4151,0.248448,
2,0,0,1,0,40095.3,0.247301,0.246995,-0.0212283,21,0.0145122,10,-5.2433e-06,-4.67308,-0.112833,-0.522898,0.43868,0.246995,
2,0,0,1,0,40096.8,0.245802,0.245508,-0.0219161,21,0.0144662,10,-5.38058e-06,-4.65924,-0.126964,-0.464697,0.399344,0.245508,
2,0,0,1,0,40098.3,0.244304,0.243993,-0.0229982,21,0.0144191,10,-5.61141e-06,-4.63831,-0.144781,-0.407511,0.36038,0.243993,
2,0,0,1,0,40099.8,0.242806,0.242426,-0.0235374,21,0.0143713,10,-5.70609e-06,-4.62824,-0.310368,-0.190097,0.170967,0.242426,
2,0,0,1,0,40101.3,0.241308,0.241002,-0.0238458,21,0.014323,10,-5.74689e-06,-4.62259,-0.168482,-0.350187,0.322818,0.241002,
2,0,0,1,0,40102.8,0.23981,0.239528,-0.0240949,21,0.0142739,10,-5.7714e-06,-4.61808,-0.134226,-0.439556,0.412975,0.239528,
2,0,0,1,0,40104.3,0.238312,0.237992,-0.0244051,21,0.0142238,10,-5.80821e-06,-4.61252,-0.195852,-0.301248,0.290315,0.237992,
2,0,0,1,0,40105.8,0.236813,0.236513,-0.0248953,21,0.014173,10,-5.88806e-06,-4.60388,-0.132434,-0.445504,0.438275,0.236513,
2,0,0,1,0,40107.3,0.235315,0.234985,-0.025832,21,0.0141213,10,-6.07013e-06,-4.58784,-0.119291,-0.494589,0.496559,0.234985,
2,0,0,1,0,40108.8,0.233817,0.233489,-0.0262884,21,0.0140686,10,-6.13805e-06,-4.58024,-0.149744,-0.394006,0.403525,0.233489,
2,0,0,1,0,40110.3,0.232319,0.231984,-0.0269043,21,0.0140149,10,-6.24137e-06,-4.57018,-0.14984,-0.393754,0.416071,0.231984,
2,0,0,1,0,40111.8,0.230821,0.230533,-0.0280831,21,0.0139601,10,-6.47407e-06,-4.55156,-0.148499,-0.39731,0.431538,0.230533,
2,0,0,1,0,40113.3,0.229322,0.22902,-0.0285045,21,0.0139044,10,-6.52811e-06,-4.54509,-0.13094,-0.450587,0.500303,0.22902,
2,0,0,1,0,40114.8,0.227824,0.227535,-0.0292768,21,0.0138475,10,-6.66149e-06,-4.53348,-0.15597,-0.378278,0.428905,0.227535,
2,0,0,1,0,40116.3,0.226326,0.226036,-0.0298245,21,0.0137895,10,-6.74143e-06,-4.52543,-0.183271,-0.321928,0.374556,0.226036,
2,0,0,1,0,40117.8,0.224828,0.224497,-0.0303673,21,0.0137309,10,-6.81736e-06,-4.51759,-0.366984,-0.16077,0.187449,0.224497,
2,0,0,1,0,40119.3,0.22333,0.223002,-0.0305732,21,0.0136715,10,-6.81786e-06,-4.51466,-0.358907,-0.164388,0.195564,0.223002,
2,0,0,1,0,40120.8,0.221831,0.221485,-0.0309302,21,0.013612,10,-6.85059e-06,-4.50962,-0.215249,-0.274101,0.330905,0.221485,
2,0,0,1,0,40122.3,0.220333,0.219996,-0.0314356,21,0.0135516,10,-6.91573e-06,-4.50258,-0.141827,-0.415999,0.507449,0.219996,
2,0,0,1,0,40123.8,0.218835,0.218495,-0.0323491,21,0.01349,10,-7.06812e-06,-4.49014,-0.155947,-0.378335,0.470227,0.218495,
2,0,0,1,0,40125.3,0.217337,0.216995,-0.0323165,21,0.0134276,10,-7.01252e-06,-4.49058,-0.172179,-0.342667,0.436668,0.216995,
2,0,0,1,0,40126.8,0.215839,0.215505,-0.0334755,21,0.0133644,10,-7.21413e-06,-4.47527,-0.156764,-0.376361,0.493823,0.215505,
2,0,0,1,0,40128.3,0.21434,0.213991,-0.0341827,21,0.0132999,10,-7.31481e-06,-4.46619,-0.135755,-0.434608,0.57548,0.213991,
2,0,0,1,0,40129.8,0.212842,0.212547,-0.0346491,21,0.0132343,10,-7.36456e-06,-4.46031,-0.257608,-0.22903,0.309479,0.212547,
2,0,0,1,0,40131.3,0.211344,0.210996,-0.0350969,21,0.0131677,10,-7.4053e-06,-4.45473,-0.21627,-0.272807,0.375268,0.210996,
2,0,0,1,0,40132.8,0.209846,0.209539,-0.035384,21,0.0131007,10,-7.41432e-06,-4.45119,-0.30436,-0.193849,0.268669,0.2095387,
2,0,0,1,0,40134.3,0.208348,0.208039,-0.0363337,21,0.0130328,10,-7.55884e-06,-4.43969,-0.22701,-0.2599,0.364361,0.208039,
2,0,0,1,0,40135.8,0.20685,0.206534,-0.0369506,21,0.0129638,10,-7.63153e-06,-4.43238,-0.332208,-0.177599,0.254231,0.206534,
2,0,0,1,0,40137.3,0.205351,0.205036,-0.0368773,21,0.0128941,10,-7.56118e-06,-4.43324,-0.246055,-0.239784,0.349933,0.205036,
2,0,0,1,0,40138.8,0.203853,0.203522,-0.037727,21,0.012824,10,-7.67828e-06,-4.42335,-0.191881,-0.307483,0.453232,0.203522,
2,0,0,1,0,40140.3,0.202355,0.202041,-0.0386078,21,0.0127527,10,-7.80034e-06,-4.41332,-0.177757,-0.331914,0.494021,0.202041,
2,0,0,1,0,40141.8,0.200857,0.200512,-0.0389351,21,0.0126804,10,-7.80697e-06,-4.40966,-0.221086,-0.266864,0.409968,0.200512,
2,0,0,1,0,40143.3,0.199359,0.199041,-0.0399625,21,0.0126073,10,-7.95417e-06,-4.39835,-0.242952,-0.242846,0.376139,0.199041,
2,0,0,1,0,40144.8,0.19786,0.197504,-0.0406397,21,0.0125329,10,-8.02651e-06,-4.39105,-0.202285,-0.291667,0.458485,0.197504,
2,0,0,1,0,40146.3,0.196362,0.195997,-0.0408605,21,0.0124581,10,-8.00854e-06,-4.3887,-0.29654,-0.198962,0.315354,0.195997,
2,0,0,1,0,40147.8,0.194864,0.194543,-0.0411889,21,0.0123822,10,-8.01304e-06,-4.38522,-0.217648,-0.27108,0.434323,0.194543,
2,0,0,1,0,40149.3,0.193366,0.193021,-0.0418423,21,0.0123055,10,-8.07644e-06,-4.37838,-0.1916,-0.307933,0.506455,0.193021,
2,0,0,1,0,40150.8,0.191868,0.191546,-0.0425073,21,0.0122278,10,-8.14208e-06,-4.37154,-0.300036,-0.196643,0.32856,0.191546,
2,0,0,1,0,40152.3,0.190369,0.190029,-0.0432576,21,0.0121491,10,-8.22021e-06,-4.36394,-0.201128,-0.293345,0.499038,0.190029,
2,0,0,1,0,40153.8,0.188871,0.188547,-0.0443195,21,0.0120692,10,-8.35629e-06,-4.35341,-0.16858,-0.349982,0.600816,0.188547,
2,0,0,1,0,40155.3,0.187373,0.187084,-0.0449207,21,0.0119879,10,-8.40393e-06,-4.34755,-0.267958,-0.220183,0.384994,0.187084,
2,0,0,1,0,40156.8,0.185875,0.185531,-0.0452917,21,0.0119057,10,-8.40302e-06,-4.34398,-0.255617,-0.230814,0.411837,0.185531,
2,0,0,1,0,40158.3,0.184377,0.184074,-0.0460029,21,0.0118227,10,-8.46793e-06,-4.33722,-0.306707,-0.192366,0.346208,0.184074,
2,0,0,1,0,40159.8,0.182878,0.182578,-0.0468455,21,0.0117386,10,-8.55295e-06,-4.32933,-0.286809,-0.205712,0.377848,0.182578,
2,0,0,1,0,40161.3,0.18138,0.181043,-0.0475192,21,0.0116533,10,-8.60305e-06,-4.32313,-0.286835,-0.205693,0.381553,0.181043,
2,0,0,1,0,40162.8,0.179882,0.179592,-0.0478205,21,0.0115668,10,-8.58817e-06,-4.32039,-0.260965,-0.226084,0.425069,0.1795917,
2,0,0,1,0,40164.3,0.178384,0.178073,-0.0488092,21,0.0114797,10,-8.69161e-06,-4.3115,-0.192788,-0.306036,0.588522,0.178073,
2,0,0,1,0,40165.8,0.176886,0.176538,-0.0500377,21,0.0113911,10,-8.83354e-06,-4.3007,-0.186626,-0.31614,0.614928,0.176538,
2,0,0,1,0,40167.3,0.175388,0.175051,-0.0507523,21,0.0113007,10,-8.88424e-06,-4.29454,-0.198258,-0.297592,0.590502,0.175051,
2,0,0,1,0,40168.7,0.173889,0.173552,-0.0517153,21,0.0112093,10,-8.97527e-06,-4.28638,-0.214195,-0.27545,0.553709,0.173552,
2,0,0,1,0,40170.2,0.172391,0.172041,-0.0528718,21,0.0111163,10,-9.0961e-06,-4.27678,-0.189388,-0.311529,0.639454,0.172041,
2,0,0,1,0,40171.7,0.170893,0.170587,-0.053764,21,0.0110219,10,-9.17142e-06,-4.26951,-0.175409,-0.336356,0.704635,0.170587,
2,0,0,1,0,40173.2,0.169395,0.169004,-0.0548754,21,0.0109257,10,-9.27414e-06,-4.26062,-0.225884,-0.261196,0.559057,0.169004,
2,0,0,1,0,40174.7,0.167897,0.167585,-0.0557344,21,0.0108277,10,-9.34024e-06,-4.25388,-0.195754,-0.301398,0.654787,0.167585,
2,0,0,1,0,40176.2,0.166398,0.166069,-0.0564684,21,0.0107286,10,-9.37768e-06,-4.24819,-0.210063,-0.280868,0.621656,0.166069,
2,0,0,1,0,40177.7,0.1649,0.164567,-0.0575951,21,0.0106279,10,-9.47824e-06,-4.23961,-0.169864,-0.347337,0.776481,0.164567,
2,0,0,1,0,40179.2,0.163402,0.163074,-0.0588327,21,0.0105255,10,-9.59406e-06,-4.23038,-0.13279,-0.444311,1.02183,0.163074,
2,0,0,1,0,40180.7,0.161904,0.161577,-0.0603174,21,0.0104211,10,-9.74593e-06,-4.21956,-0.149724,-0.394058,0.929074,0.161577,
2,0,0,1,0,40182.2,0.160406,0.160088,-0.0615346,21,0.0103145,10,-9.85093e-06,-4.21088,-0.144996,-0.406907,0.980712,0.160088,
2,0,0,1,0,40183.7,0.158907,0.15856,-0.0631741,21,0.0102057,10,-1.00169e-05,-4.19946,-0.120603,-0.489208,1.20356,0.15856,
2,0,0,1,0,40185.2,0.157409,0.157095,-0.0651533,21,0.0100942,10,-1.02353e-05,-4.18606,-0.129643,-0.455096,1.1576,0.157095,
2,0,0,1,0,40186.7,0.155911,0.15562,-0.0666059,21,0.00997987,10,-1.03652e-05,-4.17649,-0.128175,-0.460306,1.20362,0.1556202,
2,0,0,1,0,40188.2,0.154413,0.154086,-0.068491,21,0.00986271,10,-1.05535e-05,-4.16437,-0.134239,-0.439515,1.17354,0.154086,
2,0,0,1,0,40189.7,0.152915,0.152575,-0.0710682,21,0.00974246,10,-1.08432e-05,-4.14832,-0.114545,-0.515082,1.42349,0.152575,
2,0,0,1,0,40191.2,0.151417,0.151037,-0.072975,21,0.00961927,10,-1.10219e-05,-4.13683,-0.110599,-0.533457,1.51544,0.151037,
2,0,0,1,0,40192.7,0.149918,0.149574,-0.0758238,21,0.00949232,10,-1.13412e-05,-4.12019,-0.0999537,-0.590273,1.73365,0.149574,
2,0,0,1,0,40194.2,0.14842,0.148088,-0.0782083,21,0.00936122,10,-1.15817e-05,-4.10675,-0.0903249,-0.653197,1.98813,0.148088,
2,0,0,1,0,40195.7,0.146922,0.146606,-0.0810295,21,0.00922575,10,-1.18794e-05,-4.09136,-0.0883537,-0.66777,2.11254,0.146606,
2,0,0,1,0,40197.2,0.145424,0.145071,-0.0839286,21,0.00908606,10,-1.21756e-05,-4.07609,-0.0877762,-0.672164,2.21319,0.145071,
2,0,0,1,0,40198.7,0.143926,0.143548,-0.0876335,21,0.00894092,10,-1.25796e-05,-4.05733,-0.0734627,-0.803129,2.7467,0.143548,
2,0,0,1,0,40200.2,0.142427,0.142119,-0.0914072,21,0.00878977,10,-1.29907e-05,-4.03902,-0.0782372,-0.754117,2.6971,0.142119,
2,0,0,1,0,40201.7,0.140929,0.140603,-0.0960866,21,0.00863241,10,-1.351e-05,-4.01734,-0.0748618,-0.788119,2.96626,0.140603,
2,0,0,1,0,40203.2,0.139431,0.139077,-0.0998521,21,0.00846905,10,-1.38871e-05,-4.00064,-0.0735157,-0.802549,3.14107,0.139077,
2,0,0,1,0,40204.7,0.137933,0.137592,-0.105314,21,0.00829833,10,-1.44904e-05,-3.97751,-0.0744652,-0.792317,3.23759,0.137592,
2,0,0,1,0,40206.2,0.136435,0.136102,-0.109304,21,0.00812041,10,-1.48766e-05,-3.96136,-0.0802525,-0.73518,3.14208,0.136102,
2,0,0,1,0,40207.7,0.134936,0.134592,-0.114235,21,0.00793536,10,-1.53751e-05,-3.9422,-0.0854685,-0.690313,3.07355,0.134592,
2,0,0,1,0,40209.2,0.133438,0.133142,-0.118514,21,0.00774349,10,-1.57792e-05,-3.92623,-0.091109,-0.647576,3.00602,0.1331417,
2,0,0,1,0,40210.7,0.13194,0.131628,-0.12358,21,0.00754485,10,-1.62666e-05,-3.90805,-0.102615,-0.574967,2.76389,0.131628,
2,0,0,1,0,40212.2,0.130442,0.130098,-0.127761,21,0.00733932,10,-1.66215e-05,-3.8936,-0.113356,-0.520484,2.58486,0.130098,
2,0,0,1,0,40213.7,0.128944,0.128597,-0.131143,21,0.0071281,10,-1.68645e-05,-3.88226,-0.144104,-0.409428,2.08514,0.128597,
2,0,0,1,0,40215.2,0.127445,0.127116,-0.134,21,0.00691189,10,-1.70336e-05,-3.8729,-0.170616,-0.345806,1.80698,0.127116,
2,0,0,1,0,40216.7,0.125947,0.125642,-0.136813,21,0.00669221,10,-1.71895e-05,-3.86387,-0.203129,-0.290456,1.54426,0.125642,
2,0,0,1,0,40218.2,0.124449,0.124169,-0.139217,21,0.00646834,10,-1.72864e-05,-3.85631,-0.254984,-0.231387,1.249,0.124169,
2,0,0,1,0,40219.7,0.122951,0.122636,-0.140624,21,0.00624166,10,-1.72456e-05,-3.85194,-0.391656,-0.150642,0.823111,0.122636,
2,0,0,1,0,40221.2,0.121453,0.121129,-0.141483,21,0.00601308,10,-1.71378e-05,-3.84929,-0.552466,-0.106794,0.588511,0.121129,
2,0,0,1,0,40222.7,0.119955,0.119616,-0.141921,21,0.00578393,10,-1.6976e-05,-3.84795,-0.780644,-0.0755786,0.419027,0.119616,
2,0,0,1,0,40224.2,0.118456,0.118097,-0.142029,21,0.00555357,10,-1.67732e-05,-3.84762,-0.709334,-0.0831766,0.460956,0.118097,
2,0,0,1,0,40225.7,0.116958,0.116615,-0.143275,21,0.00532233,10,-1.67081e-05,-3.84383,16.2484,0.00363113,-0.0201698,0.116615,
2,0,0,1,0,40227.2,0.11546,0.115119,-0.142502,21,0.00509126,10,-1.64047e-05,-3.84618,1.37521,0.0429024,-0.238609,0.1151191,
2,0,0,1,0,40228.7,0.113962,0.113632,-0.141679,21,0.00486089,10,-1.60993e-05,-3.84869,3.9478,0.014945,-0.0828329,0.113632,
2,0,0,1,0,40230.2,0.112464,0.112113,-0.1425,21,0.00463085,10,-1.5976e-05,-3.84619,125.425,0.000470401,-0.00260968,0.112113,
2,0,0,1,0,40231.7,0.110965,0.110642,-0.142584,21,0.00440052,10,-1.57758e-05,-3.84593,5.30091,0.0111302,-0.061669,0.110642,
2,0,0,1,0,40233.2,0.109467,0.109123,-0.14203,21,0.00417013,10,-1.54988e-05,-3.84762,1.39954,0.0421568,-0.233041,0.109123,
2,0,0,1,0,40234.7,0.107969,0.107632,-0.14194,21,0.00394002,10,-1.52772e-05,-3.8479,1.34029,0.0440204,-0.244096,0.1076315,
2,0,0,1,0,40236.2,0.106471,0.106119,-0.14152,21,0.00371075,10,-1.5018e-05,-3.84918,1.60692,0.0367163,-0.203401,0.106119,
2,0,0,1,0,40237.7,0.104973,0.104646,-0.140885,21,0.00348156,10,-1.47431e-05,-3.85114,2.69505,0.021892,-0.120775,0.104646,
2,0,0,1,0,40239.2,0.103474,0.103118,-0.140782,21,0.00325295,10,-1.45172e-05,-3.85145,0.476457,0.123831,-0.676728,0.103118,
2,0,0,1,0,40240.7,0.101976,0.101643,-0.140916,21,0.00302515,10,-1.43232e-05,-3.85104,2.90525,0.020308,-0.111269,0.101643,
2,0,0,1,0,40242.2,0.100478,0.100148,-0.140619,21,0.00279918,10,-1.40828e-05,-3.85196,2.16626,0.0272359,-0.148556,0.100148,
2,0,0,1,0,40243.7,0.0989798,0.0986233,-0.140321,21,0.00257297,10,-1.38389e-05,-3.85288,1.20341,0.0490272,-0.266787,0.0986233,
2,0,0,1,0,40245.2,0.0974816,0.0971578,-0.139082,21,0.00234772,10,-1.35129e-05,-3.85673,0.591522,0.0997427,-0.541009,0.0971578,
2,0,0,1,0,40246.7,0.0959834,0.0956541,-0.138235,21,0.00212354,10,-1.32228e-05,-3.85938,0.470151,0.125492,-0.678019,0.0956541,
2,0,0,1,0,40248.2,0.0944852,0.0941547,-0.137247,21,0.00190106,10,-1.29225e-05,-3.8625,0.532941,0.110706,-0.593794,0.0941547,
2,0,0,1,0,40249.7,0.0929871,0.0926723,-0.136698,21,0.00167939,10,-1.26681e-05,-3.86424,0.683636,0.0863032,-0.459072,0.0926723,
2,0,0,1,0,40251.1,0.0914889,0.0911517,-0.135731,21,0.00145883,10,-1.23721e-05,-3.86732,0.413303,0.142752,-0.75606,0.0911517,
2,0,0,1,0,40252.6,0.0899907,0.0896724,-0.134598,21,0.00124022,10,-1.20698e-05,-3.87096,0.403534,0.146208,-0.766437,0.0896724,
2,0,0,1,0,40254.1,0.0884925,0.0881189,-0.132468,21,0.00102342,10,-1.16729e-05,-3.87789,0.447904,0.131725,-0.685327,0.0881189,
2,0,0,1,0,40255.6,0.0869943,0.0866174,-0.13236,21,0.00080837,10,-1.14647e-05,-3.87824,0.47641,0.123843,-0.640815,0.08661738,
2,0,0,1,0,40257.1,0.0854961,0.0851636,-0.131431,21,0.000594529,10,-1.11932e-05,-3.8813,0.53913,0.109435,-0.561915,0.0851636,
2,0,0,1,0,40258.6,0.083998,0.0837035,-0.130455,21,0.000381859,10,-1.09196e-05,-3.88454,0.379847,0.155326,-0.790905,0.0837035,
2,0,0,1,0,40260.1,0.0824998,0.0822168,-0.129653,21,0.000170474,10,-1.06597e-05,-3.88722,0.483962,0.12191,-0.618972,0.0822168,
2,0,0,1,0,40261.6,0.0810016,0.0807248,-0.128693,21,-3.8905e-05,10,-1.03887e-05,-3.89044,0.573293,0.102914,-0.519567,0.0807248,
2,0,0,1,0,40263.1,0.0795034,0.0791988,-0.127899,21,-0.000247483,10,-1.01295e-05,-3.89313,0.577044,0.102245,-0.511362,0.0791988,
2,0,0,1,0,40264.6,0.0780052,0.077692,-0.127727,21,-0.000455033,10,-9.92336e-06,-3.89372,0.536897,0.109891,-0.545707,0.077692,
2,0,0,1,0,40266.1,0.076507,0.0761639,-0.126327,21,-0.00066116,10,-9.62158e-06,-3.8985,0.469915,0.125555,-0.618706,0.0761639,
2,0,0,1,0,40267.6,0.0750088,0.074656,-0.125832,21,-0.000865346,10,-9.39415e-06,-3.90021,0.446047,0.132273,-0.647753,0.074656,
2,0,0,1,0,40269.1,0.0735106,0.0732022,-0.124535,21,-0.00106874,10,-9.11624e-06,-3.90471,0.738675,0.0798727,-0.387459,0.0732022,
2,0,0,1,0,40270.6,0.0720124,0.0716995,-0.12341,21,-0.00127082,10,-8.84844e-06,-3.90865,0.778003,0.0758352,-0.36807,0.07169953,
2,0,0,1,0,40272.1,0.0705142,0.07018,-0.12322,21,-0.00147176,10,-8.64757e-06,-3.90932,0.706664,0.0834908,-0.401481,0.07018,
2,0,0,1,0,40273.6,0.069016,0.0686827,-0.122298,21,-0.00167186,10,-8.39976e-06,-3.91258,1.37747,0.0428321,-0.205079,0.0686827,
2,0,0,1,0,40275.1,0.0675178,0.0672087,-0.122133,21,-0.00187127,10,-8.20842e-06,-3.91317,2.01116,0.0293363,-0.139783,0.0672087,
2,0,0,1,0,40276.6,0.0660196,0.0656786,-0.122018,21,-0.00207011,10,-8.01395e-06,-3.91358,0.870661,0.0677646,-0.32151,0.0656786,
2,0,0,1,0,40278.1,0.0645214,0.0641982,-0.121743,21,-0.00226832,10,-7.81565e-06,-3.91456,0.763631,0.0772625,-0.365472,0.0641982,
2,0,0,1,0,40279.6,0.0630233,0.0627265,-0.120173,21,-0.00246526,10,-7.53805e-06,-3.92019,0.689508,0.0855682,-0.4023,0.0627265,
2,0,0,1,0,40281.1,0.0615251,0.061226,-0.119982,21,-0.00266132,10,-7.34603e-06,-3.92088,0.834119,0.0707333,-0.33146,0.061226,
2,0,0,1,0,40282.6,0.0600269,0.0597022,-0.119134,21,-0.00285656,10,-7.11257e-06,-3.92396,0.486086,0.121378,-0.564774,0.0597022,
2,0,0,1,0,40284.1,0.0585287,0.0582038,-0.118382,21,-0.00305083,10,-6.89026e-06,-3.92672,0.420022,0.140469,-0.649171,0.0582038,
2,0,0,1,0,40285.6,0.0570305,0.0566853,-0.117949,21,-0.00324386,10,-6.68596e-06,-3.92831,0.597833,0.0986897,-0.455821,0.0566853,
2,0,0,1,0,40287.1,0.0555323,0.0552368,-0.117261,21,-0.00343549,10,-6.47711e-06,-3.93085,1.40431,0.0420134,-0.192396,0.0552368,
2,0,0,1,0,40288.6,0.0540342,0.0536993,-0.117188,21,-0.00362657,10,-6.29288e-06,-3.93112,0.679787,0.0867918,-0.395336,0.0536993,
2,0,0,1,0,40290.1,0.052536,0.0522116,-0.116522,21,-0.0038171,10,-6.08378e-06,-3.93359,0.625697,0.0942949,-0.427538,0.0522116,
2,0,0,1,0,40291.6,0.0510378,0.0507259,-0.116312,21,-0.00400657,10,-5.90005e-06,-3.93437,0.592156,0.0996359,-0.449859,0.0507259,
2,0,0,1,0,40293.1,0.0495396,0.0492285,-0.115229,21,-0.00419468,10,-5.67254e-06,-3.93844,0.666184,0.0885642,-0.397504,0.0492285,
2,0,0,1,0,40294.6,0.0480414,0.047727,-0.114209,21,-0.00438225,10,-5.45086e-06,-3.9423,3.03742,0.0194244,-0.0863866,0.047727,
2,0,0,1,0,40296.1,0.0465432,0.0462456,-0.113519,21,-0.00456891,10,-5.24976e-06,-3.94493,0.755466,0.0780975,-0.347437,0.0462456,
2,0,0,1,0,40297.6,0.045045,0.0447165,-0.113382,21,-0.00475498,10,-5.07003e-06,-3.94546,0.600192,0.0983018,-0.43481,0.0447165,
2,0,0,1,0,40299.1,0.0435468,0.0432309,-0.111496,21,-0.00493952,10,-4.82006e-06,-3.95274,0.481292,0.122587,-0.539171,0.04323088,
2,0,0,1,0,40300.6,0.0420486,0.0417092,-0.111744,21,-0.00512294,10,-4.66074e-06,-3.95178,0.721553,0.0817681,-0.357845,0.0417092,
2,0,0,1,0,40302.1,0.0405504,0.04025,-0.112298,21,-0.00530612,10,-4.51999e-06,-3.94963,8.83941,0.00667465,-0.0289558,0.04025,
2,0,0,1,0,40303.6,0.0390522,0.0387401,-0.111068,21,-0.0054888,10,-4.30276e-06,-3.95441,0.623516,0.0946247,-0.410015,0.0387401,
2,0,0,1,0,40305.1,0.037554,0.0372162,-0.110537,21,-0.00567045,10,-4.11376e-06,-3.95649,0.520954,0.113254,-0.487508,0.03721622,
2,0,0,1,0,40306.6,0.0360558,0.0357263,-0.110153,21,-0.00585109,10,-3.93535e-06,-3.958,0.753964,0.0782531,-0.337025,0.0357263,
2,0,0,1,0,40308.1,0.0345576,0.0342259,-0.109671,21,-0.00603109,10,-3.75359e-06,-3.95991,0.990424,0.0595704,-0.254906,0.0342259,
2,0,0,1,0,40309.6,0.0330594,0.0327084,-0.109369,21,-0.00621075,10,-3.57729e-06,-3.96111,0.593978,0.0993302,-0.421601,0.0327084,
2,0,0,1,0,40311.1,0.0315613,0.0312069,-0.108821,21,-0.00638953,10,-3.39596e-06,-3.96329,0.705795,0.0835937,-0.354546,0.0312069,
2,0,0,1,0,40312.6,0.0300631,0.0297361,-0.108197,21,-0.0065668,10,-3.21736e-06,-3.96579,1.3667,0.0431698,-0.182064,0.0297361,
2,0,0,1,0,40314.1,0.0285649,0.0282759,-0.10781,21,-0.00674366,10,-3.04842e-06,-3.96734,1.49744,0.0394006,-0.165203,0.0282759,
2,0,0,1,0,40315.6,0.0270667,0.0267183,-0.107602,21,-0.00692029,10,-2.87495e-06,-3.96818,3.11948,0.0189134,-0.0790041,0.0267183,
2,0,0,1,0,40317.1,0.0255685,0.0252432,-0.106948,21,-0.00709636,10,-2.69972e-06,-3.97083,2.76983,0.0213009,-0.0890897,0.0252432,
2,0,0,1,0,40318.6,0.0240703,0.0237448,-0.10643,21,-0.0072716,10,-2.52716e-06,-3.97294,1.65336,0.035685,-0.149197,0.0237448,
2,0,0,1,0,40320.1,0.0225722,0.0222688,-0.106486,21,-0.0074467,10,-2.37132e-06,-3.97271,5.98127,0.00986412,-0.0409854,0.0222688,
2,0,0,1,0,40321.6,0.021074,0.0207609,-0.106134,21,-0.00762146,10,-2.20345e-06,-3.97414,3.02264,0.0195194,-0.081156,0.0207609,
2,0,0,1,0,40323.1,0.0195758,0.0192234,-0.106199,21,-0.00779588,10,-2.0415e-06,-3.97388,-2.47777,-0.0238117,0.0990931,0.0192234,
2,0,0,1,0,40324.6,0.0180776,0.0177261,-0.105945,21,-0.00797036,10,-1.878e-06,-3.97492,-11.2377,-0.00525019,0.0217722,0.01772606,
2,0,0,1,0,40326.1,0.0165794,0.0162435,-0.10652,21,-0.00814497,10,-1.73026e-06,-3.97257,-6.52643,-0.00904016,0.0375836,0.0162435,
2,0,0,1,0,40327.6,0.0150812,0.0147463,-0.107102,21,-0.00831985,10,-1.57936e-06,-3.9702,-1.48472,-0.0397381,0.165305,0.0147463,
2,0,0,1,0,40329.1,0.013583,0.0132362,-0.106855,21,-0.00849503,10,-1.41435e-06,-3.97121,2.89787,0.0203598,-0.0846756,0.0132362,
2,0,0,1,0,40330.6,0.0120848,0.0118089,-0.106643,21,-0.00867007,10,-1.25933e-06,-3.97207,-10.5301,-0.00560297,0.0233924,0.0118089,
2,0,0,1,0,40332.1,0.0105866,0.0102511,-0.106782,21,-0.00884503,10,-1.09464e-06,-3.9715,-1.29943,-0.0454044,0.19005,0.0102511,
2,0,0,1,0,40333.5,0.00908843,0.00880371,-0.107358,21,-0.0090206,10,-9.45146e-07,-3.96917,-0.730591,-0.0807565,0.339964,0.00880371,
2,0,0,1,0,40335,0.00759024,0.00726822,-0.107943,21,-0.00919701,10,-7.84554e-07,-3.96681,-0.818059,-0.072122,0.304307,0.007268222,
2,0,0,1,0,40336.5,0.00609203,0.00578043,-0.108689,21,-0.0093745,10,-6.2827e-07,-3.96381,-0.67207,-0.0877885,0.372681,0.00578043,
2,0,0,1,0,40338,0.00459384,0.00427787,-0.109643,21,-0.00955239,10,-4.69038e-07,-3.96002,-0.691655,-0.0853027,0.364687,0.00427787,
2,0,0,1,0,40339.5,0.00309563,0.00275937,-0.110379,21,-0.00973179,10,-3.04577e-07,-3.95711,-0.423349,-0.139365,0.598596,0.00275937,
2,0,0,1,0,40341,0.00159744,0.00120686,-0.111106,21,-0.00991439,10,-1.3409e-07,-3.95426, , , ,0.00120686,
2,0,0,1,0,40342.4,0.000199235,-0.000193607,-0.111497,21,-0.0100842,10,2.15867e-08,-3.95274, , , ,-0.000193607,