File: Figure_codes/Fig_3-5/rawdata_trumpetplot_data/after 10th/20221101_1-115_003_TrumpetPlot_ParaChange_from10_every3_13_CV_C01_32.csv
mode,ox/red,error,control changes,counter inc.,time/s,control/V,Ewe/V,<I>/mA,cycle number,(Q-Qo)/C,I Range,P/W,log(|I|),Tafel slope mV/dec,alpha_eff,dI/d(E-IR),E-IR/V,
2,1,0,1,0,64242,2.44065e-05,-0.000287149,14.8715,33,0.0000000E+000,10,-4.27034e-06,-1.82764, , , ,-0.0002871489,
2,1,0,1,0,64242,0.00266289,0.00224086,16.1167,33,4.85873e-05,10,3.61153e-05,-1.79272, , , ,0.00224086,
2,1,0,1,0,64242,0.00586735,0.0055154,17.1262,33,0.000115251,10,9.44577e-05,-1.76634, , , ,0.0055154,
2,1,0,1,0,64242,0.00906349,0.00870404,17.9959,33,0.000185604,10,0.000156637,-1.74483,0.153845,0.383502,265.942,0.00870404,
2,1,0,1,0,64242,0.0122624,0.0119043,18.7792,33,0.000259256,10,0.000223554,-1.72632,0.176343,0.334576,243.331,0.0119043,
2,1,0,1,0,64242,0.0154641,0.015075,19.5299,33,0.000335967,10,0.000294412,-1.7093,0.196364,0.300463,227.69,0.015075,
2,1,0,1,0,64242.1,0.0186602,0.0182742,20.2308,33,0.000415568,10,0.000369702,-1.69399,0.214963,0.274466,215.645,0.0182742,
2,1,0,1,0,64242.1,0.0218675,0.0215106,20.9118,33,0.000497949,10,0.000449824,-1.67961,0.234271,0.251845,204.574,0.0215106,
2,1,0,1,0,64242.1,0.0250636,0.0247459,21.5484,33,0.000582948,10,0.000533233,-1.66659,0.252119,0.234016,196.045,0.0247459,
2,1,0,1,0,64242.1,0.0282597,0.0278974,22.153,33,0.000670422,10,0.000618011,-1.65457,0.269414,0.218994,188.85,0.0278974,
2,1,0,1,0,64242.1,0.031467,0.0311242,22.75,33,0.000760314,10,0.000708075,-1.64302,0.283704,0.207963,184.237,0.0311242,
2,1,0,1,0,64242.1,0.0346631,0.0342885,23.3249,33,0.000852522,10,0.000799774,-1.63218,0.300156,0.196565,178.577,0.0342885,
2,1,0,1,0,64242.1,0.0378704,0.0374676,23.8922,33,0.000947004,10,0.000895182,-1.62174,0.317878,0.185606,172.643,0.0374676,
2,1,0,1,0,64242.1,0.0410665,0.0407135,24.4416,33,0.00104372,10,0.000995104,-1.61187,0.333841,0.176731,168.2,0.0407135,
2,1,0,1,0,64242.1,0.0442626,0.0438767,24.9516,33,0.00114256,10,0.00109479,-1.6029,0.352981,0.167148,162.556,0.0438767,
2,1,0,1,0,64242.1,0.0474671,0.0471003,25.4798,33,0.00124347,10,0.00120011,-1.5938,0.366904,0.160805,159.717,0.0471003,
2,1,0,1,0,64242.1,0.0506632,0.0502847,25.9757,33,0.00134644,10,0.00130618,-1.58543,0.379455,0.155486,157.455,0.0502847,
2,1,0,1,0,64242.1,0.0538621,0.0535115,26.4857,33,0.0014514,10,0.00141729,-1.57699,0.396621,0.148757,153.561,0.0535115,
2,1,0,1,0,64242.1,0.0570638,0.056697,26.9702,33,0.00155838,10,0.00152913,-1.56912,0.407663,0.144727,152.168,0.056697,
2,1,0,1,0,64242.1,0.06026,0.0599079,27.4466,33,0.00166727,10,0.00164427,-1.56151,0.420271,0.140386,150.319,0.05990788,
2,1,0,1,0,64242.1,0.0634672,0.0631241,27.9294,33,0.00177808,10,0.00176302,-1.55394,0.430844,0.136941,149.183,0.0631241,
2,1,0,1,0,64242.1,0.0666633,0.0663096,28.4095,33,0.00189081,10,0.00188382,-1.54654,0.435423,0.135501,150.148,0.0663096,
2,1,0,1,0,64242.1,0.0698595,0.0694961,28.8796,33,0.00200546,10,0.00200702,-1.53941,0.451321,0.130727,147.243,0.0694961,
2,1,0,1,0,64242.1,0.0730667,0.0726614,29.3615,33,0.00212199,10,0.00213345,-1.53222,0.45935,0.128442,147.07,0.0726614,
2,1,0,1,0,64242.1,0.0762628,0.0759115,29.8123,33,0.00224039,10,0.0022631,-1.5256,0.471247,0.1252,145.628,0.0759115,
2,1,0,1,0,64242.1,0.0794701,0.0790917,30.2894,33,0.00236063,10,0.00239564,-1.51871,0.482797,0.122205,144.411,0.0790917,
2,1,0,1,0,64242.1,0.0826662,0.0823281,30.7483,33,0.00248276,10,0.00253145,-1.51218,0.481784,0.122462,146.918,0.0823281,
2,1,0,1,0,64242.1,0.0858624,0.0855061,31.2164,33,0.00260673,10,0.00266919,-1.50562,0.494838,0.119231,145.224,0.0855061,
2,1,0,1,0,64242.1,0.0890668,0.0886778,31.6879,33,0.0027326,10,0.00281001,-1.49911,0.498822,0.118279,146.217,0.0886778,
2,1,0,1,0,64242.1,0.092263,0.0918898,32.1479,33,0.0028603,10,0.00295407,-1.49285,0.506098,0.116578,146.237,0.0918898,
2,1,0,1,0,64242.1,0.0954674,0.095141,32.6218,33,0.00298988,10,0.00310367,-1.48649,0.517351,0.114042,145.138,0.095141,
2,1,0,1,0,64242.2,0.0986636,0.0982935,33.0864,33,0.00312134,10,0.00325218,-1.48035,0.519105,0.113657,146.732,0.09829355,
2,1,0,1,0,64242.2,0.10186,0.101507,33.5498,33,0.00325467,10,0.00340553,-1.47431,0.527429,0.111863,146.452,0.101507,
2,1,0,1,0,64242.2,0.105067,0.104714,34.0297,33,0.00338989,10,0.0035634,-1.46814,0.533124,0.110669,146.916,0.1047143,
2,1,0,1,0,64242.2,0.108263,0.107884,34.488,33,0.00352698,10,0.0037207,-1.46233,0.540213,0.109216,146.967,0.107884,
2,1,0,1,0,64242.2,0.111465,0.111064,34.9626,33,0.00366591,10,0.00388309,-1.4564,0.546335,0.107992,147.352,0.111064,
2,1,0,1,0,64242.2,0.114666,0.114283,35.4276,33,0.00380674,10,0.00404879,-1.45066,0.547989,0.107666,148.888,0.114283,
2,1,0,1,0,64242.2,0.117863,0.117486,35.9116,33,0.00394946,10,0.00421911,-1.44476,0.555694,0.106174,148.79,0.117486,
2,1,0,1,0,64242.2,0.12107,0.120702,36.3965,33,0.00409412,10,0.00439313,-1.43894,0.555196,0.106269,150.894,0.120702,
2,1,0,1,0,64242.2,0.124266,0.123889,36.8708,33,0.00424068,10,0.00456787,-1.43332,0.555086,0.10629,152.995,0.123889,
2,1,0,1,0,64242.2,0.127462,0.127064,37.3562,33,0.00438917,10,0.00474665,-1.42764,0.551104,0.107058,156.207,0.127064,
2,1,0,1,0,64242.2,0.130667,0.130292,37.871,33,0.00453966,10,0.0049343,-1.42169,0.542433,0.108769,160.841,0.130292,
2,1,0,1,0,64242.2,0.133863,0.133496,38.395,33,0.00469226,10,0.00512557,-1.41573,0.542357,0.108784,162.994,0.133496,
2,1,0,1,0,64242.2,0.137067,0.136681,38.9284,33,0.00484694,10,0.00532078,-1.40973,0.544796,0.108297,164.473,0.1366813,
2,1,0,1,0,64242.2,0.140263,0.139892,39.4471,33,0.00500374,10,0.00551834,-1.40399,0.548615,0.107544,165.535,0.139892,
2,1,0,1,0,64242.2,0.143459,0.143098,39.9771,33,0.00516263,10,0.00572064,-1.39819,0.559936,0.105369,164.351,0.143098,
2,1,0,1,0,64242.2,0.146667,0.146242,40.5049,33,0.00532367,10,0.00592352,-1.39249,0.564167,0.104579,165.241,0.146242,
2,1,0,1,0,64242.2,0.149863,0.149425,41.0229,33,0.0054868,10,0.00612985,-1.38697,0.562745,0.104843,167.91,0.149425,
2,1,0,1,0,64242.2,0.153064,0.152582,41.5439,33,0.00565194,10,0.00633886,-1.38149,0.573154,0.102939,166.989,0.152582,
2,1,0,1,0,64242.2,0.156266,0.155829,42.1148,33,0.00581934,10,0.00656271,-1.37557,0.577384,0.102185,167.875,0.155829,
2,1,0,1,0,64242.2,0.159462,0.159066,42.6465,33,0.00598891,10,0.00678362,-1.37012,0.593205,0.0994597,165.358,0.159066,
2,1,0,1,0,64242.2,0.16267,0.162313,43.1865,33,0.00616062,10,0.00700974,-1.36465,0.62463,0.094456,158.989,0.162313,
2,1,0,1,0,64242.2,0.165866,0.165469,43.6749,33,0.00633439,10,0.00722686,-1.35977,0.651904,0.0905041,154.077,0.165469,
2,1,0,1,0,64242.2,0.169062,0.168693,44.16,33,0.00651011,10,0.00744948,-1.35497,0.694205,0.0849893,146.317,0.168693,
2,1,0,1,0,64242.2,0.172266,0.171826,44.6125,33,0.00668772,10,0.0076656,-1.35054,0.731952,0.0806064,140.203,0.171826,
2,1,0,1,0,64242.2,0.175462,0.175069,45.0528,33,0.00686711,10,0.00788736,-1.34628,0.77522,0.0761075,133.69,0.175069,
2,1,0,1,0,64242.3,0.178667,0.178297,45.4734,33,0.0070482,10,0.00810777,-1.34224,0.833378,0.0707962,125.479,0.178297,
2,1,0,1,0,64242.3,0.181863,0.181486,45.8703,33,0.00723095,10,0.00832479,-1.33847,0.903774,0.0652818,116.68,0.181486,
2,1,0,1,0,64242.3,0.185059,0.184688,46.2263,33,0.00741521,10,0.00853745,-1.33511,1.00785,0.0585407,105.426,0.184688,
2,1,0,1,0,64242.3,0.188266,0.187902,46.5502,33,0.00760082,10,0.00874688,-1.33208,1.13909,0.0517955,93.9324,0.187902,
2,1,0,1,0,64242.3,0.191463,0.191105,46.8237,33,0.00778761,10,0.00894822,-1.32953,1.33789,0.0440994,80.443,0.191105,
2,1,0,1,0,64242.3,0.194664,0.19428,47.0721,33,0.00797542,10,0.00914519,-1.32724,1.62368,0.0363371,66.6168,0.19428,
2,1,0,1,0,64242.3,0.197866,0.197515,47.2582,33,0.00816412,10,0.00933418,-1.32552,2.06475,0.0285749,52.591,0.197515,
2,1,0,1,0,64242.3,0.201062,0.200705,47.4031,33,0.00835347,10,0.00951406,-1.32419,2.89602,0.0203728,37.6177,0.200705,
2,1,0,1,0,64242.3,0.204269,0.203877,47.4954,33,0.0085433,10,0.00968323,-1.32335,4.77659,0.0123519,22.8515,0.203877,
2,1,0,1,0,64242.3,0.207465,0.207097,47.5542,33,0.00873339,10,0.00984832,-1.32281,12.994,0.00454057,8.40956,0.207097,
2,1,0,1,0,64242.3,0.210662,0.210304,47.5504,33,0.00892359,10,0.0100001,-1.32285,-16.6209,-0.00354974,-6.57393,0.210304,
2,1,0,1,0,64242.3,0.213866,0.213492,47.5106,33,0.00911373,10,0.0101431,-1.32321,-5.00932,-0.0117781,-21.7945,0.213492,
2,1,0,1,0,64242.3,0.217062,0.216718,47.411,33,0.00930357,10,0.0102748,-1.32412,-2.95791,-0.0199465,-36.8312,0.216718,
2,1,0,1,0,64242.3,0.220267,0.219919,47.2748,33,0.00949292,10,0.0103966,-1.32537,-2.10969,-0.0279662,-51.4923,0.219919,
2,1,0,1,0,64242.3,0.223463,0.223153,47.0772,33,0.00968163,10,0.0105054,-1.32719,-1.66017,-0.0355385,-65.1765,0.223153,
2,1,0,1,0,64242.3,0.226659,0.22636,46.848,33,0.00986946,10,0.0106045,-1.32931,-1.34947,-0.043721,-79.7912,0.22636,
2,1,0,1,0,64242.3,0.229866,0.229523,46.5764,33,0.0100563,10,0.0106904,-1.33183,-1.1483,-0.0513802,-93.2042,0.229523,
2,1,0,1,0,64242.3,0.233062,0.232702,46.2548,33,0.010242,10,0.0107636,-1.33484,-1.00535,-0.058686,-105.745,0.232702,
2,1,0,1,0,64242.3,0.236264,0.235892,45.8899,33,0.0104262,10,0.010825,-1.33828,-0.88591,-0.0665982,-119.061,0.235892,
2,1,0,1,0,64242.3,0.239466,0.239116,45.4992,33,0.010609,10,0.0108796,-1.342,-0.813185,-0.0725542,-128.617,0.239116,
2,1,0,1,0,64242.3,0.242662,0.242353,45.0488,33,0.01079,10,0.0109177,-1.34632,-0.74217,-0.0794966,-139.58,0.242353,
2,1,0,1,0,64242.3,0.245869,0.245567,44.6001,33,0.0109693,10,0.0109523,-1.35066,-0.681096,-0.0866251,-150.533,0.245567,
2,1,0,1,0,64242.3,0.249065,0.24871,44.1007,33,0.0111466,10,0.0109683,-1.35555,-0.641221,-0.0920119,-158.112,0.24871,
2,1,0,1,0,64242.3,0.252261,0.251937,43.5691,33,0.0113219,10,0.0109767,-1.36082,-0.601811,-0.0980373,-166.54,0.251937,
2,1,0,1,0,64242.3,0.255466,0.255133,43.0282,33,0.0114951,10,0.0109779,-1.36625,-0.575963,-0.102437,-171.876,0.255133,
2,1,0,1,0,64242.4,0.258662,0.258346,42.4719,33,0.011666,10,0.0109725,-1.3719,-0.556437,-0.106032,-175.6,0.258346,
2,1,0,1,0,64242.4,0.261866,0.261496,41.9031,33,0.0118347,10,0.0109575,-1.37775,-0.532256,-0.110849,-181.099,0.261496,
2,1,0,1,0,64242.4,0.265063,0.26474,41.3209,33,0.0120011,10,0.0109393,-1.38383,-0.520681,-0.113313,-182.629,0.26474,
2,1,0,1,0,64242.4,0.268259,0.267894,40.7172,33,0.0121652,10,0.0109079,-1.39022,-0.510931,-0.115475,-183.493,0.267894,
2,1,0,1,0,64242.4,0.271466,0.271086,40.1453,33,0.0123268,10,0.0108828,-1.39637,-0.505979,-0.116606,-182.676,0.271086,
2,1,0,1,0,64242.4,0.274662,0.27431,39.5518,33,0.0124862,10,0.0108495,-1.40283,-0.503486,-0.117183,-180.857,0.27431,
2,1,0,1,0,64242.4,0.277869,0.277523,38.9857,33,0.0126432,10,0.0108194,-1.40909,-0.497327,-0.118634,-180.452,0.277523,
2,1,0,1,0,64242.4,0.281065,0.280715,38.3983,33,0.0127979,10,0.010779,-1.41569,-0.496765,-0.118768,-177.995,0.280715,
2,1,0,1,0,64242.4,0.284262,0.283926,37.8282,33,0.0129503,10,0.0107404,-1.42218,-0.493333,-0.119595,-176.643,0.283926,
2,1,0,1,0,64242.4,0.287469,0.287115,37.2727,33,0.0131004,10,0.0107015,-1.42861,-0.498729,-0.118301,-172.131,0.2871148,
2,1,0,1,0,64242.4,0.290665,0.290298,36.7291,33,0.0132484,10,0.0106624,-1.43499,-0.506902,-0.116393,-166.914,0.290298,
2,1,0,1,0,64242.4,0.293861,0.29355,36.189,33,0.0133941,10,0.0106233,-1.44142,-0.509384,-0.115826,-163.933,0.2935504,
2,1,0,1,0,64242.4,0.297066,0.296778,35.683,33,0.0135378,10,0.0105899,-1.44754,-0.510256,-0.115628,-162.295,0.296778,
2,1,0,1,0,64242.4,0.299638,0.299288,35.277,33,0.0136514,10,0.010558,-1.45251,-0.141037,-0.418329,-566.298,0.299288,
2,1,0,1,0,64242.4,0.300012,0.299651,35.2112,33,0.013669,10,0.0105511,-1.45332,0.0133106,4.43256,5554.32,0.299651,
2,1,0,1,0,64242.4,0.298983,0.298781,33.2267,33,0.0137127,10,0.00992752,-1.47851,0.048519,1.21602,1425.66,0.298781,
2,1,0,1,0,64242.4,0.295786,0.295535,28.7801,33,0.0138358,10,0.00850553,-1.54091,0.0534456,1.10393,1219.89,0.295535,
2,1,0,1,0,64242.4,0.292579,0.292326,25.3505,33,0.0139435,10,0.00741061,-1.59601,0.0567952,1.03882,1050.15,0.292326,
2,1,0,1,0,64242.4,0.289383,0.289136,22.384,33,0.0140386,10,0.00647201,-1.65006,0.0583624,1.01092,890.692,0.289136,
2,1,0,1,0,64242.4,0.286187,0.285942,19.7434,33,0.0141225,10,0.00564547,-1.70458,0.0572176,1.03115,797.495,0.285942,
2,1,0,1,0,64242.4,0.282983,0.282686,17.3347,33,0.0141964,10,0.00490027,-1.76108,0.0554749,1.06354,720.112,0.282686,
2,1,0,1,0,64242.4,0.279786,0.27954,15.1543,33,0.0142611,10,0.00423624,-1.81946,0.0527548,1.11838,659.546,0.27954,
2,1,0,1,0,64242.4,0.276582,0.276289,13.1328,33,0.0143174,10,0.00362846,-1.88164,0.0491478,1.20046,611.15,0.276289,
2,1,0,1,0,64242.4,0.273386,0.27309,11.2668,33,0.014366,10,0.00307686,-1.9482,0.0454435,1.29831,564.352,0.27309,
2,1,0,1,0,64242.4,0.27019,0.269913,9.52871,33,0.0144074,10,0.00257192,-2.02097,0.0408775,1.44334,527.192,0.2699129,
2,1,0,1,0,64242.4,0.266982,0.266691,7.90298,33,0.014442,10,0.00210766,-2.10221,0.0359156,1.64274,493.276,0.266691,
2,1,0,1,0,64242.4,0.263786,0.263496,6.38859,33,0.0144704,10,0.00168337,-2.19459,0.0305981,1.92822,460.079,0.2634964,
2,1,0,1,0,64242.5,0.260585,0.260326,4.97063,33,0.014493,10,0.00129398,-2.30359,0.0246976,2.3889,429.513,0.260326,
2,1,0,1,0,64242.5,0.257383,0.257097,3.63231,33,0.01451,10,0.000933856,-2.43982,0.0176051,3.3513,405.022,0.257097,
2,1,0,1,0,64242.5,0.254187,0.253848,2.38647,33,0.0145219,10,0.000605799,-2.62224,0.00726029,8.1264,381.212,0.253848,
2,1,0,1,0,64242.5,0.25098,0.25067,1.19352,33,0.014529,10,0.000299179,-2.92317,0.0223311,2.64206,358.752,0.25067,
2,1,0,1,0,64242.5,0.247783,0.247511,0.0853732,33,0.0145314,10,2.11308e-05,-4.06868,0.148932,0.396155,341.748,0.247511,
2,0,0,1,0,64242.5,0.244587,0.244273,-0.968143,33,0.0145295,10,-0.000236492,-3.01406,-0.0331292,-1.78091,320.142,0.244273,
2,0,0,1,0,64242.5,0.241383,0.241128,-1.96042,33,0.0145235,10,-0.000472713,-2.70765,-0.00777662,-7.58684,303.41,0.241128,
2,0,0,1,0,64242.5,0.238187,0.237861,-2.90709,33,0.0145137,10,-0.000691483,-2.53654,-0.0187719,-3.143,288.183,0.237861,
2,0,0,1,0,64242.5,0.234982,0.234686,-3.80573,33,0.0145002,10,-0.000893152,-2.41956,-0.0288579,-2.0445,272.518,0.234686,
2,0,0,1,0,64242.5,0.231786,0.231463,-4.65999,33,0.0144831,10,-0.00107861,-2.33162,-0.0385473,-1.53059,260.601,0.231463,
2,0,0,1,0,64242.5,0.22859,0.228298,-5.4568,33,0.0144628,10,-0.00124578,-2.26306,-0.0486798,-1.212,247.32,0.228298,
2,0,0,1,0,64242.5,0.225383,0.225079,-6.23813,33,0.0144393,10,-0.00140407,-2.20495,-0.058831,-1.00287,236.832,0.2250789,
2,0,0,1,0,64242.5,0.222187,0.221898,-6.96857,33,0.0144128,10,-0.00154631,-2.15686,-0.069462,-0.849385,225.543,0.221898,
2,0,0,1,0,64242.5,0.218979,0.218649,-7.69475,33,0.0143834,10,-0.00168245,-2.11381,-0.0801908,-0.735746,216.344,0.218649,
2,0,0,1,0,64242.5,0.215783,0.215442,-8.35647,33,0.0143512,10,-0.00180033,-2.07798,-0.0912357,-0.646676,207.534,0.215442,
2,0,0,1,0,64242.5,0.212587,0.212317,-8.99911,33,0.0143164,10,-0.00191066,-2.0458,-0.103314,-0.571074,198.365,0.212317,
2,0,0,1,0,64242.5,0.20938,0.209122,-9.61998,33,0.0142791,10,-0.00201175,-2.01683,-0.114711,-0.514335,191.156,0.209122,
2,0,0,1,0,64242.5,0.206184,0.205889,-10.2259,33,0.0142394,10,-0.00210539,-1.9903,-0.127129,-0.464095,183.544,0.205889,
2,0,0,1,0,64242.5,0.202988,0.202693,-10.7936,33,0.0141973,10,-0.00218778,-1.96684,-0.140722,-0.419265,175.217,0.202693,
2,0,0,1,0,64242.5,0.199783,0.199454,-11.36,33,0.0141529,10,-0.0022658,-1.94462,-0.152819,-0.386077,169.968,0.1994542,
2,0,0,1,0,64242.5,0.196587,0.196246,-11.876,33,0.0141064,10,-0.00233062,-1.92533,-0.165643,-0.356187,164.204,0.196246,
2,0,0,1,0,64242.5,0.193382,0.193066,-12.4053,33,0.0140578,10,-0.00239504,-1.90639,-0.179146,-0.329341,158.685,0.1930663,
2,0,0,1,0,64242.5,0.190186,0.189903,-12.8937,33,0.0140071,10,-0.00244855,-1.88962,-0.190169,-0.310251,155.518,0.1899031,
2,0,0,1,0,64242.5,0.18699,0.186677,-13.3875,33,0.0139545,10,-0.00249914,-1.8733,-0.204858,-0.288004,149.964,0.186677,
2,0,0,1,0,64242.5,0.183783,0.183466,-13.8635,33,0.0138999,10,-0.00254349,-1.85813,-0.216092,-0.273031,147.222,0.183466,
2,0,0,1,0,64242.6,0.180587,0.180265,-14.325,33,0.0138435,10,-0.0025823,-1.84391,-0.229645,-0.256918,143.26,0.180265,
2,0,0,1,0,64242.6,0.17738,0.177075,-14.7822,33,0.0137852,10,-0.00261756,-1.83026,-0.240859,-0.244956,140.975,0.177075,
2,0,0,1,0,64242.6,0.174183,0.173832,-15.2278,33,0.0137251,10,-0.00264707,-1.81736,-0.249509,-0.236464,140.319,0.173832,
2,0,0,1,0,64242.6,0.170987,0.170678,-15.6664,33,0.0136633,10,-0.00267391,-1.80503,-0.262293,-0.224939,137.317,0.170678,
2,0,0,1,0,64242.6,0.16778,0.167469,-16.1205,33,0.0135997,10,-0.00269969,-1.79262,-0.269365,-0.219034,137.513,0.167469,
2,0,0,1,0,64242.6,0.164584,0.164312,-16.5348,33,0.0135344,10,-0.00271687,-1.7816,-0.27914,-0.211364,136.306,0.164312,
2,0,0,1,0,64242.6,0.161382,0.161108,-16.9775,33,0.0134673,10,-0.0027352,-1.77013,-0.287182,-0.205445,136.12,0.161108,
2,0,0,1,0,64242.6,0.158183,0.157865,-17.4129,33,0.0133985,10,-0.00274888,-1.75913,-0.288484,-0.204517,138.982,0.157865,
2,0,0,1,0,64242.6,0.154987,0.154664,-17.8636,33,0.0133279,10,-0.00276285,-1.74803,-0.292368,-0.201801,140.699,0.1546637,
2,0,0,1,0,64242.6,0.151783,0.151459,-18.3211,33,0.0132555,10,-0.0027749,-1.73705,-0.291229,-0.20259,144.879,0.151459,
2,0,0,1,0,64242.6,0.148587,0.148275,-18.783,33,0.0131812,10,-0.00278505,-1.72623,-0.28769,-0.205082,150.537,0.148275,
2,0,0,1,0,64242.6,0.145385,0.145069,-19.2667,33,0.0131051,10,-0.00279501,-1.71519,-0.285567,-0.206606,155.622,0.145069,
2,0,0,1,0,64242.6,0.142183,0.141894,-19.7859,33,0.0130269,10,-0.0028075,-1.70365,-0.27639,-0.213466,165.139,0.141894,
2,0,0,1,0,64242.6,0.138987,0.138656,-20.3136,33,0.0129467,10,-0.0028166,-1.69221,-0.270584,-0.218047,173.21,0.1386558,
2,0,0,1,0,64242.6,0.13578,0.135459,-20.8995,33,0.0128642,10,-0.00283102,-1.67986,-0.264447,-0.223107,182.273,0.135459,
2,0,0,1,0,64242.6,0.132584,0.132277,-21.4824,33,0.0127794,10,-0.00284163,-1.66792,-0.253852,-0.232419,195.365,0.132277,
2,0,0,1,0,64242.6,0.129388,0.129061,-22.125,33,0.0126921,10,-0.00285548,-1.65512,-0.247118,-0.238752,206.836,0.129061,
2,0,0,1,0,64242.6,0.12618,0.125872,-22.8112,33,0.0126022,10,-0.00287128,-1.64185,-0.238434,-0.247448,220.874,0.125872,
2,0,0,1,0,64242.6,0.122984,0.122647,-23.5494,33,0.0125094,10,-0.00288826,-1.62802,-0.230676,-0.25577,235.546,0.122647,
2,0,0,1,0,64242.6,0.119783,0.119433,-24.3194,33,0.0124136,10,-0.00290454,-1.61405,-0.227328,-0.259537,246.654,0.119433,
2,0,0,1,0,64242.6,0.116584,0.116289,-25.1335,33,0.0123146,10,-0.00292274,-1.59975,-0.224275,-0.26307,258.381,0.116289,
2,0,0,1,0,64242.6,0.113387,0.113107,-25.9595,33,0.0122124,10,-0.00293622,-1.5857,-0.222235,-0.265484,269.357,0.113107,
2,0,0,1,0,64242.6,0.110183,0.109849,-26.8562,33,0.0121067,10,-0.00295012,-1.57096,-0.22325,-0.264277,277.078,0.109849,
2,0,0,1,0,64242.6,0.106987,0.106695,-27.7504,33,0.0119974,10,-0.00296083,-1.55673,-0.227054,-0.25985,281.17,0.106695,
2,0,0,1,0,64242.6,0.103785,0.103514,-28.6731,33,0.0118845,10,-0.00296806,-1.54253,-0.232972,-0.25325,282.956,0.103514,
2,0,0,1,0,64242.7,0.100583,0.100266,-29.5702,33,0.0117679,10,-0.00296488,-1.52915,-0.239992,-0.245841,283.312,0.100266,
2,0,0,1,0,64242.7,0.0973873,0.0970486,-30.4781,33,0.0116477,10,-0.00295786,-1.51601,-0.248999,-0.236949,281.48,0.0970486,
2,0,0,1,0,64242.7,0.0941801,0.093878,-31.3816,33,0.0115239,10,-0.00294605,-1.50332,-0.257092,-0.22949,280.564,0.093878,
2,0,0,1,0,64242.7,0.0909839,0.0907148,-32.2758,33,0.0113965,10,-0.00292789,-1.49112,-0.268429,-0.219797,276.293,0.0907148,
2,0,0,1,0,64242.7,0.0877878,0.0875071,-33.1498,33,0.0112655,10,-0.00290085,-1.47952,-0.285136,-0.206919,266.884,0.0875071,
2,0,0,1,0,64242.7,0.0845806,0.0842824,-34.0053,33,0.0111311,10,-0.00286605,-1.46845,-0.302049,-0.195332,258.422,0.0842824,
2,0,0,1,0,64242.7,0.0813844,0.0811648,-34.7746,33,0.0109934,10,-0.00282247,-1.45874,-0.315588,-0.186952,253.492,0.0811648,
2,0,0,1,0,64242.7,0.0781827,0.0779422,-35.5765,33,0.0108527,10,-0.00277291,-1.44884,-0.334161,-0.176562,244.943,0.0779422,
2,0,0,1,0,64242.7,0.0749839,0.0747377,-36.3868,33,0.0107087,10,-0.00271946,-1.43906,-0.350704,-0.168233,238.208,0.0747377,
2,0,0,1,0,64242.7,0.0717877,0.0715056,-37.1349,33,0.0105615,10,-0.00265535,-1.43022,-0.371908,-0.158642,229.233,0.0715056,
2,0,0,1,0,64242.7,0.0685832,0.068336,-37.8305,33,0.0104115,10,-0.00258518,-1.42216,-0.404244,-0.145951,215.005,0.068336,
2,0,0,1,0,64242.7,0.0653871,0.0651336,-38.5127,33,0.0102587,10,-0.00250847,-1.4144,-0.434536,-0.135777,203.612,0.0651336,
2,0,0,1,0,64242.7,0.0621854,0.0619343,-39.1396,33,0.0101034,10,-0.00242408,-1.40738,-0.467136,-0.126301,192.485,0.0619343,
2,0,0,1,0,64242.7,0.0589837,0.0586895,-39.7444,33,0.00994551,10,-0.00233258,-1.40072,-0.505544,-0.116706,180.632,0.0586895,
2,0,0,1,0,64242.7,0.0557876,0.0555273,-40.296,33,0.00978536,10,-0.00223753,-1.39474,-0.546958,-0.107869,169.296,0.0555273,
2,0,0,1,0,64242.7,0.0525804,0.0523207,-40.8271,33,0.00962303,10,-0.0021361,-1.38905,-0.58755,-0.100417,159.71,0.0523207,
2,0,0,1,0,64242.7,0.0493842,0.0491172,-41.3095,33,0.00945871,10,-0.002029,-1.38395,-0.630563,-0.0935671,150.647,0.0491172,
2,0,0,1,0,64242.7,0.0461881,0.0459497,-41.7791,33,0.00929249,10,-0.00191974,-1.37904,-0.677919,-0.087031,141.746,0.04594975,
2,0,0,1,0,64242.7,0.0429808,0.0426985,-42.2286,33,0.0091244,10,-0.0018031,-1.37439,-0.722493,-0.0816617,134.384,0.0426985,
2,0,0,1,0,64242.7,0.0397847,0.0394526,-42.6511,33,0.00895461,10,-0.0016827,-1.37007,-0.776327,-0.0759989,126.314,0.0394526,
2,0,0,1,0,64242.7,0.036583,0.0362757,-43.0352,33,0.00878319,10,-0.00156113,-1.36618,-0.846246,-0.0697197,116.93,0.0362757,
2,0,0,1,0,64242.7,0.0333841,0.0330722,-43.4057,33,0.00861027,10,-0.00143552,-1.36245,-0.913748,-0.0645692,109.227,0.0330722,
2,0,0,1,0,64242.7,0.030188,0.0298751,-43.728,33,0.00843596,10,-0.00130638,-1.35924,-0.998115,-0.0591114,100.754,0.0298751,
2,0,0,1,0,64242.7,0.0269835,0.0266769,-44.0465,33,0.00826036,10,-0.00117502,-1.35609,-1.10453,-0.0534166,91.7036,0.0266769,
2,0,0,1,0,64242.7,0.0237874,0.0235275,-44.3196,33,0.00808358,10,-0.00104273,-1.3534,-1.21056,-0.048738,84.1979,0.0235275,
2,0,0,1,0,64242.8,0.0205857,0.0202869,-44.5781,33,0.00790574,10,-0.00090435,-1.35088,-1.34847,-0.0437534,76.0422,0.0202869,
2,0,0,1,0,64242.8,0.017384,0.0170441,-44.8084,33,0.00772693,10,-0.00076372,-1.34864,-1.47125,-0.040102,70.0644,0.0170441,
2,0,0,1,0,64242.8,0.0141879,0.0138438,-45.0224,33,0.00754724,10,-0.000623282,-1.34657,-1.64885,-0.0357825,62.8135,0.0138438,
2,0,0,1,0,64242.8,0.0109806,0.0106838,-45.2195,33,0.00736672,10,-0.000483116,-1.34467,-1.87776,-0.0314205,55.3784,0.0106838,
2,0,0,1,0,64242.8,0.00778448,0.007457,-45.384,33,0.00718549,10,-0.000338429,-1.3431,-2.00768,-0.0293871,52.0189,0.007457,
2,0,0,1,0,64242.8,0.00458834,0.0042726,-45.5156,33,0.00700366,10,-0.00019447,-1.34184,-2.45949,-0.0239887,42.5912,0.0042726,
2,0,0,1,0,64242.8,0.0013811,0.000964131,-45.6924,33,0.00682125,10,-4.40534e-05,-1.34016,-2.84147,-0.0207639,36.9689,0.000964131,
2,0,0,1,0,64242.8,-0.00181504,-0.00221285,-45.7687,33,0.00663832,10,0.000101279,-1.33943,-3.45381,-0.0170826,30.4748,-0.00221285,
2,0,0,1,0,64242.8,-0.0050195,-0.00538134,-45.8586,33,0.00645506,10,0.000246781,-1.33858,-5.49649,-0.0107341,19.1926,-0.00538134,
2,0,0,1,0,64242.8,-0.00821564,-0.00858377,-45.9074,33,0.00627152,10,0.000394059,-1.33812,-7.59332,-0.00776999,13.9058,-0.00858377,
2,0,0,1,0,64242.8,-0.0114118,-0.0117798,-45.937,33,0.00608783,10,0.00054113,-1.33784,-17.2905,-0.00341228,6.11223,-0.0117798,
2,0,0,1,0,64242.8,-0.0146162,-0.0149992,-45.9466,33,0.00590405,10,0.000689163,-1.33775,-106.531,-0.00055383,0.992392,-0.0149992,
2,0,0,1,0,64242.8,-0.0178124,-0.0181805,-45.9369,33,0.00572027,10,0.000835153,-1.33784,26.956,0.00218875,-3.92179,-0.0181805,
2,0,0,1,0,64242.8,-0.0210196,-0.0213649,-45.9201,33,0.00553653,10,0.000981077,-1.338,9.75919,0.00604558,-10.8243,-0.0213649,
2,0,0,1,0,64242.8,-0.0242158,-0.0245927,-45.8867,33,0.00535294,10,0.00112848,-1.33831,6.90734,0.00854164,-15.2805,-0.0245927,
2,0,0,1,0,64242.8,-0.0274119,-0.027809,-45.8079,33,0.00516954,10,0.00127387,-1.33906,4.91156,0.0120125,-21.463,-0.027809,
2,0,0,1,0,64242.8,-0.0306191,-0.0310167,-45.7407,33,0.00498645,10,0.00141873,-1.3397,4.12627,0.0142986,-25.5152,-0.0310167,
2,0,0,1,0,64242.8,-0.0338153,-0.0342244,-45.6441,33,0.00480368,10,0.00156214,-1.34062,3.80041,0.0155246,-27.6467,-0.0342244,
2,0,0,1,0,64242.8,-0.037017,-0.0373611,-45.5609,33,0.00462127,10,0.00170221,-1.34141,3.31937,0.0177745,-31.5892,-0.0373611,
2,0,0,1,0,64242.8,-0.0402187,-0.0406091,-45.454,33,0.00443924,10,0.00184585,-1.34243,3.11957,0.0189129,-33.5319,-0.0406091,
2,0,0,1,0,64242.8,-0.0434148,-0.0438009,-45.3369,33,0.00425769,10,0.0019858,-1.34355,2.87456,0.0205249,-36.3088,-0.04380095,
2,0,0,1,0,64242.8,-0.0466193,-0.047015,-45.2152,33,0.00407661,10,0.0021258,-1.34472,2.73583,0.0215657,-38.0513,-0.047015,
2,0,0,1,0,64242.8,-0.0498154,-0.0501623,-45.0961,33,0.003896,10,0.00226213,-1.34586,2.7436,0.0215046,-37.846,-0.05016233,
2,0,0,1,0,64242.8,-0.0530115,-0.0533637,-44.9687,33,0.00371589,10,0.0023997,-1.34709,2.64539,0.0223029,-39.1377,-0.0533637,
2,0,0,1,0,64242.8,-0.056216,-0.0565725,-44.8535,33,0.00353625,10,0.00253748,-1.3482,2.70551,0.0218074,-38.1714,-0.0565725,
2,0,0,1,0,64242.9,-0.0594121,-0.0598057,-44.7146,33,0.00335711,10,0.00267419,-1.34955,2.69231,0.0219143,-38.2494,-0.0598057,
2,0,0,1,0,64242.9,-0.0626194,-0.062988,-44.6066,33,0.0031785,10,0.00280968,-1.3506,2.72852,0.0216234,-37.6467,-0.062988,
2,0,0,1,0,64242.9,-0.0658155,-0.0661713,-44.4788,33,0.00300034,10,0.00294322,-1.35185,2.96769,0.0198808,-34.5224,-0.0661713,
2,0,0,1,0,64242.9,-0.0690117,-0.0694501,-44.3687,33,0.00282265,10,0.00308141,-1.35292,2.96143,0.0199228,-34.5109,-0.0694501,
2,0,0,1,0,64242.9,-0.0722189,-0.0725518,-44.2746,33,0.00264537,10,0.0032122,-1.35385,3.2059,0.0184036,-31.7995,-0.0725518,
2,0,0,1,0,64242.9,-0.075415,-0.075769,-44.1655,33,0.00246851,10,0.00334638,-1.35492,3.44931,0.0171049,-29.4924,-0.075769,
2,0,0,1,0,64242.9,-0.0786167,-0.0790001,-44.0709,33,0.00229206,10,0.0034816,-1.35585,3.53191,0.0167049,-28.7441,-0.0790001,
2,0,0,1,0,64242.9,-0.0818184,-0.0822206,-43.9921,33,0.00211596,10,0.00361706,-1.35663,4.23769,0.0139227,-23.9143,-0.0822206,
2,0,0,1,0,64242.9,-0.0850145,-0.0853636,-43.9063,33,0.00194018,10,0.003748,-1.35747,4.54065,0.0129937,-22.2762,-0.0853636,
2,0,0,1,0,64242.9,-0.088219,-0.0885883,-43.8589,33,0.00176467,10,0.00388539,-1.35794,5.10104,0.0115663,-19.8007,-0.0885883,
2,0,0,1,0,64242.9,-0.0914152,-0.0917833,-43.7861,33,0.00158938,10,0.00401883,-1.35866,6.17132,0.00956035,-16.3428,-0.0917833,
2,0,0,1,0,64242.9,-0.0946141,-0.0949889,-43.7393,33,0.00141434,10,0.00415475,-1.35913,7.24757,0.00814066,-13.9059,-0.09498892,
2,0,0,1,0,64242.9,-0.0978158,-0.0981807,-43.6969,33,0.00123945,10,0.00429019,-1.35955,10.5319,0.00560201,-9.55949,-0.0981807,
2,0,0,1,0,64242.9,-0.101012,-0.101393,-43.6809,33,0.00106469,10,0.00442892,-1.35971,15.6733,0.00376437,-6.41976,-0.101393,
2,0,0,1,0,64242.9,-0.104219,-0.104617,-43.6634,33,0.000890006,10,0.00456795,-1.35988,27.1273,0.00217493,-3.70701,-0.1046174,
2,0,0,1,0,64242.9,-0.107415,-0.107813,-43.6569,33,0.000715367,10,0.00470681,-1.35995,535.632,0.00011015,-0.187771,-0.107813,
2,0,0,1,0,64242.9,-0.110611,-0.110953,-43.6495,33,0.000540751,10,0.00484306,-1.36002,-35.6421,-0.00165535,2.82195,-0.110953,
2,0,0,1,0,64242.9,-0.113819,-0.114166,-43.6785,33,0.000366084,10,0.00498661,-1.35973,-14.3866,-0.00410104,6.99447,-0.114166,
2,0,0,1,0,64242.9,-0.117015,-0.117367,-43.6994,33,0.000191329,10,0.00512885,-1.35952,-10.016,-0.00589056,10.0494,-0.117367,
2,0,0,1,0,64242.9,-0.120216,-0.12056,-43.7461,33,1.64589e-05,10,0.00527401,-1.35906,-7.96518,-0.00740724,12.65,-0.12056,
2,0,0,1,0,64242.9,-0.123418,-0.123766,-43.7783,33,-0.000158589,10,0.00541827,-1.35874,-6.28911,-0.00938129,16.0369,-0.123766,
2,0,0,1,0,64242.9,-0.126614,-0.126971,-43.8404,33,-0.00033381,10,0.00556646,-1.35813,-5.34034,-0.011048,18.9141,-0.126971,
2,0,0,1,0,64242.9,-0.129819,-0.130162,-43.9046,33,-0.000509303,10,0.00571469,-1.35749,-4.56555,-0.0129229,22.1507,-0.130162,
2,0,0,1,0,64242.9,-0.133015,-0.133371,-43.9884,33,-0.000685081,10,0.0058668,-1.35666,-4.01875,-0.0146812,25.2113,-0.1333714,
2,0,0,1,0,64242.9,-0.136214,-0.136589,-44.0623,33,-0.000861178,10,0.00601841,-1.35593,-3.80761,-0.0154953,26.6533,-0.136589,
2,0,0,1,0,64243,-0.139416,-0.139788,-44.1636,33,-0.00103764,10,0.00617354,-1.35494,-3.4491,-0.0171059,29.4924,-0.139788,
2,0,0,1,0,64243,-0.142612,-0.142931,-44.2449,33,-0.00121447,10,0.00632397,-1.35414,-3.19335,-0.0184759,31.9183,-0.142931,
2,0,0,1,0,64243,-0.145819,-0.146205,-44.3669,33,-0.00139169,10,0.00648669,-1.35294,-3.06745,-0.0192342,33.3114,-0.1462055,
2,0,0,1,0,64243,-0.149015,-0.149374,-44.4704,33,-0.00156938,10,0.00664272,-1.35193,-2.8593,-0.0206344,35.8151,-0.149374,
2,0,0,1,0,64243,-0.152211,-0.152599,-44.5903,33,-0.00174751,10,0.00680443,-1.35076,-2.86601,-0.0205861,35.8286,-0.152599,
2,0,0,1,0,64243,-0.155418,-0.155773,-44.7048,33,-0.00192614,10,0.00696379,-1.34965,-2.7652,-0.0213366,37.2284,-0.155773,
2,0,0,1,0,64243,-0.158615,-0.158993,-44.8251,33,-0.00210522,10,0.00712687,-1.34848,-2.71941,-0.0216959,37.9603,-0.158993,
2,0,0,1,0,64243,-0.161816,-0.162155,-44.9462,33,-0.00228476,10,0.00728826,-1.34731,-2.7579,-0.0213931,37.5241,-0.162155,
2,0,0,1,0,64243,-0.165018,-0.165359,-45.0747,33,-0.0024648,10,0.00745349,-1.34607,-2.79868,-0.0210814,37.0736,-0.165359,
2,0,0,1,0,64243,-0.168214,-0.168546,-45.1842,33,-0.00264532,10,0.00761562,-1.34501,-2.93184,-0.0201239,35.4775,-0.168546,
2,0,0,1,0,64243,-0.171419,-0.171748,-45.2979,33,-0.0028263,10,0.00777981,-1.34392,-3.02486,-0.019505,34.4787,-0.171748,
2,0,0,1,0,64243,-0.174615,-0.17496,-45.4005,33,-0.00300771,10,0.00794325,-1.34294,-3.08643,-0.019116,33.8708,-0.17496,
2,0,0,1,0,64243,-0.177814,-0.178102,-45.5141,33,-0.00318954,10,0.00810612,-1.34185,-3.19622,-0.0184593,32.7841,-0.178102,
2,0,0,1,0,64243,-0.181015,-0.18137,-45.6185,33,-0.00337184,10,0.00827381,-1.34086,-3.30259,-0.0178648,31.7951,-0.18137,
2,0,0,1,0,64243,-0.184211,-0.184556,-45.7179,33,-0.00355453,10,0.00843752,-1.33991,-3.55187,-0.016611,29.6288,-0.1845562,
2,0,0,1,0,64243,-0.187419,-0.187756,-45.8074,33,-0.00373761,10,0.00860063,-1.33906,-3.86421,-0.0152683,27.2871,-0.187756,
2,0,0,1,0,64243,-0.190615,-0.19095,-45.8948,33,-0.00392103,10,0.00876362,-1.33824,-3.90086,-0.0151249,27.0885,-0.19095,
2,0,0,1,0,64243,-0.193811,-0.194198,-45.9686,33,-0.00410477,10,0.00892702,-1.33754,-4.38422,-0.0134573,24.1353,-0.194198,
2,0,0,1,0,64243,-0.197018,-0.197372,-46.065,33,-0.00428886,10,0.00909196,-1.33663,-7.60704,-0.00775598,13.912,-0.197372,
2,0,0,1,0,64243,-0.199647,-0.199983,-46.1025,33,-0.00444095,10,0.00921973,-1.33628,0.231445,0.254921,-445.633,-0.199983,
2,0,0,1,0,64243,-0.200134,-0.200475,-46.0273,33,-0.0044686,10,0.00922731,-1.33698,-0.0163918,-3.59936,5946.09,-0.200475,
2,0,0,1,1,64243,-0.198935,-0.199429,-43.6374,33,-0.00453511,10,0.00870259,-1.36014,-0.0592631,-0.99556,1568.81,-0.199429,
2,0,0,1,1,64243,-0.195739,-0.196151,-38.8014,33,-0.004699,10,0.00761092,-1.41115,-0.0682877,-0.863992,1302.63,-0.196151,
2,0,0,1,1,64243,-0.192535,-0.193,-35.1471,33,-0.00484632,10,0.0067834,-1.45411,-0.0746303,-0.790563,1111.69,-0.193,
2,0,0,1,1,64243,-0.189339,-0.189764,-32.0747,33,-0.00498033,10,0.00608662,-1.49384,-0.0809606,-0.72875,924.471,-0.189764,
2,0,0,1,1,64243,-0.186137,-0.186591,-29.3652,33,-0.00510285,10,0.00547929,-1.53217,-0.0839048,-0.703178,812.725,-0.186591,
2,0,0,1,1,64243.1,-0.182935,-0.183309,-26.9298,33,-0.00521513,10,0.00493647,-1.56977,-0.084457,-0.69858,737.843,-0.183309,
2,0,0,1,1,64243.1,-0.179739,-0.180142,-24.6967,33,-0.00531808,10,0.0044489,-1.60736,-0.0841724,-0.700942,677.449,-0.180142,
2,0,0,1,1,64243.1,-0.176532,-0.176928,-22.6036,33,-0.00541243,10,0.0039992,-1.64582,-0.0824332,-0.715731,632.701,-0.176928,
2,0,0,1,1,64243.1,-0.173336,-0.173758,-20.6715,33,-0.00549875,10,0.00359184,-1.68463,-0.080447,-0.733402,591.811,-0.173758,
2,0,0,1,1,64243.1,-0.17014,-0.170541,-18.8512,33,-0.00557761,10,0.0032149,-1.72466,-0.0774845,-0.761442,559.026,-0.170541,
2,0,0,1,1,64243.1,-0.166932,-0.167336,-17.1182,33,-0.00564934,10,0.0028645,-1.76654,-0.0740463,-0.796798,530.445,-0.167336,
2,0,0,1,1,64243.1,-0.163736,-0.164167,-15.4699,33,-0.00571434,10,0.00253964,-1.81051,-0.0702653,-0.839675,504.531,-0.164167,
2,0,0,1,1,64243.1,-0.160532,-0.160978,-13.8924,33,-0.00577289,10,0.00223637,-1.85722,-0.0659729,-0.894307,481.792,-0.160978,
2,0,0,1,1,64243.1,-0.157336,-0.157737,-12.3915,33,-0.0058253,10,0.00195461,-1.90688,-0.0610583,-0.966289,462.623,-0.157737,
2,0,0,1,1,64243.1,-0.154139,-0.15453,-10.9482,33,-0.00587182,10,0.00169182,-1.96066,-0.0557529,-1.05824,445.721,-0.15453,
2,0,0,1,1,64243.1,-0.150935,-0.151351,-9.54086,33,-0.00591264,10,0.00144402,-2.02041,-0.0499915,-1.1802,431.223,-0.151351,
2,0,0,1,1,64243.1,-0.147739,-0.148188,-8.1918,33,-0.00594795,10,0.00121393,-2.08662,-0.0441025,-1.33779,417.121,-0.148188,
2,0,0,1,1,64243.1,-0.144532,-0.144938,-6.87225,33,-0.00597794,10,0.000996052,-2.1629,-0.0378937,-1.55699,403.16,-0.144938,
2,0,0,1,1,64243.1,-0.141335,-0.141753,-5.61867,33,-0.00600278,10,0.000796462,-2.25037,-0.0313542,-1.88172,389.5,-0.141753,
2,0,0,1,1,64243.1,-0.138139,-0.138572,-4.3889,33,-0.00602266,10,0.000608177,-2.35764,-0.0239997,-2.45836,379.734,-0.138572,
2,0,0,1,1,64243.1,-0.134932,-0.135348,-3.19044,33,-0.00603767,10,0.000431819,-2.49615,-0.0159578,-3.69724,369.803,-0.135348,
2,0,0,1,1,64243.1,-0.131736,-0.132143,-2.0136,33,-0.00604795,10,0.000266084,-2.69603,-0.00991226,-5.95223,359.352,-0.132143,
2,0,0,1,1,64243.1,-0.12854,-0.128957,-0.886696,33,-0.00605364,10,0.000114346,-3.05223,-0.0327131,-1.80356,351.333,-0.128957,
2,0,0,1,1,64243.1,-0.125333,-0.125739,0.222685,33,-0.00605484,10,-2.80001e-05,-3.65231,0.183497,0.321532,342.965,-0.125739,
2,1,0,1,1,64243.1,-0.122136,-0.122572,1.29811,33,-0.00605169,10,-0.000159112,-2.88669,0.0218452,2.70083,336.201,-0.122572,
2,1,0,1,1,64243.1,-0.118932,-0.119381,2.36332,33,-0.00604426,10,-0.000282137,-2.62648,0.00982304,6.00629,328.999,-0.119381,
2,1,0,1,1,64243.1,-0.115736,-0.116195,3.4039,33,-0.00603261,10,-0.000395516,-2.46802,0.0206153,2.86196,321.576,-0.116195,
2,1,0,1,1,64243.1,-0.11254,-0.112996,4.41509,33,-0.00601687,10,-0.000498886,-2.35506,0.0296293,1.99127,314.286,-0.112996,
2,1,0,1,1,64243.1,-0.109335,-0.109802,5.40479,33,-0.0059971,10,-0.000593455,-2.26722,0.038321,1.53962,307.963,-0.109802,
2,1,0,1,1,64243.1,-0.106139,-0.106605,6.37891,33,-0.00597342,10,-0.000680021,-2.19525,0.0466443,1.26489,303.733,-0.106605,
2,1,0,1,1,64243.2,-0.102932,-0.103389,7.34751,33,-0.00594587,10,-0.000759656,-2.13386,0.055158,1.06965,298.201,-0.103389,
2,1,0,1,1,64243.2,-0.0997357,-0.100219,8.29584,33,-0.00591448,10,-0.000831399,-2.08114,0.0637385,0.925657,293.122,-0.100219,
2,1,0,1,1,64243.2,-0.0965395,-0.0970079,9.21992,33,-0.00587934,10,-0.000894405,-2.03527,0.0727876,0.810577,286.605,-0.0970079,
2,1,0,1,1,64243.2,-0.0933323,-0.093779,10.1384,33,-0.00584052,10,-0.000950767,-1.99403,0.0817185,0.721991,281.586,-0.093779,
2,1,0,1,1,64243.2,-0.0901362,-0.0905766,11.0197,33,-0.0057981,10,-0.000998131,-1.95783,0.0907399,0.65021,276.594,-0.0905766,
2,1,0,1,1,64243.2,-0.0869345,-0.08739,11.9083,33,-0.00575216,10,-0.00104066,-1.92415,0.099829,0.591011,272.081,-0.08739,
2,1,0,1,1,64243.2,-0.0837328,-0.0841632,12.7727,33,-0.00570269,10,-0.00107499,-1.89372,0.108492,0.543821,268.671,-0.0841632,
2,1,0,1,1,64243.2,-0.0805366,-0.0809629,13.6254,33,-0.00564982,10,-0.00110315,-1.86565,0.119086,0.495441,261.4,-0.0809629,
2,1,0,1,1,64243.2,-0.0773322,-0.0777965,14.4534,33,-0.00559358,10,-0.00112442,-1.84003,0.128548,0.458973,257.131,-0.0777965,
2,1,0,1,1,64243.2,-0.074136,-0.0745326,15.2692,33,-0.00553404,10,-0.00113805,-1.81618,0.138928,0.424679,251.625,-0.0745326,
2,1,0,1,1,64243.2,-0.0709371,-0.0713673,16.0629,33,-0.0054713,10,-0.00114637,-1.79418,0.148865,0.396332,247.263,-0.0713673,
2,1,0,1,1,64243.2,-0.0677354,-0.0681362,16.8529,33,-0.00540537,10,-0.00114829,-1.77333,0.158575,0.372063,243.617,-0.0681362,
2,1,0,1,1,64243.2,-0.0645393,-0.0649773,17.6231,33,-0.00533634,10,-0.0011451,-1.75392,0.170218,0.346615,237.315,-0.0649773,
2,1,0,1,1,64243.2,-0.0613321,-0.0617547,18.3821,33,-0.00526426,10,-0.00113518,-1.7356,0.180632,0.326631,233.349,-0.0617547,
2,1,0,1,1,64243.2,-0.0581359,-0.0585183,19.1122,33,-0.00518919,10,-0.00111841,-1.71869,0.192619,0.306303,227.757,-0.0585183,
2,1,0,1,1,64243.2,-0.0549398,-0.0553371,19.8396,33,-0.00511121,10,-0.00109786,-1.70247,0.203171,0.290395,224.223,-0.05533712,
2,1,0,1,1,64243.2,-0.0517325,-0.0520933,20.5575,33,-0.00503032,10,-0.00107091,-1.68703,0.213891,0.275841,220.609,-0.0520933,
2,1,0,1,1,64243.2,-0.0485364,-0.0489344,21.2567,33,-0.00494663,10,-0.00104018,-1.6725,0.225759,0.26134,216.126,-0.0489344,
2,1,0,1,1,64243.2,-0.0453347,-0.0457076,21.9383,33,-0.00486017,10,-0.00100275,-1.6588,0.238562,0.247315,211.137,-0.0457076,
2,1,0,1,1,64243.2,-0.042133,-0.0425603,22.601,33,-0.00477102,10,-0.000961904,-1.64587,0.250539,0.235492,207.301,-0.0425603,
2,1,0,1,1,64243.2,-0.0389369,-0.0393515,23.2478,33,-0.00467925,10,-0.000914835,-1.63362,0.263106,0.224244,203.115,-0.0393515,
2,1,0,1,1,64243.2,-0.0357324,-0.0361491,23.9071,33,-0.00458488,10,-0.00086422,-1.62147,0.277382,0.212703,197.953,-0.0361491,
2,1,0,1,1,64243.2,-0.0325363,-0.0329583,24.5279,33,-0.00448794,10,-0.000808398,-1.61034,0.291688,0.202271,193.116,-0.0329583,
2,1,0,1,1,64243.2,-0.0293374,-0.0297495,25.1369,33,-0.00438855,10,-0.00074781,-1.59969,0.308856,0.191028,187.027,-0.0297495,
2,1,0,1,1,64243.2,-0.0261357,-0.0265428,25.7213,33,-0.00428676,10,-0.000682717,-1.58971,0.322636,0.182868,183.323,-0.0265428,
2,1,0,1,1,64243.3,-0.0229395,-0.0233309,26.3045,33,-0.00418264,10,-0.000613706,-1.57997,0.33793,0.174592,178.971,-0.0233309,
2,1,0,1,1,64243.3,-0.0197323,-0.0201157,26.8822,33,-0.0040762,10,-0.000540755,-1.57053,0.355076,0.166162,173.939,-0.0201157,
2,1,0,1,1,64243.3,-0.0165361,-0.0169451,27.4285,33,-0.00396752,10,-0.000464779,-1.5618,0.369907,0.1595,170.429,-0.0169451,
2,1,0,1,1,64243.3,-0.01334,-0.0137013,27.955,33,-0.00385668,10,-0.00038302,-1.55354,0.389728,0.151388,164.959,-0.0137013,
2,1,0,1,1,64243.3,-0.0101328,-0.0105498,28.4827,33,-0.00374373,10,-0.000300486,-1.54542,0.407465,0.144798,160.749,-0.0105498,
2,1,0,1,1,64243.3,-0.00693663,-0.00736855,28.985,33,-0.00362874,10,-0.000213577,-1.53783,0.42179,0.13988,157.935,-0.00736855,
2,1,0,1,1,64243.3,-0.00373494,-0.00413006,29.4885,33,-0.00351174,10,-0.00012179,-1.53035, , , ,-0.004130064,
2,1,0,1,1,64243.3,-0.000774628,-0.00120175,29.9291,33,-0.00340179,10,-3.59673e-05,-1.52391, , , ,-0.00120175,
2,1,0,0,1,64243.3,-0.000125413,-0.000592546,30.0428,33,-0.00337782,10,-1.78017e-05,-1.52226, , , ,-0.000592546,