File: Figure_codes/Fig_3-5/rawdata_trumpetplot_data/after 10th/20221101_1-115_003_TrumpetPlot_ParaChange_from10_every3_12_CV_C01_20.csv
mode,ox/red,error,control changes,counter inc.,time/s,control/V,Ewe/V,<I>/mA,cycle number,(Q-Qo)/C,I Range,P/W,log(|I|),Tafel slope mV/dec,alpha_eff,dI/d(E-IR),E-IR/V,
2,1,0,1,0,40599.1,2.44065e-05,-0.000229887,14.9866,21,0.0000000E+000,10,-3.44523e-06,-1.8243, , , ,-0.000229887,
2,1,0,1,0,40599.1,0.00200257,0.00161416,15.8565,21,4.81854e-05,10,2.55949e-05,-1.79979, , , ,0.00161416,
2,1,0,1,0,40599.1,0.004408,0.00407748,16.6298,21,0.000113301,10,6.78076e-05,-1.77911, , , ,0.00407748,
2,1,0,1,0,40599.1,0.0068051,0.00646552,17.2479,21,0.000181149,10,0.000111517,-1.76326,0.153599,0.384117,255.785,0.00646552,
2,1,0,1,0,40599.1,0.00920221,0.00882386,17.8107,21,0.000251344,10,0.000157159,-1.74932,0.178174,0.331137,228.745,0.00882386,
2,1,0,1,0,40599.1,0.0115993,0.0112787,18.3285,21,0.00032369,10,0.000206722,-1.73687,0.196953,0.299563,213.355,0.0112787,
2,1,0,1,0,40599.2,0.0140075,0.0136339,18.8157,21,0.000398032,10,0.000256531,-1.72548,0.21871,0.269764,197.346,0.0136339,
2,1,0,1,0,40599.2,0.0164046,0.0160325,19.2891,21,0.000474299,10,0.000309253,-1.71469,0.23606,0.249936,187.418,0.0160325,
2,1,0,1,0,40599.2,0.0188017,0.0184534,19.7111,21,0.000552348,10,0.000363736,-1.70529,0.25772,0.228931,175.586,0.0184534,
2,1,0,1,0,40599.2,0.0212099,0.0208786,20.1277,21,0.00063206,10,0.000420238,-1.69621,0.279619,0.211001,165.317,0.0208786,
2,1,0,1,0,40599.2,0.023607,0.0233069,20.5142,21,0.000713385,10,0.000478122,-1.68795,0.293292,0.201165,160.74,0.0233069,
2,1,0,1,0,40599.2,0.0260041,0.0256758,20.8833,21,0.000796215,10,0.000536197,-1.6802,0.309745,0.190479,155.09,0.0256758,
2,1,0,1,0,40599.2,0.0284012,0.0280713,21.257,21,0.000880537,10,0.000596713,-1.6725,0.328248,0.179742,148.837,0.0280713,
2,1,0,1,0,40599.2,0.0308067,0.0304721,21.6156,21,0.00096633,10,0.000658671,-1.66523,0.342865,0.172079,144.835,0.0304721,
2,1,0,1,0,40599.2,0.0332038,0.0328675,21.9372,21,0.00105347,10,0.00072102,-1.65882,0.364331,0.16194,138.503,0.0328675,
2,1,0,1,0,40599.2,0.0356009,0.0352121,22.2645,21,0.0011419,10,0.000783979,-1.65239,0.381653,0.154591,134.264,0.0352121,
2,1,0,1,0,40599.2,0.0380091,0.037668,22.5862,21,0.00123164,10,0.000850777,-1.64616,0.389085,0.151638,133.576,0.037668,
2,1,0,1,0,40599.2,0.0404062,0.0400772,22.9052,21,0.00132266,10,0.000917977,-1.64007,0.409505,0.144077,128.646,0.0400772,
2,1,0,1,0,40599.2,0.0428033,0.0424547,23.2178,21,0.00141494,10,0.000985703,-1.63418,0.41834,0.141034,127.647,0.0424547,
2,1,0,1,0,40599.2,0.0452032,0.0448544,23.5049,21,0.0015084,10,0.0010543,-1.62884,0.436937,0.135031,123.81,0.0448544,
2,1,0,1,0,40599.2,0.0476058,0.0472318,23.807,21,0.00160306,10,0.00112445,-1.6233,0.449729,0.13119,121.837,0.0472318,
2,1,0,1,0,40599.2,0.0500029,0.0496728,24.0932,21,0.00169889,10,0.00119678,-1.6181,0.448389,0.131582,123.729,0.0496728,
2,1,0,1,0,40599.2,0.0524,0.0520354,24.3851,21,0.00179587,10,0.00126889,-1.61288,0.467736,0.12614,120.021,0.0520354,
2,1,0,1,0,40599.2,0.0548082,0.0544574,24.6931,21,0.00189404,10,0.00134472,-1.60742,0.468934,0.125817,121.13,0.0544574,
2,1,0,1,0,40599.2,0.0572053,0.0568645,24.9631,21,0.00199339,10,0.00141952,-1.6027,0.479578,0.123025,119.836,0.0568645,
2,1,0,1,0,40599.2,0.0596024,0.0592515,25.2535,21,0.00209384,10,0.00149631,-1.59768,0.486614,0.121246,119.535,0.0592515,
2,1,0,1,0,40599.2,0.0620051,0.0616904,25.5421,21,0.00219545,10,0.0015757,-1.59274,0.48361,0.121999,121.609,0.0616904,
2,1,0,1,0,40599.2,0.0644077,0.0640456,25.8393,21,0.00229824,10,0.00165489,-1.58772,0.492028,0.119912,120.873,0.0640456,
2,1,0,1,0,40599.2,0.0668048,0.0664485,26.1286,21,0.00240219,10,0.00173621,-1.58288,0.49352,0.119549,121.856,0.0664485,
2,1,0,1,0,40599.2,0.0692019,0.0688429,26.4128,21,0.00250731,10,0.00181834,-1.57818,0.508024,0.116136,119.712,0.0688429,
2,1,0,1,0,40599.2,0.0716074,0.0712097,26.7021,21,0.00261356,10,0.00190145,-1.57346,0.509574,0.115783,120.668,0.0712097,
2,1,0,1,0,40599.3,0.0740045,0.0736879,26.9935,21,0.00272099,10,0.0019891,-1.56874,0.504577,0.11693,123.216,0.0736879,
2,1,0,1,0,40599.3,0.0764016,0.0760632,27.2888,21,0.00282959,10,0.00207567,-1.56402,0.509755,0.115742,123.287,0.0760632,
2,1,0,1,0,40599.3,0.0788042,0.0784576,27.5975,21,0.00293939,10,0.00216524,-1.55913,0.509319,0.115841,124.718,0.0784576,
2,1,0,1,0,40599.3,0.0812069,0.0808795,27.8942,21,0.00305042,10,0.00225607,-1.55449,0.510466,0.115581,125.783,0.0808795,
2,1,0,1,0,40599.3,0.083604,0.0832729,28.189,21,0.0031626,10,0.00234738,-1.54992,0.515073,0.114547,126.063,0.0832729,
2,1,0,1,0,40599.3,0.0860011,0.0856153,28.4903,21,0.00327599,10,0.00243921,-1.5453,0.515867,0.11437,127.198,0.0856153,
2,1,0,1,0,40599.3,0.0884065,0.0880765,28.8101,21,0.00339063,10,0.0025375,-1.54045,0.516345,0.114265,128.432,0.0880765,
2,1,0,1,0,40599.3,0.0908036,0.0904285,29.1089,21,0.00350649,10,0.00263227,-1.53597,0.526575,0.112045,127.25,0.0904285,
2,1,0,1,0,40599.3,0.0932007,0.0928611,29.4204,21,0.00362359,10,0.00273201,-1.53135,0.527895,0.111765,128.313,0.0928611,
2,1,0,1,0,40599.3,0.0956034,0.0952756,29.7196,21,0.00374191,10,0.00283155,-1.52696,0.525895,0.11219,130.163,0.0952756,
2,1,0,1,0,40599.3,0.098006,0.0976075,30.0331,21,0.00386144,10,0.00293145,-1.5224,0.531077,0.111095,130.228,0.0976075,
2,1,0,1,0,40599.3,0.100403,0.100016,30.3567,21,0.00398225,10,0.00303615,-1.51774,0.529914,0.111339,131.867,0.100016,
2,1,0,1,0,40599.3,0.1028,0.102386,30.6608,21,0.00410431,10,0.00313922,-1.51342,0.532885,0.110718,132.506,0.102386,
2,1,0,1,0,40599.3,0.105208,0.104868,30.9845,21,0.00422764,10,0.00324929,-1.50886,0.543684,0.108519,131.223,0.104868,
2,1,0,1,0,40599.3,0.107606,0.107224,31.3074,21,0.00435226,10,0.00335691,-1.50435,0.539387,0.109383,133.628,0.107224,
2,1,0,1,0,40599.3,0.110003,0.109646,31.6205,21,0.00447814,10,0.00346707,-1.50003,0.54264,0.108728,134.188,0.109646,
2,1,0,1,0,40599.3,0.112408,0.112062,31.9538,21,0.00460532,10,0.0035808,-1.49548,0.553716,0.106553,132.83,0.112062,
2,1,0,1,0,40599.3,0.114805,0.114456,32.2711,21,0.00473381,10,0.00369363,-1.49119,0.556617,0.105998,133.446,0.114456,
2,1,0,1,0,40599.3,0.117202,0.11685,32.5859,21,0.00486356,10,0.00380765,-1.48697,0.561651,0.105047,133.599,0.11685,
2,1,0,1,0,40599.3,0.119599,0.119275,32.9054,21,0.00499458,10,0.00392478,-1.48273,0.566904,0.104074,133.645,0.119275,
2,1,0,1,0,40599.3,0.122008,0.121616,33.2302,21,0.0051269,10,0.00404133,-1.47847,0.554027,0.106493,138.153,0.121616,
2,1,0,1,0,40599.3,0.124405,0.123986,33.5447,21,0.00526048,10,0.00415908,-1.47438,0.540021,0.109255,143.2,0.123986,
2,1,0,1,0,40599.3,0.126802,0.126396,33.9048,21,0.00539541,10,0.00428545,-1.46974,0.535667,0.110143,145.834,0.126396,
2,1,0,1,0,40599.3,0.129207,0.128823,34.2726,21,0.0055318,10,0.00441509,-1.46505,0.524568,0.112474,150.403,0.128823,
2,1,0,1,0,40599.3,0.131604,0.131232,34.6325,21,0.00566964,10,0.00454489,-1.46052,0.523344,0.112736,152.386,0.131232,
2,1,0,1,0,40599.4,0.134001,0.133622,34.994,21,0.00580894,10,0.00467597,-1.45601,0.521802,0.11307,154.499,0.133622,
2,1,0,1,0,40599.4,0.136399,0.136049,35.3758,21,0.00594973,10,0.00481285,-1.45129,0.520459,0.113362,156.515,0.1360493,
2,1,0,1,0,40599.4,0.138807,0.138462,35.7619,21,0.00609206,10,0.00495165,-1.44658,0.519245,0.113627,158.538,0.138462,
2,1,0,1,0,40599.4,0.141204,0.140818,36.1329,21,0.00623589,10,0.00508816,-1.4421,0.51894,0.113693,160.355,0.140818,
2,1,0,1,0,40599.4,0.143601,0.143242,36.5191,21,0.00638122,10,0.00523108,-1.43748,0.521069,0.113229,161.411,0.143242,
2,1,0,1,0,40599.4,0.146009,0.145646,36.9147,21,0.00652813,10,0.00537647,-1.4328,0.521616,0.11311,162.929,0.145646,
2,1,0,1,0,40599.4,0.148406,0.148009,37.3028,21,0.00667661,10,0.00552114,-1.42826,0.527844,0.111775,162.692,0.148009,
2,1,0,1,0,40599.4,0.150803,0.150415,37.6965,21,0.00682665,10,0.0056701,-1.4237,0.536153,0.110043,161.85,0.150415,
2,1,0,1,0,40599.4,0.153206,0.152854,38.0829,21,0.00697826,10,0.0058211,-1.41927,0.547064,0.107849,160.236,0.152854,
2,1,0,1,0,40599.4,0.155606,0.15525,38.4691,21,0.0071314,10,0.00597233,-1.41489,0.558618,0.105618,158.504,0.15525,
2,1,0,1,0,40599.4,0.158003,0.157648,38.8474,21,0.00728608,10,0.0061242,-1.41064,0.567611,0.103944,157.544,0.157648,
2,1,0,1,0,40599.4,0.1604,0.160034,39.2211,21,0.00744226,10,0.0062767,-1.40648,0.589051,0.100161,153.242,0.160034,
2,1,0,1,0,40599.4,0.162808,0.162479,39.5993,21,0.00759994,10,0.00643404,-1.40231,0.610809,0.0965931,149.135,0.162479,
2,1,0,1,0,40599.4,0.165205,0.164884,39.9454,21,0.00775907,10,0.00658635,-1.39853,0.627422,0.0940356,146.507,0.164884,
2,1,0,1,0,40599.4,0.167602,0.16728,40.284,21,0.00791955,10,0.00673872,-1.39487,0.65839,0.0896126,140.831,0.16728,
2,1,0,1,0,40599.4,0.170008,0.169644,40.6291,21,0.00808141,10,0.00689249,-1.39116,0.686213,0.0859791,136.216,0.169644,
2,1,0,1,0,40599.4,0.172405,0.172036,40.9453,21,0.00824461,10,0.00704407,-1.3878,0.72587,0.0812817,129.746,0.172036,
2,1,0,1,0,40599.4,0.174802,0.17447,41.2512,21,0.00840903,10,0.00719709,-1.38456,0.783168,0.075335,121.157,0.17447,
2,1,0,1,0,40599.4,0.177199,0.176843,41.5247,21,0.00857463,10,0.00734336,-1.38169,0.852246,0.0692289,112.077,0.176843,
2,1,0,1,0,40599.4,0.179607,0.179256,41.7936,21,0.0087413,10,0.00749174,-1.37889,0.943705,0.0625195,101.839,0.179256,
2,1,0,1,0,40599.4,0.182005,0.181668,42.0247,21,0.00890896,10,0.00763455,-1.37649,1.05157,0.0561064,91.8897,0.181668,
2,1,0,1,0,40599.4,0.184402,0.184076,42.2294,21,0.0090775,10,0.00777344,-1.37438,1.25628,0.0469639,77.2806,0.1840762,
2,1,0,1,0,40599.4,0.18681,0.186467,42.4091,21,0.00924679,10,0.00790791,-1.37254,1.56695,0.0376528,62.1931,0.186467,
2,1,0,1,0,40599.4,0.189207,0.18887,42.5366,21,0.00941672,10,0.00803391,-1.37124,2.06102,0.0286266,47.4314,0.18887,
2,1,0,1,0,40599.4,0.191604,0.191298,42.6236,21,0.00958705,10,0.0081538,-1.37035,3.19538,0.0184641,30.6657,0.191298,
2,1,0,1,0,40599.5,0.194001,0.193616,42.6819,21,0.00975768,10,0.00826388,-1.36976,7.13324,0.00827114,13.752,0.193616,
2,1,0,1,0,40599.5,0.196407,0.196058,42.7031,21,0.00992849,10,0.00837228,-1.36954,-27.7318,-0.00212752,-3.53764,0.196058,
2,1,0,1,0,40599.5,0.198804,0.198472,42.6687,21,0.0100992,10,0.00846855,-1.36989,-4.41916,-0.013351,-22.1834,0.198472,
2,1,0,1,0,40599.5,0.201201,0.200926,42.5896,21,0.0102698,10,0.00855736,-1.3707,-2.31839,-0.0254487,-42.2101,0.200926,
2,1,0,1,0,40599.5,0.203609,0.203275,42.4676,21,0.0104399,10,0.0086326,-1.37194,-1.64487,-0.0358691,-59.33,0.203275,
2,1,0,1,0,40599.5,0.206006,0.205679,42.297,21,0.0106094,10,0.0086996,-1.37369,-1.22675,-0.0480947,-79.2295,0.205679,
2,1,0,1,0,40599.5,0.208403,0.208086,42.0983,21,0.0107782,10,0.00876007,-1.37574,-0.993897,-0.0593623,-97.3047,0.208086,
2,1,0,1,0,40599.5,0.210803,0.210453,41.8348,21,0.010946,10,0.00880424,-1.37846,-0.829198,-0.0711531,-115.907,0.210453,
2,1,0,1,0,40599.5,0.213206,0.212831,41.5378,21,0.0111128,10,0.00884053,-1.38156,-0.702068,-0.0840374,-135.928,0.212831,
2,1,0,1,0,40599.5,0.215603,0.215251,41.1875,21,0.0112782,10,0.00886566,-1.38523,-0.634139,-0.0930396,-149.274,0.215251,
2,1,0,1,0,40599.5,0.218,0.217648,40.7986,21,0.0114422,10,0.00887972,-1.38935,-0.565888,-0.104261,-165.735,0.217648,
2,1,0,1,0,40599.5,0.220408,0.220099,40.3948,21,0.0116045,10,0.00889087,-1.39367,-0.509988,-0.115689,-181.98,0.220099,
2,1,0,1,0,40599.5,0.222805,0.2225,39.9353,21,0.0117651,10,0.00888561,-1.39864,-0.472384,-0.124898,-194.266,0.2225,
2,1,0,1,0,40599.5,0.225202,0.224873,39.4365,21,0.0119238,10,0.00886822,-1.4041,-0.433123,-0.13622,-209.356,0.224873,
2,1,0,1,0,40599.5,0.227605,0.227293,38.9248,21,0.0120805,10,0.00884734,-1.40977,-0.40733,-0.144846,-219.746,0.227293,
2,1,0,1,0,40599.5,0.230008,0.229707,38.3835,21,0.0122351,10,0.00881693,-1.41586,-0.389486,-0.151482,-226.642,0.229707,
2,1,0,1,0,40599.5,0.232405,0.232079,37.8304,21,0.0123875,10,0.00877964,-1.42216,-0.368956,-0.15991,-235.817,0.232079,
2,1,0,1,0,40599.5,0.234802,0.234486,37.2579,21,0.0125376,10,0.00873645,-1.42878,-0.357162,-0.165191,-239.983,0.234486,
2,1,0,1,0,40599.5,0.237207,0.236854,36.6703,21,0.0126854,10,0.00868549,-1.43569,-0.3469,-0.170078,-243.269,0.236854,
2,1,0,1,0,40599.5,0.239604,0.239266,36.0893,21,0.0128309,10,0.00863495,-1.44262,-0.340248,-0.173403,-244.145,0.239266,
2,1,0,1,0,40599.5,0.242001,0.241681,35.4946,21,0.012974,10,0.00857835,-1.44984,-0.338291,-0.174406,-241.609,0.241681,
2,1,0,1,0,40599.5,0.244404,0.244058,34.9209,21,0.0131147,10,0.00852272,-1.45691,-0.332743,-0.177314,-241.605,0.244058,
2,1,0,1,0,40599.5,0.246807,0.246463,34.3485,21,0.0132532,10,0.00846565,-1.46409,-0.332418,-0.177487,-237.852,0.246463,
2,1,0,1,0,40599.5,0.249204,0.248889,33.7643,21,0.0133894,10,0.00840358,-1.47154,-0.331586,-0.177933,-234.57,0.2488893,
2,1,0,1,0,40599.5,0.251601,0.251299,33.2069,21,0.0135233,10,0.00834486,-1.47877,-0.330032,-0.178771,-231.786,0.251299,
2,1,0,1,0,40599.6,0.254006,0.253682,32.6633,21,0.013655,10,0.0082861,-1.48594,-0.337015,-0.175067,-223.256,0.253682,
2,1,0,1,0,40599.6,0.256404,0.256076,32.1205,21,0.0137845,10,0.00822528,-1.49322,-0.338074,-0.174518,-218.933,0.256076,
2,1,0,1,0,40599.6,0.258801,0.258528,31.6123,21,0.0139119,10,0.00817269,-1.50014,-0.343089,-0.171967,-212.272,0.258528,
2,1,0,1,0,40599.6,0.261203,0.260898,31.1052,21,0.0140373,10,0.0081153,-1.50717,-0.348431,-0.16933,-205.655,0.260898,
2,1,0,1,0,40599.6,0.263606,0.263325,30.6165,21,0.0141607,10,0.00806208,-1.51404,-0.349293,-0.168913,-201.979,0.263325,
2,1,0,1,0,40599.6,0.266003,0.265703,30.1406,21,0.0142821,10,0.00800844,-1.52085,-0.361009,-0.163431,-192.437,0.265703,
2,1,0,1,0,40599.6,0.2684,0.268062,29.6866,21,0.0144018,10,0.00795788,-1.52744,-0.368332,-0.160182,-185.759,0.2680625,
2,1,0,1,0,40599.6,0.270808,0.270509,29.2558,21,0.0145196,10,0.00791395,-1.53379,-0.37498,-0.157342,-179.733,0.270509,
2,1,0,1,0,40599.6,0.273205,0.272937,28.8309,21,0.0146357,10,0.00786903,-1.54014,-0.386255,-0.152749,-171.991,0.272937,
2,1,0,1,0,40599.6,0.275603,0.275299,28.4159,21,0.0147502,10,0.00782287,-1.54644,-0.392862,-0.15018,-166.739,0.275299,
2,1,0,1,0,40599.6,0.278008,0.277685,28.0317,21,0.014863,10,0.00778398,-1.55235,-0.40101,-0.147128,-161.098,0.277685,
2,1,0,1,0,40599.6,0.280405,0.280101,27.6564,21,0.0149744,10,0.00774658,-1.5582,-0.415916,-0.141856,-153.217,0.280101,
2,1,0,1,0,40599.6,0.282802,0.282468,27.2955,21,0.0150842,10,0.00771011,-1.56391,-0.428473,-0.137698,-146.803,0.282468,
2,1,0,1,0,40599.6,0.285199,0.284878,26.9481,21,0.0151927,10,0.00767695,-1.56947,-0.437501,-0.134857,-141.939,0.284878,
2,1,0,1,0,40599.6,0.287608,0.28733,26.6157,21,0.0152998,10,0.0076475,-1.57486,-0.452462,-0.130398,-135.565,0.28733,
2,1,0,1,0,40599.6,0.290005,0.289705,26.2932,21,0.0154056,10,0.00761727,-1.58016,-0.467096,-0.126312,-129.742,0.2897054,
2,1,0,1,0,40599.6,0.292402,0.29208,25.9925,21,0.0155101,10,0.00759188,-1.58515,-0.474106,-0.124445,-126.316,0.29208,
2,1,0,1,0,40599.6,0.294807,0.294501,25.6998,21,0.0156134,10,0.00756859,-1.59007,-0.489399,-0.120556,-121.014,0.294501,
2,1,0,1,0,40599.6,0.297204,0.296867,25.411,21,0.0157156,10,0.00754371,-1.59498,-0.490197,-0.12036,-119.937,0.296867,
2,1,0,1,0,40599.6,0.299421,0.299096,25.1568,21,0.0158092,10,0.00752429,-1.59934,-0.121985,-0.483666,-464.946,0.299096,
2,1,0,0,0,40599.6,0.300012,0.299689,25.0798,21,0.0158343,10,0.00751616,-1.60068,0.00273354,21.5837,19059.9,0.2996892,
2,1,0,1,0,40599.6,0.299243,0.299031,23.5935,21,0.0158653,10,0.00705519,-1.62721,0.0302613,1.94969,1596.78,0.2990306,
2,1,0,1,0,40599.6,0.296846,0.296586,20.0544,21,0.0159519,10,0.00594787,-1.69779,0.0353302,1.66996,1276.46,0.296586,
2,1,0,1,0,40599.6,0.294449,0.294177,17.3026,21,0.0160262,10,0.00509004,-1.76189,0.0366579,1.60947,1111.62,0.294177,
2,1,0,1,0,40599.6,0.292041,0.29176,14.9591,21,0.0160904,10,0.00436448,-1.82509,0.0371039,1.59013,936.689,0.29176,
2,1,0,1,0,40599.6,0.289644,0.289389,12.8762,21,0.0161458,10,0.00372624,-1.89021,0.0359264,1.64225,828.334,0.2893894,
2,1,0,1,0,40599.7,0.287247,0.286949,11.0276,21,0.0161934,10,0.00316437,-1.95752,0.034161,1.72711,742.58,0.2869494,
2,1,0,1,0,40599.7,0.284841,0.284583,9.35515,21,0.016234,10,0.00266231,-2.02895,0.0320469,1.84105,667.713,0.284583,
2,1,0,1,0,40599.7,0.282444,0.282169,7.83676,21,0.0162682,10,0.00221129,-2.10586,0.0290546,2.03066,612.426,0.282169,
2,1,0,1,0,40599.7,0.280047,0.279759,6.44573,21,0.0162965,10,0.00180325,-2.19073,0.0258725,2.28042,559.304,0.279759,
2,1,0,1,0,40599.7,0.27765,0.277373,5.16271,21,0.0163196,10,0.001432,-2.28712,0.022232,2.65384,513.425,0.277373,
2,1,0,1,0,40599.7,0.275242,0.274959,3.97287,21,0.0163377,10,0.00109238,-2.4009,0.0178635,3.30282,476.814,0.274959,
2,1,0,1,0,40599.7,0.272845,0.27253,2.8878,21,0.0163513,10,0.000787012,-2.53943,0.0128757,4.58228,440.905,0.27253,
2,1,0,1,0,40599.7,0.270448,0.270166,1.87192,21,0.0163607,10,0.000505729,-2.72771,0.0050357,11.7163,407.65,0.270166,
2,1,0,1,0,40599.7,0.26804,0.267763,0.925889,21,0.0163662,10,0.000247919,-3.03344,0.0166747,3.53829,383.65,0.2677635,
2,1,0,1,0,40599.7,0.265642,0.265333,0.0486954,21,0.016368,10,1.29205e-05,-4.31251,0.112083,0.526395,356.071,0.265333,
2,0,0,1,0,40599.7,0.263245,0.262987,-0.773199,21,0.0163664,10,-0.000203342,-3.11171,-0.0249121,-2.36833,330.247,0.262987,
2,0,0,1,0,40599.7,0.260843,0.260591,-1.53764,21,0.0163617,10,-0.000400695,-2.81315,-0.00538179,-10.9629,311.809,0.260591,
2,0,0,1,0,40599.7,0.258443,0.25813,-2.25565,21,0.016354,10,-0.00058225,-2.64673,-0.0145667,-4.05033,288.917,0.25813,
2,0,0,1,0,40599.7,0.256046,0.255749,-2.93967,21,0.0163436,10,-0.000751817,-2.5317,-0.0222197,-2.6553,273.932,0.255749,
2,0,0,1,0,40599.7,0.253649,0.253312,-3.56852,21,0.0163305,10,-0.000903951,-2.44751,-0.0298424,-1.97705,258.177,0.253312,
2,0,0,1,0,40599.7,0.25124,0.250933,-4.18332,21,0.0163149,10,-0.00104973,-2.37848,-0.0376658,-1.56641,244.117,0.250933,
2,0,0,1,0,40599.7,0.248843,0.248501,-4.74151,21,0.016297,10,-0.00117827,-2.32408,-0.0455986,-1.2939,231.906,0.248501,
2,0,0,1,0,40599.7,0.246446,0.246192,-5.27281,21,0.0162769,10,-0.00129812,-2.27796,-0.0546429,-1.07974,217.297,0.246192,
2,0,0,1,0,40599.7,0.244041,0.243708,-5.79577,21,0.0162547,10,-0.00141248,-2.23689,-0.062837,-0.938937,208.053,0.243708,
2,0,0,1,0,40599.7,0.241644,0.241328,-6.27049,21,0.0162305,10,-0.00151324,-2.2027,-0.0724114,-0.814788,196.218,0.241328,
2,0,0,1,0,40599.7,0.239247,0.238945,-6.72974,21,0.0162044,10,-0.00160804,-2.172,-0.0820544,-0.719035,186.615,0.2389448,
2,0,0,1,0,40599.7,0.236849,0.236548,-7.165,21,0.0161766,10,-0.00169487,-2.14478,-0.0917136,-0.643307,178.075,0.236548,
2,0,0,1,0,40599.7,0.234441,0.234122,-7.58468,21,0.0161471,10,-0.00177574,-2.12006,-0.101769,-0.579745,170.104,0.234122,
2,0,0,1,0,40599.7,0.232044,0.231704,-7.98414,21,0.0161159,10,-0.00184996,-2.09777,-0.111557,-0.528879,163.57,0.231704,
2,0,0,1,0,40599.7,0.229647,0.229326,-8.36597,21,0.0160831,10,-0.00191853,-2.07748,-0.123074,-0.479385,155.45,0.229326,
2,0,0,1,0,40599.8,0.227239,0.226942,-8.73628,21,0.0160489,10,-0.00198263,-2.05867,-0.134761,-0.437813,148.222,0.226942,
2,0,0,1,0,40599.8,0.224842,0.224517,-9.0778,21,0.0160132,10,-0.00203812,-2.04202,-0.146504,-0.40272,141.902,0.224517,
2,0,0,1,0,40599.8,0.222445,0.222124,-9.40422,21,0.0159762,10,-0.0020889,-2.02668,-0.157113,-0.375527,137.504,0.222124,
2,0,0,1,0,40599.8,0.220047,0.219746,-9.72535,21,0.0159379,10,-0.00213711,-2.01209,-0.169701,-0.34767,131.574,0.219746,
2,0,0,1,0,40599.8,0.217642,0.217319,-10.0595,21,0.0158983,10,-0.00218612,-1.99742,-0.179696,-0.328331,128.236,0.217319,
2,0,0,1,0,40599.8,0.215245,0.214895,-10.3438,21,0.0158575,10,-0.00222283,-1.98532,-0.191003,-0.308895,124.333,0.214895,
2,0,0,1,0,40599.8,0.212848,0.212514,-10.6365,21,0.0158155,10,-0.00226041,-1.9732,-0.207993,-0.283664,117.511,0.212514,
2,0,0,1,0,40599.8,0.21044,0.210095,-10.9253,21,0.0157723,10,-0.00229535,-1.96157,-0.214255,-0.275372,117.099,0.210095,
2,0,0,1,0,40599.8,0.208043,0.207698,-11.1901,21,0.0157281,10,-0.00232416,-1.95117,-0.228387,-0.258334,112.597,0.207698,
2,0,0,1,0,40599.8,0.205645,0.205298,-11.4676,21,0.0156827,10,-0.00235427,-1.94053,-0.242264,-0.243536,108.71,0.205298,
2,0,0,1,0,40599.8,0.203246,0.202915,-11.7173,21,0.0156363,10,-0.00237762,-1.93117,-0.253794,-0.232472,106.049,0.202915,
2,0,0,1,0,40599.8,0.200843,0.200521,-11.9661,21,0.0155889,10,-0.00239945,-1.92205,-0.270052,-0.218477,101.869,0.200521,
2,0,0,1,0,40599.8,0.198446,0.198153,-12.2023,21,0.0155406,10,-0.00241792,-1.91356,-0.275926,-0.213825,101.791,0.198153,
2,0,0,1,0,40599.8,0.196049,0.195749,-12.4403,21,0.0154912,10,-0.00243518,-1.90517,-0.288617,-0.204423,99.2243,0.195749,
2,0,0,1,0,40599.8,0.19364,0.193345,-12.6914,21,0.015441,10,-0.00245383,-1.89649,-0.300337,-0.196446,97.088,0.193345,
2,0,0,1,0,40599.8,0.191243,0.190901,-12.9206,21,0.0153897,10,-0.00246656,-1.88872,-0.310692,-0.189898,95.5646,0.190901,
2,0,0,1,0,40599.8,0.188846,0.188531,-13.1365,21,0.0153376,10,-0.00247664,-1.88152,-0.329798,-0.178898,91.6562,0.188531,
2,0,0,1,0,40599.8,0.186444,0.186125,-13.3601,21,0.0152846,10,-0.00248664,-1.87419,-0.33465,-0.176303,91.8946,0.186125,
2,0,0,1,0,40599.8,0.184041,0.183715,-13.5742,21,0.0152307,10,-0.00249377,-1.86729,-0.339383,-0.173845,92.097,0.183715,
2,0,0,1,0,40599.8,0.181644,0.181328,-13.8004,21,0.0151759,10,-0.00250239,-1.86011,-0.350319,-0.168418,90.6593,0.181328,
2,0,0,1,0,40599.8,0.179247,0.178917,-14.0219,21,0.0151202,10,-0.00250876,-1.85319,-0.354195,-0.166575,91.0562,0.178917,
2,0,0,1,0,40599.8,0.176841,0.176471,-14.2353,21,0.0150637,10,-0.00251211,-1.84663,-0.362515,-0.162752,90.3736,0.176471,
2,0,0,1,0,40599.8,0.174444,0.174114,-14.4484,21,0.0150063,10,-0.00251566,-1.84018,-0.365683,-0.161342,91.0071,0.174114,
2,0,0,1,0,40599.8,0.172047,0.171762,-14.6649,21,0.014948,10,-0.00251886,-1.83372,-0.364174,-0.16201,92.7876,0.171762,
2,0,0,1,0,40599.8,0.169644,0.169342,-14.8933,21,0.0148889,10,-0.00252206,-1.82701,-0.370689,-0.159163,92.4741,0.169342,
2,0,0,1,0,40599.9,0.167242,0.166892,-15.1241,21,0.0148289,10,-0.00252409,-1.82033,-0.370576,-0.159212,93.9026,0.166892,
2,0,0,1,0,40599.9,0.164845,0.164527,-15.3349,21,0.0147679,10,-0.002523,-1.81432,-0.370725,-0.159148,95.3199,0.164527,
2,0,0,1,0,40599.9,0.162448,0.16213,-15.5693,21,0.0147061,10,-0.00252425,-1.80773,-0.36858,-0.160074,97.3602,0.16213,
2,0,0,1,0,40599.9,0.160042,0.15973,-15.8095,21,0.0146433,10,-0.00252525,-1.80108,-0.357018,-0.165258,102.03,0.15973,
2,0,0,1,0,40599.9,0.157645,0.157335,-16.0546,21,0.0145795,10,-0.00252594,-1.7944,-0.352422,-0.167413,104.977,0.157335,
2,0,0,1,0,40599.9,0.155248,0.15492,-16.3151,21,0.0145148,10,-0.00252753,-1.78741,-0.348063,-0.169509,107.988,0.15492,
2,0,0,1,0,40599.9,0.152845,0.152545,-16.5755,21,0.014449,10,-0.00252851,-1.78053,-0.340135,-0.17346,112.306,0.152545,
2,0,0,1,0,40599.9,0.150443,0.150105,-16.8489,21,0.0143821,10,-0.0025291,-1.77343,-0.327114,-0.180365,118.797,0.150105,
2,0,0,1,0,40599.9,0.148046,0.147699,-17.1367,21,0.0143141,10,-0.00253108,-1.76607,-0.313154,-0.188406,126.292,0.147699,
2,0,0,1,0,40599.9,0.145648,0.145358,-17.4511,21,0.0142449,10,-0.00253665,-1.75818,-0.298713,-0.197514,134.796,0.145358,
2,0,0,1,0,40599.9,0.14324,0.142925,-17.7904,21,0.0141744,10,-0.0025427,-1.74981,-0.28597,-0.206315,143.455,0.142925,
2,0,0,1,0,40599.9,0.140843,0.140519,-18.1411,21,0.0141025,10,-0.00254916,-1.74134,-0.27448,-0.214952,152.486,0.140519,
2,0,0,1,0,40599.9,0.138446,0.138099,-18.5139,21,0.0140291,10,-0.00255675,-1.7325,-0.260669,-0.226341,163.999,0.138099,
2,0,0,1,0,40599.9,0.136041,0.135704,-18.9232,21,0.0139542,10,-0.00256794,-1.72301,-0.24921,-0.236749,175.262,0.135704,
2,0,0,1,0,40599.9,0.133644,0.133334,-19.3634,21,0.0138776,10,-0.0025818,-1.71302,-0.237917,-0.247986,187.764,0.133334,
2,0,0,1,0,40599.9,0.131246,0.130933,-19.8212,21,0.0137992,10,-0.00259524,-1.70287,-0.227856,-0.258935,200.745,0.130933,
2,0,0,1,0,40599.9,0.128849,0.128502,-20.3158,21,0.0137189,10,-0.00261063,-1.69217,-0.220551,-0.267512,212.593,0.128502,
2,0,0,1,0,40599.9,0.126441,0.126166,-20.8377,21,0.0136365,10,-0.00262902,-1.68115,-0.211948,-0.27837,226.95,0.126166,
2,0,0,1,0,40599.9,0.124044,0.123771,-21.3964,21,0.013552,10,-0.00264825,-1.66966,-0.204714,-0.288207,241.24,0.123771,
2,0,0,1,0,40599.9,0.121647,0.121345,-21.9972,21,0.0134652,10,-0.00266924,-1.65763,-0.201225,-0.293204,252.087,0.121345,
2,0,0,1,0,40599.9,0.119241,0.118947,-22.6209,21,0.0133759,10,-0.00269069,-1.64549,-0.199622,-0.295558,261.07,0.118947,
2,0,0,1,0,40599.9,0.116844,0.116529,-23.2671,21,0.0132841,10,-0.0027113,-1.63326,-0.198651,-0.297003,269.702,0.116529,
2,0,0,1,0,40599.9,0.114447,0.114115,-23.9173,21,0.0131896,10,-0.00272932,-1.62129,-0.199301,-0.296035,276.456,0.1141148,
2,0,0,1,0,40599.9,0.11205,0.111743,-24.5869,21,0.0130926,10,-0.0027474,-1.6093,-0.201137,-0.293333,281.516,0.111743,
2,0,0,1,0,40599.9,0.109642,0.109307,-25.286,21,0.0129928,10,-0.00276394,-1.59712,-0.203942,-0.289299,285.158,0.109307,
2,0,0,1,0,40600,0.107245,0.106948,-25.9645,21,0.0128902,10,-0.00277684,-1.58562,-0.208744,-0.282643,286.119,0.106948,
2,0,0,1,0,40600,0.104848,0.104549,-26.6451,21,0.0127849,10,-0.00278572,-1.57438,-0.214874,-0.27458,285.308,0.104549,
2,0,0,1,0,40600,0.10244,0.102125,-27.3387,21,0.0126769,10,-0.00279196,-1.56322,-0.221247,-0.26667,284.188,0.102125,
2,0,0,1,0,40600,0.100042,0.0997611,-28.0095,21,0.0125661,10,-0.00279426,-1.55269,-0.22955,-0.257024,280.61,0.0997611,
2,0,0,1,0,40600,0.0976454,0.0973424,-28.6942,21,0.0124526,10,-0.00279316,-1.54221,-0.240449,-0.245375,274.129,0.0973424,
2,0,0,1,0,40600,0.0952427,0.0949172,-29.3478,21,0.0123365,10,-0.00278562,-1.53242,-0.24903,-0.236919,270.822,0.0949172,
2,0,0,1,0,40600,0.0928428,0.0925875,-29.9532,21,0.0122178,10,-0.00277329,-1.52356,-0.256818,-0.229735,268.558,0.0925875,
2,0,0,1,0,40600,0.0904457,0.0901623,-30.6091,21,0.0120966,10,-0.00275978,-1.51415,-0.266198,-0.221639,264.671,0.0901623,
2,0,0,1,0,40600,0.0880486,0.0878295,-31.249,21,0.0119728,10,-0.00274458,-1.50516,-0.274939,-0.214593,261.216,0.0878295,
2,0,0,1,0,40600,0.0856404,0.0853364,-31.8836,21,0.0118465,10,-0.00272083,-1.49643,-0.290143,-0.203348,252.408,0.0853364,
2,0,0,1,0,40600,0.0832433,0.0829866,-32.4611,21,0.0117178,10,-0.00269383,-1.48864,-0.308267,-0.191392,242.037,0.0829866,
2,0,0,1,0,40600,0.0808462,0.0805614,-33.0324,21,0.0115867,10,-0.00266114,-1.48106,-0.325815,-0.181084,233.111,0.0805614,
2,0,0,1,0,40600,0.0784408,0.0781723,-33.5864,21,0.0114534,10,-0.00262552,-1.47384,-0.346007,-0.170517,223.102,0.0781723,
2,0,0,1,0,40600,0.0760437,0.0757779,-34.1118,21,0.011318,10,-0.00258492,-1.4671,-0.36563,-0.161365,214.423,0.0757779,
2,0,0,1,0,40600,0.0736466,0.0733432,-34.6125,21,0.0111805,10,-0.0025386,-1.46077,-0.390177,-0.151214,203.906,0.0733432,
2,0,0,1,0,40600,0.0712495,0.0709891,-35.0849,21,0.011041,10,-0.00249065,-1.45488,-0.419345,-0.140696,192.329,0.0709891,
2,0,0,1,0,40600,0.0688413,0.0686096,-35.5363,21,0.0108997,10,-0.00243813,-1.44933,-0.447426,-0.131865,182.59,0.06860958,
2,0,0,1,0,40600,0.0664442,0.0661791,-35.9579,21,0.0107567,10,-0.00237966,-1.44421,-0.477409,-0.123584,173.199,0.0661791,
2,0,0,1,0,40600,0.0640471,0.0637635,-36.3617,21,0.010612,10,-0.00231855,-1.43936,-0.513588,-0.114878,162.818,0.0637635,
2,0,0,1,0,40600,0.0616389,0.0613829,-36.7487,21,0.0104658,10,-0.00225574,-1.43476,-0.547473,-0.107768,154.323,0.0613829,
2,0,0,1,0,40600,0.0592418,0.0589578,-37.1078,21,0.010318,10,-0.00218779,-1.43054,-0.596378,-0.0989305,143.022,0.0589578,
2,0,0,1,0,40600,0.0568446,0.0565952,-37.4369,21,0.0101689,10,-0.00211875,-1.4267,-0.650984,-0.0906321,132.227,0.0565952,
2,0,0,1,0,40600,0.0544475,0.0541753,-37.733,21,0.0100185,10,-0.0020442,-1.42328,-0.712777,-0.0827749,121.76,0.0541753,
2,0,0,1,0,40600,0.0520421,0.0517321,-38.0248,21,0.00986695,10,-0.00196711,-1.41993,-0.786819,-0.0749855,111.119,0.0517321,
2,0,0,1,0,40600,0.049645,0.0493218,-38.281,21,0.0097143,10,-0.00188809,-1.41702,-0.85533,-0.0689793,102.907,0.0493218,
2,0,0,1,0,40600.1,0.0472479,0.0469444,-38.5093,21,0.00956068,10,-0.0018078,-1.41443,-0.966837,-0.0610237,91.6008,0.0469444,
2,0,0,1,0,40600.1,0.0448397,0.0445479,-38.7237,21,0.00940619,10,-0.00172506,-1.41202,-1.06642,-0.0553252,83.5143,0.0445479,
2,0,0,1,0,40600.1,0.0424426,0.0421397,-38.9035,21,0.00925093,10,-0.00163938,-1.41001,-1.18483,-0.0497961,75.5421,0.0421397,
2,0,0,1,0,40600.1,0.0400455,0.0397602,-39.0796,21,0.00909496,10,-0.00155381,-1.40805,-1.33225,-0.0442859,67.4852,0.0397602,
2,0,0,1,0,40600.1,0.0376456,0.0373297,-39.2356,21,0.00893832,10,-0.00146466,-1.40632,-1.48992,-0.0395994,60.571,0.0373297,
2,0,0,1,0,40600.1,0.035243,0.034965,-39.3704,21,0.00878108,10,-0.00137659,-1.40483,-1.7674,-0.0333824,51.2345,0.034965,
2,0,0,1,0,40600.1,0.0328459,0.0325462,-39.4846,21,0.00862334,10,-0.00128507,-1.40357,-1.96313,-0.0300541,46.2798,0.0325462,
2,0,0,1,0,40600.1,0.0304488,0.0301158,-39.5737,21,0.0084652,10,-0.00119179,-1.40259,-2.25922,-0.0261153,40.3235,0.0301158,
2,0,0,1,0,40600.1,0.0280406,0.0277447,-39.6792,21,0.00830669,10,-0.00110089,-1.40144,-2.64386,-0.0223158,34.5324,0.0277447,
2,0,0,1,0,40600.1,0.0256435,0.0253503,-39.7581,21,0.0081478,10,-0.00100788,-1.40057,-2.95039,-0.0199973,31.0006,0.0253503,
2,0,0,1,0,40600.1,0.0232464,0.0229135,-39.8172,21,0.00798864,10,-0.000912351,-1.39993,-3.82453,-0.0154267,23.9585,0.0229135,
2,0,0,1,0,40600.1,0.0208437,0.0205117,-39.8714,21,0.00782926,10,-0.000817829,-1.39934,-5.18233,-0.0113848,17.7029,0.0205117,
2,0,0,1,0,40600.1,0.018441,0.0181183,-39.9099,21,0.0076697,10,-0.0007231,-1.39892,-6.27006,-0.0094098,14.6481,0.0181183,
2,0,0,1,0,40600.1,0.0160439,0.0157377,-39.9283,21,0.00751003,10,-0.00062838,-1.39872,-9.71727,-0.00607166,9.45857,0.0157377,
2,0,0,1,0,40600.1,0.0136468,0.0133126,-39.9579,21,0.00735026,10,-0.000531941,-1.3984,-18.7601,-0.00314497,4.90136,0.0133126,
2,0,0,1,0,40600.1,0.0112414,0.0109404,-39.962,21,0.00719041,10,-0.000437201,-1.39835,-74.3435,-0.000793614,1.23685,0.0109404,
2,0,0,1,0,40600.1,0.00884431,0.00849408,-39.957,21,0.00703057,10,-0.000339398,-1.39841,17.8795,0.00329987,-5.14274,0.00849408,
2,0,0,1,0,40600.1,0.0064472,0.00613785,-39.9402,21,0.00687079,10,-0.000245147,-1.39859,23.882,0.00247048,-3.85114,0.00613785,
2,0,0,1,0,40600.1,0.00404455,0.00373391,-39.9086,21,0.00671111,10,-0.000149015,-1.39893,8.97892,0.00657095,-10.2341,0.00373391,
2,0,0,1,0,40600.1,0.0016419,0.00126953,-39.9247,21,0.00655149,10,-5.06855e-05,-1.39876,6.00156,0.00983078,-15.2953,0.00126953,
2,0,0,1,0,40600.1,-0.000755207,-0.00112169,-39.8586,21,0.00639192,10,4.4709e-05,-1.39948,4.83377,0.0122058,-18.9667,-0.00112169,
2,0,0,1,0,40600.1,-0.00315231,-0.00352563,-39.7924,21,0.00623262,10,0.000140293,-1.4002,2.94969,0.0200021,-31.05,-0.00352563,
2,0,0,1,0,40600.1,-0.00555774,-0.00597411,-39.7245,21,0.00607358,10,0.000237318,-1.40094,2.75478,0.0214173,-33.1826,-0.00597411,
2,0,0,1,0,40600.1,-0.00795485,-0.00829534,-39.6277,21,0.00591488,10,0.000328725,-1.402,2.47613,0.0238275,-36.839,-0.00829534,
2,0,0,1,0,40600.1,-0.0103519,-0.0107173,-39.5402,21,0.00575655,10,0.000423765,-1.40296,2.13246,0.0276675,-42.6727,-0.0107173,
2,0,0,1,0,40600.2,-0.0127546,-0.0131106,-39.4393,21,0.0055986,10,0.000517075,-1.40407,1.96042,0.0300956,-46.2821,-0.01311065,
2,0,0,1,0,40600.2,-0.0151573,-0.0155422,-39.3162,21,0.00544109,10,0.000611058,-1.40543,1.71681,0.0343661,-52.6905,-0.0155422,
2,0,0,1,0,40600.2,-0.0175544,-0.0179228,-39.1821,21,0.00528411,10,0.000702253,-1.40691,1.60175,0.0368347,-56.306,-0.0179228,
2,0,0,1,0,40600.2,-0.0199515,-0.0203426,-39.0331,21,0.00512769,10,0.000794035,-1.40857,1.48878,0.0396297,-60.3571,-0.0203426,
2,0,0,1,0,40600.2,-0.0223597,-0.0227148,-38.8985,21,0.00497184,10,0.00088357,-1.41007,1.37111,0.0430308,-65.2738,-0.0227148,
2,0,0,1,0,40600.2,-0.0247568,-0.0251632,-38.7355,21,0.00481658,10,0.00097471,-1.41189,1.34688,0.0438051,-66.1847,-0.0251632,
2,0,0,1,0,40600.2,-0.0271539,-0.027511,-38.5563,21,0.00466201,10,0.00106072,-1.4139,1.25225,0.0471151,-70.8956,-0.027511,
2,0,0,1,0,40600.2,-0.0295593,-0.0299542,-38.3969,21,0.00450813,10,0.00115015,-1.4157,1.20325,0.0490337,-73.4522,-0.0299542,
2,0,0,1,0,40600.2,-0.0319564,-0.0323401,-38.2161,21,0.00435493,10,0.00123591,-1.41775,1.204,0.0490034,-73.063,-0.0323401,
2,0,0,1,0,40600.2,-0.0343535,-0.0347133,-38.034,21,0.00420245,10,0.00132028,-1.41983,1.16273,0.0507427,-75.3229,-0.0347133,
2,0,0,1,0,40600.2,-0.0367506,-0.0371278,-37.8536,21,0.00405068,10,0.00140542,-1.42189,1.15499,0.0510828,-75.4607,-0.0371278,
2,0,0,1,0,40600.2,-0.0391588,-0.039518,-37.6765,21,0.00389961,10,0.0014889,-1.42393,1.15589,0.051043,-75.0438,-0.039518,
2,0,0,1,0,40600.2,-0.0415559,-0.0419749,-37.4891,21,0.00374932,10,0.0015736,-1.4261,1.15909,0.0509019,-74.4832,-0.0419749,
2,0,0,1,0,40600.2,-0.043953,-0.0443386,-37.3117,21,0.00359975,10,0.00165435,-1.42816,1.17127,0.0503726,-73.3715,-0.04433858,
2,0,0,1,0,40600.2,-0.0463585,-0.0467563,-37.1365,21,0.00345087,10,0.00173636,-1.4302,1.19125,0.0495278,-71.7995,-0.0467563,
2,0,0,1,0,40600.2,-0.0487556,-0.0491412,-36.9705,21,0.00330267,10,0.00181677,-1.43214,1.20321,0.0490357,-70.7524,-0.0491412,
2,0,0,1,0,40600.2,-0.0511527,-0.0515101,-36.8044,21,0.00315511,10,0.0018958,-1.4341,1.25496,0.0470133,-67.5445,-0.05151011,
2,0,0,1,0,40600.2,-0.0535498,-0.0539289,-36.6331,21,0.00300825,10,0.00197558,-1.43613,1.31064,0.0450163,-64.4075,-0.0539289,
2,0,0,1,0,40600.2,-0.055958,-0.0562968,-36.4921,21,0.002862,10,0.00205439,-1.4378,1.36583,0.0431973,-61.5468,-0.0562968,
2,0,0,1,0,40600.2,-0.0583551,-0.0587294,-36.3529,21,0.00271632,10,0.00213498,-1.43946,1.52554,0.0386749,-54.8931,-0.0587294,
2,0,0,1,0,40600.2,-0.0607522,-0.0611248,-36.2127,21,0.00257121,10,0.00221349,-1.44114,1.56862,0.0376126,-53.1904,-0.0611248,
2,0,0,1,0,40600.2,-0.0631604,-0.0635479,-36.1051,21,0.00242657,10,0.0022944,-1.44243,1.65842,0.035576,-50.138,-0.06354785,
2,0,0,1,0,40600.2,-0.0655575,-0.0659168,-35.9804,21,0.00228242,10,0.00237171,-1.44393,1.87556,0.0314572,-44.1965,-0.0659168,
2,0,0,1,0,40600.2,-0.0679546,-0.0683388,-35.8711,21,0.00213873,10,0.00245139,-1.44525,1.95476,0.0301828,-42.2905,-0.0683388,
2,0,0,1,0,40600.2,-0.0703573,-0.0707268,-35.7883,21,0.00199543,10,0.00253119,-1.44626,2.20906,0.0267082,-37.3165,-0.0707268,
2,0,0,1,0,40600.3,-0.0727571,-0.0731297,-35.6999,21,0.00185248,10,0.00261072,-1.44733,2.46575,0.0239278,-33.3479,-0.0731297,
2,0,0,1,0,40600.3,-0.0751542,-0.075523,-35.6219,21,0.00170984,10,0.00269027,-1.44828,2.74992,0.0214551,-29.8464,-0.075523,
2,0,0,1,0,40600.3,-0.0775514,-0.0779291,-35.5513,21,0.00156751,10,0.00277048,-1.44914,3.2444,0.0181852,-25.2505,-0.0779291,
2,0,0,1,0,40600.3,-0.0799595,-0.0803235,-35.5019,21,0.00142542,10,0.00285163,-1.44975,3.75427,0.0157154,-21.7838,-0.0803235,
2,0,0,1,0,40600.3,-0.0823567,-0.0827253,-35.4576,21,0.00128351,10,0.00293324,-1.45029,5.08434,0.0116043,-16.0654,-0.0827253,
2,0,0,1,0,40600.3,-0.0847538,-0.0850868,-35.4136,21,0.00114178,10,0.00301323,-1.45083,6.12903,0.00962632,-13.3135,-0.08508683,
2,0,0,1,0,40600.3,-0.0871592,-0.0875364,-35.397,21,0.00100017,10,0.00309852,-1.45103,8.05353,0.00732598,-10.1238,-0.0875364,
2,0,0,1,0,40600.3,-0.0895563,-0.0899127,-35.3742,21,0.000858616,10,0.00318059,-1.45131,17.6021,0.00335187,-4.62964,-0.08991275,
2,0,0,1,0,40600.3,-0.0919534,-0.0923379,-35.3603,21,0.000717153,10,0.00326509,-1.45148,81.8151,0.000721138,-0.996069,-0.0923379,
2,0,0,1,0,40600.3,-0.0943505,-0.0947037,-35.3691,21,0.00057569,10,0.00334958,-1.45138,-31.5341,-0.00187099,2.5839,-0.0947037,
2,0,0,1,0,40600.3,-0.0967587,-0.09715,-35.3874,21,0.000434174,10,0.00343789,-1.45115,-11.9594,-0.00493337,6.8132,-0.09715002,
2,0,0,1,0,40600.3,-0.0991558,-0.0995412,-35.3991,21,0.000292607,10,0.00352367,-1.45101,3.25448,0.0181289,-24.9737,-0.0995412,
2,0,0,1,0,40600.3,-0.0999548,-0.10019,-35.4138,21,0.000246582,10,0.00354811,-1.45083,0.0247331,2.38547,-3105.76,-0.10019,
2,0,0,1,1,40600.3,-0.0999548,-0.1004,-35.2268,21,0.000225422,10,0.00353678,-1.45313,-0.0342666,-1.72179,2117.68,-0.1004,
2,0,0,1,1,40600.3,-0.0979573,-0.0984299,-31.4123,21,0.000123664,10,0.00309191,-1.5029,-0.0434683,-1.35731,1583.52,-0.0984299,
2,0,0,1,1,40600.3,-0.0955546,-0.0960122,-27.9258,21,5.52807e-06,10,0.00268121,-1.554,-0.0465826,-1.26657,1399.38,-0.09601222,
2,0,0,1,1,40600.3,-0.093152,-0.0936008,-24.9794,21,-9.98678e-05,10,0.0023381,-1.60242,-0.0493,-1.19675,1180.27,-0.0936008,
2,0,0,1,1,40600.3,-0.0907548,-0.0912086,-22.3643,21,-0.000194219,10,0.00203981,-1.65044,-0.0493832,-1.19474,1048.16,-0.0912086,
2,0,0,1,1,40600.3,-0.0883578,-0.0887495,-19.9867,21,-0.00027864,10,0.00177381,-1.69926,-0.0482303,-1.2233,956.267,-0.0887495,
2,0,0,1,1,40600.3,-0.0859523,-0.0863445,-17.7924,21,-0.000353948,10,0.00153628,-1.74976,-0.0463991,-1.27158,883.05,-0.0863445,
2,0,0,1,1,40600.3,-0.0835552,-0.083983,-15.7822,21,-0.000420838,10,0.00132543,-1.80183,-0.0439582,-1.34219,823.463,-0.083983,
2,0,0,1,1,40600.3,-0.0811581,-0.0816161,-13.8937,21,-0.000479963,10,0.00113395,-1.85718,-0.0411481,-1.43385,771.155,-0.0816161,
2,0,0,1,1,40600.3,-0.0787555,-0.0791836,-12.1095,21,-0.000531755,10,0.000958874,-1.91687,-0.0382941,-1.54071,719.977,-0.0791836,
2,0,0,1,1,40600.3,-0.0763528,-0.0767881,-10.423,21,-0.000576621,10,0.00080036,-1.98201,-0.0346589,-1.70231,681.837,-0.0767881,
2,0,0,1,1,40600.3,-0.0739557,-0.0743322,-8.83384,21,-0.000614949,10,0.000656639,-2.05385,-0.0308182,-1.91445,645.06,-0.0743322,
2,0,0,1,1,40600.3,-0.0715586,-0.0719866,-7.3279,21,-0.000647099,10,0.00052751,-2.13502,-0.026548,-2.22239,613.594,-0.0719866,
2,0,0,1,1,40600.3,-0.0691532,-0.0695519,-5.89651,21,-0.000673387,10,0.000410113,-2.22941,-0.0219567,-2.68711,584.685,-0.0695519,
2,0,0,1,1,40600.4,-0.066756,-0.0671903,-4.53384,21,-0.000694089,10,0.000304631,-2.34353,-0.0169742,-3.47587,555.2,-0.0671903,
2,0,0,1,1,40600.4,-0.0643589,-0.0647609,-3.23768,21,-0.000709485,10,0.000209675,-2.48977,-0.0110344,-5.3469,532.38,-0.0647609,
2,0,0,1,1,40600.4,-0.0619563,-0.0623676,-1.98745,21,-0.000719806,10,0.000123953,-2.7017,-0.00829169,-7.11556,506.108,-0.0623676,
2,0,0,1,1,40600.4,-0.0595536,-0.0599785,-0.799842,21,-0.000725239,10,4.79733e-05,-3.097,-0.0263657,-2.23776,485.315,-0.0599785,
2,1,0,1,1,40600.4,-0.0571565,-0.0576064,0.316677,21,-0.000726081,10,-1.82426e-05,-3.49938,0.10368,0.569061,464.933,-0.0576064,
2,1,0,1,1,40600.4,-0.0547594,-0.0551961,1.40429,21,-0.000722518,10,-7.75114e-05,-2.85254,0.0150863,3.91083,443.713,-0.05519608,
2,1,0,1,1,40600.4,-0.0523512,-0.052807,2.4576,21,-0.000714669,10,-0.000129778,-2.60949,0.00840977,7.01565,425.162,-0.052807,
2,1,0,1,1,40600.4,-0.0499541,-0.0504062,3.44751,21,-0.00070276,10,-0.000173776,-2.46249,0.0165815,3.55819,408.197,-0.0504062,
2,1,0,1,1,40600.4,-0.047557,-0.0479917,4.40449,21,-0.000686944,10,-0.000211379,-2.3561,0.0238501,2.47378,390.196,-0.0479917,
2,1,0,1,1,40600.4,-0.0451544,-0.0456058,5.31903,21,-0.000667396,10,-0.000242579,-2.27417,0.0305971,1.92829,379.283,-0.0456058,
2,1,0,1,1,40600.4,-0.0427545,-0.0432336,6.19308,21,-0.000644263,10,-0.000267749,-2.20809,0.0379616,1.5542,362.388,-0.0432336,
2,1,0,1,1,40600.4,-0.0403574,-0.0408806,7.06042,21,-0.000617658,10,-0.000288634,-2.15117,0.0452522,1.3038,349.276,-0.0408806,
2,1,0,1,1,40600.4,-0.0379603,-0.0384024,7.87952,21,-0.000587682,10,-0.000302593,-2.1035,0.0528421,1.11653,335.438,-0.0384024,
2,1,0,1,1,40600.4,-0.0355521,-0.0359741,8.68315,21,-0.000554461,10,-0.000312368,-2.06132,0.0615713,0.958239,318.383,-0.0359741,
2,1,0,1,1,40600.4,-0.033155,-0.0335871,9.42889,21,-0.000518157,10,-0.000316689,-2.02554,0.0689064,0.856234,310.554,-0.0335871,
2,1,0,1,1,40600.4,-0.0307579,-0.0311651,10.1537,21,-0.000478915,10,-0.00031644,-1.99338,0.0774358,0.761922,298.594,-0.03116514,
2,1,0,1,1,40600.4,-0.0283524,-0.0287813,10.8674,21,-0.000436814,10,-0.000312778,-1.96387,0.0865299,0.681845,285.929,-0.0287813,
2,1,0,1,1,40600.4,-0.0259553,-0.026423,11.535,21,-0.000391925,10,-0.00030479,-1.93798,0.095046,0.620752,276.809,-0.026423,
2,1,0,1,1,40600.4,-0.0235582,-0.0239713,12.1783,21,-0.00034443,10,-0.000291931,-1.91441,0.105702,0.558171,263.323,-0.0239713,
2,1,0,1,1,40600.4,-0.0211611,-0.0216024,12.8007,21,-0.000294402,10,-0.000276526,-1.89277,0.115886,0.509119,252.642,-0.0216024,
2,1,0,1,1,40600.4,-0.0187529,-0.0191751,13.3969,21,-0.000241929,10,-0.000256888,-1.873,0.12605,0.468069,243.25,-0.01917512,
2,1,0,1,1,40600.4,-0.0163558,-0.0167722,13.9732,21,-0.000187123,10,-0.000234362,-1.8547,0.136643,0.431784,234.177,-0.0167722,
2,1,0,1,1,40600.4,-0.0139587,-0.0143333,14.5228,21,-0.000130066,10,-0.000208159,-1.83795,0.148315,0.397803,224.354,-0.0143333,
2,1,0,1,1,40600.4,-0.0115505,-0.0119813,15.0537,21,-7.0853e-05,10,-0.000180364,-1.82236,0.160734,0.367066,214.59,-0.0119813,
2,1,0,1,1,40600.4,-0.0091534,-0.00953708,15.5593,21,-9.57456e-06,10,-0.00014839,-1.80801,0.172635,0.341762,206.651,-0.00953708,
2,1,0,1,1,40600.5,-0.00675629,-0.00717237,16.0333,21,5.36696e-05,10,-0.000114997,-1.79498,0.185287,0.318425,198.746,-0.00717237,
2,1,0,1,1,40600.5,-0.00435919,-0.00473344,16.5066,21,0.000118796,10,-7.81328e-05,-1.78234,0.202893,0.290794,185.995,-0.00473344,
2,1,0,1,1,40600.5,-0.00195376,-0.00233798,16.9703,21,0.000185815,10,-3.96762e-05,-1.77031, , , ,-0.00233798,
2,1,0,0,1,40600.5,-7.54729e-05,-0.000458935,17.2477,21,0.00023891,10,-7.91559e-06,-1.76327, , , ,-0.000458935,