File: Figure_codes/Fig_3-5/rawdata_trumpetplot_data/after 10th/20221101_1-115_003_TrumpetPlot_ParaChange_from10_every3_09_CV_C01_0.csv
mode,ox/red,error,control changes,counter inc.,time/s,control/V,Ewe/V,<I>/mA,cycle number,(Q-Qo)/C,I Range,P/W,log(|I|),Tafel slope mV/dec,alpha_eff,dI/d(E-IR),E-IR/V,
2,0,0,1,0,1182.52,2.44065e-05,-0.000401673,-5.08588,1,0.0000000E+000,10,2.04286e-06,-2.29363, , , ,-0.000401673,
2,0,0,1,0,1182.54,0.00179726,0.00145727,-1.60593,1,-5.45827e-05,10,-2.34027e-06,-2.79427, , , ,0.00145727,
2,1,0,1,0,1182.56,0.00379485,0.00342948,0.573396,1,-6.21015e-05,10,1.96645e-06,-3.24155,0.0844834,0.698362,847.05,0.00342948,
2,1,0,1,0,1182.58,0.00579244,0.00546809,1.79144,1,-3.70169e-05,10,9.79575e-06,-2.7468,0.00629011,9.3798,483.81,0.00546809,
2,1,0,1,0,1182.6,0.00779002,0.00749633,2.54097,1,7.16335e-06,10,1.9048e-05,-2.595,0.0173621,3.3982,312.964,0.00749633,
2,1,0,1,0,1182.62,0.00978761,0.00944912,3.03736,1,6.33093e-05,10,2.87003e-05,-2.5175,0.0324465,1.81838,207.924,0.00944912,
2,1,0,1,0,1182.64,0.0117852,0.0114194,3.35669,1,0.000127672,10,3.83315e-05,-2.47409,0.0562806,1.04832,135.112,0.0114194,
2,1,0,1,0,1182.66,0.0137828,0.0134844,3.58257,1,0.000197343,10,4.83086e-05,-2.44581,0.081635,0.722729,100.299,0.0134844,
2,1,0,1,0,1182.68,0.0157804,0.0154699,3.76294,1,0.00027111,10,5.82121e-05,-2.42447,0.10628,0.555139,81.0653,0.0154699,
2,1,0,1,0,1182.7,0.017778,0.0174678,3.90548,1,0.000347704,10,6.82202e-05,-2.40833,0.144959,0.407011,61.7082,0.0174678,
2,1,0,1,0,1182.72,0.0197755,0.0194628,4.00934,1,0.000427031,10,7.8033e-05,-2.39693,0.184078,0.320516,50.1144,0.0194628,
2,1,0,1,0,1182.74,0.0217731,0.0215276,4.10894,1,0.000508468,10,8.84555e-05,-2.38627,0.193675,0.304634,48.8257,0.0215276,
2,1,0,1,0,1182.76,0.0237707,0.0234882,4.20588,1,0.000591867,10,9.87884e-05,-2.37614,0.200916,0.293656,48.1709,0.0234882,
2,1,0,1,0,1182.78,0.0257683,0.0254721,4.29895,1,0.00067662,10,0.000109503,-2.36664,0.223459,0.26403,44.2295,0.0254721,
2,1,0,1,0,1182.8,0.0277659,0.0274246,4.37998,1,0.000763566,10,0.000120119,-2.35853,0.240217,0.245611,42.0071,0.0274246,
2,1,0,1,0,1182.82,0.0297635,0.02947,4.46689,1,0.000852265,10,0.000131639,-2.34999,0.243519,0.242281,42.2099,0.02946998,
2,1,0,1,0,1182.84,0.0317611,0.0314338,4.54921,1,0.000942672,10,0.000142999,-2.34206,0.22234,0.265359,47.2236,0.0314338,
2,1,0,1,0,1182.86,0.0337586,0.0334389,4.65431,1,0.00103442,10,0.000155635,-2.33214,0.214259,0.275367,49.958,0.0334389,
2,1,0,1,0,1182.88,0.0357562,0.0354443,4.74957,1,0.00112864,10,0.000168345,-2.32335,0.248296,0.23762,43.9691,0.0354443,
2,1,0,1,0,1182.9,0.0377538,0.0374219,4.82944,1,0.00122466,10,0.000180727,-2.3161,0.237615,0.248301,46.9236,0.0374219,
2,1,0,1,0,1182.92,0.0397514,0.0394211,4.93617,1,0.00132258,10,0.000194589,-2.30661,0.193367,0.305119,58.906,0.0394211,
2,1,0,1,0,1182.94,0.041749,0.0414395,5.0661,1,0.00142222,10,0.000209937,-2.29533,0.202803,0.290923,57.3412,0.0414395,
2,1,0,1,0,1182.96,0.0437466,0.0434354,5.16636,1,0.00152466,10,0.000224403,-2.28682,0.232167,0.254127,51.2501,0.0434354,
2,1,0,1,0,1182.98,0.0457442,0.0454222,5.27022,1,0.00162911,10,0.000239385,-2.27817,0.218515,0.270004,55.597,0.0454222,
2,1,0,1,0,1183,0.0477418,0.0474125,5.38747,1,0.00173585,10,0.000255433,-2.26861,0.207969,0.283697,59.671,0.0474125,
2,1,0,1,0,1183.02,0.0497484,0.0494488,5.51049,1,0.00184495,10,0.000272487,-2.25881,0.212231,0.278,59.7387,0.0494488,
2,1,0,1,0,1183.04,0.0517369,0.0514146,5.62655,1,0.00195593,10,0.000289287,-2.24976,0.206841,0.285244,62.7221,0.0514146,
2,1,0,1,0,1183.06,0.0537345,0.0534266,5.75999,1,0.00206996,10,0.000307737,-2.23958,0.205624,0.286931,64.462,0.0534266,
2,1,0,1,0,1183.08,0.0557321,0.0554789,5.88855,1,0.00218658,10,0.00032669,-2.22999,0.219428,0.26888,61.7253,0.0554789,
2,1,0,1,0,1183.1,0.0577206,0.0574147,6.00615,1,0.00230508,10,0.000344841,-2.2214,0.20988,0.281113,66.0154,0.0574147,
2,1,0,1,0,1183.12,0.0597273,0.0594071,6.14787,1,0.00242689,10,0.000365227,-2.21128,0.211356,0.27915,66.8963,0.0594071,
2,1,0,1,0,1183.14,0.0617249,0.0614599,6.27676,1,0.00255133,10,0.000385769,-2.20226,0.233662,0.252501,61.8052,0.0614599,
2,1,0,1,0,1183.16,0.0637224,0.0634471,6.39756,1,0.00267825,10,0.000405907,-2.19399,0.22296,0.264621,66.1607,0.06344714,
2,1,0,1,0,1183.18,0.06572,0.0654049,6.53776,1,0.00280774,10,0.000427602,-2.18457,0.212722,0.277358,70.7505,0.0654049,
2,1,0,1,0,1183.2,0.0677176,0.0673944,6.67683,1,0.00293948,10,0.000449981,-2.17543,0.243153,0.242646,63.1008,0.0673944,
2,1,0,1,0,1183.22,0.0697152,0.0694135,6.79071,1,0.00307438,10,0.000471367,-2.16808,0.252968,0.233231,61.8919,0.0694135,
2,1,0,1,0,1183.24,0.0717128,0.0713861,6.92389,1,0.00321169,10,0.00049427,-2.15965,0.2512,0.234873,63.391,0.0713861,
2,1,0,1,0,1183.26,0.0737104,0.0733787,7.04207,1,0.00335151,10,0.000516738,-2.1523,0.259483,0.227375,62.5541,0.0733787,
2,1,0,1,0,1183.28,0.075708,0.0754214,7.17631,1,0.00349326,10,0.000541247,-2.1441,0.266602,0.221303,61.893,0.0754214,
2,1,0,1,0,1183.3,0.0777056,0.0774139,7.29182,1,0.00363804,10,0.000564488,-2.13716,0.284767,0.207187,58.9655,0.07741385,
2,1,0,1,0,1183.32,0.0797031,0.0793811,7.4098,1,0.00378524,10,0.000588198,-2.13019,0.293663,0.20091,58.0784,0.0793811,
2,1,0,1,0,1183.34,0.0817007,0.0814048,7.52361,1,0.00393477,10,0.000612458,-2.12357,0.301569,0.195644,57.4579,0.0814048,
2,1,0,1,0,1183.36,0.0836983,0.0834203,7.64188,1,0.00408581,10,0.000637488,-2.1168,0.307926,0.191604,57.1095,0.0834203,
2,1,0,1,0,1183.38,0.0856959,0.0854062,7.75212,1,0.00423989,10,0.000662079,-2.11058,0.323651,0.182295,55.141,0.0854062,
2,1,0,1,0,1183.4,0.0876935,0.0873825,7.86036,1,0.00439618,10,0.000686859,-2.10456,0.352721,0.167271,51.2787,0.0873825,
2,1,0,1,0,1183.42,0.0896911,0.0894411,7.95903,1,0.00455448,10,0.000711864,-2.09914,0.33432,0.176478,54.8923,0.0894411,
2,1,0,1,0,1183.44,0.0916887,0.0913953,8.08063,1,0.00471425,10,0.000738532,-2.09255,0.315373,0.18708,58.959,0.0913953,
2,1,0,1,0,1183.46,0.0936862,0.0934043,8.19269,1,0.00487721,10,0.000765232,-2.08657,0.361569,0.163178,52.1158,0.0934043,
2,1,0,1,0,1183.48,0.0956838,0.0953637,8.28745,1,0.0050422,10,0.000790322,-2.08158,0.34811,0.169487,54.905,0.0953637,
2,1,0,1,0,1183.5,0.0976814,0.0973545,8.40958,1,0.00520938,10,0.00081871,-2.07523,0.29384,0.20079,65.9641,0.0973545,
2,1,0,1,0,1183.52,0.099679,0.0993387,8.54966,1,0.00537821,10,0.000849312,-2.06805,0.294845,0.200105,66.7157,0.0993387,
2,1,0,1,0,1183.54,0.101677,0.101372,8.67763,1,0.00555074,10,0.000879671,-2.0616,0.303764,0.19423,65.8149,0.101372,
2,1,0,1,0,1183.56,0.103674,0.103396,8.81671,1,0.00572592,10,0.000911616,-2.05469,0.269305,0.219082,75.4761,0.1033964,
2,1,0,1,0,1183.58,0.105672,0.105367,8.97913,1,0.00590406,10,0.000946104,-2.04677,0.24598,0.239857,84.0807,0.105367,
2,1,0,1,0,1183.6,0.107667,0.107356,9.14966,1,0.00608456,10,0.000982273,-2.0386,0.245819,0.240014,85.7123,0.107356,
2,1,0,1,0,1183.62,0.109667,0.10939,9.32398,1,0.00626936,10,0.00101995,-2.0304,0.227076,0.259825,94.6876,0.10939,
2,1,0,1,0,1183.64,0.111665,0.111359,9.5287,1,0.00645803,10,0.00106111,-2.02097,0.20674,0.285383,106.171,0.111359,
2,1,0,1,0,1183.66,0.113662,0.113351,9.74449,1,0.00665097,10,0.00110455,-2.01124,0.209857,0.281144,106.867,0.113351,
2,1,0,1,0,1183.68,0.11566,0.115339,9.95405,1,0.0068481,10,0.0011481,-2.002,0.203184,0.290377,112.99,0.115339,
2,1,0,1,0,1183.7,0.117657,0.117382,10.2,1,0.00704894,10,0.00119729,-1.9914,0.200888,0.293695,116.76,0.117382,
2,1,0,1,0,1183.72,0.119655,0.119355,10.423,1,0.00725537,10,0.00124404,-1.98201,0.215347,0.273976,111.44,0.119355,
2,1,0,1,0,1183.74,0.121652,0.121401,10.6478,1,0.0074663,10,0.00129265,-1.97274,0.215592,0.273665,113.727,0.121401,
2,1,0,1,0,1183.76,0.12365,0.123348,10.877,1,0.00768177,10,0.00134165,-1.96349,0.211581,0.278853,118.398,0.123348,
2,1,0,1,0,1183.78,0.125648,0.125342,11.1144,1,0.00790089,10,0.0013931,-1.95411,0.226514,0.260469,112.837,0.125342,
2,1,0,1,0,1183.8,0.127645,0.127331,11.3264,1,0.00812554,10,0.0014422,-1.94591,0.245146,0.240672,106.382,0.127331,
2,1,0,1,0,1183.82,0.129643,0.129346,11.5404,1,0.00835437,10,0.0014927,-1.93778,0.255922,0.230539,103.765,0.129346,
2,1,0,1,0,1183.84,0.13164,0.131338,11.7422,1,0.00858743,10,0.00154219,-1.93025,0.271425,0.217371,99.5847,0.131338,
2,1,0,1,0,1183.86,0.133638,0.133356,11.9397,1,0.00882346,10,0.00159222,-1.92301,0.289414,0.203861,94.9399,0.1333556,
2,1,0,1,0,1183.88,0.135636,0.13538,12.126,1,0.00906438,10,0.00164162,-1.91628,0.303752,0.194237,91.8831,0.13538,
2,1,0,1,0,1183.9,0.137633,0.137322,12.3042,1,0.00930893,10,0.00168964,-1.90995,0.329783,0.178906,85.8506,0.137322,
2,1,0,1,0,1183.92,0.139631,0.139354,12.4671,1,0.00955688,10,0.00173735,-1.90423,0.343347,0.171838,83.6208,0.139354,
2,1,0,1,0,1183.94,0.141628,0.141282,12.6353,1,0.00980681,10,0.00178514,-1.89841,0.37688,0.156549,77.0989,0.141282,
2,1,0,1,0,1183.96,0.143626,0.143317,12.7727,1,0.010061,10,0.00183055,-1.89372,0.480232,0.122857,61.1746,0.143317,
2,1,0,1,0,1183.98,0.145624,0.14533,12.8829,1,0.0103178,10,0.00187226,-1.88999,0.639112,0.0923156,46.3473,0.14533,
2,1,0,1,0,1184,0.147621,0.147279,12.9563,1,0.0105763,10,0.00190819,-1.88752,0.917196,0.0643265,32.5053,0.147279,
2,1,0,1,0,1184.02,0.149619,0.149338,13.0132,1,0.0108349,10,0.00194336,-1.88562,2.56885,0.0229675,11.6346,0.1493379,
2,1,0,1,0,1184.04,0.151616,0.151346,13.0036,1,0.0110954,10,0.00196804,-1.88594,-1.33397,-0.0442288,-22.3858,0.1513458,
2,1,0,1,0,1184.06,0.153614,0.153286,12.9248,1,0.0113549,10,0.00198119,-1.88858,-0.535477,-0.110182,-55.4419,0.153286,
2,1,0,1,0,1184.08,0.155611,0.155315,12.7836,1,0.0116123,10,0.00198548,-1.89335,-0.328277,-0.179727,-89.3921,0.155315,
2,1,0,1,0,1184.1,0.157609,0.1573,12.5659,1,0.0118647,10,0.00197662,-1.90081,-0.205622,-0.286935,-139.978,0.1573,
2,1,0,1,0,1184.12,0.159607,0.159335,12.2208,1,0.0121129,10,0.00194721,-1.9129,-0.144645,-0.407896,-193.801,0.159335,
2,1,0,1,0,1184.14,0.161604,0.1613,11.7909,1,0.0123533,10,0.00190186,-1.92845,-0.111527,-0.52902,-242.274,0.1613,
2,1,0,1,0,1184.16,0.163602,0.163295,11.2616,1,0.0125841,10,0.00183896,-1.9484,-0.0918511,-0.642344,-281.186,0.163295,
2,1,0,1,0,1184.18,0.165606,0.165317,10.6613,1,0.0128034,10,0.0017625,-1.97219,-0.0781554,-0.754906,-312.955,0.165317,
2,1,0,1,0,1184.2,0.167597,0.1673,10.008,1,0.0130092,10,0.00167434,-1.99965,-0.0695453,-0.848367,-330.774,0.1673003,
2,1,0,1,0,1184.22,0.169595,0.169286,9.34828,1,0.0132029,10,0.00158254,-2.02927,-0.0651435,-0.905693,-330.113,0.169286,
2,1,0,1,0,1184.24,0.171592,0.171259,8.70122,1,0.0133835,10,0.00149016,-2.06042,-0.0656809,-0.898282,-305.628,0.171259,
2,1,0,1,0,1184.25,0.173581,0.173316,8.11671,1,0.0135507,10,0.00140675,-2.09062,-0.0688207,-0.8573,-272.313,0.173316,
2,1,0,1,0,1184.27,0.175587,0.175297,7.60156,1,0.013708,10,0.00133253,-2.1191,-0.0721998,-0.817177,-243.157,0.175297,
2,1,0,1,0,1184.29,0.177585,0.177281,7.15248,1,0.0138555,10,0.001268,-2.14554,-0.0787086,-0.7496,-209.821,0.177281,
2,1,0,1,0,1184.31,0.179582,0.179311,6.75943,1,0.0139945,10,0.00121204,-2.17009,-0.0894844,-0.659332,-174.852,0.179311,
2,1,0,1,0,1184.33,0.18158,0.181299,6.45003,1,0.0141266,10,0.00116938,-2.19044,-0.103935,-0.567664,-143.381,0.181299,
2,1,0,1,0,1184.35,0.183578,0.183263,6.19278,1,0.0142525,10,0.00113491,-2.20811,-0.114869,-0.513627,-124.247,0.183263,
2,1,0,1,0,1184.37,0.185575,0.185297,5.95324,1,0.014374,10,0.00110312,-2.22525,-0.125254,-0.471044,-109.776,0.185297,
2,1,0,1,0,1184.39,0.187573,0.187246,5.75549,1,0.0144912,10,0.00107769,-2.23992,-0.145316,-0.406011,-91.4212,0.187246,
2,1,0,1,0,1184.41,0.18957,0.189273,5.58979,1,0.0146047,10,0.00105799,-2.2526,-0.159993,-0.368766,-80.5113,0.189273,
2,1,0,1,0,1184.43,0.191568,0.191214,5.43606,1,0.0147146,10,0.00103945,-2.26472,-0.178831,-0.32992,-70.1532,0.191214,
2,1,0,1,0,1184.45,0.193566,0.193267,5.30958,1,0.0148222,10,0.00102617,-2.27494,-0.200701,-0.293969,-60.9306,0.193267,
2,1,0,1,0,1184.47,0.195563,0.195289,5.18773,1,0.0149273,10,0.00101311,-2.28502,-0.203854,-0.289423,-58.6407,0.195289,
2,1,0,1,0,1184.49,0.197561,0.19726,5.07542,1,0.0150301,10,0.00100118,-2.29453,-0.238994,-0.246869,-49.0317,0.19726,
2,1,0,1,0,1184.51,0.199558,0.199284,4.99188,1,0.0151304,10,0.0009948,-2.30174,-0.261979,-0.225209,-43.8294,0.199284,
2,1,0,1,0,1184.53,0.201556,0.201284,4.89907,1,0.0152294,10,0.000986102,-2.30989,-0.239093,-0.246766,-47.17,0.201284,
2,1,0,1,0,1184.55,0.203553,0.20324,4.80528,1,0.0153267,10,0.000976622,-2.31828,-0.270708,-0.217947,-40.9742,0.20324,
2,1,0,1,0,1184.57,0.205551,0.205257,4.73626,1,0.0154222,10,0.000972151,-2.32456,-0.387107,-0.152413,-28.2447,0.2052571,
2,1,0,1,0,1184.59,0.207549,0.207247,4.69209,1,0.0155162,10,0.000972421,-2.32863,-0.361446,-0.163233,-29.7921,0.207247,
2,1,0,1,0,1184.61,0.209546,0.209246,4.61743,1,0.0156095,10,0.000966178,-2.3356,-0.297815,-0.19811,-35.726,0.209246,
2,1,0,1,0,1184.63,0.211544,0.211219,4.55019,1,0.0157013,10,0.000961086,-2.34197,-0.376131,-0.15686,-27.9254,0.211219,
2,1,0,1,0,1184.65,0.213541,0.213224,4.50632,1,0.015792,10,0.000960858,-2.34618,-0.538664,-0.10953,-19.2828,0.213224,
2,1,0,1,0,1184.67,0.215539,0.215273,4.47202,1,0.0158815,10,0.000962704,-2.3495,-0.452473,-0.130395,-22.7005,0.215273,
2,1,0,1,0,1184.69,0.217537,0.217222,4.41557,1,0.0159704,10,0.00095916,-2.35501,-0.437292,-0.134921,-23.3029,0.217222,
2,1,0,1,0,1184.71,0.219534,0.219249,4.37936,1,0.0160585,10,0.00096017,-2.35859,-0.577208,-0.102216,-17.4725,0.219249,
2,1,0,1,0,1184.73,0.221532,0.221287,4.34455,1,0.0161459,10,0.000961392,-2.36205,-0.545145,-0.108228,-18.343,0.221287,
2,1,0,1,0,1184.75,0.223525,0.223227,4.3064,1,0.016232,10,0.000961303,-2.36589,-0.576772,-0.102294,-17.207,0.223227,
2,1,0,1,0,1184.77,0.225527,0.225274,4.27595,1,0.016318,10,0.000963259,-2.36897,-0.669102,-0.0881779,-14.7184,0.225274,
2,1,0,1,0,1184.79,0.227525,0.227215,4.2477,1,0.0164034,10,0.00096514,-2.37185,-0.561879,-0.105005,-17.3818,0.227215,
2,1,0,1,0,1184.81,0.229522,0.229225,4.20726,1,0.0164882,10,0.000964411,-2.376,-0.61247,-0.0963313,-15.8507,0.229225,
2,1,0,1,0,1184.83,0.23152,0.231184,4.18479,1,0.0165723,10,0.000967455,-2.37833,-1.12595,-0.0524001,-8.56878,0.231184,
2,1,0,1,0,1184.85,0.233517,0.233228,4.17297,1,0.0166558,10,0.000973251,-2.37955,-0.925539,-0.0637467,-10.3593,0.233228,
2,1,0,1,0,1184.87,0.235515,0.235192,4.14326,1,0.0167391,10,0.000974463,-2.38266,-0.691875,-0.0852755,-13.7957,0.235192,
2,1,0,1,0,1184.89,0.237512,0.237233,4.11772,1,0.0168218,10,0.000976857,-2.38534,-1.02562,-0.0575262,-9.26006,0.237233,
2,1,0,1,0,1184.91,0.23951,0.239212,4.10604,1,0.0169042,10,0.000982214,-2.38658,-1.43868,-0.0410098,-6.56923,0.239212,
2,1,0,1,0,1184.93,0.241508,0.241245,4.09136,1,0.016986,10,0.000987019,-2.38813,-0.821665,-0.0718054,-11.4417,0.241245,
2,1,0,1,0,1184.95,0.243505,0.243247,4.05987,1,0.0170676,10,0.000987552,-2.39149,-0.914146,-0.0645411,-10.254,0.243247,
2,1,0,1,0,1184.97,0.245503,0.245226,4.05054,1,0.0171488,10,0.000993296,-2.39249,-1.15529,-0.0510695,-8.05958,0.245226,
2,1,0,1,0,1184.99,0.2475,0.247235,4.02773,1,0.0172298,10,0.000995796,-2.39494,-1.2125,-0.0486597,-7.66337,0.247235,
2,1,0,1,0,1185.01,0.249498,0.249172,4.02029,1,0.0173101,10,0.00100175,-2.39574,-1.26545,-0.0466237,-7.3024,0.249172,
2,1,0,1,0,1185.03,0.251496,0.251199,3.99878,1,0.0173904,10,0.00100449,-2.39807,-1.0591,-0.0557079,-8.7023,0.251199,
2,1,0,1,0,1185.05,0.253493,0.253208,3.98517,1,0.0174704,10,0.00100908,-2.39955,-1.04137,-0.056656,-8.80308,0.253208,
2,1,0,1,0,1185.07,0.255491,0.255165,3.96387,1,0.0175501,10,0.00101144,-2.40188,-2.15085,-0.027431,-4.25723,0.255165,
2,1,0,1,0,1185.09,0.257488,0.257193,3.96821,1,0.0176291,10,0.0010206,-2.40141,-2.83191,-0.020834,-3.21771,0.257193,
2,1,0,1,0,1185.11,0.259486,0.259183,3.95094,1,0.0177085,10,0.00102402,-2.4033,-0.810246,-0.0728174,-11.2137,0.259183,
2,1,0,1,0,1185.13,0.261484,0.261159,3.92374,1,0.0177874,10,0.00102472,-2.4063,-1.11597,-0.0528687,-8.11841,0.261159,
2,1,0,1,0,1185.15,0.263481,0.263186,3.91845,1,0.017866,10,0.00103128,-2.40689,-4.39768,-0.0134162,-2.05226,0.263186,
2,1,0,1,0,1185.17,0.265479,0.2652,3.91545,1,0.017944,10,0.00103837,-2.40722,-1.43,-0.0412589,-6.2891,0.2652,
2,1,0,1,0,1185.19,0.267476,0.267212,3.89313,1,0.0180223,10,0.00104029,-2.4097,-0.985923,-0.0598424,-9.10187,0.267212,
2,1,0,1,0,1185.21,0.269474,0.269193,3.8791,1,0.0181001,10,0.00104423,-2.41127,-2.06676,-0.0285471,-4.32783,0.269193,
2,1,0,1,0,1185.23,0.271471,0.271157,3.87605,1,0.0181778,10,0.00105102,-2.41161,-4.54403,-0.0129841,-1.96368,0.271157,
2,1,0,1,0,1185.25,0.273469,0.273139,3.87135,1,0.0182549,10,0.00105742,-2.41214,-1.45504,-0.0405487,-6.11438,0.273139,
2,1,0,1,0,1185.27,0.275467,0.27517,3.85152,1,0.0183322,10,0.00105982,-2.41437,-1.06776,-0.0552559,-8.31251,0.27517,
2,1,0,1,0,1185.29,0.277464,0.277142,3.83808,1,0.0184092,10,0.00106369,-2.41589,-1.21904,-0.0483986,-7.24764,0.277142,
2,1,0,1,0,1185.31,0.279462,0.279151,3.82267,1,0.018486,10,0.0010671,-2.41763,-1.56015,-0.0378168,-5.64761,0.279151,
2,1,0,1,0,1185.33,0.281464,0.281194,3.81519,1,0.0185625,10,0.00107281,-2.41848,-1.99625,-0.0295555,-4.39904,0.281194,
2,1,0,1,0,1185.35,0.283457,0.283183,3.80493,1,0.0186385,10,0.00107749,-2.41965,-1.64453,-0.0358765,-5.32713,0.283183,
2,1,0,1,0,1185.37,0.285455,0.285134,3.79421,1,0.0187146,10,0.00108186,-2.42088,-1.00482,-0.0587169,-8.67948,0.285134,
2,1,0,1,0,1185.39,0.287452,0.287165,3.77037,1,0.0187905,10,0.00108272,-2.42362,-1.19374,-0.0494244,-7.29036,0.287165,
2,1,0,1,0,1185.41,0.28945,0.289141,3.76499,1,0.018866,10,0.00108861,-2.42424,-3.90316,-0.0151159,-2.22164,0.289141,
2,1,0,1,0,1185.43,0.291447,0.291141,3.76154,1,0.0189412,10,0.00109514,-2.42463,-1.40274,-0.0420605,-6.15969,0.291141,
2,1,0,1,0,1185.45,0.293445,0.293192,3.74004,1,0.0190164,10,0.00109655,-2.42712,-1.06893,-0.0551952,-8.06777,0.293192,
2,1,0,1,0,1185.47,0.295442,0.295156,3.72914,1,0.0190913,10,0.00110068,-2.42839,-3.38656,-0.0174218,-2.53953,0.295156,
2,1,0,1,0,1185.49,0.29744,0.297125,3.73005,1,0.0191661,10,0.00110829,-2.42829,-3.46802,-0.0170126,-2.47268,0.297125,
2,1,0,1,0,1185.51,0.299438,0.299148,3.71927,1,0.0192405,10,0.00111261,-2.42954,-0.022837,-2.58353,-335.173,0.299148,
2,1,0,1,0,1185.52,0.299737,0.299455,2.94898,1,0.0192702,10,0.000883087,-2.53033,0.00107884,54.6883,2145.7,0.299455,
2,1,0,1,0,1185.54,0.29774,0.297462,0.101799,1,0.0192951,10,3.02814e-05,-3.99225,0.00762097,7.7418,953.651,0.297462,
2,0,0,1,0,1185.56,0.295742,0.295443,-0.877378,1,0.0192858,10,-0.000259215,-3.05681,-0.0036387,-16.2146,345.619,0.295443,
2,0,0,1,0,1185.58,0.293745,0.293459,-1.28156,1,0.0192637,10,-0.000376084,-2.89226,-0.0173961,-3.39157,153.097,0.293459,
2,0,0,1,0,1185.6,0.291747,0.291443,-1.4897,1,0.0192358,10,-0.000434164,-2.8269,-0.0385986,-1.52855,86.4869,0.291443,
2,0,0,1,0,1185.62,0.289754,0.289405,-1.63215,1,0.0192047,10,-0.000472353,-2.78724,-0.0615829,-0.958058,60.0761,0.289405,
2,0,0,1,0,1185.64,0.287752,0.287448,-1.72975,1,0.019171,10,-0.000497214,-2.76202,-0.0890537,-0.662522,44.4301,0.287448,
2,0,0,1,0,1185.66,0.285754,0.285458,-1.80754,1,0.0191356,10,-0.000515978,-2.74291,-0.110976,-0.531646,37.419,0.285458,
2,0,0,1,0,1185.68,0.283757,0.283453,-1.87922,1,0.0190986,10,-0.000532671,-2.72602,-0.119854,-0.492264,36.1079,0.2834532,
2,0,0,1,0,1185.7,0.281759,0.28142,-1.95333,1,0.0190602,10,-0.000549706,-2.70923,-0.140066,-0.421229,31.928,0.28142,
2,0,0,1,0,1185.72,0.279761,0.279466,-2.00654,1,0.0190207,10,-0.000560758,-2.69755,-0.159746,-0.369337,28.9797,0.279466,
2,0,0,1,0,1185.74,0.277764,0.277435,-2.06881,1,0.0189799,10,-0.000573961,-2.68428,-0.173467,-0.340122,27.357,0.277435,
2,0,0,1,0,1185.76,0.275766,0.275451,-2.11636,1,0.0189381,10,-0.000582954,-2.67441,-0.205921,-0.286518,23.6538,0.275451,
2,0,0,1,0,1185.78,0.273769,0.27347,-2.16261,1,0.0188952,10,-0.000591409,-2.66502,-0.188566,-0.312887,26.4862,0.27347,
2,0,0,1,0,1185.8,0.271771,0.27144,-2.22259,1,0.0188515,10,-0.000603301,-2.65314,-0.195963,-0.301077,26.0134,0.27144,
2,0,0,1,0,1185.82,0.269774,0.269496,-2.26597,1,0.0188067,10,-0.000610671,-2.64475,-0.242041,-0.24376,21.5452,0.269496,
2,0,0,1,0,1185.84,0.267776,0.267501,-2.30747,1,0.018761,10,-0.000617249,-2.63686,-0.277349,-0.212729,19.1294,0.267501,
2,0,0,1,0,1185.86,0.265778,0.265482,-2.34277,1,0.0187146,10,-0.000621962,-2.63027,-0.265114,-0.222546,20.3922,0.265482,
2,0,0,1,0,1185.88,0.263781,0.263512,-2.38882,1,0.0186675,10,-0.000629481,-2.62182,-0.281129,-0.209868,19.5077,0.263512,
2,0,0,1,0,1185.9,0.261783,0.261463,-2.42116,1,0.0186194,10,-0.000633045,-2.61598,-0.360255,-0.163773,15.4651,0.261463,
2,0,0,1,0,1185.92,0.259786,0.259512,-2.45068,1,0.0185707,10,-0.00063598,-2.61071,-0.306302,-0.19262,18.477,0.259512,
2,0,0,1,0,1185.94,0.257788,0.257466,-2.49502,1,0.0185213,10,-0.000642383,-2.60293,-0.285931,-0.206343,20.0596,0.257466,
2,0,0,1,0,1185.96,0.25579,0.255472,-2.53171,1,0.0184713,10,-0.000646781,-2.59659,-0.367283,-0.160639,15.8411,0.255472,
2,0,0,1,0,1185.98,0.253793,0.253437,-2.55884,1,0.0184204,10,-0.000648505,-2.59196,-0.401223,-0.14705,14.6961,0.253437,
2,0,0,1,0,1186,0.251795,0.2515,-2.59009,1,0.018369,10,-0.000651406,-2.58669,-0.364433,-0.161895,16.3724,0.2515,
2,0,0,1,0,1186.02,0.249798,0.249459,-2.62398,1,0.0183169,10,-0.000654574,-2.58104,-0.372574,-0.158358,16.2093,0.249459,
2,0,0,1,0,1186.04,0.2478,0.24745,-2.65572,1,0.0182644,10,-0.00065716,-2.57582,-0.397196,-0.148541,15.3889,0.24745,
2,0,0,1,0,1186.06,0.245802,0.245465,-2.68544,1,0.018211,10,-0.000659181,-2.57098,-0.403286,-0.146298,15.3338,0.245465,
2,0,0,1,0,1186.08,0.243805,0.243534,-2.71578,1,0.0181569,10,-0.000661384,-2.56611,-0.461568,-0.127825,13.5294,0.243534,
2,0,0,1,0,1186.1,0.241807,0.241518,-2.73884,1,0.0181023,10,-0.000661478,-2.56243,-0.382189,-0.154374,16.5643,0.241518,
2,0,0,1,0,1186.12,0.23981,0.23946,-2.78325,1,0.0180475,10,-0.000666479,-2.55545,-0.384129,-0.153594,16.6163,0.23946,
2,0,0,1,0,1186.14,0.237812,0.237507,-2.80548,1,0.0179916,10,-0.000666322,-2.55199,-0.488484,-0.120782,13.2431,0.237507,
2,0,0,1,0,1186.16,0.235815,0.235487,-2.83587,1,0.0179352,10,-0.000667811,-2.54731,-0.478989,-0.123176,13.6166,0.235487,
2,0,0,1,0,1186.18,0.233817,0.233517,-2.85982,1,0.0178784,10,-0.000667815,-2.54366,-0.444963,-0.132595,14.8267,0.233517,
2,0,0,1,0,1186.2,0.231815,0.231519,-2.8947,1,0.0178209,10,-0.000670179,-2.5384,-0.412251,-0.143117,16.1528,0.231519,
2,0,0,1,0,1186.22,0.229822,0.229521,-2.92436,1,0.017763,10,-0.000671202,-2.53397,-0.565342,-0.104362,11.8872,0.229521,
2,0,0,1,0,1186.24,0.227824,0.227486,-2.94264,1,0.0177044,10,-0.000669411,-2.53126,-0.491584,-0.12002,13.8266,0.227486,
2,0,0,1,0,1186.26,0.225827,0.225529,-2.97956,1,0.0176452,10,-0.000671976,-2.52585,-0.405679,-0.145435,16.8914,0.225529,
2,0,0,1,0,1186.28,0.223829,0.223522,-3.00961,1,0.0175854,10,-0.000672713,-2.52149,-0.461691,-0.127791,15.0088,0.223522,
2,0,0,1,0,1186.3,0.221831,0.221538,-3.03945,1,0.0175252,10,-0.000673355,-2.5172,-0.510998,-0.11546,13.6852,0.221538,
2,0,0,1,0,1186.32,0.219834,0.219496,-3.0647,1,0.0174642,10,-0.00067269,-2.51361,-0.457721,-0.128899,15.4463,0.219496,
2,0,0,1,0,1186.34,0.217836,0.217504,-3.10176,1,0.0174024,10,-0.000674646,-2.50839,-0.485144,-0.121613,14.6826,0.217504,
2,0,0,1,0,1186.36,0.215839,0.215555,-3.12257,1,0.0173402,10,-0.000673085,-2.50549,-0.433647,-0.136055,16.6466,0.215555,
2,0,0,1,0,1186.38,0.213841,0.213489,-3.16861,1,0.0172776,10,-0.000676462,-2.49913,-0.393024,-0.150118,18.5121,0.213489,
2,0,0,1,0,1186.4,0.211843,0.211518,-3.1973,1,0.0172139,10,-0.000676287,-2.49522,-0.588291,-0.10029,12.4984,0.211518,
2,0,0,1,0,1186.42,0.209846,0.209538,-3.21799,1,0.0171498,10,-0.00067429,-2.49242,-0.481688,-0.122486,15.431,0.209538,
2,0,0,1,0,1186.44,0.207848,0.207516,-3.25905,1,0.017085,10,-0.000676306,-2.48691,-0.315191,-0.187188,23.8535,0.207516,
2,0,0,1,0,1186.46,0.205851,0.20556,-3.31288,1,0.0170195,10,-0.000680994,-2.47979,-0.381727,-0.154561,19.8977,0.20556,
2,0,0,1,0,1186.48,0.203853,0.203517,-3.33863,1,0.0169531,10,-0.000679468,-2.47643,-0.55053,-0.107169,13.9725,0.203517,
2,0,0,1,0,1186.5,0.201856,0.201562,-3.36874,1,0.016886,10,-0.000679009,-2.47253,-0.415489,-0.142001,18.7081,0.201562,
2,0,0,1,0,1186.52,0.199858,0.199531,-3.41321,1,0.0168183,10,-0.000681039,-2.46684,-0.327962,-0.179899,23.9886,0.1995306,
2,0,0,1,0,1186.54,0.19786,0.19754,-3.46522,1,0.0167499,10,-0.000684519,-2.46027,-0.368316,-0.160189,21.605,0.19754,
2,0,0,1,0,1186.56,0.195863,0.195563,-3.49892,1,0.0166804,10,-0.000684261,-2.45607,-0.379803,-0.155344,21.2653,0.195563,
2,0,0,1,0,1186.58,0.193865,0.193535,-3.55038,1,0.01661,10,-0.000687124,-2.44973,-0.322668,-0.18285,25.3334,0.1935354,
2,0,0,1,0,1186.6,0.191868,0.191507,-3.60168,1,0.0165385,10,-0.000689747,-2.4435,-0.310665,-0.189915,26.7068,0.191507,
2,0,0,1,0,1186.62,0.18987,0.189554,-3.65672,1,0.0164664,10,-0.000693144,-2.43691,-0.318904,-0.185009,26.3785,0.189554,
2,0,0,1,0,1186.64,0.187872,0.187568,-3.70557,1,0.0163929,10,-0.000695049,-2.43114,-0.317212,-0.185996,26.9338,0.1875685,
2,0,0,1,0,1186.66,0.185875,0.185542,-3.76477,1,0.0163182,10,-0.000698523,-2.42426,-0.296845,-0.198757,29.1963,0.185542,
2,0,0,1,0,1186.68,0.183877,0.18355,-3.82291,1,0.0162423,10,-0.000701693,-2.41761,-0.23718,-0.248756,37.2581,0.18355,
2,0,0,1,0,1186.7,0.18188,0.181596,-3.91179,1,0.0161656,10,-0.000710365,-2.40762,-0.226588,-0.260384,39.6486,0.181596,
2,0,0,1,0,1186.72,0.179882,0.17955,-3.9815,1,0.0160867,10,-0.000714877,-2.39995,-0.264193,-0.223321,34.6983,0.1795498,
2,0,0,1,0,1186.74,0.177885,0.177571,-4.05143,1,0.0160064,10,-0.000719419,-2.39239,-0.230406,-0.25607,40.5961,0.177571,
2,0,0,1,0,1186.76,0.175887,0.175546,-4.14402,1,0.0159245,10,-0.000727468,-2.38258,-0.192641,-0.306269,49.5976,0.175546,
2,0,0,1,0,1186.78,0.173896,0.173586,-4.24911,1,0.0158411,10,-0.000737585,-2.3717,-0.177103,-0.33314,55.2836,0.173586,
2,0,0,1,0,1186.8,0.171892,0.171601,-4.36211,1,0.0157549,10,-0.000748544,-2.3603,-0.186344,-0.316618,53.8316,0.1716015,
2,0,0,1,0,1186.82,0.169894,0.169563,-4.46568,1,0.0156667,10,-0.000757213,-2.35011,-0.165838,-0.35577,62.2846,0.169563,
2,0,0,1,0,1186.84,0.167897,0.16759,-4.61198,1,0.015576,10,-0.000772921,-2.33611,-0.145337,-0.405952,73.0095,0.16759,
2,0,0,1,0,1186.86,0.165899,0.165615,-4.75393,1,0.0154824,10,-0.00078732,-2.32295,-0.146962,-0.401465,74.5854,0.1656146,
2,0,0,1,0,1186.88,0.163901,0.163568,-4.91195,1,0.0153862,10,-0.000803437,-2.30875,-0.131504,-0.448655,86.221,0.1635679,
2,0,0,1,0,1186.9,0.161904,0.161618,-5.09851,1,0.015286,10,-0.000824011,-2.29256,-0.122396,-0.48204,95.9639,0.1616181,
2,0,0,1,0,1186.92,0.159906,0.159577,-5.29497,1,0.0151821,10,-0.000844954,-2.27614,-0.116139,-0.508014,105.206,0.159577,
2,0,0,1,0,1186.94,0.157909,0.157613,-5.51986,1,0.015074,10,-0.000870002,-2.25807,-0.105437,-0.559574,120.826,0.157613,
2,0,0,1,0,1186.96,0.155911,0.155583,-5.77751,1,0.0149616,10,-0.000898882,-2.23826,-0.0990099,-0.5959,134.501,0.155583,
2,0,0,1,0,1186.98,0.153913,0.153632,-6.05536,1,0.0148432,10,-0.000930295,-2.21786,-0.0965906,-0.610826,144.463,0.153632,
2,0,0,1,0,1187,0.151916,0.151609,-6.35162,1,0.0147192,10,-0.000962961,-2.19712,-0.0925989,-0.637156,158.299,0.151609,
2,0,0,1,0,1187.02,0.149918,0.149641,-6.68713,1,0.0145888,10,-0.00100067,-2.17476,-0.0877614,-0.672277,175.748,0.149641,
2,0,0,1,0,1187.04,0.147921,0.147591,-7.05782,1,0.0144521,10,-0.00104167,-2.15133,-0.0873422,-0.675504,186.051,0.147591,
2,0,0,1,0,1187.06,0.145923,0.145589,-7.44097,1,0.0143071,10,-0.00108332,-2.12837,-0.0852919,-0.691742,200.981,0.1455889,
2,0,0,1,0,1187.08,0.143926,0.143671,-7.84549,1,0.0141542,10,-0.00112717,-2.10538,-0.0860638,-0.685538,209.965,0.143671,
2,0,0,1,0,1187.1,0.141928,0.141644,-8.26934,1,0.0139932,10,-0.0011713,-2.08253,-0.0879324,-0.67097,216.777,0.141644,
2,0,0,1,0,1187.12,0.13993,0.139605,-8.72699,1,0.0138241,10,-0.00121833,-2.05914,-0.0890254,-0.662732,225.381,0.139605,
2,0,0,1,0,1187.14,0.137933,0.137629,-9.17423,1,0.0136452,10,-0.00126264,-2.03743,-0.0944492,-0.624675,223.472,0.137629,
2,0,0,1,0,1187.16,0.135935,0.135606,-9.6206,1,0.0134573,10,-0.00130461,-2.0168,-0.0995215,-0.592837,222.347,0.1356063,
2,0,0,1,0,1187.18,0.133938,0.133646,-10.0598,1,0.0132605,10,-0.00134445,-1.99741,-0.106237,-0.555361,217.685,0.133646,
2,0,0,1,0,1187.2,0.13194,0.131664,-10.4788,1,0.0130562,10,-0.00137968,-1.97969,-0.116063,-0.508344,207.691,0.131664,
2,0,0,1,0,1187.22,0.129942,0.129655,-10.8887,1,0.0128424,10,-0.00141177,-1.96302,-0.12796,-0.461082,195.525,0.129655,
2,0,0,1,0,1187.24,0.127945,0.127658,-11.2621,1,0.0126209,10,-0.0014377,-1.94838,-0.144086,-0.409479,179.685,0.127658,
2,0,0,1,0,1187.26,0.125947,0.125659,-11.6067,1,0.0123922,10,-0.00145849,-1.93529,-0.157069,-0.375631,170.015,0.125659,
2,0,0,1,0,1187.28,0.12395,0.123674,-11.9394,1,0.012158,10,-0.00147659,-1.92302,-0.178187,-0.331113,153.928,0.123674,
2,0,0,1,0,1187.3,0.121952,0.12166,-12.2222,1,0.0119164,10,-0.00148696,-1.91285,-0.2145,-0.275059,130.956,0.12166,
2,0,0,1,0,1187.32,0.119955,0.119676,-12.4629,1,0.0116695,10,-0.00149152,-1.90438,-0.255768,-0.230678,112.048,0.119676,
2,0,0,1,0,1187.34,0.117957,0.11764,-12.6727,1,0.0114182,10,-0.00149081,-1.89713,-0.308019,-0.191547,94.5998,0.11764,
2,0,0,1,0,1187.36,0.115955,0.115601,-12.8484,1,0.0111631,10,-0.00148529,-1.89115,-0.397257,-0.148518,74.3066,0.115601,
2,0,0,1,0,1187.38,0.113962,0.113664,-12.9681,1,0.0109061,10,-0.00147401,-1.88712,-0.554256,-0.106449,53.8139,0.113664,
2,0,0,1,0,1187.4,0.111964,0.111684,-13.0592,1,0.0106458,10,-0.00145851,-1.88408,-0.846473,-0.069701,35.4678,0.111684,
2,0,0,1,0,1187.42,0.109967,0.109682,-13.1094,1,0.0103841,10,-0.00143786,-1.88242,-2.06758,-0.0285358,14.5759,0.109682,
2,0,0,1,0,1187.44,0.107969,0.1077,-13.1173,1,0.0101219,10,-0.00141273,-1.88216,8.73695,0.00675293,-3.45311,0.1077,
2,0,0,1,0,1187.46,0.105971,0.105694,-13.0956,1,0.00986108,10,-0.00138413,-1.88287,1.45095,0.0406631,-20.7495,0.105694,
2,0,0,1,0,1187.48,0.103974,0.103635,-13.0329,1,0.00959985,10,-0.00135066,-1.88496,0.775441,0.0760857,-38.6532,0.103635,
2,0,0,1,0,1187.5,0.101976,0.101647,-12.9392,1,0.00934018,10,-0.00131523,-1.88809,0.489691,0.120484,-60.715,0.101647,
2,0,0,1,0,1187.52,0.0999786,0.0996718,-12.7923,1,0.00908298,10,-0.00127504,-1.89305,0.404432,0.145884,-72.8356,0.0996718,
2,0,0,1,0,1187.54,0.0979811,0.097649,-12.648,1,0.0088299,10,-0.00123506,-1.89798,0.341566,0.172734,-85.0765,0.097649,
2,0,0,1,0,1187.56,0.0959835,0.0956449,-12.4497,1,0.00857908,10,-0.00119075,-1.90484,0.261867,0.225305,-109.29,0.0956449,
2,0,0,1,0,1187.58,0.0939859,0.0936702,-12.2131,1,0.00833252,10,-0.00114401,-1.91317,0.242728,0.24307,-115.903,0.0936702,
2,0,0,1,0,1187.6,0.0919883,0.0916701,-11.9891,1,0.00809061,10,-0.00109904,-1.92121,0.244828,0.240985,-112.725,0.0916701,
2,0,0,1,0,1187.62,0.0899907,0.0896618,-11.7613,1,0.00785438,10,-0.00105454,-1.92954,0.219713,0.268532,-123.052,0.0896618,
2,0,0,1,0,1187.64,0.0879931,0.0876776,-11.4978,1,0.00762192,10,-0.0010081,-1.93939,0.208187,0.283398,-127.26,0.08767762,
2,0,0,1,0,1187.66,0.0859955,0.0856817,-11.2548,1,0.00739454,10,-0.000964329,-1.94866,0.217998,0.270644,-118.903,0.0856817,
2,0,0,1,0,1187.68,0.083998,0.0836602,-11.0201,1,0.00717194,10,-0.000921942,-1.95782,0.22272,0.264907,-114.012,0.08366017,
2,0,0,1,0,1187.7,0.0820004,0.081729,-10.8041,1,0.00695487,10,-0.00088301,-1.96641,0.233709,0.252451,-106.499,0.081729,
2,0,0,1,0,1187.72,0.0800028,0.0797314,-10.6017,1,0.00674093,10,-0.000845287,-1.97463,0.252837,0.233352,-96.6118,0.0797314,
2,0,0,1,0,1187.74,0.0780052,0.0777045,-10.4153,1,0.00653086,10,-0.000809316,-1.98233,0.280168,0.210588,-85.6884,0.0777045,
2,0,0,1,0,1187.76,0.0760076,0.075658,-10.2526,1,0.00632428,10,-0.000775693,-1.98916,0.307859,0.191646,-76.7428,0.075658,
2,0,0,1,0,1187.78,0.07401,0.0736931,-10.1075,1,0.006122,10,-0.000744851,-1.99536,0.321047,0.183774,-72.4984,0.0736931,
2,0,0,1,0,1187.8,0.0720124,0.0716972,-9.96548,1,0.00592143,10,-0.000714497,-2.0015,0.339295,0.17389,-67.6819,0.0716972,
2,0,0,1,0,1187.82,0.0700148,0.0697425,-9.84009,1,0.00572354,10,-0.000686272,-2.007,0.345879,0.17058,-65.4658,0.0697425,
2,0,0,1,0,1187.84,0.0680173,0.0676932,-9.70335,1,0.00552827,10,-0.000656851,-2.01308,0.419376,0.140685,-53.4284,0.0676932,
2,0,0,1,0,1187.86,0.0660106,0.0656765,-9.62284,1,0.00533522,10,-0.000631994,-2.0167,0.450417,0.13099,-49.1044,0.0656765,
2,0,0,1,0,1187.88,0.0640221,0.0637209,-9.5083,1,0.00514496,10,-0.000605877,-2.0219,0.38351,0.153842,-57.0939,0.0637209,
2,0,0,1,0,1187.9,0.0620245,0.0617168,-9.39677,1,0.00495609,10,-0.000579938,-2.02702,0.39977,0.147585,-54.1349,0.06171675,
2,0,0,1,0,1187.92,0.0600269,0.059691,-9.29014,1,0.00476934,10,-0.000554538,-2.03198,0.429924,0.137233,-49.7911,0.059691,
2,0,0,1,0,1187.94,0.0580361,0.057711,-9.19732,1,0.00458548,10,-0.000530786,-2.03634,0.426291,0.138403,-49.6422,0.057711,
2,0,0,1,0,1187.96,0.0560317,0.0556929,-9.09166,1,0.0044026,10,-0.000506341,-2.04136,0.411022,0.143545,-50.948,0.0556929,
2,0,0,1,0,1187.98,0.0540342,0.0536883,-8.99237,1,0.00422186,10,-0.000482785,-2.04613,0.391826,0.150577,-52.8124,0.0536883,
2,0,0,1,0,1188,0.0520366,0.0517431,-8.88307,1,0.0040432,10,-0.000459638,-2.05144,0.344473,0.171276,-59.3241,0.0517431,
2,0,0,1,0,1188.02,0.050039,0.0497498,-8.75872,1,0.00386682,10,-0.000435745,-2.05756,0.352495,0.167378,-57.2718,0.0497498,
2,0,0,1,0,1188.04,0.0480414,0.047727,-8.65305,1,0.00369357,10,-0.000412984,-2.06283,0.358919,0.164383,-55.4697,0.047727,
2,0,0,1,0,1188.06,0.0460438,0.0457178,-8.53507,1,0.00352181,10,-0.000390205,-2.06879,0.308086,0.191505,-63.7217,0.04571785,
2,0,0,1,0,1188.08,0.0440462,0.0437577,-8.40012,1,0.00335264,10,-0.00036757,-2.07571,0.279517,0.211079,-69.1677,0.0437577,
2,0,0,1,0,1188.1,0.0420486,0.0417315,-8.25934,1,0.00318625,10,-0.000344675,-2.08305,0.290322,0.203223,-65.5653,0.0417315,
2,0,0,1,0,1188.12,0.040051,0.0397129,-8.13493,1,0.00302315,10,-0.000323062,-2.08965,0.27587,0.213868,-67.7916,0.0397129,
2,0,0,1,0,1188.14,0.0380535,0.0377036,-7.98628,1,0.00286205,10,-0.000301111,-2.09766,0.241493,0.244314,-76.1048,0.0377036,
2,0,0,1,0,1188.16,0.0360559,0.0357141,-7.8306,1,0.00270403,10,-0.000279663,-2.1062,0.239562,0.246283,-75.3191,0.0357141,
2,0,0,1,0,1188.18,0.0340583,0.0337442,-7.68807,1,0.00254901,10,-0.000259428,-2.11418,0.24942,0.236549,-70.9765,0.0337442,
2,0,0,1,0,1188.2,0.0320607,0.0317285,-7.54771,1,0.00239748,10,-0.000239478,-2.12218,0.24712,0.23875,-70.3191,0.0317285,
2,0,0,1,0,1188.22,0.0300631,0.0297525,-7.40738,1,0.00224811,10,-0.000220388,-2.13034,0.242892,0.242906,-70.2188,0.0297525,
2,0,0,1,0,1188.24,0.0280655,0.02775,-7.26835,1,0.00210152,10,-0.000201697,-2.13856,0.258688,0.228074,-64.7691,0.02775,
2,0,0,1,0,1188.26,0.0260679,0.025738,-7.14736,1,0.00195743,10,-0.000183959,-2.14585,0.279407,0.211161,-58.9281,0.025738,
2,0,0,1,0,1188.28,0.0240704,0.0237763,-7.03419,1,0.00181642,10,-0.000167247,-2.15279,0.298222,0.197839,-54.3497,0.0237763,
2,0,0,1,0,1188.3,0.0220728,0.0217765,-6.93205,1,0.0016769,10,-0.000150956,-2.15914,0.323162,0.182571,-49.4084,0.0217765,
2,0,0,1,0,1188.32,0.0200752,0.0197541,-6.83546,1,0.00153939,10,-0.000135028,-2.16523,0.3423,0.172364,-46.0054,0.0197541,
2,0,0,1,0,1188.34,0.0180776,0.0177538,-6.74699,1,0.00140364,10,-0.000119785,-2.17089,0.424729,0.138912,-36.6589,0.0177538,
2,0,0,1,0,1188.36,0.01608,0.0157611,-6.68908,1,0.0012702,10,-0.000105427,-2.17463,0.511026,0.115454,-30.1285,0.0157611,
2,0,0,1,0,1188.38,0.0140824,0.0137557,-6.62653,1,0.00113723,10,-9.11527e-05,-2.17871,0.508633,0.115997,-30.0101,0.0137557,
2,0,0,1,0,1188.4,0.0120848,0.0117785,-6.56956,1,0.00100547,10,-7.73797e-05,-2.18246,0.552527,0.106782,-27.3877,0.0117785,
2,0,0,1,0,1188.42,0.0100872,0.00977975,-6.51764,1,0.00087483,10,-6.37409e-05,-2.18591,0.842036,0.0700683,-17.8667,0.00977975,
2,0,0,1,0,1188.44,0.00809193,0.00777117,-6.49796,1,0.000745562,10,-5.04968e-05,-2.18722,1.20622,0.0489131,-12.394,0.00777117,
2,0,0,1,0,1188.46,0.00609208,0.00575616,-6.46777,1,0.000616059,10,-3.72295e-05,-2.18925,0.942968,0.0625684,-15.7901,0.00575616,
2,0,0,1,0,1188.48,0.00409449,0.00378799,-6.43507,1,0.00048723,10,-2.4376e-05,-2.19145,-2.54808,-0.0231547,5.85521,0.00378799,
2,0,0,1,0,1188.5,0.0020969,0.00175172,-6.49122,1,0.000358604,10,-1.13708e-05,-2.18767,-3.49545,-0.0168791,4.24478,0.00175172,
2,0,0,1,0,1188.52,9.14991e-05,-0.000329228,-6.45254,1,0.000229359,10,2.12436e-06,-2.19027,1.10006,0.0536337,-13.5303,-0.000329228,
2,0,0,1,0,1188.54,-0.00189827,-0.00225273,-6.43704,1,0.00010115,10,1.45009e-05,-2.19131,4.14335,0.0142397,-3.58198,-0.00225273,
2,0,0,1,0,1188.56,-0.00389586,-0.00423947,-6.43854,1,-2.74682e-05,10,2.7296e-05,-2.19121,-6.97088,-0.00846378,2.12765,-0.00423947,
2,0,0,1,0,1188.58,-0.00589345,-0.00625567,-6.44555,1,-0.000156174,10,4.03213e-05,-2.19074,-4.59691,-0.0128347,3.22829,-0.00625567,
2,0,0,1,0,1188.6,-0.00789103,-0.00824407,-6.45146,1,-0.000285059,10,5.31864e-05,-2.19034,-1.60666,-0.0367222,9.26386,-0.00824407,
2,0,0,1,0,1188.62,-0.00988862,-0.0102347,-6.48241,1,-0.000413726,10,6.63455e-05,-2.18826,-1.09495,-0.0538838,13.6243,-0.0102347,
2,0,0,1,0,1188.64,-0.0118862,-0.0122605,-6.50619,1,-0.000543506,10,7.97694e-05,-2.18667,-1.46258,-0.0403397,10.2378,-0.0122605,
2,0,0,1,0,1188.66,-0.0138838,-0.0142461,-6.52348,1,-0.000673686,10,9.29339e-05,-2.18552,-1.28526,-0.0459051,11.6973,-0.0142461,
2,0,0,1,0,1188.68,-0.0158814,-0.0162021,-6.55229,1,-0.000804319,10,0.000106161,-2.18361,-0.781512,-0.0754947,19.3338,-0.0162021,
2,0,0,1,0,1188.7,-0.017879,-0.0182388,-6.60068,1,-0.00093514,10,0.000120388,-2.18041,-0.754891,-0.078157,20.1109,-0.0182388,
2,0,0,1,0,1188.72,-0.0198766,-0.0202828,-6.63436,1,-0.00106733,10,0.000134563,-2.1782,-0.947333,-0.0622801,16.1224,-0.0202828,
2,0,0,1,0,1188.74,-0.0218741,-0.0222683,-6.66564,1,-0.0012001,10,0.000148432,-2.17616,-0.812532,-0.0726125,18.9056,-0.0222683,
2,0,0,1,0,1188.76,-0.0238717,-0.0242069,-6.70855,1,-0.0013337,10,0.000162393,-2.17337,-0.610946,-0.0965716,25.3113,-0.0242069,
2,0,0,1,0,1188.78,-0.0258693,-0.0262455,-6.76631,1,-0.00146765,10,0.000177585,-2.16965,-0.682008,-0.0865093,22.8043,-0.0262455,
2,0,0,1,0,1188.8,-0.0278669,-0.0282431,-6.80059,1,-0.00160311,10,0.00019207,-2.16745,-0.736715,-0.0800852,21.2788,-0.0282431,
2,0,0,1,0,1188.82,-0.0298645,-0.0301896,-6.85024,1,-0.00173947,10,0.000206806,-2.16429,-0.630938,-0.0935116,24.998,-0.0301896,
2,0,0,1,0,1188.84,-0.0318621,-0.0321877,-6.8992,1,-0.00187682,10,0.000222069,-2.1612,-0.580498,-0.101637,27.3898,-0.0321877,
2,0,0,1,0,1188.86,-0.0338597,-0.0342107,-6.96037,1,-0.0020146,10,0.000238119,-2.15737,-0.591395,-0.0997641,27.0747,-0.0342107,
2,0,0,1,0,1188.88,-0.0358573,-0.0362365,-7.00882,1,-0.00215414,10,0.000253975,-2.15436,-0.617739,-0.0955097,26.1396,-0.0362365,
2,0,0,1,0,1188.9,-0.0378548,-0.0382274,-7.06537,1,-0.00229483,10,0.00027009,-2.15087,-0.577781,-0.102115,28.1532,-0.0382274,
2,0,0,1,0,1188.92,-0.0398524,-0.0401954,-7.12027,1,-0.0024366,10,0.000286202,-2.1475,-0.541067,-0.109044,30.3211,-0.0401954,
2,0,0,1,0,1188.94,-0.04185,-0.0421669,-7.18482,1,-0.00257878,10,0.000302962,-2.14358,-0.518913,-0.113699,31.8775,-0.0421669,
2,0,0,1,0,1188.96,-0.0438476,-0.0442023,-7.248,1,-0.00272308,10,0.000320379,-2.13978,-0.579063,-0.101889,28.8004,-0.0442023,
2,0,0,1,0,1188.98,-0.0458452,-0.046206,-7.30115,1,-0.00286854,10,0.000337357,-2.13661,-0.546913,-0.107878,30.7716,-0.046206,
2,0,0,1,0,1189,-0.0478428,-0.0481725,-7.37017,1,-0.00301512,10,0.000355039,-2.13252,-0.423932,-0.139173,40.0923,-0.0481725,
2,0,0,1,0,1189.02,-0.0498495,-0.0502265,-7.46234,1,-0.00316323,10,0.000374807,-2.12713,-0.46628,-0.126533,36.7619,-0.0502265,
2,0,0,1,0,1189.04,-0.051838,-0.0522246,-7.51913,1,-0.0033122,10,0.000392684,-2.12383,-0.552644,-0.106759,31.3492,-0.0522246,
2,0,0,1,0,1189.06,-0.0538355,-0.0541794,-7.58626,1,-0.00346313,10,0.000411019,-2.11997,-0.472996,-0.124737,36.9606,-0.0541794,
2,0,0,1,0,1189.08,-0.0558331,-0.0562035,-7.6662,1,-0.00361556,10,0.000430867,-2.11542,-0.444305,-0.132792,39.7273,-0.0562035,
2,0,0,1,0,1189.1,-0.0578216,-0.0581955,-7.74581,1,-0.00376879,10,0.000450771,-2.11093,-0.427892,-0.137885,41.7024,-0.0581955,
2,0,0,1,0,1189.12,-0.0598283,-0.0602179,-7.83361,1,-0.00392451,10,0.000471723,-2.10604,-0.410587,-0.143697,43.9302,-0.0602179,
2,0,0,1,0,1189.14,-0.0618259,-0.0622004,-7.92174,1,-0.00408185,10,0.000492735,-2.10118,-0.415981,-0.141833,43.8421,-0.06220036,
2,0,0,1,0,1189.16,-0.0638235,-0.0641932,-8.00789,1,-0.00424102,10,0.000514053,-2.09648,-0.428281,-0.13776,43.0488,-0.0641932,
2,0,0,1,0,1189.18,-0.0658211,-0.0661796,-8.09304,1,-0.00440194,10,0.000535595,-2.09189,-0.38308,-0.154015,48.7124,-0.0661796,
2,0,0,1,0,1189.2,-0.0678187,-0.068165,-8.20137,1,-0.00456409,10,0.000559046,-2.08611,-0.356698,-0.165406,52.9182,-0.068165,
2,0,0,1,0,1189.22,-0.0698162,-0.0701509,-8.3032,1,-0.00472903,10,0.000582477,-2.08075,-0.388633,-0.151814,49.1702,-0.0701509,
2,0,0,1,0,1189.24,-0.0718138,-0.0721522,-8.39742,1,-0.00489593,10,0.000605892,-2.07585,-0.375687,-0.157046,51.5179,-0.0721522,
2,0,0,1,0,1189.26,-0.0738114,-0.0741422,-8.50882,1,-0.00506487,10,0.000630863,-2.07013,-0.336464,-0.175353,58.263,-0.0741422,
2,0,0,1,0,1189.28,-0.075809,-0.0761606,-8.63096,1,-0.00523544,10,0.000657339,-2.06394,-0.345307,-0.170863,57.5112,-0.0761606,
2,0,0,1,0,1189.3,-0.0778066,-0.078189,-8.74156,1,-0.0054092,10,0.000683494,-2.05841,-0.349838,-0.16865,57.5631,-0.07818903,
2,0,0,1,0,1189.32,-0.0798042,-0.0801654,-8.86149,1,-0.00558514,10,0.000710385,-2.05249,-0.322751,-0.182804,63.2712,-0.0801654,
2,0,0,1,0,1189.34,-0.0818018,-0.0822256,-8.99695,1,-0.00576364,10,0.00073978,-2.0459,-0.317106,-0.186058,65.2874,-0.0822256,
2,0,0,1,0,1189.36,-0.0837994,-0.0841581,-9.12216,1,-0.00594389,10,0.000767704,-2.0399,-0.322843,-0.182751,65.0798,-0.0841581,
2,0,0,1,0,1189.38,-0.0857969,-0.0861722,-9.2538,1,-0.00612755,10,0.000797421,-2.03368,-0.322277,-0.183072,66.1115,-0.0861722,
2,0,0,1,0,1189.4,-0.0877945,-0.0881399,-9.3854,1,-0.00631384,10,0.000827228,-2.02755,-0.323273,-0.182508,66.8602,-0.0881399,
2,0,0,1,0,1189.42,-0.0897921,-0.0901723,-9.52124,1,-0.00650282,10,0.000858552,-2.02131,-0.32662,-0.180638,67.1036,-0.0901723,
2,0,0,1,0,1189.44,-0.0917897,-0.092128,-9.65302,1,-0.00669342,10,0.000889313,-2.01534,-0.341266,-0.172885,65.1123,-0.092128,
2,0,0,1,0,1189.46,-0.0937873,-0.0941543,-9.78052,1,-0.00688766,10,0.000920878,-2.00964,-0.354386,-0.166485,63.5435,-0.0941543,
2,0,0,1,0,1189.48,-0.0957849,-0.0961372,-9.90778,1,-0.00708444,10,0.000952506,-2.00402,-0.37061,-0.159197,61.5219,-0.0961372,
2,0,0,1,0,1189.5,-0.0977825,-0.0981262,-10.0249,1,-0.0072836,10,0.000983703,-1.99892,-0.379807,-0.155342,60.8012,-0.09812618,
2,0,0,1,0,1189.52,-0.0997501,-0.100142,-10.1513,1,-0.00748116,10,0.00101658,-1.99348,0.00670156,8.80392,-2907.92,-0.100142,
2,0,0,1,1,1189.53,-0.0987313,-0.0991413,-7.07308,1,-0.00761334,10,0.000701234,-2.15039,-0.00739179,-7.98183,2051.02,-0.09914127,
2,0,0,1,1,1189.55,-0.0967337,-0.0971289,-3.97029,1,-0.007721,10,0.00038563,-2.40118,-0.00705883,-8.35833,1275.45,-0.0971289,
2,0,0,1,1,1189.57,-0.0947361,-0.0950609,-1.86879,1,-0.00777776,10,0.000177649,-2.72844,-0.00387705,-15.2178,891.133,-0.09506093,
2,0,0,1,1,1189.59,-0.0927386,-0.0930745,-0.357356,1,-0.00779889,10,3.32607e-05,-3.4469,-0.0103375,-5.70735,663.229,-0.0930745,
2,1,0,1,1,1189.61,-0.090741,-0.0910818,0.770269,1,-0.00779404,10,-7.01575e-05,-3.11336,0.00603494,9.7764,498.973,-0.09108182,
2,1,0,1,1,1189.63,-0.0887434,-0.0891191,1.61629,1,-0.00776965,10,-0.000144042,-2.79148,0.0084758,6.961,378.3,-0.0891191,
2,1,0,1,1,1189.65,-0.0867458,-0.0870814,2.28364,1,-0.00773017,10,-0.000198862,-2.64137,0.016592,3.55593,299.968,-0.0870814,
2,1,0,1,1,1189.67,-0.0847482,-0.085115,2.81741,1,-0.00767877,10,-0.000239804,-2.55015,0.0258659,2.28099,243.9,-0.085115,
2,1,0,1,1,1189.69,-0.0827529,-0.0831066,3.25308,1,-0.00761817,10,-0.000270352,-2.48771,0.0368661,1.60039,199.643,-0.0831066,
2,1,0,1,1,1189.71,-0.080753,-0.081155,3.608,1,-0.00754921,10,-0.000292807,-2.44273,0.0504399,1.16971,162.887,-0.08115495,
2,1,0,1,1,1189.73,-0.0787554,-0.0791169,3.90294,1,-0.00747381,10,-0.000308789,-2.40861,0.0674449,0.874789,132.108,-0.07911694,
2,1,0,1,1,1189.75,-0.0767579,-0.0771015,4.14349,1,-0.00739316,10,-0.00031947,-2.38263,0.0835804,0.705907,113.634,-0.0771015,
2,1,0,1,1,1189.77,-0.0747603,-0.0751407,4.35478,1,-0.00730801,10,-0.000327221,-2.36103,0.100991,0.584209,98.9826,-0.0751407,
2,1,0,1,1,1189.79,-0.0727627,-0.0730406,4.54546,1,-0.00721909,10,-0.000332003,-2.34242,0.12605,0.468067,82.5604,-0.07304056,
2,1,0,1,1,1189.81,-0.0707651,-0.0710982,4.68853,1,-0.00712656,10,-0.000333346,-2.32896,0.155307,0.379894,69.3876,-0.0710982,
2,1,0,1,1,1189.83,-0.0687675,-0.0691214,4.81739,1,-0.00703133,10,-0.000332985,-2.31719,0.175941,0.335339,62.9875,-0.0691214,
2,1,0,1,1,1189.85,-0.0667699,-0.0671148,4.93944,1,-0.00693359,10,-0.000331509,-2.30632,0.20366,0.289698,55.7158,-0.0671148,
2,1,0,1,1,1189.87,-0.0647723,-0.0651216,5.04025,1,-0.00683405,10,-0.000328229,-2.29755,0.253339,0.232889,45.7201,-0.0651216,
2,1,0,1,1,1189.89,-0.0627748,-0.0631157,5.12228,1,-0.00673227,10,-0.000323296,-2.29054,0.280568,0.210288,42.0512,-0.0631157,
2,1,0,1,1,1189.91,-0.0607772,-0.0611215,5.20846,1,-0.00662879,10,-0.000318349,-2.28329,0.313833,0.187998,38.1377,-0.0611215,
2,1,0,1,1,1189.93,-0.0587796,-0.0591247,5.27448,1,-0.00652381,10,-0.000311852,-2.27782,0.375171,0.157262,32.3626,-0.0591247,
2,1,0,1,1,1189.95,-0.056782,-0.0571172,5.33805,1,-0.00641806,10,-0.000304894,-2.27262,0.430664,0.136998,28.5029,-0.0571172,
2,1,0,1,1,1189.97,-0.0547844,-0.0551416,5.38801,1,-0.00631068,10,-0.000297104,-2.26857,0.522921,0.112828,23.7131,-0.0551416,
2,1,0,1,1,1189.99,-0.0527868,-0.0531213,5.4328,1,-0.00620235,10,-0.000288597,-2.26498,0.671806,0.0878229,18.5932,-0.05312128,
2,1,0,1,1,1190.01,-0.0507892,-0.0511769,5.46173,1,-0.00609333,10,-0.000279514,-2.26267,0.658642,0.0895782,19.1255,-0.0511769,
2,1,0,1,1,1190.03,-0.0487916,-0.0491442,5.50887,1,-0.00598403,10,-0.000270729,-2.25894,0.729269,0.0809029,17.3551,-0.0491442,
2,1,0,1,1,1190.05,-0.046794,-0.0471439,5.53172,1,-0.00587348,10,-0.000260787,-2.25714,1.37199,0.0430034,9.27691,-0.0471439,
2,1,0,1,1,1190.07,-0.0447965,-0.0450999,5.54639,1,-0.00576256,10,-0.000250141,-2.25599,1.40053,0.0421268,9.12427,-0.0450999,
2,1,0,1,1,1190.09,-0.0427989,-0.0431824,5.56787,1,-0.00565129,10,-0.000240434,-2.25431,0.956415,0.0616887,13.4167,-0.0431824,
2,1,0,1,1,1190.11,-0.0408013,-0.0411494,5.59939,1,-0.00554009,10,-0.000230411,-2.25186,1.87315,0.0314978,6.86135,-0.0411494,
2,1,0,1,1,1190.13,-0.0388037,-0.0391485,5.59554,1,-0.00542807,10,-0.000219057,-2.25216,13.624,0.00433061,0.946675,-0.0391485,
2,1,0,1,1,1190.15,-0.0368061,-0.0371182,5.6032,1,-0.00531596,10,-0.000207981,-2.25156,3.72871,0.0158232,3.45969,-0.0371182,
2,1,0,1,1,1190.17,-0.0348085,-0.035136,5.60943,1,-0.00520369,10,-0.000197093,-2.25108,3.02891,0.0194789,4.26604,-0.035136,
2,1,0,1,1,1190.19,-0.0328109,-0.0331221,5.62025,1,-0.00509184,10,-0.000186155,-2.25024,15.9746,0.00369336,0.808775,-0.0331221,
2,1,0,1,1,1190.21,-0.0308134,-0.0311874,5.61262,1,-0.0049794,10,-0.000175043,-2.25083,-7.86469,-0.00750189,-1.64451,-0.0311874,
2,1,0,1,1,1190.23,-0.0288158,-0.0291489,5.61372,1,-0.00486701,10,-0.000163634,-2.25075,54.5299,0.00108197,0.237019,-0.0291489,
2,1,0,1,1,1190.25,-0.0268182,-0.0271621,5.61357,1,-0.00475461,10,-0.000152477,-2.25076,-33.986,-0.00173601,-0.380284,-0.0271621,
2,1,0,1,1,1190.27,-0.0248138,-0.0251401,5.61219,1,-0.00464243,10,-0.000141091,-2.25087,-5.02032,-0.0117522,-2.57233,-0.0251401,
2,1,0,1,1,1190.29,-0.022823,-0.0231658,5.60329,1,-0.00453071,10,-0.000129805,-2.25156,-2.83308,-0.0208254,-4.55394,-0.0231658,
2,1,0,1,1,1190.31,-0.0208254,-0.0211562,5.59405,1,-0.00441863,10,-0.000118349,-2.25227,-2.11112,-0.0279472,-6.09819,-0.0211562,
2,1,0,1,1,1190.33,-0.0188278,-0.0191753,5.57896,1,-0.00430685,10,-0.000106978,-2.25345,-2.11102,-0.0279486,-6.0885,-0.0191753,
2,1,0,1,1,1190.35,-0.0168393,-0.0171855,5.56988,1,-0.00419584,10,-9.57211e-05,-2.25415,-3.65707,-0.0161331,-3.50827,-0.0171855,
2,1,0,1,1,1190.37,-0.0148327,-0.0151996,5.56501,1,-0.00408423,10,-8.45857e-05,-2.25453,-2.62385,-0.0224861,-4.8793,-0.0151996,
2,1,0,1,1,1190.39,-0.0128351,-0.0131698,5.55028,1,-0.00397295,10,-7.30961e-05,-2.25568,-2.02745,-0.0291006,-6.30578,-0.0131698,
2,1,0,1,1,1190.41,-0.0108375,-0.0111695,5.5396,1,-0.00386198,10,-6.18747e-05,-2.25652,-3.28576,-0.0179563,-3.88404,-0.0111695,
2,1,0,1,1,1190.43,-0.00883989,-0.00915408,5.53468,1,-0.00375107,10,-5.06649e-05,-2.25691,-2.57418,-0.0229199,-4.94625,-0.00915408,
2,1,0,1,1,1190.45,-0.0068423,-0.00715859,5.51976,1,-0.00364085,10,-3.95137e-05,-2.25808,-2.30428,-0.0256046,-5.51964,-0.00715859,
2,1,0,1,1,1190.47,-0.00484471,-0.00517516,5.51272,1,-0.00353041,10,-2.85292e-05,-2.25863,-2.80748,-0.0210153,-4.51962,-0.00517516,
2,1,0,1,1,1190.49,-0.00284713,-0.00312494,5.50153,1,-0.0034202,10,-1.71919e-05,-2.25952,-1.89759,-0.031092,-6.67311,-0.00312494,
2,1,0,1,1,1190.51,-0.000849538,-0.0011855,5.4861,1,-0.00331018,10,-6.50376e-06,-2.26074, , , ,-0.0011855,
2,1,0,0,1,1190.52,-2.55332e-05,-0.00042076,5.48179,1,-0.00326576,10,-2.30652e-06,-2.26108, , , ,-0.00042076,