File: Figure_codes/Fig_3-5/rawdata_trumpetplot_data/after 10th/20221101_1-115_003_TrumpetPlot_ParaChange_from10_every3_14_CV_C01_28.csv
mode,ox/red,error,control changes,counter inc.,time/s,control/V,Ewe/V,<I>/mA,cycle number,(Q-Qo)/C,I Range,P/W,log(|I|),Tafel slope mV/dec,alpha_eff,dI/d(E-IR),E-IR/V,
2,1,0,1,0,56362.8,2.44065e-05,-0.000268062,29.2051,29,0.0000000E+000,10,-7.82878e-06,-1.53454, , , ,-0.000268062,
2,1,0,1,0,56362.8,0.00332042,0.00292906,30.441,29,9.30163e-05,10,8.91636e-05,-1.51654, , , ,0.00292906,
2,1,0,1,0,56362.8,0.0073156,0.00693952,31.4226,29,0.000216898,10,0.000218058,-1.50276, , , ,0.00693952,
2,1,0,1,0,56362.8,0.0113108,0.0109404,32.3062,29,0.000344471,10,0.000353444,-1.49071,0.342554,0.172235,215.988,0.0109404,
2,1,0,1,0,56362.8,0.0153059,0.0149095,33.1183,29,0.000475418,10,0.000493779,-1.47993,0.376649,0.156645,201.83,0.0149095,
2,1,0,1,0,56362.8,0.0193011,0.0188765,33.8854,29,0.000609516,10,0.000639639,-1.46999,0.411857,0.143254,188.965,0.0188765,
2,1,0,1,0,56362.8,0.0233462,0.0229782,34.6597,29,0.000746732,10,0.000796416,-1.46018,0.443803,0.132942,179.187,0.02297817,
2,1,0,1,0,56362.8,0.0273414,0.0269876,35.3386,29,0.000886794,10,0.000953702,-1.45175,0.475711,0.124025,170.561,0.0269876,
2,1,0,1,0,56362.8,0.0313366,0.0309641,35.9951,29,0.00102953,10,0.00111456,-1.44376,0.512451,0.115133,161.467,0.0309641,
2,1,0,1,0,56362.8,0.0353317,0.0349417,36.6255,29,0.00117484,10,0.00127976,-1.43622,0.535824,0.110111,157.183,0.0349417,
2,1,0,1,0,56362.8,0.0393269,0.038968,37.2415,29,0.00132264,10,0.00145123,-1.42897,0.563171,0.104764,152.062,0.038968,
2,1,0,1,0,56362.8,0.0433221,0.0429308,37.8446,29,0.00147288,10,0.0016247,-1.422,0.595048,0.0991517,146.203,0.0429308,
2,1,0,1,0,56362.8,0.0473173,0.0468744,38.4145,29,0.00162545,10,0.00180066,-1.41551,0.622262,0.0948153,141.961,0.04687443,
2,1,0,1,0,56362.8,0.0513124,0.0509368,38.9641,29,0.00178027,10,0.00198471,-1.40934,0.649731,0.0908068,137.984,0.0509368,
2,1,0,1,0,56362.8,0.0553076,0.0549441,39.5095,29,0.00193728,10,0.00217081,-1.4033,0.667397,0.0884031,136.288,0.0549441,
2,1,0,1,0,56362.8,0.0593028,0.0588941,40.0473,29,0.00209645,10,0.00235855,-1.39743,0.686887,0.0858948,134.187,0.0588941,
2,1,0,1,0,56362.8,0.0633479,0.0629926,40.6112,29,0.0022578,10,0.0025582,-1.39135,0.714166,0.0826139,130.724,0.06299261,
2,1,0,1,0,56362.8,0.0673431,0.0669575,41.1138,29,0.00242129,10,0.00275288,-1.38601,0.744342,0.0792647,127.01,0.0669575,
2,1,0,1,0,56362.8,0.0713382,0.0709255,41.5986,29,0.00258676,10,0.0029504,-1.38092,0.775509,0.076079,123.477,0.0709255,
2,1,0,1,0,56362.8,0.0753334,0.0749381,42.085,29,0.00275417,10,0.00315377,-1.37587,0.796483,0.0740756,121.646,0.0749381,
2,1,0,1,0,56362.8,0.0793286,0.0789252,42.5785,29,0.00292354,10,0.00336052,-1.37081,0.810039,0.072836,120.979,0.0789252,
2,1,0,1,0,56362.8,0.0833238,0.0829399,43.058,29,0.00309487,10,0.00357123,-1.36595,0.822693,0.0717157,120.462,0.0829399,
2,1,0,1,0,56362.8,0.0873189,0.0869398,43.536,29,0.00326812,10,0.00378501,-1.36115,0.842773,0.070007,118.908,0.0869398,
2,1,0,1,0,56362.8,0.0913141,0.0909131,44.0094,29,0.00344325,10,0.00400103,-1.35645,0.845427,0.0697872,119.855,0.0909131,
2,1,0,1,0,56362.9,0.0953093,0.0949087,44.4791,29,0.00362028,10,0.00422145,-1.35184,0.847859,0.069587,120.834,0.0949087,
2,1,0,1,0,56362.9,0.0993044,0.0988789,44.9684,29,0.00379923,10,0.00444643,-1.34709,0.843698,0.0699302,122.777,0.0988789,
2,1,0,1,0,56362.9,0.103319,0.102904,45.4651,29,0.00398013,10,0.00467855,-1.34232,0.848545,0.0695308,123.359,0.102904,
2,1,0,1,0,56362.9,0.107345,0.106957,45.9792,29,0.00416312,10,0.0049178,-1.33744,0.864107,0.0682786,122.427,0.106957,
2,1,0,1,0,56362.9,0.11134,0.110929,46.4553,29,0.00434803,10,0.00515326,-1.33296,0.870356,0.0677883,122.864,0.110929,
2,1,0,1,0,56362.9,0.115335,0.114929,46.9334,29,0.00453487,10,0.00539402,-1.32852,0.889012,0.0663658,121.584,0.1149292,
2,1,0,1,0,56362.9,0.11933,0.118909,47.4315,29,0.00472364,10,0.00564002,-1.32393,0.901088,0.0654764,121.158,0.1189089,
2,1,0,1,0,56362.9,0.123325,0.122914,47.9193,29,0.00491439,10,0.00588996,-1.31949,0.895753,0.0658663,123.139,0.122914,
2,1,0,1,0,56362.9,0.127321,0.126857,48.3851,29,0.00510707,10,0.00613797,-1.31529,0.888075,0.0664358,125.554,0.126857,
2,1,0,1,0,56362.9,0.131316,0.130793,48.8868,29,0.0053016,10,0.00639405,-1.31081,0.864903,0.0682158,130.32,0.130793,
2,1,0,1,0,56362.9,0.135311,0.134833,49.4308,29,0.00549831,10,0.0066649,-1.306,0.840172,0.0702237,135.56,0.134833,
2,1,0,1,0,56362.9,0.139306,0.138862,49.9976,29,0.00569722,10,0.00694274,-1.30105,0.819798,0.071969,140.473,0.138862,
2,1,0,1,0,56362.9,0.143301,0.142884,50.5577,29,0.00589838,10,0.00722387,-1.29621,0.82235,0.0717456,141.58,0.142884,
2,1,0,1,0,56362.9,0.147346,0.14695,51.1565,29,0.0061019,10,0.00751746,-1.2911,0.825275,0.0714913,142.672,0.1469503,
2,1,0,1,0,56362.9,0.151342,0.150965,51.7148,29,0.00630769,10,0.00780712,-1.28639,0.81741,0.0721792,145.683,0.150965,
2,1,0,1,0,56362.9,0.155337,0.154931,52.2902,29,0.00651574,10,0.00810137,-1.28158,0.821549,0.0718156,146.632,0.154931,
2,1,0,1,0,56362.9,0.159332,0.158918,52.8936,29,0.00672617,10,0.00840575,-1.2766,0.819726,0.0719753,148.572,0.158918,
2,1,0,1,0,56362.9,0.163327,0.162903,53.4957,29,0.00693899,10,0.00871461,-1.27168,0.823581,0.0716383,149.508,0.162903,
2,1,0,1,0,56362.9,0.167322,0.166934,54.0873,29,0.00715422,10,0.00902899,-1.2669,0.842858,0.0699999,147.701,0.166934,
2,1,0,1,0,56362.9,0.171317,0.170905,54.6785,29,0.00737182,10,0.00934482,-1.26218,0.86461,0.0682388,145.546,0.170905,
2,1,0,1,0,56362.9,0.175313,0.174908,55.2553,29,0.00759175,10,0.0096646,-1.25763,0.883402,0.0667873,143.95,0.174908,
2,1,0,1,0,56362.9,0.179308,0.178906,55.8248,29,0.00781398,10,0.00998737,-1.25317,0.907573,0.0650086,141.587,0.178906,
2,1,0,1,0,56362.9,0.183303,0.182885,56.3835,29,0.00803846,10,0.0103117,-1.24885,0.953834,0.0618556,136.001,0.182885,
2,1,0,1,0,56362.9,0.187348,0.186957,56.9513,29,0.00826515,10,0.0106475,-1.2445,1.01434,0.058166,129.063,0.186957,
2,1,0,1,0,56362.9,0.191343,0.19093,57.4343,29,0.00849399,10,0.0109659,-1.24083,1.09179,0.0540399,120.946,0.19093,
2,1,0,1,0,56363,0.195338,0.19497,57.8981,29,0.0087247,10,0.0112884,-1.23734,1.20854,0.0488193,110.172,0.19497,
2,1,0,1,0,56363,0.199334,0.198914,58.3222,29,0.0089572,10,0.0116011,-1.23417,1.33787,0.0441,100.221,0.198914,
2,1,0,1,0,56363,0.203329,0.202898,58.7075,29,0.00919132,10,0.0119117,-1.23131,1.53054,0.0385484,88.157,0.2028984,
2,1,0,1,0,56363,0.207324,0.206911,59.036,29,0.00942685,10,0.0122152,-1.22888,1.82013,0.0324154,74.5334,0.206911,
2,1,0,1,0,56363,0.211319,0.210924,59.3045,29,0.00966359,10,0.0125087,-1.22691,2.24764,0.0262498,60.6386,0.210924,
2,1,0,1,0,56363,0.215314,0.214914,59.5147,29,0.00990127,10,0.0127905,-1.22538,2.99558,0.0196957,45.6592,0.214914,
2,1,0,1,0,56363,0.219309,0.218907,59.6783,29,0.0101397,10,0.013064,-1.22418,4.29007,0.0137527,31.9673,0.218907,
2,1,0,1,0,56363,0.223305,0.222927,59.7673,29,0.0103786,10,0.0133238,-1.22354,7.51966,0.0078461,18.2688,0.222927,
2,1,0,1,0,56363,0.227314,0.226934,59.8163,29,0.0106178,10,0.0135743,-1.22318,60.5121,0.000975012,2.27155,0.226934,
2,1,0,1,0,56363,0.231345,0.23096,59.8078,29,0.0108571,10,0.0138132,-1.22324,-11.2467,-0.00524598,-12.2164,0.23096,
2,1,0,1,0,56363,0.23534,0.234946,59.7147,29,0.0110961,10,0.0140297,-1.22392,-4.88443,-0.0120792,-28.0919,0.234946,
2,1,0,1,0,56363,0.239335,0.238958,59.5715,29,0.0113347,10,0.014235,-1.22496,-3.12125,-0.0189027,-43.8617,0.238958,
2,1,0,1,0,56363,0.24333,0.242965,59.366,29,0.0115726,10,0.0144238,-1.22646,-2.32341,-0.0253937,-58.7117,0.242965,
2,1,0,1,0,56363,0.247326,0.246959,59.106,29,0.0118095,10,0.0145968,-1.22837,-1.82035,-0.0324114,-74.5974,0.246959,
2,1,0,1,0,56363,0.251321,0.250981,58.7733,29,0.0120453,10,0.014751,-1.23082,-1.52616,-0.0386592,-88.4965,0.250981,
2,1,0,1,0,56363,0.255316,0.254917,58.3809,29,0.0122795,10,0.0148823,-1.23373,-1.29563,-0.0455376,-103.569,0.254917,
2,1,0,1,0,56363,0.259311,0.258954,57.951,29,0.0125122,10,0.0150066,-1.23694,-1.13726,-0.0518793,-117.098,0.258954,
2,1,0,1,0,56363,0.263306,0.262899,57.4552,29,0.012743,10,0.0151049,-1.24067,-1.04415,-0.0565055,-126.488,0.262899,
2,1,0,1,0,56363,0.267302,0.266919,56.907,29,0.0129716,10,0.0151896,-1.24483,-0.926582,-0.0636749,-141.179,0.266919,
2,1,0,1,0,56363,0.271347,0.270997,56.347,29,0.0131981,10,0.0152699,-1.24913,-0.85308,-0.0691611,-151.757,0.270997,
2,1,0,1,0,56363,0.275342,0.274988,55.6873,29,0.0134221,10,0.0153133,-1.25424,-0.785808,-0.075082,-162.891,0.274988,
2,1,0,1,0,56363,0.279337,0.279008,55.0106,29,0.0136435,10,0.0153484,-1.25955,-0.721509,-0.0817731,-175.317,0.279008,
2,1,0,1,0,56363,0.283332,0.282962,54.2937,29,0.013862,10,0.0153631,-1.26525,-0.686563,-0.0859353,-181.84,0.282962,
2,1,0,1,0,56363,0.287327,0.286968,53.5469,29,0.0140776,10,0.0153663,-1.27127,-0.650007,-0.0907683,-189.461,0.286968,
2,1,0,1,0,56363,0.291322,0.290991,52.7774,29,0.0142902,10,0.0153577,-1.27755,-0.628125,-0.0939303,-193.412,0.290991,
2,1,0,1,0,56363.1,0.295318,0.294975,51.9855,29,0.0144997,10,0.0153344,-1.28412,-0.610008,-0.09672,-197.389,0.294975,
2,1,0,1,0,56363.1,0.299013,0.298658,51.2579,29,0.0146907,10,0.0153086,-1.29024,-0.210691,-0.280032,-553.699,0.298658,
2,1,0,0,0,56363.1,0.300012,0.299575,51.0586,29,0.0147418,10,0.0152959,-1.29193,0.00616441,9.57106,17660.2,0.299575,
2,1,0,1,0,56363.1,0.298714,0.298519,48.6087,29,0.0148056,10,0.0145106,-1.31329,0.0648124,0.910319,1579.65,0.298519,
2,1,0,1,0,56363.1,0.294718,0.294458,42.866,29,0.0149875,10,0.0126222,-1.36789,0.0759517,0.776809,1277.08,0.294458,
2,1,0,1,0,56363.1,0.290723,0.290454,38.2978,29,0.0151492,10,0.0111238,-1.41683,0.0802586,0.735123,1117.81,0.290454,
2,1,0,1,0,56363.1,0.286728,0.286452,34.2999,29,0.0152938,10,0.00982527,-1.46471,0.0824303,0.715756,965.239,0.286452,
2,1,0,1,0,56363.1,0.282733,0.282485,30.6853,29,0.0154234,10,0.00866813,-1.51307,0.0815839,0.723182,869.187,0.2824851,
2,1,0,1,0,56363.1,0.278738,0.278429,27.394,29,0.0155391,10,0.00762729,-1.56234,0.0790342,0.746512,798.627,0.278429,
2,1,0,1,0,56363.1,0.274742,0.274402,24.3453,29,0.0156422,10,0.00668038,-1.61359,0.0759814,0.776506,736.1,0.274402,
2,1,0,1,0,56363.1,0.270747,0.270443,21.5147,29,0.0157336,10,0.0058185,-1.66726,0.0718959,0.820631,686.33,0.270443,
2,1,0,1,0,56363.1,0.266702,0.266409,18.8519,29,0.015814,10,0.00502232,-1.72465,0.0675694,0.873176,639.645,0.266409,
2,1,0,1,0,56363.1,0.262707,0.262413,16.4015,29,0.0158842,10,0.00430397,-1.78512,0.0629154,0.937767,595.707,0.262413,
2,1,0,1,0,56363.1,0.258712,0.258415,14.1195,29,0.015945,10,0.00364868,-1.85018,0.0574803,1.02644,557.648,0.258415,
2,1,0,1,0,56363.1,0.254717,0.254416,11.9673,29,0.0159969,10,0.00304468,-1.922,0.0515253,1.14507,523.882,0.254416,
2,1,0,1,0,56363.1,0.250722,0.250419,9.93514,29,0.0160405,10,0.00248795,-2.00283,0.0449971,1.31119,493.54,0.250419,
2,1,0,1,0,56363.1,0.246726,0.246437,8.03195,29,0.0160762,10,0.00197937,-2.09518,0.0380955,1.54874,463.497,0.246437,
2,1,0,1,0,56363.1,0.242731,0.242436,6.23304,29,0.0161045,10,0.00151111,-2.2053,0.0302805,1.94845,437.233,0.242436,
2,1,0,1,0,56363.1,0.238736,0.238408,4.5477,29,0.0161259,10,0.00108421,-2.34221,0.0212558,2.77571,413.367,0.238408,
2,1,0,1,0,56363.1,0.234741,0.234436,2.94663,29,0.0161407,10,0.000690797,-2.53067,0.00784607,7.51969,393.412,0.234436,
2,1,0,1,0,56363.1,0.230746,0.230441,1.42009,29,0.0161492,10,0.000327247,-2.84769,0.0313469,1.88217,370.869,0.230441,
2,1,0,1,0,56363.1,0.226701,0.226447,-0.0571333,29,0.0161518,10,-1.29376e-05,-4.24311,0.411414,0.143408,351.305,0.226447,
2,0,0,1,0,56363.1,0.222705,0.222371,-1.40015,29,0.0161488,10,-0.000311352,-2.85383,-0.0365015,-1.61637,331.92,0.222371,
2,0,0,1,0,56363.1,0.21871,0.218381,-2.69341,29,0.0161404,10,-0.000588192,-2.5697,-0.00822816,-7.1705,313.659,0.2183814,
2,0,0,1,0,56363.1,0.214715,0.214375,-3.91262,29,0.0161271,10,-0.000838768,-2.40753,-0.0246991,-2.38875,301.169,0.214375,
2,0,0,1,0,56363.1,0.21072,0.210404,-5.08913,29,0.0161089,10,-0.00107077,-2.29336,-0.0370981,-1.59038,286.343,0.210404,
2,0,0,1,0,56363.2,0.206725,0.206384,-6.21484,29,0.0160862,10,-0.00128264,-2.20657,-0.0489171,-1.20612,274.664,0.206384,
2,0,0,1,0,56363.2,0.202729,0.202358,-7.28171,29,0.0160591,10,-0.00147351,-2.13777,-0.0613318,-0.96198,261.992,0.202358,
2,0,0,1,0,56363.2,0.198734,0.198391,-8.303,29,0.0160278,10,-0.00164724,-2.08076,-0.073795,-0.799512,251.388,0.198391,
2,0,0,1,0,56363.2,0.194739,0.194385,-9.28585,29,0.0159925,10,-0.00180503,-2.03218,-0.08606,-0.685568,243.069,0.194385,
2,0,0,1,0,56363.2,0.190744,0.190409,-10.2308,29,0.0159534,10,-0.00194803,-1.99009,-0.0987188,-0.597657,234.669,0.190409,
2,0,0,1,0,56363.2,0.186735,0.186388,-11.1635,29,0.0159105,10,-0.00208073,-1.9522,-0.112165,-0.526009,225.681,0.186388,
2,0,0,1,0,56363.2,0.182704,0.182419,-12.0511,29,0.015864,10,-0.00219835,-1.91897,-0.125704,-0.469356,217.852,0.182419,
2,0,0,1,0,56363.2,0.178709,0.178376,-12.8988,29,0.015814,10,-0.00230084,-1.88945,-0.139631,-0.422544,210.705,0.1783765,
2,0,0,1,0,56363.2,0.174713,0.174363,-13.7264,29,0.0157606,10,-0.00239338,-1.86244,-0.153337,-0.384773,204.675,0.174363,
2,0,0,1,0,56363.2,0.170718,0.170364,-14.5398,29,0.015704,10,-0.00247705,-1.83744,-0.165387,-0.356738,201.14,0.170364,
2,0,0,1,0,56363.2,0.166723,0.166344,-15.3412,29,0.0156441,10,-0.00255192,-1.81414,-0.17751,-0.332375,197.848,0.166344,
2,0,0,1,0,56363.2,0.162728,0.162387,-16.115,29,0.0155812,10,-0.00261685,-1.79277,-0.188163,-0.313558,196.486,0.162387,
2,0,0,1,0,56363.2,0.158733,0.158386,-16.8875,29,0.0155151,10,-0.00267474,-1.77243,-0.19824,-0.297619,195.741,0.158386,
2,0,0,1,0,56363.2,0.154737,0.154407,-17.6751,29,0.0154459,10,-0.00272916,-1.75264,-0.206113,-0.28625,197.101,0.154407,
2,0,0,1,0,56363.2,0.150742,0.150414,-18.4594,29,0.0153735,10,-0.00277655,-1.73378,-0.210405,-0.280412,201.998,0.150414,
2,0,0,1,0,56363.2,0.146747,0.146403,-19.2653,29,0.015298,10,-0.0028205,-1.71522,-0.216852,-0.272075,204.61,0.146403,
2,0,0,1,0,56363.2,0.142702,0.142367,-20.1232,29,0.0152191,10,-0.00286488,-1.6963,-0.219429,-0.26888,210.959,0.142367,
2,0,0,1,0,56363.2,0.138707,0.138365,-20.9574,29,0.0151369,10,-0.00289977,-1.67866,-0.220871,-0.267124,218.603,0.138365,
2,0,0,1,0,56363.2,0.134712,0.134376,-21.8427,29,0.0150512,10,-0.00293514,-1.66069,-0.222384,-0.265307,226.6,0.134376,
2,0,0,1,0,56363.2,0.130717,0.130369,-22.7705,29,0.0149619,10,-0.00296856,-1.64263,-0.219161,-0.269208,239.687,0.130369,
2,0,0,1,0,56363.2,0.126721,0.126375,-23.747,29,0.0148688,10,-0.00300103,-1.62439,-0.217897,-0.27077,251.454,0.126375,
2,0,0,1,0,56363.2,0.122726,0.122433,-24.7762,29,0.0147716,10,-0.00303342,-1.60596,-0.215221,-0.274137,265.646,0.122433,
2,0,0,1,0,56363.2,0.118731,0.118395,-25.8613,29,0.0146703,10,-0.00306184,-1.58735,-0.214115,-0.275553,278.617,0.118395,
2,0,0,1,0,56363.2,0.114736,0.114412,-27.0094,29,0.0145644,10,-0.00309019,-1.56848,-0.215249,-0.274101,289.088,0.114412,
2,0,0,1,0,56363.2,0.110741,0.110403,-28.197,29,0.0144539,10,-0.00311305,-1.5498,-0.215225,-0.274132,301.838,0.110403,
2,0,0,1,0,56363.3,0.106745,0.106423,-29.4045,29,0.0143386,10,-0.00312931,-1.53159,-0.220113,-0.268044,307.567,0.106423,
2,0,0,1,0,56363.3,0.102703,0.102353,-30.7033,29,0.0142183,10,-0.00314257,-1.51281,-0.22711,-0.259786,310.382,0.102353,
2,0,0,1,0,56363.3,0.0987052,0.0984102,-31.931,29,0.0140929,10,-0.00314233,-1.49579,-0.234776,-0.251304,312.219,0.0984102,
2,0,0,1,0,56363.3,0.09471,0.0943976,-33.1649,29,0.0139626,10,-0.00313069,-1.47932,-0.247754,-0.238139,307.569,0.0943976,
2,0,0,1,0,56363.3,0.0907148,0.0904402,-34.3946,29,0.0138273,10,-0.00311065,-1.46351,-0.258945,-0.227847,305.104,0.0904402,
2,0,0,1,0,56363.3,0.0867197,0.0864149,-35.6053,29,0.0136872,10,-0.00307683,-1.44848,-0.273244,-0.215924,299.232,0.0864149,
2,0,0,1,0,56363.3,0.0827245,0.0824267,-36.8076,29,0.0135422,10,-0.00303393,-1.43406,-0.289108,-0.204076,292.205,0.0824267,
2,0,0,1,0,56363.3,0.0787293,0.0783664,-37.962,29,0.0133926,10,-0.00297494,-1.42065,-0.3052,-0.193316,285.506,0.0783664,
2,0,0,1,0,56363.3,0.0747341,0.0743962,-39.0827,29,0.0132384,10,-0.0029076,-1.40802,-0.325577,-0.181217,275.605,0.0743962,
2,0,0,1,0,56363.3,0.070739,0.0704186,-40.1724,29,0.0130797,10,-0.00282888,-1.39607,-0.346192,-0.170426,266.354,0.0704186,
2,0,0,1,0,56363.3,0.0667438,0.0664368,-41.2145,29,0.0129168,10,-0.00273816,-1.38495,-0.37395,-0.157775,252.912,0.0664368,
2,0,0,1,0,56363.3,0.0627403,0.0624359,-42.2051,29,0.0127499,10,-0.00263512,-1.37463,-0.405288,-0.145576,238.875,0.0624359,
2,0,0,1,0,56363.3,0.0587035,0.0583862,-43.1318,29,0.012579,10,-0.0025183,-1.3652,-0.434921,-0.135657,227.713,0.0583862,
2,0,0,1,0,56363.3,0.0547083,0.0544966,-43.9757,29,0.0124048,10,-0.00239653,-1.35679,-0.472353,-0.124907,213.992,0.0544966,
2,0,0,1,0,56363.3,0.0507132,0.0504289,-44.8597,29,0.012227,10,-0.00226222,-1.34814,-0.506739,-0.116431,203.269,0.0504289,
2,0,0,1,0,56363.3,0.046718,0.0464025,-45.6361,29,0.0120459,10,-0.00211763,-1.34069,-0.543114,-0.108633,192.934,0.0464025,
2,0,0,1,0,56363.3,0.0427228,0.042426,-46.376,29,0.0118618,10,-0.00196755,-1.33371,-0.594414,-0.0992574,179.261,0.04242602,
2,0,0,1,0,56363.3,0.0387276,0.0384336,-47.0748,29,0.0116748,10,-0.00180926,-1.32721,-0.639468,-0.0922642,169.134,0.0384336,
2,0,0,1,0,56363.3,0.0347325,0.0344571,-47.7228,29,0.0114852,10,-0.00164439,-1.32127,-0.689527,-0.0855659,159.061,0.0344571,
2,0,0,1,0,56363.3,0.0307373,0.0304604,-48.3325,29,0.011293,10,-0.00147223,-1.31576,-0.747102,-0.0789718,148.709,0.0304604,
2,0,0,1,0,56363.3,0.0267421,0.0264902,-48.9108,29,0.0110984,10,-0.00129566,-1.3106,-0.792224,-0.0744738,141.989,0.0264902,
2,0,0,1,0,56363.3,0.022747,0.0224936,-49.4453,29,0.0109016,10,-0.0011122,-1.30588,-0.853433,-0.0691325,133.269,0.0224936,
2,0,0,1,0,56363.3,0.0187018,0.0184216,-49.9997,29,0.0107027,10,-0.000921074,-1.30103,-0.912609,-0.0646498,125.938,0.0184216,
2,0,0,1,0,56363.3,0.0147067,0.0143995,-50.4729,29,0.0105017,10,-0.000726784,-1.29694,-0.982798,-0.0600327,118.055,0.0143995,
2,0,0,1,0,56363.3,0.0107115,0.0104452,-50.9315,29,0.0102988,10,-0.000531991,-1.29301,-1.09444,-0.0539088,106.988,0.0104452,
2,0,0,1,0,56363.4,0.00671632,0.0064072,-51.3443,29,0.0100942,10,-0.000328973,-1.28951,-1.19931,-0.0491948,98.4135,0.0064072,
2,0,0,1,0,56363.4,0.00272115,0.0023925,-51.7146,29,0.00988804,10,-0.000123727,-1.28639,-1.35626,-0.0435021,87.6619,0.0023925,
2,0,0,1,0,56363.4,-0.00127403,-0.0016625,-52.0536,29,0.00968043,10,8.6539e-05,-1.28355,-1.52839,-0.0386027,78.2953,-0.0016625,
2,0,0,1,0,56363.4,-0.0052692,-0.00565917,-52.3432,29,0.0094716,10,0.000296219,-1.28114,-1.73928,-0.0339221,69.1956,-0.00565917,
2,0,0,1,0,56363.4,-0.00926438,-0.00964524,-52.6012,29,0.00926168,10,0.000507351,-1.279,-2.03666,-0.028969,59.3844,-0.00964524,
2,0,0,1,0,56363.4,-0.0132596,-0.0136451,-52.8243,29,0.00905078,10,0.000720793,-1.27717,-2.31193,-0.0255198,52.5499,-0.0136451,
2,0,0,1,0,56363.4,-0.0172547,-0.0176269,-53.0017,29,0.0088391,10,0.000934256,-1.27571,-2.79423,-0.0211149,43.6337,-0.0176269,
2,0,0,1,0,56363.4,-0.0212915,-0.021684,-53.1853,29,0.00862674,10,0.00115327,-1.27421,-3.50446,-0.0168357,34.8911,-0.021684,
2,0,0,1,0,56363.4,-0.025295,-0.025686,-53.3011,29,0.00841375,10,0.00136909,-1.27326,-4.54872,-0.0129707,26.939,-0.025686,
2,0,0,1,0,56363.4,-0.0292902,-0.0296572,-53.383,29,0.00820036,10,0.00158319,-1.2726,-7.2212,-0.00817039,17.0021,-0.0296572,
2,0,0,1,0,56363.4,-0.0332854,-0.0336804,-53.4341,29,0.00798671,10,0.00179968,-1.27218,-14.0195,-0.00420843,8.76576,-0.0336804,
2,0,0,1,0,56363.4,-0.0372805,-0.0376389,-53.4566,29,0.00777292,10,0.00201205,-1.272,-52.9979,-0.00111325,2.32012,-0.0376389,
2,0,0,1,0,56363.4,-0.0412757,-0.0416611,-53.4411,29,0.00755911,10,0.00222641,-1.27212,41.2615,0.0014299,-2.98054,-0.0416611,
2,0,0,1,0,56363.4,-0.0452709,-0.0456503,-53.4201,29,0.00734539,10,0.00243864,-1.2723,14.7713,0.00399424,-8.32256,-0.0456503,
2,0,0,1,0,56363.4,-0.0492661,-0.0496735,-53.3865,29,0.00713179,10,0.00265189,-1.27257,10.1779,0.00579688,-12.0683,-0.0496735,
2,0,0,1,0,56363.4,-0.0532612,-0.0536447,-53.3234,29,0.00691837,10,0.00286052,-1.27308,7.40366,0.00796903,-16.5727,-0.0536447,
2,0,0,1,0,56363.4,-0.0572564,-0.0576711,-53.2479,29,0.00670523,10,0.00307086,-1.2737,6.79863,0.00867822,-18.0323,-0.0576711,
2,0,0,1,0,56363.4,-0.0612544,-0.0616476,-53.155,29,0.00649243,10,0.00327688,-1.27446,6.09274,0.00968366,-20.0911,-0.0616476,
2,0,0,1,0,56363.4,-0.0652967,-0.0656496,-53.0984,29,0.00627985,10,0.00348589,-1.27492,5.48414,0.0107583,-22.282,-0.0656496,
2,0,0,1,0,56363.4,-0.0692919,-0.0697003,-53.0008,29,0.00606767,10,0.00369417,-1.27572,5.26529,0.0112055,-23.164,-0.0697003,
2,0,0,1,0,56363.4,-0.0732871,-0.0736482,-52.8919,29,0.00585589,10,0.00389539,-1.27661,4.50814,0.0130874,-27.01,-0.0736482,
2,0,0,1,0,56363.4,-0.0772822,-0.0776937,-52.7833,29,0.00564454,10,0.00410093,-1.2775,4.40195,0.0134032,-27.6084,-0.0776937,
2,0,0,1,0,56363.4,-0.0812774,-0.0816649,-52.6658,29,0.00543367,10,0.00430095,-1.27847,4.6131,0.0127897,-26.2952,-0.0816649,
2,0,0,1,0,56363.4,-0.0852726,-0.0856669,-52.56,29,0.00522324,10,0.00450265,-1.27934,4.65112,0.0126851,-26.0281,-0.0856669,
2,0,0,1,0,56363.4,-0.0892678,-0.0896646,-52.4708,29,0.00501319,10,0.00470477,-1.28008,4.96705,0.0118783,-24.3243,-0.0896646,
2,0,0,1,0,56363.5,-0.0932629,-0.0936263,-52.3686,29,0.00480353,10,0.00490308,-1.28093,5.26393,0.0112084,-22.911,-0.0936263,
2,0,0,1,0,56363.5,-0.0972581,-0.0976325,-52.2774,29,0.00459423,10,0.00510397,-1.28169,6.06414,0.00972933,-19.863,-0.0976325,
2,0,0,1,0,56363.5,-0.101253,-0.101639,-52.194,29,0.00438532,10,0.00530493,-1.28238,6.90049,0.00855012,-17.4278,-0.101639,
2,0,0,1,0,56363.5,-0.105298,-0.105684,-52.1526,29,0.00417663,10,0.0055117,-1.28272,7.74588,0.00761695,-15.5035,-0.105684,
2,0,0,1,0,56363.5,-0.109294,-0.109708,-52.0883,29,0.00396815,10,0.00571453,-1.28326,8.73195,0.0067568,-13.7343,-0.109708,
2,0,0,1,0,56363.5,-0.113289,-0.113594,-52.0299,29,0.00375994,10,0.00591028,-1.28375,8.70106,0.00678078,-13.7721,-0.113594,
2,0,0,1,0,56363.5,-0.117284,-0.11768,-51.9737,29,0.00355192,10,0.00611624,-1.28422,10.2385,0.00576256,-11.6934,-0.11768,
2,0,0,1,0,56363.5,-0.121279,-0.121681,-51.9322,29,0.00334411,10,0.00631919,-1.28456,14.2183,0.00414957,-8.41505,-0.121681,
2,0,0,1,0,56363.5,-0.125274,-0.125642,-51.902,29,0.00313646,10,0.00652108,-1.28482,25.2382,0.00233773,-4.73832,-0.125642,
2,0,0,1,0,56363.5,-0.129269,-0.129629,-51.895,29,0.00292885,10,0.00672711,-1.28487,58.3355,0.00101139,-2.04919,-0.129629,
2,0,0,1,0,56363.5,-0.133265,-0.133683,-51.8979,29,0.00272126,10,0.00693788,-1.28485,-118.404,-0.000498292,1.00948,-0.133683,
2,0,0,1,0,56363.5,-0.13726,-0.137663,-51.8995,29,0.00251366,10,0.00714463,-1.28484,-20.3087,-0.00290516,5.88917,-0.137663,
2,0,0,1,0,56363.5,-0.141255,-0.141672,-51.9182,29,0.00230602,10,0.00735537,-1.28468,-13.3208,-0.00442916,8.9833,-0.141672,
2,0,0,1,0,56363.5,-0.145286,-0.14568,-51.9895,29,0.00209825,10,0.00757381,-1.28408,-9.82337,-0.00600609,12.1881,-0.14568,
2,0,0,1,0,56363.5,-0.149295,-0.149708,-52.0419,29,0.00189017,10,0.00779108,-1.28365,-8.35716,-0.00705982,14.3362,-0.149708,
2,0,0,1,0,56363.5,-0.15329,-0.153695,-52.0949,29,0.00168189,10,0.00800673,-1.2832,-8.62827,-0.00683799,13.9038,-0.153695,
2,0,0,1,0,56363.5,-0.157286,-0.157661,-52.1474,29,0.00147341,10,0.00822162,-1.28277,-7.57228,-0.00779158,15.8634,-0.1576611,
2,0,0,1,0,56363.5,-0.161281,-0.161637,-52.2114,29,0.00126468,10,0.00843927,-1.28223,-6.68211,-0.00882954,18.0007,-0.161637,
2,0,0,1,0,56363.5,-0.165276,-0.165675,-52.2951,29,0.00105567,10,0.00866398,-1.28154,-5.85206,-0.0100819,20.5829,-0.1656746,
2,0,0,1,0,56363.5,-0.169271,-0.169615,-52.3815,29,0.000846308,10,0.00888469,-1.28082,-5.38984,-0.0109465,22.3814,-0.169615,
2,0,0,1,0,56363.5,-0.173266,-0.173649,-52.4765,29,0.000636574,10,0.00911248,-1.28004,-5.34273,-0.0110431,22.6157,-0.173649,
2,0,0,1,0,56363.5,-0.177261,-0.177611,-52.5689,29,0.000426475,10,0.00933679,-1.27927,-5.18552,-0.0113778,23.3425,-0.177611,
2,0,0,1,0,56363.5,-0.181257,-0.181649,-52.6564,29,0.000216011,10,0.00956496,-1.27855,-4.5629,-0.0129304,26.5882,-0.181649,
2,0,0,1,0,56363.5,-0.185252,-0.185634,-52.7554,29,5.16663e-06,10,0.00979317,-1.27773,-4.58676,-0.0128631,26.4963,-0.185634,
2,0,0,1,0,56363.5,-0.189297,-0.189601,-52.9006,29,-0.000206194,10,0.01003,-1.27654,-4.53575,-0.0130078,26.8403,-0.189601,
2,0,0,1,0,56363.6,-0.193292,-0.193627,-52.9933,29,-0.000417996,10,0.0102609,-1.27578,-4.65279,-0.0126806,26.2031,-0.193627,
2,0,0,1,0,56363.6,-0.197287,-0.197686,-53.0869,29,-0.000630172,10,0.0104945,-1.27501,18.8057,0.00313734,-6.4728,-0.197686,
2,0,0,0,0,56363.6,-0.199984,-0.20036,-53.1413,29,-0.000773587,10,0.0106474,-1.27457,0.0692538,0.851939,-1661.59,-0.20036,
2,0,0,0,1,56363.6,-0.199984,-0.200666,-52.829,29,-0.000805323,10,0.010601,-1.27713,-0.0450957,-1.30833,2419.14,-0.200666,
2,0,0,1,1,56363.6,-0.196688,-0.19719,-47.0731,29,-0.000957732,10,0.00928233,-1.32723,-0.077109,-0.765151,1348.58,-0.1971899,
2,0,0,1,1,56363.6,-0.192693,-0.193142,-42.0947,29,-0.00113523,10,0.00813027,-1.37577,-0.0839309,-0.702959,1179.16,-0.193142,
2,0,0,1,1,56363.6,-0.188698,-0.18915,-38.0229,29,-0.0012949,10,0.00719203,-1.41995,-0.0905704,-0.651427,982.242,-0.18915,
2,0,0,1,1,56363.6,-0.184653,-0.185072,-34.4408,29,-0.00143936,10,0.00637401,-1.46293,-0.0938161,-0.62889,853.828,-0.185072,
2,0,0,1,1,56363.6,-0.180657,-0.181104,-31.2723,29,-0.00157039,10,0.00566353,-1.50484,-0.0946685,-0.623227,765.536,-0.1811035,
2,0,0,1,1,56363.6,-0.176662,-0.17708,-28.3805,29,-0.00168935,10,0.00502563,-1.54698,-0.0932725,-0.632555,702.757,-0.17708,
2,0,0,1,1,56363.6,-0.172667,-0.173085,-25.7245,29,-0.00179723,10,0.00445251,-1.58965,-0.0914903,-0.644877,647.644,-0.173085,
2,0,0,1,1,56363.6,-0.168672,-0.169116,-23.2276,29,-0.00189485,10,0.00392816,-1.634,-0.0878061,-0.671935,608.118,-0.1691156,
2,0,0,1,1,56363.6,-0.164677,-0.165073,-20.8905,29,-0.00198283,10,0.00344846,-1.68005,-0.0834291,-0.707187,574.31,-0.165073,
2,0,0,1,1,56363.6,-0.160682,-0.161119,-18.6742,29,-0.00206169,10,0.00300877,-1.72876,-0.0788948,-0.747831,541.736,-0.1611191,
2,0,0,1,1,56363.6,-0.156686,-0.157133,-16.5633,29,-0.00213192,10,0.00260263,-1.78085,-0.0731284,-0.806801,517.163,-0.157133,
2,0,0,1,1,56363.6,-0.152691,-0.153129,-14.5671,29,-0.00219396,10,0.00223064,-1.83663,-0.0670903,-0.879412,493.063,-0.153129,
2,0,0,1,1,56363.6,-0.148696,-0.149131,-12.6458,29,-0.00224817,10,0.00188588,-1.89805,-0.0604686,-0.975713,471.896,-0.149131,
2,0,0,1,1,56363.6,-0.14467,-0.145105,-10.7782,29,-0.00229486,10,0.00156396,-1.96746,-0.0531137,-1.11082,455.252,-0.145105,
2,0,0,1,1,56363.6,-0.140656,-0.141082,-8.98868,29,-0.00233416,10,0.00126814,-2.0463,-0.0454574,-1.29792,439.145,-0.141082,
2,0,0,1,1,56363.6,-0.136661,-0.137107,-7.27316,29,-0.00236651,10,0.000997203,-2.13828,-0.0374038,-1.57738,422.22,-0.137107,
2,0,0,1,1,56363.6,-0.132665,-0.133154,-5.62951,29,-0.00239213,10,0.000749593,-2.24953,-0.0284914,-2.0708,408.403,-0.133154,
2,0,0,1,1,56363.6,-0.12867,-0.129119,-4.02869,29,-0.00241127,10,0.000520182,-2.39484,-0.0181799,-3.24535,394.997,-0.129119,
2,0,0,1,1,56363.6,-0.124675,-0.125142,-2.47872,29,-0.00242412,10,0.000310191,-2.60577,-0.0153577,-3.84172,384.488,-0.125142,
2,0,0,1,1,56363.6,-0.12068,-0.121127,-0.96097,29,-0.00243083,10,0.000116399,-3.01729,-0.0501481,-1.17652,374.4,-0.121127,
2,1,0,1,1,56363.6,-0.116685,-0.117178,0.513105,29,-0.00243157,10,-6.01245e-05,-3.28979,0.124877,0.472466,364.176,-0.117178,
2,1,0,1,1,56363.6,-0.112689,-0.113182,1.93806,29,-0.00242651,10,-0.000219354,-2.71263,0.0231989,2.54322,353.941,-0.1131823,
2,1,0,1,1,56363.6,-0.108694,-0.109204,3.3255,29,-0.00241582,10,-0.000363156,-2.47814,0.0149525,3.94583,346.25,-0.109204,
2,1,0,1,1,56363.7,-0.104699,-0.105137,4.69851,29,-0.00239962,10,-0.000493987,-2.32804,0.0276094,2.13696,338.919,-0.105137,
2,1,0,1,1,56363.7,-0.100654,-0.101137,6.06722,29,-0.0023779,10,-0.000613621,-2.21701,0.0386703,1.52572,331.306,-0.101137,
2,1,0,1,1,56363.7,-0.0966588,-0.0971797,7.36165,29,-0.0023509,10,-0.000715403,-2.13302,0.0493432,1.19571,325.342,-0.0971797,
2,1,0,1,1,56363.7,-0.0926636,-0.0931799,8.63428,29,-0.00231877,10,-0.000804541,-2.06377,0.0607927,0.970511,315.704,-0.0931799,
2,1,0,1,1,56363.7,-0.0886685,-0.0892055,9.88171,29,-0.00228162,10,-0.000881503,-2.00517,0.0718045,0.821675,308.707,-0.0892055,
2,1,0,1,1,56363.7,-0.0846733,-0.0851695,11.1083,29,-0.00223949,10,-0.000946086,-1.95435,0.0826361,0.713974,303.172,-0.0851695,
2,1,0,1,1,56363.7,-0.0806781,-0.0811347,12.3149,29,-0.00219253,10,-0.000999162,-1.90957,0.0939942,0.627698,296.504,-0.0811347,
2,1,0,1,1,56363.7,-0.076683,-0.0771773,13.4858,29,-0.0021408,10,-0.0010408,-1.87012,0.105337,0.560105,290.693,-0.0771773,
2,1,0,1,1,56363.7,-0.0726878,-0.073171,14.636,29,-0.00208444,10,-0.00107093,-1.83458,0.116948,0.504498,284.922,-0.073171,
2,1,0,1,1,56363.7,-0.0686926,-0.0691701,15.7592,29,-0.00202354,10,-0.00109006,-1.80247,0.128076,0.460665,280.999,-0.0691701,
2,1,0,1,1,56363.7,-0.0646974,-0.0651628,16.8656,29,-0.00195819,10,-0.00109901,-1.773,0.141171,0.417933,272.934,-0.0651628,
2,1,0,1,1,56363.7,-0.0606523,-0.0611481,17.99,29,-0.00188839,10,-0.00110005,-1.74497,0.153911,0.383337,266.531,-0.0611481,
2,1,0,1,1,56363.7,-0.0566571,-0.0570995,19.0224,29,-0.00181426,10,-0.00108617,-1.72073,0.166725,0.353877,260.748,-0.05709951,
2,1,0,1,1,56363.7,-0.052662,-0.0530944,20.0439,29,-0.001736,10,-0.00106422,-1.69802,0.181871,0.324406,252.43,-0.0530944,
2,1,0,1,1,56363.7,-0.0486668,-0.0491189,21.049,29,-0.00165371,10,-0.0010339,-1.67677,0.194009,0.304109,248.58,-0.0491189,
2,1,0,1,1,56363.7,-0.0446716,-0.0451731,22.0226,29,-0.00156746,10,-0.000994828,-1.65713,0.208177,0.283413,242.549,-0.04517312,
2,1,0,1,1,56363.7,-0.0406764,-0.0411298,22.9922,29,-0.00147731,10,-0.000945664,-1.63842,0.222089,0.265659,237.366,-0.0411298,
2,1,0,1,1,56363.7,-0.0366813,-0.037079,23.9284,29,-0.00138337,10,-0.000887241,-1.62109,0.237238,0.248696,231.306,-0.037079,
2,1,0,1,1,56363.7,-0.0326861,-0.033128,24.8447,29,-0.00128573,10,-0.000823055,-1.60477,0.251924,0.234197,226.255,-0.033128,
2,1,0,1,1,56363.7,-0.0286909,-0.0291133,25.7373,29,-0.00118448,10,-0.000749297,-1.58944,0.265243,0.222437,222.808,-0.0291133,
2,1,0,1,1,56363.7,-0.0246957,-0.0251643,26.6045,29,-0.00107971,10,-0.000669483,-1.57505,0.281798,0.20937,216.906,-0.0251643,
2,1,0,1,1,56363.7,-0.0206756,-0.0211125,27.4858,29,-0.000971452,10,-0.000580294,-1.56089,0.299779,0.196811,210.392,-0.0211125,
2,1,0,1,1,56363.7,-0.0166554,-0.0170935,28.3227,29,-0.000859717,10,-0.000484135,-1.54787,0.316053,0.186677,205.621,-0.0170935,
2,1,0,1,1,56363.7,-0.0126603,-0.0130587,29.1151,29,-0.000744741,10,-0.000380205,-1.53588,0.337437,0.174847,198.196,-0.01305869,
2,1,0,1,1,56363.7,-0.0086651,-0.00910337,29.9069,29,-0.000626619,10,-0.000272254,-1.52423,0.354616,0.166377,193.603,-0.00910337,
2,1,0,1,1,56363.8,-0.00466992,-0.00508655,30.6621,29,-0.000505408,10,-0.000155964,-1.5134, , , ,-0.005086551,
2,1,0,1,1,56363.8,-0.000974387,-0.0013958,31.3618,29,-0.000390628,10,-4.3775e-05,-1.5036, , , ,-0.0013958,
2,1,0,0,1,56363.8,-0.000175352,-0.000611633,31.5012,29,-0.0003655,10,-1.92672e-05,-1.50167, , , ,-0.000611633,