File: Figure_codes/Fig_3-5/rawdata_trumpetplot_data/after 10th/20221101_1-115_003_TrumpetPlot_ParaChange_from10_every3_10_CV_C01_12.csv
mode,ox/red,error,control changes,counter inc.,time/s,control/V,Ewe/V,<I>/mA,cycle number,(Q-Qo)/C,I Range,P/W,log(|I|),Tafel slope mV/dec,alpha_eff,dI/d(E-IR),E-IR/V,
2,1,0,0,0,24832.1,-2.44065e-05,-0.000325324,5.22038,13,0.0000000E+000,10,-1.69831e-06,-2.2823, , , ,-0.000325324,
2,1,0,1,0,24832.1,0.00179726,0.00142196,6.12067,13,5.05021e-05,10,8.70335e-06,-2.2132, , , ,0.00142196,
2,1,0,1,0,24832.1,0.00379485,0.00342374,6.79513,13,0.000115463,10,2.32648e-05,-2.1678,0.0532203,1.1086,289.442,0.00342374,
2,1,0,1,0,24832.1,0.00579244,0.00547404,7.29351,13,0.000186019,10,3.9925e-05,-2.13706,0.0748781,0.787947,222.487,0.00547404,
2,1,0,1,0,24832.1,0.00779002,0.0074623,7.69365,13,0.000261042,10,5.74124e-05,-2.11387,0.0918313,0.642482,192.309,0.0074623,
2,1,0,1,0,24832.1,0.00977853,0.00945172,8.05845,13,0.000339092,10,7.61662e-05,-2.09375,0.114031,0.517401,161.74,0.00945172,
2,1,0,1,0,24832.1,0.0117761,0.0114255,8.33466,13,0.000421128,10,9.52279e-05,-2.07911,0.141876,0.415855,135.142,0.0114255,
2,1,0,1,0,24832.2,0.0137737,0.0134687,8.60132,13,0.000505856,10,0.000115849,-2.06543,0.161381,0.365595,122.39,0.0134687,
2,1,0,1,0,24832.2,0.0157713,0.0154391,8.82588,13,0.00059303,10,0.000136263,-2.05424,0.181157,0.325684,112.152,0.0154391,
2,1,0,1,0,24832.2,0.017778,0.0174667,9.04969,13,0.000682457,10,0.000158068,-2.04337,0.210507,0.280276,98.6759,0.0174667,
2,1,0,1,0,24832.2,0.0197755,0.0194257,9.21927,13,0.000773824,10,0.000179091,-2.0353,0.247128,0.238742,85.9189,0.0194257,
2,1,0,1,0,24832.2,0.0217731,0.021488,9.3952,13,0.000866917,10,0.000201884,-2.02709,0.263332,0.224052,82.0463,0.021488,
2,1,0,1,0,24832.2,0.0237707,0.0234436,9.54892,13,0.000961671,10,0.000223861,-2.02005,0.282698,0.208703,77.7924,0.0234436,
2,1,0,1,0,24832.2,0.0257774,0.0255128,9.7083,13,0.00105799,10,0.000247686,-2.01286,0.306963,0.192206,72.7162,0.0255128,
2,1,0,1,0,24832.2,0.027775,0.0274528,9.84045,13,0.00115579,10,0.000270148,-2.00698,0.312202,0.18898,72.6365,0.0274528,
2,1,0,1,0,24832.2,0.0297726,0.0293945,9.99025,13,0.00125498,10,0.000293658,-2.00042,0.336629,0.175267,68.2442,0.0293945,
2,1,0,1,0,24832.2,0.0317701,0.0314741,10.1149,13,0.00135557,10,0.000318357,-1.99504,0.338146,0.174481,68.9732,0.0314741,
2,1,0,1,0,24832.3,0.0337586,0.0334378,10.2691,13,0.00145647,10,0.000343377,-1.98847,0.338833,0.174127,69.6704,0.0334378,
2,1,0,1,0,24832.3,0.0357562,0.0354348,10.3908,13,0.00155979,10,0.000368196,-1.98335,0.368508,0.160105,64.9645,0.0354348,
2,1,0,1,0,24832.3,0.0377538,0.0373896,10.5259,13,0.00166439,10,0.000393558,-1.97774,0.36942,0.15971,65.5767,0.0373896,
2,1,0,1,0,24832.3,0.0397514,0.0394192,10.6521,13,0.00177028,10,0.000419898,-1.97256,0.342582,0.172222,71.7039,0.0394192,
2,1,0,1,0,24832.3,0.0417399,0.0413779,10.8118,13,0.0018765,10,0.000447371,-1.9661,0.359135,0.164284,69.1705,0.0413779,
2,1,0,1,0,24832.3,0.0437375,0.0433803,10.9261,13,0.0019852,10,0.000473978,-1.96153,0.390355,0.151144,64.5361,0.0433803,
2,1,0,1,0,24832.3,0.0457351,0.0453888,11.0707,13,0.00209515,10,0.000502485,-1.95583,0.380539,0.155043,66.927,0.0453888,
2,1,0,1,0,24832.3,0.0477327,0.0474207,11.1965,13,0.00220649,10,0.000530947,-1.95092,0.363004,0.162533,71.1214,0.0474207,
2,1,0,1,0,24832.3,0.0497393,0.0493893,11.3552,13,0.00231921,10,0.000560826,-1.9448,0.372014,0.158596,70.1613,0.0493893,
2,1,0,1,0,24832.3,0.0517369,0.0513996,11.4757,13,0.00243336,10,0.000589845,-1.94022,0.383793,0.153729,68.9549,0.0513996,
2,1,0,1,0,24832.4,0.0537345,0.0534124,11.6326,13,0.00254889,10,0.000621326,-1.93432,0.375075,0.157302,71.3241,0.0534124,
2,1,0,1,0,24832.4,0.0557321,0.0554123,11.7619,13,0.00266588,10,0.000651752,-1.92952,0.393776,0.149831,68.8191,0.0554123,
2,1,0,1,0,24832.4,0.0577297,0.0573939,11.9066,13,0.00278422,10,0.000683367,-1.92421,0.368702,0.160021,74.378,0.05739386,
2,1,0,1,0,24832.4,0.0597364,0.0594067,12.059,13,0.00290409,10,0.000716384,-1.91869,0.361597,0.163165,76.7879,0.0594067,
2,1,0,1,0,24832.4,0.0617339,0.0613727,12.2121,13,0.00302543,10,0.000749492,-1.91321,0.398871,0.147917,70.4171,0.0613727,
2,1,0,1,0,24832.4,0.0637315,0.063376,12.3385,13,0.00314825,10,0.000781964,-1.90874,0.399341,0.147743,71.2453,0.063376,
2,1,0,1,0,24832.4,0.0657291,0.0654322,12.5014,13,0.00327248,10,0.000817992,-1.90304,0.368116,0.160275,78.1531,0.0654322,
2,1,0,1,0,24832.4,0.0677176,0.067383,12.6516,13,0.00339702,10,0.000852505,-1.89785,0.393768,0.149834,73.9417,0.067383,
2,1,0,1,0,24832.4,0.0697152,0.0693283,12.7894,13,0.00352424,10,0.00088667,-1.89315,0.433265,0.136175,67.9508,0.0693283,
2,1,0,1,0,24832.4,0.0717128,0.0713491,12.9211,13,0.00365285,10,0.000921913,-1.8887,0.42619,0.138436,69.8614,0.0713491,
2,1,0,1,0,24832.5,0.0737104,0.0733899,13.0732,13,0.0037828,10,0.000959441,-1.88362,0.41567,0.141939,72.3793,0.0733899,
2,1,0,1,0,24832.5,0.0756989,0.0753706,13.2122,13,0.00391296,10,0.000995813,-1.87902,0.416092,0.141796,73.1418,0.07537064,
2,1,0,1,0,24832.5,0.0776965,0.0773418,13.3622,13,0.00404583,10,0.00103346,-1.87412,0.43164,0.136688,71.242,0.0773418,
2,1,0,1,0,24832.5,0.0796941,0.079392,13.4987,13,0.00418019,10,0.00107169,-1.86971,0.431119,0.136853,72.1432,0.079392,
2,1,0,1,0,24832.5,0.0816917,0.0813849,13.6539,13,0.00431596,10,0.00111122,-1.86474,0.454599,0.129785,69.0719,0.0813849,
2,1,0,1,0,24832.5,0.0836983,0.0834055,13.7759,13,0.00445312,10,0.00114899,-1.86088,0.476147,0.123911,66.663,0.0834055,
2,1,0,1,0,24832.5,0.0856959,0.0853333,13.9171,13,0.0045916,10,0.0011876,-1.85645,0.495725,0.119018,64.5862,0.0853333,
2,1,0,1,0,24832.5,0.0876935,0.0874087,14.0345,13,0.00473139,10,0.00122674,-1.8528,0.530965,0.111118,60.8799,0.0874087,
2,1,0,1,0,24832.5,0.0896911,0.0893356,14.1608,13,0.00487237,10,0.00126506,-1.84891,0.491833,0.119959,66.3144,0.0893356,
2,1,0,1,0,24832.5,0.0916978,0.0913502,14.2959,13,0.0050147,10,0.00130593,-1.84479,0.489111,0.120627,67.3045,0.0913502,
2,1,0,1,0,24832.6,0.0936953,0.0933865,14.4334,13,0.00515831,10,0.00134789,-1.84063,0.569559,0.103589,58.2633,0.0933865,
2,1,0,1,0,24832.6,0.0956929,0.0953412,14.5284,13,0.00530316,10,0.00138515,-1.83778,0.564109,0.10459,59.3897,0.0953412,
2,1,0,1,0,24832.6,0.0976905,0.0973176,14.6669,13,0.00544915,10,0.00142735,-1.83366,0.508039,0.116133,66.451,0.0973176,
2,1,0,1,0,24832.6,0.099679,0.0993645,14.7957,13,0.00559496,10,0.00147017,-1.82986,0.549998,0.107273,61.9289,0.0993645,
2,1,0,1,0,24832.6,0.101677,0.101382,14.9186,13,0.00574352,10,0.00151248,-1.82627,0.533149,0.110663,64.4548,0.101382,
2,1,0,1,0,24832.6,0.103674,0.103359,15.0532,13,0.0058934,10,0.00155587,-1.82237,0.477115,0.12366,72.6916,0.103359,
2,1,0,1,0,24832.6,0.105672,0.105348,15.2069,13,0.00604467,10,0.00160203,-1.81796,0.469903,0.125558,74.4833,0.105348,
2,1,0,1,0,24832.6,0.107656,0.107321,15.3483,13,0.00619591,10,0.0016472,-1.81394,0.457005,0.129101,77.3967,0.107321,
2,1,0,1,0,24832.6,0.109658,0.10935,15.5167,13,0.00635023,10,0.00169675,-1.8092,0.433451,0.136117,82.4139,0.1093504,
2,1,0,1,0,24832.6,0.111655,0.111357,15.6809,13,0.00650625,10,0.00174619,-1.80463,0.405333,0.145559,89.1462,0.111357,
2,1,0,1,0,24832.7,0.113653,0.113315,15.8701,13,0.006664,10,0.00179833,-1.79942,0.39504,0.149352,92.4568,0.113315,
2,1,0,1,0,24832.7,0.115651,0.115293,16.0449,13,0.0068236,10,0.00184987,-1.79466,0.359389,0.164168,102.989,0.115293,
2,1,0,1,0,24832.7,0.117657,0.117304,16.2809,13,0.00698529,10,0.00190981,-1.78832,0.346849,0.170103,107.955,0.117304,
2,1,0,1,0,24832.7,0.119655,0.119329,16.4805,13,0.00714913,10,0.0019666,-1.78303,0.362057,0.162958,104.877,0.119329,
2,1,0,1,0,24832.7,0.121652,0.121324,16.7026,13,0.00731505,10,0.00202643,-1.77722,0.349431,0.168846,110.037,0.121324,
2,1,0,1,0,24832.7,0.12365,0.123314,16.919,13,0.00748324,10,0.00208634,-1.77163,0.330989,0.178254,117.823,0.123314,
2,1,0,1,0,24832.7,0.125657,0.125317,17.173,13,0.0076538,10,0.00215207,-1.76515,0.342237,0.172395,115.378,0.125317,
2,1,0,1,0,24832.7,0.127654,0.127315,17.3807,13,0.00782661,10,0.00221282,-1.75993,0.362679,0.162678,110.433,0.127315,
2,1,0,1,0,24832.7,0.129652,0.129343,17.6176,13,0.00800165,10,0.0022787,-1.75405,0.353365,0.166966,114.74,0.129343,
2,1,0,1,0,24832.7,0.131649,0.131303,17.8383,13,0.00817897,10,0.00234223,-1.74865,0.369653,0.159609,111.112,0.131303,
2,1,0,1,0,24832.8,0.133638,0.133321,18.0596,13,0.00835673,10,0.00240772,-1.74329,0.396681,0.148734,104.757,0.133321,
2,1,0,1,0,24832.8,0.135636,0.135305,18.2575,13,0.00853836,10,0.00247034,-1.73856,0.408235,0.144525,103.012,0.135305,
2,1,0,1,0,24832.8,0.137633,0.137293,18.4688,13,0.00872199,10,0.00253565,-1.73356,0.44691,0.132018,95.042,0.137293,
2,1,0,1,0,24832.8,0.139631,0.139301,18.6373,13,0.00890758,10,0.00259618,-1.72962,0.473786,0.124529,90.6345,0.139301,
2,1,0,1,0,24832.8,0.141619,0.141287,18.8308,13,0.00909303,10,0.00266054,-1.72513,0.48065,0.122751,90.1429,0.141287,
2,1,0,1,0,24832.8,0.143617,0.143295,18.9973,13,0.00928218,10,0.00272223,-1.72131,0.543684,0.108519,80.4332,0.143295,
2,1,0,1,0,24832.8,0.145614,0.145303,19.1538,13,0.00947291,10,0.00278311,-1.71775,0.626124,0.0942306,70.3762,0.1453031,
2,1,0,1,0,24832.8,0.147612,0.147269,19.277,13,0.0096651,10,0.00283891,-1.71496,0.656428,0.0898804,67.659,0.1472691,
2,1,0,1,0,24832.8,0.149619,0.149292,19.4237,13,0.00985858,10,0.00289981,-1.71167,0.782674,0.0753826,57.048,0.149292,
2,1,0,1,0,24832.8,0.151616,0.151282,19.5059,13,0.0100533,10,0.00295089,-1.70983,1.13728,0.0518783,39.4845,0.151282,
2,1,0,1,0,24832.9,0.153614,0.153259,19.5803,13,0.0102488,10,0.00300086,-1.70818,1.50252,0.0392674,29.9848,0.153259,
2,1,0,1,0,24832.9,0.155611,0.155301,19.6264,13,0.0104449,10,0.00304801,-1.70716,2.62619,0.022466,17.198,0.155301,
2,1,0,1,0,24832.9,0.157618,0.157298,19.6498,13,0.0106412,10,0.00309087,-1.70664,-4.8838,-0.0120807,-9.24457,0.157298,
2,1,0,1,0,24832.9,0.159616,0.159326,19.5892,13,0.0108375,10,0.00312108,-1.70798,-1.19313,-0.0494496,-37.7763,0.159326,
2,1,0,1,0,24832.9,0.161613,0.161273,19.4996,13,0.011033,10,0.00314476,-1.70997,-0.695026,-0.0848889,-64.474,0.161273,
2,1,0,1,0,24832.9,0.163611,0.163289,19.3338,13,0.0112272,10,0.00315698,-1.71368,-0.471082,-0.125243,-94.3844,0.163289,
2,1,0,1,0,24832.9,0.165618,0.165279,19.1215,13,0.0114194,10,0.00316038,-1.71848,-0.338135,-0.174487,-129.882,0.165279,
2,1,0,1,0,24832.9,0.167597,0.167284,18.8149,13,0.0116072,10,0.00314742,-1.7255,-0.266126,-0.221699,-162.611,0.167284,
2,1,0,1,0,24832.9,0.169595,0.169283,18.4704,13,0.0117936,10,0.00312673,-1.73352,-0.214557,-0.274985,-197.665,0.169283,
2,1,0,1,0,24832.9,0.171592,0.171265,18.0279,13,0.0119761,10,0.00308755,-1.74405,-0.179595,-0.328517,-230.878,0.171265,
2,1,0,1,0,24833,0.173572,0.173256,17.553,13,0.0121522,10,0.00304117,-1.75565,-0.16037,-0.367899,-251.557,0.173256,
2,1,0,1,0,24833,0.175578,0.175262,17.0225,13,0.0123251,10,0.0029834,-1.76898,-0.142991,-0.412612,-273.768,0.175262,
2,1,0,1,0,24833,0.177576,0.177246,16.4609,13,0.0124924,10,0.00291762,-1.78355,-0.130965,-0.450503,-288.998,0.177246,
2,1,0,1,0,24833,0.179573,0.179264,15.8659,13,0.012654,10,0.00284418,-1.79954,-0.125173,-0.471347,-291.956,0.179264,
2,1,0,1,0,24833,0.181571,0.181236,15.296,13,0.0128097,10,0.00277218,-1.81542,-0.122291,-0.482456,-287.845,0.181236,
2,1,0,1,0,24833,0.183578,0.183233,14.7233,13,0.0129598,10,0.0026978,-1.83199,-0.122347,-0.482235,-277.165,0.1832331,
2,1,0,1,0,24833,0.185575,0.185289,14.1725,13,0.0131041,10,0.00262601,-1.84855,-0.120224,-0.490749,-271.437,0.185289,
2,1,0,1,0,24833,0.187573,0.187241,13.6356,13,0.0132431,10,0.00255313,-1.86533,-0.12359,-0.477384,-254.514,0.187241,
2,1,0,1,0,24833,0.18957,0.18926,13.1618,13,0.013377,10,0.00249101,-1.88068,-0.130753,-0.451233,-231.797,0.18926,
2,1,0,1,0,24833,0.191577,0.191273,12.7008,13,0.0135063,10,0.00242933,-1.89617,-0.132907,-0.44392,-220.434,0.191273,
2,1,0,1,0,24833.1,0.193575,0.193191,12.2952,13,0.0136312,10,0.00237534,-1.91026,-0.142874,-0.412953,-198.274,0.193191,
2,1,0,1,0,24833.1,0.195572,0.195246,11.9131,13,0.0137522,10,0.00232599,-1.92397,-0.153313,-0.384833,-179.142,0.195246,
2,1,0,1,0,24833.1,0.19757,0.197252,11.5679,13,0.0138695,10,0.00228178,-1.93675,-0.165832,-0.355782,-160.861,0.197252,
2,1,0,1,0,24833.1,0.199558,0.199286,11.2633,13,0.0139825,10,0.00224461,-1.94834,-0.176683,-0.333932,-146.914,0.199286,
2,1,0,1,0,24833.1,0.201556,0.20123,10.9834,13,0.0140937,10,0.00221018,-1.95927,-0.182869,-0.322635,-138.387,0.20123,
2,1,0,1,0,24833.1,0.203554,0.203195,10.7223,13,0.0142022,10,0.00217872,-1.96971,-0.197533,-0.298684,-125.103,0.203195,
2,1,0,1,0,24833.1,0.205551,0.205214,10.485,13,0.0143081,10,0.00215167,-1.97943,-0.227125,-0.259769,-106.515,0.205214,
2,1,0,1,0,24833.1,0.20754,0.20722,10.2936,13,0.0144109,10,0.00213304,-1.98743,-0.249717,-0.236267,-94.9002,0.20722,
2,1,0,1,0,24833.1,0.209537,0.209256,10.1014,13,0.0145129,10,0.00211378,-1.99562,-0.242812,-0.242986,-95.7642,0.209256,
2,1,0,1,0,24833.1,0.211535,0.211268,9.90592,13,0.0146128,10,0.0020928,-2.00411,-0.260747,-0.226273,-87.655,0.211268,
2,1,0,1,0,24833.2,0.213532,0.213231,9.75294,13,0.0147111,10,0.00207963,-2.01086,-0.293511,-0.201015,-76.5233,0.213231,
2,1,0,1,0,24833.2,0.215539,0.215207,9.6045,13,0.0148078,10,0.00206696,-2.01753,-0.306538,-0.192472,-72.167,0.215207,
2,1,0,1,0,24833.2,0.217537,0.217244,9.46336,13,0.0149032,10,0.00205586,-2.02395,-0.317528,-0.185811,-68.6522,0.217244,
2,1,0,1,0,24833.2,0.219534,0.219188,9.33117,13,0.0149972,10,0.00204528,-2.03006,-0.367992,-0.160329,-58.4775,0.219188,
2,1,0,1,0,24833.2,0.221532,0.221252,9.22901,13,0.0150899,10,0.00204193,-2.03484,-0.383213,-0.153961,-55.3948,0.221252,
2,1,0,1,0,24833.2,0.223534,0.223214,9.10816,13,0.0151816,10,0.00203307,-2.04057,-0.387789,-0.152145,-54.1614,0.223214,
2,1,0,1,0,24833.2,0.225536,0.225203,9.01497,13,0.0152722,10,0.0020302,-2.04504,-0.418645,-0.140931,-49.5492,0.225203,
2,1,0,1,0,24833.2,0.227534,0.22721,8.91016,13,0.0153618,10,0.00202448,-2.05011,-0.424661,-0.138934,-48.3549,0.22721,
2,1,0,1,0,24833.2,0.229531,0.2292,8.82173,13,0.0154505,10,0.00202194,-2.05445,-0.469062,-0.125783,-43.3116,0.2292,
2,1,0,1,0,24833.2,0.231529,0.231219,8.73655,13,0.0155383,10,0.00202005,-2.05866,-0.560977,-0.105174,-35.915,0.231219,
2,1,0,1,0,24833.3,0.233517,0.233186,8.67857,13,0.0156245,10,0.00202372,-2.06155,-0.546576,-0.107945,-36.4996,0.233186,
2,1,0,1,0,24833.3,0.235515,0.235178,8.59203,13,0.0157108,10,0.00202066,-2.0659,-0.543744,-0.108507,-36.4403,0.235178,
2,1,0,1,0,24833.3,0.237512,0.237202,8.53222,13,0.0157964,10,0.00202386,-2.06894,-0.594547,-0.0992352,-33.0183,0.237202,
2,1,0,1,0,24833.3,0.23951,0.239192,8.4595,13,0.0158813,10,0.00202344,-2.07266,-0.63911,-0.0923159,-30.5195,0.239192,
2,1,0,1,0,24833.3,0.241499,0.2412,8.41019,13,0.0159648,10,0.00202854,-2.07519,-0.638218,-0.0924448,-30.3032,0.2412,
2,1,0,1,0,24833.3,0.243496,0.243156,8.33938,13,0.0160486,10,0.00202777,-2.07887,-0.690062,-0.0854995,-27.8771,0.243156,
2,1,0,1,0,24833.3,0.245494,0.245188,8.29903,13,0.0161317,10,0.00203482,-2.08097,-0.723999,-0.0814919,-26.3543,0.245188,
2,1,0,1,0,24833.3,0.247491,0.247156,8.23397,13,0.0162144,10,0.00203507,-2.08439,-0.700598,-0.0842138,-27.098,0.247156,
2,1,0,1,0,24833.3,0.249498,0.249168,8.19117,13,0.0162965,10,0.00204098,-2.08665,-0.801419,-0.0736194,-23.5213,0.249168,
2,1,0,1,0,24833.3,0.251496,0.251172,8.1395,13,0.0163782,10,0.00204441,-2.0894,-0.862402,-0.0684135,-21.7537,0.251172,
2,1,0,1,0,24833.4,0.253493,0.253171,8.1041,13,0.0164594,10,0.00205172,-2.0913,-0.754801,-0.0781663,-24.6787,0.253171,
2,1,0,1,0,24833.4,0.255491,0.255189,8.04037,13,0.0165401,10,0.00205181,-2.09472,-0.880444,-0.0670116,-21.0842,0.255189,
2,1,0,1,0,24833.4,0.257497,0.257155,8.0201,13,0.0166204,10,0.00206241,-2.09582,-1.18792,-0.0496666,-15.524,0.257155,
2,1,0,1,0,24833.4,0.259495,0.259232,7.9776,13,0.0167004,10,0.00206805,-2.09813,-0.872429,-0.0676273,-21.0554,0.259232,
2,1,0,1,0,24833.4,0.261493,0.261174,7.93547,13,0.01678,10,0.00207254,-2.10043,-0.897744,-0.0657203,-20.3584,0.261174,
2,1,0,1,0,24833.4,0.26349,0.263169,7.89745,13,0.0168592,10,0.00207836,-2.10251,-1.4765,-0.0399593,-12.3369,0.263169,
2,1,0,1,0,24833.4,0.265479,0.265159,7.8863,13,0.0169373,10,0.00209113,-2.10313,-1.13503,-0.0519812,-15.9562,0.265159,
2,1,0,1,0,24833.4,0.267476,0.267183,7.83339,13,0.0170158,10,0.00209295,-2.10605,-0.918423,-0.0642406,-19.6731,0.267183,
2,1,0,1,0,24833.4,0.269474,0.269154,7.80771,13,0.017094,10,0.00210148,-2.10748,-1.05946,-0.0556885,-16.9514,0.269154,
2,1,0,1,0,24833.4,0.271471,0.271154,7.76608,13,0.0171719,10,0.00210581,-2.1098,-1.36286,-0.0432912,-13.147,0.271154,
2,1,0,1,0,24833.5,0.27346,0.273141,7.7553,13,0.0172487,10,0.00211829,-2.1104,-1.18595,-0.0497494,-15.0202,0.273141,
2,1,0,1,0,24833.5,0.275458,0.275137,7.70626,13,0.0173259,10,0.00212028,-2.11316,-1.00692,-0.0585948,-17.6539,0.2751368,
2,1,0,1,0,24833.5,0.277455,0.277131,7.68487,13,0.0174029,10,0.00212971,-2.11436,-1.23037,-0.047953,-14.3686,0.277131,
2,1,0,1,0,24833.5,0.279453,0.279097,7.64937,13,0.0174796,10,0.00213491,-2.11637,-1.23388,-0.0478168,-14.2876,0.279097,
2,1,0,1,0,24833.5,0.281455,0.281132,7.6277,13,0.0175559,10,0.00214439,-2.11761,-1.38255,-0.0426749,-12.697,0.281132,
2,1,0,1,0,24833.5,0.283457,0.283137,7.59807,13,0.0176321,10,0.00215129,-2.1193,-1.21839,-0.0484245,-14.3609,0.283137,
2,1,0,1,0,24833.5,0.285455,0.285135,7.57021,13,0.0177079,10,0.00215853,-2.12089,-1.12606,-0.0523951,-15.4731,0.285135,
2,1,0,1,0,24833.5,0.287452,0.287151,7.53595,13,0.0177835,10,0.00216396,-2.12286,-1.29294,-0.0456325,-13.4339,0.287151,
2,1,0,1,0,24833.5,0.28945,0.28913,7.51654,13,0.0178587,10,0.00217326,-2.12398,-1.49044,-0.0395856,-11.6063,0.28913,
2,1,0,1,0,24833.5,0.291456,0.291158,7.48945,13,0.0179338,10,0.00218061,-2.12555,-1.32807,-0.0444255,-12.987,0.291158,
2,1,0,1,0,24833.6,0.293454,0.293132,7.46457,13,0.0180086,10,0.0021881,-2.127,-1.15544,-0.0510628,-14.8656,0.2931318,
2,1,0,1,0,24833.6,0.295452,0.295175,7.42973,13,0.0180831,10,0.00219307,-2.12903,-1.32603,-0.0444936,-12.917,0.295175,
2,1,0,1,0,24833.6,0.297449,0.297124,7.41301,13,0.0181573,10,0.00220258,-2.13001,-1.83863,-0.032089,-9.28156,0.297124,
2,1,0,1,0,24833.6,0.299438,0.29912,7.39311,13,0.0182306,10,0.00221143,-2.13117,-0.0589873,-1.00021,-276.33,0.29912,
2,1,0,1,0,24833.6,0.299746,0.299504,6.75515,13,0.0182616,10,0.0020232,-2.17036,0.00590634,9.98926,2126.11,0.299504,
2,1,0,1,0,24833.6,0.29774,0.297472,3.88728,13,0.018313,10,0.00115636,-2.41035,0.00828342,7.12266,1118.28,0.297472,
2,1,0,1,0,24833.6,0.295742,0.295387,2.15053,13,0.0183424,10,0.000635237,-2.66746,0.006634,8.89357,722.213,0.2953867,
2,1,0,1,0,24833.6,0.293745,0.293398,0.945433,13,0.0183574,10,0.000277388,-3.02437,0.00239335,24.6516,529.886,0.293398,
2,1,0,1,0,24833.6,0.291747,0.291417,0.0472113,13,0.018362,10,1.37582e-05,-4.32595,0.0229695,2.56862,401.433,0.291417,
2,0,0,1,0,24833.6,0.289745,0.289457,-0.636841,13,0.0183589,10,-0.000184338,-3.19597,-0.0028698,-20.559,305.825,0.289457,
2,0,0,1,0,24833.6,0.287743,0.287406,-1.17942,13,0.0183496,10,-0.000338973,-2.92833,-0.010169,-5.80195,236.779,0.287406,
2,0,0,1,0,24833.7,0.285745,0.285387,-1.60052,13,0.0183356,10,-0.000456766,-2.79574,-0.018108,-3.25822,195.127,0.285387,
2,0,0,1,0,24833.7,0.283748,0.283434,-1.95461,13,0.0183178,10,-0.000554003,-2.70894,-0.026949,-2.18932,162.718,0.283434,
2,0,0,1,0,24833.7,0.28175,0.281429,-2.24456,13,0.0182967,10,-0.000631682,-2.64887,-0.0370023,-1.5945,138.056,0.281429,
2,0,0,1,0,24833.7,0.279761,0.279445,-2.50521,13,0.018273,10,-0.00070007,-2.60116,-0.048228,-1.22336,117.997,0.279445,
2,0,0,1,0,24833.7,0.277764,0.277457,-2.71318,13,0.018247,10,-0.000752791,-2.56652,-0.0619421,-0.952502,100.423,0.277457,
2,0,0,1,0,24833.7,0.275766,0.275437,-2.90774,13,0.0182188,10,-0.000800899,-2.53644,-0.0764265,-0.771984,86.8379,0.275437,
2,0,0,1,0,24833.7,0.273769,0.273483,-3.05828,13,0.0181889,10,-0.000836388,-2.51452,-0.0885866,-0.666015,79.6425,0.273483,
2,0,0,1,0,24833.7,0.27178,0.271442,-3.22588,13,0.0181577,10,-0.000875641,-2.49135,-0.0992983,-0.594169,74.3197,0.271442,
2,0,0,1,0,24833.7,0.269783,0.269472,-3.35637,13,0.0181248,10,-0.000904448,-2.47413,-0.118314,-0.498675,65.2575,0.269472,
2,0,0,1,0,24833.7,0.267785,0.267492,-3.48366,13,0.0180905,10,-0.000931853,-2.45796,-0.132476,-0.445363,60.4033,0.267492,
2,0,0,1,0,24833.8,0.265787,0.265491,-3.59686,13,0.0180552,10,-0.000954933,-2.44408,-0.145151,-0.406474,57.0794,0.265491,
2,0,0,1,0,24833.8,0.263781,0.263436,-3.71518,13,0.0180186,10,-0.000978712,-2.43002,-0.16241,-0.363278,52.4799,0.263436,
2,0,0,1,0,24833.8,0.261783,0.261461,-3.80836,13,0.017981,10,-0.000995736,-2.41926,-0.1886,-0.312831,46.469,0.261461,
2,0,0,1,0,24833.8,0.259786,0.259488,-3.89866,13,0.0179424,10,-0.00101165,-2.40908,-0.201355,-0.293015,44.5632,0.259488,
2,0,0,1,0,24833.8,0.257788,0.257455,-3.98686,13,0.017903,10,-0.00102644,-2.39937,-0.194155,-0.303881,47.3545,0.257455,
2,0,0,1,0,24833.8,0.255781,0.255473,-4.08876,13,0.0178625,10,-0.00104457,-2.38841,-0.218774,-0.269685,42.8585,0.255473,
2,0,0,1,0,24833.8,0.253784,0.25345,-4.15851,13,0.0178213,10,-0.00105397,-2.38106,-0.262569,-0.224703,36.4917,0.25345,
2,0,0,1,0,24833.8,0.251786,0.251478,-4.23456,13,0.0177794,10,-0.0010649,-2.37319,-0.267865,-0.22026,36.3703,0.251478,
2,0,0,1,0,24833.8,0.249789,0.249438,-4.30442,13,0.0177366,10,-0.00107369,-2.36609,-0.258318,-0.228401,38.4305,0.2494383,
2,0,0,1,0,24833.8,0.2478,0.247457,-4.3891,13,0.0176936,10,-0.00108611,-2.35762,-0.280038,-0.210686,35.9712,0.247457,
2,0,0,1,0,24833.9,0.245802,0.245505,-4.4459,13,0.0176495,10,-0.00109149,-2.35204,-0.304402,-0.193822,33.707,0.245505,
2,0,0,1,0,24833.9,0.243805,0.243463,-4.52372,13,0.0176046,10,-0.00110136,-2.3445,-0.331622,-0.177913,31.3035,0.243463,
2,0,0,1,0,24833.9,0.241807,0.241494,-4.57145,13,0.0175591,10,-0.00110398,-2.33995,-0.326368,-0.180777,32.3634,0.241494,
2,0,0,1,0,24833.9,0.239819,0.239522,-4.65124,13,0.0175135,10,-0.00111408,-2.33243,-0.329918,-0.178832,32.355,0.239522,
2,0,0,1,0,24833.9,0.237821,0.237493,-4.70091,13,0.0174667,10,-0.00111643,-2.32782,-0.369647,-0.159612,29.3392,0.2374931,
2,0,0,1,0,24833.9,0.235824,0.235501,-4.76923,13,0.0174194,10,-0.00112316,-2.32155,-0.380511,-0.155055,28.79,0.235501,
2,0,0,1,0,24833.9,0.233826,0.233535,-4.81486,13,0.0173715,10,-0.00112444,-2.31742,-0.368001,-0.160326,30.2141,0.2335351,
2,0,0,1,0,24833.9,0.231824,0.231539,-4.88895,13,0.017323,10,-0.00113198,-2.31078,-0.391836,-0.150573,28.6338,0.231539,
2,0,0,1,0,24833.9,0.229822,0.229481,-4.93095,13,0.0172739,10,-0.00113156,-2.30707,-0.482799,-0.122204,23.5433,0.229481,
2,0,0,1,0,24833.9,0.227824,0.227487,-4.98434,13,0.0172243,10,-0.00113387,-2.30239,-0.436494,-0.135168,26.2847,0.227487,
2,0,0,1,0,24834,0.225827,0.225529,-5.03483,13,0.0171742,10,-0.0011355,-2.29802,-0.430671,-0.136995,26.9361,0.225529,
2,0,0,1,0,24834,0.223829,0.223483,-5.09219,13,0.0171235,10,-0.00113802,-2.2931,-0.430832,-0.136944,27.1981,0.223483,
2,0,0,1,0,24834,0.221822,0.221533,-5.14352,13,0.0170723,10,-0.00113946,-2.28874,-0.431985,-0.136579,27.4313,0.221533,
2,0,0,1,0,24834,0.219825,0.21952,-5.2009,13,0.0170205,10,-0.0011417,-2.28392,-0.452791,-0.130303,26.4251,0.21952,
2,0,0,1,0,24834,0.217827,0.217519,-5.24958,13,0.0169683,10,-0.00114188,-2.27988,-0.492359,-0.119831,24.5525,0.2175191,
2,0,0,1,0,24834,0.21583,0.215505,-5.29949,13,0.0169155,10,-0.00114206,-2.27577,-0.484793,-0.121701,25.1727,0.215505,
2,0,0,1,0,24834,0.213841,0.213505,-5.35062,13,0.0168628,10,-0.00114238,-2.2716,-0.441109,-0.133754,27.9512,0.2135051,
2,0,0,1,0,24834,0.211843,0.211544,-5.41019,13,0.016809,10,-0.00114449,-2.26679,-0.523382,-0.112728,23.7468,0.2115439,
2,0,0,1,0,24834,0.209846,0.209529,-5.44503,13,0.0167547,10,-0.00114089,-2.264,-0.544519,-0.108353,23.0729,0.209529,
2,0,0,1,0,24834,0.207848,0.207535,-5.5027,13,0.0166999,10,-0.001142,-2.25942,-0.408953,-0.144271,31.004,0.207535,
2,0,0,1,0,24834.1,0.20586,0.205549,-5.56845,13,0.0166451,10,-0.00114459,-2.25427,-0.445734,-0.132366,28.7221,0.205549,
2,0,0,1,0,24834.1,0.203862,0.203529,-5.61775,13,0.0165892,10,-0.00114338,-2.25044,-0.600705,-0.098218,21.5074,0.203529,
2,0,0,1,0,24834.1,0.201865,0.201591,-5.65357,13,0.0165329,10,-0.00113971,-2.24768,-0.55379,-0.106539,23.5506,0.201591,
2,0,0,1,0,24834.1,0.199867,0.199582,-5.7107,13,0.016476,10,-0.00113975,-2.24331,-0.478603,-0.123275,27.4666,0.199582,
2,0,0,1,0,24834.1,0.19786,0.197537,-5.76491,13,0.0164186,10,-0.00113878,-2.23921,-0.515312,-0.114494,25.7488,0.197537,
2,0,0,1,0,24834.1,0.195863,0.195545,-5.81465,13,0.0163607,10,-0.00113703,-2.23548,-0.495985,-0.118955,27.0146,0.195545,
2,0,0,1,0,24834.1,0.193865,0.193518,-5.87349,13,0.0163022,10,-0.00113663,-2.2311,-0.477589,-0.123537,28.306,0.193518,
2,0,0,1,0,24834.1,0.191868,0.191546,-5.92786,13,0.0162432,10,-0.00113546,-2.2271,-0.502466,-0.117421,27.1631,0.191546,
2,0,0,1,0,24834.1,0.189861,0.18953,-5.98181,13,0.0161837,10,-0.00113373,-2.22317,-0.475861,-0.123986,28.9646,0.18953,
2,0,0,1,0,24834.1,0.187863,0.187522,-6.04441,13,0.0161235,10,-0.00113346,-2.21865,-0.484133,-0.121867,28.7227,0.187522,
2,0,0,1,0,24834.2,0.185866,0.185526,-6.09681,13,0.0160628,10,-0.00113112,-2.2149,-0.492855,-0.119711,28.5039,0.185526,
2,0,0,1,0,24834.2,0.183868,0.183532,-6.15815,13,0.0160015,10,-0.00113021,-2.21055,-0.421098,-0.14011,33.7051,0.183532,
2,0,0,1,0,24834.2,0.18188,0.181524,-6.2317,13,0.0159402,10,-0.0011312,-2.20539,-0.408787,-0.144329,35.0803,0.181524,
2,0,0,1,0,24834.2,0.179882,0.179538,-6.29825,13,0.0158776,10,-0.00113077,-2.20078,-0.507341,-0.116293,28.5406,0.179538,
2,0,0,1,0,24834.2,0.177885,0.177531,-6.34566,13,0.0158143,10,-0.00112655,-2.19752,-0.451098,-0.130792,32.4785,0.177531,
2,0,0,1,0,24834.2,0.175887,0.175547,-6.42787,13,0.0157504,10,-0.00112839,-2.19193,-0.375695,-0.157042,39.3662,0.175547,
2,0,0,1,0,24834.2,0.173908,0.173583,-6.5011,13,0.0156864,10,-0.00112848,-2.18701,-0.357225,-0.165162,41.9682,0.173583,
2,0,0,1,0,24834.2,0.171901,0.171569,-6.59481,13,0.0156208,10,-0.00113147,-2.1808,-0.381564,-0.154627,39.7101,0.171569,
2,0,0,1,0,24834.2,0.169903,0.169573,-6.66034,13,0.0155546,10,-0.00112941,-2.1765,-0.366121,-0.161149,42.0048,0.169573,
2,0,0,1,0,24834.2,0.167906,0.167547,-6.76377,13,0.0154875,10,-0.00113325,-2.16981,-0.331072,-0.178209,46.9795,0.167547,
2,0,0,1,0,24834.3,0.165908,0.16553,-6.85024,13,0.0154194,10,-0.00113392,-2.16429,-0.315371,-0.187081,50.1041,0.16553,
2,0,0,1,0,24834.3,0.163901,0.163589,-6.96208,13,0.0153503,10,-0.00113892,-2.15726,-0.296367,-0.199078,54.0481,0.163589,
2,0,0,1,0,24834.3,0.161904,0.161576,-7.06397,13,0.0152802,10,-0.00114137,-2.15095,-0.289718,-0.203646,56.2321,0.161576,
2,0,0,1,0,24834.3,0.159906,0.159541,-7.18972,13,0.0152088,10,-0.00114705,-2.14329,-0.276238,-0.213584,59.8768,0.1595405,
2,0,0,1,0,24834.3,0.157909,0.157567,-7.30403,13,0.0151364,10,-0.00115087,-2.13644,-0.24137,-0.244438,69.9039,0.1575667,
2,0,0,1,0,24834.3,0.155902,0.155567,-7.46749,13,0.0150624,10,-0.00116169,-2.12683,-0.220163,-0.267983,77.998,0.155567,
2,0,0,1,0,24834.3,0.153904,0.153596,-7.61376,13,0.014987,10,-0.00116944,-2.1184,-0.220265,-0.267859,79.725,0.153596,
2,0,0,1,0,24834.3,0.151907,0.15155,-7.78775,13,0.0149099,10,-0.00118023,-2.10859,-0.195993,-0.301031,91.5893,0.15155,
2,0,0,1,0,24834.3,0.149909,0.149586,-7.98104,13,0.0148311,10,-0.00119385,-2.09794,-0.172622,-0.341787,106.671,0.1495856,
2,0,0,1,0,24834.3,0.147921,0.147592,-8.20995,13,0.0147509,10,-0.00121172,-2.08566,-0.172276,-0.342473,109.618,0.147592,
2,0,0,1,0,24834.4,0.145923,0.145527,-8.42591,13,0.0146678,10,-0.0012262,-2.07438,-0.159538,-0.369818,121.974,0.145527,
2,0,0,1,0,24834.4,0.143926,0.143599,-8.69702,13,0.0145821,10,-0.00124888,-2.06063,-0.141476,-0.417033,141.623,0.143599,
2,0,0,1,0,24834.4,0.141928,0.141592,-8.98322,13,0.0144937,10,-0.00127195,-2.04657,-0.132807,-0.444254,156.058,0.141592,
2,0,0,1,0,24834.4,0.139939,0.139658,-9.31206,13,0.0144032,10,-0.0013005,-2.03095,-0.127003,-0.464555,168.793,0.139658,
2,0,0,1,0,24834.4,0.137942,0.137673,-9.64482,13,0.0143084,10,-0.00132783,-2.01571,-0.126444,-0.466608,176.018,0.137673,
2,0,0,1,0,24834.4,0.135944,0.135587,-10.0286,13,0.01421,10,-0.00135974,-1.99876,-0.120008,-0.491633,192.442,0.135587,
2,0,0,1,0,24834.4,0.133947,0.133618,-10.425,13,0.0141077,10,-0.00139297,-1.98192,-0.114919,-0.513406,209.184,0.133618,
2,0,0,1,0,24834.4,0.13194,0.131599,-10.8627,13,0.0140013,10,-0.00142953,-1.96406,-0.115421,-0.511172,216.508,0.131599,
2,0,0,1,0,24834.4,0.129942,0.129613,-11.2921,13,0.0138905,10,-0.00146361,-1.94722,-0.115301,-0.511705,225.723,0.129613,
2,0,0,1,0,24834.4,0.127945,0.127646,-11.755,13,0.0137752,10,-0.00150048,-1.92978,-0.118842,-0.496458,227.478,0.127646,
2,0,0,1,0,24834.5,0.125947,0.125618,-12.201,13,0.0136553,10,-0.00153266,-1.91361,-0.120787,-0.488465,232.869,0.125618,
2,0,0,1,0,24834.5,0.123941,0.123639,-12.6882,13,0.0135308,10,-0.00156875,-1.8966,-0.126089,-0.467923,231.007,0.123639,
2,0,0,1,0,24834.5,0.121943,0.121684,-13.1097,13,0.0134018,10,-0.00159524,-1.88241,-0.134625,-0.438255,224.571,0.121684,
2,0,0,1,0,24834.5,0.119945,0.119659,-13.5819,13,0.0132682,10,-0.0016252,-1.86704,-0.137753,-0.428303,226.702,0.119659,
2,0,0,1,0,24834.5,0.117948,0.117644,-14.0257,13,0.0131301,10,-0.00165003,-1.85308,-0.14439,-0.408615,223.672,0.117644,
2,0,0,1,0,24834.5,0.115946,0.115646,-14.4796,13,0.0129875,10,-0.00167451,-1.83924,-0.15373,-0.383789,216.413,0.115646,
2,0,0,1,0,24834.5,0.113962,0.113696,-14.88,13,0.012842,10,-0.0016918,-1.8274,-0.166691,-0.353949,205.602,0.113696,
2,0,0,1,0,24834.5,0.111964,0.111674,-15.2962,13,0.0126911,10,-0.00170819,-1.81542,-0.183647,-0.321269,191.394,0.111674,
2,0,0,1,0,24834.5,0.109967,0.109639,-15.6565,13,0.0125363,10,-0.00171656,-1.80531,-0.196977,-0.299528,183.074,0.109639,
2,0,0,1,0,24834.5,0.107969,0.107654,-16.0322,13,0.0123778,10,-0.00172593,-1.79501,-0.210244,-0.280626,175.227,0.107654,
2,0,0,1,0,24834.6,0.10598,0.105694,-16.3477,13,0.0122175,10,-0.00172786,-1.78654,-0.235063,-0.250997,160.148,0.105694,
2,0,0,1,0,24834.6,0.103983,0.103672,-16.6699,13,0.0120523,10,-0.0017282,-1.77807,-0.253909,-0.232366,150.969,0.103672,
2,0,0,1,0,24834.6,0.101985,0.101697,-16.9512,13,0.0118842,10,-0.00172389,-1.7708,-0.282969,-0.208503,137.887,0.101697,
2,0,0,1,0,24834.6,0.0999877,0.0996567,-17.2235,13,0.0117133,10,-0.00171644,-1.76388,-0.302078,-0.195314,131.188,0.0996567,
2,0,0,1,0,24834.6,0.0979811,0.0977202,-17.4729,13,0.0115397,10,-0.00170746,-1.75763,-0.336861,-0.175147,119.355,0.0977202,
2,0,0,1,0,24834.6,0.0959835,0.0956553,-17.7011,13,0.0113638,10,-0.00169321,-1.752,-0.404987,-0.145684,100.498,0.0956553,
2,0,0,1,0,24834.6,0.0939859,0.0936641,-17.8805,13,0.0111858,10,-0.00167476,-1.74762,-0.460958,-0.127994,89.3068,0.0936641,
2,0,0,1,0,24834.6,0.0919883,0.0916712,-18.0569,13,0.011006,10,-0.0016553,-1.74336,-0.522277,-0.112967,79.5316,0.0916712,
2,0,0,1,0,24834.6,0.0899816,0.089654,-18.1995,13,0.0108247,10,-0.00163166,-1.73994,-0.688382,-0.0857082,60.8063,0.089654,
2,0,0,1,0,24834.6,0.087984,0.0876577,-18.301,13,0.0106421,10,-0.00160422,-1.73753,-1.00913,-0.0584661,41.7149,0.0876577,
2,0,0,1,0,24834.7,0.0859865,0.0856908,-18.3648,13,0.0104587,10,-0.00157369,-1.73601,-1.46353,-0.0403134,28.8832,0.0856908,
2,0,0,1,0,24834.7,0.0839889,0.0836849,-18.4157,13,0.0102748,10,-0.00154112,-1.73481,-2.939,-0.0200748,14.4107,0.0836849,
2,0,0,1,0,24834.7,0.0820004,0.0816809,-18.4226,13,0.0100924,10,-0.00150477,-1.73465,50.1607,0.00117622,-0.845281,0.0816809,
2,0,0,1,0,24834.7,0.0800028,0.0796688,-18.4123,13,0.00990823,10,-0.00146689,-1.73489,2.79541,0.021106,-15.1497,0.0796688,
2,0,0,1,0,24834.7,0.0780052,0.0776829,-18.362,13,0.00972439,10,-0.00142641,-1.73608,1.58609,0.0371985,-26.6523,0.0776829,
2,0,0,1,0,24834.7,0.0760076,0.0756621,-18.3055,13,0.00954105,10,-0.00138504,-1.73742,1.11977,0.0526896,-37.6025,0.0756621,
2,0,0,1,0,24834.7,0.0740191,0.0736667,-18.211,13,0.0093604,10,-0.00134154,-1.73967,0.884756,0.066685,-47.3937,0.0736667,
2,0,0,1,0,24834.7,0.0720215,0.0716703,-18.1164,13,0.00917877,10,-0.0012984,-1.74193,0.776825,0.0759502,-53.6626,0.0716703,
2,0,0,1,0,24834.7,0.0700239,0.0696948,-17.9978,13,0.00899826,10,-0.00125435,-1.74478,0.688498,0.0856938,-60.1888,0.0696948,
2,0,0,1,0,24834.7,0.0680263,0.0677158,-17.8783,13,0.00881889,10,-0.00121065,-1.74767,0.721002,0.0818306,-57.1098,0.0677158,
2,0,0,1,0,24834.8,0.0660197,0.0656682,-17.7679,13,0.00864078,10,-0.00116679,-1.75036,0.711889,0.0828781,-57.4544,0.0656682,
2,0,0,1,0,24834.8,0.0640221,0.0637144,-17.6484,13,0.00846368,10,-0.00112446,-1.75329,0.648394,0.0909941,-62.6547,0.0637144,
2,0,0,1,0,24834.8,0.0620245,0.0616972,-17.5191,13,0.00828789,10,-0.00108088,-1.75649,0.654188,0.0901881,-61.6845,0.0616972,
2,0,0,1,0,24834.8,0.0600269,0.0597277,-17.4025,13,0.00811328,10,-0.00103941,-1.75939,0.737217,0.0800307,-54.3751,0.0597277,
2,0,0,1,0,24834.8,0.0580248,0.0576654,-17.2999,13,0.00793981,10,-0.000997603,-1.76196,0.762302,0.0773972,-52.2481,0.0576654,
2,0,0,1,0,24834.8,0.0560227,0.0557133,-17.1928,13,0.00776729,10,-0.000957867,-1.76465,0.751404,0.0785196,-52.6901,0.0557133,
2,0,0,1,0,24834.8,0.0540251,0.053671,-17.0894,13,0.00759592,10,-0.000917204,-1.76727,0.824657,0.0715449,-47.7359,0.053671,
2,0,0,1,0,24834.8,0.0520275,0.0516807,-17.0003,13,0.00742546,10,-0.000878586,-1.76954,0.773983,0.0762291,-50.543,0.0516807,
2,0,0,1,0,24834.8,0.0500299,0.0497199,-16.8897,13,0.00725606,10,-0.000839753,-1.77238,0.832011,0.0709125,-46.7907,0.0497199,
2,0,0,1,0,24834.8,0.0480414,0.0477119,-16.8146,13,0.00708917,10,-0.000802255,-1.77431,0.88863,0.0663944,-43.5353,0.0477119,
2,0,0,1,0,24834.9,0.0460438,0.0456727,-16.7135,13,0.00692158,10,-0.000763351,-1.77693,0.832915,0.0708356,-46.2255,0.0456727,
2,0,0,1,0,24834.9,0.0440462,0.0436773,-16.6281,13,0.00675486,10,-0.00072627,-1.77916,0.803715,0.0734091,-47.6123,0.0436773,
2,0,0,1,0,24834.9,0.0420486,0.0417113,-16.5249,13,0.00658918,10,-0.000689274,-1.78186,0.875151,0.0674169,-43.5232,0.0417113,
2,0,0,1,0,24834.9,0.0400601,0.0397285,-16.4562,13,0.00642588,10,-0.000653781,-1.78367,0.868833,0.0679071,-43.5646,0.0397285,
2,0,0,1,0,24834.9,0.0380625,0.0377391,-16.3518,13,0.00626186,10,-0.000617104,-1.78643,0.764557,0.0771688,-49.2636,0.0377391,
2,0,0,1,0,24834.9,0.036065,0.0357341,-16.2594,13,0.0060988,10,-0.000581016,-1.78889,0.750062,0.0786601,-49.8926,0.0357341,
2,0,0,1,0,24834.9,0.0340674,0.0337612,-16.1534,13,0.00593678,10,-0.000545356,-1.79174,0.780792,0.0755643,-47.6686,0.0337612,
2,0,0,1,0,24834.9,0.0320607,0.0317431,-16.0692,13,0.00577561,10,-0.000510086,-1.79401,0.742139,0.0794999,-49.8072,0.0317431,
2,0,0,1,0,24834.9,0.0300631,0.0297476,-15.9535,13,0.00561555,10,-0.000474577,-1.79715,0.686272,0.0859718,-53.5554,0.0297476,
2,0,0,1,0,24834.9,0.0280655,0.0277443,-15.855,13,0.00545647,10,-0.000439887,-1.79983,0.677495,0.0870855,-53.8529,0.0277443,
2,0,0,1,0,24835,0.0260679,0.0257393,-15.7376,13,0.00529851,10,-0.000405074,-1.80306,0.661361,0.08921,-54.8159,0.0257393,
2,0,0,1,0,24835,0.0240613,0.0237212,-15.6345,13,0.0051416,10,-0.00037087,-1.80592,0.617537,0.0955408,-58.2465,0.0237212,
2,0,0,1,0,24835,0.0220637,0.0217561,-15.5056,13,0.00498594,10,-0.000337341,-1.80951,0.579966,0.10173,-61.5787,0.0217561,
2,0,0,1,0,24835,0.0200661,0.0196947,-15.3866,13,0.00483145,10,-0.000303033,-1.81286,0.531299,0.111049,-66.6124,0.0196947,
2,0,0,1,0,24835,0.0180685,0.0177018,-15.2355,13,0.00467831,10,-0.000269696,-1.81714,0.521461,0.113144,-67.353,0.01770178,
2,0,0,1,0,24835,0.01608,0.0157486,-15.1208,13,0.00452808,10,-0.000238131,-1.82043,0.517146,0.114088,-67.2421,0.0157486,
2,0,0,1,0,24835,0.0140824,0.0137468,-14.9696,13,0.00437768,10,-0.000205784,-1.82479,0.465693,0.126693,-74.0314,0.0137468,
2,0,0,1,0,24835,0.0120848,0.0117609,-14.8256,13,0.00422871,10,-0.000174362,-1.82899,0.429488,0.137373,-79.412,0.0117609,
2,0,0,1,0,24835,0.0100872,0.00979891,-14.6561,13,0.0040814,10,-0.000143613,-1.83398,0.442377,0.13337,-76.3713,0.00979891,
2,0,0,1,0,24835,0.00810328,0.00776943,-14.5207,13,0.003937,10,-0.000112818,-1.83801,0.447238,0.131921,-74.6788,0.00776943,
2,0,0,1,0,24835.1,0.00610116,0.0057696,-14.3552,13,0.00379264,10,-8.28236e-05,-1.84299,0.412166,0.143146,-80.2263,0.0057696,
2,0,0,1,0,24835.1,0.00410357,0.0037932,-14.2017,13,0.00364986,10,-5.387e-05,-1.84766,0.511177,0.11542,-64.0753,0.0037932,
2,0,0,1,0,24835.1,0.00210598,0.00171268,-14.0952,13,0.00350862,10,-2.41406e-05,-1.85093,0.487458,0.121036,-66.4423,0.00171268,
2,0,0,1,0,24835.1,0.00010174,-0.000282811,-13.9309,13,0.00336849,10,3.93981e-06,-1.85602,0.398029,0.14823,-80.6186,-0.000282811,
2,0,0,1,0,24835.1,-0.00189827,-0.00222538,-13.7777,13,0.00322993,10,3.06607e-05,-1.86082,0.431351,0.13678,-73.5839,-0.00222538,
2,0,0,1,0,24835.1,-0.00389586,-0.00424256,-13.6395,13,0.00309284,10,5.78666e-05,-1.8652,0.460009,0.128258,-68.2668,-0.00424256,
2,0,0,1,0,24835.1,-0.00589345,-0.00629705,-13.4998,13,0.00295716,10,8.50088e-05,-1.86967,0.470606,0.12537,-66.0855,-0.00629705,
2,0,0,1,0,24835.1,-0.00789103,-0.00825003,-13.3747,13,0.00282273,10,0.000110342,-1.87372,0.524924,0.112397,-58.7013,-0.00825003,
2,0,0,1,0,24835.1,-0.0098977,-0.0102898,-13.2654,13,0.00268951,10,0.000136498,-1.87728,0.582203,0.101339,-52.4814,-0.0102898,
2,0,0,1,0,24835.1,-0.0118953,-0.0122367,-13.1655,13,0.0025573,10,0.000161102,-1.88056,0.579136,0.101876,-52.33,-0.0122367,
2,0,0,1,0,24835.2,-0.0138929,-0.0142382,-13.0588,13,0.00242617,10,0.000185934,-1.8841,0.663684,0.0888977,-45.3583,-0.01423825,
2,0,0,1,0,24835.2,-0.0158905,-0.0162684,-12.9826,13,0.00229593,10,0.000211207,-1.88664,0.849185,0.0694784,-35.2171,-0.0162684,
2,0,0,1,0,24835.2,-0.017879,-0.0182531,-12.9174,13,0.00216776,10,0.000235782,-1.88883,0.914437,0.0645205,-32.5252,-0.0182531,
2,0,0,1,0,24835.2,-0.0198766,-0.0203002,-12.8515,13,0.00203893,10,0.000260887,-1.89105,0.85975,0.0686246,-34.4125,-0.02030021,
2,0,0,1,0,24835.2,-0.0218741,-0.0222153,-12.781,13,0.00191086,10,0.000283935,-1.89343,1.10811,0.0532439,-26.5938,-0.0222153,
2,0,0,1,0,24835.2,-0.0238717,-0.0243022,-12.745,13,0.00178324,10,0.000309732,-1.89466,1.57441,0.0374744,-18.6373,-0.0243022,
2,0,0,1,0,24835.2,-0.0258602,-0.0262494,-12.7059,13,0.00165731,10,0.000333521,-1.896,1.53858,0.0383469,-19.0178,-0.0262494,
2,0,0,1,0,24835.2,-0.0278578,-0.0282301,-12.6703,13,0.00153041,10,0.000357685,-1.89721,1.77858,0.0331725,-16.4069,-0.0282301,
2,0,0,1,0,24835.2,-0.0298554,-0.0302308,-12.6405,13,0.00140389,10,0.000382134,-1.89823,3.1871,0.0185121,-9.14073,-0.0302308,
2,0,0,1,0,24835.2,-0.031853,-0.0322263,-12.6338,13,0.00127747,10,0.000407141,-1.89847,6.24452,0.00944828,-4.65763,-0.0322263,
2,0,0,1,0,24835.3,-0.0338597,-0.034188,-12.6221,13,0.00115121,10,0.000431524,-1.89887,32.1266,0.00183649,-0.905364,-0.03418798,
2,0,0,1,0,24835.3,-0.0358573,-0.036219,-12.6302,13,0.00102492,10,0.000457453,-1.89859,-19.1157,-0.00308646,1.52076,-0.036219,
2,0,0,1,0,24835.3,-0.0378549,-0.0382466,-12.6283,13,0.000898647,10,0.000482989,-1.89866,-23.8086,-0.0024781,1.22173,-0.0382466,
2,0,0,1,0,24835.3,-0.0398524,-0.0402074,-12.6351,13,0.000772264,10,0.000508023,-1.89842,-3.3788,-0.0174618,8.61765,-0.0402074,
2,0,0,1,0,24835.3,-0.0418591,-0.0422506,-12.6628,13,0.000645803,10,0.00053501,-1.89747,-2.12159,-0.0278093,13.743,-0.0422506,
2,0,0,1,0,24835.3,-0.0438567,-0.0442348,-12.6904,13,0.000519027,10,0.000561358,-1.89652,-3.42345,-0.0172341,8.52839,-0.0442348,
2,0,0,1,0,24835.3,-0.0458543,-0.0462677,-12.697,13,0.000392082,10,0.000587462,-1.8963,-2.29923,-0.0256608,12.734,-0.0462677,
2,0,0,1,0,24835.3,-0.0478519,-0.048166,-12.7405,13,0.000264859,10,0.000613657,-1.89481,-1.31892,-0.0447336,22.2429,-0.04816597,
2,0,0,1,0,24835.3,-0.0498585,-0.0502014,-12.7845,13,0.000137301,10,0.000641801,-1.89332,-1.299,-0.0454196,22.6651,-0.0502014,
2,0,0,1,0,24835.3,-0.051838,-0.0522269,-12.8325,13,1.04822e-05,10,0.000670203,-1.89169,-1.47332,-0.0400455,20.0426,-0.0522269,
2,0,0,1,0,24835.4,-0.0538356,-0.0541802,-12.8643,13,-0.000117911,10,0.000696989,-1.89061,-1.363,-0.043287,21.752,-0.0541802,
2,0,0,1,0,24835.4,-0.0558331,-0.0562249,-12.9195,13,-0.000246834,10,0.000726397,-1.88876,-1.18607,-0.0497439,25.0718,-0.0562249,
2,0,0,1,0,24835.4,-0.0578126,-0.0582007,-12.9651,13,-0.000374934,10,0.000754577,-1.88722,-1.03086,-0.0572336,28.9857,-0.0582007,
2,0,0,1,0,24835.4,-0.0598192,-0.0601884,-13.0344,13,-0.000504978,10,0.000784517,-1.88491,-0.979977,-0.0602055,30.6081,-0.0601884,
2,0,0,1,0,24835.4,-0.0618168,-0.0622377,-13.0886,13,-0.000635543,10,0.000814607,-1.88311,-0.981398,-0.0601183,30.7255,-0.0622377,
2,0,0,1,0,24835.4,-0.0638144,-0.0641854,-13.1572,13,-0.000766817,10,0.000844499,-1.88084,-0.938301,-0.0628796,32.275,-0.0641854,
2,0,0,1,0,24835.4,-0.065812,-0.0661723,-13.2156,13,-0.000898661,10,0.000874508,-1.87891,-0.84124,-0.0701345,36.2102,-0.0661723,
2,0,0,1,0,24835.4,-0.0678187,-0.0681747,-13.3016,13,-0.00103133,10,0.000906834,-1.8761,-0.785627,-0.0750992,38.9639,-0.0681747,
2,0,0,1,0,24835.4,-0.0698163,-0.0702153,-13.3732,13,-0.00116472,10,0.000939001,-1.87377,-0.795404,-0.0741761,38.7301,-0.0702153,
2,0,0,1,0,24835.4,-0.0718138,-0.0721735,-13.4565,13,-0.00129891,10,0.000971202,-1.87107,-0.762062,-0.0774215,40.6491,-0.0721735,
2,0,0,1,0,24835.5,-0.0738114,-0.0741612,-13.5336,13,-0.00143386,10,0.00100366,-1.86859,-0.682139,-0.0864927,45.7313,-0.0741612,
2,0,0,1,0,24835.5,-0.0758181,-0.0761784,-13.6396,13,-0.00156982,10,0.00103905,-1.8652,-0.694946,-0.0848987,45.1431,-0.0761784,
2,0,0,1,0,24835.5,-0.0778157,-0.0782077,-13.7162,13,-0.00170662,10,0.00107271,-1.86277,-0.698016,-0.0845252,45.2927,-0.0782077,
2,0,0,1,0,24835.5,-0.0798133,-0.0801876,-13.8212,13,-0.00184439,10,0.00110829,-1.85945,-0.602656,-0.0979,52.8077,-0.0801876,
2,0,0,1,0,24835.5,-0.0818109,-0.0821995,-13.927,13,-0.00198314,10,0.0011448,-1.85614,-0.576385,-0.102362,55.6568,-0.0821995,
2,0,0,1,0,24835.5,-0.0837994,-0.0841807,-14.0435,13,-0.00212163,10,0.00118219,-1.85253,-0.606297,-0.097312,53.2919,-0.08418072,
2,0,0,1,0,24835.5,-0.085797,-0.0861634,-14.1383,13,-0.00226248,10,0.0012182,-1.8496,-0.56983,-0.10354,57.2058,-0.0861634,
2,0,0,1,0,24835.5,-0.0877945,-0.088158,-14.271,13,-0.00240455,10,0.0012581,-1.84555,-0.546234,-0.108012,60.1047,-0.088158,
2,0,0,1,0,24835.5,-0.0897921,-0.0901733,-14.3793,13,-0.00254777,10,0.00129663,-1.84226,-0.545106,-0.108236,60.7884,-0.0901733,
2,0,0,1,0,24835.5,-0.0917806,-0.0921119,-14.5114,13,-0.00269077,10,0.00133667,-1.83829,-0.540434,-0.109172,61.7867,-0.0921119,
2,0,0,1,0,24835.6,-0.0937782,-0.0941499,-14.625,13,-0.00283645,10,0.00137694,-1.8349,-0.547572,-0.107748,61.542,-0.09414994,
2,0,0,1,0,24835.6,-0.0957758,-0.0961463,-14.7596,13,-0.00298344,10,0.00141908,-1.83092,-0.53711,-0.109847,63.2368,-0.0961463,
2,0,0,1,0,24835.6,-0.0977734,-0.0981418,-14.8774,13,-0.00313165,10,0.0014601,-1.82747,-0.491515,-0.120037,69.7935,-0.0981418,
2,0,0,1,0,24835.6,-0.0997412,-0.100131,-15.0377,13,-0.00327824,10,0.00150574,-1.82282,0.0993832,0.593662,-336.999,-0.100131,
2,0,0,1,1,24835.6,-0.0996711,-0.100097,-14.2184,13,-0.00332231,10,0.00142322,-1.84715,-0.0145249,-4.06199,2031.44,-0.100097,
2,0,0,1,1,24835.6,-0.0976826,-0.0980556,-10.8221,13,-0.0034443,10,0.00106116,-1.96569,-0.0177058,-3.33225,1439.21,-0.0980556,
2,0,0,1,1,24835.6,-0.095685,-0.0960681,-8.41945,13,-0.00353977,10,0.000808841,-2.07472,-0.0179457,-3.2877,1085.99,-0.0960681,
2,0,0,1,1,24835.6,-0.0936874,-0.0940536,-6.47597,13,-0.0036137,10,0.000609089,-2.1887,-0.0166244,-3.549,893.665,-0.0940536,
2,0,0,1,1,24835.6,-0.0916898,-0.0920383,-4.81815,13,-0.00366982,10,0.000443455,-2.31712,-0.0141911,-4.15755,774.993,-0.0920383,
2,0,0,1,1,24835.6,-0.0897013,-0.0900895,-3.40383,13,-0.00371016,10,0.000306649,-2.46803,-0.0112109,-5.26273,677.201,-0.0900895,
2,0,0,1,1,24835.6,-0.0877037,-0.0880776,-2.13592,13,-0.0037376,10,0.000188127,-2.67041,-0.00766748,-7.69483,592.815,-0.0880776,
2,0,0,1,1,24835.7,-0.0857062,-0.0860595,-1.01477,13,-0.00375304,10,8.7331e-05,-2.99363,-0.0016748,-35.228,532.066,-0.0860595,
2,0,0,1,1,24835.7,-0.0837086,-0.0840796,-0.0087595,13,-0.00375795,10,7.36495e-07,-5.05752,-0.0737131,-0.800401,483.511,-0.0840796,
2,1,0,1,1,24835.7,-0.0817019,-0.0821058,0.896878,13,-0.0037533,10,-7.36389e-05,-3.04727,0.00173917,33.9242,434.468,-0.0821058,
2,1,0,1,1,24835.7,-0.0797043,-0.0800895,1.72482,13,-0.00374005,10,-0.00013814,-2.76326,0.00922461,6.39593,386.498,-0.0800895,
2,1,0,1,1,24835.7,-0.0777067,-0.0780671,2.45783,13,-0.00371898,10,-0.000191876,-2.60945,0.0153046,3.85505,354.913,-0.0780671,
2,1,0,1,1,24835.7,-0.0757091,-0.0761237,3.13234,13,-0.00369096,10,-0.000238445,-2.50413,0.0212768,2.77297,331.655,-0.0761237,
2,1,0,1,1,24835.7,-0.0737025,-0.0741291,3.76391,13,-0.00365634,10,-0.000279015,-2.42436,0.0285061,2.06974,298.955,-0.0741291,
2,1,0,1,1,24835.7,-0.0717049,-0.0721015,4.3348,13,-0.00361576,10,-0.000312546,-2.36303,0.0366485,1.60989,269.147,-0.0721015,
2,1,0,1,1,24835.7,-0.0697073,-0.0700956,4.84951,13,-0.00356973,10,-0.000339929,-2.3143,0.0444939,1.32602,249.395,-0.0700956,
2,1,0,1,1,24835.7,-0.0677097,-0.0680775,5.33836,13,-0.00351875,10,-0.000363422,-2.27259,0.0523794,1.1264,232.971,-0.0680775,
2,1,0,1,1,24835.8,-0.0657212,-0.0661154,5.77678,13,-0.00346365,10,-0.000381934,-2.23831,0.0621139,0.949868,213.113,-0.0661154,
2,1,0,1,1,24835.8,-0.0637236,-0.0641287,6.17991,13,-0.00340384,10,-0.000396309,-2.20902,0.0731402,0.80667,193.812,-0.0641287,
2,1,0,1,1,24835.8,-0.061726,-0.062115,6.55211,13,-0.0033401,10,-0.000406984,-2.18362,0.0839555,0.702753,179.227,-0.062115,
2,1,0,1,1,24835.8,-0.0597284,-0.0600933,6.90316,13,-0.00327279,10,-0.000414834,-2.16095,0.0957419,0.61624,165.363,-0.0600933,
2,1,0,1,1,24835.8,-0.0577399,-0.0581365,7.21,13,-0.00320289,10,-0.000419164,-2.14206,0.110515,0.533864,149.951,-0.0581365,
2,1,0,1,1,24835.8,-0.0557423,-0.0561184,7.49919,13,-0.00312929,10,-0.000420843,-2.12499,0.125945,0.468457,136.815,-0.0561184,
2,1,0,1,1,24835.8,-0.0537448,-0.05409,7.76362,13,-0.00305287,10,-0.000419934,-2.10994,0.141517,0.416912,126.042,-0.05409,
2,1,0,1,1,24835.8,-0.0517472,-0.0521509,7.99927,13,-0.00297402,10,-0.000417169,-2.09695,0.160122,0.36847,114.906,-0.0521509,
2,1,0,1,1,24835.8,-0.049745,-0.0501016,8.22191,13,-0.00289286,10,-0.000411931,-2.08503,0.174598,0.337919,108.368,-0.0501016,
2,1,0,1,1,24835.8,-0.0477429,-0.0480922,8.4391,13,-0.00280949,10,-0.000405855,-2.0737,0.19594,0.301113,98.9188,-0.0480922,
2,1,0,1,1,24835.9,-0.0457453,-0.046115,8.61627,13,-0.00272416,10,-0.000397339,-2.06468,0.224739,0.262527,88.2318,-0.046115,
2,1,0,1,1,24835.9,-0.0437477,-0.0441542,8.78656,13,-0.00263715,10,-0.000387963,-2.05618,0.251276,0.234801,80.4233,-0.0441542,
2,1,0,1,1,24835.9,-0.0417501,-0.0421075,8.93856,13,-0.00254846,10,-0.00037638,-2.04873,0.270724,0.217934,76.0287,-0.0421075,
2,1,0,1,1,24835.9,-0.0397435,-0.0401215,9.09316,13,-0.00245825,10,-0.000364831,-2.04129,0.3118,0.189224,66.9894,-0.0401215,
2,1,0,1,1,24835.9,-0.0377459,-0.0381269,9.20522,13,-0.0023667,10,-0.000350966,-2.03597,0.349599,0.168765,60.6853,-0.0381269,
2,1,0,1,1,24835.9,-0.0357483,-0.0361288,9.33546,13,-0.00227401,10,-0.000337279,-2.02986,0.380989,0.15486,56.3133,-0.0361288,
2,1,0,1,1,24835.9,-0.0337507,-0.0341168,9.43104,13,-0.00218012,10,-0.000321757,-2.02544,0.428749,0.13761,50.6764,-0.0341168,
2,1,0,1,1,24835.9,-0.0317622,-0.0321415,9.53752,13,-0.00208624,10,-0.00030655,-2.02056,0.481158,0.122621,45.5641,-0.03214151,
2,1,0,1,1,24835.9,-0.0297646,-0.0301437,9.61207,13,-0.00199048,10,-0.000289743,-2.01718,0.573126,0.102944,38.6284,-0.0301437,
2,1,0,1,1,24835.9,-0.027767,-0.0281284,9.69254,13,-0.00189398,10,-0.000272636,-2.01356,0.658158,0.0896442,33.8669,-0.0281284,
2,1,0,1,1,24836,-0.0257694,-0.0261043,9.74887,13,-0.00179674,10,-0.000254488,-2.01105,0.690882,0.0853981,32.5185,-0.0261043,
2,1,0,1,1,24836,-0.0237809,-0.0241524,9.82184,13,-0.0016999,10,-0.000237221,-2.00781,0.743617,0.0793419,30.3704,-0.0241524,
2,1,0,1,1,24836,-0.0217833,-0.0221968,9.86754,13,-0.00160143,10,-0.000219028,-2.00579,1.10378,0.0534527,20.5739,-0.0221968,
2,1,0,1,1,24836,-0.0197858,-0.020203,9.90309,13,-0.00150256,10,-0.000200073,-2.00423,1.15334,0.0511558,19.7797,-0.020203,
2,1,0,1,1,24836,-0.0177882,-0.0181598,9.94739,13,-0.00140327,10,-0.000180643,-2.00229,1.02959,0.0573044,22.2481,-0.0181598,
2,1,0,1,1,24836,-0.0157815,-0.0161461,9.99335,13,-0.00130361,10,-0.000161354,-2.00029,1.40021,0.0421366,16.4121,-0.0161461,
2,1,0,1,1,24836,-0.0137839,-0.0141558,10.0131,13,-0.00120355,10,-0.000141744,-1.99943,2.18141,0.0270467,10.5706,-0.0141558,
2,1,0,1,1,24836,-0.0117863,-0.0121681,10.0354,13,-0.00110333,10,-0.000122112,-1.99847,2.04267,0.0288838,11.3125,-0.0121681,
2,1,0,1,1,24836,-0.00978874,-0.0101831,10.058,13,-0.00100282,10,-0.000102422,-1.99749,1.59929,0.0368913,14.4903,-0.0101831,
2,1,0,1,1,24836,-0.00778207,-0.00815286,10.0936,13,-0.000902118,10,-8.22916e-05,-1.99595,3.02643,0.0194949,7.66412,-0.008152863,
2,1,0,1,1,24836.1,-0.00578449,-0.00616952,10.0888,13,-0.000801195,10,-6.22431e-05,-1.99616,6.13219,0.00962136,3.79291,-0.00616952,
2,1,0,1,1,24836.1,-0.0037869,-0.00414366,10.1088,13,-0.000700201,10,-4.18873e-05,-1.9953,3.05082,0.019339,7.62581,-0.00414366,
2,1,0,1,1,24836.1,-0.00178931,-0.00222104,10.1189,13,-0.000599009,10,-2.24745e-05,-1.99487,8.45389,0.00697904,2.75473,-0.00222104,
2,1,0,1,1,24836.1,-2.55332e-05,-0.000401673,10.1191,13,-0.000510973,10,-4.06457e-06,-1.99486, , , ,-0.000401673,