File: Figure_codes/Fig_3-5/rawdata_trumpetplot_data/after 10th/20221101_1-115_003_TrumpetPlot_ParaChange_from10_every3_07_CV_C01_1.csv
mode,ox/red,error,control changes,counter inc.,time/s,control/V,Ewe/V,<I>/mA,cycle number,(Q-Qo)/C,I Range,P/W,log(|I|),Tafel slope mV/dec,alpha_eff,dI/d(E-IR),E-IR/V,
2,0,0,0,0,3135.15,2.44065e-05,-0.000325324,-2.64289,2,0.0000000E+000,10,8.59793e-07,-2.57792, , , ,-0.000325324,
2,0,0,1,0,3135.17,0.0013005,0.000959052,-0.604278,2,-3.04824e-05,10,-5.79534e-07,-3.21876, , , ,0.000959052,
2,1,0,1,0,3135.19,0.00279471,0.00246994,0.638639,2,-2.81278e-05,10,1.5774e-06,-3.19474,0.0695348,0.848496,653.95,0.00246994,
2,1,0,1,0,3135.22,0.00429425,0.00402117,1.27506,2,-3.08529e-06,10,5.12722e-06,-2.89447,0.00542311,10.8794,349.247,0.00402117,
2,1,0,1,0,3135.24,0.00579379,0.00541532,1.63476,2,3.40532e-05,10,8.85274e-06,-2.78655,0.0163736,3.60336,207.261,0.00541532,
2,1,0,1,0,3135.27,0.007288,0.00699617,1.86695,2,7.83173e-05,10,1.30615e-05,-2.72887,0.0302985,1.94729,135.911,0.00699617,
2,1,0,1,0,3135.29,0.00878882,0.00853019,2.03139,2,0.000127584,10,1.73281e-05,-2.69221,0.0503951,1.17075,90.8952,0.00853019,
2,1,0,1,0,3135.32,0.0102896,0.00999313,2.15129,2,0.000180297,10,2.14981e-05,-2.6673,0.0755481,0.78096,64.3881,0.00999313,
2,1,0,1,0,3135.34,0.0117838,0.0114804,2.2399,2,0.000235341,10,2.5715e-05,-2.64977,0.0909471,0.648728,56.0093,0.0114804,
2,1,0,1,0,3135.37,0.0132834,0.0129669,2.29916,2,0.000292433,10,2.98131e-05,-2.63843,0.1095,0.538814,48.4646,0.0129669,
2,1,0,1,0,3135.39,0.0147816,0.0144898,2.36506,2,0.000351257,10,3.42692e-05,-2.62616,0.13132,0.449285,41.5021,0.0144898,
2,1,0,1,0,3135.42,0.0162811,0.0159783,2.43401,2,0.000411796,10,3.88915e-05,-2.61368,0.158727,0.371709,35.1092,0.01597834,
2,1,0,1,0,3135.44,0.0177753,0.0174804,2.48396,2,0.000473434,10,4.34205e-05,-2.60486,0.185141,0.318676,30.7651,0.0174804,
2,1,0,1,0,3135.47,0.0192761,0.0189516,2.52518,2,0.000536387,10,4.78563e-05,-2.59771,0.174119,0.338848,33.4213,0.0189516,
2,1,0,1,0,3135.49,0.020777,0.020461,2.57378,2,0.000600565,10,5.26623e-05,-2.58943,0.180388,0.327073,32.8456,0.020461,
2,1,0,1,0,3135.52,0.0222712,0.0219622,2.62943,2,0.000665735,10,5.7748e-05,-2.58014,0.189743,0.310947,31.8013,0.0219622,
2,1,0,1,0,3135.54,0.0237707,0.0235173,2.67636,2,0.000732395,10,6.29409e-05,-2.57245,0.198246,0.297609,30.9928,0.0235173,
2,1,0,1,0,3135.57,0.0252703,0.0249512,2.71154,2,0.000800185,10,6.76562e-05,-2.56678,0.196477,0.30029,31.8449,0.0249512,
2,1,0,1,0,3135.59,0.0267645,0.0264092,2.75729,2,0.000868762,10,7.28179e-05,-2.55952,0.192208,0.306959,33.1814,0.0264092,
2,1,0,1,0,3135.62,0.0282653,0.0279882,2.81369,2,0.000938839,10,7.875e-05,-2.55072,0.205449,0.287175,31.5211,0.0279882,
2,1,0,1,0,3135.64,0.0297648,0.0294918,2.86569,2,0.00101027,10,8.45143e-05,-2.54277,0.21606,0.273072,30.403,0.0294918,
2,1,0,1,0,3135.67,0.031259,0.0309745,2.90114,2,0.00108254,10,8.98614e-05,-2.53743,0.201418,0.292923,33.249,0.0309745,
2,1,0,1,0,3135.69,0.0327585,0.0324592,2.9535,2,0.00115612,10,9.58684e-05,-2.52966,0.231178,0.255215,29.455,0.0324592,
2,1,0,1,0,3135.72,0.034258,0.0339607,3.00717,2,0.00123108,10,0.000102126,-2.52184,0.207544,0.284277,33.3398,0.0339607,
2,1,0,1,0,3135.74,0.0357576,0.0354882,3.05975,2,0.00130732,10,0.000108585,-2.51431,0.206998,0.285027,33.9827,0.0354882,
2,1,0,1,0,3135.77,0.0372518,0.0368975,3.10823,2,0.00138458,10,0.000114686,-2.50749,0.203942,0.289297,35.1184,0.0368975,
2,1,0,1,0,3135.79,0.0387526,0.0384634,3.15539,2,0.00146328,10,0.000121367,-2.50095,0.198694,0.296939,36.721,0.0384634,
2,1,0,1,0,3135.82,0.0402534,0.0399444,3.21719,2,0.00154338,10,0.000128509,-2.49252,0.200169,0.29475,36.9707,0.0399444,
2,1,0,1,0,3135.84,0.0417476,0.041423,3.28106,2,0.00162469,10,0.000135911,-2.48399,0.196451,0.300329,38.3303,0.041423,
2,1,0,1,0,3135.87,0.0432472,0.0429668,3.33631,2,0.00170773,10,0.00014335,-2.47673,0.195339,0.302039,39.2774,0.0429668,
2,1,0,1,0,3135.89,0.0447467,0.0444184,3.38002,2,0.00179206,10,0.000150135,-2.47108,0.203064,0.290549,38.4534,0.0444184,
2,1,0,1,0,3135.92,0.0462463,0.0459439,3.44412,2,0.0018778,10,0.000158236,-2.46292,0.199283,0.296062,39.7447,0.0459439,
2,1,0,1,0,3135.94,0.0477391,0.0474148,3.50518,2,0.00196471,10,0.000166197,-2.45529,0.201102,0.293383,40.0624,0.0474148,
2,1,0,1,0,3135.97,0.0492399,0.0489478,3.55465,2,0.0020534,10,0.000173992,-2.4492,0.206947,0.285097,39.5846,0.04894783,
2,1,0,1,0,3135.99,0.0507408,0.0504178,3.60676,2,0.0021435,10,0.000181845,-2.44288,0.219999,0.268183,37.8925,0.0504178,
2,1,0,1,0,3136.02,0.052235,0.0519151,3.67935,2,0.00223469,10,0.000191014,-2.43423,0.216639,0.272343,39.0608,0.0519151,
2,1,0,1,0,3136.04,0.0537345,0.0534261,3.7472,2,0.00232785,10,0.000200198,-2.42629,0.20951,0.281609,41.0634,0.0534261,
2,1,0,1,0,3136.07,0.0552341,0.0549113,3.80044,2,0.00242256,10,0.000208687,-2.42017,0.21647,0.272555,40.3867,0.0549113,
2,1,0,1,0,3136.09,0.0567283,0.056425,3.84753,2,0.00251832,10,0.000217097,-2.41482,0.251313,0.234767,35.3451,0.056425,
2,1,0,1,0,3136.12,0.0582291,0.0579277,3.91132,2,0.00261579,10,0.000226574,-2.40768,0.244652,0.241159,36.8463,0.0579277,
2,1,0,1,0,3136.14,0.0597299,0.0594336,3.97807,2,0.00271479,10,0.000236431,-2.40033,0.225659,0.261457,40.4797,0.05943355,
2,1,0,1,0,3136.17,0.0612228,0.0609199,4.02947,2,0.0028149,10,0.000245475,-2.39475,0.24196,0.243842,38.305,0.0609199,
2,1,0,1,0,3136.19,0.0627223,0.06241,4.08172,2,0.0029168,10,0.00025474,-2.38916,0.239435,0.246414,39.3286,0.06241,
2,1,0,1,0,3136.22,0.0642218,0.0639027,4.13245,2,0.00301997,10,0.000264075,-2.38379,0.25845,0.228284,36.9112,0.0639027,
2,1,0,1,0,3136.24,0.0657214,0.0654245,4.20458,2,0.00312465,10,0.000275083,-2.37628,0.252401,0.233755,38.2734,0.0654245,
2,1,0,1,0,3136.27,0.0672156,0.0669311,4.26175,2,0.00323038,10,0.000285243,-2.37041,0.248215,0.237698,39.4481,0.0669311,
2,1,0,1,0,3136.29,0.0687164,0.0684425,4.30721,2,0.00333794,10,0.000294796,-2.3658,0.300962,0.196038,32.953,0.0684425,
2,1,0,1,0,3136.32,0.0702172,0.0699188,4.36139,2,0.00344671,10,0.000304943,-2.36038,0.309792,0.190451,32.4085,0.0699188,
2,1,0,1,0,3136.34,0.0717114,0.0713896,4.42145,2,0.00355635,10,0.000315646,-2.35444,0.279099,0.211394,36.3654,0.0713896,
2,1,0,1,0,3136.37,0.073211,0.0729408,4.46758,2,0.00366779,10,0.000325869,-2.34993,0.271539,0.21728,37.8692,0.0729408,
2,1,0,1,0,3136.39,0.0747105,0.0743744,4.5096,2,0.00378048,10,0.000335399,-2.34586,0.300957,0.196041,34.5498,0.07437443,
2,1,0,1,0,3136.42,0.0762101,0.0758885,4.55406,2,0.00389439,10,0.000345601,-2.3416,0.341212,0.172913,30.8046,0.0758885,
2,1,0,1,0,3136.44,0.0777042,0.0774419,4.61537,2,0.004009,10,0.000357423,-2.33579,0.317232,0.185984,33.4493,0.0774419,
2,1,0,1,0,3136.47,0.0792037,0.0788765,4.66181,2,0.00412536,10,0.000367708,-2.33145,0.318497,0.185245,33.6649,0.0788765,
2,1,0,1,0,3136.49,0.0807046,0.0804218,4.7074,2,0.00424296,10,0.000378577,-2.32722,0.361625,0.163152,29.9544,0.0804218,
2,1,0,1,0,3136.52,0.0821988,0.0818853,4.75358,2,0.0043612,10,0.000389248,-2.32298,0.389696,0.1514,28.1198,0.0818853,
2,1,0,1,0,3136.54,0.0836983,0.0834105,4.80554,2,0.00448103,10,0.000400832,-2.31826,0.345375,0.170829,32.0135,0.0834105,
2,1,0,1,0,3136.57,0.0851979,0.0848967,4.85113,2,0.00460214,10,0.000411845,-2.31416,0.319163,0.184858,34.9911,0.0848967,
2,1,0,1,0,3136.59,0.0866921,0.0863675,4.89627,2,0.00472397,10,0.000422879,-2.31013,0.376611,0.15666,29.9434,0.08636751,
2,1,0,1,0,3136.62,0.0881929,0.0879093,4.94978,2,0.00484746,10,0.000435132,-2.30541,0.389412,0.15151,29.2283,0.0879093,
2,1,0,1,0,3136.64,0.0896937,0.0893707,4.99438,2,0.00497195,10,0.000446352,-2.30152,0.392672,0.150252,29.2391,0.08937075,
2,1,0,1,0,3136.67,0.0911879,0.090855,5.03443,2,0.0050971,10,0.000457403,-2.29805,0.296999,0.198654,39.0524,0.090855,
2,1,0,1,0,3136.69,0.0926861,0.0923637,5.08355,2,0.00522404,10,0.000469536,-2.29383,0.300754,0.196174,39.0019,0.0923637,
2,1,0,1,0,3136.72,0.0941856,0.0938948,5.1426,2,0.00535246,10,0.000482864,-2.28882,0.332405,0.177495,35.6569,0.0938948,
2,1,0,1,0,3136.74,0.0956852,0.0954249,5.2052,2,0.00548221,10,0.000496706,-2.28356,0.311651,0.189314,38.4616,0.09542492,
2,1,0,1,0,3136.77,0.0971794,0.0969032,5.25909,2,0.00561291,10,0.000509623,-2.27909,0.258737,0.228031,46.8737,0.0969032,
2,1,0,1,0,3136.79,0.0986802,0.0983601,5.3237,2,0.00574573,10,0.00052364,-2.27379,0.275196,0.214393,44.6442,0.0983601,
2,1,0,1,0,3136.82,0.100181,0.0999105,5.39825,2,0.0058803,10,0.000539341,-2.26775,0.278715,0.211686,44.5906,0.09991046,
2,1,0,1,0,3136.84,0.101675,0.101389,5.47253,2,0.00601608,10,0.000554857,-2.26181,0.257677,0.228969,48.9219,0.101389,
2,1,0,1,0,3136.87,0.103175,0.10286,5.55403,2,0.0061542,10,0.000571288,-2.25539,0.222036,0.265723,57.6146,0.10286,
2,1,0,1,0,3136.89,0.104674,0.104354,5.62846,2,0.00629445,10,0.000587354,-2.24961,0.214864,0.274592,60.4765,0.104354,
2,1,0,1,0,3136.92,0.106169,0.105888,5.73021,2,0.00643643,10,0.000606762,-2.24183,0.221184,0.266746,59.6637,0.105888,
2,1,0,1,0,3136.94,0.107668,0.107395,5.83159,2,0.00658134,10,0.000626284,-2.23421,0.205973,0.286446,65.1379,0.1073952,
2,1,0,1,0,3136.97,0.109169,0.108874,5.92496,2,0.00672854,10,0.000645076,-2.22731,0.199538,0.295683,68.4307,0.108874,
2,1,0,1,0,3136.99,0.110663,0.110348,6.02194,2,0.00687775,10,0.000664509,-2.22026,0.191656,0.307844,72.4745,0.1103481,
2,1,0,1,0,3137.02,0.112163,0.111869,6.13594,2,0.0070302,10,0.000686422,-2.21212,0.201526,0.292767,70.0762,0.111869,
2,1,0,1,0,3137.04,0.113662,0.113352,6.24865,2,0.00718544,10,0.000708299,-2.20421,0.205815,0.286665,69.7822,0.113352,
2,1,0,1,0,3137.07,0.115162,0.11484,6.34598,2,0.00734319,10,0.000728772,-2.1975,0.202022,0.292048,72.355,0.11484,
2,1,0,1,0,3137.09,0.116656,0.11636,6.44526,2,0.00750293,10,0.000749974,-2.19076,0.200714,0.293951,74.0538,0.11636,
2,1,0,1,0,3137.12,0.118157,0.117818,6.55804,2,0.007666,10,0.000772653,-2.18323,0.221459,0.266415,68.1899,0.117818,
2,1,0,1,0,3137.14,0.119657,0.119393,6.67017,2,0.0078318,10,0.00079637,-2.17586,0.23816,0.247732,64.3141,0.119393,
2,1,0,1,0,3137.17,0.121152,0.120898,6.75451,2,0.00799927,10,0.000816604,-2.17041,0.237139,0.2488,65.5651,0.1208977,
2,1,0,1,0,3137.19,0.122651,0.122348,6.84468,2,0.00816976,10,0.000837432,-2.16465,0.247452,0.23843,63.7138,0.122348,
2,1,0,1,0,3137.22,0.124151,0.123834,6.93521,2,0.00834254,10,0.000858817,-2.15894,0.272359,0.216626,58.664,0.123834,
2,1,0,1,0,3137.24,0.125649,0.125383,7.03215,2,0.00851758,10,0.000881716,-2.15291,0.301537,0.195664,53.5937,0.125383,
2,1,0,1,0,3137.27,0.127143,0.126847,7.10132,2,0.008694,10,0.000900785,-2.14866,0.300283,0.196482,54.4628,0.126847,
2,1,0,1,0,3137.29,0.128644,0.128355,7.1809,2,0.00887297,10,0.000921704,-2.14382,0.310367,0.190097,53.3099,0.128355,
2,1,0,1,0,3137.32,0.130145,0.12986,7.26276,2,0.00905395,10,0.000943143,-2.1389,0.340057,0.173501,49.1445,0.12986,
2,1,0,1,0,3137.34,0.131639,0.131328,7.34311,2,0.00923621,10,0.000964353,-2.13412,0.358792,0.164441,47.0177,0.131328,
2,1,0,1,0,3137.37,0.133139,0.132843,7.41163,2,0.00942103,10,0.000984579,-2.13009,0.367178,0.160685,46.4261,0.132843,
2,1,0,1,0,3137.39,0.134638,0.134353,7.46957,2,0.00960741,10,0.00100356,-2.1267,0.394526,0.149547,43.6384,0.134353,
2,1,0,1,0,3137.42,0.136132,0.135803,7.53968,2,0.00979474,10,0.00102391,-2.12265,0.427834,0.137904,40.5627,0.135803,
2,1,0,1,0,3137.44,0.137633,0.137295,7.60542,2,0.00998444,10,0.00104419,-2.11888,0.483152,0.122115,36.1826,0.137295,
2,1,0,1,0,3137.47,0.139133,0.138846,7.65735,2,0.0101756,10,0.00106319,-2.11592,0.526474,0.112066,33.4179,0.138846,
2,1,0,1,0,3137.49,0.140627,0.14034,7.69511,2,0.010367,10,0.00107993,-2.11379,0.660881,0.0892748,26.7835,0.14034,
2,1,0,1,0,3137.52,0.142126,0.141854,7.7261,2,0.0105603,10,0.00109597,-2.11204,0.949243,0.0621548,18.7146,0.141854,
2,1,0,1,0,3137.54,0.143626,0.14335,7.75719,2,0.0107543,10,0.001112,-2.1103,2.78188,0.0212087,6.40232,0.14335,
2,1,0,1,0,3137.57,0.145125,0.144804,7.75263,2,0.0109487,10,0.00112261,-2.11055,-2.24142,-0.0263226,-7.94273,0.144804,
2,1,0,1,0,3137.59,0.14662,0.146303,7.71882,2,0.0111418,10,0.00112929,-2.11245,-0.686765,-0.0859101,-25.839,0.146303,
2,1,0,1,0,3137.62,0.14812,0.147764,7.67238,2,0.0113348,10,0.0011337,-2.11507,-0.378582,-0.155845,-46.5182,0.147764,
2,1,0,1,0,3137.64,0.149621,0.149317,7.60733,2,0.0115262,10,0.0011359,-2.11877,-0.253684,-0.232573,-68.618,0.149317,
2,1,0,1,0,3137.67,0.151116,0.150801,7.48535,2,0.0117144,10,0.0011288,-2.12579,-0.191171,-0.308624,-89.6027,0.150801,
2,1,0,1,0,3137.69,0.152615,0.152312,7.31831,2,0.0118999,10,0.00111467,-2.13559,-0.146045,-0.403986,-114.864,0.152312,
2,1,0,1,0,3137.72,0.154115,0.153813,7.12172,2,0.0120809,10,0.00109542,-2.14741,-0.116854,-0.504904,-139.904,0.153813,
2,1,0,1,0,3137.74,0.155614,0.155326,6.90482,2,0.0122567,10,0.0010725,-2.16085,-0.0959572,-0.614858,-164.821,0.155326,
2,1,0,1,0,3137.77,0.157107,0.156844,6.64535,2,0.0124259,10,0.00104228,-2.17748,-0.0845687,-0.697658,-179.954,0.1568439,
2,1,0,1,0,3137.79,0.158608,0.158288,6.3533,2,0.0125888,10,0.00100565,-2.197,-0.0753996,-0.782498,-193.492,0.158288,
2,1,0,1,0,3137.82,0.160109,0.159799,6.05119,2,0.0127442,10,0.000966976,-2.21816,-0.0678902,-0.869051,-204.958,0.159799,
2,1,0,1,0,3137.84,0.161603,0.161359,5.75967,2,0.0128917,10,0.000929377,-2.2396,-0.0675596,-0.873303,-195.913,0.161359,
2,1,0,1,0,3137.87,0.163102,0.162819,5.46319,2,0.0130321,10,0.00088951,-2.26255,-0.0670256,-0.880261,-187.78,0.162819,
2,1,0,1,0,3137.89,0.164602,0.164301,5.18328,2,0.0131656,10,0.000851619,-2.2854,-0.0700887,-0.84179,-170.773,0.164301,
2,1,0,1,0,3137.92,0.166096,0.165801,4.92632,2,0.0132918,10,0.000816791,-2.30748,-0.0702809,-0.839489,-162.291,0.165801,
2,1,0,1,0,3137.94,0.167597,0.167306,4.71184,2,0.0134126,10,0.000788318,-2.32681,-0.0766992,-0.769239,-141.695,0.167306,
2,1,0,1,0,3137.97,0.169098,0.168795,4.51191,2,0.0135281,10,0.000761587,-2.34564,-0.0838082,-0.703988,-124.231,0.168795,
2,1,0,1,0,3137.99,0.170592,0.170273,4.33611,2,0.0136386,10,0.000738322,-2.3629,-0.091666,-0.643641,-109.133,0.170273,
2,1,0,1,0,3138.02,0.17209,0.171807,4.16516,2,0.0137452,10,0.000715603,-2.38037,-0.0957955,-0.615896,-100.696,0.171807,
2,1,0,1,0,3138.04,0.17359,0.173307,4.03517,2,0.0138481,10,0.000699324,-2.39414,-0.10523,-0.560675,-88.4596,0.173307,
2,1,0,1,0,3138.07,0.175089,0.174805,3.91294,2,0.0139477,10,0.000684003,-2.4075,-0.11773,-0.501145,-76.6606,0.174805,
2,1,0,1,0,3138.09,0.176583,0.176304,3.79595,2,0.0140441,10,0.000669241,-2.42068,-0.125447,-0.470317,-69.8401,0.176304,
2,1,0,1,0,3138.12,0.178084,0.177792,3.69242,2,0.0141382,10,0.000656484,-2.43269,-0.129365,-0.456075,-65.8457,0.177792,
2,1,0,1,0,3138.14,0.179585,0.17926,3.6085,2,0.0142297,10,0.000646859,-2.44267,-0.143287,-0.41176,-58.0482,0.17926,
2,1,0,1,0,3138.17,0.181079,0.180772,3.52404,2,0.0143188,10,0.000637048,-2.45296,-0.157315,-0.375044,-51.5973,0.180772,
2,1,0,1,0,3138.19,0.182579,0.182311,3.44344,2,0.0144064,10,0.000627776,-2.46301,-0.163992,-0.359773,-48.4567,0.182311,
2,1,0,1,0,3138.22,0.184078,0.183769,3.37629,2,0.0144921,10,0.000620458,-2.47156,-0.165017,-0.357539,-47.1839,0.183769,
2,1,0,1,0,3138.24,0.185578,0.185268,3.31097,2,0.014576,10,0.000613416,-2.48004,-0.177552,-0.332296,-43.0024,0.1852676,
2,1,0,1,0,3138.27,0.187072,0.186746,3.25746,2,0.0146581,10,0.000608316,-2.48712,-0.218441,-0.270096,-34.2565,0.186746,
2,1,0,1,0,3138.29,0.188573,0.188252,3.19859,2,0.0147392,10,0.000602141,-2.49504,-0.226191,-0.260841,-32.5917,0.188252,
2,1,0,1,0,3138.32,0.190072,0.189761,3.1464,2,0.0148189,10,0.000597064,-2.50219,-0.209521,-0.281594,-34.6205,0.189761,
2,1,0,1,0,3138.34,0.191567,0.191256,3.10249,2,0.0148971,10,0.00059337,-2.50829,-0.238704,-0.247168,-29.9247,0.191256,
2,1,0,1,0,3138.37,0.193066,0.192754,3.06455,2,0.0149745,10,0.000590704,-2.51363,-0.289705,-0.203655,-24.342,0.192754,
2,1,0,1,0,3138.39,0.194566,0.194241,3.02357,2,0.015051,10,0.000587302,-2.51948,-0.314154,-0.187806,-22.2025,0.194241,
2,1,0,1,0,3138.42,0.19606,0.195748,2.98569,2,0.0151264,10,0.000584442,-2.52496,-0.269508,-0.218917,-25.5759,0.195748,
2,1,0,1,0,3138.44,0.197561,0.197245,2.95328,2,0.015201,10,0.00058252,-2.5297,-0.295102,-0.199931,-23.0949,0.197245,
2,1,0,1,0,3138.47,0.199062,0.198793,2.92775,2,0.0152749,10,0.000582018,-2.53347,-0.357372,-0.165094,-18.8389,0.198793,
2,1,0,1,0,3138.49,0.200556,0.200233,2.89581,2,0.0153478,10,0.000579835,-2.53823,-0.465281,-0.126805,-14.339,0.2002326,
2,1,0,1,0,3138.52,0.202055,0.20179,2.86771,2,0.0154203,10,0.000578674,-2.54247,-0.339339,-0.173867,-19.5052,0.20179,
2,1,0,1,0,3138.54,0.203553,0.203243,2.85043,2,0.0154922,10,0.000579329,-2.54509,-0.375823,-0.156989,-17.4502,0.2032427,
2,1,0,1,0,3138.57,0.205053,0.204746,2.8208,2,0.0155634,10,0.000577548,-2.54963,-0.588324,-0.100285,-11.0888,0.204746,
2,1,0,1,0,3138.59,0.206547,0.206233,2.79728,2,0.0156339,10,0.000576892,-2.55326,-0.714969,-0.0825211,-9.04801,0.206233,
2,1,0,1,0,3138.62,0.208048,0.207719,2.78763,2,0.0157043,10,0.000579043,-2.55477,-0.448939,-0.131421,-14.2734,0.207719,
2,1,0,1,0,3138.64,0.209549,0.209253,2.7709,2,0.0157742,10,0.000579819,-2.55738,-0.338781,-0.174154,-18.8134,0.209253,
2,1,0,1,0,3138.67,0.211043,0.210753,2.75033,2,0.0158432,10,0.000579642,-2.56061,-0.508852,-0.115947,-12.431,0.210753,
2,1,0,1,0,3138.69,0.212543,0.212278,2.73177,2,0.0159121,10,0.000579894,-2.56356,-0.837445,-0.0704524,-7.51279,0.212278,
2,1,0,1,0,3138.72,0.214042,0.21372,2.71137,2,0.0159806,10,0.000579475,-2.56681,-0.54768,-0.107727,-11.4319,0.21372,
2,1,0,1,0,3138.74,0.215536,0.215238,2.70396,2,0.0160485,10,0.000581996,-2.568,-0.47585,-0.123989,-13.0736,0.215238,
2,1,0,1,0,3138.77,0.217036,0.216776,2.68705,2,0.0161162,10,0.000582487,-2.57072,-0.832164,-0.0708995,-7.42946,0.216776,
2,1,0,1,0,3138.79,0.218537,0.218272,2.67302,2,0.0161835,10,0.000583445,-2.573,-1.68696,-0.0349741,-3.6486,0.218272,
2,1,0,1,0,3138.82,0.220031,0.219759,2.66746,2,0.0162504,10,0.000586198,-2.5739,-0.852274,-0.0692265,-7.19558,0.219759,
2,1,0,1,0,3138.84,0.22153,0.221229,2.65384,2,0.0163174,10,0.000587105,-2.57613,-0.626884,-0.0941163,-9.73083,0.2212289,
2,1,0,1,0,3138.87,0.22303,0.222757,2.63541,2,0.0163839,10,0.000587057,-2.57915,-0.653185,-0.0903266,-9.29913,0.222757,
2,1,0,1,0,3138.89,0.224529,0.224187,2.624,2,0.0164501,10,0.000588268,-2.58104,-0.99259,-0.0594405,-6.11035,0.224187,
2,1,0,1,0,3138.92,0.226024,0.225772,2.61441,2,0.0165158,10,0.000590261,-2.58263,-0.923522,-0.0638859,-6.52975,0.225772,
2,1,0,1,0,3138.94,0.227525,0.227213,2.61409,2,0.0165816,10,0.000593954,-2.58268,-0.659059,-0.0895216,-9.09357,0.227213,
2,1,0,1,0,3138.97,0.229025,0.228769,2.60619,2,0.0166472,10,0.000596216,-2.58399,-0.929286,-0.0634896,-6.44557,0.228769,
2,1,0,1,0,3138.99,0.23052,0.230217,2.58303,2,0.0167121,10,0.000594659,-2.58787,-1.247,-0.0473135,-4.79367,0.230217,
2,1,0,1,0,3139.02,0.232019,0.231722,2.57928,2,0.0167772,10,0.000597675,-2.5885,-1.0929,-0.0539848,-5.44862,0.231722,
2,1,0,1,0,3139.04,0.233519,0.23322,2.58001,2,0.0168421,10,0.000601711,-2.58838,-0.968352,-0.0609283,-6.11328,0.23322,
2,1,0,1,0,3139.07,0.235018,0.23472,2.5686,2,0.0169068,10,0.0006029,-2.5903,-1.2681,-0.0465263,-4.6536,0.23472,
2,1,0,1,0,3139.09,0.236511,0.23621,2.5498,2,0.0169709,10,0.00060229,-2.59349,-1.87483,-0.0314695,-3.14742,0.23621,
2,1,0,1,0,3139.12,0.238012,0.237751,2.54804,2,0.0170351,10,0.000605799,-2.59379,-1.20339,-0.049028,-4.87632,0.237751,
2,1,0,1,0,3139.14,0.239513,0.23921,2.5478,2,0.0170992,10,0.000609461,-2.59383,-0.87329,-0.0675606,-6.70193,0.23921,
2,1,0,1,0,3139.17,0.241007,0.24072,2.53948,2,0.0171629,10,0.000611303,-2.59526,-1.29496,-0.0455612,-4.50478,0.2407199,
2,1,0,1,0,3139.19,0.242506,0.242176,2.52196,2,0.0172266,10,0.000610758,-2.59826,-1.59235,-0.0370522,-3.65732,0.242176,
2,1,0,1,0,3139.22,0.244006,0.243701,2.518,2,0.01729,10,0.000613639,-2.59894,-1.77114,-0.0333118,-3.28351,0.243701,
2,1,0,1,0,3139.24,0.2455,0.245179,2.5239,2,0.0173532,10,0.000618807,-2.59793,-1.65375,-0.0356765,-3.50304,0.245179,
2,1,0,1,0,3139.26,0.247001,0.246701,2.5199,2,0.0174165,10,0.000621663,-2.59862,-1.28672,-0.0458532,-4.48002,0.246701,
2,1,0,1,0,3139.29,0.248502,0.248214,2.49674,2,0.0174796,10,0.000619726,-2.60263,-1.33696,-0.0441301,-4.31055,0.248214,
2,1,0,1,0,3139.31,0.249995,0.249702,2.49056,2,0.0175422,10,0.000621898,-2.6037,-1.27249,-0.0463658,-4.52423,0.249702,
2,1,0,1,0,3139.34,0.251494,0.251198,2.48911,2,0.0176049,10,0.00062526,-2.60396,-1.38531,-0.0425899,-4.13883,0.251198,
2,1,0,1,0,3139.36,0.252994,0.252675,2.48894,2,0.0176676,10,0.000628893,-2.60399,-1.20492,-0.048966,-4.7424,0.252675,
2,1,0,1,0,3139.39,0.254493,0.254216,2.47649,2,0.0177301,10,0.000629563,-2.60616,-2.88648,-0.0204401,-1.98067,0.254216,
2,1,0,1,0,3139.41,0.255988,0.255687,2.459,2,0.017792,10,0.000628735,-2.60924,-1.24132,-0.0475302,-4.59765,0.255687,
2,1,0,1,0,3139.44,0.257488,0.257177,2.46545,2,0.0178542,10,0.000634058,-2.6081,-1.78472,-0.0330584,-3.18088,0.257177,
2,1,0,1,0,3139.46,0.258989,0.258722,2.4743,2,0.0179163,10,0.000640156,-2.60655,-1.78038,-0.033139,-3.1807,0.258722,
2,1,0,1,0,3139.49,0.260483,0.26025,2.45737,2,0.0179781,10,0.00063953,-2.60953,-1.41866,-0.0415885,-3.98838,0.26025,
2,1,0,1,0,3139.51,0.261983,0.261654,2.44239,2,0.0180398,10,0.000639062,-2.61218,-1.21522,-0.0485507,-4.6523,0.261654,
2,1,0,1,0,3139.54,0.263482,0.263195,2.44396,2,0.0181013,10,0.00064324,-2.61191,-2.20941,-0.0267039,-2.54695,0.263195,
2,1,0,1,0,3139.56,0.264982,0.26474,2.44634,2,0.0181628,10,0.000647646,-2.61148,-3.32816,-0.0177275,-1.68683,0.2647405,
2,1,0,1,0,3139.59,0.266476,0.266237,2.43472,2,0.018224,10,0.000648212,-2.61355,-3.95805,-0.0149063,-1.41643,0.266237,
2,1,0,1,0,3139.61,0.267976,0.267682,2.41658,2,0.0182852,10,0.000646876,-2.6168,-1.32252,-0.044612,-4.23284,0.267682,
2,1,0,1,0,3139.64,0.269477,0.269179,2.42471,2,0.0183462,10,0.000652681,-2.61534,-1.15596,-0.05104,-4.83098,0.269179,
2,1,0,1,0,3139.66,0.270971,0.270683,2.43693,2,0.0184069,10,0.000659637,-2.61316,-3.21335,-0.0183609,-1.72994,0.270683,
2,1,0,1,0,3139.69,0.27247,0.272173,2.41197,2,0.0184679,10,0.000656474,-2.61763,-2.29377,-0.0257218,-2.42015,0.272173,
2,1,0,1,0,3139.71,0.27397,0.273677,2.40027,2,0.0185286,10,0.000656897,-2.61974,-1.02914,-0.0573293,-5.40317,0.273677,
2,1,0,1,0,3139.74,0.275464,0.275213,2.39985,2,0.0185889,10,0.000660471,-2.61982,-0.966919,-0.0610185,-5.73818,0.275213,
2,1,0,1,0,3139.76,0.276965,0.276682,2.40197,2,0.0186493,10,0.000664582,-2.61943,-1.89558,-0.0311251,-2.91184,0.276682,
2,1,0,1,0,3139.79,0.278466,0.278135,2.3949,2,0.0187097,10,0.000666106,-2.62071,-1.64051,-0.0359645,-3.35926,0.278135,
2,1,0,1,0,3139.81,0.27996,0.279653,2.38501,2,0.0187697,10,0.000666977,-2.62251,-1.23473,-0.0477836,-4.4536,0.2796531,
2,1,0,1,0,3139.84,0.281458,0.281146,2.38609,2,0.0188296,10,0.00067084,-2.62231,-1.02536,-0.057541,-5.35533,0.281146,
2,1,0,1,0,3139.86,0.282958,0.28266,2.38093,2,0.0188896,10,0.000672994,-2.62325,-10.8785,-0.00542355,-0.502888,0.28266,
2,1,0,1,0,3139.89,0.284457,0.284185,2.37344,2,0.0189494,10,0.000674496,-2.62462,-7.15479,-0.00824622,-0.763897,0.284185,
2,1,0,1,0,3139.91,0.285951,0.285633,2.36365,2,0.0190089,10,0.000675136,-2.62642,-0.958735,-0.0615394,-5.69751,0.285633,
2,1,0,1,0,3139.94,0.287452,0.287165,2.35974,2,0.0190685,10,0.000677635,-2.62714,-1.12555,-0.052419,-4.83806,0.287165,
2,1,0,1,0,3139.96,0.288953,0.288655,2.36028,2,0.0191278,10,0.000681305,-2.62704,-7.68134,-0.00768095,-0.705758,0.288655,
2,1,0,1,0,3139.99,0.290447,0.29017,2.35765,2,0.019187,10,0.00068412,-2.62752,-19.2807,-0.00306005,-0.280716,0.29017,
2,1,0,1,0,3140.01,0.291947,0.29167,2.34407,2,0.0192462,10,0.000683694,-2.63003,-0.97748,-0.0603593,-5.52899,0.29167,
2,1,0,1,0,3140.04,0.293446,0.293116,2.33683,2,0.0193052,10,0.000684961,-2.63137,-0.971853,-0.0607087,-5.54894,0.293116,
2,1,0,1,0,3140.06,0.29494,0.294678,2.34167,2,0.0193638,10,0.000690038,-2.63047,-3.19,-0.0184953,-1.68728,0.294678,
2,1,0,1,0,3140.09,0.29644,0.296193,2.33444,2,0.0194226,10,0.000691446,-2.63182,-461.174,-0.000127934,-0.011636,0.296193,
2,1,0,1,0,3140.11,0.297941,0.297631,2.32563,2,0.0194814,10,0.000692179,-2.63346,-1.16171,-0.0507873,-4.61808,0.297631,
2,1,0,1,0,3140.14,0.29944,0.299177,2.32434,2,0.0195399,10,0.00069539,-2.6337,-0.00413268,-14.2764,-832.643,0.299177,
2,1,0,1,0,3140.15,0.299736,0.299471,1.67721,2,0.0195693,10,0.000502278,-2.77541,0.00112245,52.5637,2027.47,0.299471,
2,1,0,1,0,3140.18,0.298238,0.297988,0.0411604,2,0.0195862,10,1.22653e-05,-4.38552,0.0059342,9.94237,763.261,0.297988,
2,0,0,1,0,3140.2,0.296744,0.29646,-0.446621,2,0.0195796,10,-0.000132405,-3.35006,-0.0148587,-3.97075,269.764,0.29646,
2,0,0,1,0,3140.23,0.295243,0.294918,-0.655353,2,0.0195651,10,-0.000193276,-3.18352,-0.011072,-5.32877,110.474,0.2949183,
2,0,0,1,0,3140.25,0.293742,0.293426,-0.76514,2,0.0195468,10,-0.000224512,-3.11626,-0.0263788,-2.23665,62.6584,0.293426,
2,0,0,1,0,3140.28,0.292248,0.291923,-0.834002,2,0.0195265,10,-0.000243465,-3.07883,-0.0400106,-1.47461,46.6356,0.2919234,
2,0,0,1,0,3140.3,0.290748,0.290424,-0.88846,2,0.0195045,10,-0.00025803,-3.05136,-0.0539442,-1.09372,37.7945,0.290424,
2,0,0,1,0,3140.33,0.289249,0.288958,-0.939738,2,0.0194811,10,-0.000271545,-3.02699,-0.0684467,-0.861985,31.5987,0.288958,
2,0,0,1,0,3140.35,0.287754,0.28743,-0.992927,2,0.0194566,10,-0.000285396,-3.00308,-0.0820663,-0.718931,27.5695,0.28743,
2,0,0,1,0,3140.38,0.286254,0.285951,-1.0274,2,0.0194309,10,-0.000293786,-2.98826,-0.0909353,-0.648813,25.9408,0.285951,
2,0,0,1,0,3140.4,0.284754,0.284436,-1.06104,2,0.0194044,10,-0.000301799,-2.97427,-0.0958532,-0.615525,25.4758,0.284436,
2,0,0,1,0,3140.43,0.28326,0.282942,-1.10407,2,0.019377,10,-0.000312388,-2.957,-0.113441,-0.520096,22.2816,0.282942,
2,0,0,1,0,3140.45,0.28176,0.281477,-1.14117,2,0.0193486,10,-0.000321212,-2.94265,-0.127145,-0.464037,20.3817,0.281477,
2,0,0,1,0,3140.48,0.280261,0.279952,-1.15666,2,0.0193195,10,-0.000323811,-2.93679,-0.122519,-0.481556,21.7504,0.279952,
2,0,0,1,0,3140.5,0.278761,0.278466,-1.18237,2,0.0192897,10,-0.00032925,-2.92725,-0.155138,-0.380307,17.6982,0.278466,
2,0,0,1,0,3140.53,0.277267,0.276988,-1.21419,2,0.0192593,10,-0.000336317,-2.91571,-0.164791,-0.358029,16.9704,0.276988,
2,0,0,1,0,3140.55,0.275766,0.275476,-1.24316,2,0.0192282,10,-0.000342461,-2.90547,-0.21478,-0.2747,13.2358,0.2754761,
2,0,0,1,0,3140.58,0.274265,0.273975,-1.26756,2,0.0191963,10,-0.00034728,-2.89703,-0.158161,-0.373037,18.3569,0.273975,
2,0,0,1,0,3140.6,0.272771,0.272446,-1.28357,2,0.0191642,10,-0.000349703,-2.89158,-0.195127,-0.302367,15.2343,0.272446,
2,0,0,1,0,3140.63,0.271272,0.270961,-1.30462,2,0.0191314,10,-0.000353501,-2.88452,-0.203031,-0.290596,14.8055,0.2709609,
2,0,0,1,0,3140.65,0.269772,0.269476,-1.33956,2,0.0190979,10,-0.000360978,-2.87304,-0.217786,-0.270908,14.0161,0.269476,
2,0,0,1,0,3140.68,0.268273,0.267947,-1.35719,2,0.0190638,10,-0.000363656,-2.86736,-0.235512,-0.250518,13.2223,0.2679469,
2,0,0,1,0,3140.7,0.26678,0.266445,-1.36588,2,0.0190295,10,-0.000363933,-2.86459,-0.23026,-0.256232,13.7305,0.266445,
2,0,0,1,0,3140.73,0.265279,0.264975,-1.39017,2,0.0189946,10,-0.000368361,-2.85693,-0.266814,-0.221128,11.9731,0.264975,
2,0,0,1,0,3140.75,0.263778,0.263503,-1.41545,2,0.0189592,10,-0.000372975,-2.84911,-0.272634,-0.216407,11.8523,0.2635031,
2,0,0,1,0,3140.78,0.262284,0.261986,-1.43146,2,0.0189235,10,-0.000375022,-2.84422,-0.242314,-0.243486,13.501,0.261986,
2,0,0,1,0,3140.8,0.260784,0.26052,-1.43514,2,0.0188872,10,-0.000373882,-2.84311,-0.26801,-0.220141,12.4226,0.26052,
2,0,0,1,0,3140.83,0.259285,0.259011,-1.45443,2,0.0188505,10,-0.000376715,-2.83731,-0.288274,-0.204667,11.6713,0.259011,
2,0,0,1,0,3140.85,0.257791,0.257503,-1.48276,2,0.0188135,10,-0.000381817,-2.82893,-0.318018,-0.185524,10.686,0.257503,
2,0,0,1,0,3140.88,0.25629,0.255952,-1.49848,2,0.0187758,10,-0.00038354,-2.82435,-0.342339,-0.172344,10.0144,0.2559523,
2,0,0,1,0,3140.9,0.254789,0.254501,-1.50724,2,0.0187378,10,-0.000383593,-2.82182,-0.428027,-0.137842,8.11487,0.254501,
2,0,0,1,0,3140.93,0.253296,0.253066,-1.52153,2,0.0186997,10,-0.000385047,-2.81772,-0.347403,-0.169832,10.1121,0.253066,
2,0,0,1,0,3140.95,0.251797,0.251502,-1.5445,2,0.0186609,10,-0.000388445,-2.81121,-0.346427,-0.17031,10.2254,0.251502,
2,0,0,1,0,3140.98,0.250297,0.250044,-1.55571,2,0.0186217,10,-0.000388994,-2.80807,-0.314171,-0.187796,11.3755,0.250044,
2,0,0,1,0,3141,0.248797,0.248476,-1.56712,2,0.0185822,10,-0.000389392,-2.8049,-0.343587,-0.171718,10.5543,0.248476,
2,0,0,1,0,3141.03,0.247303,0.246989,-1.58259,2,0.0185425,10,-0.000390882,-2.80063,-0.410295,-0.143799,8.91846,0.246989,
2,0,0,1,0,3141.05,0.245802,0.245507,-1.60345,2,0.0185022,10,-0.000393658,-2.79495,-0.354482,-0.16644,10.3835,0.245507,
2,0,0,1,0,3141.08,0.244302,0.244028,-1.61978,2,0.0184615,10,-0.000395272,-2.79054,-0.323356,-0.182461,11.4786,0.244028,
2,0,0,1,0,3141.1,0.242807,0.242489,-1.6311,2,0.0184206,10,-0.000395523,-2.78752,-0.454471,-0.129821,8.27969,0.242489,
2,0,0,1,0,3141.13,0.241308,0.240984,-1.63987,2,0.0183793,10,-0.000395183,-2.78519,-0.486042,-0.121389,7.80318,0.240984,
2,0,0,1,0,3141.15,0.239808,0.23949,-1.65693,2,0.0183376,10,-0.000396817,-2.7807,-0.357294,-0.16513,10.6591,0.23949,
2,0,0,1,0,3141.18,0.238309,0.237999,-1.67564,2,0.0182955,10,-0.000398802,-2.77582,-0.3475,-0.169784,11.0812,0.237999,
2,0,0,1,0,3141.2,0.236815,0.236494,-1.68302,2,0.0182532,10,-0.000398024,-2.77391,-0.441414,-0.133661,8.77955,0.236494,
2,0,0,1,0,3141.23,0.235315,0.234994,-1.6934,2,0.0182105,10,-0.00039794,-2.77124,-0.482722,-0.122224,8.1121,0.234994,
2,0,0,1,0,3141.25,0.233814,0.233492,-1.71701,2,0.0181674,10,-0.000400908,-2.76523,-0.443382,-0.133068,8.89101,0.233492,
2,0,0,1,0,3141.28,0.23232,0.231997,-1.73964,2,0.0181241,10,-0.000403592,-2.75954,-0.370002,-0.159459,10.7286,0.231997,
2,0,0,1,0,3141.3,0.230821,0.230533,-1.74112,2,0.0180802,10,-0.000401385,-2.75917,-0.475747,-0.124016,8.42735,0.230533,
2,0,0,1,0,3141.33,0.229321,0.22902,-1.75018,2,0.018036,10,-0.000400826,-2.75692,-0.554961,-0.106314,7.30399,0.22902,
2,0,0,1,0,3141.35,0.227827,0.227524,-1.77076,2,0.0179918,10,-0.00040289,-2.75184,-0.712346,-0.0828249,5.72192,0.227524,
2,0,0,1,0,3141.38,0.226326,0.226025,-1.78718,2,0.017947,10,-0.000403948,-2.74783,-0.360345,-0.163732,11.3815,0.226025,
2,0,0,1,0,3141.4,0.224825,0.224494,-1.80094,2,0.0179017,10,-0.0004043,-2.7445,-0.408467,-0.144442,10.1126,0.224494,
2,0,0,1,0,3141.43,0.223331,0.22301,-1.81039,2,0.0178564,10,-0.000403735,-2.74223,-0.492589,-0.119775,8.47711,0.22301,
2,0,0,1,0,3141.45,0.221831,0.2215,-1.8284,2,0.0178106,10,-0.000404991,-2.73793,-0.565121,-0.104402,7.41976,0.2215,
2,0,0,1,0,3141.48,0.220333,0.220036,-1.83696,2,0.0177643,10,-0.000404198,-2.7359,-0.31802,-0.185523,13.2806,0.220036,
2,0,0,1,0,3141.5,0.218834,0.21856,-1.84912,2,0.0177177,10,-0.000404144,-2.73303,-0.363369,-0.162369,11.7685,0.21856,
2,0,0,1,0,3141.53,0.217339,0.217009,-1.86735,2,0.0176709,10,-0.000405231,-2.72877,-0.912089,-0.0646867,4.72093,0.217009,
2,0,0,1,0,3141.55,0.215839,0.215541,-1.87933,2,0.0176237,10,-0.000405072,-2.726,-0.678655,-0.0869367,6.37494,0.215541,
2,0,0,1,0,3141.58,0.214338,0.214006,-1.90258,2,0.0175761,10,-0.000407163,-2.72066,-0.322534,-0.182927,13.4817,0.214006,
2,0,0,1,0,3141.6,0.212844,0.212515,-1.90392,2,0.0175282,10,-0.000404612,-2.72035,-0.340402,-0.173325,12.9272,0.212515,
2,0,0,1,0,3141.63,0.211344,0.211029,-1.92493,2,0.0174799,10,-0.000406216,-2.71559,-0.647644,-0.0910994,6.84614,0.211029,
2,0,0,1,0,3141.65,0.209845,0.209561,-1.93775,2,0.0174311,10,-0.000406077,-2.7127,-0.610783,-0.0965973,7.30048,0.2095606,
2,0,0,1,0,3141.68,0.20835,0.20807,-1.96097,2,0.0173822,10,-0.000408019,-2.70753,-0.312611,-0.188733,14.4499,0.20807,
2,0,0,1,0,3141.7,0.206851,0.206509,-1.97951,2,0.0173326,10,-0.000408787,-2.70344,-0.343798,-0.171612,13.23,0.206509,
2,0,0,1,0,3141.73,0.20535,0.204992,-1.99143,2,0.0172825,10,-0.000408226,-2.70084,-0.651255,-0.0905943,7.02976,0.204992,
2,0,0,1,0,3141.75,0.203856,0.203507,-2.00579,2,0.0172322,10,-0.000408192,-2.69772,-0.704351,-0.0837651,6.55565,0.203507,
2,0,0,1,0,3141.78,0.202356,0.202062,-2.01964,2,0.0171816,10,-0.000408092,-2.69473,-0.406552,-0.145123,11.4642,0.202062,
2,0,0,1,0,3141.8,0.200857,0.200552,-2.0338,2,0.0171304,10,-0.000407884,-2.69169,-0.286636,-0.205836,16.3735,0.200552,
2,0,0,1,0,3141.83,0.199357,0.199032,-2.05046,2,0.0170787,10,-0.000408108,-2.68815,-0.449622,-0.131221,10.5474,0.199032,
2,0,0,1,0,3141.85,0.197863,0.197582,-2.08432,2,0.0170267,10,-0.000411825,-2.68103,-0.477138,-0.123654,10.0108,0.197582,
2,0,0,1,0,3141.88,0.196362,0.19606,-2.09898,2,0.0169742,10,-0.000411525,-2.67799,-0.361269,-0.163313,13.3411,0.19606,
2,0,0,1,0,3141.9,0.194861,0.194534,-2.11607,2,0.0169211,10,-0.000411646,-2.67447,-0.276744,-0.213194,17.5844,0.194534,
2,0,0,1,0,3141.93,0.193367,0.193013,-2.14223,2,0.0168677,10,-0.000413478,-2.66913,-0.353777,-0.166772,13.9504,0.193013,
2,0,0,1,0,3141.95,0.191868,0.191538,-2.16359,2,0.0168135,10,-0.00041441,-2.66482,-0.40646,-0.145156,12.2415,0.191538,
2,0,0,1,0,3141.98,0.190368,0.190048,-2.18419,2,0.0167588,10,-0.000415101,-2.66071,-0.282321,-0.208982,17.7864,0.190048,
2,0,0,1,0,3142,0.18887,0.188561,-2.19998,2,0.0167035,10,-0.00041483,-2.65758,-0.280363,-0.210441,18.1277,0.188561,
2,0,0,1,0,3142.03,0.187376,0.187051,-2.22936,2,0.0166479,10,-0.000417004,-2.65182,-0.294912,-0.20006,17.4058,0.187051,
2,0,0,1,0,3142.05,0.185875,0.185562,-2.26047,2,0.0165913,10,-0.000419457,-2.6458,-0.346296,-0.170374,14.9772,0.185562,
2,0,0,1,0,3142.08,0.184374,0.18408,-2.28281,2,0.0165341,10,-0.000420219,-2.64153,-0.26557,-0.222163,19.7635,0.18408,
2,0,0,1,0,3142.1,0.18288,0.182605,-2.31216,2,0.0164765,10,-0.000422211,-2.63598,-0.256759,-0.229788,20.7927,0.182605,
2,0,0,1,0,3142.13,0.18138,0.1811,-2.34083,2,0.0164179,10,-0.000423926,-2.63063,-0.269122,-0.219231,20.0875,0.1811,
2,0,0,1,0,3142.15,0.179881,0.179545,-2.3775,2,0.0163584,10,-0.000426868,-2.62388,-0.296009,-0.199318,18.5018,0.179545,
2,0,0,1,0,3142.18,0.178387,0.178049,-2.4166,2,0.0162984,10,-0.000430273,-2.6168,-0.236329,-0.249652,23.5063,0.178049,
2,0,0,1,0,3142.2,0.176886,0.176548,-2.44595,2,0.0162373,10,-0.000431827,-2.61155,-0.204439,-0.288595,27.6097,0.176548,
2,0,0,1,0,3142.23,0.175385,0.175015,-2.48442,2,0.0161752,10,-0.000434809,-2.60478,-0.209026,-0.282261,27.4317,0.175015,
2,0,0,1,0,3142.25,0.173892,0.173594,-2.53141,2,0.0161123,10,-0.000439437,-2.59664,-0.205912,-0.28653,28.2874,0.173594,
2,0,0,1,0,3142.28,0.172392,0.172053,-2.58118,2,0.016048,10,-0.0004441,-2.58818,-0.190558,-0.309616,31.085,0.172053,
2,0,0,1,0,3142.3,0.170893,0.170586,-2.61713,2,0.0159827,10,-0.000446446,-2.58217,-0.163212,-0.361493,37.0893,0.170586,
2,0,0,1,0,3142.33,0.169393,0.169094,-2.66893,2,0.0159161,10,-0.0004513,-2.57366,-0.157764,-0.373977,39.1344,0.1690937,
2,0,0,1,0,3142.35,0.167899,0.167587,-2.73848,2,0.0158482,10,-0.000458933,-2.56249,-0.162099,-0.363975,38.8861,0.167587,
2,0,0,1,0,3142.37,0.166398,0.166116,-2.80204,2,0.0157786,10,-0.000465465,-2.55253,-0.161084,-0.366268,40.0115,0.166116,
2,0,0,1,0,3142.4,0.164898,0.164568,-2.85638,2,0.0157074,10,-0.000470069,-2.54418,-0.137387,-0.429444,48.0695,0.164568,
2,0,0,1,0,3142.42,0.163403,0.163107,-2.93332,2,0.0156348,10,-0.000478445,-2.53264,-0.131873,-0.4474,51.4066,0.163107,
2,0,0,1,0,3142.45,0.161904,0.161611,-3.01766,2,0.01556,10,-0.000487689,-2.52033,-0.128919,-0.457653,53.926,0.161611,
2,0,0,1,0,3142.47,0.160404,0.160062,-3.10693,2,0.015483,10,-0.0004973,-2.50767,-0.117992,-0.500033,60.5506,0.160062,
2,0,0,1,0,3142.5,0.158905,0.158624,-3.19325,2,0.0154038,10,-0.000506526,-2.49577,-0.108381,-0.544378,68.1314,0.158624,
2,0,0,1,0,3142.52,0.157411,0.157058,-3.3011,2,0.0153225,10,-0.000518463,-2.48134,-0.10343,-0.570434,73.8156,0.157058,
2,0,0,1,0,3142.55,0.155911,0.155586,-3.41871,2,0.015238,10,-0.000531903,-2.46614,-0.0981112,-0.601358,80.3432,0.1555859,
2,0,0,1,0,3142.57,0.15441,0.154104,-3.55377,2,0.0151505,10,-0.00054765,-2.44931,-0.0942153,-0.626225,86.6307,0.154104,
2,0,0,1,0,3142.6,0.152916,0.152596,-3.68364,2,0.01506,10,-0.000562108,-2.43372,-0.08839,-0.667497,96.1041,0.1525958,
2,0,0,1,0,3142.62,0.151417,0.151121,-3.82298,2,0.0149658,10,-0.000577731,-2.4176,-0.0868884,-0.679032,101.742,0.151121,
2,0,0,1,0,3142.65,0.149917,0.149553,-3.99241,2,0.0148676,10,-0.000597075,-2.39877,-0.0822256,-0.717538,111.919,0.149553,
2,0,0,1,0,3142.67,0.148423,0.148117,-4.17903,2,0.0147656,10,-0.000618985,-2.37892,-0.0796222,-0.741,120.525,0.148117,
2,0,0,1,0,3142.7,0.146922,0.146589,-4.35086,2,0.0146587,10,-0.000637787,-2.36142,-0.0765314,-0.770926,131.083,0.146589,
2,0,0,1,0,3142.72,0.145421,0.14509,-4.54248,2,0.0145471,10,-0.000659067,-2.34271,-0.0777925,-0.758428,134.792,0.14509,
2,0,0,1,0,3142.75,0.143927,0.14363,-4.7547,2,0.0144308,10,-0.000682917,-2.32288,-0.0771002,-0.765238,142.015,0.14363,
2,0,0,1,0,3142.77,0.142429,0.142099,-4.97754,2,0.0143087,10,-0.000707304,-2.30299,-0.0773924,-0.762349,147.872,0.142099,
2,0,0,1,0,3142.8,0.140929,0.14061,-5.19961,2,0.014181,10,-0.000731116,-2.28403,-0.080556,-0.73241,148.403,0.14061,
2,0,0,1,0,3142.82,0.13943,0.139171,-5.40443,2,0.0140479,10,-0.00075214,-2.26725,-0.0835427,-0.706226,149.277,0.139171,
2,0,0,1,0,3142.85,0.137935,0.137644,-5.64384,2,0.0139098,10,-0.000776839,-2.24843,-0.0879097,-0.671144,147.718,0.137644,
2,0,0,1,0,3142.87,0.136435,0.136126,-5.87417,2,0.0137654,10,-0.000799628,-2.23105,-0.0912854,-0.646325,147.492,0.136126,
2,0,0,1,0,3142.9,0.134934,0.134594,-6.08319,2,0.0136154,10,-0.000818761,-2.21587,-0.0980788,-0.601557,142.652,0.134594,
2,0,0,1,0,3142.92,0.13344,0.133135,-6.29421,2,0.0134609,10,-0.00083798,-2.20106,-0.104462,-0.564801,138.671,0.133135,
2,0,0,1,0,3142.95,0.13194,0.131622,-6.50215,2,0.0133004,10,-0.000855828,-2.18694,-0.114107,-0.517059,131.135,0.1316222,
2,0,0,1,0,3142.97,0.13044,0.130121,-6.70668,2,0.0131349,10,-0.000872682,-2.17349,-0.121897,-0.484014,126.251,0.130121,
2,0,0,1,0,3143,0.128941,0.128629,-6.88738,2,0.0129645,10,-0.000885916,-2.16195,-0.132676,-0.444694,119.263,0.128629,
2,0,0,1,0,3143.02,0.127447,0.127088,-7.05305,2,0.0127904,10,-0.00089636,-2.15162,-0.153878,-0.383421,105.315,0.127088,
2,0,0,1,0,3143.05,0.125946,0.12561,-7.20221,2,0.0126117,10,-0.000904666,-2.14253,-0.175143,-0.336869,94.5008,0.12561,
2,0,0,1,0,3143.07,0.124446,0.124134,-7.34672,2,0.0124294,10,-0.000911975,-2.13391,-0.195625,-0.301597,86.1418,0.124134,
2,0,0,1,0,3143.1,0.122952,0.12262,-7.46439,2,0.0122447,10,-0.000915285,-2.12701,-0.216806,-0.272132,79.0468,0.1226202,
2,0,0,1,0,3143.12,0.121453,0.121167,-7.5582,2,0.0120564,10,-0.000915808,-2.12158,-0.275566,-0.214105,63.1181,0.1211675,
2,0,0,1,0,3143.15,0.119953,0.11968,-7.64481,2,0.0118657,10,-0.000914929,-2.11663,-0.35216,-0.167538,49.95,0.11968,
2,0,0,1,0,3143.17,0.118459,0.118168,-7.72681,2,0.0116739,10,-0.00091306,-2.112,-0.392041,-0.150495,45.29,0.118168,
2,0,0,1,0,3143.2,0.116958,0.116642,-7.79098,2,0.0114795,10,-0.000908754,-2.10841,-0.462421,-0.127589,38.6901,0.116642,
2,0,0,1,0,3143.22,0.115457,0.115115,-7.83053,2,0.0112837,10,-0.00090141,-2.10621,-0.852401,-0.0692162,21.1104,0.115115,
2,0,0,1,0,3143.25,0.113963,0.113642,-7.85412,2,0.0110879,10,-0.000892555,-2.1049,-2.09866,-0.0281132,8.60712,0.113642,
2,0,0,1,0,3143.27,0.112464,0.112159,-7.86842,2,0.010891,10,-0.000882514,-2.10411,-4.21355,-0.0140024,4.29213,0.112159,
2,0,0,1,0,3143.3,0.110965,0.110621,-7.86826,2,0.0106938,10,-0.000870394,-2.10412,7.61163,0.0077513,-2.37616,0.110621,
2,0,0,1,0,3143.32,0.109466,0.109138,-7.84137,2,0.0104968,10,-0.000855792,-2.10561,1.12199,0.0525853,-16.0978,0.109138,
2,0,0,1,0,3143.35,0.107972,0.10772,-7.82097,2,0.0103012,10,-0.000842475,-2.10674,0.683335,0.0863412,-26.327,0.10772,
2,0,0,1,0,3143.37,0.106471,0.106157,-7.78253,2,0.0101058,10,-0.000826173,-2.10888,0.602947,0.0978528,-29.6951,0.106157,
2,0,0,1,0,3143.4,0.10497,0.104645,-7.73506,2,0.00991141,10,-0.000809438,-2.11154,0.515986,0.114344,-34.4443,0.104645,
2,0,0,1,0,3143.42,0.103476,0.10312,-7.67164,2,0.00971912,10,-0.000791097,-2.11511,0.394858,0.149421,-44.6806,0.10312,
2,0,0,1,0,3143.45,0.101976,0.101633,-7.60236,2,0.00952777,10,-0.00077265,-2.11905,0.321987,0.183237,-54.2808,0.101633,
2,0,0,1,0,3143.47,0.100477,0.100113,-7.51355,2,0.00933845,10,-0.000752205,-2.12415,0.302453,0.195072,-57.141,0.100113,
2,0,0,1,0,3143.5,0.0989825,0.0986989,-7.41892,2,0.00915205,10,-0.00073224,-2.12966,0.278421,0.211909,-61.3013,0.0986989,
2,0,0,1,0,3143.52,0.0974817,0.0971938,-7.32077,2,0.00896723,10,-0.000711533,-2.13544,0.256748,0.229797,-65.7025,0.0971938,
2,0,0,1,0,3143.55,0.0959822,0.0956573,-7.22346,2,0.00878492,10,-0.000690976,-2.14125,0.23094,0.255477,-71.9436,0.0956573,
2,0,0,1,0,3143.57,0.094488,0.094176,-7.11992,2,0.00860591,10,-0.000670525,-2.14753,0.229326,0.257276,-71.4282,0.094176,
2,0,0,1,0,3143.6,0.0929884,0.0927001,-7.00749,2,0.00842895,10,-0.000649595,-2.15444,0.238132,0.247762,-67.7706,0.0927001,
2,0,0,1,0,3143.62,0.0914889,0.0911697,-6.90073,2,0.0082546,10,-0.000629138,-2.1611,0.233478,0.2527,-68.1084,0.0911697,
2,0,0,1,0,3143.65,0.0899894,0.0896639,-6.79691,2,0.00808285,10,-0.000609437,-2.16769,0.211956,0.278359,-73.85,0.0896639,
2,0,0,1,0,3143.67,0.0884951,0.0881703,-6.69754,2,0.00791437,10,-0.000590524,-2.17408,0.22527,0.261908,-68.4417,0.0881703,
2,0,0,1,0,3143.7,0.0869943,0.0866852,-6.60108,2,0.00774782,10,-0.000572216,-2.18039,0.245805,0.240028,-61.8789,0.0866852,
2,0,0,1,0,3143.72,0.0854935,0.0851874,-6.50082,2,0.0075836,10,-0.000553788,-2.18703,0.253808,0.232459,-59.0808,0.0851874,
2,0,0,1,0,3143.75,0.0839993,0.0836989,-6.42235,2,0.0074222,10,-0.000537544,-2.19231,0.248362,0.237556,-59.5336,0.0836989,
2,0,0,1,0,3143.77,0.0824998,0.0822085,-6.34864,2,0.00726224,10,-0.000521912,-2.19732,0.272817,0.216262,-53.5623,0.0822085,
2,0,0,1,0,3143.8,0.0810002,0.0806593,-6.26549,2,0.00710433,10,-0.00050537,-2.20304,0.317894,0.185596,-45.431,0.0806593,
2,0,0,1,0,3143.82,0.0795007,0.0791764,-6.19053,2,0.00694815,10,-0.000490144,-2.20827,0.339496,0.173787,-42.0724,0.0791764,
2,0,0,1,0,3143.85,0.0780078,0.0777066,-6.13264,2,0.00679415,10,-0.000476547,-2.21235,0.338088,0.174511,-41.8245,0.0777066,
2,0,0,1,0,3143.87,0.076507,0.0761746,-6.08018,2,0.00664103,10,-0.000463155,-2.21608,0.351598,0.167805,-39.7986,0.0761746,
2,0,0,1,0,3143.9,0.0750062,0.0747014,-6.01573,2,0.00648945,10,-0.000449383,-2.22071,0.382634,0.154194,-36.2423,0.0747014,
2,0,0,1,0,3143.92,0.073512,0.073181,-5.96964,2,0.00633984,10,-0.000436864,-2.22405,0.440487,0.133943,-31.2082,0.073181,
2,0,0,1,0,3143.95,0.0720124,0.0717154,-5.921,2,0.00619078,10,-0.000424627,-2.22761,0.427049,0.138157,-31.939,0.0717154,
2,0,0,1,0,3143.97,0.0705129,0.070201,-5.87775,2,0.00604287,10,-0.000412624,-2.23079,0.41264,0.142982,-32.7746,0.070201,
2,0,0,1,0,3144,0.0690187,0.0686901,-5.8272,2,0.0058967,10,-0.000400272,-2.23454,0.469793,0.125587,-28.5836,0.0686901,
2,0,0,1,0,3144.02,0.0675179,0.0672099,-5.78282,2,0.0057511,10,-0.000388663,-2.23786,0.523894,0.112618,-25.46,0.06720987,
2,0,0,1,0,3144.05,0.066017,0.0657369,-5.75169,2,0.0056065,10,-0.000378098,-2.2402,0.479274,0.123103,-27.6152,0.06573689,
2,0,0,1,0,3144.07,0.0645242,0.064244,-5.71185,2,0.00546332,10,-0.000366952,-2.24322,0.470749,0.125332,-27.8751,0.064244,
2,0,0,1,0,3144.1,0.0630246,0.0627074,-5.6653,2,0.00532068,10,-0.000355256,-2.24678,0.463798,0.127211,-28.1415,0.0627074,
2,0,0,1,0,3144.12,0.0615251,0.0611854,-5.61432,2,0.00517923,10,-0.000343514,-2.2507,0.479002,0.123173,-27.0585,0.0611854,
2,0,0,1,0,3144.15,0.0600256,0.0597192,-5.57747,2,0.00503877,10,-0.000333082,-2.25356,0.437601,0.134826,-29.3767,0.0597192,
2,0,0,1,0,3144.17,0.0585314,0.0582082,-5.54725,2,0.00489983,10,-0.000322895,-2.25592,0.439928,0.134113,-28.9639,0.0582082,
2,0,0,1,0,3144.2,0.0570305,0.0566862,-5.5024,2,0.00476139,10,-0.00031191,-2.25945,0.448497,0.13155,-28.1998,0.05668623,
2,0,0,1,0,3144.22,0.0555297,0.0551979,-5.44912,2,0.00462415,10,-0.00030078,-2.26367,0.45084,0.130867,-27.8774,0.0551979,
2,0,0,1,0,3144.25,0.0540355,0.0537238,-5.40723,2,0.00448853,10,-0.000290497,-2.26702,0.440939,0.133806,-28.2382,0.05372376,
2,0,0,1,0,3144.27,0.052536,0.052205,-5.37593,2,0.00435334,10,-0.000280651,-2.26955,0.418659,0.140926,-29.4869,0.052205,
2,0,0,1,0,3144.3,0.0510364,0.050748,-5.32409,2,0.00421923,10,-0.000270186,-2.27375,0.387335,0.152323,-31.6087,0.05074795,
2,0,0,1,0,3144.32,0.0495369,0.0491998,-5.2614,2,0.00408643,10,-0.00025886,-2.2789,0.389925,0.151311,-31.1421,0.0491998,
2,0,0,1,0,3144.35,0.0480427,0.0476979,-5.21937,2,0.00395544,10,-0.000248953,-2.28238,0.349797,0.168669,-34.3462,0.0476979,
2,0,0,1,0,3144.37,0.0465432,0.0462126,-5.17182,2,0.0038251,10,-0.000239003,-2.28636,0.337593,0.174767,-35.2356,0.0462126,
2,0,0,1,0,3144.4,0.0450424,0.0447504,-5.12148,2,0.00369605,10,-0.000229188,-2.2906,0.331821,0.177807,-35.4764,0.0447504,
2,0,0,1,0,3144.42,0.0435482,0.0432306,-5.05279,2,0.00356893,10,-0.000218435,-2.29647,0.320575,0.184044,-36.3392,0.0432306,
2,0,0,1,0,3144.45,0.0420486,0.0417653,-5.0017,2,0.00344279,10,-0.000208898,-2.30088,0.291732,0.202241,-39.4952,0.0417653,
2,0,0,1,0,3144.47,0.0405491,0.0401968,-4.95703,2,0.003318,10,-0.000199257,-2.30478,0.302907,0.194779,-37.5629,0.0401968,
2,0,0,1,0,3144.5,0.0390549,0.03871,-4.89454,2,0.00319503,10,-0.000189468,-2.31029,0.289864,0.203543,-38.7864,0.03871,
2,0,0,1,0,3144.52,0.0375541,0.0372428,-4.82258,2,0.00307309,10,-0.000179606,-2.31672,0.271988,0.216921,-40.8956,0.0372428,
2,0,0,1,0,3144.55,0.0360532,0.0357417,-4.75826,2,0.00295285,10,-0.000170068,-2.32255,0.255621,0.23081,-42.9659,0.0357417,
2,0,0,1,0,3144.57,0.034559,0.0342317,-4.71329,2,0.00283448,10,-0.000161344,-2.32668,0.274243,0.215138,-39.484,0.0342317,
2,0,0,1,0,3144.6,0.0330595,0.0327213,-4.65328,2,0.0027171,10,-0.000152261,-2.33224,0.281275,0.209759,-38.0193,0.03272127,
2,0,0,1,0,3144.62,0.0315613,0.0312451,-4.58389,2,0.00260119,10,-0.000143224,-2.33877,0.272828,0.216254,-38.7368,0.0312451,
2,0,0,1,0,3144.65,0.0300618,0.0297545,-4.52422,2,0.00248685,10,-0.000134616,-2.34446,0.260681,0.226331,-40.0345,0.0297545,
2,0,0,1,0,3144.67,0.0285676,0.0282712,-4.47622,2,0.00237435,10,-0.000126548,-2.34909,0.293806,0.200813,-35.0907,0.0282712,
2,0,0,1,0,3144.7,0.0270667,0.0267515,-4.43158,2,0.00226265,10,-0.000118552,-2.35344,0.326599,0.180649,-31.1628,0.0267515,
2,0,0,1,0,3144.72,0.0255659,0.0252796,-4.37076,2,0.00215217,10,-0.000110491,-2.35944,0.314658,0.187505,-32.0068,0.0252796,
2,0,0,1,0,3144.75,0.0240717,0.0237394,-4.31967,2,0.00204347,10,-0.000102546,-2.36455,0.311154,0.189617,-32.0668,0.0237394,
2,0,0,1,0,3144.77,0.0225722,0.0222619,-4.28747,2,0.00193546,10,-9.54473e-05,-2.3678,0.352033,0.167598,-28.0177,0.0222619,
2,0,0,1,0,3144.8,0.0210726,0.0207677,-4.24532,2,0.0018284,10,-8.81656e-05,-2.37209,0.391808,0.150584,-24.9532,0.0207677,
2,0,0,1,0,3144.82,0.0195784,0.0192939,-4.19677,2,0.00172274,10,-8.09722e-05,-2.37708,0.404741,0.145772,-23.9365,0.0192939,
2,0,0,1,0,3144.85,0.0180789,0.0177702,-4.16231,2,0.00161764,10,-7.39651e-05,-2.38067,0.381765,0.154545,-25.1783,0.0177702,
2,0,0,1,0,3144.87,0.0165781,0.0162548,-4.14039,2,0.00151348,10,-6.73011e-05,-2.38296,0.44872,0.131485,-21.258,0.0162548,
2,0,0,1,0,3144.9,0.0150839,0.0147774,-4.116,2,0.00141032,10,-6.08237e-05,-2.38552,0.626947,0.0941069,-15.086,0.0147774,
2,0,0,1,0,3144.92,0.0135844,0.0132483,-4.08252,2,0.00130733,10,-5.40866e-05,-2.38907,0.623951,0.0945587,-15.0798,0.0132483,
2,0,0,1,0,3144.95,0.0120848,0.0117642,-4.05831,2,0.00120502,10,-4.77426e-05,-2.39165,0.526376,0.112087,-17.7998,0.01176417,
2,0,0,1,0,3144.97,0.0105853,0.0102457,-4.03936,2,0.00110335,10,-4.13861e-05,-2.39369,0.675451,0.0873491,-13.7954,0.0102457,
2,0,0,1,0,3145,0.00909108,0.00872935,-4.03086,2,0.00100249,10,-3.51868e-05,-2.3946,1.41027,0.0418361,-6.57644,0.008729348,
2,0,0,1,0,3145.02,0.00759027,0.00726189,-4.01013,2,0.000901532,10,-2.91211e-05,-2.39684,1.36517,0.043218,-6.77062,0.00726189,
2,0,0,1,0,3145.05,0.00608945,0.00578764,-4.00403,2,0.000800858,10,-2.31739e-05,-2.3975,0.995728,0.0592531,-9.25352,0.00578764,
2,0,0,1,0,3145.07,0.00459524,0.00430541,-3.99719,2,0.000700936,10,-1.72096e-05,-2.39824,1.49846,0.0393738,-6.13368,0.00430541,
2,0,0,1,0,3145.1,0.0030957,0.0027743,-3.98784,2,0.000600813,10,-1.10635e-05,-2.39926,-1.22699,-0.0480851,7.50849,0.0027743,
2,0,0,1,0,3145.12,0.00159616,0.00125273,-4.02598,2,0.000500098,10,-5.04348e-06,-2.39513, , , ,0.00125273,
2,0,0,1,0,3145.14,0.000199195,-0.000143994,-3.99426,2,0.000406196,10,5.7515e-07,-2.39856, , , ,-0.000143994,