File: Figure_codes/Fig_3-5/rawdata_trumpetplot_data/after 10th/20221101_1-115_003_TrumpetPlot_ParaChange_from10_every3_03_CV_C01_1.csv
mode,ox/red,error,control changes,counter inc.,time/s,control/V,Ewe/V,<I>/mA,cycle number,(Q-Qo)/C,I Range,P/W,log(|I|),Tafel slope mV/dec,alpha_eff,dI/d(E-IR),E-IR/V,
2,0,0,1,0,2910.15,2.44065e-05,-0.000363498,-0.079041,2,0.0000000E+000,10,2.87313e-08,-4.10215, , , ,-0.000363498,
2,1,0,0,0,2910.4,0.00129787,0.000929137,0.153652,2,3.28297e-05,10,1.42764e-07,-3.81346, , , ,0.0009291374,
2,1,0,0,0,2910.7,0.00279606,0.00250596,0.181753,2,9.07985e-05,10,4.55465e-07,-3.74052,0.0265753,2.2201,14.2995,0.00250596,
2,1,0,1,0,2911,0.00429469,0.00400777,0.190669,2,0.000152471,10,7.64159e-07,-3.71972,0.101841,0.579335,4.40726,0.00400777,
2,1,0,1,0,2911.3,0.00579255,0.00549331,0.198777,2,0.000216859,10,1.09194e-06,-3.70163,0.0816976,0.722175,5.60702,0.00549331,
2,1,0,1,0,2911.6,0.0072904,0.00699545,0.209066,2,0.000283942,10,1.46251e-06,-3.67972,0.0924988,0.637846,5.14835,0.00699545,
2,1,0,1,0,2911.9,0.00878882,0.00844424,0.214717,2,0.000353359,10,1.81312e-06,-3.66813,0.115871,0.509186,4.25082,0.00844424,
2,1,0,1,0,2912.2,0.010287,0.00996274,0.220867,2,0.000424604,10,2.20044e-06,-3.65587,0.145912,0.404355,3.47707,0.00996274,
2,1,0,1,0,2912.5,0.0117852,0.0114473,0.22452,2,0.000497357,10,2.57015e-06,-3.64875,0.156485,0.377034,3.328,0.0114473,
2,1,0,1,0,2912.8,0.0132836,0.0129554,0.23198,2,0.000571527,10,3.00539e-06,-3.63455,0.156703,0.376508,3.40816,0.0129554,
2,1,0,1,0,2913.1,0.0147815,0.0144472,0.235473,2,0.000647388,10,3.40191e-06,-3.62806,0.157645,0.374258,3.43925,0.0144472,
2,1,0,1,0,2913.4,0.0162793,0.0159992,0.239803,2,0.000724717,10,3.83665e-06,-3.62015,0.224552,0.262745,2.45535,0.0159992,
2,1,0,0,0,2913.7,0.017778,0.0174725,0.24563,2,0.000803256,10,4.29177e-06,-3.60972,0.184652,0.31952,3.05428,0.0174725,
2,1,0,0,0,2914,0.0192761,0.0189889,0.249826,2,0.000882867,10,4.74392e-06,-3.60236,0.206211,0.286115,2.77556,0.01898892,
2,1,0,1,0,2914.3,0.0207747,0.0204037,0.25364,2,0.000964022,10,5.1752e-06,-3.59578,0.175496,0.33619,3.31669,0.0204037,
2,1,0,1,0,2914.6,0.0222725,0.0219559,0.258573,2,0.00104654,10,5.67721e-06,-3.58742,0.176162,0.334919,3.36428,0.0219559,
2,1,0,1,0,2914.89,0.0237704,0.0234708,0.26278,2,0.00113047,10,6.16767e-06,-3.58041,0.207176,0.284783,2.92027,0.0234708,
2,1,0,1,0,2915.19,0.0252689,0.024976,0.265584,2,0.00121531,10,6.63321e-06,-3.5758,0.196791,0.29981,3.12782,0.024976,
2,1,0,1,0,2915.49,0.0267671,0.0264574,0.271523,2,0.00130186,10,7.18378e-06,-3.56619,0.154497,0.381883,4.02844,0.0264574,
2,1,0,1,0,2915.79,0.0282657,0.0279518,0.276894,2,0.00138979,10,7.73969e-06,-3.55769,0.185831,0.317493,3.42601,0.0279518,
2,1,0,1,0,2916.09,0.0297635,0.0294699,0.280438,2,0.00147906,10,8.26447e-06,-3.55216,0.169635,0.347805,3.81522,0.02946987,
2,1,0,1,0,2916.39,0.0312613,0.0309649,0.284026,2,0.00156964,10,8.79485e-06,-3.54664,0.181059,0.32586,3.62443,0.0309649,
2,1,0,0,0,2916.69,0.0327598,0.0324624,0.291312,2,0.0016617,10,9.4567e-06,-3.53564,0.218263,0.270316,3.07205,0.0324624,
2,1,0,0,0,2916.99,0.034258,0.0339619,0.297446,2,0.00175543,10,1.01018e-05,-3.52659,0.173895,0.339286,3.91539,0.0339619,
2,1,0,1,0,2917.29,0.0357567,0.0354861,0.300444,2,0.00185077,10,1.06616e-05,-3.52224,0.222119,0.265623,3.12208,0.0354861,
2,1,0,1,0,2917.59,0.0372545,0.0369364,0.306171,2,0.00194766,10,1.13088e-05,-3.51404,0.198136,0.297775,3.57526,0.0369364,
2,1,0,1,0,2917.89,0.0387524,0.0384196,0.312471,2,0.00204589,10,1.2005e-05,-3.50519,0.159732,0.369368,4.52983,0.0384196,
2,1,0,1,0,2918.19,0.0402508,0.0399383,0.318009,2,0.00214606,10,1.27008e-05,-3.49756,0.188661,0.31273,3.88646,0.0399383,
2,1,0,1,0,2918.49,0.041749,0.0414398,0.325082,2,0.0022483,10,1.34714e-05,-3.48801,0.202693,0.29108,3.6736,0.0414398,
2,1,0,1,0,2918.79,0.0432472,0.0429255,0.33105,2,0.00235204,10,1.42105e-05,-3.48011,0.185361,0.318298,4.09416,0.0429255,
2,1,0,1,0,2919.09,0.0447456,0.0444526,0.336812,2,0.00245723,10,1.49722e-05,-3.47261,0.216896,0.27202,3.55884,0.0444526,
2,1,0,1,0,2919.39,0.0462435,0.0459369,0.341855,2,0.00256454,10,1.57038e-05,-3.46616,0.165237,0.357063,4.75079,0.0459369,
2,1,0,1,0,2919.69,0.0477413,0.0474253,0.347129,2,0.00267352,10,1.64627e-05,-3.45951,0.203927,0.28932,3.92384,0.0474253,
2,1,0,0,0,2919.99,0.0492399,0.0489093,0.353156,2,0.00278439,10,1.72726e-05,-3.45203,0.193338,0.305165,4.22023,0.0489093,
2,1,0,0,0,2920.29,0.0507381,0.0504204,0.358138,2,0.00289666,10,1.80575e-05,-3.44595,0.209483,0.281645,3.95496,0.0504204,
2,1,0,1,0,2920.59,0.0522367,0.0518906,0.365625,2,0.00301122,10,1.89725e-05,-3.43696,0.1765,0.334277,4.75941,0.0518906,
2,1,0,1,0,2920.89,0.0537345,0.0534267,0.373326,2,0.00312778,10,1.99456e-05,-3.42791,0.230541,0.255919,3.70394,0.0534267,
2,1,0,1,0,2921.19,0.0552323,0.0549224,0.377261,2,0.00324602,10,2.07201e-05,-3.42336,0.281145,0.209856,3.08063,0.0549224,
2,1,0,1,0,2921.49,0.0567309,0.0564488,0.381102,2,0.00336574,10,2.15127e-05,-3.41896,0.235453,0.25058,3.74446,0.05644884,
2,1,0,1,0,2921.79,0.0582291,0.0579366,0.3889,2,0.00348702,10,2.25316e-05,-3.41016,0.243601,0.242199,3.67001,0.05793659,
2,1,0,1,0,2922.09,0.0597277,0.0594044,0.395493,2,0.00361047,10,2.3494e-05,-3.40286,0.229184,0.257435,3.96254,0.0594044,
2,1,0,1,0,2922.39,0.0612255,0.0609313,0.400307,2,0.00373554,10,2.43912e-05,-3.39761,0.3627,0.162669,2.54009,0.0609313,
2,1,0,1,0,2922.69,0.0627233,0.0624294,0.405678,2,0.00386232,10,2.53262e-05,-3.39182,0.246592,0.239262,3.7926,0.06242935,
2,1,0,0,0,2922.99,0.0642218,0.0639035,0.411936,2,0.00399034,10,2.63241e-05,-3.38517,0.244219,0.241586,3.9009,0.0639035,
2,1,0,0,0,2923.28,0.06572,0.0654347,0.417732,2,0.00412027,10,2.73342e-05,-3.3791,0.235293,0.250751,4.07373,0.0654347,
2,1,0,1,0,2923.58,0.0672187,0.0669114,0.424135,2,0.00425225,10,2.83794e-05,-3.3725,0.258258,0.228454,3.75554,0.0669114,
2,1,0,1,0,2923.88,0.0687165,0.0684125,0.427765,2,0.00438549,10,2.92644e-05,-3.3688,0.301457,0.195716,3.26621,0.0684125,
2,1,0,1,0,2924.18,0.0702144,0.0699486,0.4325,2,0.00451976,10,3.02528e-05,-3.36401,0.30299,0.194726,3.28144,0.0699486,
2,1,0,1,0,2924.48,0.0717128,0.0714303,0.437222,2,0.00465607,10,3.12309e-05,-3.3593,0.243322,0.242477,4.11831,0.0714303,
2,1,0,1,0,2924.78,0.073211,0.0729138,0.442066,2,0.00479368,10,3.22327e-05,-3.35451,0.293756,0.200847,3.46499,0.0729138,
2,1,0,1,0,2925.08,0.0747092,0.0743856,0.444782,2,0.0049327,10,3.30854e-05,-3.35185,0.323732,0.18225,3.17808,0.0743856,
2,1,0,1,0,2925.38,0.0762076,0.0758567,0.448897,2,0.00507274,10,3.40518e-05,-3.34785,0.355826,0.165811,2.92103,0.0758567,
2,1,0,1,0,2925.68,0.0777054,0.077395,0.456507,2,0.00521452,10,3.53314e-05,-3.34055,0.274555,0.214893,3.80999,0.077395,
2,1,0,1,0,2925.98,0.0792033,0.0788994,0.461554,2,0.00535781,10,3.64164e-05,-3.33578,0.366119,0.16115,2.88922,0.0788994,
2,1,0,0,0,2926.28,0.0807019,0.0803631,0.466024,2,0.00550256,10,3.74511e-05,-3.33159,0.355569,0.165931,3.00902,0.0803631,
2,1,0,0,0,2926.58,0.0822001,0.0819103,0.466272,2,0.00564833,10,3.81925e-05,-3.33136,0.354104,0.166618,3.05051,0.0819103,
2,1,0,1,0,2926.88,0.0836986,0.083392,0.472028,2,0.00579532,10,3.93634e-05,-3.32603,0.334604,0.176328,3.2637,0.083392,
2,1,0,1,0,2927.18,0.0851965,0.0848444,0.478492,2,0.00594398,10,4.05974e-05,-3.32013,0.317362,0.185908,3.47345,0.0848444,
2,1,0,1,0,2927.48,0.0866944,0.0864517,0.483425,2,0.00609416,10,4.17929e-05,-3.31567,0.567677,0.103932,1.95952,0.0864517,
2,1,0,1,0,2927.78,0.0881929,0.0878422,0.486246,2,0.00624579,10,4.27129e-05,-3.31314,0.330077,0.178746,3.40995,0.0878422,
2,1,0,1,0,2928.08,0.0896911,0.0893437,0.494621,2,0.00639839,10,4.41913e-05,-3.30573,0.258496,0.228244,4.41148,0.0893437,
2,1,0,1,0,2928.38,0.0911897,0.0908488,0.499943,2,0.00655322,10,4.54192e-05,-3.30108,0.241324,0.244484,4.7579,0.0908488,
2,1,0,1,0,2928.68,0.0926875,0.0923816,0.507215,2,0.00671021,10,4.68573e-05,-3.29481,0.254582,0.231753,4.58059,0.0923816,
2,1,0,1,0,2928.98,0.0941853,0.0938641,0.51326,2,0.00686883,10,4.81767e-05,-3.28966,0.278185,0.212089,4.25051,0.0938641,
2,1,0,0,0,2929.28,0.0956838,0.0953997,0.519474,2,0.00702925,10,4.95576e-05,-3.28444,0.23495,0.251118,5.11144,0.0953997,
2,1,0,0,0,2929.58,0.097182,0.0968779,0.528444,2,0.00719213,10,5.11946e-05,-3.277,0.192666,0.306229,6.30513,0.0968779,
2,1,0,1,0,2929.88,0.0986806,0.0983682,0.537262,2,0.00735771,10,5.28495e-05,-3.26981,0.204283,0.288815,6.07031,0.0983682,
2,1,0,1,0,2930.18,0.100179,0.0998461,0.546181,2,0.007526,10,5.4534e-05,-3.26266,0.188089,0.31368,6.69235,0.09984605,
2,1,0,1,0,2930.48,0.101676,0.101339,0.553512,2,0.00769697,10,5.60922e-05,-3.25687,0.192553,0.306409,6.65963,0.101339,
2,1,0,1,0,2930.78,0.103175,0.102911,0.567061,2,0.00787099,10,5.83566e-05,-3.24637,0.188322,0.313292,6.94107,0.102911,
2,1,0,1,0,2931.08,0.104673,0.104377,0.579925,2,0.00804834,10,6.05308e-05,-3.23663,0.184917,0.319062,7.19768,0.104377,
2,1,0,1,0,2931.37,0.106171,0.105852,0.588853,2,0.00822908,10,6.23313e-05,-3.22999,0.211537,0.278911,6.38467,0.1058521,
2,1,0,1,0,2931.67,0.10767,0.107376,0.597705,2,0.00841314,10,6.41792e-05,-3.22351,0.193712,0.304575,7.13167,0.107376,
2,1,0,1,0,2931.97,0.109167,0.108861,0.6102,2,0.0086,10,6.64272e-05,-3.21453,0.187877,0.314035,7.49886,0.108861,
2,1,0,1,0,2932.27,0.110665,0.110352,0.622186,2,0.00879075,10,6.86596e-05,-3.20608,0.186778,0.315883,7.67221,0.110352,
2,1,0,0,0,2932.57,0.112164,0.111852,0.633727,2,0.00898516,10,7.08835e-05,-3.1981,0.238549,0.247328,6.09639,0.111852,
2,1,0,0,0,2932.87,0.113662,0.113385,0.645346,2,0.00918248,10,7.31727e-05,-3.19021,0.221612,0.266231,6.69169,0.113385,
2,1,0,1,0,2933.17,0.115161,0.114832,0.655423,2,0.00938237,10,7.52636e-05,-3.18348,0.209214,0.282008,7.18627,0.114832,
2,1,0,1,0,2933.47,0.116658,0.116364,0.664702,2,0.00958569,10,7.73473e-05,-3.17737,0.203346,0.290146,7.5029,0.116364,
2,1,0,1,0,2933.77,0.118156,0.117863,0.674688,2,0.00979246,10,7.95207e-05,-3.1709,0.237957,0.247944,6.5119,0.117863,
2,1,0,1,0,2934.07,0.119655,0.119354,0.682634,2,0.0100018,10,8.14752e-05,-3.16581,0.292412,0.20177,5.38477,0.119354,
2,1,0,1,0,2934.37,0.121153,0.12084,0.689651,2,0.0102132,10,8.33373e-05,-3.16137,0.271888,0.217001,5.86025,0.12084,
2,1,0,1,0,2934.67,0.122652,0.122355,0.700161,2,0.0104276,10,8.56679e-05,-3.1548,0.225345,0.261821,7.1488,0.122355,
2,1,0,1,0,2934.97,0.124149,0.12383,0.709741,2,0.0106447,10,8.78874e-05,-3.1489,0.275824,0.213905,5.91552,0.1238303,
2,1,0,1,0,2935.27,0.125647,0.125323,0.717302,2,0.0108647,10,8.98944e-05,-3.1443,0.313376,0.188272,5.26999,0.125323,
2,1,0,0,0,2935.57,0.127146,0.126894,0.72305,2,0.0110869,10,9.17505e-05,-3.14083,0.345927,0.170556,4.83218,0.126894,
2,1,0,0,0,2935.87,0.128644,0.12836,0.732721,2,0.0113112,10,9.40523e-05,-3.13506,0.319679,0.18456,5.28828,0.1283603,
2,1,0,1,0,2936.17,0.130143,0.129862,0.742265,2,0.0115385,10,9.63922e-05,-3.12944,0.36093,0.163467,4.72619,0.129862,
2,1,0,1,0,2936.47,0.13164,0.131325,0.748111,2,0.0117679,10,9.82458e-05,-3.12603,0.603845,0.0977072,2.83887,0.131325,
2,1,0,1,0,2936.77,0.133138,0.132843,0.753443,2,0.011999,10,0.00010009,-3.12295,0.660321,0.0893505,2.62402,0.1328432,
2,1,0,1,0,2937.07,0.134637,0.134368,0.754065,2,0.0122308,10,0.000101322,-3.12259,1.07991,0.0546344,1.61073,0.1343675,
2,1,0,1,0,2937.37,0.136135,0.135809,0.756964,2,0.0124637,10,0.000102802,-3.12092,-31.2197,-0.00188983,-0.055705,0.135809,
2,1,0,1,0,2937.67,0.137633,0.137313,0.755673,2,0.0126965,10,0.000103764,-3.12167,-0.605845,-0.0973847,-2.85215,0.137313,
2,1,0,1,0,2937.97,0.139132,0.138846,0.751399,2,0.0129285,10,0.000104329,-3.12413,-0.371658,-0.158748,-4.62598,0.138846,
2,1,0,1,0,2938.27,0.140629,0.140312,0.740641,2,0.0131576,10,0.000103921,-3.13039,-0.228555,-0.258143,-7.42945,0.140312,
2,1,0,1,0,2938.57,0.142127,0.141871,0.727766,2,0.0133838,10,0.000103249,-3.13801,-0.189644,-0.311109,-8.79644,0.141871,
2,1,0,0,0,2938.87,0.143626,0.143331,0.712679,2,0.0136062,10,0.000102149,-3.14711,-0.131126,-0.449949,-12.4631,0.143331,
2,1,0,0,0,2939.17,0.145124,0.144845,0.691712,2,0.0138228,10,0.000100191,-3.16007,-0.104202,-0.566206,-15.2618,0.144845,
2,1,0,1,0,2939.47,0.146623,0.146329,0.665097,2,0.0140322,10,9.73232e-05,-3.17711,-0.0919026,-0.641984,-16.7121,0.146329,
2,1,0,1,0,2939.76,0.14812,0.147824,0.641727,2,0.0142344,10,9.48628e-05,-3.19265,-0.0874658,-0.67455,-16.8212,0.1478242,
2,1,0,1,0,2940.06,0.149618,0.149313,0.614074,2,0.0144288,10,9.16891e-05,-3.21178,-0.0765724,-0.770512,-18.4478,0.149313,
2,1,0,1,0,2940.36,0.151117,0.150831,0.585391,2,0.0146148,10,8.82954e-05,-3.23255,-0.0734515,-0.803251,-18.3686,0.150831,
2,1,0,1,0,2940.66,0.152615,0.152321,0.557335,2,0.0147921,10,8.4894e-05,-3.25388,-0.0714026,-0.826301,-18.0497,0.152321,
2,1,0,1,0,2940.96,0.154114,0.153801,0.535044,2,0.0149616,10,8.22903e-05,-3.27161,-0.0755401,-0.781042,-16.3174,0.153801,
2,1,0,1,0,2941.26,0.155612,0.155326,0.51109,2,0.0151238,10,7.93858e-05,-3.2915,-0.0760749,-0.775551,-15.4925,0.155326,
2,1,0,1,0,2941.56,0.157109,0.156818,0.488314,2,0.0152794,10,7.65764e-05,-3.3113,-0.0744143,-0.792858,-15.1007,0.156818,
2,1,0,0,0,2941.86,0.158608,0.15831,0.468061,2,0.0154287,10,7.4099e-05,-3.3297,-0.0886483,-0.665551,-12.2257,0.15831,
2,1,0,0,0,2942.16,0.160106,0.159803,0.450738,2,0.0155717,10,7.20295e-05,-3.34608,-0.0927168,-0.636346,-11.2488,0.159803,
2,1,0,1,0,2942.46,0.161605,0.161258,0.434233,2,0.0157103,10,7.00234e-05,-3.36228,-0.100865,-0.58494,-9.92922,0.161258,
2,1,0,1,0,2942.76,0.163102,0.162808,0.420572,2,0.0158442,10,6.84724e-05,-3.37616,-0.107064,-0.551071,-9.03878,0.162808,
2,1,0,1,0,2943.06,0.1646,0.164274,0.409032,2,0.0159741,10,6.71933e-05,-3.38824,-0.114708,-0.514351,-8.20609,0.164274,
2,1,0,1,0,2943.36,0.166099,0.165789,0.396587,2,0.0161002,10,6.575e-05,-3.40166,-0.129632,-0.455134,-7.05526,0.165789,
2,1,0,1,0,2943.66,0.167597,0.167307,0.385499,2,0.0162233,10,6.44967e-05,-3.41398,-0.153056,-0.385479,-5.8245,0.1673069,
2,1,0,1,0,2943.96,0.169095,0.16884,0.377347,2,0.0163438,10,6.37113e-05,-3.42326,-0.161877,-0.364475,-5.3911,0.16884,
2,1,0,1,0,2944.26,0.170594,0.170333,0.370179,2,0.0164617,10,6.30537e-05,-3.43159,-0.14424,-0.409039,-5.9313,0.170333,
2,1,0,1,0,2944.56,0.172091,0.171781,0.362261,2,0.016577,10,6.22295e-05,-3.44098,-0.195866,-0.301226,-4.27406,0.171781,
2,1,0,1,0,2944.86,0.173589,0.173268,0.356494,2,0.0166904,10,6.17691e-05,-3.44795,-0.217186,-0.271656,-3.78176,0.173268,
2,1,0,0,0,2945.16,0.175088,0.174823,0.351089,2,0.0168021,10,6.13784e-05,-3.45458,-0.232156,-0.254139,-3.47657,0.174823,
2,1,0,0,0,2945.46,0.176586,0.176282,0.345594,2,0.0169121,10,6.09221e-05,-3.46143,-0.222022,-0.265739,-3.58637,0.176282,
2,1,0,1,0,2945.76,0.178085,0.17773,0.340557,2,0.0170205,10,6.05272e-05,-3.46781,-0.278963,-0.211497,-2.80976,0.17773,
2,1,0,1,0,2946.06,0.179582,0.179295,0.336833,2,0.0171274,10,6.03924e-05,-3.47259,-0.271396,-0.217395,-2.86884,0.179295,
2,1,0,1,0,2946.36,0.18108,0.180781,0.333587,2,0.0172334,10,6.03064e-05,-3.47679,-0.302188,-0.195243,-2.54209,0.1807813,
2,1,0,1,0,2946.66,0.182579,0.18231,0.327928,2,0.0173383,10,5.97844e-05,-3.48422,-0.252752,-0.233431,-2.99218,0.18231,
2,1,0,1,0,2946.96,0.184077,0.183823,0.327185,2,0.0174421,10,6.0144e-05,-3.48521,-0.343347,-0.171838,-2.18889,0.183823,
2,1,0,1,0,2947.26,0.185576,0.18524,0.322451,2,0.0175446,10,5.97308e-05,-3.49154,-0.393896,-0.149786,-1.8848,0.18524,
2,1,0,1,0,2947.56,0.187074,0.186774,0.321055,2,0.0176466,10,5.99647e-05,-3.49342,-0.404068,-0.146015,-1.82165,0.186774,
2,1,0,1,0,2947.86,0.188571,0.188266,0.317746,2,0.0177477,10,5.98209e-05,-3.49792,-0.390687,-0.151016,-1.87029,0.188266,
2,1,0,0,0,2948.15,0.19007,0.189768,0.313944,2,0.0178481,10,5.95767e-05,-3.50315,-0.396616,-0.148759,-1.82652,0.189768,
2,1,0,0,0,2948.45,0.191568,0.191296,0.311899,2,0.0179476,10,5.96652e-05,-3.50599,-0.420985,-0.140148,-1.70905,0.191296,
2,1,0,1,0,2948.75,0.193067,0.192733,0.310242,2,0.0180465,10,5.97936e-05,-3.5083,-0.742109,-0.0795032,-0.962386,0.192733,
2,1,0,1,0,2949.05,0.194564,0.194263,0.308214,2,0.018145,10,5.98745e-05,-3.51115,-0.531623,-0.110981,-1.33794,0.1942627,
2,1,0,1,0,2949.35,0.196062,0.195764,0.306338,2,0.0182428,10,5.99699e-05,-3.5138,-0.455643,-0.129487,-1.55208,0.195764,
2,1,0,1,0,2949.65,0.197561,0.197232,0.30312,2,0.0183398,10,5.97848e-05,-3.51839,-0.519814,-0.113502,-1.35291,0.197232,
2,1,0,1,0,2949.95,0.199059,0.198729,0.302906,2,0.0184364,10,6.01962e-05,-3.51869,-0.589425,-0.100098,-1.18221,0.198729,
2,1,0,1,0,2950.25,0.200557,0.200207,0.301615,2,0.0185326,10,6.03854e-05,-3.52055,-0.798138,-0.0739221,-0.865632,0.200207,
2,1,0,1,0,2950.55,0.202056,0.201737,0.299883,2,0.0186283,10,6.04977e-05,-3.52305,-0.576787,-0.102291,-1.19573,0.201737,
2,1,0,1,0,2950.85,0.203553,0.20326,0.297332,2,0.0187235,10,6.04357e-05,-3.52676,-1.02065,-0.0578065,-0.674547,0.20326,
2,1,0,1,0,2951.15,0.205051,0.204743,0.296081,2,0.0188182,10,6.06206e-05,-3.52859,-2.65048,-0.0222601,-0.259869,0.204743,
2,1,0,0,0,2951.45,0.20655,0.206248,0.294379,2,0.0189128,10,6.07151e-05,-3.53109,-0.82737,-0.0713103,-0.822119,0.206248,
2,1,0,0,0,2951.75,0.208048,0.20774,0.294498,2,0.0190073,10,6.11791e-05,-3.53092,-0.574134,-0.102764,-1.17862,0.20774,
2,1,0,1,0,2952.05,0.209547,0.20923,0.292441,2,0.0191011,10,6.11875e-05,-3.53396,-0.872356,-0.0676329,-0.775287,0.20923,
2,1,0,1,0,2952.35,0.211044,0.210759,0.292562,2,0.0191943,10,6.16601e-05,-3.53378,-0.515857,-0.114373,-1.30778,0.210759,
2,1,0,1,0,2952.65,0.212542,0.21224,0.291278,2,0.0192874,10,6.1821e-05,-3.53569,-0.916469,-0.0643775,-0.731591,0.21224,
2,1,0,1,0,2952.95,0.214041,0.213761,0.291221,2,0.0193802,10,6.22517e-05,-3.53578,-0.84495,-0.0698266,-0.789364,0.2137612,
2,1,0,1,0,2953.25,0.215539,0.215254,0.289249,2,0.0194727,10,6.22622e-05,-3.53873,-1.28376,-0.0459588,-0.519042,0.215254,
2,1,0,1,0,2953.55,0.217038,0.216712,0.288007,2,0.0195646,10,6.24144e-05,-3.5406,-0.87532,-0.0674039,-0.759596,0.216712,
2,1,0,1,0,2953.85,0.218535,0.218249,0.287175,2,0.0196565,10,6.26756e-05,-3.54185,-1.65424,-0.0356658,-0.39905,0.218249,
2,1,0,1,0,2954.15,0.220033,0.21977,0.285809,2,0.0197483,10,6.28123e-05,-3.54392,-1.53416,-0.0384576,-0.430122,0.2197703,
2,1,0,0,0,2954.45,0.221532,0.221237,0.284961,2,0.0198397,10,6.30438e-05,-3.54522,-0.772529,-0.0763726,-0.854657,0.221237,
2,1,0,0,0,2954.75,0.22303,0.22272,0.28365,2,0.0199307,10,6.31744e-05,-3.54722,-1.37922,-0.0427778,-0.475889,0.22272,
2,1,0,1,0,2955.05,0.224529,0.224233,0.284077,2,0.0200215,10,6.36996e-05,-3.54656,-1.67624,-0.0351979,-0.38936,0.224233,
2,1,0,1,0,2955.35,0.226026,0.225752,0.282522,2,0.0201122,10,6.37799e-05,-3.54895,-2.08518,-0.0282949,-0.312224,0.225752,
2,1,0,1,0,2955.65,0.227524,0.227217,0.28271,2,0.0202027,10,6.42365e-05,-3.54866,-0.705816,-0.0835912,-0.918456,0.227217,
2,1,0,1,0,2955.95,0.229023,0.228749,0.280765,2,0.0202929,10,6.42246e-05,-3.55166,-1.19977,-0.0491761,-0.54053,0.228749,
2,1,0,1,0,2956.24,0.230521,0.230234,0.280142,2,0.0203827,10,6.4498e-05,-3.55262,-1.61957,-0.0364293,-0.39964,0.230234,
2,1,0,1,0,2956.54,0.232019,0.231718,0.279575,2,0.0204725,10,6.47827e-05,-3.5535,-0.771063,-0.0765178,-0.838299,0.231718,
2,1,0,1,0,2956.84,0.233518,0.233204,0.280039,2,0.0205622,10,6.53062e-05,-3.55278,-1.15637,-0.0510217,-0.554703,0.233204,
2,1,0,1,0,2957.14,0.235015,0.234726,0.279452,2,0.0206515,10,6.55947e-05,-3.55369,-1.59009,-0.0371049,-0.402575,0.234726,
2,1,0,1,0,2957.44,0.236513,0.236223,0.278079,2,0.0207405,10,6.56888e-05,-3.55583,-3.65766,-0.0161306,-0.174823,0.236223,
2,1,0,0,0,2957.74,0.238012,0.237721,0.277143,2,0.0208294,10,6.58827e-05,-3.5573,-1.53305,-0.0384854,-0.416316,0.237721,
2,1,0,0,0,2958.04,0.23951,0.239225,0.276493,2,0.0209183,10,6.61441e-05,-3.55832,-1.37782,-0.0428212,-0.462781,0.239225,
2,1,0,1,0,2958.34,0.241009,0.240699,0.27672,2,0.021007,10,6.66061e-05,-3.55796,-1.42392,-0.0414348,-0.448599,0.240699,
2,1,0,1,0,2958.64,0.242506,0.242206,0.275259,2,0.0210952,10,6.66693e-05,-3.56026,-1.58098,-0.0373185,-0.403327,0.242206,
2,1,0,1,0,2958.94,0.244004,0.243698,0.275659,2,0.0211835,10,6.71777e-05,-3.55963,1.94572,0.030323,0.326648,0.243698,
2,1,0,1,0,2959.24,0.245503,0.245194,0.276541,2,0.021272,10,6.7806e-05,-3.55824,-4.81365,-0.0122568,-0.13193,0.245194,
2,1,0,1,0,2959.54,0.247001,0.24669,0.275357,2,0.0213602,10,6.79278e-05,-3.5601,-4.57624,-0.0128927,-0.137895,0.24669,
2,1,0,1,0,2959.84,0.2485,0.248238,0.273373,2,0.0214481,10,6.78618e-05,-3.56324,-1.08637,-0.0543096,-0.581588,0.248238,
2,1,0,1,0,2960.14,0.249997,0.249625,0.274221,2,0.0215358,10,6.84523e-05,-3.5619,-1.66049,-0.0355316,-0.378901,0.249625,
2,1,0,1,0,2960.44,0.251495,0.251236,0.272914,2,0.0216235,10,6.85658e-05,-3.56397,-1.50212,-0.0392778,-0.419099,0.251236,
2,1,0,0,0,2960.74,0.252994,0.25271,0.271682,2,0.021711,10,6.86567e-05,-3.56594,-0.552214,-0.106843,-1.13999,0.25271,
2,1,0,0,0,2961.04,0.254492,0.254194,0.272224,2,0.0217983,10,6.91978e-05,-3.56507,-1.91134,-0.0308684,-0.3278,0.2541945,
2,1,0,1,0,2961.34,0.255991,0.255715,0.270951,2,0.0218854,10,6.92861e-05,-3.56711,-2.56249,-0.0230245,-0.244611,0.255715,
2,1,0,1,0,2961.64,0.257488,0.257205,0.270801,2,0.0219725,10,6.96514e-05,-3.56735,-6.2919,-0.00937713,-0.0993886,0.257205,
2,1,0,1,0,2961.94,0.258986,0.258715,0.270782,2,0.0220596,10,7.00553e-05,-3.56738,-0.936478,-0.063002,-0.665277,0.2587148,
2,1,0,1,0,2962.24,0.260485,0.260169,0.270482,2,0.0221465,10,7.0371e-05,-3.56786,-1.62511,-0.0363053,-0.383796,0.260169,
2,1,0,1,0,2962.54,0.261983,0.261686,0.268674,2,0.022233,10,7.03083e-05,-3.57077,-1.55168,-0.0380233,-0.400399,0.261686,
2,1,0,1,0,2962.84,0.263481,0.263167,0.269493,2,0.0223195,10,7.09216e-05,-3.56945,2.15816,0.0273381,0.28746,0.263167,
2,1,0,1,0,2963.14,0.264979,0.264655,0.269844,2,0.0224059,10,7.14154e-05,-3.56889,-2.45161,-0.0240658,-0.252914,0.264655,
2,1,0,1,0,2963.44,0.266477,0.266197,0.269167,2,0.0224923,10,7.16514e-05,-3.56998,-3.82796,-0.0154129,-0.161883,0.266197,
2,1,0,0,0,2963.74,0.267976,0.267671,0.268684,2,0.0225783,10,7.19191e-05,-3.57076,-11.0399,-0.00534425,-0.0561044,0.2676712,
2,1,0,0,0,2964.04,0.269474,0.269157,0.268101,2,0.0226644,10,7.21613e-05,-3.5717,1.20469,0.0489754,0.510867,0.269157,
2,1,0,0,0,2964.34,0.270972,0.270707,0.269251,2,0.0227503,10,7.28882e-05,-3.56984,-3.09798,-0.0190447,-0.199334,0.270707,
2,1,0,1,0,2964.63,0.27247,0.272155,0.267843,2,0.0228362,10,7.28946e-05,-3.57212,-1.20097,-0.049127,-0.511771,0.272155,
2,1,0,1,0,2964.93,0.273968,0.273688,0.265718,2,0.0229218,10,7.27238e-05,-3.57558,-16.6074,-0.00355264,-0.0370324,0.273688,
2,1,0,1,0,2965.23,0.275466,0.275165,0.266073,2,0.0230072,10,7.32139e-05,-3.575,-1.57606,-0.0374351,-0.390249,0.275165,
2,1,0,1,0,2965.53,0.276965,0.276679,0.266682,2,0.0230927,10,7.37854e-05,-3.57401,-2.35131,-0.0250924,-0.261316,0.276679,
2,1,0,1,0,2965.83,0.278463,0.278187,0.265351,2,0.023178,10,7.38173e-05,-3.57618,-0.598349,-0.0986046,-1.02073,0.278187,
2,1,0,1,0,2966.13,0.279961,0.27968,0.265317,2,0.0232633,10,7.42039e-05,-3.57623,-1.07731,-0.0547658,-0.566042,0.27968,
2,1,0,1,0,2966.43,0.281459,0.281187,0.264842,2,0.0233482,10,7.44702e-05,-3.57701,-4.72432,-0.0124886,-0.129113,0.281187,
2,1,0,1,0,2966.73,0.282957,0.282679,0.26654,2,0.0234331,10,7.53452e-05,-3.57424,20.447,0.00288551,0.0297263,0.282679,
2,1,0,0,0,2967.03,0.284456,0.284135,0.264192,2,0.023518,10,7.50663e-05,-3.57808,-1.05994,-0.0556633,-0.573796,0.284135,
2,1,0,0,0,2967.33,0.285954,0.285681,0.263972,2,0.0236028,10,7.54117e-05,-3.57844,-2.02819,-0.02909,-0.29886,0.285681,
2,1,0,0,0,2967.63,0.287452,0.287154,0.26297,2,0.0236872,10,7.55128e-05,-3.58009,-1.87037,-0.0315446,-0.323824,0.287154,
2,1,0,1,0,2967.93,0.28895,0.288642,0.26231,2,0.0237718,10,7.57136e-05,-3.58119,2.59132,0.0227684,0.232899,0.288642,
2,1,0,1,0,2968.23,0.290448,0.290153,0.261928,2,0.0238563,10,7.5999e-05,-3.58182,-2.56085,-0.0230392,-0.236288,0.290153,
2,1,0,1,0,2968.53,0.291947,0.291663,0.261419,2,0.0239406,10,7.62461e-05,-3.58266,-1.64395,-0.0358892,-0.369041,0.2916629,
2,1,0,1,0,2968.83,0.293445,0.293131,0.26065,2,0.0240247,10,7.64045e-05,-3.58394,-1.45075,-0.0406687,-0.415942,0.293131,
2,1,0,1,0,2969.13,0.294943,0.294666,0.26101,2,0.0241087,10,7.69107e-05,-3.58334,-2.07352,-0.028454,-0.290351,0.294666,
2,1,0,1,0,2969.43,0.296441,0.2961,0.262931,2,0.0241927,10,7.78538e-05,-3.58016,8.40501,0.00701962,0.0714464,0.2961,
2,1,0,1,0,2969.73,0.297939,0.297642,0.261629,2,0.0242766,10,7.78719e-05,-3.58231,-0.933833,-0.0631805,-0.640582,0.297642,
2,1,0,1,0,2970.03,0.299437,0.299121,0.259485,2,0.0243603,10,7.76174e-05,-3.58589,-0.00211382,-27.9116,-126.135,0.299121,
2,1,0,1,0,2970.2,0.299737,0.299451,0.0803944,2,0.0243969,10,2.40742e-05,-4.09477,0.000847647,69.6044,211.534,0.299451,
2,1,0,1,0,2970.5,0.29824,0.297976,0.0184785,2,0.0244021,10,5.50615e-06,-4.73333,0.00206753,28.5364,71.1128,0.297976,
2,1,0,0,0,2970.8,0.296741,0.296449,0.00105925,2,0.024399,10,3.14013e-07,-5.975,0.0138313,4.2657,9.29314,0.2964485,
2,1,0,0,0,2971.1,0.295243,0.294872,-0.00982691,2,0.0243919,10,-2.89768e-06,-5.00758,-0.00681987,-8.65119,6.30095,0.294872,
2,0,0,1,0,2971.4,0.293744,0.293431,-0.0201406,2,0.0243821,10,-5.9099e-06,-4.69593,-0.00675545,-8.73368,5.23797,0.293431,
2,0,0,1,0,2971.7,0.292246,0.291886,-0.0267934,2,0.02437,10,-7.82061e-06,-4.57197,-0.0119587,-4.93366,4.55769,0.2918857,
2,0,0,1,0,2972,0.290749,0.290451,-0.0320436,2,0.0243558,10,-9.3071e-06,-4.49426,-0.0176872,-3.33574,4.021,0.2904512,
2,0,0,1,0,2972.3,0.28925,0.288933,-0.0379006,2,0.0243397,10,-1.09508e-05,-4.42135,-0.0224804,-2.62451,3.65118,0.2889334,
2,0,0,1,0,2972.6,0.287752,0.287448,-0.0415137,2,0.0243222,10,-1.1933e-05,-4.38181,-0.0305956,-1.92838,3.14977,0.287448,
2,0,0,1,0,2972.9,0.286253,0.285951,-0.0468705,2,0.0243034,10,-1.34027e-05,-4.3291,-0.033085,-1.78328,3.23905,0.285951,
2,0,0,1,0,2973.2,0.284755,0.284484,-0.0520454,2,0.024283,10,-1.48061e-05,-4.28362,-0.0362757,-1.62643,3.16735,0.284484,
2,0,0,1,0,2973.49,0.283257,0.282913,-0.0557796,2,0.0242613,10,-1.57808e-05,-4.25352,-0.0491477,-1.20046,2.60153,0.282913,
2,0,0,0,0,2973.79,0.281759,0.28145,-0.0595684,2,0.0242385,10,-1.67655e-05,-4.22498,-0.057825,-1.02032,2.34487,0.28145,
2,0,0,0,0,2974.09,0.280261,0.279941,-0.0616193,2,0.0242145,10,-1.72498e-05,-4.21028,-0.0572662,-1.03028,2.49216,0.279941,
2,0,0,0,0,2974.39,0.278763,0.278505,-0.06631,2,0.0241896,10,-1.84677e-05,-4.17842,-0.0691725,-0.85294,2.20354,0.278505,
2,0,0,1,0,2974.69,0.277264,0.276975,-0.0701189,2,0.0241636,10,-1.94212e-05,-4.15417,-0.0908862,-0.649163,1.76193,0.276975,
2,0,0,1,0,2974.99,0.275766,0.275513,-0.073728,2,0.0241365,10,-2.0313e-05,-4.13237,-0.104652,-0.563772,1.58535,0.275513,
2,0,0,1,0,2975.29,0.274268,0.273968,-0.0760185,2,0.0241085,10,-2.08266e-05,-4.11908,-0.0863356,-0.68338,2.04068,0.273968,
2,0,0,1,0,2975.59,0.27277,0.272472,-0.0782798,2,0.0240797,10,-2.1329e-05,-4.10635,-0.0984262,-0.599434,1.86716,0.272472,
2,0,0,1,0,2975.89,0.271272,0.270955,-0.0823066,2,0.0240498,10,-2.23014e-05,-4.08457,-0.110548,-0.533705,1.69838,0.270955,
2,0,0,1,0,2976.19,0.269773,0.269461,-0.0859831,2,0.0240191,10,-2.31691e-05,-4.06559,-0.107701,-0.547811,1.78725,0.2694608,
2,0,0,1,0,2976.49,0.268275,0.26796,-0.088143,2,0.0239874,10,-2.36188e-05,-4.05481,-0.111825,-0.527608,1.78264,0.26796,
2,0,0,1,0,2976.79,0.266778,0.266435,-0.0902266,2,0.0239552,10,-2.40395e-05,-4.04467,-0.141242,-0.417722,1.46098,0.266435,
2,0,0,0,0,2977.09,0.265279,0.264936,-0.0913008,2,0.0239221,10,-2.41889e-05,-4.03953,-0.0990945,-0.595392,2.13502,0.264936,
2,0,0,0,0,2977.39,0.263781,0.263494,-0.0953585,2,0.0238882,10,-2.51264e-05,-4.02064,-0.147525,-0.399932,1.48713,0.263494,
2,0,0,1,0,2977.69,0.262282,0.261947,-0.0971754,2,0.0238536,10,-2.54548e-05,-4.01244,-0.12886,-0.457862,1.74775,0.261947,
2,0,0,1,0,2977.99,0.260784,0.260486,-0.0983138,2,0.0238185,10,-2.56094e-05,-4.00739,-0.160281,-0.368104,1.43258,0.260486,
2,0,0,1,0,2978.29,0.259286,0.258983,-0.102174,2,0.0237825,10,-2.64614e-05,-3.99066,-0.125672,-0.469477,1.86942,0.258983,
2,0,0,1,0,2978.59,0.257788,0.257484,-0.106566,2,0.0237458,10,-2.74389e-05,-3.97238,-0.159993,-0.368766,1.50197,0.2574839,
2,0,0,1,0,2978.89,0.25629,0.256002,-0.106471,2,0.0237084,10,-2.72569e-05,-3.97277,-0.159849,-0.369098,1.53535,0.256002,
2,0,0,1,0,2979.19,0.254791,0.254507,-0.107138,2,0.0236705,10,-2.72673e-05,-3.97006,-0.15606,-0.378059,1.59787,0.254507,
2,0,0,1,0,2979.49,0.253293,0.252964,-0.111652,2,0.0236319,10,-2.82441e-05,-3.95213,-0.158729,-0.371702,1.60808,0.252964,
2,0,0,1,0,2979.79,0.251795,0.251475,-0.112688,2,0.0235927,10,-2.83383e-05,-3.94812,-0.175494,-0.336193,1.49662,0.251475,
2,0,0,0,0,2980.09,0.250297,0.250031,-0.114897,2,0.0235527,10,-2.87279e-05,-3.93969,-0.304202,-0.19395,0.867111,0.250031,
2,0,0,0,0,2980.39,0.248799,0.248452,-0.117341,2,0.0235123,10,-2.91537e-05,-3.93055,-0.245753,-0.240079,1.11424,0.248452,
2,0,0,0,0,2980.69,0.247301,0.246978,-0.118586,2,0.0234713,10,-2.92882e-05,-3.92597,-0.146776,-0.401973,1.88011,0.246978,
2,0,0,1,0,2980.99,0.245802,0.245521,-0.121904,2,0.0234296,10,-2.993e-05,-3.91398,-0.175869,-0.335477,1.58809,0.245521,
2,0,0,1,0,2981.29,0.244304,0.244039,-0.123247,2,0.0233872,10,-3.00771e-05,-3.90922,-0.224584,-0.262708,1.26263,0.244039,
2,0,0,1,0,2981.58,0.242806,0.242517,-0.125136,2,0.0233443,10,-3.03476e-05,-3.90262,-0.225777,-0.26132,1.27022,0.242517,
2,0,0,1,0,2981.88,0.241308,0.241035,-0.126465,2,0.023301,10,-3.04825e-05,-3.89803,-0.258643,-0.228114,1.13896,0.241035,
2,0,0,1,0,2982.18,0.23981,0.239479,-0.12972,2,0.023257,10,-3.10653e-05,-3.88699,-0.148857,-0.396353,1.98718,0.239479,
2,0,0,1,0,2982.48,0.238311,0.238005,-0.129902,2,0.0232124,10,-3.09173e-05,-3.88638,-0.279854,-0.210825,1.08404,0.238005,
2,0,0,1,0,2982.78,0.236813,0.236493,-0.132072,2,0.0231672,10,-3.12341e-05,-3.87919,-0.186322,-0.316656,1.64828,0.2364932,
2,0,0,1,0,2983.08,0.235316,0.235037,-0.133284,2,0.0231216,10,-3.13267e-05,-3.87522,-0.207482,-0.284363,1.49848,0.235037,
2,0,0,0,0,2983.38,0.233817,0.233519,-0.137089,2,0.0230752,10,-3.20129e-05,-3.863,-0.284246,-0.207567,1.10348,0.233519,
2,0,0,0,0,2983.68,0.232319,0.231977,-0.138847,2,0.0230282,10,-3.22093e-05,-3.85746,-0.285932,-0.206343,1.1176,0.231977,
2,0,0,1,0,2983.98,0.23082,0.230537,-0.141568,2,0.0229807,10,-3.26367e-05,-3.84903,-0.394887,-0.14941,0.8206,0.230537,
2,0,0,1,0,2984.28,0.229322,0.228982,-0.14134,2,0.0229326,10,-3.23643e-05,-3.84974,-0.226563,-0.260413,1.44425,0.228982,
2,0,0,1,0,2984.58,0.227824,0.227534,-0.144505,2,0.0228842,10,-3.28797e-05,-3.84012,-0.285255,-0.206832,1.17081,0.227534,
2,0,0,1,0,2984.88,0.226326,0.22604,-0.145849,2,0.0228351,10,-3.29677e-05,-3.8361,-0.241634,-0.244171,1.39818,0.22604,
2,0,0,1,0,2985.18,0.224828,0.224544,-0.149458,2,0.0227853,10,-3.356e-05,-3.82548,-0.430389,-0.137085,0.788996,0.224544,
2,0,0,1,0,2985.48,0.223329,0.223,-0.149845,2,0.0227349,10,-3.34155e-05,-3.82436,-0.327489,-0.180159,1.05257,0.223,
2,0,0,1,0,2985.78,0.221831,0.221536,-0.15078,2,0.0226843,10,-3.34031e-05,-3.82166,-0.282939,-0.208526,1.23423,0.221536,
2,0,0,1,0,2986.08,0.220333,0.220057,-0.153792,2,0.0226329,10,-3.38429e-05,-3.81307,-0.249959,-0.236039,1.41345,0.2200571,
2,0,0,0,0,2986.38,0.218835,0.218502,-0.155743,2,0.0225807,10,-3.40302e-05,-3.80759,-0.293478,-0.201037,1.22757,0.218502,
2,0,0,0,0,2986.68,0.217337,0.216973,-0.158052,2,0.022528,10,-3.4293e-05,-3.8012,-0.258558,-0.228188,1.40624,0.216973,
2,0,0,0,0,2986.98,0.215839,0.215529,-0.159454,2,0.0224749,10,-3.4367e-05,-3.79736,-0.258473,-0.228264,1.42322,0.215529,
2,0,0,1,0,2987.28,0.21434,0.21405,-0.162195,2,0.0224209,10,-3.4718e-05,-3.78996,-0.195458,-0.301856,1.89786,0.21405,
2,0,0,1,0,2987.58,0.212842,0.212553,-0.163952,2,0.0223664,10,-3.48483e-05,-3.78528,-0.248439,-0.237483,1.51579,0.212553,
2,0,0,1,0,2987.88,0.211344,0.211021,-0.164707,2,0.0223113,10,-3.47566e-05,-3.78329,-0.268708,-0.219569,1.41616,0.2110211,
2,0,0,1,0,2988.18,0.209846,0.20959,-0.166064,2,0.0222557,10,-3.48053e-05,-3.77972,-0.251777,-0.234334,1.53195,0.20959,
2,0,0,1,0,2988.48,0.208348,0.208049,-0.169966,2,0.0221994,10,-3.53611e-05,-3.76964,-0.301243,-0.195855,1.29479,0.208049,
2,0,0,1,0,2988.78,0.206849,0.206558,-0.174991,2,0.0221421,10,-3.61458e-05,-3.75699,-0.243311,-0.242488,1.62965,0.206558,
2,0,0,1,0,2989.08,0.205351,0.205059,-0.17488,2,0.0220842,10,-3.58607e-05,-3.75726,-0.320156,-0.184285,1.25579,0.205059,
2,0,0,1,0,2989.38,0.203854,0.203539,-0.175611,2,0.0220259,10,-3.57438e-05,-3.75545,-0.274733,-0.214754,1.48363,0.2035394,
2,0,0,0,0,2989.68,0.202355,0.202084,-0.178567,2,0.021967,10,-3.60855e-05,-3.7482,-0.270912,-0.217783,1.53164,0.202084,
2,0,0,0,0,2989.97,0.200857,0.200522,-0.181673,2,0.0219071,10,-3.64295e-05,-3.74071,-0.218917,-0.269509,1.91142,0.200522,
2,0,0,1,0,2990.27,0.199358,0.199057,-0.183931,2,0.0218464,10,-3.66129e-05,-3.73534,-0.272317,-0.21666,1.55779,0.199057,
2,0,0,1,0,2990.57,0.19786,0.197537,-0.188236,2,0.0217851,10,-3.71836e-05,-3.7253,-0.226043,-0.261012,1.90115,0.197537,
2,0,0,1,0,2990.87,0.196363,0.196044,-0.189736,2,0.0217231,10,-3.71968e-05,-3.72185,-0.227942,-0.258838,1.91206,0.196044,
2,0,0,1,0,2991.17,0.194864,0.194533,-0.192746,2,0.0216602,10,-3.74955e-05,-3.71501,-0.306379,-0.192572,1.44447,0.194533,
2,0,0,1,0,2991.47,0.193366,0.193031,-0.194459,2,0.0215963,10,-3.75366e-05,-3.71117,-0.248508,-0.237417,1.80098,0.193031,
2,0,0,1,0,2991.77,0.191867,0.191571,-0.196689,2,0.0215317,10,-3.76798e-05,-3.70622,-0.322143,-0.183149,1.41801,0.191571,
2,0,0,1,0,2992.07,0.190369,0.190058,-0.199245,2,0.0214665,10,-3.7868e-05,-3.70061,-0.258944,-0.227849,1.78438,0.190058,
2,0,0,1,0,2992.37,0.188871,0.188559,-0.202028,2,0.0214001,10,-3.80941e-05,-3.69459,-0.185146,-0.318667,2.5273,0.1885587,
2,0,0,0,0,2992.67,0.187373,0.187069,-0.207191,2,0.0213327,10,-3.8759e-05,-3.68363,-0.213011,-0.276982,2.2422,0.187069,
2,0,0,0,0,2992.97,0.185875,0.18557,-0.210134,2,0.0212643,10,-3.89947e-05,-3.6775,-0.221779,-0.266031,2.17378,0.18557,
2,0,0,0,0,2993.27,0.184377,0.184076,-0.212216,2,0.0211949,10,-3.90639e-05,-3.67322,-0.227825,-0.258971,2.1577,0.1840762,
2,0,0,1,0,2993.57,0.182878,0.182573,-0.219297,2,0.0211245,10,-4.00378e-05,-3.65897,-0.171508,-0.344007,2.91477,0.182573,
2,0,0,1,0,2993.87,0.181381,0.181069,-0.221948,2,0.0210528,10,-4.01879e-05,-3.65375,-0.157119,-0.375511,3.23976,0.181069,
2,0,0,1,0,2994.17,0.179882,0.179583,-0.226244,2,0.0209796,10,-4.06296e-05,-3.64542,-0.219504,-0.268788,2.36955,0.179583,
2,0,0,1,0,2994.47,0.178384,0.178048,-0.231275,2,0.0209053,10,-4.1178e-05,-3.63587,-0.163168,-0.36159,3.27145,0.178048,
2,0,0,1,0,2994.77,0.176886,0.176558,-0.235879,2,0.0208297,10,-4.16463e-05,-3.62731,-0.164193,-0.359332,3.30996,0.1765579,
2,0,0,1,0,2995.07,0.175387,0.17506,-0.24127,2,0.0207524,10,-4.22368e-05,-3.6175,-0.157431,-0.374768,3.52483,0.17506,
2,0,0,1,0,2995.37,0.173889,0.173566,-0.246923,2,0.0206736,10,-4.28576e-05,-3.60744,-0.147697,-0.399465,3.84217,0.173566,
2,0,0,1,0,2995.67,0.172392,0.172099,-0.254089,2,0.0205929,10,-4.37285e-05,-3.59501,-0.133006,-0.443589,4.38018,0.172099,
2,0,0,0,0,2995.97,0.170893,0.170622,-0.259574,2,0.0205107,10,-4.4289e-05,-3.58574,-0.139392,-0.423265,4.29609,0.170622,
2,0,0,0,0,2996.27,0.169395,0.169089,-0.266299,2,0.0204263,10,-4.50284e-05,-3.57463,-0.125678,-0.469453,4.86662,0.169089,
2,0,0,1,0,2996.57,0.167896,0.167591,-0.273187,2,0.0203395,10,-4.57837e-05,-3.56354,-0.112193,-0.525878,5.63833,0.167591,
2,0,0,1,0,2996.87,0.166398,0.166005,-0.280779,2,0.0202505,10,-4.66106e-05,-3.55164,-0.118813,-0.496577,5.48404,0.166005,
2,0,0,1,0,2997.17,0.164901,0.16453,-0.289354,2,0.0201591,10,-4.76075e-05,-3.53857,-0.107781,-0.547405,6.2471,0.16453,
2,0,0,1,0,2997.47,0.163402,0.163127,-0.299466,2,0.0200647,10,-4.88509e-05,-3.52365,-0.0939128,-0.628243,7.35949,0.1631268,
2,0,0,1,0,2997.77,0.161904,0.161584,-0.311059,2,0.019967,10,-5.02621e-05,-3.50716,-0.0924091,-0.638465,7.75968,0.1615839,
2,0,0,1,0,2998.07,0.160405,0.160121,-0.323955,2,0.0198657,10,-5.18721e-05,-3.48951,-0.0871939,-0.676653,8.54291,0.160121,
2,0,0,1,0,2998.36,0.158907,0.158573,-0.334717,2,0.0197609,10,-5.30771e-05,-3.47532,-0.0778561,-0.757808,10.0024,0.158573,
2,0,0,1,0,2998.66,0.157409,0.157101,-0.351082,2,0.0196519,10,-5.51553e-05,-3.45459,-0.0723569,-0.815403,11.2791,0.157101,
2,0,0,0,0,2998.96,0.155911,0.155596,-0.368179,2,0.0195378,10,-5.72872e-05,-3.43394,-0.07569,-0.779496,11.2835,0.155596,
2,0,0,0,0,2999.26,0.154413,0.15413,-0.385963,2,0.0194186,10,-5.94886e-05,-3.41345,-0.0795191,-0.74196,11.2101,0.15413,
2,0,0,0,0,2999.56,0.152915,0.152591,-0.406032,2,0.0192939,10,-6.19567e-05,-3.39144,-0.0703061,-0.839187,13.335,0.152591,
2,0,0,1,0,2999.86,0.151416,0.151106,-0.427502,2,0.0191636,10,-6.4598e-05,-3.36906,-0.0670501,-0.879939,14.7312,0.151106,
2,0,0,1,0,3000.16,0.149919,0.149629,-0.450831,2,0.0190262,10,-6.74574e-05,-3.34599,-0.0622279,-0.948128,16.6891,0.149629,
2,0,0,1,0,3000.46,0.14842,0.148134,-0.47589,2,0.0188814,10,-7.04953e-05,-3.32249,-0.0626079,-0.942372,17.5171,0.148134,
2,0,0,1,0,3000.76,0.146922,0.146613,-0.50145,2,0.0187288,10,-7.35191e-05,-3.29977,-0.0645628,-0.913838,17.9061,0.146613,
2,0,0,1,0,3001.06,0.145424,0.145104,-0.528589,2,0.0185688,10,-7.67004e-05,-3.27688,-0.066322,-0.889599,18.4008,0.145104,
2,0,0,1,0,3001.36,0.143925,0.143615,-0.55689,2,0.0183999,10,-7.99779e-05,-3.25423,-0.0642471,-0.918329,19.8901,0.143615,
2,0,0,1,0,3001.66,0.142427,0.142165,-0.587535,2,0.0182221,10,-8.35267e-05,-3.23097,-0.069714,-0.846314,19.3368,0.142165,
2,0,0,1,0,3001.96,0.14093,0.140623,-0.613683,2,0.0180361,10,-8.62981e-05,-3.21206,-0.085431,-0.690616,16.5013,0.140623,
2,0,0,0,0,3002.26,0.139431,0.139088,-0.635597,2,0.0178422,10,-8.84042e-05,-3.19682,-0.0883738,-0.667619,16.6306,0.139088,
2,0,0,0,0,3002.56,0.137933,0.137623,-0.663894,2,0.0176412,10,-9.13671e-05,-3.1779,-0.098653,-0.598056,15.4403,0.137623,
2,0,0,1,0,3002.86,0.136434,0.13613,-0.688191,2,0.0174325,10,-9.36832e-05,-3.16229,-0.112993,-0.522155,13.9198,0.1361296,
2,0,0,1,0,3003.16,0.134936,0.134603,-0.70557,2,0.0172175,10,-9.49717e-05,-3.15146,-0.138931,-0.424672,11.638,0.134603,
2,0,0,1,0,3003.46,0.133439,0.133153,-0.721001,2,0.0169974,10,-9.60033e-05,-3.14206,-0.161275,-0.365835,10.2747,0.133153,
2,0,0,1,0,3003.76,0.13194,0.131654,-0.735578,2,0.0167729,10,-9.68417e-05,-3.13337,-0.186335,-0.316634,9.09979,0.131654,
2,0,0,1,0,3004.06,0.130442,0.130138,-0.747621,2,0.0165444,10,-9.72936e-05,-3.12632,-0.263213,-0.224153,6.51464,0.130138,
2,0,0,1,0,3004.36,0.128943,0.128627,-0.754615,2,0.0163128,10,-9.7064e-05,-3.12227,-0.447744,-0.131772,3.86666,0.128627,
2,0,0,1,0,3004.66,0.127445,0.127147,-0.761527,2,0.0160795,10,-9.68259e-05,-3.11831,-0.699703,-0.0843215,2.4985,0.127147,
2,0,0,1,0,3004.96,0.125947,0.125628,-0.764338,2,0.0158457,10,-9.60222e-05,-3.11671,-1.79952,-0.0327864,0.974215,0.125628,
2,0,0,0,0,3005.26,0.124449,0.124121,-0.764466,2,0.0156107,10,-9.48861e-05,-3.11664,-6.2402,-0.00945482,0.280592,0.124121,
2,0,0,0,0,3005.56,0.122951,0.122654,-0.764766,2,0.0153758,10,-9.38018e-05,-3.11647,1.99904,0.0295142,-0.87784,0.122654,
2,0,0,0,0,3005.86,0.121453,0.121141,-0.761774,2,0.0151416,10,-9.22821e-05,-3.11817,0.649446,0.0908466,-2.68989,0.121141,
2,0,0,1,0,3006.16,0.119954,0.119674,-0.754812,2,0.0149086,10,-9.03315e-05,-3.12216,0.557301,0.105867,-3.12749,0.119674,
2,0,0,1,0,3006.45,0.118456,0.118182,-0.749861,2,0.0146771,10,-8.86204e-05,-3.12502,0.714929,0.0825256,-2.41802,0.118182,
2,0,0,1,0,3006.75,0.116958,0.116625,-0.747899,2,0.0144465,10,-8.72236e-05,-3.12616,0.443691,0.132975,-3.87091,0.116625,
2,0,0,1,0,3007.05,0.11546,0.115121,-0.739749,2,0.0142177,10,-8.51607e-05,-3.13092,0.325768,0.18111,-5.226,0.115121,
2,0,0,1,0,3007.35,0.113962,0.113657,-0.727171,2,0.0139917,10,-8.26478e-05,-3.13836,0.31405,0.187868,-5.37069,0.113657,
2,0,0,1,0,3007.65,0.112463,0.112143,-0.725383,2,0.0137677,10,-8.1347e-05,-3.13943,0.319207,0.184833,-5.21518,0.112143,
2,0,0,1,0,3007.95,0.110965,0.110671,-0.716091,2,0.0135457,10,-7.92502e-05,-3.14503,0.33922,0.173928,-4.86275,0.1106706,
2,0,0,1,0,3008.25,0.109468,0.109151,-0.707752,2,0.0133262,10,-7.7252e-05,-3.15012,0.243387,0.242412,-6.68338,0.109151,
2,0,0,0,0,3008.55,0.107969,0.107689,-0.698542,2,0.0131091,10,-7.52251e-05,-3.15581,0.2828,0.208628,-5.70015,0.107689,
2,0,0,0,0,3008.85,0.106471,0.106197,-0.69082,2,0.0128954,10,-7.33628e-05,-3.16064,0.290719,0.202945,-5.48574,0.106197,
2,0,0,1,0,3009.15,0.104972,0.104674,-0.682139,2,0.0126836,10,-7.1402e-05,-3.16613,0.311899,0.189164,-5.02811,0.104674,
2,0,0,1,0,3009.45,0.103474,0.103194,-0.67382,2,0.0124741,10,-6.9534e-05,-3.17146,0.253861,0.23241,-6.08525,0.103194,
2,0,0,1,0,3009.75,0.101977,0.101673,-0.665453,2,0.0122676,10,-6.76588e-05,-3.17688,0.237168,0.248769,-6.45194,0.101673,
2,0,0,1,0,3010.05,0.100478,0.100138,-0.654011,2,0.0120644,10,-6.54911e-05,-3.18442,0.259014,0.227787,-5.8207,0.100138,
2,0,0,1,0,3010.35,0.0989798,0.0986753,-0.645859,2,0.0118635,10,-6.37303e-05,-3.18986,0.259617,0.227258,-5.72593,0.0986753,
2,0,0,1,0,3010.65,0.0974812,0.0971756,-0.636303,2,0.0116653,10,-6.18331e-05,-3.19634,0.256877,0.229682,-5.71757,0.0971756,
2,0,0,1,0,3010.95,0.0959834,0.0956783,-0.629515,2,0.0114696,10,-6.02309e-05,-3.20099,0.282366,0.208949,-5.13604,0.0956783,
2,0,0,1,0,3011.25,0.0944855,0.0941804,-0.618184,2,0.0112769,10,-5.82208e-05,-3.20888,0.270167,0.218384,-5.29949,0.0941804,
2,0,0,0,0,3011.55,0.0929871,0.0927232,-0.611766,2,0.0110861,10,-5.67249e-05,-3.21341,0.332775,0.177297,-4.23951,0.0927232,
2,0,0,0,0,3011.85,0.0914889,0.0911347,-0.607821,2,0.0108973,10,-5.53936e-05,-3.21622,0.297814,0.19811,-4.67935,0.0911347,
2,0,0,0,0,3012.15,0.0899907,0.0896417,-0.598715,2,0.0107108,10,-5.36698e-05,-3.22278,0.262032,0.225164,-5.24978,0.0896417,
2,0,0,1,0,3012.45,0.0884923,0.0881591,-0.589648,2,0.0105266,10,-5.19828e-05,-3.22941,0.309474,0.190646,-4.40144,0.0881591,
2,0,0,1,0,3012.75,0.0869945,0.0866685,-0.585278,2,0.0103446,10,-5.07252e-05,-3.23264,0.342953,0.172035,-3.93456,0.0866685,
2,0,0,1,0,3013.05,0.0854961,0.0851392,-0.579467,2,0.010164,10,-4.93354e-05,-3.23697,0.35439,0.166483,-3.76566,0.0851392,
2,0,0,1,0,3013.35,0.083998,0.0836822,-0.572655,2,0.00998506,10,-4.7921e-05,-3.24211,0.278689,0.211706,-4.73404,0.0836822,
2,0,0,1,0,3013.65,0.0824998,0.0821923,-0.569351,2,0.00980785,10,-4.67963e-05,-3.24462,0.417699,0.14125,-3.13774,0.0821923,
2,0,0,1,0,3013.95,0.0810013,0.0806801,-0.565033,2,0.0096326,10,-4.5587e-05,-3.24793,0.447014,0.131987,-2.91295,0.0806801,
2,0,0,1,0,3014.25,0.0795035,0.0791787,-0.558924,2,0.0094582,10,-4.42549e-05,-3.25265,0.50999,0.115688,-2.52385,0.0791787,
2,0,0,1,0,3014.55,0.0780056,0.0776734,-0.556879,2,0.00928505,10,-4.32547e-05,-3.25424,0.437569,0.134836,-2.91778,0.0776734,
2,0,0,0,0,3014.84,0.076507,0.0762085,-0.550809,2,0.00911319,10,-4.19763e-05,-3.259,0.469015,0.125796,-2.70414,0.0762085,
2,0,0,0,0,3015.14,0.0750088,0.0746857,-0.546411,2,0.00894321,10,-4.08091e-05,-3.26248,0.430782,0.13696,-2.9221,0.0746857,
2,0,0,1,0,3015.44,0.0735103,0.0732007,-0.541171,2,0.00877423,10,-3.96141e-05,-3.26667,0.63036,0.0935973,-1.97516,0.07320071,
2,0,0,1,0,3015.74,0.0720124,0.0716774,-0.537193,2,0.00860635,10,-3.85046e-05,-3.26987,0.5619,0.105001,-2.20704,0.0716774,
2,0,0,1,0,3016.04,0.0705146,0.0702176,-0.532915,2,0.00843982,10,-3.742e-05,-3.27334,0.427797,0.137916,-2.87824,0.0702176,
2,0,0,1,0,3016.34,0.069016,0.0687199,-0.527925,2,0.00827465,10,-3.62789e-05,-3.27743,0.533494,0.110592,-2.28966,0.0687199,
2,0,0,1,0,3016.64,0.0675179,0.0671908,-0.52651,2,0.00811061,10,-3.53766e-05,-3.27859,0.540423,0.109174,-2.23884,0.0671908,
2,0,0,1,0,3016.94,0.0660192,0.0657226,-0.524048,2,0.00794765,10,-3.44418e-05,-3.28063,0.415956,0.141842,-2.87956,0.06572257,
2,0,0,1,0,3017.24,0.0645214,0.0642162,-0.517337,2,0.00778595,10,-3.32214e-05,-3.28623,0.379405,0.155507,-3.12881,0.0642162,
2,0,0,1,0,3017.54,0.0630235,0.0627509,-0.510557,2,0.00762582,10,-3.20379e-05,-3.29196,0.369287,0.159767,-3.19544,0.0627509,
2,0,0,0,0,3017.84,0.0615251,0.0611602,-0.509389,2,0.00746709,10,-3.11543e-05,-3.29295,0.365339,0.161494,-3.20752,0.0611602,
2,0,0,0,0,3018.14,0.0600269,0.0597149,-0.504019,2,0.00730949,10,-3.00975e-05,-3.29755,0.405539,0.145486,-2.86801,0.0597149,
2,0,0,0,0,3018.44,0.0585287,0.0582303,-0.49981,2,0.00715324,10,-2.91041e-05,-3.3012,0.28361,0.208032,-4.04668,0.0582303,
2,0,0,1,0,3018.74,0.0570303,0.0567508,-0.49455,2,0.00699832,10,-2.80661e-05,-3.30579,0.348313,0.169388,-3.27675,0.05675083,
2,0,0,1,0,3019.04,0.0555325,0.0552516,-0.489909,2,0.00684533,10,-2.70682e-05,-3.30988,0.366502,0.160981,-3.07692,0.0552516,
2,0,0,1,0,3019.34,0.0540341,0.0537469,-0.485349,2,0.00669336,10,-2.6086e-05,-3.31395,0.395607,0.149138,-2.81799,0.05374692,
2,0,0,1,0,3019.64,0.052536,0.0522178,-0.481536,2,0.00654254,10,-2.51447e-05,-3.31737,0.362941,0.162561,-3.04281,0.0522178,
2,0,0,1,0,3019.94,0.0510378,0.0507629,-0.477206,2,0.00639322,10,-2.42244e-05,-3.32129,0.311228,0.189572,-3.52103,0.0507629,
2,0,0,1,0,3020.24,0.0495394,0.0492539,-0.470659,2,0.00624578,10,-2.31818e-05,-3.32729,0.319202,0.184836,-3.39342,0.04925387,
2,0,0,1,0,3020.54,0.0480415,0.047763,-0.465919,2,0.00609969,10,-2.22537e-05,-3.33169,0.450642,0.130924,-2.3732,0.047763,
2,0,0,1,0,3020.84,0.0465436,0.0462185,-0.461384,2,0.00595487,10,-2.13245e-05,-3.33594,0.367104,0.160717,-2.89103,0.0462185,
2,0,0,0,0,3021.14,0.045045,0.0447038,-0.455883,2,0.0058114,10,-2.03797e-05,-3.34115,0.319032,0.184934,-3.29656,0.0447038,
2,0,0,0,0,3021.44,0.0435468,0.0432637,-0.449359,2,0.00566974,10,-1.94409e-05,-3.34741,0.31807,0.185494,-3.27449,0.0432637,
2,0,0,1,0,3021.74,0.0420483,0.0417577,-0.448077,2,0.00552926,10,-1.87107e-05,-3.34865,0.412809,0.142923,-2.49253,0.0417577,
2,0,0,1,0,3022.04,0.0405504,0.0402659,-0.445005,2,0.00538995,10,-1.79185e-05,-3.35164,0.40888,0.144297,-2.4866,0.0402659,
2,0,0,1,0,3022.34,0.0390526,0.0387446,-0.438985,2,0.00525194,10,-1.70083e-05,-3.35755,0.347894,0.169592,-2.89506,0.0387446,
2,0,0,1,0,3022.64,0.0375541,0.0372576,-0.431707,2,0.00511545,10,-1.60844e-05,-3.36481,0.396444,0.148823,-2.52576,0.0372576,
2,0,0,1,0,3022.93,0.0360559,0.0357423,-0.429652,2,0.00498043,10,-1.53567e-05,-3.36688,0.409188,0.144188,-2.42323,0.0357423,
2,0,0,1,0,3023.23,0.0345572,0.0342339,-0.424894,2,0.00484631,10,-1.45458e-05,-3.37172,0.389276,0.151564,-2.52455,0.0342339,
2,0,0,1,0,3023.53,0.0330594,0.0326978,-0.423323,2,0.00471333,10,-1.38417e-05,-3.37333,0.340795,0.173125,-2.84941,0.0326978,
2,0,0,1,0,3023.83,0.0315615,0.0312389,-0.419571,2,0.00458135,10,-1.3107e-05,-3.37719,0.477877,0.123463,-2.0214,0.03123891,
2,0,0,0,0,3024.13,0.0300631,0.0297213,-0.417578,2,0.0044506,10,-1.2411e-05,-3.37926,0.472962,0.124746,-2.0262,0.0297213,
2,0,0,0,0,3024.43,0.0285649,0.0282664,-0.414284,2,0.0043205,10,-1.17103e-05,-3.3827,0.751991,0.0784584,-1.26559,0.0282664,
2,0,0,0,0,3024.73,0.0270667,0.0267617,-0.412696,2,0.00419108,10,-1.10445e-05,-3.38437,0.626541,0.0941677,-1.51063,0.0267617,
2,0,0,1,0,3025.03,0.0255683,0.0252388,-0.409394,2,0.00406236,10,-1.03326e-05,-3.38786,0.512127,0.115206,-1.84089,0.0252388,
2,0,0,1,0,3025.33,0.0240706,0.0237525,-0.406541,2,0.00393476,10,-9.65637e-06,-3.3909,0.696679,0.0846875,-1.34624,0.0237525,
2,0,0,1,0,3025.63,0.0225722,0.0222529,-0.403647,2,0.00380751,10,-8.9823e-06,-3.394,-15.5058,-0.00380502,0.0600854,0.02225285,
2,0,0,1,0,3025.93,0.021074,0.0207545,-0.403383,2,0.00368078,10,-8.37202e-06,-3.39428,0.958128,0.0615784,-0.974223,0.0207545,
2,0,0,1,0,3026.23,0.0195758,0.0192583,-0.403157,2,0.00355434,10,-7.7641e-06,-3.39453,1.19928,0.0491964,-0.77188,0.0192583,
2,0,0,1,0,3026.53,0.0180774,0.0177427,-0.400391,2,0.00342828,10,-7.10404e-06,-3.39752,1.62998,0.0361969,-0.565846,0.0177427,
2,0,0,1,0,3026.83,0.0165795,0.0163061,-0.401063,2,0.00330273,10,-6.5398e-06,-3.39679,3.24017,0.0182089,-0.284822,0.0163061,
2,0,0,1,0,3027.13,0.0150817,0.0147518,-0.402036,2,0.00317706,10,-5.93077e-06,-3.39573,-3.60447,-0.0163686,0.255531,0.0147518,
2,0,0,0,0,3027.43,0.013583,0.0132829,-0.399455,2,0.00305132,10,-5.30591e-06,-3.39853,2.08767,0.0282611,-0.441392,0.0132829,
2,0,0,0,0,3027.73,0.0120848,0.0117548,-0.400268,2,0.00292585,10,-4.70508e-06,-3.39765,7.88623,0.00748139,-0.117098,0.0117548,
2,0,0,1,0,3028.03,0.0105863,0.0102998,-0.400851,2,0.00280041,10,-4.12867e-06,-3.39702,-1.90003,-0.0310521,0.486451,0.0102998,
2,0,0,1,0,3028.33,0.00908845,0.00874759,-0.401287,2,0.00267471,10,-3.51029e-06,-3.39655,-1.95669,-0.030153,0.472705,0.00874759,
2,0,0,1,0,3028.63,0.0075906,0.00728444,-0.402372,2,0.0025487,10,-2.93105e-06,-3.39537,-2.30899,-0.0255523,0.399948,0.00728444,
2,0,0,1,0,3028.93,0.00609208,0.00577413,-0.403214,2,0.00242245,10,-2.32821e-06,-3.39446,-1.19026,-0.0495691,0.779312,0.00577413,
2,0,0,1,0,3029.23,0.00459389,0.0042885,-0.405511,2,0.00229617,10,-1.73904e-06,-3.392,-1.75854,-0.0335506,0.528918,0.0042885,
2,0,0,1,0,3029.53,0.00309525,0.00276223,-0.406073,2,0.00216918,10,-1.12167e-06,-3.3914,-0.715199,-0.0824945,1.30297,0.00276223,
2,0,0,1,0,3029.83,0.00159739,0.00122277,-0.411122,2,0.00203974,10,-5.02707e-07,-3.38603, , , ,0.00122277,
2,0,0,0,0,3030.11,0.000199195,-0.000140177,-0.408694,2,0.0019201,10,5.72893e-08,-3.3886, , , ,-0.000140177,