File: Figure_codes/Fig_3-5/rawdata_trumpetplot_data/after 10th/20221101_1-115_003_TrumpetPlot_ParaChange_from10_every3_09_CV_C01_5.csv
mode,ox/red,error,control changes,counter inc.,time/s,control/V,Ewe/V,<I>/mA,cycle number,(Q-Qo)/C,I Range,P/W,log(|I|),Tafel slope mV/dec,alpha_eff,dI/d(E-IR),E-IR/V,
2,0,0,0,0,11033.2,2.44065e-05,-0.000287149,-5.34729,6,0.0000000E+000,10,1.53547e-06,-2.27187, , , ,-0.0002871489,
2,0,0,1,0,11033.2,0.00179726,0.00143403,-2.36309,6,-6.43075e-05,10,-3.38875e-06,-2.62652, , , ,0.00143403,
2,0,0,1,0,11033.2,0.00379485,0.00349338,-0.37622,6,-8.95464e-05,10,-1.31428e-06,-3.42456,-0.00925957,-6.37179,799.769,0.00349338,
2,1,0,1,0,11033.2,0.00579244,0.00547141,0.865881,6,-8.35929e-05,10,4.73759e-06,-3.06254,0.00599317,9.84454,529.516,0.00547141,
2,1,0,1,0,11033.2,0.00779002,0.00743823,1.71264,6,-5.71087e-05,10,1.2739e-05,-2.76633,0.00936235,6.30184,363.213,0.00743823,
2,1,0,1,0,11033.3,0.00978761,0.00948556,2.32387,6,-1.63511e-05,10,2.20432e-05,-2.63379,0.0193505,3.04902,261.987,0.00948556,
2,1,0,1,0,11033.3,0.0117852,0.0114971,2.77601,6,3.50347e-05,10,3.19161e-05,-2.55658,0.0305269,1.93272,203.935,0.0114971,
2,1,0,1,0,11033.3,0.0137828,0.0134032,3.12282,6,9.42162e-05,10,4.18559e-05,-2.50545,0.0453758,1.30025,156.194,0.0134032,
2,1,0,1,0,11033.3,0.0157804,0.0154998,3.40121,6,0.000159606,10,5.27181e-05,-2.46837,0.0618986,0.953172,125.385,0.0154998,
2,1,0,1,0,11033.3,0.017778,0.0174578,3.63121,6,0.000229763,10,6.3393e-05,-2.43995,0.0792359,0.744612,104.736,0.01745783,
2,1,0,1,0,11033.4,0.0197755,0.0194508,3.81502,6,0.00030432,10,7.42052e-05,-2.4185,0.099229,0.594584,88.2931,0.0194508,
2,1,0,1,0,11033.4,0.0217731,0.0214554,3.98417,6,0.000382443,10,8.54818e-05,-2.39966,0.113275,0.520854,80.7957,0.0214554,
2,1,0,1,0,11033.4,0.0237707,0.0234587,4.13885,6,0.00046378,10,9.7092e-05,-2.38312,0.129356,0.456105,73.486,0.0234587,
2,1,0,1,0,11033.4,0.0257683,0.0254261,4.27596,6,0.000547626,10,0.000108721,-2.36897,0.143592,0.410887,68.5443,0.0254261,
2,1,0,1,0,11033.4,0.0277659,0.0274597,4.41309,6,0.000634594,10,0.000121182,-2.35526,0.157722,0.374076,64.2933,0.0274597,
2,1,0,1,0,11033.5,0.0297635,0.029447,4.53447,6,0.000724181,10,0.000133527,-2.34347,0.173118,0.340808,60.2917,0.029447,
2,1,0,1,0,11033.5,0.0317611,0.0314724,4.65502,6,0.000816206,10,0.000146505,-2.33208,0.1707,0.345636,62.8639,0.0314724,
2,1,0,1,0,11033.5,0.0337586,0.0334883,4.78852,6,0.000910214,10,0.000160359,-2.3198,0.17767,0.332077,61.8945,0.03348827,
2,1,0,1,0,11033.5,0.0357562,0.0354099,4.89873,6,0.0010072,10,0.000173463,-2.30992,0.19817,0.297724,56.9224,0.0354099,
2,1,0,1,0,11033.5,0.0377538,0.0373987,5.01111,6,0.00110647,10,0.000187409,-2.30007,0.202218,0.291765,57.0766,0.0373987,
2,1,0,1,0,11033.6,0.0397514,0.0394302,5.1282,6,0.00120793,10,0.000202206,-2.29004,0.189997,0.310531,62.2525,0.0394302,
2,1,0,1,0,11033.6,0.041749,0.0414685,5.26447,6,0.00131136,10,0.00021831,-2.27865,0.204006,0.289207,59.2114,0.0414685,
2,1,0,1,0,11033.6,0.0437466,0.0434415,5.36571,6,0.0014177,10,0.000233094,-2.27037,0.237485,0.248436,52.0459,0.04344146,
2,1,0,1,0,11033.6,0.0457442,0.0454704,5.47275,6,0.00152613,10,0.000248848,-2.26179,0.227096,0.259803,55.5201,0.0454704,
2,1,0,1,0,11033.6,0.0477418,0.047432,5.58727,6,0.00163679,10,0.000265015,-2.2528,0.214812,0.274658,59.9276,0.047432,
2,1,0,1,0,11033.7,0.0497484,0.0494366,5.71044,6,0.00174975,10,0.000282305,-2.24333,0.229627,0.256939,57.1526,0.0494366,
2,1,0,1,0,11033.7,0.0517369,0.0513884,5.81339,6,0.0018644,10,0.000298741,-2.23557,0.25154,0.234555,53.2415,0.0513884,
2,1,0,1,0,11033.7,0.0537345,0.0534349,5.92332,6,0.00198176,10,0.000316512,-2.22744,0.259474,0.227383,52.5253,0.0534349,
2,1,0,1,0,11033.7,0.0557321,0.0554329,6.02582,6,0.00210134,10,0.000334029,-2.21998,0.274371,0.215037,50.5503,0.0554329,
2,1,0,1,0,11033.7,0.0577206,0.0574199,6.12476,6,0.00222228,10,0.000351683,-2.21291,0.261477,0.225641,54.0031,0.0574199,
2,1,0,1,0,11033.8,0.0597273,0.0594067,6.24042,6,0.00234609,10,0.000370723,-2.20479,0.262612,0.224666,54.6596,0.0594067,
2,1,0,1,0,11033.8,0.0617249,0.0614399,6.34449,6,0.00247196,10,0.000389805,-2.1976,0.30141,0.195747,48.4178,0.0614399,
2,1,0,1,0,11033.8,0.0637224,0.0634549,6.43643,6,0.00259982,10,0.000408423,-2.19136,0.302985,0.194729,48.9593,0.0634549,
2,1,0,1,0,11033.8,0.06572,0.0654556,6.5411,6,0.00272961,10,0.000428152,-2.18435,0.276928,0.213051,54.409,0.0654556,
2,1,0,1,0,11033.8,0.0677176,0.0674197,6.65215,6,0.00286104,10,0.000448486,-2.17704,0.314792,0.187426,48.5397,0.0674197,
2,1,0,1,0,11033.9,0.0697152,0.0693836,6.73176,6,0.00299496,10,0.000467074,-2.17187,0.345685,0.170676,44.9011,0.0693836,
2,1,0,1,0,11033.9,0.0717128,0.0713932,6.83056,6,0.00313067,10,0.000487655,-2.16554,0.320264,0.184223,49.1078,0.0713932,
2,1,0,1,0,11033.9,0.0737104,0.0734177,6.92986,6,0.00326828,10,0.000508775,-2.15928,0.339283,0.173896,46.9933,0.0734177,
2,1,0,1,0,11033.9,0.075708,0.0754053,7.0191,6,0.0034071,10,0.000529278,-2.15372,0.36961,0.159628,43.7082,0.0754053,
2,1,0,1,0,11033.9,0.0777056,0.0773761,7.10288,6,0.00354829,10,0.000549593,-2.14857,0.377841,0.15615,43.2947,0.0773761,
2,1,0,1,0,11034,0.0797031,0.0793625,7.19043,6,0.00369128,10,0.00057065,-2.14325,0.384466,0.15346,43.0599,0.0793625,
2,1,0,1,0,11034,0.0817007,0.0814287,7.27738,6,0.00383601,10,0.000592588,-2.13802,0.402017,0.14676,41.6653,0.0814287,
2,1,0,1,0,11034,0.0836983,0.0834136,7.35922,6,0.00398162,10,0.000613859,-2.13317,0.421021,0.140135,40.2324,0.0834136,
2,1,0,1,0,11034,0.0856959,0.0853697,7.43594,6,0.00412956,10,0.000634804,-2.12866,0.433405,0.136131,39.5141,0.0853697,
2,1,0,1,0,11034,0.0876935,0.0873929,7.51646,6,0.00427909,10,0.000656885,-2.12399,0.444941,0.132602,38.8835,0.0873929,
2,1,0,1,0,11034.1,0.0896911,0.0893813,7.59192,6,0.00443016,10,0.000678576,-2.11965,0.405557,0.145479,43.1597,0.0893813,
2,1,0,1,0,11034.1,0.0916887,0.0913615,7.68774,6,0.00458217,10,0.000702363,-2.1142,0.39486,0.14942,44.7927,0.0913615,
2,1,0,1,0,11034.1,0.0936862,0.0933878,7.77138,6,0.00473679,10,0.000725752,-2.1095,0.413513,0.14268,43.293,0.0933878,
2,1,0,1,0,11034.1,0.0956838,0.0953997,7.86257,6,0.00489319,10,0.000750087,-2.10444,0.363775,0.162188,49.824,0.0953997,
2,1,0,1,0,11034.1,0.0976814,0.0974221,7.97239,6,0.00505156,10,0.000776687,-2.09841,0.310772,0.18985,59.1228,0.09742213,
2,1,0,1,0,11034.2,0.099679,0.0993785,8.0978,6,0.0052114,10,0.000804748,-2.09163,0.312299,0.188922,59.6446,0.0993785,
2,1,0,1,0,11034.2,0.101677,0.101371,8.2079,6,0.00537453,10,0.00083204,-2.08577,0.306213,0.192677,61.8149,0.101371,
2,1,0,1,0,11034.2,0.103674,0.103369,8.3445,6,0.00554013,10,0.000862566,-2.0786,0.266944,0.221021,72.0201,0.103369,
2,1,0,1,0,11034.2,0.105672,0.105324,8.49261,6,0.00570851,10,0.000894474,-2.07096,0.243615,0.242185,80.3735,0.1053238,
2,1,0,1,0,11034.2,0.107667,0.107353,8.66465,6,0.00587916,10,0.000930174,-2.06225,0.231362,0.255012,86.2343,0.107353,
2,1,0,1,0,11034.3,0.109667,0.109343,8.8392,6,0.00605418,10,0.000966505,-2.05359,0.232567,0.25369,87.5107,0.109343,
2,1,0,1,0,11034.3,0.111665,0.111359,9.01527,6,0.00623272,10,0.00100394,-2.04502,0.23609,0.249905,87.9284,0.111359,
2,1,0,1,0,11034.3,0.113662,0.11338,9.19417,6,0.00641487,10,0.00104243,-2.03649,0.235114,0.250942,90.0257,0.11338,
2,1,0,1,0,11034.3,0.11566,0.11532,9.37187,6,0.00660054,10,0.00108077,-2.02817,0.228175,0.258574,94.6401,0.1153204,
2,1,0,1,0,11034.3,0.117657,0.117298,9.56498,6,0.00678903,10,0.00112196,-2.01932,0.242296,0.243504,90.7745,0.117298,
2,1,0,1,0,11034.4,0.119655,0.119314,9.73442,6,0.00698208,10,0.00116146,-2.01169,0.272614,0.216423,82.1839,0.119314,
2,1,0,1,0,11034.4,0.121652,0.121341,9.8972,6,0.00717843,10,0.00120093,-2.00449,0.287402,0.205287,79.2679,0.121341,
2,1,0,1,0,11034.4,0.12365,0.123362,10.0553,6,0.00737797,10,0.00124044,-1.99761,0.289182,0.204023,80.0604,0.123362,
2,1,0,1,0,11034.4,0.125648,0.125299,10.2141,6,0.00757976,10,0.00127981,-1.9908,0.328668,0.179512,71.4424,0.125299,
2,1,0,1,0,11034.4,0.127645,0.127365,10.3412,6,0.00778537,10,0.00131711,-1.98543,0.370752,0.159136,64.2434,0.127365,
2,1,0,1,0,11034.5,0.129643,0.129366,10.4754,6,0.00799351,10,0.00135515,-1.97983,0.378254,0.15598,63.7141,0.129366,
2,1,0,1,0,11034.5,0.13164,0.131314,10.5929,6,0.00820425,10,0.00139099,-1.97499,0.414431,0.142364,58.8495,0.131314,
2,1,0,1,0,11034.5,0.133638,0.133345,10.7095,6,0.00841642,10,0.00142806,-1.97023,0.435472,0.135485,56.6059,0.1333448,
2,1,0,1,0,11034.5,0.135636,0.135307,10.8189,6,0.00863182,10,0.00146388,-1.96582,0.462479,0.127573,53.8552,0.135307,
2,1,0,1,0,11034.5,0.137633,0.137346,10.925,6,0.00884932,10,0.00150051,-1.96158,0.508105,0.116118,49.4761,0.137346,
2,1,0,1,0,11034.6,0.139631,0.139315,11.0172,6,0.00906877,10,0.00153486,-1.95793,0.532944,0.110706,47.61,0.139315,
2,1,0,1,0,11034.6,0.141628,0.141329,11.1146,6,0.00928893,10,0.00157082,-1.9541,0.64236,0.0918489,39.7773,0.141329,
2,1,0,1,0,11034.6,0.143626,0.143328,11.1768,6,0.00951183,10,0.00160194,-1.95168,1.08126,0.0545661,23.7703,0.143328,
2,1,0,1,0,11034.6,0.145624,0.145331,11.2098,6,0.00973584,10,0.00162913,-1.9504,3.51708,0.0167753,7.32683,0.145331,
2,1,0,1,0,11034.6,0.147621,0.147303,11.2059,6,0.00996001,10,0.00165067,-1.95055,-2.46476,-0.0239374,-10.4529,0.147303,
2,1,0,1,0,11034.7,0.149619,0.149278,11.1685,6,0.0101826,10,0.00166722,-1.952,-0.637786,-0.0925075,-40.1643,0.149278,
2,1,0,1,0,11034.7,0.151616,0.151323,11.0445,6,0.0104048,10,0.00167128,-1.95686,-0.320795,-0.183918,-79.0208,0.151323,
2,1,0,1,0,11034.7,0.153614,0.153293,10.8513,6,0.0106238,10,0.00166342,-1.96452,-0.214692,-0.274812,-115.97,0.1532927,
2,1,0,1,0,11034.7,0.155611,0.155286,10.5849,6,0.0108382,10,0.00164368,-1.97531,-0.163537,-0.360775,-148.571,0.155286,
2,1,0,1,0,11034.7,0.157609,0.157284,10.2583,6,0.0110456,10,0.00161346,-1.98893,-0.124233,-0.474915,-189.057,0.157284,
2,1,0,1,0,11034.8,0.159607,0.159305,9.82515,6,0.0112465,10,0.00156519,-2.00766,-0.100001,-0.589996,-225.563,0.159305,
2,1,0,1,0,11034.8,0.161604,0.161319,9.34815,6,0.0114382,10,0.00150804,-2.02927,-0.0885848,-0.666029,-242.406,0.161319,
2,1,0,1,0,11034.8,0.163602,0.163353,8.84373,6,0.0116201,10,0.00144465,-2.05336,-0.0791452,-0.745465,-256.894,0.163353,
2,1,0,1,0,11034.8,0.165606,0.165277,8.33147,6,0.0117918,10,0.001377,-2.07928,-0.0754518,-0.781957,-254.234,0.165277,
2,1,0,1,0,11034.8,0.167597,0.167309,7.83812,6,0.0119525,10,0.00131139,-2.10579,-0.0768535,-0.767695,-235.158,0.167309,
2,1,0,1,0,11034.9,0.169595,0.1693,7.38528,6,0.0121046,10,0.00125033,-2.13163,-0.0780088,-0.756325,-218.26,0.1693,
2,1,0,1,0,11034.9,0.171592,0.171297,6.9677,6,0.012248,10,0.00119354,-2.15691,-0.0819181,-0.720232,-196.498,0.171297,
2,1,0,1,0,11034.9,0.173581,0.173243,6.61046,6,0.012383,10,0.00114522,-2.17977,-0.0922043,-0.639883,-165.683,0.173243,
2,1,0,1,0,11034.9,0.175587,0.175253,6.31223,6,0.0125122,10,0.00110624,-2.19982,-0.103966,-0.567492,-140.066,0.175253,
2,1,0,1,0,11034.9,0.177585,0.17727,6.04642,6,0.0126357,10,0.00107185,-2.2185,-0.111894,-0.527282,-124.673,0.17727,
2,1,0,1,0,11035,0.179582,0.179268,5.81168,6,0.0127541,10,0.00104185,-2.2357,-0.124691,-0.47317,-107.655,0.179268,
2,1,0,1,0,11035,0.18158,0.181246,5.6184,6,0.0128683,10,0.00101831,-2.25039,-0.148472,-0.397382,-87.3762,0.181246,
2,1,0,1,0,11035,0.183578,0.183292,5.46008,6,0.0129785,10,0.00100079,-2.2628,-0.156732,-0.376439,-80.1623,0.183292,
2,1,0,1,0,11035,0.185575,0.185247,5.2977,6,0.0130859,10,0.000981382,-2.27591,-0.170835,-0.345363,-71.648,0.185247,
2,1,0,1,0,11035,0.187573,0.187285,5.17399,6,0.0131906,10,0.000969009,-2.28617,-0.197652,-0.298505,-60.286,0.187285,
2,1,0,1,0,11035.1,0.18957,0.189289,5.054,6,0.0132929,10,0.000956668,-2.29636,-0.208408,-0.283098,-55.9395,0.189289,
2,1,0,1,0,11035.1,0.191568,0.19122,4.95384,6,0.0133925,10,0.000947274,-2.30506,-0.235487,-0.250545,-48.4727,0.19122,
2,1,0,1,0,11035.1,0.193566,0.193252,4.86191,6,0.0134907,10,0.000939574,-2.31319,-0.273135,-0.216011,-41.0627,0.193252,
2,1,0,1,0,11035.1,0.195563,0.195237,4.78889,6,0.0135872,10,0.000934969,-2.31977,-0.271008,-0.217706,-40.619,0.195237,
2,1,0,1,0,11035.1,0.197561,0.197226,4.70049,6,0.0136821,10,0.000927059,-2.32786,-0.309425,-0.190676,-35.107,0.197226,
2,1,0,1,0,11035.2,0.199558,0.19927,4.64731,6,0.0137751,10,0.000926069,-2.3328,-0.390849,-0.150953,-27.3669,0.19927,
2,1,0,1,0,11035.2,0.201556,0.201239,4.59066,6,0.0138675,10,0.000923821,-2.33812,-0.354429,-0.166465,-29.8046,0.201239,
2,1,0,1,0,11035.2,0.203553,0.203252,4.52864,6,0.0139586,10,0.000920453,-2.34403,-0.361805,-0.163071,-28.8462,0.2032517,
2,1,0,1,0,11035.2,0.205551,0.205248,4.47504,6,0.0140486,10,0.00091849,-2.3492,-0.541992,-0.108858,-19.0775,0.205248,
2,1,0,1,0,11035.2,0.207549,0.207233,4.45268,6,0.0141374,10,0.000922743,-2.35138,-0.598654,-0.0985545,-17.0796,0.207233,
2,1,0,1,0,11035.3,0.209546,0.209273,4.40628,6,0.0142259,10,0.000922117,-2.35593,-0.419213,-0.14074,-24.1903,0.209273,
2,1,0,1,0,11035.3,0.211544,0.211232,4.35594,6,0.0143135,10,0.000920115,-2.36092,-0.48186,-0.122442,-20.8558,0.211232,
2,1,0,1,0,11035.3,0.213541,0.213269,4.32294,6,0.0144002,10,0.00092195,-2.36422,-0.700747,-0.0841959,-14.2191,0.213269,
2,1,0,1,0,11035.3,0.215539,0.215252,4.29878,6,0.014486,10,0.000925322,-2.36665,-0.628017,-0.0939465,-15.7359,0.215252,
2,1,0,1,0,11035.3,0.217537,0.217208,4.26096,6,0.0145715,10,0.000925515,-2.37049,-0.603545,-0.0977557,-16.2753,0.217208,
2,1,0,1,0,11035.4,0.219534,0.219268,4.23343,6,0.0146564,10,0.000928253,-2.37331,-0.765989,-0.0770246,-12.7307,0.219268,
2,1,0,1,0,11035.4,0.221532,0.221271,4.20924,6,0.0147409,10,0.000931382,-2.3758,-0.806326,-0.0731714,-12.0205,0.221271,
2,1,0,1,0,11035.4,0.223525,0.223262,4.18542,6,0.0148243,10,0.000934443,-2.37826,-0.801058,-0.0736526,-12.0305,0.223262,
2,1,0,1,0,11035.4,0.225527,0.225231,4.16159,6,0.0149079,10,0.000937321,-2.38074,-0.900604,-0.0655116,-10.6471,0.225231,
2,1,0,1,0,11035.4,0.227525,0.227207,4.14341,6,0.0149909,10,0.000941412,-2.38264,-0.80744,-0.0730704,-11.8003,0.2272072,
2,1,0,1,0,11035.5,0.229522,0.229227,4.11445,6,0.0150735,10,0.00094314,-2.38569,-0.823918,-0.0716091,-11.5148,0.229227,
2,1,0,1,0,11035.5,0.23152,0.231222,4.09717,6,0.0151557,10,0.000947358,-2.38752,-1.50895,-0.0391001,-6.25923,0.231222,
2,1,0,1,0,11035.5,0.233517,0.233249,4.08927,6,0.0152373,10,0.000953818,-2.38835,-1.23914,-0.0476136,-7.58525,0.233249,
2,1,0,1,0,11035.5,0.235515,0.235214,4.0669,6,0.0153189,10,0.00095659,-2.39074,-0.926182,-0.0637024,-10.1165,0.2352138,
2,1,0,1,0,11035.5,0.237512,0.237205,4.04925,6,0.0154,10,0.000960502,-2.39263,-1.10524,-0.0533823,-8.43742,0.2372051,
2,1,0,1,0,11035.6,0.23951,0.239227,4.03304,6,0.0154808,10,0.000964811,-2.39437,-2.37699,-0.0248213,-3.91492,0.239227,
2,1,0,1,0,11035.6,0.241508,0.241199,4.03361,6,0.0155611,10,0.000972902,-2.39431,-1.56676,-0.0376574,-5.91,0.241199,
2,1,0,1,0,11035.6,0.243505,0.243172,4.00972,6,0.0156415,10,0.000975053,-2.39689,-1.24808,-0.0472728,-7.41423,0.243172,
2,1,0,1,0,11035.6,0.245503,0.245201,4.00394,6,0.0157216,10,0.000981771,-2.39751,-1.89895,-0.0310698,-4.85022,0.245201,
2,1,0,1,0,11035.6,0.2475,0.247183,3.99027,6,0.0158015,10,0.000986325,-2.399,-1.34313,-0.0439272,-6.84057,0.247183,
2,1,0,1,0,11035.7,0.249498,0.249211,3.97651,6,0.0158807,10,0.000990991,-2.4005,-1.22546,-0.0481452,-7.46964,0.249211,
2,1,0,1,0,11035.7,0.251496,0.251153,3.96061,6,0.01596,10,0.000994719,-2.40224,-1.3238,-0.0445686,-6.89279,0.251153,
2,1,0,1,0,11035.7,0.253493,0.253183,3.94913,6,0.0160391,10,0.000999853,-2.4035,-1.19166,-0.0495108,-7.62327,0.253183,
2,1,0,1,0,11035.7,0.255491,0.25517,3.92999,6,0.0161179,10,0.00100282,-2.40561,-2.17699,-0.0271016,-4.16808,0.25517,
2,1,0,1,0,11035.7,0.257488,0.257208,3.93235,6,0.0161962,10,0.00101143,-2.40535,-2.99856,-0.0196761,-3.01318,0.257208,
2,1,0,1,0,11035.8,0.259486,0.259177,3.91791,6,0.0162747,10,0.00101543,-2.40695,-1.07808,-0.0547271,-8.363,0.259177,
2,1,0,1,0,11035.8,0.261484,0.261213,3.89885,6,0.0163529,10,0.00101843,-2.40906,-1.45446,-0.0405648,-6.18296,0.261213,
2,1,0,1,0,11035.8,0.263481,0.263166,3.89325,6,0.0164309,10,0.00102457,-2.40969,-6.01349,-0.00981127,-1.49175,0.2631664,
2,1,0,1,0,11035.8,0.265479,0.26518,3.89294,6,0.0165084,10,0.00103233,-2.40972,-2.09448,-0.0281693,-4.27067,0.26518,
2,1,0,1,0,11035.8,0.267476,0.267168,3.87616,6,0.016586,10,0.00103558,-2.4116,-1.1735,-0.0502771,-7.60874,0.267168,
2,1,0,1,0,11035.9,0.269474,0.269169,3.86259,6,0.0166634,10,0.00103969,-2.41312,-2.43238,-0.0242561,-3.6624,0.269169,
2,1,0,1,0,11035.9,0.271471,0.271154,3.86156,6,0.0167406,10,0.00104708,-2.41324,-7.53239,-0.00783284,-1.18004,0.2711544,
2,1,0,1,0,11035.9,0.273469,0.273157,3.85788,6,0.0168173,10,0.00105381,-2.41365,-1.35489,-0.0435458,-6.5403,0.2731573,
2,1,0,1,0,11035.9,0.275467,0.275153,3.8354,6,0.0168942,10,0.00105532,-2.41619,-1.07677,-0.0547937,-8.21445,0.275153,
2,1,0,1,0,11035.9,0.277464,0.277176,3.82487,6,0.0169708,10,0.00106016,-2.41738,-1.7203,-0.0342962,-5.11986,0.277176,
2,1,0,1,0,11036,0.279462,0.279157,3.8149,6,0.0170472,10,0.00106496,-2.41852,-1.86466,-0.0316412,-4.71148,0.2791568,
2,1,0,1,0,11036,0.281464,0.281189,3.80596,6,0.0171233,10,0.00107019,-2.41954,-2.51576,-0.0234522,-3.48524,0.281189,
2,1,0,1,0,11036,0.283457,0.283176,3.8009,6,0.017199,10,0.00107632,-2.42011,-1.40982,-0.0418492,-6.19613,0.283176,
2,1,0,1,0,11036,0.285455,0.285124,3.78158,6,0.0172748,10,0.00107822,-2.42233,-1.15201,-0.051215,-7.56715,0.2851238,
2,1,0,1,0,11036,0.287452,0.287129,3.77098,6,0.0173503,10,0.00108276,-2.42355,-2.4104,-0.0244773,-3.6054,0.287129,
2,1,0,1,0,11036.1,0.28945,0.289208,3.76686,6,0.0174256,10,0.00108941,-2.42402,-2.05242,-0.0287465,-4.22113,0.289208,
2,1,0,1,0,11036.1,0.291447,0.291134,3.75408,6,0.0175005,10,0.00109294,-2.4255,-1.15611,-0.0510331,-7.47304,0.291134,
2,1,0,1,0,11036.1,0.293445,0.293134,3.73752,6,0.0175754,10,0.00109559,-2.42742,-1.34001,-0.0440295,-6.42873,0.293134,
2,1,0,1,0,11036.1,0.295442,0.295119,3.72846,6,0.0176501,10,0.00110034,-2.42847,-2.31575,-0.0254777,-3.70884,0.295119,
2,1,0,1,0,11036.1,0.29744,0.29716,3.72259,6,0.0177245,10,0.0011062,-2.42916,-2.44634,-0.0241177,-3.50266,0.29716,
2,1,0,1,0,11036.2,0.299438,0.299183,3.71422,6,0.0177986,10,0.00111123,-2.43013,-0.0262469,-2.24788,-295.839,0.299183,
2,1,0,1,0,11036.2,0.299737,0.299452,3.04458,6,0.0178285,10,0.000911706,-2.51647,0.0022422,26.3135,1773.65,0.299452,
2,1,0,1,0,11036.2,0.29774,0.297438,0.618713,6,0.017861,10,0.000184029,-3.20851,0.0044794,13.1714,857.41,0.297438,
2,0,0,1,0,11036.2,0.295742,0.295448,-0.388692,6,0.017862,10,-0.000114838,-3.41039,-0.0244288,-2.41518,379,0.295448,
2,0,0,1,0,11036.2,0.293745,0.293422,-0.903428,6,0.0178487,10,-0.000265086,-3.04411,-0.00824215,-7.15832,200.048,0.293422,
2,0,0,1,0,11036.3,0.291747,0.291443,-1.18981,6,0.0178276,10,-0.000346761,-2.92452,-0.0211717,-2.78674,122.864,0.291443,
2,0,0,1,0,11036.3,0.289754,0.289454,-1.39093,6,0.0178019,10,-0.00040261,-2.8567,-0.0371185,-1.5895,83.7848,0.289454,
2,0,0,1,0,11036.3,0.287752,0.287438,-1.52536,6,0.0177727,10,-0.000438445,-2.81663,-0.0576952,-1.02262,60.2337,0.287438,
2,0,0,1,0,11036.3,0.285754,0.285417,-1.63412,6,0.0177411,10,-0.000466404,-2.78672,-0.0751876,-0.784704,49.6903,0.2854166,
2,0,0,1,0,11036.3,0.283757,0.283444,-1.72382,6,0.0177076,10,-0.000488606,-2.76351,-0.0908608,-0.649345,43.5775,0.283444,
2,0,0,1,0,11036.4,0.281759,0.281427,-1.80798,6,0.0176723,10,-0.000508814,-2.74281,-0.107226,-0.550241,38.6521,0.281427,
2,0,0,1,0,11036.4,0.279761,0.279449,-1.87825,6,0.0176356,10,-0.000524875,-2.72625,-0.134791,-0.437714,31.9567,0.279449,
2,0,0,1,0,11036.4,0.277764,0.277456,-1.93489,6,0.0175975,10,-0.000536845,-2.71334,-0.149982,-0.39338,29.7431,0.277456,
2,0,0,1,0,11036.4,0.275766,0.275433,-1.99769,6,0.0175581,10,-0.00055023,-2.69947,-0.160874,-0.366747,28.495,0.275433,
2,0,0,1,0,11036.4,0.273769,0.27349,-2.04788,6,0.0175177,10,-0.000560076,-2.68869,-0.172176,-0.342673,27.4394,0.2734901,
2,0,0,1,0,11036.5,0.271771,0.271455,-2.10684,6,0.0174763,10,-0.000571913,-2.67637,-0.176569,-0.334148,27.4159,0.271455,
2,0,0,1,0,11036.5,0.269774,0.269483,-2.15773,6,0.0174337,10,-0.000581473,-2.666,-0.219409,-0.268905,22.5786,0.269483,
2,0,0,1,0,11036.5,0.267776,0.267475,-2.19672,6,0.0173903,10,-0.000587566,-2.65823,-0.249868,-0.236124,20.2582,0.2674745,
2,0,0,1,0,11036.5,0.265778,0.265449,-2.23947,6,0.017346,10,-0.000594464,-2.64986,-0.227307,-0.259561,22.7115,0.265449,
2,0,0,1,0,11036.5,0.263781,0.263456,-2.28799,6,0.017301,10,-0.000602785,-2.64055,-0.235056,-0.251004,22.3702,0.263456,
2,0,0,1,0,11036.6,0.261783,0.261475,-2.32837,6,0.0172549,10,-0.000608809,-2.63295,-0.313936,-0.187936,17.0318,0.261475,
2,0,0,1,0,11036.6,0.259786,0.259427,-2.3566,6,0.0172082,10,-0.000611367,-2.62771,-0.300956,-0.196042,18.0877,0.259427,
2,0,0,1,0,11036.6,0.257788,0.257501,-2.40024,6,0.0171607,10,-0.000618064,-2.61975,-0.261683,-0.225464,21.1021,0.257501,
2,0,0,1,0,11036.6,0.25579,0.255461,-2.4403,6,0.0171126,10,-0.000623401,-2.61256,-0.328334,-0.179695,17.0708,0.255461,
2,0,0,1,0,11036.6,0.253793,0.253504,-2.46847,6,0.0170636,10,-0.000625767,-2.60757,-0.393309,-0.150009,14.4541,0.253504,
2,0,0,1,0,11036.7,0.251795,0.251482,-2.49781,6,0.017014,10,-0.000628154,-2.60244,-0.367354,-0.160608,15.6686,0.251482,
2,0,0,1,0,11036.7,0.249798,0.249492,-2.53133,6,0.0169638,10,-0.000631548,-2.59665,-0.347242,-0.16991,16.7858,0.249492,
2,0,0,1,0,11036.7,0.2478,0.247464,-2.56526,6,0.0169131,10,-0.000634809,-2.59087,-0.347251,-0.169906,17.0092,0.2474637,
2,0,0,1,0,11036.7,0.245802,0.245498,-2.59927,6,0.0168615,10,-0.000638116,-2.58515,-0.38571,-0.152965,15.4966,0.245498,
2,0,0,1,0,11036.7,0.243805,0.243498,-2.62672,6,0.0168093,10,-0.0006396,-2.58059,-0.505959,-0.11661,11.9371,0.243498,
2,0,0,1,0,11036.8,0.241807,0.241512,-2.64685,6,0.0167565,10,-0.000639246,-2.57727,-0.379549,-0.155448,16.1309,0.241512,
2,0,0,1,0,11036.8,0.23981,0.239485,-2.69145,6,0.0167035,10,-0.000644562,-2.57001,-0.343595,-0.171714,17.9789,0.239485,
2,0,0,1,0,11036.8,0.237812,0.237491,-2.71914,6,0.0166495,10,-0.000645772,-2.56557,-0.490138,-0.120374,12.7623,0.237491,
2,0,0,1,0,11036.8,0.235815,0.235525,-2.74198,6,0.0165949,10,-0.000645807,-2.56194,-0.539343,-0.109392,11.7082,0.235525,
2,0,0,1,0,11036.8,0.233817,0.233497,-2.76591,6,0.01654,10,-0.000645831,-2.55816,-0.426299,-0.138401,14.9738,0.2334969,
2,0,0,1,0,11036.9,0.231815,0.231469,-2.80272,6,0.0164844,10,-0.000648744,-2.55242,-0.39883,-0.147933,16.1521,0.2314689,
2,0,0,1,0,11036.9,0.229822,0.229544,-2.82975,6,0.0164283,10,-0.000649553,-2.54825,-0.546362,-0.107987,11.9099,0.229544,
2,0,0,1,0,11036.9,0.227824,0.22755,-2.8494,6,0.0163716,10,-0.000648381,-2.54525,-0.503724,-0.117128,13.0544,0.22755,
2,0,0,1,0,11036.9,0.225827,0.225534,-2.8821,6,0.0163144,10,-0.000650012,-2.54029,-0.509557,-0.115787,12.9938,0.225534,
2,0,0,1,0,11036.9,0.223829,0.22352,-2.90176,6,0.0162567,10,-0.000648602,-2.53734,-0.503496,-0.117181,13.3014,0.22352,
2,0,0,1,0,11037,0.221831,0.221545,-2.93516,6,0.0161986,10,-0.00065027,-2.53237,-0.473257,-0.124668,14.257,0.221545,
2,0,0,1,0,11037,0.219834,0.219506,-2.95899,6,0.0161397,10,-0.000649516,-2.52886,-0.509837,-0.115723,13.3774,0.219506,
2,0,0,1,0,11037,0.217836,0.217519,-2.98902,6,0.0160803,10,-0.000650168,-2.52447,-0.567134,-0.104032,12.111,0.217519,
2,0,0,1,0,11037,0.215839,0.215534,-3.0071,6,0.0160204,10,-0.000648131,-2.52185,-0.506891,-0.116396,13.7027,0.215534,
2,0,0,1,0,11037,0.213841,0.213495,-3.04416,6,0.0159601,10,-0.000649912,-2.51653,-0.43674,-0.135092,16.0206,0.2134949,
2,0,0,1,0,11037.1,0.211843,0.211576,-3.0705,6,0.0158991,10,-0.000649645,-2.51279,-0.632454,-0.0932875,11.164,0.211576,
2,0,0,1,0,11037.1,0.209846,0.209496,-3.08881,6,0.0158375,10,-0.000647092,-2.51021,-0.565276,-0.104374,12.6119,0.209496,
2,0,0,1,0,11037.1,0.207848,0.207496,-3.12196,6,0.0157755,10,-0.000647794,-2.50557,-0.365561,-0.161396,19.7016,0.207496,
2,0,0,1,0,11037.1,0.205851,0.205517,-3.1672,6,0.0157129,10,-0.000650912,-2.49932,-0.475114,-0.124181,15.2771,0.205517,
2,0,0,1,0,11037.1,0.203853,0.203516,-3.18277,6,0.0156495,10,-0.000647743,-2.49719,-0.736385,-0.0801211,9.96561,0.203516,
2,0,0,1,0,11037.2,0.201856,0.201518,-3.20705,6,0.0155856,10,-0.000646278,-2.49389,-0.518539,-0.113781,14.2586,0.2015183,
2,0,0,1,0,11037.2,0.199858,0.199541,-3.23943,6,0.0155212,10,-0.000646401,-2.48953,-0.437117,-0.134975,17.073,0.199541,
2,0,0,1,0,11037.2,0.19786,0.197517,-3.27536,6,0.0154564,10,-0.000646939,-2.48474,-0.478415,-0.123324,15.7421,0.197517,
2,0,0,1,0,11037.2,0.195863,0.195546,-3.30233,6,0.0153907,10,-0.000645757,-2.48118,-0.464044,-0.127143,16.4128,0.195546,
2,0,0,1,0,11037.2,0.193865,0.193564,-3.34025,6,0.0153243,10,-0.00064655,-2.47622,-0.468514,-0.12593,16.3913,0.193564,
2,0,0,1,0,11037.3,0.191868,0.191523,-3.36827,6,0.0152573,10,-0.000645102,-2.47259,-0.434728,-0.135717,17.8817,0.191523,
2,0,0,1,0,11037.3,0.18987,0.189544,-3.41212,6,0.01519,10,-0.000646748,-2.46698,-0.437668,-0.134805,17.9066,0.189544,
2,0,0,1,0,11037.3,0.187872,0.187559,-3.43926,6,0.0151215,10,-0.000645063,-2.46354,-0.464669,-0.126972,17.0758,0.187559,
2,0,0,1,0,11037.3,0.185875,0.185569,-3.48,6,0.0150523,10,-0.00064578,-2.45842,-0.438646,-0.134505,18.2443,0.185569,
2,0,0,1,0,11037.3,0.183877,0.183564,-3.51213,6,0.0149824,10,-0.000644703,-2.45443,-0.346983,-0.170037,23.4032,0.183564,
2,0,0,1,0,11037.4,0.18188,0.18156,-3.57383,6,0.0149121,10,-0.000648864,-2.44687,-0.32172,-0.183389,25.4973,0.18156,
2,0,0,1,0,11037.4,0.179882,0.179594,-3.61337,6,0.0148403,10,-0.000648939,-2.44209,-0.425858,-0.138544,19.5325,0.179594,
2,0,0,1,0,11037.4,0.177885,0.177587,-3.65142,6,0.0147676,10,-0.000648446,-2.43754,-0.381338,-0.154718,22.0864,0.177587,
2,0,0,1,0,11037.4,0.175887,0.175554,-3.70259,6,0.0146941,10,-0.000650006,-2.43149,-0.283748,-0.207931,30.1183,0.175554,
2,0,0,1,0,11037.4,0.173896,0.173577,-3.77219,6,0.0146199,10,-0.000654767,-2.42341,-0.282321,-0.208982,30.6948,0.173577,
2,0,0,1,0,11037.5,0.171892,0.171564,-3.82507,6,0.0145439,10,-0.000656245,-2.41736,-0.315274,-0.187139,27.9561,0.171564,
2,0,0,1,0,11037.5,0.169894,0.16958,-3.88394,6,0.0144669,10,-0.000658639,-2.41073,-0.25205,-0.234081,35.5846,0.16958,
2,0,0,1,0,11037.5,0.167897,0.167597,-3.96625,6,0.0143885,10,-0.00066473,-2.40162,-0.232447,-0.253821,39.2471,0.167597,
2,0,0,1,0,11037.5,0.165899,0.165575,-4.04112,6,0.0143085,10,-0.000669109,-2.3935,-0.23257,-0.253687,40.0593,0.165575,
2,0,0,1,0,11037.5,0.163901,0.163581,-4.12711,6,0.0142273,10,-0.000675117,-2.38435,-0.214321,-0.275289,44.3606,0.163581,
2,0,0,1,0,11037.6,0.161904,0.161584,-4.21815,6,0.014144,10,-0.000681588,-2.37488,-0.200118,-0.294826,48.5957,0.161584,
2,0,0,1,0,11037.6,0.159906,0.159585,-4.32129,6,0.0140586,10,-0.000689614,-2.36439,-0.185033,-0.318863,53.8186,0.1595853,
2,0,0,1,0,11037.6,0.157909,0.157588,-4.43323,6,0.0139711,10,-0.000698624,-2.35328,-0.164636,-0.358366,62.1439,0.157588,
2,0,0,1,0,11037.6,0.155911,0.155621,-4.56764,6,0.0138815,10,-0.000710821,-2.34031,-0.149153,-0.395567,70.6131,0.1556211,
2,0,0,1,0,11037.6,0.153913,0.153557,-4.71785,6,0.0137886,10,-0.00072446,-2.32626,-0.143397,-0.411444,75.7687,0.153557,
2,0,0,1,0,11037.7,0.151916,0.151592,-4.87289,6,0.0136928,10,-0.000738693,-2.31221,-0.130448,-0.452288,86.2649,0.151592,
2,0,0,1,0,11037.7,0.149918,0.149586,-5.06044,6,0.0135935,10,-0.000756972,-2.29581,-0.115354,-0.511469,101.23,0.149586,
2,0,0,1,0,11037.7,0.147921,0.147618,-5.27518,6,0.0134907,10,-0.000778713,-2.27776,-0.111468,-0.529301,108.966,0.147618,
2,0,0,1,0,11037.7,0.145923,0.145593,-5.49559,6,0.013383,10,-0.000800117,-2.25999,-0.106023,-0.556481,119.681,0.145593,
2,0,0,1,0,11037.7,0.143926,0.143624,-5.75321,6,0.0132706,10,-0.0008263,-2.24009,-0.0970629,-0.607853,136.766,0.143624,
2,0,0,1,0,11037.8,0.141928,0.141586,-6.04356,6,0.0131527,10,-0.000855684,-2.21871,-0.0915497,-0.644459,152.195,0.141586,
2,0,0,1,0,11037.8,0.13993,0.139642,-6.35928,6,0.0130293,10,-0.000888022,-2.19659,-0.0901712,-0.654311,162.458,0.139642,
2,0,0,1,0,11037.8,0.137933,0.137598,-6.69146,6,0.012899,10,-0.000920731,-2.17448,-0.0918883,-0.642084,167.705,0.137598,
2,0,0,1,0,11037.8,0.135935,0.135599,-7.03724,6,0.0127617,10,-0.000954246,-2.1526,-0.091106,-0.647597,177.86,0.135599,
2,0,0,1,0,11037.8,0.133938,0.133642,-7.39497,6,0.0126173,10,-0.000988282,-2.13106,-0.0910867,-0.647735,187.069,0.133642,
2,0,0,1,0,11037.9,0.13194,0.131654,-7.77532,6,0.0124665,10,-0.00102365,-2.10928,-0.0936114,-0.630265,191.151,0.1316539,
2,0,0,1,0,11037.9,0.129942,0.12964,-8.16001,6,0.0123072,10,-0.00105786,-2.08831,-0.100243,-0.588569,187.168,0.12964,
2,0,0,1,0,11037.9,0.127945,0.127605,-8.53316,6,0.0121402,10,-0.00108887,-2.06889,-0.107058,-0.551101,183.211,0.127605,
2,0,0,1,0,11037.9,0.125947,0.125672,-8.88708,6,0.011966,10,-0.00111685,-2.05124,-0.11344,-0.520099,180.295,0.1256717,
2,0,0,1,0,11037.9,0.12395,0.123678,-9.24123,6,0.0117857,10,-0.00114293,-2.03427,-0.124461,-0.474043,170.619,0.1236776,
2,0,0,1,0,11038,0.121952,0.121692,-9.56615,6,0.0115976,10,-0.00116412,-2.01926,-0.143777,-0.410358,152.859,0.121692,
2,0,0,1,0,11038,0.119955,0.119664,-9.8548,6,0.0114034,10,-0.00117926,-2.00635,-0.159599,-0.369676,142.102,0.119664,
2,0,0,1,0,11038,0.117957,0.117665,-10.1384,6,0.0112035,10,-0.00119293,-1.99403,-0.17364,-0.339784,134.241,0.117665,
2,0,0,1,0,11038,0.115955,0.115628,-10.3965,6,0.0109982,10,-0.00120213,-1.98311,-0.204334,-0.288742,116.864,0.115628,
2,0,0,1,0,11038,0.113962,0.113659,-10.6065,6,0.0107891,10,-0.00120553,-1.97443,-0.24015,-0.24568,101.624,0.113659,
2,0,0,1,0,11038.1,0.111964,0.111618,-10.804,6,0.010575,10,-0.00120593,-1.96641,-0.263182,-0.22418,94.435,0.111618,
2,0,0,1,0,11038.1,0.109967,0.10967,-10.9832,6,0.0103571,10,-0.00120453,-1.95927,-0.318724,-0.185113,79.1803,0.10967,
2,0,0,1,0,11038.1,0.107969,0.107657,-11.1177,6,0.0101361,10,-0.0011969,-1.95398,-0.412915,-0.142887,61.9368,0.107657,
2,0,0,1,0,11038.1,0.105971,0.10566,-11.2315,6,0.0099137,10,-0.00118673,-1.94956,-0.524451,-0.112499,49.2447,0.10566,
2,0,0,1,0,11038.1,0.103974,0.103642,-11.3154,6,0.00968819,10,-0.00117275,-1.94633,-0.731539,-0.0806519,35.5766,0.103642,
2,0,0,1,0,11038.2,0.101976,0.101647,-11.3744,6,0.00946128,10,-0.00115616,-1.94407,-1.34405,-0.0438973,19.4511,0.1016465,
2,0,0,1,0,11038.2,0.0999786,0.0996861,-11.3924,6,0.00923364,10,-0.00113566,-1.94339,-3.40184,-0.0173436,7.70924,0.0996861,
2,0,0,1,0,11038.2,0.0979811,0.0976831,-11.4049,6,0.00900675,10,-0.00111407,-1.94291,6.72085,0.00877865,-3.90035,0.0976831,
2,0,0,1,0,11038.2,0.0959835,0.0956299,-11.3765,6,0.00877898,10,-0.00108794,-1.94399,1.05692,0.0558227,-24.7388,0.0956299,
2,0,0,1,0,11038.2,0.0939859,0.0936888,-11.3061,6,0.00855219,10,-0.00105926,-1.94669,0.690873,0.0853992,-37.6661,0.0936888,
2,0,0,1,0,11038.3,0.0919883,0.0916511,-11.2267,6,0.00832686,10,-0.00102894,-1.94975,0.602864,0.0978662,-42.8504,0.0916511,
2,0,0,1,0,11038.3,0.0899907,0.0896388,-11.1326,6,0.00810435,10,-0.000997909,-1.95341,0.437416,0.134883,-58.4814,0.0896388,
2,0,0,1,0,11038.3,0.0879931,0.0876598,-10.9933,6,0.00788311,10,-0.000963667,-1.95887,0.344316,0.171354,-73.4696,0.0876598,
2,0,0,1,0,11038.3,0.0859955,0.085673,-10.8412,6,0.00766485,10,-0.000928797,-1.96492,0.315687,0.186894,-79.0348,0.085673,
2,0,0,1,0,11038.3,0.083998,0.0836931,-10.6797,6,0.00744966,10,-0.000893822,-1.97144,0.307468,0.19189,-79.979,0.0836931,
2,0,0,1,0,11038.4,0.0820004,0.0816555,-10.5199,6,0.00723874,10,-0.000859005,-1.97799,0.297656,0.198216,-81.341,0.0816555,
2,0,0,1,0,11038.4,0.0800028,0.0796626,-10.3519,6,0.0070301,10,-0.000824658,-1.98498,0.292429,0.201758,-81.5572,0.0796626,
2,0,0,1,0,11038.4,0.0780052,0.0777016,-10.1974,6,0.00682468,10,-0.000792353,-1.99151,0.301975,0.195381,-77.744,0.0777016,
2,0,0,1,0,11038.4,0.0760076,0.0756675,-10.0413,6,0.00662238,10,-0.0007598,-1.99821,0.325577,0.181217,-71.108,0.0756675,
2,0,0,1,0,11038.4,0.07401,0.0736992,-9.9128,6,0.00642401,10,-0.000730565,-2.0038,0.352661,0.167299,-64.716,0.0736992,
2,0,0,1,0,11038.5,0.0720124,0.0716833,-9.78346,6,0.00622714,10,-0.000701311,-2.00951,0.380042,0.155246,-59.3328,0.0716833,
2,0,0,1,0,11038.5,0.0700148,0.0696739,-9.67397,6,0.00603271,10,-0.000674023,-2.0144,0.401304,0.147021,-55.4968,0.0696739,
2,0,0,1,0,11038.5,0.0680173,0.0676889,-9.56179,6,0.00584051,10,-0.000647226,-2.01946,0.465476,0.126752,-47.386,0.06768886,
2,0,0,1,0,11038.5,0.0660106,0.0656895,-9.48516,6,0.00565027,10,-0.000623075,-2.02296,0.513134,0.11498,-42.5285,0.0656895,
2,0,0,1,0,11038.5,0.0640221,0.0637383,-9.39378,6,0.00546247,10,-0.000598744,-2.02716,0.477647,0.123522,-45.2871,0.0637383,
2,0,0,1,0,11038.6,0.0620245,0.0616906,-9.30406,6,0.0052756,10,-0.000573973,-2.03133,0.530483,0.111219,-40.4208,0.0616906,
2,0,0,1,0,11038.6,0.0600269,0.059723,-9.23147,6,0.0050903,10,-0.000551331,-2.03473,0.590557,0.0999057,-35.9976,0.059723,
2,0,0,1,0,11038.6,0.0580361,0.0577244,-9.16129,6,0.00490738,10,-0.00052883,-2.03804,0.563221,0.104755,-37.4323,0.0577244,
2,0,0,1,0,11038.6,0.0560317,0.0557059,-9.0811,6,0.00472486,10,-0.000505871,-2.04186,0.573678,0.102845,-36.4795,0.0557059,
2,0,0,1,0,11038.6,0.0540342,0.0537547,-9.01647,6,0.00454387,10,-0.000484678,-2.04496,0.645881,0.0913481,-32.1446,0.0537547,
2,0,0,1,0,11038.7,0.0520366,0.0517041,-8.95247,6,0.00436419,10,-0.000462879,-2.04806,0.55895,0.105555,-36.8386,0.0517041,
2,0,0,1,0,11038.7,0.050039,0.0497507,-8.86897,6,0.00418595,10,-0.000441237,-2.05213,0.576493,0.102343,-35.476,0.0497507,
2,0,0,1,0,11038.7,0.0480414,0.0477444,-8.81199,6,0.00400994,10,-0.000420724,-2.05493,0.658883,0.0895455,-30.7772,0.0477444,
2,0,0,1,0,11038.7,0.0460438,0.0457241,-8.74504,6,0.00383442,10,-0.000399859,-2.05824,0.560463,0.10527,-35.9076,0.0457241,
2,0,0,1,0,11038.7,0.0440462,0.0437523,-8.66864,6,0.00366035,10,-0.000379273,-2.06205,0.520806,0.113286,-38.3214,0.0437523,
2,0,0,1,0,11038.8,0.0420486,0.0416971,-8.59072,6,0.00348782,10,-0.000358208,-2.06597,0.57194,0.103158,-34.6183,0.0416971,
2,0,0,1,0,11038.8,0.040051,0.0397311,-8.52944,6,0.00331741,10,-0.000338884,-2.06908,0.544694,0.108318,-36.0103,0.0397311,
2,0,0,1,0,11038.8,0.0380535,0.0376975,-8.4467,6,0.00314765,10,-0.000318419,-2.07331,0.460418,0.128144,-42.234,0.0376975,
2,0,0,1,0,11038.8,0.0360559,0.0357449,-8.36109,6,0.00297961,10,-0.000298867,-2.07774,0.468762,0.125863,-41.0885,0.0357449,
2,0,0,1,0,11038.8,0.0340583,0.0337256,-8.2835,6,0.00281326,10,-0.000279366,-2.08179,0.477898,0.123457,-39.9019,0.0337256,
2,0,0,1,0,11038.9,0.0320607,0.0317725,-8.20258,6,0.00264925,10,-0.000260616,-2.08605,0.420325,0.140368,-44.8846,0.0317725,
2,0,0,1,0,11038.9,0.0300631,0.0297272,-8.10403,6,0.00248622,10,-0.000240911,-2.0913,0.381248,0.154755,-48.9453,0.0297272,
2,0,0,1,0,11038.9,0.0280655,0.0277633,-8.00635,6,0.00232516,10,-0.000222283,-2.09657,0.374534,0.157529,-49.2223,0.0277633,
2,0,0,1,0,11038.9,0.0260679,0.0257762,-7.90955,6,0.00216599,10,-0.000203878,-2.10185,0.374987,0.157339,-48.5559,0.0257762,
2,0,0,1,0,11038.9,0.0240704,0.0237112,-7.8096,6,0.00200958,10,-0.000185175,-2.10737,0.357441,0.165062,-50.3004,0.0237112,
2,0,0,1,0,11039,0.0220728,0.02177,-7.70804,6,0.00185441,10,-0.000167804,-2.11306,0.339234,0.173921,-52.2981,0.02176998,
2,0,0,1,0,11039,0.0200752,0.0197272,-7.60124,6,0.0017013,10,-0.000149951,-2.11912,0.324077,0.182055,-53.9914,0.0197272,
2,0,0,1,0,11039,0.0180776,0.0177504,-7.49102,6,0.00155032,10,-0.000132968,-2.12546,0.353561,0.166874,-48.8662,0.0177504,
2,0,0,1,0,11039,0.01608,0.0157396,-7.40638,6,0.00140216,10,-0.000116573,-2.13039,0.377701,0.156208,-45.114,0.0157396,
2,0,0,1,0,11039,0.0140824,0.0137408,-7.31013,6,0.00125497,10,-0.000100447,-2.13607,0.365355,0.161487,-46.0906,0.0137408,
2,0,0,1,0,11039.1,0.0120848,0.0117171,-7.22098,6,0.00110969,10,-8.4609e-05,-2.1414,0.349009,0.16905,-47.6021,0.0117171,
2,0,0,1,0,11039.1,0.0100872,0.00976896,-7.12106,6,0.000966401,10,-6.95654e-05,-2.14746,0.391636,0.15065,-41.9647,0.00976896,
2,0,0,1,0,11039.1,0.00809193,0.00775816,-7.05484,6,0.000825456,10,-5.47326e-05,-2.15151,0.457938,0.128838,-35.4523,0.007758155,
2,0,0,1,0,11039.1,0.00609208,0.00581559,-6.98091,6,0.000685157,10,-4.05981e-05,-2.15609,0.405728,0.145418,-39.5914,0.00581559,
2,0,0,1,0,11039.1,0.00409449,0.00380144,-6.89819,6,0.000546459,10,-2.62231e-05,-2.16126,0.805267,0.0732676,-19.8454,0.00380144,
2,0,0,1,0,11039.2,0.0020969,0.00174131,-6.90005,6,0.000408919,10,-1.20151e-05,-2.16115,0.832078,0.0709068,-18.9822,0.00174131,
2,0,0,1,0,11039.2,9.14991e-05,-0.000261988,-6.82106,6,0.000271825,10,1.78704e-06,-2.16615,0.475752,0.124014,-33.0731,-0.0002619884,
2,0,0,1,0,11039.2,-0.00189827,-0.00227348,-6.76727,6,0.000136607,10,1.53852e-05,-2.16959,0.657391,0.0897488,-23.7257,-0.00227348,
2,0,0,1,0,11039.2,-0.00389586,-0.00424486,-6.72656,6,1.68434e-06,10,2.85533e-05,-2.17221,0.805363,0.0732589,-19.2381,-0.00424486,
2,0,0,1,0,11039.2,-0.00589345,-0.00626522,-6.69047,6,-0.000132495,10,4.19173e-05,-2.17454,0.995319,0.0592775,-15.4897,-0.006265216,
2,0,0,1,0,11039.3,-0.00789103,-0.00823453,-6.66476,6,-0.000266048,10,5.48812e-05,-2.17622,1.98459,0.029729,-7.74479,-0.00823453,
2,0,0,1,0,11039.3,-0.00988862,-0.0102013,-6.65999,6,-0.00039862,10,6.79404e-05,-2.17653,3.56933,0.0165297,-4.2939,-0.0102013,
2,0,0,1,0,11039.3,-0.0118862,-0.0122462,-6.64754,6,-0.000531688,10,8.14072e-05,-2.17734,2.58804,0.0227972,-5.9147,-0.0122462,
2,0,0,1,0,11039.3,-0.0138838,-0.0142717,-6.63592,6,-0.000664585,10,9.47055e-05,-2.1781,9.80597,0.00601674,-1.56021,-0.0142717,
2,0,0,1,0,11039.3,-0.0158814,-0.0161977,-6.64137,6,-0.00079736,10,0.000107575,-2.17774,-2.77642,-0.0212504,5.51254,-0.0161977,
2,0,0,1,0,11039.3,-0.017879,-0.0182695,-6.65795,6,-0.000929755,10,0.000121637,-2.17666,-2.05912,-0.0286531,7.44363,-0.0182695,
2,0,0,1,0,11039.4,-0.0198766,-0.0202819,-6.67177,6,-0.00106306,10,0.000135317,-2.17576,-2.14946,-0.0274487,7.14744,-0.02028195,
2,0,0,1,0,11039.4,-0.0218741,-0.0222372,-6.68631,6,-0.00119658,10,0.000148685,-2.17481,-1.69397,-0.0348294,9.09314,-0.0222372,
2,0,0,1,0,11039.4,-0.0238717,-0.024221,-6.70759,6,-0.0013305,10,0.000162465,-2.17343,-1.07178,-0.0550485,14.4269,-0.024221,
2,0,0,1,0,11039.4,-0.0258693,-0.0262576,-6.74432,6,-0.00146438,10,0.00017709,-2.17106,-1.04092,-0.0566804,14.9035,-0.0262576,
2,0,0,1,0,11039.4,-0.0278669,-0.0282258,-6.76728,6,-0.00159944,10,0.000191012,-2.16959,-1.07138,-0.0550692,14.557,-0.0282258,
2,0,0,1,0,11039.5,-0.0298645,-0.0302421,-6.80232,6,-0.00173509,10,0.000205716,-2.16734,-0.915769,-0.0644267,17.1011,-0.0302421,
2,0,0,1,0,11039.5,-0.0318621,-0.0322172,-6.83554,6,-0.00187147,10,0.000220222,-2.16523,-0.807123,-0.0730991,19.5174,-0.0322172,
2,0,0,1,0,11039.5,-0.0338597,-0.0342551,-6.88064,6,-0.00200796,10,0.000235697,-2.16237,-0.726777,-0.0811803,21.7934,-0.0342551,
2,0,0,1,0,11039.5,-0.0358573,-0.0361925,-6.92217,6,-0.00214598,10,0.000250531,-2.15976,-0.72812,-0.0810306,21.8969,-0.03619248,
2,0,0,1,0,11039.5,-0.0378548,-0.0382415,-6.96793,6,-0.00228495,10,0.000266464,-2.1569,-0.755844,-0.0780584,21.2181,-0.0382415,
2,0,0,1,0,11039.6,-0.0398524,-0.0402415,-7.00808,6,-0.00242474,10,0.000282016,-2.1544,-0.618726,-0.0953573,26.1234,-0.0402415,
2,0,0,1,0,11039.6,-0.04185,-0.0422068,-7.07152,6,-0.0025648,10,0.000298466,-2.15049,-0.589206,-0.100135,27.6016,-0.0422068,
2,0,0,1,0,11039.6,-0.0438476,-0.0442279,-7.11811,6,-0.00270675,10,0.000314819,-2.14764,-0.684212,-0.0862306,23.9594,-0.0442279,
2,0,0,1,0,11039.6,-0.0458452,-0.0462225,-7.16773,6,-0.00284974,10,0.000331311,-2.14462,-0.584001,-0.101027,28.2856,-0.04622253,
2,0,0,1,0,11039.6,-0.0478428,-0.0481929,-7.23027,6,-0.00299378,10,0.000348447,-2.14085,-0.47599,-0.123952,35.0107,-0.0481929,
2,0,0,1,0,11039.7,-0.0498495,-0.0502161,-7.30755,6,-0.00313904,10,0.000366957,-2.13623,-0.521208,-0.113198,32.2271,-0.05021612,
2,0,0,1,0,11039.7,-0.051838,-0.052213,-7.35982,6,-0.00328498,10,0.000384278,-2.13313,-0.589805,-0.100033,28.7496,-0.052213,
2,0,0,1,0,11039.7,-0.0538355,-0.0541665,-7.42112,6,-0.00343274,10,0.000401976,-2.12953,-0.511658,-0.115311,33.4195,-0.0541665,
2,0,0,1,0,11039.7,-0.0558331,-0.0561948,-7.49289,6,-0.00358191,10,0.000421061,-2.12535,-0.479498,-0.123045,35.9841,-0.0561948,
2,0,0,1,0,11039.7,-0.0578216,-0.0581994,-7.56624,6,-0.00373174,10,0.000440351,-2.12112,-0.482096,-0.122382,36.1327,-0.0581994,
2,0,0,1,0,11039.8,-0.0598283,-0.0602079,-7.6379,6,-0.00388385,10,0.000459862,-2.11703,-0.448128,-0.131659,39.2827,-0.0602079,
2,0,0,1,0,11039.8,-0.0618259,-0.0622325,-7.72467,6,-0.00403747,10,0.000480725,-2.11212,-0.441652,-0.133589,40.24,-0.0622325,
2,0,0,1,0,11039.8,-0.0638235,-0.0642188,-7.7993,6,-0.00419272,10,0.000500862,-2.10794,-0.459469,-0.128409,39.0999,-0.0642188,
2,0,0,1,0,11039.8,-0.0658211,-0.0662104,-7.88021,6,-0.00434952,10,0.000521752,-2.10346,-0.422348,-0.139695,42.9846,-0.0662104,
2,0,0,1,0,11039.8,-0.0678187,-0.068192,-7.97008,6,-0.00450737,10,0.000543495,-2.09854,-0.395974,-0.149,46.357,-0.068192,
2,0,0,1,0,11039.9,-0.0698162,-0.0701853,-8.06448,6,-0.00466783,10,0.000566008,-2.09342,-0.402564,-0.146561,46.1148,-0.0701853,
2,0,0,1,0,11039.9,-0.0718138,-0.0722074,-8.15525,6,-0.0048301,10,0.000588869,-2.08856,-0.396173,-0.148925,47.419,-0.0722074,
2,0,0,1,0,11039.9,-0.0738114,-0.074175,-8.25366,6,-0.00499423,10,0.000612215,-2.08335,-0.356131,-0.165669,53.4083,-0.074175,
2,0,0,1,0,11039.9,-0.075809,-0.0761632,-8.36652,6,-0.00515973,10,0.000637221,-2.07746,-0.362232,-0.162879,53.137,-0.0761632,
2,0,0,1,0,11039.9,-0.0778066,-0.0781669,-8.46578,6,-0.00532816,10,0.000661744,-2.07233,-0.379418,-0.155501,51.4035,-0.07816691,
2,0,0,1,0,11040,-0.0798042,-0.0802145,-8.57477,6,-0.00549858,10,0.000687821,-2.06678,-0.345618,-0.170709,57.1554,-0.0802145,
2,0,0,1,0,11040,-0.0818018,-0.0821475,-8.69329,6,-0.00567127,10,0.000714132,-2.06082,-0.335012,-0.176113,59.7411,-0.0821475,
2,0,0,1,0,11040,-0.0837994,-0.0841552,-8.8102,6,-0.00584546,10,0.000741424,-2.05501,-0.350099,-0.168524,57.9339,-0.0841552,
2,0,0,1,0,11040,-0.0857969,-0.0861469,-8.92499,6,-0.00602279,10,0.000768861,-2.04939,-0.343172,-0.171925,59.9157,-0.0861469,
2,0,0,1,0,11040,-0.0877945,-0.0881623,-9.05028,6,-0.00620255,10,0.000797894,-2.04334,-0.35175,-0.167733,59.1928,-0.0881623,
2,0,0,1,0,11040.1,-0.0897921,-0.0901337,-9.16098,6,-0.00638469,10,0.000825713,-2.03806,-0.35817,-0.164726,58.9375,-0.0901337,
2,0,0,1,0,11040.1,-0.0917897,-0.0921675,-9.28634,6,-0.00656827,10,0.000855898,-2.03216,-0.353491,-0.166907,60.4536,-0.0921675,
2,0,0,1,0,11040.1,-0.0937873,-0.0941144,-9.40163,6,-0.0067552,10,0.000884828,-2.0268,-0.379369,-0.155521,57.0582,-0.0941144,
2,0,0,1,0,11040.1,-0.0957849,-0.0961958,-9.51619,6,-0.00694447,10,0.000915417,-2.02154,-0.388737,-0.151774,56.3563,-0.0961958,
2,0,0,1,0,11040.1,-0.0977825,-0.0981336,-9.62813,6,-0.00713596,10,0.000944843,-2.01646,-0.388178,-0.151992,57.1121,-0.0981336,
2,0,0,1,0,11040.2,-0.0997501,-0.100132,-9.74099,6,-0.00732578,10,0.000975385,-2.0114,0.00759733,7.76589,-2529.38,-0.100132,
2,0,0,1,1,11040.2,-0.0987313,-0.0991005,-7.18239,6,-0.00745536,10,0.000711778,-2.14373,-0.00947872,-6.22447,1673.15,-0.0991005,
2,0,0,1,1,11040.2,-0.0967337,-0.097092,-4.65463,6,-0.00757173,10,0.000451928,-2.33211,-0.00994774,-5.931,1085.03,-0.097092,
2,0,0,1,1,11040.2,-0.0947361,-0.0951082,-2.85065,6,-0.00764561,10,0.00027112,-2.54506,-0.00806425,-7.31624,790.404,-0.0951082,
2,0,0,1,1,11040.2,-0.0927386,-0.0930715,-1.47682,6,-0.00768809,10,0.00013745,-2.83067,-0.00467435,-12.6221,609.625,-0.0930715,
2,0,0,1,1,11040.3,-0.090741,-0.0910727,-0.390489,6,-0.00770616,10,3.55629e-05,-3.40839,-0.00801002,-7.36578,491.641,-0.0910727,
2,1,0,1,1,11040.3,-0.0887434,-0.0891067,0.47244,6,-0.00770497,10,-4.20976e-05,-3.32565,0.00814587,7.24294,400.983,-0.0891067,
2,1,0,1,1,11040.3,-0.0867458,-0.0871341,1.18883,6,-0.00768804,10,-0.000103588,-2.92488,0.00687704,8.57927,330.036,-0.0871341,
2,1,0,1,1,11040.3,-0.0847482,-0.0851453,1.77986,6,-0.00765808,10,-0.000151547,-2.74961,0.0141287,4.1759,272.844,-0.08514525,
2,1,0,1,1,11040.3,-0.0827529,-0.0831478,2.27645,6,-0.00761759,10,-0.000189282,-2.64274,0.0223575,2.63893,227.685,-0.0831478,
2,1,0,1,1,11040.4,-0.080753,-0.0810769,2.70617,6,-0.00756755,10,-0.000219408,-2.56764,0.0311389,1.89474,196.286,-0.0810769,
2,1,0,1,1,11040.4,-0.0787554,-0.079094,3.07217,6,-0.00750958,10,-0.00024299,-2.51255,0.0410784,1.43628,169.859,-0.079094,
2,1,0,1,1,11040.4,-0.0767579,-0.0771136,3.37936,6,-0.00744495,10,-0.000260595,-2.47117,0.0531049,1.11101,145.397,-0.0771136,
2,1,0,1,1,11040.4,-0.0747603,-0.0751121,3.65113,6,-0.00737452,10,-0.000274244,-2.43757,0.0636623,0.926765,131.451,-0.0751121,
2,1,0,1,1,11040.4,-0.0727627,-0.0731385,3.9019,6,-0.00729915,10,-0.000285379,-2.40872,0.0787638,0.749075,113.163,-0.07313849,
2,1,0,1,1,11040.5,-0.0707651,-0.0711509,4.09938,6,-0.00721907,10,-0.000291675,-2.38728,0.0989233,0.596422,95.1946,-0.0711509,
2,1,0,1,1,11040.5,-0.0687675,-0.0691297,4.28351,6,-0.00713519,10,-0.000296118,-2.3682,0.11707,0.503971,83.947,-0.0691297,
2,1,0,1,1,11040.5,-0.0667699,-0.0670766,4.44141,6,-0.00704788,10,-0.000297915,-2.35248,0.136541,0.432105,74.7337,-0.0670766,
2,1,0,1,1,11040.5,-0.0647723,-0.0651207,4.58312,6,-0.00695792,10,-0.000298456,-2.33884,0.15804,0.373323,66.6161,-0.0651207,
2,1,0,1,1,11040.5,-0.0627748,-0.06311,4.70565,6,-0.006865,10,-0.000296974,-2.32738,0.184066,0.320537,58.7931,-0.06311,
2,1,0,1,1,11040.6,-0.0607772,-0.0611163,4.81855,6,-0.00676972,10,-0.000294492,-2.31708,0.213062,0.276915,51.9754,-0.0611163,
2,1,0,1,1,11040.6,-0.0587796,-0.05909,4.91459,6,-0.00667236,10,-0.000290403,-2.30851,0.254069,0.232221,44.4737,-0.05909,
2,1,0,1,1,11040.6,-0.056782,-0.0571031,4.99703,6,-0.00657369,10,-0.000285346,-2.30129,0.286756,0.20575,40.09,-0.0571031,
2,1,0,1,1,11040.6,-0.0547844,-0.0551744,5.07157,6,-0.00647298,10,-0.000279821,-2.29486,0.336541,0.175313,34.6596,-0.0551744,
2,1,0,1,1,11040.6,-0.0527868,-0.0531175,5.13517,6,-0.00637085,10,-0.000272768,-2.28945,0.401239,0.147045,29.4436,-0.0531175,
2,1,0,1,1,11040.7,-0.0507892,-0.0511408,5.19033,6,-0.00626758,10,-0.000265437,-2.2848,0.41299,0.142861,28.9502,-0.0511408,
2,1,0,1,1,11040.7,-0.0487916,-0.0491425,5.25025,6,-0.00616368,10,-0.00025801,-2.27982,0.492346,0.119834,24.5014,-0.0491425,
2,1,0,1,1,11040.7,-0.046794,-0.0471587,5.2879,6,-0.00605825,10,-0.00024937,-2.27672,0.710827,0.0830019,17.1172,-0.0471587,
2,1,0,1,1,11040.7,-0.0447965,-0.0451649,5.31833,6,-0.00595209,10,-0.000240202,-2.27422,0.76611,0.0770124,15.9884,-0.04516492,
2,1,0,1,1,11040.7,-0.0427989,-0.0431842,5.35144,6,-0.00584533,10,-0.000231098,-2.27153,0.685965,0.0860102,17.9723,-0.04318418,
2,1,0,1,1,11040.8,-0.0408013,-0.0411705,5.39012,6,-0.00573846,10,-0.000221914,-2.2684,1.03384,0.0570686,11.9721,-0.0411705,
2,1,0,1,1,11040.8,-0.0388037,-0.039178,5.39941,6,-0.00563052,10,-0.000211538,-2.26765,1.82409,0.0323449,6.82139,-0.039178,
2,1,0,1,1,11040.8,-0.0368061,-0.0371439,5.41759,6,-0.0055223,10,-0.000201231,-2.26619,1.34112,0.0439932,9.30243,-0.0371439,
2,1,0,1,1,11040.8,-0.0348085,-0.0351551,5.43683,6,-0.00541369,10,-0.000191132,-2.26465,1.35277,0.0436141,9.25292,-0.0351551,
2,1,0,1,1,11040.8,-0.0328109,-0.0331373,5.45466,6,-0.00530537,10,-0.000180753,-2.26323,2.74381,0.021503,4.57021,-0.0331373,
2,1,0,1,1,11040.9,-0.0308134,-0.0311583,5.45509,6,-0.00519631,10,-0.000169971,-2.2632,10.5014,0.00561832,1.19654,-0.0311583,
2,1,0,1,1,11040.9,-0.0288158,-0.0291628,5.45942,6,-0.00508714,10,-0.000159212,-2.26285,5.62584,0.0104873,2.23454,-0.0291628,
2,1,0,1,1,11040.9,-0.0268182,-0.0271378,5.46408,6,-0.00497791,10,-0.000148283,-2.26248,7.82852,0.00753655,1.60672,-0.0271378,
2,1,0,1,1,11040.9,-0.0248138,-0.0251414,5.46588,6,-0.00486875,10,-0.00013742,-2.26234,13.5122,0.00436642,0.931438,-0.02514145,
2,1,0,1,1,11040.9,-0.022823,-0.0231575,5.46779,6,-0.00475992,10,-0.00012662,-2.26219,-13.6521,-0.00432169,-0.921579,-0.0231575,
2,1,0,1,1,11041,-0.0208254,-0.0211952,5.46224,6,-0.00465058,10,-0.000115773,-2.26263,-3.80482,-0.0155066,-3.30499,-0.0211952,
2,1,0,1,1,11041,-0.0188278,-0.0191832,5.45465,6,-0.00454141,10,-0.000104638,-2.26323,-7.41661,-0.00795512,-1.69478,-0.0191832,
2,1,0,1,1,11041,-0.0168393,-0.0172298,5.45552,6,-0.00443286,10,-9.39973e-05,-2.26316,23.6438,0.00249537,0.531311,-0.0172298,
2,1,0,1,1,11041,-0.0148327,-0.0152056,5.45676,6,-0.00432363,10,-8.29735e-05,-2.26306,-4.05259,-0.0145586,-3.09614,-0.0152056,
2,1,0,1,1,11041,-0.0128351,-0.0131867,5.443,6,-0.00421462,10,-7.17753e-05,-2.26416,-3.64613,-0.0161815,-3.44164,-0.0131867,
2,1,0,1,1,11041.1,-0.0108375,-0.0111778,5.4429,6,-0.0041057,10,-6.08395e-05,-2.26417,300.408,0.0001964,0.0417205,-0.01117777,
2,1,0,1,1,11041.1,-0.00883989,-0.00920093,5.44317,6,-0.00399677,10,-5.00822e-05,-2.26415,-13.2815,-0.00444226,-0.943297,-0.00920093,
2,1,0,1,1,11041.1,-0.0068423,-0.00720174,5.43915,6,-0.00388837,10,-3.91713e-05,-2.26447,-7.52742,-0.00783801,-1.66401,-0.00720174,
2,1,0,1,1,11041.1,-0.00484471,-0.00522413,5.43655,6,-0.00377952,10,-2.84012e-05,-2.26468,30.6467,0.00192516,0.408722,-0.00522413,
2,1,0,1,1,11041.1,-0.00284713,-0.00321041,5.44078,6,-0.00367071,10,-1.74672e-05,-2.26434,-24.7892,-0.00238007,-0.50489,-0.003210414,
2,1,0,1,1,11041.2,-0.000849538,-0.00123903,5.43454,6,-0.00356189,10,-6.73353e-06,-2.26484, , , ,-0.00123903,
2,1,0,1,1,11041.2,-2.55332e-05,-0.000401673,5.45762,6,-0.00351782,10,-2.19218e-06,-2.263, , , ,-0.000401673,