File: Figure_codes/Fig_3-5/rawdata_trumpetplot_data/after 10th/20221101_1-115_003_TrumpetPlot_ParaChange_from10_every3_06_CV_C01_27.csv
mode,ox/red,error,control changes,counter inc.,time/s,control/V,Ewe/V,<I>/mA,cycle number,(Q-Qo)/C,I Range,P/W,log(|I|),Tafel slope mV/dec,alpha_eff,dI/d(E-IR),E-IR/V,
2,0,0,0,0,54343.5,2.44065e-05,-0.000382585,-1.39563,28,0.0000000E+000,10,5.33947e-07,-2.85523, , , ,-0.000382585,
2,0,0,1,0,54343.6,0.00129787,0.000880927,-0.372089,28,-2.44863e-05,10,-3.27783e-07,-3.42935, , , ,0.000880927,
2,1,0,1,0,54343.6,0.00279427,0.00243552,0.263133,28,-2.48829e-05,10,6.40865e-07,-3.57983,0.17968,0.328362,336.715,0.00243552,
2,1,0,1,0,54343.6,0.00429425,0.00392679,0.625605,28,-7.16943e-06,10,2.45662e-06,-3.2037,0.00391446,15.0723,208.016,0.00392679,
2,1,0,1,0,54343.7,0.00579422,0.0054341,0.862209,28,2.1599e-05,10,4.68534e-06,-3.06439,0.0124404,4.74261,141.363,0.0054341,
2,1,0,1,0,54343.7,0.00729063,0.00696024,1.03548,28,5.79104e-05,10,7.20717e-06,-2.98486,0.0224887,2.62354,100.377,0.00696024,
2,1,0,1,0,54343.8,0.00878703,0.00844138,1.16452,28,9.97882e-05,10,9.83016e-06,-2.93385,0.0342465,1.7228,75.9765,0.00844138,
2,1,0,1,0,54343.8,0.010287,0.00995119,1.26219,28,0.000145989,10,1.25603e-05,-2.89887,0.0474113,1.24443,60.2571,0.00995119,
2,1,0,1,0,54343.8,0.011787,0.0114635,1.33837,28,0.000195508,10,1.53424e-05,-2.87342,0.0622474,0.947832,49.099,0.0114635,
2,1,0,1,0,54343.9,0.0132825,0.0129025,1.40741,28,0.00024753,10,1.81592e-05,-2.85158,0.0775839,0.760467,41.5798,0.01290253,
2,1,0,1,0,54343.9,0.014778,0.0144036,1.46353,28,0.000301835,10,2.10801e-05,-2.8346,0.0922894,0.639294,36.3127,0.01440361,
2,1,0,1,0,54343.9,0.0162815,0.0159575,1.51822,28,0.000358557,10,2.4227e-05,-2.81866,0.111365,0.529789,31.1157,0.0159575,
2,1,0,1,0,54344,0.017778,0.0174249,1.56181,28,0.000416733,10,2.72144e-05,-2.80637,0.127195,0.463856,28.1461,0.0174249,
2,1,0,1,0,54344,0.0192744,0.0189033,1.59747,28,0.000476371,10,3.01974e-05,-2.79657,0.141111,0.418111,26.0747,0.0189033,
2,1,0,1,0,54344.1,0.0207743,0.0204318,1.63754,28,0.000537698,10,3.3458e-05,-2.78581,0.147728,0.399382,25.5369,0.0204318,
2,1,0,1,0,54344.1,0.0222743,0.0219259,1.67367,28,0.000600506,10,3.66966e-05,-2.77633,0.1539,0.383366,25.0635,0.0219259,
2,1,0,1,0,54344.1,0.0237707,0.0234403,1.7112,28,0.000664527,10,4.0111e-05,-2.7667,0.167315,0.352628,23.5693,0.02344026,
2,1,0,1,0,54344.2,0.0252671,0.024918,1.74643,28,0.000729781,10,4.35176e-05,-2.75785,0.182645,0.323031,22.0077,0.024918,
2,1,0,1,0,54344.2,0.0267671,0.0263969,1.78077,28,0.000796508,10,4.70069e-05,-2.74939,0.170738,0.345559,23.9763,0.0263969,
2,1,0,1,0,54344.2,0.0282671,0.0279277,1.81725,28,0.000864522,10,5.07516e-05,-2.74058,0.179106,0.329414,23.3007,0.0279277,
2,1,0,1,0,54344.3,0.0297626,0.0294049,1.84858,28,0.00093365,10,5.43573e-05,-2.73316,0.191686,0.307794,22.1505,0.0294049,
2,1,0,1,0,54344.3,0.0312581,0.0309223,1.87867,28,0.00100402,10,5.80928e-05,-2.72615,0.190121,0.310328,22.7479,0.03092232,
2,1,0,1,0,54344.4,0.0327616,0.0323724,1.91164,28,0.00107591,10,6.18845e-05,-2.71859,0.192327,0.30677,22.9358,0.0323724,
2,1,0,1,0,54344.4,0.034258,0.0338733,1.94172,28,0.00114871,10,6.57726e-05,-2.71181,0.200142,0.294791,22.4229,0.0338733,
2,1,0,1,0,54344.4,0.0357545,0.0354222,1.97823,28,0.00122276,10,7.0073e-05,-2.70372,0.228195,0.258551,19.9581,0.0354222,
2,1,0,1,0,54344.5,0.0372544,0.0369006,2.01228,28,0.00129825,10,7.42545e-05,-2.69631,0.227445,0.259404,20.3578,0.0369006,
2,1,0,1,0,54344.5,0.0387544,0.0383945,2.04422,28,0.00137482,10,7.84866e-05,-2.68947,0.211411,0.279077,22.2595,0.0383945,
2,1,0,1,0,54344.5,0.0402508,0.0399096,2.08062,28,0.00145247,10,8.30366e-05,-2.68181,0.22039,0.267707,21.6923,0.0399096,
2,1,0,1,0,54344.6,0.0417472,0.0413699,2.11063,28,0.00153147,10,8.73165e-05,-2.67559,0.224375,0.262952,21.6141,0.0413699,
2,1,0,1,0,54344.6,0.0432472,0.0429121,2.14506,28,0.00161187,10,9.2049e-05,-2.66856,0.239482,0.246366,20.5901,0.0429121,
2,1,0,1,0,54344.7,0.0447472,0.0443986,2.17009,28,0.00169337,10,9.6349e-05,-2.66352,0.237022,0.248922,21.1478,0.0443986,
2,1,0,1,0,54344.7,0.0462427,0.0458801,2.20236,28,0.00177587,10,0.000101045,-2.65711,0.225271,0.261906,22.5587,0.0458801,
2,1,0,1,0,54344.7,0.0477382,0.0473469,2.23636,28,0.00185961,10,0.000105885,-2.65046,0.235317,0.250725,21.9078,0.04734695,
2,1,0,1,0,54344.8,0.0492417,0.0489065,2.27185,28,0.00194503,10,0.000111108,-2.64362,0.246336,0.239511,21.208,0.04890649,
2,1,0,1,0,54344.8,0.0507381,0.0503917,2.29982,28,0.0020311,10,0.000115892,-2.63831,0.261454,0.225661,20.2517,0.0503917,
2,1,0,1,0,54344.8,0.0522345,0.0518597,2.33365,28,0.0021183,10,0.000121022,-2.63197,0.245908,0.239927,21.8143,0.05185974,
2,1,0,1,0,54344.9,0.0537345,0.0533914,2.36908,28,0.00220694,10,0.000126489,-2.62542,0.262652,0.224632,20.6905,0.0533914,
2,1,0,1,0,54344.9,0.0552345,0.0549221,2.39319,28,0.00229681,10,0.000131439,-2.62102,0.279022,0.211453,19.7227,0.05492207,
2,1,0,1,0,54345,0.0567309,0.0563984,2.42046,28,0.0023875,10,0.00013651,-2.6161,0.302833,0.194827,18.4233,0.0563984,
2,1,0,1,0,54345,0.0582273,0.0578763,2.44663,28,0.0024792,10,0.000141602,-2.61143,0.298252,0.197819,18.9476,0.0578763,
2,1,0,1,0,54345,0.0597308,0.0593685,2.47735,28,0.00257251,10,0.000147077,-2.60601,0.297827,0.198101,19.186,0.0593685,
2,1,0,1,0,54345.1,0.0612264,0.0608637,2.50998,28,0.00266639,10,0.000152767,-2.60033,0.336785,0.175186,17.1329,0.0608637,
2,1,0,1,0,54345.1,0.0627219,0.0624263,2.53657,28,0.00276133,10,0.000158349,-2.59575,0.329701,0.17895,17.678,0.0624263,
2,1,0,1,0,54345.1,0.0642218,0.0639003,2.56436,28,0.00285743,10,0.000163864,-2.59102,0.321218,0.183676,18.3506,0.0639003,
2,1,0,1,0,54345.2,0.0657218,0.0653453,2.58881,28,0.00295461,10,0.000169166,-2.5869,0.309086,0.190885,19.2549,0.0653453,
2,1,0,1,0,54345.2,0.0672182,0.0668567,2.61704,28,0.0030526,10,0.000174967,-2.58219,0.34124,0.172899,17.6426,0.0668567,
2,1,0,1,0,54345.3,0.0687146,0.0684074,2.6379,28,0.00315154,10,0.000180452,-2.57874,0.417435,0.141339,14.5703,0.0684074,
2,1,0,1,0,54345.3,0.0702146,0.0698497,2.66014,28,0.00325159,10,0.00018581,-2.57509,0.394298,0.149633,15.5741,0.0698497,
2,1,0,1,0,54345.3,0.0717146,0.071332,2.68505,28,0.00335251,10,0.00019153,-2.57105,0.415265,0.142078,14.9063,0.071332,
2,1,0,1,0,54345.4,0.073211,0.07285,2.71181,28,0.0034541,10,0.000197556,-2.56674,0.415361,0.142045,15.0194,0.07285,
2,1,0,1,0,54345.4,0.0747074,0.0743531,2.73766,28,0.00355654,10,0.000203553,-2.56262,0.444857,0.132627,14.1324,0.0743531,
2,1,0,1,0,54345.4,0.0762109,0.0758208,2.75481,28,0.0036603,10,0.000208872,-2.55991,0.474455,0.124353,13.3318,0.0758208,
2,1,0,1,0,54345.5,0.0777064,0.0773386,2.77358,28,0.00376426,10,0.000214505,-2.55696,0.44189,0.133517,14.4379,0.0773386,
2,1,0,1,0,54345.5,0.079202,0.0788565,2.79577,28,0.00386898,10,0.000220465,-2.5535,0.478261,0.123364,13.4408,0.0788565,
2,1,0,1,0,54345.6,0.0807019,0.0803477,2.81221,28,0.00397477,10,0.000225955,-2.55095,0.509385,0.115826,12.713,0.0803477,
2,1,0,1,0,54345.6,0.0822019,0.0818846,2.82359,28,0.0040812,10,0.000231209,-2.5492,0.59205,0.0996538,11.0081,0.0818846,
2,1,0,1,0,54345.6,0.0836983,0.0833548,2.84519,28,0.00418795,10,0.00023716,-2.54589,0.546953,0.10787,11.9928,0.0833548,
2,1,0,1,0,54345.7,0.0851947,0.0848556,2.86645,28,0.00429544,10,0.000243234,-2.54266,0.485592,0.121501,13.6038,0.0848556,
2,1,0,1,0,54345.7,0.0866947,0.0863701,2.89175,28,0.00440397,10,0.00024976,-2.53884,0.522928,0.112826,12.6918,0.0863701,
2,1,0,1,0,54345.7,0.0881947,0.0878242,2.91114,28,0.00451326,10,0.000255669,-2.53594,0.53652,0.109968,12.4669,0.0878242,
2,1,0,1,0,54345.8,0.0896911,0.0893529,2.92711,28,0.00462287,10,0.000261545,-2.53356,0.485012,0.121647,13.9027,0.0893529,
2,1,0,1,0,54345.8,0.0911875,0.0907997,2.94851,28,0.00473332,10,0.000267724,-2.5304,0.428251,0.13777,15.8658,0.0907997,
2,1,0,1,0,54345.9,0.0926901,0.0923588,2.97436,28,0.00484532,10,0.000274708,-2.52661,0.408008,0.144605,16.7929,0.0923588,
2,1,0,1,0,54345.9,0.0941856,0.0938817,2.99465,28,0.00495763,10,0.000281142,-2.52365,0.415966,0.141839,16.6068,0.0938817,
2,1,0,1,0,54345.9,0.095682,0.0952967,3.02236,28,0.00507083,10,0.000288021,-2.51965,0.369843,0.159527,18.8612,0.0952967,
2,1,0,1,0,54346,0.097182,0.0968233,3.05659,28,0.00518537,10,0.000295949,-2.51476,0.294596,0.200274,23.8962,0.0968233,
2,1,0,1,0,54346,0.098682,0.0982982,3.095,28,0.00530128,10,0.000304233,-2.50934,0.26596,0.221838,26.7746,0.0982982,
2,1,0,1,0,54346,0.100178,0.099811,3.13426,28,0.00541836,10,0.000312834,-2.50386,0.275931,0.213822,26.131,0.099811,
2,1,0,1,0,54346.1,0.101675,0.101328,3.16901,28,0.0055369,10,0.000321109,-2.49908,0.264965,0.222671,27.6088,0.101328,
2,1,0,1,0,54346.1,0.103175,0.102831,3.21976,28,0.00565732,10,0.000331091,-2.49218,0.235634,0.250388,31.5062,0.102831,
2,1,0,1,0,54346.2,0.104675,0.104329,3.27166,28,0.00577959,10,0.000341328,-2.48523,0.215948,0.273214,34.9006,0.104329,
2,1,0,1,0,54346.2,0.106171,0.105792,3.32215,28,0.00590347,10,0.000351459,-2.47858,0.221134,0.266806,34.585,0.1057925,
2,1,0,1,0,54346.2,0.107667,0.107303,3.37252,28,0.00602931,10,0.000361883,-2.47205,0.222534,0.265128,34.9084,0.107303,
2,1,0,1,0,54346.3,0.10917,0.108815,3.42771,28,0.0061577,10,0.000372985,-2.465,0.219208,0.269151,36.0171,0.108815,
2,1,0,1,0,54346.3,0.110666,0.11027,3.4829,28,0.0062875,10,0.000384058,-2.45806,0.216362,0.272691,37.0101,0.11027,
2,1,0,1,0,54346.3,0.112162,0.11183,3.53863,28,0.00641941,10,0.000395727,-2.45116,0.227952,0.258827,35.6719,0.11183,
2,1,0,1,0,54346.4,0.113662,0.113333,3.59183,28,0.00655369,10,0.000407072,-2.44468,0.245257,0.240564,33.6787,0.113333,
2,1,0,1,0,54346.4,0.115162,0.114783,3.63873,28,0.00668981,10,0.000417666,-2.43905,0.257808,0.228852,32.5043,0.114783,
2,1,0,1,0,54346.5,0.116658,0.116254,3.68567,28,0.00682748,10,0.000428474,-2.43348,0.264538,0.22303,32.0917,0.116254,
2,1,0,1,0,54346.5,0.118155,0.1178,3.73475,28,0.00696701,10,0.000439955,-2.42774,0.292849,0.201469,29.3427,0.1178,
2,1,0,1,0,54346.5,0.119655,0.119317,3.77799,28,0.00710856,10,0.000450779,-2.42274,0.349389,0.168866,24.8643,0.119317,
2,1,0,1,0,54346.6,0.121155,0.120828,3.81427,28,0.00725148,10,0.000460872,-2.41859,0.375957,0.156933,23.3335,0.120828,
2,1,0,1,0,54346.6,0.122651,0.1223,3.84701,28,0.00739529,10,0.00047049,-2.41488,0.402311,0.146653,21.9721,0.1223003,
2,1,0,1,0,54346.6,0.124147,0.123756,3.87664,28,0.00754032,10,0.000479757,-2.41154,0.468651,0.125893,19.0179,0.123756,
2,1,0,1,0,54346.7,0.12565,0.125253,3.90226,28,0.00768718,10,0.00048877,-2.40868,0.612837,0.0962735,14.6329,0.125253,
2,1,0,1,0,54346.7,0.127146,0.126744,3.91475,28,0.00783408,10,0.000496172,-2.4073,0.639189,0.0923045,14.1379,0.1267444,
2,1,0,1,0,54346.8,0.128642,0.128293,3.93707,28,0.00798166,10,0.000505098,-2.40483,0.704144,0.0837897,12.8985,0.128293,
2,1,0,1,0,54346.8,0.130142,0.129799,3.95893,28,0.00813046,10,0.000513866,-2.40242,0.807984,0.0730213,11.2819,0.129799,
2,1,0,1,0,54346.8,0.131642,0.13132,3.9754,28,0.0082799,10,0.000522048,-2.40062,1.12517,0.0524365,8.12577,0.13132,
2,1,0,1,0,54346.9,0.133139,0.132766,3.98679,28,0.00842942,10,0.00052931,-2.39938,1.33474,0.0442035,6.87312,0.132766,
2,1,0,1,0,54346.9,0.134635,0.134287,4.00185,28,0.00857927,10,0.000537395,-2.39774,2.42059,0.0243743,3.79879,0.134287,
2,1,0,1,0,54346.9,0.136135,0.135778,4.00477,28,0.00872991,10,0.000543761,-2.39742,3.31016,0.0178239,2.77984,0.135778,
2,1,0,1,0,54347,0.137635,0.137318,4.00641,28,0.00888072,10,0.000550151,-2.39724,-4.89976,-0.0120414,-1.87865,0.137318,
2,1,0,1,0,54347,0.13913,0.13879,3.99958,28,0.00903103,10,0.000555102,-2.39799,-1.1102,-0.0531435,-8.28043,0.13879,
2,1,0,1,0,54347.1,0.140626,0.140252,3.97755,28,0.00918086,10,0.00055786,-2.40038,-0.701073,-0.0841568,-13.0632,0.140252,
2,1,0,1,0,54347.1,0.14213,0.14181,3.95657,28,0.00933076,10,0.000561081,-2.40268,-0.467973,-0.126076,-19.4293,0.14181,
2,1,0,1,0,54347.1,0.143626,0.143268,3.92254,28,0.00947882,10,0.000561975,-2.40643,-0.315175,-0.187198,-28.5612,0.143268,
2,1,0,1,0,54347.2,0.145122,0.144782,3.87269,28,0.00962522,10,0.000560698,-2.41199,-0.219475,-0.268823,-40.4475,0.144782,
2,1,0,1,0,54347.2,0.146622,0.146249,3.8031,28,0.00976974,10,0.000556199,-2.41986,-0.170763,-0.345508,-51.0815,0.1462487,
2,1,0,1,0,54347.2,0.148122,0.147791,3.72542,28,0.00991141,10,0.000550583,-2.42883,-0.146189,-0.403588,-58.4275,0.147791,
2,1,0,1,0,54347.3,0.149619,0.149257,3.62882,28,0.0100494,10,0.000541625,-2.44023,-0.12673,-0.465555,-65.7434,0.149257,
2,1,0,1,0,54347.3,0.151115,0.150761,3.51839,28,0.0101837,10,0.000530435,-2.45366,-0.108867,-0.541946,-74.2297,0.150761,
2,1,0,1,0,54347.4,0.152615,0.152272,3.40605,28,0.0103142,10,0.000518644,-2.46775,-0.100818,-0.585211,-77.6917,0.152272,
2,1,0,1,0,54347.4,0.154115,0.153761,3.28195,28,0.0104402,10,0.000504635,-2.48387,-0.0934007,-0.631687,-80.9517,0.153761,
2,1,0,1,0,54347.4,0.155611,0.155242,3.16192,28,0.0105614,10,0.000490863,-2.50005,-0.0905343,-0.651686,-80.4227,0.155242,
2,1,0,1,0,54347.5,0.157106,0.156783,3.04407,28,0.0106781,10,0.000477258,-2.51655,-0.0910907,-0.647706,-76.8533,0.1567829,
2,1,0,1,0,54347.5,0.15861,0.158274,2.93021,28,0.0107909,10,0.000463776,-2.5331,-0.0894242,-0.659777,-75.4306,0.158274,
2,1,0,1,0,54347.5,0.160106,0.15972,2.81423,28,0.0108988,10,0.000449488,-2.55064,-0.0906588,-0.650792,-71.6529,0.1597196,
2,1,0,1,0,54347.6,0.161602,0.161271,2.71201,28,0.0110028,10,0.000437368,-2.56671,-0.0958164,-0.615761,-65.3569,0.161271,
2,1,0,1,0,54347.6,0.163102,0.16274,2.62032,28,0.0111033,10,0.00042643,-2.58165,-0.0992523,-0.594445,-60.9113,0.16274,
2,1,0,1,0,54347.7,0.164602,0.164296,2.52917,28,0.0112005,10,0.000415531,-2.59702,-0.106415,-0.554431,-54.9145,0.164296,
2,1,0,1,0,54347.7,0.166099,0.165743,2.44788,28,0.0112942,10,0.000405719,-2.61121,-0.111273,-0.530226,-50.8712,0.165743,
2,1,0,1,0,54347.7,0.167595,0.167214,2.38089,28,0.0113851,10,0.000398117,-2.62326,-0.126295,-0.467159,-43.4752,0.1672136,
2,1,0,1,0,54347.8,0.169095,0.168765,2.32114,28,0.0114737,10,0.000391726,-2.6343,-0.133779,-0.441025,-39.902,0.168765,
2,1,0,1,0,54347.8,0.170595,0.170223,2.2633,28,0.0115602,10,0.000385266,-2.64526,-0.139594,-0.422656,-37.2525,0.170223,
2,1,0,1,0,54347.8,0.172091,0.171757,2.20236,28,0.0116442,10,0.000378271,-2.65711,-0.150257,-0.39266,-33.8116,0.171757,
2,1,0,1,0,54347.9,0.173586,0.173228,2.15739,28,0.0117262,10,0.000373721,-2.66607,-0.158625,-0.371945,-31.3454,0.173228,
2,1,0,1,0,54347.9,0.17509,0.174736,2.11194,28,0.0118071,10,0.000369032,-2.67532,-0.176625,-0.33404,-27.6104,0.174736,
2,1,0,1,0,54348,0.176586,0.176208,2.07209,28,0.011886,10,0.000365119,-2.68359,-0.181012,-0.325946,-26.4484,0.176208,
2,1,0,1,0,54348,0.178082,0.177777,2.04184,28,0.0119636,10,0.000362992,-2.68998,-0.220236,-0.267894,-21.378,0.177777,
2,1,0,1,0,54348,0.179582,0.17923,2.01005,28,0.01204,10,0.00036026,-2.69679,-0.241532,-0.244274,-19.195,0.17923,
2,1,0,1,0,54348.1,0.181082,0.180774,1.98537,28,0.0121154,10,0.000358902,-2.70216,-0.269479,-0.218941,-16.9471,0.180774,
2,1,0,1,0,54348.1,0.182579,0.182303,1.96041,28,0.0121898,10,0.000357389,-2.70765,-0.272204,-0.216749,-16.5453,0.182303,
2,1,0,1,0,54348.1,0.184075,0.183725,1.93789,28,0.0122631,10,0.000356039,-2.71267,-0.31813,-0.185459,-14.0179,0.183725,
2,1,0,1,0,54348.2,0.185579,0.185207,1.91389,28,0.012336,10,0.000354465,-2.71808,-0.333306,-0.177015,-13.2368,0.185207,
2,1,0,1,0,54348.2,0.187074,0.186692,1.89399,28,0.0124078,10,0.000353593,-2.72262,-0.382102,-0.154409,-11.4271,0.186692,
2,1,0,1,0,54348.3,0.18857,0.188236,1.87556,28,0.0124789,10,0.000353048,-2.72687,-0.443447,-0.133049,-9.77404,0.188236,
2,1,0,1,0,54348.3,0.19007,0.189689,1.86339,28,0.0125497,10,0.000353464,-2.7297,-0.427429,-0.138035,-10.0372,0.189689,
2,1,0,1,0,54348.3,0.19157,0.191193,1.84702,28,0.0126199,10,0.000353137,-2.73353,-0.463723,-0.127231,-9.18054,0.191193,
2,1,0,1,0,54348.4,0.193066,0.192728,1.8349,28,0.0126893,10,0.000353635,-2.73639,-0.689913,-0.085518,-6.12533,0.192728,
2,1,0,1,0,54348.4,0.194563,0.194141,1.82843,28,0.0127584,10,0.000354973,-2.73792,-0.53823,-0.109618,-7.79143,0.194141,
2,1,0,1,0,54348.4,0.196063,0.19569,1.8137,28,0.0128272,10,0.000354924,-2.74143,-0.581289,-0.101499,-7.1845,0.19569,
2,1,0,1,0,54348.5,0.197563,0.19721,1.80185,28,0.0128956,10,0.000355342,-2.74428,-0.625029,-0.0943957,-6.64732,0.19721,
2,1,0,1,0,54348.5,0.199059,0.198732,1.79163,28,0.0129634,10,0.000356054,-2.74675,-0.618263,-0.0954287,-6.69163,0.198732,
2,1,0,1,0,54348.6,0.200555,0.200219,1.78458,28,0.0130309,10,0.000357307,-2.74846,-0.739725,-0.0797593,-5.55821,0.200219,
2,1,0,1,0,54348.6,0.202059,0.201735,1.77841,28,0.0130985,10,0.000358768,-2.74997,-0.719509,-0.0820004,-5.68476,0.201735,
2,1,0,1,0,54348.6,0.203554,0.203193,1.7699,28,0.0131654,10,0.000359632,-2.75205,-0.724684,-0.0814148,-5.6214,0.203193,
2,1,0,1,0,54348.7,0.20505,0.20469,1.76433,28,0.013232,10,0.00036114,-2.75342,-1.70801,-0.0345431,-2.38252,0.20469,
2,1,0,1,0,54348.7,0.20655,0.206194,1.75935,28,0.0132986,10,0.000362768,-2.75465,-1.31999,-0.0446975,-3.05951,0.206194,
2,1,0,1,0,54348.7,0.20805,0.20771,1.75343,28,0.0133652,10,0.000364204,-2.75611,-1.1901,-0.0495758,-3.3869,0.20771,
2,1,0,1,0,54348.8,0.209546,0.209197,1.74495,28,0.0134313,10,0.000365039,-2.75822,-0.708469,-0.0832782,-5.68433,0.209197,
2,1,0,1,0,54348.8,0.211043,0.210691,1.73583,28,0.013497,10,0.000365724,-2.76049,-0.838834,-0.0703358,-4.78543,0.210691,
2,1,0,1,0,54348.9,0.212543,0.212183,1.73634,28,0.0135628,10,0.000368423,-2.76036,-1.48621,-0.0396983,-2.68614,0.212183,
2,1,0,1,0,54348.9,0.214043,0.213709,1.73166,28,0.0136283,10,0.000370072,-2.76154,-1.75279,-0.0336606,-2.27355,0.213709,
2,1,0,1,0,54348.9,0.215539,0.215211,1.72876,28,0.0136936,10,0.000372048,-2.76227,-1.2369,-0.0476998,-3.2129,0.215211,
2,1,0,1,0,54349,0.217035,0.216675,1.72019,28,0.0137586,10,0.000372723,-2.76442,-2.04247,-0.0288866,-1.93828,0.216675,
2,1,0,1,0,54349,0.218538,0.218177,1.71938,28,0.0138238,10,0.000375129,-2.76463,-2.58217,-0.022849,-1.52936,0.218177,
2,1,0,1,0,54349,0.220034,0.219702,1.71377,28,0.0138885,10,0.00037652,-2.76605,-2.49096,-0.0236857,-1.58442,0.219702,
2,1,0,1,0,54349.1,0.22153,0.221201,1.70868,28,0.0139532,10,0.000377961,-2.76734,-1.48595,-0.0397052,-2.65184,0.221201,
2,1,0,1,0,54349.1,0.22303,0.222713,1.70023,28,0.0140178,10,0.000378663,-2.76949,-1.69182,-0.0348737,-2.32266,0.222713,
2,1,0,1,0,54349.2,0.22453,0.224171,1.69834,28,0.0140823,10,0.000380719,-2.76998,-1.88004,-0.0313823,-2.08596,0.224171,
2,1,0,1,0,54349.2,0.226026,0.225698,1.69736,28,0.0141464,10,0.00038309,-2.77023,-1.53983,-0.0383159,-2.53761,0.225698,
2,1,0,1,0,54349.2,0.227523,0.227215,1.6953,28,0.0142105,10,0.000385197,-2.77075,-1.04441,-0.0564911,-3.73133,0.227215,
2,1,0,1,0,54349.3,0.229023,0.228715,1.69576,28,0.0142746,10,0.000387845,-2.77064,-1.68786,-0.0349554,-2.30523,0.228715,
2,1,0,1,0,54349.3,0.230523,0.230154,1.68811,28,0.0143385,10,0.000388525,-2.7726,-2.60996,-0.0226057,-1.48976,0.230154,
2,1,0,1,0,54349.3,0.232019,0.231688,1.6892,28,0.0144022,10,0.000391368,-2.77232,-3.47923,-0.0169578,-1.11638,0.231688,
2,1,0,1,0,54349.4,0.233515,0.233151,1.68303,28,0.0144658,10,0.0003924,-2.77391,-2.61997,-0.0225193,-1.48093,0.233151,
2,1,0,1,0,54349.4,0.235018,0.234635,1.67728,28,0.0145297,10,0.000393548,-2.77539,-1.66225,-0.0354942,-2.33005,0.234635,
2,1,0,1,0,54349.5,0.236514,0.236172,1.67549,28,0.014593,10,0.000395705,-2.77586,-1.58545,-0.0372135,-2.43829,0.236172,
2,1,0,1,0,54349.5,0.23801,0.237698,1.67346,28,0.0146563,10,0.000397778,-2.77639,-7.28307,-0.00810098,-0.528834,0.237698,
2,1,0,1,0,54349.5,0.23951,0.239203,1.67689,28,0.0147197,10,0.000401118,-2.77549,-2.17938,-0.027072,-1.76502,0.239203,
2,1,0,1,0,54349.6,0.24101,0.240653,1.67294,28,0.0147829,10,0.000402596,-2.77652,-1.76478,-0.0334319,-2.17688,0.240653,
2,1,0,1,0,54349.6,0.242506,0.242171,1.66729,28,0.0148459,10,0.000403769,-2.77799,-2.41976,-0.0243826,-1.58651,0.242171,
2,1,0,1,0,54349.6,0.244003,0.243609,1.66574,28,0.0149088,10,0.000405789,-2.77839,-2.62074,-0.0225127,-1.464,0.243609,
2,1,0,1,0,54349.7,0.245503,0.24521,1.66705,28,0.0149718,10,0.000408777,-2.77805,-6.19964,-0.00951669,-0.618377,0.24521,
2,1,0,1,0,54349.7,0.247003,0.246671,1.65855,28,0.0150348,10,0.000409115,-2.78027,-3.47199,-0.0169931,-1.10213,0.2466709,
2,1,0,1,0,54349.8,0.248499,0.248135,1.65556,28,0.0150975,10,0.000410803,-2.78106,-3.49375,-0.0168873,-1.09366,0.248135,
2,1,0,1,0,54349.8,0.249995,0.249655,1.65642,28,0.01516,10,0.000413534,-2.78083,-2.25235,-0.0261949,-1.69323,0.249655,
2,1,0,1,0,54349.8,0.251498,0.251164,1.6566,28,0.0152228,10,0.000416079,-2.78078,-12.3916,-0.00476129,-0.307297,0.251164,
2,1,0,1,0,54349.9,0.252994,0.252648,1.65246,28,0.0152852,10,0.000417492,-2.78187,-1.42235,-0.0414807,-2.67062,0.252648,
2,1,0,1,0,54349.9,0.25449,0.254157,1.6515,28,0.0153476,10,0.000419741,-2.78212,-2.18363,-0.0270192,-1.73815,0.254157,
2,1,0,1,0,54349.9,0.25599,0.255678,1.6484,28,0.0154099,10,0.000421459,-2.78294,-2.16767,-0.0272181,-1.7505,0.255678,
2,1,0,1,0,54350,0.25749,0.257171,1.64567,28,0.0154722,10,0.000423219,-2.78366,-3.63339,-0.0162383,-1.04258,0.257171,
2,1,0,1,0,54350,0.258987,0.25863,1.64172,28,0.0155344,10,0.000424598,-2.7847,-70.8479,-0.00083277,-0.0534718,0.25863,
2,1,0,1,0,54350.1,0.260483,0.260129,1.64108,28,0.0155964,10,0.000426894,-2.78487,-1.49573,-0.0394456,-2.52741,0.260129,
2,1,0,1,0,54350.1,0.261983,0.261648,1.63977,28,0.0156585,10,0.000429044,-2.78522,-1.78075,-0.033132,-2.12126,0.261648,
2,1,0,1,0,54350.1,0.263483,0.263132,1.63988,28,0.0157205,10,0.000431506,-2.78519,-8.33768,-0.00707631,-0.451331,0.263132,
2,1,0,1,0,54350.2,0.264978,0.264623,1.63849,28,0.0157822,10,0.000433581,-2.78556,-2.93345,-0.0201128,-1.28352,0.264623,
2,1,0,1,0,54350.2,0.266474,0.266177,1.63659,28,0.0158439,10,0.000435623,-2.78606,-2.3562,-0.0250404,-1.59478,0.266177,
2,1,0,1,0,54350.2,0.267977,0.267591,1.62642,28,0.0159059,10,0.000435216,-2.78877,-1.97825,-0.0298244,-1.89907,0.267591,
2,1,0,1,0,54350.3,0.269474,0.269173,1.62713,28,0.0159673,10,0.000437979,-2.78858,-7.01511,-0.00841041,-0.535061,0.269173,
2,1,0,1,0,54350.3,0.27097,0.270641,1.62639,28,0.0160288,10,0.000440168,-2.78878,-2.0297,-0.0290683,-1.84696,0.270641,
2,1,0,1,0,54350.3,0.27247,0.272106,1.62287,28,0.0160903,10,0.000441593,-2.78972,-1.42436,-0.0414221,-2.62193,0.272106,
2,1,0,1,0,54350.4,0.27397,0.273617,1.61837,28,0.0161518,10,0.000442815,-2.79092,-2.16812,-0.0272125,-1.72169,0.273617,
2,1,0,1,0,54350.4,0.275467,0.275105,1.6207,28,0.0162129,10,0.000445863,-2.7903,-1.45548,-0.0405364,-2.55897,0.275105,
2,1,0,1,0,54350.5,0.276963,0.276619,1.62072,28,0.016274,10,0.000448322,-2.79029,-2.93548,-0.0200989,-1.26611,0.276619,
2,1,0,1,0,54350.5,0.278463,0.278095,1.61665,28,0.0163352,10,0.000449583,-2.79138,-1.54328,-0.0382302,-2.40301,0.278095,
2,1,0,1,0,54350.5,0.279963,0.279599,1.61109,28,0.0163963,10,0.000450458,-2.79288,-1.76779,-0.033375,-2.09804,0.279599,
2,1,0,1,0,54350.6,0.281459,0.281132,1.60509,28,0.016457,10,0.000451241,-2.7945,-1.85482,-0.031809,-2,0.281132,
2,1,0,1,0,54350.6,0.282954,0.282576,1.60408,28,0.0165177,10,0.000453275,-2.79477,-8.78573,-0.00671544,-0.421474,0.282576,
2,1,0,1,0,54350.6,0.284458,0.284107,1.60543,28,0.0165787,10,0.000456115,-2.79441,-9.12523,-0.00646559,-0.404845,0.284107,
2,1,0,1,0,54350.7,0.285954,0.285604,1.60271,28,0.0166393,10,0.00045774,-2.79515,-2.21431,-0.0266449,-1.66597,0.285604,
2,1,0,1,0,54350.7,0.28745,0.287129,1.5986,28,0.0166997,10,0.000459004,-2.79626,-1.84765,-0.0319325,-1.98919,0.287129,
2,1,0,1,0,54350.8,0.28895,0.288638,1.59742,28,0.0167602,10,0.000461075,-2.79658,-3.5625,-0.0165614,-1.02985,0.288638,
2,1,0,1,0,54350.8,0.29045,0.290183,1.59634,28,0.0168206,10,0.00046323,-2.79688,-4.0343,-0.0146246,-0.908818,0.290183,
2,1,0,1,0,54350.8,0.291947,0.29161,1.58994,28,0.0168808,10,0.000463641,-2.79862,-1.43309,-0.0411698,-2.55374,0.29161,
2,1,0,1,0,54350.9,0.293443,0.293091,1.58555,28,0.0169408,10,0.000464712,-2.79982,-1.67376,-0.0352499,-2.18976,0.293091,
2,1,0,1,0,54350.9,0.294943,0.294599,1.58353,28,0.0170009,10,0.000466507,-2.80037,-2.45137,-0.0240681,-1.49317,0.294599,
2,1,0,1,0,54350.9,0.296443,0.296119,1.58419,28,0.0170609,10,0.000469111,-2.80019,-3.1007,-0.019028,-1.17651,0.296119,
2,1,0,1,0,54351,0.297939,0.297635,1.5842,28,0.0171207,10,0.000471512,-2.80019,-1.33287,-0.0442653,-2.73023,0.297635,
2,1,0,1,0,54351,0.299434,0.299146,1.58055,28,0.0171804,10,0.000472815,-2.80119,-0.0180268,-3.2729,-175.541,0.299146,
2,1,0,0,0,54351,0.299962,0.299594,1.51517,28,0.0172039,10,0.000453936,-2.81954,0.00115565,51.0535,1654.81,0.299594,
2,1,0,1,0,54351.1,0.298689,0.298366,0.556584,28,0.0172328,10,0.000166066,-3.25447,0.0015754,37.4508,486.076,0.298366,
2,1,0,1,0,54351.1,0.297189,0.296822,0.106678,28,0.0172434,10,3.16645e-05,-3.97192,0.00595611,9.9058,250.64,0.296822,
2,0,0,1,0,54351.1,0.295692,0.295358,-0.126204,28,0.0172419,10,-3.72753e-05,-3.89893,-0.0311571,-1.89363,128.218,0.2953577,
2,0,0,1,0,54351.2,0.294196,0.29387,-0.260892,28,0.0172339,10,-7.66684e-05,-3.58354,-0.00519867,-11.3491,78.3313,0.29387,
2,0,0,1,0,54351.2,0.292696,0.292328,-0.349857,28,0.0172216,10,-0.000102273,-3.45611,-0.0137502,-4.29084,53.7931,0.292328,
2,0,0,1,0,54351.3,0.291196,0.290848,-0.422365,28,0.0172064,10,-0.000122844,-3.37431,-0.0224144,-2.63224,41.2416,0.290848,
2,0,0,1,0,54351.3,0.2897,0.289341,-0.47483,28,0.017189,10,-0.000137388,-3.32346,-0.0320782,-1.83925,33.2445,0.289341,
2,0,0,1,0,54351.3,0.288205,0.287847,-0.520497,28,0.0171697,10,-0.000149823,-3.28358,-0.0434839,-1.35682,26.8948,0.287847,
2,0,0,1,0,54351.4,0.286701,0.286315,-0.554092,28,0.0171489,10,-0.000158645,-3.25642,-0.0539041,-1.09454,23.4222,0.286315,
2,0,0,1,0,54351.4,0.285205,0.284855,-0.58508,28,0.0171269,10,-0.000166663,-3.23278,-0.0654499,-0.901453,20.5828,0.284855,
2,0,0,1,0,54351.4,0.283708,0.28336,-0.618182,28,0.0171037,10,-0.000175168,-3.20888,-0.0778174,-0.758185,18.1611,0.28336,
2,0,0,1,0,54351.5,0.282208,0.281866,-0.642257,28,0.0170793,10,-0.000181031,-3.19229,-0.0934819,-0.631138,15.8247,0.2818661,
2,0,0,1,0,54351.5,0.280709,0.28037,-0.669744,28,0.017054,10,-0.000187776,-3.17409,-0.0994784,-0.593093,15.4919,0.28037,
2,0,0,1,0,54351.6,0.279212,0.27885,-0.690826,28,0.0170279,10,-0.000192637,-3.16063,-0.111613,-0.528614,14.2444,0.27885,
2,0,0,1,0,54351.6,0.277716,0.277362,-0.714299,28,0.017001,10,-0.000198119,-3.14612,-0.118389,-0.498356,13.7711,0.277362,
2,0,0,1,0,54351.6,0.276216,0.275868,-0.737099,28,0.0169732,10,-0.000203342,-3.13247,-0.128902,-0.457713,12.9873,0.275868,
2,0,0,1,0,54351.7,0.274716,0.274362,-0.75672,28,0.0169447,10,-0.000207615,-3.12106,-0.161228,-0.365941,10.7227,0.274362,
2,0,0,1,0,54351.7,0.27322,0.272895,-0.76701,28,0.0169157,10,-0.000209313,-3.1152,-0.149705,-0.394107,11.8115,0.2728948,
2,0,0,1,0,54351.7,0.271725,0.271335,-0.7833,28,0.016886,10,-0.000212537,-3.10607,-0.154369,-0.3822,11.7126,0.271335,
2,0,0,1,0,54351.8,0.270221,0.269819,-0.799074,28,0.0168554,10,-0.000215605,-3.09741,-0.159598,-0.369679,11.6274,0.269819,
2,0,0,1,0,54351.8,0.268725,0.26837,-0.815478,28,0.0168244,10,-0.00021885,-3.08859,-0.205429,-0.287203,9.17279,0.26837,
2,0,0,1,0,54351.9,0.267228,0.266833,-0.830072,28,0.0167929,10,-0.00022149,-3.08088,-0.202991,-0.290654,9.4379,0.266833,
2,0,0,1,0,54351.9,0.265728,0.265366,-0.844351,28,0.0167608,10,-0.000224062,-3.07348,-0.196517,-0.300228,9.91123,0.265366,
2,0,0,1,0,54351.9,0.264228,0.263868,-0.864953,28,0.0167281,10,-0.000228234,-3.06301,-0.190325,-0.309996,10.384,0.263868,
2,0,0,1,0,54352,0.262732,0.2624,-0.876916,28,0.016695,10,-0.000230103,-3.05704,-0.261819,-0.225347,7.6656,0.2624,
2,0,0,1,0,54352,0.261236,0.260908,-0.88889,28,0.0166614,10,-0.000231919,-3.05115,-0.254384,-0.231933,8.03919,0.260908,
2,0,0,1,0,54352,0.259736,0.259414,-0.89701,28,0.0166273,10,-0.000232697,-3.0472,-0.275487,-0.214166,7.54395,0.259414,
2,0,0,1,0,54352.1,0.258236,0.257871,-0.908388,28,0.0165928,10,-0.000234247,-3.04173,-0.241654,-0.244151,8.69559,0.257871,
2,0,0,1,0,54352.1,0.256741,0.256372,-0.921917,28,0.0165578,10,-0.000236353,-3.03531,-0.282842,-0.208597,7.51396,0.256372,
2,0,0,1,0,54352.2,0.255241,0.254911,-0.933386,28,0.0165222,10,-0.000237931,-3.02994,-0.291843,-0.202164,7.35929,0.2549113,
2,0,0,1,0,54352.2,0.253741,0.253397,-0.946849,28,0.0164864,10,-0.000239929,-3.02372,-0.292488,-0.201718,7.44568,0.253397,
2,0,0,1,0,54352.2,0.252245,0.251929,-0.960572,28,0.0164501,10,-0.000241996,-3.01747,-0.23779,-0.248118,9.22778,0.2519289,
2,0,0,1,0,54352.3,0.250748,0.250453,-0.973487,28,0.0164134,10,-0.000243813,-3.01167,-0.323884,-0.182164,6.87906,0.250453,
2,0,0,1,0,54352.3,0.249248,0.248856,-0.979565,28,0.0163762,10,-0.000243771,-3.00897,-0.378982,-0.15568,5.95711,0.248856,
2,0,0,1,0,54352.3,0.247748,0.247397,-0.98465,28,0.0163387,10,-0.000243599,-3.00672,-0.377541,-0.156274,6.04969,0.247397,
2,0,0,1,0,54352.4,0.246252,0.245889,-0.995206,28,0.0163008,10,-0.00024471,-3.00209,-0.273644,-0.215609,8.43057,0.245889,
2,0,0,1,0,54352.4,0.244756,0.244395,-1.0099,28,0.0162626,10,-0.000246815,-2.99572,-0.317117,-0.186051,7.34315,0.244395,
2,0,0,1,0,54352.5,0.243252,0.242905,-1.01955,28,0.0162237,10,-0.000247655,-2.99159,-0.347634,-0.169719,6.75042,0.242905,
2,0,0,1,0,54352.5,0.241756,0.241434,-1.03007,28,0.0161847,10,-0.000248695,-2.98713,-0.363026,-0.162523,6.53139,0.241434,
2,0,0,1,0,54352.5,0.240261,0.239907,-1.0424,28,0.0161454,10,-0.000250079,-2.98197,-0.396154,-0.148932,6.02794,0.239907,
2,0,0,1,0,54352.6,0.238761,0.238379,-1.05185,28,0.0161055,10,-0.000250739,-2.97805,-0.302008,-0.195359,7.97575,0.238379,
2,0,0,1,0,54352.6,0.237261,0.236937,-1.05885,28,0.0160653,10,-0.000250882,-2.97516,-0.501732,-0.117593,4.85219,0.236937,
2,0,0,1,0,54352.6,0.235765,0.235418,-1.06397,28,0.0160248,10,-0.000250477,-2.97307,-0.492257,-0.119856,5.00567,0.235418,
2,0,0,1,0,54352.7,0.234268,0.2339,-1.07198,28,0.0159841,10,-0.000250737,-2.96981,-0.414789,-0.142241,5.99405,0.2339,
2,0,0,1,0,54352.7,0.232768,0.232385,-1.08842,28,0.0159429,10,-0.000252932,-2.9632,-0.456372,-0.12928,5.49608,0.232385,
2,0,0,1,0,54352.8,0.231268,0.230921,-1.09931,28,0.0159012,10,-0.000253854,-2.95888,-0.395967,-0.149002,6.35474,0.230921,
2,0,0,1,0,54352.8,0.229772,0.229449,-1.10831,28,0.0158594,10,-0.0002543,-2.95534,-0.459941,-0.128277,5.51682,0.229449,
2,0,0,1,0,54352.8,0.228275,0.227921,-1.11467,28,0.0158173,10,-0.000254057,-2.95285,-0.384161,-0.153581,6.65503,0.227921,
2,0,0,1,0,54352.9,0.226772,0.226421,-1.12612,28,0.0157746,10,-0.000254976,-2.94842,-0.377322,-0.156365,6.83499,0.226421,
2,0,0,1,0,54352.9,0.225276,0.224915,-1.13202,28,0.0157318,10,-0.000254608,-2.94615,-0.41629,-0.141728,6.26268,0.224915,
2,0,0,1,0,54352.9,0.223781,0.223435,-1.13924,28,0.0156886,10,-0.000254546,-2.94338,-0.409696,-0.144009,6.41244,0.223435,
2,0,0,1,0,54353,0.222281,0.221958,-1.14159,28,0.0156451,10,-0.000253386,-2.94249,-0.478428,-0.12332,5.54973,0.221958,
2,0,0,1,0,54353,0.220781,0.220413,-1.15422,28,0.0156012,10,-0.000254405,-2.93771,-0.365575,-0.16139,7.29418,0.220413,
2,0,0,1,0,54353.1,0.219284,0.218948,-1.16891,28,0.0155571,10,-0.00025593,-2.93222,-0.495594,-0.119049,5.41446,0.218948,
2,0,0,1,0,54353.1,0.217788,0.21744,-1.17914,28,0.0155126,10,-0.000256392,-2.92844,-0.541054,-0.109046,4.99021,0.21744,
2,0,0,1,0,54353.1,0.216288,0.215915,-1.18398,28,0.0154676,10,-0.000255638,-2.92666,-0.490496,-0.120286,5.5443,0.215915,
2,0,0,1,0,54353.2,0.214788,0.214456,-1.19276,28,0.0154225,10,-0.000255793,-2.92345,-0.526544,-0.112051,5.20897,0.214456,
2,0,0,1,0,54353.2,0.213292,0.212888,-1.2011,28,0.015377,10,-0.000255699,-2.92042,-0.600891,-0.0981875,4.59744,0.212888,
2,0,0,1,0,54353.2,0.211796,0.211415,-1.20698,28,0.0153313,10,-0.000255174,-2.9183,-0.619606,-0.0952219,4.49461,0.211415,
2,0,0,1,0,54353.3,0.210293,0.209916,-1.21454,28,0.015285,10,-0.00025495,-2.91559,-0.480762,-0.122722,5.84225,0.209916,
2,0,0,1,0,54353.3,0.208797,0.208493,-1.22853,28,0.0152386,10,-0.000256139,-2.91062,-0.406674,-0.145079,6.98036,0.208493,
2,0,0,1,0,54353.4,0.207301,0.206999,-1.23604,28,0.0151919,10,-0.00025586,-2.90797,-0.403686,-0.146153,7.0493,0.206999,
2,0,0,1,0,54353.4,0.205801,0.205438,-1.24943,28,0.0151446,10,-0.000256679,-2.90329,-0.468984,-0.125804,6.10358,0.205438,
2,0,0,1,0,54353.4,0.204301,0.203922,-1.25737,28,0.015097,10,-0.000256406,-2.90054,-0.722637,-0.0816455,3.99696,0.203922,
2,0,0,1,0,54353.5,0.202804,0.202447,-1.2631,28,0.0150493,10,-0.000255712,-2.89856,-0.572241,-0.103103,5.07803,0.2024471,
2,0,0,1,0,54353.5,0.201308,0.200907,-1.27028,28,0.0150013,10,-0.000255208,-2.8961,-0.43302,-0.136252,6.75062,0.200907,
2,0,0,1,0,54353.5,0.199808,0.199431,-1.28128,28,0.0149528,10,-0.000255527,-2.89236,-0.544219,-0.108412,5.42154,0.199431,
2,0,0,1,0,54353.6,0.198308,0.197936,-1.28489,28,0.014904,10,-0.000254326,-2.89113,-0.562669,-0.104857,5.27645,0.197936,
2,0,0,1,0,54353.6,0.196812,0.196415,-1.29492,28,0.014855,10,-0.000254342,-2.88776,-0.540395,-0.109179,5.53153,0.196415,
2,0,0,1,0,54353.7,0.195316,0.194976,-1.30839,28,0.0148056,10,-0.000255106,-2.88326,-0.366992,-0.160766,8.19224,0.194976,
2,0,0,1,0,54353.7,0.193813,0.193438,-1.32175,28,0.0147556,10,-0.000255677,-2.87885,-0.387851,-0.15212,7.8194,0.193438,
2,0,0,1,0,54353.7,0.192317,0.191958,-1.33107,28,0.0147054,10,-0.000255509,-2.8758,-0.49121,-0.120111,6.1971,0.191958,
2,0,0,1,0,54353.8,0.190821,0.19044,-1.33478,28,0.0146549,10,-0.000254195,-2.87459,-0.434629,-0.135748,7.07625,0.19044,
2,0,0,1,0,54353.8,0.189321,0.188974,-1.34422,28,0.014604,10,-0.000254022,-2.87153,-0.53226,-0.110848,5.83098,0.188974,
2,0,0,1,0,54353.8,0.187821,0.187475,-1.35515,28,0.0145526,10,-0.000254056,-2.86801,-0.487458,-0.121036,6.42024,0.187475,
2,0,0,1,0,54353.9,0.186324,0.185961,-1.3639,28,0.014501,10,-0.000253633,-2.86522,-0.502158,-0.117493,6.2788,0.185961,
2,0,0,1,0,54353.9,0.184828,0.184509,-1.37557,28,0.014449,10,-0.000253805,-2.86152,-0.48645,-0.121287,6.51602,0.184509,
2,0,0,1,0,54354,0.183328,0.182978,-1.38782,28,0.0143966,10,-0.000253941,-2.85767,-0.450941,-0.130837,7.08686,0.182978,
2,0,0,1,0,54354,0.181828,0.18146,-1.39935,28,0.0143437,10,-0.000253926,-2.85407,-0.405856,-0.145372,7.93076,0.18146,
2,0,0,1,0,54354,0.180332,0.179992,-1.41391,28,0.0142904,10,-0.000254492,-2.84958,-0.410343,-0.143782,7.89885,0.179992,
2,0,0,1,0,54354.1,0.178836,0.17844,-1.42515,28,0.0142367,10,-0.000254303,-2.84614,-0.399067,-0.147845,8.20128,0.17844,
2,0,0,1,0,54354.1,0.177333,0.176985,-1.43257,28,0.0141824,10,-0.000253543,-2.84388,-0.3726,-0.158347,8.8739,0.176985,
2,0,0,1,0,54354.1,0.175837,0.175511,-1.44653,28,0.0141279,10,-0.000253882,-2.83967,-0.354999,-0.166198,9.38227,0.175511,
2,0,0,1,0,54354.2,0.174341,0.173972,-1.45748,28,0.0140728,10,-0.000253561,-2.8364,-0.328632,-0.179532,10.2569,0.173972,
2,0,0,1,0,54354.2,0.172841,0.17247,-1.47465,28,0.0140171,10,-0.000254333,-2.83131,-0.388478,-0.151875,8.74854,0.17247,
2,0,0,1,0,54354.3,0.171341,0.171014,-1.48827,28,0.0139609,10,-0.000254515,-2.82732,-0.325323,-0.181358,10.5478,0.1710142,
2,0,0,1,0,54354.3,0.169844,0.169471,-1.50836,28,0.0139043,10,-0.000255623,-2.8215,-0.342245,-0.172391,10.1237,0.169471,
2,0,0,1,0,54354.3,0.168348,0.167983,-1.52616,28,0.0138471,10,-0.000256368,-2.8164,-0.307557,-0.191834,11.3675,0.167983,
2,0,0,1,0,54354.4,0.166848,0.16647,-1.53814,28,0.0137891,10,-0.000256055,-2.813,-0.326845,-0.180513,10.8123,0.1664702,
2,0,0,1,0,54354.4,0.165348,0.164936,-1.55314,28,0.0137304,10,-0.000256169,-2.80879,-0.289924,-0.203501,12.3632,0.1649361,
2,0,0,1,0,54354.4,0.163852,0.163506,-1.57203,28,0.0136713,10,-0.000257036,-2.80354,-0.286778,-0.205734,12.6879,0.163506,
2,0,0,1,0,54354.5,0.162357,0.162002,-1.58805,28,0.0136114,10,-0.000257267,-2.79914,-0.253692,-0.232565,14.4946,0.162002,
2,0,0,1,0,54354.5,0.160853,0.160463,-1.61185,28,0.0135504,10,-0.000258642,-2.79268,-0.244735,-0.241077,15.2282,0.160463,
2,0,0,1,0,54354.6,0.159357,0.158984,-1.63974,28,0.0134889,10,-0.000260692,-2.78523,-0.24702,-0.238847,15.273,0.158984,
2,0,0,1,0,54354.6,0.157861,0.157488,-1.66656,28,0.0134265,10,-0.000262464,-2.77818,-0.228078,-0.258684,16.8146,0.157488,
2,0,0,1,0,54354.6,0.156361,0.156027,-1.6914,28,0.013363,10,-0.000263904,-2.77175,-0.199122,-0.2963,19.5477,0.156027,
2,0,0,1,0,54354.7,0.154861,0.154444,-1.72538,28,0.0132982,10,-0.000266475,-2.76312,-0.179929,-0.327908,22.0409,0.154444,
2,0,0,1,0,54354.7,0.153364,0.152995,-1.7546,28,0.0132325,10,-0.000268445,-2.75582,-0.191967,-0.307345,21.0834,0.152995,
2,0,0,1,0,54354.7,0.151868,0.151501,-1.78786,28,0.0131655,10,-0.000270863,-2.74767,-0.165341,-0.356838,25.0481,0.151501,
2,0,0,1,0,54354.8,0.150368,0.150004,-1.8254,28,0.013097,10,-0.000273816,-2.73864,-0.149203,-0.395436,28.3634,0.150004,
2,0,0,1,0,54354.8,0.148868,0.148479,-1.87715,28,0.0130269,10,-0.000278718,-2.7265,-0.1359,-0.434142,31.8581,0.1484794,
2,0,0,1,0,54354.9,0.147372,0.147022,-1.92555,28,0.0129552,10,-0.000283098,-2.71545,-0.124093,-0.47545,35.6614,0.147022,
2,0,0,1,0,54354.9,0.145877,0.145506,-1.97516,28,0.0128816,10,-0.000287397,-2.7044,-0.117268,-0.503123,38.875,0.145506,
2,0,0,1,0,54354.9,0.144373,0.144043,-2.03811,28,0.0128055,10,-0.000293575,-2.69077,-0.110174,-0.535516,42.6501,0.144043,
2,0,0,1,0,54355,0.142877,0.142503,-2.10776,28,0.0127273,10,-0.000300363,-2.67618,-0.101658,-0.580377,47.7167,0.142503,
2,0,0,1,0,54355,0.14138,0.140998,-2.1768,28,0.0126465,10,-0.000306925,-2.66218,-0.1001,-0.589413,50.1633,0.1409982,
2,0,0,1,0,54355,0.13988,0.139535,-2.25444,28,0.0125626,10,-0.000314574,-2.64696,-0.0958773,-0.61537,54.3759,0.139535,
2,0,0,1,0,54355.1,0.13838,0.13804,-2.33433,28,0.0124758,10,-0.00032223,-2.63184,-0.0930953,-0.633759,58.1076,0.13804,
2,0,0,1,0,54355.1,0.136884,0.136507,-2.43289,28,0.0123859,10,-0.000332106,-2.61388,-0.0928037,-0.63575,60.3456,0.136507,
2,0,0,1,0,54355.2,0.135388,0.135009,-2.52875,28,0.0122924,10,-0.000341405,-2.59709,-0.0924709,-0.638039,62.7815,0.135009,
2,0,0,1,0,54355.2,0.133888,0.133528,-2.62631,28,0.0121952,10,-0.000350685,-2.58065,-0.0919249,-0.641828,65.5949,0.133528,
2,0,0,1,0,54355.2,0.132389,0.131982,-2.72221,28,0.0120945,10,-0.000359285,-2.56508,-0.0943264,-0.625488,66.2981,0.131982,
2,0,0,1,0,54355.3,0.130893,0.130574,-2.82122,28,0.0119902,10,-0.000368378,-2.54956,-0.0928141,-0.635679,69.8441,0.130574,
2,0,0,1,0,54355.3,0.129393,0.129009,-2.91935,28,0.0118818,10,-0.000376623,-2.53471,-0.101532,-0.5811,66.2015,0.129009,
2,0,0,1,0,54355.3,0.127893,0.12751,-3.01599,28,0.0117697,10,-0.000384569,-2.52057,-0.108043,-0.54608,64.3289,0.12751,
2,0,0,1,0,54355.4,0.126397,0.126047,-3.10901,28,0.0116543,10,-0.000391881,-2.50738,-0.114385,-0.515804,62.649,0.126047,
2,0,0,1,0,54355.4,0.1249,0.124532,-3.20902,28,0.0115353,10,-0.000399626,-2.49363,-0.119453,-0.49392,61.7646,0.124532,
2,0,0,1,0,54355.5,0.1234,0.123064,-3.29919,28,0.0114126,10,-0.000406011,-2.48159,-0.126756,-0.465461,59.8222,0.123064,
2,0,0,1,0,54355.5,0.1219,0.12151,-3.3873,28,0.0112865,10,-0.000411591,-2.47015,-0.144258,-0.408988,53.871,0.12151,
2,0,0,1,0,54355.5,0.120404,0.120036,-3.46643,28,0.0111577,10,-0.000416098,-2.46012,-0.149963,-0.39343,53.0849,0.120036,
2,0,0,1,0,54355.6,0.118908,0.118564,-3.54214,28,0.0110259,10,-0.00041997,-2.45073,-0.159552,-0.369785,51.1261,0.118564,
2,0,0,1,0,54355.6,0.117404,0.117045,-3.61674,28,0.0108906,10,-0.000423323,-2.44168,-0.166902,-0.353501,49.8791,0.117045,
2,0,0,1,0,54355.6,0.115908,0.11555,-3.68719,28,0.0107531,10,-0.000426054,-2.43331,-0.198692,-0.296942,42.6491,0.11555,
2,0,0,1,0,54355.7,0.114413,0.114042,-3.74937,28,0.0106132,10,-0.000427584,-2.42604,-0.211741,-0.278642,40.7636,0.114042,
2,0,0,1,0,54355.7,0.112913,0.112533,-3.80649,28,0.0104709,10,-0.000428356,-2.41948,-0.238932,-0.246932,36.6533,0.112533,
2,0,0,1,0,54355.8,0.111413,0.11109,-3.85755,28,0.0103265,10,-0.000428535,-2.41369,-0.272068,-0.216858,32.5723,0.11109,
2,0,0,1,0,54355.8,0.109917,0.109528,-3.90844,28,0.0101806,10,-0.000428083,-2.408,-0.331378,-0.178044,27.0345,0.1095278,
2,0,0,1,0,54355.8,0.10842,0.108085,-3.94287,28,0.0100332,10,-0.000426164,-2.40419,-0.407664,-0.144727,22.1969,0.108085,
2,0,0,1,0,54355.9,0.10692,0.106575,-3.96676,28,0.00988429,10,-0.000422758,-2.40156,-0.516646,-0.114198,17.6581,0.1065752,
2,0,0,1,0,54355.9,0.10542,0.105076,-3.99248,28,0.00973434,10,-0.000419513,-2.39876,-0.692812,-0.0851602,13.2512,0.105076,
2,0,0,1,0,54355.9,0.103924,0.103558,-4.00656,28,0.00958396,10,-0.000414911,-2.39723,-1.05166,-0.0561018,8.76466,0.1035579,
2,0,0,1,0,54356,0.102427,0.102097,-4.01431,28,0.0094331,10,-0.00040985,-2.39639,-3.41578,-0.0172728,2.70586,0.102097,
2,0,0,1,0,54356,0.100924,0.100575,-4.01491,28,0.00928135,10,-0.000403798,-2.39632,5.3178,0.0110948,-1.73824,0.100575,
2,0,0,1,0,54356.1,0.0994284,0.0990588,-4.013,28,0.0091305,10,-0.000397523,-2.39653,1.94885,0.0302742,-4.73504,0.0990588,
2,0,0,1,0,54356.1,0.0979329,0.0975725,-4.00665,28,0.00897991,10,-0.000390939,-2.39722,1.23052,0.0479472,-7.47931,0.0975725,
2,0,0,1,0,54356.1,0.0964329,0.0961145,-3.99328,28,0.00882935,10,-0.000383812,-2.39867,0.822375,0.0717434,-11.1431,0.0961145,
2,0,0,1,0,54356.2,0.094933,0.0945876,-3.96335,28,0.00867946,10,-0.000374883,-2.40194,0.624,0.0945513,-14.6313,0.0945876,
2,0,0,1,0,54356.2,0.0934366,0.0930921,-3.94179,28,0.0085309,10,-0.00036695,-2.40431,0.652983,0.0903546,-13.9185,0.0930921,
2,0,0,1,0,54356.2,0.0919401,0.0915614,-3.92235,28,0.00838311,10,-0.000359136,-2.40645,0.568449,0.103791,-15.886,0.0915614,
2,0,0,1,0,54356.3,0.0904402,0.0900742,-3.89631,28,0.00823572,10,-0.000350957,-2.40935,0.505942,0.116614,-17.7423,0.0900742,
2,0,0,1,0,54356.3,0.0889402,0.0885885,-3.8732,28,0.00808931,10,-0.000343121,-2.41193,0.49841,0.118376,-17.8899,0.0885885,
2,0,0,1,0,54356.4,0.0874438,0.0870929,-3.84657,28,0.00794435,10,-0.000335009,-2.41493,0.512343,0.115157,-17.2863,0.0870929,
2,0,0,1,0,54356.4,0.0859483,0.0855673,-3.82517,28,0.00780035,10,-0.000327309,-2.41735,0.572454,0.103065,-15.3606,0.0855673,
2,0,0,1,0,54356.4,0.0844447,0.0840953,-3.79837,28,0.00765645,10,-0.000319425,-2.4204,0.585253,0.100811,-14.9338,0.0840953,
2,0,0,1,0,54356.5,0.0829492,0.0826215,-3.77452,28,0.00751418,10,-0.000311857,-2.42314,0.572547,0.103048,-15.1784,0.0826215,
2,0,0,1,0,54356.5,0.0814528,0.0810901,-3.75052,28,0.00737279,10,-0.00030413,-2.42591,0.595236,0.0991203,-14.5277,0.0810901,
2,0,0,1,0,54356.5,0.0799528,0.0796197,-3.7256,28,0.00723184,10,-0.000296631,-2.4288,0.762115,0.0774161,-11.2846,0.0796197,
2,0,0,1,0,54356.6,0.0784529,0.0780896,-3.71085,28,0.00709158,10,-0.000289779,-2.43053,0.758462,0.077789,-11.2811,0.07808964,
2,0,0,1,0,54356.6,0.0769565,0.0766047,-3.69619,28,0.00695226,10,-0.000283146,-2.43225,0.713039,0.0827444,-11.9337,0.0766047,
2,0,0,1,0,54356.7,0.0754601,0.0750832,-3.67626,28,0.00681368,10,-0.000276025,-2.43459,0.731936,0.0806081,-11.578,0.0750832,
2,0,0,1,0,54356.7,0.0739601,0.0736042,-3.66379,28,0.00667538,10,-0.00026967,-2.43607,0.850298,0.0693875,-9.91235,0.0736042,
2,0,0,1,0,54356.7,0.0724601,0.0720804,-3.6519,28,0.00653764,10,-0.00026323,-2.43748,0.770508,0.0765728,-10.8947,0.0720804,
2,0,0,1,0,54356.8,0.0709637,0.0706069,-3.63306,28,0.0064008,10,-0.000256519,-2.43973,0.791296,0.0745613,-10.5701,0.0706069,
2,0,0,1,0,54356.8,0.0694682,0.0691329,-3.61122,28,0.00626453,10,-0.000249654,-2.44235,0.780284,0.0756135,-10.6821,0.0691329,
2,0,0,1,0,54356.8,0.0679647,0.0676213,-3.59712,28,0.00612825,10,-0.000243242,-2.44405,0.948873,0.062179,-8.75425,0.0676213,
2,0,0,1,0,54356.9,0.0664691,0.0660958,-3.58234,28,0.00599319,10,-0.000236778,-2.44583,0.939403,0.0628059,-8.79587,0.0660958,
2,0,0,1,0,54356.9,0.0649727,0.0646343,-3.57501,28,0.00585856,10,-0.000231068,-2.44672,0.796216,0.0741005,-10.3212,0.0646343,
2,0,0,1,0,54357,0.0634727,0.063114,-3.55707,28,0.00572423,10,-0.000224501,-2.44891,0.695069,0.0848836,-11.766,0.063114,
2,0,0,1,0,54357,0.0619728,0.061642,-3.53805,28,0.00559061,10,-0.000218093,-2.45124,0.682871,0.0863999,-11.9173,0.061642,
2,0,0,1,0,54357,0.0604764,0.0601367,-3.51974,28,0.00545799,10,-0.000211666,-2.45349,0.675026,0.0874041,-11.9913,0.0601367,
2,0,0,1,0,54357.1,0.05898,0.0586328,-3.50256,28,0.00532595,10,-0.000205365,-2.45561,0.662472,0.0890604,-12.1673,0.0586328,
2,0,0,1,0,54357.1,0.05748,0.0571017,-3.48475,28,0.0051942,10,-0.000198985,-2.45783,0.62961,0.0937088,-12.7495,0.0571017,
2,0,0,1,0,54357.1,0.05598,0.0556029,-3.46066,28,0.00506327,10,-0.000192423,-2.46084,0.59631,0.0989419,-13.4039,0.0556029,
2,0,0,1,0,54357.2,0.0544836,0.0541114,-3.44216,28,0.00493341,10,-0.00018626,-2.46317,0.814005,0.0724812,-9.75054,0.0541114,
2,0,0,1,0,54357.2,0.0529881,0.0526224,-3.43124,28,0.00480413,10,-0.00018056,-2.46455,0.677397,0.0870982,-11.6515,0.0526224,
2,0,0,1,0,54357.3,0.0514846,0.0511527,-3.41016,28,0.00467483,10,-0.000174439,-2.46722,0.562964,0.104802,-13.9297,0.0511527,
2,0,0,1,0,54357.3,0.049989,0.0496523,-3.38708,28,0.00454703,10,-0.000168176,-2.47017,0.525273,0.112323,-14.841,0.0496523,
2,0,0,1,0,54357.3,0.0484926,0.0481125,-3.37116,28,0.00442001,10,-0.000162195,-2.47222,0.568357,0.103808,-13.6381,0.0481125,
2,0,0,1,0,54357.4,0.0469927,0.0466305,-3.34576,28,0.00429341,10,-0.000156014,-2.47551,0.543445,0.108567,-14.1907,0.0466305,
2,0,0,1,0,54357.4,0.0454927,0.0451211,-3.32632,28,0.00416756,10,-0.000150087,-2.47804,0.508949,0.115925,-15.0575,0.0451211,
2,0,0,1,0,54357.4,0.0439963,0.0436968,-3.30495,28,0.00404278,10,-0.000144416,-2.48083,0.5208,0.113287,-14.635,0.0436968,
2,0,0,1,0,54357.5,0.0424999,0.0421796,-3.28166,28,0.00391889,10,-0.000138419,-2.48391,0.564233,0.104567,-13.4223,0.0421796,
2,0,0,1,0,54357.5,0.0409999,0.0406563,-3.26191,28,0.00379544,10,-0.000132617,-2.48653,0.508527,0.116021,-14.7787,0.0406563,
2,0,0,1,0,54357.6,0.0394999,0.0391244,-3.24668,28,0.00367274,10,-0.000127025,-2.48856,0.483407,0.12205,-15.4146,0.0391244,
2,0,0,1,0,54357.6,0.0380044,0.0376189,-3.22083,28,0.00355124,10,-0.000121164,-2.49203,0.443532,0.133023,-16.6879,0.0376189,
2,0,0,1,0,54357.6,0.0365089,0.0361698,-3.19426,28,0.00343075,10,-0.000115536,-2.49563,0.503331,0.117219,-14.5999,0.0361698,
2,0,0,1,0,54357.7,0.0350054,0.0346904,-3.16825,28,0.00331046,10,-0.000109908,-2.49918,0.51878,0.113728,-14.0725,0.0346904,
2,0,0,1,0,54357.7,0.033509,0.0331601,-3.14542,28,0.00319169,10,-0.000104303,-2.50232,0.432998,0.136259,-16.738,0.0331601,
2,0,0,1,0,54357.7,0.0320125,0.0316098,-3.11576,28,0.00307377,10,-9.84885e-05,-2.50644,0.465899,0.126637,-15.4364,0.0316098,
2,0,0,1,0,54357.8,0.0305126,0.0301618,-3.08868,28,0.00295655,10,-9.31601e-05,-2.51023,0.422458,0.139659,-16.8912,0.0301618,
2,0,0,1,0,54357.8,0.0290126,0.0286709,-3.06802,28,0.00284025,10,-8.79627e-05,-2.51314,0.464797,0.126937,-15.214,0.0286709,
2,0,0,1,0,54357.8,0.0275162,0.027163,-3.05018,28,0.00272512,10,-8.28518e-05,-2.51568,0.460805,0.128037,-15.229,0.027163,
2,0,0,1,0,54357.9,0.0260198,0.0256505,-3.02741,28,0.00261087,10,-7.76544e-05,-2.51893,0.421837,0.139864,-16.4806,0.0256505,
2,0,0,1,0,54357.9,0.0245198,0.0241513,-2.9998,28,0.0024972,10,-7.24491e-05,-2.52291,0.447793,0.131757,-15.4217,0.0241513,
2,0,0,1,0,54358,0.0230198,0.0226657,-2.97889,28,0.00238454,10,-6.75186e-05,-2.52595,0.403264,0.146306,-17.0064,0.0226657,
2,0,0,1,0,54358,0.0215243,0.0211612,-2.95343,28,0.00227295,10,-6.24982e-05,-2.52967,0.508437,0.116042,-13.3933,0.0211612,
2,0,0,1,0,54358,0.0200288,0.0196593,-2.93077,28,0.00216217,10,-5.76168e-05,-2.53302,0.478711,0.123248,-14.1208,0.0196593,
2,0,0,1,0,54358.1,0.0185253,0.0181875,-2.91016,28,0.00205155,10,-5.29286e-05,-2.53608,0.440403,0.133968,-15.2265,0.0181875,
2,0,0,1,0,54358.1,0.0170289,0.016662,-2.89203,28,0.00194245,10,-4.81872e-05,-2.5388,0.478317,0.123349,-13.9225,0.016662,
2,0,0,1,0,54358.1,0.0155325,0.0151635,-2.87598,28,0.00183402,10,-4.361e-05,-2.54121,0.584453,0.100949,-11.3105,0.0151635,
2,0,0,1,0,54358.2,0.0140325,0.0136694,-2.85938,28,0.00172591,10,-3.9086e-05,-2.54373,0.554311,0.106439,-11.8513,0.0136694,
2,0,0,1,0,54358.2,0.0125325,0.0121523,-2.83882,28,0.00161846,10,-3.44983e-05,-2.54686,0.537881,0.10969,-12.1485,0.0121523,
2,0,0,1,0,54358.3,0.0110361,0.0106625,-2.82196,28,0.00151203,10,-3.00891e-05,-2.54945,0.592549,0.0995699,-10.9685,0.0106625,
2,0,0,1,0,54358.3,0.0095397,0.00919209,-2.80438,28,0.00140612,10,-2.57781e-05,-2.55216,0.775637,0.0760665,-8.33504,0.00919209,
2,0,0,1,0,54358.3,0.00803616,0.00766971,-2.79078,28,0.00130011,10,-2.14045e-05,-2.55427,0.810993,0.0727503,-7.94959,0.00766971,
2,0,0,1,0,54358.4,0.00654064,0.00618192,-2.77839,28,0.00119514,10,-1.71758e-05,-2.55621,0.689888,0.0855212,-9.29217,0.00618192,
2,0,0,1,0,54358.4,0.00504513,0.00469157,-2.76611,28,0.00109064,10,-1.29774e-05,-2.55813,0.927631,0.0636029,-6.88629,0.00469157,
2,0,0,1,0,54358.4,0.00354515,0.00316715,-2.76182,28,0.000986315,10,-8.74712e-06,-2.5588,-171.193,-0.000344641,0.0372572,0.00316715,
2,0,0,1,0,54358.5,0.00204518,0.0016601,-2.78897,28,0.000882002,10,-4.62996e-06,-2.55456,4.08613,0.0144391,-1.55447,0.0016601,
2,0,0,1,0,54358.5,0.000548773,0.000114026,-2.76431,28,0.000777698,10,-3.15202e-07,-2.55841, , , ,0.000114026,
2,0,0,1,0,54358.5,0.000177222,-0.000240194,-2.75546,28,0.000751848,10,6.61845e-07,-2.55981, , , ,-0.0002401941,