File: Figure_codes/Fig_3-5/rawdata_trumpetplot_data/after 10th/20221101_1-115_003_TrumpetPlot_ParaChange_from10_every3_14_CV_C01_26.csv
mode,ox/red,error,control changes,counter inc.,time/s,control/V,Ewe/V,<I>/mA,cycle number,(Q-Qo)/C,I Range,P/W,log(|I|),Tafel slope mV/dec,alpha_eff,dI/d(E-IR),E-IR/V,
2,1,0,1,0,52422.5,2.44065e-05,-0.000248974,31.145,27,0.0000000E+000,10,-7.75431e-06,-1.50661, , , ,-0.000248974,
2,1,0,1,0,52422.5,0.00332042,0.00294815,32.4425,27,9.91501e-05,10,9.56455e-05,-1.48889, , , ,0.00294815,
2,1,0,1,0,52422.5,0.0073156,0.00688014,33.4647,27,0.000231112,10,0.000230242,-1.47541, , , ,0.00688014,
2,1,0,1,0,52422.5,0.0113108,0.0109712,34.3804,27,0.000366935,10,0.000377194,-1.46369,0.352361,0.167442,223.474,0.0109712,
2,1,0,1,0,52422.5,0.0153059,0.014952,35.2295,27,0.000506249,10,0.00052675,-1.45309,0.388898,0.151711,207.866,0.014952,
2,1,0,1,0,52422.5,0.0193011,0.0189359,36.0154,27,0.000648835,10,0.000681984,-1.44351,0.425109,0.138788,194.544,0.0189359,
2,1,0,1,0,52422.5,0.0233462,0.0229432,36.8037,27,0.000794613,10,0.000844393,-1.43411,0.459644,0.12836,183.753,0.0229432,
2,1,0,1,0,52422.5,0.0273414,0.0270024,37.4992,27,0.000943287,10,0.00101257,-1.42598,0.490079,0.120389,175.731,0.0270024,
2,1,0,1,0,52422.5,0.0313366,0.0309641,38.1718,27,0.00109471,10,0.00118195,-1.41826,0.530102,0.111299,165.543,0.03096409,
2,1,0,1,0,52422.5,0.0353317,0.0349215,38.8246,27,0.00124877,10,0.00135581,-1.41089,0.558043,0.105727,159.932,0.0349215,
2,1,0,1,0,52422.5,0.0393269,0.0389277,39.4498,27,0.00140537,10,0.00153569,-1.40396,0.589834,0.100028,153.756,0.0389277,
2,1,0,1,0,52422.5,0.0433221,0.0429488,40.0495,27,0.00156445,10,0.00172008,-1.3974,0.625744,0.0942877,147.157,0.0429488,
2,1,0,1,0,52422.5,0.0473173,0.0469285,40.6264,27,0.00172584,10,0.00190654,-1.39119,0.652355,0.0904415,143.258,0.04692851,
2,1,0,1,0,52422.5,0.0513124,0.0509305,41.1804,27,0.00188953,10,0.00209734,-1.38531,0.682304,0.0864717,138.871,0.0509305,
2,1,0,1,0,52422.6,0.0553076,0.0549558,41.746,27,0.00205544,10,0.00229418,-1.37939,0.69613,0.0847543,137.999,0.0549558,
2,1,0,1,0,52422.6,0.0593028,0.0589461,42.2711,27,0.00222352,10,0.00249171,-1.37396,0.725158,0.0813616,134.146,0.0589461,
2,1,0,1,0,52422.6,0.0633479,0.062929,42.8345,27,0.00239375,10,0.00269553,-1.36821,0.762369,0.0773903,129.19,0.062929,
2,1,0,1,0,52422.6,0.0673431,0.066967,43.3316,27,0.00256612,10,0.00290179,-1.3632,0.779076,0.0757307,127.936,0.066967,
2,1,0,1,0,52422.6,0.0713382,0.0709997,43.8187,27,0.00274049,10,0.00311111,-1.35834,0.819578,0.0719883,123.095,0.0709997,
2,1,0,1,0,52422.6,0.0753334,0.074954,44.3191,27,0.00291683,10,0.00332189,-1.35341,0.836098,0.0705659,122.001,0.074954,
2,1,0,1,0,52422.6,0.0793286,0.0789676,44.8087,27,0.00309512,10,0.00353844,-1.34864,0.844491,0.0698646,122.108,0.0789676,
2,1,0,1,0,52422.6,0.0833238,0.082959,45.2826,27,0.00327537,10,0.0037566,-1.34407,0.866113,0.0681205,120.356,0.082959,
2,1,0,1,0,52422.6,0.0873189,0.0869239,45.7631,27,0.0034575,10,0.00397791,-1.33948,0.877207,0.0672589,120.118,0.08692386,
2,1,0,1,0,52422.6,0.0913141,0.0908961,46.2378,27,0.00364155,10,0.00420284,-1.335,0.872156,0.0676485,122.107,0.0908961,
2,1,0,1,0,52422.6,0.0953093,0.0949331,46.7265,27,0.00382753,10,0.00443589,-1.33044,0.874402,0.0674747,123.088,0.0949331,
2,1,0,1,0,52422.6,0.0993045,0.0989266,47.2324,27,0.00401549,10,0.00467254,-1.32576,0.868851,0.0679058,125.183,0.0989266,
2,1,0,1,0,52422.6,0.103319,0.102952,47.736,27,0.00420545,10,0.00491451,-1.32115,0.881646,0.0669203,124.626,0.1029519,
2,1,0,1,0,52422.6,0.107345,0.106964,48.2493,27,0.00439751,10,0.00516096,-1.31651,0.900631,0.0655096,123.266,0.106964,
2,1,0,1,0,52422.6,0.11134,0.110968,48.7248,27,0.00459149,10,0.00540687,-1.31225,0.919844,0.0641413,121.908,0.110968,
2,1,0,1,0,52422.6,0.115335,0.114967,49.2097,27,0.00478743,10,0.00565751,-1.30795,0.915493,0.0644462,123.816,0.114967,
2,1,0,1,0,52422.6,0.11933,0.118876,49.6773,27,0.00498526,10,0.00590544,-1.30384,0.898067,0.0656967,127.518,0.118876,
2,1,0,1,0,52422.6,0.123325,0.122889,50.2209,27,0.00518507,10,0.00617158,-1.29912,0.880012,0.0670445,131.49,0.122889,
2,1,0,1,0,52422.6,0.127321,0.126922,50.7593,27,0.00538709,10,0.00644249,-1.29448,0.862558,0.0684012,135.499,0.1269224,
2,1,0,1,0,52422.6,0.131316,0.130954,51.3118,27,0.00559128,10,0.00671948,-1.28978,0.862589,0.0683987,136.968,0.130954,
2,1,0,1,0,52422.6,0.135311,0.134948,51.8549,27,0.00579767,10,0.0069977,-1.28521,0.860431,0.0685703,138.781,0.134948,
2,1,0,1,0,52422.6,0.139306,0.138916,52.4161,27,0.00600627,10,0.00728142,-1.28054,0.842181,0.0700562,143.405,0.1389156,
2,1,0,1,0,52422.6,0.143301,0.142896,52.9762,27,0.00621711,10,0.00757011,-1.27592,0.834896,0.0706675,146.224,0.142896,
2,1,0,1,0,52422.6,0.147346,0.146959,53.6069,27,0.00643038,10,0.00787801,-1.27078,0.823541,0.0716418,149.885,0.146959,
2,1,0,1,0,52422.6,0.151342,0.150994,54.2013,27,0.00664604,10,0.00818404,-1.26599,0.81104,0.0727461,153.883,0.150994,
2,1,0,1,0,52422.7,0.155337,0.154937,54.8175,27,0.00686412,10,0.00849328,-1.26108,0.81621,0.0722853,154.694,0.154937,
2,1,0,1,0,52422.7,0.159332,0.158954,55.4472,27,0.00708472,10,0.00881356,-1.25612,0.809988,0.0728406,157.615,0.1589541,
2,1,0,1,0,52422.7,0.163327,0.162958,56.0819,27,0.00730784,10,0.00913901,-1.25118,0.81772,0.0721518,157.886,0.162958,
2,1,0,1,0,52422.7,0.167322,0.166894,56.7075,27,0.00753347,10,0.00946416,-1.24636,0.826964,0.0713453,157.873,0.166894,
2,1,0,1,0,52422.7,0.171317,0.170926,57.3419,27,0.00776165,10,0.00980124,-1.24153,0.847475,0.0696186,155.723,0.170926,
2,1,0,1,0,52422.7,0.175313,0.174934,57.9701,27,0.00799233,10,0.010141,-1.2368,0.873072,0.0675775,152.763,0.174934,
2,1,0,1,0,52422.7,0.179308,0.178901,58.5646,27,0.00822548,10,0.0104773,-1.23236,0.896661,0.0657997,150.331,0.178901,
2,1,0,1,0,52422.7,0.183303,0.182924,59.1561,27,0.00846099,10,0.010821,-1.228,0.951669,0.0619964,143.016,0.182924,
2,1,0,1,0,52422.7,0.187348,0.186989,59.7567,27,0.00869881,10,0.0111739,-1.22361,1.00376,0.0587789,136.851,0.186989,
2,1,0,1,0,52422.7,0.191343,0.190969,60.2632,27,0.00893892,10,0.0115084,-1.21995,1.08203,0.054527,128.058,0.190969,
2,1,0,1,0,52422.7,0.195338,0.19497,60.7636,27,0.00918103,10,0.0118471,-1.21636,1.2034,0.0490276,116.097,0.19497,
2,1,0,1,0,52422.7,0.199334,0.198961,61.2099,27,0.00942503,10,0.0121784,-1.21318,1.34011,0.0440261,104.983,0.198961,
2,1,0,1,0,52422.7,0.203329,0.202906,61.6046,27,0.00967072,10,0.0124999,-1.21039,1.56441,0.037714,90.4954,0.202906,
2,1,0,1,0,52422.7,0.207324,0.206994,61.9456,27,0.00991786,10,0.0128223,-1.20799,1.86674,0.0316059,76.2496,0.206994,
2,1,0,1,0,52422.7,0.211319,0.210949,62.2097,27,0.0101662,10,0.0131231,-1.20614,2.39686,0.0246155,59.6407,0.210949,
2,1,0,1,0,52422.7,0.215314,0.214931,62.4276,27,0.0104155,10,0.0134176,-1.20462,3.35986,0.0175602,42.6864,0.214931,
2,1,0,1,0,52422.7,0.219309,0.218975,62.563,27,0.0106656,10,0.0136997,-1.20368,5.36381,0.0109996,26.7977,0.218975,
2,1,0,1,0,52422.7,0.223305,0.223005,62.629,27,0.010916,10,0.0139666,-1.20322,14.5762,0.00404769,9.87413,0.223005,
2,1,0,1,0,52422.7,0.227314,0.226996,62.6397,27,0.0111665,10,0.014219,-1.20315,-20.6253,-0.00286056,-6.97823,0.226996,
2,1,0,1,0,52422.7,0.231345,0.230995,62.5862,27,0.011417,10,0.0144571,-1.20352,-5.87917,-0.0100354,-24.4521,0.230995,
2,1,0,1,0,52422.7,0.23534,0.234976,62.4513,27,0.0116671,10,0.0146745,-1.20446,-3.31117,-0.0178185,-43.3184,0.234976,
2,1,0,1,0,52422.7,0.239335,0.238995,62.2381,27,0.0119165,10,0.0148746,-1.20594,-2.32421,-0.025385,-61.5152,0.238995,
2,1,0,1,0,52422.7,0.24333,0.242981,61.9473,27,0.0121648,10,0.015052,-1.20798,-1.78573,-0.0330398,-79.7024,0.2429807,
2,1,0,1,0,52422.7,0.247326,0.246991,61.6022,27,0.0124119,10,0.0152152,-1.2104,-1.4683,-0.0401825,-96.3883,0.246991,
2,1,0,1,0,52422.7,0.251321,0.250971,61.1765,27,0.0126575,10,0.0153535,-1.21342,-1.25211,-0.0471204,-112.26,0.250971,
2,1,0,1,0,52422.8,0.255316,0.25498,60.6972,27,0.0129012,10,0.0154766,-1.21683,-1.07766,-0.0547483,-129.404,0.25498,
2,1,0,1,0,52422.8,0.259311,0.258977,60.1515,27,0.0131429,10,0.0155779,-1.22075,-0.953575,-0.0618725,-144.91,0.258977,
2,1,0,1,0,52422.8,0.263306,0.262946,59.5375,27,0.0133822,10,0.0156552,-1.22521,-0.871723,-0.067682,-156.982,0.262946,
2,1,0,1,0,52422.8,0.267302,0.266944,58.8619,27,0.0136189,10,0.0157128,-1.23017,-0.793776,-0.0743283,-170.487,0.266944,
2,1,0,1,0,52422.8,0.271347,0.271002,58.1821,27,0.013853,10,0.0157675,-1.23521,-0.733658,-0.080419,-182.217,0.271002,
2,1,0,1,0,52422.8,0.275342,0.275031,57.4145,27,0.0140841,10,0.0157908,-1.24098,-0.683091,-0.0863721,-193.138,0.275031,
2,1,0,1,0,52422.8,0.279337,0.279044,56.6042,27,0.0143121,10,0.0157951,-1.24715,-0.632847,-0.0932295,-205.645,0.279044,
2,1,0,1,0,52422.8,0.283332,0.283006,55.7597,27,0.0145367,10,0.0157803,-1.25368,-0.600122,-0.0983133,-213.696,0.283006,
2,1,0,1,0,52422.8,0.287327,0.287012,54.8897,27,0.014758,10,0.015754,-1.26051,-0.579174,-0.101869,-218.035,0.287012,
2,1,0,1,0,52422.8,0.291322,0.290957,54.0113,27,0.0149757,10,0.0157149,-1.26752,-0.563633,-0.104678,-220.644,0.290957,
2,1,0,1,0,52422.8,0.295318,0.295032,53.1183,27,0.0151899,10,0.0156716,-1.27476,-0.545821,-0.108094,-225.527,0.295032,
2,1,0,1,0,52422.8,0.299013,0.298698,52.2972,27,0.0153849,10,0.0156211,-1.28152,-0.19698,-0.299522,-604.202,0.298698,
2,1,0,0,0,52422.8,0.300012,0.299575,52.0565,27,0.0154371,10,0.0155948,-1.28353,0.00547646,10.7734,20188,0.299575,
2,1,0,1,0,52422.8,0.298714,0.298535,49.4323,27,0.015502,10,0.0147573,-1.30599,0.0610492,0.966434,1696.12,0.298535,
2,1,0,1,0,52422.8,0.294718,0.294543,43.2494,27,0.0156861,10,0.0127388,-1.36402,0.0712991,0.8275,1370.73,0.294543,
2,1,0,1,0,52422.8,0.290723,0.290482,38.3609,27,0.0158487,10,0.0111431,-1.41611,0.0753826,0.782674,1193.34,0.2904816,
2,1,0,1,0,52422.8,0.286728,0.286471,34.0952,27,0.015993,10,0.00976728,-1.46731,0.0771456,0.764787,1025.5,0.286471,
2,1,0,1,0,52422.8,0.282733,0.282473,30.2648,27,0.0161213,10,0.008549,-1.51906,0.0753403,0.783114,927.882,0.282473,
2,1,0,1,0,52422.8,0.278738,0.278481,26.7779,27,0.0162349,10,0.00745713,-1.57222,0.0729729,0.808519,844.96,0.278481,
2,1,0,1,0,52422.8,0.274742,0.274528,23.5577,27,0.0163352,10,0.00646723,-1.62787,0.0696513,0.847077,776.517,0.274528,
2,1,0,1,0,52422.8,0.270747,0.27049,20.5915,27,0.0164232,10,0.00556979,-1.68631,0.0656702,0.898429,718.128,0.27049,
2,1,0,1,0,52422.8,0.266702,0.266433,17.8089,27,0.0164996,10,0.00474487,-1.74936,0.0613353,0.961926,663.881,0.266433,
2,1,0,1,0,52422.8,0.262707,0.26244,15.2586,27,0.0165654,10,0.00400447,-1.81649,0.0557898,1.05754,621.935,0.2624402,
2,1,0,1,0,52422.8,0.258712,0.258442,12.8789,27,0.0166214,10,0.00332847,-1.89012,0.0502481,1.17417,578.218,0.258442,
2,1,0,1,0,52422.8,0.254717,0.254481,10.635,27,0.0166681,10,0.0027064,-1.97326,0.0438062,1.34684,542.834,0.254481,
2,1,0,1,0,52422.8,0.250722,0.250419,8.54976,27,0.0167063,10,0.00214102,-2.06805,0.0369124,1.59838,508.393,0.250419,
2,1,0,1,0,52422.9,0.246726,0.246478,6.59371,27,0.0167363,10,0.0016252,-2.18087,0.0293531,2.01001,474.429,0.246478,
2,1,0,1,0,52422.9,0.242731,0.242454,4.75035,27,0.0167588,10,0.00115174,-2.32327,0.020171,2.925,449.16,0.242454,
2,1,0,1,0,52422.9,0.238736,0.238427,3.01875,27,0.0167742,10,0.000719753,-2.52017,0.0100218,5.88719,421.796,0.238427,
2,1,0,1,0,52422.9,0.234741,0.234465,1.38348,27,0.0167828,10,0.000324377,-2.85903,0.0351441,1.6788,399.506,0.234465,
2,1,0,1,0,52422.9,0.230746,0.230452,-0.165965,27,0.016785,10,-3.82471e-05,-3.77998,-167.22,-0.000352829,377.874,0.230452,
2,0,0,1,0,52422.9,0.226701,0.226408,-1.66015,27,0.0167813,10,-0.00037587,-2.77985,-0.0324263,-1.81951,355.636,0.226408,
2,0,0,1,0,52422.9,0.222705,0.222448,-3.01942,27,0.0167717,10,-0.000671663,-2.52008,-0.0105192,-5.60877,336.376,0.222448,
2,0,0,1,0,52422.9,0.21871,0.218413,-4.32498,27,0.0167569,10,-0.000944632,-2.36402,-0.0263355,-2.24032,317.154,0.2184132,
2,0,0,1,0,52422.9,0.214715,0.214407,-5.56312,27,0.016737,10,-0.00119277,-2.25468,-0.0384734,-1.53353,303.096,0.214407,
2,0,0,1,0,52422.9,0.21072,0.210372,-6.74586,27,0.0167122,10,-0.00141914,-2.17096,-0.0507558,-1.16243,288.266,0.210372,
2,0,0,1,0,52422.9,0.206725,0.206435,-7.87294,27,0.0166829,10,-0.00162525,-2.10386,-0.0630984,-0.935047,275.555,0.206435,
2,0,0,1,0,52422.9,0.20273,0.202416,-8.93646,27,0.0166492,10,-0.00180888,-2.04883,-0.0758681,-0.777666,263.34,0.202416,
2,0,0,1,0,52422.9,0.198734,0.198435,-9.96425,27,0.0166112,10,-0.00197726,-2.00156,-0.0893418,-0.660385,251.159,0.198435,
2,0,0,1,0,52422.9,0.194739,0.194426,-10.9452,27,0.0165693,10,-0.00212803,-1.96078,-0.102118,-0.577761,242.677,0.194426,
2,0,0,1,0,52422.9,0.190744,0.190429,-11.8929,27,0.0165235,10,-0.00226476,-1.92471,-0.115539,-0.51065,233.937,0.190429,
2,0,0,1,0,52422.9,0.186735,0.186405,-12.822,27,0.016474,10,-0.00239008,-1.89205,-0.129388,-0.455992,225.424,0.186405,
2,0,0,1,0,52422.9,0.182704,0.182416,-13.7118,27,0.0164208,10,-0.00250125,-1.8629,-0.143021,-0.412527,218.409,0.182416,
2,0,0,1,0,52422.9,0.178709,0.178386,-14.5609,27,0.0163642,10,-0.00259747,-1.83681,-0.157655,-0.374236,210.955,0.178386,
2,0,0,1,0,52422.9,0.174713,0.174421,-15.3892,27,0.0163042,10,-0.0026842,-1.81278,-0.171779,-0.343464,205.056,0.174421,
2,0,0,1,0,52422.9,0.170718,0.170406,-16.1969,27,0.0162409,10,-0.00276006,-1.79057,-0.184071,-0.320529,201.613,0.170406,
2,0,0,1,0,52422.9,0.166723,0.166373,-17.0015,27,0.0161745,10,-0.00282859,-1.76951,-0.196151,-0.300788,198.763,0.166373,
2,0,0,1,0,52422.9,0.162728,0.162417,-17.7804,27,0.0161048,10,-0.00288785,-1.75006,-0.205862,-0.2866,198.39,0.162417,
2,0,0,1,0,52422.9,0.158733,0.158394,-18.5748,27,0.016032,10,-0.00294214,-1.73108,-0.214923,-0.274516,198.635,0.158394,
2,0,0,1,0,52422.9,0.154737,0.154404,-19.3717,27,0.0159561,10,-0.00299106,-1.71283,-0.221245,-0.266672,201.316,0.154404,
2,0,0,1,0,52422.9,0.150742,0.150422,-20.1699,27,0.0158769,10,-0.00303399,-1.6953,-0.224708,-0.262563,206.815,0.150422,
2,0,0,1,0,52423,0.146747,0.146446,-20.9958,27,0.0157945,10,-0.00307474,-1.67787,-0.228948,-0.2577,211.383,0.146446,
2,0,0,1,0,52423,0.142702,0.142405,-21.8815,27,0.0157087,10,-0.00311604,-1.65992,-0.229746,-0.256805,219.288,0.142405,
2,0,0,1,0,52423,0.138707,0.138398,-22.755,27,0.0156193,10,-0.00314925,-1.64292,-0.229723,-0.256831,228.295,0.138398,
2,0,0,1,0,52423,0.134712,0.134396,-23.6842,27,0.0155263,10,-0.00318306,-1.62554,-0.22986,-0.256678,237.742,0.134396,
2,0,0,1,0,52423,0.130717,0.130417,-24.6549,27,0.0154296,10,-0.00321543,-1.6081,-0.225337,-0.26183,252.527,0.130417,
2,0,0,1,0,52423,0.126721,0.126402,-25.6863,27,0.0153288,10,-0.00324679,-1.5903,-0.222739,-0.264884,266.186,0.126402,
2,0,0,1,0,52423,0.122726,0.122459,-26.78,27,0.0152238,10,-0.00327946,-1.57219,-0.219364,-0.268959,281.779,0.122459,
2,0,0,1,0,52423,0.118731,0.118441,-27.9311,27,0.0151143,10,-0.0033082,-1.55391,-0.217715,-0.270996,295.992,0.118441,
2,0,0,1,0,52423,0.114736,0.114428,-29.1605,27,0.015,10,-0.00333677,-1.5352,-0.218176,-0.270424,307.934,0.114428,
2,0,0,1,0,52423,0.110741,0.110407,-30.4207,27,0.0148807,10,-0.00335864,-1.51683,-0.21766,-0.271065,321.956,0.110407,
2,0,0,1,0,52423,0.106745,0.106436,-31.714,27,0.0147563,10,-0.00337552,-1.49875,-0.223372,-0.264133,326.793,0.1064364,
2,0,0,1,0,52423,0.102703,0.102442,-33.0822,27,0.0146266,10,-0.00338901,-1.48041,-0.229878,-0.256658,330.407,0.102442,
2,0,0,1,0,52423,0.0987052,0.0984346,-34.387,27,0.0144916,10,-0.00338487,-1.46361,-0.239561,-0.246283,329.525,0.0984346,
2,0,0,1,0,52423,0.09471,0.0944527,-35.6919,27,0.0143513,10,-0.0033712,-1.44743,-0.252221,-0.233922,325.179,0.0944527,
2,0,0,1,0,52423,0.0907148,0.0904285,-36.989,27,0.0142058,10,-0.00334486,-1.43193,-0.264039,-0.223452,321.791,0.0904285,
2,0,0,1,0,52423,0.0867196,0.0864477,-38.2832,27,0.0140551,10,-0.00330949,-1.41699,-0.278415,-0.211914,315.62,0.0864477,
2,0,0,1,0,52423,0.0827245,0.0824447,-39.5323,27,0.0138993,10,-0.00325923,-1.40305,-0.293819,-0.200804,308.819,0.0824447,
2,0,0,1,0,52423,0.0787293,0.0784417,-40.7454,27,0.0137387,10,-0.00319613,-1.38992,-0.314917,-0.187351,297.014,0.0784417,
2,0,0,1,0,52423,0.0747342,0.0744376,-41.9273,27,0.0135732,10,-0.00312096,-1.3775,-0.334626,-0.176316,287.554,0.0744376,
2,0,0,1,0,52423,0.070739,0.0703868,-43.0535,27,0.0134031,10,-0.0030304,-1.36599,-0.358475,-0.164586,275.592,0.0703868,
2,0,0,1,0,52423,0.0667438,0.0664548,-44.1303,27,0.0132286,10,-0.00293267,-1.35526,-0.390204,-0.151203,259.47,0.0664548,
2,0,0,1,0,52423,0.0627403,0.0624953,-45.1401,27,0.0130499,10,-0.00282104,-1.34544,-0.417972,-0.141158,247.859,0.0624953,
2,0,0,1,0,52423,0.0587035,0.058435,-46.0794,27,0.0128673,10,-0.00269265,-1.33649,-0.450816,-0.130874,234.845,0.058435,
2,0,0,1,0,52423,0.0547083,0.0545136,-46.9878,27,0.0126811,10,-0.00256147,-1.32801,-0.490681,-0.120241,219.989,0.0545136,
2,0,0,1,0,52423,0.0507132,0.0504894,-47.8797,27,0.0124912,10,-0.00241742,-1.31985,-0.527638,-0.111819,208.262,0.0504894,
2,0,0,1,0,52423.1,0.046718,0.04648,-48.6633,27,0.012298,10,-0.00226187,-1.3128,-0.575715,-0.102481,194.098,0.04648,
2,0,0,1,0,52423.1,0.0427228,0.0424621,-49.406,27,0.0121018,10,-0.00209788,-1.30622,-0.631248,-0.0934656,179.838,0.0424621,
2,0,0,1,0,52423.1,0.0387276,0.0384474,-50.1062,27,0.0119027,10,-0.00192645,-1.30011,-0.686438,-0.085951,167.695,0.0384474,
2,0,0,1,0,52423.1,0.0347325,0.0345143,-50.7526,27,0.0117009,10,-0.00175169,-1.29454,-0.741419,-0.0795771,157.302,0.0345143,
2,0,0,1,0,52423.1,0.0307373,0.0304816,-51.3461,27,0.0114966,10,-0.00156511,-1.28949,-0.805458,-0.0732502,146.55,0.0304816,
2,0,0,1,0,52423.1,0.0267421,0.0265072,-51.9157,27,0.01129,10,-0.00137614,-1.2847,-0.858841,-0.0686973,139.049,0.0265072,
2,0,0,1,0,52423.1,0.022747,0.0225264,-52.4394,27,0.0110813,10,-0.00118127,-1.28034,-0.918467,-0.0642375,131.351,0.0225264,
2,0,0,1,0,52423.1,0.0187018,0.0184131,-52.9915,27,0.0108704,10,-0.000975739,-1.27579,-1.00268,-0.0588425,121.452,0.0184131,
2,0,0,1,0,52423.1,0.0147067,0.0144186,-53.456,27,0.0106574,10,-0.000770759,-1.272,-1.09764,-0.0537519,111.886,0.0144186,
2,0,0,1,0,52423.1,0.0107115,0.0104145,-53.8702,27,0.0104427,10,-0.00056103,-1.26865,-1.2515,-0.0471435,98.947,0.0104145,
2,0,0,1,0,52423.1,0.00671632,0.00641674,-54.2419,27,0.0102264,10,-0.000348056,-1.26567,-1.3948,-0.0423001,89.4267,0.00641674,
2,0,0,1,0,52423.1,0.00272115,0.00240628,-54.5753,27,0.0100088,10,-0.000131324,-1.263,-1.57979,-0.0373466,79.4404,0.00240628,
2,0,0,1,0,52423.1,-0.00127403,-0.00162962,-54.8911,27,0.00978975,10,8.94519e-05,-1.2605,-1.8196,-0.0324247,69.3418,-0.00162962,
2,0,0,1,0,52423.1,-0.0052692,-0.00559661,-55.1422,27,0.00956965,10,0.000308609,-1.25852,-2.10537,-0.0280236,60.2136,-0.005596607,
2,0,0,1,0,52423.1,-0.00926438,-0.00964418,-55.3556,27,0.00934862,10,0.000533859,-1.25684,-2.61374,-0.022573,48.6988,-0.00964418,
2,0,0,1,0,52423.1,-0.0132596,-0.0136165,-55.5401,27,0.00912679,10,0.00075626,-1.25539,-3.05987,-0.0192819,41.7469,-0.0136165,
2,0,0,1,0,52423.1,-0.0172547,-0.0176163,-55.6697,27,0.00890436,10,0.000980695,-1.25438,-3.8603,-0.0152838,33.1764,-0.0176163,
2,0,0,1,0,52423.1,-0.0212915,-0.0216565,-55.8126,27,0.00868143,10,0.0012087,-1.25327,-5.55753,-0.0106162,23.0879,-0.0216565,
2,0,0,1,0,52423.1,-0.025295,-0.0256372,-55.8862,27,0.008458,10,0.00143277,-1.2527,-8.69029,-0.00678918,14.7817,-0.0256372,
2,0,0,1,0,52423.1,-0.0292902,-0.0296466,-55.9102,27,0.0082344,10,0.00165755,-1.25251,-30.2871,-0.00194802,4.24575,-0.0296466,
2,0,0,1,0,52423.1,-0.0332854,-0.0336613,-55.9068,27,0.00801075,10,0.0018819,-1.25254,30.9263,0.00190776,-4.15846,-0.0336613,
2,0,0,1,0,52423.1,-0.0372805,-0.0376686,-55.8806,27,0.00778718,10,0.00210494,-1.25274,12.4702,0.00473127,-10.3084,-0.0376686,
2,0,0,1,0,52423.1,-0.0412757,-0.0416377,-55.8196,27,0.00756378,10,0.0023242,-1.25321,8.18324,0.00720986,-15.6957,-0.0416377,
2,0,0,1,0,52423.1,-0.0452709,-0.0456545,-55.7452,27,0.00734064,10,0.00254502,-1.25379,6.15943,0.00957881,-20.8276,-0.0456545,
2,0,0,1,0,52423.1,-0.0492661,-0.0496183,-55.6564,27,0.00711785,10,0.00276158,-1.25448,5.09608,0.0115775,-25.1304,-0.0496183,
2,0,0,1,0,52423.2,-0.0532612,-0.0536553,-55.5476,27,0.00689545,10,0.00298043,-1.25533,4.41274,0.0133704,-28.9671,-0.0536553,
2,0,0,1,0,52423.2,-0.0572564,-0.0576276,-55.4178,27,0.00667354,10,0.00319359,-1.25635,4.33691,0.0136042,-29.4242,-0.0576276,
2,0,0,1,0,52423.2,-0.0612544,-0.061637,-55.2822,27,0.00645216,10,0.00340743,-1.25741,3.97923,0.014827,-31.9942,-0.061637,
2,0,0,1,0,52423.2,-0.0652967,-0.0656443,-55.1848,27,0.00623117,10,0.00362257,-1.25818,3.80361,0.0155116,-33.3861,-0.0656443,
2,0,0,1,0,52423.2,-0.0692919,-0.0696728,-55.0352,27,0.00601073,10,0.00383445,-1.25936,3.71294,0.0158904,-34.1135,-0.0696728,
2,0,0,1,0,52423.2,-0.0732871,-0.0736408,-54.8832,27,0.00579091,10,0.00404164,-1.26056,3.36089,0.0175549,-37.6016,-0.0736408,
2,0,0,1,0,52423.2,-0.0772822,-0.0776661,-54.7354,27,0.00557168,10,0.00425109,-1.26173,3.45071,0.0170979,-36.5286,-0.0776661,
2,0,0,1,0,52423.2,-0.0812774,-0.0816288,-54.5838,27,0.00535306,10,0.00445561,-1.26294,3.59443,0.0164143,-34.9786,-0.0816288,
2,0,0,1,0,52423.2,-0.0852726,-0.0856626,-54.4511,27,0.005135,10,0.00466442,-1.26399,3.70848,0.0159095,-33.8168,-0.0856626,
2,0,0,1,0,52423.2,-0.0892678,-0.089636,-54.3237,27,0.00491747,10,0.00486936,-1.26501,3.93168,0.0150063,-31.8179,-0.089636,
2,0,0,1,0,52423.2,-0.0932629,-0.0936634,-54.1944,27,0.00470045,10,0.00507604,-1.26605,4.1579,0.0141898,-30.0213,-0.0936634,
2,0,0,1,0,52423.2,-0.0972581,-0.0976039,-54.0755,27,0.00448393,10,0.00527798,-1.267,5.04984,0.0116835,-24.6797,-0.0976039,
2,0,0,1,0,52423.2,-0.101253,-0.101623,-53.9719,27,0.00426786,10,0.00548478,-1.26783,5.59207,0.0105507,-22.2418,-0.101623,
2,0,0,1,0,52423.2,-0.105298,-0.105679,-53.9278,27,0.00405207,10,0.00569903,-1.26819,6.35075,0.00929025,-19.5492,-0.105679,
2,0,0,1,0,52423.2,-0.109294,-0.109641,-53.8391,27,0.00383656,10,0.00590295,-1.2689,7.23612,0.00815355,-17.1305,-0.109641,
2,0,0,1,0,52423.2,-0.113289,-0.113651,-53.7618,27,0.00362138,10,0.00611008,-1.26953,7.29722,0.00808527,-16.9736,-0.113651,
2,0,0,1,0,52423.2,-0.117284,-0.117656,-53.6973,27,0.00340647,10,0.00631782,-1.27005,9.42678,0.00625877,-13.1251,-0.117656,
2,0,0,1,0,52423.2,-0.121279,-0.121686,-53.6561,27,0.00319177,10,0.00652918,-1.27038,13.2667,0.00444722,-9.31802,-0.121686,
2,0,0,1,0,52423.2,-0.125274,-0.125619,-53.6294,27,0.00297722,10,0.00673685,-1.2706,23.4584,0.00251509,-5.26659,-0.125619,
2,0,0,1,0,52423.2,-0.129269,-0.129627,-53.6129,27,0.00276274,10,0.00694969,-1.27073,47.6659,0.00123778,-2.59096,-0.129627,
2,0,0,1,0,52423.2,-0.133265,-0.133638,-53.6131,27,0.00254829,10,0.00716473,-1.27073,-99.979,-0.000590124,1.23535,-0.133638,
2,0,0,1,0,52423.2,-0.13726,-0.1376,-53.6148,27,0.00233384,10,0.00737742,-1.27072,-16.9911,-0.00347241,7.27338,-0.1376,
2,0,0,1,0,52423.2,-0.141255,-0.141603,-53.6491,27,0.0021193,10,0.00759689,-1.27044,-12.1788,-0.00484449,10.1518,-0.141603,
2,0,0,1,0,52423.2,-0.145286,-0.145639,-53.7294,27,0.00190459,10,0.00782511,-1.26979,-8.64516,-0.00682463,14.3105,-0.145639,
2,0,0,1,0,52423.2,-0.149295,-0.149673,-53.7759,27,0.00168955,10,0.0080488,-1.26941,-7.78392,-0.00757973,15.9078,-0.149673,
2,0,0,1,0,52423.3,-0.15329,-0.153625,-53.8442,27,0.0014743,10,0.00827182,-1.26886,-7.72144,-0.00764106,16.0608,-0.153625,
2,0,0,1,0,52423.3,-0.157286,-0.157643,-53.9043,27,0.00125881,10,0.00849763,-1.26838,-6.44777,-0.00915045,19.259,-0.157643,
2,0,0,1,0,52423.3,-0.161281,-0.161676,-53.9869,27,0.001043,10,0.00872838,-1.26771,-6.03241,-0.0097805,20.6151,-0.1616758,
2,0,0,1,0,52423.3,-0.165276,-0.165661,-54.0838,27,0.000826862,10,0.00895957,-1.26693,-5.32213,-0.0110858,23.4021,-0.1656608,
2,0,0,1,0,52423.3,-0.169271,-0.169581,-54.1731,27,0.000610333,10,0.00918673,-1.26622,-5.0695,-0.0116382,24.6102,-0.169581,
2,0,0,1,0,52423.3,-0.173266,-0.173607,-54.2779,27,0.000393412,10,0.00942304,-1.26538,-5.02079,-0.0117511,24.8943,-0.173607,
2,0,0,1,0,52423.3,-0.177261,-0.17764,-54.3798,27,0.000176099,10,0.00966005,-1.26456,-4.82694,-0.0122231,25.941,-0.17764,
2,0,0,1,0,52423.3,-0.181257,-0.181609,-54.4808,27,-4.16383e-05,10,0.00989423,-1.26376,-4.42844,-0.013323,28.3397,-0.181609,
2,0,0,1,0,52423.3,-0.185252,-0.185594,-54.5885,27,-0.000259777,10,0.0101313,-1.2629,-4.5387,-0.0129993,27.7002,-0.185594,
2,0,0,1,0,52423.3,-0.189297,-0.189607,-54.7313,27,-0.000478488,10,0.0103774,-1.26176,-4.6476,-0.0126947,27.0991,-0.189607,
2,0,0,1,0,52423.3,-0.193292,-0.193617,-54.8224,27,-0.000697617,10,0.0106146,-1.26104,-4.76813,-0.0123738,26.4547,-0.193617,
2,0,0,1,0,52423.3,-0.197287,-0.197621,-54.9147,27,-0.000917092,10,0.0108523,-1.26031,17.2987,0.00341066,-7.27987,-0.197621,
2,0,0,0,0,52423.3,-0.199984,-0.200227,-54.9756,27,-0.00106544,10,0.0110076,-1.25983,0.0670937,0.879367,-1770.62,-0.200227,
2,0,0,0,1,52423.3,-0.199984,-0.200475,-54.6522,27,-0.00109828,10,0.0109564,-1.26239,-0.0430833,-1.36944,2609.56,-0.200475,
2,0,0,1,1,52423.3,-0.196688,-0.197192,-48.4931,27,-0.00125553,10,0.00956245,-1.31432,-0.0738207,-0.799234,1449.43,-0.197192,
2,0,0,1,1,52423.3,-0.192693,-0.193135,-43.2067,27,-0.00143806,10,0.00834472,-1.36445,-0.079974,-0.73774,1271.28,-0.193135,
2,0,0,1,1,52423.3,-0.188698,-0.189128,-38.888,27,-0.00160164,10,0.0073548,-1.41018,-0.0876078,-0.673456,1039.2,-0.189128,
2,0,0,1,1,52423.3,-0.184653,-0.185092,-35.0957,27,-0.00174911,10,0.00649592,-1.45475,-0.0906114,-0.651132,901.45,-0.185092,
2,0,0,1,1,52423.3,-0.180657,-0.181092,-31.7617,27,-0.0018824,10,0.00575179,-1.4981,-0.0912797,-0.646365,806.429,-0.181092,
2,0,0,1,1,52423.3,-0.176662,-0.177069,-28.7238,27,-0.00200301,10,0.00508609,-1.54176,-0.0900867,-0.654925,736.129,-0.177069,
2,0,0,1,1,52423.3,-0.172667,-0.173051,-25.9232,27,-0.00211197,10,0.00448603,-1.58631,-0.0873619,-0.675351,683.094,-0.173051,
2,0,0,1,1,52423.3,-0.168672,-0.169077,-23.3071,27,-0.00221012,10,0.00394071,-1.63251,-0.0835919,-0.70581,640.329,-0.169077,
2,0,0,1,1,52423.3,-0.164677,-0.1651,-20.8377,27,-0.00229812,10,0.0034403,-1.68115,-0.0792113,-0.744843,603.11,-0.1651,
2,0,0,1,1,52423.3,-0.160681,-0.161123,-18.5136,27,-0.00237655,10,0.00298297,-1.73251,-0.0742867,-0.79422,569.958,-0.161123,
2,0,0,1,1,52423.3,-0.156686,-0.157114,-16.3115,27,-0.00244595,10,0.00256277,-1.78751,-0.0687613,-0.858041,540.272,-0.157114,
2,0,0,1,1,52423.3,-0.152691,-0.153126,-14.2153,27,-0.00250677,10,0.00217674,-1.84724,-0.0621295,-0.94963,517.461,-0.153126,
2,0,0,1,1,52423.3,-0.148696,-0.149108,-12.1977,27,-0.00255936,10,0.00181877,-1.91372,-0.0552522,-1.06783,495.929,-0.149108,
2,0,0,1,1,52423.4,-0.14467,-0.145108,-10.2263,27,-0.00260403,10,0.00148391,-1.99028,-0.0478326,-1.23347,476.908,-0.145108,
2,0,0,1,1,52423.4,-0.140656,-0.141093,-8.36643,27,-0.00264097,10,0.00118045,-2.07746,-0.0399592,-1.47651,459.147,-0.141093,
2,0,0,1,1,52423.4,-0.136661,-0.137099,-6.57194,27,-0.00267064,10,0.000901004,-2.18231,-0.0315117,-1.87232,440.401,-0.137099,
2,0,0,1,1,52423.4,-0.132665,-0.133108,-4.85158,27,-0.0026933,10,0.000645786,-2.31412,-0.0217741,-2.70964,426.442,-0.133108,
2,0,0,1,1,52423.4,-0.12867,-0.129093,-3.17309,27,-0.00270916,10,0.000409623,-2.49852,-0.00695273,-8.48587,414.478,-0.129093,
2,0,0,1,1,52423.4,-0.124675,-0.125083,-1.53909,27,-0.00271841,10,0.000192514,-2.81274,-0.0326163,-1.80891,402.668,-0.125083,
2,0,0,1,1,52423.4,-0.12068,-0.121162,0.0335366,27,-0.00272124,10,-4.06336e-06,-4.47448,-1.05724,-0.0558056,391.362,-0.121162,
2,1,0,1,1,52423.4,-0.116685,-0.117154,1.57295,27,-0.00271785,10,-0.000184276,-2.80329,0.0340252,1.73401,380.6,-0.117154,
2,1,0,1,1,52423.4,-0.112689,-0.113154,3.06483,27,-0.00270842,10,-0.000346797,-2.51359,0.00709591,8.31465,371.089,-0.113154,
2,1,0,1,1,52423.4,-0.108694,-0.109162,4.52042,27,-0.00269308,10,-0.00049346,-2.34482,0.0238698,2.47174,362.495,-0.109162,
2,1,0,1,1,52423.4,-0.104699,-0.1052,5.95697,27,-0.00267197,10,-0.000626671,-2.22497,0.0351722,1.67746,354.482,-0.1052,
2,1,0,1,1,52423.4,-0.100654,-0.101123,7.3838,27,-0.0026451,10,-0.000746675,-2.13172,0.045976,1.28328,347.008,-0.101123,
2,1,0,1,1,52423.4,-0.0966588,-0.0971511,8.73746,27,-0.0026127,10,-0.000848853,-2.05862,0.057066,1.03389,337.989,-0.0971511,
2,1,0,1,1,52423.4,-0.0926636,-0.0931692,10.0702,27,-0.00257494,10,-0.000938229,-1.99696,0.0681734,0.86544,330.598,-0.09316925,
2,1,0,1,1,52423.4,-0.0886685,-0.0891652,11.3764,27,-0.00253191,10,-0.00101438,-1.94399,0.0792281,0.744685,323.353,-0.0891652,
2,1,0,1,1,52423.4,-0.0846733,-0.0851483,12.6651,27,-0.00248368,10,-0.00107841,-1.89739,0.0904843,0.652047,316.357,-0.0851483,
2,1,0,1,1,52423.4,-0.0806781,-0.08114,13.9147,27,-0.0024304,10,-0.00112904,-1.85653,0.102131,0.577691,309.048,-0.08114,
2,1,0,1,1,52423.4,-0.076683,-0.0771539,15.1367,27,-0.00237215,10,-0.00116786,-1.81997,0.113921,0.517903,302.323,-0.0771539,
2,1,0,1,1,52423.4,-0.0726878,-0.0731117,16.3377,27,-0.00230908,10,-0.00119448,-1.78681,0.125603,0.469733,296.454,-0.0731117,
2,1,0,1,1,52423.4,-0.0686926,-0.0691192,17.5111,27,-0.00224126,10,-0.00121035,-1.75669,0.136892,0.430997,292.327,-0.06911923,
2,1,0,1,1,52423.4,-0.0646974,-0.0651353,18.6593,27,-0.00216878,10,-0.00121538,-1.7291,0.149553,0.394508,285.252,-0.0651353,
2,1,0,1,1,52423.4,-0.0606523,-0.0610888,19.833,27,-0.00209171,10,-0.00121157,-1.70261,0.162898,0.36219,277.849,-0.0610888,
2,1,0,1,1,52423.4,-0.0566571,-0.0571038,20.904,27,-0.00201012,10,-0.0011937,-1.67977,0.176811,0.333689,270.333,-0.0571038,
2,1,0,1,1,52423.4,-0.052662,-0.0530689,21.9707,27,-0.00192426,10,-0.00116596,-1.65816,0.191478,0.308129,262.928,-0.0530689,
2,1,0,1,1,52423.4,-0.0486668,-0.0490447,23.0092,27,-0.00183421,10,-0.00112848,-1.6381,0.204172,0.288972,258.325,-0.0490447,
2,1,0,1,1,52423.5,-0.0446716,-0.0451254,24.0302,27,-0.00174001,10,-0.00108437,-1.61924,0.218003,0.270639,252.735,-0.0451254,
2,1,0,1,1,52423.5,-0.0406764,-0.0411255,25.0316,27,-0.00164178,10,-0.00102944,-1.60151,0.232851,0.253381,246.466,-0.0411255,
2,1,0,1,1,52423.5,-0.0366813,-0.0371299,25.999,27,-0.00153961,10,-0.000965341,-1.58504,0.248751,0.237185,239.758,-0.0371299,
2,1,0,1,1,52423.5,-0.0326861,-0.0330866,26.9423,27,-0.00143362,10,-0.000891428,-1.56957,0.264485,0.223075,233.825,-0.0330866,
2,1,0,1,1,52423.5,-0.0286909,-0.0291217,27.8672,27,-0.0013239,10,-0.000811542,-1.55491,0.278572,0.211795,229.783,-0.0291217,
2,1,0,1,1,52423.5,-0.0246957,-0.0251304,28.7716,27,-0.00121053,10,-0.000723042,-1.54104,0.294548,0.200307,224.401,-0.0251304,
2,1,0,1,1,52423.5,-0.0206756,-0.021104,29.6815,27,-0.00109355,10,-0.000626398,-1.52751,0.313064,0.18846,217.551,-0.021104,
2,1,0,1,1,52423.5,-0.0166554,-0.0170352,30.5442,27,-0.000972987,10,-0.000520328,-1.51507,0.331806,0.177815,211.222,-0.0170352,
2,1,0,1,1,52423.5,-0.0126603,-0.0130725,31.3587,27,-0.0008491,10,-0.000409936,-1.50364,0.353476,0.166914,203.807,-0.0130725,
2,1,0,1,1,52423.5,-0.0086651,-0.0090599,32.1661,27,-0.000721954,10,-0.000291421,-1.4926,0.370951,0.159051,199.089,-0.0090599,
2,1,0,1,1,52423.5,-0.00466992,-0.00506958,32.9494,27,-0.000591641,10,-0.00016704,-1.48215, , , ,-0.00506958,
2,1,0,1,1,52423.5,-0.000974387,-0.00141807,33.6534,27,-0.000468392,10,-4.7723e-05,-1.47297, , , ,-0.00141807,
2,1,0,0,1,52423.5,-0.000175352,-0.000649808,33.8075,27,-0.000441427,10,-2.19684e-05,-1.47099, , , ,-0.000649808,