File: Figure_codes/Fig_3-5/rawdata_trumpetplot_data/after 10th/20221101_1-115_003_TrumpetPlot_ParaChange_from10_every3_09_CV_C01_9.csv
mode,ox/red,error,control changes,counter inc.,time/s,control/V,Ewe/V,<I>/mA,cycle number,(Q-Qo)/C,I Range,P/W,log(|I|),Tafel slope mV/dec,alpha_eff,dI/d(E-IR),E-IR/V,
2,0,0,0,0,18913.7,2.44065e-05,-0.000401673,-5.41662,10,0.0000000E+000,10,2.17571e-06,-2.26627, , , ,-0.000401673,
2,0,0,1,0,18913.7,0.00179726,0.0014444,-2.74201,10,-6.86522e-05,10,-3.96057e-06,-2.56193, , , ,0.0014444,
2,0,0,1,0,18913.7,0.00379485,0.00350002,-0.916923,10,-0.000103328,10,-3.20925e-06,-3.03767,-0.00401256,-14.7038,747.409,0.00350002,
2,1,0,1,0,18913.8,0.00579244,0.00547598,0.271226,10,-0.000108754,10,1.48523e-06,-3.56667,0.0449561,1.31239,516.384,0.005475976,
2,1,0,1,0,18913.8,0.00779002,0.00744944,1.12249,10,-9.40857e-05,10,8.36194e-06,-2.94982,0.00490737,12.0227,373.881,0.00744944,
2,1,0,1,0,18913.8,0.00978761,0.00946474,1.76255,10,-6.47749e-05,10,1.6682e-05,-2.75386,0.0133272,4.42705,279.39,0.00946474,
2,1,0,1,0,18913.8,0.0117852,0.0114463,2.23919,10,-2.43627e-05,10,2.56305e-05,-2.64991,0.0230328,2.56157,216.223,0.0114463,
2,1,0,1,0,18913.8,0.0137828,0.0134288,2.61967,10,2.45528e-05,10,3.51791e-05,-2.58175,0.0341073,1.72984,173.587,0.0134288,
2,1,0,1,0,18913.9,0.0157804,0.0154529,2.93468,10,8.0407e-05,10,4.53495e-05,-2.53244,0.0464884,1.26913,143.554,0.0154529,
2,1,0,1,0,18913.9,0.017778,0.0174437,3.19603,10,0.000141703,10,5.57506e-05,-2.49539,0.0612501,0.963264,119.07,0.0174437,
2,1,0,1,0,18913.9,0.0197755,0.0194612,3.41194,10,0.00020795,10,6.64003e-05,-2.467,0.0770005,0.766229,101.576,0.0194612,
2,1,0,1,0,18913.9,0.0217731,0.0214778,3.60579,10,0.000278306,10,7.74443e-05,-2.443,0.090218,0.653971,91.6724,0.0214778,
2,1,0,1,0,18913.9,0.0237707,0.0234537,3.77795,10,0.000352312,10,8.86069e-05,-2.42274,0.103464,0.570249,83.9085,0.0234537,
2,1,0,1,0,18914,0.0257683,0.0254582,3.93978,10,0.000429271,10,0.0001003,-2.40453,0.118262,0.498894,76.4846,0.0254582,
2,1,0,1,0,18914,0.0277659,0.0274363,4.08255,10,0.000509663,10,0.00011201,-2.38907,0.133958,0.440437,70.111,0.0274363,
2,1,0,1,0,18914,0.0297635,0.0294717,4.22117,10,0.000592898,10,0.000124405,-2.37457,0.147422,0.400211,65.8075,0.0294717,
2,1,0,1,0,18914,0.0317611,0.031452,4.34682,10,0.000678771,10,0.000136716,-2.36183,0.150469,0.392106,66.6092,0.031452,
2,1,0,1,0,18914,0.0337587,0.0334642,4.48711,10,0.000766798,10,0.000150157,-2.34803,0.157232,0.375241,65.5503,0.0334642,
2,1,0,1,0,18914.1,0.0357562,0.0354356,4.60794,10,0.000857907,10,0.000163285,-2.33649,0.180064,0.327662,58.8614,0.0354356,
2,1,0,1,0,18914.1,0.0377538,0.0374356,4.72087,10,0.000951434,10,0.000176729,-2.32598,0.186764,0.315907,58.2453,0.03743561,
2,1,0,1,0,18914.1,0.0397514,0.0394647,4.84261,10,0.00104723,10,0.000191112,-2.31492,0.178915,0.329766,62.3516,0.0394647,
2,1,0,1,0,18914.1,0.041749,0.041446,4.97092,10,0.00114506,10,0.000206025,-2.30356,0.192801,0.306016,59.2352,0.041446,
2,1,0,1,0,18914.1,0.0437466,0.0434562,5.07905,10,0.0012458,10,0.000220716,-2.29422,0.210377,0.280448,55.6164,0.0434562,
2,1,0,1,0,18914.1,0.0457442,0.0454491,5.19356,10,0.0013487,10,0.000236043,-2.28453,0.209219,0.282001,57.1346,0.0454491,
2,1,0,1,0,18914.2,0.0477418,0.0474181,5.30542,10,0.00145388,10,0.000251573,-2.27528,0.208232,0.283338,58.7132,0.0474181,
2,1,0,1,0,18914.2,0.0497484,0.0494331,5.42748,10,0.0015613,10,0.000268297,-2.2654,0.227946,0.258833,54.6977,0.0494331,
2,1,0,1,0,18914.2,0.0517369,0.0514465,5.52576,10,0.00167044,10,0.000284281,-2.25761,0.235116,0.250939,54.2066,0.0514465,
2,1,0,1,0,18914.2,0.0537345,0.053427,5.64397,10,0.00178225,10,0.000301541,-2.24842,0.240301,0.245525,53.9663,0.053427,
2,1,0,1,0,18914.2,0.0557321,0.0554092,5.73961,10,0.00189625,10,0.000318028,-2.24112,0.267191,0.220816,49.4834,0.0554092,
2,1,0,1,0,18914.3,0.0577206,0.0574129,5.84121,10,0.00201162,10,0.000335361,-2.2335,0.254555,0.231777,52.8652,0.0574129,
2,1,0,1,0,18914.3,0.0597273,0.0593959,5.95037,10,0.00212986,10,0.000353427,-2.22546,0.258896,0.227891,52.8876,0.0593959,
2,1,0,1,0,18914.3,0.0617249,0.0614195,6.05311,10,0.00225005,10,0.000371779,-2.21802,0.293746,0.200854,47.3889,0.0614195,
2,1,0,1,0,18914.3,0.0637224,0.0634324,6.14165,10,0.00237218,10,0.00038958,-2.21171,0.294019,0.200667,48.1483,0.0634324,
2,1,0,1,0,18914.3,0.06572,0.0653858,6.24408,10,0.00249624,10,0.000408274,-2.20453,0.277766,0.212409,51.7559,0.0653858,
2,1,0,1,0,18914.4,0.0677176,0.0673873,6.34635,10,0.0026218,10,0.000427663,-2.19748,0.308556,0.191213,47.2977,0.0673873,
2,1,0,1,0,18914.4,0.0697152,0.0693811,6.43305,10,0.00274985,10,0.000446332,-2.19158,0.325997,0.180983,45.4659,0.0693811,
2,1,0,1,0,18914.4,0.0717128,0.071394,6.52851,10,0.00287962,10,0.000466097,-2.18519,0.330018,0.178778,45.5205,0.071394,
2,1,0,1,0,18914.4,0.0737104,0.0734057,6.61624,10,0.00301123,10,0.00048567,-2.17939,0.342737,0.172144,44.4536,0.0734057,
2,1,0,1,0,18914.4,0.075708,0.0753867,6.706,10,0.00314403,10,0.000505543,-2.17354,0.350428,0.168366,44.042,0.0753867,
2,1,0,1,0,18914.5,0.0777056,0.0773488,6.78991,10,0.00327908,10,0.000525191,-2.16814,0.373874,0.157807,41.8122,0.0773488,
2,1,0,1,0,18914.5,0.0797031,0.0793777,6.87287,10,0.0034158,10,0.000545553,-2.16286,0.407346,0.14484,38.8243,0.0793777,
2,1,0,1,0,18914.5,0.0817007,0.081404,6.94735,10,0.00355415,10,0.000565542,-2.15818,0.423136,0.139435,37.8143,0.081404,
2,1,0,1,0,18914.5,0.0836983,0.0834165,7.0256,10,0.00369334,10,0.000586051,-2.15332,0.420775,0.140218,38.4333,0.0834165,
2,1,0,1,0,18914.5,0.0856959,0.0853705,7.09979,10,0.00383477,10,0.000606113,-2.14875,0.438974,0.134404,37.2391,0.0853705,
2,1,0,1,0,18914.6,0.0876935,0.087395,7.17375,10,0.00397773,10,0.00062695,-2.14425,0.463582,0.12727,35.6149,0.08739499,
2,1,0,1,0,18914.6,0.0896911,0.0893481,7.24146,10,0.004122,10,0.000647011,-2.14017,0.424118,0.139112,39.372,0.0893481,
2,1,0,1,0,18914.6,0.0916887,0.0913849,7.33085,10,0.0042671,10,0.000669929,-2.13485,0.40452,0.145852,41.6937,0.0913849,
2,1,0,1,0,18914.6,0.0936862,0.0933604,7.40875,10,0.00441465,10,0.000691684,-2.13026,0.451388,0.130708,37.7772,0.0933604,
2,1,0,1,0,18914.6,0.0956838,0.0953598,7.48101,10,0.00456368,10,0.000713388,-2.12604,0.415446,0.142016,41.5184,0.0953598,
2,1,0,1,0,18914.7,0.0976814,0.0973367,7.57383,10,0.00471439,10,0.000737212,-2.12068,0.33905,0.174016,51.4999,0.0973367,
2,1,0,1,0,18914.7,0.099679,0.0993482,7.68641,10,0.00486634,10,0.000763631,-2.11428,0.328681,0.179505,53.8154,0.0993482,
2,1,0,1,0,18914.7,0.101677,0.10137,7.79088,10,0.0050213,10,0.00078976,-2.10841,0.323756,0.182236,55.457,0.10137,
2,1,0,1,0,18914.7,0.103674,0.103376,7.90978,10,0.00517846,10,0.000817682,-2.10184,0.283591,0.208046,64.2954,0.103376,
2,1,0,1,0,18914.7,0.105672,0.105369,8.04803,10,0.00533819,10,0.000848017,-2.09431,0.259348,0.227494,71.4811,0.105369,
2,1,0,1,0,18914.8,0.107667,0.107355,8.19419,10,0.00549984,10,0.000879687,-2.08649,0.262495,0.224766,71.839,0.107355,
2,1,0,1,0,18914.8,0.109667,0.109336,8.33296,10,0.00566523,10,0.00091109,-2.0792,0.250913,0.235141,76.5872,0.109336,
2,1,0,1,0,18914.8,0.111665,0.111336,8.49912,10,0.00583369,10,0.000946261,-2.07063,0.236369,0.24961,82.7864,0.111336,
2,1,0,1,0,18914.8,0.113662,0.113357,8.66588,10,0.00600551,10,0.000982338,-2.06219,0.240586,0.245234,82.916,0.113357,
2,1,0,1,0,18914.8,0.11566,0.115327,8.83,10,0.0061806,10,0.00101834,-2.05404,0.235958,0.250045,86.2356,0.1153269,
2,1,0,1,0,18914.9,0.117657,0.117352,9.0104,10,0.00635833,10,0.00105739,-2.04526,0.248782,0.237156,83.2646,0.117352,
2,1,0,1,0,18914.9,0.119655,0.119346,9.16464,10,0.00654023,10,0.00109376,-2.03788,0.276429,0.213437,76.3105,0.119346,
2,1,0,1,0,18914.9,0.121652,0.121326,9.31365,10,0.00672512,10,0.00112999,-2.03088,0.291999,0.202055,73.4198,0.121326,
2,1,0,1,0,18914.9,0.12365,0.123344,9.45817,10,0.00691299,10,0.00116661,-2.02419,0.303147,0.194625,71.8333,0.123344,
2,1,0,1,0,18914.9,0.125648,0.125343,9.60223,10,0.00710289,10,0.00120358,-2.01763,0.336609,0.175277,65.5842,0.125343,
2,1,0,1,0,18915,0.127645,0.127309,9.71819,10,0.00729629,10,0.00123721,-2.01241,0.373766,0.157853,59.8955,0.127309,
2,1,0,1,0,18915,0.129643,0.129376,9.84379,10,0.00749207,10,0.00127356,-2.00684,0.390838,0.150958,57.9327,0.129376,
2,1,0,1,0,18915,0.13164,0.131303,9.94958,10,0.00769011,10,0.0013064,-2.0022,0.433467,0.136112,52.8413,0.131303,
2,1,0,1,0,18915,0.133638,0.133315,10.0519,10,0.00788938,10,0.00134008,-1.99775,0.468846,0.125841,49.3486,0.133315,
2,1,0,1,0,18915,0.135636,0.135313,10.1475,10,0.00809151,10,0.00137309,-1.99364,0.503972,0.11707,46.3484,0.135313,
2,1,0,1,0,18915.1,0.137633,0.137317,10.2374,10,0.00829548,10,0.00140577,-1.98981,0.56712,0.104034,41.5332,0.137317,
2,1,0,1,0,18915.1,0.139631,0.139273,10.312,10,0.00850113,10,0.00143618,-1.98666,0.651609,0.0905451,36.4338,0.139273,
2,1,0,1,0,18915.1,0.141628,0.141334,10.3838,10,0.00870718,10,0.00146758,-1.98365,0.755701,0.0780732,31.6143,0.141334,
2,1,0,1,0,18915.1,0.143626,0.143314,10.4397,10,0.00891556,10,0.00149615,-1.98131,1.08813,0.0542214,22.0657,0.143314,
2,1,0,1,0,18915.1,0.145624,0.145313,10.4715,10,0.0091248,10,0.00152165,-1.97999,5.65354,0.0104359,4.25536,0.145313,
2,1,0,1,0,18915.2,0.147621,0.147307,10.4567,10,0.00933418,10,0.00154034,-1.98061,-1.8473,-0.0319386,-13.0201,0.147307,
2,1,0,1,0,18915.2,0.149619,0.149291,10.4198,10,0.00954209,10,0.00155557,-1.98214,-0.701535,-0.0841013,-34.0972,0.149291,
2,1,0,1,0,18915.2,0.151616,0.151299,10.3206,10,0.00974969,10,0.00156149,-1.9863,-0.36234,-0.162831,-65.372,0.151299,
2,1,0,1,0,18915.2,0.153614,0.153333,10.1555,10,0.00995464,10,0.00155717,-1.9933,-0.236881,-0.24907,-98.402,0.153333,
2,1,0,1,0,18915.2,0.155611,0.155284,9.92842,10,0.0101557,10,0.00154173,-2.00312,-0.182214,-0.323795,-125.183,0.155284,
2,1,0,1,0,18915.3,0.157609,0.157281,9.66127,10,0.0103508,10,0.00151953,-2.01497,-0.140559,-0.419753,-157.454,0.157281,
2,1,0,1,0,18915.3,0.159607,0.159265,9.30166,10,0.0105405,10,0.00148143,-2.03144,-0.113007,-0.522091,-189.119,0.159265,
2,1,0,1,0,18915.3,0.161604,0.161242,8.91208,10,0.0107229,10,0.001437,-2.05002,-0.101668,-0.58032,-201.345,0.161242,
2,1,0,1,0,18915.3,0.163602,0.163292,8.49093,10,0.0108971,10,0.0013865,-2.07104,-0.0939613,-0.627918,-207.965,0.163292,
2,1,0,1,0,18915.3,0.165606,0.16527,8.07451,10,0.0110628,10,0.00133447,-2.09288,-0.0886307,-0.665683,-209.608,0.16527,
2,1,0,1,0,18915.4,0.167597,0.167257,7.65972,10,0.0112194,10,0.00128114,-2.11579,-0.0888933,-0.663717,-198.573,0.167257,
2,1,0,1,0,18915.4,0.169595,0.169313,7.27167,10,0.0113688,10,0.00123119,-2.13837,-0.0903147,-0.653271,-185.545,0.169313,
2,1,0,1,0,18915.4,0.171592,0.171306,6.90852,10,0.0115106,10,0.00118347,-2.16061,-0.0928829,-0.635209,-171.697,0.171306,
2,1,0,1,0,18915.4,0.173581,0.173274,6.59149,10,0.0116449,10,0.00114214,-2.18102,-0.1011,-0.583579,-150.485,0.173274,
2,1,0,1,0,18915.4,0.175587,0.175249,6.31513,10,0.0117741,10,0.00110672,-2.19962,-0.112718,-0.523428,-129.255,0.175249,
2,1,0,1,0,18915.5,0.177585,0.177305,6.07053,10,0.0118979,10,0.00107633,-2.21677,-0.119616,-0.493244,-116.977,0.177305,
2,1,0,1,0,18915.5,0.179582,0.179272,5.84453,10,0.012017,10,0.00104776,-2.23325,-0.131825,-0.447565,-102.43,0.179272,
2,1,0,1,0,18915.5,0.18158,0.181288,5.66254,10,0.0121321,10,0.00102655,-2.24699,-0.150072,-0.393144,-87.0016,0.181288,
2,1,0,1,0,18915.5,0.183578,0.183235,5.49971,10,0.0122432,10,0.00100774,-2.25966,-0.160825,-0.366858,-78.7858,0.183235,
2,1,0,1,0,18915.5,0.185575,0.185304,5.34614,10,0.0123516,10,0.000990661,-2.27196,-0.172408,-0.342211,-71.5177,0.185304,
2,1,0,1,0,18915.6,0.187573,0.187247,5.21278,10,0.0124573,10,0.000976079,-2.28293,-0.189618,-0.311152,-63.3885,0.187247,
2,1,0,1,0,18915.6,0.18957,0.189251,5.09593,10,0.0125605,10,0.00096441,-2.29278,-0.215322,-0.274008,-54.5601,0.189251,
2,1,0,1,0,18915.6,0.191568,0.191276,4.99299,10,0.012661,10,0.000955038,-2.30164,-0.234609,-0.251483,-49.0364,0.191276,
2,1,0,1,0,18915.6,0.193566,0.193289,4.89794,10,0.01276,10,0.000946717,-2.30999,-0.257728,-0.228924,-43.8278,0.193289,
2,1,0,1,0,18915.6,0.195563,0.195239,4.81931,10,0.0128573,10,0.000940915,-2.31702,-0.269225,-0.219147,-41.1841,0.195239,
2,1,0,1,0,18915.7,0.197561,0.197276,4.73374,10,0.012953,10,0.000933852,-2.3248,-0.304869,-0.193526,-35.855,0.197276,
2,1,0,1,0,18915.7,0.199558,0.199235,4.67603,10,0.0130467,10,0.000931627,-2.33012,-0.339422,-0.173825,-31.6865,0.199235,
2,1,0,1,0,18915.7,0.201556,0.201225,4.6086,10,0.0131396,10,0.000927365,-2.33643,-0.324985,-0.181547,-32.6654,0.201225,
2,1,0,1,0,18915.7,0.203553,0.203236,4.54533,10,0.0132313,10,0.000923773,-2.34244,-0.366695,-0.160897,-28.5763,0.203236,
2,1,0,1,0,18915.7,0.205551,0.205247,4.49366,10,0.0133218,10,0.000922311,-2.3474,-0.514993,-0.114565,-20.1407,0.205247,
2,1,0,1,0,18915.8,0.207549,0.207263,4.46421,10,0.013411,10,0.000925267,-2.35025,-0.527732,-0.111799,-19.438,0.207263,
2,1,0,1,0,18915.8,0.209546,0.209211,4.41661,10,0.0134999,10,0.000924004,-2.35491,-0.410739,-0.143644,-24.7507,0.209211,
2,1,0,1,0,18915.8,0.211544,0.21122,4.36627,10,0.0135877,10,0.000922245,-2.35989,-0.464015,-0.127151,-21.6998,0.21122,
2,1,0,1,0,18915.8,0.213541,0.213225,4.32951,10,0.0136748,10,0.00092316,-2.36356,-0.60432,-0.0976303,-16.5103,0.213225,
2,1,0,1,0,18915.8,0.215539,0.215221,4.30022,10,0.0137607,10,0.000925497,-2.36651,-0.564727,-0.104475,-17.5092,0.215221,
2,1,0,1,0,18915.9,0.217537,0.217241,4.25919,10,0.0138464,10,0.000925271,-2.37067,-0.566655,-0.10412,-17.3315,0.217241,
2,1,0,1,0,18915.9,0.219534,0.219253,4.23034,10,0.0139314,10,0.000927514,-2.37363,-0.740412,-0.0796853,-13.1637,0.219253,
2,1,0,1,0,18915.9,0.221532,0.221232,4.20666,10,0.0140159,10,0.000930647,-2.37606,-0.776655,-0.0759668,-12.4678,0.221232,
2,1,0,1,0,18915.9,0.223525,0.223256,4.18043,10,0.0140994,10,0.000933306,-2.37878,-0.779417,-0.0756976,-12.3544,0.223256,
2,1,0,1,0,18915.9,0.225527,0.22523,4.15727,10,0.0141828,10,0.00093634,-2.38119,-0.815965,-0.0723071,-11.7304,0.22523,
2,1,0,1,0,18916,0.227525,0.227262,4.13343,10,0.0142658,10,0.000939374,-2.38369,-0.717233,-0.0822606,-13.2612,0.227262,
2,1,0,1,0,18916,0.229522,0.229222,4.10433,10,0.0143483,10,0.000940801,-2.38676,-0.781426,-0.075503,-12.1095,0.229222,
2,1,0,1,0,18916,0.23152,0.231196,4.0858,10,0.0144303,10,0.00094462,-2.38872,-1.28017,-0.0460877,-7.35585,0.231196,
2,1,0,1,0,18916,0.233517,0.233213,4.07497,10,0.0145117,10,0.000950335,-2.38988,-1.04845,-0.0562738,-8.93381,0.233213,
2,1,0,1,0,18916,0.235515,0.235205,4.04999,10,0.0145931,10,0.000952576,-2.39255,-0.894626,-0.0659494,-10.4346,0.2352047,
2,1,0,1,0,18916.1,0.237512,0.237195,4.03342,10,0.014674,10,0.000956707,-2.39433,-1.1087,-0.0532153,-8.37601,0.237195,
2,1,0,1,0,18916.1,0.23951,0.239235,4.01623,10,0.0147546,10,0.000960823,-2.39618,-1.46934,-0.040154,-6.30096,0.239235,
2,1,0,1,0,18916.1,0.241508,0.241191,4.00824,10,0.0148346,10,0.000966752,-2.39705,-1.30606,-0.0451739,-7.05601,0.241191,
2,1,0,1,0,18916.1,0.243505,0.243185,3.98836,10,0.0149146,10,0.000969908,-2.39921,-1.14701,-0.0514381,-8.01361,0.2431846,
2,1,0,1,0,18916.1,0.245503,0.245262,3.97561,10,0.0149944,10,0.000975068,-2.4006,-1.38874,-0.0424847,-6.59086,0.2452625,
2,1,0,1,0,18916.2,0.2475,0.24721,3.96183,10,0.0150739,10,0.000979405,-2.4021,-1.6448,-0.0358707,-5.55034,0.24721,
2,1,0,1,0,18916.2,0.249498,0.249172,3.95391,10,0.0151528,10,0.000985204,-2.40297,-1.50651,-0.0391633,-6.03688,0.249172,
2,1,0,1,0,18916.2,0.251496,0.251209,3.93769,10,0.0152318,10,0.000989184,-2.40476,-1.31119,-0.0449972,-6.919,0.251209,
2,1,0,1,0,18916.2,0.253493,0.253196,3.92607,10,0.0153105,10,0.000994065,-2.40604,-1.21433,-0.0485863,-7.43821,0.253196,
2,1,0,1,0,18916.2,0.255491,0.255219,3.90786,10,0.0153889,10,0.000997361,-2.40806,-1.91109,-0.0308724,-4.71898,0.255219,
2,1,0,1,0,18916.3,0.257488,0.257187,3.90724,10,0.0154668,10,0.00100489,-2.40813,-3.40584,-0.0173232,-2.63841,0.257187,
2,1,0,1,0,18916.3,0.259486,0.259225,3.89729,10,0.0155449,10,0.00101028,-2.40924,-1.05175,-0.0560972,-8.51702,0.259225,
2,1,0,1,0,18916.3,0.261484,0.261159,3.87341,10,0.0156227,10,0.00101158,-2.41191,-1.34738,-0.0437887,-6.63763,0.261159,
2,1,0,1,0,18916.3,0.263481,0.263204,3.87088,10,0.0157002,10,0.00101883,-2.41219,-7.20654,-0.00818701,-1.23681,0.263204,
2,1,0,1,0,18916.3,0.265479,0.265167,3.86845,10,0.0157773,10,0.00102578,-2.41246,-1.99709,-0.0295429,-4.4528,0.265167,
2,1,0,1,0,18916.4,0.267476,0.267178,3.85318,10,0.0158545,10,0.00102949,-2.41418,-1.18376,-0.0498411,-7.49553,0.267178,
2,1,0,1,0,18916.4,0.269474,0.269161,3.83851,10,0.0159314,10,0.00103318,-2.41584,-1.39712,-0.0422297,-6.32949,0.269161,
2,1,0,1,0,18916.4,0.271471,0.271183,3.82784,10,0.0160082,10,0.00103804,-2.41705,-3.81974,-0.0154461,-2.3111,0.271183,
2,1,0,1,0,18916.4,0.273469,0.273179,3.82922,10,0.0160844,10,0.00104606,-2.41689,-1.73048,-0.0340946,-5.07968,0.273179,
2,1,0,1,0,18916.4,0.275467,0.275224,3.80731,10,0.0161608,10,0.00104786,-2.41938,-1.24266,-0.0474787,-7.0692,0.275224,
2,1,0,1,0,18916.5,0.277464,0.277164,3.80105,10,0.016237,10,0.00105351,-2.4201,-1.81487,-0.0325092,-4.81829,0.277164,
2,1,0,1,0,18916.5,0.279462,0.279198,3.78816,10,0.0163129,10,0.00105765,-2.42157,-1.69232,-0.0348634,-5.15764,0.279198,
2,1,0,1,0,18916.5,0.281464,0.281179,3.78034,10,0.0163886,10,0.00106295,-2.42247,-1.64602,-0.0358441,-5.28454,0.281179,
2,1,0,1,0,18916.5,0.283457,0.283158,3.76724,10,0.0164638,10,0.00106672,-2.42398,-1.45082,-0.0406666,-5.98089,0.283158,
2,1,0,1,0,18916.5,0.285455,0.285147,3.75661,10,0.0165391,10,0.00107119,-2.4252,-1.26793,-0.0465326,-6.81672,0.285147,
2,1,0,1,0,18916.6,0.287452,0.287138,3.74011,10,0.0166143,10,0.00107393,-2.42712,-1.76846,-0.0333624,-4.87852,0.287138,
2,1,0,1,0,18916.6,0.28945,0.28914,3.73713,10,0.0166891,10,0.00108055,-2.42746,-4.51633,-0.0130637,-1.90491,0.28914,
2,1,0,1,0,18916.6,0.291447,0.291104,3.73255,10,0.0167636,10,0.00108656,-2.42799,-1.34214,-0.0439597,-6.3895,0.291104,
2,1,0,1,0,18916.6,0.293445,0.29314,3.71157,10,0.0168381,10,0.00108801,-2.43044,-1.27224,-0.0463748,-6.73073,0.29314,
2,1,0,1,0,18916.6,0.295442,0.29515,3.70532,10,0.0169124,10,0.00109362,-2.43117,-2.50517,-0.0235513,-3.40526,0.29515,
2,1,0,1,0,18916.7,0.29744,0.297079,3.69816,10,0.0169865,10,0.00109865,-2.43201,-2.0403,-0.0289173,-4.17224,0.297079,
2,1,0,1,0,18916.7,0.299438,0.299143,3.68866,10,0.0170601,10,0.00110344,-2.43313,-0.0303284,-1.94537,-257.269,0.299143,
2,1,0,1,0,18916.7,0.299737,0.299417,3.09683,10,0.01709,10,0.000927243,-2.50908,0.00285431,20.6705,1613.52,0.299417,
2,1,0,1,0,18916.7,0.29774,0.297432,0.927569,10,0.0171267,10,0.000275889,-3.03265,0.00241018,24.4795,788.725,0.297432,
2,1,0,1,0,18916.7,0.295742,0.295405,-0.0670739,10,0.0171341,10,-1.9814e-05,-4.17345,0.0222972,2.64607,384.657,0.295405,
2,0,0,1,0,18916.8,0.293745,0.293426,-0.613322,10,0.0171268,10,-0.000179964,-3.21231,-0.00347388,-16.9839,220.552,0.293426,
2,0,0,1,0,18916.8,0.291747,0.291409,-0.948559,10,0.017111,10,-0.000276418,-3.02294,-0.0139243,-4.23719,143.561,0.291409,
2,0,0,1,0,18916.8,0.289754,0.289441,-1.18535,10,0.0170898,10,-0.000343088,-2.92615,-0.026169,-2.25458,100.117,0.289441,
2,0,0,1,0,18916.8,0.287752,0.287391,-1.35076,10,0.0170644,10,-0.000388196,-2.86942,-0.0416937,-1.41508,73.2204,0.287391,
2,0,0,1,0,18916.8,0.285754,0.285458,-1.477,10,0.0170361,10,-0.000421621,-2.83062,-0.0569543,-1.03592,59.2559,0.285458,
2,0,0,1,0,18916.9,0.283757,0.283405,-1.58696,10,0.0170055,10,-0.000449754,-2.79943,-0.0718365,-0.821309,50.5906,0.283405,
2,0,0,1,0,18916.9,0.281759,0.281362,-1.68421,10,0.0169728,10,-0.000473874,-2.7736,-0.08741,-0.67498,44.0517,0.2813623,
2,0,0,1,0,18916.9,0.279761,0.279464,-1.76059,10,0.0169385,10,-0.000492021,-2.75434,-0.103883,-0.567946,38.9935,0.279464,
2,0,0,1,0,18916.9,0.277764,0.277459,-1.83643,10,0.0169026,10,-0.000509534,-2.73603,-0.122125,-0.483113,34.4832,0.277459,
2,0,0,1,0,18916.9,0.275766,0.27545,-1.899,10,0.0168653,10,-0.000523079,-2.72148,-0.148596,-0.39705,29.3679,0.27545,
2,0,0,1,0,18917,0.273769,0.273411,-1.95529,10,0.0168268,10,-0.000534599,-2.70879,-0.155329,-0.379839,29,0.273411,
2,0,0,1,0,18917,0.271771,0.271459,-2.01475,10,0.0167872,10,-0.00054692,-2.69578,-0.155898,-0.378452,29.7331,0.271459,
2,0,0,1,0,18917,0.269774,0.269485,-2.07204,10,0.0167464,10,-0.000558383,-2.6836,-0.184383,-0.319986,25.8009,0.269485,
2,0,0,1,0,18917,0.267776,0.267448,-2.11821,10,0.0167045,10,-0.000566512,-2.67403,-0.222189,-0.26554,21.9312,0.267448,
2,0,0,1,0,18917,0.265778,0.265424,-2.1611,10,0.0166618,10,-0.000573607,-2.66533,-0.201101,-0.293384,24.8107,0.265424,
2,0,0,1,0,18917.1,0.263781,0.263494,-2.21633,10,0.0166183,10,-0.000583989,-2.65437,-0.214015,-0.275682,23.7499,0.263494,
2,0,0,1,0,18917.1,0.261783,0.261493,-2.25445,10,0.0165737,10,-0.000589524,-2.64696,-0.276204,-0.21361,18.793,0.261493,
2,0,0,1,0,18917.1,0.259786,0.259431,-2.29269,10,0.0165283,10,-0.000594793,-2.63966,-0.26481,-0.222802,19.9508,0.259431,
2,0,0,1,0,18917.1,0.257788,0.25746,-2.33491,10,0.0164822,10,-0.000601147,-2.63173,-0.263754,-0.223693,20.3673,0.2574605,
2,0,0,1,0,18917.1,0.25579,0.255448,-2.37381,10,0.0164354,10,-0.000606384,-2.62455,-0.32537,-0.181332,16.7595,0.255448,
2,0,0,1,0,18917.2,0.253793,0.253466,-2.40186,10,0.0163877,10,-0.000608789,-2.61945,-0.357329,-0.165114,15.4965,0.253466,
2,0,0,1,0,18917.2,0.251795,0.251426,-2.43612,10,0.0163395,10,-0.000612506,-2.6133,-0.324803,-0.181649,17.2717,0.2514264,
2,0,0,1,0,18917.2,0.249798,0.249453,-2.47117,10,0.0162905,10,-0.00061644,-2.6071,-0.337334,-0.174901,16.8535,0.249453,
2,0,0,1,0,18917.2,0.2478,0.247498,-2.50233,10,0.016241,10,-0.000619322,-2.60166,-0.335747,-0.175727,17.1785,0.247498,
2,0,0,1,0,18917.2,0.245802,0.245514,-2.53883,10,0.0161907,10,-0.000623318,-2.59537,-0.360697,-0.163572,16.1805,0.245514,
2,0,0,1,0,18917.3,0.243805,0.243485,-2.56726,10,0.0161397,10,-0.00062509,-2.59053,-0.44989,-0.131143,13.1289,0.243485,
2,0,0,1,0,18917.3,0.241807,0.241484,-2.59173,10,0.0160881,10,-0.000625863,-2.58641,-0.379123,-0.155622,15.784,0.241484,
2,0,0,1,0,18917.3,0.23981,0.239467,-2.63069,10,0.0160363,10,-0.000629962,-2.57993,-0.363851,-0.162154,16.6092,0.239467,
2,0,0,1,0,18917.3,0.237812,0.237516,-2.65765,10,0.0159835,10,-0.000631234,-2.5755,-0.460132,-0.128224,13.2964,0.237516,
2,0,0,1,0,18917.3,0.235815,0.235486,-2.68361,10,0.0159301,10,-0.000631954,-2.57128,-0.471577,-0.125112,13.1047,0.235486,
2,0,0,1,0,18917.4,0.233817,0.2335,-2.71028,10,0.0158763,10,-0.000632849,-2.56699,-0.386421,-0.152683,16.1811,0.2335,
2,0,0,1,0,18917.4,0.231815,0.231527,-2.74767,10,0.0158219,10,-0.000636161,-2.56104,-0.417895,-0.141184,15.0995,0.231527,
2,0,0,1,0,18917.4,0.229822,0.229496,-2.77073,10,0.0157671,10,-0.000635872,-2.55741,-0.561096,-0.105151,11.3684,0.229496,
2,0,0,1,0,18917.4,0.227824,0.227545,-2.79295,10,0.0157115,10,-0.000635521,-2.55394,-0.511159,-0.115424,12.5944,0.227545,
2,0,0,1,0,18917.4,0.225827,0.225493,-2.82115,10,0.0156555,10,-0.000636149,-2.54957,-0.486789,-0.121202,13.3373,0.225493,
2,0,0,1,0,18917.5,0.223829,0.223531,-2.84648,10,0.0155989,10,-0.000636277,-2.54569,-0.494657,-0.119275,13.2543,0.223531,
2,0,0,1,0,18917.5,0.221831,0.221523,-2.87377,10,0.015542,10,-0.000636606,-2.54155,-0.529594,-0.111406,12.4844,0.221523,
2,0,0,1,0,18917.5,0.219834,0.219525,-2.89649,10,0.0154843,10,-0.000635853,-2.53813,-0.472101,-0.124973,14.1542,0.219525,
2,0,0,1,0,18917.5,0.217836,0.217515,-2.9305,10,0.0154261,10,-0.000637427,-2.53306,-0.589015,-0.100167,11.4122,0.217515,
2,0,0,1,0,18917.5,0.215839,0.215517,-2.94223,10,0.0153674,10,-0.000634101,-2.53132,-0.537924,-0.109681,12.6527,0.2155171,
2,0,0,1,0,18917.6,0.213841,0.213489,-2.98144,10,0.0153085,10,-0.000636504,-2.52557,-0.413215,-0.142783,16.5774,0.2134887,
2,0,0,1,0,18917.6,0.211843,0.211558,-3.00786,10,0.0152486,10,-0.000636338,-2.52174,-0.5749,-0.102627,12.0363,0.211558,
2,0,0,1,0,18917.6,0.209846,0.209536,-3.02901,10,0.0151884,10,-0.000634688,-2.5187,-0.585562,-0.100758,11.9226,0.209536,
2,0,0,1,0,18917.6,0.207848,0.207499,-3.05626,10,0.0151276,10,-0.000634171,-2.51481,-0.394816,-0.149437,17.8747,0.207499,
2,0,0,1,0,18917.6,0.205851,0.205504,-3.10109,10,0.0150664,10,-0.000637286,-2.50849,-0.465449,-0.126759,15.2687,0.205504,
2,0,0,1,0,18917.7,0.203853,0.203533,-3.11682,10,0.0150044,10,-0.000634375,-2.50629,-0.742173,-0.0794963,9.68009,0.203533,
2,0,0,1,0,18917.7,0.201856,0.201568,-3.13919,10,0.0149419,10,-0.00063276,-2.50318,-0.537229,-0.109823,13.4733,0.201568,
2,0,0,1,0,18917.7,0.199858,0.199556,-3.17039,10,0.0148789,10,-0.000632672,-2.49889,-0.445114,-0.13255,16.4113,0.1995562,
2,0,0,1,0,18917.7,0.19786,0.197497,-3.20599,10,0.0148156,10,-0.000633175,-2.49404,-0.579028,-0.101895,12.709,0.197497,
2,0,0,1,0,18917.7,0.195863,0.195528,-3.22158,10,0.0147514,10,-0.000629911,-2.49193,-0.550731,-0.10713,13.5166,0.195528,
2,0,0,1,0,18917.8,0.193865,0.193505,-3.25996,10,0.0146867,10,-0.000630818,-2.48679,-0.447836,-0.131745,16.7355,0.193505,
2,0,0,1,0,18917.8,0.191868,0.191529,-3.28851,10,0.0146213,10,-0.000629846,-2.483,-0.454596,-0.129786,16.6788,0.191529,
2,0,0,1,0,18917.8,0.18987,0.189545,-3.326,10,0.0145556,10,-0.000630427,-2.47808,-0.476996,-0.123691,16.0269,0.189545,
2,0,0,1,0,18917.8,0.187872,0.187578,-3.35184,10,0.0144889,10,-0.000628731,-2.47472,-0.507565,-0.116241,15.2262,0.187578,
2,0,0,1,0,18917.8,0.185875,0.185546,-3.38689,10,0.0144215,10,-0.000628424,-2.4702,-0.484886,-0.121678,16.0712,0.1855461,
2,0,0,1,0,18917.9,0.183877,0.183522,-3.41703,10,0.0143536,10,-0.000627099,-2.46635,-0.393287,-0.150018,20.0658,0.183522,
2,0,0,1,0,18917.9,0.18188,0.181503,-3.46801,10,0.0142853,10,-0.000629456,-2.45992,-0.391307,-0.150777,20.343,0.181503,
2,0,0,1,0,18917.9,0.179882,0.179562,-3.49757,10,0.0142157,10,-0.000628032,-2.45623,-0.500242,-0.117943,16.1107,0.179562,
2,0,0,1,0,18917.9,0.177885,0.17751,-3.53236,10,0.0141454,10,-0.000627027,-2.45194,-0.3894,-0.151515,20.9296,0.17751,
2,0,0,1,0,18917.9,0.175887,0.175541,-3.58174,10,0.0140743,10,-0.000628742,-2.44591,-0.327404,-0.180205,25.1929,0.175541,
2,0,0,1,0,18918,0.173896,0.173536,-3.63246,10,0.0140027,10,-0.000630363,-2.4398,-0.330163,-0.178699,25.3305,0.173536,
2,0,0,1,0,18918,0.171892,0.171546,-3.68292,10,0.0139295,10,-0.000631792,-2.43381,-0.343521,-0.171751,24.6745,0.171546,
2,0,0,1,0,18918,0.169894,0.16957,-3.73032,10,0.0138555,10,-0.00063255,-2.42825,-0.317223,-0.185989,27.1219,0.16957,
2,0,0,1,0,18918,0.167897,0.167574,-3.79067,10,0.0137803,10,-0.000635216,-2.42128,-0.271996,-0.216915,32.119,0.167574,
2,0,0,1,0,18918,0.165899,0.165576,-3.85862,10,0.0137039,10,-0.000638893,-2.41357,-0.261572,-0.22556,33.9643,0.165576,
2,0,0,1,0,18918.1,0.163901,0.163567,-3.92675,10,0.0136265,10,-0.000642287,-2.40597,-0.261037,-0.226021,34.6395,0.163567,
2,0,0,1,0,18918.1,0.161904,0.161606,-3.99613,10,0.0135474,10,-0.000645798,-2.39836,-0.239838,-0.245999,38.4313,0.161606,
2,0,0,1,0,18918.1,0.159906,0.159572,-4.08027,10,0.0134667,10,-0.000651098,-2.38931,-0.221197,-0.266731,42.4793,0.159572,
2,0,0,1,0,18918.1,0.157909,0.157594,-4.16656,10,0.0133843,10,-0.000656624,-2.38022,-0.190761,-0.309287,50.448,0.157594,
2,0,0,1,0,18918.1,0.155911,0.155609,-4.2802,10,0.0133002,10,-0.000666039,-2.36854,-0.170433,-0.346177,57.8331,0.155609,
2,0,0,1,0,18918.2,0.153913,0.153611,-4.3969,10,0.0132135,10,-0.000675411,-2.35685,-0.168842,-0.349438,59.9994,0.153611,
2,0,0,1,0,18918.2,0.151916,0.151593,-4.52119,10,0.0131244,10,-0.00068538,-2.34475,-0.155709,-0.378913,66.9869,0.151593,
2,0,0,1,0,18918.2,0.149918,0.149601,-4.66552,10,0.0130326,10,-0.000697965,-2.3311,-0.137253,-0.429863,78.4606,0.149601,
2,0,0,1,0,18918.2,0.147921,0.147579,-4.83615,10,0.0129381,10,-0.000713712,-2.3155,-0.128532,-0.459028,86.676,0.147579,
2,0,0,1,0,18918.2,0.145923,0.145564,-5.01537,10,0.0128396,10,-0.00073006,-2.2997,-0.118892,-0.496248,97.3895,0.145564,
2,0,0,1,0,18918.3,0.143926,0.143574,-5.22616,10,0.0127373,10,-0.00075034,-2.28182,-0.106494,-0.554021,113.224,0.143574,
2,0,0,1,0,18918.3,0.141928,0.1416,-5.46418,10,0.0126304,10,-0.000773731,-2.26247,-0.101845,-0.57931,123.661,0.1416,
2,0,0,1,0,18918.3,0.13993,0.139576,-5.72054,10,0.0125192,10,-0.000798451,-2.24256,-0.099265,-0.594369,132.835,0.139576,
2,0,0,1,0,18918.3,0.137933,0.137588,-5.9972,10,0.0124021,10,-0.000825142,-2.22205,-0.0956031,-0.617134,144.646,0.137588,
2,0,0,1,0,18918.3,0.135935,0.135569,-6.30014,10,0.0122792,10,-0.000854104,-2.20065,-0.0938577,-0.628611,154.489,0.135569,
2,0,0,1,0,18918.4,0.133938,0.133639,-6.60719,10,0.0121501,10,-0.000882982,-2.17998,-0.0938818,-0.62845,162.231,0.133639,
2,0,0,1,0,18918.4,0.13194,0.13163,-6.93919,10,0.0120155,10,-0.000913405,-2.15869,-0.095906,-0.615185,166.537,0.13163,
2,0,0,1,0,18918.4,0.129942,0.12962,-7.2766,10,0.0118734,10,-0.000943192,-2.13807,-0.0993088,-0.594107,168.605,0.12962,
2,0,0,1,0,18918.4,0.127945,0.127622,-7.61488,10,0.0117245,10,-0.000971829,-2.11834,-0.107368,-0.54951,162.948,0.127622,
2,0,0,1,0,18918.4,0.125947,0.125616,-7.92907,10,0.0115691,10,-0.000996016,-2.10078,-0.113632,-0.519218,160.707,0.1256157,
2,0,0,1,0,18918.5,0.12395,0.123636,-8.25545,10,0.0114082,10,-0.00102067,-2.08326,-0.11878,-0.496716,159.735,0.123636,
2,0,0,1,0,18918.5,0.121952,0.121672,-8.55899,10,0.0112401,10,-0.00104139,-2.06758,-0.134809,-0.437656,145.883,0.121672,
2,0,0,1,0,18918.5,0.119955,0.119677,-8.83311,10,0.0110662,10,-0.00105712,-2.05389,-0.151612,-0.38915,134.079,0.119677,
2,0,0,1,0,18918.5,0.117957,0.117612,-9.10335,10,0.0108868,10,-0.00107066,-2.0408,-0.162525,-0.363021,128.821,0.117612,
2,0,0,1,0,18918.5,0.115955,0.115608,-9.35729,10,0.0107023,10,-0.00108177,-2.02885,-0.180192,-0.327428,119.329,0.115608,
2,0,0,1,0,18918.6,0.113962,0.11364,-9.57729,10,0.0105138,10,-0.00108837,-2.01876,-0.205035,-0.287756,107.463,0.11364,
2,0,0,1,0,18918.6,0.111964,0.111636,-9.78406,10,0.0103202,10,-0.00109226,-2.00948,-0.231465,-0.254898,97.1906,0.1116363,
2,0,0,1,0,18918.6,0.109967,0.109648,-9.96529,10,0.0101227,10,-0.00109268,-2.00151,-0.266067,-0.221749,86.1599,0.109648,
2,0,0,1,0,18918.6,0.107969,0.107625,-10.1297,10,0.00992177,10,-0.00109021,-1.9944,-0.302728,-0.194894,76.964,0.107625,
2,0,0,1,0,18918.6,0.105971,0.105642,-10.2736,10,0.00971876,10,-0.00108533,-1.98828,-0.364627,-0.161809,64.7778,0.105642,
2,0,0,1,0,18918.7,0.103974,0.10365,-10.3872,10,0.00951216,10,-0.00107663,-1.9835,-0.462216,-0.127646,51.6919,0.10365,
2,0,0,1,0,18918.7,0.101976,0.101648,-10.4801,10,0.00930352,10,-0.00106528,-1.97963,-0.652179,-0.090466,36.9331,0.1016478,
2,0,0,1,0,18918.7,0.0999786,0.0996506,-10.5349,10,0.00909347,10,-0.00104981,-1.97737,-0.883537,-0.066777,27.4553,0.0996506,
2,0,0,1,0,18918.7,0.0979811,0.0976412,-10.5901,10,0.00888324,10,-0.00103403,-1.9751,-1.52785,-0.0386164,15.925,0.0976412,
2,0,0,1,0,18918.7,0.0959835,0.0956353,-10.5988,10,0.00867137,10,-0.00101362,-1.97474,13.6009,0.00433794,-1.79226,0.0956353,
2,0,0,1,0,18918.8,0.0939859,0.0936486,-10.583,10,0.00845956,10,-0.000991079,-1.97539,1.89046,0.0312094,-12.8783,0.0936486,
2,0,0,1,0,18918.8,0.0919883,0.0916731,-10.5478,10,0.00824826,10,-0.000966949,-1.97684,1.18976,0.0495899,-20.403,0.0916731,
2,0,0,1,0,18918.8,0.0899907,0.0896744,-10.5019,10,0.00803875,10,-0.000941749,-1.97873,0.718088,0.0821627,-33.6043,0.0896744,
2,0,0,1,0,18918.8,0.0879931,0.0876403,-10.4123,10,0.00782959,10,-0.000912536,-1.98245,0.525624,0.112248,-45.6056,0.0876403,
2,0,0,1,0,18918.8,0.0859955,0.0856856,-10.32,10,0.00762231,10,-0.000884272,-1.98632,0.468382,0.125966,-50.6892,0.0856856,
2,0,0,1,0,18918.9,0.083998,0.0836563,-10.2103,10,0.00741707,10,-0.000854158,-1.99096,0.412778,0.142934,-56.93,0.0836563,
2,0,0,1,0,18918.9,0.0820004,0.0816858,-10.0922,10,0.00721508,10,-0.000824394,-1.99601,0.386032,0.152837,-60.1868,0.0816858,
2,0,0,1,0,18918.9,0.0800028,0.0796875,-9.97147,10,0.00701455,10,-0.000794601,-2.00124,0.383733,0.153753,-59.839,0.0796875,
2,0,0,1,0,18918.9,0.0780052,0.0776945,-9.85341,10,0.00681641,10,-0.000765556,-2.00641,0.386962,0.15247,-58.6302,0.0776945,
2,0,0,1,0,18918.9,0.0760076,0.0756667,-9.73573,10,0.00662063,10,-0.00073667,-2.01163,0.406778,0.145042,-55.1519,0.0756667,
2,0,0,1,0,18919,0.07401,0.0737131,-9.63383,10,0.00642811,10,-0.000710139,-2.0162,0.430558,0.137032,-51.5125,0.0737131,
2,0,0,1,0,18919,0.0720124,0.0716638,-9.52953,10,0.00623652,10,-0.000682922,-2.02093,0.446679,0.132086,-49.1506,0.0716638,
2,0,0,1,0,18919,0.0700148,0.0696948,-9.43633,10,0.00604693,10,-0.000657663,-2.0252,0.484256,0.121836,-44.8843,0.0696948,
2,0,0,1,0,18919,0.0680173,0.0676693,-9.35024,10,0.00585919,10,-0.000632724,-2.02918,0.598741,0.0985402,-36.0094,0.0676693,
2,0,0,1,0,18919,0.0660106,0.0656604,-9.29105,10,0.00567302,10,-0.000610054,-2.03194,0.597205,0.0987935,-35.776,0.0656604,
2,0,0,1,0,18919.1,0.0640221,0.0636956,-9.20808,10,0.00548902,10,-0.000586514,-2.03583,0.541358,0.108985,-39.1859,0.0636956,
2,0,0,1,0,18919.1,0.0620245,0.0616856,-9.1353,10,0.00530558,10,-0.000563517,-2.03928,0.649534,0.0908343,-32.4109,0.0616856,
2,0,0,1,0,18919.1,0.0600269,0.0596748,-9.07776,10,0.0051235,10,-0.000541714,-2.04202,0.728135,0.081029,-28.7058,0.0596748,
2,0,0,1,0,18919.1,0.0580361,0.0576672,-9.01994,10,0.00494357,10,-0.000520154,-2.0448,0.686418,0.0859535,-30.2496,0.0576672,
2,0,0,1,0,18919.1,0.0560317,0.0557085,-8.95778,10,0.00476382,10,-0.000499025,-2.0478,0.656532,0.0898662,-31.4172,0.0557085,
2,0,0,1,0,18919.2,0.0540342,0.0537291,-8.89622,10,0.00458532,10,-0.000477986,-2.05079,0.683433,0.0863289,-29.976,0.0537291,
2,0,0,1,0,18919.2,0.0520366,0.0516759,-8.8369,10,0.004408,10,-0.000456655,-2.0537,0.653719,0.0902529,-31.117,0.0516759,
2,0,0,1,0,18919.2,0.050039,0.0497602,-8.77272,10,0.00423187,10,-0.000436533,-2.05687,0.690845,0.0854026,-29.2586,0.04976023,
2,0,0,1,0,18919.2,0.0480414,0.0476909,-8.7203,10,0.0040578,10,-0.000415879,-2.05947,0.736134,0.0801484,-27.2672,0.0476909,
2,0,0,1,0,18919.2,0.0460438,0.0457029,-8.66209,10,0.00388401,10,-0.000395883,-2.06238,0.634665,0.0929624,-31.4094,0.0457029,
2,0,0,1,0,18919.3,0.0440462,0.0436971,-8.59486,10,0.00371151,10,-0.00037557,-2.06576,0.592013,0.09966,-33.432,0.0436971,
2,0,0,1,0,18919.3,0.0420486,0.0417373,-8.52951,10,0.00354037,10,-0.000355999,-2.06908,0.661348,0.0892117,-29.7165,0.0417373,
2,0,0,1,0,18919.3,0.040051,0.0396891,-8.47575,10,0.00337119,10,-0.000336395,-2.07182,0.637484,0.0925513,-30.5863,0.0396891,
2,0,0,1,0,18919.3,0.0380535,0.0377239,-8.40676,10,0.00320242,10,-0.000317136,-2.07537,0.523926,0.112611,-36.9256,0.03772394,
2,0,0,1,0,18919.3,0.0360559,0.0357055,-8.32866,10,0.00303514,10,-0.000297378,-2.07943,0.514677,0.114635,-37.2747,0.0357055,
2,0,0,1,0,18919.4,0.0340583,0.0337082,-8.25707,10,0.00286929,10,-0.000278331,-2.08317,0.558373,0.105664,-34.0623,0.03370823,
2,0,0,1,0,18919.4,0.0320607,0.0316887,-8.19184,10,0.00270561,10,-0.000259588,-2.08662,0.500085,0.11798,-37.6725,0.0316887,
2,0,0,1,0,18919.4,0.0300631,0.0297281,-8.10713,10,0.00254273,10,-0.000241009,-2.09113,0.438427,0.134572,-42.5788,0.02972807,
2,0,0,1,0,18919.4,0.0280655,0.027731,-8.02332,10,0.00238149,10,-0.000222494,-2.09565,0.427037,0.138161,-43.2439,0.027731,
2,0,0,1,0,18919.4,0.0260679,0.0257131,-7.93351,10,0.00222193,10,-0.000203995,-2.10053,0.4238,0.139217,-43.1238,0.0257131,
2,0,0,1,0,18919.5,0.0240704,0.0237468,-7.85151,10,0.00206492,10,-0.000186448,-2.10505,0.424117,0.139113,-42.6075,0.0237468,
2,0,0,1,0,18919.5,0.0220728,0.0217114,-7.76301,10,0.00190886,10,-0.000168546,-2.10997,0.397825,0.148306,-44.9178,0.0217114,
2,0,0,1,0,18919.5,0.0200752,0.0197146,-7.67039,10,0.00175463,10,-0.000151219,-2.11518,0.356562,0.165469,-49.5001,0.0197146,
2,0,0,1,0,18919.5,0.0180776,0.0177773,-7.56827,10,0.00160228,10,-0.000134543,-2.121,0.376547,0.156687,-46.3434,0.01777726,
2,0,0,1,0,18919.5,0.01608,0.0157707,-7.48762,10,0.00145253,10,-0.000118085,-2.12566,0.422324,0.139703,-40.8126,0.0157707,
2,0,0,1,0,18919.6,0.0140824,0.0137391,-7.40346,10,0.00130364,10,-0.000101717,-2.13057,0.394771,0.149454,-43.16,0.0137391,
2,0,0,1,0,18919.6,0.0120848,0.0117109,-7.3124,10,0.00115654,10,-8.56347e-05,-2.13594,0.377204,0.156414,-44.6532,0.0117109,
2,0,0,1,0,18919.6,0.0100872,0.0097922,-7.22722,10,0.00101124,10,-7.07703e-05,-2.14103,0.432508,0.136414,-38.5195,0.0097922,
2,0,0,1,0,18919.6,0.00809193,0.00772432,-7.15884,10,0.000868202,10,-5.52971e-05,-2.14516,0.470048,0.125519,-35.0564,0.00772432,
2,0,0,1,0,18919.6,0.00609208,0.00576483,-7.08603,10,0.000725817,10,-4.08498e-05,-2.1496,0.440831,0.133838,-37.0089,0.00576483,
2,0,0,1,0,18919.7,0.00409449,0.00376804,-7.01242,10,0.000584942,10,-2.64231e-05,-2.15413,0.771891,0.0764357,-21.0118,0.00376804,
2,0,0,1,0,18919.7,0.0020969,0.00174608,-7.00159,10,0.000445301,10,-1.22254e-05,-2.1548,0.713377,0.0827053,-22.4878,0.00174608,
2,0,0,1,0,18919.7,9.14991e-05,-0.000257217,-6.9219,10,0.00030622,10,1.78043e-06,-2.15977,0.479994,0.122918,-33.2652,-0.000257217,
2,0,0,1,0,18919.7,-0.00189827,-0.00227928,-6.86769,10,0.000169087,10,1.56534e-05,-2.16319,0.602355,0.0979489,-26.2572,-0.00227928,
2,0,0,1,0,18919.7,-0.00389586,-0.00428636,-6.8161,10,3.23618e-05,10,2.92163e-05,-2.16646,0.72867,0.0809695,-21.5668,-0.00428636,
2,0,0,1,0,18919.8,-0.00589345,-0.00623368,-6.7824,10,-0.000103553,10,4.22793e-05,-2.16862,0.867891,0.0679809,-17.9886,-0.00623368,
2,0,0,1,0,18919.8,-0.00789103,-0.00826482,-6.74454,10,-0.000238736,10,5.57424e-05,-2.17105,1.10298,0.0534916,-14.1004,-0.008264821,
2,0,0,1,0,18919.8,-0.00988862,-0.0102065,-6.72638,10,-0.000372803,10,6.86527e-05,-2.17222,2.1665,0.0272328,-7.15293,-0.0102065,
2,0,0,1,0,18919.8,-0.0118862,-0.012274,-6.71586,10,-0.000507166,10,8.24304e-05,-2.1729,1.63124,0.0361688,-9.46763,-0.012274,
2,0,0,1,0,18919.8,-0.0138838,-0.0142487,-6.68811,10,-0.000641212,10,9.52967e-05,-2.1747,2.2773,0.0259078,-6.77668,-0.0142487,
2,0,0,1,0,18919.9,-0.0158814,-0.0162789,-6.68872,10,-0.000774944,10,0.000108885,-2.17466,-7.93708,-0.00743346,1.94138,-0.0162789,
2,0,0,1,0,18919.9,-0.017879,-0.0182566,-6.69589,10,-0.000908093,10,0.000122244,-2.17419,-6.38353,-0.00924253,2.41441,-0.01825662,
2,0,0,1,0,18919.9,-0.0198766,-0.0202695,-6.69836,10,-0.00104197,10,0.000135772,-2.17403,-5.63199,-0.0104759,2.7398,-0.0202695,
2,0,0,1,0,18919.9,-0.0218741,-0.0222687,-6.70689,10,-0.00117585,10,0.000149354,-2.17348,-2.62973,-0.0224358,5.87528,-0.0222687,
2,0,0,1,0,18919.9,-0.0238717,-0.0242409,-6.72169,10,-0.00131005,10,0.00016294,-2.17252,-1.48415,-0.0397535,10.4375,-0.0242409,
2,0,0,1,0,18920,-0.0258693,-0.026239,-6.74833,10,-0.00144401,10,0.000177069,-2.1708,-1.70607,-0.0345824,9.09635,-0.02623897,
2,0,0,1,0,18920,-0.0278669,-0.0282301,-6.75798,10,-0.00157895,10,0.000190779,-2.17018,-1.69614,-0.0347849,9.18605,-0.0282301,
2,0,0,1,0,18920,-0.0298645,-0.0302352,-6.78504,10,-0.00171434,10,0.000205147,-2.16845,-1.19396,-0.0494152,13.083,-0.0302352,
2,0,0,1,0,18920,-0.0318621,-0.0322055,-6.80999,10,-0.00185029,10,0.000219319,-2.16685,-0.944246,-0.0624837,16.6265,-0.0322055,
2,0,0,1,0,18920,-0.0338597,-0.0342319,-6.85149,10,-0.0019862,10,0.000234539,-2.16422,-0.826204,-0.0714109,19.0856,-0.0342319,
2,0,0,1,0,18920.1,-0.0358573,-0.036219,-6.88659,10,-0.00212351,10,0.000249426,-2.162,-0.813037,-0.0725674,19.5134,-0.036219,
2,0,0,1,0,18920.1,-0.0378548,-0.0381996,-6.92891,10,-0.0022616,10,0.000264681,-2.15934,-0.878709,-0.067144,18.1401,-0.0381996,
2,0,0,1,0,18920.1,-0.0398524,-0.0401971,-6.95875,10,-0.00240043,10,0.000279721,-2.15747,-0.731037,-0.0807073,21.9634,-0.0401971,
2,0,0,1,0,18920.1,-0.04185,-0.0422294,-7.01742,10,-0.0025394,10,0.000296341,-2.15382,-0.653632,-0.0902648,24.6885,-0.04222938,
2,0,0,1,0,18920.1,-0.0438476,-0.0442214,-7.0581,10,-0.00268011,10,0.000312119,-2.15131,-0.786842,-0.0749833,20.6564,-0.0442214,
2,0,0,1,0,18920.2,-0.0458452,-0.0462364,-7.10019,10,-0.00282174,10,0.000328287,-2.14873,-0.678726,-0.0869276,24.106,-0.0462364,
2,0,0,1,0,18920.2,-0.0478428,-0.0481755,-7.15342,10,-0.00296427,10,0.00034462,-2.14549,-0.514968,-0.11457,32.031,-0.0481755,
2,0,0,1,0,18920.2,-0.0498495,-0.0502109,-7.2275,10,-0.00310796,10,0.000362899,-2.14101,-0.542114,-0.108833,30.6435,-0.0502109,
2,0,0,1,0,18920.2,-0.051838,-0.0521814,-7.27618,10,-0.00325216,10,0.000379681,-2.1381,-0.647953,-0.0910559,25.8645,-0.0521814,
2,0,0,1,0,18920.2,-0.0538355,-0.0541512,-7.32941,10,-0.00339807,10,0.000396896,-2.13493,-0.583099,-0.101184,28.9635,-0.0541512,
2,0,0,1,0,18920.3,-0.0558331,-0.0562275,-7.39337,10,-0.00354524,10,0.000415711,-2.13116,-0.513918,-0.114804,33.1408,-0.0562275,
2,0,0,1,0,18920.3,-0.0578216,-0.058228,-7.46452,10,-0.00369295,10,0.000434644,-2.127,-0.50415,-0.117029,34.0727,-0.058228,
2,0,0,1,0,18920.3,-0.0598283,-0.0601632,-7.52747,10,-0.00384279,10,0.000452877,-2.12335,-0.50092,-0.117783,34.6284,-0.0601632,
2,0,0,1,0,18920.3,-0.0618259,-0.0622121,-7.60248,10,-0.00399398,10,0.000472966,-2.11904,-0.47236,-0.124905,37.0582,-0.0622121,
2,0,0,1,0,18920.3,-0.0638235,-0.0642123,-7.67752,10,-0.0041467,10,0.000492991,-2.11478,-0.483571,-0.122009,36.5456,-0.0642123,
2,0,0,1,0,18920.4,-0.0658211,-0.0661944,-7.74802,10,-0.00430086,10,0.000512875,-2.11081,-0.458787,-0.1286,38.9218,-0.0661944,
2,0,0,1,0,18920.4,-0.0678187,-0.0682131,-7.83324,10,-0.00445597,10,0.00053433,-2.10606,-0.425838,-0.13855,42.3497,-0.0682131,
2,0,0,1,0,18920.4,-0.0698162,-0.0701808,-7.91684,10,-0.00461343,10,0.00055561,-2.10145,-0.448192,-0.13164,40.6575,-0.0701808,
2,0,0,1,0,18920.4,-0.0718138,-0.0721933,-7.99506,10,-0.00477259,10,0.000577189,-2.09718,-0.409204,-0.144182,45.0505,-0.07219325,
2,0,0,1,0,18920.4,-0.0738114,-0.0741609,-8.09615,10,-0.00493349,10,0.000600417,-2.09172,-0.367926,-0.160359,50.6671,-0.0741609,
2,0,0,1,0,18920.5,-0.075809,-0.0761944,-8.19779,10,-0.00509559,10,0.000624625,-2.0863,-0.393848,-0.149804,47.8939,-0.0761944,
2,0,0,1,0,18920.5,-0.0778066,-0.0781817,-8.28872,10,-0.00526044,10,0.000648026,-2.08151,-0.404711,-0.145783,47.1767,-0.0781817,
2,0,0,1,0,18920.5,-0.0798042,-0.0802014,-8.38682,10,-0.00542716,10,0.000672635,-2.0764,-0.371696,-0.158732,51.9926,-0.0802014,
2,0,0,1,0,18920.5,-0.0818018,-0.0822069,-8.498,10,-0.00559599,10,0.000698594,-2.07068,-0.351763,-0.167727,55.6222,-0.08220692,
2,0,0,1,0,18920.5,-0.0837994,-0.0841921,-8.6088,10,-0.00576619,10,0.000724793,-2.06506,-0.371151,-0.158965,53.3778,-0.0841921,
2,0,0,1,0,18920.6,-0.0857969,-0.0861913,-8.71068,10,-0.00593931,10,0.000750785,-2.05995,-0.363492,-0.162314,55.2195,-0.0861913,
2,0,0,1,0,18920.6,-0.0877945,-0.0881307,-8.82628,10,-0.00611464,10,0.000777867,-2.05422,-0.350746,-0.168213,57.9362,-0.08813075,
2,0,0,1,0,18920.6,-0.0897921,-0.0901631,-8.94079,10,-0.00629228,10,0.00080613,-2.04862,-0.367887,-0.160375,55.9433,-0.0901631,
2,0,0,1,0,18920.6,-0.0917897,-0.0921462,-9.05092,10,-0.00647123,10,0.000834008,-2.04331,-0.367315,-0.160625,56.7517,-0.09214621,
2,0,0,1,0,18920.6,-0.0937873,-0.0941413,-9.16656,10,-0.00665336,10,0.000862951,-2.03779,-0.379817,-0.155338,55.543,-0.0941413,
2,0,0,1,0,18920.7,-0.0957849,-0.0961606,-9.27389,10,-0.00683772,10,0.000891783,-2.03274,-0.413287,-0.142758,51.6466,-0.09616062,
2,0,0,1,0,18920.7,-0.0977825,-0.0981609,-9.37416,10,-0.00702419,10,0.000920175,-2.02807,-0.388442,-0.151889,55.6214,-0.0981609,
2,0,0,1,0,18920.7,-0.0997501,-0.100108,-9.49343,10,-0.007209,10,0.000950365,-2.02258,0.00841724,7.00942,-2254.64,-0.100108,
2,0,0,1,1,18920.7,-0.0987313,-0.0991231,-7.20482,10,-0.00733657,10,0.000714163,-2.14238,-0.0106417,-5.54423,1511.34,-0.0991231,
2,0,0,1,1,18920.7,-0.0967337,-0.0971098,-4.96265,10,-0.00745648,10,0.000481921,-2.30429,-0.011977,-4.92611,965.751,-0.09710978,
2,0,0,1,1,18920.7,-0.0947362,-0.0951152,-3.33419,10,-0.00753855,10,0.000317132,-2.47701,-0.0105124,-5.61243,722.855,-0.0951152,
2,0,0,1,1,18920.8,-0.0927386,-0.0930919,-2.0583,10,-0.00759183,10,0.000191611,-2.68649,-0.00783896,-7.52651,575.909,-0.0930919,
2,0,0,1,1,18920.8,-0.090741,-0.0911121,-1.0288,10,-0.00762214,10,9.37357e-05,-2.98767,-0.00383184,-15.3973,471.283,-0.0911121,
2,0,0,1,1,18920.8,-0.0887434,-0.0891279,-0.190112,10,-0.00763403,10,1.69442e-05,-3.72099,-0.0136333,-4.32764,384.834,-0.0891279,
2,1,0,1,1,18920.8,-0.0867458,-0.0870847,0.521096,10,-0.00763041,10,-4.53795e-05,-3.28308,0.00524406,11.2508,325.005,-0.0870847,
2,1,0,1,1,18920.8,-0.0847482,-0.0850735,1.12759,10,-0.0076137,10,-9.59278e-05,-2.94785,0.00795166,7.41984,282.413,-0.0850735,
2,1,0,1,1,18920.9,-0.0827529,-0.0831292,1.63818,10,-0.00758608,10,-0.000136181,-2.78564,0.0147169,4.009,243.788,-0.0831292,
2,1,0,1,1,18920.9,-0.080753,-0.0811402,2.08647,10,-0.00754865,10,-0.000169296,-2.68059,0.0224326,2.6301,208.161,-0.0811402,
2,1,0,1,1,18920.9,-0.0787554,-0.0791083,2.47518,10,-0.00750291,10,-0.000195807,-2.60639,0.0308036,1.91536,181.862,-0.0791083,
2,1,0,1,1,18920.9,-0.0767579,-0.0771301,2.81575,10,-0.00744991,10,-0.000217179,-2.55041,0.0400092,1.47466,160.079,-0.0771301,
2,1,0,1,1,18920.9,-0.0747603,-0.0751294,3.1121,10,-0.00739059,10,-0.000233811,-2.50695,0.050076,1.17821,142.194,-0.0751294,
2,1,0,1,1,18921,-0.0727627,-0.0731157,3.38658,10,-0.00732574,10,-0.000247612,-2.47024,0.0619184,0.952867,124.831,-0.0731157,
2,1,0,1,1,18921,-0.0707651,-0.0711086,3.61403,10,-0.00725565,10,-0.000256989,-2.44201,0.0747028,0.789796,111.025,-0.0711086,
2,1,0,1,1,18921,-0.0687675,-0.0691546,3.82635,10,-0.00718119,10,-0.00026461,-2.41721,0.0883983,0.667434,99.1693,-0.0691546,
2,1,0,1,1,18921,-0.0667699,-0.0671447,4.00713,10,-0.00710279,10,-0.000269057,-2.39717,0.106409,0.554465,86.5133,-0.0671447,
2,1,0,1,1,18921,-0.0647723,-0.0651277,4.17474,10,-0.00702119,10,-0.000271891,-2.37937,0.123836,0.476435,77.3603,-0.0651277,
2,1,0,1,1,18921.1,-0.0627748,-0.0631283,4.31784,10,-0.00693621,10,-0.000272578,-2.36473,0.140562,0.419742,70.6749,-0.06312827,
2,1,0,1,1,18921.1,-0.0607772,-0.0611323,4.45711,10,-0.00684837,10,-0.000272474,-2.35095,0.160968,0.366532,63.5541,-0.0611323,
2,1,0,1,1,18921.1,-0.0587796,-0.0591546,4.57038,10,-0.00675808,10,-0.000270359,-2.34005,0.19006,0.310427,55.3202,-0.0591546,
2,1,0,1,1,18921.1,-0.056782,-0.0571545,4.67716,10,-0.006666,10,-0.000267321,-2.33002,0.21598,0.273173,49.79,-0.0571545,
2,1,0,1,1,18921.1,-0.0547844,-0.0551138,4.77157,10,-0.00657148,10,-0.00026298,-2.32134,0.247381,0.238499,44.3653,-0.05511383,
2,1,0,1,1,18921.2,-0.0527868,-0.0531047,4.85684,10,-0.00647516,10,-0.000257921,-2.31365,0.289234,0.203987,38.5911,-0.0531047,
2,1,0,1,1,18921.2,-0.0507892,-0.0511565,4.92429,10,-0.00637737,10,-0.00025191,-2.30766,0.326021,0.18097,34.7897,-0.0511565,
2,1,0,1,1,18921.2,-0.0487916,-0.0491186,4.99551,10,-0.00627861,10,-0.000245372,-2.30142,0.342976,0.172024,33.5059,-0.0491186,
2,1,0,1,1,18921.2,-0.046794,-0.0471695,5.05788,10,-0.00617805,10,-0.000238578,-2.29603,0.44349,0.133036,26.2042,-0.0471695,
2,1,0,1,1,18921.2,-0.0447965,-0.0451697,5.09899,10,-0.00607649,10,-0.00023032,-2.29252,0.531025,0.111106,22.1234,-0.0451697,
2,1,0,1,1,18921.3,-0.0427989,-0.0431577,5.14663,10,-0.00597402,10,-0.000222117,-2.28848,0.502455,0.117423,23.5816,-0.0431577,
2,1,0,1,1,18921.3,-0.0408013,-0.0411863,5.19292,10,-0.00587114,10,-0.000213877,-2.28459,0.687719,0.0857909,17.3465,-0.0411863,
2,1,0,1,1,18921.3,-0.0388037,-0.0391962,5.21535,10,-0.005767,10,-0.000204422,-2.28272,0.868579,0.0679271,13.8397,-0.0391962,
2,1,0,1,1,18921.3,-0.0368061,-0.0371825,5.24833,10,-0.00566236,10,-0.000195146,-2.27998,0.866784,0.0680677,13.9289,-0.0371825,
2,1,0,1,1,18921.3,-0.0348085,-0.0351655,5.27149,10,-0.00555715,10,-0.000185375,-2.27807,0.956981,0.0616522,12.6891,-0.0351655,
2,1,0,1,1,18921.4,-0.0328109,-0.0331698,5.29925,10,-0.005452,10,-0.000175775,-2.27579,1.25121,0.0471543,9.7366,-0.03316984,
2,1,0,1,1,18921.4,-0.0308134,-0.031193,5.31017,10,-0.00534591,10,-0.00016564,-2.27489,1.89019,0.0312137,6.47103,-0.031193,
2,1,0,1,1,18921.4,-0.0288158,-0.0292036,5.32492,10,-0.00523957,10,-0.000155507,-2.27369,2.63596,0.0223828,4.64666,-0.0292036,
2,1,0,1,1,18921.4,-0.0268182,-0.0272142,5.32866,10,-0.00513301,10,-0.000145015,-2.27338,2.53039,0.0233166,4.85442,-0.02721416,
2,1,0,1,1,18921.4,-0.0248138,-0.0251792,5.34445,10,-0.00502635,10,-0.000134569,-2.2721,2.54784,0.0231568,4.82461,-0.0251792,
2,1,0,1,1,18921.5,-0.022823,-0.0231318,5.34836,10,-0.00491994,10,-0.000123717,-2.27178,7.00627,0.00842102,1.75759,-0.0231318,
2,1,0,1,1,18921.5,-0.0208254,-0.0211645,5.35151,10,-0.00481293,10,-0.000113262,-2.27152,41.6383,0.00141696,0.295794,-0.0211645,
2,1,0,1,1,18921.5,-0.0188278,-0.0192056,5.34952,10,-0.00470595,10,-0.000102741,-2.27169,11.9024,0.00495697,1.03567,-0.0192056,
2,1,0,1,1,18921.5,-0.0168393,-0.0172514,5.35556,10,-0.00459947,10,-9.23912e-05,-2.27119,6.73389,0.00876165,1.83046,-0.0172514,
2,1,0,1,1,18921.5,-0.0148327,-0.0152282,5.3568,10,-0.00449227,10,-8.15743e-05,-2.27109,-12.1049,-0.00487406,-1.01834,-0.0152282,
2,1,0,1,1,18921.6,-0.0128351,-0.0132205,5.35146,10,-0.00438518,10,-7.07492e-05,-2.27153,-21.3394,-0.00276484,-0.577889,-0.0132205,
2,1,0,1,1,18921.6,-0.0108375,-0.0112133,5.35448,10,-0.00427812,10,-6.00416e-05,-2.27128,7.35317,0.00802376,1.67683,-0.0112133,
2,1,0,1,1,18921.6,-0.00883989,-0.00917751,5.35824,10,-0.00417098,10,-4.91752e-05,-2.27098,-28.7256,-0.00205391,-0.429134,-0.009177505,
2,1,0,1,1,18921.6,-0.0068423,-0.00721128,5.35276,10,-0.00406434,10,-3.86003e-05,-2.27142,-11.5566,-0.00510532,-1.06718,-0.00721128,
2,1,0,1,1,18921.6,-0.00484471,-0.00520587,5.354,10,-0.00395724,10,-2.78722e-05,-2.27132,8.19951,0.00719555,1.50401,-0.00520587,
2,1,0,1,1,18921.7,-0.00284713,-0.00317099,5.35884,10,-0.00385013,10,-1.69928e-05,-2.27093,13.0297,0.00452812,0.946481,-0.00317099,
2,1,0,1,1,18921.7,-0.000849538,-0.00125438,5.35774,10,-0.00374299,10,-6.72063e-06,-2.27102, , , ,-0.00125438,
2,1,0,1,1,18921.7,-2.55332e-05,-0.000439847,5.36794,10,-0.00369961,10,-2.36107e-06,-2.27019, , , ,-0.000439847,