File: Figure_codes/Fig_3-5/rawdata_trumpetplot_data/after 10th/20221101_1-115_003_TrumpetPlot_ParaChange_from10_every3_07_CV_C01_29.csv
mode,ox/red,error,control changes,counter inc.,time/s,control/V,Ewe/V,<I>/mA,cycle number,(Q-Qo)/C,I Range,P/W,log(|I|),Tafel slope mV/dec,alpha_eff,dI/d(E-IR),E-IR/V,
2,0,0,0,0,58298.8,2.44065e-05,-0.000363498,-2.69886,30,0.0000000E+000,10,9.81029e-07,-2.56882, , , ,-0.000363498,
2,0,0,1,0,58298.8,0.0013005,0.000865122,-1.46149,30,-4.15698e-05,10,-1.26437e-06,-2.8352, , , ,0.000865122,
2,0,0,1,0,58298.8,0.00279471,0.00244466,-0.575369,30,-6.58646e-05,10,-1.40658e-06,-3.24005,-0.00392838,-15.0189,501.98,0.00244466,
2,0,0,1,0,58298.9,0.00429425,0.00393502,0.015818,30,-7.20582e-05,10,6.2244e-08,-4.80085,-0.0248448,-2.37474,356.531,0.00393502,
2,1,0,1,0,58298.9,0.00579379,0.00538514,0.453537,30,-6.54723e-05,10,2.44236e-06,-3.34339,0.00530215,11.1276,268.173,0.00538514,
2,1,0,1,0,58298.9,0.007288,0.0069266,0.792289,30,-4.93368e-05,10,5.48787e-06,-3.10112,0.00740394,7.96873,203.049,0.0069266,
2,1,0,1,0,58298.9,0.00878882,0.00840838,1.0713,30,-2.55296e-05,10,9.00792e-06,-2.97009,0.0138806,4.25053,163.049,0.00840838,
2,1,0,1,0,58299,0.0102896,0.0099208,1.28912,30,4.37067e-06,10,1.27891e-05,-2.88971,0.0209556,2.81548,134.772,0.0099208,
2,1,0,1,0,58299,0.0117838,0.0114031,1.4596,30,3.90641e-05,10,1.66439e-05,-2.83577,0.0298039,1.97961,110.166,0.0114031,
2,1,0,1,0,58299,0.0132834,0.0128919,1.61211,30,7.79043e-05,10,2.07831e-05,-2.7926,0.0390167,1.51217,93.8963,0.0128919,
2,1,0,1,0,58299,0.0147816,0.014417,1.74297,30,0.000120245,10,2.51284e-05,-2.75871,0.0497095,1.1869,79.7885,0.014417,
2,1,0,1,0,58299.1,0.0162811,0.0158984,1.86029,30,0.000165676,10,2.95756e-05,-2.73042,0.0604652,0.975768,69.8787,0.01589838,
2,1,0,1,0,58299.1,0.0177753,0.0174271,1.9493,30,0.000213505,10,3.39708e-05,-2.71012,0.0741823,0.795338,60.24,0.0174271,
2,1,0,1,0,58299.1,0.0192761,0.0189112,2.03654,30,0.000263731,10,3.85134e-05,-2.69111,0.0912366,0.64667,51.227,0.0189112,
2,1,0,1,0,58299.1,0.020777,0.0204208,2.12102,30,0.00031604,10,4.3313e-05,-2.67346,0.0964464,0.611739,50.2744,0.0204208,
2,1,0,1,0,58299.2,0.0222712,0.0218781,2.18866,30,0.000370042,10,4.78837e-05,-2.65982,0.106145,0.555845,47.3248,0.0218781,
2,1,0,1,0,58299.2,0.0237707,0.0234092,2.25718,30,0.000426033,10,5.28389e-05,-2.64643,0.11567,0.510073,44.8672,0.0234092,
2,1,0,1,0,58299.2,0.0252703,0.0249058,2.31378,30,0.000483595,10,5.76266e-05,-2.63568,0.133105,0.443258,40.1407,0.0249058,
2,1,0,1,0,58299.2,0.0267645,0.0263999,2.38186,30,0.000542451,10,6.28809e-05,-2.62308,0.139183,0.423901,39.3206,0.0263999,
2,1,0,1,0,58299.3,0.0282653,0.0279068,2.44466,30,0.00060309,10,6.82228e-05,-2.61178,0.140917,0.418685,39.7114,0.0279068,
2,1,0,1,0,58299.3,0.0297648,0.0293876,2.49381,30,0.000665157,10,7.32872e-05,-2.60314,0.161535,0.365246,35.4713,0.0293876,
2,1,0,1,0,58299.3,0.031259,0.0308657,2.54028,30,0.000728249,10,7.84076e-05,-2.59512,0.173822,0.339427,33.7184,0.0308657,
2,1,0,1,0,58299.3,0.0327585,0.0323867,2.59807,30,0.000792876,10,8.41431e-05,-2.58535,0.178188,0.331111,33.5362,0.0323867,
2,1,0,1,0,58299.4,0.034258,0.0339184,2.65321,30,0.000858858,10,8.99927e-05,-2.57623,0.170515,0.346011,35.7152,0.0339184,
2,1,0,1,0,58299.4,0.0357576,0.0354152,2.69726,30,0.000926123,10,9.5524e-05,-2.56908,0.177549,0.332303,35.0107,0.0354152,
2,1,0,1,0,58299.4,0.0372518,0.0368786,2.74685,30,0.000994357,10,0.0001013,-2.56116,0.199067,0.296382,31.8124,0.0368786,
2,1,0,1,0,58299.4,0.0387526,0.0384179,2.80002,30,0.00106402,10,0.000107571,-2.55284,0.201442,0.292888,31.9944,0.0384179,
2,1,0,1,0,58299.5,0.0402534,0.0399009,2.85302,30,0.00113497,10,0.000113838,-2.54469,0.189811,0.310835,34.5174,0.0399009,
2,1,0,1,0,58299.5,0.0417476,0.0413988,2.89837,30,0.00120691,10,0.000119989,-2.53785,0.206245,0.286067,32.2991,0.0413988,
2,1,0,1,0,58299.5,0.0432472,0.0428946,2.94384,30,0.0012803,10,0.000126275,-2.53109,0.228962,0.257685,29.6144,0.0428946,
2,1,0,1,0,58299.5,0.0447467,0.0443947,2.99136,30,0.0013548,10,0.000132801,-2.52413,0.221925,0.265855,30.9895,0.0443947,
2,1,0,1,0,58299.6,0.0462463,0.0459029,3.03731,30,0.00143048,10,0.000139421,-2.51751,0.210854,0.279815,33.1216,0.0459029,
2,1,0,1,0,58299.6,0.0477391,0.0473606,3.07837,30,0.00150702,10,0.000145793,-2.51168,0.210075,0.280852,33.8061,0.0473606,
2,1,0,1,0,58299.6,0.0492399,0.048871,3.12602,30,0.00158506,10,0.000152771,-2.50501,0.248065,0.237841,29.0151,0.048871,
2,1,0,1,0,58299.6,0.0507408,0.0504078,3.16911,30,0.00166416,10,0.000159748,-2.49906,0.255547,0.230878,28.5922,0.0504078,
2,1,0,1,0,58299.7,0.052235,0.0518269,3.22259,30,0.00174406,10,0.000167017,-2.49179,0.226287,0.260731,32.7115,0.0518269,
2,1,0,1,0,58299.7,0.0537345,0.0533861,3.26314,30,0.00182546,10,0.000174206,-2.48636,0.235236,0.250812,31.95,0.0533861,
2,1,0,1,0,58299.7,0.0552341,0.0548693,3.30543,30,0.001908,10,0.000181367,-2.48077,0.274363,0.215044,27.7376,0.0548693,
2,1,0,1,0,58299.7,0.0567283,0.056359,3.35238,30,0.0019913,10,0.000188937,-2.47465,0.284537,0.207355,27.0884,0.056359,
2,1,0,1,0,58299.8,0.0582291,0.0578558,3.39661,30,0.00207593,10,0.000196514,-2.46895,0.274728,0.214758,28.437,0.0578558,
2,1,0,1,0,58299.8,0.0597299,0.0593607,3.43372,30,0.00216167,10,0.000203828,-2.46424,0.261869,0.225304,30.1803,0.0593607,
2,1,0,1,0,58299.8,0.0612228,0.0608529,3.47503,30,0.00224813,10,0.000211466,-2.45904,0.313777,0.188032,25.499,0.0608529,
2,1,0,1,0,58299.8,0.0627223,0.0623796,3.51935,30,0.00233595,10,0.000219536,-2.45354,0.324038,0.182077,24.9839,0.06237961,
2,1,0,1,0,58299.9,0.0642218,0.0639048,3.55628,30,0.00242473,10,0.000227264,-2.449,0.296339,0.199096,27.6341,0.0639048,
2,1,0,1,0,58299.9,0.0657214,0.065357,3.59531,30,0.00251453,10,0.000234979,-2.44426,0.280256,0.210521,29.5772,0.06535697,
2,1,0,1,0,58299.9,0.0672156,0.0668389,3.6365,30,0.002605,10,0.00024306,-2.43932,0.344442,0.171291,24.2981,0.0668389,
2,1,0,1,0,58299.9,0.0687164,0.0683767,3.68006,30,0.00269683,10,0.000251631,-2.43414,0.376154,0.156851,22.4909,0.0683767,
2,1,0,1,0,58300,0.0702172,0.0698376,3.7126,30,0.00278953,10,0.000259279,-2.43032,0.334705,0.176275,25.5203,0.0698376,
2,1,0,1,0,58300,0.0717114,0.0713909,3.74711,30,0.00288275,10,0.000267509,-2.4263,0.339387,0.173843,25.4078,0.07139089,
2,1,0,1,0,58300,0.073211,0.0728255,3.78182,30,0.00297726,10,0.000275413,-2.4223,0.369616,0.159625,23.5721,0.0728255,
2,1,0,1,0,58300,0.0747105,0.074351,3.81912,30,0.00307266,10,0.000283955,-2.41804,0.437397,0.134889,20.0935,0.074351,
2,1,0,1,0,58300.1,0.0762101,0.0758253,3.84744,30,0.0031689,10,0.000291734,-2.41483,0.426855,0.13822,20.7684,0.0758253,
2,1,0,1,0,58300.1,0.0777042,0.0773623,3.88281,30,0.00326552,10,0.000300383,-2.41085,0.40105,0.147114,22.3023,0.0773623,
2,1,0,1,0,58300.1,0.0792037,0.0788396,3.91216,30,0.00336333,10,0.000308433,-2.40758,0.430434,0.137071,20.9302,0.0788396,
2,1,0,1,0,58300.1,0.0807046,0.0803108,3.94769,30,0.00346196,10,0.000317042,-2.40366,0.498693,0.118309,18.1812,0.0803108,
2,1,0,1,0,58300.2,0.0821988,0.0818474,3.97433,30,0.00356096,10,0.000325288,-2.40074,0.467807,0.12612,19.5345,0.0818474,
2,1,0,1,0,58300.2,0.0836983,0.0833586,3.99776,30,0.00366096,10,0.000333248,-2.39818,0.463509,0.12729,19.8987,0.0833586,
2,1,0,1,0,58300.2,0.0851979,0.0848175,4.0228,30,0.0037617,10,0.000341204,-2.39547,0.494561,0.119298,18.7664,0.0848175,
2,1,0,1,0,58300.2,0.0866921,0.0863105,4.05933,30,0.00386278,10,0.000350362,-2.39155,0.549845,0.107303,16.9818,0.0863105,
2,1,0,1,0,58300.3,0.0881929,0.0878252,4.09361,30,0.00396498,10,0.000359522,-2.38789,0.51557,0.114437,18.2457,0.0878252,
2,1,0,1,0,58300.3,0.0896937,0.0893351,4.11354,30,0.0040678,10,0.000367484,-2.38578,0.438471,0.134559,21.6206,0.0893351,
2,1,0,1,0,58300.3,0.0911879,0.0908225,4.14435,30,0.00417094,10,0.000376401,-2.38254,0.47091,0.125289,20.2659,0.09082254,
2,1,0,1,0,58300.3,0.0926861,0.0923408,4.17941,30,0.00427535,10,0.00038593,-2.37889,0.455375,0.129564,21.1045,0.0923408,
2,1,0,1,0,58300.4,0.0941856,0.0938345,4.21303,30,0.00438059,10,0.000395327,-2.37541,0.425398,0.138694,22.7877,0.0938345,
2,1,0,1,0,58300.4,0.0956852,0.0953284,4.23952,30,0.00448656,10,0.000404146,-2.37268,0.417363,0.141364,23.4558,0.0953284,
2,1,0,1,0,58300.4,0.0971794,0.0968088,4.2781,30,0.004593,10,0.000414158,-2.36875,0.357144,0.1652,27.6302,0.0968088,
2,1,0,1,0,58300.4,0.0986802,0.0983516,4.32655,30,0.00470093,10,0.000425523,-2.36386,0.347789,0.169643,28.638,0.0983516,
2,1,0,1,0,58300.5,0.100181,0.0998105,4.37075,30,0.00480998,10,0.000436247,-2.35944,0.322683,0.182842,31.1786,0.0998105,
2,1,0,1,0,58300.5,0.101675,0.101275,4.41042,30,0.00491975,10,0.000446663,-2.35552,0.29145,0.202436,34.9068,0.101275,
2,1,0,1,0,58300.5,0.103175,0.102821,4.46783,30,0.00503116,10,0.000459386,-2.3499,0.281856,0.209327,36.5704,0.102821,
2,1,0,1,0,58300.5,0.104674,0.104304,4.52985,30,0.00514399,10,0.000472481,-2.34392,0.268602,0.219656,38.8345,0.104304,
2,1,0,1,0,58300.6,0.106169,0.105817,4.58875,30,0.00525788,10,0.000485571,-2.33831,0.259744,0.227147,40.6815,0.105817,
2,1,0,1,0,58300.6,0.107668,0.107305,4.64859,30,0.00537375,10,0.000498816,-2.33268,0.24157,0.244236,44.3564,0.1073048,
2,1,0,1,0,58300.6,0.109169,0.108773,4.71562,30,0.00549119,10,0.000512931,-2.32646,0.236959,0.248988,45.9068,0.108773,
2,1,0,1,0,58300.6,0.110663,0.110292,4.79006,30,0.00560988,10,0.000528303,-2.31966,0.236139,0.249853,46.6937,0.110292,
2,1,0,1,0,58300.7,0.112163,0.111763,4.86403,30,0.00573092,10,0.000543618,-2.313,0.231748,0.254587,48.2527,0.111763,
2,1,0,1,0,58300.7,0.113662,0.113301,4.93071,30,0.00585374,10,0.000558656,-2.30709,0.236592,0.249375,48.0026,0.113301,
2,1,0,1,0,58300.7,0.115162,0.11481,4.99465,30,0.00597822,10,0.000573438,-2.3015,0.251934,0.234188,45.7242,0.11481,
2,1,0,1,0,58300.7,0.116656,0.116257,5.07045,30,0.00610397,10,0.000589477,-2.29495,0.253969,0.232312,45.9325,0.116257,
2,1,0,1,0,58300.8,0.118157,0.117773,5.14368,30,0.00623201,10,0.000605786,-2.28873,0.261038,0.22602,45.2816,0.117773,
2,1,0,1,0,58300.8,0.119657,0.119304,5.20332,30,0.00636167,10,0.000620775,-2.28372,0.285137,0.206918,41.9958,0.1193037,
2,1,0,1,0,58300.8,0.121152,0.12081,5.25798,30,0.0064923,10,0.000635216,-2.27918,0.308446,0.191282,39.2506,0.12081,
2,1,0,1,0,58300.8,0.122651,0.122279,5.31692,30,0.00662491,10,0.000650145,-2.27434,0.333309,0.177013,36.7083,0.1222787,
2,1,0,1,0,58300.9,0.124151,0.123786,5.37359,30,0.00675891,10,0.000665173,-2.26974,0.368705,0.160019,33.4998,0.123786,
2,1,0,1,0,58300.9,0.125649,0.125287,5.41517,30,0.00689414,10,0.000678449,-2.26639,0.402041,0.146751,30.9969,0.125287,
2,1,0,1,0,58300.9,0.127143,0.126747,5.4524,30,0.00702994,10,0.000691078,-2.26341,0.443386,0.133067,28.3399,0.126747,
2,1,0,1,0,58300.9,0.128644,0.128324,5.49549,30,0.0071672,10,0.000705206,-2.25999,0.551621,0.106958,22.9387,0.128324,
2,1,0,1,0,58301,0.130145,0.129741,5.53894,30,0.00730547,10,0.000718628,-2.25657,0.560547,0.105254,22.7023,0.129741,
2,1,0,1,0,58301,0.131639,0.131282,5.56376,30,0.00744406,10,0.00073042,-2.25463,0.650778,0.0906607,19.6624,0.131282,
2,1,0,1,0,58301,0.133139,0.13278,5.58897,30,0.00758393,10,0.000742104,-2.25267,0.863199,0.0683504,14.9228,0.13278,
2,1,0,1,0,58301,0.134638,0.134292,5.61808,30,0.00772438,10,0.000754465,-2.25041,0.94526,0.0624167,13.6802,0.134292,
2,1,0,1,0,58301.1,0.136132,0.135768,5.64365,30,0.00786491,10,0.000766229,-2.24844,0.915694,0.064432,14.1688,0.135768,
2,1,0,1,0,58301.1,0.137633,0.137281,5.65756,30,0.00800652,10,0.000776677,-2.24737,1.23515,0.0477675,10.535,0.137281,
2,1,0,1,0,58301.1,0.139133,0.138785,5.66953,30,0.00814851,10,0.000786848,-2.24645,2.88848,0.020426,4.51498,0.138785,
2,1,0,1,0,58301.1,0.140627,0.14028,5.6748,30,0.00829008,10,0.000796061,-2.24605,-23.438,-0.00251728,-0.556629,0.14028,
2,1,0,1,0,58301.2,0.142126,0.141765,5.67633,30,0.00843229,10,0.000804705,-2.24593,-2.78724,-0.0211679,-4.6755,0.141765,
2,1,0,1,0,58301.2,0.143626,0.143262,5.66299,30,0.00857437,10,0.00081129,-2.24695,-1.30408,-0.0452425,-9.9737,0.143262,
2,1,0,1,0,58301.2,0.145125,0.144752,5.62989,30,0.00871599,10,0.000814937,-2.2495,-0.549472,-0.107376,-23.5759,0.144752,
2,1,0,1,0,58301.2,0.14662,0.146291,5.59018,30,0.00885618,10,0.000817794,-2.25257,-0.365995,-0.161205,-35.1197,0.146291,
2,1,0,1,0,58301.3,0.14812,0.147757,5.5394,30,0.00899572,10,0.000818484,-2.25654,-0.29653,-0.198968,-42.8697,0.147757,
2,1,0,1,0,58301.3,0.149621,0.149231,5.46938,30,0.00913364,10,0.000816202,-2.26206,-0.234419,-0.251687,-53.5589,0.149231,
2,1,0,1,0,58301.3,0.151116,0.150779,5.37681,30,0.00926902,10,0.000810709,-2.26948,-0.190081,-0.310394,-64.905,0.150779,
2,1,0,1,0,58301.3,0.152615,0.152243,5.2679,30,0.00940252,10,0.000802,-2.27836,-0.15383,-0.383541,-78.6363,0.152243,
2,1,0,1,0,58301.4,0.154115,0.153761,5.1497,30,0.00953309,10,0.000791824,-2.28822,-0.1406,-0.419631,-84.1258,0.153761,
2,1,0,1,0,58301.4,0.155614,0.155242,5.0142,30,0.00966047,10,0.000778413,-2.2998,-0.127439,-0.462966,-90.4816,0.155242,
2,1,0,1,0,58301.4,0.157107,0.156758,4.86845,30,0.00978397,10,0.000763168,-2.31261,-0.11595,-0.508839,-96.5852,0.156758,
2,1,0,1,0,58301.4,0.158608,0.158256,4.72483,30,0.00990431,10,0.000747733,-2.32561,-0.10502,-0.561796,-103.435,0.158256,
2,1,0,1,0,58301.5,0.160109,0.15972,4.57411,30,0.0100208,10,0.000730574,-2.33969,-0.104615,-0.563974,-100.525,0.15972,
2,1,0,1,0,58301.5,0.161603,0.161264,4.42122,30,0.010133,10,0.000712984,-2.35446,-0.108379,-0.544384,-93.8591,0.161264,
2,1,0,1,0,58301.5,0.163102,0.162748,4.27082,30,0.0102421,10,0.000695069,-2.36949,-0.10578,-0.55776,-93.1787,0.162748,
2,1,0,1,0,58301.5,0.164602,0.164229,4.1359,30,0.0103475,10,0.000679236,-2.38343,-0.100546,-0.586799,-94.8205,0.164229,
2,1,0,1,0,58301.6,0.166096,0.165705,4.0065,30,0.0104492,10,0.000663896,-2.39723,-0.108594,-0.543306,-85.0056,0.1657047,
2,1,0,1,0,58301.6,0.167597,0.16725,3.87996,30,0.0105481,10,0.000648923,-2.41117,-0.118521,-0.497801,-75.5045,0.16725,
2,1,0,1,0,58301.6,0.169098,0.168741,3.768,30,0.0106441,10,0.000635816,-2.42389,-0.118536,-0.49774,-73.3246,0.168741,
2,1,0,1,0,58301.6,0.170592,0.170214,3.66359,30,0.010737,10,0.000623595,-2.43609,-0.117949,-0.500218,-71.5566,0.170214,
2,1,0,1,0,58301.7,0.17209,0.17175,3.56125,30,0.0108276,10,0.000611647,-2.4484,-0.129943,-0.454044,-63.2282,0.17175,
2,1,0,1,0,58301.7,0.17359,0.173214,3.46737,30,0.0109158,10,0.000600597,-2.46,-0.142151,-0.415051,-56.338,0.173214,
2,1,0,1,0,58301.7,0.175089,0.174711,3.38661,30,0.0110019,10,0.000591677,-2.47023,-0.146057,-0.403952,-53.5272,0.174711,
2,1,0,1,0,58301.7,0.176583,0.176236,3.31128,30,0.0110857,10,0.000583567,-2.48,-0.148199,-0.398112,-51.5015,0.176236,
2,1,0,1,0,58301.8,0.178084,0.177713,3.24351,30,0.0111679,10,0.000576413,-2.48898,-0.157061,-0.37565,-47.5462,0.177713,
2,1,0,1,0,58301.8,0.179585,0.179222,3.17521,30,0.0112484,10,0.000569066,-2.49823,-0.179038,-0.329538,-40.9046,0.179222,
2,1,0,1,0,58301.8,0.181079,0.180708,3.1105,30,0.011327,10,0.000562091,-2.50717,-0.188896,-0.312342,-38.0368,0.1807078,
2,1,0,1,0,58301.8,0.182579,0.182237,3.06088,30,0.0114046,10,0.000557805,-2.51415,-0.195747,-0.301409,-36.0157,0.182237,
2,1,0,1,0,58301.9,0.184078,0.183705,3.01521,30,0.0114809,10,0.000553908,-2.52068,-0.20092,-0.293649,-34.5288,0.183705,
2,1,0,1,0,58301.9,0.185578,0.185218,2.96233,30,0.0115558,10,0.000548676,-2.52837,-0.241296,-0.244513,-28.323,0.185218,
2,1,0,1,0,58301.9,0.187072,0.186725,2.91685,30,0.0116294,10,0.000544648,-2.53509,-0.250873,-0.235179,-26.8204,0.186725,
2,1,0,1,0,58301.9,0.188573,0.188207,2.88207,30,0.0117022,10,0.000542425,-2.5403,-0.25009,-0.235915,-26.5554,0.188207,
2,1,0,1,0,58302,0.190072,0.189742,2.84892,30,0.0117741,10,0.00054056,-2.54532,-0.256761,-0.229786,-25.4605,0.189742,
2,1,0,1,0,58302,0.191567,0.19121,2.80706,30,0.0118448,10,0.000536739,-2.55175,-0.307508,-0.191865,-21.044,0.19121,
2,1,0,1,0,58302,0.193066,0.192734,2.77417,30,0.011915,10,0.000534676,-2.55687,-0.353626,-0.166843,-18.0998,0.1927336,
2,1,0,1,0,58302,0.194566,0.194231,2.75015,30,0.0119844,10,0.000534165,-2.56064,-0.324218,-0.181976,-19.5328,0.194231,
2,1,0,1,0,58302.1,0.19606,0.195688,2.72501,30,0.0120529,10,0.000533251,-2.56463,-0.339566,-0.173751,-18.4583,0.195688,
2,1,0,1,0,58302.1,0.197561,0.197204,2.6943,30,0.012121,10,0.000531327,-2.56955,-0.408268,-0.144513,-15.2177,0.197204,
2,1,0,1,0,58302.1,0.199062,0.198677,2.67259,30,0.0121885,10,0.000530982,-2.57307,-0.428124,-0.137811,-14.4013,0.198677,
2,1,0,1,0,58302.1,0.200556,0.200198,2.65286,30,0.0122552,10,0.000531095,-2.57629,-0.406081,-0.145291,-15.0493,0.200198,
2,1,0,1,0,58302.2,0.202055,0.201733,2.63932,30,0.0123216,10,0.000532438,-2.57851,-0.42806,-0.137831,-14.1562,0.201733,
2,1,0,1,0,58302.2,0.203554,0.20322,2.61585,30,0.0123876,10,0.000531593,-2.58239,-0.578105,-0.102058,-10.4172,0.20322,
2,1,0,1,0,58302.2,0.205053,0.204683,2.59193,30,0.0124531,10,0.000530525,-2.58638,-0.670409,-0.088006,-8.94926,0.204683,
2,1,0,1,0,58302.2,0.206547,0.206205,2.57901,30,0.0125179,10,0.000531805,-2.58855,-0.600121,-0.0983134,-9.91536,0.206205,
2,1,0,1,0,58302.3,0.208048,0.20767,2.57294,30,0.0125828,10,0.000534321,-2.58957,-0.601345,-0.0981134,-9.8295,0.20767,
2,1,0,1,0,58302.3,0.209549,0.209199,2.55985,30,0.0126473,10,0.000535519,-2.59179,-0.640849,-0.0920653,-9.18024,0.209199,
2,1,0,1,0,58302.3,0.211043,0.210719,2.54102,30,0.0127111,10,0.00053544,-2.59499,-0.803113,-0.0734641,-7.29275,0.210719,
2,1,0,1,0,58302.3,0.212543,0.212171,2.52855,30,0.0127748,10,0.000536485,-2.59713,-0.694026,-0.0850112,-8.39801,0.212171,
2,1,0,1,0,58302.4,0.214042,0.213689,2.52195,30,0.0128382,10,0.000538912,-2.59826,-0.676874,-0.0871654,-8.56627,0.2136889,
2,1,0,1,0,58302.4,0.215536,0.215186,2.50887,30,0.0129012,10,0.000539873,-2.60052,-0.869927,-0.0678218,-6.64136,0.215186,
2,1,0,1,0,58302.4,0.217036,0.21668,2.49354,30,0.0129641,10,0.000540302,-2.60318,-0.841638,-0.0701014,-6.84008,0.21668,
2,1,0,1,0,58302.4,0.218537,0.218171,2.489,30,0.0130268,10,0.000543028,-2.60398,-0.982191,-0.0600698,-5.83351,0.218171,
2,1,0,1,0,58302.5,0.220031,0.219672,2.48622,30,0.013089,10,0.000546152,-2.60446,-1.11105,-0.0531028,-5.13924,0.219672,
2,1,0,1,0,58302.5,0.22153,0.221222,2.47828,30,0.0131513,10,0.000548252,-2.60585,-1.02938,-0.0573159,-5.53252,0.221222,
2,1,0,1,0,58302.5,0.22303,0.222665,2.45494,30,0.0132134,10,0.000546628,-2.60996,-1.45201,-0.0406332,-3.90974,0.222665,
2,1,0,1,0,58302.5,0.22453,0.224195,2.45734,30,0.0132752,10,0.000550924,-2.60954,-0.968785,-0.060901,-5.84119,0.224195,
2,1,0,1,0,58302.6,0.226024,0.225671,2.44856,30,0.0133367,10,0.000552569,-2.61109,-0.853635,-0.0691162,-6.60025,0.225671,
2,1,0,1,0,58302.6,0.227525,0.227197,2.44247,30,0.0133982,10,0.000554922,-2.61217,-1.17394,-0.0502582,-4.78075,0.227197,
2,1,0,1,0,58302.6,0.229025,0.228651,2.43432,30,0.0134595,10,0.00055661,-2.61362,-1.62454,-0.0363179,-3.45188,0.228651,
2,1,0,1,0,58302.6,0.23052,0.230172,2.42327,30,0.0135203,10,0.000557768,-2.6156,-1.01303,-0.0582411,-5.52141,0.230172,
2,1,0,1,0,58302.7,0.232019,0.231665,2.4251,30,0.0135813,10,0.000561811,-2.61527,-1.40895,-0.0418751,-3.95304,0.231665,
2,1,0,1,0,58302.7,0.233519,0.233189,2.42033,30,0.0136421,10,0.000564396,-2.61613,-2.03011,-0.0290625,-2.7409,0.233189,
2,1,0,1,0,58302.7,0.235018,0.234672,2.41024,30,0.0137029,10,0.000565616,-2.61794,-1.84845,-0.0319187,-3.00624,0.234672,
2,1,0,1,0,58302.7,0.236511,0.236123,2.40242,30,0.0137632,10,0.000567265,-2.61935,-0.872846,-0.067595,-6.34773,0.236123,
2,1,0,1,0,58302.8,0.238012,0.237661,2.40659,30,0.0138236,10,0.000571953,-2.6186,-1.63149,-0.0361633,-3.38472,0.237661,
2,1,0,1,0,58302.8,0.239513,0.239184,2.3973,30,0.0138839,10,0.000573396,-2.62028,-2.97557,-0.0198281,-1.85253,0.239184,
2,1,0,1,0,58302.8,0.241007,0.240652,2.38846,30,0.0139439,10,0.000574787,-2.62188,-1.66904,-0.0353496,-3.29795,0.240652,
2,1,0,1,0,58302.8,0.242506,0.242195,2.38269,30,0.0140039,10,0.000577077,-2.62293,-1.00416,-0.0587557,-5.47505,0.242195,
2,1,0,1,0,58302.9,0.244006,0.243614,2.38255,30,0.0140638,10,0.000580424,-2.62296,-1.33321,-0.044254,-4.11509,0.243614,
2,1,0,1,0,58302.9,0.2455,0.245166,2.38372,30,0.0141235,10,0.000584409,-2.62274,-7.13419,-0.00827004,-0.767442,0.245166,
2,1,0,1,0,58302.9,0.247001,0.246632,2.37421,30,0.0141833,10,0.000585558,-2.62448,-2.2765,-0.025917,-2.40104,0.246632,
2,1,0,1,0,58302.9,0.248502,0.248151,2.36618,30,0.0142429,10,0.000587171,-2.62595,-1.21263,-0.0486544,-4.49852,0.248151,
2,1,0,1,0,58303,0.249995,0.249639,2.3676,30,0.0143022,10,0.000591044,-2.62569,-1.74871,-0.0337391,-3.11575,0.249639,
2,1,0,1,0,58303,0.251494,0.251132,2.36412,30,0.0143616,10,0.000593706,-2.62633,68.7961,0.000857607,0.0790161,0.2511315,
2,1,0,1,0,58303,0.252994,0.252641,2.35579,30,0.014421,10,0.000595169,-2.62786,-1.97177,-0.0299223,-2.75291,0.252641,
2,1,0,1,0,58303,0.254493,0.254113,2.35069,30,0.0144803,10,0.000597342,-2.6288,-1.18812,-0.0496585,-4.56265,0.254113,
2,1,0,1,0,58303.1,0.255988,0.25561,2.34845,30,0.0145392,10,0.000600288,-2.62922,-1.89572,-0.0311228,-2.8553,0.25561,
2,1,0,1,0,58303.1,0.257488,0.257128,2.3476,30,0.0145982,10,0.000603635,-2.62938,-5.20133,-0.0113433,-1.038,0.257128,
2,1,0,1,0,58303.1,0.258989,0.258663,2.34452,30,0.0146572,10,0.000606442,-2.62995,-5.56375,-0.0106044,-0.969065,0.258663,
2,1,0,1,0,58303.1,0.260483,0.260132,2.34085,30,0.0147159,10,0.00060893,-2.63063,-1.72457,-0.0342115,-3.12752,0.260132,
2,1,0,1,0,58303.2,0.261983,0.261631,2.33731,30,0.0147747,10,0.000611513,-2.63128,-1.82563,-0.0323176,-2.94778,0.261631,
2,1,0,1,0,58303.2,0.263482,0.263134,2.33296,30,0.0148334,10,0.000613881,-2.63209,-6.89764,-0.00855365,-0.778219,0.263134,
2,1,0,1,0,58303.2,0.264982,0.264603,2.32556,30,0.0148921,10,0.000615349,-2.63347,-3.95521,-0.014917,-1.35783,0.264603,
2,1,0,1,0,58303.2,0.266476,0.266121,2.32622,30,0.0149504,10,0.000619054,-2.63335,-1.55413,-0.0379634,-3.44911,0.266121,
2,1,0,1,0,58303.3,0.267976,0.267618,2.32013,30,0.0150088,10,0.000620908,-2.63449,-1.68115,-0.0350951,-3.1783,0.267618,
2,1,0,1,0,58303.3,0.269477,0.269096,2.32169,30,0.0150672,10,0.000624756,-2.6342,-5.12772,-0.0115061,-1.03985,0.269096,
2,1,0,1,0,58303.3,0.270971,0.270643,2.31383,30,0.0151252,10,0.000626223,-2.63567,-5.23331,-0.0112739,-1.01933,0.270643,
2,1,0,1,0,58303.3,0.27247,0.272126,2.31279,30,0.0151835,10,0.00062937,-2.63586,-1.22799,-0.0480461,-4.33231,0.272126,
2,1,0,1,0,58303.4,0.27397,0.273631,2.30747,30,0.0152416,10,0.000631397,-2.63686,-1.27137,-0.0464066,-4.18122,0.273631,
2,1,0,1,0,58303.4,0.275464,0.275118,2.30666,30,0.0152994,10,0.000634606,-2.63702,-2.96723,-0.0198838,-1.78833,0.275118,
2,1,0,1,0,58303.4,0.276965,0.276576,2.30091,30,0.0153573,10,0.000636376,-2.6381,-5.49891,-0.0107294,-0.964421,0.276576,
2,1,0,1,0,58303.4,0.278466,0.27811,2.29541,30,0.0154152,10,0.000638376,-2.63914,-1.05357,-0.0559999,-5.02388,0.27811,
2,1,0,1,0,58303.5,0.27996,0.279596,2.30044,30,0.0154727,10,0.000643193,-2.63819,-1.48139,-0.0398275,-3.565,0.279596,
2,1,0,1,0,58303.5,0.281458,0.281101,2.29283,30,0.0155304,10,0.000644518,-2.63963,-5.07655,-0.0116221,-1.0396,0.281101,
2,1,0,1,0,58303.5,0.282958,0.282636,2.28454,30,0.0155879,10,0.000645693,-2.6412,-24.5414,-0.0024041,-0.214635,0.282636,
2,1,0,1,0,58303.5,0.284457,0.284181,2.28178,30,0.0156455,10,0.00064844,-2.64173,-1.74403,-0.0338296,-3.01402,0.284181,
2,1,0,1,0,58303.6,0.285951,0.285603,2.2832,30,0.0157027,10,0.000652088,-2.64146,-1.24325,-0.0474563,-4.22497,0.285603,
2,1,0,1,0,58303.6,0.287452,0.287084,2.27629,30,0.01576,10,0.000653487,-2.64277,-1.90479,-0.0309746,-2.75185,0.287084,
2,1,0,1,0,58303.6,0.288953,0.288613,2.27026,30,0.0158173,10,0.000655227,-2.64392,-4.29595,-0.0137339,-1.21894,0.288613,
2,1,0,1,0,58303.6,0.290447,0.290086,2.2697,30,0.0158742,10,0.000658409,-2.64403,-1.35715,-0.0434735,-3.85554,0.290086,
2,1,0,1,0,58303.7,0.291947,0.291605,2.27025,30,0.0159312,10,0.000662018,-2.64393,-1.20486,-0.0489685,-4.33027,0.291605,
2,1,0,1,0,58303.7,0.293446,0.293077,2.26181,30,0.0159882,10,0.000662884,-2.64554,-3.75943,-0.0156939,-1.38514,0.2930769,
2,1,0,1,0,58303.7,0.29494,0.294621,2.25727,30,0.0160448,10,0.000665041,-2.64642,-4.2138,-0.0140016,-1.23568,0.294621,
2,1,0,1,0,58303.7,0.29644,0.296095,2.25265,30,0.0161016,10,0.000667,-2.64731,-1.514,-0.0389696,-3.43079,0.2960954,
2,1,0,1,0,58303.8,0.297941,0.297588,2.25489,30,0.0161583,10,0.000671026,-2.64688,-1.26141,-0.0467731,-4.10731,0.297588,
2,1,0,1,0,58303.8,0.29944,0.299111,2.25166,30,0.0162149,10,0.000673496,-2.6475,-0.00949789,-6.21191,-442.516,0.299111,
2,1,0,1,0,58303.8,0.299736,0.299359,1.89613,30,0.0162444,10,0.000567623,-2.72213,0.00220604,26.7447,1347.54,0.299359,
2,1,0,1,0,58303.8,0.298238,0.297887,0.873485,30,0.0162768,10,0.0002602,-3.05874,0.00353277,16.7008,547.587,0.297887,
2,1,0,1,0,58303.9,0.296744,0.296404,0.326274,30,0.0162907,10,9.67092e-05,-3.48642,0.00381048,15.4836,306.69,0.296404,
2,1,0,1,0,58303.9,0.295243,0.294919,-0.0208106,30,0.0162939,10,-6.13745e-06,-4.68171,0.020934,2.81838,195.97,0.294919,
2,0,0,1,0,58303.9,0.293742,0.293339,-0.244957,30,0.01629,10,-7.18557e-05,-3.61091,-0.00550558,-10.7164,136.473,0.293339,
2,0,0,1,0,58303.9,0.292248,0.29187,-0.409361,30,0.0162813,10,-0.00011948,-3.38789,-0.00792084,-7.44871,98.6934,0.29187,
2,0,0,1,0,58304,0.290748,0.290371,-0.53817,30,0.016269,10,-0.000156269,-3.26908,-0.0148816,-3.96462,77.0058,0.290371,
2,0,0,1,0,58304,0.289249,0.288851,-0.643219,30,0.0162538,10,-0.000185795,-3.19164,-0.0231616,-2.54733,61.3515,0.288851,
2,0,0,1,0,58304,0.287754,0.287384,-0.720546,30,0.0162364,10,-0.000207073,-3.14234,-0.0319807,-1.84486,50.9221,0.287384,
2,0,0,1,0,58304,0.286254,0.28588,-0.786083,30,0.0162171,10,-0.000224725,-3.10453,-0.0411655,-1.43324,43.511,0.28588,
2,0,0,1,0,58304.1,0.284754,0.284432,-0.847003,30,0.0161962,10,-0.000240915,-3.07211,-0.0540782,-1.09101,35.6892,0.284432,
2,0,0,1,0,58304.1,0.28326,0.282885,-0.904438,30,0.016174,10,-0.000255852,-3.04362,-0.0576561,-1.02331,35.4672,0.282885,
2,0,0,1,0,58304.1,0.28176,0.281367,-0.943456,30,0.0161506,10,-0.000265457,-3.02528,-0.0723361,-0.815637,29.8302,0.281367,
2,0,0,1,0,58304.1,0.280261,0.279904,-0.981768,30,0.016126,10,-0.000274801,-3.00799,-0.0844689,-0.698482,26.7712,0.279904,
2,0,0,1,0,58304.2,0.278761,0.278367,-1.02098,30,0.0161005,10,-0.000284206,-2.99098,-0.0999275,-0.590428,23.4804,0.278367,
2,0,0,1,0,58304.2,0.277267,0.276933,-1.05751,30,0.0160743,10,-0.000292861,-2.97571,-0.113087,-0.52172,21.4305,0.276933,
2,0,0,1,0,58304.2,0.275766,0.275404,-1.08572,30,0.016047,10,-0.000299013,-2.96428,-0.120419,-0.489956,20.7491,0.275404,
2,0,0,1,0,58304.2,0.274265,0.273908,-1.11807,30,0.016019,10,-0.000306248,-2.95153,-0.136734,-0.431495,18.8032,0.273908,
2,0,0,1,0,58304.3,0.272771,0.272389,-1.14485,30,0.0159905,10,-0.000311843,-2.94125,-0.152575,-0.386696,17.2996,0.272389,
2,0,0,1,0,58304.3,0.271272,0.270914,-1.17744,30,0.0159611,10,-0.000318986,-2.92906,-0.144557,-0.408143,18.6351,0.270914,
2,0,0,1,0,58304.3,0.269772,0.269407,-1.20122,30,0.015931,10,-0.000323616,-2.92038,-0.148238,-0.39801,18.5712,0.269407,
2,0,0,1,0,58304.3,0.268273,0.26791,-1.22117,30,0.0159003,10,-0.000327164,-2.91322,-0.184945,-0.319014,15.2286,0.26791,
2,0,0,1,0,58304.4,0.26678,0.266423,-1.24414,30,0.0158692,10,-0.000331467,-2.90513,-0.216286,-0.272788,13.2597,0.2664232,
2,0,0,1,0,58304.4,0.265279,0.264925,-1.26773,30,0.0158375,10,-0.000335855,-2.89697,-0.199841,-0.295235,14.5396,0.264925,
2,0,0,1,0,58304.4,0.263778,0.263423,-1.28566,30,0.0158052,10,-0.000338674,-2.89087,-0.193253,-0.3053,15.2825,0.263423,
2,0,0,1,0,58304.4,0.262284,0.261891,-1.30452,30,0.0157725,10,-0.000341642,-2.88455,-0.260948,-0.226099,11.514,0.2618908,
2,0,0,1,0,58304.5,0.260784,0.260455,-1.32455,30,0.0157392,10,-0.000344986,-2.87793,-0.254642,-0.231697,11.9798,0.260455,
2,0,0,1,0,58304.5,0.259285,0.258922,-1.34442,30,0.0157055,10,-0.000348099,-2.87147,-0.229721,-0.256833,13.4484,0.258922,
2,0,0,1,0,58304.5,0.257791,0.257373,-1.36496,30,0.0156714,10,-0.000351302,-2.86488,-0.248409,-0.237512,12.6003,0.2573728,
2,0,0,1,0,58304.5,0.25629,0.255964,-1.37835,30,0.0156367,10,-0.000352809,-2.86064,-0.31316,-0.188402,10.1386,0.255964,
2,0,0,1,0,58304.6,0.254789,0.254437,-1.39393,30,0.0156016,10,-0.000354667,-2.85576,-0.302837,-0.194824,10.5987,0.254437,
2,0,0,1,0,58304.6,0.253296,0.252905,-1.41288,30,0.0155662,10,-0.000357325,-2.84989,-0.319011,-0.184947,10.1879,0.252905,
2,0,0,1,0,58304.6,0.251797,0.251416,-1.42598,30,0.0155304,10,-0.000358514,-2.84589,-0.268107,-0.220061,12.2741,0.2514165,
2,0,0,1,0,58304.6,0.250297,0.249938,-1.43788,30,0.0154941,10,-0.000359382,-2.84228,-0.310227,-0.190183,10.7198,0.249938,
2,0,0,1,0,58304.7,0.248798,0.248423,-1.45875,30,0.0154573,10,-0.000362388,-2.83602,-0.373097,-0.158136,9.01958,0.248423,
2,0,0,1,0,58304.7,0.247303,0.246939,-1.47551,30,0.0154205,10,-0.000364362,-2.83106,-0.33603,-0.17558,10.1038,0.246939,
2,0,0,1,0,58304.7,0.245802,0.24546,-1.4878,30,0.0153831,10,-0.000365195,-2.82745,-0.299792,-0.196803,11.4267,0.24546,
2,0,0,1,0,58304.7,0.244302,0.243956,-1.50546,30,0.0153452,10,-0.000367264,-2.82233,-0.324255,-0.181955,10.6841,0.2439557,
2,0,0,1,0,58304.8,0.242807,0.242443,-1.51676,30,0.0153071,10,-0.000367729,-2.81908,-0.498517,-0.118351,7.00646,0.242443,
2,0,0,1,0,58304.8,0.241308,0.240926,-1.53247,30,0.0152687,10,-0.000369211,-2.81461,-0.402942,-0.146423,8.75433,0.240926,
2,0,0,1,0,58304.8,0.239808,0.239435,-1.54272,30,0.0152298,10,-0.000369382,-2.81171,-0.332248,-0.177578,10.7014,0.239435,
2,0,0,1,0,58304.8,0.238309,0.23799,-1.55268,30,0.0151906,10,-0.000369522,-2.80892,-0.405781,-0.145399,8.84781,0.23799,
2,0,0,1,0,58304.9,0.236815,0.236455,-1.57235,30,0.0151513,10,-0.000371789,-2.80345,-0.508304,-0.116072,7.11765,0.236455,
2,0,0,1,0,58304.9,0.235315,0.234954,-1.58379,30,0.0151114,10,-0.000372117,-2.8003,-0.413957,-0.142527,8.80255,0.234954,
2,0,0,1,0,58304.9,0.233814,0.233441,-1.59758,30,0.0150713,10,-0.000372941,-2.79654,-0.355377,-0.166021,10.3345,0.233441,
2,0,0,1,0,58304.9,0.23232,0.231944,-1.60437,30,0.015031,10,-0.000372123,-2.7947,-0.447976,-0.131704,8.27573,0.231944,
2,0,0,1,0,58305,0.230821,0.230422,-1.6212,30,0.0149902,10,-0.00037356,-2.79016,-0.593476,-0.0994142,6.29052,0.230422,
2,0,0,1,0,58305,0.229321,0.228918,-1.63789,30,0.0149491,10,-0.000374943,-2.78572,-0.496656,-0.118795,7.57396,0.228918,
2,0,0,1,0,58305,0.227827,0.227494,-1.64568,30,0.0149079,10,-0.000374382,-2.78365,-0.470001,-0.125532,8.08116,0.227494,
2,0,0,1,0,58305,0.226326,0.225936,-1.65439,30,0.0148662,10,-0.000373787,-2.78136,-0.419566,-0.140621,9.11761,0.225936,
2,0,0,1,0,58305.1,0.224825,0.224466,-1.66868,30,0.0148241,10,-0.000374562,-2.77763,-0.630591,-0.0935631,6.09612,0.224466,
2,0,0,1,0,58305.1,0.223331,0.222967,-1.68706,30,0.014782,10,-0.000376158,-2.77287,-0.468827,-0.125846,8.24719,0.222967,
2,0,0,1,0,58305.1,0.221831,0.221504,-1.69453,30,0.0147394,10,-0.000375344,-2.77095,-0.364194,-0.162002,10.6997,0.221504,
2,0,0,1,0,58305.1,0.220333,0.219946,-1.70109,30,0.0146965,10,-0.000374147,-2.76927,-0.440656,-0.133891,8.92592,0.219946,
2,0,0,1,0,58305.2,0.218834,0.218451,-1.72115,30,0.0146532,10,-0.000375986,-2.76418,-0.589812,-0.100032,6.71989,0.218451,
2,0,0,1,0,58305.2,0.21734,0.217008,-1.73276,30,0.0146098,10,-0.000376022,-2.76126,-0.699764,-0.0843141,5.69813,0.217008,
2,0,0,1,0,58305.2,0.215839,0.215478,-1.73744,30,0.014566,10,-0.000374379,-2.76009,-0.516986,-0.114123,7.7644,0.215478,
2,0,0,1,0,58305.2,0.214338,0.213932,-1.74982,30,0.0145219,10,-0.000374343,-2.75701,-0.515536,-0.114444,7.83245,0.213932,
2,0,0,1,0,58305.3,0.212844,0.212454,-1.76466,30,0.0144777,10,-0.000374908,-2.75334,-0.548777,-0.107512,7.40759,0.212454,
2,0,0,1,0,58305.3,0.211344,0.210961,-1.78024,30,0.014433,10,-0.000375561,-2.74952,-0.615735,-0.0958204,6.64031,0.210961,
2,0,0,1,0,58305.3,0.209845,0.209482,-1.78432,30,0.014388,10,-0.000373784,-2.74853,-0.459229,-0.128476,8.97297,0.209482,
2,0,0,1,0,58305.3,0.20835,0.207956,-1.79745,30,0.014343,10,-0.000373792,-2.74534,-0.445344,-0.132482,9.33543,0.207956,
2,0,0,1,0,58305.4,0.206851,0.206489,-1.81811,30,0.0142974,10,-0.000375418,-2.74038,-0.506616,-0.116459,8.24757,0.206489,
2,0,0,1,0,58305.4,0.20535,0.204979,-1.83082,30,0.0142514,10,-0.000375281,-2.73735,-0.585056,-0.100845,7.16112,0.204979,
2,0,0,1,0,58305.4,0.203856,0.203465,-1.83836,30,0.0142053,10,-0.000374042,-2.73557,-0.546462,-0.107967,7.7451,0.203465,
2,0,0,1,0,58305.4,0.202356,0.201962,-1.84565,30,0.0141589,10,-0.00037275,-2.73385,-0.56231,-0.104924,7.59251,0.201962,
2,0,0,1,0,58305.5,0.200857,0.200443,-1.85989,30,0.0141121,10,-0.000372801,-2.73051,-0.602927,-0.097856,7.12116,0.200443,
2,0,0,1,0,58305.5,0.199357,0.198999,-1.87513,30,0.014065,10,-0.000373148,-2.72697,-0.686833,-0.0859015,6.27641,0.198999,
2,0,0,1,0,58305.5,0.197863,0.197515,-1.88847,30,0.0140178,10,-0.000373002,-2.72389,-0.492936,-0.119691,8.80613,0.197515,
2,0,0,1,0,58305.5,0.196362,0.196026,-1.89323,30,0.0139701,10,-0.000371124,-2.7228,-0.525677,-0.112236,8.31774,0.1960264,
2,0,0,1,0,58305.6,0.194861,0.194516,-1.90777,30,0.0139222,10,-0.000371093,-2.71947,-0.505579,-0.116698,8.69863,0.194516,
2,0,0,1,0,58305.6,0.193367,0.192967,-1.92939,30,0.013874,10,-0.000372308,-2.71458,-0.425788,-0.138567,10.3941,0.192967,
2,0,0,1,0,58305.6,0.191868,0.191489,-1.93884,30,0.0138253,10,-0.000371265,-2.71246,-0.489893,-0.120434,9.09537,0.191489,
2,0,0,1,0,58305.6,0.190368,0.18994,-1.94543,30,0.0137764,10,-0.000369514,-2.71098,-0.50192,-0.117549,8.94827,0.18994,
2,0,0,1,0,58305.7,0.18887,0.188481,-1.96146,30,0.0137271,10,-0.000369698,-2.70742,-0.525388,-0.112298,8.60179,0.188481,
2,0,0,1,0,58305.7,0.187376,0.186971,-1.98017,30,0.0136777,10,-0.000370234,-2.7033,-0.555564,-0.106198,8.18696,0.186971,
2,0,0,1,0,58305.7,0.185875,0.185507,-1.99151,30,0.0136277,10,-0.000369438,-2.70082,-0.486422,-0.121294,9.40171,0.185507,
2,0,0,1,0,58305.7,0.184374,0.183973,-2.00255,30,0.0135774,10,-0.000368415,-2.69842,-0.473789,-0.124528,9.73939,0.183973,
2,0,0,1,0,58305.8,0.18288,0.182497,-2.0161,30,0.013527,10,-0.000367933,-2.69549,-0.57295,-0.102976,8.1193,0.182497,
2,0,0,1,0,58305.8,0.18138,0.18104,-2.03308,30,0.0134759,10,-0.000368069,-2.69185,-0.457116,-0.12907,10.2296,0.18104,
2,0,0,1,0,58305.8,0.179881,0.179498,-2.05107,30,0.0134245,10,-0.000368164,-2.68802,-0.423257,-0.139395,11.1328,0.179498,
2,0,0,1,0,58305.8,0.178387,0.177995,-2.06113,30,0.0133728,10,-0.000366871,-2.68589,-0.457875,-0.128856,10.4004,0.177995,
2,0,0,1,0,58305.9,0.176886,0.17654,-2.07509,30,0.0133207,10,-0.000366336,-2.68296,-0.489761,-0.120467,9.79312,0.17654,
2,0,0,1,0,58305.9,0.175385,0.175025,-2.09744,30,0.0132681,10,-0.000367104,-2.67831,-0.414758,-0.142252,11.6281,0.175025,
2,0,0,1,0,58305.9,0.173892,0.173537,-2.11666,30,0.0132152,10,-0.00036732,-2.67435,-0.354472,-0.166445,13.7241,0.173537,
2,0,0,1,0,58305.9,0.172393,0.171984,-2.13127,30,0.0131617,10,-0.000366545,-2.67136,-0.363616,-0.162259,13.5149,0.171984,
2,0,0,1,0,58306,0.170893,0.170504,-2.14358,30,0.0131078,10,-0.000365489,-2.66886,-0.398451,-0.148073,12.4478,0.170504,
2,0,0,1,0,58306,0.169393,0.169035,-2.17139,30,0.0130534,10,-0.00036704,-2.66326,-0.347038,-0.17001,14.3993,0.1690349,
2,0,0,1,0,58306,0.167899,0.167537,-2.195,30,0.0129986,10,-0.000367744,-2.65857,-0.324336,-0.18191,15.5731,0.167537,
2,0,0,1,0,58306,0.166398,0.16601,-2.21305,30,0.0129431,10,-0.000367389,-2.65501,-0.366709,-0.160891,13.9236,0.16601,
2,0,0,1,0,58306.1,0.164898,0.164527,-2.23275,30,0.0128871,10,-0.000367348,-2.65116,-0.374995,-0.157335,13.7426,0.164527,
2,0,0,1,0,58306.1,0.163403,0.163045,-2.26113,30,0.0128307,10,-0.000368666,-2.64567,-0.337593,-0.174767,15.433,0.163045,
2,0,0,1,0,58306.1,0.161904,0.161501,-2.29236,30,0.0127734,10,-0.000370218,-2.63972,-0.282244,-0.209039,18.6544,0.161501,
2,0,0,1,0,58306.1,0.160404,0.160023,-2.31102,30,0.0127155,10,-0.000369817,-2.6362,-0.277048,-0.21296,19.2461,0.160023,
2,0,0,1,0,58306.2,0.158905,0.158526,-2.34018,30,0.0126568,10,-0.000370978,-2.63075,-0.272568,-0.21646,19.8221,0.158526,
2,0,0,1,0,58306.2,0.157411,0.157012,-2.37639,30,0.0125977,10,-0.000373123,-2.62408,-0.256625,-0.229908,21.3322,0.157012,
2,0,0,1,0,58306.2,0.155911,0.155568,-2.4098,30,0.0125375,10,-0.000374887,-2.61802,-0.212465,-0.277693,26.136,0.155568,
2,0,0,1,0,58306.2,0.15441,0.154039,-2.44829,30,0.0124763,10,-0.000377132,-2.61114,-0.218272,-0.270305,25.8125,0.1540391,
2,0,0,1,0,58306.3,0.152916,0.152513,-2.48408,30,0.0124144,10,-0.000378854,-2.60483,-0.2189,-0.26953,26.2287,0.152513,
2,0,0,1,0,58306.3,0.151417,0.151048,-2.52999,30,0.0123513,10,-0.00038215,-2.59688,-0.202706,-0.291062,28.7813,0.1510482,
2,0,0,1,0,58306.3,0.149917,0.149524,-2.5826,30,0.012287,10,-0.00038616,-2.58794,-0.164842,-0.357918,36.0605,0.149524,
2,0,0,1,0,58306.3,0.148423,0.148079,-2.62838,30,0.0122217,10,-0.000389206,-2.58031,-0.160405,-0.367818,37.8687,0.148079,
2,0,0,1,0,58306.4,0.146922,0.146584,-2.69535,30,0.0121547,10,-0.000395094,-2.56939,-0.151347,-0.389833,41.0087,0.146584,
2,0,0,1,0,58306.4,0.145421,0.145023,-2.75395,30,0.0120863,10,-0.000399386,-2.56004,-0.145569,-0.405305,43.6611,0.145023,
2,0,0,1,0,58306.4,0.143927,0.143533,-2.83151,30,0.0120164,10,-0.000406416,-2.54798,-0.118792,-0.496666,54.837,0.1435332,
2,0,0,1,0,58306.4,0.142429,0.142032,-2.90776,30,0.0119442,10,-0.000412995,-2.53644,-0.117091,-0.503883,57.3307,0.142032,
2,0,0,1,0,58306.5,0.140929,0.140566,-2.9897,30,0.01187,10,-0.00042025,-2.52437,-0.118116,-0.499507,58.4486,0.140566,
2,0,0,1,0,58306.5,0.13943,0.139079,-3.08393,30,0.0117935,10,-0.00042891,-2.5109,-0.111675,-0.52832,63.7303,0.139079,
2,0,0,1,0,58306.5,0.137935,0.137553,-3.18897,30,0.011715,10,-0.000438652,-2.49635,-0.106249,-0.5553,69.2544,0.137553,
2,0,0,1,0,58306.5,0.136435,0.136051,-3.29239,30,0.0116336,10,-0.000447934,-2.48249,-0.0982312,-0.600624,77.3757,0.136051,
2,0,0,1,0,58306.6,0.134934,0.134569,-3.40936,30,0.0115493,10,-0.000458794,-2.46733,-0.0991537,-0.595036,79.2016,0.134569,
2,0,0,1,0,58306.6,0.13344,0.133096,-3.53533,30,0.0114623,10,-0.000470537,-2.45157,-0.100303,-0.588219,81.1272,0.133096,
2,0,0,1,0,58306.6,0.13194,0.131599,-3.66004,30,0.011372,10,-0.000481657,-2.43651,-0.0988372,-0.596941,85.2439,0.131599,
2,0,0,1,0,58306.6,0.13044,0.130056,-3.78498,30,0.0112786,10,-0.000492259,-2.42194,-0.098999,-0.595965,88.0694,0.130056,
2,0,0,1,0,58306.7,0.128941,0.128571,-3.9141,30,0.0111818,10,-0.000503238,-2.40737,-0.106602,-0.553461,84.5312,0.128571,
2,0,0,1,0,58306.7,0.127447,0.127081,-4.04693,30,0.0110823,10,-0.000514285,-2.39287,-0.11161,-0.528627,83.308,0.1270805,
2,0,0,1,0,58306.7,0.125946,0.125563,-4.17053,30,0.0109792,10,-0.000523665,-2.37981,-0.11304,-0.521941,84.7973,0.125563,
2,0,0,1,0,58306.7,0.124446,0.124092,-4.29306,30,0.010873,10,-0.000532733,-2.36723,-0.11643,-0.50674,84.7719,0.124092,
2,0,0,1,0,58306.7,0.122952,0.122599,-4.41152,30,0.0107642,10,-0.000540847,-2.35541,-0.12465,-0.473325,81.5018,0.1225988,
2,0,0,1,0,58306.8,0.121453,0.121051,-4.53805,30,0.0106518,10,-0.000549337,-2.34313,-0.138897,-0.424775,75.0538,0.121051,
2,0,0,1,0,58306.8,0.119953,0.119605,-4.64866,30,0.0105365,10,-0.000556002,-2.33267,-0.143064,-0.412404,74.7948,0.119605,
2,0,0,1,0,58306.8,0.118459,0.118119,-4.75757,30,0.0104189,10,-0.00056196,-2.32261,-0.146079,-0.403891,74.9734,0.118119,
2,0,0,1,0,58306.8,0.116958,0.116583,-4.86895,30,0.0102981,10,-0.000567636,-2.31256,-0.162233,-0.363675,69.0418,0.116583,
2,0,0,1,0,58306.9,0.115457,0.115049,-4.97561,30,0.0101747,10,-0.000572437,-2.30315,-0.178221,-0.331049,64.1227,0.115049,
2,0,0,1,0,58306.9,0.113963,0.113602,-5.0659,30,0.0100493,10,-0.000575496,-2.29534,-0.188229,-0.313448,61.8854,0.113602,
2,0,0,1,0,58306.9,0.112464,0.112097,-5.15578,30,0.00992103,10,-0.000577947,-2.28771,-0.195014,-0.302542,60.883,0.112097,
2,0,0,1,0,58306.9,0.110965,0.110559,-5.24657,30,0.00979053,10,-0.000580054,-2.28012,-0.21823,-0.270357,55.3054,0.110559,
2,0,0,1,0,58307,0.109466,0.109101,-5.32033,30,0.00965792,10,-0.000580453,-2.27406,-0.249505,-0.236468,49.0878,0.109101,
2,0,0,1,0,58307,0.107972,0.107585,-5.40181,30,0.00952392,10,-0.000581155,-2.26746,-0.27536,-0.214265,45.0757,0.107585,
2,0,0,1,0,58307,0.106471,0.106097,-5.46459,30,0.00938773,10,-0.000579778,-2.26244,-0.297848,-0.198088,42.2014,0.106097,
2,0,0,1,0,58307,0.10497,0.104605,-5.52097,30,0.00924996,10,-0.000577519,-2.25798,-0.350349,-0.168403,36.2828,0.104605,
2,0,0,1,0,58307.1,0.103476,0.103126,-5.58125,30,0.00911131,10,-0.000575571,-2.25327,-0.442401,-0.133363,28.9674,0.103126,
2,0,0,1,0,58307.1,0.101976,0.101585,-5.6227,30,0.00897092,10,-0.000571182,-2.25006,-0.528818,-0.11157,24.4169,0.101585,
2,0,0,1,0,58307.1,0.100477,0.100051,-5.6475,30,0.00882969,10,-0.00056504,-2.24814,-0.672194,-0.0877723,19.3268,0.100051,
2,0,0,1,0,58307.1,0.0989825,0.0986359,-5.66766,30,0.00868837,10,-0.000559034,-2.2466,-0.905701,-0.0651429,14.4106,0.0986359,
2,0,0,1,0,58307.2,0.0974817,0.0971074,-5.68904,30,0.00854592,10,-0.000552447,-2.24496,-1.79821,-0.0328104,7.27356,0.0971074,
2,0,0,1,0,58307.2,0.0959822,0.0955809,-5.70222,30,0.0084031,10,-0.000545023,-2.24396,-8.49425,-0.00694588,1.54156,0.0955809,
2,0,0,1,0,58307.2,0.094488,0.0941156,-5.69076,30,0.00826086,10,-0.000535589,-2.24483,6.99245,0.00843768,-1.87437,0.0941156,
2,0,0,1,0,58307.2,0.0929884,0.0925979,-5.68648,30,0.00811818,10,-0.000526556,-2.24516,2.16788,0.0272156,-6.03735,0.0925979,
2,0,0,1,0,58307.3,0.0914889,0.0910965,-5.68087,30,0.00797567,10,-0.000517507,-2.24559,1.16466,0.0506586,-11.2125,0.0910965,
2,0,0,1,0,58307.3,0.0899894,0.0895981,-5.66296,30,0.00783354,10,-0.000507391,-2.24696,0.885842,0.0666033,-14.6803,0.0895981,
2,0,0,1,0,58307.3,0.0884951,0.0881359,-5.63189,30,0.00769251,10,-0.000496371,-2.24935,0.814781,0.0724121,-15.9123,0.0881359,
2,0,0,1,0,58307.3,0.0869943,0.0866161,-5.60003,30,0.00755165,10,-0.000485053,-2.25181,0.640214,0.0921567,-20.1728,0.0866161,
2,0,0,1,0,58307.4,0.0854935,0.0851196,-5.57723,30,0.00741145,10,-0.000474731,-2.25358,0.595096,0.0991436,-21.5709,0.08511956,
2,0,0,1,0,58307.4,0.0839993,0.0836532,-5.54894,30,0.00727254,10,-0.000464186,-2.25579,0.544027,0.10845,-23.4512,0.0836532,
2,0,0,1,0,58307.4,0.0824998,0.0821164,-5.51785,30,0.00713383,10,-0.000453106,-2.25823,0.636142,0.0927466,-19.9605,0.0821164,
2,0,0,1,0,58307.4,0.0810002,0.0806173,-5.47707,30,0.006996,10,-0.000441546,-2.26145,0.604949,0.0975289,-20.8931,0.0806173,
2,0,0,1,0,58307.5,0.0795007,0.0791249,-5.45239,30,0.00685889,10,-0.000431419,-2.26341,0.651278,0.0905911,-19.2921,0.0791249,
2,0,0,1,0,58307.5,0.0780078,0.0776381,-5.42933,30,0.00672298,10,-0.000421523,-2.26525,0.710243,0.0830701,-17.5818,0.0776381,
2,0,0,1,0,58307.5,0.076507,0.0760727,-5.39941,30,0.00658726,10,-0.000410748,-2.26765,0.723699,0.0815256,-17.1787,0.0760727,
2,0,0,1,0,58307.5,0.0750062,0.0746627,-5.36692,30,0.00645228,10,-0.000400709,-2.27028,0.72936,0.0808929,-16.9651,0.0746627,
2,0,0,1,0,58307.6,0.073512,0.0731678,-5.34538,30,0.00631842,10,-0.00039111,-2.27202,0.786217,0.0750429,-15.6575,0.0731678,
2,0,0,1,0,58307.6,0.0720124,0.0716514,-5.32458,30,0.0061846,10,-0.000381513,-2.27371,0.832693,0.0708544,-14.7307,0.0716514,
2,0,0,1,0,58307.6,0.0705129,0.0701399,-5.30168,30,0.00605134,10,-0.000371859,-2.27559,0.882905,0.0668248,-13.8335,0.0701399,
2,0,0,1,0,58307.6,0.0690187,0.068657,-5.27437,30,0.00591919,10,-0.000362123,-2.27783,0.857522,0.0688029,-14.1896,0.068657,
2,0,0,1,0,58307.7,0.0675179,0.0671411,-5.26471,30,0.00578704,10,-0.000353478,-2.27863,0.844831,0.0698365,-14.3468,0.0671411,
2,0,0,1,0,58307.7,0.066017,0.0656445,-5.24872,30,0.00565536,10,-0.00034455,-2.27995,0.889619,0.0663205,-13.5614,0.0656445,
2,0,0,1,0,58307.7,0.0645242,0.0641431,-5.22176,30,0.00552462,10,-0.00033494,-2.28218,1.01688,0.0580206,-11.8151,0.0641431,
2,0,0,1,0,58307.7,0.0630246,0.0626801,-5.1942,30,0.0053939,10,-0.000325573,-2.28448,0.916198,0.0643966,-13.0765,0.0626801,
2,0,0,1,0,58307.8,0.0615251,0.0611503,-5.17871,30,0.00526377,10,-0.000316679,-2.28578,0.815765,0.0723248,-14.6272,0.0611503,
2,0,0,1,0,58307.8,0.0600256,0.0596731,-5.16308,30,0.00513409,10,-0.000308097,-2.28709,0.894571,0.0659534,-13.2824,0.0596731,
2,0,0,1,0,58307.8,0.0585314,0.0582004,-5.13805,30,0.00500543,10,-0.000299036,-2.2892,0.795525,0.0741648,-14.8687,0.0582004,
2,0,0,1,0,58307.8,0.0570305,0.0566518,-5.11503,30,0.00487678,10,-0.000289776,-2.29115,0.720466,0.0818915,-16.3576,0.0566518,
2,0,0,1,0,58307.9,0.0555297,0.0551738,-5.095,30,0.00474878,10,-0.00028111,-2.29286,0.713168,0.0827295,-16.4422,0.0551738,
2,0,0,1,0,58307.9,0.0540355,0.0536536,-5.07524,30,0.00462181,10,-0.000272305,-2.29454,0.844445,0.0698683,-13.8216,0.0536536,
2,0,0,1,0,58307.9,0.052536,0.0521424,-5.053,30,0.00449485,10,-0.000263475,-2.29645,0.79114,0.074576,-14.6911,0.0521424,
2,0,0,1,0,58307.9,0.0510364,0.0506737,-5.02481,30,0.00436847,10,-0.000254626,-2.29888,0.72877,0.0809583,-15.8791,0.0506737,
2,0,0,1,0,58308,0.0495369,0.0491379,-5.00048,30,0.00424278,10,-0.000245713,-2.30099,0.593004,0.0994935,-19.4176,0.0491379,
2,0,0,1,0,58308,0.0480427,0.0476481,-4.9806,30,0.00411816,10,-0.000237317,-2.30272,0.750022,0.0786644,-15.2626,0.0476481,
2,0,0,1,0,58308,0.0465432,0.0461513,-4.95082,30,0.00399367,10,-0.000228487,-2.30532,0.797839,0.0739497,-14.2862,0.0461513,
2,0,0,1,0,58308,0.0450424,0.0447042,-4.92409,30,0.00386981,10,-0.000220127,-2.30767,0.621486,0.0949338,-18.2462,0.0447042,
2,0,0,1,0,58308.1,0.0435482,0.0431404,-4.89241,30,0.00374711,10,-0.000211061,-2.31048,0.55086,0.107105,-20.4641,0.0431404,
2,0,0,1,0,58308.1,0.0420486,0.041643,-4.87334,30,0.00362466,10,-0.000202941,-2.31217,0.612873,0.0962679,-18.2906,0.041643,
2,0,0,1,0,58308.1,0.0405491,0.0401689,-4.8484,30,0.00350285,10,-0.000194755,-2.3144,0.702502,0.0839856,-15.8685,0.0401689,
2,0,0,1,0,58308.1,0.0390549,0.0386786,-4.81478,30,0.00338215,10,-0.000186229,-2.31742,0.563155,0.104767,-19.6816,0.0386786,
2,0,0,1,0,58308.2,0.0375541,0.0371634,-4.78441,30,0.00326172,10,-0.000177805,-2.32017,0.501511,0.117645,-21.9779,0.0371634,
2,0,0,1,0,58308.2,0.0360532,0.035703,-4.75547,30,0.00314208,10,-0.000169785,-2.32281,0.493424,0.119573,-22.1726,0.035703,
2,0,0,1,0,58308.2,0.034559,0.0342359,-4.7212,30,0.00302367,10,-0.000161634,-2.32595,0.557851,0.105763,-19.487,0.0342359,
2,0,0,1,0,58308.2,0.0330595,0.0326924,-4.68912,30,0.00290558,10,-0.000153299,-2.32891,0.496965,0.118721,-21.7306,0.03269238,
2,0,0,1,0,58308.3,0.0315613,0.0311966,-4.65792,30,0.00278831,10,-0.000145311,-2.33181,0.461165,0.127937,-23.2441,0.0311966,
2,0,0,1,0,58308.3,0.0300618,0.0296701,-4.6238,30,0.0026719,10,-0.000137189,-2.335,0.463937,0.127172,-22.9385,0.0296701,
2,0,0,1,0,58308.3,0.0285676,0.0281346,-4.59006,30,0.00255676,10,-0.000129139,-2.33818,0.500846,0.117801,-21.0938,0.02813462,
2,0,0,1,0,58308.3,0.0270667,0.0267126,-4.55273,30,0.00244202,10,-0.000121615,-2.34173,0.446608,0.132107,-23.4939,0.0267126,
2,0,0,1,0,58308.4,0.0255659,0.0252416,-4.52182,30,0.00232812,10,-0.000114138,-2.34469,0.395095,0.149331,-26.3512,0.0252416,
2,0,0,1,0,58308.4,0.0240717,0.0236633,-4.4872,30,0.00221559,10,-0.000106182,-2.34802,0.417577,0.141291,-24.7319,0.0236633,
2,0,0,1,0,58308.4,0.0225722,0.0221799,-4.44846,30,0.00210349,10,-9.86663e-05,-2.35179,0.490178,0.120364,-20.9041,0.0221799,
2,0,0,1,0,58308.4,0.0210726,0.0207084,-4.41661,30,0.00199222,10,-9.1461e-05,-2.35491,0.484722,0.121719,-20.9936,0.0207084,
2,0,0,1,0,58308.5,0.0195784,0.019203,-4.38584,30,0.00188221,10,-8.42212e-05,-2.35795,0.423859,0.139197,-23.8201,0.019203,
2,0,0,1,0,58308.5,0.0180789,0.0176979,-4.34946,30,0.00177258,10,-7.69763e-05,-2.36156,0.454707,0.129754,-22.0391,0.0176979,
2,0,0,1,0,58308.5,0.0165781,0.0162455,-4.31734,30,0.00166381,10,-7.01372e-05,-2.36478,0.503455,0.11719,-19.7814,0.0162455,
2,0,0,1,0,58308.5,0.0150839,0.0147531,-4.28952,30,0.00155619,10,-6.3284e-05,-2.36759,0.55789,0.105756,-17.714,0.0147531,
2,0,0,1,0,58308.6,0.0135844,0.0132076,-4.26453,30,0.00144879,10,-5.63242e-05,-2.37013,0.435474,0.135485,-22.5305,0.0132076,
2,0,0,1,0,58308.6,0.0120848,0.0117203,-4.23462,30,0.00134214,10,-4.96311e-05,-2.37319,0.510026,0.11568,-19.1163,0.01172032,
2,0,0,1,0,58308.6,0.0105853,0.0101998,-4.20308,30,0.00123633,10,-4.28705e-05,-2.37643,0.544012,0.108454,-17.8104,0.0101998,
2,0,0,1,0,58308.6,0.00909108,0.00871629,-4.17654,30,0.00113155,10,-3.6404e-05,-2.37918,0.621869,0.0948753,-15.4765,0.008716289,
2,0,0,1,0,58308.7,0.00759027,0.00720889,-4.15653,30,0.00102695,10,-2.9964e-05,-2.38127,0.519353,0.113603,-18.4216,0.00720889,
2,0,0,1,0,58308.7,0.00608945,0.00571481,-4.13623,30,0.00092291,10,-2.36378e-05,-2.38339,0.582697,0.101253,-16.3325,0.00571481,
2,0,0,1,0,58308.7,0.00459524,0.0041994,-4.11275,30,0.000819917,10,-1.72711e-05,-2.38587,0.714243,0.082605,-13.2532,0.0041994,
2,0,0,1,0,58308.7,0.0030957,0.00271008,-4.08797,30,0.000717031,10,-1.10787e-05,-2.38849,1.69813,0.0347441,-5.56292,0.00271008,
2,0,0,1,0,58308.8,0.00159616,0.00117226,-4.09389,30,0.000614217,10,-4.7991e-06,-2.38786, , , ,0.001172257,
2,0,0,1,0,58308.8,0.000199195,-0.000197439,-4.07571,30,0.000518646,10,8.04701e-07,-2.3898, , , ,-0.000197439,