File: Figure_codes/Fig_3-5/rawdata_trumpetplot_data/after 10th/20221101_1-115_003_TrumpetPlot_ParaChange_from10_every3_05_CV_C01_6.csv
mode,ox/red,error,control changes,counter inc.,time/s,control/V,Ewe/V,<I>/mA,cycle number,(Q-Qo)/C,I Range,P/W,log(|I|),Tafel slope mV/dec,alpha_eff,dI/d(E-IR),E-IR/V,
2,0,0,1,0,12940.8,2.44065e-05,-0.000306236,-0.740514,7,0.0000000E+000,10,2.26772e-07,-3.13047, , , ,-0.000306236,
2,1,0,1,0,12940.9,0.00129787,0.00094922,0.192044,7,-8.002e-06,10,1.82292e-07,-3.7166, , , ,0.00094922,
2,1,0,1,0,12940.9,0.00279606,0.00248452,0.517891,7,2.19201e-05,10,1.28671e-06,-3.28576,0.00297207,19.8515,168.584,0.00248452,
2,1,0,1,0,12941,0.00429425,0.00401164,0.621674,7,6.62431e-05,10,2.49393e-06,-3.20644,0.021102,2.79594,61.5744,0.00401164,
2,1,0,1,0,12941.1,0.00579244,0.00547083,0.678623,7,0.000116508,10,3.71263e-06,-3.16837,0.0398276,1.48139,38.3603,0.00547083,
2,1,0,1,0,12941.2,0.00729063,0.00698706,0.729555,7,0.000170724,10,5.09745e-06,-3.13694,0.0577786,1.02114,28.6881,0.00698706,
2,1,0,1,0,12941.2,0.00878882,0.00846737,0.767134,7,0.000228189,10,6.49561e-06,-3.11513,0.0756113,0.780307,23.1911,0.00846737,
2,1,0,1,0,12941.3,0.010287,0.00995134,0.800626,7,0.000288273,10,7.9673e-06,-3.09657,0.0982989,0.60021,18.5785,0.00995134,
2,1,0,1,0,12941.4,0.0117852,0.0114699,0.828163,7,0.000350529,10,9.49892e-06,-3.08188,0.113209,0.521161,16.7661,0.0114699,
2,1,0,1,0,12941.5,0.0132847,0.012977,0.851245,7,0.000414657,10,1.10466e-05,-3.06995,0.113531,0.519682,17.3263,0.012977,
2,1,0,1,0,12941.5,0.0147802,0.0144605,0.87939,7,0.000480637,10,1.27164e-05,-3.05582,0.119073,0.495496,16.9639,0.0144605,
2,1,0,1,0,12941.6,0.0162798,0.0159559,0.902218,7,0.000548794,10,1.43957e-05,-3.04469,0.143417,0.411388,14.4209,0.0159559,
2,1,0,1,0,12941.7,0.017778,0.017482,0.92182,7,0.000618481,10,1.61153e-05,-3.03535,0.160087,0.36855,13.2554,0.017482,
2,1,0,1,0,12941.8,0.0192761,0.0189414,0.942763,7,0.00068949,10,1.78573e-05,-3.0256,0.157954,0.373527,13.744,0.0189414,
2,1,0,1,0,12941.8,0.0207743,0.0204977,0.962606,7,0.000762155,10,1.97312e-05,-3.01655,0.161295,0.365789,13.725,0.0204977,
2,1,0,1,0,12941.9,0.0222725,0.0219793,0.985595,7,0.000836454,10,2.16627e-05,-3.0063,0.167491,0.352257,13.5369,0.0219793,
2,1,0,1,0,12942,0.0237707,0.0234734,1.00277,7,0.000912276,10,2.35385e-05,-2.9988,0.178723,0.330119,12.939,0.0234734,
2,1,0,1,0,12942.1,0.0252689,0.0250091,1.02403,7,0.000989454,10,2.561e-05,-2.98969,0.176536,0.33421,13.4082,0.0250091,
2,1,0,1,0,12942.1,0.0267671,0.0264745,1.04514,7,0.00106818,10,2.76695e-05,-2.98082,0.161693,0.364889,14.8756,0.02647445,
2,1,0,1,0,12942.2,0.0282653,0.0279682,1.06784,7,0.00114855,10,2.98655e-05,-2.97149,0.173854,0.339365,14.1134,0.0279682,
2,1,0,1,0,12942.3,0.0297644,0.0294633,1.08543,7,0.00123059,10,3.19803e-05,-2.9644,0.188018,0.3138,13.2938,0.0294633,
2,1,0,1,0,12942.4,0.0312599,0.030953,1.10013,7,0.00131377,10,3.40525e-05,-2.95855,0.186006,0.317195,13.681,0.030953,
2,1,0,1,0,12942.4,0.0327599,0.0324667,1.12592,7,0.00139858,10,3.65548e-05,-2.94849,0.185646,0.31781,13.948,0.0324667,
2,1,0,1,0,12942.5,0.034258,0.0339525,1.14579,7,0.00148499,10,3.89025e-05,-2.9409,0.187148,0.315258,14.0783,0.0339525,
2,1,0,1,0,12942.6,0.0357562,0.0354892,1.16743,7,0.001573,10,4.14312e-05,-2.93277,0.219438,0.268869,12.2059,0.0354892,
2,1,0,1,0,12942.7,0.0372544,0.0369521,1.18614,7,0.00166237,10,4.38304e-05,-2.92586,0.21892,0.269505,12.4952,0.0369521,
2,1,0,1,0,12942.7,0.0387526,0.038405,1.20604,7,0.00175306,10,4.63178e-05,-2.91864,0.203078,0.290529,13.6846,0.038405,
2,1,0,1,0,12942.8,0.0402508,0.039934,1.22496,7,0.00184539,10,4.89174e-05,-2.91188,0.212779,0.277283,13.2639,0.039934,
2,1,0,1,0,12942.9,0.041749,0.0414983,1.24819,7,0.00193945,10,5.17978e-05,-2.90372,0.209474,0.281657,13.6965,0.0414983,
2,1,0,1,0,12943,0.0432472,0.0429383,1.26922,7,0.00203485,10,5.44983e-05,-2.89646,0.23336,0.252829,12.4882,0.0429383,
2,1,0,1,0,12943,0.0447449,0.0444835,1.28447,7,0.0021315,10,5.71378e-05,-2.89128,0.238721,0.247151,12.3812,0.0444835,
2,1,0,1,0,12943.1,0.0462445,0.0459557,1.30308,7,0.00222982,10,5.9884e-05,-2.88503,0.220169,0.267977,13.6008,0.0459557,
2,1,0,1,0,12943.2,0.04774,0.047437,1.32085,7,0.0023293,10,6.26573e-05,-2.87915,0.251158,0.234912,12.1217,0.047437,
2,1,0,1,0,12943.3,0.0492399,0.0489182,1.34209,7,0.00243042,10,6.56528e-05,-2.87222,0.268886,0.219423,11.4783,0.0489182,
2,1,0,1,0,12943.3,0.0507381,0.0504329,1.35251,7,0.00253269,10,6.82111e-05,-2.86886,0.269413,0.218995,11.6133,0.0504329,
2,1,0,1,0,12943.4,0.0522363,0.0518878,1.37365,7,0.00263628,10,7.12757e-05,-2.86212,0.239153,0.246704,13.2521,0.0518878,
2,1,0,1,0,12943.5,0.0537345,0.0534297,1.39855,7,0.00274135,10,7.47243e-05,-2.85432,0.270651,0.217993,11.8538,0.0534297,
2,1,0,1,0,12943.6,0.0552327,0.054927,1.41208,7,0.00284782,10,7.75615e-05,-2.85014,0.300587,0.196283,10.7897,0.054927,
2,1,0,1,0,12943.6,0.0567309,0.0564233,1.42549,7,0.00295545,10,8.04311e-05,-2.84603,0.291411,0.202463,11.2736,0.0564233,
2,1,0,1,0,12943.7,0.0582291,0.0579347,1.44312,7,0.00306414,10,8.3607e-05,-2.8407,0.307946,0.191592,10.8045,0.0579347,
2,1,0,1,0,12943.8,0.0597291,0.0594093,1.46063,7,0.00317432,10,8.67751e-05,-2.83546,0.298014,0.197977,11.2954,0.0594093,
2,1,0,1,0,12943.9,0.0612246,0.0609191,1.4774,7,0.00328553,10,9.0002e-05,-2.8305,0.313498,0.188199,10.8371,0.0609191,
2,1,0,1,0,12943.9,0.0627241,0.0623736,1.49402,7,0.0033983,10,9.31872e-05,-2.82564,0.315783,0.186837,10.8831,0.0623736,
2,1,0,1,0,12944,0.0642219,0.0639212,1.50627,7,0.00351195,10,9.62826e-05,-2.8221,0.294344,0.200446,11.8189,0.0639212,
2,1,0,1,0,12944.1,0.06572,0.0654197,1.52752,7,0.00362686,10,9.99297e-05,-2.81601,0.340447,0.173301,10.3192,0.0654197,
2,1,0,1,0,12944.2,0.0672182,0.0669244,1.54464,7,0.0037431,10,0.000103374,-2.81117,0.37267,0.158317,9.52009,0.0669244,
2,1,0,1,0,12944.2,0.0687164,0.0684115,1.5555,7,0.00386029,10,0.000106414,-2.80813,0.406078,0.145292,8.81188,0.0684115,
2,1,0,1,0,12944.3,0.0702146,0.0699064,1.56693,7,0.00397846,10,0.000109539,-2.80495,0.396641,0.148749,9.10605,0.0699064,
2,1,0,1,0,12944.4,0.0717128,0.0713966,1.58192,7,0.00409771,10,0.000112944,-2.80082,0.372863,0.158235,9.76934,0.0713966,
2,1,0,1,0,12944.5,0.073211,0.0729071,1.59565,7,0.00421798,10,0.000116334,-2.79706,0.450512,0.130962,8.15882,0.07290706,
2,1,0,1,0,12944.5,0.0747092,0.0744473,1.60786,7,0.0043393,10,0.000119701,-2.79375,0.470048,0.125519,7.86972,0.0744473,
2,1,0,1,0,12944.6,0.0762087,0.0759072,1.61699,7,0.00446168,10,0.000122741,-2.79129,0.499507,0.118117,7.46826,0.0759072,
2,1,0,1,0,12944.7,0.0777042,0.0773558,1.63458,7,0.00458457,10,0.000126445,-2.78659,0.408298,0.144502,9.21001,0.0773558,
2,1,0,1,0,12944.8,0.0792037,0.0788572,1.64881,7,0.00470882,10,0.00013002,-2.78283,0.446382,0.132174,8.48997,0.0788572,
2,1,0,1,0,12944.8,0.0807019,0.0803841,1.65888,7,0.00483396,10,0.000133348,-2.78018,0.505767,0.116654,7.53883,0.0803841,
2,1,0,1,0,12944.9,0.0822001,0.0818921,1.6679,7,0.00495994,10,0.000136588,-2.77783,0.517894,0.113923,7.42689,0.0818921,
2,1,0,1,0,12945,0.0836983,0.0834086,1.68037,7,0.00508662,10,0.000140157,-2.7746,0.472744,0.124803,8.21251,0.0834086,
2,1,0,1,0,12945.1,0.0851965,0.0848975,1.69533,7,0.00521436,10,0.000143929,-2.77075,0.466683,0.126424,8.37316,0.0848975,
2,1,0,1,0,12945.1,0.0866947,0.0863682,1.70921,7,0.00534328,10,0.000147622,-2.7672,0.472269,0.124929,8.33396,0.0863682,
2,1,0,1,0,12945.2,0.0881929,0.0878665,1.72747,7,0.00547334,10,0.000151787,-2.76259,0.41399,0.142516,9.60165,0.0878665,
2,1,0,1,0,12945.3,0.0896911,0.0893488,1.74157,7,0.00560428,10,0.000155607,-2.75906,0.341287,0.172875,11.7793,0.0893488,
2,1,0,1,0,12945.4,0.0911893,0.0908474,1.76288,7,0.00573665,10,0.000160153,-2.75378,0.275279,0.214328,14.7238,0.09084738,
2,1,0,1,0,12945.4,0.0926884,0.092372,1.78181,7,0.00587094,10,0.000164589,-2.74914,0.275095,0.214472,14.9171,0.092372,
2,1,0,1,0,12945.5,0.0941839,0.0939012,1.80406,7,0.00600637,10,0.000169404,-2.74375,0.276961,0.213027,15.0212,0.0939012,
2,1,0,1,0,12945.6,0.0956838,0.0953467,1.82523,7,0.00614371,10,0.00017403,-2.73868,0.254844,0.231514,16.5332,0.0953467,
2,1,0,1,0,12945.7,0.097182,0.0968014,1.8523,7,0.00628279,10,0.000179305,-2.73229,0.219309,0.269027,19.4728,0.0968014,
2,1,0,1,0,12945.7,0.0986802,0.0983807,1.88268,7,0.00642406,10,0.000185219,-2.72522,0.2199,0.268304,19.7191,0.09838073,
2,1,0,1,0,12945.8,0.100178,0.0998483,1.9145,7,0.00656761,10,0.000191159,-2.71795,0.222768,0.264849,19.7833,0.0998483,
2,1,0,1,0,12945.9,0.101677,0.101383,1.94415,7,0.0067134,10,0.000197104,-2.71127,0.208611,0.282823,21.5027,0.101383,
2,1,0,1,0,12946,0.103175,0.102872,1.98055,7,0.00686155,10,0.000203744,-2.70321,0.197163,0.299245,23.1459,0.102872,
2,1,0,1,0,12946,0.104673,0.104378,2.01761,7,0.00701253,10,0.000210595,-2.69516,0.19381,0.304421,23.9201,0.104378,
2,1,0,1,0,12946.1,0.106171,0.105862,2.0529,7,0.00716625,10,0.000217324,-2.68763,0.218361,0.270195,21.6049,0.105862,
2,1,0,1,0,12946.2,0.107669,0.107366,2.08258,7,0.00732243,10,0.000223599,-2.6814,0.210185,0.280705,22.8464,0.107366,
2,1,0,1,0,12946.3,0.109168,0.108863,2.11848,7,0.00748116,10,0.000230625,-2.67397,0.207376,0.284507,23.5375,0.108863,
2,1,0,1,0,12946.3,0.110664,0.110327,2.15234,7,0.00764225,10,0.000237462,-2.66709,0.224132,0.263238,22.0903,0.110327,
2,1,0,1,0,12946.4,0.112164,0.111853,2.18358,7,0.00780627,10,0.00024424,-2.66083,0.262737,0.224559,19.1006,0.111853,
2,1,0,1,0,12946.5,0.113662,0.11336,2.21327,7,0.00797225,10,0.000250895,-2.65497,0.272844,0.216241,18.6542,0.11336,
2,1,0,1,0,12946.6,0.11516,0.114801,2.23723,7,0.00814007,10,0.000256836,-2.65029,0.302869,0.194804,16.9888,0.114801,
2,1,0,1,0,12946.6,0.116658,0.116312,2.26227,7,0.00830989,10,0.000263129,-2.64546,0.322052,0.1832,16.1627,0.116312,
2,1,0,1,0,12946.7,0.118157,0.117862,2.28845,7,0.00848161,10,0.000269721,-2.64046,0.353931,0.166699,14.8513,0.117862,
2,1,0,1,0,12946.8,0.119655,0.119324,2.3068,7,0.00865493,10,0.000275256,-2.63699,0.452557,0.13037,11.7339,0.119324,
2,1,0,1,0,12946.9,0.121153,0.120821,2.32084,7,0.00882949,10,0.000280406,-2.63435,0.441609,0.133602,12.1221,0.120821,
2,1,0,1,0,12946.9,0.122653,0.122373,2.34102,7,0.00900577,10,0.000286477,-2.6306,0.393216,0.150045,13.7101,0.122373,
2,1,0,1,0,12947,0.124149,0.123792,2.36385,7,0.00918306,10,0.000292625,-2.62638,0.410949,0.14357,13.2361,0.123792,
2,1,0,1,0,12947.1,0.125648,0.125351,2.38349,7,0.00936229,10,0.000298773,-2.62279,0.459155,0.128497,11.9356,0.125351,
2,1,0,1,0,12947.2,0.127146,0.126856,2.39422,7,0.00954262,10,0.000303723,-2.62084,0.453028,0.130235,12.1903,0.126856,
2,1,0,1,0,12947.2,0.128644,0.128334,2.41716,7,0.00972418,10,0.000310204,-2.61669,0.450165,0.131063,12.3836,0.128334,
2,1,0,1,0,12947.3,0.130142,0.129797,2.43859,7,0.00990731,10,0.000316521,-2.61286,0.457968,0.12883,12.2452,0.129797,
2,1,0,1,0,12947.4,0.13164,0.131301,2.4556,7,0.0100919,10,0.000322423,-2.60984,0.723738,0.0815212,7.79091,0.131301,
2,1,0,1,0,12947.5,0.133139,0.132829,2.46779,7,0.0102776,10,0.000327794,-2.60769,0.772551,0.0763704,7.34298,0.132829,
2,1,0,1,0,12947.5,0.134637,0.134311,2.47566,7,0.010464,10,0.000332508,-2.60631,1.63115,0.0361708,3.49227,0.134311,
2,1,0,1,0,12947.6,0.136135,0.135852,2.48233,7,0.0106509,10,0.00033723,-2.60514,16.3479,0.00360902,0.348783,0.135852,
2,1,0,1,0,12947.7,0.137633,0.137334,2.47639,7,0.0108379,10,0.000340093,-2.60618,-0.857179,-0.0688304,-6.62321,0.137334,
2,1,0,1,0,12947.8,0.139133,0.138835,2.46272,7,0.0110245,10,0.000341913,-2.60858,-0.408317,-0.144495,-13.8171,0.138835,
2,1,0,1,0,12947.8,0.140628,0.1403,2.43107,7,0.0112089,10,0.000341078,-2.6142,-0.2636,-0.223824,-21.1931,0.1403,
2,1,0,1,0,12947.9,0.142128,0.141848,2.39798,7,0.0113914,10,0.000340147,-2.62015,-0.197067,-0.29939,-27.8783,0.141848,
2,1,0,1,0,12948,0.143626,0.143323,2.34874,7,0.0115706,10,0.000336628,-2.62916,-0.145449,-0.40564,-36.998,0.143323,
2,1,0,1,0,12948.1,0.145124,0.144773,2.28544,7,0.0117456,10,0.00033087,-2.64103,-0.108898,-0.541789,-48.13,0.144773,
2,1,0,1,0,12948.1,0.146622,0.14628,2.20752,7,0.0119153,10,0.000322916,-2.6561,-0.0981156,-0.601331,-51.7458,0.14628,
2,1,0,1,0,12948.2,0.14812,0.147799,2.1286,7,0.0120791,10,0.000314605,-2.67191,-0.0899413,-0.655984,-54.3919,0.147799,
2,1,0,1,0,12948.3,0.149619,0.149284,2.04624,7,0.0122367,10,0.000305471,-2.68904,-0.0811802,-0.726778,-57.8621,0.149284,
2,1,0,1,0,12948.4,0.151117,0.150806,1.95795,7,0.0123878,10,0.000295271,-2.7082,-0.0760832,-0.775466,-59.0636,0.150806,
2,1,0,1,0,12948.4,0.152615,0.152275,1.86491,7,0.0125323,10,0.000283978,-2.72934,-0.0733854,-0.803975,-58.6855,0.152275,
2,1,0,1,0,12948.5,0.154113,0.153797,1.78412,7,0.0126701,10,0.000274392,-2.74858,-0.077306,-0.763201,-53.2845,0.153797,
2,1,0,1,0,12948.6,0.155613,0.155316,1.70471,7,0.012802,10,0.000264769,-2.76835,-0.0768251,-0.767978,-51.1337,0.155316,
2,1,0,1,0,12948.7,0.157108,0.156767,1.62975,7,0.012928,10,0.000255491,-2.78788,-0.0781403,-0.755052,-48.0425,0.156767,
2,1,0,1,0,12948.7,0.158608,0.158303,1.56246,7,0.0130489,10,0.000247342,-2.80619,-0.0851002,-0.6933,-42.4393,0.158303,
2,1,0,1,0,12948.8,0.160106,0.159825,1.50152,7,0.0131647,10,0.00023998,-2.82347,-0.0909022,-0.649049,-38.1993,0.159825,
2,1,0,1,0,12948.9,0.161604,0.161268,1.44849,7,0.0132764,10,0.000233594,-2.83909,-0.10061,-0.586425,-33.2127,0.161268,
2,1,0,1,0,12949,0.163102,0.162818,1.40159,7,0.0133844,10,0.000228204,-2.85338,-0.107481,-0.548936,-30.0691,0.162818,
2,1,0,1,0,12949,0.164601,0.164317,1.35986,7,0.0134891,10,0.000223448,-2.86651,-0.113345,-0.520535,-27.6617,0.164317,
2,1,0,1,0,12949.1,0.166099,0.165806,1.31981,7,0.0135905,10,0.000218832,-2.87949,-0.124009,-0.475773,-24.6233,0.165806,
2,1,0,1,0,12949.2,0.167597,0.16731,1.28639,7,0.0136893,10,0.000215225,-2.89063,-0.151354,-0.389814,-19.5963,0.16731,
2,1,0,1,0,12949.3,0.169095,0.168774,1.25852,7,0.0137859,10,0.000212407,-2.90014,-0.151941,-0.388308,-19.0902,0.168774,
2,1,0,1,0,12949.3,0.170593,0.170233,1.23151,7,0.0138804,10,0.000209644,-2.90956,-0.163327,-0.361238,-17.3855,0.170233,
2,1,0,1,0,12949.4,0.172092,0.171784,1.20382,7,0.0139729,10,0.000206796,-2.91944,-0.185054,-0.318826,-15.0323,0.171784,
2,1,0,1,0,12949.5,0.173588,0.173286,1.18299,7,0.0140635,10,0.000204995,-2.92702,-0.203456,-0.289989,-13.4245,0.173286,
2,1,0,1,0,12949.6,0.175088,0.174776,1.16532,7,0.0141529,10,0.000203669,-2.93356,-0.230894,-0.255528,-11.6441,0.174776,
2,1,0,1,0,12949.6,0.176586,0.176304,1.1511,7,0.0142409,10,0.000202945,-2.93889,-0.212164,-0.278087,-12.4648,0.176304,
2,1,0,1,0,12949.7,0.178084,0.177798,1.13121,7,0.0143276,10,0.000201127,-2.94646,-0.252447,-0.233713,-10.3481,0.177798,
2,1,0,1,0,12949.8,0.179582,0.179281,1.11722,7,0.014413,10,0.000200296,-2.95186,-0.279373,-0.211187,-9.23306,0.179281,
2,1,0,1,0,12949.9,0.181081,0.180714,1.1064,7,0.0144976,10,0.000199942,-2.95609,-0.313641,-0.188113,-8.13082,0.180714,
2,1,0,1,0,12949.9,0.182579,0.182295,1.096,7,0.0145814,10,0.000199795,-2.96019,-0.318954,-0.18498,-7.91202,0.182295,
2,1,0,1,0,12950,0.184077,0.18379,1.08778,7,0.0146643,10,0.000199923,-2.96346,-0.348886,-0.16911,-7.16877,0.18379,
2,1,0,1,0,12950.1,0.185577,0.185269,1.07539,7,0.0147464,10,0.000199236,-2.96844,-0.388269,-0.151957,-6.3748,0.185269,
2,1,0,1,0,12950.2,0.187073,0.186736,1.06928,7,0.0148278,10,0.000199674,-2.97091,-0.567196,-0.10402,-4.32998,0.186736,
2,1,0,1,0,12950.2,0.188572,0.188277,1.06063,7,0.0149087,10,0.000199692,-2.97444,-0.614691,-0.0959831,-3.96932,0.188277,
2,1,0,1,0,12950.3,0.19007,0.189777,1.05362,7,0.014989,10,0.000199953,-2.97732,-0.558162,-0.105704,-4.33874,0.189777,
2,1,0,1,0,12950.4,0.191568,0.19126,1.04124,7,0.0150687,10,0.000199147,-2.98245,-0.621536,-0.0949262,-3.87263,0.19126,
2,1,0,1,0,12950.5,0.193066,0.192776,1.03755,7,0.015148,10,0.000200015,-2.98399,-0.985672,-0.0598576,-2.42384,0.192776,
2,1,0,1,0,12950.5,0.194564,0.194281,1.03531,7,0.015227,10,0.000201141,-2.98493,-0.675997,-0.0872785,-3.5274,0.194281,
2,1,0,1,0,12950.6,0.196063,0.195723,1.02828,7,0.0153055,10,0.000201257,-2.98789,-0.498321,-0.118398,-4.75302,0.195723,
2,1,0,1,0,12950.7,0.197561,0.197226,1.02038,7,0.0153836,10,0.000201246,-2.99124,-0.559296,-0.10549,-4.2132,0.197226,
2,1,0,1,0,12950.8,0.199059,0.198753,1.0191,7,0.0154612,10,0.00020255,-2.99178,-0.67476,-0.0874385,-3.47711,0.198753,
2,1,0,1,0,12950.8,0.200557,0.200218,1.01601,7,0.0155385,10,0.000203423,-2.9931,-0.715076,-0.0825087,-3.26496,0.200218,
2,1,0,1,0,12950.9,0.202057,0.201758,1.00905,7,0.0156157,10,0.000203585,-2.99609,-0.6996,-0.0843339,-3.32294,0.201758,
2,1,0,1,0,12951,0.203552,0.203193,1.00342,7,0.0156923,10,0.000203887,-2.99852,-0.853947,-0.069091,-2.70783,0.2031932,
2,1,0,1,0,12951.1,0.205052,0.204746,0.999547,7,0.0157687,10,0.000204653,-3.0002,-11.3445,-0.00520075,-0.204272,0.204746,
2,1,0,1,0,12951.1,0.20655,0.206259,0.999868,7,0.0158449,10,0.000206232,-3.00006,-1.22968,-0.04798,-1.87007,0.206259,
2,1,0,1,0,12951.2,0.208048,0.207712,0.995536,7,0.0159211,10,0.000206785,-3.00194,-0.7647,-0.0771544,-2.99248,0.207712,
2,1,0,1,0,12951.3,0.209546,0.209245,0.990895,7,0.0159968,10,0.00020734,-3.00397,-0.64186,-0.0919204,-3.55697,0.209245,
2,1,0,1,0,12951.4,0.211044,0.210737,0.989403,7,0.0160721,10,0.000208504,-3.00463,-0.763643,-0.0772612,-2.97813,0.210737,
2,1,0,1,0,12951.4,0.212543,0.212269,0.986781,7,0.0161472,10,0.000209463,-3.00578,-1.52683,-0.0386421,-1.48446,0.212269,
2,1,0,1,0,12951.5,0.214041,0.213735,0.983342,7,0.0162222,10,0.000210175,-3.0073,-1.00402,-0.0587637,-2.25529,0.213735,
2,1,0,1,0,12951.6,0.215539,0.215301,0.977742,7,0.016297,10,0.000210509,-3.00978,-1.21502,-0.0485587,-1.85638,0.215301,
2,1,0,1,0,12951.7,0.217037,0.216719,0.974271,7,0.0163714,10,0.000211143,-3.01132,-1.94327,-0.0303612,-1.1591,0.216719,
2,1,0,1,0,12951.7,0.218536,0.218241,0.973605,7,0.0164458,10,0.000212481,-3.01162,-5.38328,-0.0109599,-0.417156,0.218241,
2,1,0,1,0,12951.8,0.220032,0.219732,0.972137,7,0.0165199,10,0.000213609,-3.01227,-1.33581,-0.0441678,-1.67275,0.219732,
2,1,0,1,0,12951.9,0.221532,0.221226,0.968126,7,0.016594,10,0.000214175,-3.01407,-0.928896,-0.0635162,-2.40233,0.221226,
2,1,0,1,0,12951.9,0.22303,0.222712,0.963206,7,0.0166677,10,0.000214517,-3.01628,-1.23417,-0.0478053,-1.80432,0.222712,
2,1,0,1,0,12952,0.224528,0.224252,0.96502,7,0.0167412,10,0.000216407,-3.01546,-1.48538,-0.0397204,-1.4949,0.224252,
2,1,0,1,0,12952.1,0.226026,0.225715,0.96329,7,0.0168146,10,0.000217429,-3.01624,-1.4549,-0.0405525,-1.52345,0.225715,
2,1,0,1,0,12952.2,0.227525,0.227219,0.959622,7,0.0168878,10,0.000218044,-3.0179,-0.901101,-0.0654755,-2.45107,0.2272191,
2,1,0,1,0,12952.2,0.229023,0.228731,0.956435,7,0.0169609,10,0.000218766,-3.01934,-1.33268,-0.0442716,-1.65512,0.228731,
2,1,0,1,0,12952.3,0.230521,0.230203,0.956355,7,0.0170337,10,0.000220156,-3.01938,-1.68242,-0.0350685,-1.30998,0.230203,
2,1,0,1,0,12952.4,0.232019,0.231714,0.953542,7,0.0171063,10,0.000220949,-3.02066,-1.53255,-0.0384979,-1.4317,0.231714,
2,1,0,1,0,12952.5,0.233517,0.233226,0.951579,7,0.017179,10,0.000221933,-3.02156,-1.57973,-0.0373481,-1.38555,0.233226,
2,1,0,1,0,12952.5,0.235016,0.234732,0.951499,7,0.0172515,10,0.000223347,-3.02159,-3.75234,-0.0157235,-0.582635,0.234732,
2,1,0,1,0,12952.6,0.236512,0.236221,0.947271,7,0.0173236,10,0.000223765,-3.02353,-1.36249,-0.0433031,-1.6018,0.236221,
2,1,0,1,0,12952.7,0.238012,0.237726,0.945054,7,0.0173958,10,0.000224664,-3.02454,-3.90948,-0.0150915,-0.555522,0.237726,
2,1,0,1,0,12952.8,0.23951,0.239181,0.943221,7,0.0174678,10,0.000225601,-3.02539,-4.23555,-0.0139297,-0.512838,0.239181,
2,1,0,1,0,12952.8,0.241008,0.240743,0.941494,7,0.0175397,10,0.000226658,-3.02618,-1.18794,-0.0496656,-1.827,0.240743,
2,1,0,1,0,12952.9,0.242506,0.242186,0.935205,7,0.0176112,10,0.000226494,-3.02909,-1.33863,-0.0440748,-1.61813,0.242186,
2,1,0,1,0,12953,0.244005,0.243718,0.93773,7,0.0176827,10,0.000228541,-3.02792,-9.4948,-0.00621393,-0.227037,0.243718,
2,1,0,1,0,12953.1,0.245503,0.245149,0.937851,7,0.0177542,10,0.000229913,-3.02787,-2.03581,-0.0289811,-1.05708,0.245149,
2,1,0,1,0,12953.1,0.247001,0.246715,0.935503,7,0.0178256,10,0.000230802,-3.02895,-1.27004,-0.0464553,-1.69428,0.246715,
2,1,0,1,0,12953.2,0.248501,0.248211,0.929913,7,0.0178968,10,0.000230815,-3.03156,-2.05055,-0.0287727,-1.04915,0.248211,
2,1,0,1,0,12953.3,0.249997,0.249723,0.930558,7,0.0179676,10,0.000232381,-3.03126,-1.43346,-0.0411592,-1.49483,0.249723,
2,1,0,1,0,12953.4,0.251496,0.25122,0.926957,7,0.0180386,10,0.00023287,-3.03294,-6.50309,-0.00907262,-0.328791,0.25122,
2,1,0,1,0,12953.4,0.252994,0.252706,0.927853,7,0.0181093,10,0.000234474,-3.03252,-1.28887,-0.0457767,-1.65315,0.252706,
2,1,0,1,0,12953.5,0.254492,0.254207,0.924794,7,0.01818,10,0.000235089,-3.03396,-1.74361,-0.0338379,-1.22045,0.254207,
2,1,0,1,0,12953.6,0.25599,0.255703,0.923859,7,0.0182504,10,0.000236234,-3.03439,-3.71585,-0.0158779,-0.572166,0.255703,
2,1,0,1,0,12953.7,0.257488,0.257188,0.921102,7,0.0183207,10,0.000236896,-3.03569,-3.07611,-0.0191801,-0.689112,0.257188,
2,1,0,1,0,12953.7,0.258987,0.258692,0.92068,7,0.018391,10,0.000238172,-3.03589,-2.67312,-0.0220716,-0.792936,0.258692,
2,1,0,1,0,12953.8,0.260485,0.260197,0.919245,7,0.0184611,10,0.000239185,-3.03657,-1.11306,-0.0530072,-1.90407,0.260197,
2,1,0,1,0,12953.9,0.261983,0.261694,0.915197,7,0.018531,10,0.000239502,-3.03849,-3.57162,-0.0165191,-0.590981,0.2616944,
2,1,0,1,0,12954,0.263481,0.263171,0.914634,7,0.0186008,10,0.000240705,-3.03875,-4.04841,-0.0145736,-0.518331,0.263171,
2,1,0,1,0,12954,0.264981,0.264684,0.913676,7,0.0186707,10,0.000241836,-3.03921,-10.4685,-0.00563594,-0.201184,0.264684,
2,1,0,1,0,12954.1,0.266476,0.26617,0.912082,7,0.0187401,10,0.000242769,-3.03997,-1.12111,-0.0526264,-1.87186,0.26617,
2,1,0,1,0,12954.2,0.267976,0.267674,0.905437,7,0.0188096,10,0.000242362,-3.04314,-2.55254,-0.0231142,-0.820237,0.267674,
2,1,0,1,0,12954.3,0.269474,0.269145,0.906945,7,0.0188788,10,0.0002441,-3.04242,14.7669,0.00399543,0.141336,0.269145,
2,1,0,1,0,12954.3,0.270972,0.270708,0.912207,7,0.018948,10,0.000246942,-3.03991,-1.35991,-0.0433854,-1.53367,0.270708,
2,1,0,1,0,12954.4,0.27247,0.272182,0.905535,7,0.0190171,10,0.00024647,-3.04309,-1.16738,-0.0505404,-1.78053,0.272182,
2,1,0,1,0,12954.5,0.273968,0.273632,0.89965,7,0.019086,10,0.000246173,-3.04593,-1.24208,-0.0475008,-1.67113,0.273632,
2,1,0,1,0,12954.6,0.275467,0.275171,0.901675,7,0.0191547,10,0.000248115,-3.04495,-1.51791,-0.0388692,-1.36817,0.2751714,
2,1,0,1,0,12954.6,0.276965,0.27662,0.90071,7,0.0192233,10,0.000249154,-3.04542,-1.92535,-0.0306438,-1.07337,0.27662,
2,1,0,1,0,12954.7,0.278463,0.278122,0.896384,7,0.0192918,10,0.000249304,-3.04751,-0.866562,-0.0680851,-2.37915,0.2781224,
2,1,0,1,0,12954.8,0.279961,0.279673,0.893723,7,0.0193601,10,0.00024995,-3.0488,-2.83544,-0.0208081,-0.726035,0.2796731,
2,1,0,1,0,12954.9,0.28146,0.281119,0.893892,7,0.0194283,10,0.00025129,-3.04872,-2.48581,-0.0237347,-0.827901,0.281119,
2,1,0,1,0,12954.9,0.282956,0.282661,0.894151,7,0.0194963,10,0.000252741,-3.04859,-5.89106,-0.0100152,-0.34802,0.282661,
2,1,0,1,0,12955,0.284456,0.284175,0.890522,7,0.0195644,10,0.000253064,-3.05036,-1.15754,-0.05097,-1.76624,0.284175,
2,1,0,1,0,12955.1,0.285954,0.285638,0.886037,7,0.0196322,10,0.000253086,-3.05255,-0.904623,-0.0652205,-2.25622,0.285638,
2,1,0,1,0,12955.2,0.287452,0.287129,0.884063,7,0.0196998,10,0.00025384,-3.05352,-0.985216,-0.0598853,-2.06705,0.2871294,
2,1,0,1,0,12955.2,0.28895,0.288684,0.882847,7,0.0197672,10,0.000254864,-3.05411,12.309,0.00479324,0.165283,0.2886841,
2,1,0,1,0,12955.3,0.290449,0.290131,0.880556,7,0.0198345,10,0.000255476,-3.05524,-1.14577,-0.0514936,-1.77035,0.290131,
2,1,0,1,0,12955.4,0.291947,0.291665,0.877079,7,0.0199018,10,0.000255813,-3.05696,-1.34757,-0.0437826,-1.50306,0.291665,
2,1,0,1,0,12955.5,0.293445,0.29314,0.874635,7,0.0199688,10,0.000256391,-3.05817,-1.28876,-0.0457806,-1.56892,0.29314,
2,1,0,1,0,12955.5,0.294943,0.294632,0.876996,7,0.0200356,10,0.000258391,-3.057,-1.34281,-0.0439377,-1.50026,0.294632,
2,1,0,1,0,12955.6,0.296441,0.296114,0.877776,7,0.0201024,10,0.000259922,-3.05662,-13.0559,-0.00451903,-0.153888,0.296114,
2,1,0,1,0,12955.7,0.29794,0.297641,0.872192,7,0.0201692,10,0.0002596,-3.05939,-1.14756,-0.0514135,-1.74488,0.297641,
2,1,0,1,0,12955.8,0.299436,0.299128,0.868607,7,0.0202356,10,0.000259824,-3.06118,-0.00253337,-23.2892,-390.544,0.299128,
2,1,0,1,0,12955.8,0.299739,0.299459,0.489326,7,0.0202684,10,0.000146533,-3.3104,0.00106734,55.2776,796.04,0.299459,
2,1,0,1,0,12955.9,0.298239,0.29793,-0.0275789,7,0.0202776,10,-8.21659e-06,-4.55942,0.00483577,12.2008,265.206,0.29793,
2,0,0,1,0,12956,0.296741,0.296462,-0.120323,7,0.0202702,10,-3.56711e-05,-3.91965,-0.00574415,-10.2713,54.6199,0.296462,
2,0,0,1,0,12956,0.295243,0.294944,-0.169271,7,0.0202579,10,-4.99255e-05,-3.77142,-0.0122582,-4.81311,27.5303,0.294944,
2,0,0,1,0,12956.1,0.293745,0.29342,-0.200668,7,0.0202427,10,-5.88801e-05,-3.69752,-0.0227795,-2.59005,19.5641,0.29342,
2,0,0,1,0,12956.2,0.292246,0.291948,-0.226514,7,0.0202254,10,-6.61303e-05,-3.64491,-0.0308747,-1.91095,16.6136,0.291948,
2,0,0,1,0,12956.3,0.290748,0.29044,-0.252703,7,0.0202061,10,-7.33949e-05,-3.59739,-0.0373838,-1.57823,15.134,0.29044,
2,0,0,1,0,12956.3,0.28925,0.288949,-0.274255,7,0.0201852,10,-7.92458e-05,-3.56185,-0.0501185,-1.17721,12.4279,0.288949,
2,0,0,1,0,12956.4,0.287752,0.287421,-0.289393,7,0.0201629,10,-8.31775e-05,-3.53851,-0.0609715,-0.967665,10.8378,0.287421,
2,0,0,1,0,12956.5,0.286254,0.285917,-0.302177,7,0.0201395,10,-8.63975e-05,-3.51974,-0.0713992,-0.82634,9.78212,0.2859166,
2,0,0,1,0,12956.6,0.284754,0.284409,-0.318482,7,0.0201148,10,-9.05791e-05,-3.49691,-0.0665004,-0.887212,10.9335,0.284409,
2,0,0,1,0,12956.6,0.283259,0.282963,-0.335523,7,0.0200891,10,-9.49406e-05,-3.47428,-0.0849553,-0.694483,9.00283,0.282963,
2,0,0,1,0,12956.7,0.281759,0.281451,-0.346774,7,0.0200623,10,-9.75998e-05,-3.45995,-0.0956182,-0.617037,8.31357,0.281451,
2,0,0,1,0,12956.8,0.280261,0.279964,-0.354762,7,0.0200346,10,-9.93207e-05,-3.45006,-0.108987,-0.541347,7.51559,0.279964,
2,0,0,1,0,12956.9,0.278763,0.278462,-0.367295,7,0.0200062,10,-0.000102278,-3.43499,-0.117704,-0.501256,7.2091,0.2784619,
2,0,0,1,0,12956.9,0.277264,0.276981,-0.380349,7,0.0199768,10,-0.00010535,-3.41982,-0.125981,-0.468323,6.91207,0.276981,
2,0,0,1,0,12957,0.275766,0.27549,-0.390381,7,0.0199468,10,-0.000107546,-3.40851,-0.166534,-0.354282,5.35168,0.27549,
2,0,0,1,0,12957.1,0.274268,0.273984,-0.400757,7,0.019916,10,-0.000109801,-3.39712,-0.14547,-0.405582,6.31568,0.273984,
2,0,0,1,0,12957.2,0.27277,0.272452,-0.408164,7,0.0198846,10,-0.000111205,-3.38916,-0.151479,-0.389494,6.22799,0.272452,
2,0,0,1,0,12957.2,0.271272,0.270952,-0.41605,7,0.0198524,10,-0.00011273,-3.38085,-0.15302,-0.38557,6.26832,0.270952,
2,0,0,1,0,12957.3,0.269774,0.269444,-0.426555,7,0.0198195,10,-0.000114933,-3.37003,-0.16054,-0.367511,6.08584,0.269444,
2,0,0,1,0,12957.4,0.268274,0.267947,-0.435208,7,0.019786,10,-0.000116612,-3.3613,-0.193821,-0.304404,5.14869,0.267947,
2,0,0,1,0,12957.5,0.266779,0.266485,-0.440467,7,0.019752,10,-0.000117378,-3.35609,-0.187496,-0.314673,5.43942,0.266485,
2,0,0,1,0,12957.5,0.265279,0.264962,-0.448363,7,0.0197173,10,-0.000118799,-3.34837,-0.163082,-0.361781,6.35247,0.264962,
2,0,0,1,0,12957.6,0.263781,0.263408,-0.456312,7,0.019682,10,-0.000120196,-3.34074,-0.213063,-0.276914,4.94296,0.263408,
2,0,0,1,0,12957.7,0.262283,0.261943,-0.463568,7,0.0196461,10,-0.000121428,-3.33389,-0.278385,-0.211937,3.82909,0.261943,
2,0,0,1,0,12957.8,0.260784,0.26046,-0.467726,7,0.0196098,10,-0.000121824,-3.33001,-0.235014,-0.251049,4.6291,0.26046,
2,0,0,1,0,12957.8,0.259286,0.258995,-0.478414,7,0.019573,10,-0.000123907,-3.3202,-0.226605,-0.260365,4.86823,0.258995,
2,0,0,1,0,12957.9,0.257788,0.257449,-0.488671,7,0.0195356,10,-0.000125808,-3.31098,-0.263825,-0.223633,4.22546,0.257449,
2,0,0,1,0,12958,0.25629,0.255988,-0.495056,7,0.0194976,10,-0.000126728,-3.30535,-0.345543,-0.170746,3.26224,0.255988,
2,0,0,1,0,12958.1,0.25479,0.254484,-0.495696,7,0.0194591,10,-0.000126147,-3.30478,-0.276589,-0.213313,4.15252,0.254484,
2,0,0,1,0,12958.1,0.253294,0.253058,-0.504607,7,0.0194204,10,-0.000127695,-3.29705,-0.274194,-0.215176,4.24216,0.253058,
2,0,0,1,0,12958.2,0.251795,0.251422,-0.509719,7,0.019381,10,-0.000128154,-3.29267,-0.237157,-0.24878,4.97246,0.251422,
2,0,0,1,0,12958.3,0.250297,0.249987,-0.517899,7,0.0193411,10,-0.000129468,-3.28576,-0.364067,-0.162058,3.25994,0.249987,
2,0,0,1,0,12958.4,0.248799,0.248475,-0.523598,7,0.0193008,10,-0.000130101,-3.281,-0.330928,-0.178286,3.64951,0.248475,
2,0,0,1,0,12958.4,0.247301,0.246993,-0.529281,7,0.0192602,10,-0.000130729,-3.27631,-0.300714,-0.1962,4.04866,0.246993,
2,0,0,1,0,12958.5,0.245802,0.245488,-0.53592,7,0.0192191,10,-0.000131562,-3.2709,-0.308948,-0.190971,3.98408,0.245488,
2,0,0,1,0,12958.6,0.244304,0.243967,-0.542686,7,0.0191773,10,-0.000132398,-3.26545,-0.303699,-0.194272,4.08887,0.243967,
2,0,0,1,0,12958.7,0.242806,0.242508,-0.546506,7,0.0191353,10,-0.000132532,-3.26241,-0.428426,-0.137714,2.95079,0.242508,
2,0,0,1,0,12958.7,0.241308,0.241004,-0.551586,7,0.0190929,10,-0.000132934,-3.25839,-0.43929,-0.134308,2.89253,0.241004,
2,0,0,1,0,12958.8,0.23981,0.239509,-0.557105,7,0.01905,10,-0.000133432,-3.25406,-0.235613,-0.250411,5.4262,0.239509,
2,0,0,1,0,12958.9,0.23831,0.238011,-0.563681,7,0.0190066,10,-0.000134162,-3.24897,-0.304254,-0.193917,4.27103,0.238011,
2,0,0,1,0,12959,0.236815,0.23649,-0.569696,7,0.018963,10,-0.000134727,-3.24436,-0.399219,-0.147789,3.28138,0.23649,
2,0,0,1,0,12959,0.235315,0.235008,-0.571242,7,0.0189188,10,-0.000134246,-3.24318,-0.378919,-0.155706,3.49076,0.235008,
2,0,0,1,0,12959.1,0.233817,0.233487,-0.578615,7,0.0188744,10,-0.000135099,-3.23761,-0.307258,-0.192021,4.34317,0.2334868,
2,0,0,1,0,12959.2,0.232319,0.232005,-0.585016,7,0.0188294,10,-0.000135727,-3.23283,-0.356926,-0.1653,3.76242,0.232005,
2,0,0,1,0,12959.3,0.230821,0.230538,-0.589961,7,0.018784,10,-0.000136008,-3.22918,-0.666791,-0.0884834,2.03425,0.230538,
2,0,0,1,0,12959.3,0.229322,0.229005,-0.592925,7,0.0187382,10,-0.000135783,-3.227,-0.449048,-0.131389,3.05795,0.229005,
2,0,0,1,0,12959.4,0.227824,0.22753,-0.597744,7,0.0186922,10,-0.000136004,-3.22348,-0.37798,-0.156093,3.66661,0.22753,
2,0,0,1,0,12959.5,0.226326,0.225967,-0.608633,7,0.0186457,10,-0.000137531,-3.21564,-0.383,-0.154047,3.64704,0.225967,
2,0,0,1,0,12959.6,0.224828,0.224511,-0.613308,7,0.0185987,10,-0.000137695,-3.21232,-0.489151,-0.120617,2.87754,0.224511,
2,0,0,1,0,12959.6,0.22333,0.223042,-0.620612,7,0.0185513,10,-0.000138423,-3.20718,-0.487769,-0.120959,2.91449,0.223042,
2,0,0,1,0,12959.7,0.22183,0.221556,-0.62248,7,0.0185036,10,-0.000137914,-3.20587,-0.4171,-0.141453,3.43919,0.221556,
2,0,0,1,0,12959.8,0.220335,0.220053,-0.62745,7,0.0184556,10,-0.000138072,-3.20242,-0.367141,-0.160701,3.93059,0.220053,
2,0,0,1,0,12959.9,0.218835,0.218549,-0.635957,7,0.0184069,10,-0.000138988,-3.19657,-0.342823,-0.1721,4.25085,0.218549,
2,0,0,1,0,12959.9,0.217337,0.21705,-0.63768,7,0.0183579,10,-0.000138408,-3.1954,-0.630053,-0.0936429,2.33516,0.21705,
2,0,0,1,0,12960,0.215839,0.215538,-0.639986,7,0.0183088,10,-0.000137942,-3.19383,-0.465821,-0.126658,3.18305,0.215538,
2,0,0,1,0,12960.1,0.21434,0.214016,-0.648219,7,0.0182591,10,-0.000138729,-3.18828,-0.379304,-0.155548,3.9302,0.214016,
2,0,0,1,0,12960.2,0.212842,0.212476,-0.65459,7,0.018209,10,-0.000139084,-3.18403,-0.379145,-0.155613,3.97353,0.212476,
2,0,0,1,0,12960.2,0.211344,0.211056,-0.658855,7,0.0181585,10,-0.000139055,-3.18121,-0.605595,-0.0974248,2.5079,0.211056,
2,0,0,1,0,12960.3,0.209846,0.20953,-0.661391,7,0.0181076,10,-0.000138581,-3.17954,-0.459163,-0.128495,3.3271,0.20953,
2,0,0,1,0,12960.4,0.208348,0.208036,-0.67223,7,0.0180564,10,-0.000139848,-3.17248,-0.313366,-0.188278,4.94153,0.208036,
2,0,0,1,0,12960.5,0.20685,0.206525,-0.680078,7,0.0180047,10,-0.000140453,-3.16744,-0.352897,-0.167188,4.4106,0.2065253,
2,0,0,1,0,12960.5,0.20535,0.205024,-0.68201,7,0.0179522,10,-0.000139829,-3.16621,-0.532769,-0.110742,2.93457,0.205024,
2,0,0,1,0,12960.6,0.203855,0.203507,-0.686905,7,0.0178996,10,-0.00013979,-3.1631,-0.482818,-0.122199,3.28304,0.203507,
2,0,0,1,0,12960.7,0.202355,0.202035,-0.691233,7,0.0178467,10,-0.000139654,-3.16038,-0.33909,-0.173995,4.70912,0.202035,
2,0,0,1,0,12960.8,0.200857,0.200521,-0.699245,7,0.0177932,10,-0.000140213,-3.15537,-0.39695,-0.148633,4.05541,0.200521,
2,0,0,1,0,12960.8,0.199359,0.199033,-0.705306,7,0.0177393,10,-0.000140379,-3.15162,-0.508941,-0.115927,3.18507,0.199033,
2,0,0,1,0,12960.9,0.19786,0.197525,-0.71189,7,0.0176849,10,-0.000140616,-3.14759,-0.406331,-0.145202,4.02026,0.197525,
2,0,0,1,0,12961,0.196362,0.19607,-0.71748,7,0.0176302,10,-0.000140676,-3.14419,-0.4132,-0.142788,3.99777,0.19607,
2,0,0,1,0,12961.1,0.194864,0.194563,-0.725954,7,0.0175749,10,-0.000141243,-3.13909,-0.351257,-0.167968,4.74857,0.194563,
2,0,0,1,0,12961.1,0.193366,0.193061,-0.733687,7,0.017519,10,-0.000141647,-3.13449,-0.33907,-0.174005,4.96995,0.193061,
2,0,0,1,0,12961.2,0.191866,0.191561,-0.737233,7,0.0174626,10,-0.000141225,-3.1324,-0.403699,-0.146149,4.22004,0.191561,
2,0,0,1,0,12961.3,0.19037,0.190028,-0.740992,7,0.0174059,10,-0.000140809,-3.13019,-0.355976,-0.165741,4.82676,0.190028,
2,0,0,1,0,12961.4,0.188871,0.188542,-0.751664,7,0.0173486,10,-0.00014172,-3.12398,-0.303727,-0.194254,5.70436,0.188542,
2,0,0,1,0,12961.4,0.187373,0.187074,-0.760571,7,0.0172907,10,-0.000142283,-3.11886,-0.324083,-0.182052,5.38952,0.187074,
2,0,0,1,0,12961.5,0.185875,0.185541,-0.767429,7,0.0172321,10,-0.00014239,-3.11496,-0.383039,-0.154031,4.59559,0.185541,
2,0,0,1,0,12961.6,0.184377,0.184076,-0.772064,7,0.0171731,10,-0.000142118,-3.11235,-0.367485,-0.160551,4.84862,0.184076,
2,0,0,1,0,12961.7,0.182878,0.182577,-0.781025,7,0.0171136,10,-0.000142597,-3.10734,-0.314318,-0.187708,5.75172,0.182577,
2,0,0,1,0,12961.7,0.18138,0.181096,-0.792167,7,0.0170534,10,-0.000143459,-3.10118,-0.324752,-0.181677,5.61,0.181096,
2,0,0,1,0,12961.8,0.179882,0.179546,-0.801328,7,0.0169923,10,-0.000143875,-3.09619,-0.381637,-0.154597,4.8173,0.179546,
2,0,0,1,0,12961.9,0.178384,0.178052,-0.811719,7,0.0169306,10,-0.000144529,-3.09059,-0.304467,-0.193781,6.1403,0.178052,
2,0,0,1,0,12962,0.176886,0.176569,-0.821799,7,0.0168683,10,-0.000145104,-3.08523,-0.278289,-0.21201,6.79564,0.176569,
2,0,0,1,0,12962,0.175386,0.175044,-0.830239,7,0.0168051,10,-0.000145329,-3.0808,-0.264728,-0.222871,7.23553,0.1750441,
2,0,0,1,0,12962.1,0.173891,0.173649,-0.844385,7,0.0167412,10,-0.000146626,-3.07346,-0.219295,-0.269044,8.83432,0.173649,
2,0,0,1,0,12962.2,0.172391,0.172022,-0.85653,7,0.0166762,10,-0.000147342,-3.06726,-0.24511,-0.240708,8.03617,0.172022,
2,0,0,1,0,12962.3,0.170893,0.170592,-0.86837,7,0.0166105,10,-0.000148137,-3.0613,-0.220609,-0.267441,9.06497,0.170592,
2,0,0,1,0,12962.3,0.169395,0.169107,-0.879607,7,0.0165437,10,-0.000148747,-3.05571,-0.191766,-0.307666,10.5848,0.169107,
2,0,0,1,0,12962.4,0.167897,0.167568,-0.895377,7,0.0164758,10,-0.000150036,-3.04799,-0.21541,-0.273896,9.5763,0.167568,
2,0,0,1,0,12962.5,0.166398,0.166071,-0.911552,7,0.0164068,10,-0.000151383,-3.04022,-0.213734,-0.276044,9.84426,0.166071,
2,0,0,1,0,12962.6,0.1649,0.164592,-0.928143,7,0.0163367,10,-0.000152765,-3.03239,-0.17718,-0.332994,12.085,0.164592,
2,0,0,1,0,12962.6,0.163402,0.163086,-0.945906,7,0.0162652,10,-0.000154264,-3.02415,-0.157067,-0.375636,13.8905,0.163086,
2,0,0,1,0,12962.7,0.161904,0.161585,-0.970081,7,0.0161922,10,-0.000156751,-3.01319,-0.146939,-0.401527,15.1665,0.161585,
2,0,0,1,0,12962.8,0.160406,0.16003,-0.990698,7,0.0161175,10,-0.000158541,-3.00406,-0.146927,-0.401559,15.5007,0.16003,
2,0,0,1,0,12962.9,0.158906,0.15859,-1.01227,7,0.0160411,10,-0.000160537,-2.9947,-0.134979,-0.437104,17.3249,0.15859,
2,0,0,1,0,12962.9,0.157411,0.157117,-1.03924,7,0.0159631,10,-0.000163282,-2.98328,-0.116123,-0.50808,20.7081,0.157117,
2,0,0,1,0,12963,0.155911,0.155626,-1.07097,7,0.0158825,10,-0.000166671,-2.97022,-0.116619,-0.505923,21.1946,0.155626,
2,0,0,1,0,12963.1,0.154413,0.154091,-1.10418,7,0.0157996,10,-0.000170145,-2.95696,-0.112113,-0.526255,22.6814,0.154091,
2,0,0,1,0,12963.2,0.152915,0.152604,-1.14194,7,0.0157143,10,-0.000174265,-2.94236,-0.109469,-0.538964,24.0169,0.152604,
2,0,0,1,0,12963.2,0.151417,0.151103,-1.17854,7,0.0156262,10,-0.000178081,-2.92866,-0.0955376,-0.617558,28.5423,0.151103,
2,0,0,1,0,12963.3,0.149918,0.149596,-1.22462,7,0.0155349,10,-0.000183197,-2.912,-0.0860505,-0.685644,32.7683,0.149596,
2,0,0,1,0,12963.4,0.14842,0.14813,-1.27428,7,0.01544,10,-0.00018876,-2.89473,-0.0850145,-0.693999,34.5735,0.14813,
2,0,0,1,0,12963.5,0.146922,0.146585,-1.3314,7,0.0153412,10,-0.000195163,-2.87569,-0.0818771,-0.720592,37.4211,0.146585,
2,0,0,1,0,12963.5,0.145424,0.1451,-1.38454,7,0.0152384,10,-0.000200896,-2.8587,-0.0772912,-0.763347,41.4449,0.1451,
2,0,0,1,0,12963.6,0.143926,0.143623,-1.45215,7,0.0151308,10,-0.000208561,-2.83799,-0.0706143,-0.835525,47.4203,0.143623,
2,0,0,1,0,12963.7,0.142426,0.142075,-1.52631,7,0.0150178,10,-0.00021685,-2.81636,-0.071467,-0.825556,49.1665,0.142075,
2,0,0,1,0,12963.8,0.140931,0.140587,-1.59637,7,0.0148997,10,-0.000224428,-2.79687,-0.073443,-0.803344,50.0853,0.140587,
2,0,0,1,0,12963.8,0.139431,0.139089,-1.66955,7,0.0147757,10,-0.000232217,-2.7774,-0.0735005,-0.802716,52.4622,0.139089,
2,0,0,1,0,12963.9,0.137933,0.137631,-1.75386,7,0.014646,10,-0.000241386,-2.75601,-0.0737996,-0.799463,54.7288,0.137631,
2,0,0,1,0,12964,0.136435,0.136122,-1.83911,7,0.0145101,10,-0.000250343,-2.73539,-0.0781111,-0.755335,54.0746,0.136122,
2,0,0,1,0,12964.1,0.134936,0.134639,-1.91796,7,0.0143681,10,-0.000258231,-2.71716,-0.0855746,-0.689457,51.4227,0.1346388,
2,0,0,1,0,12964.1,0.133438,0.13312,-1.99319,7,0.0142201,10,-0.000265332,-2.70045,-0.0896277,-0.658279,51.1595,0.13312,
2,0,0,1,0,12964.2,0.13194,0.131635,-2.06979,7,0.0140666,10,-0.000272457,-2.68407,-0.0974343,-0.605536,48.9098,0.131635,
2,0,0,1,0,12964.3,0.130442,0.130124,-2.14591,7,0.0139074,10,-0.000279234,-2.66839,-0.105832,-0.55749,46.549,0.130124,
2,0,0,1,0,12964.4,0.128942,0.128619,-2.21343,7,0.0137426,10,-0.000284689,-2.65493,-0.118367,-0.498449,42.8533,0.128619,
2,0,0,1,0,12964.4,0.127446,0.127108,-2.27166,7,0.0135735,10,-0.000288747,-2.64366,-0.138118,-0.427172,37.7109,0.127108,
2,0,0,1,0,12964.5,0.125947,0.125595,-2.32251,7,0.0133999,10,-0.000291696,-2.63404,-0.154539,-0.381782,34.5231,0.125595,
2,0,0,1,0,12964.6,0.124449,0.124156,-2.37132,7,0.0132227,10,-0.000294413,-2.62501,-0.180634,-0.326628,30.1353,0.124156,
2,0,0,1,0,12964.7,0.122951,0.122627,-2.41259,7,0.0130421,10,-0.000295849,-2.61752,-0.209924,-0.281054,26.4111,0.122627,
2,0,0,1,0,12964.7,0.121453,0.121101,-2.45062,7,0.0128586,10,-0.000296772,-2.61072,-0.278613,-0.211763,20.1728,0.121101,
2,0,0,1,0,12964.8,0.119955,0.119679,-2.47312,7,0.0126728,10,-0.000295979,-2.60676,-0.346699,-0.170177,16.4189,0.119679,
2,0,0,1,0,12964.9,0.118456,0.118113,-2.49775,7,0.0124853,10,-0.000295015,-2.60245,-0.408004,-0.144606,14.0751,0.118113,
2,0,0,1,0,12965,0.116958,0.116602,-2.51779,7,0.0122961,10,-0.000293579,-2.59898,-0.612137,-0.0963836,9.44178,0.116602,
2,0,0,1,0,12965,0.11546,0.11514,-2.52712,7,0.0121058,10,-0.000290973,-2.59737,-1.27475,-0.0462836,4.55063,0.11514,
2,0,0,1,0,12965.1,0.113962,0.113596,-2.52926,7,0.0119151,10,-0.000287314,-2.59701,-5.2578,-0.0112214,1.10612,0.113596,
2,0,0,1,0,12965.2,0.112462,0.112128,-2.52801,7,0.0117241,10,-0.000283461,-2.59722,2.36472,0.0249501,-2.45915,0.112128,
2,0,0,1,0,12965.3,0.110967,0.110678,-2.52519,7,0.0115338,10,-0.000279484,-2.59771,1.44133,0.0409344,-4.02407,0.1106785,
2,0,0,1,0,12965.3,0.109467,0.10916,-2.5164,7,0.0113433,10,-0.000274691,-2.59922,0.801087,0.0736499,-7.21351,0.10916,
2,0,0,1,0,12965.4,0.107969,0.107694,-2.50437,7,0.0111538,10,-0.000269704,-2.6013,0.590616,0.0998958,-9.75897,0.107694,
2,0,0,1,0,12965.5,0.106471,0.10617,-2.48764,7,0.0109656,10,-0.000264114,-2.60421,0.543062,0.108643,-10.5621,0.1061704,
2,0,0,1,0,12965.6,0.104973,0.104687,-2.47349,7,0.0107785,10,-0.000258942,-2.60669,0.49648,0.118837,-11.4647,0.104687,
2,0,0,1,0,12965.6,0.103474,0.103122,-2.45709,7,0.0105924,10,-0.000253381,-2.60958,0.412641,0.142981,-13.6732,0.1031224,
2,0,0,1,0,12965.7,0.101976,0.101644,-2.43538,7,0.010408,10,-0.00024754,-2.61343,0.329205,0.17922,-16.9935,0.101644,
2,0,0,1,0,12965.8,0.100478,0.100152,-2.40626,7,0.0102256,10,-0.000240992,-2.61866,0.327563,0.180118,-16.9255,0.100152,
2,0,0,1,0,12965.9,0.0989799,0.0986805,-2.38306,7,0.010045,10,-0.000235162,-2.62287,0.353752,0.166783,-15.4893,0.0986805,
2,0,0,1,0,12965.9,0.0974817,0.0971577,-2.35781,7,0.00986619,10,-0.000229079,-2.62749,0.349448,0.168838,-15.5377,0.0971577,
2,0,0,1,0,12966,0.0959821,0.0956568,-2.33451,7,0.00968897,10,-0.000223311,-2.63181,0.304739,0.193608,-17.6135,0.0956568,
2,0,0,1,0,12966.1,0.0944866,0.0941601,-2.30352,7,0.00951422,10,-0.000216899,-2.63761,0.324237,0.181966,-16.3938,0.0941601,
2,0,0,1,0,12966.2,0.0929871,0.0926617,-2.27805,7,0.00934109,10,-0.000211088,-2.64244,0.329333,0.17915,-15.9579,0.0926617,
2,0,0,1,0,12966.2,0.0914889,0.091137,-2.26031,7,0.00916969,10,-0.000205998,-2.64583,0.341724,0.172654,-15.2052,0.091137,
2,0,0,1,0,12966.3,0.0899907,0.0896607,-2.23613,7,0.009,10,-0.000200493,-2.6505,0.327986,0.179886,-15.6862,0.0896607,
2,0,0,1,0,12966.4,0.0884925,0.0882063,-2.20823,7,0.00883224,10,-0.000194779,-2.65596,0.330675,0.178423,-15.4066,0.0882063,
2,0,0,1,0,12966.5,0.0869943,0.0866771,-2.19086,7,0.0086662,10,-0.000189897,-2.65939,0.404476,0.145868,-12.491,0.08667706,
2,0,0,1,0,12966.5,0.0854961,0.085198,-2.17216,7,0.00850156,10,-0.000185064,-2.66311,0.39276,0.150219,-12.7362,0.085198,
2,0,0,1,0,12966.6,0.083998,0.0836907,-2.15296,7,0.0083382,10,-0.000180183,-2.66696,0.379682,0.155393,-13.048,0.0836907,
2,0,0,1,0,12966.7,0.0824998,0.0821849,-2.13722,7,0.00817624,10,-0.000175647,-2.67015,0.407521,0.144778,-12.0667,0.0821849,
2,0,0,1,0,12966.7,0.081002,0.0806778,-2.11769,7,0.00801579,10,-0.000170851,-2.67414,0.495532,0.119064,-9.85503,0.0806778,
2,0,0,1,0,12966.8,0.0795025,0.0791853,-2.10553,7,0.0078562,10,-0.000166727,-2.67664,0.530695,0.111175,-9.12796,0.0791853,
2,0,0,1,0,12966.9,0.078007,0.0776825,-2.09084,7,0.00769799,10,-0.000162422,-2.67968,0.574959,0.102616,-8.3712,0.0776825,
2,0,0,1,0,12967,0.076507,0.0761661,-2.07657,7,0.00754051,10,-0.000158164,-2.68265,0.486398,0.1213,-9.82809,0.0761661,
2,0,0,1,0,12967,0.0750088,0.0746921,-2.05669,7,0.00738439,10,-0.000153619,-2.68683,0.533921,0.110503,-8.89451,0.0746921,
2,0,0,1,0,12967.1,0.0735106,0.0731884,-2.04849,7,0.00722921,10,-0.000149925,-2.68857,0.571804,0.103182,-8.23999,0.0731884,
2,0,0,1,0,12967.2,0.0720124,0.0716731,-2.03845,7,0.00707491,10,-0.000146102,-2.6907,0.615251,0.0958958,-7.62165,0.07167314,
2,0,0,1,0,12967.3,0.0705142,0.070199,-2.0205,7,0.0069216,10,-0.000141837,-2.69454,0.528939,0.111544,-8.8058,0.07019899,
2,0,0,1,0,12967.3,0.0690161,0.0686615,-2.00412,7,0.00676935,10,-0.000137606,-2.69808,0.509454,0.11581,-9.08592,0.0686615,
2,0,0,1,0,12967.4,0.0675179,0.0672131,-1.99679,7,0.00661808,10,-0.00013421,-2.69967,0.70293,0.0839344,-6.54647,0.0672131,
2,0,0,1,0,12967.5,0.0660179,0.065694,-1.99171,7,0.00646741,10,-0.000130843,-2.70077,0.681847,0.0865297,-6.70876,0.06569396,
2,0,0,1,0,12967.6,0.0645224,0.0642074,-1.9779,7,0.00631776,10,-0.000126996,-2.7038,0.509738,0.115746,-8.91124,0.06420745,
2,0,0,1,0,12967.6,0.0630229,0.0627354,-1.95822,7,0.00616879,10,-0.00012285,-2.70814,0.519981,0.113466,-8.69233,0.0627354,
2,0,0,1,0,12967.7,0.0615251,0.061193,-1.94731,7,0.00602118,10,-0.000119162,-2.71057,0.562308,0.104925,-7.98964,0.061193,
2,0,0,1,0,12967.8,0.0600269,0.0597235,-1.93805,7,0.00587436,10,-0.000115747,-2.71264,0.585842,0.10071,-7.61998,0.0597235,
2,0,0,1,0,12967.9,0.0585287,0.0582374,-1.92463,7,0.00572832,10,-0.000112086,-2.71565,0.460735,0.128056,-9.60914,0.0582374,
2,0,0,1,0,12967.9,0.0570305,0.056695,-1.91072,7,0.00558321,10,-0.000108328,-2.7188,0.471008,0.125263,-9.351,0.05669497,
2,0,0,1,0,12968,0.0555323,0.0551985,-1.89837,7,0.00543924,10,-0.000104787,-2.72162,0.535805,0.110115,-8.16768,0.0551985,
2,0,0,1,0,12968.1,0.0540342,0.0537332,-1.88812,7,0.00529615,10,-0.000101455,-2.72397,0.588545,0.100247,-7.38856,0.0537332,
2,0,0,1,0,12968.2,0.052536,0.0522126,-1.87929,7,0.00515383,10,-9.81226e-05,-2.72601,0.557876,0.105758,-7.74154,0.0522126,
2,0,0,1,0,12968.2,0.0510378,0.0507218,-1.86457,7,0.00501246,10,-9.45746e-05,-2.72942,0.433162,0.136208,-9.89814,0.0507218,
2,0,0,1,0,12968.3,0.0495382,0.0492186,-1.84635,7,0.00487208,10,-9.08749e-05,-2.73369,0.474936,0.124227,-8.96694,0.0492186,
2,0,0,1,0,12968.4,0.0480427,0.0477143,-1.83456,7,0.00473315,10,-8.75349e-05,-2.73647,0.510853,0.115493,-8.26553,0.0477143,
2,0,0,1,0,12968.5,0.0465432,0.0462264,-1.82025,7,0.00459472,10,-8.41435e-05,-2.73987,0.467159,0.126295,-8.97419,0.0462264,
2,0,0,1,0,12968.5,0.045045,0.0447399,-1.80807,7,0.0044575,10,-8.08928e-05,-2.74279,0.403296,0.146294,-10.3184,0.0447399,
2,0,0,1,0,12968.6,0.0435468,0.0432403,-1.78727,7,0.00432137,10,-7.72821e-05,-2.74781,0.406207,0.145246,-10.161,0.0432403,
2,0,0,1,0,12968.7,0.0420486,0.0417167,-1.77914,7,0.00418648,10,-7.42197e-05,-2.74979,0.40728,0.144864,-10.0514,0.0417167,
2,0,0,1,0,12968.8,0.0405504,0.04025,-1.7676,7,0.00405254,10,-7.11457e-05,-2.75262,0.433785,0.136012,-9.35822,0.04025,
2,0,0,1,0,12968.8,0.0390523,0.0387299,-1.74724,7,0.00391965,10,-6.76705e-05,-2.75765,0.353634,0.166839,-11.3655,0.0387299,
2,0,0,1,0,12968.9,0.0375541,0.0372204,-1.72949,7,0.00378797,10,-6.43723e-05,-2.76208,0.351194,0.167998,-11.3517,0.0372204,
2,0,0,1,0,12969,0.0360559,0.0357559,-1.71656,7,0.00365765,10,-6.13771e-05,-2.76534,0.379168,0.155604,-10.4377,0.0357559,
2,0,0,1,0,12969.1,0.0345577,0.0342364,-1.7016,7,0.00352836,10,-5.82564e-05,-2.76914,0.405981,0.145327,-9.65928,0.0342364,
2,0,0,1,0,12969.1,0.0330582,0.0327332,-1.68858,7,0.00339995,10,-5.52728e-05,-2.77248,0.351325,0.167936,-11.0333,0.0327332,
2,0,0,1,0,12969.2,0.0315626,0.0312448,-1.67333,7,0.0032729,10,-5.2283e-05,-2.77642,0.369037,0.159875,-10.4177,0.0312448,
2,0,0,1,0,12969.3,0.0300631,0.0297572,-1.65541,7,0.00314702,10,-4.92603e-05,-2.7811,0.384081,0.153613,-9.94185,0.0297572,
2,0,0,1,0,12969.4,0.0285649,0.0282845,-1.64012,7,0.00302231,10,-4.63898e-05,-2.78512,0.483352,0.122064,-7.80973,0.0282845,
2,0,0,1,0,12969.4,0.0270667,0.0267149,-1.62639,7,0.00289847,10,-4.3449e-05,-2.78877,0.41751,0.141314,-8.96873,0.0267149,
2,0,0,1,0,12969.5,0.0255685,0.025275,-1.61419,7,0.00277572,10,-4.07985e-05,-2.79205,0.36648,0.160991,-10.1424,0.02527499,
2,0,0,1,0,12969.6,0.0240704,0.0237513,-1.59727,7,0.00265417,10,-3.79372e-05,-2.79662,0.363855,0.162153,-10.1355,0.0237513,
2,0,0,1,0,12969.7,0.0225722,0.022235,-1.58611,7,0.00253368,10,-3.52673e-05,-2.79967,0.470956,0.125277,-7.76162,0.022235,
2,0,0,1,0,12969.7,0.021074,0.0207829,-1.57343,7,0.00241401,10,-3.27005e-05,-2.80315,0.459229,0.128476,-7.89004,0.0207829,
2,0,0,1,0,12969.8,0.0195758,0.0192623,-1.56181,7,0.0022952,10,-3.0084e-05,-2.80637,0.419379,0.140684,-8.56664,0.0192623,
2,0,0,1,0,12969.9,0.018078,0.017722,-1.547,7,0.0021774,10,-2.74158e-05,-2.81051,0.44188,0.13352,-8.07748,0.017722,
2,0,0,1,0,12970,0.0165785,0.0162774,-1.53983,7,0.00206042,10,-2.50645e-05,-2.81253,0.562872,0.10482,-6.3076,0.0162774,
2,0,0,1,0,12970,0.015083,0.0147714,-1.53127,7,0.00194441,10,-2.26189e-05,-2.81495,0.598052,0.0986536,-5.89194,0.0147714,
2,0,0,1,0,12970.1,0.013583,0.0132339,-1.52038,7,0.00182856,10,-2.01206e-05,-2.81805,0.540475,0.109163,-6.46692,0.0132339,
2,0,0,1,0,12970.2,0.0120848,0.0117508,-1.50946,7,0.00171366,10,-1.77374e-05,-2.82118,0.530865,0.111139,-6.56549,0.0117508,
2,0,0,1,0,12970.3,0.0105866,0.0103046,-1.50146,7,0.00159966,10,-1.5472e-05,-2.82349,0.734794,0.0802946,-4.71712,0.0103046,
2,0,0,1,0,12970.3,0.00908846,0.00877316,-1.49626,7,0.00148606,10,-1.31269e-05,-2.82499,0.89279,0.066085,-3.86195,0.00877316,
2,0,0,1,0,12970.4,0.00759027,0.00727143,-1.49179,7,0.00137282,10,-1.08474e-05,-2.82629,0.896625,0.0658023,-3.82956,0.00727143,
2,0,0,1,0,12970.5,0.00609208,0.00575829,-1.48966,7,0.00126003,10,-8.57788e-06,-2.82691,1.22012,0.0483557,-2.80566,0.00575829,
2,0,0,1,0,12970.6,0.00459389,0.00430872,-1.48235,7,0.00114773,10,-6.38702e-06,-2.82905,1.4546,0.0405608,-2.34763,0.00430872,
2,0,0,1,0,12970.6,0.00309391,0.00279264,-1.48108,7,0.00103543,10,-4.13613e-06,-2.82942,-1.37647,-0.0428631,2.48036,0.00279264,
2,0,0,1,0,12970.7,0.0015984,0.00122066,-1.49462,7,0.00092244,10,-1.82442e-06,-2.82547, , , ,0.001220664,
2,0,0,1,0,12970.8,0.000199195,-0.000209414,-1.47961,7,0.000817174,10,3.09851e-07,-2.82985, , , ,-0.000209414,