File: Figure_codes/Fig_3-5/rawdata_trumpetplot_data/after 10th/20221101_1-115_003_TrumpetPlot_ParaChange_from10_every3_02_CV_C01_7.csv
mode,ox/red,error,control changes,counter inc.,time/s,control/V,Ewe/V,<I>/mA,cycle number,(Q-Qo)/C,I Range,P/W,log(|I|),Tafel slope mV/dec,alpha_eff,dI/d(E-IR),E-IR/V,
2,0,0,1,0,14130.9,2.44065e-05,-0.000363498,-0.351263,8,0.0000000E+000,10,1.27683e-07,-3.45437, , , ,-0.000363498,
2,0,0,1,0,14132.2,0.00129791,0.000953574,-0.174234,8,-0.000247506,10,-1.66145e-07,-3.75887, , , ,0.000953574,
2,0,0,1,0,14133.7,0.00279612,0.00243712,-0.140891,8,-0.000457033,10,-3.43369e-07,-3.85112,-0.0183283,-3.21906,18.999,0.00243712,
2,0,0,1,0,14135.2,0.00429431,0.00395769,-0.121475,8,-0.000630566,10,-4.80761e-07,-3.91551,-0.0262386,-2.2486,10.7981,0.00395769,
2,0,0,1,0,14136.7,0.00579242,0.00546128,-0.106385,8,-0.000778891,10,-5.80998e-07,-3.97312,-0.0278714,-2.11686,8.93666,0.00546128,
2,0,0,1,0,14138.2,0.00729061,0.00696921,-0.0945998,8,-0.000907627,10,-6.59286e-07,-4.02411,-0.0300757,-1.96172,7.36934,0.00696921,
2,0,0,1,0,14139.7,0.00878882,0.00847818,-0.0849517,8,-0.0010208,10,-7.20236e-07,-4.07083,-0.033648,-1.75345,5.91352,0.00847818,
2,0,0,1,0,14141.2,0.010287,0.00996059,-0.0777031,8,-0.0011209,10,-7.73969e-07,-4.10956,-0.0358771,-1.6445,5.01469,0.00996059,
2,0,0,1,0,14142.7,0.0117852,0.0114632,-0.0712671,8,-0.00121057,10,-8.16951e-07,-4.14711,-0.0385627,-1.52998,4.24879,0.0114632,
2,0,0,1,0,14144.2,0.0132834,0.012951,-0.0647569,8,-0.00129097,10,-8.38665e-07,-4.18871,-0.0391956,-1.50527,3.80319,0.012951,
2,0,0,1,0,14145.7,0.0147815,0.0144874,-0.0594735,8,-0.0013628,10,-8.61619e-07,-4.22568,-0.0440852,-1.33832,3.14511,0.0144874,
2,0,0,1,0,14147.2,0.0162797,0.0159433,-0.0550121,8,-0.00142742,10,-8.77077e-07,-4.25954,-0.0459324,-1.2845,2.76413,0.0159433,
2,0,0,1,0,14148.7,0.0177779,0.0174174,-0.0511151,8,-0.00148581,10,-8.90292e-07,-4.29145,-0.0407511,-1.44781,2.86626,0.0174174,
2,0,0,1,0,14150.2,0.0192761,0.018938,-0.0460749,8,-0.0015381,10,-8.72567e-07,-4.33654,-0.0397137,-1.48563,2.70478,0.018938,
2,0,0,1,0,14151.7,0.0207743,0.0204469,-0.0427078,8,-0.00158393,10,-8.73244e-07,-4.36949,-0.0408236,-1.44524,2.40452,0.0204469,
2,0,0,1,0,14153.2,0.0222725,0.0219676,-0.0389661,8,-0.00162426,10,-8.5599e-07,-4.40931,-0.0378345,-1.55942,2.36252,0.0219676,
2,0,0,1,0,14154.7,0.0237707,0.0234978,-0.0355353,8,-0.00165943,10,-8.35e-07,-4.44934,-0.0349281,-1.68918,2.35789,0.0234978,
2,0,0,1,0,14156.2,0.0252689,0.0249823,-0.032096,8,-0.00168945,10,-8.01832e-07,-4.49355,-0.0348297,-1.69396,2.13245,0.0249823,
2,0,0,1,0,14157.7,0.0267671,0.0264245,-0.029515,8,-0.00171461,10,-7.79918e-07,-4.52996,-0.0315753,-1.86855,2.1566,0.0264245,
2,0,0,1,0,14159.2,0.0282653,0.0279133,-0.0263097,8,-0.00173462,10,-7.3439e-07,-4.57988,-0.030234,-1.95144,1.98193,0.0279133,
2,0,0,1,0,14160.7,0.0297635,0.0294456,-0.0230684,8,-0.00175054,10,-6.79262e-07,-4.63698,-0.0332796,-1.77286,1.61229,0.02944563,
2,0,0,1,0,14162.2,0.0312617,0.0309419,-0.0213815,8,-0.00176258,10,-6.61585e-07,-4.66996,-0.024862,-2.3731,1.90371,0.0309419,
2,0,0,1,0,14163.7,0.0327599,0.0324837,-0.0184489,8,-0.00177076,10,-5.99287e-07,-4.73403,-0.0236109,-2.49884,1.74147,0.0324837,
2,0,0,1,0,14165.2,0.0342581,0.0339715,-0.015461,8,-0.00177427,10,-5.25234e-07,-4.81076,-0.0203928,-2.89318,1.77213,0.0339715,
2,0,0,1,0,14166.7,0.0357563,0.0354338,-0.0129894,8,-0.00177376,10,-4.60265e-07,-4.88641,-0.0195628,-3.01593,1.51513,0.0354338,
2,0,0,1,0,14168.2,0.0372544,0.0368918,-0.0107733,8,-0.00176988,10,-3.97445e-07,-4.96765,-0.0137016,-4.30608,1.68547,0.0368918,
2,0,0,1,0,14169.7,0.0387526,0.0384495,-0.00846295,8,-0.00176246,10,-3.25396e-07,-5.07248,-0.00867258,-6.80305,1.87254,0.0384495,
2,0,0,1,0,14171.2,0.0402508,0.0399171,-0.0051357,8,-0.00175039,10,-2.05002e-07,-5.2894,-0.00690015,-8.55054,1.67032,0.0399171,
2,0,0,1,0,14172.7,0.041749,0.0414557,-0.00296106,8,-0.00173422,10,-1.22753e-07,-5.52855,-0.00454953,-12.9684,1.2367,0.0414557,
2,0,0,1,0,14174.2,0.0432472,0.0429467,-0.000400675,8,-0.00171488,10,-1.72077e-08,-6.39721,-0.00979281,-6.02483,1.65486,0.0429467,
2,1,0,1,0,14175.7,0.0447454,0.0444313,0.00120764,8,-0.00169288,10,5.36571e-08,-5.91806,0.00964204,6.11904,1.45114,0.0444313,
2,1,0,1,0,14177.2,0.0462435,0.0459084,0.00350906,8,-0.00166725,10,1.61095e-07,-5.45481,0.0028792,20.4918,1.40862,0.04590835,
2,1,0,1,0,14178.7,0.0477417,0.0474014,0.00577032,8,-0.00163832,10,2.73521e-07,-5.2388,0.00884969,6.6669,1.3973,0.0474014,
2,0,0,1,0,14180.2,0.0492399,0.0489209,0.0073536,8,-0.00160633,10,3.59745e-07,-5.1335,0.0127756,4.61816,1.38554,0.0489209,
2,1,0,1,0,14181.7,0.0507381,0.0504469,0.00935937,8,-0.00157151,10,4.72151e-07,-5.02875,0.0171668,3.43687,1.28432,0.0504469,
2,1,0,1,0,14183.2,0.0522363,0.0518806,0.0117838,8,-0.00153314,10,6.11352e-07,-4.92871,0.0166717,3.53894,1.53521,0.0518806,
2,1,0,1,0,14184.7,0.0537345,0.0534002,0.0140611,8,-0.00149124,10,7.50865e-07,-4.85198,0.0213872,2.75866,1.44082,0.0534002,
2,1,0,1,0,14186.2,0.0552327,0.0548889,0.0161297,8,-0.00144641,10,8.85341e-07,-4.79237,0.0289898,2.0352,1.22563,0.0548889,
2,1,0,1,0,14187.6,0.0567309,0.056399,0.0169738,8,-0.00139899,10,9.57307e-07,-4.77022,0.0367504,1.60542,1.09855,0.056399,
2,1,0,1,0,14189.1,0.0582291,0.0579164,0.0194782,8,-0.00134911,10,1.12811e-06,-4.71045,0.0366245,1.61094,1.20155,0.05791644,
2,1,0,1,0,14190.6,0.0597273,0.0593957,0.0211136,8,-0.00129607,10,1.25406e-06,-4.67544,0.0423911,1.3918,1.11866,0.0593957,
2,1,0,1,0,14192.1,0.0612255,0.060892,0.022627,8,-0.00124056,10,1.37781e-06,-4.64537,0.0706843,0.834697,0.737413,0.060892,
2,1,0,1,0,14193.6,0.0627237,0.0623851,0.024309,8,-0.00118254,10,1.51652e-06,-4.61423,0.0528614,1.11613,1.0838,0.0623851,
2,1,0,1,0,14195.1,0.0642219,0.0638834,0.0264813,8,-0.00112226,10,1.69172e-06,-4.57706,0.049248,1.19802,1.23103,0.0638834,
2,1,0,1,0,14196.6,0.0657201,0.0653944,0.0274284,8,-0.00105877,10,1.79366e-06,-4.5618,0.0552416,1.06803,1.17494,0.0653944,
2,1,0,1,0,14198.1,0.0672183,0.0669257,0.0303231,8,-0.000992412,10,2.02939e-06,-4.51823,0.0633092,0.931934,1.0671,0.0669257,
2,1,0,1,0,14199.6,0.0687164,0.068406,0.0317991,8,-0.000923758,10,2.17524e-06,-4.49759,0.0745832,0.791063,0.965181,0.068406,
2,1,0,1,0,14201.1,0.0702146,0.0698651,0.0331779,8,-0.000853184,10,2.31798e-06,-4.47915,0.0758625,0.777723,0.989539,0.0698651,
2,1,0,1,0,14202.6,0.0717128,0.0713634,0.0346547,8,-0.000779857,10,2.47308e-06,-4.46024,0.0694268,0.849816,1.12544,0.0713634,
2,1,0,1,0,14204.1,0.073211,0.0728692,0.0355989,8,-0.000704576,10,2.59407e-06,-4.44856,0.102118,0.577762,0.805861,0.0728692,
2,1,0,1,0,14205.6,0.0747092,0.0743623,0.0367607,8,-0.000627465,10,2.73361e-06,-4.43462,0.0847746,0.695963,1.00817,0.0743623,
2,1,0,1,0,14207.1,0.0762074,0.075901,0.0379708,8,-0.000548762,10,2.88202e-06,-4.42055,0.0780839,0.755598,1.14037,0.075901,
2,1,0,1,0,14208.6,0.0777055,0.0773504,0.0400193,8,-0.00046733,10,3.09551e-06,-4.39773,0.0690414,0.854559,1.32896,0.0773504,
2,1,0,1,0,14210.1,0.0792037,0.0788869,0.0419277,8,-0.000383222,10,3.30755e-06,-4.3775,0.0954298,0.618255,0.991641,0.0788869,
2,1,0,1,0,14211.6,0.0807019,0.0803461,0.0430923,8,-0.000296659,10,3.4623e-06,-4.3656,0.111522,0.529042,0.877826,0.0803461,
2,1,0,1,0,14213.1,0.0822001,0.0818858,0.0441541,8,-0.000208269,10,3.6156e-06,-4.35503,0.0919803,0.641442,1.11273,0.0818858,
2,1,0,1,0,14214.6,0.0836983,0.0834012,0.0462523,8,-0.000117645,10,3.85749e-06,-4.33487,0.0890192,0.662778,1.20986,0.0834012,
2,1,0,1,0,14216.1,0.0851965,0.0848996,0.0476775,8,-2.40874e-05,10,4.0478e-06,-4.32169,0.0884293,0.6672,1.25564,0.0848996,
2,1,0,1,0,14217.6,0.0866947,0.0863534,0.0496098,8,7.26345e-05,10,4.28397e-06,-4.30443,0.108866,0.541952,1.04639,0.0863534,
2,1,0,1,0,14219.1,0.0881929,0.0878591,0.051762,8,0.000171894,10,4.54776e-06,-4.28599,0.106096,0.556098,1.1188,0.0878591,
2,1,0,1,0,14220.6,0.0896911,0.0893819,0.0534103,8,0.000272991,10,4.77391e-06,-4.27238,0.100646,0.586212,1.23287,0.0893819,
2,1,0,1,0,14222.1,0.0911893,0.09084,0.0553708,8,0.000377376,10,5.02989e-06,-4.25672,0.0835875,0.705847,1.51658,0.09084,
2,1,0,1,0,14223.6,0.0926875,0.0923702,0.0575541,8,0.000485573,10,5.31628e-06,-4.23992,0.101411,0.581792,1.30396,0.0923702,
2,1,0,1,0,14225.1,0.0941857,0.0938993,0.0603452,8,0.000596737,10,5.66637e-06,-4.21936,0.0957955,0.615895,1.43858,0.0938993,
2,1,0,1,0,14226.6,0.0956839,0.095368,0.0623059,8,0.000710607,10,5.94199e-06,-4.20547,0.120947,0.487816,1.17386,0.095368,
2,1,0,1,0,14228.1,0.0971821,0.0968504,0.0638353,8,0.000828196,10,6.18247e-06,-4.19494,0.0871352,0.677109,1.69136,0.0968504,
2,1,0,1,0,14229.6,0.0986803,0.0983551,0.0662243,8,0.000949048,10,6.5135e-06,-4.17898,0.090753,0.650116,1.69049,0.0983551,
2,1,0,1,0,14231.1,0.100178,0.0998279,0.0692509,8,0.00107399,10,6.91318e-06,-4.15957,0.101471,0.581445,1.55622,0.0998279,
2,1,0,1,0,14232.6,0.101677,0.101326,0.0701466,8,0.00120207,10,7.10769e-06,-4.15399,0.104151,0.566485,1.57563,0.101326,
2,1,0,1,0,14234.1,0.103175,0.102875,0.0735788,8,0.001334,10,7.56939e-06,-4.13325,0.0985091,0.598929,1.70883,0.102875,
2,1,0,1,0,14235.6,0.104673,0.104369,0.0762906,8,0.00146981,10,7.96234e-06,-4.11753,0.121592,0.48523,1.43622,0.104369,
2,1,0,1,0,14237.1,0.106171,0.105857,0.0778624,8,0.00160909,10,8.24231e-06,-4.10867,0.127413,0.46306,1.39984,0.105857,
2,1,0,1,0,14238.6,0.107669,0.107315,0.0798524,8,0.00175131,10,8.5694e-06,-4.09771,0.131024,0.450299,1.40673,0.1073155,
2,1,0,1,0,14240.1,0.109167,0.108865,0.0822816,8,0.00189658,10,8.95756e-06,-4.0847,0.142173,0.414987,1.32699,0.108865,
2,1,0,1,0,14241.6,0.110666,0.110333,0.0845321,8,0.0020454,10,9.32671e-06,-4.07298,0.150493,0.392045,1.2903,0.110333,
2,1,0,1,0,14243.1,0.112164,0.111873,0.0861358,8,0.002197,10,9.63627e-06,-4.06482,0.21745,0.271327,0.911831,0.111873,
2,1,0,1,0,14244.6,0.113662,0.113347,0.0886502,8,0.0023516,10,1.00482e-05,-4.05232,0.174066,0.338953,1.16343,0.113347,
2,1,0,1,0,14246.1,0.11516,0.114852,0.0903111,8,0.00250873,10,1.03724e-05,-4.04426,0.135812,0.434424,1.52832,0.114852,
2,1,0,1,0,14247.6,0.116658,0.116376,0.0918113,8,0.0026689,10,1.06846e-05,-4.0371,0.186309,0.316678,1.13456,0.116376,
2,1,0,1,0,14249.1,0.118157,0.117847,0.094245,8,0.0028324,10,1.11065e-05,-4.02574,0.173618,0.339826,1.24261,0.117847,
2,1,0,1,0,14250.6,0.119655,0.119307,0.0962655,8,0.0029986,10,1.14851e-05,-4.01653,0.177071,0.3332,1.24284,0.119307,
2,1,0,1,0,14252.1,0.121153,0.120828,0.0967551,8,0.00316651,10,1.16908e-05,-4.01433,0.169336,0.34842,1.33505,0.120828,
2,1,0,1,0,14253.6,0.122651,0.122366,0.0990745,8,0.00333801,10,1.21233e-05,-4.00404,0.137434,0.429298,1.66334,0.122366,
2,1,0,1,0,14255.1,0.124149,0.123837,0.101554,8,0.00351306,10,1.25761e-05,-3.9933,0.163439,0.36099,1.43093,0.123837,
2,1,0,1,0,14256.6,0.125648,0.125315,0.10351,8,0.00369125,10,1.29713e-05,-3.98502,0.227472,0.259373,1.04659,0.125315,
2,1,0,1,0,14258.1,0.127146,0.126806,0.104474,8,0.00387144,10,1.32479e-05,-3.98099,0.229748,0.256804,1.0518,0.1268058,
2,1,0,1,0,14259.6,0.128644,0.128301,0.106805,8,0.00405395,10,1.37032e-05,-3.97141,0.246268,0.239576,0.990664,0.128301,
2,1,0,1,0,14261.1,0.130142,0.129808,0.108258,8,0.0042391,10,1.40528e-05,-3.96554,0.544848,0.108287,0.451393,0.129808,
2,1,0,1,0,14262.6,0.13164,0.131333,0.107983,8,0.00442529,10,1.41816e-05,-3.96665,-1.09564,-0.0538498,-0.225691,0.131333,
2,1,0,1,0,14264.1,0.133139,0.132826,0.107418,8,0.00461085,10,1.42678e-05,-3.96892,-0.457276,-0.129025,-0.539363,0.132826,
2,1,0,1,0,14265.6,0.134637,0.134342,0.105584,8,0.00479493,10,1.41844e-05,-3.9764,-0.240439,-0.245384,-1.01486,0.134342,
2,1,0,1,0,14267.1,0.136135,0.135785,0.104763,8,0.00497714,10,1.42252e-05,-3.97979,-0.141367,-0.417354,-1.69659,0.1357853,
2,1,0,1,0,14268.6,0.137633,0.137309,0.10204,8,0.00515573,10,1.4011e-05,-3.99123,-0.113786,-0.518518,-2.04002,0.137309,
2,1,0,1,0,14270,0.139131,0.138821,0.0988288,8,0.00532958,10,1.37195e-05,-4.00512,-0.095587,-0.617239,-2.36521,0.138821,
2,1,0,1,0,14271.5,0.14063,0.14033,0.0947669,8,0.00549742,10,1.32987e-05,-4.02334,-0.0752029,-0.784544,-2.87796,0.14033,
2,1,0,1,0,14273,0.142128,0.141814,0.0906217,8,0.00565961,10,1.28514e-05,-4.04277,-0.0773204,-0.763058,-2.68468,0.141814,
2,1,0,1,0,14274.5,0.143626,0.143345,0.0860774,8,0.00581542,10,1.23388e-05,-4.06511,-0.0637929,-0.924868,-3.09689,0.143345,
2,1,0,1,0,14276,0.145124,0.144825,0.0814121,8,0.00596395,10,1.17905e-05,-4.08931,-0.0572894,-1.02986,-3.29718,0.144825,
2,1,0,1,0,14277.5,0.146622,0.146348,0.0766375,8,0.00610491,10,1.12157e-05,-4.11556,-0.0614357,-0.960353,-2.89773,0.146348,
2,1,0,1,0,14279,0.14812,0.147785,0.0728481,8,0.00623951,10,1.07659e-05,-4.13758,-0.0724385,-0.814484,-2.31928,0.147785,
2,1,0,1,0,14280.5,0.149619,0.149338,0.0689004,8,0.00636848,10,1.02895e-05,-4.16178,-0.0699542,-0.843409,-2.28281,0.149338,
2,1,0,1,0,14282,0.151117,0.150817,0.0662836,8,0.00649197,10,9.99667e-06,-4.17859,-0.0753539,-0.782972,-2.02176,0.150817,
2,1,0,1,0,14283.5,0.152615,0.152331,0.062693,8,0.00661065,10,9.55007e-06,-4.20278,-0.0839147,-0.703095,-1.72808,0.152331,
2,1,0,1,0,14285,0.154113,0.153761,0.0608128,8,0.00672515,10,9.35065e-06,-4.21601,-0.0891963,-0.661462,-1.56567,0.153761,
2,1,0,1,0,14286.5,0.155611,0.155334,0.0587375,8,0.00683632,10,9.12392e-06,-4.23108,-0.10908,-0.540887,-1.23491,0.155334,
2,1,0,1,0,14288,0.15711,0.156787,0.0564216,8,0.00694457,10,8.84615e-06,-4.24855,-0.132348,-0.445793,-0.993247,0.156787,
2,1,0,1,0,14289.5,0.158608,0.15827,0.0551935,8,0.00705049,10,8.73548e-06,-4.25811,-0.184507,-0.319772,-0.698769,0.15827,
2,1,0,1,0,14291,0.160106,0.159778,0.0547909,8,0.00715442,10,8.75439e-06,-4.26129,-0.148611,-0.397009,-0.845151,0.159778,
2,1,0,1,0,14292.5,0.161604,0.161268,0.0533327,8,0.00725689,10,8.60086e-06,-4.27301,-0.1946,-0.303186,-0.634858,0.161268,
2,1,0,1,0,14294,0.163102,0.162796,0.0527845,8,0.00735768,10,8.59309e-06,-4.27749,-0.212547,-0.277586,-0.566067,0.1627959,
2,1,0,1,0,14295.5,0.164601,0.164262,0.0519219,8,0.00745721,10,8.52882e-06,-4.28465,-0.283127,-0.208387,-0.418434,0.164262,
2,1,0,1,0,14297,0.166099,0.165767,0.0518868,8,0.00755534,10,8.60113e-06,-4.28494,-0.508913,-0.115933,-0.231964,0.165767,
2,1,0,1,0,14298.5,0.167597,0.167286,0.0510149,8,0.00765294,10,8.53407e-06,-4.2923,-0.679427,-0.0868379,-0.172242,0.167286,
2,1,0,1,0,14300,0.169095,0.168778,0.0503523,8,0.00774993,10,8.49834e-06,-4.29798,-0.333305,-0.177015,-0.3513,0.168778,
2,1,0,1,0,14301.5,0.170593,0.170272,0.0500954,8,0.00784606,10,8.52984e-06,-4.3002,-0.348238,-0.169424,-0.333093,0.170272,
2,1,0,1,0,14303,0.172091,0.171806,0.0498959,8,0.00794152,10,8.57243e-06,-4.30193,-1.97441,-0.0298824,-0.0581568,0.171806,
2,1,0,1,0,14304.5,0.17359,0.173268,0.0494572,8,0.00803659,10,8.56937e-06,-4.30577,2.09096,0.0282166,0.0548436,0.173268,
2,1,0,1,0,14306,0.175088,0.174771,0.0497671,8,0.00813153,10,8.69785e-06,-4.30306,-0.494045,-0.119422,-0.229629,0.174771,
2,1,0,1,0,14307.5,0.176586,0.176264,0.049383,8,0.00822616,10,8.70445e-06,-4.30642,-0.928961,-0.0635118,-0.122472,0.176264,
2,1,0,1,0,14309,0.178084,0.177743,0.0488707,8,0.00831995,10,8.68644e-06,-4.31095,-0.445189,-0.132528,-0.254062,0.177743,
2,1,0,1,0,14310.5,0.179582,0.179281,0.0486968,8,0.00841368,10,8.73042e-06,-4.3125,11.676,0.00505312,0.00959675,0.179281,
2,1,0,1,0,14312,0.181081,0.180763,0.0486353,8,0.00850703,10,8.79148e-06,-4.31305,-1.39153,-0.0423993,-0.0809946,0.180763,
2,1,0,1,0,14313.5,0.182579,0.182311,0.0482723,8,0.00860023,10,8.80055e-06,-4.3163,-0.879062,-0.067117,-0.126258,0.182311,
2,1,0,1,0,14315,0.184077,0.183747,0.048928,8,0.0086931,10,8.9904e-06,-4.31044,-7.27659,-0.0081082,-0.015327,0.183747,
2,1,0,1,0,14316.5,0.185575,0.185256,0.0481874,8,0.00878574,10,8.92702e-06,-4.31707,1.27213,0.0463791,0.0882272,0.185256,
2,1,0,1,0,14318,0.187073,0.186764,0.0482411,8,0.00887825,10,9.00971e-06,-4.31658,-1.88139,-0.0313598,-0.0592436,0.186764,
2,1,0,1,0,14319.5,0.188572,0.188257,0.0482679,8,0.00897093,10,9.08679e-06,-4.31634,2.03627,0.0289746,0.0549519,0.1882574,
2,1,0,1,0,14321,0.19007,0.189714,0.0488526,8,0.00906357,10,9.26804e-06,-4.31111,-1.88112,-0.0313643,-0.0592111,0.189714,
2,1,0,1,0,14322.5,0.191568,0.191254,0.0487502,8,0.00915606,10,9.32367e-06,-4.31202,2.0842,0.0283082,0.053666,0.191254,
2,1,0,1,0,14324,0.193066,0.192731,0.0483856,8,0.00924881,10,9.32543e-06,-4.31528,0.687921,0.0857656,0.162623,0.192731,
2,1,0,1,0,14325.5,0.194564,0.194219,0.0486823,8,0.00934176,10,9.45503e-06,-4.31263,-2.64876,-0.0222746,-0.0424692,0.194219,
2,1,0,1,0,14327,0.196063,0.195741,0.0484875,8,0.00943456,10,9.49097e-06,-4.31437,-0.799341,-0.0738108,-0.140692,0.195741,
2,1,0,1,0,14328.5,0.197561,0.197208,0.0481988,8,0.009527,10,9.5052e-06,-4.31696,1.01698,0.0580148,0.109793,0.197208,
2,1,0,1,0,14330,0.199059,0.198701,0.0484536,8,0.00961952,10,9.62779e-06,-4.31467,0.952727,0.0619275,0.117536,0.198701,
2,1,0,1,0,14331.5,0.200557,0.200208,0.0485056,8,0.00971218,10,9.71121e-06,-4.31421,2.22897,0.0264696,0.0503615,0.200208,
2,1,0,1,0,14333,0.202055,0.201767,0.0488897,8,0.00980525,10,9.86434e-06,-4.31078,3.0462,0.0193684,0.0369022,0.201767,
2,1,0,1,0,14334.5,0.203554,0.203223,0.0490289,8,0.00989865,10,9.96379e-06,-4.30955,0.584913,0.10087,0.193234,0.203223,
2,1,0,1,0,14336,0.205052,0.204721,0.0492379,8,0.00999193,10,1.008e-05,-4.3077,0.856535,0.0688821,0.133198,0.204721,
2,1,0,1,0,14337.5,0.20655,0.206223,0.0495675,8,0.0100856,10,1.0222e-05,-4.3048,1.31909,0.0447279,0.0865165,0.206223,
2,1,0,1,0,14339,0.208048,0.207732,0.0489951,8,0.0101792,10,1.01778e-05,-4.30985,-2.51173,-0.0234898,-0.0453731,0.207732,
2,1,0,1,0,14340.5,0.209546,0.209255,0.049293,8,0.010273,10,1.03148e-05,-4.30721,0.802583,0.0735127,0.141563,0.209255,
2,1,0,1,0,14342,0.211044,0.210696,0.0495139,8,0.0103666,10,1.04324e-05,-4.30527,101.606,0.000580677,0.00112679,0.210696,
2,1,0,1,0,14343.5,0.212543,0.212232,0.0496231,8,0.0104604,10,1.05316e-05,-4.30432,0.572063,0.103135,0.201034,0.212232,
2,1,0,1,0,14345,0.214041,0.213717,0.0499709,8,0.010555,10,1.06796e-05,-4.30128,0.693347,0.0850945,0.165354,0.213717,
2,1,0,1,0,14346.5,0.215539,0.215268,0.0504108,8,0.01065,10,1.08518e-05,-4.29748,0.457597,0.128935,0.252549,0.215268,
2,1,0,1,0,14348,0.217037,0.216709,0.0507181,8,0.0107449,10,1.09911e-05,-4.29484,1.51843,0.0388559,0.0769624,0.216709,
2,1,0,1,0,14349.5,0.218535,0.218234,0.0507534,8,0.0108406,10,1.10761e-05,-4.29453,0.86231,0.0684208,0.135674,0.218234,
2,1,0,1,0,14351,0.220034,0.219724,0.0511466,8,0.0109367,10,1.12381e-05,-4.29118,1.1492,0.05134,0.102489,0.219724,
2,1,0,1,0,14352.5,0.221532,0.221208,0.0517247,8,0.0110329,10,1.14419e-05,-4.2863,0.778873,0.0757505,0.15134,0.221208,
2,1,0,1,0,14353.9,0.22303,0.222716,0.0511164,8,0.011129,10,1.13845e-05,-4.29144,1.78041,0.0331384,0.0663792,0.222716,
2,1,0,1,0,14355.4,0.224528,0.224181,0.0516514,8,0.0112254,10,1.15793e-05,-4.28692,1.89788,0.0310873,0.0623527,0.224181,
2,1,0,1,0,14356.9,0.226026,0.225708,0.0517758,8,0.011322,10,1.16862e-05,-4.28587,2.96109,0.0199251,0.0398465,0.2257078,
2,1,0,1,0,14358.4,0.227525,0.22725,0.0513494,8,0.0114185,10,1.16691e-05,-4.28946,-9.48362,-0.00622125,-0.0125276,0.22725,
2,1,0,1,0,14359.9,0.229023,0.228703,0.0517674,8,0.0115151,10,1.18394e-05,-4.28594,0.75835,0.0778004,0.157351,0.228703,
2,1,0,1,0,14361.4,0.230521,0.230235,0.0519679,8,0.0116119,10,1.19648e-05,-4.28426,0.830322,0.0710568,0.144461,0.230235,
2,1,0,1,0,14362.9,0.232019,0.23167,0.0523655,8,0.0117091,10,1.21315e-05,-4.28096,2.08313,0.0283227,0.0575474,0.23167,
2,1,0,1,0,14364.4,0.233517,0.233202,0.0518203,8,0.0118067,10,1.20846e-05,-4.2855,1.58298,0.0372715,0.075891,0.233202,
2,1,0,1,0,14365.9,0.235016,0.234695,0.052581,8,0.011904,10,1.23405e-05,-4.27917,1.32749,0.0444447,0.0909391,0.234695,
2,1,0,1,0,14367.4,0.236514,0.236189,0.0526563,8,0.0120019,10,1.24368e-05,-4.27855,1.05157,0.0561068,0.113921,0.236189,
2,1,0,1,0,14368.9,0.238012,0.23774,0.052732,8,0.0120999,10,1.25365e-05,-4.27793,1.46213,0.0403522,0.0829006,0.2377401,
2,1,0,1,0,14370.4,0.23951,0.239207,0.0531489,8,0.012198,10,1.27136e-05,-4.27451,0.452475,0.130394,0.26853,0.239207,
2,1,0,1,0,14371.9,0.241008,0.240707,0.0535471,8,0.0122966,10,1.28892e-05,-4.27126,1.60534,0.0367523,0.0764888,0.240707,
2,1,0,1,0,14373.4,0.242506,0.242162,0.0533408,8,0.0123953,10,1.29171e-05,-4.27294,0.586897,0.100529,0.20893,0.242162,
2,1,0,1,0,14374.9,0.244005,0.243666,0.0534102,8,0.0124944,10,1.30142e-05,-4.27238,0.481998,0.122407,0.255114,0.243666,
2,1,0,1,0,14376.4,0.245503,0.245226,0.0536604,8,0.0125942,10,1.31589e-05,-4.27035,0.664986,0.0887236,0.185609,0.245226,
2,1,0,1,0,14377.9,0.247001,0.246691,0.0542393,8,0.0126943,10,1.33803e-05,-4.26569,0.975069,0.0605085,0.127694,0.246691,
2,1,0,1,0,14379.4,0.248499,0.248202,0.0540016,8,0.0127942,10,1.34033e-05,-4.26759,0.375932,0.156943,0.333663,0.248202,
2,1,0,1,0,14380.9,0.249997,0.249666,0.0545289,8,0.0128946,10,1.3614e-05,-4.26337,0.68188,0.0865255,0.182719,0.249666,
2,1,0,1,0,14382.4,0.251496,0.251166,0.0549254,8,0.0129959,10,1.37954e-05,-4.26023,1.10901,0.0532006,0.113822,0.251166,
2,1,0,1,0,14383.9,0.252994,0.252724,0.054964,8,0.0130972,10,1.38907e-05,-4.25992,41.7412,0.00141347,0.00303134,0.252724,
2,1,0,1,0,14385.4,0.254492,0.254179,0.0556807,8,0.0131989,10,1.41528e-05,-4.2543,1.15079,0.051269,0.110601,0.254179,
2,1,0,1,0,14386.9,0.25599,0.255676,0.0553821,8,0.0133007,10,1.41599e-05,-4.25663,1.17739,0.0501107,0.108716,0.255676,
2,1,0,1,0,14388.4,0.257488,0.257206,0.055156,8,0.0134028,10,1.41865e-05,-4.25841,1.13878,0.0518096,0.11168,0.257206,
2,1,0,1,0,14389.9,0.258987,0.258668,0.0557607,8,0.0135051,10,1.44235e-05,-4.25367,0.625931,0.0942595,0.205139,0.258668,
2,1,0,1,0,14391.4,0.260485,0.260201,0.0563343,8,0.0136075,10,1.46582e-05,-4.24923,0.7646,0.0771645,0.167659,0.260201,
2,1,0,1,0,14392.9,0.261983,0.261681,0.0565462,8,0.0137105,10,1.47971e-05,-4.2476,1.17821,0.0500761,0.109334,0.2616809,
2,1,0,1,0,14394.4,0.263481,0.263157,0.0562488,8,0.0138135,10,1.48023e-05,-4.24989,0.817723,0.0721515,0.159613,0.263157,
2,1,0,1,0,14395.9,0.264979,0.26467,0.0567556,8,0.0139168,10,1.50215e-05,-4.24599,0.522673,0.112881,0.249099,0.26467,
2,1,0,1,0,14397.4,0.266477,0.266137,0.0569748,8,0.0140206,10,1.51631e-05,-4.24432,0.603083,0.0978307,0.216187,0.2661368,
2,1,0,1,0,14398.9,0.267976,0.26771,0.056606,8,0.0141243,10,1.5154e-05,-4.24714,1.94395,0.0303506,0.0677068,0.26771,
2,1,0,1,0,14400.4,0.269474,0.269185,0.0573721,8,0.0142284,10,1.54437e-05,-4.2413,0.896821,0.0657879,0.146688,0.269185,
2,1,0,1,0,14401.9,0.270972,0.270606,0.0580213,8,0.0143328,10,1.57009e-05,-4.23641,3.12817,0.0188609,0.0422103,0.270606,
2,1,0,1,0,14403.4,0.27247,0.272163,0.0573188,8,0.0144375,10,1.56001e-05,-4.2417,459.829,0.000128308,0.00028727,0.272163,
2,1,0,1,0,14404.9,0.273968,0.273662,0.0571665,8,0.014542,10,1.56443e-05,-4.24286,-4.06733,-0.0145058,-0.032623,0.273662,
2,1,0,1,0,14406.4,0.275467,0.275165,0.0575651,8,0.0146465,10,1.58399e-05,-4.23984,0.766299,0.0769934,0.173443,0.275165,
2,1,0,1,0,14407.9,0.276965,0.276669,0.0581076,8,0.0147511,10,1.60765e-05,-4.23577,0.935818,0.0630465,0.142717,0.2766687,
2,1,0,1,0,14409.4,0.278463,0.27815,0.0581439,8,0.0148561,10,1.61727e-05,-4.2355,0.866666,0.068077,0.153842,0.27815,
2,1,0,1,0,14410.9,0.279961,0.279627,0.0577644,8,0.0149613,10,1.61525e-05,-4.23834,0.472403,0.124893,0.284113,0.279627,
2,1,0,1,0,14412.4,0.281459,0.281179,0.0583535,8,0.0150667,10,1.64078e-05,-4.23393,0.774924,0.0761365,0.173628,0.281179,
2,1,0,1,0,14413.9,0.282958,0.282687,0.0588811,8,0.0151727,10,1.66449e-05,-4.23002,1.02889,0.0573433,0.131495,0.282687,
2,1,0,1,0,14415.4,0.284456,0.284119,0.0591119,8,0.0152792,10,1.67948e-05,-4.22833,0.944758,0.0624498,0.143295,0.284119,
2,1,0,1,0,14416.9,0.285954,0.285644,0.0586886,8,0.0153855,10,1.6764e-05,-4.23145,2.32968,0.0253254,0.0584949,0.285644,
2,1,0,1,0,14418.4,0.287452,0.287127,0.0596967,8,0.0154918,10,1.71405e-05,-4.22405,2.47457,0.0238425,0.0550136,0.287127,
2,1,0,1,0,14419.9,0.28895,0.288674,0.0591744,8,0.0155983,10,1.70821e-05,-4.22787,0.902743,0.0653563,0.150558,0.2886737,
2,1,0,1,0,14421.4,0.290448,0.29012,0.0591774,8,0.0157051,10,1.71685e-05,-4.22784,0.824922,0.0715219,0.165788,0.29012,
2,1,0,1,0,14422.9,0.291947,0.291613,0.0594528,8,0.0158121,10,1.73372e-05,-4.22583,0.713809,0.0826551,0.193591,0.291613,
2,1,0,1,0,14424.4,0.293445,0.293141,0.059769,8,0.0159196,10,1.75208e-05,-4.22352,0.633899,0.0930748,0.218145,0.2931411,
2,1,0,1,0,14425.9,0.294943,0.294612,0.0601442,8,0.0160273,10,1.77192e-05,-4.22081,0.706333,0.08353,0.195565,0.294612,
2,1,0,1,0,14427.4,0.296441,0.296133,0.0603632,8,0.0161355,10,1.78755e-05,-4.21923,0.750312,0.0786339,0.184647,0.296133,
2,1,0,1,0,14428.9,0.297939,0.297696,0.0609732,8,0.016244,10,1.81515e-05,-4.21486,0.522966,0.112818,0.268004,0.297696,
2,1,0,1,0,14430.4,0.299438,0.299152,0.0610465,8,0.0163528,10,1.82622e-05,-4.21434,-0.00534596,-11.0364,-17.8584,0.299152,
2,1,0,1,0,14431.2,0.299737,0.299463,0.0332258,8,0.0164011,10,9.94991e-06,-4.47852,0.00245674,24.0155,34.5487,0.2994633,
2,1,0,1,0,14432.7,0.298239,0.297946,0.0218456,8,0.0164224,10,6.5088e-06,-4.66064,0.00656033,8.99345,12.0336,0.297946,
2,1,0,1,0,14434.2,0.296741,0.296451,0.0179118,8,0.0164337,10,5.30995e-06,-4.74686,0.0163859,3.60065,2.57119,0.2964507,
2,1,0,1,0,14435.7,0.295243,0.294936,0.0143708,8,0.0164396,10,4.23848e-06,-4.84252,0.0200316,2.94534,1.71885,0.294936,
2,1,0,1,0,14437.2,0.293745,0.29347,0.011857,8,0.0164416,10,3.47968e-06,-4.92602,0.0178398,3.30721,1.5829,0.29347,
2,1,0,1,0,14438.7,0.292246,0.291952,0.0100142,8,0.0164404,10,2.92368e-06,-4.99938,0.0175701,3.35799,1.32811,0.291952,
2,1,0,1,0,14440.2,0.290748,0.29044,0.00809002,8,0.0164359,10,2.34967e-06,-5.09205,0.016671,3.53909,1.10982,0.29044,
2,1,0,1,0,14441.7,0.28925,0.288912,0.00642652,8,0.0164289,10,1.8567e-06,-5.19202,0.0144196,4.09164,0.989469,0.288912,
2,1,0,1,0,14443.2,0.287752,0.287469,0.00497597,8,0.0164194,10,1.43044e-06,-5.30312,0.0123333,4.78379,0.947153,0.287469,
2,1,0,1,0,14444.7,0.286254,0.285957,0.00313279,8,0.0164077,10,8.95842e-07,-5.50407,0.011306,5.21846,0.696495,0.2859568,
2,1,0,1,0,14446.2,0.284755,0.284447,0.00263807,8,0.0163942,10,7.50392e-07,-5.57871,0.00446911,13.2017,0.840542,0.284447,
2,1,0,1,0,14447.7,0.283257,0.282947,0.00151392,8,0.0163789,10,4.2836e-07,-5.8199,0.00456525,12.9237,0.90077,0.282947,
2,1,0,1,0,14449.2,0.281759,0.281453,0.00015931,8,0.0163618,10,4.48384e-08,-6.79776,0.0244062,2.41741,0.795138,0.281453,
2,1,0,1,0,14450.7,0.280261,0.279969,-0.000673297,8,0.016343,10,-1.88502e-07,-6.17179,-0.00844633,-6.98528,0.820398,0.279969,
2,1,0,1,0,14452.2,0.278763,0.278454,-0.00175961,8,0.0163228,10,-4.89971e-07,-5.75458,-0.00614217,-9.60573,0.658188,0.278454,
2,0,0,1,0,14453.7,0.277264,0.276937,-0.00299942,8,0.0163012,10,-8.30651e-07,-5.52296,-0.00969545,-6.08533,0.580876,0.276937,
2,0,0,1,0,14455.2,0.275766,0.275479,-0.00408858,8,0.0162777,10,-1.12632e-06,-5.38843,-0.0159043,-3.7097,0.521763,0.275479,
2,0,0,1,0,14456.7,0.274268,0.273923,-0.00453081,8,0.0162531,10,-1.24109e-06,-5.34382,-0.01671,-3.53082,0.617909,0.273923,
2,1,0,1,0,14458.2,0.27277,0.272464,-0.00565365,8,0.0162275,10,-1.54042e-06,-5.24767,-0.021801,-2.7063,0.599544,0.272464,
2,1,0,1,0,14459.7,0.271272,0.270977,-0.00646228,8,0.0162003,10,-1.75113e-06,-5.18961,-0.0264693,-2.229,0.567592,0.270977,
2,1,0,1,0,14461.2,0.269774,0.269488,-0.00741732,8,0.0161716,10,-1.99888e-06,-5.12975,-0.0318773,-1.85084,0.507243,0.269488,
2,0,0,1,0,14462.7,0.268275,0.267959,-0.0081417,8,0.0161418,10,-2.18164e-06,-5.08928,-0.0343756,-1.71633,0.51906,0.267959,
2,0,0,1,0,14464.2,0.266777,0.266441,-0.00852797,8,0.0161112,10,-2.2722e-06,-5.06915,-0.0430427,-1.37073,0.472284,0.266441,
2,0,0,1,0,14465.7,0.265279,0.264989,-0.00994764,8,0.0160795,10,-2.63602e-06,-5.00228,-0.0360077,-1.63854,0.589877,0.264989,
2,0,0,1,0,14467.2,0.263781,0.263478,-0.00988657,8,0.0160466,10,-2.6049e-06,-5.00495,-0.0387875,-1.52111,0.596463,0.263478,
2,0,0,1,0,14468.7,0.262283,0.261994,-0.0112197,8,0.0160127,10,-2.93948e-06,-4.95002,-0.0669522,-0.881226,0.365877,0.2619938,
2,0,0,1,0,14470.2,0.260784,0.260465,-0.0115614,8,0.0159776,10,-3.01134e-06,-4.93699,-0.0535385,-1.10201,0.49039,0.260465,
2,0,0,1,0,14471.7,0.259286,0.258924,-0.0120643,8,0.0159418,10,-3.12372e-06,-4.9185,-0.0561966,-1.04989,0.500605,0.258924,
2,0,0,1,0,14473.2,0.257788,0.257427,-0.0130662,8,0.0159047,10,-3.36359e-06,-4.88385,-0.0574526,-1.02693,0.505836,0.257427,
2,0,0,1,0,14474.7,0.25629,0.255963,-0.0137248,8,0.0158662,10,-3.51305e-06,-4.86249,-0.0738585,-0.798824,0.42819,0.255963,
2,0,0,1,0,14476.2,0.254792,0.25448,-0.0142282,8,0.015827,10,-3.62079e-06,-4.84685,-0.0848405,-0.695423,0.377348,0.25448,
2,0,0,1,0,14477.6,0.253293,0.252952,-0.0146597,8,0.0157871,10,-3.70819e-06,-4.83388,-0.131942,-0.447166,0.255698,0.252952,
2,0,0,1,0,14479.1,0.251795,0.251525,-0.0149422,8,0.0157465,10,-3.75834e-06,-4.82559,-0.09005,-0.655192,0.384055,0.251525,
2,0,0,1,0,14480.6,0.250297,0.249992,-0.0156458,8,0.0157048,10,-3.91133e-06,-4.8056,-0.0922214,-0.639765,0.391798,0.249992,
2,0,0,1,0,14482.1,0.248799,0.2485,-0.0165876,8,0.0156622,10,-4.12201e-06,-4.78022,-0.137147,-0.430196,0.276494,0.2485,
2,0,0,1,0,14483.6,0.247301,0.246956,-0.0170027,8,0.0156186,10,-4.19893e-06,-4.76948,-0.0869179,-0.678801,0.453107,0.246956,
2,0,0,1,0,14485.1,0.245802,0.24553,-0.0175733,8,0.0155741,10,-4.31476e-06,-4.75515,-0.10403,-0.567144,0.388862,0.24553,
2,0,0,1,0,14486.6,0.244304,0.243994,-0.018548,8,0.0155284,10,-4.52561e-06,-4.7317,-0.0834507,-0.707004,0.500642,0.243994,
2,0,0,1,0,14488.1,0.242806,0.242529,-0.0186911,8,0.0154819,10,-4.53315e-06,-4.72836,-0.117401,-0.502551,0.371162,0.242529,
2,0,0,1,0,14489.6,0.241308,0.241022,-0.0195908,8,0.0154345,10,-4.72181e-06,-4.70795,-0.110964,-0.531706,0.407396,0.241022,
2,0,0,1,0,14491.1,0.23981,0.239526,-0.019965,8,0.015386,10,-4.78214e-06,-4.69973,-0.144918,-0.407127,0.313848,0.239526,
2,0,0,1,0,14492.6,0.238312,0.237987,-0.0203506,8,0.0153368,10,-4.84318e-06,-4.69142,-0.202942,-0.290724,0.234281,0.237987,
2,0,0,1,0,14494.1,0.236813,0.23649,-0.0208836,8,0.0152871,10,-4.93876e-06,-4.6802,-0.122278,-0.482509,0.393602,0.23649,
2,0,0,1,0,14495.6,0.235315,0.235013,-0.0214182,8,0.0152365,10,-5.03354e-06,-4.66922,-0.135999,-0.433826,0.361266,0.235013,
2,0,0,1,0,14497.1,0.233817,0.233513,-0.0222312,8,0.0151847,10,-5.19129e-06,-4.65304,-0.135221,-0.436322,0.377735,0.233513,
2,0,0,1,0,14498.6,0.232319,0.232014,-0.022954,8,0.0151321,10,-5.32566e-06,-4.63914,-0.143878,-0.41007,0.362231,0.232014,
2,0,0,1,0,14500.1,0.230821,0.230486,-0.0234149,8,0.0150786,10,-5.3968e-06,-4.63051,-0.119353,-0.494332,0.452182,0.230486,
2,0,0,1,0,14501.6,0.229322,0.229034,-0.0239366,8,0.0150243,10,-5.48229e-06,-4.62094,-0.168747,-0.349636,0.320643,0.229034,
2,0,0,1,0,14503.1,0.227824,0.227497,-0.0241593,8,0.0149693,10,-5.49616e-06,-4.61692,-0.143512,-0.411117,0.389672,0.227497,
2,0,0,1,0,14504.6,0.226326,0.225998,-0.0249788,8,0.0149134,10,-5.64517e-06,-4.60243,-0.179678,-0.328364,0.32097,0.225998,
2,0,0,1,0,14506.1,0.224828,0.224537,-0.0252765,8,0.0148565,10,-5.67552e-06,-4.59728,-0.148885,-0.396278,0.401234,0.224537,
2,0,0,1,0,14507.6,0.22333,0.222997,-0.0262288,8,0.0147988,10,-5.84895e-06,-4.58122,-0.182095,-0.324007,0.326894,0.222997,
2,0,0,1,0,14509.1,0.221831,0.221558,-0.0265053,8,0.0147404,10,-5.87247e-06,-4.57667,-0.124416,-0.474214,0.490557,0.221558,
2,0,0,1,0,14510.6,0.220333,0.220065,-0.027051,8,0.0146811,10,-5.95299e-06,-4.56782,-0.175882,-0.335453,0.356624,0.220065,
2,0,0,1,0,14512.1,0.218835,0.218514,-0.0279576,8,0.0146207,10,-6.10913e-06,-4.5535,-0.373778,-0.157848,0.170505,0.218514,
2,0,0,1,0,14513.6,0.217337,0.217047,-0.027676,8,0.0145597,10,-6.00701e-06,-4.5579,-0.233439,-0.252742,0.273962,0.217047,
2,0,0,1,0,14515.1,0.215839,0.215573,-0.0284347,8,0.0144986,10,-6.12977e-06,-4.54615,-0.154997,-0.380654,0.424142,0.215573,
2,0,0,1,0,14516.6,0.21434,0.214035,-0.0292055,8,0.0144363,10,-6.251e-06,-4.53453,-0.122169,-0.482939,0.544174,0.214035,
2,0,0,1,0,14518.1,0.212842,0.212529,-0.030068,8,0.0143726,10,-6.39033e-06,-4.52189,-0.161544,-0.365226,0.423419,0.212529,
2,0,0,1,0,14519.6,0.211344,0.211022,-0.0303039,8,0.0143079,10,-6.3948e-06,-4.5185,-0.234511,-0.251587,0.302611,0.211022,
2,0,0,1,0,14521.1,0.209846,0.20954,-0.031038,8,0.0142428,10,-6.5037e-06,-4.50811,-0.224713,-0.262557,0.316122,0.20954,
2,0,0,1,0,14522.6,0.208348,0.208055,-0.0313414,8,0.0141765,10,-6.52075e-06,-4.50388,-0.160546,-0.367495,0.449642,0.208055,
2,0,0,1,0,14524.1,0.20685,0.206543,-0.0323606,8,0.0141092,10,-6.68386e-06,-4.48998,-0.243549,-0.242251,0.3025,0.206543,
2,0,0,1,0,14525.6,0.205351,0.205026,-0.0330074,8,0.014041,10,-6.76736e-06,-4.48139,-0.179996,-0.327784,0.413409,0.205026,
2,0,0,1,0,14527.1,0.203853,0.203512,-0.033338,8,0.0139722,10,-6.78469e-06,-4.47706,-0.183276,-0.32192,0.41726,0.203512,
2,0,0,1,0,14528.6,0.202355,0.202014,-0.0337651,8,0.0139026,10,-6.82102e-06,-4.47153,-0.188086,-0.313686,0.417999,0.202014,
2,0,0,1,0,14530.1,0.200857,0.200552,-0.0347022,8,0.0138316,10,-6.95959e-06,-4.45964,-0.145612,-0.405187,0.546353,0.2005517,
2,0,0,1,0,14531.6,0.199359,0.199039,-0.0350521,8,0.0137593,10,-6.97671e-06,-4.45529,-0.190749,-0.309307,0.423864,0.199039,
2,0,0,1,0,14533.1,0.19786,0.19757,-0.0362346,8,0.0136864,10,-7.15887e-06,-4.44088,-0.139416,-0.423193,0.595448,0.19757,
2,0,0,1,0,14534.6,0.196362,0.196017,-0.0366171,8,0.0136122,10,-7.17759e-06,-4.43632,-0.148422,-0.397515,0.56439,0.196017,
2,0,0,1,0,14536.1,0.194864,0.194549,-0.037225,8,0.013537,10,-7.24208e-06,-4.42917,-0.200911,-0.293663,0.428551,0.194549,
2,0,0,1,0,14537.6,0.193366,0.193069,-0.0381325,8,0.0134605,10,-7.36222e-06,-4.4187,-0.154438,-0.382029,0.563928,0.193069,
2,0,0,1,0,14539.1,0.191868,0.19157,-0.0385637,8,0.0133832,10,-7.38765e-06,-4.41382,-0.26081,-0.226219,0.340946,0.19157,
2,0,0,1,0,14540.6,0.190369,0.190079,-0.0391128,8,0.0133051,10,-7.43452e-06,-4.40768,-0.195826,-0.301287,0.461873,0.190079,
2,0,0,1,0,14542.1,0.188871,0.188551,-0.0396525,8,0.0132259,10,-7.47653e-06,-4.40173,-0.248093,-0.237814,0.368922,0.188551,
2,0,0,1,0,14543.6,0.187373,0.187057,-0.0402371,8,0.0131456,10,-7.52662e-06,-4.39537,-0.198531,-0.297183,0.472656,0.187057,
2,0,0,1,0,14545.1,0.185875,0.18559,-0.0416442,8,0.0130642,10,-7.72876e-06,-4.38045,-0.187294,-0.315013,0.505962,0.18559,
2,0,0,1,0,14546.6,0.184377,0.184125,-0.0419571,8,0.0129813,10,-7.72535e-06,-4.37719,-0.202127,-0.291895,0.478019,0.184125,
2,0,0,1,0,14548.1,0.182878,0.182576,-0.0433233,8,0.0128972,10,-7.90978e-06,-4.36328,-0.182951,-0.32249,0.54264,0.1825757,
2,0,0,1,0,14549.6,0.18138,0.181101,-0.0447798,8,0.0128113,10,-8.10966e-06,-4.34892,-0.203333,-0.290164,0.497786,0.181101,
2,0,0,1,0,14551.1,0.179882,0.179585,-0.0448527,8,0.0127241,10,-8.05488e-06,-4.34821,-0.466893,-0.126367,0.220102,0.179585,
2,0,0,1,0,14552.6,0.178384,0.178055,-0.0453652,8,0.012636,10,-8.07751e-06,-4.34328,-0.160427,-0.367768,0.660818,0.178055,
2,0,0,1,0,14554.1,0.176886,0.176547,-0.0463949,8,0.0125469,10,-8.19089e-06,-4.33353,-0.138091,-0.427253,0.775043,0.176547,
2,0,0,1,0,14555.6,0.175388,0.175065,-0.04769,8,0.0124558,10,-8.34885e-06,-4.32157,-0.181104,-0.325779,0.604863,0.175065,
2,0,0,1,0,14557.1,0.173889,0.173569,-0.0484069,8,0.0123632,10,-8.40192e-06,-4.31509,-0.155251,-0.38003,0.71974,0.173569,
2,0,0,1,0,14558.6,0.172391,0.172066,-0.0498532,8,0.0122691,10,-8.57803e-06,-4.30231,-0.162016,-0.364161,0.707122,0.172066,
2,0,0,1,0,14560.1,0.170893,0.170611,-0.0505865,8,0.0121732,10,-8.63062e-06,-4.29597,-0.155017,-0.380604,0.752819,0.170611,
2,0,0,1,0,14561.5,0.169395,0.169087,-0.0524144,8,0.0120753,10,-8.8626e-06,-4.28055,-0.125673,-0.469472,0.953301,0.169087,
2,0,0,1,0,14563,0.167897,0.167586,-0.0530151,8,0.0119754,10,-8.88457e-06,-4.2756,-0.137744,-0.428331,0.896077,0.167586,
2,0,0,1,0,14564.5,0.166398,0.166073,-0.0547497,8,0.0118733,10,-9.09243e-06,-4.26162,-0.139306,-0.423528,0.906411,0.166073,
2,0,0,1,0,14566,0.1649,0.164627,-0.0557644,8,0.0117693,10,-9.18034e-06,-4.25364,-0.123657,-0.477128,1.04688,0.164627,
2,0,0,1,0,14567.5,0.163402,0.163101,-0.057396,8,0.0116629,10,-9.36136e-06,-4.24112,-0.128358,-0.459653,1.03313,0.1631013,
2,0,0,1,0,14569,0.161904,0.161584,-0.0590632,8,0.011554,10,-9.54367e-06,-4.22868,-0.135673,-0.434868,1.00538,0.161584,
2,0,0,1,0,14570.5,0.160406,0.160098,-0.0607793,8,0.0114427,10,-9.73065e-06,-4.21624,-0.132478,-0.445356,1.06294,0.160098,
2,0,0,1,0,14572,0.158907,0.158619,-0.0625433,8,0.0113287,10,-9.92055e-06,-4.20382,-0.118922,-0.496125,1.20984,0.158619,
2,0,0,1,0,14573.5,0.157409,0.157124,-0.0648348,8,0.0112117,10,-1.01871e-05,-4.18819,-0.100693,-0.58594,1.4814,0.157124,
2,0,0,1,0,14575,0.155911,0.155599,-0.0673323,8,0.0110914,10,-1.04768e-05,-4.17178,-0.0947885,-0.622439,1.6372,0.155599,
2,0,0,1,0,14576.5,0.154413,0.154076,-0.0693979,8,0.0109669,10,-1.06926e-05,-4.15865,-0.0934697,-0.63122,1.71276,0.154076,
2,0,0,1,0,14578,0.152915,0.152609,-0.072525,8,0.0108384,10,-1.10679e-05,-4.13951,-0.0838378,-0.70374,2.00138,0.152609,
2,0,0,1,0,14579.5,0.151417,0.151119,-0.0755863,8,0.0107054,10,-1.14225e-05,-4.12156,-0.082734,-0.713129,2.10049,0.151119,
2,0,0,1,0,14581,0.149918,0.149625,-0.0789474,8,0.0105671,10,-1.18125e-05,-4.10266,-0.0777082,-0.75925,2.34049,0.1496246,
2,0,0,1,0,14582.5,0.14842,0.148106,-0.0827587,8,0.0104235,10,-1.22571e-05,-4.08219,-0.0715074,-0.82509,2.67012,0.148106,
2,0,0,1,0,14584,0.146922,0.14658,-0.086995,8,0.0102737,10,-1.27518e-05,-4.06051,-0.0655111,-0.90061,3.05662,0.14658,
2,0,0,1,0,14585.5,0.145424,0.145079,-0.0911493,8,0.0101178,10,-1.32238e-05,-4.04025,-0.0704344,-0.837659,2.98861,0.145079,
2,0,0,1,0,14587,0.143926,0.143633,-0.0959381,8,0.0099543,10,-1.37799e-05,-4.01801,-0.0627073,-0.940879,3.51727,0.143633,
2,0,0,1,0,14588.5,0.142427,0.142149,-0.101678,8,0.009783,10,-1.44534e-05,-3.99277,-0.0656556,-0.898629,3.56337,0.142149,
2,0,0,1,0,14590,0.140929,0.140596,-0.107081,8,0.00960372,10,-1.50551e-05,-3.97029,-0.0649906,-0.907824,3.80095,0.140596,
2,0,0,1,0,14591.5,0.139431,0.139079,-0.112173,8,0.00941637,10,-1.56009e-05,-3.95011,-0.0699612,-0.843325,3.70545,0.139079,
2,0,0,1,0,14593,0.137933,0.137622,-0.118342,8,0.00922013,10,-1.62865e-05,-3.92686,-0.0720812,-0.818521,3.75744,0.137622,
2,0,0,1,0,14594.5,0.136435,0.136102,-0.123879,8,0.00901536,10,-1.68602e-05,-3.907,-0.0785997,-0.750639,3.61722,0.136102,
2,0,0,1,0,14596,0.134936,0.13461,-0.128962,8,0.00880237,10,-1.73596e-05,-3.88954,-0.0933669,-0.631915,3.16928,0.13461,
2,0,0,1,0,14597.5,0.133438,0.133094,-0.13358,8,0.00858184,10,-1.77787e-05,-3.87426,-0.0995643,-0.592582,3.08192,0.133094,
2,0,0,1,0,14599,0.13194,0.13162,-0.138406,8,0.00835476,10,-1.8217e-05,-3.85884,-0.115645,-0.510182,2.74954,0.13162,
2,0,0,1,0,14600.5,0.130442,0.130119,-0.141932,8,0.00812131,10,-1.84681e-05,-3.84792,-0.149731,-0.394039,2.18128,0.130119,
2,0,0,1,0,14602,0.128944,0.128614,-0.144877,8,0.0078827,10,-1.86332e-05,-3.839,-0.208175,-0.283416,1.59504,0.128614,
2,0,0,1,0,14603.5,0.127445,0.127133,-0.147735,8,0.00763979,10,-1.87821e-05,-3.83052,-0.205622,-0.286934,1.64556,0.127133,
2,0,0,1,0,14605,0.125947,0.125639,-0.149081,8,0.00739461,10,-1.87305e-05,-3.82658,-0.375643,-0.157064,0.910937,0.125639,
2,0,0,1,0,14606.5,0.124449,0.124132,-0.149939,8,0.00714656,10,-1.86122e-05,-3.82409,-0.424539,-0.138974,0.813077,0.124132,
2,0,0,1,0,14608,0.122951,0.12268,-0.151065,8,0.00689723,10,-1.85326e-05,-3.82084,-0.825355,-0.0714844,0.420264,0.1226797,
2,0,0,1,0,14609.5,0.121453,0.121104,-0.152468,8,0.0066466,10,-1.84645e-05,-3.81682,-2.12616,-0.0277495,0.163643,0.121104,
2,0,0,1,0,14611,0.119955,0.119576,-0.151893,8,0.00639615,10,-1.81627e-05,-3.81846,-8.5803,-0.00687622,0.0406711,0.1195759,
2,0,0,1,0,14612.5,0.118456,0.118138,-0.151395,8,0.0061453,10,-1.78855e-05,-3.81989,-2.09341,-0.0281837,0.166651,0.118138,
2,0,0,1,0,14614,0.116958,0.116651,-0.150757,8,0.00589479,10,-1.7586e-05,-3.82172,0.792846,0.0744155,-0.437892,0.116651,
2,0,0,1,0,14615.5,0.11546,0.115132,-0.15029,8,0.00564531,10,-1.73031e-05,-3.82307,0.651715,0.0905303,-0.532135,0.115132,
2,0,0,1,0,14617,0.113962,0.113623,-0.148443,8,0.00539743,10,-1.68665e-05,-3.82844,0.745112,0.0791827,-0.461783,0.113623,
2,0,0,1,0,14618.5,0.112464,0.112132,-0.149108,8,0.00515053,10,-1.67198e-05,-3.8265,0.870806,0.0677533,-0.39375,0.112132,
2,0,0,1,0,14620,0.110965,0.11061,-0.148767,8,0.00490429,10,-1.64552e-05,-3.82749,0.96523,0.0611253,-0.353456,0.11061,
2,0,0,1,0,14621.5,0.109467,0.109148,-0.147743,8,0.00465902,10,-1.61258e-05,-3.83049,0.497749,0.118534,-0.683272,0.109148,
2,0,0,1,0,14623,0.107969,0.10764,-0.146591,8,0.0044153,10,-1.57791e-05,-3.83389,0.559738,0.105407,-0.603061,0.10764,
2,0,0,1,0,14624.5,0.106471,0.106184,-0.146311,8,0.00417302,10,-1.55359e-05,-3.83472,0.701324,0.0841266,-0.47929,0.106184,
2,0,0,1,0,14626,0.104973,0.104611,-0.144933,8,0.00393172,10,-1.51617e-05,-3.83883,0.568203,0.103836,-0.58506,0.104611,
2,0,0,1,0,14627.5,0.103474,0.103159,-0.1443,8,0.00369176,10,-1.48858e-05,-3.84073,0.330107,0.17873,-0.999063,0.103159,
2,0,0,1,0,14629,0.101976,0.10162,-0.142621,8,0.00345401,10,-1.44931e-05,-3.84582,0.433882,0.135982,-0.756435,0.10162,
2,0,0,1,0,14630.5,0.100478,0.100183,-0.141783,8,0.0032184,10,-1.42042e-05,-3.84838,0.439835,0.134141,-0.739246,0.100183,
2,0,0,1,0,14632,0.0989798,0.0986498,-0.140816,8,0.00298402,10,-1.38915e-05,-3.85135,0.431706,0.136667,-0.747719,0.0986498,
2,0,0,1,0,14633.5,0.0974816,0.0971567,-0.138739,8,0.00275123,10,-1.34794e-05,-3.8578,0.422365,0.13969,-0.757686,0.0971567,
2,0,0,1,0,14635,0.0959834,0.0956255,-0.137843,8,0.00252051,10,-1.31813e-05,-3.86062,0.342783,0.172121,-0.928693,0.0956255,
2,0,0,1,0,14636.5,0.0944852,0.0941515,-0.136217,8,0.00229226,10,-1.2825e-05,-3.86577,0.405788,0.145396,-0.7786,0.0941515,
2,0,0,1,0,14638,0.0929871,0.0926607,-0.134657,8,0.00206556,10,-1.24774e-05,-3.87077,0.586499,0.100597,-0.530625,0.0926607,
2,0,0,1,0,14639.5,0.0914889,0.0911962,-0.134602,8,0.00184004,10,-1.22752e-05,-3.87095,0.372081,0.158567,-0.830997,0.0911962,
2,0,0,1,0,14641,0.0899907,0.089665,-0.133295,8,0.00161666,10,-1.19519e-05,-3.87519,0.359376,0.164174,-0.853246,0.089665,
2,0,0,1,0,14642.5,0.0884925,0.0881772,-0.130793,8,0.00139541,10,-1.1533e-05,-3.88341,0.345945,0.170547,-0.879268,0.0881772,
2,0,0,1,0,14643.9,0.0869943,0.0866969,-0.13121,8,0.00117596,10,-1.13755e-05,-3.88203,0.321433,0.183553,-0.93346,0.0866969,
2,0,0,1,0,14645.4,0.0854961,0.0851614,-0.129369,8,0.000958207,10,-1.10173e-05,-3.88817,0.312025,0.189087,-0.952314,0.0851614,
2,0,0,1,0,14646.9,0.083998,0.0836621,-0.127878,8,0.000742463,10,-1.06986e-05,-3.8932,0.263101,0.224249,-1.12212,0.0836621,
2,0,0,1,0,14648.4,0.0824998,0.0821797,-0.127481,8,0.00052849,10,-1.04763e-05,-3.89456,0.383868,0.153699,-0.764857,0.0821797,
2,0,0,1,0,14649.9,0.0810016,0.0806526,-0.125877,8,0.000316314,10,-1.01523e-05,-3.90006,0.546349,0.10799,-0.533521,0.0806526,
2,0,0,1,0,14651.4,0.0795034,0.0792041,-0.125424,8,0.000105052,10,-9.93414e-06,-3.90162,0.381056,0.154833,-0.758782,0.07920412,
2,0,0,1,0,14652.9,0.0780052,0.0776898,-0.124692,8,-0.000104943,10,-9.6873e-06,-3.90416,0.443226,0.133115,-0.646643,0.0776898,
2,0,0,1,0,14654.4,0.076507,0.0762212,-0.12432,8,-0.000313515,10,-9.47584e-06,-3.90546,0.41315,0.142805,-0.688561,0.0762212,
2,0,0,1,0,14655.9,0.0750088,0.0746974,-0.123407,8,-0.000520848,10,-9.21821e-06,-3.90866,0.627943,0.0939575,-0.450602,0.0746974,
2,0,0,1,0,14657.4,0.0735106,0.0732192,-0.122799,8,-0.000727348,10,-8.99127e-06,-3.9108,0.597519,0.0987416,-0.472362,0.0732192,
2,0,0,1,0,14658.9,0.0720124,0.0717017,-0.121841,8,-0.000932906,10,-8.7362e-06,-3.91421,0.952746,0.0619262,-0.294942,0.0717017,
2,0,0,1,0,14660.4,0.0705142,0.0702033,-0.121339,8,-0.00113747,10,-8.51842e-06,-3.916,0.636688,0.0926671,-0.43873,0.0702033,
2,0,0,1,0,14661.9,0.069016,0.068705,-0.120294,8,-0.00134086,10,-8.26477e-06,-3.91976,1.04699,0.0563519,-0.26547,0.068705,
2,0,0,1,0,14663.4,0.0675178,0.0671844,-0.119919,8,-0.00154378,10,-8.0567e-06,-3.92111,1.18087,0.049963,-0.233725,0.0671844,
2,0,0,1,0,14664.9,0.0660196,0.0656669,-0.120121,8,-0.00174571,10,-7.88799e-06,-3.92038,0.465891,0.126639,-0.589606,0.0656669,
2,0,0,1,0,14666.4,0.0645214,0.0642247,-0.118624,8,-0.00194691,10,-7.6186e-06,-3.92583,0.738346,0.0799083,-0.369669,0.0642247,
2,0,0,1,0,14667.9,0.0630233,0.0627042,-0.117286,8,-0.00214657,10,-7.35431e-06,-3.93075,0.924561,0.0638141,-0.294062,0.0627042,
2,0,0,1,0,14669.4,0.0615251,0.0612239,-0.117677,8,-0.00234538,10,-7.20462e-06,-3.92931,0.723741,0.0815208,-0.374176,0.0612239,
2,0,0,1,0,14670.9,0.0600269,0.0597319,-0.117256,8,-0.00254374,10,-7.00392e-06,-3.93086,0.58824,0.100299,-0.457971,0.0597319,
2,0,0,1,0,14672.4,0.0585287,0.0582059,-0.116336,8,-0.00274096,10,-6.77147e-06,-3.93428,0.376617,0.156658,-0.711462,0.0582059,
2,0,0,1,0,14673.9,0.0570305,0.0567171,-0.115568,8,-0.002937,10,-6.55471e-06,-3.93716,0.539492,0.109362,-0.494677,0.0567171,
2,0,0,1,0,14675.4,0.0555323,0.0552315,-0.115096,8,-0.00313158,10,-6.35694e-06,-3.93894,0.986573,0.059803,-0.268806,0.0552315,
2,0,0,1,0,14676.9,0.0540342,0.0537236,-0.114736,8,-0.00332578,10,-6.16403e-06,-3.9403,0.62169,0.0949026,-0.422365,0.0537236,
2,0,0,1,0,14678.4,0.052536,0.0522189,-0.113837,8,-0.00351945,10,-5.94444e-06,-3.94372,0.700605,0.0842129,-0.373245,0.0522189,
2,0,0,1,0,14679.9,0.0510378,0.0507174,-0.112804,8,-0.00371172,10,-5.72113e-06,-3.94768,0.700327,0.0842463,-0.371232,0.0507174,
2,0,0,1,0,14681.4,0.0495396,0.0492275,-0.11271,8,-0.00390273,10,-5.54845e-06,-3.94804,0.564566,0.104505,-0.46026,0.0492275,
2,0,0,1,0,14682.9,0.0480414,0.0477016,-0.112542,8,-0.00409371,10,-5.36845e-06,-3.94868,3.2058,0.0184041,-0.0806286,0.0477016,
2,0,0,1,0,14684.4,0.0465432,0.0462032,-0.111546,8,-0.00428348,10,-5.15376e-06,-3.95255,0.605868,0.097381,-0.424104,0.0462032,
2,0,0,1,0,14685.9,0.045045,0.0447186,-0.111532,8,-0.00447279,10,-4.98756e-06,-3.9526,0.582161,0.101346,-0.438564,0.0447186,
2,0,0,1,0,14687.4,0.0435468,0.0432319,-0.109772,8,-0.00466025,10,-4.74567e-06,-3.95951,0.63421,0.0930291,-0.400716,0.0432319,
2,0,0,1,0,14688.9,0.0420486,0.0417198,-0.109856,8,-0.0048472,10,-4.58318e-06,-3.95918,1.98184,0.0297703,-0.127142,0.0417198,
2,0,0,1,0,14690.4,0.0405504,0.0402458,-0.109825,8,-0.00503331,10,-4.41999e-06,-3.9593,0.44645,0.132154,-0.560981,0.0402458,
2,0,0,1,0,14691.9,0.0390522,0.0387507,-0.1088,8,-0.00521858,10,-4.21608e-06,-3.96337,0.651425,0.0905706,-0.382678,0.0387507,
2,0,0,1,0,14693.4,0.037554,0.0372385,-0.107617,8,-0.00540261,10,-4.00749e-06,-3.96812,0.7101,0.0830868,-0.348069,0.0372385,
2,0,0,1,0,14694.9,0.0360558,0.0357634,-0.107275,8,-0.00558555,10,-3.83654e-06,-3.9695,0.534875,0.110306,-0.464023,0.0357634,
2,0,0,1,0,14696.4,0.0345576,0.0343001,-0.106559,8,-0.00576776,10,-3.65498e-06,-3.97241,0.516554,0.114218,-0.474681,0.0343001,
2,0,0,1,0,14697.9,0.0330594,0.0327254,-0.106233,8,-0.00594904,10,-3.47652e-06,-3.97374,0.506012,0.116598,-0.482022,0.0327254,
2,0,0,1,0,14699.4,0.0315613,0.0312069,-0.105637,8,-0.00612979,10,-3.29662e-06,-3.97618,0.966716,0.0610314,-0.251102,0.0312069,
2,0,0,1,0,14700.9,0.0300631,0.0297659,-0.105575,8,-0.00630937,10,-3.14252e-06,-3.97644,0.465909,0.126634,-0.520153,0.0297659,
2,0,0,1,0,14702.4,0.0285649,0.0282261,-0.10445,8,-0.00648865,10,-2.94822e-06,-3.98109,1.17042,0.0504093,-0.204687,0.0282261,
2,0,0,1,0,14703.9,0.0270667,0.0267299,-0.104136,8,-0.00666702,10,-2.78353e-06,-3.9824,1.00687,0.0585973,-0.238742,0.0267299,
2,0,0,1,0,14705.4,0.0255685,0.0252591,-0.103916,8,-0.00684479,10,-2.62482e-06,-3.98332,1.58186,0.0372979,-0.150769,0.02525905,
2,0,0,1,0,14706.9,0.0240703,0.0237777,-0.103649,8,-0.00702179,10,-2.46453e-06,-3.98444,7.63151,0.0077311,-0.0313725,0.0237777,
2,0,0,1,0,14708.4,0.0225722,0.022272,-0.103061,8,-0.00719848,10,-2.29538e-06,-3.98691,-3.78322,-0.0155952,0.0626799,0.022272,
2,0,0,1,0,14709.9,0.021074,0.0207853,-0.10252,8,-0.00737518,10,-2.13091e-06,-3.98919,-60.8328,-0.000969872,0.00390978,0.0207853,
2,0,0,1,0,14711.4,0.0195758,0.0192467,-0.102413,8,-0.00755142,10,-1.97111e-06,-3.98964,2.18288,0.0270285,-0.108819,0.0192467,
2,0,0,1,0,14712.9,0.0180776,0.0177154,-0.103018,8,-0.00772752,10,-1.825e-06,-3.98709,-4.83783,-0.0121956,0.0490857,0.0177154,
2,0,0,1,0,14714.4,0.0165794,0.0162754,-0.103174,8,-0.00790346,10,-1.6792e-06,-3.98643,-6.92563,-0.00851908,0.0343534,0.0162754,
2,0,0,1,0,14715.9,0.0150812,0.0147325,-0.10428,8,-0.00808017,10,-1.53631e-06,-3.9818,-2.02077,-0.0291968,0.117771,0.0147325,
2,0,0,1,0,14717.4,0.013583,0.01325,-0.10353,8,-0.00825696,10,-1.37178e-06,-3.98493,11.0354,0.00534642,-0.0214661,0.01325,
2,0,0,1,0,14718.9,0.0120848,0.0117782,-0.103277,8,-0.0084336,10,-1.21641e-06,-3.986,5.46437,0.0107972,-0.0436728,0.0117782,
2,0,0,1,0,14720.4,0.0105866,0.0102893,-0.103905,8,-0.00861003,10,-1.06912e-06,-3.98336,-1.35972,-0.0433912,0.176142,0.0102893,
2,0,0,1,0,14721.9,0.00908843,0.00874009,-0.103906,8,-0.00878726,10,-9.08151e-07,-3.98336,-0.78613,-0.0750512,0.305013,0.00874009,
2,0,0,1,0,14723.4,0.00759024,0.00725657,-0.10411,8,-0.00896489,10,-7.55484e-07,-3.98251,-1.30254,-0.0452962,0.184283,0.00725657,
2,0,0,1,0,14724.9,0.00609203,0.00578578,-0.105457,8,-0.00914312,10,-6.10151e-07,-3.97692,-0.567996,-0.103874,0.426021,0.00578578,
2,0,0,1,0,14726.3,0.00459384,0.00430437,-0.105522,8,-0.00932188,10,-4.54206e-07,-3.97666,-0.686158,-0.0859861,0.354251,0.00430437,
2,0,0,1,0,14727.8,0.00309563,0.0027604,-0.106485,8,-0.009502,10,-2.93941e-07,-3.97271,-0.602479,-0.0979287,0.405888,0.0027604,
2,0,0,1,0,14729.3,0.00159744,0.00121645,-0.107126,8,-0.00968529,10,-1.30313e-07,-3.97011, , , ,0.00121645,
2,0,0,1,0,14730.7,0.000199235,-0.000166902,-0.107442,8,-0.0098552,10,1.79323e-08,-3.96883, , , ,-0.000166902,