File: Figure_codes/Fig_3-5/rawdata_trumpetplot_data/after 10th/20221101_1-115_003_TrumpetPlot_ParaChange_from10_every3_08_CV_C01_0.csv
mode,ox/red,error,control changes,counter inc.,time/s,control/V,Ewe/V,<I>/mA,cycle number,(Q-Qo)/C,I Range,P/W,log(|I|),Tafel slope mV/dec,alpha_eff,dI/d(E-IR),E-IR/V,
2,0,0,1,0,1175.02,2.44065e-05,-0.000382585,-3.86725,1,0.0000000E+000,10,1.47955e-06,-2.4126, , , ,-0.000382585,
2,0,0,1,0,1175.03,0.0012943,0.000893538,-1.39054,1,-3.83923e-05,10,-1.2425e-06,-2.85682, , , ,0.000893538,
2,1,0,1,0,1175.05,0.00279784,0.00247881,0.324885,1,-4.67826e-05,10,8.05327e-07,-3.48827,-0.026119,-2.25889,912.719,0.00247881,
2,1,0,1,0,1175.07,0.00429425,0.00398841,1.29398,1,-3.06244e-05,10,5.16093e-06,-2.88807,0.00350639,16.8264,539.985,0.00398841,
2,1,0,1,0,1175.09,0.00579065,0.00545813,1.88949,1,-2.15604e-07,10,1.03131e-05,-2.72365,0.0109597,5.38338,337.031,0.00545813,
2,1,0,1,0,1175.11,0.0072942,0.00699637,2.28651,1,3.94406e-05,10,1.59973e-05,-2.64083,0.0216517,2.72496,227.928,0.00699637,
2,1,0,1,0,1175.13,0.00878347,0.00842212,2.55846,1,8.48365e-05,10,2.15476e-05,-2.59202,0.0358291,1.64671,158.974,0.00842212,
2,1,0,1,0,1175.15,0.010287,0.0099382,2.75612,1,0.000135044,10,2.73909e-05,-2.5597,0.0546737,1.07913,113.503,0.0099382,
2,1,0,1,0,1175.17,0.0117905,0.0114979,2.89347,1,0.000188397,10,3.32688e-05,-2.53858,0.0754927,0.781532,87.1568,0.0114979,
2,1,0,1,0,1175.18,0.013278,0.0129758,2.99081,1,0.000243382,10,3.88082e-05,-2.52421,0.100172,0.588985,68.5458,0.0129758,
2,1,0,1,0,1175.2,0.0147816,0.0144612,3.081,1,0.0003008,10,4.4555e-05,-2.51131,0.120512,0.489578,58.7343,0.0144612,
2,1,0,1,0,1175.22,0.0162851,0.0160366,3.1605,1,0.000359861,10,5.06837e-05,-2.50024,0.142552,0.413885,50.9396,0.0160366,
2,1,0,1,0,1175.24,0.0177744,0.0174831,3.22981,1,0.000419645,10,5.64672e-05,-2.49082,0.173542,0.339975,42.8199,0.0174831,
2,1,0,1,0,1175.26,0.0192779,0.0189559,3.28,1,0.000481154,10,6.21754e-05,-2.48413,0.210116,0.280798,36.0308,0.0189559,
2,1,0,1,0,1175.28,0.0207743,0.0204891,3.34431,1,0.000543458,10,6.85217e-05,-2.47569,0.205876,0.28658,37.3734,0.0204891,
2,1,0,1,0,1175.3,0.0222707,0.0219458,3.39996,1,0.000606791,10,7.46149e-05,-2.46853,0.242204,0.243596,32.3409,0.0219458,
2,1,0,1,0,1175.32,0.0237743,0.0234561,3.44943,1,0.000671486,10,8.09101e-05,-2.46225,0.264578,0.222997,30.043,0.0234561,
2,1,0,1,0,1175.33,0.0252636,0.024933,3.4971,1,0.000736382,10,8.71932e-05,-2.45629,0.265279,0.222407,30.4,0.024933,
2,1,0,1,0,1175.35,0.0267671,0.0264722,3.56136,1,0.000802912,10,9.42772e-05,-2.44838,0.231853,0.254472,35.3306,0.0264722,
2,1,0,1,0,1175.37,0.0282706,0.0279747,3.62431,1,0.000870548,10,0.000101389,-2.44078,0.224257,0.263091,37.0607,0.0279747,
2,1,0,1,0,1175.39,0.0297581,0.0294563,3.67775,1,0.000938506,10,0.000108333,-2.43442,0.244952,0.240863,34.4639,0.0294563,
2,1,0,1,0,1175.41,0.0312617,0.0309847,3.7183,1,0.00100816,10,0.00011521,-2.42966,0.226648,0.260316,37.8172,0.0309847,
2,1,0,1,0,1175.43,0.0327652,0.0324803,3.77999,1,0.00107881,10,0.000122775,-2.42251,0.222535,0.265127,39.0776,0.0324803,
2,1,0,1,0,1175.45,0.0342545,0.0339425,3.8374,1,0.00114981,10,0.000130251,-2.41596,0.211252,0.279288,41.787,0.0339425,
2,1,0,1,0,1175.47,0.035758,0.0354654,3.89559,1,0.00122268,10,0.000138159,-2.40943,0.210237,0.280636,42.6128,0.0354654,
2,1,0,1,0,1175.48,0.0372544,0.0369074,3.95633,1,0.00129635,10,0.000146018,-2.40271,0.21048,0.280312,43.2552,0.0369074,
2,1,0,1,0,1175.5,0.0387508,0.0384144,4.01445,1,0.00137102,10,0.000154213,-2.39637,0.209487,0.281641,44.231,0.0384144,
2,1,0,1,0,1175.52,0.0402544,0.0399288,4.07271,1,0.00144736,10,0.000162618,-2.39012,0.201354,0.293017,46.6298,0.0399288,
2,1,0,1,0,1175.54,0.0417437,0.041437,4.15162,1,0.00152416,10,0.000172031,-2.38178,0.208605,0.282832,45.8366,0.041437,
2,1,0,1,0,1175.56,0.0432472,0.0429613,4.21505,1,0.00160306,10,0.000181084,-2.3752,0.21395,0.275765,45.3658,0.0429613,
2,1,0,1,0,1175.58,0.0447507,0.044415,4.28236,1,0.00168319,10,0.000190201,-2.36832,0.221143,0.266796,44.643,0.044415,
2,1,0,1,0,1175.6,0.0462382,0.045896,4.35234,1,0.00176374,10,0.000199755,-2.36128,0.207616,0.284179,48.2873,0.045896,
2,1,0,1,0,1175.62,0.0477418,0.0474526,4.42814,1,0.00184654,10,0.000210127,-2.35378,0.209415,0.281738,48.7306,0.0474526,
2,1,0,1,0,1175.63,0.0492453,0.048937,4.50172,1,0.00193076,10,0.000220301,-2.34662,0.214791,0.274686,48.2757,0.048937,
2,1,0,1,0,1175.65,0.0507346,0.0504101,4.57286,1,0.00201544,10,0.000230519,-2.33981,0.218796,0.269658,48.2502,0.0504101,
2,1,0,1,0,1175.67,0.0522381,0.0519092,4.65701,1,0.00210246,10,0.000241742,-2.33189,0.200141,0.294793,53.579,0.0519092,
2,1,0,1,0,1175.69,0.0537345,0.0534433,4.75189,1,0.00219057,10,0.000253957,-2.32313,0.203839,0.289444,53.5005,0.0534433,
2,1,0,1,0,1175.71,0.0552309,0.0549423,4.82769,1,0.00228024,10,0.000265245,-2.31626,0.208053,0.283582,53.2638,0.05494234,
2,1,0,1,0,1175.73,0.0567345,0.0564209,4.89554,1,0.00237184,10,0.000276211,-2.3102,0.212385,0.277798,53.1115,0.0564209,
2,1,0,1,0,1175.75,0.0582237,0.0579206,4.98167,1,0.00246385,10,0.000288541,-2.30263,0.208923,0.282401,54.9047,0.0579206,
2,1,0,1,0,1175.76,0.0597273,0.0594398,5.06247,1,0.00255836,10,0.000300912,-2.29564,0.201702,0.29251,57.7593,0.05943979,
2,1,0,1,0,1175.78,0.0612308,0.0609075,5.13967,1,0.00265453,10,0.000313044,-2.28906,0.208426,0.283075,56.7345,0.0609075,
2,1,0,1,0,1175.8,0.0627183,0.0624174,5.22339,1,0.0027512,10,0.00032603,-2.28205,0.228003,0.258769,52.7553,0.0624174,
2,1,0,1,0,1175.82,0.0642219,0.0639195,5.2911,1,0.00285029,10,0.000338205,-2.27645,0.210157,0.280743,58.1847,0.0639195,
2,1,0,1,0,1175.84,0.0657254,0.0654284,5.38025,1,0.00295095,10,0.000352021,-2.2692,0.215755,0.273458,57.4269,0.0654284,
2,1,0,1,0,1175.86,0.0672147,0.0669316,5.46188,1,0.00305217,10,0.000365572,-2.26266,0.233234,0.252964,53.9378,0.0669316,
2,1,0,1,0,1175.88,0.0687182,0.0683996,5.54804,1,0.00315598,10,0.000379484,-2.25586,0.265972,0.221828,47.9812,0.0683996,
2,1,0,1,0,1175.9,0.0702146,0.0699269,5.62153,1,0.00326067,10,0.000393096,-2.25015,0.270576,0.218053,47.8625,0.0699269,
2,1,0,1,0,1175.91,0.071711,0.0714246,5.69524,1,0.00336672,10,0.00040678,-2.24449,0.267998,0.220151,48.9567,0.0714246,
2,1,0,1,0,1175.93,0.0732146,0.0729052,5.78046,1,0.00347484,10,0.000421426,-2.23804,0.268047,0.220111,49.6116,0.07290522,
2,1,0,1,0,1175.95,0.0747038,0.0744165,5.85304,1,0.00358326,10,0.000435563,-2.23262,0.29676,0.198814,45.3893,0.0744165,
2,1,0,1,0,1175.97,0.0762074,0.0759207,5.92515,1,0.00369419,10,0.000449841,-2.2273,0.290222,0.203293,46.9912,0.0759207,
2,1,0,1,0,1175.99,0.0777109,0.0773781,5.99977,1,0.00380641,10,0.000464251,-2.22187,0.285671,0.206531,48.3455,0.0773781,
2,1,0,1,0,1176.01,0.0791984,0.078914,6.07322,1,0.00391881,10,0.000479262,-2.21658,0.279602,0.211014,49.9848,0.078914,
2,1,0,1,0,1176.03,0.0807019,0.0804069,6.14508,1,0.00403384,10,0.000494107,-2.21147,0.297285,0.198463,47.498,0.0804069,
2,1,0,1,0,1176.05,0.0822055,0.0818824,6.20446,1,0.00415021,10,0.000508036,-2.2073,0.303375,0.194479,47.0997,0.0818824,
2,1,0,1,0,1176.06,0.0836947,0.0834124,6.27192,1,0.00426649,10,0.000523156,-2.2026,0.316005,0.186706,45.7536,0.0834124,
2,1,0,1,0,1176.08,0.0851983,0.0848512,6.3367,1,0.0043853,10,0.000537677,-2.19814,0.298254,0.197818,48.9576,0.0848512,
2,1,0,1,0,1176.1,0.0866947,0.0863726,6.40092,1,0.00450475,10,0.000552864,-2.19376,0.33719,0.174976,43.7249,0.0863726,
2,1,0,1,0,1176.12,0.0881911,0.0878993,6.4712,1,0.00462546,10,0.000568814,-2.18902,0.340262,0.173396,43.7724,0.08789932,
2,1,0,1,0,1176.14,0.0896946,0.0893309,6.52721,1,0.00474788,10,0.000583081,-2.18527,0.348776,0.169163,43.1853,0.0893309,
2,1,0,1,0,1176.16,0.0911839,0.0908913,6.59547,1,0.00487026,10,0.000599471,-2.18075,0.311413,0.189459,48.8201,0.0908913,
2,1,0,1,0,1176.18,0.0926857,0.0923763,6.66632,1,0.0049953,10,0.00061581,-2.17611,0.331442,0.17801,46.3371,0.0923763,
2,1,0,1,0,1176.2,0.0941892,0.0938958,6.73622,1,0.0051217,10,0.000632502,-2.17158,0.368779,0.159987,42.0943,0.0938958,
2,1,0,1,0,1176.21,0.0956785,0.0953713,6.81169,1,0.00524795,10,0.00064964,-2.16674,0.344278,0.171373,45.608,0.0953713,
2,1,0,1,0,1176.23,0.097182,0.0968809,6.89106,1,0.00537693,10,0.000667612,-2.16171,0.308949,0.19097,51.3366,0.0968809,
2,1,0,1,0,1176.25,0.0986856,0.0984066,6.97034,1,0.00550745,10,0.000685928,-2.15675,0.308513,0.19124,52.0406,0.0984066,
2,1,0,1,0,1176.27,0.100175,0.0998828,7.05975,1,0.0056381,10,0.000705148,-2.15121,0.294421,0.200393,55.1576,0.0998828,
2,1,0,1,0,1176.29,0.101678,0.101374,7.13932,1,0.00577171,10,0.000723739,-2.14634,0.297273,0.198471,55.2825,0.101374,
2,1,0,1,0,1176.31,0.103175,0.102882,7.23638,1,0.00590619,10,0.000744492,-2.14048,0.258642,0.228115,64.4134,0.102882,
2,1,0,1,0,1176.33,0.104671,0.104357,7.33235,1,0.00604239,10,0.000765185,-2.13476,0.228548,0.258151,73.8971,0.104357,
2,1,0,1,0,1176.35,0.106175,0.105838,7.44224,1,0.00618141,10,0.000787674,-2.1283,0.219461,0.26884,78.0455,0.105838,
2,1,0,1,0,1176.36,0.107662,0.107381,7.55997,1,0.00632115,10,0.000811798,-2.12148,0.211488,0.278975,82.2881,0.107381,
2,1,0,1,0,1176.38,0.109166,0.108879,7.67179,1,0.00646453,10,0.000835297,-2.1151,0.20793,0.283749,85.0998,0.108879,
2,1,0,1,0,1176.4,0.110669,0.110345,7.79849,1,0.00661029,10,0.000860522,-2.10799,0.198755,0.296848,90.4997,0.110345,
2,1,0,1,0,1176.42,0.112159,0.111855,7.93025,1,0.00675694,10,0.000887035,-2.10071,0.204119,0.289047,89.5609,0.1118546,
2,1,0,1,0,1176.44,0.113662,0.113373,8.07459,1,0.00690776,10,0.000915438,-2.09288,0.203922,0.289327,91.1842,0.113373,
2,1,0,1,0,1176.46,0.115166,0.114858,8.21282,1,0.00706111,10,0.000943308,-2.08551,0.20542,0.287216,92.1147,0.114858,
2,1,0,1,0,1176.48,0.116655,0.11631,8.35622,1,0.0072155,10,0.000971916,-2.07799,0.196939,0.299586,97.7875,0.11631,
2,1,0,1,0,1176.5,0.118158,0.117868,8.51782,1,0.00737434,10,0.00100398,-2.06967,0.201812,0.292351,97.1124,0.117868,
2,1,0,1,0,1176.51,0.119655,0.119314,8.66432,1,0.00753523,10,0.00103377,-2.06227,0.213053,0.276926,93.574,0.119314,
2,1,0,1,0,1176.53,0.121151,0.120861,8.80869,1,0.00769873,10,0.00106462,-2.05509,0.217045,0.271834,93.3759,0.120861,
2,1,0,1,0,1176.55,0.122655,0.122403,8.95672,1,0.00786581,10,0.00109633,-2.04785,0.214918,0.274523,95.8286,0.122403,
2,1,0,1,0,1176.57,0.124142,0.123805,9.09628,1,0.0080338,10,0.00112617,-2.04114,0.215458,0.273835,97.0981,0.1238053,
2,1,0,1,0,1176.59,0.125646,0.125307,9.23853,1,0.00820626,10,0.00115766,-2.0344,0.237112,0.248828,89.5363,0.125307,
2,1,0,1,0,1176.61,0.127149,0.126862,9.36011,1,0.00838134,10,0.00118745,-2.02872,0.242095,0.243706,89.009,0.126862,
2,1,0,1,0,1176.63,0.128639,0.128372,9.49378,1,0.00855686,10,0.00121873,-2.02256,0.254383,0.231934,85.9476,0.128372,
2,1,0,1,0,1176.65,0.130142,0.129847,9.61885,1,0.00873672,10,0.00124898,-2.01688,0.255754,0.23069,86.5719,0.129847,
2,1,0,1,0,1176.66,0.131646,0.131314,9.74265,1,0.00891907,10,0.00127934,-2.01132,0.28207,0.209168,79.456,0.131314,
2,1,0,1,0,1176.68,0.133135,0.132823,9.86006,1,0.00910166,10,0.00130964,-2.00612,0.293867,0.200771,77.254,0.132823,
2,1,0,1,0,1176.7,0.134639,0.13433,9.96435,1,0.00928822,10,0.00133851,-2.00155,0.304627,0.193679,75.3613,0.13433,
2,1,0,1,0,1176.72,0.136135,0.135852,10.0786,1,0.00947597,10,0.0013692,-1.9966,0.313984,0.187908,73.8737,0.135852,
2,1,0,1,0,1176.74,0.137631,0.137346,10.1782,1,0.00966569,10,0.00139794,-1.99233,0.352412,0.167418,66.4951,0.137346,
2,1,0,1,0,1176.76,0.139135,0.138837,10.2815,1,0.0098583,10,0.00142746,-1.98794,0.407908,0.144641,57.9622,0.138837,
2,1,0,1,0,1176.78,0.140622,0.140308,10.3556,1,0.0100505,10,0.00145297,-1.98483,0.438057,0.134686,54.4342,0.140308,
2,1,0,1,0,1176.79,0.142126,0.14178,10.4423,1,0.0102463,10,0.00148051,-1.9812,0.481393,0.122561,49.9156,0.14178,
2,1,0,1,0,1176.81,0.143629,0.143289,10.5187,1,0.0104436,10,0.00150721,-1.97804,0.600897,0.0981865,40.2494,0.143289,
2,1,0,1,0,1176.83,0.145119,0.144853,10.5782,1,0.01064,10,0.00153228,-1.97559,0.956431,0.0616877,25.3999,0.144853,
2,1,0,1,0,1176.85,0.146622,0.146333,10.5991,1,0.0108393,10,0.001551,-1.97473,2.06614,0.0285556,11.7962,0.146333,
2,1,0,1,0,1176.87,0.148126,0.147839,10.6212,1,0.011039,10,0.00157022,-1.97383,17.1431,0.00344162,1.42291,0.147839,
2,1,0,1,0,1176.89,0.149615,0.14933,10.608,1,0.0112365,10,0.00158409,-1.97437,-1.45119,-0.0406563,-16.783,0.14933,
2,1,0,1,0,1176.91,0.151119,0.150843,10.5686,1,0.0114358,10,0.0015942,-1.97598,-0.569272,-0.103641,-42.5652,0.150843,
2,1,0,1,0,1176.93,0.152615,0.15232,10.48,1,0.0116328,10,0.00159632,-1.97964,-0.365674,-0.161346,-65.759,0.15232,
2,1,0,1,0,1176.94,0.154111,0.153799,10.356,1,0.0118278,10,0.00159274,-1.98481,-0.261605,-0.22553,-90.8374,0.1537993,
2,1,0,1,0,1176.96,0.155615,0.155292,10.1935,1,0.0120212,10,0.00158296,-1.99168,-0.191339,-0.308353,-122.079,0.155292,
2,1,0,1,0,1176.98,0.157103,0.156814,9.98023,1,0.0122092,10,0.00156504,-2.00086,-0.145716,-0.404897,-156.968,0.156814,
2,1,0,1,0,1177,0.158606,0.158327,9.71574,1,0.0123946,10,0.00153827,-2.01252,-0.11513,-0.512465,-193.434,0.1583271,
2,1,0,1,0,1177.02,0.16011,0.159793,9.39657,1,0.0125746,10,0.00150151,-2.02703,-0.0979194,-0.602536,-220.17,0.159793,
2,1,0,1,0,1177.04,0.161599,0.161336,9.04658,1,0.0127466,10,0.00145954,-2.04352,-0.0855145,-0.689941,-242.714,0.161336,
2,1,0,1,0,1177.06,0.163102,0.162787,8.67075,1,0.0129134,10,0.00141148,-2.06194,-0.0745779,-0.791119,-266.762,0.162787,
2,1,0,1,0,1177.08,0.164606,0.164285,8.26827,1,0.0130729,10,0.00135835,-2.08259,-0.0689032,-0.856273,-275.609,0.164285,
2,1,0,1,0,1177.09,0.166095,0.165811,7.85401,1,0.0132229,10,0.00130228,-2.10491,-0.0651822,-0.905155,-277.334,0.165811,
2,1,0,1,0,1177.11,0.167599,0.167296,7.44878,1,0.0133669,10,0.00124615,-2.12791,-0.0653535,-0.902783,-262.511,0.167296,
2,1,0,1,0,1177.13,0.169095,0.16881,7.07115,1,0.0135027,10,0.00119368,-2.15051,-0.0647108,-0.911749,-251.836,0.16881,
2,1,0,1,0,1177.15,0.170592,0.17029,6.71257,1,0.0136317,10,0.00114308,-2.17311,-0.0670462,-0.87999,-230.878,0.17029,
2,1,0,1,0,1177.17,0.172095,0.171775,6.37471,1,0.0137548,10,0.00109501,-2.19554,-0.0717454,-0.822352,-205.431,0.171775,
2,1,0,1,0,1177.19,0.173583,0.173264,6.09163,1,0.0138708,10,0.00105546,-2.21527,-0.0769631,-0.766601,-182.733,0.173264,
2,1,0,1,0,1177.21,0.175086,0.174788,5.82935,1,0.0139828,10,0.0010189,-2.23438,-0.0835216,-0.706404,-161.143,0.174788,
2,1,0,1,0,1177.23,0.17659,0.176278,5.5964,1,0.0140904,10,0.000986525,-2.25209,-0.0907008,-0.65049,-142.381,0.176278,
2,1,0,1,0,1177.24,0.178079,0.17777,5.39714,1,0.0141928,10,0.00095945,-2.26784,-0.0996613,-0.592005,-125.155,0.17777,
2,1,0,1,0,1177.26,0.179582,0.179255,5.21068,1,0.0142926,10,0.00093404,-2.28311,-0.111955,-0.526998,-107.701,0.179255,
2,1,0,1,0,1177.28,0.181086,0.180815,5.05456,1,0.0143894,10,0.000913942,-2.29632,-0.122107,-0.483182,-95.7263,0.180815,
2,1,0,1,0,1177.3,0.182575,0.182312,4.91977,1,0.0144825,10,0.000896931,-2.30806,-0.127226,-0.463743,-89.2234,0.182312,
2,1,0,1,0,1177.32,0.184079,0.183815,4.79283,1,0.014574,10,0.000880996,-2.31941,-0.133273,-0.442702,-82.9384,0.183815,
2,1,0,1,0,1177.34,0.185582,0.185313,4.66492,1,0.0146632,10,0.00086447,-2.33116,-0.144255,-0.408997,-74.7468,0.185313,
2,1,0,1,0,1177.36,0.18707,0.186791,4.5689,1,0.0147494,10,0.000853429,-2.34019,-0.151732,-0.388844,-69.497,0.186791,
2,1,0,1,0,1177.38,0.188573,0.188243,4.47215,1,0.0148346,10,0.000841853,-2.34948,-0.167304,-0.352652,-61.7216,0.188243,
2,1,0,1,0,1177.39,0.19007,0.18978,4.39234,1,0.0149178,10,0.000833577,-2.3573,-0.168664,-0.349807,-59.9685,0.18978,
2,1,0,1,0,1177.41,0.191566,0.191258,4.30312,1,0.0149993,10,0.000823008,-2.36622,-0.178268,-0.330962,-55.7455,0.1912585,
2,1,0,1,0,1177.43,0.19307,0.192798,4.23009,1,0.0150798,10,0.000815554,-2.37365,-0.209838,-0.28117,-46.5266,0.192798,
2,1,0,1,0,1177.45,0.194559,0.194273,4.17611,1,0.0151581,10,0.000811306,-2.37923,-0.207711,-0.284049,-46.2283,0.194273,
2,1,0,1,0,1177.47,0.196063,0.195766,4.11223,1,0.0152361,10,0.000805033,-2.38592,-0.225127,-0.262074,-41.9984,0.1957655,
2,1,0,1,0,1177.49,0.197566,0.197281,4.04333,1,0.0153129,10,0.000797672,-2.39326,-0.24667,-0.239186,-37.792,0.197281,
2,1,0,1,0,1177.51,0.199055,0.19873,3.99774,1,0.0153878,10,0.000794472,-2.39819,-0.264923,-0.222706,-34.7248,0.19873,
2,1,0,1,0,1177.53,0.200559,0.200264,3.94251,1,0.0154625,10,0.000789541,-2.40423,-0.330497,-0.178519,-27.4628,0.200264,
2,1,0,1,0,1177.54,0.202062,0.201798,3.89285,1,0.0155363,10,0.000785568,-2.40973,-0.310791,-0.189838,-28.8365,0.201798,
2,1,0,1,0,1177.56,0.20355,0.203263,3.84062,1,0.0156086,10,0.000780656,-2.4156,-0.331936,-0.177745,-26.7222,0.203263,
2,1,0,1,0,1177.58,0.205053,0.204759,3.79732,1,0.0156807,10,0.000777538,-2.42052,-0.385297,-0.153128,-22.8216,0.204759,
2,1,0,1,0,1177.6,0.20655,0.206275,3.76332,1,0.0157517,10,0.000776279,-2.42443,-0.454983,-0.129675,-19.0919,0.206275,
2,1,0,1,0,1177.62,0.208046,0.207747,3.73503,1,0.0158222,10,0.00077594,-2.42771,-0.379042,-0.155656,-22.6869,0.207747,
2,1,0,1,0,1177.64,0.20955,0.209273,3.70248,1,0.0158924,10,0.000774829,-2.43151,-0.34106,-0.17299,-25.0037,0.209273,
2,1,0,1,0,1177.66,0.211039,0.210744,3.66655,1,0.0159612,10,0.000772703,-2.43574,-0.362865,-0.162595,-23.3006,0.210744,
2,1,0,1,0,1177.68,0.212543,0.212247,3.6409,1,0.0160301,10,0.00077277,-2.43879,-0.401502,-0.146948,-20.8875,0.212247,
2,1,0,1,0,1177.69,0.214046,0.213749,3.61409,1,0.0160986,10,0.000772507,-2.442,-0.449511,-0.131254,-18.5266,0.213749,
2,1,0,1,0,1177.71,0.215535,0.215253,3.59452,1,0.0161658,10,0.000773732,-2.44436,-0.403019,-0.146395,-20.5269,0.215253,
2,1,0,1,0,1177.73,0.217039,0.216744,3.56937,1,0.0162333,10,0.00077364,-2.44741,-0.435247,-0.135555,-18.8698,0.216744,
2,1,0,1,0,1177.75,0.218543,0.218258,3.54496,1,0.0163004,10,0.000773714,-2.45039,-0.664345,-0.0888093,-12.2971,0.218258,
2,1,0,1,0,1177.77,0.22003,0.219765,3.53674,1,0.0163663,10,0.000777254,-2.4514,-0.661579,-0.0891806,-12.2672,0.219765,
2,1,0,1,0,1177.79,0.221534,0.221232,3.50946,1,0.0164326,10,0.000776404,-2.45476,-0.642331,-0.091853,-12.5511,0.221232,
2,1,0,1,0,1177.81,0.22303,0.222756,3.48456,1,0.0164982,10,0.000776209,-2.45785,-0.724986,-0.0813809,-11.0587,0.222756,
2,1,0,1,0,1177.82,0.224526,0.224277,3.4671,1,0.0165634,10,0.00077759,-2.46003,-0.834661,-0.0706873,-9.57396,0.224277,
2,1,0,1,0,1177.84,0.22603,0.225803,3.45422,1,0.0166286,10,0.000779975,-2.46165,-0.934358,-0.063145,-8.5007,0.225803,
2,1,0,1,0,1177.86,0.227519,0.227274,3.43155,1,0.0166929,10,0.000779901,-2.46451,-0.707188,-0.083429,-11.183,0.2272739,
2,1,0,1,0,1177.88,0.229023,0.228739,3.41813,1,0.0167576,10,0.000781859,-2.46621,-0.816497,-0.0722599,-9.65242,0.228739,
2,1,0,1,0,1177.9,0.230526,0.230254,3.3986,1,0.016822,10,0.000782542,-2.4687,-0.888555,-0.0663999,-8.84408,0.230254,
2,1,0,1,0,1177.92,0.232016,0.231735,3.38642,1,0.0168854,10,0.000784753,-2.47026,-0.980101,-0.0601979,-7.97417,0.231735,
2,1,0,1,0,1177.94,0.233519,0.233243,3.37904,1,0.0169493,10,0.000788137,-2.47121,-0.872148,-0.0676491,-8.92642,0.233243,
2,1,0,1,0,1177.96,0.235023,0.234758,3.36756,1,0.017013,10,0.00079056,-2.47268,-0.724075,-0.0814833,-10.7047,0.2347575,
2,1,0,1,0,1177.97,0.23651,0.236215,3.35189,1,0.0170757,10,0.000791766,-2.47471,-0.703041,-0.0839212,-11.0014,0.236215,
2,1,0,1,0,1177.99,0.238014,0.237741,3.34285,1,0.0171389,10,0.000794731,-2.47588,-1.12405,-0.052489,-6.85107,0.237741,
2,1,0,1,0,1178.01,0.23951,0.239239,3.33501,1,0.0172016,10,0.000797864,-2.4769,-0.965098,-0.0611337,-7.95535,0.239239,
2,1,0,1,0,1178.03,0.241006,0.24077,3.32502,1,0.0172641,10,0.000800566,-2.47821,-0.668935,-0.0881998,-11.4305,0.24077,
2,1,0,1,0,1178.05,0.24251,0.24222,3.30983,1,0.0173266,10,0.000801706,-2.48019,-0.831648,-0.0709435,-9.16923,0.24222,
2,1,0,1,0,1178.07,0.243999,0.243702,3.3034,1,0.0173882,10,0.000805045,-2.48104,-2.03001,-0.0290639,-3.74765,0.243702,
2,1,0,1,0,1178.09,0.245503,0.245228,3.30179,1,0.0174504,10,0.000809689,-2.48125,-2.94353,-0.020044,-2.57399,0.245228,
2,1,0,1,0,1178.11,0.247006,0.246705,3.28975,1,0.0175125,10,0.000811598,-2.48284,-1.88207,-0.0313484,-4.01274,0.246705,
2,1,0,1,0,1178.12,0.248496,0.248196,3.27076,1,0.0175738,10,0.00081179,-2.48535,-1.31042,-0.0450237,-5.7561,0.248196,
2,1,0,1,0,1178.14,0.249999,0.249711,3.26429,1,0.0176354,10,0.000815132,-2.48621,-1.6781,-0.0351589,-4.48316,0.249711,
2,1,0,1,0,1178.16,0.251503,0.251221,3.25382,1,0.0176969,10,0.000817428,-2.48761,-3.67995,-0.0160328,-2.03759,0.251221,
2,1,0,1,0,1178.18,0.25299,0.252699,3.24437,1,0.0177577,10,0.000819848,-2.48887,-1.08417,-0.0544194,-6.90195,0.2526989,
2,1,0,1,0,1178.2,0.254494,0.254204,3.23473,1,0.0178189,10,0.000822281,-2.49016,-1.28333,-0.0459741,-5.80936,0.254204,
2,1,0,1,0,1178.22,0.25599,0.2557,3.22562,1,0.0178796,10,0.000824791,-2.49139,-1.4055,-0.0419779,-5.29438,0.2557,
2,1,0,1,0,1178.24,0.257487,0.257199,3.22156,1,0.0179401,10,0.000828581,-2.49193,-1.74616,-0.0337884,-4.25477,0.257199,
2,1,0,1,0,1178.26,0.25899,0.258706,3.21771,1,0.0180009,10,0.000832441,-2.49245,-1.03177,-0.057183,-7.17259,0.258706,
2,1,0,1,0,1178.27,0.260479,0.260203,3.21124,1,0.018061,10,0.000835575,-2.49333,-0.753162,-0.0783364,-9.80725,0.260203,
2,1,0,1,0,1178.29,0.261983,0.261691,3.19828,1,0.0181214,10,0.000836962,-2.49508,-1.02426,-0.0576027,-7.19872,0.261691,
2,1,0,1,0,1178.31,0.263486,0.263233,3.20011,1,0.0181817,10,0.000842376,-2.49483,-1.61068,-0.0366306,-4.56484,0.263233,
2,1,0,1,0,1178.33,0.264974,0.264658,3.19136,1,0.0182413,10,0.000844617,-2.49602,-1.73578,-0.0339904,-4.22625,0.264658,
2,1,0,1,0,1178.35,0.266477,0.266215,3.18245,1,0.0183013,10,0.000847216,-2.49724,-1.44515,-0.0408262,-5.06282,0.266215,
2,1,0,1,0,1178.37,0.267981,0.267649,3.16893,1,0.0183612,10,0.000848162,-2.49909,-1.59051,-0.0370949,-4.58951,0.267649,
2,1,0,1,0,1178.39,0.26947,0.269165,3.16871,1,0.0184203,10,0.000852906,-2.49912,-9.10517,-0.00647983,-0.799909,0.269165,
2,1,0,1,0,1178.41,0.270974,0.270685,3.16449,1,0.0184799,10,0.000856579,-2.4997,-39.6067,-0.00148965,-0.183377,0.270685,
2,1,0,1,0,1178.42,0.27247,0.272159,3.1579,1,0.0185392,10,0.00085945,-2.5006,-1.39979,-0.0421493,-5.17513,0.272159,
2,1,0,1,0,1178.44,0.273967,0.27368,3.13889,1,0.0185983,10,0.000859052,-2.50322,-2.44854,-0.024096,-2.95853,0.27368,
2,1,0,1,0,1178.46,0.27547,0.275178,3.13194,1,0.0186575,10,0.00086184,-2.50419,-2.6571,-0.0222047,-2.72017,0.275178,
2,1,0,1,0,1178.48,0.276959,0.276648,3.12816,1,0.018716,10,0.000865401,-2.50471,-2.847,-0.0207235,-2.53115,0.276648,
2,1,0,1,0,1178.5,0.278463,0.278201,3.11931,1,0.018775,10,0.000867795,-2.50594,-1.19611,-0.0493265,-6.00137,0.278201,
2,1,0,1,0,1178.52,0.279967,0.279655,3.11286,1,0.0188339,10,0.000870526,-2.50684,-1.36589,-0.0431954,-5.25776,0.279655,
2,1,0,1,0,1178.54,0.281454,0.281167,3.10129,1,0.0188919,10,0.000871983,-2.50846,-1.26431,-0.0466657,-5.66513,0.2811673,
2,1,0,1,0,1178.56,0.282958,0.282657,3.09987,1,0.0189505,10,0.000876203,-2.50866,-1.13094,-0.0521691,-6.31529,0.282657,
2,1,0,1,0,1178.57,0.284461,0.28421,3.1004,1,0.0190091,10,0.000881165,-2.50858,-1.29898,-0.0454201,-5.4834,0.28421,
2,1,0,1,0,1178.59,0.28595,0.285673,3.08805,1,0.0190669,10,0.00088217,-2.51032,-0.813578,-0.0725192,-8.74608,0.285673,
2,1,0,1,0,1178.61,0.287454,0.287134,3.07693,1,0.019125,10,0.000883491,-2.51188,-0.948628,-0.0621951,-7.48601,0.287134,
2,1,0,1,0,1178.63,0.28895,0.288655,3.08238,1,0.0191828,10,0.000889743,-2.51111,-1.74427,-0.033825,-4.05561,0.288655,
2,1,0,1,0,1178.65,0.290447,0.290185,3.07615,1,0.0192405,10,0.000892651,-2.51199,-1.26378,-0.0466852,-5.58836,0.290185,
2,1,0,1,0,1178.67,0.29195,0.291645,3.06601,1,0.0192984,10,0.000894186,-2.51343,-1.19918,-0.0492001,-5.87071,0.2916452,
2,1,0,1,0,1178.69,0.29344,0.293179,3.05549,1,0.0193555,10,0.000895806,-2.51492,-2.13648,-0.0276156,-3.29389,0.293179,
2,1,0,1,0,1178.71,0.294943,0.294705,3.04698,1,0.019413,10,0.00089796,-2.51613,-24.0801,-0.00245016,-0.291527,0.294705,
2,1,0,1,0,1178.72,0.296447,0.296155,3.04456,1,0.0194705,10,0.000901661,-2.51648,-208.629,-0.000282799,-0.0335456,0.296155,
2,1,0,1,0,1178.74,0.297934,0.297668,3.04142,1,0.0195273,10,0.000905333,-2.51692,-3.1407,-0.0187856,-2.22774,0.297668,
2,1,0,1,0,1178.76,0.299438,0.299155,3.02253,1,0.0195845,10,0.000904205,-2.51963,-0.019833,-2.97483,-308.969,0.299155,
2,1,0,0,0,1178.77,0.300012,0.299823,3.03179,1,0.0196058,10,0.000909,-2.5183,0.000619351,95.261,3927.55,0.299823,
2,1,0,1,0,1178.78,0.298737,0.298471,0.668296,1,0.0196314,10,0.000199467,-3.17503,0.00446987,13.1995,1108.93,0.298471,
2,0,0,1,0,1178.8,0.29724,0.296986,-0.38341,1,0.0196322,10,-0.000113867,-3.41634,0.0243811,2.4199,548.842,0.296986,
2,0,0,1,0,1178.82,0.295744,0.295415,-0.826333,1,0.0196202,10,-0.000244111,-3.08284,-0.00459417,-12.8424,230.904,0.295415,
2,0,0,1,0,1178.84,0.29424,0.293923,-1.03248,1,0.0196024,10,-0.000303468,-2.98612,-0.0188564,-3.12891,113.769,0.293923,
2,0,0,1,0,1178.86,0.292751,0.292449,-1.15391,1,0.0195819,10,-0.000337459,-2.93783,-0.0360305,-1.6375,71.3418,0.292449,
2,0,0,1,0,1178.88,0.291248,0.290911,-1.24665,1,0.0195592,10,-0.000362664,-2.90426,-0.0519845,-1.13495,54.0496,0.290911,
2,0,0,1,0,1178.9,0.289744,0.289422,-1.31357,1,0.0195351,10,-0.000380177,-2.88155,-0.0648218,-0.910187,45.9525,0.289422,
2,0,0,1,0,1178.92,0.288257,0.287906,-1.3703,1,0.01951,10,-0.000394518,-2.86318,-0.086153,-0.684829,36.1973,0.287906,
2,0,0,1,0,1178.93,0.286753,0.286478,-1.42022,1,0.0194836,10,-0.000406861,-2.84765,-0.093084,-0.633836,34.9052,0.286478,
2,0,0,1,0,1178.95,0.285249,0.284919,-1.46271,1,0.0194564,10,-0.000416752,-2.83484,-0.0971963,-0.607019,34.7214,0.284919,
2,0,0,1,0,1178.97,0.28376,0.28347,-1.50793,1,0.0194285,10,-0.000427454,-2.82162,-0.115282,-0.511787,30.07,0.28347,
2,0,0,1,0,1178.99,0.282257,0.281932,-1.54332,1,0.0193995,10,-0.00043511,-2.81154,-0.139897,-0.42174,25.4276,0.281932,
2,0,0,1,0,1179.01,0.28076,0.28045,-1.58735,1,0.0193699,10,-0.000445172,-2.79933,-0.153348,-0.384747,23.7716,0.28045,
2,0,0,1,0,1179.03,0.279264,0.278979,-1.6204,1,0.0193397,10,-0.000452057,-2.79038,-0.167941,-0.351313,22.2844,0.278979,
2,0,0,1,0,1179.05,0.27776,0.277469,-1.65769,1,0.0193087,10,-0.000459958,-2.7805,-0.19156,-0.307997,19.8842,0.277469,
2,0,0,1,0,1179.07,0.276271,0.275978,-1.69204,1,0.0192773,10,-0.000466965,-2.77159,-0.216211,-0.272881,17.9846,0.275978,
2,0,0,1,0,1179.08,0.274767,0.274461,-1.72866,1,0.019245,10,-0.000474451,-2.76229,-0.246876,-0.238986,16.0448,0.274461,
2,0,0,1,0,1179.1,0.273264,0.272954,-1.74874,1,0.0192122,10,-0.000477327,-2.75727,-0.244406,-0.241402,16.5031,0.272954,
2,0,0,1,0,1179.12,0.271776,0.271495,-1.7796,1,0.0191792,10,-0.000483151,-2.74968,-0.196508,-0.300243,20.8209,0.271495,
2,0,0,1,0,1179.14,0.270273,0.26999,-1.81841,1,0.0191453,10,-0.000490951,-2.74031,-0.227365,-0.259495,18.3136,0.26999,
2,0,0,1,0,1179.16,0.268769,0.268443,-1.84158,1,0.0191108,10,-0.000494358,-2.73481,-0.267567,-0.220506,15.7526,0.268443,
2,0,0,1,0,1179.18,0.26728,0.266972,-1.86125,1,0.0190763,10,-0.000496902,-2.7302,-0.287177,-0.205448,14.9118,0.266972,
2,0,0,1,0,1179.2,0.265777,0.265479,-1.88088,1,0.019041,10,-0.000499334,-2.72564,-0.266569,-0.221331,16.2633,0.265479,
2,0,0,1,0,1179.22,0.26428,0.263975,-1.91295,1,0.0190054,10,-0.000504969,-2.7183,-0.253924,-0.232353,17.2763,0.263975,
2,0,0,1,0,1179.23,0.262784,0.262503,-1.92793,1,0.0189693,10,-0.000506088,-2.71491,-0.269015,-0.219319,16.5052,0.262503,
2,0,0,1,0,1179.25,0.26128,0.260967,-1.94478,1,0.0189326,10,-0.000507523,-2.71113,-0.276247,-0.213577,16.2849,0.260967,
2,0,0,1,0,1179.27,0.259791,0.259458,-1.97025,1,0.018896,10,-0.000511198,-2.70548,-0.258521,-0.228221,17.6516,0.259458,
2,0,0,1,0,1179.29,0.258287,0.257979,-1.99223,1,0.0188585,10,-0.000513953,-2.70066,-0.271645,-0.217195,16.9027,0.257979,
2,0,0,1,0,1179.31,0.256786,0.256477,-2.0139,1,0.0188205,10,-0.000516519,-2.69596,-0.360413,-0.163701,12.8747,0.256477,
2,0,0,1,0,1179.33,0.255296,0.254984,-2.03514,1,0.0187826,10,-0.000518929,-2.69141,-0.460305,-0.128176,10.1919,0.254984,
2,0,0,1,0,1179.35,0.253793,0.253478,-2.05303,1,0.0187439,10,-0.000520397,-2.6876,-0.405473,-0.145509,11.6808,0.253478,
2,0,0,1,0,1179.36,0.252289,0.251983,-2.08177,1,0.0187048,10,-0.000524571,-2.68157,-0.406699,-0.14507,11.7643,0.251983,
2,0,0,1,0,1179.38,0.2508,0.250512,-2.1001,1,0.0186658,10,-0.000526101,-2.67776,-0.432501,-0.136416,11.167,0.250512,
2,0,0,1,0,1179.4,0.249296,0.248995,-2.11871,1,0.018626,10,-0.000527549,-2.67393,-0.511285,-0.115396,9.54085,0.248995,
2,0,0,1,0,1179.42,0.2478,0.247487,-2.13348,1,0.018586,10,-0.00052801,-2.67091,-0.426578,-0.13831,11.5456,0.247487,
2,0,0,1,0,1179.44,0.246304,0.245993,-2.15814,1,0.0185458,10,-0.000530888,-2.66592,-0.376003,-0.156914,13.1915,0.245993,
2,0,0,1,0,1179.46,0.2448,0.244451,-2.18436,1,0.0185048,10,-0.000533971,-2.66068,-0.374486,-0.157549,13.3812,0.244451,
2,0,0,1,0,1179.48,0.243313,0.243008,-2.20008,1,0.0184639,10,-0.000534638,-2.65756,-0.450778,-0.130885,11.2243,0.243008,
2,0,0,1,0,1179.5,0.241809,0.241552,-2.20576,1,0.0184223,10,-0.000532806,-2.65644,-0.38706,-0.152431,13.1563,0.241552,
2,0,0,1,0,1179.51,0.240306,0.239984,-2.23011,1,0.0183804,10,-0.000535189,-2.65167,-0.357355,-0.165102,14.3813,0.239984,
2,0,0,1,0,1179.53,0.238816,0.238495,-2.25037,1,0.0183386,10,-0.000536701,-2.64775,-0.333411,-0.176959,15.5144,0.238495,
2,0,0,1,0,1179.55,0.237313,0.237015,-2.26743,1,0.0182959,10,-0.000537414,-2.64447,-0.452506,-0.130385,11.5271,0.237015,
2,0,0,1,0,1179.57,0.235809,0.235508,-2.2826,1,0.0182529,10,-0.000537569,-2.64157,-0.431757,-0.136651,12.1914,0.235508,
2,0,0,1,0,1179.59,0.23432,0.233976,-2.2982,1,0.0182101,10,-0.000537725,-2.63861,-0.433578,-0.136077,12.2573,0.233976,
2,0,0,1,0,1179.61,0.232816,0.232492,-2.31932,1,0.0181665,10,-0.000539223,-2.63464,-0.384875,-0.153296,13.874,0.232492,
2,0,0,1,0,1179.63,0.23132,0.231025,-2.34102,1,0.0181226,10,-0.000540833,-2.6306,-0.51553,-0.114445,10.4484,0.231025,
2,0,0,1,0,1179.65,0.229824,0.229504,-2.3572,1,0.0180785,10,-0.000540988,-2.6276,-0.537452,-0.109777,10.1005,0.229504,
2,0,0,1,0,1179.66,0.22832,0.228035,-2.37251,1,0.0180339,10,-0.000541015,-2.62479,-0.609241,-0.0968419,8.98882,0.228035,
2,0,0,1,0,1179.68,0.226833,0.226564,-2.39019,1,0.0179894,10,-0.000541531,-2.62157,-0.463908,-0.12718,11.8625,0.226564,
2,0,0,1,0,1179.7,0.225329,0.225025,-2.41278,1,0.017944,10,-0.000542936,-2.61748,-0.493282,-0.119607,11.2569,0.225025,
2,0,0,1,0,1179.72,0.223825,0.223512,-2.43457,1,0.0178983,10,-0.000544156,-2.61358,-0.514042,-0.114777,10.874,0.223512,
2,0,0,1,0,1179.74,0.222336,0.222045,-2.44463,1,0.0178528,10,-0.000542819,-2.61179,-0.506719,-0.116435,11.131,0.222045,
2,0,0,1,0,1179.76,0.220833,0.220561,-2.46709,1,0.0178065,10,-0.000544142,-2.60782,-0.37977,-0.155357,14.9601,0.2205606,
2,0,0,1,0,1179.78,0.219329,0.219035,-2.49651,1,0.0177597,10,-0.000546823,-2.60267,-0.363773,-0.162189,15.7196,0.219035,
2,0,0,1,0,1179.8,0.21784,0.217509,-2.51862,1,0.017713,10,-0.000547821,-2.59884,-0.443458,-0.133045,12.9968,0.217509,
2,0,0,1,0,1179.81,0.216336,0.215997,-2.53098,1,0.0176655,10,-0.000546685,-2.59671,-0.444208,-0.132821,13.0818,0.215997,
2,0,0,1,0,1179.83,0.21484,0.214517,-2.54862,1,0.017618,10,-0.000546722,-2.59369,-0.371498,-0.158816,15.7866,0.214517,
2,0,0,1,0,1179.85,0.213343,0.213041,-2.56572,1,0.0175701,10,-0.000546604,-2.59079,-0.350246,-0.168453,16.8387,0.213041,
2,0,0,1,0,1179.87,0.21184,0.211551,-2.5808,1,0.0175215,10,-0.000545972,-2.58824,-0.451688,-0.130621,13.1638,0.211551,
2,0,0,1,0,1179.89,0.210352,0.210017,-2.60104,1,0.017473,10,-0.000546264,-2.58485,-0.408963,-0.144267,14.6659,0.210017,
2,0,0,1,0,1179.91,0.208849,0.208548,-2.61918,1,0.0174237,10,-0.000546225,-2.58183,-0.401156,-0.147075,15.1183,0.208548,
2,0,0,1,0,1179.93,0.207345,0.207047,-2.64369,1,0.017374,10,-0.00054737,-2.57779,-0.397487,-0.148433,15.339,0.207047,
2,0,0,1,0,1179.95,0.205856,0.205489,-2.68238,1,0.0173241,10,-0.000551199,-2.57148,-0.432427,-0.136439,14.2193,0.205489,
2,0,0,1,0,1179.96,0.204353,0.204042,-2.69278,1,0.0172734,10,-0.000549439,-2.5698,-0.677331,-0.0871066,9.17181,0.204042,
2,0,0,1,0,1179.98,0.202849,0.202507,-2.71594,1,0.0172223,10,-0.000549998,-2.56608,-0.51112,-0.115433,12.2606,0.202507,
2,0,0,1,0,1180,0.20136,0.201005,-2.74499,1,0.0171714,10,-0.000551756,-2.56146,-0.411194,-0.143485,15.3706,0.201005,
2,0,0,1,0,1180.02,0.199856,0.199518,-2.77195,1,0.0171195,10,-0.000553055,-2.55721,-0.411957,-0.143219,15.4689,0.199518,
2,0,0,1,0,1180.04,0.19836,0.198067,-2.79942,1,0.0170672,10,-0.000554473,-2.55293,-0.440463,-0.13395,14.599,0.198067,
2,0,0,1,0,1180.06,0.196863,0.196533,-2.82288,1,0.0170146,10,-0.000554789,-2.54931,-0.337536,-0.174796,19.2777,0.196533,
2,0,0,1,0,1180.08,0.19536,0.195029,-2.85262,1,0.0169612,10,-0.000556343,-2.54476,-0.297982,-0.197999,22.0269,0.1950286,
2,0,0,1,0,1180.1,0.193872,0.193516,-2.88726,1,0.0169078,10,-0.000558729,-2.53951,-0.27278,-0.216291,24.3112,0.193516,
2,0,0,1,0,1180.11,0.192369,0.192041,-2.91378,1,0.0168531,10,-0.000559565,-2.53554,-0.282795,-0.208632,23.6738,0.192041,
2,0,0,1,0,1180.13,0.190865,0.190563,-2.93335,1,0.0167979,10,-0.000558988,-2.53264,-0.279078,-0.21141,24.2749,0.190563,
2,0,0,1,0,1180.15,0.189376,0.189059,-2.97544,1,0.0167427,10,-0.000562534,-2.52645,-0.263917,-0.223555,25.9697,0.189059,
2,0,0,1,0,1180.17,0.187872,0.187543,-3.00727,1,0.0166863,10,-0.000563993,-2.52183,-0.260558,-0.226437,26.6104,0.1875433,
2,0,0,1,0,1180.19,0.186369,0.186035,-3.04373,1,0.0166291,10,-0.00056624,-2.51659,-0.276977,-0.213014,25.3157,0.186035,
2,0,0,1,0,1180.21,0.18488,0.184545,-3.08589,1,0.0165718,10,-0.000569485,-2.51062,-0.267096,-0.220895,26.6269,0.184545,
2,0,0,1,0,1180.23,0.183376,0.183076,-3.12453,1,0.0165133,10,-0.000572025,-2.50521,-0.287682,-0.205088,25.0759,0.183076,
2,0,0,1,0,1180.25,0.18188,0.181578,-3.17644,1,0.0164542,10,-0.000576773,-2.49806,-0.238938,-0.246926,30.5928,0.181578,
2,0,0,1,0,1180.26,0.180383,0.180093,-3.22595,1,0.0163941,10,-0.00058097,-2.49134,-0.237497,-0.248424,31.2614,0.180093,
2,0,0,1,0,1180.28,0.17888,0.178571,-3.28129,1,0.0163328,10,-0.000585942,-2.48396,-0.243873,-0.241929,30.9165,0.178571,
2,0,0,1,0,1180.3,0.177392,0.177082,-3.32936,1,0.0162712,10,-0.000589572,-2.47764,-0.219665,-0.268591,34.9286,0.177082,
2,0,0,1,0,1180.32,0.175889,0.175573,-3.38973,1,0.016208,10,-0.000595145,-2.46983,-0.192434,-0.306599,40.5486,0.175573,
2,0,0,1,0,1180.34,0.174385,0.174082,-3.45178,1,0.0161435,10,-0.000600892,-2.46196,-0.181259,-0.325502,43.8374,0.174082,
2,0,0,1,0,1180.36,0.172896,0.172639,-3.51496,1,0.0160786,10,-0.000606818,-2.45408,-0.172842,-0.341353,46.8452,0.172639,
2,0,0,1,0,1180.38,0.171392,0.171063,-3.58285,1,0.0160116,10,-0.000612893,-2.44577,-0.16527,-0.356991,50.074,0.1710631,
2,0,0,1,0,1180.39,0.169889,0.169562,-3.6648,1,0.0159433,10,-0.00062141,-2.43595,-0.147844,-0.399068,57.2898,0.169562,
2,0,0,1,0,1180.41,0.1684,0.168044,-3.75787,1,0.0158742,10,-0.000631489,-2.42506,-0.134902,-0.437354,64.0911,0.168044,
2,0,0,1,0,1180.43,0.166896,0.166565,-3.84589,1,0.0158025,10,-0.000640591,-2.415,-0.136646,-0.431774,64.7392,0.166565,
2,0,0,1,0,1180.45,0.165392,0.165068,-3.93663,1,0.0157291,10,-0.000649811,-2.40488,-0.129591,-0.455277,70.1279,0.165068,
2,0,0,1,0,1180.47,0.163905,0.16357,-4.03724,1,0.0156547,10,-0.000660373,-2.39392,-0.125667,-0.469493,74.3554,0.16357,
2,0,0,1,0,1180.49,0.162401,0.162121,-4.15264,1,0.0155774,10,-0.000673231,-2.38168,-0.115068,-0.512741,83.4858,0.1621214,
2,0,0,1,0,1180.51,0.160905,0.160547,-4.29123,1,0.0154981,10,-0.000688942,-2.36742,-0.112872,-0.522714,87.6063,0.160547,
2,0,0,1,0,1180.53,0.159409,0.159154,-4.42657,1,0.0154163,10,-0.000704507,-2.35393,-0.107544,-0.548612,95.0078,0.159154,
2,0,0,1,0,1180.54,0.157905,0.157556,-4.57528,1,0.0153315,10,-0.000720865,-2.33958,-0.103263,-0.571354,102.275,0.157556,
2,0,0,1,0,1180.56,0.156416,0.156137,-4.74118,1,0.0152447,10,-0.000740272,-2.32411,-0.0966838,-0.610237,113.122,0.156137,
2,0,0,1,0,1180.58,0.154912,0.154574,-4.92661,1,0.0151536,10,-0.000761526,-2.30745,-0.0915913,-0.644166,123.94,0.154574,
2,0,0,1,0,1180.6,0.153409,0.153107,-5.12405,1,0.015059,10,-0.000784528,-2.29039,-0.0921719,-0.640108,127.972,0.153107,
2,0,0,1,0,1180.62,0.151919,0.151643,-5.31509,1,0.0149618,10,-0.000805998,-2.27449,-0.0868043,-0.679689,141.374,0.151643,
2,0,0,1,0,1180.64,0.150416,0.150121,-5.54145,1,0.0148597,10,-0.000831888,-2.25638,-0.083573,-0.70597,152.784,0.150121,
2,0,0,1,0,1180.66,0.148912,0.148575,-5.77523,1,0.0147531,10,-0.000858054,-2.23843,-0.0818368,-0.720947,162.564,0.148575,
2,0,0,1,0,1180.68,0.147425,0.147086,-6.02253,1,0.0146433,10,-0.000885832,-2.22022,-0.0818577,-0.720763,169.472,0.147086,
2,0,0,1,0,1180.69,0.145921,0.145639,-6.27598,1,0.0145275,10,-0.000914029,-2.20232,-0.0811612,-0.726948,178.211,0.145639,
2,0,0,1,0,1180.71,0.144425,0.144171,-6.54588,1,0.0144074,10,-0.000943725,-2.18403,-0.0828826,-0.711851,181.9,0.144171,
2,0,0,1,0,1180.73,0.142929,0.142633,-6.82622,1,0.0142821,10,-0.000973641,-2.16582,-0.083001,-0.710835,189.295,0.142633,
2,0,0,1,0,1180.75,0.141425,0.14115,-7.09968,1,0.014151,10,-0.00100212,-2.14876,-0.0849899,-0.6942,192.57,0.14115,
2,0,0,1,0,1180.77,0.139936,0.139646,-7.39567,1,0.0140158,10,-0.00103277,-2.13102,-0.0858139,-0.687534,198.475,0.139646,
2,0,0,1,0,1180.79,0.138432,0.138172,-7.6892,1,0.0138737,10,-0.00106243,-2.11412,-0.0928321,-0.635556,190.782,0.138172,
2,0,0,1,0,1180.81,0.136929,0.136645,-7.98426,1,0.013726,10,-0.00109101,-2.09777,-0.0973053,-0.606339,188.666,0.136645,
2,0,0,1,0,1180.83,0.135439,0.135092,-8.26882,1,0.0135746,10,-0.00111705,-2.08256,-0.102419,-0.576068,185.572,0.135092,
2,0,0,1,0,1180.84,0.133936,0.133627,-8.54975,1,0.0134163,10,-0.00114248,-2.06805,-0.110952,-0.53176,177.004,0.133627,
2,0,0,1,0,1180.86,0.132432,0.132148,-8.80402,1,0.013253,10,-0.00116344,-2.05532,-0.118561,-0.497635,170.722,0.132148,
2,0,0,1,0,1180.88,0.130945,0.130644,-9.06154,1,0.0130867,10,-0.00118384,-2.0428,-0.126917,-0.46487,164.053,0.130644,
2,0,0,1,0,1180.9,0.129441,0.129142,-9.30324,1,0.0129139,10,-0.00120143,-2.03137,-0.137818,-0.428101,155.09,0.129142,
2,0,0,1,0,1180.92,0.127945,0.127636,-9.53133,1,0.0127376,10,-0.00121654,-2.02085,-0.153313,-0.384834,142.735,0.127636,
2,0,0,1,0,1180.94,0.126448,0.12615,-9.73106,1,0.0125574,10,-0.00122758,-2.01184,-0.168103,-0.350975,133.034,0.12615,
2,0,0,1,0,1180.96,0.124945,0.124626,-9.91774,1,0.0123725,10,-0.00123601,-2.00359,-0.18764,-0.314432,121.479,0.124626,
2,0,0,1,0,1180.98,0.123456,0.123126,-10.0926,1,0.0121863,10,-0.00124266,-1.996,-0.20966,-0.281408,110.569,0.123126,
2,0,0,1,0,1180.99,0.121952,0.121646,-10.246,1,0.011995,10,-0.00124639,-1.98944,-0.245301,-0.240521,95.8927,0.1216457,
2,0,0,1,0,1181.01,0.120449,0.120158,-10.368,1,0.0118009,10,-0.0012458,-1.98431,-0.285647,-0.206549,83.4458,0.120158,
2,0,0,1,0,1181.03,0.118959,0.118653,-10.4792,1,0.0116069,10,-0.00124339,-1.97967,-0.349891,-0.168624,68.8812,0.118653,
2,0,0,1,0,1181.05,0.117456,0.117171,-10.57,1,0.0114087,10,-0.00123849,-1.97593,-0.435207,-0.135568,55.8433,0.117171,
2,0,0,1,0,1181.07,0.115952,0.115582,-10.6399,1,0.011209,10,-0.00122979,-1.97306,-0.609431,-0.0968116,40.1262,0.115582,
2,0,0,1,0,1181.09,0.114465,0.114156,-10.6864,1,0.0110103,10,-0.00121992,-1.97117,-1.12288,-0.0525435,21.8974,0.114156,
2,0,0,1,0,1181.11,0.112961,0.112673,-10.7059,1,0.0108089,10,-0.00120626,-1.97038,-2.02758,-0.0290987,12.1553,0.1126733,
2,0,0,1,0,1181.13,0.111465,0.111186,-10.7242,1,0.0106082,10,-0.00119237,-1.96964,14.6496,0.00402742,-1.68341,0.111186,
2,0,0,1,0,1181.14,0.109968,0.109645,-10.7219,1,0.0104075,10,-0.0011756,-1.96973,1.6688,0.0353547,-14.7611,0.109645,
2,0,0,1,0,1181.16,0.108465,0.108168,-10.6927,1,0.010206,10,-0.00115661,-1.97091,0.84868,0.0695197,-28.9607,0.108168,
2,0,0,1,0,1181.18,0.106976,0.10667,-10.6494,1,0.0100073,10,-0.00113597,-1.97268,0.631073,0.0934915,-38.7899,0.10667,
2,0,0,1,0,1181.2,0.105472,0.105201,-10.5939,1,0.00980756,10,-0.00111449,-1.97494,0.523223,0.112763,-46.5408,0.105201,
2,0,0,1,0,1181.22,0.103968,0.103649,-10.5194,1,0.00960904,10,-0.00109032,-1.97801,0.44402,0.132877,-54.4388,0.103649,
2,0,0,1,0,1181.24,0.102479,0.102146,-10.4258,1,0.00941416,10,-0.00106496,-1.98189,0.343068,0.171977,-69.8098,0.102146,
2,0,0,1,0,1181.26,0.100976,0.100659,-10.3052,1,0.00921914,10,-0.00103731,-1.98695,0.310894,0.189775,-76.265,0.100659,
2,0,0,1,0,1181.28,0.0994721,0.0991288,-10.186,1,0.0090264,10,-0.00100972,-1.992,0.292525,0.201692,-80.1033,0.0991288,
2,0,0,1,0,1181.29,0.0979846,0.0976806,-10.0542,1,0.00883804,10,-0.000982103,-1.99765,0.268778,0.219512,-86.0434,0.0976806,
2,0,0,1,0,1181.31,0.0964811,0.0961215,-9.91369,1,0.00865019,10,-0.000952919,-2.00376,0.235506,0.250524,-96.7941,0.0961215,
2,0,0,1,0,1181.33,0.0949847,0.0946933,-9.75401,1,0.00846607,10,-0.00092364,-2.01082,0.222885,0.264711,-100.767,0.0946933,
2,0,0,1,0,1181.35,0.0934883,0.0931446,-9.59521,1,0.00828494,10,-0.000893742,-2.01795,0.217992,0.270652,-101.433,0.0931446,
2,0,0,1,0,1181.37,0.0919847,0.0916496,-9.43959,1,0.00810572,10,-0.000865135,-2.02505,0.218297,0.270274,-99.6677,0.0916496,
2,0,0,1,0,1181.39,0.0904955,0.0901554,-9.29274,1,0.00793121,10,-0.00083779,-2.03186,0.206181,0.286157,-103.786,0.0901554,
2,0,0,1,0,1181.41,0.0889919,0.0886795,-9.14411,1,0.00775767,10,-0.000810895,-2.03886,0.205656,0.286887,-102.357,0.0886795,
2,0,0,1,0,1181.42,0.0874884,0.0872088,-8.98374,1,0.0075871,10,-0.000783461,-2.04654,0.207729,0.284024,-99.7408,0.08720877,
2,0,0,1,0,1181.44,0.0860009,0.08569,-8.84748,1,0.00742109,10,-0.00075814,-2.05318,0.218869,0.269568,-93.1563,0.08569,
2,0,0,1,0,1181.46,0.0844973,0.0841654,-8.71378,1,0.00725584,10,-0.000733398,-2.05979,0.235068,0.250991,-85.4505,0.0841654,
2,0,0,1,0,1181.48,0.0829938,0.0827038,-8.59681,1,0.00709295,10,-0.000710989,-2.06566,0.239377,0.246473,-82.6926,0.0827038,
2,0,0,1,0,1181.5,0.0815045,0.0811898,-8.47562,1,0.00693411,10,-0.000688134,-2.07183,0.246674,0.239182,-79.1997,0.0811898,
2,0,0,1,0,1181.52,0.080001,0.079746,-8.36989,1,0.0067757,10,-0.000667465,-2.07728,0.281228,0.209794,-68.525,0.079746,
2,0,0,1,0,1181.54,0.0785046,0.0781403,-8.2789,1,0.00662,10,-0.000646916,-2.08203,0.311403,0.189465,-61.1996,0.0781403,
2,0,0,1,0,1181.56,0.0770082,0.076694,-8.18439,1,0.00646602,10,-0.000627694,-2.08701,0.321094,0.183747,-58.6507,0.076694,
2,0,0,1,0,1181.57,0.0755046,0.0751493,-8.08928,1,0.0063129,10,-0.000607904,-2.09209,0.351894,0.167664,-52.9949,0.0751493,
2,0,0,1,0,1181.59,0.0740154,0.0737048,-8.00973,1,0.00616302,10,-0.000590356,-2.09638,0.386618,0.152605,-47.7657,0.0737048,
2,0,0,1,0,1181.61,0.0725118,0.0722321,-7.93712,1,0.00601293,10,-0.000573315,-2.10034,0.39578,0.149073,-46.1974,0.0722321,
2,0,0,1,0,1181.63,0.0710083,0.0707109,-7.86469,1,0.00586412,10,-0.000556119,-2.10432,0.397806,0.148314,-45.525,0.0707109,
2,0,0,1,0,1181.65,0.0695208,0.0692258,-7.79836,1,0.00571819,10,-0.000539847,-2.108,0.408295,0.144503,-44.025,0.0692258,
2,0,0,1,0,1181.67,0.0680173,0.0676565,-7.73072,1,0.00557201,10,-0.000523033,-2.11178,0.460371,0.128157,-38.7318,0.0676565,
2,0,0,1,0,1181.69,0.0665137,0.066209,-7.67151,1,0.00542693,10,-0.000507923,-2.11512,0.432966,0.136269,-40.819,0.066209,
2,0,0,1,0,1181.71,0.0650244,0.064665,-7.61242,1,0.00528444,10,-0.000492257,-2.11848,0.407695,0.144716,-43.0089,0.064665,
2,0,0,1,0,1181.72,0.0635209,0.0632041,-7.55501,1,0.00514162,10,-0.000477508,-2.12176,0.391387,0.150746,-44.459,0.06320408,
2,0,0,1,0,1181.74,0.0620245,0.0616825,-7.49584,1,0.00500074,10,-0.000462362,-2.12518,0.382082,0.154417,-45.1528,0.0616825,
2,0,0,1,0,1181.76,0.0605281,0.0602139,-7.43281,1,0.00486103,10,-0.000447558,-2.12885,0.385476,0.153058,-44.3811,0.0602139,
2,0,0,1,0,1181.78,0.0590246,0.0587196,-7.37936,1,0.00472168,10,-0.000433313,-2.13198,0.408408,0.144463,-41.5539,0.0587196,
2,0,0,1,0,1181.8,0.0575353,0.0572114,-7.32168,1,0.00458493,10,-0.000418883,-2.13539,0.378752,0.155775,-44.4325,0.0572114,
2,0,0,1,0,1181.82,0.0560317,0.0557041,-7.24435,1,0.00444794,10,-0.00040354,-2.14,0.381431,0.154681,-43.7457,0.0557041,
2,0,0,1,0,1181.84,0.0545282,0.054186,-7.17978,1,0.0043122,10,-0.000389043,-2.14389,0.420578,0.140283,-39.3173,0.054186,
2,0,0,1,0,1181.86,0.0530407,0.0527016,-7.1237,1,0.00417906,10,-0.000375431,-2.14729,0.388411,0.151901,-42.181,0.0527016,
2,0,0,1,0,1181.87,0.0515372,0.0511968,-7.05674,1,0.00404567,10,-0.000361282,-2.1514,0.355659,0.165889,-45.5863,0.0511968,
2,0,0,1,0,1181.89,0.0500336,0.049723,-6.96405,1,0.00391366,10,-0.000346273,-2.15714,0.337685,0.174719,-47.5406,0.049723,
2,0,0,1,0,1181.91,0.0485444,0.0482655,-6.89624,1,0.00378454,10,-0.000332851,-2.16139,0.313412,0.188251,-50.6606,0.0482655,
2,0,0,1,0,1181.93,0.0470408,0.046714,-6.8194,1,0.00365539,10,-0.000318562,-2.16625,0.312321,0.188908,-50.2602,0.046714,
2,0,0,1,0,1181.95,0.0455444,0.0452173,-6.74234,1,0.00352836,10,-0.000304871,-2.17119,0.282935,0.208528,-54.8111,0.0452173,
2,0,0,1,0,1181.97,0.044048,0.0437381,-6.65211,1,0.00340286,10,-0.000290951,-2.17704,0.256106,0.230374,-59.8444,0.04373809,
2,0,0,1,0,1181.99,0.0425445,0.0421975,-6.56855,1,0.0032784,10,-0.000277176,-2.18253,0.259861,0.227044,-58.2629,0.04219747,
2,0,0,1,0,1182.01,0.0410552,0.0407397,-6.48488,1,0.00315682,10,-0.000264192,-2.1881,0.26542,0.222289,-56.2454,0.0407397,
2,0,0,1,0,1182.02,0.0395517,0.0392682,-6.40269,1,0.00303548,10,-0.000251422,-2.19364,0.240921,0.244894,-61.1207,0.0392682,
2,0,0,1,0,1182.04,0.0380481,0.0377102,-6.31464,1,0.00291579,10,-0.000238126,-2.19965,0.22993,0.2566,-63.1816,0.0377102,
2,0,0,1,0,1182.06,0.0365606,0.0361788,-6.21625,1,0.00279913,10,-0.000224897,-2.20647,0.223683,0.263766,-64.0103,0.0361788,
2,0,0,1,0,1182.08,0.0350571,0.0347429,-6.13664,1,0.00268289,10,-0.000213204,-2.21207,0.241415,0.244392,-58.4905,0.0347429,
2,0,0,1,0,1182.1,0.0335535,0.0332397,-6.05194,1,0.00256825,10,-0.000201165,-2.21811,0.256789,0.229761,-54.2343,0.0332397,
2,0,0,1,0,1182.12,0.0320643,0.0317236,-5.97075,1,0.00245635,10,-0.000189414,-2.22397,0.244648,0.241163,-56.1318,0.0317236,
2,0,0,1,0,1182.14,0.0305607,0.0302396,-5.88302,1,0.00234481,10,-0.0001779,-2.2304,0.26911,0.219241,-50.413,0.0302396,
2,0,0,1,0,1182.16,0.0290643,0.0287549,-5.81086,1,0.0022354,10,-0.00016709,-2.23576,0.294958,0.200028,-45.3988,0.0287549,
2,0,0,1,0,1182.17,0.0275679,0.0272323,-5.74492,1,0.00212723,10,-0.000156447,-2.24072,0.308941,0.190975,-42.7818,0.02723233,
2,0,0,1,0,1182.19,0.0260644,0.0257238,-5.67491,1,0.00201974,10,-0.00014598,-2.24604,0.306074,0.192764,-42.645,0.0257238,
2,0,0,1,0,1182.21,0.0245751,0.0242469,-5.60275,1,0.00191464,10,-0.000135849,-2.2516,0.327728,0.180028,-39.4243,0.02424687,
2,0,0,1,0,1182.23,0.0230716,0.0227373,-5.54667,1,0.00180967,10,-0.000126116,-2.25597,0.353498,0.166903,-36.1927,0.02273727,
2,0,0,1,0,1182.25,0.021568,0.0212733,-5.49488,1,0.00170566,10,-0.000116894,-2.26004,0.409471,0.144088,-30.9267,0.0212733,
2,0,0,1,0,1182.27,0.0200805,0.0198186,-5.44474,1,0.00160367,10,-0.000107907,-2.26402,0.382405,0.154287,-32.8109,0.0198186,
2,0,0,1,0,1182.29,0.018577,0.0182569,-5.40302,1,0.00150144,10,-9.86422e-05,-2.26736,0.412971,0.142867,-30.1475,0.0182569,
2,0,0,1,0,1182.31,0.0170735,0.0167224,-5.35787,1,0.0014001,10,-8.95964e-05,-2.27101,0.474856,0.124248,-26.0539,0.0167224,
2,0,0,1,0,1182.32,0.0155842,0.0152639,-5.32849,1,0.00130049,10,-8.13336e-05,-2.2734,0.57099,0.103329,-21.5149,0.0152639,
2,0,0,1,0,1182.34,0.0140806,0.0137441,-5.31017,1,0.00120026,10,-7.29834e-05,-2.27489,0.583295,0.10115,-20.9459,0.0137441,
2,0,0,1,0,1182.36,0.0125842,0.0122779,-5.28933,1,0.00110107,10,-6.49419e-05,-2.2766,0.596524,0.0989064,-20.3862,0.0122779,
2,0,0,1,0,1182.38,0.0110878,0.0107337,-5.25652,1,0.00100248,10,-5.6422e-05,-2.2793,0.828674,0.0711981,-14.6168,0.0107337,
2,0,0,1,0,1182.4,0.00958429,0.00928037,-5.23786,1,0.000903741,10,-4.86092e-05,-2.28085,1.27824,0.046157,-9.43387,0.00928037,
2,0,0,1,0,1182.42,0.0080968,0.00779769,-5.22699,1,0.000806268,10,-4.07584e-05,-2.28175,1.66377,0.0354616,-7.23189,0.00779769,
2,0,0,1,0,1182.44,0.00659326,0.00629763,-5.2138,1,0.000708027,10,-3.28346e-05,-2.28285,1.93981,0.0304154,-6.1875,0.00629763,
2,0,0,1,0,1182.45,0.00508972,0.00477815,-5.19809,1,0.000609993,10,-2.48373e-05,-2.28416,3.86728,0.0152562,-3.09612,0.00477815,
2,0,0,1,0,1182.47,0.00360044,0.00329138,-5.19562,1,0.000513199,10,-1.71008e-05,-2.28436,-0.994657,-0.0593169,12.0897,0.00329138,
2,0,0,1,0,1182.49,0.0020969,0.00171838,-5.25432,1,0.00041522,10,-9.02894e-06,-2.27948,-1.29238,-0.0456521,9.275,0.00171838,
2,0,0,1,0,1182.51,0.000593362,0.000209462,-5.22598,1,0.000316495,10,-1.09465e-06,-2.28183, , , ,0.000209462,
2,0,0,1,0,1182.52,0.000199195,-0.000166899,-5.22422,1,0.000290837,10,8.71916e-07,-2.28198, , , ,-0.000166899,