File: Figure_codes/Fig_3-5/rawdata_trumpetplot_data/after 10th/20221101_1-115_003_TrumpetPlot_ParaChange_from10_every3_03_CV_C01_32.csv
mode,ox/red,error,control changes,counter inc.,time/s,control/V,Ewe/V,<I>/mA,cycle number,(Q-Qo)/C,I Range,P/W,log(|I|),Tafel slope mV/dec,alpha_eff,dI/d(E-IR),E-IR/V,
2,0,0,1,0,63984.2,2.44065e-05,-0.000382585,-0.104482,33,0.0000000E+000,10,3.99734e-08,-3.98096, , , ,-0.000382585,
2,1,0,0,0,63984.4,0.00129787,0.000882479,0.118596,33,1.77444e-05,10,1.04658e-07,-3.92593, , , ,0.000882479,
2,1,0,0,0,63984.7,0.00279606,0.00243597,0.162514,33,6.54927e-05,10,3.9588e-07,-3.78911,0.0124571,4.73624,23.4732,0.00243597,
2,1,0,1,0,63985,0.00429469,0.00394424,0.175432,33,0.000120238,10,6.91948e-07,-3.75589,0.0505123,1.16803,7.87861,0.00394424,
2,1,0,1,0,63985.3,0.00579255,0.00548477,0.184917,33,0.000178379,10,1.01423e-06,-3.73302,0.0617961,0.954753,6.88647,0.00548477,
2,1,0,1,0,63985.6,0.00729041,0.00696473,0.196354,33,0.00023953,10,1.36755e-06,-3.70696,0.0777606,0.758739,5.73534,0.00696473,
2,1,0,1,0,63985.9,0.00878882,0.00846014,0.202406,33,0.000303215,10,1.71238e-06,-3.69378,0.0930363,0.634161,4.99049,0.00846014,
2,1,0,1,0,63986.2,0.010287,0.00996698,0.209528,33,0.000368912,10,2.08836e-06,-3.67876,0.112107,0.526282,4.27815,0.00996698,
2,1,0,1,0,63986.5,0.0117852,0.0114314,0.215563,33,0.000436575,10,2.46418e-06,-3.66643,0.119517,0.493653,4.15188,0.0114314,
2,1,0,1,0,63986.8,0.0132836,0.0129206,0.220805,33,0.000505781,10,2.85293e-06,-3.65599,0.121392,0.48603,4.21731,0.0129206,
2,1,0,1,0,63987.1,0.0147815,0.014427,0.226874,33,0.00057688,10,3.27312e-06,-3.64421,0.136661,0.431725,3.81569,0.014427,
2,1,0,1,0,63987.4,0.0162793,0.0159409,0.23253,33,0.00064984,10,3.70673e-06,-3.63352,0.17393,0.339216,3.06737,0.0159409,
2,1,0,0,0,63987.7,0.017778,0.0174174,0.237859,33,0.000724244,10,4.14288e-06,-3.62368,0.176026,0.335179,3.09999,0.0174174,
2,1,0,0,0,63988,0.0192761,0.0189083,0.24266,33,0.000799852,10,4.5883e-06,-3.615,0.176689,0.333919,3.15363,0.0189083,
2,1,0,1,0,63988.3,0.0207747,0.0204103,0.247961,33,0.000877035,10,5.06095e-06,-3.60562,0.162345,0.363424,3.49467,0.0204103,
2,1,0,1,0,63988.6,0.0222725,0.0219337,0.251857,33,0.000955916,10,5.52415e-06,-3.59885,0.182285,0.323669,3.17019,0.0219337,
2,1,0,1,0,63988.9,0.0237704,0.0234241,0.257757,33,0.00103616,10,6.03773e-06,-3.58879,0.193532,0.304859,3.05755,0.0234241,
2,1,0,1,0,63989.2,0.0252689,0.0249399,0.260172,33,0.00111765,10,6.48866e-06,-3.58474,0.162806,0.362395,3.7051,0.0249399,
2,1,0,1,0,63989.5,0.0267671,0.0264266,0.266482,33,0.00120069,10,7.04221e-06,-3.57433,0.150109,0.393049,4.08582,0.02642661,
2,1,0,1,0,63989.8,0.0282657,0.0278946,0.273039,33,0.00128556,10,7.61633e-06,-3.56377,0.177754,0.331919,3.52499,0.0278946,
2,1,0,1,0,63990.1,0.0297635,0.0293959,0.277452,33,0.00137189,10,8.15593e-06,-3.55681,0.205827,0.286648,3.10012,0.0293959,
2,1,0,1,0,63990.4,0.0312613,0.0309478,0.280318,33,0.00145949,10,8.67521e-06,-3.55235,0.182804,0.322751,3.55348,0.0309478,
2,1,0,0,0,63990.7,0.0327599,0.0324094,0.287662,33,0.00154854,10,9.32297e-06,-3.54112,0.174052,0.33898,3.79984,0.0324094,
2,1,0,0,0,63991,0.034258,0.0339279,0.292379,33,0.00163937,10,9.91983e-06,-3.53405,0.177467,0.332457,3.79669,0.0339279,
2,1,0,1,0,63991.3,0.0357567,0.0353874,0.297172,33,0.00173176,10,1.05161e-05,-3.52699,0.215114,0.274273,3.17997,0.03538743,
2,1,0,1,0,63991.6,0.0372545,0.0369257,0.302698,33,0.00182569,10,1.11773e-05,-3.51899,0.208542,0.282916,3.3398,0.0369257,
2,1,0,1,0,63991.9,0.0387524,0.0383996,0.307152,33,0.00192085,10,1.17945e-05,-3.51265,0.209236,0.281979,3.39094,0.0383996,
2,1,0,1,0,63992.2,0.0402508,0.0399373,0.311605,33,0.00201764,10,1.24446e-05,-3.5064,0.227613,0.259211,3.16025,0.03993725,
2,1,0,1,0,63992.5,0.041749,0.0414335,0.316986,33,0.002116,10,1.31338e-05,-3.49896,0.252577,0.233592,2.89062,0.04143348,
2,1,0,1,0,63992.8,0.0432472,0.0429212,0.322885,33,0.00221568,10,1.38586e-05,-3.49095,0.243406,0.242393,3.04108,0.04292123,
2,1,0,1,0,63993.1,0.0447456,0.0444358,0.326785,33,0.00231657,10,1.4521e-05,-3.48574,0.249413,0.236555,3.00904,0.0444358,
2,1,0,1,0,63993.4,0.0462435,0.0459082,0.331616,33,0.00241906,10,1.52239e-05,-3.47936,0.219925,0.268273,3.46502,0.0459082,
2,1,0,1,0,63993.7,0.0477413,0.0473947,0.335884,33,0.00252296,10,1.59191e-05,-3.47381,0.245699,0.240131,3.15438,0.0473947,
2,1,0,0,0,63994,0.0492399,0.0489348,0.339528,33,0.00262823,10,1.66147e-05,-3.46912,0.291162,0.202636,2.69495,0.0489348,
2,1,0,0,0,63994.3,0.0507381,0.0503822,0.344315,33,0.00273459,10,1.73473e-05,-3.46304,0.259101,0.22771,3.06708,0.0503822,
2,1,0,1,0,63994.6,0.0522367,0.0519159,0.349538,33,0.00284229,10,1.81466e-05,-3.45651,0.257404,0.229212,3.11691,0.0519159,
2,1,0,1,0,63994.9,0.0537345,0.0534078,0.354415,33,0.00295152,10,1.89285e-05,-3.45049,0.279607,0.21101,2.90643,0.05340777,
2,1,0,1,0,63995.2,0.0552323,0.0549076,0.357239,33,0.00306189,10,1.96151e-05,-3.44704,0.335669,0.175769,2.44393,0.05490759,
2,1,0,1,0,63995.5,0.0567309,0.0563873,0.358705,33,0.00317341,10,2.02264e-05,-3.44526,0.327531,0.180136,2.53568,0.0563873,
2,1,0,1,0,63995.8,0.0582291,0.0578549,0.364609,33,0.00328593,10,2.10944e-05,-3.43817,0.306105,0.192744,2.74296,0.0578549,
2,1,0,1,0,63996.1,0.0597277,0.0593622,0.36917,33,0.0033999,10,2.19147e-05,-3.43277,0.32484,0.181628,2.6149,0.0593622,
2,1,0,1,0,63996.4,0.0612255,0.0608899,0.373153,33,0.00351506,10,2.27213e-05,-3.42811,0.437986,0.134708,1.95597,0.0608899,
2,1,0,1,0,63996.7,0.0627233,0.0623764,0.376112,33,0.00363142,10,2.34605e-05,-3.42468,0.36177,0.163087,2.39251,0.0623764,
2,1,0,0,0,63997,0.0642218,0.0638865,0.379872,33,0.00374852,10,2.42687e-05,-3.42036,0.382896,0.154089,2.2885,0.0638865,
2,1,0,0,0,63997.3,0.06572,0.0653679,0.382965,33,0.00386682,10,2.50337e-05,-3.41684,0.315304,0.187121,2.79366,0.0653679,
2,1,0,1,0,63997.6,0.0672187,0.0668815,0.387143,33,0.00398647,10,2.58927e-05,-3.41213,0.370479,0.159253,2.40053,0.0668815,
2,1,0,1,0,63997.9,0.0687165,0.0684093,0.39077,33,0.00410695,10,2.67323e-05,-3.40808,0.508754,0.11597,1.76611,0.0684093,
2,1,0,1,0,63998.2,0.0702144,0.0698394,0.392206,33,0.00422804,10,2.73914e-05,-3.40649,0.414253,0.142425,2.18482,0.0698394,
2,1,0,1,0,63998.5,0.0717128,0.0713709,0.396985,33,0.00435024,10,2.83331e-05,-3.40123,0.368986,0.159898,2.46773,0.0713709,
2,1,0,1,0,63998.8,0.073211,0.0728226,0.398288,33,0.00447343,10,2.90043e-05,-3.3998,0.481186,0.122614,1.9089,0.0728226,
2,1,0,1,0,63999.1,0.0747092,0.0743538,0.401519,33,0.00459744,10,2.98545e-05,-3.39629,0.502668,0.117374,1.84344,0.0743538,
2,1,0,1,0,63999.4,0.0762076,0.0758503,0.403403,33,0.00472205,10,3.05982e-05,-3.39426,0.484619,0.121745,1.92298,0.0758503,
2,1,0,1,0,63999.7,0.0777054,0.077362,0.407393,33,0.00484765,10,3.15168e-05,-3.38999,0.394477,0.149565,2.37725,0.077362,
2,1,0,1,0,64000,0.0792033,0.0788558,0.411088,33,0.00497419,10,3.24167e-05,-3.38607,0.492523,0.119791,1.91832,0.07885576,
2,1,0,0,0,64000.3,0.0807019,0.0803811,0.414124,33,0.00510181,10,3.32877e-05,-3.38287,0.425595,0.13863,2.23361,0.0803811,
2,1,0,0,0,64000.6,0.0822001,0.0818159,0.414847,33,0.00523006,10,3.3941e-05,-3.38211,0.517075,0.114103,1.85359,0.0818159,
2,1,0,1,0,64000.9,0.0836986,0.0833931,0.419319,33,0.0053592,10,3.49683e-05,-3.37746,0.382588,0.154213,2.52752,0.0833931,
2,1,0,1,0,64001.2,0.0851965,0.0848625,0.422731,33,0.00548946,10,3.5874e-05,-3.37394,0.375328,0.157196,2.59858,0.0848625,
2,1,0,1,0,64001.5,0.0866944,0.0863298,0.426546,33,0.00562088,10,3.68236e-05,-3.37003,0.395634,0.149128,2.48592,0.0863298,
2,1,0,1,0,64001.8,0.0881929,0.0878623,0.431776,33,0.00575354,10,3.79369e-05,-3.36474,0.330794,0.178359,3.00487,0.08786232,
2,1,0,1,0,64002.1,0.0896911,0.0893045,0.435855,33,0.00588733,10,3.89238e-05,-3.36066,0.267446,0.220605,3.76132,0.0893045,
2,1,0,1,0,64002.4,0.0911897,0.0909009,0.441956,33,0.00602271,10,4.01742e-05,-3.35462,0.267365,0.220672,3.79456,0.0909009,
2,1,0,1,0,64002.7,0.0926875,0.0923519,0.44808,33,0.0061599,10,4.13811e-05,-3.34864,0.268782,0.219509,3.82348,0.0923519,
2,1,0,1,0,64003,0.0941853,0.093813,0.452973,33,0.00629871,10,4.24947e-05,-3.34393,0.268066,0.220095,3.89481,0.09381301,
2,1,0,0,0,64003.3,0.0956838,0.0953552,0.456626,33,0.00643897,10,4.35416e-05,-3.34044,0.238434,0.247448,4.43945,0.0953552,
2,1,0,0,0,64003.6,0.097182,0.0968684,0.465622,33,0.00658142,10,4.5104e-05,-3.33197,0.209955,0.281013,5.094,0.0968684,
2,1,0,1,0,64003.9,0.0986807,0.0983343,0.472176,33,0.0067261,10,4.64311e-05,-3.3259,0.2154,0.273909,5.05741,0.0983343,
2,1,0,1,0,64004.2,0.100179,0.0998293,0.478916,33,0.00687282,10,4.78099e-05,-3.31974,0.222563,0.265094,4.96521,0.0998293,
2,1,0,1,0,64004.5,0.101676,0.101349,0.485718,33,0.00702179,10,4.92272e-05,-3.31362,0.217505,0.271258,5.15757,0.101349,
2,1,0,1,0,64004.8,0.103175,0.102877,0.495026,33,0.0071731,10,5.09266e-05,-3.30537,0.207882,0.283814,5.48461,0.1028766,
2,1,0,1,0,64005.1,0.104673,0.104329,0.504743,33,0.007327,10,5.26596e-05,-3.29693,0.20892,0.282405,5.54599,0.104329,
2,1,0,1,0,64005.4,0.106171,0.105867,0.511371,33,0.00748338,10,5.41373e-05,-3.29126,0.256362,0.230143,4.58705,0.105867,
2,1,0,1,0,64005.7,0.10767,0.107356,0.518554,33,0.00764199,10,5.56699e-05,-3.28521,0.248327,0.23759,4.80999,0.107356,
2,1,0,1,0,64006,0.109167,0.108841,0.526078,33,0.00780241,10,5.72591e-05,-3.27895,0.257519,0.229109,4.71281,0.108841,
2,1,0,1,0,64006.3,0.110665,0.110302,0.532563,33,0.00796515,10,5.87428e-05,-3.27363,0.274885,0.214635,4.45961,0.110302,
2,1,0,0,0,64006.6,0.112164,0.111826,0.539488,33,0.00812996,10,6.0329e-05,-3.26802,0.347113,0.169973,3.57059,0.111826,
2,1,0,0,0,64006.9,0.113662,0.113328,0.545881,33,0.00829638,10,6.18636e-05,-3.2629,0.357727,0.16493,3.50659,0.113328,
2,1,0,1,0,64007.2,0.115161,0.114807,0.54882,33,0.00846397,10,6.30086e-05,-3.26057,0.391509,0.150699,3.22883,0.114807,
2,1,0,1,0,64007.5,0.116658,0.116294,0.555009,33,0.00863338,10,6.45441e-05,-3.2557,0.388162,0.151998,3.2775,0.116294,
2,1,0,1,0,64007.8,0.118156,0.11779,0.558951,33,0.00880437,10,6.58386e-05,-3.25263,0.459042,0.128528,2.79947,0.11779,
2,1,0,1,0,64008.1,0.119655,0.119364,0.561683,33,0.00897639,10,6.70446e-05,-3.25051,0.700239,0.084257,1.84842,0.119364,
2,1,0,1,0,64008.4,0.121153,0.120844,0.563142,33,0.00914903,10,6.80524e-05,-3.24938,0.631686,0.0934008,2.05898,0.120844,
2,1,0,1,0,64008.7,0.122652,0.122348,0.567409,33,0.00932268,10,6.94216e-05,-3.2461,0.548512,0.107564,2.37945,0.122348,
2,1,0,1,0,64009,0.124149,0.123802,0.571465,33,0.00949734,10,7.07483e-05,-3.24301,0.750881,0.0785743,1.74669,0.123802,
2,1,0,1,0,64009.3,0.125647,0.125298,0.573259,33,0.0096728,10,7.1828e-05,-3.24165,1.2349,0.0477773,1.06621,0.125298,
2,1,0,0,0,64009.6,0.127146,0.126826,0.571877,33,0.00984873,10,7.25288e-05,-3.2427,1.96667,0.03,0.671112,0.1268259,
2,1,0,0,0,64009.9,0.128644,0.128287,0.574897,33,0.0100248,10,7.37519e-05,-3.24041,3.09576,0.0190583,0.42779,0.128287,
2,1,0,1,0,64010.2,0.130143,0.129787,0.576541,33,0.0102013,10,7.48276e-05,-3.23917,-2.36305,-0.0249677,-0.558696,0.129787,
2,1,0,1,0,64010.5,0.131641,0.131292,0.573828,33,0.0103777,10,7.53393e-05,-3.24122,-0.564261,-0.104562,-2.3327,0.131292,
2,1,0,1,0,64010.8,0.133138,0.132819,0.570734,33,0.0105532,10,7.58044e-05,-3.24357,-0.414397,-0.142375,-3.16054,0.132819,
2,1,0,1,0,64011.1,0.134637,0.134269,0.564703,33,0.0107271,10,7.5822e-05,-3.24818,-0.299386,-0.19707,-4.33893,0.134269,
2,1,0,1,0,64011.4,0.136135,0.135743,0.557522,33,0.0108992,10,7.56797e-05,-3.25374,-0.21807,-0.270556,-5.85639,0.135743,
2,1,0,1,0,64011.7,0.137633,0.137283,0.547789,33,0.0110688,10,7.52019e-05,-3.26139,-0.155192,-0.380174,-8.08101,0.137283,
2,1,0,1,0,64012,0.139132,0.138802,0.535043,33,0.0112348,10,7.42653e-05,-3.27161,-0.130938,-0.450597,-9.35091,0.138802,
2,1,0,1,0,64012.3,0.140629,0.140261,0.51913,33,0.0113964,10,7.28138e-05,-3.28472,-0.108039,-0.546101,-11.0174,0.140261,
2,1,0,1,0,64012.6,0.142127,0.141799,0.502552,33,0.0115534,10,7.12615e-05,-3.29882,-0.0968273,-0.609332,-11.8723,0.141799,
2,1,0,0,0,64012.9,0.143626,0.1433,0.483216,33,0.0117052,10,6.9245e-05,-3.31586,-0.0876768,-0.672926,-12.6603,0.1433,
2,1,0,0,0,64013.2,0.145124,0.144774,0.46238,33,0.0118509,10,6.69407e-05,-3.335,-0.079465,-0.742465,-13.4247,0.144774,
2,1,0,1,0,64013.5,0.146623,0.146279,0.441624,33,0.0119904,10,6.46005e-05,-3.35495,-0.079157,-0.745354,-12.8877,0.146279,
2,1,0,1,0,64013.8,0.14812,0.147749,0.423878,33,0.0121241,10,6.26275e-05,-3.37276,-0.0825072,-0.715089,-11.8153,0.1477488,
2,1,0,1,0,64014.1,0.149618,0.149233,0.406394,33,0.0122524,10,6.06473e-05,-3.39105,-0.0845924,-0.697462,-11.0527,0.149233,
2,1,0,1,0,64014.4,0.151117,0.150808,0.39062,33,0.0123755,10,5.89086e-05,-3.40825,-0.0869484,-0.678563,-10.3443,0.150808,
2,1,0,1,0,64014.7,0.152615,0.152242,0.374257,33,0.0124939,10,5.69775e-05,-3.42683,-0.0993695,-0.593743,-8.73421,0.152242,
2,1,0,1,0,64015,0.154114,0.153765,0.363794,33,0.0126083,10,5.59388e-05,-3.43914,-0.117281,-0.503067,-7.16494,0.153765,
2,1,0,1,0,64015.3,0.155612,0.155239,0.35426,33,0.0127194,10,5.49948e-05,-3.45068,-0.13237,-0.44572,-6.16094,0.155239,
2,1,0,1,0,64015.6,0.157109,0.156789,0.344534,33,0.0128279,10,5.40192e-05,-3.46277,-0.136459,-0.432364,-5.83325,0.156789,
2,1,0,0,0,64015.9,0.158608,0.158261,0.337666,33,0.0129338,10,5.34392e-05,-3.47151,-0.176738,-0.333828,-4.41412,0.158261,
2,1,0,0,0,64016.2,0.160106,0.159784,0.331584,33,0.0130376,10,5.29819e-05,-3.47941,-0.222529,-0.265134,-3.44556,0.159784,
2,1,0,1,0,64016.5,0.161605,0.161291,0.326578,33,0.0131399,10,5.26741e-05,-3.48601,-0.242151,-0.24365,-3.10494,0.161291,
2,1,0,1,0,64016.8,0.163102,0.162741,0.323126,33,0.0132409,10,5.25858e-05,-3.49063,-0.259293,-0.227542,-2.86166,0.162741,
2,1,0,1,0,64017.1,0.1646,0.164289,0.317855,33,0.0133405,10,5.222e-05,-3.49777,-0.277206,-0.212838,-2.64304,0.164289,
2,1,0,1,0,64017.4,0.166099,0.165764,0.315213,33,0.013439,10,5.2251e-05,-3.5014,-0.329898,-0.178843,-2.19859,0.165764,
2,1,0,1,0,64017.7,0.167597,0.167248,0.311761,33,0.0135365,10,5.21412e-05,-3.50618,-0.416712,-0.141585,-1.71923,0.167248,
2,1,0,1,0,64018,0.169095,0.168731,0.309495,33,0.0136333,10,5.22214e-05,-3.50935,-0.427056,-0.138155,-1.66746,0.168731,
2,1,0,1,0,64018.3,0.170594,0.170272,0.306678,33,0.0137294,10,5.22187e-05,-3.51332,-0.446033,-0.132277,-1.58803,0.1702721,
2,1,0,1,0,64018.6,0.172091,0.17172,0.304077,33,0.0138247,10,5.22162e-05,-3.51702,-0.585484,-0.100771,-1.19951,0.17172,
2,1,0,1,0,64018.9,0.173589,0.173252,0.302171,33,0.0139194,10,5.23518e-05,-3.51975,-1.07436,-0.0549166,-0.650067,0.173252,
2,1,0,0,0,64019.2,0.175088,0.174757,0.302335,33,0.0140137,10,5.28353e-05,-3.51951,-0.762382,-0.0773891,-0.909448,0.1747573,
2,1,0,0,0,64019.5,0.176586,0.176241,0.300869,33,0.0141077,10,5.30254e-05,-3.52162,-0.657655,-0.0897126,-1.04943,0.176241,
2,1,0,1,0,64019.8,0.178085,0.177782,0.297963,33,0.0142011,10,5.29724e-05,-3.52584,-0.730699,-0.0807446,-0.944174,0.177782,
2,1,0,1,0,64020.1,0.179582,0.179249,0.297211,33,0.014294,10,5.32748e-05,-3.52694,-0.93971,-0.0627853,-0.730967,0.179249,
2,1,0,1,0,64020.4,0.18108,0.180781,0.297505,33,0.0143867,10,5.37833e-05,-3.52651,-1.07046,-0.0551164,-0.640014,0.180781,
2,1,0,1,0,64020.7,0.182579,0.182247,0.295356,33,0.0144792,10,5.38278e-05,-3.52965,-0.7299,-0.0808329,-0.930805,0.182247,
2,1,0,1,0,64021,0.184077,0.183739,0.294751,33,0.0145713,10,5.41573e-05,-3.53054,-1.24052,-0.0475609,-0.54723,0.183739,
2,1,0,1,0,64021.3,0.185576,0.185257,0.294744,33,0.0146631,10,5.46034e-05,-3.53056,-1.11211,-0.0530525,-0.608628,0.185257,
2,1,0,1,0,64021.6,0.187074,0.186739,0.293361,33,0.0147547,10,5.47819e-05,-3.5326,-1.55012,-0.0380616,-0.434323,0.186739,
2,1,0,1,0,64021.9,0.188571,0.188247,0.292763,33,0.0148461,10,5.51116e-05,-3.53348,-2.43045,-0.0242753,-0.277113,0.188247,
2,1,0,0,0,64022.2,0.19007,0.189724,0.292798,33,0.0149372,10,5.55507e-05,-3.53343,-1.06271,-0.0555182,-0.63169,0.189724,
2,1,0,0,0,64022.5,0.191568,0.19124,0.290945,33,0.0150281,10,5.56405e-05,-3.53619,-1.73402,-0.034025,-0.386391,0.19124,
2,1,0,1,0,64022.8,0.193067,0.192752,0.290008,33,0.0151188,10,5.58997e-05,-3.53759,6.22786,0.00947356,0.107168,0.192752,
2,1,0,1,0,64023.1,0.194564,0.194209,0.289587,33,0.0152094,10,5.62403e-05,-3.53822,17.5905,0.00335408,0.0379413,0.194209,
2,1,0,1,0,64023.4,0.196062,0.195731,0.289744,33,0.0152999,10,5.67119e-05,-3.53798,-1.01721,-0.0580019,-0.65501,0.195731,
2,1,0,1,0,64023.7,0.197561,0.197199,0.287799,33,0.0153902,10,5.67536e-05,-3.54091,-2.35202,-0.0250848,-0.283152,0.1971987,
2,1,0,1,0,64024,0.199059,0.198721,0.288219,33,0.0154801,10,5.72752e-05,-3.54028,-2.0965,-0.0281422,-0.316409,0.198721,
2,1,0,1,0,64024.3,0.200557,0.200218,0.288016,33,0.0155701,10,5.76659e-05,-3.54058,-1.44259,-0.0408987,-0.45923,0.200218,
2,1,0,1,0,64024.6,0.202056,0.201736,0.287208,33,0.01566,10,5.79403e-05,-3.5418,-1.17125,-0.0503737,-0.564095,0.201736,
2,1,0,1,0,64024.9,0.203553,0.203214,0.286245,33,0.0157496,10,5.8169e-05,-3.54326,-2.0122,-0.0293211,-0.32864,0.203214,
2,1,0,1,0,64025.2,0.205051,0.204694,0.286534,33,0.015839,10,5.86518e-05,-3.54282,1.22592,0.0481271,0.541635,0.204694,
2,1,0,0,0,64025.5,0.20655,0.206216,0.28567,33,0.0159284,10,5.89099e-05,-3.54413,-2.40026,-0.0245807,-0.274851,0.206216,
2,1,0,0,0,64025.8,0.208048,0.207715,0.285112,33,0.0160181,10,5.9222e-05,-3.54498,-2.5352,-0.0232724,-0.25909,0.207715,
2,1,0,1,0,64026.1,0.209547,0.209231,0.28681,33,0.0161074,10,6.00093e-05,-3.54241,-1.61196,-0.0366014,-0.408914,0.209231,
2,1,0,1,0,64026.4,0.211044,0.210728,0.285197,33,0.0161964,10,6.00989e-05,-3.54486,-4.65268,-0.0126809,-0.141158,0.2107275,
2,1,0,1,0,64026.7,0.212542,0.212203,0.285107,33,0.0162855,10,6.05007e-05,-3.54499,-6.05024,-0.00975168,-0.108415,0.212203,
2,1,0,1,0,64027,0.214041,0.213741,0.284725,33,0.0163745,10,6.08574e-05,-3.54557,-3.47307,-0.0169879,-0.188823,0.213741,
2,1,0,1,0,64027.3,0.215539,0.215202,0.284644,33,0.0164634,10,6.1256e-05,-3.5457,-4.73602,-0.0124577,-0.138546,0.215202,
2,1,0,1,0,64027.6,0.217038,0.216697,0.284187,33,0.016552,10,6.15823e-05,-3.5464,-30.4763,-0.00193593,-0.0214654,0.216697,
2,1,0,1,0,64027.9,0.218535,0.218202,0.283043,33,0.0166407,10,6.17606e-05,-3.54815,5.10613,0.0115547,0.127738,0.218202,
2,1,0,1,0,64028.2,0.220033,0.219703,0.283368,33,0.0167294,10,6.2257e-05,-3.54765,77.0975,0.000765265,0.00846942,0.219703,
2,1,0,0,0,64028.5,0.221532,0.221177,0.282489,33,0.0168179,10,6.24799e-05,-3.549,-1.28776,-0.045816,-0.50666,0.221177,
2,1,0,0,0,64028.8,0.22303,0.222716,0.280688,33,0.0169062,10,6.25138e-05,-3.55178,-1.80193,-0.0327426,-0.360929,0.222716,
2,1,0,1,0,64029.1,0.224529,0.224235,0.282527,33,0.0169945,10,6.33527e-05,-3.54894,24.5044,0.00240773,0.0264984,0.224235,
2,1,0,1,0,64029.4,0.226026,0.22572,0.282416,33,0.0170826,10,6.3747e-05,-3.54911,-1.91661,-0.0307835,-0.338595,0.22572,
2,1,0,1,0,64029.7,0.227524,0.227208,0.28221,33,0.0171707,10,6.41205e-05,-3.54943,-1.69438,-0.0348211,-0.383473,0.227208,
2,1,0,1,0,64030,0.229023,0.228671,0.281253,33,0.0172587,10,6.43143e-05,-3.5509,-14.6748,-0.00402049,-0.0442104,0.228671,
2,1,0,1,0,64030.3,0.230521,0.230203,0.281835,33,0.0173464,10,6.48792e-05,-3.55001,5.52038,0.0106877,0.117577,0.230203,
2,1,0,1,0,64030.6,0.232019,0.231631,0.28113,33,0.0174342,10,6.51185e-05,-3.55109,-2.17553,-0.0271198,-0.297065,0.231631,
2,1,0,1,0,64030.9,0.233518,0.233207,0.281438,33,0.017522,10,6.56334e-05,-3.55062,-2.44788,-0.0241025,-0.264137,0.2332073,
2,1,0,1,0,64031.2,0.235015,0.23469,0.281323,33,0.0176097,10,6.60239e-05,-3.55079,-7.93612,-0.00743436,-0.0814779,0.23469,
2,1,0,1,0,64031.5,0.236513,0.236206,0.281214,33,0.0176971,10,6.64246e-05,-3.55096,-2.04741,-0.0288168,-0.315897,0.236206,
2,1,0,0,0,64031.8,0.238012,0.237699,0.280364,33,0.0177848,10,6.66422e-05,-3.55228,-5.01748,-0.0117589,-0.128362,0.237699,
2,1,0,0,0,64032.1,0.23951,0.239185,0.279635,33,0.0178722,10,6.68847e-05,-3.55341,-2.49835,-0.0236156,-0.258056,0.2391855,
2,1,0,1,0,64032.4,0.241009,0.240695,0.279292,33,0.0179597,10,6.7224e-05,-3.55394,-1.77644,-0.0332125,-0.36246,0.240695,
2,1,0,1,0,64032.7,0.242506,0.242197,0.27808,33,0.0180468,10,6.73502e-05,-3.55583,-2.00313,-0.0294539,-0.321869,0.2421971,
2,1,0,1,0,64033,0.244004,0.243655,0.277827,33,0.0181337,10,6.76939e-05,-3.55622,7.44195,0.00792803,0.0861159,0.243655,
2,1,0,1,0,64033.3,0.245503,0.245157,0.27969,33,0.0182208,10,6.85678e-05,-3.55332,-2.15419,-0.0273885,-0.297495,0.245157,
2,1,0,1,0,64033.6,0.247001,0.246684,0.277546,33,0.0183077,10,6.84661e-05,-3.55666,-3.44089,-0.0171467,-0.185639,0.246684,
2,1,0,1,0,64033.9,0.2485,0.248146,0.276039,33,0.0183944,10,6.8498e-05,-3.55903,-5.71826,-0.0103178,-0.111585,0.248146,
2,1,0,1,0,64034.2,0.249997,0.249655,0.277501,33,0.018481,10,6.92796e-05,-3.55673,-115.258,-0.000511896,-0.00554448,0.249655,
2,1,0,1,0,64034.5,0.251495,0.251172,0.276976,33,0.0185677,10,6.95687e-05,-3.55756,-26.3505,-0.00223904,-0.0242123,0.251172,
2,1,0,0,0,64034.8,0.252994,0.25267,0.276114,33,0.0186541,10,6.97655e-05,-3.55891,-1.27959,-0.0461086,-0.497669,0.25267,
2,1,0,0,0,64035.1,0.254492,0.254125,0.276109,33,0.0187405,10,7.01661e-05,-3.55892,-4.20785,-0.0140214,-0.151396,0.254125,
2,1,0,1,0,64035.4,0.255991,0.255682,0.27635,33,0.0188267,10,7.06576e-05,-3.55854,10.8746,0.00542547,0.0585896,0.255682,
2,1,0,1,0,64035.7,0.257488,0.257157,0.276157,33,0.0189129,10,7.10158e-05,-3.55884,-2.3,-0.0256522,-0.277017,0.257157,
2,1,0,1,0,64036,0.258986,0.25865,0.276594,33,0.0189992,10,7.15411e-05,-3.55816,26.5568,0.00222165,0.0239131,0.25865,
2,1,0,1,0,64036.3,0.260485,0.260156,0.27601,33,0.0190854,10,7.18058e-05,-3.55907,-1.59543,-0.0369805,-0.397648,0.2601561,
2,1,0,1,0,64036.6,0.261983,0.261657,0.275171,33,0.0191712,10,7.20004e-05,-3.5604,-1.54615,-0.0381593,-0.409922,0.261657,
2,1,0,1,0,64036.9,0.263481,0.263182,0.275141,33,0.019257,10,7.24124e-05,-3.56044,58.2854,0.00101226,0.0108221,0.263182,
2,1,0,1,0,64037.2,0.26498,0.264621,0.274233,33,0.0193427,10,7.25677e-05,-3.56188,-2.0224,-0.0291733,-0.312496,0.264621,
2,1,0,1,0,64037.5,0.266477,0.266139,0.2738,33,0.0194283,10,7.28687e-05,-3.56257,-2.37383,-0.0248544,-0.266162,0.2661387,
2,1,0,0,0,64037.8,0.267976,0.267655,0.272861,33,0.0195137,10,7.30328e-05,-3.56406,-3.59356,-0.0164183,-0.175488,0.267655,
2,1,0,0,0,64038.1,0.269474,0.269089,0.273725,33,0.019599,10,7.36565e-05,-3.56268,-3.68638,-0.0160048,-0.170627,0.269089,
2,1,0,0,0,64038.4,0.270972,0.270628,0.274896,33,0.0196844,10,7.43944e-05,-3.56083,-2.65402,-0.0222304,-0.236607,0.270628,
2,1,0,1,0,64038.7,0.27247,0.272081,0.273536,33,0.0197698,10,7.44239e-05,-3.56299,-1.15171,-0.0512282,-0.544634,0.272081,
2,1,0,1,0,64039,0.273968,0.273649,0.271262,33,0.0198548,10,7.42305e-05,-3.56661,-1.60124,-0.0368465,-0.39137,0.273649,
2,1,0,1,0,64039.3,0.275466,0.275108,0.271626,33,0.0199397,10,7.47265e-05,-3.56603,-2.78492,-0.0211856,-0.224802,0.275108,
2,1,0,1,0,64039.6,0.276965,0.276621,0.27047,33,0.0200246,10,7.48178e-05,-3.56788,-2.10791,-0.0279897,-0.297513,0.276621,
2,1,0,1,0,64039.9,0.278463,0.278117,0.270545,33,0.0201093,10,7.52433e-05,-3.56776,-1.32879,-0.0444013,-0.468728,0.278117,
2,1,0,1,0,64040.2,0.279962,0.279618,0.270921,33,0.0201939,10,7.57543e-05,-3.56716,-2.23364,-0.0264143,-0.279102,0.279618,
2,1,0,1,0,64040.5,0.281459,0.281131,0.26965,33,0.0202782,10,7.5807e-05,-3.5692,-2.51802,-0.0234311,-0.247717,0.281131,
2,1,0,1,0,64040.8,0.282957,0.282656,0.270822,33,0.0203625,10,7.65494e-05,-3.56732,108.642,0.000543069,0.00571641,0.282656,
2,1,0,0,0,64041.1,0.284456,0.284109,0.270567,33,0.0204469,10,7.68705e-05,-3.56772,5.52627,0.0106763,0.112364,0.284109,
2,1,0,0,0,64041.4,0.285954,0.285597,0.269376,33,0.0205311,10,7.69332e-05,-3.56964,-1.74147,-0.0338794,-0.356651,0.285597,
2,1,0,0,0,64041.7,0.287452,0.287116,0.268945,33,0.0206151,10,7.72185e-05,-3.57034,-7.5988,-0.00776439,-0.0816918,0.287116,
2,1,0,1,0,64042,0.28895,0.288604,0.268756,33,0.020699,10,7.75639e-05,-3.57064,1.53424,0.0384556,0.403176,0.288604,
2,1,0,1,0,64042.3,0.290448,0.290098,0.268936,33,0.0207829,10,7.80178e-05,-3.57035,-16.3603,-0.00360629,-0.0378453,0.2900975,
2,1,0,1,0,64042.6,0.291947,0.29158,0.267957,33,0.0208668,10,7.8131e-05,-3.57193,-1.76096,-0.0335045,-0.351678,0.29158,
2,1,0,1,0,64042.9,0.293445,0.29312,0.266544,33,0.0209504,10,7.81292e-05,-3.57423,-7.67763,-0.00768466,-0.0803636,0.29312,
2,1,0,1,0,64043.2,0.294943,0.294614,0.267252,33,0.0210338,10,7.87363e-05,-3.57308,-1.84623,-0.031957,-0.333655,0.294614,
2,1,0,1,0,64043.5,0.296442,0.296095,0.26884,33,0.0211173,10,7.9602e-05,-3.57051,-4.45727,-0.0132368,-0.138153,0.296095,
2,1,0,1,0,64043.8,0.297939,0.297607,0.268007,33,0.0212008,10,7.97608e-05,-3.57185,-1.27709,-0.0461989,-0.480402,0.297607,
2,1,0,1,0,64044.1,0.299437,0.299137,0.266403,33,0.021284,10,7.96912e-05,-3.57446,-0.00301091,-19.5954,-110.263,0.2991372,
2,1,0,1,0,64044.2,0.299737,0.299409,0.137905,33,0.0213237,10,4.129e-05,-3.86042,0.00105189,56.0897,205.425,0.299409,
2,1,0,1,0,64044.5,0.29824,0.297933,0.0279673,33,0.0213389,10,8.3324e-06,-4.55335,0.00171649,34.3725,68.0719,0.297933,
2,1,0,0,0,64044.8,0.296741,0.296419,0.00739895,33,0.0213405,10,2.19319e-06,-5.13083,0.00601442,9.80976,12.5053,0.296419,
2,0,0,0,0,64045.1,0.295243,0.294911,-0.00542474,33,0.0213373,10,-1.59982e-06,-5.26562,-0.029744,-1.98359,7.54588,0.294911,
2,0,0,1,0,64045.4,0.293744,0.29341,-0.0151069,33,0.021331,10,-4.4325e-06,-4.82083,-0.00323731,-18.225,5.87773,0.29341,
2,0,0,1,0,64045.7,0.292246,0.291927,-0.0235601,33,0.0213222,10,-6.87783e-06,-4.62782,-0.00898325,-6.56778,4.97933,0.291927,
2,0,0,1,0,64046,0.290749,0.29043,-0.0295469,33,0.0213111,10,-8.5813e-06,-4.52949,-0.0133706,-4.41265,4.69065,0.29043,
2,0,0,1,0,64046.3,0.28925,0.288885,-0.0353447,33,0.021298,10,-1.02106e-05,-4.45168,-0.0208578,-2.82868,3.85699,0.288885,
2,0,0,1,0,64046.6,0.287752,0.28743,-0.0412796,33,0.0212831,10,-1.1865e-05,-4.38426,-0.0284419,-2.0744,3.30629,0.28743,
2,0,0,1,0,64046.9,0.286253,0.285917,-0.0459782,33,0.0212668,10,-1.3146e-05,-4.33745,-0.0369314,-1.59755,2.85875,0.285917,
2,0,0,1,0,64047.2,0.284755,0.284417,-0.0511285,33,0.021249,10,-1.45418e-05,-4.29134,-0.0335548,-1.75832,3.41324,0.284417,
2,0,0,1,0,64047.5,0.283257,0.282944,-0.0556655,33,0.0212298,10,-1.57502e-05,-4.25441,-0.041649,-1.4166,3.02519,0.282944,
2,0,0,0,0,64047.8,0.281759,0.281414,-0.0597731,33,0.0212091,10,-1.6821e-05,-4.22349,-0.0529982,-1.11325,2.56124,0.281414,
2,0,0,0,0,64048.1,0.280261,0.279911,-0.0623098,33,0.0211873,10,-1.74412e-05,-4.20544,-0.0560258,-1.05309,2.59654,0.279911,
2,0,0,0,0,64048.4,0.278763,0.278428,-0.067258,33,0.0211644,10,-1.87265e-05,-4.17226,-0.0689888,-0.855211,2.21478,0.278428,
2,0,0,1,0,64048.7,0.277264,0.276944,-0.0706769,33,0.0211403,10,-1.95735e-05,-4.15072,-0.0715162,-0.824988,2.27023,0.276944,
2,0,0,1,0,64049,0.275766,0.275411,-0.0738145,33,0.0211151,10,-2.03293e-05,-4.13186,-0.0972346,-0.60678,1.75318,0.275411,
2,0,0,1,0,64049.3,0.274269,0.273914,-0.0773073,33,0.021089,10,-2.11756e-05,-4.11178,-0.0965954,-0.610795,1.84106,0.273914,
2,0,0,1,0,64049.6,0.27277,0.272478,-0.0806223,33,0.0210619,10,-2.19678e-05,-4.09354,-0.0863097,-0.683585,2.1479,0.272478,
2,0,0,1,0,64049.9,0.271272,0.270954,-0.0834064,33,0.0210339,10,-2.25993e-05,-4.0788,-0.107569,-0.548486,1.77689,0.270954,
2,0,0,1,0,64050.2,0.269773,0.269452,-0.0866522,33,0.0210048,10,-2.33486e-05,-4.06222,-0.1099,-0.536853,1.79832,0.269452,
2,0,0,1,0,64050.5,0.268275,0.267947,-0.0889107,33,0.020975,10,-2.38233e-05,-4.05105,-0.120177,-0.490941,1.71529,0.267947,
2,0,0,1,0,64050.8,0.266778,0.266413,-0.0926919,33,0.0209444,10,-2.46943e-05,-4.03296,-0.112427,-0.524785,1.8808,0.266413,
2,0,0,0,0,64051.1,0.265279,0.264943,-0.0952216,33,0.0209128,10,-2.52283e-05,-4.02126,-0.108395,-0.544304,1.99215,0.264943,
2,0,0,0,0,64051.4,0.263781,0.263469,-0.0976891,33,0.0208804,10,-2.5738e-05,-4.01015,-0.14023,-0.420738,1.60242,0.2634688,
2,0,0,1,0,64051.7,0.262282,0.261904,-0.0992693,33,0.0208473,10,-2.59991e-05,-4.00319,-0.136565,-0.432029,1.69512,0.261904,
2,0,0,1,0,64052,0.260784,0.260424,-0.102311,33,0.0208136,10,-2.66443e-05,-3.99008,-0.12783,-0.461552,1.85088,0.260424,
2,0,0,1,0,64052.3,0.259286,0.258921,-0.104721,33,0.020779,10,-2.71144e-05,-3.97997,-0.111279,-0.530199,2.15764,0.258921,
2,0,0,1,0,64052.6,0.257788,0.257493,-0.109013,33,0.0207437,10,-2.807e-05,-3.96252,-0.131244,-0.449546,1.88017,0.257493,
2,0,0,1,0,64052.9,0.25629,0.25596,-0.110142,33,0.0207075,10,-2.81919e-05,-3.95805,-0.149804,-0.393848,1.68079,0.25596,
2,0,0,1,0,64053.2,0.254791,0.254445,-0.111145,33,0.0206708,10,-2.82802e-05,-3.95411,-0.187927,-0.313952,1.36729,0.254445,
2,0,0,1,0,64053.5,0.253293,0.252961,-0.113942,33,0.0206335,10,-2.88228e-05,-3.94332,-0.154313,-0.382339,1.70508,0.252961,
2,0,0,1,0,64053.8,0.251795,0.251458,-0.115918,33,0.0205955,10,-2.91484e-05,-3.93585,-0.166363,-0.354647,1.61126,0.2514579,
2,0,0,0,0,64054.1,0.250297,0.249978,-0.118493,33,0.0205568,10,-2.96206e-05,-3.92631,-0.214486,-0.275077,1.26589,0.2499783,
2,0,0,0,0,64054.4,0.248799,0.248487,-0.120576,33,0.0205175,10,-2.99616e-05,-3.91874,-0.220411,-0.267682,1.25629,0.2484874,
2,0,0,0,0,64054.7,0.247301,0.246976,-0.122875,33,0.0204778,10,-3.03472e-05,-3.91054,-0.20331,-0.290197,1.39007,0.2469763,
2,0,0,1,0,64055,0.245802,0.245505,-0.125468,33,0.0204373,10,-3.0803e-05,-3.90147,-0.182605,-0.323102,1.571,0.245505,
2,0,0,1,0,64055.3,0.244304,0.243987,-0.126635,33,0.0203961,10,-3.08972e-05,-3.89745,-0.204769,-0.288129,1.41819,0.243987,
2,0,0,1,0,64055.6,0.242806,0.242482,-0.128213,33,0.0203544,10,-3.10893e-05,-3.89207,-0.3388,-0.174144,0.872344,0.242482,
2,0,0,1,0,64055.9,0.241308,0.240992,-0.129769,33,0.0203123,10,-3.12733e-05,-3.88683,-0.222676,-0.26496,1.34734,0.240992,
2,0,0,1,0,64056.2,0.23981,0.239479,-0.131216,33,0.0202697,10,-3.14236e-05,-3.88201,-0.205388,-0.287261,1.47443,0.239479,
2,0,0,1,0,64056.5,0.238311,0.238039,-0.133826,33,0.0202263,10,-3.18558e-05,-3.87346,-0.249241,-0.236719,1.23093,0.238039,
2,0,0,1,0,64056.8,0.236813,0.236457,-0.135241,33,0.0201824,10,-3.19788e-05,-3.86889,-0.242023,-0.243779,1.2896,0.2364572,
2,0,0,1,0,64057.1,0.235316,0.234965,-0.136718,33,0.0201381,10,-3.2124e-05,-3.86417,-0.266533,-0.221361,1.18705,0.2349654,
2,0,0,0,0,64057.4,0.233817,0.233534,-0.138956,33,0.0200933,10,-3.24509e-05,-3.85712,-0.245678,-0.240152,1.30075,0.233534,
2,0,0,0,0,64057.7,0.232319,0.231983,-0.141104,33,0.0200477,10,-3.27338e-05,-3.85046,-0.272775,-0.216296,1.1823,0.231983,
2,0,0,1,0,64058,0.23082,0.230519,-0.14143,33,0.0200017,10,-3.26023e-05,-3.84946,-0.331126,-0.17818,0.988664,0.230519,
2,0,0,1,0,64058.3,0.229322,0.228987,-0.143819,33,0.0199552,10,-3.29326e-05,-3.84218,-0.349806,-0.168665,0.946738,0.228987,
2,0,0,1,0,64058.6,0.227825,0.227493,-0.146165,33,0.0199082,10,-3.32514e-05,-3.83516,-0.278345,-0.211967,1.21102,0.227493,
2,0,0,1,0,64058.9,0.226326,0.226003,-0.147055,33,0.0198607,10,-3.32348e-05,-3.83252,-0.237832,-0.248074,1.43837,0.226003,
2,0,0,1,0,64059.2,0.224828,0.2245,-0.149309,33,0.0198125,10,-3.35199e-05,-3.82591,-0.327665,-0.180062,1.04882,0.2245,
2,0,0,1,0,64059.5,0.223329,0.22303,-0.150399,33,0.0197638,10,-3.35434e-05,-3.82276,-0.318178,-0.185431,1.09522,0.22303,
2,0,0,1,0,64059.8,0.221831,0.221477,-0.153286,33,0.0197148,10,-3.39492e-05,-3.8145,-0.301504,-0.195686,1.16519,0.221477,
2,0,0,1,0,64060.1,0.220333,0.220019,-0.154054,33,0.0196652,10,-3.38948e-05,-3.81233,-0.263326,-0.224057,1.34593,0.220019,
2,0,0,0,0,64060.4,0.218835,0.21847,-0.156761,33,0.019615,10,-3.42476e-05,-3.80476,-0.251979,-0.234146,1.42464,0.21847,
2,0,0,0,0,64060.7,0.217337,0.216987,-0.157785,33,0.0195643,10,-3.42374e-05,-3.80193,-0.38096,-0.154872,0.955154,0.216987,
2,0,0,0,0,64061,0.215839,0.215498,-0.159283,33,0.0195133,10,-3.43251e-05,-3.79783,-0.292952,-0.201398,1.25431,0.215498,
2,0,0,1,0,64061.3,0.21434,0.214008,-0.161051,33,0.0194616,10,-3.44662e-05,-3.79304,-0.236414,-0.249562,1.56416,0.214008,
2,0,0,1,0,64061.6,0.212842,0.212504,-0.162792,33,0.0194094,10,-3.45939e-05,-3.78837,-0.279287,-0.211253,1.34412,0.212504,
2,0,0,1,0,64061.9,0.211344,0.211023,-0.165007,33,0.0193566,10,-3.48203e-05,-3.7825,-0.308614,-0.191177,1.22993,0.211023,
2,0,0,1,0,64062.2,0.209846,0.209497,-0.165995,33,0.0193034,10,-3.47755e-05,-3.77991,-0.371184,-0.158951,1.02914,0.209497,
2,0,0,1,0,64062.5,0.208348,0.207993,-0.168798,33,0.0192497,10,-3.51087e-05,-3.77263,-0.276079,-0.213707,1.40164,0.207993,
2,0,0,1,0,64062.8,0.206849,0.206503,-0.171286,33,0.0191953,10,-3.53709e-05,-3.76628,-0.300635,-0.196251,1.30125,0.206503,
2,0,0,1,0,64063.1,0.205351,0.204974,-0.171205,33,0.0191401,10,-3.50925e-05,-3.76648,-0.676684,-0.0871899,0.583586,0.204974,
2,0,0,1,0,64063.4,0.203854,0.203505,-0.173277,33,0.0190847,10,-3.52627e-05,-3.76126,-0.419148,-0.140762,0.954392,0.203505,
2,0,0,0,0,64063.7,0.202355,0.202043,-0.174951,33,0.019029,10,-3.53475e-05,-3.75708,-0.356109,-0.165679,1.13323,0.202043,
2,0,0,0,0,64064,0.200857,0.200458,-0.17626,33,0.0189725,10,-3.53327e-05,-3.75385,-0.285175,-0.206891,1.42921,0.200458,
2,0,0,1,0,64064.3,0.199358,0.199034,-0.17862,33,0.0189156,10,-3.55514e-05,-3.74807,-0.412703,-0.14296,0.993827,0.199034,
2,0,0,1,0,64064.6,0.19786,0.197524,-0.181343,33,0.018858,10,-3.58196e-05,-3.7415,-0.243349,-0.242451,1.70566,0.197524,
2,0,0,1,0,64064.9,0.196363,0.196049,-0.18192,33,0.0188002,10,-3.56653e-05,-3.74012,-0.374615,-0.157495,1.12039,0.1960495,
2,0,0,1,0,64065.2,0.194864,0.194493,-0.184225,33,0.0187415,10,-3.58304e-05,-3.73465,-0.281783,-0.209381,1.4979,0.194493,
2,0,0,1,0,64065.5,0.193366,0.193054,-0.186479,33,0.0186822,10,-3.60004e-05,-3.72937,-0.353143,-0.167071,1.21201,0.193054,
2,0,0,1,0,64065.8,0.191867,0.191531,-0.187558,33,0.0186225,10,-3.59233e-05,-3.72686,-0.37851,-0.155874,1.14706,0.1915313,
2,0,0,1,0,64066.1,0.190369,0.190036,-0.18911,33,0.0185624,10,-3.59377e-05,-3.72328,-0.310963,-0.189733,1.40308,0.190036,
2,0,0,1,0,64066.4,0.188871,0.188508,-0.192121,33,0.0185015,10,-3.62163e-05,-3.71643,-0.292892,-0.201439,1.50667,0.1885079,
2,0,0,0,0,64066.7,0.187373,0.187015,-0.193194,33,0.01844,10,-3.61301e-05,-3.71401,-0.320623,-0.184017,1.39054,0.187015,
2,0,0,0,0,64067,0.185875,0.185568,-0.195634,33,0.0183779,10,-3.63034e-05,-3.70856,-0.459989,-0.128264,0.976987,0.185568,
2,0,0,0,0,64067.3,0.184377,0.184075,-0.1962,33,0.0183153,10,-3.61155e-05,-3.7073,-0.374883,-0.157383,1.21289,0.1840751,
2,0,0,1,0,64067.6,0.182878,0.18258,-0.199993,33,0.0182521,10,-3.65147e-05,-3.69899,-0.301273,-0.195836,1.52366,0.18258,
2,0,0,1,0,64067.9,0.181381,0.181034,-0.202115,33,0.0181881,10,-3.65898e-05,-3.6944,-0.313111,-0.188431,1.4847,0.181034,
2,0,0,1,0,64068.2,0.179882,0.179565,-0.204746,33,0.0181233,10,-3.67652e-05,-3.68879,-0.413634,-0.142638,1.13187,0.179565,
2,0,0,1,0,64068.5,0.178384,0.178034,-0.206451,33,0.0180579,10,-3.67552e-05,-3.68518,-0.389687,-0.151404,1.21931,0.178034,
2,0,0,1,0,64068.8,0.176886,0.176582,-0.2082,33,0.017992,10,-3.67644e-05,-3.68152,-0.294988,-0.200008,1.63171,0.176582,
2,0,0,1,0,64069.1,0.175387,0.175046,-0.210832,33,0.0179252,10,-3.69053e-05,-3.67606,-0.333631,-0.176842,1.45494,0.175046,
2,0,0,1,0,64069.4,0.173889,0.173536,-0.213709,33,0.0178575,10,-3.70862e-05,-3.67018,-0.284246,-0.207566,1.72937,0.173536,
2,0,0,1,0,64069.7,0.172392,0.172045,-0.216398,33,0.0177891,10,-3.72303e-05,-3.66475,-0.298334,-0.197765,1.67268,0.172045,
2,0,0,0,0,64070,0.170893,0.170521,-0.219133,33,0.0177201,10,-3.73668e-05,-3.65929,-0.238738,-0.247133,2.11877,0.170521,
2,0,0,0,0,64070.3,0.169395,0.169047,-0.222671,33,0.01765,10,-3.76418e-05,-3.65234,-0.2134,-0.276476,2.39269,0.169047,
2,0,0,1,0,64070.6,0.167896,0.167576,-0.225272,33,0.0175788,10,-3.77502e-05,-3.64729,-0.240737,-0.24508,2.16274,0.167576,
2,0,0,1,0,64070.9,0.166398,0.166021,-0.227939,33,0.0175068,10,-3.78425e-05,-3.64218,-0.309352,-0.190721,1.70883,0.166021,
2,0,0,1,0,64071.2,0.164901,0.164575,-0.231875,33,0.0174339,10,-3.81607e-05,-3.63475,-0.242044,-0.243758,2.20986,0.164575,
2,0,0,1,0,64071.5,0.163402,0.163067,-0.236135,33,0.0173599,10,-3.85059e-05,-3.62684,-0.196892,-0.299657,2.75429,0.163067,
2,0,0,1,0,64071.8,0.161904,0.161553,-0.239573,33,0.0172847,10,-3.87037e-05,-3.62056,-0.194212,-0.303792,2.8498,0.161553,
2,0,0,1,0,64072.1,0.160405,0.16005,-0.243552,33,0.0172082,10,-3.89806e-05,-3.61341,-0.203978,-0.289247,2.74791,0.16005,
2,0,0,1,0,64072.4,0.158907,0.158595,-0.246547,33,0.0171306,10,-3.91013e-05,-3.6081,-0.201952,-0.292148,2.83835,0.158595,
2,0,0,1,0,64072.7,0.157409,0.157098,-0.253217,33,0.0170518,10,-3.97801e-05,-3.59651,-0.180586,-0.326715,3.24374,0.157098,
2,0,0,0,0,64073,0.155911,0.155592,-0.257161,33,0.0169713,10,-4.00121e-05,-3.5898,-0.165092,-0.357376,3.60337,0.155592,
2,0,0,0,0,64073.3,0.154413,0.154061,-0.263312,33,0.0168891,10,-4.05662e-05,-3.57953,-0.17588,-0.335456,3.44855,0.154061,
2,0,0,0,0,64073.6,0.152915,0.152551,-0.269084,33,0.0168054,10,-4.10491e-05,-3.57011,-0.150849,-0.39112,4.13339,0.152551,
2,0,0,1,0,64073.9,0.151416,0.151069,-0.275607,33,0.01672,10,-4.16355e-05,-3.55971,-0.140893,-0.418758,4.51666,0.151069,
2,0,0,1,0,64074.2,0.149919,0.149605,-0.284155,33,0.0166322,10,-4.25109e-05,-3.54644,-0.125583,-0.46981,5.19565,0.149605,
2,0,0,1,0,64074.5,0.14842,0.148111,-0.291733,33,0.0165421,10,-4.3209e-05,-3.53501,-0.119105,-0.495362,5.64654,0.148111,
2,0,0,1,0,64074.8,0.146922,0.146613,-0.300731,33,0.0164494,10,-4.4091e-05,-3.52182,-0.111152,-0.530804,6.235,0.146613,
2,0,0,1,0,64075.1,0.145424,0.145103,-0.309429,33,0.0163541,10,-4.48991e-05,-3.50944,-0.103097,-0.572275,6.9463,0.145103,
2,0,0,1,0,64075.4,0.143925,0.143596,-0.320676,33,0.0162555,10,-4.60476e-05,-3.49393,-0.0907387,-0.650219,8.16982,0.143596,
2,0,0,1,0,64075.7,0.142427,0.142104,-0.333732,33,0.0161533,10,-4.74248e-05,-3.4766,-0.0904367,-0.65239,8.50461,0.142104,
2,0,0,1,0,64076,0.14093,0.140575,-0.345609,33,0.0160472,10,-4.85842e-05,-3.46141,-0.0923155,-0.639113,8.6677,0.140575,
2,0,0,0,0,64076.3,0.139431,0.139095,-0.359085,33,0.0159373,10,-4.99469e-05,-3.4448,-0.0840146,-0.702259,9.92531,0.1390948,
2,0,0,0,0,64076.6,0.137933,0.137617,-0.376342,33,0.015823,10,-5.17909e-05,-3.42442,-0.084148,-0.701145,10.2829,0.137617,
2,0,0,1,0,64076.9,0.136434,0.136044,-0.391766,33,0.015704,10,-5.32972e-05,-3.40697,-0.0866744,-0.680708,10.3999,0.136044,
2,0,0,1,0,64077.2,0.134936,0.134589,-0.407821,33,0.0155802,10,-5.48882e-05,-3.38953,-0.0884491,-0.66705,10.5842,0.134589,
2,0,0,1,0,64077.5,0.133439,0.133115,-0.423352,33,0.0154516,10,-5.63547e-05,-3.3733,-0.0873812,-0.675202,11.1692,0.1331155,
2,0,0,1,0,64077.8,0.13194,0.131581,-0.439991,33,0.0153181,10,-5.78943e-05,-3.35656,-0.088371,-0.66764,11.5237,0.131581,
2,0,0,1,0,64078.1,0.130442,0.130099,-0.457286,33,0.0151794,10,-5.94926e-05,-3.33981,-0.0931417,-0.633443,11.3039,0.130099,
2,0,0,1,0,64078.4,0.128943,0.128599,-0.47456,33,0.0150354,10,-6.10277e-05,-3.32371,-0.107009,-0.551357,10.1723,0.128599,
2,0,0,1,0,64078.7,0.127445,0.127107,-0.489935,33,0.0148867,10,-6.2274e-05,-3.30986,-0.111997,-0.526801,10.0532,0.127107,
2,0,0,1,0,64079,0.125947,0.12559,-0.504874,33,0.0147338,10,-6.3407e-05,-3.29682,-0.120828,-0.488299,9.60352,0.12559,
2,0,0,0,0,64079.3,0.124449,0.124107,-0.5189,33,0.0145763,10,-6.43991e-05,-3.28492,-0.133431,-0.442177,8.91072,0.124107,
2,0,0,0,0,64079.6,0.122951,0.122637,-0.530824,33,0.0144149,10,-6.50988e-05,-3.27505,-0.156705,-0.376503,7.79002,0.122637,
2,0,0,0,0,64079.9,0.121453,0.121126,-0.54268,33,0.0142501,10,-6.57328e-05,-3.26546,-0.198357,-0.297444,6.26335,0.121126,
2,0,0,1,0,64080.2,0.119954,0.119571,-0.549207,33,0.0140822,10,-6.56695e-05,-3.26026,-0.221883,-0.265906,5.70324,0.119571,
2,0,0,1,0,64080.5,0.118456,0.118095,-0.55808,33,0.0139119,10,-6.59063e-05,-3.2533,-0.239955,-0.24588,5.34764,0.118095,
2,0,0,1,0,64080.8,0.116958,0.116621,-0.566726,33,0.013739,10,-6.60919e-05,-3.24663,-0.340133,-0.173462,3.81934,0.116621,
2,0,0,1,0,64081.1,0.11546,0.115086,-0.570295,33,0.0135644,10,-6.5633e-05,-3.2439,-0.583812,-0.10106,2.2429,0.115086,
2,0,0,1,0,64081.4,0.113962,0.11362,-0.57099,33,0.0133889,10,-6.48756e-05,-3.24337,-0.980032,-0.0602021,1.34376,0.11362,
2,0,0,1,0,64081.7,0.112463,0.112106,-0.575313,33,0.0132126,10,-6.44961e-05,-3.2401,-0.896449,-0.0658153,1.47569,0.112106,
2,0,0,1,0,64082,0.110965,0.110618,-0.577422,33,0.0130358,10,-6.3873e-05,-3.23851,-1.87711,-0.0314313,0.706947,0.110618,
2,0,0,1,0,64082.3,0.109468,0.109116,-0.576737,33,0.0128585,10,-6.29315e-05,-3.23902,23.4066,0.00252066,-0.0566512,0.109116,
2,0,0,0,0,64082.6,0.107969,0.107642,-0.576524,33,0.0126811,10,-6.20582e-05,-3.23918,4.1779,0.0141219,-0.318236,0.107642,
2,0,0,0,0,64082.9,0.106471,0.106152,-0.575355,33,0.0125043,10,-6.10752e-05,-3.24006,7.7033,0.00765905,-0.172675,0.1061522,
2,0,0,1,0,64083.2,0.104972,0.10464,-0.57534,33,0.0123273,10,-6.02034e-05,-3.24008,9.78042,0.00603246,-0.135375,0.10464,
2,0,0,1,0,64083.5,0.103474,0.103097,-0.576133,33,0.0121502,10,-5.93977e-05,-3.23948,2.48381,0.0237538,-0.532382,0.103097,
2,0,0,1,0,64083.8,0.101977,0.101632,-0.57398,33,0.0119739,10,-5.83347e-05,-3.2411,1.1804,0.0499829,-1.11774,0.101632,
2,0,0,1,0,64084.1,0.100478,0.10017,-0.572213,33,0.0117981,10,-5.73188e-05,-3.24244,1.70293,0.0346461,-0.773503,0.10017,
2,0,0,1,0,64084.4,0.0989798,0.0986647,-0.570708,33,0.0116227,10,-5.63088e-05,-3.24359,1.86286,0.0316717,-0.703868,0.0986647,
2,0,0,1,0,64084.7,0.0974812,0.0971436,-0.570627,33,0.0114475,10,-5.54327e-05,-3.24365,1.3056,0.0451901,-1.00339,0.09714359,
2,0,0,1,0,64085,0.0959834,0.0956307,-0.568056,33,0.011273,10,-5.43236e-05,-3.24561,0.87376,0.0675242,-1.49598,0.0956307,
2,0,0,1,0,64085.3,0.0944855,0.0941646,-0.563872,33,0.0110992,10,-5.30967e-05,-3.24882,0.830242,0.0710636,-1.56714,0.0941646,
2,0,0,0,0,64085.6,0.0929871,0.0926511,-0.562143,33,0.010926,10,-5.20831e-05,-3.25015,1.39581,0.0422693,-0.928825,0.0926511,
2,0,0,0,0,64085.9,0.0914889,0.0911422,-0.56255,33,0.0107533,10,-5.12721e-05,-3.24984,0.748556,0.0788184,-1.72518,0.0911422,
2,0,0,0,0,64086.2,0.0899907,0.0896385,-0.559765,33,0.0105811,10,-5.01765e-05,-3.25199,0.74653,0.0790323,-1.71968,0.0896385,
2,0,0,1,0,64086.5,0.0884923,0.0881442,-0.554514,33,0.01041,10,-4.88771e-05,-3.25609,0.667137,0.0884375,-1.91861,0.0881442,
2,0,0,1,0,64086.8,0.0869946,0.0866589,-0.55236,33,0.0102398,10,-4.78669e-05,-3.25778,0.77209,0.076416,-1.64756,0.08665888,
2,0,0,1,0,64087.1,0.0854961,0.0851689,-0.549896,33,0.0100702,10,-4.6834e-05,-3.25972,0.624108,0.094535,-2.03272,0.0851689,
2,0,0,1,0,64087.4,0.083998,0.083662,-0.547754,33,0.00990151,10,-4.58262e-05,-3.26141,0.493677,0.119511,-2.54887,0.083662,
2,0,0,1,0,64087.7,0.0824998,0.0821955,-0.543935,33,0.00973377,10,-4.4709e-05,-3.26445,0.592692,0.0995457,-2.11386,0.0821955,
2,0,0,1,0,64088,0.0810014,0.0807022,-0.540662,33,0.00956741,10,-4.36326e-05,-3.26707,0.574403,0.102715,-2.16972,0.08070223,
2,0,0,1,0,64088.3,0.0795035,0.0791893,-0.538543,33,0.0094017,10,-4.26469e-05,-3.26878,0.681584,0.0865631,-1.81462,0.0791893,
2,0,0,1,0,64088.6,0.0780056,0.0776342,-0.535456,33,0.00923677,10,-4.15697e-05,-3.27128,0.573117,0.102946,-2.1485,0.07763423,
2,0,0,0,0,64088.9,0.076507,0.0761512,-0.533071,33,0.00907284,10,-4.0594e-05,-3.27322,0.538303,0.109604,-2.27479,0.0761512,
2,0,0,0,0,64089.2,0.0750088,0.0746772,-0.529022,33,0.00891014,10,-3.95059e-05,-3.27653,0.650859,0.0906494,-1.86933,0.0746772,
2,0,0,1,0,64089.5,0.0735103,0.0731466,-0.525373,33,0.0087482,10,-3.84292e-05,-3.27953,0.883081,0.0668115,-1.36899,0.0731466,
2,0,0,1,0,64089.8,0.0720124,0.0717081,-0.521691,33,0.00858714,10,-3.74095e-05,-3.28259,0.701295,0.0841301,-1.71586,0.0717081,
2,0,0,1,0,64090.1,0.0705146,0.0702195,-0.517858,33,0.00842702,10,-3.63637e-05,-3.28579,0.522032,0.11302,-2.29125,0.0702195,
2,0,0,1,0,64090.4,0.069016,0.0686647,-0.51472,33,0.00826797,10,-3.53431e-05,-3.28843,0.631578,0.0934167,-1.8846,0.0686647,
2,0,0,1,0,64090.7,0.0675179,0.0671918,-0.513773,33,0.00810986,10,-3.45214e-05,-3.28923,0.68432,0.0862169,-1.72748,0.0671918,
2,0,0,1,0,64091,0.0660192,0.0656592,-0.511771,33,0.00795235,10,-3.36025e-05,-3.29092,0.557555,0.105819,-2.10484,0.0656592,
2,0,0,1,0,64091.3,0.0645214,0.0642394,-0.507515,33,0.00779574,10,-3.26024e-05,-3.29455,0.44831,0.131605,-2.60237,0.0642394,
2,0,0,1,0,64091.6,0.0630235,0.0626514,-0.502977,33,0.00764036,10,-3.15122e-05,-3.29845,0.602643,0.0979021,-1.92741,0.0626514,
2,0,0,0,0,64091.9,0.0615251,0.0612164,-0.500654,33,0.00748607,10,-3.06482e-05,-3.30046,0.496437,0.118847,-2.32482,0.0612164,
2,0,0,0,0,64092.2,0.0600269,0.0597022,-0.497409,33,0.00733247,10,-2.96964e-05,-3.30329,0.607172,0.0971718,-1.88814,0.0597022,
2,0,0,0,0,64092.5,0.0585287,0.058225,-0.494803,33,0.00717975,10,-2.88099e-05,-3.30557,0.439813,0.134148,-2.58261,0.058225,
2,0,0,1,0,64092.8,0.0570303,0.0566808,-0.491079,33,0.00702791,10,-2.78348e-05,-3.30885,0.486222,0.121344,-2.32824,0.0566808,
2,0,0,1,0,64093.1,0.0555325,0.0551626,-0.487745,33,0.00687756,10,-2.69053e-05,-3.31181,0.612221,0.0963705,-1.83555,0.0551626,
2,0,0,1,0,64093.4,0.0540342,0.0537077,-0.486116,33,0.00672772,10,-2.61082e-05,-3.31326,0.579222,0.101861,-1.92301,0.0537077,
2,0,0,1,0,64093.7,0.052536,0.052134,-0.482287,33,0.0065787,10,-2.51436e-05,-3.31669,0.539522,0.109356,-2.05567,0.052134,
2,0,0,1,0,64094,0.0510378,0.0507513,-0.478828,33,0.00643081,10,-2.43011e-05,-3.31982,0.476247,0.123885,-2.31511,0.0507513,
2,0,0,1,0,64094.3,0.0495394,0.0491785,-0.474113,33,0.00628417,10,-2.33161e-05,-3.32412,0.492535,0.119789,-2.2217,0.0491785,
2,0,0,1,0,64094.6,0.0480415,0.0476776,-0.47167,33,0.00613834,10,-2.24881e-05,-3.32636,0.630299,0.0936064,-1.71687,0.0476776,
2,0,0,1,0,64094.9,0.0465436,0.0462174,-0.467856,33,0.00599346,10,-2.16231e-05,-3.32989,0.437627,0.134818,-2.46421,0.0462174,
2,0,0,0,0,64095.2,0.045045,0.0447112,-0.464749,33,0.00584967,10,-2.07795e-05,-3.33278,0.411553,0.143359,-2.60093,0.0447112,
2,0,0,0,0,64095.5,0.0435468,0.0432044,-0.460214,33,0.00570704,10,-1.98833e-05,-3.33704,0.483898,0.121927,-2.19188,0.04320436,
2,0,0,1,0,64095.8,0.0420483,0.0417046,-0.45898,33,0.00556544,10,-1.91416e-05,-3.33821,0.499691,0.118073,-2.10836,0.0417046,
2,0,0,1,0,64096.1,0.0405504,0.0402214,-0.455237,33,0.00542459,10,-1.83103e-05,-3.34176,0.502127,0.1175,-2.08318,0.04022143,
2,0,0,1,0,64096.4,0.0390526,0.0386842,-0.452447,33,0.00528462,10,-1.75026e-05,-3.34443,0.405427,0.145526,-2.55824,0.0386842,
2,0,0,1,0,64096.7,0.0375541,0.037195,-0.446366,33,0.00514586,10,-1.66026e-05,-3.35031,0.554093,0.10648,-1.86623,0.037195,
2,0,0,1,0,64097,0.0360559,0.0357317,-0.445622,33,0.00500838,10,-1.59228e-05,-3.35103,0.520523,0.113347,-1.96948,0.0357317,
2,0,0,1,0,64097.3,0.0345572,0.0341989,-0.442404,33,0.00487139,10,-1.51298e-05,-3.35418,0.514921,0.114581,-1.973,0.0341989,
2,0,0,1,0,64097.6,0.0330594,0.0327168,-0.439268,33,0.00473548,10,-1.43714e-05,-3.35727,0.412474,0.143039,-2.44504,0.0327168,
2,0,0,1,0,64097.9,0.0315615,0.0312104,-0.435839,33,0.00460061,10,-1.36027e-05,-3.36067,0.497585,0.118573,-2.01524,0.0312104,
2,0,0,0,0,64098.2,0.0300631,0.029752,-0.431959,33,0.00446678,10,-1.28517e-05,-3.36456,0.510884,0.115486,-1.9493,0.029752,
2,0,0,0,0,64098.5,0.0285649,0.028241,-0.430114,33,0.00433374,10,-1.21468e-05,-3.36642,0.593633,0.099388,-1.66455,0.028241,
2,0,0,0,0,64098.8,0.0270667,0.0266811,-0.427768,33,0.00420135,10,-1.14133e-05,-3.36879,0.556113,0.106094,-1.76618,0.0266811,
2,0,0,1,0,64099.1,0.0255683,0.0252186,-0.424445,33,0.00406985,10,-1.07039e-05,-3.37218,0.554605,0.106382,-1.76488,0.0252186,
2,0,0,1,0,64099.4,0.0240706,0.0237515,-0.420679,33,0.00393942,10,-9.99175e-06,-3.37605,0.72309,0.0815942,-1.34452,0.0237515,
2,0,0,1,0,64099.7,0.0225722,0.0222476,-0.419966,33,0.00380947,10,-9.34321e-06,-3.37679,1.15844,0.0509304,-0.83264,0.0222476,
2,0,0,1,0,64100,0.021074,0.0207153,-0.417441,33,0.0036802,10,-8.6474e-06,-3.3794,0.726478,0.0812137,-1.32494,0.0207153,
2,0,0,1,0,64100.3,0.0195758,0.0192593,-0.415436,33,0.0035515,10,-8.00101e-06,-3.3815,0.881448,0.0669353,-1.08493,0.0192593,
2,0,0,1,0,64100.6,0.0180774,0.0177479,-0.411882,33,0.00342342,10,-7.31005e-06,-3.38523,0.907067,0.0650448,-1.05013,0.0177479,
2,0,0,1,0,64100.9,0.0165795,0.0162383,-0.412888,33,0.00329603,10,-6.70458e-06,-3.38417,1.04938,0.0562234,-0.906011,0.0162383,
2,0,0,1,0,64101.2,0.0150817,0.0147563,-0.412155,33,0.00316883,10,-6.08188e-06,-3.38494,1.74277,0.0338541,-0.543445,0.0147563,
2,0,0,0,0,64101.5,0.013583,0.0132267,-0.409763,33,0.0030418,10,-5.4198e-06,-3.38747,1.04512,0.0564531,-0.901675,0.0132267,
2,0,0,0,0,64101.8,0.0120848,0.0117326,-0.408157,33,0.00291529,10,-4.78872e-06,-3.38917,1.24592,0.0473546,-0.757565,0.0117326,
2,0,0,1,0,64102.1,0.0105863,0.0102456,-0.408014,33,0.00278923,10,-4.18036e-06,-3.38933,2.56643,0.0229891,-0.366777,0.0102456,
2,0,0,1,0,64102.4,0.00908846,0.00875614,-0.407856,33,0.00266306,10,-3.57124e-06,-3.38949,14.8358,0.00397686,-0.0632447,0.00875614,
2,0,0,1,0,64102.7,0.0075906,0.00729292,-0.407213,33,0.00253706,10,-2.96977e-06,-3.39018,4.91377,0.0120071,-0.191053,0.00729292,
2,0,0,1,0,64103,0.00609207,0.00577944,-0.407363,33,0.00241109,10,-2.35433e-06,-3.39002,27.1986,0.00216923,-0.0345103,0.00577944,
2,0,0,1,0,64103.3,0.00459389,0.00429063,-0.407962,33,0.00228526,10,-1.75041e-06,-3.38938,-4.84301,-0.0121825,0.193762,0.00429063,
2,0,0,1,0,64103.6,0.00309525,0.00277594,-0.409059,33,0.00215905,10,-1.13552e-06,-3.38821,-0.814952,-0.0723969,1.15559,0.00277594,
2,0,0,1,0,64103.9,0.00159739,0.00124524,-0.41263,33,0.00203118,10,-5.13821e-07,-3.38444, , , ,0.00124524,
2,0,0,0,0,64104.1,0.000199195,-0.000142085,-0.410191,33,0.00191247,10,5.82821e-08,-3.38701, , , ,-0.000142085,