File: Figure_codes/Fig_3-5/rawdata_trumpetplot_data/after 10th/20221101_1-115_003_TrumpetPlot_ParaChange_from10_every3_11_CV_C01_17.csv
mode,ox/red,error,control changes,counter inc.,time/s,control/V,Ewe/V,<I>/mA,cycle number,(Q-Qo)/C,I Range,P/W,log(|I|),Tafel slope mV/dec,alpha_eff,dI/d(E-IR),E-IR/V,
2,1,0,1,0,34686.7,2.44065e-05,-0.000325324,9.5244,18,0.0000000E+000,10,-3.09851e-06,-2.02116, , , ,-0.000325324,
2,1,0,1,0,34686.7,0.00214129,0.00177216,10.6425,18,5.19972e-05,10,1.88602e-05,-1.97296, , , ,0.00177216,
2,1,0,1,0,34686.7,0.00454949,0.00424079,11.5143,18,0.000118703,10,4.88295e-05,-1.93876,0.0786572,0.75009,331.223,0.00424079,
2,1,0,1,0,34686.8,0.0069466,0.00659277,12.199,18,0.000189953,10,8.04253e-05,-1.91367,0.102255,0.576989,272.226,0.00659277,
2,1,0,1,0,34686.8,0.0093437,0.0090317,12.7963,18,0.000265051,10,0.000115573,-1.89291,0.123622,0.477261,236.917,0.0090317,
2,1,0,1,0,34686.8,0.0117408,0.0114219,13.322,18,0.000343474,10,0.000152162,-1.87543,0.14386,0.41012,212.483,0.0114219,
2,1,0,1,0,34686.8,0.0141462,0.0137908,13.812,18,0.000424944,10,0.000190479,-1.85974,0.163416,0.361042,193.915,0.0137908,
2,1,0,1,0,34686.8,0.0165433,0.0161841,14.2595,18,0.000509203,10,0.000230778,-1.8459,0.186649,0.316101,175.278,0.0161841,
2,1,0,1,0,34686.8,0.0189404,0.0185828,14.6509,18,0.000595982,10,0.000272254,-1.83414,0.204978,0.287836,164.323,0.0185828,
2,1,0,1,0,34686.8,0.0213486,0.0210026,15.0375,18,0.000685077,10,0.000315826,-1.82283,0.225416,0.261739,153.279,0.02100263,
2,1,0,1,0,34686.8,0.0237457,0.0233917,15.3907,18,0.000776415,10,0.000360016,-1.81274,0.248321,0.237596,142.395,0.0233917,
2,1,0,1,0,34686.8,0.0261429,0.0258296,15.7097,18,0.000869751,10,0.000405775,-1.80383,0.270985,0.217724,133.415,0.0258296,
2,1,0,1,0,34686.8,0.02854,0.0281795,16.0193,18,0.000964994,10,0.000451416,-1.79536,0.284127,0.207654,129.754,0.0281795,
2,1,0,1,0,34686.8,0.0309482,0.0306364,16.3352,18,0.00106213,10,0.000500452,-1.78688,0.308032,0.191538,121.924,0.0306364,
2,1,0,1,0,34686.8,0.0333453,0.0329778,16.6159,18,0.001161,10,0.000547956,-1.77948,0.334835,0.176206,114.176,0.0329778,
2,1,0,1,0,34686.8,0.0357424,0.0353807,16.8835,18,0.00126152,10,0.000597351,-1.77254,0.342897,0.172063,113.354,0.0353807,
2,1,0,1,0,34686.8,0.0381478,0.0377677,17.1565,18,0.00136366,10,0.00064796,-1.76557,0.354507,0.166429,111.375,0.03776766,
2,1,0,1,0,34686.8,0.0405449,0.0401843,17.4213,18,0.00146743,10,0.000700062,-1.75892,0.375759,0.157016,106.674,0.0401843,
2,1,0,1,0,34686.8,0.042942,0.0425925,17.6697,18,0.00157274,10,0.000752596,-1.75277,0.380153,0.155201,107.039,0.0425925,
2,1,0,1,0,34686.9,0.0453391,0.0450039,17.9204,18,0.00167953,10,0.000806488,-1.74665,0.383932,0.153673,107.509,0.0450039,
2,1,0,1,0,34686.9,0.0477473,0.047411,18.1833,18,0.00178789,10,0.000862087,-1.74033,0.401332,0.14701,104.203,0.047411,
2,1,0,1,0,34686.9,0.0501444,0.0498118,18.4279,18,0.00189775,10,0.000917926,-1.73452,0.417366,0.141363,101.636,0.0498118,
2,1,0,1,0,34686.9,0.0525415,0.0521765,18.6588,18,0.00200902,10,0.000973549,-1.72912,0.413125,0.142814,104.086,0.0521765,
2,1,0,1,0,34686.9,0.0549469,0.0545921,18.9244,18,0.00212182,10,0.00103312,-1.72298,0.415591,0.141966,104.775,0.0545921,
2,1,0,1,0,34686.9,0.057344,0.0570162,19.1659,18,0.00223614,10,0.00109277,-1.71747,0.436316,0.135223,101.145,0.05701616,
2,1,0,1,0,34686.9,0.0597411,0.059401,19.4124,18,0.0023519,10,0.00115312,-1.71192,0.429418,0.137395,104.142,0.059401,
2,1,0,1,0,34686.9,0.0621438,0.0617975,19.6679,18,0.00246914,10,0.00121543,-1.70624,0.430893,0.136925,105.074,0.0617975,
2,1,0,1,0,34686.9,0.0645465,0.0642121,19.9213,18,0.00258793,10,0.00127919,-1.70068,0.428828,0.137584,106.935,0.0642121,
2,1,0,1,0,34686.9,0.0669435,0.0666065,20.165,18,0.00270822,10,0.00134312,-1.6954,0.445694,0.132378,104.175,0.0666065,
2,1,0,1,0,34686.9,0.0693407,0.0690157,20.421,18,0.00283002,10,0.00140937,-1.68992,0.438408,0.134578,107.301,0.0690157,
2,1,0,1,0,34686.9,0.0717489,0.0714207,20.6899,18,0.00295336,10,0.00147769,-1.68424,0.445714,0.132372,106.818,0.0714207,
2,1,0,1,0,34686.9,0.074146,0.0738628,20.9421,18,0.00307828,10,0.00154684,-1.67898,0.455961,0.129397,105.73,0.0738628,
2,1,0,1,0,34686.9,0.0765431,0.0761713,21.1825,18,0.00320468,10,0.0016135,-1.67402,0.447148,0.131947,109.204,0.0761713,
2,1,0,1,0,34686.9,0.0789485,0.0785975,21.4728,18,0.00333265,10,0.00168771,-1.66811,0.445751,0.132361,110.841,0.0785975,
2,1,0,1,0,34686.9,0.0813456,0.0810015,21.7342,18,0.00346232,10,0.0017605,-1.66286,0.460343,0.128165,108.632,0.0810015,
2,1,0,1,0,34686.9,0.0837427,0.0833736,21.9864,18,0.00359349,10,0.00183308,-1.65785,0.467568,0.126185,108.334,0.0833736,
2,1,0,1,0,34687,0.0861398,0.0857776,22.2481,18,0.00372621,10,0.00190839,-1.65271,0.466732,0.126411,109.738,0.0857776,
2,1,0,1,0,34687,0.088548,0.0881857,22.5222,18,0.00386058,10,0.00198614,-1.64739,0.476944,0.123704,108.642,0.0881857,
2,1,0,1,0,34687,0.0909451,0.0905526,22.7618,18,0.00399644,10,0.00206114,-1.64279,0.499816,0.118043,104.902,0.0905526,
2,1,0,1,0,34687,0.0933422,0.092965,23.0171,18,0.00413382,10,0.00213979,-1.63795,0.491173,0.120121,107.926,0.092965,
2,1,0,1,0,34687,0.0957477,0.0954082,23.2786,18,0.00427271,10,0.00222097,-1.63304,0.488538,0.120768,109.742,0.0954082,
2,1,0,1,0,34687,0.0981447,0.0977771,23.5418,18,0.00441321,10,0.00230185,-1.62816,0.489778,0.120463,110.638,0.0977771,
2,1,0,1,0,34687,0.100542,0.100156,23.8049,18,0.00455529,10,0.0023842,-1.62333,0.493604,0.119529,111.078,0.100156,
2,1,0,1,0,34687,0.102939,0.1026,24.0732,18,0.00469894,10,0.00246991,-1.61847,0.509877,0.115714,108.687,0.1026,
2,1,0,1,0,34687,0.105347,0.105025,24.3342,18,0.00484422,10,0.00255569,-1.61378,0.530567,0.111202,105.547,0.105025,
2,1,0,1,0,34687,0.107744,0.107429,24.5878,18,0.00499103,10,0.00264144,-1.60928,0.529859,0.11135,106.88,0.107429,
2,1,0,1,0,34687,0.110141,0.109822,24.8476,18,0.00513933,10,0.00272882,-1.60472,0.518954,0.11369,110.307,0.109822,
2,1,0,1,0,34687,0.11255,0.112224,25.1211,18,0.00528926,10,0.00281919,-1.59996,0.51338,0.114925,112.63,0.112224,
2,1,0,1,0,34687,0.114947,0.114597,25.3797,18,0.00544081,10,0.00290844,-1.59551,0.507553,0.116244,115.207,0.114597,
2,1,0,1,0,34687,0.117344,0.116952,25.6627,18,0.00559395,10,0.00300132,-1.5907,0.490097,0.120384,120.641,0.116952,
2,1,0,1,0,34687,0.119744,0.119401,25.9642,18,0.00574884,10,0.00310015,-1.58563,0.490183,0.120363,121.918,0.119401,
2,1,0,1,0,34687,0.122146,0.121783,26.2519,18,0.00590552,10,0.00319702,-1.58084,0.483291,0.12208,125.095,0.1217826,
2,1,0,1,0,34687,0.124543,0.124198,26.554,18,0.00606396,10,0.00329796,-1.57587,0.469035,0.12579,130.402,0.124198,
2,1,0,1,0,34687.1,0.126941,0.126563,26.8696,18,0.00622429,10,0.00340069,-1.57074,0.458929,0.12856,134.884,0.126563,
2,1,0,1,0,34687.1,0.129349,0.128966,27.2132,18,0.00638657,10,0.00350957,-1.56522,0.454012,0.129952,138,0.1289658,
2,1,0,1,0,34687.1,0.131746,0.131369,27.5404,18,0.00655087,10,0.00361795,-1.56003,0.44892,0.131426,141.309,0.131369,
2,1,0,1,0,34687.1,0.134143,0.133835,27.8828,18,0.00671716,10,0.00373169,-1.55466,0.443333,0.133083,144.894,0.133835,
2,1,0,1,0,34687.1,0.13654,0.136203,28.229,18,0.00688555,10,0.00384488,-1.5493,0.44598,0.132293,145.756,0.136203,
2,1,0,1,0,34687.1,0.138945,0.138617,28.5907,18,0.00705608,10,0.00396314,-1.54378,0.454179,0.129905,144.919,0.138617,
2,1,0,1,0,34687.1,0.141343,0.140972,28.9308,18,0.00722867,10,0.00407843,-1.53864,0.46068,0.128072,144.631,0.140972,
2,1,0,1,0,34687.1,0.14374,0.143419,29.2915,18,0.00740339,10,0.00420097,-1.53326,0.465919,0.126632,144.681,0.143419,
2,1,0,1,0,34687.1,0.146148,0.145802,29.6317,18,0.00758022,10,0.00432036,-1.52824,0.480731,0.12273,141.884,0.145802,
2,1,0,1,0,34687.1,0.148545,0.148195,29.9568,18,0.00775903,10,0.00443945,-1.5235,0.512507,0.11512,134.617,0.148195,
2,1,0,1,0,34687.1,0.150942,0.150614,30.2897,18,0.00793983,10,0.00456205,-1.5187,0.51829,0.113836,134.527,0.150614,
2,1,0,1,0,34687.1,0.153345,0.152966,30.6139,18,0.00812258,10,0.00468288,-1.51408,0.544292,0.108398,129.432,0.152966,
2,1,0,1,0,34687.1,0.155747,0.155369,30.9194,18,0.0083072,10,0.00480391,-1.50977,0.57275,0.103012,124.231,0.155369,
2,1,0,1,0,34687.1,0.158144,0.157764,31.2117,18,0.00849361,10,0.0049241,-1.50568,0.610729,0.0966058,117.59,0.157764,
2,1,0,1,0,34687.1,0.160542,0.160214,31.4761,18,0.0086817,10,0.00504291,-1.50202,0.670924,0.0879384,107.97,0.160214,
2,1,0,1,0,34687.1,0.162947,0.162585,31.7327,18,0.00887138,10,0.00515925,-1.49849,0.743223,0.079384,98.2088,0.162585,
2,1,0,1,0,34687.2,0.165344,0.164982,31.9427,18,0.00906244,10,0.00526998,-1.49563,0.862217,0.0684283,85.257,0.164982,
2,1,0,1,0,34687.2,0.167741,0.167415,32.1346,18,0.00925473,10,0.00537981,-1.49303,1.02038,0.0578216,72.4488,0.167415,
2,1,0,1,0,34687.2,0.170149,0.169808,32.306,18,0.00944808,10,0.00548583,-1.49072,1.42951,0.0412728,51.9457,0.169808,
2,1,0,1,0,34687.2,0.172547,0.172204,32.3887,18,0.0096422,10,0.00557745,-1.48961,2.2252,0.0265145,33.4771,0.172204,
2,1,0,1,0,34687.2,0.174944,0.174611,32.4454,18,0.00983675,10,0.00566532,-1.48885,8.35821,0.00705893,8.92597,0.174611,
2,1,0,1,0,34687.2,0.177341,0.176986,32.4432,18,0.0100315,10,0.005742,-1.48888,-4.67842,-0.0126111,-15.9396,0.176986,
2,1,0,1,0,34687.2,0.179746,0.179362,32.37,18,0.0102259,10,0.00580593,-1.48986,-1.77159,-0.0333034,-42.0084,0.179362,
2,1,0,1,0,34687.2,0.182143,0.181812,32.25,18,0.0104198,10,0.00586345,-1.49147,-1.04264,-0.0565871,-71.0622,0.1818122,
2,1,0,1,0,34687.2,0.18454,0.184234,32.04,18,0.0106127,10,0.00590286,-1.49431,-0.755974,-0.078045,-97.407,0.184234,
2,1,0,1,0,34687.2,0.186949,0.186573,31.7731,18,0.0108041,10,0.00592802,-1.49794,-0.577321,-0.102196,-126.48,0.186573,
2,1,0,1,0,34687.2,0.189346,0.189038,31.4296,18,0.0109937,10,0.00594137,-1.50266,-0.472407,-0.124892,-152.888,0.189038,
2,1,0,1,0,34687.2,0.191743,0.191372,31.0256,18,0.0111811,10,0.00593742,-1.50828,-0.401142,-0.14708,-177.787,0.191372,
2,1,0,1,0,34687.2,0.19414,0.193776,30.5589,18,0.0113658,10,0.00592157,-1.51486,-0.344127,-0.171448,-204.143,0.193776,
2,1,0,1,0,34687.2,0.196548,0.196273,30.0501,18,0.0115476,10,0.00589802,-1.52215,-0.305498,-0.193127,-226.04,0.196273,
2,1,0,1,0,34687.2,0.198945,0.198589,29.4787,18,0.0117262,10,0.00585415,-1.53049,-0.275364,-0.214262,-246.124,0.198589,
2,1,0,1,0,34687.2,0.201342,0.201009,28.8666,18,0.0119011,10,0.00580243,-1.53961,-0.255013,-0.231361,-260.304,0.201009,
2,1,0,1,0,34687.2,0.203748,0.203415,28.2231,18,0.0120724,10,0.005741,-1.5494,-0.242031,-0.243771,-268.361,0.203415,
2,1,0,1,0,34687.3,0.206145,0.205853,27.572,18,0.0122397,10,0.00567577,-1.55953,-0.22981,-0.256734,-276.107,0.205853,
2,1,0,1,0,34687.3,0.208542,0.208254,26.9151,18,0.0124031,10,0.00560518,-1.57,-0.223144,-0.264404,-277.508,0.208254,
2,1,0,1,0,34687.3,0.210939,0.2106,26.2279,18,0.0125625,10,0.00552359,-1.58124,-0.217651,-0.271076,-277.602,0.2106,
2,1,0,1,0,34687.3,0.213347,0.213009,25.5824,18,0.0127178,10,0.00544928,-1.59206,-0.216328,-0.272734,-272.237,0.213009,
2,1,0,1,0,34687.3,0.215744,0.215411,24.925,18,0.0128693,10,0.00536912,-1.60337,-0.214814,-0.274656,-267.273,0.215411,
2,1,0,1,0,34687.3,0.218141,0.217811,24.2919,18,0.0130169,10,0.00529103,-1.61454,-0.217646,-0.271083,-257.295,0.217811,
2,1,0,1,0,34687.3,0.220547,0.220211,23.6997,18,0.0131608,10,0.00521892,-1.62526,-0.223964,-0.263435,-243.773,0.2202106,
2,1,0,1,0,34687.3,0.222944,0.222634,23.118,18,0.0133012,10,0.00514684,-1.63605,-0.226688,-0.26027,-234.991,0.222634,
2,1,0,1,0,34687.3,0.225341,0.225026,22.5672,18,0.0134382,10,0.0050782,-1.64652,-0.230861,-0.255566,-225.358,0.225026,
2,1,0,1,0,34687.3,0.227744,0.227435,22.0545,18,0.013572,10,0.00501597,-1.6565,-0.241669,-0.244136,-210.253,0.227435,
2,1,0,1,0,34687.3,0.230146,0.229865,21.559,18,0.0137028,10,0.00495565,-1.66637,-0.251998,-0.234129,-197.16,0.229865,
2,1,0,1,0,34687.3,0.232543,0.232206,21.0964,18,0.0138307,10,0.00489871,-1.67579,-0.258595,-0.228156,-187.976,0.2322059,
2,1,0,1,0,34687.3,0.234941,0.2346,20.6633,18,0.0139559,10,0.00484762,-1.6848,-0.27554,-0.214125,-172.857,0.2346,
2,1,0,1,0,34687.3,0.237349,0.237032,20.2596,18,0.0140786,10,0.00480218,-1.69337,-0.287382,-0.205301,-162.461,0.237032,
2,1,0,1,0,34687.3,0.239746,0.239392,19.8777,18,0.014199,10,0.00475856,-1.70163,-0.29235,-0.201813,-156.654,0.2393923,
2,1,0,1,0,34687.3,0.242143,0.241818,19.5112,18,0.0143171,10,0.00471817,-1.70972,-0.310791,-0.189838,-144.773,0.2418185,
2,1,0,1,0,34687.3,0.244548,0.244219,19.1749,18,0.0144331,10,0.00468288,-1.71727,-0.329765,-0.178915,-134.083,0.244219,
2,1,0,1,0,34687.4,0.246946,0.246648,18.874,18,0.0145473,10,0.00465522,-1.72414,-0.342709,-0.172158,-126.838,0.2466476,
2,1,0,1,0,34687.4,0.249343,0.249016,18.5699,18,0.0146596,10,0.00462419,-1.73119,-0.352229,-0.167505,-121.538,0.249016,
2,1,0,1,0,34687.4,0.25174,0.251408,18.2932,18,0.0147701,10,0.00459905,-1.73771,-0.379557,-0.155444,-111.096,0.251408,
2,1,0,1,0,34687.4,0.254148,0.253795,18.0502,18,0.0148791,10,0.00458104,-1.74352,-0.40003,-0.147489,-103.867,0.253795,
2,1,0,1,0,34687.4,0.256545,0.256201,17.798,18,0.0149866,10,0.00455986,-1.74963,-0.407713,-0.14471,-100.59,0.256201,
2,1,0,1,0,34687.4,0.258942,0.258614,17.5677,18,0.0150927,10,0.00454327,-1.75528,-0.442939,-0.133201,-91.4039,0.258614,
2,1,0,1,0,34687.4,0.261348,0.261072,17.3526,18,0.0151974,10,0.0045303,-1.76063,-0.463556,-0.127277,-86.2471,0.261072,
2,1,0,1,0,34687.4,0.263745,0.263404,17.1517,18,0.0153009,10,0.00451783,-1.76569,-0.48161,-0.122506,-82.0046,0.263404,
2,1,0,1,0,34687.4,0.266142,0.265815,16.9515,18,0.0154032,10,0.00450596,-1.77079,-0.501136,-0.117733,-77.9449,0.2658155,
2,1,0,1,0,34687.4,0.268539,0.268212,16.763,18,0.0155043,10,0.00449603,-1.77565,-0.52611,-0.112144,-73.4571,0.268212,
2,1,0,1,0,34687.4,0.270947,0.270633,16.6107,18,0.0156044,10,0.0044954,-1.77961,-0.542565,-0.108743,-70.439,0.270633,
2,1,0,1,0,34687.4,0.273344,0.273052,16.4361,18,0.0157036,10,0.00448789,-1.7842,-0.551517,-0.106978,-68.6449,0.273052,
2,1,0,1,0,34687.4,0.275741,0.275442,16.274,18,0.0158017,10,0.00448255,-1.7885,-0.605983,-0.0973625,-61.9133,0.275442,
2,1,0,1,0,34687.4,0.278149,0.27788,16.1362,18,0.0158989,10,0.00448391,-1.7922,-0.625206,-0.0943689,-59.4158,0.27788,
2,1,0,1,0,34687.4,0.280547,0.280207,15.9879,18,0.0159953,10,0.00447994,-1.79621,-0.630099,-0.0936361,-58.4399,0.280207,
2,1,0,1,0,34687.4,0.282944,0.28264,15.8469,18,0.0160907,10,0.00447897,-1.80006,-0.649045,-0.0909028,-56.2985,0.28264,
2,1,0,1,0,34687.5,0.285344,0.285061,15.7254,18,0.0161854,10,0.0044827,-1.8034,-0.696967,-0.0846525,-51.9599,0.285061,
2,1,0,1,0,34687.5,0.287746,0.287411,15.6033,18,0.0162794,10,0.00448456,-1.80678,-0.710924,-0.0829906,-50.5299,0.287411,
2,1,0,1,0,34687.5,0.290143,0.28981,15.4756,18,0.0163727,10,0.00448499,-1.81035,-0.723862,-0.0815072,-49.2535,0.28981,
2,1,0,1,0,34687.5,0.29254,0.292197,15.3585,18,0.0164652,10,0.00448773,-1.81365,-0.760276,-0.0776034,-46.5596,0.292197,
2,1,0,1,0,34687.5,0.294949,0.294643,15.2654,18,0.016557,10,0.00449785,-1.81629,-0.787467,-0.0749238,-44.6085,0.294643,
2,1,0,1,0,34687.5,0.297346,0.297002,15.1556,18,0.0166483,10,0.00450124,-1.81943,-0.806292,-0.0731745,-43.3225,0.297002,
2,1,0,1,0,34687.5,0.299621,0.299327,15.045,18,0.0167343,10,0.00450337,-1.82261,-0.080934,-0.728989,-414.36,0.299327,
2,1,0,1,0,34687.5,0.299962,0.299632,14.9122,18,0.0167523,10,0.00446818,-1.82646,0.011043,5.34274,2636.56,0.299632,
2,1,0,1,0,34687.5,0.297903,0.297636,11.4754,18,0.0168181,10,0.0034155,-1.94023,0.0194162,3.0387,1324.15,0.297636,
2,1,0,1,0,34687.5,0.295506,0.295221,8.78456,18,0.0168783,10,0.00259338,-2.05628,0.0203804,2.89494,1008.99,0.295221,
2,1,0,1,0,34687.5,0.293101,0.292831,6.67141,18,0.0169242,10,0.0019536,-2.17578,0.0191386,3.08277,804.314,0.292831,
2,1,0,1,0,34687.5,0.290704,0.290387,4.93688,18,0.0169587,10,0.00143361,-2.30655,0.0169028,3.49055,663.608,0.290387,
2,1,0,1,0,34687.5,0.288307,0.288008,3.48726,18,0.0169838,10,0.00100436,-2.45752,0.0135098,4.36721,568.773,0.288008,
2,1,0,1,0,34687.5,0.28591,0.285605,2.22477,18,0.0170007,10,0.000635406,-2.65271,0.00934346,6.31458,488.935,0.285605,
2,1,0,1,0,34687.5,0.283501,0.283197,1.13458,18,0.0170106,10,0.000321309,-2.94517,0.00420639,14.0263,423.779,0.2831966,
2,1,0,1,0,34687.5,0.281104,0.280814,0.202968,18,0.0170145,10,5.69964e-05,-3.69257,0.028316,2.08363,371.228,0.280814,
2,0,0,1,0,34687.5,0.278707,0.278414,-0.631364,18,0.0170131,10,-0.000175781,-3.19972,-0.0128139,-4.60436,325.958,0.278414,
2,0,0,1,0,34687.5,0.276302,0.275977,-1.3752,18,0.017007,10,-0.000379525,-2.86163,-0.00805211,-7.32727,291.345,0.275977,
2,0,0,1,0,34687.6,0.273905,0.273623,-2.02283,18,0.0169967,10,-0.000553492,-2.69404,-0.0163465,-3.60934,259.489,0.273623,
2,0,0,1,0,34687.6,0.271508,0.271197,-2.61115,18,0.0169827,10,-0.000708138,-2.58317,-0.0243841,-2.41961,235.894,0.271197,
2,0,0,1,0,34687.6,0.269105,0.268815,-3.1609,18,0.0169653,10,-0.000849698,-2.50019,-0.0330075,-1.78747,212.557,0.2688154,
2,0,0,1,0,34687.6,0.266702,0.266414,-3.63195,18,0.0169449,10,-0.000967601,-2.43986,-0.0429091,-1.375,190.827,0.266414,
2,0,0,1,0,34687.6,0.264305,0.263987,-4.06862,18,0.0169217,10,-0.00107406,-2.39055,-0.0522433,-1.12933,177.045,0.263987,
2,0,0,1,0,34687.6,0.261908,0.26163,-4.47861,18,0.016896,10,-0.00117174,-2.34886,-0.0629333,-0.9375,161.997,0.26163,
2,0,0,1,0,34687.6,0.2595,0.259199,-4.8584,18,0.016868,10,-0.00125929,-2.31351,-0.0741489,-0.795696,149.263,0.259199,
2,0,0,1,0,34687.6,0.257103,0.256799,-5.18776,18,0.0168378,10,-0.00133221,-2.28502,-0.0874809,-0.674433,135.7,0.256799,
2,0,0,1,0,34687.6,0.254706,0.254389,-5.50821,18,0.0168057,10,-0.00140123,-2.25899,-0.0977393,-0.603647,129.172,0.254389,
2,0,0,1,0,34687.6,0.2523,0.251962,-5.81361,18,0.0167717,10,-0.00146481,-2.23555,-0.111637,-0.528497,119.203,0.251962,
2,0,0,1,0,34687.6,0.249903,0.249593,-6.08226,18,0.016736,10,-0.00151809,-2.21593,-0.124447,-0.474099,112.085,0.249593,
2,0,0,1,0,34687.6,0.247506,0.247196,-6.33053,18,0.0166987,10,-0.00156488,-2.19856,-0.138618,-0.425631,105.102,0.247196,
2,0,0,1,0,34687.6,0.245109,0.244828,-6.58664,18,0.0166599,10,-0.00161259,-2.18134,-0.15249,-0.38691,99.14,0.244828,
2,0,0,1,0,34687.6,0.242701,0.242374,-6.82257,18,0.0166196,10,-0.00165361,-2.16605,-0.16615,-0.3551,94.213,0.242374,
2,0,0,1,0,34687.6,0.240304,0.239966,-7.03398,18,0.0165781,10,-0.00168792,-2.1528,-0.185661,-0.317783,87.1729,0.239966,
2,0,0,1,0,34687.6,0.237906,0.237612,-7.24108,18,0.0165352,10,-0.00172057,-2.1402,-0.195089,-0.302426,85.3054,0.237612,
2,0,0,1,0,34687.6,0.235501,0.235155,-7.44835,18,0.0164911,10,-0.00175152,-2.12794,-0.212594,-0.277524,80.4466,0.235155,
2,0,0,1,0,34687.7,0.233104,0.232781,-7.62637,18,0.0164459,10,-0.00177527,-2.11768,-0.227703,-0.25911,77.0677,0.232781,
2,0,0,1,0,34687.7,0.230707,0.230412,-7.80683,18,0.0163996,10,-0.00179878,-2.10753,-0.23728,-0.248651,75.7594,0.230412,
2,0,0,1,0,34687.7,0.22831,0.227974,-7.97944,18,0.0163522,10,-0.0018191,-2.09803,-0.252771,-0.233413,72.6458,0.227974,
2,0,0,1,0,34687.7,0.225902,0.225597,-8.14887,18,0.0163037,10,-0.00183837,-2.0889,-0.276002,-0.213767,67.901,0.225597,
2,0,0,1,0,34687.7,0.223504,0.223168,-8.30989,18,0.0162543,10,-0.0018545,-2.0804,-0.296258,-0.199151,64.5645,0.223168,
2,0,0,1,0,34687.7,0.221107,0.220786,-8.46586,18,0.016204,10,-0.00186915,-2.07233,-0.293888,-0.200757,66.3248,0.220786,
2,0,0,1,0,34687.7,0.218699,0.218414,-8.62848,18,0.0161527,10,-0.00188458,-2.06407,-0.319927,-0.184417,61.969,0.218414,
2,0,0,1,0,34687.7,0.216302,0.215982,-8.76886,18,0.0161005,10,-0.00189391,-2.05706,-0.338615,-0.174239,59.6224,0.215982,
2,0,0,1,0,34687.7,0.213905,0.213572,-8.91094,18,0.0160475,10,-0.00190313,-2.05008,-0.343098,-0.171962,59.8134,0.213572,
2,0,0,1,0,34687.7,0.211505,0.21122,-9.05769,18,0.0159935,10,-0.00191317,-2.04298,-0.358583,-0.164537,58.0818,0.21122,
2,0,0,1,0,34687.7,0.209102,0.208804,-9.18515,18,0.0159388,10,-0.00191789,-2.03691,-0.368313,-0.16019,57.4493,0.2088038,
2,0,0,1,0,34687.7,0.206705,0.206362,-9.329,18,0.0158833,10,-0.00192515,-2.03017,-0.382434,-0.154275,56.1106,0.2063617,
2,0,0,1,0,34687.7,0.204308,0.203984,-9.46101,18,0.0158269,10,-0.0019299,-2.02406,-0.390525,-0.151079,55.7181,0.203984,
2,0,0,1,0,34687.7,0.2019,0.201606,-9.59026,18,0.0157697,10,-0.00193345,-2.01817,-0.409336,-0.144136,53.9412,0.201606,
2,0,0,1,0,34687.7,0.199503,0.199223,-9.7175,18,0.0157118,10,-0.00193595,-2.01245,-0.4184,-0.141013,53.4977,0.199223,
2,0,0,1,0,34687.7,0.197106,0.196778,-9.84683,18,0.0156531,10,-0.00193764,-2.0067,-0.412277,-0.143108,54.998,0.196778,
2,0,0,1,0,34687.8,0.194709,0.194364,-9.97231,18,0.0155936,10,-0.00193826,-2.0012,-0.435109,-0.135598,52.7908,0.194364,
2,0,0,1,0,34687.8,0.192303,0.191952,-10.1038,18,0.0155333,10,-0.00193943,-1.99552,-0.441931,-0.133505,52.6425,0.1919518,
2,0,0,1,0,34687.8,0.189906,0.189548,-10.2285,18,0.0154723,10,-0.00193879,-1.99019,-0.446054,-0.132271,52.817,0.189548,
2,0,0,1,0,34687.8,0.187509,0.187176,-10.3573,18,0.0154105,10,-0.00193863,-1.98475,-0.445599,-0.132406,53.5055,0.187176,
2,0,0,1,0,34687.8,0.185101,0.1848,-10.4881,18,0.015348,10,-0.0019382,-1.9793,-0.442703,-0.133272,54.5452,0.1848,
2,0,0,1,0,34687.8,0.182704,0.182385,-10.616,18,0.0152847,10,-0.0019362,-1.97404,-0.448324,-0.131601,54.5705,0.182385,
2,0,0,1,0,34687.8,0.180307,0.179997,-10.7518,18,0.0152205,10,-0.00193528,-1.96852,-0.44089,-0.13382,56.134,0.1799968,
2,0,0,1,0,34687.8,0.177904,0.177541,-10.8827,18,0.0151556,10,-0.00193212,-1.96326,-0.432989,-0.136262,57.8886,0.177541,
2,0,0,1,0,34687.8,0.175501,0.175176,-11.0215,18,0.0150899,10,-0.00193071,-1.95776,-0.439618,-0.134207,57.7501,0.175176,
2,0,0,1,0,34687.8,0.173104,0.172801,-11.1744,18,0.0150233,10,-0.00193095,-1.95178,-0.431017,-0.136885,59.6594,0.1728009,
2,0,0,1,0,34687.8,0.170707,0.170362,-11.307,18,0.0149559,10,-0.00192628,-1.94665,-0.423403,-0.139347,61.5401,0.170362,
2,0,0,1,0,34687.8,0.168302,0.167981,-11.4679,18,0.0148875,10,-0.0019264,-1.94051,-0.399642,-0.147632,66.0771,0.167981,
2,0,0,1,0,34687.8,0.165905,0.165544,-11.632,18,0.0148182,10,-0.00192561,-1.93435,-0.399533,-0.147672,67.0317,0.165544,
2,0,0,1,0,34687.8,0.163507,0.163182,-11.7981,18,0.0147479,10,-0.00192524,-1.92819,-0.375717,-0.157033,72.3681,0.163182,
2,0,0,1,0,34687.8,0.161099,0.160811,-11.9774,18,0.0146766,10,-0.0019261,-1.92164,-0.360397,-0.163708,76.5258,0.160811,
2,0,0,1,0,34687.8,0.158702,0.158358,-12.1536,18,0.0146042,10,-0.00192462,-1.91529,-0.339321,-0.173877,82.6087,0.158358,
2,0,0,1,0,34687.8,0.156305,0.155996,-12.3644,18,0.0145306,10,-0.00192878,-1.90783,-0.325728,-0.181133,87.4838,0.155996,
2,0,0,1,0,34687.9,0.153908,0.153622,-12.5765,18,0.0144558,10,-0.00193203,-1.90044,-0.306115,-0.192738,94.6999,0.153622,
2,0,0,1,0,34687.9,0.151503,0.151198,-12.8095,18,0.0143796,10,-0.00193678,-1.89247,-0.288278,-0.204664,102.5,0.151198,
2,0,0,1,0,34687.9,0.149105,0.148759,-13.0763,18,0.0143019,10,-0.00194522,-1.88351,-0.270367,-0.218222,111.43,0.148759,
2,0,0,1,0,34687.9,0.146708,0.146362,-13.3552,18,0.0142226,10,-0.00195469,-1.87435,-0.251039,-0.235024,122.65,0.146362,
2,0,0,1,0,34687.9,0.1443,0.143984,-13.6589,18,0.0141416,10,-0.00196666,-1.86459,-0.23244,-0.253829,135.6,0.143984,
2,0,0,1,0,34687.9,0.141903,0.141576,-14.0068,18,0.0140586,10,-0.00198303,-1.85366,-0.218112,-0.270503,148.01,0.141576,
2,0,0,1,0,34687.9,0.139506,0.139143,-14.3742,18,0.0139734,10,-0.00200007,-1.84241,-0.202465,-0.291408,163.819,0.139143,
2,0,0,1,0,34687.9,0.137109,0.136793,-14.7781,18,0.013886,10,-0.00202153,-1.83038,-0.189715,-0.310993,179.8,0.136793,
2,0,0,1,0,34687.9,0.134701,0.134378,-15.2317,18,0.0137959,10,-0.00204681,-1.81725,-0.177364,-0.332649,198.077,0.134378,
2,0,0,1,0,34687.9,0.132303,0.132006,-15.7231,18,0.013703,10,-0.00207555,-1.80346,-0.169265,-0.348565,214.298,0.132006,
2,0,0,1,0,34687.9,0.129906,0.129585,-16.2556,18,0.013607,10,-0.00210649,-1.789,-0.164662,-0.35831,227.582,0.129585,
2,0,0,1,0,34687.9,0.127501,0.127163,-16.8248,18,0.0135077,10,-0.00213949,-1.77405,-0.161482,-0.365365,240.127,0.127163,
2,0,0,1,0,34687.9,0.125104,0.12476,-17.4214,18,0.0134049,10,-0.00217349,-1.75892,-0.158539,-0.372147,253.171,0.12476,
2,0,0,1,0,34687.9,0.122707,0.122434,-18.042,18,0.0132985,10,-0.00220895,-1.74371,-0.158164,-0.373031,262.692,0.122434,
2,0,0,1,0,34687.9,0.12031,0.120006,-18.6628,18,0.0131883,10,-0.00223966,-1.72902,-0.159295,-0.370381,270.111,0.120006,
2,0,0,1,0,34687.9,0.117901,0.117598,-19.3344,18,0.0130742,10,-0.00227369,-1.71367,-0.163583,-0.360674,271.984,0.117598,
2,0,0,1,0,34687.9,0.115504,0.115204,-19.9993,18,0.0129561,10,-0.002304,-1.69898,-0.168245,-0.350678,273.376,0.115204,
2,0,0,1,0,34688,0.113107,0.112822,-20.6361,18,0.0128342,10,-0.00232821,-1.68537,-0.172484,-0.34206,275.513,0.112822,
2,0,0,1,0,34688,0.110702,0.110391,-21.3076,18,0.0127083,10,-0.00235216,-1.67147,-0.179756,-0.328223,272.469,0.110391,
2,0,0,1,0,34688,0.108305,0.107998,-21.9463,18,0.0125784,10,-0.00237016,-1.65864,-0.194634,-0.303134,259.043,0.107998,
2,0,0,1,0,34688,0.105908,0.105651,-22.5174,18,0.0124449,10,-0.00237898,-1.64748,-0.20316,-0.290411,255.538,0.105651,
2,0,0,1,0,34688,0.103505,0.103233,-23.1605,18,0.0123078,10,-0.00239092,-1.63525,-0.209133,-0.282117,254.913,0.103233,
2,0,0,1,0,34688,0.101102,0.100817,-23.785,18,0.0121669,10,-0.00239794,-1.6237,-0.220923,-0.267061,247.418,0.100817,
2,0,0,1,0,34688,0.0987052,0.0984303,-24.3632,18,0.0120224,10,-0.00239807,-1.61327,-0.235668,-0.250352,237.68,0.0984303,
2,0,0,1,0,34688,0.0963081,0.0960423,-24.9082,18,0.0118745,10,-0.00239224,-1.60366,-0.250332,-0.235687,229.023,0.0960423,
2,0,0,1,0,34688,0.0938999,0.0936468,-25.459,18,0.0117233,10,-0.00238415,-1.59416,-0.264302,-0.223229,221.527,0.0936468,
2,0,0,1,0,34688,0.0915028,0.0912068,-25.9806,18,0.011569,10,-0.0023696,-1.58535,-0.288382,-0.20459,207.093,0.0912068,
2,0,0,1,0,34688,0.0891057,0.0888347,-26.4463,18,0.0114116,10,-0.00234935,-1.57764,-0.311018,-0.189699,195.603,0.0888347,
2,0,0,1,0,34688,0.0867002,0.0863915,-26.9053,18,0.0112516,10,-0.00232439,-1.57016,-0.341533,-0.17275,181.17,0.0863915,
2,0,0,1,0,34688,0.0843031,0.0840629,-27.3255,18,0.0110888,10,-0.00229706,-1.56343,-0.37225,-0.158496,168.738,0.0840629,
2,0,0,1,0,34688,0.081906,0.0815995,-27.7011,18,0.0109236,10,-0.0022604,-1.5575,-0.411152,-0.143499,155.085,0.0815995,
2,0,0,1,0,34688,0.0795089,0.079202,-28.0606,18,0.0107563,10,-0.00222246,-1.5519,-0.450705,-0.130906,143.258,0.079202,
2,0,0,1,0,34688,0.0771007,0.0767811,-28.4029,18,0.0105868,10,-0.00218081,-1.54664,-0.503498,-0.11718,129.683,0.0767811,
2,0,0,1,0,34688.1,0.0747036,0.0744609,-28.6832,18,0.0104155,10,-0.00213577,-1.54237,-0.585736,-0.100728,112.652,0.0744609,
2,0,0,1,0,34688.1,0.0723065,0.0720368,-28.9434,18,0.0102426,10,-0.00208499,-1.53845,-0.666271,-0.0885526,99.9171,0.07203681,
2,0,0,1,0,34688.1,0.0699011,0.0696,-29.1784,18,0.0100683,10,-0.00203082,-1.53494,-0.784576,-0.0751998,85.4962,0.0696,
2,0,0,1,0,34688.1,0.067504,0.0672183,-29.3549,18,0.00989264,10,-0.00197319,-1.53232,-0.963268,-0.0612499,70.0725,0.0672183,
2,0,0,1,0,34688.1,0.0651069,0.0648367,-29.4975,18,0.00971605,10,-0.00191252,-1.53021,-1.2087,-0.0488127,56.1489,0.0648367,
2,0,0,1,0,34688.1,0.0627098,0.0624253,-29.6093,18,0.00953871,10,-0.00184837,-1.52857,-1.55812,-0.0378663,43.7355,0.0624253,
2,0,0,1,0,34688.1,0.0603016,0.05998,-29.7123,18,0.0093607,10,-0.00178215,-1.52706,-2.17431,-0.027135,31.4291,0.05998,
2,0,0,1,0,34688.1,0.0579045,0.0575591,-29.7595,18,0.00918225,10,-0.00171293,-1.52637,-3.62945,-0.0162559,18.8698,0.0575591,
2,0,0,1,0,34688.1,0.0555074,0.0551785,-29.7902,18,0.00900358,10,-0.00164378,-1.52593,-4.74743,-0.0124278,14.4528,0.0551785,
2,0,0,1,0,34688.1,0.0530992,0.0527374,-29.8367,18,0.0088247,10,-0.00157351,-1.52525,-11.0548,-0.00533703,6.20636,0.0527374,
2,0,0,1,0,34688.1,0.0507021,0.0503918,-29.8263,18,0.00864567,10,-0.001503,-1.5254,16.9404,0.00348279,-4.05181,0.0503918,
2,0,0,1,0,34688.1,0.048305,0.0479317,-29.8087,18,0.00846678,10,-0.00142878,-1.52566,8.30079,0.00710776,-8.27089,0.0479317,
2,0,0,1,0,34688.1,0.0459051,0.0455903,-29.7912,18,0.00828801,10,-0.00135819,-1.52591,5.71429,0.010325,-11.9993,0.0455903,
2,0,0,1,0,34688.1,0.0435024,0.0431588,-29.7545,18,0.00810933,10,-0.00128417,-1.52645,4.51956,0.0130544,-15.1552,0.0431588,
2,0,0,1,0,34688.1,0.0411053,0.0407845,-29.7054,18,0.00793095,10,-0.00121152,-1.52716,3.42507,0.0172259,-19.9735,0.0407845,
2,0,0,1,0,34688.1,0.0387082,0.0383742,-29.6565,18,0.00775284,10,-0.00113805,-1.52788,3.29273,0.0179183,-20.7375,0.0383742,
2,0,0,1,0,34688.1,0.0363,0.0359915,-29.6131,18,0.00757503,10,-0.00106582,-1.52852,2.66754,0.0221178,-25.5461,0.0359915,
2,0,0,1,0,34688.2,0.0339029,0.0335981,-29.5372,18,0.00739758,10,-0.000992396,-1.52963,2.33429,0.0252753,-29.1293,0.03359814,
2,0,0,1,0,34688.2,0.0315058,0.0311719,-29.4641,18,0.00722058,10,-0.000918452,-1.53071,2.25677,0.0261436,-30.0713,0.0311719,
2,0,0,1,0,34688.2,0.0291087,0.0287818,-29.3879,18,0.00704402,10,-0.000845835,-1.53183,2.10389,0.0280432,-32.1652,0.0287818,
2,0,0,1,0,34688.2,0.0267033,0.0263163,-29.3214,18,0.00686785,10,-0.000771632,-1.53282,1.89453,0.0311422,-35.6179,0.0263163,
2,0,0,1,0,34688.2,0.0243062,0.0240068,-29.2208,18,0.00669222,10,-0.000701497,-1.53431,1.75391,0.0336392,-38.3787,0.0240068,
2,0,0,1,0,34688.2,0.0219091,0.0216018,-29.1379,18,0.00651715,10,-0.00062943,-1.53554,1.71631,0.0343762,-39.0873,0.0216018,
2,0,0,1,0,34688.2,0.0195009,0.019149,-29.0542,18,0.00634257,10,-0.00055636,-1.53679,1.54045,0.0383004,-43.3884,0.019149,
2,0,0,1,0,34688.2,0.0171038,0.0168045,-28.9256,18,0.00616866,10,-0.000486079,-1.53872,1.39479,0.0423004,-47.7685,0.0168045,
2,0,0,1,0,34688.2,0.0147067,0.0143804,-28.8227,18,0.00599543,10,-0.000414482,-1.54027,1.40996,0.0418451,-47.057,0.0143804,
2,0,0,1,0,34688.2,0.012304,0.0119712,-28.7088,18,0.00582285,10,-0.000343677,-1.54199,1.26439,0.0466629,-52.2431,0.0119712,
2,0,0,1,0,34688.2,0.00990136,0.00960644,-28.5667,18,0.00565102,10,-0.000274424,-1.54414,1.13568,0.0519515,-57.9081,0.00960644,
2,0,0,1,0,34688.2,0.00750426,0.00717705,-28.4222,18,0.00548008,10,-0.000203988,-1.54634,1.02057,0.057811,-64.1112,0.00717705,
2,0,0,1,0,34688.2,0.00510715,0.00478796,-28.2663,18,0.00531001,10,-0.000135338,-1.54873,1.13044,0.0521918,-57.6089,0.00478796,
2,0,0,1,0,34688.2,0.00270173,0.00235326,-28.1073,18,0.00514089,10,-6.61438e-05,-1.55118,0.960805,0.0614069,-67.3603,0.00235326,
2,0,0,1,0,34688.2,0.000304623,-6.12823e-05,-27.9523,18,0.0049726,10,1.71298e-06,-1.55358,0.881378,0.0669406,-72.9661,-0.00006128227,
2,0,0,1,0,34688.2,-0.00209248,-0.00243447,-27.7572,18,0.00480549,10,6.75743e-05,-1.55662,0.773429,0.0762836,-82.635,-0.002434473,
2,0,0,1,0,34688.2,-0.00450068,-0.00488613,-27.5723,18,0.00463954,10,0.000134722,-1.55953,0.730476,0.0807692,-86.8159,-0.00488613,
2,0,0,1,0,34688.3,-0.00689779,-0.00730174,-27.349,18,0.00447482,10,0.000199695,-1.56306,0.706657,0.0834917,-89.086,-0.00730174,
2,0,0,1,0,34688.3,-0.00929489,-0.00966433,-27.1296,18,0.00431143,10,0.000262189,-1.56656,0.703816,0.0838287,-88.7708,-0.00966433,
2,0,0,1,0,34688.3,-0.011692,-0.0120608,-26.9196,18,0.00414931,10,0.000324673,-1.56993,0.666608,0.0885078,-92.9268,-0.0120608,
2,0,0,1,0,34688.3,-0.0140974,-0.0144531,-26.6852,18,0.00398847,10,0.000385685,-1.57373,0.662172,0.0891007,-92.8135,-0.0144531,
2,0,0,1,0,34688.3,-0.0164945,-0.0168889,-26.4578,18,0.00382906,10,0.000446842,-1.57745,0.650796,0.0906582,-93.6777,-0.0168889,
2,0,0,1,0,34688.3,-0.0188916,-0.0192822,-26.2569,18,0.00367093,10,0.000506292,-1.58076,0.674465,0.0874768,-89.6077,-0.01928222,
2,0,0,1,0,34688.3,-0.0212998,-0.021666,-26.037,18,0.00351408,10,0.000564118,-1.58441,0.673989,0.0875385,-88.9567,-0.021666,
2,0,0,1,0,34688.3,-0.0236969,-0.0241007,-25.821,18,0.00335854,10,0.000622304,-1.58803,0.684936,0.0861394,-86.8486,-0.02410071,
2,0,0,1,0,34688.3,-0.026094,-0.026476,-25.6314,18,0.00320421,10,0.000678617,-1.59123,0.744178,0.0792822,-79.3252,-0.026476,
2,0,0,1,0,34688.3,-0.0284912,-0.0288619,-25.4407,18,0.00305105,10,0.000734267,-1.59447,0.773128,0.0763133,-75.7963,-0.0288619,
2,0,0,1,0,34688.3,-0.0308994,-0.0312744,-25.2642,18,0.00289895,10,0.000790123,-1.59749,0.823804,0.0716189,-70.6278,-0.03127436,
2,0,0,1,0,34688.3,-0.0332965,-0.0336804,-25.09,18,0.0027479,10,0.000845041,-1.6005,0.883814,0.0667562,-65.4237,-0.03368042,
2,0,0,1,0,34688.3,-0.0356936,-0.0360642,-24.9404,18,0.00259782,10,0.000899456,-1.6031,0.936263,0.0630165,-61.3722,-0.0360642,
2,0,0,1,0,34688.3,-0.038099,-0.0384713,-24.81,18,0.00244855,10,0.000954476,-1.60537,1.01885,0.0579082,-56.0776,-0.0384713,
2,0,0,1,0,34688.3,-0.0404961,-0.0408721,-24.6727,18,0.00230014,10,0.00100843,-1.60778,1.0938,0.0539404,-51.9947,-0.0408721,
2,0,0,1,0,34688.3,-0.0428932,-0.0432697,-24.5679,18,0.00215243,10,0.00106305,-1.60963,1.29287,0.045635,-43.7624,-0.0432697,
2,0,0,1,0,34688.4,-0.0452903,-0.0456768,-24.4588,18,0.00200535,10,0.0011172,-1.61156,1.40439,0.0420113,-40.123,-0.0456768,
2,0,0,1,0,34688.4,-0.0476985,-0.0480118,-24.3722,18,0.00185886,10,0.00117016,-1.6131,1.71862,0.0343299,-32.6801,-0.0480118,
2,0,0,1,0,34688.4,-0.0500956,-0.050438,-24.3096,18,0.00171284,10,0.00122613,-1.61422,1.95986,0.0301041,-28.5627,-0.050438,
2,0,0,1,0,34688.4,-0.0524927,-0.0528589,-24.2372,18,0.00156719,10,0.00128115,-1.61552,2.31622,0.0254726,-24.1106,-0.0528589,
2,0,0,1,0,34688.4,-0.0548981,-0.0552544,-24.1895,18,0.00142192,10,0.00133658,-1.61637,3.06271,0.019264,-18.1989,-0.0552544,
2,0,0,1,0,34688.4,-0.0572953,-0.057635,-24.1483,18,0.00127692,10,0.00139179,-1.61711,3.8513,0.0153195,-14.4438,-0.057635,
2,0,0,1,0,34688.4,-0.0596924,-0.0600665,-24.119,18,0.0011321,10,0.00144874,-1.61764,6.62144,0.00891045,-8.39233,-0.0600665,
2,0,0,1,0,34688.4,-0.062095,-0.0624323,-24.1042,18,0.000987443,10,0.00150488,-1.61791,10.6113,0.00556012,-5.23172,-0.0624323,
2,0,0,1,0,34688.4,-0.0644977,-0.0648946,-24.0998,18,0.000842828,10,0.00156395,-1.61799,52.0005,0.0011346,-1.06725,-0.0648946,
2,0,0,1,0,34688.4,-0.0668948,-0.0672412,-24.1008,18,0.000698248,10,0.00162057,-1.61797,-30.4643,-0.00193669,1.82187,-0.0672412,
2,0,0,1,0,34688.4,-0.0692919,-0.0696781,-24.1062,18,0.000553615,10,0.00167968,-1.61787,-8.4098,-0.00701562,6.60279,-0.0696781,
2,0,0,1,0,34688.4,-0.0717001,-0.0720778,-24.1302,18,0.000408901,10,0.00173925,-1.61744,-5.10225,-0.0115635,10.8978,-0.0720778,
2,0,0,1,0,34688.4,-0.0740972,-0.0744859,-24.1649,18,0.000264035,10,0.00179995,-1.61682,-4.04973,-0.0145689,13.7443,-0.0744859,
2,0,0,1,0,34688.4,-0.0764943,-0.0768485,-24.2087,18,0.00011892,10,0.0018604,-1.61603,-3.14838,-0.0187398,17.7034,-0.0768485,
2,0,0,1,0,34688.4,-0.0788997,-0.0792684,-24.2444,18,-2.6408e-05,10,0.00192181,-1.61539,-2.62277,-0.0224953,21.2972,-0.0792684,
2,0,0,1,0,34688.4,-0.0812968,-0.0816501,-24.3008,18,-0.000172056,10,0.00198416,-1.61438,-2.20486,-0.026759,25.3795,-0.0816501,
2,0,0,1,0,34688.4,-0.0836939,-0.0840847,-24.3693,18,-0.000318086,10,0.00204909,-1.61316,-2.08048,-0.0283589,26.9711,-0.0840847,
2,0,0,1,0,34688.5,-0.086091,-0.0864643,-24.4248,18,-0.000464475,10,0.00211187,-1.61217,-1.81586,-0.0324915,31.0032,-0.0864643,
2,0,0,1,0,34688.5,-0.0884992,-0.0888693,-24.5169,18,-0.000611316,10,0.0021788,-1.61053,-1.60208,-0.0368271,35.2425,-0.0888693,
2,0,0,1,0,34688.5,-0.0908963,-0.0912287,-24.6026,18,-0.000758695,10,0.00224447,-1.60902,-1.58048,-0.0373304,35.8471,-0.0912287,
2,0,0,1,0,34688.5,-0.0932935,-0.0936783,-24.6926,18,-0.000906594,10,0.00231316,-1.60743,-1.42472,-0.0414116,39.9294,-0.0936783,
2,0,0,1,0,34688.5,-0.0956989,-0.0960324,-24.8022,18,-0.00105506,10,0.00238181,-1.60551,-1.31803,-0.0447639,43.3354,-0.0960324,
2,0,0,1,0,34688.5,-0.098096,-0.0984893,-24.9122,18,-0.00120418,10,0.00245359,-1.60359,-1.39471,-0.0423026,41.0419,-0.0984893,
2,0,0,0,0,34688.5,-0.0999548,-0.100228,-24.9695,18,-0.00132146,10,0.00250265,-1.60259,0.0264,2.23485,-2045.53,-0.100228,
2,0,0,1,1,34688.5,-0.0994555,-0.0999039,-23.654,18,-0.00136251,10,0.00236312,-1.6261,-0.0257262,-2.29338,1932.27,-0.0999039,
2,0,0,1,1,34688.5,-0.0970583,-0.0975127,-19.5912,18,-0.00149106,10,0.00191039,-1.70794,-0.0303726,-1.94254,1509.07,-0.0975127,
2,0,0,1,1,34688.5,-0.0946501,-0.0950377,-16.5425,18,-0.0015989,10,0.00157217,-1.7814,-0.0325471,-1.81276,1181.52,-0.0950377,
2,0,0,1,1,34688.5,-0.092253,-0.0926444,-13.9831,18,-0.00169007,10,0.00129545,-1.8544,-0.0320707,-1.83968,1006.24,-0.0926444,
2,0,0,1,1,34688.5,-0.0898559,-0.0902563,-11.7327,18,-0.00176684,10,0.00105895,-1.9306,-0.0300705,-1.96206,895.508,-0.0902563,
2,0,0,1,1,34688.5,-0.0874588,-0.0878365,-9.6986,18,-0.00183084,10,0.000851891,-2.01329,-0.0275518,-2.14142,805.706,-0.0878365,
2,0,0,1,1,34688.5,-0.0850534,-0.0854558,-7.86195,18,-0.00188325,10,0.00067185,-2.10447,-0.0243783,-2.42019,734.054,-0.08545585,
2,0,0,1,1,34688.5,-0.0826563,-0.0831049,-6.19201,18,-0.00192519,10,0.000514587,-2.20817,-0.0206384,-2.85875,674.421,-0.0831049,
2,0,0,1,1,34688.5,-0.0802592,-0.0806798,-4.63296,18,-0.00195745,10,0.000373786,-2.33414,-0.0164381,-3.58922,623.173,-0.0806798,
2,0,0,1,1,34688.5,-0.077851,-0.0782419,-3.19111,18,-0.00198073,10,0.000249679,-2.49606,-0.0115462,-5.10991,579.333,-0.0782419,
2,0,0,1,1,34688.5,-0.0754539,-0.0758539,-1.87286,18,-0.00199577,10,0.000142064,-2.72749,-0.00520625,-11.3325,538.404,-0.0758539,
2,0,0,1,1,34688.6,-0.0730568,-0.0734499,-0.611152,18,-0.00200304,10,4.48891e-05,-3.21385,-0.0160429,-3.67765,505.566,-0.0734499,
2,1,0,1,1,34688.6,-0.0706597,-0.0710492,0.538723,18,-0.00200308,10,-3.82758e-05,-3.26863,0.0224806,2.62448,462.442,-0.0710492,
2,1,0,1,1,34688.6,-0.0682542,-0.0686717,1.63832,18,-0.00199638,10,-0.000112506,-2.7856,0.00514384,11.47,440.547,-0.0686717,
2,1,0,1,1,34688.6,-0.0658571,-0.066289,2.6689,18,-0.00198334,10,-0.000176919,-2.57367,0.0131773,4.47738,413.071,-0.066289,
2,1,0,1,1,34688.6,-0.06346,-0.063866,3.62305,18,-0.00196436,10,-0.00023139,-2.44093,0.0201334,2.93045,391.938,-0.063866,
2,1,0,1,1,34688.6,-0.0610518,-0.0614938,4.53491,18,-0.00193979,10,-0.000278869,-2.34343,0.0271745,2.17115,370.798,-0.0614938,
2,1,0,1,1,34688.6,-0.0586547,-0.0590772,5.38882,18,-0.00190993,10,-0.000318356,-2.26851,0.0348309,1.6939,348.302,-0.05907717,
2,1,0,1,1,34688.6,-0.0562576,-0.0566754,6.1987,18,-0.00187507,10,-0.000351313,-2.2077,0.0426551,1.38319,329.273,-0.0566754,
2,1,0,1,1,34688.6,-0.053855,-0.054247,6.97155,18,-0.00183545,10,-0.000378186,-2.15667,0.0517542,1.14,306.088,-0.054247,
2,1,0,1,1,34688.6,-0.0514523,-0.051859,7.6792,18,-0.0017914,10,-0.000398236,-2.11468,0.0597883,0.986814,293.403,-0.051859,
2,1,0,1,1,34688.6,-0.0490552,-0.0494678,8.37407,18,-0.00174315,10,-0.000414246,-2.07706,0.069483,0.849128,275.226,-0.0494678,
2,1,0,1,1,34688.6,-0.0466581,-0.047085,9.01957,18,-0.00169088,10,-0.000424687,-2.04481,0.0798926,0.738492,258.14,-0.047085,
2,1,0,1,1,34688.6,-0.0442527,-0.0446864,9.62656,18,-0.00163488,10,-0.000430176,-2.01653,0.088725,0.664976,248.551,-0.0446864,
2,1,0,1,1,34688.6,-0.0418556,-0.042239,10.2025,18,-0.00157534,10,-0.000430944,-1.99129,0.100797,0.585334,231.718,-0.042239,
2,1,0,1,1,34688.6,-0.0394585,-0.0398276,10.7444,18,-0.00151242,10,-0.000427923,-1.96882,0.112825,0.522932,218.29,-0.0398276,
2,1,0,1,1,34688.6,-0.0370558,-0.037429,11.2467,18,-0.00144641,10,-0.000420954,-1.94897,0.125638,0.469605,205.531,-0.03742896,
2,1,0,1,1,34688.7,-0.0346532,-0.0350229,11.7389,18,-0.0013774,10,-0.000411129,-1.93037,0.137908,0.427821,195.161,-0.0350229,
2,1,0,1,1,34688.7,-0.0322561,-0.03262,12.1805,18,-0.00130559,10,-0.000397327,-1.91434,0.154119,0.382822,181.451,-0.03262,
2,1,0,1,1,34688.7,-0.0298589,-0.0302362,12.6013,18,-0.00123119,10,-0.000381017,-1.89958,0.169087,0.348934,171.211,-0.0302362,
2,1,0,1,1,34688.7,-0.0274535,-0.0278429,13.0031,18,-0.0011543,10,-0.000362045,-1.88595,0.185487,0.318081,161.075,-0.0278429,
2,1,0,1,1,34688.7,-0.0250564,-0.0254527,13.3819,18,-0.0010751,10,-0.000340605,-1.87348,0.205185,0.287545,149.898,-0.0254527,
2,1,0,1,1,34688.7,-0.0226593,-0.0230361,13.7349,18,-0.000993696,10,-0.000316398,-1.86217,0.22303,0.264539,141.514,-0.0230361,
2,1,0,1,1,34688.7,-0.0202511,-0.0206279,14.071,18,-0.000910263,10,-0.000290256,-1.85167,0.242151,0.24365,133.564,-0.0206279,
2,1,0,1,1,34688.7,-0.017854,-0.0182367,14.3757,18,-0.000824901,10,-0.000262165,-1.84237,0.264843,0.222774,124.759,-0.0182367,
2,1,0,1,1,34688.7,-0.0154569,-0.0158412,14.6757,18,-0.000737701,10,-0.000232481,-1.8334,0.287607,0.205141,117.254,-0.0158412,
2,1,0,1,1,34688.7,-0.0130598,-0.0134394,14.9327,18,-0.000648862,10,-0.000200686,-1.82586,0.308907,0.190996,111.293,-0.0134394,
2,1,0,1,1,34688.7,-0.0106516,-0.0110556,15.2005,18,-0.000558434,10,-0.000168051,-1.81814,0.330001,0.178787,105.941,-0.0110556,
2,1,0,1,1,34688.7,-0.00825448,-0.00860498,15.4465,18,-0.000466449,10,-0.000132917,-1.81117,0.375098,0.157292,94.6276,-0.008604981,
2,1,0,1,1,34688.7,-0.00585738,-0.00623815,15.6527,18,-0.000373124,10,-9.76442e-05,-1.80541,0.402622,0.146539,89.5167,-0.00623815,
2,1,0,1,1,34688.7,-0.00345195,-0.0038077,15.8717,18,-0.000278531,10,-6.04347e-05,-1.79938,0.428445,0.137707,85.1589,-0.0038077,
2,1,0,1,1,34688.7,-0.00105485,-0.00146314,16.0713,18,-0.000182672,10,-2.35146e-05,-1.79395, , , ,-0.00146314,
2,1,0,0,1,34688.7,-7.54729e-05,-0.000382585,16.1372,18,-0.000142414,10,-6.17387e-06,-1.79217, , , ,-0.000382585,