File: Figure_codes/Fig_3-5/rawdata_trumpetplot_data/after 10th/20221101_1-115_003_TrumpetPlot_ParaChange_from10_every3_03_CV_C01_4.csv
mode,ox/red,error,control changes,counter inc.,time/s,control/V,Ewe/V,<I>/mA,cycle number,(Q-Qo)/C,I Range,P/W,log(|I|),Tafel slope mV/dec,alpha_eff,dI/d(E-IR),E-IR/V,
2,0,0,1,0,8820.54,2.44065e-05,-0.000363498,-0.0834932,5,0.0000000E+000,10,3.03496e-08,-4.07835, , , ,-0.000363498,
2,1,0,0,0,8820.79,0.00129787,0.000917473,0.150393,5,3.10832e-05,10,1.37981e-07,-3.82277, , , ,0.000917473,
2,1,0,0,0,8821.09,0.00279606,0.00247309,0.182718,5,8.84403e-05,10,4.51879e-07,-3.73822,0.0240108,2.45723,15.5228,0.00247309,
2,1,0,1,0,8821.39,0.00429469,0.00399109,0.191941,5,0.000150024,10,7.66055e-07,-3.71683,0.0877449,0.672404,5.11186,0.00399109,
2,1,0,1,0,8821.69,0.00579255,0.00549635,0.200358,5,0.000214645,10,1.10124e-06,-3.69819,0.0697123,0.846336,6.61844,0.00549635,
2,1,0,1,0,8821.99,0.00729041,0.00696799,0.211066,5,0.000282205,10,1.47071e-06,-3.67558,0.0859408,0.686519,5.6056,0.00696799,
2,1,0,1,0,8822.29,0.00878882,0.00848135,0.218246,5,0.000352258,10,1.85103e-06,-3.66105,0.106206,0.555526,4.71241,0.00848135,
2,1,0,1,0,8822.59,0.010287,0.00997865,0.224732,5,0.000424438,10,2.24252e-06,-3.64834,0.133745,0.441138,3.85189,0.00997865,
2,1,0,1,0,8822.89,0.0117852,0.0114622,0.230038,5,0.000498437,10,2.63673e-06,-3.6382,0.125933,0.468504,4.22085,0.0114622,
2,1,0,1,0,8823.19,0.0132836,0.0129418,0.236213,5,0.00057409,10,3.05702e-06,-3.6267,0.136887,0.431011,4.00265,0.0129418,
2,1,0,1,0,8823.49,0.0147815,0.0144471,0.242015,5,0.000651645,10,3.49641e-06,-3.61616,0.144964,0.406999,3.85303,0.0144471,
2,1,0,1,0,8823.79,0.0162793,0.0159896,0.247987,5,0.000731093,10,3.96522e-06,-3.60557,0.168726,0.349679,3.3689,0.0159896,
2,1,0,0,0,8824.09,0.017778,0.0174821,0.252399,5,0.000811958,10,4.41247e-06,-3.59791,0.175178,0.336801,3.3255,0.0174821,
2,1,0,0,0,8824.39,0.0192761,0.0189529,0.259443,5,0.000894126,10,4.91718e-06,-3.58596,0.169623,0.34783,3.50269,0.0189529,
2,1,0,1,0,8824.69,0.0207747,0.0204695,0.264214,5,0.000978197,10,5.40833e-06,-3.57804,0.155231,0.380078,3.89982,0.0204695,
2,1,0,1,0,8824.99,0.0222725,0.0219729,0.268198,5,0.0010638,10,5.89308e-06,-3.57154,0.171928,0.343167,3.59727,0.02197287,
2,1,0,1,0,8825.29,0.0237704,0.0234899,0.273382,5,0.00115103,10,6.42172e-06,-3.56323,0.172816,0.341403,3.67323,0.0234899,
2,1,0,1,0,8825.59,0.0252689,0.0249792,0.278561,5,0.00123961,10,6.95821e-06,-3.55508,0.185703,0.317712,3.46976,0.0249792,
2,1,0,1,0,8825.89,0.0267671,0.0264309,0.285258,5,0.00133001,10,7.53961e-06,-3.54476,0.158464,0.372325,4.12893,0.0264309,
2,1,0,1,0,8826.18,0.0282657,0.0279328,0.291064,5,0.00142221,10,8.13021e-06,-3.53601,0.173554,0.339952,3.85577,0.0279328,
2,1,0,1,0,8826.48,0.0297635,0.0294509,0.295733,5,0.00151592,10,8.7096e-06,-3.5291,0.18066,0.32658,3.77177,0.0294509,
2,1,0,1,0,8826.78,0.0312613,0.0309404,0.299085,5,0.00161113,10,9.25382e-06,-3.52421,0.17597,0.335285,3.94469,0.0309404,
2,1,0,0,0,8827.08,0.0327599,0.0325017,0.307543,5,0.00170797,10,9.99565e-06,-3.51209,0.194272,0.303698,3.64837,0.0325017,
2,1,0,0,0,8827.38,0.034258,0.033965,0.312079,5,0.00180664,10,1.05998e-05,-3.50574,0.187042,0.315437,3.85464,0.03396504,
2,1,0,1,0,8827.68,0.0357567,0.0354235,0.318326,5,0.001907,10,1.12762e-05,-3.49713,0.243358,0.242441,2.99839,0.0354235,
2,1,0,1,0,8827.98,0.0372545,0.0368696,0.322196,5,0.00200902,10,1.18792e-05,-3.49188,0.194963,0.302621,3.82587,0.0368696,
2,1,0,1,0,8828.28,0.0387524,0.0384727,0.327655,5,0.00211226,10,1.26058e-05,-3.48458,0.187693,0.314343,4.06509,0.0384727,
2,1,0,1,0,8828.58,0.0402508,0.0399076,0.335351,5,0.00221757,10,1.33831e-05,-3.4745,0.218534,0.269981,3.53264,0.0399076,
2,1,0,1,0,8828.88,0.041749,0.0414536,0.340613,5,0.00232486,10,1.41197e-05,-3.46774,0.226808,0.260132,3.44757,0.0414536,
2,1,0,1,0,8829.18,0.0432472,0.0429626,0.346732,5,0.0024334,10,1.48965e-05,-3.46001,0.248445,0.237477,3.207,0.0429626,
2,1,0,1,0,8829.48,0.0447456,0.0444251,0.351666,5,0.00254337,10,1.56228e-05,-3.45387,0.231923,0.254395,3.4818,0.0444251,
2,1,0,1,0,8829.78,0.0462435,0.0458891,0.356392,5,0.0026553,10,1.63545e-05,-3.44807,0.204423,0.288617,4.00679,0.0458891,
2,1,0,1,0,8830.08,0.0477413,0.0474286,0.361994,5,0.00276867,10,1.71689e-05,-3.4413,0.213942,0.275775,3.9003,0.0474286,
2,1,0,0,0,8830.38,0.0492399,0.0489104,0.366193,5,0.00288373,10,1.79107e-05,-3.43629,0.234572,0.251522,3.60895,0.0489104,
2,1,0,0,0,8830.68,0.0507381,0.0504342,0.371829,5,0.00300003,10,1.87529e-05,-3.42966,0.247388,0.238492,3.46735,0.0504342,
2,1,0,1,0,8830.98,0.0522367,0.0519172,0.376297,5,0.00311814,10,1.95363e-05,-3.42447,0.213518,0.276323,4.05539,0.0519172,
2,1,0,1,0,8831.28,0.0537345,0.0534298,0.384035,5,0.00323804,10,2.05189e-05,-3.41563,0.259665,0.227216,3.39332,0.0534298,
2,1,0,1,0,8831.58,0.0552323,0.0549288,0.387515,5,0.00335929,10,2.12857e-05,-3.41171,0.342104,0.172462,2.60071,0.0549288,
2,1,0,1,0,8831.88,0.0567309,0.0563651,0.389557,5,0.0034819,10,2.19574e-05,-3.40943,0.265415,0.222294,3.40463,0.0563651,
2,1,0,1,0,8832.18,0.0582291,0.0578974,0.395587,5,0.00360562,10,2.29035e-05,-3.40276,0.277068,0.212944,3.30076,0.0578974,
2,1,0,1,0,8832.48,0.0597277,0.05941,0.403954,5,0.0037312,10,2.39989e-05,-3.39367,0.297487,0.198328,3.11389,0.05941,
2,1,0,1,0,8832.78,0.0612255,0.0609427,0.406083,5,0.00385826,10,2.47478e-05,-3.39139,0.393485,0.149942,2.37699,0.0609427,
2,1,0,1,0,8833.08,0.0627233,0.0624111,0.411669,5,0.00398661,10,2.56927e-05,-3.38545,0.326966,0.180447,2.89979,0.0624111,
2,1,0,0,0,8833.38,0.0642218,0.0638918,0.415187,5,0.00411595,10,2.6527e-05,-3.38176,0.297471,0.198339,3.22704,0.0638918,
2,1,0,0,0,8833.68,0.06572,0.0654241,0.422607,5,0.0042471,10,2.76487e-05,-3.37406,0.309709,0.190501,3.12175,0.0654241,
2,1,0,1,0,8833.98,0.0672187,0.0669166,0.425281,5,0.00437973,10,2.84584e-05,-3.37132,0.368837,0.159962,2.64633,0.06691657,
2,1,0,1,0,8834.28,0.0687165,0.0684263,0.429308,5,0.00451343,10,2.93759e-05,-3.36723,0.371371,0.158871,2.65715,0.0684263,
2,1,0,1,0,8834.57,0.0702144,0.0699052,0.432171,5,0.00464787,10,3.0211e-05,-3.36434,0.33532,0.175951,2.97249,0.0699052,
2,1,0,1,0,8834.87,0.0717128,0.0713921,0.436589,5,0.00478389,10,3.1169e-05,-3.35993,0.303278,0.194541,3.30999,0.0713921,
2,1,0,1,0,8835.17,0.073211,0.0729021,0.439712,5,0.00492113,10,3.20559e-05,-3.35683,0.40261,0.146544,2.52101,0.0729021,
2,1,0,1,0,8835.47,0.0747092,0.0743994,0.443276,5,0.0050594,10,3.29795e-05,-3.35333,0.429522,0.137362,2.38628,0.0743994,
2,1,0,1,0,8835.77,0.0762076,0.0758758,0.445275,5,0.00519861,10,3.37856e-05,-3.35137,0.32393,0.182138,3.18557,0.0758758,
2,1,0,1,0,8836.07,0.0777054,0.0773442,0.451426,5,0.00533901,10,3.49152e-05,-3.34541,0.356122,0.165673,2.91777,0.0773442,
2,1,0,1,0,8836.37,0.0792033,0.0788738,0.45755,5,0.00548076,10,3.60887e-05,-3.33956,0.410258,0.143812,2.54966,0.0788738,
2,1,0,0,0,8836.67,0.0807019,0.0804013,0.459466,5,0.00562383,10,3.69417e-05,-3.33775,0.457081,0.12908,2.30926,0.0804013,
2,1,0,0,0,8836.97,0.0822001,0.0819156,0.461911,5,0.00576765,10,3.78377e-05,-3.33544,0.390281,0.151173,2.73396,0.0819156,
2,1,0,1,0,8837.27,0.0836986,0.0833918,0.467473,5,0.00591261,10,3.89834e-05,-3.33024,0.376394,0.15675,2.86005,0.0833918,
2,1,0,1,0,8837.57,0.0851965,0.0848816,0.472934,5,0.00605916,10,4.01434e-05,-3.3252,0.341335,0.17285,3.1872,0.0848816,
2,1,0,1,0,8837.87,0.0866944,0.0863657,0.476706,5,0.00620713,10,4.1171e-05,-3.32175,0.453077,0.130221,2.41479,0.0863657,
2,1,0,1,0,8838.17,0.0881929,0.0879302,0.482295,5,0.00635663,10,4.24083e-05,-3.31669,0.306525,0.19248,3.6273,0.0879302,
2,1,0,1,0,8838.47,0.0896911,0.089401,0.486478,5,0.00650726,10,4.34916e-05,-3.31294,0.255805,0.230644,4.39016,0.089401,
2,1,0,1,0,8838.77,0.0911897,0.0908394,0.494148,5,0.00665998,10,4.48881e-05,-3.30614,0.234238,0.251881,4.84998,0.0908394,
2,1,0,1,0,8839.07,0.0926875,0.0923807,0.502346,5,0.00681499,10,4.64071e-05,-3.299,0.236636,0.249328,4.86298,0.0923807,
2,1,0,1,0,8839.37,0.0941853,0.0938905,0.507726,5,0.00697196,10,4.76707e-05,-3.29437,0.252943,0.233254,4.62839,0.0938905,
2,1,0,0,0,8839.67,0.0956838,0.0954071,0.514384,5,0.00713059,10,4.90759e-05,-3.28871,0.217461,0.271313,5.45856,0.0954071,
2,1,0,0,0,8839.97,0.097182,0.0969055,0.523512,5,0.00729194,10,5.07312e-05,-3.28107,0.179434,0.328811,6.70604,0.0969055,
2,1,0,1,0,8840.27,0.0986807,0.0983617,0.532613,5,0.00745609,10,5.23887e-05,-3.27359,0.210397,0.280423,5.83237,0.0983617,
2,1,0,1,0,8840.57,0.100179,0.0999076,0.541449,5,0.0076229,10,5.40949e-05,-3.26644,0.195776,0.301365,6.37495,0.0999076,
2,1,0,1,0,8840.87,0.101676,0.101409,0.547436,5,0.00779216,10,5.55148e-05,-3.26167,0.197186,0.29921,6.43668,0.101409,
2,1,0,1,0,8841.17,0.103175,0.102834,0.560262,5,0.00796442,10,5.76141e-05,-3.25161,0.203674,0.289678,6.35248,0.102834,
2,1,0,1,0,8841.47,0.104673,0.104348,0.572973,5,0.00814,10,5.97888e-05,-3.24187,0.191422,0.308219,6.86086,0.104348,
2,1,0,1,0,8841.77,0.106171,0.105878,0.581674,5,0.00831871,10,6.15862e-05,-3.23532,0.244492,0.241317,5.45534,0.105878,
2,1,0,1,0,8842.07,0.10767,0.107361,0.589015,5,0.00850024,10,6.32373e-05,-3.22987,0.232891,0.253338,5.83147,0.107361,
2,1,0,1,0,8842.37,0.109167,0.108836,0.598133,5,0.00868411,10,6.50984e-05,-3.2232,0.225935,0.261137,6.11509,0.108836,
2,1,0,1,0,8842.66,0.110665,0.110353,0.607287,5,0.008871,10,6.70161e-05,-3.21661,0.255975,0.230491,5.47223,0.110353,
2,1,0,0,0,8842.96,0.112164,0.11185,0.615772,5,0.00906067,10,6.8874e-05,-3.21058,0.312088,0.18905,4.5334,0.11185,
2,1,0,0,0,8843.26,0.113662,0.113368,0.624104,5,0.00925257,10,7.07536e-05,-3.20474,0.276462,0.213411,5.18819,0.113368,
2,1,0,1,0,8843.56,0.115161,0.114861,0.631457,5,0.00944614,10,7.25296e-05,-3.19966,0.30889,0.191007,4.69396,0.114861,
2,1,0,1,0,8843.86,0.116658,0.116316,0.638666,5,0.00964246,10,7.42871e-05,-3.19473,0.272122,0.216814,5.37887,0.116316,
2,1,0,1,0,8844.16,0.118156,0.117831,0.645109,5,0.00984104,10,7.60139e-05,-3.19037,0.306371,0.192577,4.84797,0.117831,
2,1,0,1,0,8844.46,0.119655,0.119359,0.651364,5,0.0100415,10,7.77458e-05,-3.18618,0.391712,0.150621,3.83537,0.119359,
2,1,0,1,0,8844.76,0.121153,0.120838,0.656421,5,0.0102436,10,7.93205e-05,-3.18282,0.331849,0.177792,4.57695,0.120838,
2,1,0,1,0,8845.06,0.122652,0.12236,0.664598,5,0.0104479,10,8.13202e-05,-3.17744,0.271429,0.217368,5.6414,0.12236,
2,1,0,1,0,8845.36,0.124149,0.123806,0.67315,5,0.0106546,10,8.33399e-05,-3.17189,0.311204,0.189586,4.97812,0.123806,
2,1,0,1,0,8845.66,0.125647,0.125314,0.681682,5,0.0108636,10,8.54245e-05,-3.16642,0.325383,0.181325,4.81258,0.125314,
2,1,0,0,0,8845.96,0.127146,0.126825,0.68366,5,0.0110745,10,8.6705e-05,-3.16516,0.375268,0.157221,4.21258,0.126825,
2,1,0,0,0,8846.26,0.128644,0.128379,0.69405,5,0.0112871,10,8.91017e-05,-3.15861,0.398833,0.147932,4.00475,0.128379,
2,1,0,1,0,8846.56,0.130143,0.129849,0.700926,5,0.0115019,10,9.10143e-05,-3.15433,0.493556,0.119541,3.25258,0.129849,
2,1,0,1,0,8846.86,0.131641,0.131336,0.702758,5,0.0117182,10,9.22974e-05,-3.15319,1.70154,0.0346745,0.946415,0.1313359,
2,1,0,1,0,8847.16,0.133138,0.132828,0.70418,5,0.0119348,10,9.35346e-05,-3.15232,-4.88352,-0.0120814,-0.331385,0.132828,
2,1,0,1,0,8847.46,0.134637,0.134345,0.703271,5,0.0121514,10,9.44811e-05,-3.15288,-0.748929,-0.0787791,-2.15448,0.134345,
2,1,0,1,0,8847.76,0.136135,0.135817,0.698297,5,0.0123674,10,9.48407e-05,-3.15596,-0.413164,-0.1428,-3.87719,0.1358171,
2,1,0,1,0,8848.06,0.137633,0.137309,0.691649,5,0.0125816,10,9.49697e-05,-3.16011,-0.240043,-0.245789,-6.59403,0.137309,
2,1,0,1,0,8848.36,0.139132,0.138858,0.681646,5,0.0127932,10,9.46517e-05,-3.16644,-0.184551,-0.319695,-8.43037,0.138858,
2,1,0,1,0,8848.66,0.140629,0.140324,0.664871,5,0.0130003,10,9.32971e-05,-3.17726,-0.138405,-0.426286,-11.0114,0.140324,
2,1,0,1,0,8848.96,0.142127,0.141825,0.6482,5,0.0132029,10,9.19309e-05,-3.18829,-0.117027,-0.504157,-12.6553,0.141825,
2,1,0,0,0,8849.26,0.143626,0.143357,0.626661,5,0.0134,10,8.9836e-05,-3.20297,-0.095613,-0.617071,-15.0165,0.143357,
2,1,0,0,0,8849.56,0.145124,0.144841,0.602402,5,0.0135899,10,8.72526e-05,-3.22011,-0.0812304,-0.726329,-17.0516,0.144841,
2,1,0,1,0,8849.86,0.146623,0.146366,0.574763,5,0.013772,10,8.41258e-05,-3.24051,-0.0787491,-0.749215,-16.8552,0.146366,
2,1,0,1,0,8850.16,0.14812,0.147775,0.550701,5,0.0139465,10,8.13801e-05,-3.25908,-0.0774683,-0.761602,-16.3336,0.147775,
2,1,0,1,0,8850.46,0.149618,0.149329,0.526566,5,0.0141137,10,7.86317e-05,-3.27855,-0.0741253,-0.795949,-16.3571,0.149329,
2,1,0,1,0,8850.76,0.151117,0.150786,0.502436,5,0.0142736,10,7.57603e-05,-3.29892,-0.0724475,-0.814383,-15.9811,0.1507858,
2,1,0,1,0,8851.05,0.152615,0.152328,0.478092,5,0.0144264,10,7.28266e-05,-3.32049,-0.0783875,-0.752671,-14.1463,0.152328,
2,1,0,1,0,8851.35,0.154114,0.153807,0.460342,5,0.0145727,10,7.08039e-05,-3.33692,-0.0844795,-0.698395,-12.5777,0.153807,
2,1,0,1,0,8851.65,0.155612,0.155305,0.442602,5,0.0147135,10,6.87386e-05,-3.35399,-0.0890672,-0.662421,-11.4565,0.155305,
2,1,0,1,0,8851.95,0.157109,0.156784,0.425175,5,0.0148493,10,6.66607e-05,-3.37143,-0.0925816,-0.637276,-10.5864,0.156784,
2,1,0,0,0,8852.25,0.158608,0.158282,0.412199,5,0.0149805,10,6.52437e-05,-3.38489,-0.106436,-0.554325,-8.94506,0.1582818,
2,1,0,0,0,8852.55,0.160106,0.1598,0.39885,5,0.0151073,10,6.37364e-05,-3.39919,-0.109227,-0.540161,-8.43008,0.1598,
2,1,0,1,0,8852.85,0.161605,0.161291,0.387244,5,0.0152309,10,6.24588e-05,-3.41202,-0.125579,-0.469825,-7.12108,0.161291,
2,1,0,1,0,8853.15,0.163102,0.1628,0.379575,5,0.0153514,10,6.1795e-05,-3.4207,-0.135712,-0.434744,-6.41654,0.1628,
2,1,0,1,0,8853.45,0.1646,0.164292,0.36883,5,0.0154691,10,6.05957e-05,-3.43317,-0.160762,-0.367002,-5.28529,0.164292,
2,1,0,1,0,8853.75,0.166099,0.165849,0.361576,5,0.015584,10,5.9967e-05,-3.4418,-0.181339,-0.325357,-4.60218,0.165849,
2,1,0,1,0,8854.05,0.167597,0.167263,0.353637,5,0.015697,10,5.91506e-05,-3.45144,-0.197946,-0.298061,-4.12205,0.167263,
2,1,0,1,0,8854.35,0.169095,0.1688,0.349375,5,0.0158082,10,5.89745e-05,-3.45671,-0.218617,-0.269878,-3.68116,0.1688,
2,1,0,1,0,8854.65,0.170594,0.170297,0.343129,5,0.0159175,10,5.8434e-05,-3.46454,-0.208863,-0.282482,-3.79972,0.170297,
2,1,0,1,0,8854.95,0.172091,0.171795,0.337596,5,0.0160251,10,5.79975e-05,-3.4716,-0.249428,-0.236542,-3.14365,0.171795,
2,1,0,1,0,8855.25,0.173589,0.173274,0.333474,5,0.0161313,10,5.77821e-05,-3.47694,-0.287034,-0.205551,-2.67989,0.173274,
2,1,0,0,0,8855.55,0.175088,0.17477,0.332414,5,0.0162365,10,5.8096e-05,-3.47832,-0.316065,-0.186671,-2.41082,0.17477,
2,1,0,0,0,8855.85,0.176586,0.176257,0.327491,5,0.0163406,10,5.77225e-05,-3.4848,-0.313217,-0.188368,-2.40039,0.176257,
2,1,0,1,0,8856.15,0.178085,0.177772,0.322122,5,0.0164436,10,5.72644e-05,-3.49198,-0.393342,-0.149997,-1.89515,0.1777724,
2,1,0,1,0,8856.45,0.179582,0.179299,0.320737,5,0.0165454,10,5.75079e-05,-3.49385,-0.437489,-0.134861,-1.69433,0.179299,
2,1,0,1,0,8856.75,0.18108,0.180747,0.318967,5,0.0166467,10,5.76523e-05,-3.49625,-0.44121,-0.133723,-1.6637,0.180747,
2,1,0,1,0,8857.05,0.182579,0.182297,0.316138,5,0.0167474,10,5.76309e-05,-3.50012,-0.350708,-0.168231,-2.0743,0.182297,
2,1,0,1,0,8857.35,0.184077,0.183755,0.313934,5,0.0168472,10,5.76869e-05,-3.50316,-0.445268,-0.132505,-1.62689,0.183755,
2,1,0,1,0,8857.65,0.185576,0.185263,0.312078,5,0.0169461,10,5.78167e-05,-3.50574,-0.536414,-0.10999,-1.33826,0.185263,
2,1,0,1,0,8857.95,0.187074,0.186763,0.311487,5,0.0170446,10,5.81743e-05,-3.50656,-0.563407,-0.10472,-1.26201,0.186763,
2,1,0,1,0,8858.25,0.188571,0.188273,0.308908,5,0.0171427,10,5.8159e-05,-3.51017,-0.490102,-0.120383,-1.44519,0.188273,
2,1,0,0,0,8858.55,0.19007,0.189768,0.305695,5,0.01724,10,5.80113e-05,-3.51471,-0.657139,-0.0897831,-1.07267,0.189768,
2,1,0,0,0,8858.85,0.191568,0.191228,0.304455,5,0.0173367,10,5.82202e-05,-3.51648,-0.906047,-0.0651181,-0.773815,0.191228,
2,1,0,1,0,8859.15,0.193067,0.192745,0.302997,5,0.0174331,10,5.84012e-05,-3.51856,-2.1687,-0.0272053,-0.320649,0.192745,
2,1,0,1,0,8859.44,0.194564,0.194262,0.301006,5,0.0175292,10,5.84743e-05,-3.52142,-0.689116,-0.0856169,-1.00657,0.194262,
2,1,0,1,0,8859.74,0.196062,0.195748,0.299585,5,0.0176247,10,5.86431e-05,-3.52348,-0.660786,-0.0892876,-1.04641,0.195748,
2,1,0,1,0,8860.04,0.197561,0.197279,0.297126,5,0.0177197,10,5.86169e-05,-3.52706,-0.734982,-0.0802741,-0.933982,0.1972793,
2,1,0,1,0,8860.34,0.199059,0.198774,0.298157,5,0.0178143,10,5.9266e-05,-3.52556,-1.31747,-0.0447826,-0.518542,0.198774,
2,1,0,1,0,8860.64,0.200557,0.200273,0.296564,5,0.0179087,10,5.93937e-05,-3.52788,-0.921075,-0.0640556,-0.738168,0.200273,
2,1,0,1,0,8860.94,0.202056,0.201801,0.295066,5,0.0180028,10,5.95446e-05,-3.53008,-0.676885,-0.0871641,-1.00169,0.201801,
2,1,0,1,0,8861.24,0.203553,0.203223,0.292599,5,0.0180964,10,5.94627e-05,-3.53373,-1.16284,-0.0507377,-0.582823,0.203223,
2,1,0,1,0,8861.54,0.205051,0.204752,0.293038,5,0.0181897,10,6e-05,-3.53308,7.12616,0.00827936,0.0952364,0.204752,
2,1,0,0,0,8861.84,0.20655,0.206216,0.292263,5,0.0182829,10,6.02695e-05,-3.53423,-1.65851,-0.035574,-0.406268,0.206216,
2,1,0,0,0,8862.14,0.208048,0.207747,0.291231,5,0.0183761,10,6.05023e-05,-3.53576,-0.661983,-0.0891261,-1.0093,0.207747,
2,1,0,1,0,8862.44,0.209547,0.209284,0.290905,5,0.0184687,10,6.08819e-05,-3.53625,-0.842916,-0.0699951,-0.793425,0.209284,
2,1,0,1,0,8862.74,0.211044,0.210698,0.290362,5,0.0185608,10,6.11785e-05,-3.53706,-0.724502,-0.0814352,-0.918515,0.210698,
2,1,0,1,0,8863.04,0.212542,0.21225,0.288397,5,0.0186528,10,6.12121e-05,-3.54001,-0.907171,-0.0650373,-0.73072,0.21225,
2,1,0,1,0,8863.34,0.214041,0.213728,0.287393,5,0.0187445,10,6.1424e-05,-3.54152,-1.45833,-0.0404572,-0.451991,0.213728,
2,1,0,1,0,8863.64,0.215539,0.215265,0.286109,5,0.018836,10,6.15892e-05,-3.54347,-3.55817,-0.0165816,-0.185251,0.215265,
2,1,0,1,0,8863.94,0.217038,0.216782,0.284546,5,0.018927,10,6.16844e-05,-3.54585,-1.95404,-0.0301938,-0.337674,0.216782,
2,1,0,1,0,8864.24,0.218535,0.218246,0.283935,5,0.019018,10,6.19675e-05,-3.54678,-85.3474,-0.000691292,-0.00768582,0.218246,
2,1,0,1,0,8864.54,0.220033,0.219721,0.284164,5,0.0191089,10,6.24368e-05,-3.54643,-1.50616,-0.0391726,-0.434229,0.219721,
2,1,0,0,0,8864.84,0.221532,0.221267,0.284086,5,0.0191995,10,6.28588e-05,-3.54655,-1.39322,-0.0423479,-0.470405,0.221267,
2,1,0,0,0,8865.14,0.22303,0.222732,0.280956,5,0.0192898,10,6.2578e-05,-3.55136,-1.41071,-0.0418228,-0.4598,0.222732,
2,1,0,1,0,8865.44,0.224529,0.224247,0.28167,5,0.0193799,10,6.31638e-05,-3.55026,-1.18707,-0.0497022,-0.5467,0.224247,
2,1,0,1,0,8865.74,0.226026,0.225731,0.281494,5,0.01947,10,6.35419e-05,-3.55053,-2.38712,-0.024716,-0.271682,0.225731,
2,1,0,1,0,8866.04,0.227524,0.227212,0.279106,5,0.0195598,10,6.34163e-05,-3.55423,-0.952162,-0.0619643,-0.676555,0.227212,
2,1,0,1,0,8866.34,0.229023,0.228743,0.279668,5,0.0196493,10,6.39719e-05,-3.55336,-1.0861,-0.054323,-0.59454,0.228743,
2,1,0,1,0,8866.64,0.230521,0.230202,0.279937,5,0.0197386,10,6.4442e-05,-3.55294,-2.14781,-0.0274698,-0.299969,0.230202,
2,1,0,1,0,8866.94,0.232019,0.23172,0.278078,5,0.0198279,10,6.44363e-05,-3.55583,-1.42099,-0.0415203,-0.451856,0.23172,
2,1,0,1,0,8867.24,0.233518,0.233197,0.277592,5,0.019917,10,6.47335e-05,-3.55659,-0.545489,-0.10816,-1.16909,0.233197,
2,1,0,1,0,8867.53,0.235015,0.234737,0.278179,5,0.0200059,10,6.52989e-05,-3.55568,-1.14602,-0.0514825,-0.55794,0.2347371,
2,1,0,1,0,8867.83,0.236513,0.236184,0.27731,5,0.0200943,10,6.54963e-05,-3.55703,-2.12407,-0.0277769,-0.300532,0.236184,
2,1,0,0,0,8868.13,0.238012,0.237697,0.276741,5,0.0201829,10,6.57804e-05,-3.55793,-9.16675,-0.0064363,-0.0694869,0.237697,
2,1,0,0,0,8868.43,0.23951,0.239236,0.275931,5,0.0202713,10,6.60127e-05,-3.5592,-0.918063,-0.0642658,-0.690937,0.239236,
2,1,0,1,0,8868.73,0.241009,0.240708,0.275327,5,0.0203596,10,6.62733e-05,-3.56015,-1.57084,-0.0375594,-0.403975,0.240708,
2,1,0,1,0,8869.03,0.242506,0.242185,0.273315,5,0.0204475,10,6.61929e-05,-3.56334,-1.31202,-0.0449689,-0.483062,0.242185,
2,1,0,1,0,8869.33,0.244004,0.24374,0.274064,5,0.0205354,10,6.68005e-05,-3.56215,92.6286,0.000636952,0.00682055,0.24374,
2,1,0,1,0,8869.63,0.245503,0.245186,0.274853,5,0.0206234,10,6.73903e-05,-3.5609,220.883,0.00026711,0.00286121,0.245186,
2,1,0,1,0,8869.93,0.247001,0.246704,0.274881,5,0.020711,10,6.78142e-05,-3.56085,-1.32432,-0.0445511,-0.476077,0.246704,
2,1,0,1,0,8870.23,0.2485,0.248212,0.271418,5,0.0207986,10,6.73692e-05,-3.56636,-8.06305,-0.00731733,-0.0780045,0.248212,
2,1,0,1,0,8870.53,0.249997,0.249709,0.27283,5,0.020886,10,6.81281e-05,-3.56411,-2.51609,-0.0234491,-0.24947,0.249709,
2,1,0,1,0,8870.83,0.251495,0.251231,0.272461,5,0.0209734,10,6.84507e-05,-3.5647,-2.61992,-0.0225198,-0.239618,0.251231,
2,1,0,0,0,8871.13,0.252994,0.252674,0.27269,5,0.0210606,10,6.89018e-05,-3.56433,-0.928676,-0.0635313,-0.673388,0.252674,
2,1,0,0,0,8871.43,0.254492,0.254211,0.271167,5,0.0211477,10,6.89337e-05,-3.56676,-2.38973,-0.0246889,-0.262699,0.254211,
2,1,0,1,0,8871.73,0.255991,0.255693,0.271517,5,0.0212345,10,6.94249e-05,-3.5662,-12.4432,-0.00474156,-0.0503836,0.255693,
2,1,0,1,0,8872.03,0.257488,0.257203,0.272146,5,0.0213213,10,6.99969e-05,-3.5652,-3.10716,-0.0189884,-0.200817,0.257203,
2,1,0,1,0,8872.33,0.258986,0.258684,0.272031,5,0.0214082,10,7.03702e-05,-3.56538,-3.29394,-0.0179117,-0.18926,0.258684,
2,1,0,1,0,8872.63,0.260485,0.260208,0.270893,5,0.021495,10,7.04885e-05,-3.5672,-1.32844,-0.0444131,-0.469566,0.260208,
2,1,0,1,0,8872.93,0.261983,0.261728,0.270962,5,0.0215813,10,7.09182e-05,-3.56709,-1.56923,-0.0375981,-0.396128,0.261728,
2,1,0,1,0,8873.23,0.263481,0.263188,0.270126,5,0.0216678,10,7.10938e-05,-3.56843,-2.06535,-0.0285666,-0.300971,0.2631878,
2,1,0,1,0,8873.53,0.26498,0.264692,0.269431,5,0.021754,10,7.13162e-05,-3.56955,-2.47209,-0.0238665,-0.251164,0.264692,
2,1,0,1,0,8873.83,0.266477,0.266182,0.269571,5,0.0218402,10,7.17551e-05,-3.56933,68.2555,0.000864399,0.00909458,0.266182,
2,1,0,0,0,8874.13,0.267976,0.267656,0.267823,5,0.0219262,10,7.16846e-05,-3.57215,-2.15544,-0.0273726,-0.287203,0.267656,
2,1,0,0,0,8874.43,0.269474,0.269155,0.267221,5,0.022012,10,7.19238e-05,-3.57313,6.15176,0.00959076,0.100292,0.269155,
2,1,0,0,0,8874.73,0.270972,0.270648,0.270497,5,0.0220978,10,7.32093e-05,-3.56784,1.69376,0.0348337,0.36445,0.270648,
2,1,0,1,0,8875.03,0.27247,0.272191,0.267828,5,0.0221837,10,7.29005e-05,-3.57214,-2.0047,-0.0294308,-0.306832,0.2721909,
2,1,0,1,0,8875.33,0.273968,0.273682,0.26611,5,0.0222692,10,7.28295e-05,-3.57494,-1.24963,-0.0472139,-0.491589,0.273682,
2,1,0,1,0,8875.63,0.275466,0.275174,0.266166,5,0.0223545,10,7.32422e-05,-3.57485,-2.41699,-0.0244105,-0.253988,0.275174,
2,1,0,1,0,8875.92,0.276965,0.276651,0.265233,5,0.0224398,10,7.3377e-05,-3.57637,-1.81248,-0.0325521,-0.338857,0.276651,
2,1,0,1,0,8876.22,0.278463,0.278157,0.26564,5,0.0225251,10,7.38894e-05,-3.57571,-0.859052,-0.0686803,-0.710847,0.278157,
2,1,0,1,0,8876.52,0.279962,0.27971,0.265386,5,0.0226102,10,7.42311e-05,-3.57612,-0.978129,-0.0603193,-0.626457,0.27971,
2,1,0,1,0,8876.82,0.281459,0.281159,0.265538,5,0.022695,10,7.46584e-05,-3.57587,-2.78707,-0.0211692,-0.219306,0.2811594,
2,1,0,1,0,8877.12,0.282957,0.282632,0.265124,5,0.0227799,10,7.49326e-05,-3.57655,-1.09862,-0.0537038,-0.55388,0.282632,
2,1,0,0,0,8877.42,0.284456,0.284174,0.263871,5,0.0228647,10,7.49855e-05,-3.57861,-2.37022,-0.0248922,-0.256672,0.284174,
2,1,0,0,0,8877.72,0.285954,0.285663,0.263885,5,0.0229493,10,7.53821e-05,-3.57859,-0.904843,-0.0652047,-0.671786,0.285663,
2,1,0,0,0,8878.02,0.287452,0.287156,0.263307,5,0.0230336,10,7.56103e-05,-3.57954,-2.09418,-0.0281734,-0.289532,0.287156,
2,1,0,1,0,8878.32,0.28895,0.288627,0.263094,5,0.0231179,10,7.59359e-05,-3.57989,4.01618,0.0146906,0.150146,0.288627,
2,1,0,1,0,8878.62,0.290448,0.290112,0.261866,5,0.0232021,10,7.59706e-05,-3.58192,-3.85654,-0.0152987,-0.156227,0.290112,
2,1,0,1,0,8878.92,0.291947,0.291641,0.261801,5,0.0232862,10,7.63519e-05,-3.58203,-3.41572,-0.0172731,-0.177121,0.291641,
2,1,0,1,0,8879.22,0.293445,0.293103,0.26059,5,0.0233699,10,7.63796e-05,-3.58404,-1.43674,-0.0410652,-0.419796,0.293103,
2,1,0,1,0,8879.52,0.294943,0.29465,0.261377,5,0.0234538,10,7.70147e-05,-3.58273,-6.72138,-0.00877797,-0.0893481,0.29465,
2,1,0,1,0,8879.82,0.296442,0.296174,0.262289,5,0.0235375,10,7.76831e-05,-3.58122,-2.53128,-0.0233084,-0.237069,0.296174,
2,1,0,1,0,8880.12,0.297939,0.297708,0.260891,5,0.0236212,10,7.76692e-05,-3.58354,-2.66849,-0.0221099,-0.224311,0.297708,
2,1,0,1,0,8880.42,0.299437,0.299158,0.258578,5,0.0237045,10,7.73557e-05,-3.58741,-0.00232993,-25.3227,-117.181,0.299158,
2,1,0,1,0,8880.59,0.299737,0.299475,0.0862024,5,0.0237413,10,2.58155e-05,-4.06448,0.000897126,65.7656,202.735,0.299475,
2,1,0,1,0,8880.89,0.29824,0.297915,0.0184783,5,0.0237476,10,5.50497e-06,-4.73334,0.00206634,28.5529,68.9165,0.297915,
2,1,0,0,0,8881.19,0.296741,0.296464,0.00276564,5,0.0237449,10,8.19914e-07,-5.5582,0.0120707,4.88785,9.89523,0.296464,
2,0,0,0,0,8881.49,0.295243,0.294936,-0.00949417,5,0.023738,10,-2.80018e-06,-5.02254,-0.00762732,-7.73536,6.26847,0.294936,
2,1,0,1,0,8881.79,0.293744,0.293402,-0.0190907,5,0.0237283,10,-5.60127e-06,-4.71918,-0.00656704,-8.98426,5.40266,0.293402,
2,0,0,1,0,8882.09,0.292246,0.291965,-0.026494,5,0.0237164,10,-7.73532e-06,-4.57685,-0.0113385,-5.20352,4.64388,0.291965,
2,0,0,1,0,8882.39,0.290749,0.290447,-0.0323013,5,0.0237022,10,-9.3818e-06,-4.49078,-0.0169913,-3.47237,4.07523,0.290447,
2,0,0,1,0,8882.69,0.28925,0.288945,-0.0381171,5,0.0236863,10,-1.10137e-05,-4.41888,-0.0241686,-2.44119,3.53973,0.288945,
2,0,0,1,0,8882.99,0.287752,0.287438,-0.0438208,5,0.0236688,10,-1.25958e-05,-4.35832,-0.0309549,-1.906,3.10445,0.287438,
2,0,0,1,0,8883.29,0.286253,0.285966,-0.046795,5,0.02365,10,-1.33818e-05,-4.3298,-0.0311402,-1.89465,3.45245,0.285966,
2,0,0,1,0,8883.59,0.284755,0.284461,-0.0514645,5,0.0236297,10,-1.46396e-05,-4.28849,-0.0362607,-1.62711,3.24897,0.284461,
2,0,0,1,0,8883.89,0.283257,0.282958,-0.0559041,5,0.023608,10,-1.58185e-05,-4.25256,-0.04362,-1.35259,2.9444,0.282958,
2,0,0,0,0,8884.19,0.281759,0.281457,-0.0589457,5,0.0235852,10,-1.65906e-05,-4.22955,-0.0567603,-1.03946,2.39829,0.281457,
2,0,0,0,0,8884.49,0.280261,0.279971,-0.0620978,5,0.0235613,10,-1.73856e-05,-4.20692,-0.0590393,-0.999335,2.4491,0.279971,
2,0,0,0,0,8884.78,0.278763,0.278488,-0.0677989,5,0.0235364,10,-1.88812e-05,-4.16878,-0.0679057,-0.868852,2.26376,0.278488,
2,0,0,1,0,8885.08,0.277264,0.276991,-0.0708632,5,0.0235102,10,-1.96285e-05,-4.14958,-0.075406,-0.782431,2.13493,0.276991,
2,0,0,1,0,8885.38,0.275766,0.275416,-0.0733277,5,0.0234831,10,-2.01956e-05,-4.13473,-0.102054,-0.578124,1.65329,0.2754156,
2,0,0,1,0,8885.68,0.274269,0.273994,-0.0771373,5,0.0234551,10,-2.11351e-05,-4.11274,-0.079588,-0.741317,2.23165,0.273994,
2,0,0,1,0,8885.98,0.27277,0.272454,-0.0787628,5,0.0234263,10,-2.14592e-05,-4.10368,-0.0797556,-0.73976,2.30606,0.272454,
2,0,0,1,0,8886.28,0.271272,0.27098,-0.0832989,5,0.0233964,10,-2.25723e-05,-4.07936,-0.102132,-0.577684,1.86409,0.27098,
2,0,0,1,0,8886.58,0.269773,0.269453,-0.0866548,5,0.0233656,10,-2.33494e-05,-4.06221,-0.105191,-0.560882,1.84503,0.269453,
2,0,0,1,0,8886.88,0.268275,0.267959,-0.088846,5,0.0233341,10,-2.38071e-05,-4.05136,-0.114619,-0.51475,1.75421,0.267959,
2,0,0,1,0,8887.18,0.266778,0.266446,-0.0897308,5,0.0233019,10,-2.39084e-05,-4.04706,-0.140718,-0.41928,1.47218,0.266446,
2,0,0,0,0,8887.48,0.265279,0.264926,-0.0932634,5,0.0232688,10,-2.47079e-05,-4.03029,-0.126474,-0.466498,1.67678,0.264926,
2,0,0,0,0,8887.78,0.263781,0.263471,-0.0954056,5,0.023235,10,-2.51366e-05,-4.02043,-0.141148,-0.418,1.56861,0.263471,
2,0,0,1,0,8888.08,0.262282,0.261987,-0.0975868,5,0.0232004,10,-2.55665e-05,-4.01061,-0.14465,-0.407881,1.55381,0.261987,
2,0,0,1,0,8888.38,0.260784,0.260456,-0.100127,5,0.0231652,10,-2.60786e-05,-3.99945,-0.136444,-0.432411,1.69507,0.260456,
2,0,0,1,0,8888.68,0.259286,0.258999,-0.10199,5,0.0231292,10,-2.64152e-05,-3.99144,-0.114439,-0.515557,2.05794,0.258999,
2,0,0,1,0,8888.98,0.257788,0.257506,-0.104846,5,0.0230924,10,-2.69985e-05,-3.97945,-0.15973,-0.369373,1.51463,0.257506,
2,0,0,1,0,8889.28,0.25629,0.255971,-0.107907,5,0.0230549,10,-2.7621e-05,-3.96695,-0.168885,-0.349351,1.46627,0.255971,
2,0,0,1,0,8889.58,0.254791,0.254499,-0.108731,5,0.0230168,10,-2.76718e-05,-3.96365,-0.24212,-0.24368,1.04029,0.254499,
2,0,0,1,0,8889.88,0.253293,0.253005,-0.112201,5,0.0229781,10,-2.83875e-05,-3.95,-0.179071,-0.329477,1.44351,0.253005,
2,0,0,1,0,8890.18,0.251795,0.251463,-0.113837,5,0.0229388,10,-2.86258e-05,-3.94372,-0.163697,-0.360423,1.6214,0.251463,
2,0,0,0,0,8890.48,0.250297,0.249994,-0.116237,5,0.0228987,10,-2.90586e-05,-3.93466,-0.250526,-0.235504,1.06308,0.249994,
2,0,0,0,0,8890.78,0.248799,0.248547,-0.117199,5,0.022858,10,-2.91293e-05,-3.93108,-0.219213,-0.269145,1.24738,0.248547,
2,0,0,0,0,8891.08,0.247301,0.246959,-0.120715,5,0.0228171,10,-2.98117e-05,-3.91824,-0.195355,-0.302014,1.42491,0.246959,
2,0,0,1,0,8891.38,0.245802,0.245518,-0.122965,5,0.0227753,10,-3.01902e-05,-3.91022,-0.223675,-0.263775,1.2504,0.245518,
2,0,0,1,0,8891.68,0.244304,0.24402,-0.124179,5,0.0227329,10,-3.03021e-05,-3.90595,-0.192163,-0.307032,1.47868,0.24402,
2,0,0,1,0,8891.98,0.242806,0.242493,-0.125689,5,0.0226901,10,-3.04788e-05,-3.9007,-0.277658,-0.212492,1.04642,0.242493,
2,0,0,1,0,8892.28,0.241308,0.241016,-0.127964,5,0.0226468,10,-3.08413e-05,-3.89291,-0.230405,-0.256071,1.27285,0.241016,
2,0,0,1,0,8892.58,0.23981,0.239507,-0.12844,5,0.0226028,10,-3.07621e-05,-3.8913,-0.169327,-0.348438,1.7523,0.239507,
2,0,0,1,0,8892.87,0.238311,0.238024,-0.130991,5,0.0225582,10,-3.1179e-05,-3.88276,-0.31161,-0.189339,0.969963,0.238024,
2,0,0,1,0,8893.17,0.236813,0.236498,-0.132555,5,0.0225131,10,-3.13489e-05,-3.87761,-0.298531,-0.197634,1.02241,0.236498,
2,0,0,1,0,8893.47,0.235316,0.235026,-0.13272,5,0.0224675,10,-3.11927e-05,-3.87706,-0.20504,-0.287749,1.51242,0.235026,
2,0,0,0,0,8893.77,0.233817,0.233481,-0.136365,5,0.0224213,10,-3.18385e-05,-3.8653,-0.254716,-0.23163,1.23403,0.233481,
2,0,0,0,0,8894.07,0.232319,0.231987,-0.13918,5,0.0223745,10,-3.2288e-05,-3.85642,-0.277378,-0.212706,1.14758,0.231987,
2,0,0,1,0,8894.37,0.23082,0.230524,-0.139882,5,0.022327,10,-3.2246e-05,-3.85424,-0.299377,-0.197076,1.07561,0.230524,
2,0,0,1,0,8894.67,0.229322,0.229028,-0.141822,5,0.0222792,10,-3.24812e-05,-3.84826,-0.388481,-0.151874,0.845019,0.229028,
2,0,0,1,0,8894.97,0.227825,0.227505,-0.144162,5,0.022231,10,-3.27976e-05,-3.84115,-0.252414,-0.233743,1.31845,0.227505,
2,0,0,1,0,8895.27,0.226326,0.225996,-0.145537,5,0.0221821,10,-3.28909e-05,-3.83703,-0.292903,-0.201432,1.14846,0.225996,
2,0,0,1,0,8895.57,0.224828,0.224502,-0.146824,5,0.0221326,10,-3.29623e-05,-3.8332,-0.384733,-0.153353,0.882776,0.224502,
2,0,0,1,0,8895.87,0.223329,0.223068,-0.149704,5,0.0220826,10,-3.3394e-05,-3.82477,-0.245768,-0.240064,1.39804,0.223068,
2,0,0,1,0,8896.17,0.221831,0.221551,-0.151172,5,0.0220322,10,-3.34923e-05,-3.82053,-0.276068,-0.213715,1.26087,0.221551,
2,0,0,1,0,8896.47,0.220333,0.220023,-0.154022,5,0.0219811,10,-3.38883e-05,-3.81242,-0.291826,-0.202175,1.20602,0.220023,
2,0,0,0,0,8896.77,0.218835,0.218555,-0.154879,5,0.0219293,10,-3.38496e-05,-3.81001,-0.324657,-0.18173,1.09432,0.218555,
2,0,0,0,0,8897.07,0.217337,0.217045,-0.156016,5,0.0218771,10,-3.38624e-05,-3.80683,-0.49931,-0.118163,0.725431,0.217045,
2,0,0,0,0,8897.37,0.215839,0.215546,-0.157598,5,0.0218246,10,-3.39695e-05,-3.80245,-0.284589,-0.207316,1.284,0.215546,
2,0,0,1,0,8897.67,0.21434,0.214018,-0.159602,5,0.0217713,10,-3.41575e-05,-3.79696,-0.23826,-0.247628,1.5395,0.214018,
2,0,0,1,0,8897.97,0.212842,0.212553,-0.161791,5,0.0217174,10,-3.43892e-05,-3.79105,-0.279703,-0.210938,1.33894,0.212553,
2,0,0,1,0,8898.27,0.211344,0.211065,-0.164169,5,0.0216629,10,-3.46503e-05,-3.78471,-0.467903,-0.126094,0.806184,0.211065,
2,0,0,1,0,8898.57,0.209846,0.209567,-0.163864,5,0.0216081,10,-3.43406e-05,-3.78552,-0.327934,-0.179914,1.16315,0.209567,
2,0,0,1,0,8898.87,0.208348,0.208036,-0.167703,5,0.0215526,10,-3.48882e-05,-3.77546,-0.220838,-0.267165,1.74156,0.208036,
2,0,0,1,0,8899.17,0.206849,0.206521,-0.171252,5,0.0214962,10,-3.53671e-05,-3.76637,-0.339291,-0.173892,1.15004,0.206521,
2,0,0,1,0,8899.47,0.205351,0.205032,-0.171844,5,0.0214392,10,-3.52336e-05,-3.76486,-0.308098,-0.191498,1.27792,0.205032,
2,0,0,1,0,8899.77,0.203854,0.203503,-0.172835,5,0.0213818,10,-3.51726e-05,-3.76237,-0.437758,-0.134778,0.915083,0.2035033,
2,0,0,0,0,8900.07,0.202355,0.202065,-0.17501,5,0.0213239,10,-3.53633e-05,-3.75694,-0.224457,-0.262857,1.80651,0.202065,
2,0,0,0,0,8900.37,0.200857,0.20057,-0.177223,5,0.0212652,10,-3.55455e-05,-3.75148,-0.336368,-0.175403,1.21659,0.20057,
2,0,0,1,0,8900.67,0.199358,0.199018,-0.180376,5,0.0212057,10,-3.58981e-05,-3.74382,-0.346914,-0.170071,1.18738,0.199018,
2,0,0,1,0,8900.97,0.19786,0.197542,-0.182576,5,0.0211456,10,-3.60665e-05,-3.73856,-0.247063,-0.238806,1.69184,0.197542,
2,0,0,1,0,8901.26,0.196363,0.196036,-0.185234,5,0.0210851,10,-3.63125e-05,-3.73228,-0.283229,-0.208312,1.4979,0.196036,
2,0,0,1,0,8901.56,0.194864,0.194565,-0.186732,5,0.0210237,10,-3.63315e-05,-3.72878,-0.246154,-0.239687,1.74466,0.194565,
2,0,0,1,0,8901.86,0.193366,0.193088,-0.189079,5,0.0209614,10,-3.65088e-05,-3.72336,-0.252574,-0.233595,1.7319,0.193088,
2,0,0,1,0,8902.16,0.191867,0.191529,-0.1923,5,0.0208984,10,-3.68311e-05,-3.71602,-0.303828,-0.194189,1.46424,0.191529,
2,0,0,1,0,8902.46,0.190369,0.190127,-0.192505,5,0.0208349,10,-3.66004e-05,-3.71556,-0.244635,-0.241175,1.83973,0.190127,
2,0,0,1,0,8902.76,0.188871,0.188558,-0.197471,5,0.0207705,10,-3.72347e-05,-3.7045,-0.220839,-0.267163,2.04589,0.188558,
2,0,0,0,0,8903.06,0.187373,0.187062,-0.200857,5,0.0207053,10,-3.75728e-05,-3.69711,-0.216335,-0.272725,2.12944,0.187062,
2,0,0,0,0,8903.36,0.185875,0.18556,-0.202733,5,0.0206392,10,-3.76191e-05,-3.69308,-0.218943,-0.269477,2.13111,0.1855597,
2,0,0,0,0,8903.66,0.184377,0.184088,-0.205086,5,0.0205722,10,-3.77539e-05,-3.68806,-0.240777,-0.24504,1.96188,0.184088,
2,0,0,1,0,8903.96,0.182878,0.182604,-0.209214,5,0.0205044,10,-3.82033e-05,-3.67941,-0.212877,-0.277156,2.25967,0.182604,
2,0,0,1,0,8904.26,0.181381,0.181101,-0.213016,5,0.0204355,10,-3.85775e-05,-3.67159,-0.207299,-0.284613,2.36518,0.181101,
2,0,0,1,0,8904.56,0.179882,0.179544,-0.215034,5,0.0203655,10,-3.86081e-05,-3.66749,-0.228153,-0.258599,2.17557,0.179544,
2,0,0,1,0,8904.86,0.178384,0.178084,-0.219014,5,0.0202946,10,-3.90028e-05,-3.65953,-0.23518,-0.250871,2.14523,0.178084,
2,0,0,1,0,8905.16,0.176886,0.176579,-0.223026,5,0.0202228,10,-3.93817e-05,-3.65165,-0.175761,-0.335683,2.93295,0.176579,
2,0,0,1,0,8905.46,0.175387,0.175055,-0.22753,5,0.0201495,10,-3.98302e-05,-3.64296,-0.165641,-0.356192,3.15915,0.175055,
2,0,0,1,0,8905.76,0.173889,0.173585,-0.232246,5,0.0200748,10,-4.03143e-05,-3.63405,-0.181999,-0.324177,2.92969,0.173585,
2,0,0,1,0,8906.06,0.172392,0.172098,-0.23551,5,0.019999,10,-4.0531e-05,-3.62799,-0.178331,-0.330846,3.04821,0.172098,
2,0,0,0,0,8906.36,0.170893,0.170574,-0.241108,5,0.019922,10,-4.11268e-05,-3.61779,-0.152079,-0.387956,3.6553,0.170574,
2,0,0,0,0,8906.66,0.169395,0.169092,-0.246675,5,0.0198432,10,-4.17107e-05,-3.60787,-0.144255,-0.408997,3.92921,0.169092,
2,0,0,1,0,8906.96,0.167896,0.16756,-0.252345,5,0.0197626,10,-4.22829e-05,-3.59801,-0.152101,-0.387901,3.82684,0.16756,
2,0,0,1,0,8907.26,0.166398,0.166105,-0.257854,5,0.0196804,10,-4.2831e-05,-3.58863,-0.153399,-0.384618,3.88346,0.166105,
2,0,0,1,0,8907.56,0.164901,0.16455,-0.26351,5,0.0195965,10,-4.33607e-05,-3.5792,-0.133619,-0.441555,4.5667,0.16455,
2,0,0,1,0,8907.86,0.163402,0.163095,-0.271748,5,0.0195105,10,-4.43208e-05,-3.56583,-0.119042,-0.495625,5.2504,0.163095,
2,0,0,1,0,8908.16,0.161904,0.161574,-0.280266,5,0.0194222,10,-4.52837e-05,-3.55243,-0.124697,-0.473148,5.15063,0.161574,
2,0,0,1,0,8908.46,0.160405,0.16009,-0.289326,5,0.0193314,10,-4.63183e-05,-3.53861,-0.128015,-0.460883,5.16793,0.16009,
2,0,0,1,0,8908.76,0.158907,0.158584,-0.295942,5,0.019238,10,-4.69316e-05,-3.52879,-0.106371,-0.554662,6.42916,0.1585838,
2,0,0,1,0,8909.06,0.157409,0.157096,-0.308069,5,0.019142,10,-4.83963e-05,-3.51135,-0.0952819,-0.619215,7.4439,0.157096,
2,0,0,0,0,8909.36,0.155911,0.15556,-0.317911,5,0.0190424,10,-4.94541e-05,-3.49769,-0.0921297,-0.640401,7.98745,0.15556,
2,0,0,0,0,8909.65,0.154413,0.154092,-0.330552,5,0.018939,10,-5.09354e-05,-3.48076,-0.092768,-0.635995,8.21105,0.154092,
2,0,0,0,0,8909.95,0.152915,0.152591,-0.345388,5,0.0188318,10,-5.2703e-05,-3.46169,-0.0824375,-0.715694,9.68112,0.1525906,
2,0,0,1,0,8910.25,0.151416,0.151078,-0.360624,5,0.0187205,10,-5.44824e-05,-3.44295,-0.0809287,-0.729037,10.256,0.151078,
2,0,0,1,0,8910.55,0.149919,0.149609,-0.376942,5,0.0186043,10,-5.63939e-05,-3.42373,-0.072241,-0.816711,12.0422,0.149609,
2,0,0,1,0,8910.85,0.14842,0.148106,-0.394376,5,0.0184829,10,-5.84095e-05,-3.40409,-0.0737138,-0.800392,12.3402,0.148106,
2,0,0,1,0,8911.15,0.146922,0.146619,-0.41448,5,0.0183558,10,-6.07709e-05,-3.3825,-0.0728616,-0.809754,13.1249,0.146619,
2,0,0,1,0,8911.45,0.145424,0.145104,-0.435179,5,0.0182228,10,-6.31463e-05,-3.36133,-0.0681705,-0.865477,14.7465,0.145104,
2,0,0,1,0,8911.75,0.143925,0.14363,-0.457931,5,0.018083,10,-6.57725e-05,-3.3392,-0.0639275,-0.922921,16.5359,0.14363,
2,0,0,1,0,8912.05,0.142427,0.142106,-0.484245,5,0.0179356,10,-6.88143e-05,-3.31494,-0.0662117,-0.891081,16.8122,0.142106,
2,0,0,1,0,8912.35,0.14093,0.140593,-0.508414,5,0.0177808,10,-7.14793e-05,-3.29378,-0.0719872,-0.819591,16.2769,0.140593,
2,0,0,0,0,8912.65,0.139431,0.139157,-0.532202,5,0.0176186,10,-7.40598e-05,-3.27392,-0.0734634,-0.803121,16.7257,0.139157,
2,0,0,0,0,8912.95,0.137933,0.137658,-0.559394,5,0.0174488,10,-7.7005e-05,-3.25228,-0.0776886,-0.759442,16.5205,0.137658,
2,0,0,1,0,8913.25,0.136434,0.136119,-0.586977,5,0.017271,10,-7.98988e-05,-3.23138,-0.0819008,-0.720384,16.3592,0.136119,
2,0,0,1,0,8913.55,0.134936,0.134629,-0.608888,5,0.017086,10,-8.19742e-05,-3.21546,-0.0963165,-0.612564,14.4667,0.134629,
2,0,0,1,0,8913.85,0.133439,0.133113,-0.629323,5,0.0168944,10,-8.37707e-05,-3.20113,-0.110422,-0.534314,13.0922,0.133113,
2,0,0,1,0,8914.15,0.13194,0.131599,-0.648538,5,0.016697,10,-8.53469e-05,-3.18806,-0.127392,-0.463138,11.7159,0.131599,
2,0,0,1,0,8914.45,0.130442,0.1301,-0.666015,5,0.0164938,10,-8.66488e-05,-3.17652,-0.137414,-0.42936,11.1277,0.1301,
2,0,0,1,0,8914.75,0.128943,0.128628,-0.6808,5,0.0162858,10,-8.75701e-05,-3.16698,-0.199647,-0.295522,7.80213,0.128628,
2,0,0,1,0,8915.05,0.127445,0.127115,-0.69232,5,0.016074,10,-8.80046e-05,-3.15969,-0.229526,-0.257051,6.92249,0.127115,
2,0,0,1,0,8915.35,0.125947,0.125617,-0.702123,5,0.0158599,10,-8.81989e-05,-3.15359,-0.31135,-0.189497,5.15759,0.125617,
2,0,0,0,0,8915.65,0.124449,0.124122,-0.707202,5,0.0156429,10,-8.77793e-05,-3.15046,-0.470572,-0.125379,3.44186,0.124122,
2,0,0,0,0,8915.95,0.122951,0.122639,-0.710229,5,0.0154243,10,-8.71021e-05,-3.1486,-0.829848,-0.0710974,1.96371,0.122639,
2,0,0,0,0,8916.25,0.121453,0.121163,-0.713692,5,0.0152051,10,-8.64733e-05,-3.14649,8.94231,0.00659785,-0.183029,0.121163,
2,0,0,1,0,8916.55,0.119954,0.11966,-0.710083,5,0.0149861,10,-8.49689e-05,-3.14869,2.86246,0.0206117,-0.571645,0.11966,
2,0,0,1,0,8916.85,0.118456,0.118152,-0.709028,5,0.0147672,10,-8.37729e-05,-3.14934,3.12681,0.0188691,-0.520735,0.1181518,
2,0,0,1,0,8917.15,0.116958,0.116644,-0.707099,5,0.0145485,10,-8.24788e-05,-3.15052,0.711774,0.0828915,-2.28418,0.116644,
2,0,0,1,0,8917.45,0.11546,0.11515,-0.702354,5,0.014331,10,-8.08759e-05,-3.15344,0.458465,0.12869,-3.52698,0.11515,
2,0,0,1,0,8917.74,0.113962,0.113628,-0.694948,5,0.0141152,10,-7.89656e-05,-3.15805,0.449621,0.131222,-3.57282,0.113628,
2,0,0,1,0,8918.04,0.112463,0.112128,-0.694057,5,0.0139008,10,-7.78235e-05,-3.1586,0.416994,0.141489,-3.81906,0.112128,
2,0,0,1,0,8918.34,0.110965,0.110671,-0.688784,5,0.0136877,10,-7.62283e-05,-3.16192,0.469569,0.125647,-3.36925,0.110671,
2,0,0,1,0,8918.64,0.109468,0.109139,-0.681904,5,0.0134762,10,-7.44221e-05,-3.16628,0.339879,0.173591,-4.60662,0.109139,
2,0,0,0,0,8918.94,0.107969,0.107644,-0.676025,5,0.0132664,10,-7.27702e-05,-3.17004,0.3821,0.15441,-4.08196,0.107644,
2,0,0,0,0,8919.24,0.106471,0.106179,-0.669947,5,0.0130591,10,-7.11341e-05,-3.17396,0.430057,0.137191,-3.59536,0.106179,
2,0,0,1,0,8919.54,0.104972,0.104665,-0.665902,5,0.0128528,10,-6.96968e-05,-3.17659,0.425041,0.13881,-3.59879,0.104665,
2,0,0,1,0,8919.84,0.103474,0.103175,-0.659714,5,0.0126482,10,-6.80657e-05,-3.18064,0.321342,0.183605,-4.71028,0.103175,
2,0,0,1,0,8920.14,0.101977,0.101631,-0.652136,5,0.0124459,10,-6.62772e-05,-3.18566,0.325349,0.181344,-4.61241,0.101631,
2,0,0,1,0,8920.44,0.100478,0.100155,-0.645289,5,0.0122461,10,-6.46286e-05,-3.19025,0.338076,0.174517,-4.3949,0.100155,
2,0,0,1,0,8920.74,0.0989799,0.0986456,-0.639123,5,0.012048,10,-6.30467e-05,-3.19442,0.402069,0.146741,-3.6504,0.0986456,
2,0,0,1,0,8921.04,0.0974812,0.097151,-0.633,5,0.0118517,10,-6.14966e-05,-3.1986,0.333567,0.176876,-4.36192,0.097151,
2,0,0,1,0,8921.34,0.0959834,0.0956828,-0.624897,5,0.0116575,10,-5.97919e-05,-3.20419,0.306563,0.192456,-4.69573,0.0956828,
2,0,0,1,0,8921.64,0.0944855,0.0941752,-0.615715,5,0.0114658,10,-5.7985e-05,-3.21062,0.334743,0.176255,-4.25045,0.09417516,
2,0,0,0,0,8921.94,0.0929871,0.0926797,-0.609822,5,0.011276,10,-5.65181e-05,-3.2148,0.395083,0.149336,-3.55739,0.0926797,
2,0,0,0,0,8922.24,0.0914889,0.0911687,-0.606722,5,0.0110878,10,-5.53141e-05,-3.21701,0.324369,0.181891,-4.28885,0.0911687,
2,0,0,0,0,8922.54,0.0899907,0.0896661,-0.599073,5,0.0109015,10,-5.37165e-05,-3.22252,0.27594,0.213815,-4.98316,0.0896661,
2,0,0,1,0,8922.84,0.0884923,0.0881674,-0.588955,5,0.0107173,10,-5.19267e-05,-3.22992,0.34571,0.170663,-3.9462,0.0881674,
2,0,0,1,0,8923.14,0.0869946,0.0866611,-0.584597,5,0.0105353,10,-5.06618e-05,-3.23314,0.391049,0.150876,-3.45351,0.0866611,
2,0,0,1,0,8923.44,0.0854962,0.0851848,-0.57931,5,0.0103545,10,-4.93484e-05,-3.23709,0.372445,0.158412,-3.58666,0.0851848,
2,0,0,1,0,8923.74,0.083998,0.0836631,-0.573453,5,0.0101754,10,-4.79769e-05,-3.2415,0.284465,0.207407,-4.63526,0.0836631,
2,0,0,1,0,8924.04,0.0824998,0.0821658,-0.567802,5,0.00999817,10,-4.66539e-05,-3.2458,0.404189,0.145971,-3.2476,0.0821658,
2,0,0,1,0,8924.34,0.0810014,0.0806968,-0.562617,5,0.00982285,10,-4.54014e-05,-3.24979,0.439709,0.13418,-2.95746,0.0806968,
2,0,0,1,0,8924.64,0.0795035,0.0792193,-0.558274,5,0.00964846,10,-4.42261e-05,-3.25315,0.423428,0.139339,-3.03871,0.0792193,
2,0,0,1,0,8924.94,0.0780056,0.0777083,-0.556054,5,0.00947538,10,-4.321e-05,-3.25488,0.432767,0.136332,-2.95062,0.0777083,
2,0,0,0,0,8925.24,0.076507,0.0761926,-0.550726,5,0.0093037,10,-4.19613e-05,-3.25906,0.447117,0.131957,-2.83144,0.0761926,
2,0,0,0,0,8925.54,0.0750088,0.074673,-0.546909,5,0.00913367,10,-4.08393e-05,-3.26209,0.483908,0.121924,-2.59993,0.07467299,
2,0,0,1,0,8925.84,0.0735103,0.073203,-0.544112,5,0.00896449,10,-3.98306e-05,-3.26431,0.696942,0.0846556,-1.78901,0.073203,
2,0,0,1,0,8926.13,0.0720124,0.071724,-0.538684,5,0.00879647,10,-3.86366e-05,-3.26867,0.480737,0.122728,-2.58172,0.071724,
2,0,0,1,0,8926.43,0.0705146,0.0701825,-0.53562,5,0.00862971,10,-3.75912e-05,-3.27114,0.451108,0.130789,-2.73754,0.07018254,
2,0,0,1,0,8926.73,0.0690161,0.0686923,-0.529107,5,0.00846433,10,-3.63456e-05,-3.27646,0.654517,0.0901428,-1.87241,0.0686923,
2,0,0,1,0,8927.03,0.0675179,0.0671833,-0.526978,5,0.00829987,10,-3.54042e-05,-3.27821,0.683299,0.0863458,-1.77894,0.0671833,
2,0,0,1,0,8927.33,0.0660192,0.0657301,-0.526886,5,0.00813617,10,-3.46322e-05,-3.27828,0.485116,0.12162,-2.48606,0.0657301,
2,0,0,1,0,8927.63,0.0645214,0.064192,-0.521604,5,0.00797352,10,-3.34828e-05,-3.28266,0.384616,0.1534,-3.10767,0.064192,
2,0,0,1,0,8927.93,0.0630235,0.062695,-0.515756,5,0.00781227,10,-3.23353e-05,-3.28756,0.448723,0.131484,-2.6548,0.062695,
2,0,0,0,0,8928.23,0.0615251,0.0612196,-0.51411,5,0.00765221,10,-3.14736e-05,-3.28894,0.459115,0.128508,-2.57619,0.06121961,
2,0,0,0,0,8928.53,0.0600269,0.0596778,-0.510321,5,0.00749304,10,-3.04548e-05,-3.29216,0.459832,0.128308,-2.56088,0.05967778,
2,0,0,0,0,8928.83,0.0585287,0.0582367,-0.507529,5,0.00733487,10,-2.95568e-05,-3.29454,0.343347,0.171838,-3.38886,0.0582367,
2,0,0,1,0,8929.13,0.0570303,0.056703,-0.503425,5,0.00717777,10,-2.85457e-05,-3.29806,0.39001,0.151278,-2.97319,0.056703,
2,0,0,1,0,8929.43,0.0555325,0.0552158,-0.498725,5,0.00702225,10,-2.75375e-05,-3.30214,0.591457,0.0997536,-1.94692,0.0552158,
2,0,0,1,0,8929.73,0.0540342,0.0536907,-0.494669,5,0.0068676,10,-2.65591e-05,-3.30569,0.524199,0.112553,-2.17247,0.05369072,
2,0,0,1,0,8930.03,0.052536,0.0522093,-0.49191,5,0.00671361,10,-2.56823e-05,-3.30811,0.413508,0.142681,-2.73528,0.05220934,
2,0,0,1,0,8930.33,0.0510378,0.0507364,-0.488286,5,0.00656113,10,-2.47739e-05,-3.31133,0.451505,0.130674,-2.49525,0.0507364,
2,0,0,1,0,8930.63,0.0495394,0.0492634,-0.48308,5,0.00641002,10,-2.37982e-05,-3.31598,0.524984,0.112384,-2.12448,0.0492634,
2,0,0,1,0,8930.93,0.0480415,0.0477313,-0.479582,5,0.00625972,10,-2.28911e-05,-3.31914,0.716682,0.0823238,-1.54245,0.0477313,
2,0,0,1,0,8931.23,0.0465436,0.0461856,-0.474819,5,0.00611055,10,-2.19298e-05,-3.32347,0.474177,0.124426,-2.31533,0.0461856,
2,0,0,0,0,8931.53,0.045045,0.0447112,-0.472029,5,0.00596245,10,-2.1105e-05,-3.32603,0.459508,0.128398,-2.37301,0.0447112,
2,0,0,0,0,8931.83,0.0435468,0.0432637,-0.466415,5,0.00581579,10,-2.01789e-05,-3.33123,0.482156,0.122367,-2.23694,0.0432637,
2,0,0,1,0,8932.13,0.0420483,0.0417045,-0.466325,5,0.00566999,10,-1.94478e-05,-3.33131,0.502476,0.117418,-2.13107,0.0417045,
2,0,0,1,0,8932.43,0.0405504,0.0402236,-0.463347,5,0.00552515,10,-1.86375e-05,-3.33409,0.396921,0.148644,-2.67736,0.0402236,
2,0,0,1,0,8932.73,0.0390526,0.0386779,-0.458518,5,0.00538133,10,-1.77345e-05,-3.33864,0.386359,0.152708,-2.72353,0.0386779,
2,0,0,1,0,8933.03,0.0375541,0.0372375,-0.450828,5,0.00523875,10,-1.67877e-05,-3.34599,0.404653,0.145804,-2.58166,0.0372375,
2,0,0,1,0,8933.33,0.0360559,0.0357423,-0.449603,5,0.00509764,10,-1.60698e-05,-3.34717,0.411899,0.143239,-2.52636,0.0357423,
2,0,0,1,0,8933.63,0.0345572,0.0342764,-0.445877,5,0.0049574,10,-1.5283e-05,-3.35079,0.488537,0.120769,-2.10448,0.0342764,
2,0,0,1,0,8933.93,0.0330594,0.0327445,-0.443489,5,0.0048181,10,-1.45218e-05,-3.35312,0.358075,0.16477,-2.84168,0.0327445,
2,0,0,1,0,8934.22,0.0315615,0.0312177,-0.440786,5,0.00467984,10,-1.37603e-05,-3.35577,0.422536,0.139633,-2.39788,0.0312177,
2,0,0,0,0,8934.52,0.0300631,0.0297033,-0.436916,5,0.00454302,10,-1.29778e-05,-3.3596,0.456204,0.129328,-2.20357,0.0297033,
2,0,0,0,0,8934.82,0.0285649,0.0282537,-0.434128,5,0.00440684,10,-1.22657e-05,-3.36238,0.578323,0.102019,-1.72311,0.0282537,
2,0,0,0,0,8935.12,0.0270667,0.0267755,-0.432385,5,0.00427149,10,-1.15773e-05,-3.36413,0.49841,0.118376,-1.98755,0.0267755,
2,0,0,1,0,8935.42,0.0255683,0.0252537,-0.427648,5,0.00413702,10,-1.07997e-05,-3.36891,0.483156,0.122114,-2.04187,0.0252537,
2,0,0,1,0,8935.72,0.0240706,0.0237821,-0.423996,5,0.00400381,10,-1.00835e-05,-3.37264,0.608201,0.0970074,-1.61358,0.0237821,
2,0,0,1,0,8936.02,0.0225722,0.0222444,-0.421398,5,0.00387112,10,-9.37374e-06,-3.37531,0.932118,0.0632967,-1.04389,0.0222444,
2,0,0,1,0,8936.32,0.021074,0.0207662,-0.419857,5,0.0037391,10,-8.71882e-06,-3.3769,0.94856,0.0621995,-1.02241,0.0207662,
2,0,0,1,0,8936.62,0.0195758,0.0192498,-0.4174,5,0.00360783,10,-8.03485e-06,-3.37945,0.643752,0.0916502,-1.49743,0.0192498,
2,0,0,1,0,8936.92,0.0180774,0.0177407,-0.412971,5,0.00347726,10,-7.32642e-06,-3.38408,1.19455,0.0493909,-0.802952,0.0177407,
2,0,0,1,0,8937.22,0.0165795,0.0162562,-0.415372,5,0.00334734,10,-6.75237e-06,-3.38156,1.27751,0.0461835,-0.747757,0.0162562,
2,0,0,1,0,8937.52,0.0150817,0.0147531,-0.414149,5,0.0032176,10,-6.10999e-06,-3.38284,1.70328,0.0346391,-0.559028,0.0147531,
2,0,0,0,0,8937.82,0.013583,0.0132468,-0.412381,5,0.00308803,10,-5.46273e-06,-3.3847,0.658133,0.0896476,-1.43993,0.0132468,
2,0,0,0,0,8938.12,0.0120848,0.0117866,-0.411179,5,0.00295907,10,-4.84642e-06,-3.38597,1.1059,0.0533503,-0.858021,0.0117866,
2,0,0,1,0,8938.42,0.0105863,0.0102805,-0.410812,5,0.0028305,10,-4.22337e-06,-3.38636,7.4084,0.00796393,-0.127657,0.01028055,
2,0,0,1,0,8938.72,0.00908846,0.00878145,-0.410484,5,0.00270186,10,-3.60464e-06,-3.3867,-5.40008,-0.0109258,0.175268,0.00878145,
2,0,0,1,0,8939.02,0.0075906,0.00726756,-0.410062,5,0.0025732,10,-2.98015e-06,-3.38715,5.66054,0.010423,-0.166521,0.00726756,
2,0,0,1,0,8939.32,0.00609208,0.00580489,-0.410614,5,0.00244466,10,-2.38357e-06,-3.38657,-2.941,-0.0200612,0.321528,0.005804887,
2,0,0,1,0,8939.62,0.00459389,0.00428957,-0.41039,5,0.00231637,10,-1.7604e-06,-3.3868,-2.39434,-0.0246414,0.394684,0.00428957,
2,0,0,1,0,8939.92,0.00309525,0.00279817,-0.41198,5,0.00218755,10,-1.15279e-06,-3.38512,-0.684545,-0.0861887,1.38179,0.00279817,
2,0,0,1,0,8940.22,0.00159739,0.00126201,-0.414454,5,0.00205652,10,-5.23043e-07,-3.38252, , , ,0.001262006,
2,0,0,0,0,8940.5,0.000199195,-0.000176442,-0.41393,5,0.00193544,10,7.30349e-08,-3.38307, , , ,-0.000176442,