File: Figure_codes/Fig_3-5/rawdata_trumpetplot_data/after 10th/20221101_1-115_003_TrumpetPlot_ParaChange_from10_every3_10_CV_C01_4.csv
mode,ox/red,error,control changes,counter inc.,time/s,control/V,Ewe/V,<I>/mA,cycle number,(Q-Qo)/C,I Range,P/W,log(|I|),Tafel slope mV/dec,alpha_eff,dI/d(E-IR),E-IR/V,
2,1,0,0,0,9071.04,-2.44065e-05,-0.000306236,5.32532,5,0.0000000E+000,10,-1.63081e-06,-2.27365, , , ,-0.000306236,
2,1,0,1,0,9071.05,0.00179726,0.00141083,6.37167,5,5.21151e-05,10,8.98933e-06,-2.19575, , , ,0.001410827,
2,1,0,1,0,9071.06,0.00379485,0.00348498,7.2207,5,0.000120521,10,2.5164e-05,-2.14142,0.0464998,1.26882,349.545,0.00348498,
2,1,0,1,0,9071.07,0.00579244,0.00547961,7.79389,5,0.000195851,10,4.27075e-05,-2.10825,0.0677053,0.871424,263.163,0.00547961,
2,1,0,1,0,9071.08,0.00779002,0.00750843,8.27952,5,0.000276325,10,6.21662e-05,-2.08199,0.0865266,0.681872,218.697,0.00750843,
2,1,0,1,0,9071.09,0.00977853,0.00942916,8.65765,5,0.000360322,10,8.16344e-05,-2.0626,0.111702,0.528193,177.779,0.00942916,
2,1,0,1,0,9071.1,0.0117761,0.0114403,8.97851,5,0.000448565,10,0.000102717,-2.0468,0.14532,0.406002,141.683,0.0114403,
2,1,0,1,0,9071.11,0.0137737,0.0134844,9.2322,5,0.000539661,10,0.00012449,-2.03469,0.174263,0.338569,121.837,0.0134844,
2,1,0,1,0,9071.12,0.0157713,0.0154529,9.46741,5,0.000633178,10,0.000146299,-2.02377,0.199693,0.295454,108.94,0.0154529,
2,1,0,1,0,9071.13,0.017778,0.0174745,9.66689,5,0.000728976,10,0.000168924,-2.01471,0.233962,0.252177,95.0269,0.0174745,
2,1,0,1,0,9071.14,0.0197755,0.0194387,9.84616,5,0.000826562,10,0.000191397,-2.00673,0.263917,0.223555,85.8166,0.0194387,
2,1,0,1,0,9071.15,0.0217731,0.0214412,10.0073,5,0.000925875,10,0.000214568,-1.99968,0.298101,0.19792,77.2575,0.02144116,
2,1,0,1,0,9071.16,0.0237707,0.0234948,10.1595,5,0.00102675,10,0.000238696,-1.99313,0.308266,0.191393,75.8819,0.0234948,
2,1,0,1,0,9071.17,0.0257774,0.0254582,10.3121,5,0.00112916,10,0.000262528,-1.98665,0.315346,0.187096,75.2668,0.0254582,
2,1,0,1,0,9071.18,0.027775,0.0274597,10.458,5,0.001233,10,0.000287173,-1.98055,0.348832,0.169136,68.9711,0.0274597,
2,1,0,1,0,9071.19,0.0297726,0.0294405,10.5868,5,0.0013383,10,0.00031168,-1.97524,0.36624,0.161096,66.5832,0.0294405,
2,1,0,1,0,9071.2,0.0317701,0.0314568,10.7241,5,0.0014449,10,0.000337345,-1.96964,0.339009,0.174037,72.8892,0.0314568,
2,1,0,1,0,9071.21,0.0337586,0.0334282,10.8774,5,0.00155183,10,0.000363613,-1.96347,0.342782,0.172121,73.009,0.0334282,
2,1,0,1,0,9071.22,0.0357562,0.0354371,11.0147,5,0.00166122,10,0.000390329,-1.95803,0.395536,0.149165,64.0645,0.0354371,
2,1,0,1,0,9071.23,0.0377538,0.0374238,11.1334,5,0.001772,10,0.000416655,-1.95337,0.372241,0.158499,68.9731,0.0374238,
2,1,0,1,0,9071.24,0.0397514,0.0393866,11.2871,5,0.00188411,10,0.000444561,-1.94742,0.335988,0.175602,77.3645,0.0393866,
2,1,0,1,0,9071.25,0.0417399,0.0414603,11.4457,5,0.00199665,10,0.000474542,-1.94136,0.357646,0.164968,73.6311,0.0414603,
2,1,0,1,0,9071.26,0.0437375,0.0434671,11.5875,5,0.00211183,10,0.000503677,-1.93601,0.374699,0.15746,71.1946,0.0434671,
2,1,0,1,0,9071.27,0.0457351,0.0454027,11.7264,5,0.00222841,10,0.000532409,-1.93084,0.358445,0.1646,75.4001,0.0454027,
2,1,0,1,0,9071.28,0.0477327,0.0474641,11.8889,5,0.00234646,10,0.000564297,-1.92486,0.340876,0.173083,80.3,0.0474641,
2,1,0,1,0,9071.29,0.0497393,0.0494379,12.0504,5,0.00246612,10,0.000595747,-1.919,0.355872,0.16579,77.9237,0.0494379,
2,1,0,1,0,9071.3,0.0517369,0.0514447,12.1991,5,0.00258732,10,0.000627579,-1.91367,0.359073,0.164312,78.2617,0.0514447,
2,1,0,1,0,9071.31,0.0537345,0.0533899,12.3597,5,0.00271016,10,0.000659882,-1.90799,0.341129,0.172955,83.4518,0.0533899,
2,1,0,1,0,9071.32,0.0557321,0.0554001,12.5292,5,0.00283463,10,0.000694119,-1.90208,0.365378,0.161477,78.8802,0.0554001,
2,1,0,1,0,9071.33,0.0577297,0.0573913,12.6753,5,0.0029607,10,0.000727453,-1.89704,0.357624,0.164978,81.7162,0.0573913,
2,1,0,1,0,9071.34,0.0597364,0.0593937,12.8555,5,0.00308842,10,0.000763538,-1.89091,0.348653,0.169223,84.8311,0.0593937,
2,1,0,1,0,9071.35,0.0617339,0.0614083,13.0161,5,0.0032178,10,0.000799295,-1.88552,0.388758,0.151766,77.0599,0.06140827,
2,1,0,1,0,9071.36,0.0637315,0.0634298,13.1666,5,0.0033487,10,0.000835152,-1.88053,0.406367,0.145189,74.5966,0.06342978,
2,1,0,1,0,9071.37,0.0657291,0.0654166,13.3151,5,0.00348117,10,0.000871028,-1.87566,0.369939,0.159486,82.973,0.0654166,
2,1,0,1,0,9071.38,0.0677176,0.0674013,13.4961,5,0.00361394,10,0.000909653,-1.86979,0.362201,0.162893,85.7275,0.0674013,
2,1,0,1,0,9071.39,0.0697152,0.0693999,13.6566,5,0.00374979,10,0.000947764,-1.86466,0.380107,0.15522,82.7503,0.0693999,
2,1,0,1,0,9071.4,0.0717128,0.0713857,13.8258,5,0.0038872,10,0.000986964,-1.85931,0.38326,0.153943,83.0446,0.0713857,
2,1,0,1,0,9071.41,0.0737104,0.0734138,13.9899,5,0.00402634,10,0.00102705,-1.85419,0.386748,0.152554,83.2962,0.0734138,
2,1,0,1,0,9071.42,0.0756989,0.0753594,14.1568,5,0.00416571,10,0.00106685,-1.84904,0.416776,0.141563,78.1473,0.0753594,
2,1,0,1,0,9071.43,0.0776965,0.0773956,14.3011,5,0.00430806,10,0.00110684,-1.84463,0.427969,0.13786,76.9933,0.0773956,
2,1,0,1,0,9071.44,0.0796941,0.0793625,14.465,5,0.00445188,10,0.00114798,-1.83968,0.421341,0.140029,79.0122,0.0793625,
2,1,0,1,0,9071.45,0.0816917,0.0813858,14.6163,5,0.00459731,10,0.00118956,-1.83516,0.442874,0.133221,75.9963,0.0813858,
2,1,0,1,0,9071.46,0.0836983,0.0833752,14.7699,5,0.00474423,10,0.00123145,-1.83062,0.459093,0.128514,74.0501,0.0833752,
2,1,0,1,0,9071.47,0.0856959,0.0853932,14.9131,5,0.00489273,10,0.00127348,-1.82643,0.4612,0.127927,74.4824,0.0853932,
2,1,0,1,0,9071.48,0.0876935,0.0873792,15.0682,5,0.00504266,10,0.00131664,-1.82194,0.485395,0.12155,71.4141,0.0873792,
2,1,0,1,0,9071.49,0.0896911,0.0893634,15.1966,5,0.00519404,10,0.00135802,-1.81825,0.477916,0.123453,73.3036,0.0893634,
2,1,0,1,0,9071.5,0.0916978,0.0913884,15.3621,5,0.00534678,10,0.00140391,-1.81355,0.479158,0.123133,73.7383,0.0913884,
2,1,0,1,0,9071.51,0.0936953,0.0933899,15.4935,5,0.00550116,10,0.00144694,-1.80985,0.50857,0.116012,70.1776,0.0933899,
2,1,0,1,0,9071.52,0.0956929,0.0953325,15.6389,5,0.00565683,10,0.00149089,-1.8058,0.511567,0.115332,70.3631,0.0953325,
2,1,0,1,0,9071.53,0.0976905,0.0973549,15.7725,5,0.00581397,10,0.00153553,-1.8021,0.473301,0.124656,76.8325,0.0973549,
2,1,0,1,0,9071.54,0.099679,0.0993606,15.9483,5,0.00597094,10,0.00158464,-1.79728,0.466365,0.12651,78.6511,0.0993606,
2,1,0,1,0,9071.55,0.101677,0.101372,16.0885,5,0.0061312,10,0.00163092,-1.79349,0.469,0.125799,79.0781,0.101372,
2,1,0,1,0,9071.56,0.103674,0.103386,16.2666,5,0.00629293,10,0.00168174,-1.7887,0.421664,0.139922,88.8211,0.103386,
2,1,0,1,0,9071.57,0.105672,0.105372,16.4438,5,0.0064565,10,0.00173272,-1.784,0.404119,0.145997,93.7371,0.105372,
2,1,0,1,0,9071.58,0.107656,0.107344,16.6377,5,0.00662021,10,0.00178597,-1.77891,0.388144,0.152006,98.7165,0.1073445,
2,1,0,1,0,9071.59,0.109658,0.109374,16.8388,5,0.00678767,10,0.00184172,-1.77369,0.359473,0.164129,107.953,0.109374,
2,1,0,1,0,9071.6,0.111655,0.111355,17.0707,5,0.00695718,10,0.00190092,-1.76775,0.331271,0.178102,118.647,0.111355,
2,1,0,1,0,9071.61,0.113653,0.113282,17.3025,5,0.00712906,10,0.00196007,-1.76189,0.332878,0.177242,119.71,0.113282,
2,1,0,1,0,9071.62,0.115651,0.115306,17.5436,5,0.00730325,10,0.00202288,-1.75588,0.318498,0.185245,126.94,0.115306,
2,1,0,1,0,9071.63,0.117657,0.117335,17.817,5,0.00748017,10,0.00209055,-1.74917,0.295659,0.199554,138.776,0.117335,
2,1,0,1,0,9071.64,0.119655,0.119299,18.0978,5,0.00765975,10,0.00215905,-1.74237,0.307553,0.191837,135.415,0.119299,
2,1,0,1,0,9071.65,0.121652,0.121346,18.3601,5,0.0078421,10,0.00222792,-1.73612,0.313288,0.188325,135.008,0.121346,
2,1,0,1,0,9071.66,0.12365,0.123337,18.6429,5,0.00802715,10,0.00229937,-1.72949,0.298959,0.197352,143.616,0.123337,
2,1,0,1,0,9071.67,0.125657,0.125356,18.936,5,0.0082152,10,0.00237374,-1.72271,0.309338,0.19073,140.869,0.125356,
2,1,0,1,0,9071.68,0.127654,0.12736,19.2097,5,0.00840598,10,0.00244655,-1.71648,0.319287,0.184787,138.532,0.12736,
2,1,0,1,0,9071.69,0.129652,0.129324,19.4857,5,0.00859955,10,0.00251995,-1.71028,0.32786,0.179955,136.81,0.129324,
2,1,0,1,0,9071.7,0.131649,0.131331,19.753,5,0.00879579,10,0.00259418,-1.70437,0.350182,0.168484,129.843,0.131331,
2,1,0,1,0,9071.71,0.133638,0.133363,20.0102,5,0.00899279,10,0.00266862,-1.69875,0.351336,0.16793,131.142,0.133363,
2,1,0,1,0,9071.72,0.135636,0.135269,20.2694,5,0.00919415,10,0.00274183,-1.69316,0.379029,0.155661,123.034,0.135269,
2,1,0,1,0,9071.73,0.137633,0.137321,20.4972,5,0.00939802,10,0.0028147,-1.68831,0.426369,0.138378,110.68,0.137321,
2,1,0,1,0,9071.74,0.139631,0.139352,20.7213,5,0.00960412,10,0.00288757,-1.68358,0.435379,0.135514,109.558,0.139352,
2,1,0,1,0,9071.75,0.141619,0.141321,20.9353,5,0.00981034,10,0.0029586,-1.67912,0.446978,0.131998,107.844,0.141321,
2,1,0,1,0,9071.76,0.143617,0.143324,21.1497,5,0.0100207,10,0.00303125,-1.6747,0.495113,0.119165,98.2755,0.143324,
2,1,0,1,0,9071.77,0.145614,0.145329,21.3293,5,0.0102332,10,0.00309976,-1.67102,0.552996,0.106692,88.7953,0.145329,
2,1,0,1,0,9071.78,0.147612,0.147293,21.502,5,0.0104473,10,0.00316709,-1.66752,0.562742,0.104844,87.9849,0.147293,
2,1,0,1,0,9071.79,0.149619,0.149292,21.678,5,0.0106633,10,0.00323635,-1.66398,0.662771,0.0890203,75.2251,0.149292,
2,1,0,1,0,9071.8,0.151616,0.151305,21.8039,5,0.0108806,10,0.00329904,-1.66147,0.957157,0.0616409,52.4023,0.1513052,
2,1,0,1,0,9071.81,0.153614,0.153309,21.8884,5,0.0110992,10,0.00335568,-1.65979,1.38408,0.0426275,36.3938,0.153309,
2,1,0,1,0,9071.82,0.155611,0.155291,21.9489,5,0.0113184,10,0.00340847,-1.65859,2.56535,0.0229988,19.6817,0.155291,
2,1,0,1,0,9071.83,0.157618,0.157309,21.9672,5,0.011538,10,0.00345563,-1.65823,-3.35134,-0.0176049,-15.0594,0.157309,
2,1,0,1,0,9071.84,0.159616,0.159334,21.8881,5,0.0117573,10,0.00348751,-1.65979,-0.852042,-0.0692454,-59.0402,0.159334,
2,1,0,1,0,9071.85,0.161613,0.161369,21.7274,5,0.0119755,10,0.00350614,-1.66299,-0.492656,-0.119759,-101.365,0.161369,
2,1,0,1,0,9071.86,0.163611,0.163274,21.4887,5,0.0121915,10,0.00350854,-1.66779,-0.322926,-0.182704,-152.772,0.163274,
2,1,0,1,0,9071.87,0.165618,0.165303,21.1265,5,0.0124047,10,0.00349227,-1.67517,-0.238913,-0.246952,-203.136,0.165303,
2,1,0,1,0,9071.88,0.167597,0.1673,20.6708,5,0.0126116,10,0.00345823,-1.68464,-0.182644,-0.323032,-259.819,0.1673,
2,1,0,1,0,9071.89,0.169595,0.169252,20.1005,5,0.0128155,10,0.00340205,-1.69679,-0.147767,-0.399277,-312.34,0.169252,
2,1,0,1,0,9071.9,0.171592,0.171271,19.4305,5,0.0130131,10,0.00332788,-1.71152,-0.126301,-0.467138,-353.352,0.171271,
2,1,0,1,0,9071.91,0.173572,0.173269,18.6809,5,0.0132017,10,0.00323683,-1.7286,-0.110833,-0.532333,-387.429,0.1732695,
2,1,0,1,0,9071.92,0.175578,0.175253,17.8879,5,0.0133845,10,0.00313491,-1.74744,-0.101068,-0.583763,-406.817,0.175253,
2,1,0,1,0,9071.93,0.177576,0.177261,17.0569,5,0.0135591,10,0.00302353,-1.7681,-0.0947813,-0.622486,-414.053,0.177261,
2,1,0,1,0,9071.94,0.179573,0.179265,16.2264,5,0.0137254,10,0.00290884,-1.78978,-0.0925342,-0.637602,-403.932,0.1792655,
2,1,0,1,0,9071.95,0.181571,0.181275,15.4357,5,0.0138836,10,0.00279811,-1.81147,-0.0949793,-0.621188,-374.687,0.181275,
2,1,0,1,0,9071.96,0.183578,0.183315,14.7093,5,0.0140342,10,0.00269643,-1.83241,-0.0955057,-0.617764,-354.759,0.183315,
2,1,0,1,0,9071.97,0.185575,0.185276,14.0162,5,0.0141777,10,0.00259687,-1.85337,-0.097182,-0.607108,-332.747,0.1852763,
2,1,0,1,0,9071.98,0.187573,0.187254,13.3986,5,0.0143146,10,0.00250894,-1.87294,-0.106636,-0.553282,-290.016,0.187254,
2,1,0,1,0,9071.99,0.18957,0.189254,12.8625,5,0.0144459,10,0.00243429,-1.89067,-0.118117,-0.499505,-251.221,0.189254,
2,1,0,1,0,9072,0.191577,0.191274,12.3886,5,0.014572,10,0.00236962,-1.90698,-0.126756,-0.465461,-225.408,0.191274,
2,1,0,1,0,9072.01,0.193575,0.193234,11.9655,5,0.0146937,10,0.00231213,-1.92207,-0.140731,-0.41924,-196.184,0.193234,
2,1,0,1,0,9072.02,0.195572,0.195288,11.601,5,0.0148115,10,0.00226555,-1.9355,-0.153259,-0.384969,-174.45,0.195288,
2,1,0,1,0,9072.03,0.19757,0.197254,11.2642,5,0.0149258,10,0.00222191,-1.9483,-0.169648,-0.347779,-153.319,0.197254,
2,1,0,1,0,9072.04,0.199558,0.199231,10.9966,5,0.0150359,10,0.00219086,-1.95874,-0.197978,-0.298012,-128.013,0.199231,
2,1,0,1,0,9072.05,0.201556,0.201247,10.753,5,0.0151447,10,0.00216401,-1.96847,-0.207411,-0.28446,-119.416,0.2012471,
2,1,0,1,0,9072.06,0.203554,0.203219,10.5204,5,0.0152509,10,0.00213794,-1.97797,-0.229925,-0.256605,-105.535,0.203219,
2,1,0,1,0,9072.07,0.205551,0.20529,10.3263,5,0.0153551,10,0.00211989,-1.98605,-0.272291,-0.21668,-87.4726,0.20529,
2,1,0,1,0,9072.08,0.20754,0.207228,10.1696,5,0.0154564,10,0.00210744,-1.99269,-0.283765,-0.207919,-82.455,0.207228,
2,1,0,1,0,9072.09,0.209537,0.209266,9.99854,5,0.0155572,10,0.00209235,-2.00006,-0.272308,-0.216666,-84.568,0.209266,
2,1,0,1,0,9072.1,0.211535,0.21119,9.83461,5,0.0156563,10,0.00207697,-2.00724,-0.296465,-0.199012,-76.4725,0.21119,
2,1,0,1,0,9072.11,0.213532,0.213232,9.69519,5,0.015754,10,0.00206733,-2.01344,-0.358421,-0.164611,-62.3714,0.213232,
2,1,0,1,0,9072.12,0.215539,0.215209,9.58396,5,0.0158503,10,0.00206255,-2.01846,-0.371451,-0.158836,-59.3613,0.215209,
2,1,0,1,0,9072.13,0.217537,0.217228,9.45803,5,0.0159455,10,0.00205454,-2.0242,-0.373017,-0.15817,-58.4304,0.217228,
2,1,0,1,0,9072.14,0.219534,0.21924,9.34838,5,0.0160395,10,0.00204954,-2.02926,-0.416653,-0.141605,-51.6929,0.21924,
2,1,0,1,0,9072.15,0.221532,0.221244,9.25042,5,0.0161325,10,0.0020466,-2.03384,-0.435451,-0.135492,-48.911,0.221244,
2,1,0,1,0,9072.16,0.223534,0.223259,9.15182,5,0.0162245,10,0.00204323,-2.03849,-0.451812,-0.130585,-46.6677,0.2232592,
2,1,0,1,0,9072.17,0.225536,0.225229,9.06445,5,0.0163156,10,0.00204157,-2.04266,-0.491286,-0.120093,-42.4973,0.225229,
2,1,0,1,0,9072.18,0.227534,0.227223,8.98336,5,0.0164058,10,0.00204123,-2.04656,-0.470942,-0.125281,-43.8924,0.227223,
2,1,0,1,0,9072.19,0.229531,0.229192,8.8905,5,0.0164952,10,0.00203763,-2.05107,-0.502309,-0.117458,-40.8036,0.229192,
2,1,0,1,0,9072.2,0.231529,0.231232,8.81977,5,0.0165838,10,0.00203942,-2.05454,-0.635724,-0.0928076,-31.9668,0.231232,
2,1,0,1,0,9072.21,0.233517,0.233232,8.76135,5,0.0166709,10,0.00204343,-2.05743,-0.61625,-0.0957404,-32.7121,0.233232,
2,1,0,1,0,9072.22,0.235515,0.235191,8.69026,5,0.0167582,10,0.00204388,-2.06097,-0.575266,-0.102561,-34.7923,0.235191,
2,1,0,1,0,9072.23,0.237512,0.237189,8.62366,5,0.0168448,10,0.00204544,-2.06431,-0.641585,-0.0919597,-30.9657,0.237189,
2,1,0,1,0,9072.24,0.23951,0.23919,8.56643,5,0.0169307,10,0.00204901,-2.0672,-0.756913,-0.0779482,-26.0747,0.2391903,
2,1,0,1,0,9072.25,0.241499,0.241193,8.51926,5,0.0170153,10,0.00205479,-2.0696,-0.686826,-0.0859024,-28.5277,0.241193,
2,1,0,1,0,9072.26,0.243496,0.243182,8.45256,5,0.0171001,10,0.00205551,-2.07301,-0.71074,-0.0830121,-27.4192,0.243182,
2,1,0,1,0,9072.27,0.245494,0.245251,8.40799,5,0.0171844,10,0.00206207,-2.07531,-0.809958,-0.0728433,-23.894,0.245251,
2,1,0,1,0,9072.28,0.247491,0.247159,8.35753,5,0.0172682,10,0.00206564,-2.07792,-0.755128,-0.0781325,-25.4846,0.247159,
2,1,0,1,0,9072.29,0.249498,0.249196,8.30746,5,0.0173516,10,0.00207019,-2.08053,-0.801612,-0.0736016,-23.867,0.249196,
2,1,0,1,0,9072.3,0.251496,0.251221,8.26058,5,0.0174344,10,0.00207523,-2.08299,-0.827139,-0.0713302,-22.9982,0.251221,
2,1,0,1,0,9072.31,0.253493,0.253188,8.21565,5,0.0175169,10,0.00208011,-2.08536,-0.796273,-0.0740952,-23.7503,0.253188,
2,1,0,1,0,9072.32,0.255491,0.255197,8.16614,5,0.0175988,10,0.00208398,-2.08798,-1.07649,-0.0548079,-17.498,0.255197,
2,1,0,1,0,9072.33,0.257497,0.257195,8.14554,5,0.0176804,10,0.00209499,-2.08908,-1.13289,-0.0520791,-16.5306,0.2571947,
2,1,0,1,0,9072.34,0.259495,0.259178,8.10034,5,0.0177616,10,0.00209943,-2.0915,-0.85227,-0.0692269,-21.8884,0.259178,
2,1,0,1,0,9072.35,0.261493,0.261196,8.05796,5,0.0178425,10,0.00210471,-2.09377,-0.926218,-0.0636999,-20.038,0.261196,
2,1,0,1,0,9072.36,0.26349,0.263167,8.02041,5,0.0179228,10,0.00211071,-2.0958,-1.44692,-0.0407763,-12.7826,0.263167,
2,1,0,1,0,9072.37,0.265479,0.265189,8.00692,5,0.0180021,10,0.00212335,-2.09653,-1.25108,-0.0471594,-14.7072,0.265189,
2,1,0,1,0,9072.38,0.267476,0.267172,7.96151,5,0.0180819,10,0.00212709,-2.099,-0.861711,-0.0684684,-21.282,0.2671715,
2,1,0,1,0,9072.39,0.269474,0.269169,7.92223,5,0.0181613,10,0.00213241,-2.10115,-1.12485,-0.0524515,-16.2312,0.269169,
2,1,0,1,0,9072.4,0.271471,0.271149,7.89696,5,0.0182404,10,0.00214125,-2.10254,-1.81878,-0.0324393,-10.0042,0.271149,
2,1,0,1,0,9072.41,0.27346,0.273164,7.88226,5,0.0183184,10,0.00215315,-2.10335,-1.12829,-0.0522915,-16.0505,0.273164,
2,1,0,1,0,9072.42,0.275458,0.275137,7.83295,5,0.0183969,10,0.00215513,-2.10607,-0.869794,-0.0678322,-20.7567,0.275137,
2,1,0,1,0,9072.43,0.277455,0.277152,7.79947,5,0.0184751,10,0.00216164,-2.10793,-1.06168,-0.0555724,-16.915,0.277152,
2,1,0,1,0,9072.44,0.279453,0.279123,7.76552,5,0.018553,10,0.00216754,-2.10983,-1.26758,-0.0465455,-14.1169,0.2791234,
2,1,0,1,0,9072.45,0.281455,0.281124,7.7434,5,0.0186305,10,0.00217686,-2.11107,-1.4296,-0.0412701,-12.467,0.281124,
2,1,0,1,0,9072.46,0.283457,0.283153,7.71528,5,0.0187078,10,0.0021846,-2.11265,-1.39445,-0.0423107,-12.7438,0.283153,
2,1,0,1,0,9072.47,0.285455,0.285165,7.69191,5,0.0187849,10,0.00219346,-2.11397,-1.06025,-0.055647,-16.6828,0.285165,
2,1,0,1,0,9072.48,0.287452,0.287158,7.64846,5,0.0188616,10,0.00219632,-2.11643,-1.14226,-0.0516519,-15.4429,0.287158,
2,1,0,1,0,9072.49,0.28945,0.289175,7.62997,5,0.018938,10,0.0022064,-2.11748,-1.62499,-0.0363079,-10.8072,0.289175,
2,1,0,1,0,9072.5,0.291456,0.291139,7.60544,5,0.0190142,10,0.00221424,-2.11888,-1.2336,-0.0478276,-14.1891,0.291139,
2,1,0,1,0,9072.51,0.293454,0.293152,7.57355,5,0.0190901,10,0.0022202,-2.1207,-1.09262,-0.0539985,-15.9599,0.293152,
2,1,0,1,0,9072.52,0.295452,0.295158,7.54129,5,0.0191657,10,0.00222587,-2.12255,-1.53556,-0.0384225,-11.3228,0.295158,
2,1,0,1,0,9072.53,0.297449,0.297132,7.52848,5,0.019241,10,0.00223695,-2.12329,-1.78987,-0.0329633,-9.6767,0.297132,
2,1,0,1,0,9072.54,0.299438,0.299144,7.50272,5,0.0193154,10,0.00224439,-2.12478,-0.0509493,-1.15802,-322.762,0.299144,
2,1,0,1,0,9072.54,0.299746,0.299487,6.76848,5,0.0193468,10,0.00202707,-2.16951,0.00436842,13.506,2655.91,0.299487,
2,1,0,1,0,9072.55,0.29774,0.297518,3.18419,5,0.0193942,10,0.000947353,-2.497,0.00526259,11.2112,1389.42,0.297518,
2,1,0,1,0,9072.56,0.295742,0.295447,1.15581,5,0.0194148,10,0.000341483,-2.93711,0.00303781,19.4219,805.68,0.295447,
2,0,0,1,0,9072.57,0.293745,0.293392,-0.139623,5,0.0194193,10,-4.09643e-05,-3.85504,0.0584861,1.00879,534.859,0.293392,
2,0,0,1,0,9072.58,0.291747,0.291441,-0.98715,5,0.0194133,10,-0.000287696,-3.00562,-0.00374172,-15.7681,370.958,0.291441,
2,0,0,1,0,9072.59,0.289745,0.289413,-1.61562,5,0.0194001,10,-0.000467582,-2.79166,-0.0126562,-4.66176,264.922,0.289413,
2,0,0,1,0,9072.6,0.287743,0.287412,-2.05434,5,0.0193815,10,-0.000590443,-2.68733,-0.0230233,-2.56262,198.169,0.287412,
2,0,0,1,0,9072.61,0.285745,0.285461,-2.39877,5,0.0193592,10,-0.000684755,-2.62001,-0.0358034,-1.64789,150.618,0.285461,
2,0,0,1,0,9072.62,0.283748,0.283422,-2.65532,5,0.0193338,10,-0.000752576,-2.57588,-0.049971,-1.18068,121.54,0.283422,
2,0,0,1,0,9072.63,0.28175,0.281403,-2.89195,5,0.019306,10,-0.000813805,-2.53881,-0.0642303,-0.918569,102.3,0.281403,
2,0,0,1,0,9072.64,0.279761,0.279451,-3.06159,5,0.0192764,10,-0.000855565,-2.51405,-0.0805627,-0.732349,87.5592,0.279451,
2,0,0,1,0,9072.65,0.277764,0.277409,-3.24174,5,0.0192449,10,-0.000899286,-2.48922,-0.0962107,-0.613237,76.8774,0.277409,
2,0,0,1,0,9072.66,0.275766,0.275469,-3.36772,5,0.0192118,10,-0.000927703,-2.47266,-0.120342,-0.490267,64.4397,0.275469,
2,0,0,1,0,9072.67,0.273769,0.273443,-3.49726,5,0.0191775,10,-0.000956303,-2.45627,-0.133275,-0.442695,60.2456,0.273443,
2,0,0,1,0,9072.68,0.27178,0.271462,-3.60915,5,0.0191422,10,-0.000979745,-2.4426,-0.135369,-0.435845,61.5235,0.271462,
2,0,0,1,0,9072.69,0.269783,0.269508,-3.73939,5,0.0191055,10,-0.00100779,-2.4272,-0.159816,-0.369174,53.532,0.269508,
2,0,0,1,0,9072.7,0.267785,0.267449,-3.82395,5,0.0190676,10,-0.00102271,-2.41749,-0.189674,-0.311061,46.5197,0.267449,
2,0,0,1,0,9072.71,0.265787,0.265492,-3.92618,5,0.0190289,10,-0.00104237,-2.40603,-0.193889,-0.304298,46.4989,0.265492,
2,0,0,1,0,9072.72,0.263781,0.263483,-4.00836,5,0.0189892,10,-0.00105613,-2.39703,-0.212011,-0.278287,43.5873,0.263483,
2,0,0,1,0,9072.73,0.261783,0.261465,-4.10173,5,0.0189486,10,-0.00107246,-2.38703,-0.230392,-0.256085,40.8761,0.261465,
2,0,0,1,0,9072.74,0.259786,0.259463,-4.1727,5,0.0189072,10,-0.00108266,-2.37958,-0.235585,-0.250441,40.8695,0.259463,
2,0,0,1,0,9072.75,0.257788,0.257537,-4.26228,5,0.0188651,10,-0.00109769,-2.37036,-0.244633,-0.241177,40.0104,0.257537,
2,0,0,1,0,9072.76,0.255781,0.255533,-4.32992,5,0.018822,10,-0.00110644,-2.36352,-0.284948,-0.207056,35.0098,0.255533,
2,0,0,1,0,9072.77,0.253784,0.253503,-4.40349,5,0.0187784,10,-0.0011163,-2.3562,-0.307611,-0.191801,32.9104,0.253503,
2,0,0,1,0,9072.78,0.251786,0.251459,-4.464,5,0.018734,10,-0.00112251,-2.35028,-0.283305,-0.208256,36.3794,0.251459,
2,0,0,1,0,9072.79,0.249789,0.249493,-4.54938,5,0.0186889,10,-0.00113504,-2.34205,-0.286278,-0.206093,36.4862,0.249493,
2,0,0,1,0,9072.8,0.2478,0.247475,-4.60936,5,0.0186436,10,-0.0011407,-2.33636,-0.348437,-0.169328,30.4625,0.247475,
2,0,0,1,0,9072.81,0.245802,0.245515,-4.67057,5,0.0185972,10,-0.00114669,-2.33063,-0.344813,-0.171107,31.1958,0.245515,
2,0,0,1,0,9072.82,0.243805,0.243468,-4.73436,5,0.0185502,10,-0.00115267,-2.32474,-0.370906,-0.15907,29.359,0.243468,
2,0,0,1,0,9072.83,0.241807,0.241502,-4.78837,5,0.0185025,10,-0.0011564,-2.31981,-0.359504,-0.164115,30.7103,0.241502,
2,0,0,1,0,9072.84,0.239819,0.239514,-4.8558,5,0.0184548,10,-0.00116303,-2.31374,-0.34381,-0.171607,32.4983,0.239514,
2,0,0,1,0,9072.85,0.237821,0.237539,-4.91716,5,0.018406,10,-0.00116802,-2.30829,-0.422749,-0.139563,26.7391,0.237539,
2,0,0,1,0,9072.86,0.235824,0.235502,-4.96307,5,0.0183565,10,-0.00116881,-2.30425,-0.446674,-0.132087,25.6127,0.235502,
2,0,0,1,0,9072.87,0.233826,0.233512,-5.02032,5,0.0183067,10,-0.0011723,-2.29927,-0.396184,-0.148921,29.1804,0.233512,
2,0,0,1,0,9072.88,0.231824,0.23153,-5.07897,5,0.0182562,10,-0.00117594,-2.29422,-0.387683,-0.152186,30.1735,0.23153,
2,0,0,1,0,9072.89,0.229822,0.229522,-5.14068,5,0.0182051,10,-0.0011799,-2.28898,-0.472958,-0.124747,24.97,0.229522,
2,0,0,1,0,9072.9,0.227824,0.227517,-5.17919,5,0.0181534,10,-0.00117835,-2.28574,-0.461117,-0.12795,25.9311,0.2275165,
2,0,0,1,0,9072.91,0.225827,0.225476,-5.24562,5,0.0181013,10,-0.00118276,-2.2802,-0.44497,-0.132593,27.0754,0.225476,
2,0,0,1,0,9072.92,0.223829,0.223583,-5.2857,5,0.0180486,10,-0.00118179,-2.2769,-0.436017,-0.135316,27.9908,0.223583,
2,0,0,1,0,9072.93,0.221822,0.221553,-5.35543,5,0.0179954,10,-0.00118651,-2.27121,-0.463977,-0.127162,26.4978,0.2215526,
2,0,0,1,0,9072.94,0.219825,0.219518,-5.39341,5,0.0179416,10,-0.00118395,-2.26814,-0.470698,-0.125346,26.4602,0.219518,
2,0,0,1,0,9072.95,0.217827,0.217487,-5.46301,5,0.0178873,10,-0.00118813,-2.26257,-0.505232,-0.116778,24.8044,0.217487,
2,0,0,1,0,9072.96,0.21583,0.215542,-5.49203,5,0.0178325,10,-0.00118376,-2.26027,-0.455757,-0.129455,27.8763,0.215542,
2,0,0,1,0,9072.97,0.213841,0.213554,-5.57263,5,0.0177777,10,-0.00119006,-2.25394,-0.423566,-0.139294,30.1825,0.213554,
2,0,0,1,0,9072.98,0.211844,0.211545,-5.61268,5,0.0177218,10,-0.00118733,-2.25083,-0.538109,-0.109643,24.0516,0.211545,
2,0,0,1,0,9072.99,0.209846,0.209537,-5.66927,5,0.0176654,10,-0.00118792,-2.24647,-0.479982,-0.122921,27.1861,0.209537,
2,0,0,1,0,9073,0.207848,0.207532,-5.72176,5,0.0176084,10,-0.00118745,-2.24247,-0.397822,-0.148308,33.1972,0.207532,
2,0,0,1,0,9073.01,0.20586,0.205529,-5.80232,5,0.0175514,10,-0.00119254,-2.2364,-0.465997,-0.12661,28.5532,0.2055288,
2,0,0,1,0,9073.02,0.203862,0.203539,-5.83579,5,0.0174932,10,-0.00118781,-2.2339,-0.577298,-0.1022,23.3284,0.203539,
2,0,0,1,0,9073.03,0.201865,0.201531,-5.89558,5,0.0174346,10,-0.00118814,-2.22947,-0.491958,-0.119929,27.5697,0.201531,
2,0,0,1,0,9073.04,0.199867,0.199566,-5.94532,5,0.0173753,10,-0.00118648,-2.22582,-0.432852,-0.136305,31.6995,0.199566,
2,0,0,1,0,9073.05,0.19786,0.197513,-6.02295,5,0.0173155,10,-0.00118961,-2.22019,-0.47022,-0.125473,29.3996,0.197513,
2,0,0,1,0,9073.06,0.195863,0.195575,-6.06266,5,0.0172551,10,-0.0011857,-2.21734,-0.481912,-0.122429,29.051,0.195575,
2,0,0,1,0,9073.07,0.193865,0.193564,-6.13768,5,0.0171941,10,-0.00118803,-2.212,-0.450706,-0.130906,31.2919,0.193564,
2,0,0,1,0,9073.08,0.191868,0.191573,-6.18787,5,0.0171323,10,-0.00118543,-2.20846,-0.39359,-0.149902,36.3291,0.191573,
2,0,0,1,0,9073.09,0.189861,0.189574,-6.28264,5,0.01707,10,-0.00119102,-2.20186,-0.410988,-0.143557,35.0609,0.189574,
2,0,0,1,0,9073.1,0.187863,0.187557,-6.32868,5,0.017007,10,-0.00118699,-2.19869,-0.450927,-0.130841,32.413,0.187557,
2,0,0,1,0,9073.11,0.185866,0.185551,-6.41301,5,0.0169433,10,-0.00118994,-2.19294,-0.422689,-0.139583,34.8502,0.185551,
2,0,0,1,0,9073.12,0.183868,0.183593,-6.46683,5,0.0168788,10,-0.00118726,-2.18931,-0.363671,-0.162235,41.1146,0.183593,
2,0,0,1,0,9073.13,0.18188,0.181612,-6.57498,5,0.0168143,10,-0.00119409,-2.18211,-0.33586,-0.175668,44.9566,0.181612,
2,0,0,1,0,9073.14,0.179882,0.179542,-6.64893,5,0.0167482,10,-0.00119377,-2.17725,-0.385449,-0.153068,39.7513,0.179542,
2,0,0,1,0,9073.15,0.177885,0.177605,-6.73425,5,0.0166813,10,-0.00119604,-2.17171,-0.35359,-0.16686,43.8639,0.177605,
2,0,0,1,0,9073.16,0.175887,0.175563,-6.8235,5,0.0166134,10,-0.00119795,-2.16599,-0.32085,-0.183887,49.0265,0.175563,
2,0,0,1,0,9073.17,0.173908,0.173618,-6.92971,5,0.0165454,10,-0.00120312,-2.15928,-0.296434,-0.199033,53.8225,0.173618,
2,0,0,1,0,9073.18,0.171901,0.171619,-7.03574,5,0.0164755,10,-0.00120747,-2.15269,-0.29448,-0.200353,55.0494,0.171619,
2,0,0,1,0,9073.19,0.169903,0.169578,-7.15214,5,0.0164046,10,-0.00121284,-2.14556,-0.281202,-0.209813,58.579,0.169578,
2,0,0,1,0,9073.2,0.167906,0.167562,-7.27344,5,0.0163325,10,-0.00121875,-2.13826,-0.256272,-0.230224,65.4287,0.1675615,
2,0,0,1,0,9073.21,0.165908,0.165583,-7.41354,5,0.0162591,10,-0.00122755,-2.12997,-0.246317,-0.239529,69.2809,0.165583,
2,0,0,1,0,9073.22,0.163901,0.163558,-7.55078,5,0.0161842,10,-0.00123499,-2.12201,-0.226019,-0.26104,77.0749,0.163558,
2,0,0,1,0,9073.23,0.161904,0.161611,-7.71968,5,0.0161078,10,-0.00124758,-2.1124,-0.210176,-0.280717,84.5452,0.161611,
2,0,0,1,0,9073.24,0.159906,0.159594,-7.88593,5,0.0160297,10,-0.00125855,-2.10315,-0.206863,-0.285213,87.8661,0.1595943,
2,0,0,1,0,9073.25,0.157909,0.157617,-8.07058,5,0.0159499,10,-0.00127206,-2.0931,-0.183214,-0.322028,101.636,0.157617,
2,0,0,1,0,9073.26,0.155902,0.155602,-8.29164,5,0.015868,10,-0.0012902,-2.08136,-0.165584,-0.356314,115.427,0.155602,
2,0,0,1,0,9073.27,0.153904,0.153593,-8.53506,5,0.0157839,10,-0.00131093,-2.06879,-0.165584,-0.356315,118.566,0.153593,
2,0,0,1,0,9073.28,0.151907,0.151606,-8.76546,5,0.0156974,10,-0.0013289,-2.05723,-0.15423,-0.382545,131.276,0.151606,
2,0,0,1,0,9073.29,0.149909,0.149624,-9.05613,5,0.0156082,10,-0.00135501,-2.04306,-0.137136,-0.430231,152.193,0.149624,
2,0,0,1,0,9073.3,0.147921,0.147636,-9.36965,5,0.015517,10,-0.0013833,-2.02828,-0.133905,-0.440611,161.238,0.147636,
2,0,0,1,0,9073.31,0.145923,0.145601,-9.70472,5,0.0154216,10,-0.00141302,-2.01302,-0.126978,-0.464647,176.253,0.145601,
2,0,0,1,0,9073.32,0.143926,0.143616,-10.0782,5,0.0153226,10,-0.0014474,-1.99662,-0.115788,-0.509552,200.782,0.143616,
2,0,0,1,0,9073.33,0.141928,0.141646,-10.4988,5,0.0152198,10,-0.00148712,-1.97886,-0.110178,-0.535498,219.629,0.141646,
2,0,0,1,0,9073.34,0.139939,0.139637,-10.9522,5,0.0151135,10,-0.00152933,-1.9605,-0.110745,-0.532754,227.789,0.139637,
2,0,0,1,0,9073.35,0.137942,0.137577,-11.4257,5,0.0150017,10,-0.00157192,-1.94212,-0.107231,-0.550214,245.51,0.137577,
2,0,0,1,0,9073.36,0.135944,0.135661,-11.9284,5,0.0148848,10,-0.00161822,-1.92342,-0.102967,-0.573002,267.037,0.135661,
2,0,0,1,0,9073.37,0.133947,0.133658,-12.4722,5,0.0147628,10,-0.00166701,-1.90406,-0.105419,-0.559671,272.296,0.1336581,
2,0,0,1,0,9073.38,0.13194,0.13165,-13.0206,5,0.0146353,10,-0.00171415,-1.88537,-0.107616,-0.548245,278.679,0.13165,
2,0,0,1,0,9073.39,0.129942,0.129636,-13.5931,5,0.0145022,10,-0.00176216,-1.86668,-0.108902,-0.541773,287.263,0.129636,
2,0,0,1,0,9073.4,0.127945,0.127655,-14.168,5,0.0143633,10,-0.00180862,-1.84869,-0.112795,-0.523071,289.066,0.127655,
2,0,0,1,0,9073.41,0.125947,0.125658,-14.743,5,0.0142186,10,-0.00185258,-1.83141,-0.121145,-0.487018,279.689,0.1256579,
2,0,0,1,0,9073.42,0.123941,0.123693,-15.2763,5,0.0140683,10,-0.00188956,-1.81598,-0.12414,-0.475272,283.782,0.123693,
2,0,0,1,0,9073.43,0.121943,0.121687,-15.8699,5,0.0139125,10,-0.00193116,-1.79942,-0.130347,-0.452639,279.681,0.121687,
2,0,0,1,0,9073.44,0.119945,0.119668,-16.4019,5,0.013751,10,-0.00196279,-1.7851,-0.14427,-0.408956,261.652,0.119668,
2,0,0,1,0,9073.45,0.117948,0.117638,-16.9294,5,0.0135843,10,-0.00199154,-1.77136,-0.150099,-0.393073,259.513,0.117638,
2,0,0,1,0,9073.46,0.115946,0.115658,-17.4426,5,0.0134123,10,-0.00201737,-1.75839,-0.162221,-0.363701,247.156,0.1156579,
2,0,0,1,0,9073.47,0.113962,0.113691,-17.9048,5,0.0132372,10,-0.00203562,-1.74703,-0.182185,-0.323846,226.075,0.113691,
2,0,0,1,0,9073.48,0.111964,0.111689,-18.34,5,0.0130558,10,-0.00204836,-1.7366,-0.198511,-0.297213,212.57,0.111689,
2,0,0,1,0,9073.49,0.109967,0.109696,-18.754,5,0.0128703,10,-0.00205725,-1.72691,-0.221245,-0.266672,194.9,0.109696,
2,0,0,1,0,9073.5,0.107969,0.107688,-19.1196,5,0.0126809,10,-0.00205896,-1.71852,-0.244092,-0.241712,180.277,0.1076882,
2,0,0,1,0,9073.51,0.10598,0.105713,-19.472,5,0.0124898,10,-0.00205845,-1.71059,-0.269706,-0.218756,166.063,0.1057134,
2,0,0,1,0,9073.52,0.103983,0.10367,-19.7869,5,0.0122934,10,-0.00205131,-1.70362,-0.302648,-0.194946,150.408,0.10367,
2,0,0,1,0,9073.53,0.101985,0.101739,-20.0698,5,0.0120941,10,-0.00204188,-1.69746,-0.357475,-0.165046,129.099,0.101739,
2,0,0,1,0,9073.54,0.0999877,0.0996931,-20.3003,5,0.0118922,10,-0.0020238,-1.6925,-0.416662,-0.141602,112.17,0.09969309,
2,0,0,1,0,9073.55,0.0979811,0.0976629,-20.527,5,0.011688,10,-0.00200473,-1.68767,-0.482636,-0.122245,97.7851,0.0976629,
2,0,0,1,0,9073.56,0.0959835,0.0956709,-20.6936,5,0.0114817,10,-0.00197978,-1.68416,-0.636515,-0.0926922,74.7939,0.0956709,
2,0,0,1,0,9073.57,0.0939859,0.0936789,-20.825,5,0.0112741,10,-0.00195086,-1.68141,-0.907496,-0.0650141,52.7751,0.0936789,
2,0,0,1,0,9073.58,0.0919883,0.0916426,-20.9062,5,0.0110654,10,-0.0019159,-1.67972,-1.18033,-0.0499862,40.7863,0.0916426,
2,0,0,1,0,9073.59,0.0899816,0.0896332,-20.99,5,0.0108558,10,-0.0018814,-1.67799,-2.68799,-0.0219495,17.9391,0.0896332,
2,0,0,1,0,9073.6,0.087984,0.0876837,-20.9772,5,0.0106459,10,-0.00183936,-1.67825,5.85924,0.0100696,-8.24235,0.0876837,
2,0,0,1,0,9073.61,0.0859865,0.0856873,-20.9575,5,0.0104362,10,-0.00179579,-1.67866,1.86517,0.0316325,-25.8324,0.0856873,
2,0,0,1,0,9073.62,0.0839889,0.0836519,-20.8731,5,0.010227,10,-0.00174607,-1.68041,1.05041,0.0561683,-45.7413,0.0836519,
2,0,0,1,0,9073.63,0.0820004,0.0817231,-20.7762,5,0.0100208,10,-0.00169789,-1.68243,0.770153,0.0766081,-62.0394,0.0817231,
2,0,0,1,0,9073.64,0.0800028,0.0797086,-20.6285,5,0.00981368,10,-0.00164426,-1.68553,0.61278,0.0962825,-77.4834,0.0797086,
2,0,0,1,0,9073.65,0.0780052,0.0777132,-20.4655,5,0.00960826,10,-0.00159044,-1.68898,0.506556,0.116473,-92.9162,0.0777132,
2,0,0,1,0,9073.66,0.0760076,0.0756867,-20.2548,5,0.00940464,10,-0.00153302,-1.69347,0.4528,0.1303,-103.024,0.0756867,
2,0,0,1,0,9073.67,0.0740191,0.0737283,-20.0549,5,0.00920525,10,-0.00147861,-1.69778,0.4266,0.138303,-108.147,0.0737283,
2,0,0,1,0,9073.68,0.0720215,0.0716634,-19.8196,5,0.00900589,10,-0.00142034,-1.7029,0.397132,0.148565,-114.931,0.0716634,
2,0,0,1,0,9073.69,0.0700239,0.0696982,-19.5917,5,0.00880892,10,-0.00136551,-1.70793,0.37658,0.156673,-119.747,0.0696982,
2,0,0,1,0,9073.7,0.0680263,0.0677461,-19.3506,5,0.00861424,10,-0.00131093,-1.71331,0.407285,0.144862,-109.525,0.0677461,
2,0,0,1,0,9073.71,0.0660197,0.0657177,-19.1558,5,0.00842187,10,-0.00125887,-1.7177,0.4223,0.139711,-104.356,0.0657177,
2,0,0,1,0,9073.72,0.0640221,0.0637083,-18.9292,5,0.00823144,10,-0.00120595,-1.72287,0.415496,0.141999,-104.977,0.0637083,
2,0,0,1,0,9073.73,0.0620245,0.0616755,-18.7314,5,0.0080432,10,-0.00115527,-1.72743,0.431999,0.136574,-99.8225,0.0616755,
2,0,0,1,0,9073.74,0.0600269,0.0596956,-18.5286,5,0.00785689,10,-0.00110608,-1.73216,0.464753,0.126949,-91.8911,0.0596956,
2,0,0,1,0,9073.75,0.0580248,0.0576802,-18.3643,5,0.00767248,10,-0.00105926,-1.73603,0.495425,0.11909,-85.3187,0.0576802,
2,0,0,1,0,9073.76,0.0560227,0.055689,-18.1868,5,0.00748962,10,-0.0010128,-1.74024,0.513928,0.114802,-81.5544,0.055689,
2,0,0,1,0,9073.77,0.0540251,0.0537265,-18.0419,5,0.00730852,10,-0.000969326,-1.74372,0.569869,0.103533,-72.8915,0.0537265,
2,0,0,1,0,9073.78,0.0520275,0.051672,-17.894,5,0.0071288,10,-0.000924618,-1.74729,0.548604,0.107546,-75.0944,0.051672,
2,0,0,1,0,9073.79,0.0500299,0.0497372,-17.7423,5,0.00695065,10,-0.000882453,-1.75099,0.573831,0.102818,-71.2364,0.0497372,
2,0,0,1,0,9073.8,0.0480414,0.0477222,-17.6126,5,0.00677556,10,-0.000840514,-1.75418,0.65003,0.090765,-62.4032,0.0477222,
2,0,0,1,0,9073.81,0.0460438,0.0457212,-17.4917,5,0.00660013,10,-0.000799742,-1.75717,0.604546,0.097594,-66.5745,0.04572124,
2,0,0,1,0,9073.82,0.0440462,0.0437234,-17.3464,5,0.00642595,10,-0.000758444,-1.76079,0.58459,0.100925,-68.3606,0.04372343,
2,0,0,1,0,9073.83,0.0420486,0.0417519,-17.2203,5,0.00625323,10,-0.000718981,-1.76396,0.652108,0.0904757,-60.8156,0.0417519,
2,0,0,1,0,9073.84,0.0400601,0.0396878,-17.101,5,0.00608331,10,-0.000678699,-1.76698,0.624656,0.0944519,-63.0131,0.0396878,
2,0,0,1,0,9073.85,0.0380625,0.0377678,-16.9693,5,0.00591302,10,-0.000640892,-1.77034,0.563008,0.104794,-69.3821,0.0377678,
2,0,0,1,0,9073.86,0.036065,0.0357705,-16.8292,5,0.00574403,10,-0.000601989,-1.77394,0.579747,0.101769,-66.8651,0.0357705,
2,0,0,1,0,9073.87,0.0340674,0.0337724,-16.7021,5,0.00557644,10,-0.000564072,-1.77723,0.58777,0.100379,-65.4138,0.0337724,
2,0,0,1,0,9073.88,0.0320607,0.0317657,-16.5672,5,0.00541001,10,-0.000526269,-1.78075,0.558781,0.105587,-68.2654,0.0317657,
2,0,0,1,0,9073.89,0.0300631,0.029804,-16.4312,5,0.00524504,10,-0.000489717,-1.78433,0.5348,0.110322,-70.7186,0.02980401,
2,0,0,1,0,9073.9,0.0280655,0.0277599,-16.2839,5,0.00508141,10,-0.000452041,-1.78824,0.529055,0.11152,-70.8892,0.0277599,
2,0,0,1,0,9073.91,0.0260679,0.0257722,-16.1454,5,0.00491928,10,-0.000416104,-1.79195,0.499905,0.118022,-74.3132,0.0257722,
2,0,0,1,0,9073.92,0.0240613,0.0237334,-15.9847,5,0.00475859,10,-0.000379371,-1.7963,0.462913,0.127454,-79.5124,0.0237334,
2,0,0,1,0,9073.93,0.0220637,0.0217561,-15.8261,5,0.00459957,10,-0.000344314,-1.80063,0.428595,0.137659,-84.9596,0.0217561,
2,0,0,1,0,9073.94,0.0200661,0.0197311,-15.6447,5,0.00444216,10,-0.000308687,-1.80563,0.399578,0.147656,-90.161,0.0197311,
2,0,0,1,0,9073.95,0.0180685,0.0177773,-15.4674,5,0.00428659,10,-0.000274967,-1.81058,0.407164,0.144905,-87.4862,0.0177773,
2,0,0,1,0,9073.96,0.01608,0.0157549,-15.2968,5,0.00413435,10,-0.000241001,-1.8154,0.402827,0.146465,-87.4071,0.0157549,
2,0,0,1,0,9073.97,0.0140824,0.0137683,-15.1169,5,0.00398236,10,-0.000208134,-1.82054,0.355951,0.165753,-97.694,0.0137683,
2,0,0,1,0,9073.98,0.0120848,0.0117896,-14.9094,5,0.00383223,10,-0.000175775,-1.82654,0.330794,0.178359,-103.787,0.0117896,
2,0,0,1,0,9073.99,0.0100873,0.00980448,-14.7055,5,0.00368424,10,-0.00014418,-1.83252,0.346865,0.170095,-97.6675,0.00980448,
2,0,0,1,0,9074,0.00810328,0.00778071,-14.5179,5,0.00353959,10,-0.00011296,-1.8381,0.363106,0.162487,-92.0709,0.007780713,
2,0,0,1,0,9074.01,0.00610116,0.00577221,-14.3343,5,0.00339535,10,-8.27405e-05,-1.84362,0.336706,0.175227,-97.9531,0.00577221,
2,0,0,1,0,9074.02,0.00410357,0.00383224,-14.1311,5,0.00325301,10,-5.41539e-05,-1.84982,0.426726,0.138262,-76.514,0.00383224,
2,0,0,1,0,9074.03,0.00210598,0.00175172,-14.0267,5,0.00311251,10,-2.45709e-05,-1.85305,0.431086,0.136864,-74.6606,0.00175172,
2,0,0,1,0,9074.04,0.00010174,-0.000259386,-13.8256,5,0.00297328,10,3.58617e-06,-1.85931,0.351756,0.16773,-90.6291,-0.000259386,
2,0,0,1,0,9074.05,-0.00189827,-0.00223926,-13.665,5,0.00283583,10,3.05995e-05,-1.86439,0.384338,0.153511,-81.8513,-0.002239262,
2,0,0,1,0,9074.06,-0.00389586,-0.00423562,-13.5002,5,0.00269999,10,5.71817e-05,-1.86966,0.419311,0.140707,-74.2195,-0.00423562,
2,0,0,1,0,9074.07,-0.00589345,-0.00624673,-13.3675,5,0.00256571,10,8.35034e-05,-1.87395,0.455079,0.129648,-67.6139,-0.00624673,
2,0,0,1,0,9074.08,-0.00789103,-0.00827693,-13.2269,5,0.00243267,10,0.000109478,-1.87854,0.522152,0.112994,-58.4244,-0.008276931,
2,0,0,1,0,9074.09,-0.0098977,-0.0103002,-13.1307,5,0.00230086,10,0.000135249,-1.88171,0.636469,0.092699,-47.5094,-0.0103002,
2,0,0,1,0,9074.1,-0.0118953,-0.0122506,-13.0381,5,0.00216996,10,0.000159725,-1.88478,0.656645,0.0898507,-45.7272,-0.0122506,
2,0,0,1,0,9074.11,-0.0138929,-0.0142435,-12.9504,5,0.00204004,10,0.000184459,-1.88772,0.717397,0.0822418,-41.5804,-0.0142435,
2,0,0,1,0,9074.12,-0.0158905,-0.0162485,-12.8719,5,0.0019109,10,0.000209149,-1.89036,1.05552,0.0558968,-28.1282,-0.0162485,
2,0,0,1,0,9074.13,-0.017879,-0.0182396,-12.838,5,0.00178368,10,0.00023416,-1.8915,1.22243,0.0482645,-24.1561,-0.0182396,
2,0,0,1,0,9074.14,-0.0198766,-0.0201817,-12.7769,5,0.0016556,10,0.00025786,-1.89357,1.17179,0.0503502,-25.1286,-0.02018171,
2,0,0,1,0,9074.15,-0.0218741,-0.0222129,-12.7382,5,0.0015281,10,0.000282952,-1.89489,1.86257,0.0316767,-15.7562,-0.0222129,
2,0,0,1,0,9074.16,-0.0238717,-0.0241932,-12.7137,5,0.0014008,10,0.000307585,-1.89573,3.61513,0.0163203,-8.10302,-0.0241932,
2,0,0,1,0,9074.17,-0.0258602,-0.0262034,-12.7058,5,0.00127499,10,0.000332936,-1.896,4.6342,0.0127314,-6.3107,-0.0262034,
2,0,0,1,0,9074.18,-0.0278578,-0.0282241,-12.6883,5,0.00114801,10,0.000358114,-1.8966,7.66516,0.00769717,-3.81449,-0.0282241,
2,0,0,1,0,9074.19,-0.0298554,-0.0302013,-12.6906,5,0.00102115,10,0.000383272,-1.89652,-11.4231,-0.00516497,2.55864,-0.0302013,
2,0,0,1,0,9074.2,-0.031853,-0.0322411,-12.6985,5,0.000894146,10,0.000409414,-1.89625,-3.55436,-0.0165993,8.23194,-0.0322411,
2,0,0,1,0,9074.21,-0.0338597,-0.0342279,-12.7237,5,0.000767101,10,0.000435506,-1.89539,-2.91542,-0.0202372,10.0451,-0.0342279,
2,0,0,1,0,9074.22,-0.0358573,-0.0362416,-12.7387,5,0.000639766,10,0.000461672,-1.89487,-2.54571,-0.0231762,11.5295,-0.0362416,
2,0,0,1,0,9074.23,-0.0378548,-0.0382562,-12.7702,5,0.000512232,10,0.000488538,-1.8938,-2.29124,-0.0257503,12.8274,-0.03825618,
2,0,0,1,0,9074.24,-0.0398524,-0.0402196,-12.7897,5,0.000384356,10,0.000514398,-1.89314,-1.42599,-0.0413749,20.6863,-0.0402196,
2,0,0,1,0,9074.25,-0.0418591,-0.0422064,-12.8519,5,0.000256207,10,0.000542431,-1.89103,-1.19482,-0.04938,24.7423,-0.0422064,
2,0,0,1,0,9074.26,-0.0438567,-0.0441923,-12.888,5,0.000127449,10,0.000569553,-1.88981,-1.4863,-0.0396959,19.9725,-0.0441923,
2,0,0,1,0,9074.27,-0.0458543,-0.0462356,-12.9323,5,-1.63503e-06,10,0.000597934,-1.88832,-1.2312,-0.0479208,24.1925,-0.0462356,
2,0,0,1,0,9074.28,-0.0478519,-0.0481443,-12.9837,5,-0.000131234,10,0.000625089,-1.8866,-0.968048,-0.0609474,30.9063,-0.0481443,
2,0,0,1,0,9074.29,-0.0498585,-0.0502022,-13.0549,5,-0.000261373,10,0.000655388,-1.88422,-0.954311,-0.0618247,31.4806,-0.0502022,
2,0,0,1,0,9074.3,-0.051838,-0.0521872,-13.1109,5,-0.000390955,10,0.000684222,-1.88237,-1.04936,-0.0562246,28.7721,-0.0521872,
2,0,0,1,0,9074.31,-0.0538355,-0.0542009,-13.17,5,-0.000522289,10,0.000713825,-1.88041,-0.925744,-0.0637325,32.7724,-0.0542009,
2,0,0,1,0,9074.32,-0.0558331,-0.0561661,-13.2413,5,-0.000654396,10,0.000743713,-1.87807,-0.800318,-0.0737207,38.108,-0.0561661,
2,0,0,1,0,9074.33,-0.0578126,-0.0581625,-13.321,5,-0.000785846,10,0.000774781,-1.87546,-0.784882,-0.0751705,39.0714,-0.0581625,
2,0,0,1,0,9074.34,-0.0598192,-0.060112,-13.3955,5,-0.000919481,10,0.000805231,-1.87304,-0.76658,-0.0769652,40.2539,-0.06011204,
2,0,0,1,0,9074.35,-0.0618168,-0.0621665,-13.4821,5,-0.00105381,10,0.000838138,-1.87024,-0.743138,-0.0793931,41.7683,-0.0621665,
2,0,0,1,0,9074.36,-0.0638144,-0.064182,-13.5655,5,-0.0011891,10,0.00087066,-1.86756,-0.755338,-0.0781107,41.3498,-0.064182,
2,0,0,1,0,9074.37,-0.065812,-0.0661514,-13.6469,5,-0.00132513,10,0.000902763,-1.86497,-0.672794,-0.0876941,46.7474,-0.0661514,
2,0,0,1,0,9074.38,-0.0678187,-0.0681981,-13.7532,5,-0.00146223,10,0.000937945,-1.8616,-0.630017,-0.0936483,50.2477,-0.0681981,
2,0,0,1,0,9074.39,-0.0698163,-0.0702014,-13.8504,5,-0.0016002,10,0.000972319,-1.85854,-0.68259,-0.0864355,46.7082,-0.0702014,
2,0,0,1,0,9074.4,-0.0718138,-0.0721969,-13.94,5,-0.00173923,10,0.00100643,-1.85574,-0.632667,-0.093256,50.7717,-0.0721969,
2,0,0,1,0,9074.41,-0.0738114,-0.0741421,-14.0505,5,-0.00187919,10,0.00104173,-1.85231,-0.547913,-0.107681,59.0786,-0.0741421,
2,0,0,1,0,9074.42,-0.0758181,-0.0762053,-14.1768,5,-0.00202045,10,0.00108035,-1.84842,-0.553168,-0.106658,58.9784,-0.0762053,
2,0,0,1,0,9074.43,-0.0778157,-0.078166,-14.2878,5,-0.00216277,10,0.00111682,-1.84503,-0.578885,-0.10192,56.8402,-0.078166,
2,0,0,1,0,9074.44,-0.0798133,-0.080198,-14.4038,5,-0.00230628,10,0.00115515,-1.84152,-0.535897,-0.110096,61.9204,-0.080198,
2,0,0,1,0,9074.45,-0.0818109,-0.0821622,-14.5353,5,-0.00245095,10,0.00119425,-1.83758,-0.481255,-0.122596,69.5716,-0.0821622,
2,0,0,1,0,9074.46,-0.0837994,-0.0841529,-14.6789,5,-0.00259561,10,0.00123527,-1.83331,-0.505192,-0.116787,66.8613,-0.0841529,
2,0,0,1,0,9074.47,-0.0857969,-0.0861897,-14.8045,5,-0.00274295,10,0.001276,-1.8296,-0.49476,-0.11925,68.9565,-0.0861897,
2,0,0,1,0,9074.48,-0.0877945,-0.0881644,-14.9555,5,-0.00289177,10,0.00131855,-1.8252,-0.467579,-0.126182,73.6169,-0.0881644,
2,0,0,1,0,9074.49,-0.0897921,-0.0901312,-15.0947,5,-0.00304197,10,0.0013605,-1.82118,-0.470369,-0.125433,73.9295,-0.0901312,
2,0,0,1,0,9074.5,-0.0917806,-0.0921458,-15.2499,5,-0.00319218,10,0.00140521,-1.81673,-0.457561,-0.128944,76.7275,-0.0921458,
2,0,0,1,0,9074.51,-0.0937782,-0.0941144,-15.4003,5,-0.00334539,10,0.00144939,-1.81247,-0.465993,-0.126611,76.097,-0.0941144,
2,0,0,1,0,9074.52,-0.0957758,-0.0961142,-15.5519,5,-0.00350024,10,0.00149475,-1.80822,-0.472626,-0.124835,75.7723,-0.0961142,
2,0,0,1,0,9074.53,-0.0977734,-0.0981557,-15.7065,5,-0.00365652,10,0.00154169,-1.80392,-0.42827,-0.137763,84.5042,-0.09815567,
2,0,0,1,0,9074.54,-0.0997412,-0.100046,-15.8841,5,-0.00381134,10,0.00158914,-1.79904,0.0914677,0.645036,-386.165,-0.100046,
2,0,0,1,1,9074.54,-0.0996711,-0.100039,-14.9792,5,-0.00385785,10,0.00149851,-1.82451,-0.0119753,-4.92681,2536.22,-0.100039,
2,0,0,1,1,9074.55,-0.0976826,-0.0980492,-10.8199,5,-0.00398338,10,0.00106088,-1.96578,-0.0142359,-4.14446,1781.3,-0.0980492,
2,0,0,1,1,9074.56,-0.095685,-0.0960188,-7.8176,5,-0.00407564,10,0.000750637,-2.10693,-0.0132918,-4.43884,1353.48,-0.0960188,
2,0,0,1,1,9074.57,-0.0936874,-0.0940616,-5.42269,5,-0.00414115,10,0.000510067,-2.26579,-0.0111527,-5.29022,1098.68,-0.0940616,
2,0,0,1,1,9074.58,-0.0916898,-0.0920192,-3.42335,5,-0.00418488,10,0.000315014,-2.46555,-0.00813887,-7.24916,922.081,-0.0920192,
2,0,0,1,1,9074.59,-0.0897013,-0.0900956,-1.76574,5,-0.0042101,10,0.000159085,-2.75307,-0.00381048,-15.4836,786.958,-0.0900956,
2,0,0,1,1,9074.6,-0.0877037,-0.0880689,-0.31459,5,-0.00422015,10,2.77056e-05,-3.50226,-0.0143396,-4.11448,675.167,-0.0880689,
2,1,0,1,1,9074.61,-0.0857062,-0.0861029,0.930009,5,-0.00421673,10,-8.00765e-05,-3.03151,0.00492603,11.9772,586.258,-0.0861029,
2,1,0,1,1,9074.62,-0.0837086,-0.084097,2.01397,5,-0.00420172,10,-0.000169369,-2.69595,0.00795489,7.41682,508.887,-0.084097,
2,1,0,1,1,9074.63,-0.0817019,-0.0820876,2.97333,5,-0.00417648,10,-0.000244074,-2.52676,0.0144244,4.0903,449.951,-0.0820876,
2,1,0,1,1,9074.64,-0.0797043,-0.0800973,3.81362,5,-0.0041424,10,-0.000305461,-2.41866,0.021778,2.70915,391.56,-0.0800973,
2,1,0,1,1,9074.65,-0.0777067,-0.0780758,4.5442,5,-0.00410041,10,-0.000354792,-2.34254,0.0290396,2.03171,355.228,-0.0780758,
2,1,0,1,1,9074.66,-0.0757091,-0.0761384,5.21993,5,-0.00405145,10,-0.000397437,-2.28234,0.0373648,1.57903,317.874,-0.0761384,
2,1,0,1,1,9074.67,-0.0737025,-0.0740458,5.82524,5,-0.00399605,10,-0.000431335,-2.23469,0.0467051,1.26324,284.527,-0.0740458,
2,1,0,1,1,9074.68,-0.0717049,-0.072131,6.36016,5,-0.00393504,10,-0.000458765,-2.19653,0.0583724,1.01075,248.817,-0.072131,
2,1,0,1,1,9074.69,-0.0697073,-0.0700635,6.81611,5,-0.00386904,10,-0.00047756,-2.16646,0.0715156,0.824994,218.785,-0.0700635,
2,1,0,1,1,9074.7,-0.0677097,-0.0680654,7.24965,5,-0.00379864,10,-0.00049345,-2.13968,0.0805455,0.732505,206.226,-0.0680654,
2,1,0,1,1,9074.71,-0.0657212,-0.0661321,7.62687,5,-0.00372492,10,-0.000504381,-2.11765,0.0969352,0.608654,180.608,-0.0661321,
2,1,0,1,1,9074.72,-0.0637236,-0.0640865,7.96826,5,-0.00364691,10,-0.000510658,-2.09864,0.11632,0.507221,157.128,-0.0640865,
2,1,0,1,1,9074.73,-0.061726,-0.0621229,8.25682,5,-0.00356572,10,-0.000512938,-2.08319,0.13182,0.447581,144.14,-0.0621229,
2,1,0,1,1,9074.74,-0.0597284,-0.060106,8.54201,5,-0.00348169,10,-0.000513426,-2.06844,0.151992,0.388178,128.957,-0.060106,
2,1,0,1,1,9074.75,-0.0577399,-0.0581191,8.77313,5,-0.00339596,10,-0.000509887,-2.05685,0.178726,0.330115,112.918,-0.0581191,
2,1,0,1,1,9074.76,-0.0557423,-0.0561289,8.99111,5,-0.00330713,10,-0.00050466,-2.04619,0.205611,0.286949,100.495,-0.0561289,
2,1,0,1,1,9074.77,-0.0537447,-0.0540961,9.17743,5,-0.0032162,10,-0.000496463,-2.03728,0.240933,0.244882,87.6207,-0.0540961,
2,1,0,1,1,9074.78,-0.0517472,-0.0520589,9.34772,5,-0.00312356,10,-0.000486632,-2.02929,0.266887,0.221068,80.5519,-0.0520589,
2,1,0,1,1,9074.79,-0.049745,-0.0501224,9.49752,5,-0.00302929,10,-0.000476039,-2.02239,0.284123,0.207657,76.99,-0.0501224,
2,1,0,1,1,9074.8,-0.0477429,-0.0480809,9.65398,5,-0.00293351,10,-0.000464173,-2.01529,0.341254,0.172892,64.964,-0.0480809,
2,1,0,1,1,9074.81,-0.0457453,-0.0460881,9.75961,5,-0.00283639,10,-0.000449801,-2.01057,0.424618,0.138949,52.9237,-0.0460881,
2,1,0,1,1,9074.82,-0.0437477,-0.0440743,9.86603,5,-0.00273832,10,-0.000434839,-2.00586,0.476558,0.123805,47.6163,-0.0440743,
2,1,0,1,1,9074.83,-0.0417501,-0.0420693,9.95096,5,-0.00263918,10,-0.00041863,-2.00213,0.505746,0.116659,45.3256,-0.0420693,
2,1,0,1,1,9074.84,-0.0397435,-0.0401172,10.0454,5,-0.00253913,10,-0.000402993,-1.99803,0.615637,0.0958357,37.4948,-0.0401172,
2,1,0,1,1,9074.85,-0.0377459,-0.0381165,10.0992,5,-0.00243835,10,-0.000384945,-1.99571,0.726855,0.0811716,32.0257,-0.0381165,
2,1,0,1,1,9074.86,-0.0357483,-0.0361036,10.1739,5,-0.00233699,10,-0.000367316,-1.99251,0.775529,0.0760771,30.1644,-0.0361036,
2,1,0,1,1,9074.87,-0.0337507,-0.0341021,10.2203,5,-0.00223495,10,-0.000348532,-1.99054,0.951956,0.0619776,24.7282,-0.0341021,
2,1,0,1,1,9074.88,-0.0317622,-0.0320986,10.273,5,-0.00213354,10,-0.000329747,-1.9883,1.23633,0.0477217,19.1055,-0.0320986,
2,1,0,1,1,9074.89,-0.0297646,-0.0301095,10.2965,5,-0.00203065,10,-0.000310024,-1.98731,1.49496,0.0394659,15.8715,-0.0301095,
2,1,0,1,1,9074.9,-0.027767,-0.0281029,10.3364,5,-0.00192753,10,-0.000290483,-1.98563,2.01286,0.0293115,11.8055,-0.0281029,
2,1,0,1,1,9074.91,-0.0257694,-0.0261226,10.3436,5,-0.00182407,10,-0.000270202,-1.98533,2.0454,0.0288452,11.6621,-0.0261226,
2,1,0,1,1,9074.92,-0.0237809,-0.0241333,10.3827,5,-0.00172154,10,-0.000250568,-1.98369,2.31582,0.025477,10.305,-0.0241333,
2,1,0,1,1,9074.93,-0.0217833,-0.0221178,10.3849,5,-0.00161765,10,-0.000229691,-1.9836,14.4393,0.00408606,1.65621,-0.0221178,
2,1,0,1,1,9074.94,-0.0197858,-0.0201623,10.3892,5,-0.00151375,10,-0.000209471,-1.98342,14.7368,0.00400359,1.62312,-0.0201623,
2,1,0,1,1,9074.95,-0.0177882,-0.0181104,10.3914,5,-0.00140978,10,-0.000188192,-1.98333,3.81139,0.0154799,6.28412,-0.0181104,
2,1,0,1,1,9074.96,-0.0157815,-0.0161322,10.4146,5,-0.00130574,10,-0.00016801,-1.98236,7.86496,0.00750162,3.04399,-0.0161322,
2,1,0,1,1,9074.97,-0.0137839,-0.0141593,10.4034,5,-0.00120156,10,-0.000147305,-1.98282,-14.5572,-0.00405296,-1.6468,-0.0141593,
2,1,0,1,1,9074.98,-0.0117863,-0.012156,10.408,5,-0.00109754,10,-0.00012652,-1.98263,413.275,0.000142762,0.0579638,-0.012156,
2,1,0,1,1,9074.99,-0.00978874,-0.0101631,10.4036,5,-0.00099343,10,-0.000105733,-1.98281,9.68775,0.00609017,2.47497,-0.0101631,
2,1,0,1,1,9075,-0.00778207,-0.00810254,10.4181,5,-0.000889365,10,-8.44128e-05,-1.98221,-10.079,-0.00585376,-2.37567,-0.00810254,
2,1,0,1,1,9075.01,-0.00578449,-0.0061591,10.3941,5,-0.000785253,10,-6.40186e-05,-1.98321,-8.05661,-0.00732318,-2.97579,-0.0061591,
2,1,0,1,1,9075.02,-0.0037869,-0.00411416,10.4062,5,-0.000681266,10,-4.28127e-05,-1.98271,-35.6209,-0.00165633,-0.671804,-0.00411416,
2,1,0,1,1,9075.03,-0.00178931,-0.00211433,10.3914,5,-0.000577222,10,-2.19708e-05,-1.98333,-2.85694,-0.0206515,-8.37433,-0.00211433,
2,1,0,1,1,9075.04,-2.55332e-05,-0.000363498,10.3748,5,-0.000486826,10,-3.77121e-06,-1.98402, , , ,-0.000363498,