File: Figure_codes/Fig_3-5/rawdata_trumpetplot_data/after 10th/20221101_1-115_003_TrumpetPlot_ParaChange_from10_every3_12_CV_C01_11.csv
mode,ox/red,error,control changes,counter inc.,time/s,control/V,Ewe/V,<I>/mA,cycle number,(Q-Qo)/C,I Range,P/W,log(|I|),Tafel slope mV/dec,alpha_eff,dI/d(E-IR),E-IR/V,
2,1,0,1,0,22868,2.44065e-05,-0.000172625,17.9887,12,0.0000000E+000,10,-3.1053e-06,-1.745, , , ,-0.000172625,
2,1,0,1,0,22868,0.00200257,0.00164067,19.0411,12,5.78239e-05,10,3.12402e-05,-1.72031, , , ,0.00164067,
2,1,0,1,0,22868,0.004408,0.00405097,19.9795,12,0.000136041,10,8.09364e-05,-1.69942, , , ,0.00405097,
2,1,0,1,0,22868,0.0068051,0.00642522,20.6928,12,0.00021748,10,0.000132956,-1.68418,0.157408,0.374822,299.058,0.00642522,
2,1,0,1,0,22868,0.00920221,0.00883341,21.3359,12,0.000301632,10,0.000188469,-1.67089,0.189653,0.311094,257.282,0.00883341,
2,1,0,1,0,22868,0.0115993,0.011248,21.9142,12,0.000388208,10,0.00024649,-1.65927,0.214642,0.274876,233.896,0.011248,
2,1,0,1,0,22868,0.0140075,0.0136561,22.4507,12,0.00047699,10,0.00030659,-1.64877,0.240318,0.245508,214.173,0.0136561,
2,1,0,1,0,22868,0.0164046,0.0160876,22.9528,12,0.000567861,10,0.000369256,-1.63916,0.262786,0.224517,200.352,0.0160876,
2,1,0,1,0,22868,0.0188017,0.0184789,23.4017,12,0.000660637,10,0.000432437,-1.63075,0.288954,0.204184,185.97,0.0184789,
2,1,0,1,0,22868,0.0212099,0.0208786,23.8437,12,0.000755173,10,0.000497823,-1.62263,0.314117,0.187828,174.284,0.0208786,
2,1,0,1,0,22868,0.023607,0.0233175,24.2474,12,0.000851402,10,0.00056539,-1.61533,0.332282,0.17756,167.657,0.0233175,
2,1,0,1,0,22868,0.0260041,0.025643,24.6181,12,0.000949186,10,0.000631281,-1.60875,0.354678,0.166348,159.718,0.025643,
2,1,0,1,0,22868,0.0284012,0.0280395,25.0046,12,0.00104849,10,0.000701117,-1.60198,0.37765,0.156229,152.23,0.0280395,
2,1,0,1,0,22868,0.0308067,0.0304742,25.3763,12,0.0011493,10,0.000773323,-1.59557,0.396786,0.148695,146.929,0.03047418,
2,1,0,1,0,22868,0.0332038,0.0328707,25.7017,12,0.00125149,10,0.000844834,-1.59004,0.416182,0.141765,142.093,0.0328707,
2,1,0,1,0,22868,0.0356009,0.0352746,26.0333,12,0.001355,10,0.000918315,-1.58447,0.437415,0.134883,137.025,0.0352746,
2,1,0,1,0,22868,0.0380091,0.037668,26.3728,12,0.00145985,10,0.000993409,-1.57884,0.440433,0.133959,137.798,0.037668,
2,1,0,1,0,22868,0.0404062,0.0401006,26.6954,12,0.00156601,10,0.0010705,-1.57356,0.456823,0.129153,134.448,0.0401006,
2,1,0,1,0,22868,0.0428033,0.0424706,27.0246,12,0.00167349,10,0.00114775,-1.56824,0.467082,0.126316,133.134,0.0424706,
2,1,0,1,0,22868,0.0452032,0.0448809,27.3248,12,0.00178222,10,0.00122636,-1.56344,0.474651,0.124302,132.544,0.04488086,
2,1,0,1,0,22868,0.0476058,0.0472625,27.6501,12,0.00189223,10,0.00130682,-1.5583,0.487735,0.120967,130.512,0.0472625,
2,1,0,1,0,22868,0.0500029,0.0496357,27.9592,12,0.00200348,10,0.00138778,-1.55347,0.475492,0.124082,135.437,0.0496357,
2,1,0,1,0,22868,0.0524,0.0520535,28.2753,12,0.00211598,10,0.00147182,-1.54859,0.490644,0.12025,132.734,0.0520535,
2,1,0,1,0,22868,0.0548082,0.0544553,28.6215,12,0.0022298,10,0.00155859,-1.54331,0.489725,0.120476,134.468,0.0544553,
2,1,0,1,0,22868.1,0.0572053,0.0568772,28.9263,12,0.00234494,10,0.00164525,-1.53871,0.490758,0.120222,135.707,0.0568772,
2,1,0,1,0,22868.1,0.0596024,0.0592271,29.249,12,0.00246131,10,0.00173233,-1.53389,0.503333,0.117219,133.861,0.0592271,
2,1,0,1,0,22868.1,0.0620051,0.061683,29.5821,12,0.00257899,10,0.00182471,-1.52897,0.488884,0.120683,139.354,0.061683,
2,1,0,1,0,22868.1,0.0644077,0.0640859,29.9107,12,0.00269803,10,0.00191685,-1.52417,0.494092,0.119411,139.402,0.0640859,
2,1,0,1,0,22868.1,0.0668048,0.0664379,30.2587,12,0.0028184,10,0.00201032,-1.51915,0.491516,0.120037,141.73,0.06643787,
2,1,0,1,0,22868.1,0.0692019,0.068828,30.5873,12,0.00294014,10,0.00210527,-1.51446,0.491064,0.120147,143.435,0.068828,
2,1,0,1,0,22868.1,0.0716074,0.0712362,30.936,12,0.00306321,10,0.00220377,-1.50954,0.500403,0.117905,142.358,0.0712362,
2,1,0,1,0,22868.1,0.0740045,0.0736253,31.279,12,0.00318767,10,0.00230293,-1.50475,0.491837,0.119958,146.465,0.0736253,
2,1,0,1,0,22868.1,0.0764016,0.0760462,31.6265,12,0.00331352,10,0.00240507,-1.49995,0.494171,0.119392,147.428,0.0760462,
2,1,0,1,0,22868.1,0.0788042,0.0784289,31.9935,12,0.0034408,10,0.00250922,-1.49494,0.493483,0.119558,149.263,0.0784289,
2,1,0,1,0,22868.1,0.0812069,0.0808626,32.3552,12,0.00356954,10,0.00261633,-1.49006,0.487612,0.120998,152.771,0.0808626,
2,1,0,1,0,22868.1,0.083604,0.0832188,32.7109,12,0.0036997,10,0.00272217,-1.48531,0.4867,0.121225,154.852,0.0832188,
2,1,0,1,0,22868.1,0.0860011,0.0856153,33.0884,12,0.00383132,10,0.00283287,-1.48032,0.488592,0.120755,155.972,0.0856153,
2,1,0,1,0,22868.1,0.0884065,0.0880299,33.4803,12,0.00396451,10,0.00294726,-1.47521,0.491247,0.120103,156.841,0.0880299,
2,1,0,1,0,22868.1,0.0908036,0.0904338,33.8481,12,0.0040992,10,0.00306101,-1.47047,0.498193,0.118428,156.379,0.0904338,
2,1,0,1,0,22868.1,0.0932007,0.0928611,34.2233,12,0.00423539,10,0.00317801,-1.46568,0.512313,0.115164,153.782,0.0928611,
2,1,0,1,0,22868.1,0.0956034,0.095229,34.5917,12,0.00437304,10,0.00329413,-1.46103,0.513984,0.11479,154.934,0.095229,
2,1,0,1,0,22868.1,0.098006,0.0976647,34.9619,12,0.0045122,10,0.00341455,-1.4564,0.530169,0.111285,151.765,0.0976647,
2,1,0,1,0,22868.1,0.100403,0.100008,35.3315,12,0.00465284,10,0.00353344,-1.45184,0.519496,0.113572,156.633,0.100008,
2,1,0,1,0,22868.1,0.1028,0.102422,35.6742,12,0.00479488,10,0.00365381,-1.44765,0.51288,0.115037,160.38,0.1024217,
2,1,0,1,0,22868.1,0.105208,0.104833,36.096,12,0.00493848,10,0.00378406,-1.44254,0.515178,0.114523,161.363,0.104833,
2,1,0,1,0,22868.1,0.107606,0.107225,36.4953,12,0.00508371,10,0.00391322,-1.43776,0.492729,0.119741,170.513,0.107225,
2,1,0,1,0,22868.1,0.110003,0.109643,36.8862,12,0.00523051,10,0.00404431,-1.43314,0.510996,0.115461,166.221,0.109643,
2,1,0,1,0,22868.1,0.112408,0.112039,37.314,12,0.00537895,10,0.00418061,-1.42813,0.518752,0.113735,165.503,0.112039,
2,1,0,1,0,22868.1,0.114805,0.114433,37.6917,12,0.005529,10,0.00431318,-1.42375,0.519015,0.113677,167.187,0.114433,
2,1,0,1,0,22868.2,0.117202,0.116853,38.0886,12,0.00568059,10,0.00445076,-1.4192,0.530637,0.111187,165.344,0.116853,
2,1,0,1,0,22868.2,0.119599,0.119266,38.4951,12,0.00583379,10,0.00459116,-1.4146,0.515854,0.114373,171.909,0.119266,
2,1,0,1,0,22868.2,0.122008,0.121662,38.9051,12,0.00598865,10,0.00473327,-1.40999,0.509758,0.115741,175.839,0.121662,
2,1,0,1,0,22868.2,0.124405,0.124058,39.3464,12,0.00614519,10,0.00488125,-1.40509,0.502981,0.117301,180.169,0.124058,
2,1,0,1,0,22868.2,0.126802,0.126472,39.78,12,0.00630347,10,0.00503105,-1.40034,0.492993,0.119677,185.854,0.126472,
2,1,0,1,0,22868.2,0.129207,0.128899,40.2306,12,0.00646353,10,0.00518568,-1.39544,0.491124,0.120133,188.685,0.128899,
2,1,0,1,0,22868.2,0.131604,0.131279,40.6925,12,0.00662542,10,0.00534205,-1.39049,0.483361,0.122062,193.888,0.131279,
2,1,0,1,0,22868.2,0.134001,0.133655,41.1572,12,0.00678917,10,0.00550086,-1.38555,0.474766,0.124272,199.712,0.133655,
2,1,0,1,0,22868.2,0.136399,0.136046,41.6364,12,0.00695479,10,0.00566447,-1.38053,0.472819,0.124784,202.858,0.136046,
2,1,0,1,0,22868.2,0.138807,0.138464,42.1408,12,0.00712242,10,0.00583498,-1.3753,0.471084,0.125243,205.965,0.138464,
2,1,0,1,0,22868.2,0.141204,0.140847,42.6334,12,0.00729202,10,0.00600477,-1.37025,0.47186,0.125037,208.015,0.140847,
2,1,0,1,0,22868.2,0.143601,0.143257,43.1348,12,0.0074636,10,0.00617936,-1.36517,0.47926,0.123107,207.222,0.143257,
2,1,0,1,0,22868.2,0.146009,0.145652,43.6346,12,0.00763721,10,0.00635548,-1.36017,0.483495,0.122028,207.767,0.145652,
2,1,0,1,0,22868.2,0.148406,0.148097,44.1369,12,0.0078128,10,0.00653653,-1.3552,0.492251,0.119857,206.368,0.148097,
2,1,0,1,0,22868.2,0.150803,0.150481,44.6352,12,0.00799041,10,0.00671677,-1.35032,0.502222,0.117478,204.514,0.150481,
2,1,0,1,0,22868.2,0.153206,0.152856,45.1157,12,0.00816998,10,0.00689619,-1.34567,0.514638,0.114644,201.752,0.152856,
2,1,0,1,0,22868.2,0.155606,0.155232,45.5938,12,0.00835145,10,0.00707762,-1.34109,0.536142,0.110046,195.68,0.155232,
2,1,0,1,0,22868.2,0.158003,0.157637,46.0617,12,0.00853481,10,0.00726103,-1.33666,0.555475,0.106215,190.801,0.157637,
2,1,0,1,0,22868.2,0.1604,0.160027,46.5032,12,0.00871998,10,0.00744177,-1.33252,0.583482,0.101117,183.372,0.160027,
2,1,0,1,0,22868.2,0.162808,0.162489,46.9539,12,0.00890695,10,0.00762951,-1.32833,0.620357,0.0951066,174.059,0.162489,
2,1,0,1,0,22868.2,0.165205,0.164816,47.3512,12,0.00909561,10,0.00780424,-1.32467,0.64913,0.0908909,167.796,0.164816,
2,1,0,1,0,22868.2,0.167602,0.167263,47.7373,12,0.00928582,10,0.0079847,-1.32114,0.705408,0.0836396,155.685,0.167263,
2,1,0,1,0,22868.2,0.170008,0.169628,48.1142,12,0.00947757,10,0.00816151,-1.31773,0.768381,0.0767848,143.963,0.169628,
2,1,0,1,0,22868.2,0.172405,0.17206,48.4438,12,0.00967075,10,0.00833522,-1.31476,0.850189,0.0693963,130.98,0.17206,
2,1,0,1,0,22868.2,0.174802,0.174446,48.7375,12,0.00986516,10,0.00850205,-1.31214,1.00156,0.0589084,111.855,0.174446,
2,1,0,1,0,22868.3,0.177199,0.176847,48.9926,12,0.0100607,10,0.00866421,-1.30987,1.20805,0.0488389,93.1838,0.1768474,
2,1,0,1,0,22868.3,0.179607,0.179309,49.197,12,0.0102571,10,0.00882144,-1.30806,1.60677,0.0367195,70.3258,0.179309,
2,1,0,1,0,22868.3,0.182005,0.181645,49.337,12,0.0104542,10,0.00896179,-1.30683,2.50167,0.0235842,45.2937,0.181645,
2,1,0,1,0,22868.3,0.184402,0.184044,49.4126,12,0.0106517,10,0.00909411,-1.30616,7.19714,0.00819771,15.7638,0.184044,
2,1,0,1,0,22868.3,0.18681,0.186458,49.4279,12,0.0108494,10,0.00921621,-1.30603,-7.42064,-0.00795079,-15.2862,0.186458,
2,1,0,1,0,22868.3,0.189207,0.188896,49.3481,12,0.011047,10,0.00932164,-1.30673,-2.36605,-0.024936,-47.8627,0.188896,
2,1,0,1,0,22868.3,0.191604,0.191256,49.19,12,0.0112441,10,0.0094079,-1.30812,-1.38245,-0.042678,-81.6704,0.191256,
2,1,0,1,0,22868.3,0.194001,0.193665,48.9521,12,0.0114403,10,0.00948033,-1.31023,-0.949375,-0.0621462,-118.309,0.193665,
2,1,0,1,0,22868.3,0.196407,0.196078,48.6422,12,0.0116355,10,0.00953766,-1.31299,-0.724824,-0.0813991,-153.903,0.196078,
2,1,0,1,0,22868.3,0.198804,0.198468,48.2156,12,0.0118292,10,0.00956926,-1.31681,-0.589489,-0.100087,-187.664,0.198468,
2,1,0,1,0,22868.3,0.201201,0.200866,47.7111,12,0.0120211,10,0.00958352,-1.32138,-0.488911,-0.120676,-223.97,0.2008656,
2,1,0,1,0,22868.3,0.203609,0.203281,47.1476,12,0.0122108,10,0.00958421,-1.32654,-0.426165,-0.138444,-253.858,0.203281,
2,1,0,1,0,22868.3,0.206006,0.205705,46.4859,12,0.012398,10,0.0095624,-1.33268,-0.37433,-0.157615,-284.958,0.205705,
2,1,0,1,0,22868.3,0.208403,0.208085,45.7743,12,0.0125824,10,0.00952494,-1.33938,-0.335496,-0.175859,-313.094,0.208085,
2,1,0,1,0,22868.3,0.210803,0.210495,44.9671,12,0.0127639,10,0.00946536,-1.34711,-0.304359,-0.19385,-339.206,0.210495,
2,1,0,1,0,22868.3,0.213206,0.212938,44.124,12,0.012942,10,0.00939568,-1.35533,-0.279008,-0.211464,-363.196,0.212938,
2,1,0,1,0,22868.3,0.215603,0.215313,43.2271,12,0.0131166,10,0.00930734,-1.36424,-0.265803,-0.221969,-373.737,0.215313,
2,1,0,1,0,22868.3,0.218,0.217679,42.2896,12,0.0132875,10,0.00920557,-1.37377,-0.249976,-0.236022,-388.988,0.217679,
2,1,0,1,0,22868.3,0.220408,0.220123,41.369,12,0.0134548,10,0.00910624,-1.38333,-0.239423,-0.246426,-397.107,0.220123,
2,1,0,1,0,22868.3,0.222805,0.222536,40.3906,12,0.0136182,10,0.00898836,-1.39372,-0.233435,-0.252747,-397.934,0.222536,
2,1,0,1,0,22868.3,0.225202,0.224915,39.4141,12,0.0137777,10,0.0088648,-1.40435,-0.225058,-0.262155,-403.163,0.224915,
2,1,0,1,0,22868.3,0.227605,0.227313,38.456,12,0.0139333,10,0.00874155,-1.41504,-0.222969,-0.26461,-397.193,0.227313,
2,1,0,1,0,22868.3,0.230008,0.229705,37.5055,12,0.0140852,10,0.00861522,-1.42591,-0.222714,-0.264914,-387.961,0.229705,
2,1,0,1,0,22868.3,0.232405,0.23209,36.5957,12,0.0142333,10,0.0084935,-1.43657,-0.222045,-0.265712,-379.672,0.23209,
2,1,0,1,0,22868.3,0.234802,0.234495,35.6971,12,0.0143778,10,0.00837081,-1.44737,-0.225102,-0.262103,-365.443,0.234495,
2,1,0,1,0,22868.4,0.237207,0.236864,34.8297,12,0.0145187,10,0.00824991,-1.45805,-0.226873,-0.260057,-353.931,0.236864,
2,1,0,1,0,22868.4,0.239604,0.239288,34.0035,12,0.0146563,10,0.00813664,-1.46848,-0.233691,-0.25247,-335.569,0.239288,
2,1,0,1,0,22868.4,0.242002,0.241671,33.2047,12,0.0147906,10,0.00802463,-1.4788,-0.240642,-0.245178,-318.371,0.241671,
2,1,0,1,0,22868.4,0.244404,0.244117,32.4682,12,0.0149219,10,0.00792606,-1.48854,-0.244959,-0.240857,-305.654,0.244117,
2,1,0,1,0,22868.4,0.246807,0.246497,31.7629,12,0.0150503,10,0.00782946,-1.49808,-0.254078,-0.232212,-288.197,0.246497,
2,1,0,1,0,22868.4,0.249204,0.248872,31.0741,12,0.0151759,10,0.00773349,-1.5076,-0.261724,-0.225428,-273.94,0.248872,
2,1,0,1,0,22868.4,0.251601,0.251273,30.4375,12,0.0152988,10,0.00764812,-1.51659,-0.27188,-0.217007,-258.356,0.251273,
2,1,0,1,0,22868.4,0.254006,0.253698,29.8437,12,0.0154193,10,0.00757129,-1.52515,-0.285133,-0.206921,-241.446,0.2536982,
2,1,0,1,0,22868.4,0.256404,0.2561,29.2819,12,0.0155375,10,0.0074991,-1.5334,-0.297956,-0.198016,-226.663,0.2561,
2,1,0,1,0,22868.4,0.258801,0.258485,28.7532,12,0.0156535,10,0.00743227,-1.54131,-0.308627,-0.191169,-214.861,0.2584849,
2,1,0,1,0,22868.4,0.261203,0.260922,28.2505,12,0.0157675,10,0.00737117,-1.54897,-0.320202,-0.184259,-203.484,0.260922,
2,1,0,1,0,22868.4,0.263606,0.263309,27.7788,12,0.0158795,10,0.00731439,-1.55629,-0.335664,-0.175771,-190.898,0.263309,
2,1,0,1,0,22868.4,0.266003,0.265672,27.3341,12,0.0159897,10,0.00726192,-1.5633,-0.35548,-0.165973,-177.422,0.265672,
2,1,0,1,0,22868.4,0.2684,0.268067,26.924,12,0.0160981,10,0.00721744,-1.56986,-0.370651,-0.159179,-167.537,0.268067,
2,1,0,1,0,22868.4,0.270808,0.270512,26.549,12,0.016205,10,0.00718181,-1.57595,-0.385978,-0.152858,-158.494,0.270512,
2,1,0,1,0,22868.4,0.273205,0.272884,26.1745,12,0.0163105,10,0.00714261,-1.58212,-0.410736,-0.143645,-146.919,0.272884,
2,1,0,1,0,22868.4,0.275603,0.275249,25.8163,12,0.0164144,10,0.00710591,-1.58811,-0.423377,-0.139356,-140.687,0.275249,
2,1,0,1,0,22868.4,0.278008,0.277733,25.5038,12,0.016517,10,0.00708326,-1.59339,-0.442277,-0.133401,-132.931,0.277733,
2,1,0,1,0,22868.4,0.280405,0.280108,25.199,12,0.0166184,10,0.00705843,-1.59862,-0.465655,-0.126703,-124.661,0.280108,
2,1,0,1,0,22868.4,0.282802,0.282454,24.9023,12,0.0167185,10,0.00703378,-1.60376,-0.476386,-0.123849,-120.466,0.282454,
2,1,0,1,0,22868.4,0.285199,0.284893,24.614,12,0.0168175,10,0.00701237,-1.60882,-0.497346,-0.11863,-114.123,0.284893,
2,1,0,1,0,22868.4,0.287608,0.287295,24.352,12,0.0169154,10,0.0069962,-1.61347,-0.529329,-0.111462,-106.092,0.287295,
2,1,0,1,0,22868.4,0.290005,0.289658,24.1091,12,0.0170123,10,0.00698339,-1.61782,-0.558668,-0.105608,-99.4661,0.289658,
2,1,0,1,0,22868.4,0.292402,0.292065,23.8828,12,0.0171083,10,0.00697531,-1.62192,-0.579817,-0.101756,-94.887,0.292065,
2,1,0,1,0,22868.4,0.294807,0.2945,23.6585,12,0.0172034,10,0.00696742,-1.62601,-0.589222,-0.100132,-92.4994,0.2945,
2,1,0,1,0,22868.5,0.297204,0.296895,23.4411,12,0.0172975,10,0.00695953,-1.63002,-0.594583,-0.0992292,-91.1297,0.296895,
2,1,0,1,0,22868.5,0.299421,0.299089,23.2367,12,0.0173839,10,0.00694984,-1.63383,-0.0982932,-0.600245,-525.574,0.299089,
2,1,0,0,0,22868.5,0.300012,0.299727,23.1845,12,0.0174071,10,0.00694902,-1.6348,0.00155721,37.8882,29315,0.299727,
2,1,0,1,0,22868.5,0.299243,0.299071,21.2559,12,0.0174352,10,0.00635703,-1.67252,0.0196388,3.00425,2075.61,0.299071,
2,1,0,1,0,22868.5,0.296846,0.296662,16.6022,12,0.01751,10,0.00492523,-1.77984,0.0223958,2.63443,1629.78,0.296662,
2,1,0,1,0,22868.5,0.294449,0.294218,13.1264,12,0.0175689,10,0.00386202,-1.88186,0.0223711,2.63734,1382.72,0.294218,
2,1,0,1,0,22868.5,0.292041,0.291795,10.2571,12,0.0176152,10,0.00299298,-1.98897,0.020957,2.81529,1121.85,0.291795,
2,1,0,1,0,22868.5,0.289644,0.289351,7.81638,12,0.017651,10,0.00226168,-2.10699,0.018262,3.23076,957.926,0.2893512,
2,1,0,1,0,22868.5,0.287247,0.286959,5.71719,12,0.0176778,10,0.0016406,-2.24282,0.0147814,3.99151,827.358,0.286959,
2,1,0,1,0,22868.5,0.284841,0.28458,3.89386,12,0.0176968,10,0.00110812,-2.40962,0.0100121,5.89285,725.339,0.28458,
2,1,0,1,0,22868.5,0.282444,0.282163,2.28742,12,0.0177089,10,0.000645425,-2.64065,0.00850817,6.93451,640.372,0.282163,
2,1,0,1,0,22868.5,0.280047,0.279763,0.861685,12,0.017715,10,0.000241068,-3.06465,0.0245388,2.40436,568.731,0.279763,
2,0,0,1,0,22868.5,0.27765,0.277365,-0.426208,12,0.0177157,10,-0.000118215,-3.37038,-0.178073,-0.331324,507.102,0.277365,
2,0,0,1,0,22868.5,0.275242,0.274958,-1.57856,12,0.0177116,10,-0.000434037,-2.80174,-0.0156806,-3.76261,457.3,0.274958,
2,0,0,1,0,22868.5,0.272845,0.272544,-2.59038,12,0.0177031,10,-0.000705991,-2.58664,-0.00954069,-6.18404,409.57,0.272544,
2,0,0,1,0,22868.5,0.270448,0.270162,-3.52881,12,0.0176908,10,-0.00095335,-2.45237,-0.0187392,-3.14848,370.968,0.270162,
2,0,0,1,0,22868.5,0.268039,0.267712,-4.38017,12,0.0176749,10,-0.00117262,-2.35851,-0.0271938,-2.16962,338.961,0.267712,
2,0,0,1,0,22868.5,0.265642,0.26534,-5.14648,12,0.0176557,10,-0.00136557,-2.28849,-0.0361843,-1.63054,309.499,0.26534,
2,0,0,1,0,22868.5,0.263245,0.262913,-5.85478,12,0.0176336,10,-0.0015393,-2.23249,-0.0457245,-1.29034,283.426,0.262913,
2,0,0,1,0,22868.5,0.260843,0.260565,-6.49897,12,0.0176088,10,-0.00169341,-2.18716,-0.0558691,-1.05604,260.17,0.260565,
2,0,0,1,0,22868.5,0.258443,0.258138,-7.09352,12,0.0175816,10,-0.00183111,-2.14914,-0.066223,-0.890929,241.453,0.258138,
2,0,0,1,0,22868.5,0.256046,0.255745,-7.64298,12,0.017552,10,-0.00195465,-2.11674,-0.0776921,-0.759408,222.95,0.255745,
2,0,0,1,0,22868.5,0.253649,0.253361,-8.16117,12,0.0175203,10,-0.00206772,-2.08825,-0.0895642,-0.658745,206.95,0.253361,
2,0,0,1,0,22868.5,0.25124,0.250924,-8.64848,12,0.0174867,10,-0.00217011,-2.06306,-0.10164,-0.580479,193.373,0.250924,
2,0,0,1,0,22868.5,0.248843,0.248499,-9.08833,12,0.0174511,10,-0.00225844,-2.04152,-0.11469,-0.514432,180.744,0.248499,
2,0,0,1,0,22868.5,0.246446,0.246164,-9.49563,12,0.0174139,10,-0.00233748,-2.02248,-0.128506,-0.459124,169.028,0.246164,
2,0,0,1,0,22868.5,0.244041,0.24374,-9.90012,12,0.0173751,10,-0.00241305,-2.00436,-0.141956,-0.415622,159.44,0.24374,
2,0,0,1,0,22868.6,0.241644,0.241365,-10.2643,12,0.0173347,10,-0.00247744,-1.98867,-0.156813,-0.376244,149.778,0.241365,
2,0,0,1,0,22868.6,0.239246,0.238954,-10.6101,12,0.0172929,10,-0.00253534,-1.97428,-0.172968,-0.341104,140.605,0.238954,
2,0,0,1,0,22868.6,0.236849,0.236527,-10.939,12,0.0172498,10,-0.00258738,-1.96102,-0.187198,-0.315174,134.021,0.236527,
2,0,0,1,0,22868.6,0.234441,0.234119,-11.2529,12,0.0172053,10,-0.00263451,-1.94874,-0.201597,-0.292662,128.085,0.234119,
2,0,0,1,0,22868.6,0.232044,0.231752,-11.5526,12,0.0171597,10,-0.00267734,-1.93732,-0.21495,-0.274483,123.428,0.231752,
2,0,0,1,0,22868.6,0.229647,0.229347,-11.8407,12,0.0171129,10,-0.00271563,-1.92662,-0.230728,-0.255712,117.836,0.229347,
2,0,0,1,0,22868.6,0.227239,0.226913,-12.1256,12,0.0170649,10,-0.00275147,-1.9163,-0.251232,-0.234843,110.687,0.226913,
2,0,0,1,0,22868.6,0.224842,0.224552,-12.3802,12,0.0170159,10,-0.00278,-1.90727,-0.26777,-0.220338,106.127,0.2245519,
2,0,0,1,0,22868.6,0.222445,0.222137,-12.6168,12,0.0169658,10,-0.00280267,-1.89905,-0.279276,-0.21126,104.011,0.222137,
2,0,0,1,0,22868.6,0.220047,0.219775,-12.8566,12,0.0169149,10,-0.00282555,-1.89087,-0.2983,-0.197787,99.2077,0.219775,
2,0,0,1,0,22868.6,0.217642,0.217373,-13.1179,12,0.0168629,10,-0.00285149,-1.88213,-0.307106,-0.192116,98.0794,0.217373,
2,0,0,1,0,22868.6,0.215245,0.214914,-13.3364,12,0.01681,10,-0.00286617,-1.87496,-0.320434,-0.184125,95.6608,0.214914,
2,0,0,1,0,22868.6,0.212848,0.212551,-13.557,12,0.0167561,10,-0.00288156,-1.86784,-0.350556,-0.168304,88.9531,0.212551,
2,0,0,1,0,22868.6,0.21044,0.210132,-13.779,12,0.0167015,10,-0.00289541,-1.86078,-0.348155,-0.169465,91.0432,0.210132,
2,0,0,1,0,22868.6,0.208043,0.207722,-13.9764,12,0.0166459,10,-0.00290321,-1.8546,-0.366156,-0.161134,87.8821,0.207722,
2,0,0,1,0,22868.6,0.205645,0.205379,-14.2045,12,0.0165895,10,-0.0029173,-1.84757,-0.381674,-0.154582,85.5875,0.205379,
2,0,0,1,0,22868.6,0.203246,0.202943,-14.4014,12,0.0165323,10,-0.00292267,-1.84159,-0.385727,-0.152958,85.8599,0.202943,
2,0,0,1,0,22868.6,0.200843,0.200507,-14.6028,12,0.0164743,10,-0.00292796,-1.83557,-0.41437,-0.142385,81.0861,0.200507,
2,0,0,1,0,22868.6,0.198446,0.198156,-14.7977,12,0.0164154,10,-0.00293226,-1.8298,-0.403573,-0.146194,84.4655,0.198156,
2,0,0,1,0,22868.6,0.196049,0.195731,-14.9868,12,0.0163558,10,-0.00293338,-1.82429,-0.414331,-0.142398,83.3476,0.1957311,
2,0,0,1,0,22868.6,0.19364,0.193317,-15.2145,12,0.0162954,10,-0.00294122,-1.81774,-0.429476,-0.137377,81.4141,0.193317,
2,0,0,1,0,22868.6,0.191243,0.190945,-15.3997,12,0.0162342,10,-0.0029405,-1.81249,-0.425563,-0.13864,83.2224,0.190945,
2,0,0,1,0,22868.6,0.188846,0.188553,-15.5796,12,0.0161722,10,-0.00293758,-1.80744,-0.451064,-0.130802,79.5979,0.188553,
2,0,0,1,0,22868.6,0.186444,0.186172,-15.7823,12,0.0161095,10,-0.00293822,-1.80183,-0.447706,-0.131783,81.1997,0.186172,
2,0,0,1,0,22868.6,0.184041,0.183734,-15.9773,12,0.0160459,10,-0.00293557,-1.7965,-0.438387,-0.134584,83.9265,0.183734,
2,0,0,1,0,22868.7,0.181644,0.181298,-16.1831,12,0.0159816,10,-0.00293396,-1.79094,-0.448413,-0.131575,83.0885,0.181298,
2,0,0,1,0,22868.7,0.179247,0.178962,-16.3845,12,0.0159164,10,-0.00293221,-1.78557,-0.438755,-0.134471,86.0008,0.178962,
2,0,0,1,0,22868.7,0.176841,0.176497,-16.5862,12,0.0158504,10,-0.00292741,-1.78025,-0.435352,-0.135523,87.7932,0.176497,
2,0,0,1,0,22868.7,0.174444,0.174117,-16.8043,12,0.0157836,10,-0.00292592,-1.77458,-0.425085,-0.138796,91.1045,0.174117,
2,0,0,1,0,22868.7,0.172047,0.171739,-17.0223,12,0.015716,10,-0.00292339,-1.76898,-0.408027,-0.144598,96.1775,0.1717394,
2,0,0,1,0,22868.7,0.169644,0.169341,-17.2611,12,0.0156474,10,-0.002923,-1.76293,-0.404818,-0.145744,98.231,0.169341,
2,0,0,1,0,22868.7,0.167242,0.16691,-17.5082,12,0.0155778,10,-0.0029223,-1.75676,-0.393733,-0.149848,102.397,0.16691,
2,0,0,1,0,22868.7,0.164845,0.164549,-17.7442,12,0.0155073,10,-0.00291979,-1.75094,-0.380154,-0.1552,107.657,0.1645488,
2,0,0,1,0,22868.7,0.162448,0.162131,-18.0061,12,0.0154358,10,-0.00291935,-1.74458,-0.368913,-0.159929,112.613,0.162131,
2,0,0,1,0,22868.7,0.160042,0.159719,-18.2969,12,0.0153631,10,-0.00292236,-1.73762,-0.347696,-0.169689,121.337,0.159719,
2,0,0,1,0,22868.7,0.157645,0.157326,-18.5875,12,0.0152893,10,-0.0029243,-1.73078,-0.328173,-0.179783,130.691,0.157326,
2,0,0,1,0,22868.7,0.155248,0.154919,-18.9127,12,0.0152143,10,-0.00292993,-1.72325,-0.31686,-0.186202,137.7,0.154919,
2,0,0,1,0,22868.7,0.152845,0.152528,-19.2612,12,0.0151379,10,-0.00293787,-1.71532,-0.299126,-0.197241,148.482,0.152528,
2,0,0,1,0,22868.7,0.150443,0.150138,-19.6162,12,0.0150601,10,-0.00294514,-1.70738,-0.284675,-0.207254,159.038,0.150138,
2,0,0,1,0,22868.7,0.148046,0.147758,-20.0082,12,0.0149809,10,-0.00295638,-1.69879,-0.269802,-0.218679,171.288,0.147758,
2,0,0,1,0,22868.7,0.145648,0.145368,-20.4316,12,0.0148999,10,-0.00297011,-1.6897,-0.252408,-0.233748,187.005,0.145368,
2,0,0,1,0,22868.7,0.14324,0.142948,-20.9021,12,0.0148172,10,-0.00298791,-1.67981,-0.239337,-0.246514,201.645,0.1429483,
2,0,0,1,0,22868.7,0.140843,0.140553,-21.4087,12,0.0147325,10,-0.00300905,-1.66941,-0.225662,-0.261453,219.07,0.140553,
2,0,0,1,0,22868.7,0.138446,0.138175,-21.9405,12,0.0146458,10,-0.00303164,-1.65875,-0.213032,-0.276954,238.022,0.138175,
2,0,0,1,0,22868.7,0.136041,0.135733,-22.5423,12,0.0145568,10,-0.00305975,-1.647,-0.204224,-0.288898,254.874,0.135733,
2,0,0,1,0,22868.7,0.133644,0.133377,-23.1802,12,0.0144653,10,-0.00309171,-1.63488,-0.195715,-0.301458,273.321,0.133377,
2,0,0,1,0,22868.7,0.131246,0.130988,-23.8465,12,0.0143712,10,-0.0031236,-1.62258,-0.186916,-0.31565,294.731,0.130988,
2,0,0,1,0,22868.7,0.128849,0.128545,-24.5728,12,0.0142743,10,-0.0031587,-1.60955,-0.182469,-0.323343,311.038,0.128545,
2,0,0,1,0,22868.7,0.126441,0.126161,-25.3636,12,0.0141743,10,-0.0031999,-1.59579,-0.176269,-0.334715,331.907,0.126161,
2,0,0,1,0,22868.7,0.124044,0.123742,-26.177,12,0.0140712,10,-0.0032392,-1.58208,-0.173259,-0.34053,348.272,0.123742,
2,0,0,1,0,22868.8,0.121647,0.121375,-27.037,12,0.0139647,10,-0.00328162,-1.56804,-0.174044,-0.338994,357.895,0.1213754,
2,0,0,1,0,22868.8,0.119241,0.118963,-27.9099,12,0.0138547,10,-0.00332024,-1.55424,-0.174161,-0.338767,369,0.118963,
2,0,0,1,0,22868.8,0.116844,0.116521,-28.8138,12,0.0137412,10,-0.0033574,-1.5404,-0.178456,-0.330614,371.472,0.116521,
2,0,0,1,0,22868.8,0.114447,0.114146,-29.7182,12,0.013624,10,-0.0033922,-1.52698,-0.180496,-0.326876,378.796,0.114146,
2,0,0,1,0,22868.8,0.11205,0.111737,-30.6172,12,0.0135033,10,-0.00342109,-1.51403,-0.184033,-0.320594,382.882,0.111737,
2,0,0,1,0,22868.8,0.109642,0.10935,-31.5511,12,0.0133788,10,-0.00345012,-1.50099,-0.191038,-0.30884,379.701,0.10935,
2,0,0,1,0,22868.8,0.107245,0.106992,-32.4622,12,0.0132507,10,-0.0034732,-1.48862,-0.199138,-0.296277,374.326,0.106992,
2,0,0,1,0,22868.8,0.104848,0.104563,-33.3568,12,0.013119,10,-0.00348788,-1.47682,-0.2092,-0.282026,366.187,0.104563,
2,0,0,1,0,22868.8,0.10244,0.102178,-34.1956,12,0.0129837,10,-0.00349403,-1.46603,-0.217254,-0.271571,362.107,0.102178,
2,0,0,1,0,22868.8,0.100042,0.0997961,-35.0497,12,0.0128452,10,-0.00349782,-1.45532,-0.22699,-0.259923,355.426,0.0997961,
2,0,0,1,0,22868.8,0.0976454,0.0974219,-35.9276,12,0.0127032,10,-0.00350013,-1.44457,-0.236049,-0.249948,349.687,0.0974219,
2,0,0,1,0,22868.8,0.0952427,0.0949458,-36.7749,12,0.0125577,10,-0.00349162,-1.43445,-0.246891,-0.238972,341.974,0.0949458,
2,0,0,1,0,22868.8,0.0928428,0.0925769,-37.5529,12,0.0124089,10,-0.00347653,-1.42536,-0.265063,-0.222589,325.586,0.0925769,
2,0,0,1,0,22868.8,0.0904457,0.090191,-38.3344,12,0.0122571,10,-0.00345742,-1.41641,-0.279871,-0.210811,314.823,0.090191,
2,0,0,1,0,22868.8,0.0880486,0.087751,-39.0763,12,0.0121022,10,-0.00342898,-1.40809,-0.296634,-0.198898,302.638,0.087751,
2,0,0,1,0,22868.8,0.0856404,0.0853491,-39.7962,12,0.0119443,10,-0.00339657,-1.40016,-0.319403,-0.18472,286.103,0.08534915,
2,0,0,1,0,22868.8,0.0832433,0.0829749,-40.4589,12,0.0117837,10,-0.00335707,-1.39299,-0.340893,-0.173075,272.642,0.0829749,
2,0,0,1,0,22868.8,0.0808462,0.0806282,-41.0703,12,0.0116206,10,-0.00331143,-1.38647,-0.369433,-0.159704,255.561,0.0806282,
2,0,0,1,0,22868.8,0.0784408,0.078201,-41.6801,12,0.0114551,10,-0.00325942,-1.38007,-0.398047,-0.148224,240.632,0.078201,
2,0,0,1,0,22868.8,0.0760437,0.0758108,-42.2338,12,0.0112871,10,-0.00320178,-1.37434,-0.430668,-0.136996,225.341,0.0758108,
2,0,0,1,0,22868.8,0.0736466,0.0734185,-42.7584,12,0.0111171,10,-0.00313926,-1.36898,-0.469629,-0.125631,209.263,0.07341852,
2,0,0,1,0,22868.8,0.0712495,0.0709891,-43.2424,12,0.010945,10,-0.00306974,-1.36409,-0.517909,-0.11392,191.857,0.0709891,
2,0,0,1,0,22868.8,0.0688413,0.0685619,-43.6972,12,0.0107711,10,-0.00299596,-1.35955,-0.577707,-0.102128,173.747,0.0685619,
2,0,0,1,0,22868.8,0.0664442,0.0661547,-44.0864,12,0.0105955,10,-0.00291652,-1.3557,-0.647315,-0.0911457,156.484,0.0661547,
2,0,0,1,0,22868.8,0.0640471,0.0637582,-44.4369,12,0.0104184,10,-0.00283322,-1.35226,-0.758434,-0.0777918,134.628,0.0637582,
2,0,0,1,0,22868.9,0.0616389,0.0613596,-44.7493,12,0.01024,10,-0.0027458,-1.34921,-0.878718,-0.0671432,116.992,0.0613596,
2,0,0,1,0,22868.9,0.0592417,0.0589016,-44.9977,12,0.0100604,10,-0.00265043,-1.34681,-1.05673,-0.0558327,97.8469,0.0589016,
2,0,0,1,0,22868.9,0.0568446,0.0565368,-45.2116,12,0.00988,10,-0.00255612,-1.34475,-1.27068,-0.046432,81.8003,0.05653685,
2,0,0,1,0,22868.9,0.0544475,0.0541562,-45.3764,12,0.00969881,10,-0.00245742,-1.34317,-1.56787,-0.0376306,66.548,0.05415624,
2,0,0,1,0,22868.9,0.0520421,0.051747,-45.5356,12,0.00951695,10,-0.00235633,-1.34165,-2.01212,-0.0293224,52.023,0.051747,
2,0,0,1,0,22868.9,0.049645,0.0493812,-45.6313,12,0.00933459,10,-0.00225333,-1.34074,-2.62605,-0.0224672,39.9559,0.04938123,
2,0,0,1,0,22868.9,0.0472479,0.0469571,-45.7099,12,0.0091519,10,-0.00214641,-1.33999,-4.17973,-0.0141158,25.1517,0.0469571,
2,0,0,1,0,22868.9,0.0448397,0.0445097,-45.7619,12,0.00896894,10,-0.00203685,-1.3395,-6.5547,-0.00900118,16.0569,0.04450972,
2,0,0,1,0,22868.9,0.0424426,0.0421461,-45.7771,12,0.00878586,10,-0.00192932,-1.33935,-14.4324,-0.00408801,7.29829,0.0421461,
2,0,0,1,0,22868.9,0.0400455,0.0397336,-45.7862,12,0.00860272,10,-0.00181925,-1.33927,43.8946,0.00134413,-2.39993,0.0397336,
2,0,0,1,0,22868.9,0.0376456,0.0373032,-45.7804,12,0.00841959,10,-0.00170776,-1.33932,12.2072,0.00483323,-8.6269,0.0373032,
2,0,0,1,0,22868.9,0.035243,0.0349099,-45.7388,12,0.00823653,10,-0.00159674,-1.33972,5.92251,0.00996199,-17.7679,0.0349099,
2,0,0,1,0,22868.9,0.0328459,0.0325165,-45.694,12,0.00805364,10,-0.00148581,-1.34014,4.85797,0.012145,-21.6499,0.0325165,
2,0,0,1,0,22868.9,0.0304488,0.0301698,-45.6162,12,0.00787101,10,-0.00137623,-1.34088,4.10207,0.014383,-25.6053,0.0301698,
2,0,0,1,0,22868.9,0.0280406,0.0277341,-45.5732,12,0.00768865,10,-0.00126393,-1.34129,3.28823,0.0179428,-31.8905,0.0277341,
2,0,0,1,0,22868.9,0.0256435,0.0253259,-45.4934,12,0.00750653,10,-0.00115216,-1.34205,3.14688,0.0187487,-33.2601,0.0253259,
2,0,0,1,0,22868.9,0.0232463,0.0229644,-45.3894,12,0.00732478,10,-0.00104234,-1.34305,2.55976,0.0230491,-40.8174,0.0229644,
2,0,0,1,0,22868.9,0.0208437,0.0205265,-45.2955,12,0.00714342,10,-0.000929758,-1.34394,2.29337,0.0257263,-45.4561,0.0205265,
2,0,0,1,0,22868.9,0.018441,0.0180982,-45.1799,12,0.00696248,10,-0.000817674,-1.34505,2.22836,0.0264768,-46.6681,0.0180982,
2,0,0,1,0,22868.9,0.0160439,0.0156985,-45.0558,12,0.00678202,10,-0.000707307,-1.34625,2.01935,0.0292174,-51.3676,0.0156985,
2,0,0,1,0,22868.9,0.0136468,0.0133136,-44.939,12,0.00660203,10,-0.000598301,-1.34738,1.86674,0.0316059,-55.4003,0.0133136,
2,0,0,1,0,22868.9,0.0112414,0.0109415,-44.8031,12,0.00642254,10,-0.000490213,-1.34869,1.71304,0.0344417,-60.175,0.0109415,
2,0,0,1,0,22868.9,0.00884431,0.00851316,-44.6489,12,0.00624364,10,-0.000380103,-1.35019,1.56095,0.0377975,-65.8233,0.00851316,
2,0,0,1,0,22868.9,0.0064472,0.00615164,-44.4813,12,0.0060654,10,-0.000273633,-1.35182,1.64759,0.0358098,-62.1919,0.00615164,
2,0,0,1,0,22868.9,0.00404455,0.00371589,-44.3073,12,0.00588784,10,-0.000164641,-1.35353,1.4642,0.0402951,-69.6846,0.00371589,
2,0,0,1,0,22869,0.0016419,0.00124302,-44.2,12,0.00571088,10,-5.49414e-05,-1.35458,1.33809,0.0440927,-75.9095,0.00124302,
2,0,0,1,0,22869,-0.000755207,-0.00113441,-43.9766,12,0.00553454,10,4.98877e-05,-1.35678,1.24276,0.0474749,-81.3639,-0.00113441,
2,0,0,1,0,22869,-0.00315231,-0.00352775,-43.7466,12,0.0053591,10,0.000154327,-1.35906,1.0328,0.0571264,-97.4991,-0.00352775,
2,0,0,1,0,22869,-0.00555774,-0.00592003,-43.5232,12,0.00518457,10,0.000257659,-1.36128,0.987189,0.0597657,-101.442,-0.00592003,
2,0,0,1,0,22869,-0.00795485,-0.00832185,-43.2674,12,0.00501101,10,0.000360065,-1.36384,0.94908,0.0621655,-104.906,-0.00832185,
2,0,0,1,0,22869,-0.010352,-0.0106696,-43.0094,12,0.00483848,10,0.000458892,-1.36644,0.877877,0.0672076,-112.732,-0.0106696,
2,0,0,1,0,22869,-0.0127546,-0.0131414,-42.738,12,0.00466701,10,0.000561638,-1.36919,0.831348,0.070969,-118.262,-0.0131414,
2,0,0,1,0,22869,-0.0151573,-0.0155167,-42.4414,12,0.00449666,10,0.000658551,-1.37221,0.794555,0.0742554,-122.912,-0.0155167,
2,0,0,1,0,22869,-0.0175544,-0.0179037,-42.1342,12,0.00432754,10,0.000754358,-1.37536,0.756829,0.0779569,-128.159,-0.0179037,
2,0,0,1,0,22869,-0.0199515,-0.0203235,-41.8228,12,0.00415966,10,0.000849987,-1.37859,0.741616,0.079556,-129.829,-0.0203235,
2,0,0,1,0,22869,-0.0223597,-0.0226745,-41.5163,12,0.00399299,10,0.000941359,-1.38178,0.714283,0.0826003,-133.741,-0.02267446,
2,0,0,1,0,22869,-0.0247568,-0.0251155,-41.1952,12,0.0038276,10,0.00103464,-1.38515,0.702796,0.0839504,-134.899,-0.0251155,
2,0,0,1,0,22869,-0.0271539,-0.0275248,-40.8475,12,0.00366354,10,0.00112432,-1.38883,0.698044,0.0845219,-134.79,-0.0275248,
2,0,0,1,0,22869,-0.0295593,-0.0298927,-40.5319,12,0.00350082,10,0.00121161,-1.3922,0.692506,0.0851978,-134.816,-0.0298927,
2,0,0,1,0,22869,-0.0319564,-0.0323242,-40.2156,12,0.00333935,10,0.00129994,-1.39561,0.709991,0.0830996,-130.437,-0.0323242,
2,0,0,1,0,22869,-0.0343535,-0.0346921,-39.9041,12,0.00317915,10,0.00138436,-1.39898,0.72157,0.0817662,-127.376,-0.0346921,
2,0,0,1,0,22869,-0.0367506,-0.0371024,-39.5982,12,0.00302018,10,0.00146919,-1.40232,0.73246,0.0805505,-124.533,-0.0371024,
2,0,0,1,0,22869,-0.0391588,-0.0395084,-39.3071,12,0.00286237,10,0.00155296,-1.40553,0.758672,0.0777675,-119.363,-0.0395084,
2,0,0,1,0,22869,-0.0415559,-0.0419325,-39.019,12,0.00270576,10,0.00163617,-1.40872,0.801674,0.073596,-112.174,-0.0419325,
2,0,0,1,0,22869,-0.043953,-0.0442909,-38.7584,12,0.00255023,10,0.00171664,-1.41163,0.842127,0.0700607,-106.076,-0.0442909,
2,0,0,1,0,22869,-0.0463585,-0.0467468,-38.5164,12,0.0023957,10,0.00180052,-1.41435,0.896311,0.0658254,-99.0149,-0.0467468,
2,0,0,1,0,22869,-0.0487556,-0.0491147,-38.2881,12,0.00224212,10,0.00188051,-1.41694,0.943678,0.0625213,-93.4716,-0.0491147,
2,0,0,1,0,22869,-0.0511527,-0.0515122,-38.0705,12,0.00208941,10,0.0019611,-1.41941,1.02423,0.0576043,-85.6664,-0.0515122,
2,0,0,1,0,22869,-0.0535498,-0.0538928,-37.8609,12,0.00193758,10,0.00204043,-1.42181,1.13147,0.0521444,-77.1575,-0.0538928,
2,0,0,1,0,22869,-0.055958,-0.0562968,-37.6983,12,0.00178647,10,0.00212229,-1.42368,1.23776,0.0476669,-70.1913,-0.0562968,
2,0,0,1,0,22869.1,-0.0583551,-0.0587644,-37.5435,12,0.00163601,10,0.00220622,-1.42546,1.42774,0.041324,-60.5908,-0.0587644,
2,0,0,1,0,22869.1,-0.0607522,-0.061146,-37.3943,12,0.00148616,10,0.00228651,-1.42719,1.53119,0.0385322,-56.282,-0.061146,
2,0,0,1,0,22869.1,-0.0631604,-0.0634715,-37.2805,12,0.00133681,10,0.00236625,-1.42852,1.74935,0.0337267,-49.1067,-0.0634715,
2,0,0,1,0,22869.1,-0.0655575,-0.0659232,-37.1565,12,0.00118795,10,0.00244947,-1.42997,2.19287,0.0269054,-39.0682,-0.0659232,
2,0,0,1,0,22869.1,-0.0679546,-0.0683345,-37.0736,12,0.00103951,10,0.00253341,-1.43094,2.54253,0.0232053,-33.6151,-0.06833452,
2,0,0,1,0,22869.1,-0.0703573,-0.0707395,-37.0195,12,0.000891344,10,0.00261874,-1.43157,3.36413,0.017538,-25.3484,-0.0707395,
2,0,0,1,0,22869.1,-0.0727571,-0.0731286,-36.9559,12,0.000743399,10,0.00270253,-1.43232,4.08031,0.0144597,-20.8648,-0.0731286,
2,0,0,1,0,22869.1,-0.0751543,-0.0755304,-36.913,12,0.000595671,10,0.00278805,-1.43282,5.39252,0.0109411,-15.7748,-0.0755304,
2,0,0,1,0,22869.1,-0.0775514,-0.0779132,-36.8737,12,0.000448105,10,0.00287295,-1.43328,11.2232,0.00525696,-7.57454,-0.0779132,
2,0,0,1,0,22869.1,-0.0799595,-0.0803288,-36.8682,12,0.000300627,10,0.00296158,-1.43335,24.8991,0.00236956,-3.41207,-0.0803288,
2,0,0,1,0,22869.1,-0.0823567,-0.0826871,-36.8834,12,0.000153119,10,0.00304979,-1.43317,-15.8682,-0.00371814,5.35437,-0.08268714,
2,0,0,1,0,22869.1,-0.0847538,-0.0850996,-36.8803,12,5.59206e-06,10,0.0031385,-1.43321,-8.63884,-0.00682962,9.83941,-0.0850996,
2,0,0,1,0,22869.1,-0.0871592,-0.0875024,-36.9251,12,-0.000142002,10,0.00323103,-1.43268,-6.69411,-0.00881372,12.7078,-0.08750245,
2,0,0,1,0,22869.1,-0.0895563,-0.0899424,-36.9628,12,-0.000289774,10,0.00332453,-1.43223,-3.95745,-0.0149086,21.5181,-0.08994244,
2,0,0,1,0,22869.1,-0.0919534,-0.0922828,-37.0054,12,-0.000437711,10,0.00341496,-1.43174,-3.37592,-0.0174767,25.268,-0.0922828,
2,0,0,1,0,22869.1,-0.0943505,-0.0946697,-37.0862,12,-0.000585894,10,0.00351094,-1.43079,-2.88566,-0.0204459,29.6066,-0.0946697,
2,0,0,1,0,22869.1,-0.0967587,-0.0971235,-37.1682,12,-0.000734416,10,0.0036099,-1.42983,-2.53408,-0.0232826,33.7471,-0.0971235,
2,0,0,1,0,22869.1,-0.0991558,-0.0994808,-37.2452,12,-0.000883245,10,0.00370518,-1.42893,27.5274,0.00214332,-3.10139,-0.0994808,
2,0,0,1,0,22869.1,-0.0999548,-0.100267,-37.2748,12,-0.000931678,10,0.00373742,-1.42858,0.0206601,2.85575,-3849.87,-0.100267,
2,0,0,1,1,22869.1,-0.0999548,-0.100515,-37.0681,12,-0.000953948,10,0.00372589,-1.431,-0.0264163,-2.23347,2798.46,-0.100515,
2,0,0,1,1,22869.1,-0.0979573,-0.0984543,-32.0448,12,-0.0010591,10,0.00315495,-1.49424,-0.033832,-1.74391,2037.53,-0.0984543,
2,0,0,1,1,22869.1,-0.0955546,-0.0959846,-27.4613,12,-0.0011774,10,0.00263587,-1.56128,-0.0355781,-1.65832,1801.6,-0.0959846,
2,0,0,1,1,22869.1,-0.093152,-0.0935712,-23.6328,12,-0.00127906,10,0.00221135,-1.62649,-0.0359638,-1.64054,1530.46,-0.0935712,
2,0,0,1,1,22869.1,-0.0907548,-0.091198,-20.2831,12,-0.00136647,10,0.00184978,-1.69287,-0.034897,-1.69069,1340.17,-0.09119796,
2,0,0,1,1,22869.1,-0.0883577,-0.0888036,-17.2747,12,-0.00144121,10,0.00153406,-1.76259,-0.0327289,-1.80269,1208.83,-0.08880356,
2,0,0,1,1,22869.1,-0.0859523,-0.0863318,-14.5248,12,-0.00150447,10,0.00125396,-1.83789,-0.030061,-1.96267,1099.35,-0.0863318,
2,0,0,1,1,22869.2,-0.0835552,-0.0839713,-12.0282,12,-0.00155724,10,0.00101002,-1.9198,-0.0267564,-2.20508,1010.7,-0.0839713,
2,0,0,1,1,22869.2,-0.0811581,-0.081579,-9.70853,12,-0.00160042,10,0.000792012,-2.01285,-0.0228312,-2.58418,939.342,-0.081579,
2,0,0,1,1,22869.2,-0.0787555,-0.0791751,-7.54316,12,-0.00163467,10,0.00059723,-2.12245,-0.0185082,-3.18778,873,-0.0791751,
2,0,0,1,1,22869.2,-0.0763528,-0.0767552,-5.5292,12,-0.00166058,10,0.000424395,-2.25734,-0.0135273,-4.36155,811.646,-0.0767552,
2,0,0,1,1,22869.2,-0.0739557,-0.0743619,-3.63916,12,-0.00167869,10,0.000270615,-2.439,-0.00624351,-9.44981,762.742,-0.0743619,
2,0,0,1,1,22869.2,-0.0715586,-0.0719335,-1.87982,12,-0.00168952,10,0.000135222,-2.72588,-0.0154936,-3.80802,720.141,-0.0719335,
2,0,0,1,1,22869.2,-0.0691532,-0.069572,-0.218509,12,-0.00169353,10,1.52021e-05,-3.66053,-0.0852036,-0.692459,677.033,-0.069572,
2,1,0,1,1,22869.2,-0.0667561,-0.0672169,1.33977,12,-0.0016911,10,-9.00551e-05,-2.87297,0.0271358,2.17425,639.945,-0.0672169,
2,1,0,1,1,22869.2,-0.0643589,-0.064832,2.81289,12,-0.00168261,10,-0.000182365,-2.55085,0.0068069,8.66767,602.569,-0.064832,
2,1,0,1,1,22869.2,-0.0619563,-0.0623994,4.22149,12,-0.00166836,10,-0.000263418,-2.37453,0.0136036,4.33707,567.445,-0.0623994,
2,1,0,1,1,22869.2,-0.0595536,-0.0600146,5.54051,12,-0.00164867,10,-0.000332511,-2.25645,0.0212844,2.77198,534.947,-0.0600146,
2,1,0,1,1,22869.2,-0.0571565,-0.0576446,6.77152,12,-0.00162391,10,-0.000390341,-2.16931,0.0288527,2.04487,506.971,-0.0576446,
2,1,0,1,1,22869.2,-0.0547594,-0.0552268,7.95114,12,-0.00159433,10,-0.000439116,-2.09957,0.0363768,1.62191,482.633,-0.0552268,
2,1,0,1,1,22869.2,-0.0523512,-0.0527709,9.10286,12,-0.00156009,10,-0.000480366,-2.04082,0.0442005,1.33483,458.458,-0.0527709,
2,1,0,1,1,22869.2,-0.0499541,-0.0504105,10.1758,12,-0.00152141,10,-0.000512965,-1.99243,0.0520639,1.13322,438.13,-0.0504105,
2,1,0,1,1,22869.2,-0.047557,-0.0479864,11.1994,12,-0.00147853,10,-0.000537418,-1.95081,0.0607803,0.970709,415.683,-0.0479864,
2,1,0,1,1,22869.2,-0.0451544,-0.0456227,12.159,12,-0.0014317,10,-0.000554726,-1.9151,0.0700148,0.842679,393.535,-0.0456227,
2,1,0,1,1,22869.2,-0.0427545,-0.0431976,13.0823,12,-0.0013811,10,-0.000565125,-1.88331,0.0796681,0.740572,373.098,-0.0431976,
2,1,0,1,1,22869.2,-0.0403574,-0.0408064,13.9553,12,-0.00132692,10,-0.000569466,-1.85526,0.0893796,0.660106,355.625,-0.0408064,
2,1,0,1,1,22869.2,-0.0379603,-0.038378,14.7842,12,-0.00126935,10,-0.00056739,-1.8302,0.100404,0.587624,335.776,-0.038378,
2,1,0,1,1,22869.2,-0.0355521,-0.0359698,15.5918,12,-0.00120849,10,-0.000560834,-1.8071,0.112112,0.526259,317.007,-0.0359698,
2,1,0,1,1,22869.2,-0.033155,-0.0335553,16.32,12,-0.00114458,10,-0.000547622,-1.78728,0.123029,0.479562,303.176,-0.0335553,
2,1,0,1,1,22869.2,-0.0307579,-0.0311524,17.0157,12,-0.00107783,10,-0.00053008,-1.76915,0.137214,0.429986,283.876,-0.0311524,
2,1,0,1,1,22869.2,-0.0283524,-0.028757,17.7011,12,-0.00100834,10,-0.00050903,-1.752,0.149553,0.39451,270.773,-0.028757,
2,1,0,1,1,22869.2,-0.0259553,-0.0263795,18.3143,12,-0.000936208,10,-0.000483121,-1.73721,0.163912,0.35995,255.883,-0.0263795,
2,1,0,1,1,22869.3,-0.0235582,-0.0239629,18.9174,12,-0.000861667,10,-0.000453314,-1.72314,0.180417,0.32702,240.354,-0.0239629,
2,1,0,1,1,22869.3,-0.0211611,-0.021561,19.47,12,-0.000784827,10,-0.000419793,-1.71063,0.194269,0.303703,229.941,-0.021561,
2,1,0,1,1,22869.3,-0.0187529,-0.0191444,20.0115,12,-0.00070577,10,-0.000383108,-1.69872,0.210782,0.27991,217.882,-0.0191444,
2,1,0,1,1,22869.3,-0.0163558,-0.0167521,20.528,12,-0.000624631,10,-0.000343887,-1.68765,0.227206,0.259677,207.245,-0.0167521,
2,1,0,1,1,22869.3,-0.0139587,-0.0143598,21.0097,12,-0.000541509,10,-0.000301695,-1.67758,0.246171,0.239671,195.833,-0.0143598,
2,1,0,1,1,22869.3,-0.0115505,-0.0119495,21.4619,12,-0.000456524,10,-0.000256459,-1.66833,0.26975,0.218721,182.614,-0.0119495,
2,1,0,1,1,22869.3,-0.0091534,-0.00955298,21.8899,12,-0.000369772,10,-0.000209113,-1.65976,0.290192,0.203314,173.235,-0.00955298,
2,1,0,1,1,22869.3,-0.00675629,-0.00714268,22.2828,12,-0.000281369,10,-0.000159159,-1.65203,0.310195,0.190203,165.128,-0.00714268,
2,1,0,1,1,22869.3,-0.00435919,-0.00473662,22.6768,12,-0.000191421,10,-0.000107411,-1.64442,0.34749,0.169789,149.49,-0.00473662,
2,1,0,1,1,22869.3,-0.00195376,-0.0023454,23.0478,12,-9.99093e-05,10,-5.40563e-05,-1.63737, , , ,-0.002345399,
2,1,0,0,1,22869.3,-7.54729e-05,-0.000497109,23.2436,12,-2.80815e-05,10,-1.15546e-05,-1.6337, , , ,-0.000497109,