File: Figure_codes/Fig_3-5/rawdata_trumpetplot_data/after 10th/20221101_1-115_003_TrumpetPlot_ParaChange_from10_every3_04_CV_C01_18.csv
mode,ox/red,error,control changes,counter inc.,time/s,control/V,Ewe/V,<I>/mA,cycle number,(Q-Qo)/C,I Range,P/W,log(|I|),Tafel slope mV/dec,alpha_eff,dI/d(E-IR),E-IR/V,
2,0,0,1,0,36522.4,2.44065e-05,-0.000325324,-0.390061,19,0.0000000E+000,10,1.26896e-07,-3.40887, , , ,-0.000325324,
2,1,0,1,0,36522.5,0.00129787,0.000906869,0.119006,19,-4.10246e-06,10,1.07923e-07,-3.92443, , , ,0.0009068689,
2,1,0,1,0,36522.6,0.00279606,0.00246779,0.26002,19,2.85461e-05,10,6.41674e-07,-3.58499,0.00324032,18.2081,73.6926,0.00246779,
2,1,0,1,0,36522.8,0.00429425,0.00396508,0.302926,19,7.3165e-05,10,1.20112e-06,-3.51866,0.0249992,2.36008,26.0228,0.00396508,
2,1,0,1,0,36522.9,0.00579244,0.00546131,0.329707,19,0.000122876,10,1.80063e-06,-3.48187,0.0423889,1.39187,17.6266,0.00546131,
2,1,0,1,0,36523.1,0.00729063,0.00696391,0.354338,19,0.000176462,10,2.46758e-06,-3.45058,0.0576208,1.02394,13.9904,0.00696391,
2,1,0,1,0,36523.2,0.00878882,0.0084612,0.375024,19,0.000233227,10,3.17315e-06,-3.42594,0.0735231,0.802468,11.5804,0.0084612,
2,1,0,1,0,36523.4,0.010287,0.00997546,0.390521,19,0.000292666,10,3.89563e-06,-3.40836,0.0896781,0.657909,9.91827,0.00997546,
2,1,0,1,0,36523.5,0.0117852,0.0114908,0.40318,19,0.000354363,10,4.63285e-06,-3.3945,0.102749,0.574216,9.00345,0.0114908,
2,1,0,1,0,36523.7,0.0132838,0.012957,0.416647,19,0.000417989,10,5.3985e-06,-3.38023,0.107296,0.54988,9.00099,0.012957,
2,1,0,1,0,36523.8,0.0147814,0.0144408,0.42849,19,0.000483528,10,6.18774e-06,-3.36806,0.120192,0.490883,8.21158,0.0144408,
2,1,0,1,0,36524,0.0162789,0.015964,0.443824,19,0.000551237,10,7.08518e-06,-3.35279,0.124505,0.473878,8.13636,0.015964,
2,1,0,1,0,36524.1,0.017778,0.0175012,0.452523,19,0.000620482,10,7.91967e-06,-3.34436,0.140536,0.41982,7.41468,0.01750117,
2,1,0,1,0,36524.3,0.0192761,0.0189476,0.462602,19,0.000691137,10,8.76518e-06,-3.33479,0.142885,0.41292,7.46281,0.0189476,
2,1,0,1,0,36524.4,0.0207743,0.0204173,0.474698,19,0.000763616,10,9.69205e-06,-3.32358,0.145877,0.40445,7.46357,0.0204173,
2,1,0,1,0,36524.6,0.0222725,0.0219591,0.485602,19,0.000837757,10,1.06634e-05,-3.31372,0.158532,0.372166,7.04343,0.0219591,
2,1,0,1,0,36524.7,0.0237707,0.0234554,0.495973,19,0.000913453,10,1.16332e-05,-3.30454,0.175955,0.335312,6.47663,0.0234554,
2,1,0,1,0,36524.9,0.0252689,0.0249802,0.50511,19,0.000990527,10,1.26178e-05,-3.29661,0.174975,0.33719,6.67338,0.0249802,
2,1,0,1,0,36525,0.0267671,0.0264499,0.516668,19,0.00106924,10,1.36658e-05,-3.28679,0.15251,0.386859,7.78609,0.0264499,
2,1,0,1,0,36525.2,0.0282662,0.0279855,0.529799,19,0.00114973,10,1.48267e-05,-3.27589,0.161467,0.365399,7.51601,0.0279855,
2,1,0,1,0,36525.3,0.0297635,0.0294453,0.537476,19,0.00123177,10,1.58262e-05,-3.26964,0.182743,0.322858,6.75233,0.0294453,
2,1,0,1,0,36525.5,0.031261,0.0309625,0.544574,19,0.00131517,10,1.68614e-05,-3.26394,0.190339,0.309974,6.62388,0.0309625,
2,1,0,1,0,36525.6,0.0327599,0.0324222,0.556311,19,0.00139992,10,1.80368e-05,-3.25468,0.179164,0.329306,7.1616,0.0324222,
2,1,0,1,0,36525.8,0.034258,0.0339523,0.568607,19,0.00148638,10,1.93055e-05,-3.24519,0.179408,0.32886,7.2828,0.0339523,
2,1,0,1,0,36525.9,0.0357562,0.0354698,0.578248,19,0.0015745,10,2.05103e-05,-3.23789,0.204695,0.288233,6.47907,0.0354698,
2,1,0,1,0,36526.1,0.0372544,0.0369522,0.588215,19,0.00166415,10,2.17358e-05,-3.23046,0.198529,0.297186,6.83132,0.0369522,
2,1,0,1,0,36526.2,0.0387526,0.0384071,0.597679,19,0.00175509,10,2.29551e-05,-3.22353,0.198559,0.297142,6.95239,0.0384071,
2,1,0,1,0,36526.4,0.0402508,0.039897,0.608986,19,0.00184777,10,2.42967e-05,-3.21539,0.198726,0.296891,7.05731,0.039897,
2,1,0,1,0,36526.5,0.041749,0.0414165,0.620847,19,0.00194225,10,2.57133e-05,-3.20702,0.209332,0.281849,6.80983,0.0414165,
2,1,0,1,0,36526.7,0.0432472,0.0429573,0.631939,19,0.00203817,10,2.71464e-05,-3.19932,0.232736,0.253506,6.2336,0.0429573,
2,1,0,1,0,36526.8,0.0447458,0.0444147,0.639492,19,0.00213545,10,2.84029e-05,-3.19416,0.228754,0.257919,6.42806,0.0444147,
2,1,0,1,0,36527,0.0462433,0.0459283,0.649873,19,0.00223422,10,2.98475e-05,-3.18717,0.207995,0.283661,7.18142,0.04592827,
2,1,0,1,0,36527.1,0.0477409,0.0473739,0.659512,19,0.00233451,10,3.12437e-05,-3.18078,0.208661,0.282755,7.27602,0.0473739,
2,1,0,1,0,36527.3,0.0492399,0.0489136,0.668196,19,0.00243629,10,3.26839e-05,-3.1751,0.284901,0.20709,5.4063,0.0489136,
2,1,0,1,0,36527.4,0.0507381,0.0504088,0.675007,19,0.00253919,10,3.40263e-05,-3.17069,0.268148,0.220028,5.81434,0.0504088,
2,1,0,1,0,36527.6,0.0522363,0.0519495,0.686406,19,0.00264338,10,3.56585e-05,-3.16342,0.247286,0.23859,6.38292,0.0519495,
2,1,0,1,0,36527.7,0.0537345,0.0534224,0.696179,19,0.00274912,10,3.71916e-05,-3.15728,0.259565,0.227303,6.1633,0.05342244,
2,1,0,1,0,36527.9,0.0552327,0.0549208,0.705566,19,0.00285618,10,3.87502e-05,-3.15146,0.347666,0.169703,4.65051,0.0549208,
2,1,0,1,0,36528,0.0567309,0.0564001,0.710587,19,0.00296447,10,4.00771e-05,-3.14838,0.337914,0.174601,4.84903,0.0564001,
2,1,0,1,0,36528.2,0.0582291,0.0578974,0.718346,19,0.00307372,10,4.15903e-05,-3.14367,0.320097,0.184319,5.17627,0.0578974,
2,1,0,1,0,36528.3,0.0597282,0.0593996,0.727503,19,0.00318446,10,4.32134e-05,-3.13817,0.313931,0.18794,5.33542,0.0593996,
2,1,0,1,0,36528.5,0.0612255,0.0609091,0.73447,19,0.00329638,10,4.47359e-05,-3.13403,0.351045,0.168069,4.81916,0.0609091,
2,1,0,1,0,36528.6,0.062723,0.0623825,0.744744,19,0.0034095,10,4.6459e-05,-3.12799,0.343357,0.171833,4.99239,0.0623825,
2,1,0,1,0,36528.8,0.0642218,0.0638802,0.751304,19,0.00352362,10,4.79934e-05,-3.12418,0.305862,0.192898,5.66408,0.0638802,
2,1,0,1,0,36528.9,0.06572,0.0653552,0.757444,19,0.00363896,10,4.95029e-05,-3.12065,0.340366,0.173343,5.12534,0.0653552,
2,1,0,1,0,36529.1,0.0672182,0.0669119,0.766575,19,0.00375564,10,5.1293e-05,-3.11545,0.334309,0.176483,5.26877,0.0669119,
2,1,0,1,0,36529.2,0.0687164,0.0684346,0.773174,19,0.00387322,10,5.29119e-05,-3.11172,0.45977,0.128325,3.86732,0.0684346,
2,1,0,1,0,36529.4,0.0702146,0.069934,0.778651,19,0.00399161,10,5.44542e-05,-3.10866,0.37594,0.15694,4.76917,0.069934,
2,1,0,1,0,36529.5,0.0717128,0.071391,0.785659,19,0.00411112,10,5.6089e-05,-3.10477,0.359933,0.163919,5.01939,0.071391,
2,1,0,1,0,36529.7,0.073211,0.0728979,0.791578,19,0.00423162,10,5.77043e-05,-3.10151,0.472875,0.124769,3.8607,0.0728979,
2,1,0,1,0,36529.8,0.0747092,0.0743835,0.79801,19,0.004353,10,5.93588e-05,-3.09799,0.53206,0.11089,3.45617,0.0743835,
2,1,0,1,0,36530,0.0762078,0.0759006,0.801352,19,0.00447511,10,6.0823e-05,-3.09618,0.487983,0.120906,3.79601,0.0759006,
2,1,0,1,0,36530.1,0.0777053,0.077374,0.809698,19,0.004598,10,6.26496e-05,-3.09168,0.387899,0.152102,4.80426,0.077374,
2,1,0,1,0,36530.3,0.0792029,0.0788902,0.815126,19,0.00472182,10,6.43054e-05,-3.08878,0.456392,0.129275,4.10583,0.07889016,
2,1,0,1,0,36530.4,0.0807019,0.0803886,0.819807,19,0.00484671,10,6.59032e-05,-3.08629,0.586753,0.100553,3.21158,0.0803886,
2,1,0,1,0,36530.6,0.0822001,0.081818,0.821642,19,0.00497217,10,6.72251e-05,-3.08532,0.557337,0.105861,3.40807,0.081818,
2,1,0,1,0,36530.7,0.0836983,0.0833768,0.829795,19,0.00509826,10,6.91857e-05,-3.08103,0.53154,0.110998,3.60449,0.0833768,
2,1,0,1,0,36530.9,0.0851965,0.0848635,0.836297,19,0.00522541,10,7.09711e-05,-3.07764,0.442598,0.133304,4.35917,0.0848635,
2,1,0,1,0,36531,0.0866947,0.086329,0.844162,19,0.00535363,10,7.28757e-05,-3.07357,0.459045,0.128528,4.23327,0.086329,
2,1,0,1,0,36531.2,0.0881929,0.0878464,0.85168,19,0.00548288,10,7.4817e-05,-3.06972,0.432143,0.136529,4.54035,0.0878464,
2,1,0,1,0,36531.3,0.0896911,0.0893628,0.859589,19,0.00561309,10,7.68153e-05,-3.06571,0.370616,0.159194,5.34798,0.0893628,
2,1,0,1,0,36531.5,0.0911902,0.0909021,0.870386,19,0.00574478,10,7.91199e-05,-3.06029,0.274912,0.214614,7.27839,0.0909021,
2,1,0,1,0,36531.6,0.0926875,0.0923861,0.881113,19,0.00587819,10,8.14026e-05,-3.05497,0.266957,0.22101,7.58697,0.0923861,
2,1,0,1,0,36531.8,0.094185,0.0938236,0.89019,19,0.00601312,10,8.35208e-05,-3.05052,0.277527,0.212592,7.39831,0.0938236,
2,1,0,1,0,36531.9,0.0956838,0.0953403,0.902076,19,0.00614969,10,8.60042e-05,-3.04476,0.247766,0.238128,8.39919,0.0953403,
2,1,0,1,0,36532.1,0.097182,0.0968896,0.915666,19,0.00628807,10,8.87184e-05,-3.03826,0.205251,0.287453,10.2822,0.0968896,
2,1,0,1,0,36532.2,0.0986802,0.0984155,0.930124,19,0.00642865,10,9.15386e-05,-3.03146,0.21065,0.280086,10.1843,0.0984155,
2,1,0,1,0,36532.4,0.100178,0.0998534,0.94467,19,0.00657152,10,9.43285e-05,-3.02472,0.21767,0.271052,9.99666,0.0998534,
2,1,0,1,0,36532.5,0.101677,0.101414,0.958984,19,0.00671659,10,9.72547e-05,-3.01819,0.212245,0.277981,10.4416,0.101414,
2,1,0,1,0,36532.7,0.103175,0.102864,0.977564,19,0.00686389,10,0.000100556,-3.00985,0.195603,0.301631,11.5219,0.102864,
2,1,0,1,0,36532.8,0.104673,0.104348,0.99878,19,0.00701407,10,0.000104221,-3.00053,0.189732,0.310965,12.076,0.104348,
2,1,0,1,0,36533,0.106171,0.105834,1.0124,19,0.00716693,10,0.000107147,-2.99465,0.221302,0.266604,10.5118,0.105834,
2,1,0,1,0,36533.1,0.10767,0.107342,1.02752,19,0.00732234,10,0.000110296,-2.98821,0.213348,0.276544,11.1148,0.107342,
2,1,0,1,0,36533.3,0.109167,0.108856,1.04287,19,0.00747968,10,0.000113523,-2.98177,0.232931,0.253293,10.3238,0.108856,
2,1,0,1,0,36533.4,0.110665,0.110366,1.0588,19,0.00763958,10,0.000116856,-2.97518,0.233407,0.252777,10.451,0.110366,
2,1,0,1,0,36533.6,0.112164,0.111853,1.07315,19,0.00780176,10,0.000120035,-2.96934,0.299604,0.196926,8.23617,0.111853,
2,1,0,1,0,36533.7,0.113662,0.113326,1.08779,19,0.00796592,10,0.000123275,-2.96346,0.317571,0.185785,7.87185,0.113326,
2,1,0,1,0,36533.9,0.11516,0.114803,1.09795,19,0.0081316,10,0.000126048,-2.95942,0.356422,0.165534,7.08492,0.114803,
2,1,0,1,0,36534,0.116658,0.116318,1.10913,19,0.00829915,10,0.000129012,-2.95502,0.313723,0.188064,8.135,0.116318,
2,1,0,1,0,36534.2,0.118157,0.117804,1.12127,19,0.00846854,10,0.00013209,-2.95029,0.365875,0.161257,7.03687,0.117804,
2,1,0,1,0,36534.3,0.119655,0.119356,1.12794,19,0.00863938,10,0.000134626,-2.94772,0.543397,0.108576,4.78274,0.119356,
2,1,0,1,0,36534.5,0.121153,0.120879,1.13419,19,0.00881115,10,0.0001371,-2.94531,0.519233,0.113629,5.03492,0.120879,
2,1,0,1,0,36534.6,0.122652,0.122316,1.14386,19,0.00898411,10,0.000139912,-2.94163,0.472025,0.124993,5.57748,0.122316,
2,1,0,1,0,36534.8,0.124149,0.123862,1.15045,19,0.00915822,10,0.000142497,-2.93913,0.477811,0.12348,5.5419,0.123862,
2,1,0,1,0,36534.9,0.125647,0.125339,1.15792,19,0.00933349,10,0.000145133,-2.93632,0.598245,0.0986217,4.45466,0.125339,
2,1,0,1,0,36535.1,0.127146,0.126849,1.16023,19,0.00950983,10,0.000147174,-2.93546,0.662253,0.0890898,4.04505,0.126849,
2,1,0,1,0,36535.2,0.128644,0.12831,1.1699,19,0.00968676,10,0.000150111,-2.93185,0.680215,0.0867373,3.96014,0.12831,
2,1,0,1,0,36535.4,0.130142,0.129841,1.17504,19,0.00986472,10,0.000152568,-2.92995,0.986673,0.0597969,2.73863,0.129841,
2,1,0,1,0,36535.5,0.13164,0.131329,1.18019,19,0.0100435,10,0.000154993,-2.92805,-46.1876,-0.0012774,-0.0585459,0.131329,
2,1,0,1,0,36535.7,0.133139,0.132796,1.17941,19,0.0102224,10,0.000156621,-2.92834,-1.70034,-0.034699,-1.59331,0.132796,
2,1,0,1,0,36535.8,0.134637,0.134347,1.1745,19,0.0104008,10,0.000157791,-2.93015,-0.732634,-0.0805313,-3.68831,0.134347,
2,1,0,1,0,36536,0.136135,0.135803,1.16956,19,0.0105788,10,0.00015883,-2.93198,-0.460798,-0.128039,-5.82264,0.1358033,
2,1,0,1,0,36536.1,0.137633,0.137341,1.15952,19,0.0107553,10,0.00015925,-2.93572,-0.26205,-0.225148,-10.119,0.137341,
2,1,0,1,0,36536.3,0.139132,0.138805,1.14167,19,0.0109299,10,0.00015847,-2.94246,-0.193053,-0.305616,-13.5203,0.138805,
2,1,0,1,0,36536.4,0.140629,0.140338,1.11638,19,0.011101,10,0.00015667,-2.95219,-0.143721,-0.410517,-17.7962,0.1403376,
2,1,0,1,0,36536.6,0.142127,0.141788,1.08706,19,0.0112682,10,0.000154132,-2.96375,-0.128847,-0.457908,-19.3396,0.141788,
2,1,0,1,0,36536.7,0.143626,0.143306,1.05568,19,0.011431,10,0.000151285,-2.97647,-0.103784,-0.568489,-23.2953,0.143306,
2,1,0,1,0,36536.9,0.145124,0.144806,1.01505,19,0.0115884,10,0.000146986,-2.99351,-0.0853453,-0.691309,-27.3086,0.144806,
2,1,0,1,0,36537,0.146622,0.146311,0.970927,19,0.0117394,10,0.000142057,-3.01281,-0.0763679,-0.772575,-29.301,0.146311,
2,1,0,1,0,36537.2,0.14812,0.147801,0.927709,19,0.011884,10,0.000137116,-3.03259,-0.0754307,-0.782175,-28.3493,0.147801,
2,1,0,1,0,36537.3,0.149619,0.149286,0.88781,19,0.0120223,10,0.000132538,-3.05168,-0.0717914,-0.821826,-28.4743,0.149286,
2,1,0,1,0,36537.5,0.151117,0.150805,0.846533,19,0.0121543,10,0.000127661,-3.07236,-0.0713393,-0.827034,-27.3238,0.150805,
2,1,0,1,0,36537.6,0.152615,0.152314,0.806465,19,0.0122802,10,0.000122836,-3.09341,-0.074283,-0.79426,-25.056,0.152314,
2,1,0,1,0,36537.8,0.154114,0.153749,0.771947,19,0.0124006,10,0.000118686,-3.11241,-0.082433,-0.715733,-21.6869,0.153749,
2,1,0,1,0,36537.9,0.155612,0.155254,0.742896,19,0.0125161,10,0.000115338,-3.12907,-0.0892303,-0.66121,-19.215,0.155254,
2,1,0,1,0,36538.1,0.157109,0.156826,0.714285,19,0.0126276,10,0.000112019,-3.14613,-0.0980819,-0.601538,-16.828,0.156826,
2,1,0,1,0,36538.2,0.158608,0.158281,0.691585,19,0.0127351,10,0.000109465,-3.16015,-0.111943,-0.527056,-14.3054,0.158281,
2,1,0,1,0,36538.4,0.160106,0.159816,0.672342,19,0.0128394,10,0.000107451,-3.17241,-0.126969,-0.464681,-12.2517,0.159816,
2,1,0,1,0,36538.5,0.161604,0.161313,0.656023,19,0.0129411,10,0.000105825,-3.18308,-0.144163,-0.409259,-10.4971,0.1613135,
2,1,0,1,0,36538.7,0.163102,0.162825,0.641822,19,0.0130405,10,0.000104504,-3.19259,-0.157335,-0.374997,-9.40477,0.162825,
2,1,0,1,0,36538.8,0.164601,0.164246,0.629975,19,0.0131379,10,0.000103471,-3.20068,-0.189209,-0.311824,-7.66366,0.164246,
2,1,0,1,0,36539,0.166099,0.165761,0.618053,19,0.0132333,10,0.000102449,-3.20897,-0.216016,-0.273128,-6.6015,0.165761,
2,1,0,1,0,36539.1,0.167597,0.167296,0.608462,19,0.0133273,10,0.000101793,-3.21577,-0.273882,-0.215421,-5.11865,0.167296,
2,1,0,1,0,36539.3,0.169095,0.168779,0.602248,19,0.0134202,10,0.000101647,-3.22022,-0.261627,-0.225512,-5.3008,0.168779,
2,1,0,1,0,36539.4,0.170594,0.170303,0.59301,19,0.0135119,10,0.000100992,-3.22694,-0.269739,-0.21873,-5.078,0.170303,
2,1,0,1,0,36539.6,0.172091,0.171814,0.585845,19,0.0136023,10,0.000100656,-3.23222,-0.367232,-0.160661,-3.68047,0.171814,
2,1,0,1,0,36539.7,0.173589,0.173274,0.580221,19,0.0136918,10,0.000100537,-3.23641,-0.452313,-0.130441,-2.95553,0.173274,
2,1,0,1,0,36539.9,0.175088,0.174752,0.576069,19,0.0137807,10,0.000100669,-3.23953,-0.376926,-0.156529,-3.52218,0.174752,
2,1,0,1,0,36540,0.176586,0.176256,0.571166,19,0.0138687,10,0.000100671,-3.24324,-0.391935,-0.150535,-3.35561,0.176256,
2,1,0,1,0,36540.2,0.178084,0.177742,0.565992,19,0.0139561,10,0.000100601,-3.24719,-0.434263,-0.135862,-3.00619,0.177742,
2,1,0,1,0,36540.3,0.179582,0.17923,0.562977,19,0.0140428,10,0.000100902,-3.24951,-0.580774,-0.101589,-2.23829,0.17923,
2,1,0,1,0,36540.5,0.181081,0.180761,0.560462,19,0.0141291,10,0.00010131,-3.25145,-0.558777,-0.105588,-2.31132,0.180761,
2,1,0,1,0,36540.6,0.182579,0.182257,0.557477,19,0.014215,10,0.000101604,-3.25377,-0.415984,-0.141832,-3.08824,0.182257,
2,1,0,1,0,36540.8,0.184077,0.18376,0.555251,19,0.0143004,10,0.000102033,-3.25551,-0.608995,-0.096881,-2.09741,0.18376,
2,1,0,1,0,36540.9,0.185576,0.185272,0.552436,19,0.0143852,10,0.000102351,-3.25772,-0.806101,-0.0731918,-1.57742,0.185272,
2,1,0,1,0,36541.1,0.187074,0.186757,0.55078,19,0.0144698,10,0.000102862,-3.25902,-1.20309,-0.0490404,-1.05218,0.186757,
2,1,0,1,0,36541.2,0.188571,0.188229,0.54764,19,0.0145541,10,0.000103082,-3.26151,-1.22394,-0.0482049,-1.02994,0.188229,
2,1,0,1,0,36541.4,0.19007,0.189763,0.545516,19,0.0146381,10,0.000103519,-3.26319,-0.851365,-0.0693005,-1.4751,0.189763,
2,1,0,1,0,36541.5,0.191568,0.191234,0.542012,19,0.0147216,10,0.000103651,-3.26599,-0.887608,-0.0664708,-1.40941,0.191234,
2,1,0,1,0,36541.7,0.193066,0.192749,0.541155,19,0.0148049,10,0.000104307,-3.26668,-2.67553,-0.0220517,-0.466145,0.192749,
2,1,0,1,0,36541.8,0.194564,0.194274,0.539497,19,0.014888,10,0.00010481,-3.26801,-1.50494,-0.0392043,-0.826703,0.1942741,
2,1,0,1,0,36542,0.196063,0.195715,0.537533,19,0.0149709,10,0.000105203,-3.26959,-0.758807,-0.0777536,-1.63658,0.195715,
2,1,0,1,0,36542.1,0.197561,0.197226,0.533425,19,0.0150534,10,0.000105205,-3.27293,-0.927625,-0.0636033,-1.33308,0.197226,
2,1,0,1,0,36542.3,0.199059,0.198725,0.536355,19,0.0151356,10,0.000106587,-3.27055,-1.15746,-0.0509737,-1.06316,0.198725,
2,1,0,1,0,36542.4,0.200557,0.200247,0.534378,19,0.0152177,10,0.000107008,-3.27215,-1.33752,-0.0441116,-0.91976,0.200247,
2,1,0,1,0,36542.6,0.202056,0.201773,0.532498,19,0.0152997,10,0.000107444,-3.27368,-1.06882,-0.055201,-1.14277,0.201773,
2,1,0,1,0,36542.7,0.203553,0.203192,0.529339,19,0.0153813,10,0.000107557,-3.27627,-1.39925,-0.0421655,-0.873366,0.203192,
2,1,0,1,0,36542.9,0.205051,0.204704,0.529803,19,0.0154626,10,0.000108453,-3.27589,2.4218,0.024362,0.505777,0.204704,
2,1,0,1,0,36543,0.20655,0.206234,0.528543,19,0.0155439,10,0.000109004,-3.27692,-2.25426,-0.0261726,-0.539306,0.206234,
2,1,0,1,0,36543.2,0.208048,0.207777,0.527807,19,0.0156254,10,0.000109666,-3.27752,-0.783935,-0.0752613,-1.54476,0.207777,
2,1,0,1,0,36543.3,0.209546,0.209222,0.526025,19,0.0157063,10,0.000110056,-3.27899,-0.830454,-0.0710455,-1.46,0.2092216,
2,1,0,1,0,36543.5,0.211044,0.210743,0.524606,19,0.015787,10,0.000110557,-3.28017,-1.30916,-0.0450672,-0.922146,0.210743,
2,1,0,1,0,36543.6,0.212543,0.21223,0.524376,19,0.0158675,10,0.000111288,-3.28036,-2.16688,-0.0272281,-0.55493,0.21223,
2,1,0,1,0,36543.8,0.214041,0.213717,0.522813,19,0.015948,10,0.000111734,-3.28165,-2.78578,-0.021179,-0.432615,0.213717,
2,1,0,1,0,36543.9,0.215539,0.215235,0.522168,19,0.0160283,10,0.000112389,-3.28219,-1.54385,-0.038216,-0.778389,0.215235,
2,1,0,1,0,36544.1,0.217038,0.216692,0.519142,19,0.0161083,10,0.000112494,-3.28471,-6.53727,-0.00902518,-0.183695,0.216692,
2,1,0,1,0,36544.2,0.218535,0.218194,0.520255,19,0.0161883,10,0.000113516,-3.28378,8.96074,0.00658428,0.133354,0.2181938,
2,1,0,1,0,36544.4,0.220033,0.219781,0.520804,19,0.0162683,10,0.000114463,-3.28333,-7.33045,-0.00804862,-0.163157,0.219781,
2,1,0,1,0,36544.5,0.221532,0.221221,0.517954,19,0.0163482,10,0.000114582,-3.28571,-1.76167,-0.0334909,-0.677162,0.221221,
2,1,0,1,0,36544.7,0.22303,0.222741,0.514942,19,0.0164278,10,0.000114699,-3.28824,-1.06011,-0.0556544,-1.1227,0.222741,
2,1,0,1,0,36544.8,0.224528,0.224207,0.515725,19,0.0165072,10,0.000115629,-3.28758,-1.94202,-0.0303807,-0.611876,0.224207,
2,1,0,1,0,36545,0.226026,0.225709,0.515269,19,0.0165865,10,0.000116301,-3.28797,-2.91324,-0.0202524,-0.407454,0.225709,
2,1,0,1,0,36545.1,0.227524,0.227244,0.514612,19,0.0166657,10,0.000116943,-3.28852,-1.12451,-0.0524672,-1.05136,0.227244,
2,1,0,1,0,36545.3,0.229023,0.22871,0.513331,19,0.0167448,10,0.000117404,-3.2896,-2.04174,-0.028897,-0.580463,0.22871,
2,1,0,1,0,36545.4,0.230521,0.230201,0.513105,19,0.0168236,10,0.000118117,-3.28979,-2.45342,-0.024048,-0.482325,0.230201,
2,1,0,1,0,36545.6,0.232019,0.231721,0.512826,19,0.0169024,10,0.000118833,-3.29003,-3.62834,-0.0162609,-0.324671,0.231721,
2,1,0,1,0,36545.7,0.233518,0.23322,0.511699,19,0.0169813,10,0.000119339,-3.29099,-1.39698,-0.0422338,-0.840448,0.23322,
2,1,0,1,0,36545.9,0.235015,0.234718,0.512427,19,0.0170599,10,0.000120276,-3.29037,-1.45209,-0.040631,-0.809698,0.234718,
2,1,0,1,0,36546,0.236513,0.236191,0.509653,19,0.0171382,10,0.000120375,-3.29273,-5.12843,-0.0115045,-0.228618,0.236191,
2,1,0,1,0,36546.2,0.238012,0.237707,0.507639,19,0.0172166,10,0.00012067,-3.29444,5.18665,0.0113754,0.225348,0.237707,
2,1,0,1,0,36546.3,0.23951,0.239231,0.507392,19,0.0172948,10,0.000121384,-3.29466,-2.53199,-0.0233019,-0.461727,0.239231,
2,1,0,1,0,36546.5,0.241008,0.240716,0.507757,19,0.017373,10,0.000122225,-3.29434,-1.72089,-0.0342847,-0.679488,0.240716,
2,1,0,1,0,36546.6,0.242506,0.242184,0.505172,19,0.0174508,10,0.000122345,-3.29656,-2.35219,-0.025083,-0.495336,0.242184,
2,1,0,1,0,36546.8,0.244005,0.243698,0.504748,19,0.0175287,10,0.000123006,-3.29693,-14.3626,-0.00410788,-0.0809822,0.243698,
2,1,0,1,0,36546.9,0.245503,0.245228,0.508022,19,0.0176065,10,0.000124581,-3.29412,-1.06054,-0.0556321,-1.09821,0.245228,
2,1,0,1,0,36547.1,0.247001,0.246729,0.504913,19,0.0176843,10,0.000124577,-3.29678,-1.54108,-0.0382848,-0.751968,0.246729,
2,1,0,1,0,36547.2,0.2485,0.248205,0.503232,19,0.0177618,10,0.000124905,-3.29823,-1.44732,-0.040765,-0.800164,0.248205,
2,1,0,1,0,36547.4,0.249997,0.249669,0.502309,19,0.0178392,10,0.000125411,-3.29903,-10.8168,-0.00545448,-0.107029,0.249669,
2,1,0,1,0,36547.5,0.251495,0.251198,0.502458,19,0.0179166,10,0.000126216,-3.2989,-3.08113,-0.0191488,-0.375338,0.251198,
2,1,0,1,0,36547.7,0.252994,0.252677,0.501886,19,0.0179939,10,0.000126815,-3.2994,-1.11411,-0.0529571,-1.03475,0.252677,
2,1,0,1,0,36547.8,0.254492,0.254183,0.499409,19,0.018071,10,0.000126941,-3.30154,-2.90585,-0.0203039,-0.396562,0.254183,
2,1,0,1,0,36548,0.25599,0.255663,0.498676,19,0.0181478,10,0.000127493,-3.30218,-1.87354,-0.0314912,-0.614776,0.255663,
2,1,0,1,0,36548.1,0.257488,0.257212,0.49819,19,0.0182247,10,0.000128141,-3.3026,-3.31565,-0.0177944,-0.345821,0.257212,
2,1,0,1,0,36548.3,0.258987,0.258673,0.498756,19,0.0183015,10,0.000129014,-3.30211,-1.25969,-0.0468368,-0.911114,0.2586726,
2,1,0,1,0,36548.4,0.260485,0.260197,0.496971,19,0.0183782,10,0.000129311,-3.30367,-1.20124,-0.0491158,-0.952624,0.260197,
2,1,0,1,0,36548.6,0.261983,0.26168,0.496736,19,0.0184546,10,0.000129986,-3.30387,57.8095,0.00102059,0.0198108,0.26168,
2,1,0,1,0,36548.7,0.263481,0.263155,0.497041,19,0.018531,10,0.000130799,-3.30361,-20.5926,-0.00286511,-0.055354,0.263155,
2,1,0,1,0,36548.9,0.26498,0.264651,0.496128,19,0.0186074,10,0.000131301,-3.30441,-3.91674,-0.0150636,-0.291361,0.2646507,
2,1,0,1,0,36549,0.266477,0.266159,0.493979,19,0.0186836,10,0.000131477,-3.30629,-3.23096,-0.0182608,-0.352681,0.266159,
2,1,0,1,0,36549.2,0.267976,0.267658,0.49223,19,0.0187597,10,0.00013175,-3.30783,-2.55309,-0.0231092,-0.445623,0.267658,
2,1,0,1,0,36549.3,0.269474,0.269218,0.492407,19,0.0188356,10,0.000132565,-3.30768,-2.12209,-0.0278028,-0.533942,0.2692183,
2,1,0,1,0,36549.5,0.270972,0.27064,0.495343,19,0.0189115,10,0.00013406,-3.30509,-1.66351,-0.0354671,-0.681977,0.27064,
2,1,0,1,0,36549.6,0.27247,0.272151,0.490879,19,0.0189873,10,0.000133593,-3.30903,-1.13546,-0.0519613,-0.993881,0.272151,
2,1,0,1,0,36549.8,0.273968,0.273653,0.488927,19,0.0190629,10,0.000133796,-3.31076,-1.33579,-0.0441687,-0.845819,0.273653,
2,1,0,1,0,36549.9,0.275467,0.275135,0.488426,19,0.0191383,10,0.000134383,-3.3112,-2.22491,-0.026518,-0.506951,0.2751354,
2,1,0,1,0,36550.1,0.276965,0.276633,0.488249,19,0.0192136,10,0.000135066,-3.31136,-1.12758,-0.0523245,-0.998591,0.2766327,
2,1,0,1,0,36550.2,0.278463,0.27817,0.488108,19,0.0192888,10,0.000135777,-3.31148,-0.668821,-0.088215,-1.67627,0.27817,
2,1,0,1,0,36550.4,0.279962,0.279666,0.488287,19,0.019364,10,0.000136557,-3.31132,-4.30652,-0.0137002,-0.260651,0.279666,
2,1,0,1,0,36550.5,0.281459,0.281156,0.487284,19,0.0194388,10,0.000137003,-3.31222,-2.51761,-0.023435,-0.445093,0.281156,
2,1,0,1,0,36550.7,0.282957,0.282665,0.486153,19,0.0195136,10,0.000137418,-3.31323,-1.67005,-0.0353282,-0.667593,0.282665,
2,1,0,1,0,36550.8,0.284456,0.284168,0.485163,19,0.0195884,10,0.000137868,-3.31411,-5.05321,-0.0116758,-0.220501,0.284168,
2,1,0,1,0,36551,0.285954,0.285683,0.485163,19,0.0196631,10,0.000138603,-3.31411,-1.79333,-0.0328996,-0.620952,0.285683,
2,1,0,1,0,36551.1,0.287452,0.287122,0.481771,19,0.0197374,10,0.000138327,-3.31716,-1.39976,-0.04215,-0.794762,0.287122,
2,1,0,1,0,36551.3,0.28895,0.288624,0.481524,19,0.0198117,10,0.000138979,-3.31738,12.1232,0.00486669,0.0914658,0.288624,
2,1,0,1,0,36551.4,0.290449,0.290109,0.480764,19,0.0198859,10,0.000139474,-3.31807,-1.86384,-0.0316551,-0.594714,0.2901094,
2,1,0,1,0,36551.6,0.291947,0.291633,0.479572,19,0.01996,10,0.000139859,-3.31915,-1.46545,-0.0402606,-0.754618,0.291633,
2,1,0,1,0,36551.7,0.293445,0.293097,0.477175,19,0.0200339,10,0.000139858,-3.32132,-1.18328,-0.0498616,-0.932909,0.293097,
2,1,0,1,0,36551.9,0.294943,0.294607,0.479269,19,0.0201076,10,0.000141196,-3.31942,-2.13907,-0.0275821,-0.515336,0.2946066,
2,1,0,1,0,36552,0.296442,0.296183,0.480018,19,0.0201814,10,0.000142173,-3.31874,-4.07446,-0.0144804,-0.269826,0.296183,
2,1,0,1,0,36552.2,0.297939,0.297639,0.477738,19,0.0202551,10,0.000142193,-3.32081,-1.27688,-0.0462063,-0.860269,0.297639,
2,1,0,1,0,36552.3,0.299437,0.299111,0.476323,19,0.0203285,10,0.000142473,-3.3221,-0.00283828,-20.7872,-199.494,0.299111,
2,1,0,1,0,36552.4,0.299738,0.299464,0.257705,19,0.0203642,10,7.71734e-05,-3.58888,0.000652141,90.4712,386.915,0.299464,
2,1,0,1,0,36552.5,0.29824,0.297938,0.0141547,19,0.0203759,10,4.21722e-06,-4.8491,0.00353493,16.6906,138.583,0.297938,
2,0,0,1,0,36552.7,0.296741,0.296408,-0.0300724,19,0.0203722,10,-8.91372e-06,-4.52183,-0.0291681,-2.02276,26.6523,0.296408,
2,0,0,1,0,36552.8,0.295243,0.2949,-0.0546127,19,0.0203635,10,-1.61053e-05,-4.26271,-0.00670737,-8.7963,14.6047,0.2949,
2,0,0,1,0,36553,0.293745,0.293384,-0.0741353,19,0.0203518,10,-2.17501e-05,-4.12997,-0.0142026,-4.15417,10.9943,0.293384,
2,0,0,1,0,36553.1,0.292246,0.291898,-0.0876098,19,0.0203377,10,-2.55731e-05,-4.05745,-0.0207922,-2.8376,9.33381,0.291898,
2,0,0,1,0,36553.3,0.290748,0.290429,-0.10074,19,0.0203215,10,-2.92577e-05,-3.9968,-0.0276786,-2.13161,8.11279,0.290429,
2,0,0,1,0,36553.4,0.28925,0.288944,-0.110698,19,0.0203035,10,-3.19856e-05,-3.95586,-0.0349737,-1.68698,7.26198,0.288944,
2,0,0,1,0,36553.6,0.287752,0.287428,-0.121935,19,0.020284,10,-3.50475e-05,-3.91387,-0.0459275,-1.28463,6.01808,0.287428,
2,0,0,1,0,36553.7,0.286253,0.285956,-0.130035,19,0.0202631,10,-3.71844e-05,-3.88594,-0.0498868,-1.18268,5.97039,0.285956,
2,0,0,1,0,36553.9,0.284755,0.284436,-0.13924,19,0.0202409,10,-3.96049e-05,-3.85624,-0.0558981,-1.05549,5.67584,0.284436,
2,0,0,1,0,36554,0.283258,0.282935,-0.147532,19,0.0202174,10,-4.17421e-05,-3.83111,-0.063369,-0.931055,5.30096,0.282935,
2,0,0,1,0,36554.2,0.281759,0.281465,-0.153059,19,0.0201928,10,-4.30808e-05,-3.81514,-0.0798144,-0.739215,4.39012,0.281465,
2,0,0,1,0,36554.3,0.280261,0.279933,-0.158931,19,0.0201673,10,-4.44899e-05,-3.79879,-0.0848505,-0.69534,4.33304,0.279933,
2,0,0,1,0,36554.5,0.278763,0.278415,-0.164755,19,0.0201409,10,-4.58703e-05,-3.78316,-0.0929923,-0.634461,4.1221,0.278415,
2,0,0,1,0,36554.6,0.277264,0.276992,-0.173872,19,0.0201134,10,-4.81611e-05,-3.75977,-0.0970549,-0.607903,4.09253,0.276992,
2,0,0,1,0,36554.8,0.275766,0.275412,-0.179019,19,0.0200849,10,-4.93039e-05,-3.7471,-0.129104,-0.456997,3.16832,0.275412,
2,0,0,1,0,36554.9,0.274268,0.2739,-0.184505,19,0.0200556,10,-5.05358e-05,-3.73399,-0.128557,-0.458942,3.30137,0.2739,
2,0,0,1,0,36555.1,0.27277,0.272442,-0.189039,19,0.0200257,10,-5.15022e-05,-3.72345,-0.116737,-0.505409,3.75943,0.272442,
2,0,0,1,0,36555.2,0.271272,0.270969,-0.195773,19,0.0199948,10,-5.30486e-05,-3.70825,-0.114277,-0.51629,3.9332,0.270969,
2,0,0,1,0,36555.4,0.269773,0.269472,-0.200582,19,0.019963,10,-5.40513e-05,-3.69771,-0.132297,-0.445966,3.45836,0.2694723,
2,0,0,1,0,36555.5,0.268275,0.267942,-0.206316,19,0.0199306,10,-5.52806e-05,-3.68547,-0.146151,-0.403692,3.22712,0.267942,
2,0,0,1,0,36555.7,0.266778,0.26644,-0.210058,19,0.0198975,10,-5.59677e-05,-3.67766,-0.150087,-0.393104,3.21869,0.26644,
2,0,0,1,0,36555.8,0.265279,0.264952,-0.213945,19,0.0198636,10,-5.66851e-05,-3.6697,-0.142513,-0.413997,3.44978,0.264952,
2,0,0,1,0,36556,0.263781,0.263507,-0.218579,19,0.019829,10,-5.75972e-05,-3.66039,-0.176535,-0.334211,2.85114,0.263507,
2,0,0,1,0,36556.1,0.262283,0.261991,-0.222248,19,0.0197938,10,-5.8227e-05,-3.65316,-0.208286,-0.283264,2.45965,0.261991,
2,0,0,1,0,36556.3,0.260784,0.260475,-0.226409,19,0.0197581,10,-5.8974e-05,-3.64511,-0.181341,-0.325353,2.87461,0.260475,
2,0,0,1,0,36556.4,0.259286,0.259002,-0.231338,19,0.0197217,10,-5.99172e-05,-3.63575,-0.172275,-0.342476,3.08897,0.259002,
2,0,0,1,0,36556.6,0.257788,0.257473,-0.237363,19,0.0196846,10,-6.11146e-05,-3.62459,-0.188912,-0.312315,2.85992,0.257473,
2,0,0,1,0,36556.7,0.25629,0.255985,-0.238906,19,0.0196469,10,-6.11564e-05,-3.62177,-0.26886,-0.219445,2.042,0.2559855,
2,0,0,1,0,36556.9,0.254791,0.254524,-0.24177,19,0.0196087,10,-6.15363e-05,-3.6166,-0.216664,-0.272311,2.59421,0.254524,
2,0,0,1,0,36557,0.253293,0.252961,-0.246489,19,0.0195701,10,-6.2352e-05,-3.6082,-0.239204,-0.246651,2.37528,0.252961,
2,0,0,1,0,36557.2,0.251796,0.251506,-0.250252,19,0.0195308,10,-6.29401e-05,-3.60162,-0.236454,-0.24952,2.43844,0.251506,
2,0,0,1,0,36557.3,0.250297,0.24998,-0.25352,19,0.019491,10,-6.3375e-05,-3.59599,-0.297927,-0.198035,1.9541,0.24998,
2,0,0,1,0,36557.5,0.248799,0.248464,-0.25652,19,0.0194506,10,-6.37361e-05,-3.59088,-0.256681,-0.229858,2.29762,0.248464,
2,0,0,1,0,36557.6,0.247301,0.246988,-0.259168,19,0.0194099,10,-6.40113e-05,-3.58642,-0.22943,-0.257159,2.60991,0.246988,
2,0,0,1,0,36557.8,0.245802,0.245486,-0.264574,19,0.0193686,10,-6.49493e-05,-3.57745,-0.265499,-0.222223,2.28558,0.245486,
2,0,0,1,0,36557.9,0.244304,0.243986,-0.268738,19,0.0193266,10,-6.55682e-05,-3.57067,-0.304952,-0.193473,2.01422,0.243986,
2,0,0,1,0,36558.1,0.242806,0.242472,-0.270825,19,0.0192842,10,-6.56675e-05,-3.56731,-0.296695,-0.198858,2.10314,0.242472,
2,0,0,1,0,36558.2,0.241308,0.241045,-0.273045,19,0.0192414,10,-6.58164e-05,-3.56377,-0.363969,-0.162102,1.73413,0.241045,
2,0,0,1,0,36558.4,0.23981,0.239508,-0.277127,19,0.0191981,10,-6.6374e-05,-3.55732,-0.257744,-0.22891,2.46589,0.239508,
2,0,0,1,0,36558.5,0.238311,0.237973,-0.280609,19,0.0191542,10,-6.67774e-05,-3.5519,-0.254748,-0.231601,2.53088,0.2379729,
2,0,0,1,0,36558.7,0.236814,0.236489,-0.283035,19,0.0191099,10,-6.69347e-05,-3.54816,-0.406091,-0.145287,1.6004,0.236489,
2,0,0,1,0,36558.8,0.235316,0.235031,-0.284083,19,0.0190653,10,-6.67682e-05,-3.54656,-0.293337,-0.201134,2.2436,0.235031,
2,0,0,1,0,36559,0.233817,0.233499,-0.289759,19,0.0190202,10,-6.76583e-05,-3.53796,-0.338006,-0.174553,1.96426,0.233499,
2,0,0,1,0,36559.1,0.232319,0.232033,-0.292721,19,0.0189745,10,-6.7921e-05,-3.53355,-0.30704,-0.192157,2.18037,0.232033,
2,0,0,1,0,36559.3,0.230821,0.230483,-0.295304,19,0.0189284,10,-6.80624e-05,-3.52973,-0.367793,-0.160416,1.83641,0.230483,
2,0,0,1,0,36559.4,0.229322,0.229035,-0.295848,19,0.0188819,10,-6.77597e-05,-3.52893,-0.361789,-0.163079,1.89831,0.2290353,
2,0,0,1,0,36559.6,0.227824,0.227481,-0.29993,19,0.018835,10,-6.82282e-05,-3.52298,-0.387144,-0.152398,1.79366,0.227481,
2,0,0,1,0,36559.7,0.226326,0.226003,-0.303342,19,0.0187877,10,-6.85561e-05,-3.51807,-0.343011,-0.172006,2.04197,0.226003,
2,0,0,1,0,36559.9,0.224828,0.224522,-0.308545,19,0.0187397,10,-6.92753e-05,-3.51068,-0.50508,-0.116813,1.39434,0.224522,
2,0,0,1,0,36560,0.223329,0.223039,-0.310348,19,0.0186914,10,-6.92197e-05,-3.50815,-0.346135,-0.170454,2.05684,0.223039,
2,0,0,1,0,36560.2,0.221831,0.221572,-0.313824,19,0.0186427,10,-6.95348e-05,-3.50331,-0.328597,-0.179551,2.18615,0.221572,
2,0,0,1,0,36560.3,0.220334,0.220031,-0.31539,19,0.0185935,10,-6.93956e-05,-3.50115,-0.313389,-0.188265,2.31186,0.220031,
2,0,0,1,0,36560.5,0.218835,0.218539,-0.319576,19,0.0185436,10,-6.98399e-05,-3.49543,-0.29966,-0.19689,2.45476,0.218539,
2,0,0,1,0,36560.6,0.217337,0.217043,-0.321552,19,0.0184935,10,-6.97906e-05,-3.49275,-0.46777,-0.12613,1.58668,0.217043,
2,0,0,1,0,36560.8,0.215839,0.215511,-0.322523,19,0.018443,10,-6.95073e-05,-3.49144,-0.351622,-0.167794,2.12543,0.215511,
2,0,0,1,0,36560.9,0.21434,0.214037,-0.326702,19,0.018392,10,-6.99263e-05,-3.48585,-0.324886,-0.181602,2.31406,0.214037,
2,0,0,1,0,36561.1,0.212842,0.212501,-0.329529,19,0.0183405,10,-7.00253e-05,-3.48211,-0.402143,-0.146714,1.88986,0.212501,
2,0,0,1,0,36561.2,0.211344,0.211077,-0.335277,19,0.0182886,10,-7.07693e-05,-3.4746,-0.423438,-0.139336,1.81057,0.211077,
2,0,0,1,0,36561.4,0.209846,0.209528,-0.332673,19,0.0182362,10,-6.97044e-05,-3.47798,-0.396018,-0.148983,1.95491,0.209528,
2,0,0,1,0,36561.5,0.208348,0.208018,-0.341104,19,0.0181835,10,-7.09557e-05,-3.46711,-0.314381,-0.18767,2.49672,0.208018,
2,0,0,1,0,36561.7,0.206849,0.206528,-0.346615,19,0.0181301,10,-7.15856e-05,-3.46015,-0.292911,-0.201426,2.68585,0.206528,
2,0,0,1,0,36561.8,0.205352,0.204997,-0.345133,19,0.0180762,10,-7.07511e-05,-3.46201,-0.463254,-0.12736,1.71318,0.204997,
2,0,0,1,0,36562,0.203854,0.203526,-0.347587,19,0.018022,10,-7.07429e-05,-3.45894,-0.354205,-0.16657,2.26994,0.203526,
2,0,0,1,0,36562.1,0.202355,0.20206,-0.352349,19,0.0179674,10,-7.11956e-05,-3.45303,-0.365472,-0.161435,2.22006,0.20206,
2,0,0,1,0,36562.3,0.200857,0.200529,-0.354487,19,0.0179122,10,-7.10851e-05,-3.4504,-0.338189,-0.174459,2.41909,0.200529,
2,0,0,1,0,36562.4,0.199359,0.19902,-0.358627,19,0.0178566,10,-7.13741e-05,-3.44536,-0.434708,-0.135723,1.89456,0.19902,
2,0,0,1,0,36562.6,0.19786,0.197523,-0.362688,19,0.0178005,10,-7.16392e-05,-3.44047,-0.38137,-0.154705,2.18013,0.197523,
2,0,0,1,0,36562.7,0.196362,0.196036,-0.365629,19,0.0177441,10,-7.16767e-05,-3.43696,-0.402852,-0.146456,2.07881,0.196036,
2,0,0,1,0,36562.9,0.194864,0.194539,-0.368436,19,0.017687,10,-7.16752e-05,-3.43364,-0.332271,-0.177566,2.55365,0.194539,
2,0,0,1,0,36563,0.193366,0.192998,-0.372979,19,0.0176294,10,-7.19844e-05,-3.42832,-0.370581,-0.159209,2.30952,0.192998,
2,0,0,1,0,36563.2,0.191867,0.191569,-0.376083,19,0.0175712,10,-7.20458e-05,-3.42472,-0.41815,-0.141098,2.06945,0.191569,
2,0,0,1,0,36563.3,0.190369,0.190029,-0.377334,19,0.0175128,10,-7.17042e-05,-3.42327,-0.319192,-0.184841,2.7288,0.190029,
2,0,0,1,0,36563.5,0.188872,0.18852,-0.38232,19,0.0174538,10,-7.20748e-05,-3.41757,-0.281891,-0.209301,3.11809,0.18852,
2,0,0,1,0,36563.6,0.187373,0.187043,-0.38514,19,0.0173941,10,-7.20379e-05,-3.41438,-0.319681,-0.184559,2.77523,0.187043,
2,0,0,1,0,36563.8,0.185875,0.185577,-0.389319,19,0.0173339,10,-7.22484e-05,-3.40969,-0.39259,-0.150284,2.27676,0.185577,
2,0,0,1,0,36563.9,0.184377,0.184034,-0.391768,19,0.0172732,10,-7.20986e-05,-3.40697,-0.308377,-0.191324,2.93918,0.184034,
2,0,0,1,0,36564.1,0.182878,0.182598,-0.397675,19,0.0172119,10,-7.26147e-05,-3.40047,-0.33263,-0.177375,2.75688,0.182598,
2,0,0,1,0,36564.2,0.18138,0.181042,-0.401456,19,0.01715,10,-7.26806e-05,-3.39636,-0.35275,-0.167257,2.61863,0.181042,
2,0,0,1,0,36564.4,0.179882,0.179569,-0.40534,19,0.0170874,10,-7.27867e-05,-3.39218,-0.407928,-0.144633,2.28096,0.179569,
2,0,0,1,0,36564.5,0.178384,0.178063,-0.40893,19,0.0170242,10,-7.28151e-05,-3.38835,-0.347028,-0.170015,2.71783,0.178063,
2,0,0,1,0,36564.7,0.176886,0.176579,-0.41372,19,0.0169605,10,-7.30544e-05,-3.38329,-0.317888,-0.1856,2.9982,0.176579,
2,0,0,1,0,36564.8,0.175387,0.175076,-0.420939,19,0.016896,10,-7.36964e-05,-3.37578,-0.266019,-0.221789,3.62353,0.175076,
2,0,0,1,0,36565,0.17389,0.173576,-0.423122,19,0.0168307,10,-7.3444e-05,-3.37353,-0.266871,-0.22108,3.65982,0.173576,
2,0,0,1,0,36565.1,0.172392,0.172052,-0.428475,19,0.0167647,10,-7.37199e-05,-3.36807,-0.319348,-0.184751,3.08674,0.172052,
2,0,0,1,0,36565.3,0.170893,0.17057,-0.433903,19,0.0166979,10,-7.40107e-05,-3.36261,-0.248091,-0.237816,4.03014,0.17057,
2,0,0,1,0,36565.4,0.169395,0.169076,-0.43955,19,0.0166303,10,-7.43173e-05,-3.35699,-0.219451,-0.268853,4.60608,0.169076,
2,0,0,1,0,36565.6,0.167897,0.167604,-0.447245,19,0.0165615,10,-7.49599e-05,-3.34945,-0.233688,-0.252473,4.40921,0.167604,
2,0,0,1,0,36565.7,0.166398,0.166098,-0.45301,19,0.0164918,10,-7.52441e-05,-3.34389,-0.26107,-0.225993,4.0051,0.166098,
2,0,0,1,0,36565.9,0.1649,0.164585,-0.458761,19,0.0164212,10,-7.55051e-05,-3.33841,-0.209625,-0.281455,5.06256,0.164585,
2,0,0,1,0,36566,0.163402,0.163126,-0.466976,19,0.0163495,10,-7.61758e-05,-3.33071,-0.215168,-0.274204,5.0069,0.163126,
2,0,0,1,0,36566.2,0.161904,0.161574,-0.477347,19,0.0162765,10,-7.7127e-05,-3.32117,-0.17336,-0.340332,6.33383,0.161574,
2,0,0,1,0,36566.3,0.160405,0.160022,-0.485913,19,0.0162022,10,-7.77568e-05,-3.31344,-0.191098,-0.308743,5.84506,0.160022,
2,0,0,1,0,36566.5,0.158907,0.158532,-0.493402,19,0.0161266,10,-7.82199e-05,-3.3068,-0.173517,-0.340024,6.56102,0.158532,
2,0,0,1,0,36566.6,0.15741,0.157075,-0.506092,19,0.0160495,10,-7.94942e-05,-3.29577,-0.149026,-0.395904,7.8331,0.1570746,
2,0,0,1,0,36566.8,0.155911,0.155616,-0.515327,19,0.0159707,10,-8.0193e-05,-3.28792,-0.152163,-0.387741,7.84822,0.155616,
2,0,0,1,0,36566.9,0.154413,0.154053,-0.528936,19,0.0158899,10,-8.14842e-05,-3.2766,-0.145338,-0.40595,8.4008,0.154053,
2,0,0,1,0,36567.1,0.152915,0.152594,-0.542172,19,0.0158072,10,-8.27321e-05,-3.26586,-0.136946,-0.430828,9.16238,0.152594,
2,0,0,1,0,36567.2,0.151417,0.151077,-0.558359,19,0.0157226,10,-8.43554e-05,-3.25309,-0.117551,-0.50191,10.9779,0.151077,
2,0,0,1,0,36567.4,0.149918,0.14956,-0.578317,19,0.0156351,10,-8.64931e-05,-3.23783,-0.104935,-0.562252,12.6681,0.14956,
2,0,0,1,0,36567.5,0.14842,0.148096,-0.597328,19,0.0155448,10,-8.84615e-05,-3.22379,-0.0999368,-0.590373,13.7773,0.148096,
2,0,0,1,0,36567.7,0.146922,0.146591,-0.618638,19,0.0154514,10,-9.06866e-05,-3.20856,-0.0967192,-0.610014,14.7893,0.1465908,
2,0,0,1,0,36567.8,0.145424,0.145099,-0.642068,19,0.0153549,10,-9.31633e-05,-3.19242,-0.0914129,-0.645423,16.2545,0.145099,
2,0,0,1,0,36568,0.143925,0.143615,-0.66845,19,0.0152544,10,-9.59993e-05,-3.17493,-0.078161,-0.754852,19.7359,0.143615,
2,0,0,1,0,36568.1,0.142428,0.142083,-0.698379,19,0.0151496,10,-9.92279e-05,-3.15591,-0.078011,-0.756303,20.6398,0.142083,
2,0,0,1,0,36568.3,0.14093,0.14059,-0.730038,19,0.0150402,10,-0.000102636,-3.13665,-0.0804677,-0.733213,20.9013,0.14059,
2,0,0,1,0,36568.4,0.139431,0.139083,-0.758835,19,0.0149262,10,-0.000105541,-3.11985,-0.080036,-0.737168,21.9257,0.139083,
2,0,0,1,0,36568.6,0.137933,0.137613,-0.796788,19,0.0148072,10,-0.000109649,-3.09866,-0.0792134,-0.744823,23.1641,0.137613,
2,0,0,1,0,36568.7,0.136435,0.136165,-0.832904,19,0.0146828,10,-0.000113412,-3.07941,-0.0785154,-0.751445,24.3915,0.136165,
2,0,0,1,0,36568.9,0.134936,0.134635,-0.870597,19,0.014553,10,-0.000117213,-3.06018,-0.0867935,-0.679774,22.972,0.134635,
2,0,0,1,0,36569,0.133438,0.133111,-0.903435,19,0.0144178,10,-0.000120257,-3.0441,-0.0902772,-0.653543,23.0451,0.133111,
2,0,0,1,0,36569.2,0.13194,0.131596,-0.938762,19,0.0142775,10,-0.000123537,-3.02744,-0.0918303,-0.64249,23.5901,0.1315956,
2,0,0,1,0,36569.3,0.130442,0.130139,-0.974223,19,0.0141318,10,-0.000126784,-3.01134,-0.10025,-0.588528,22.334,0.130139,
2,0,0,1,0,36569.5,0.128943,0.128625,-1.00848,19,0.0139808,10,-0.000129715,-2.99633,-0.112826,-0.522927,20.4818,0.1286245,
2,0,0,1,0,36569.6,0.127445,0.127102,-1.03868,19,0.0138253,10,-0.000132018,-2.98352,-0.122841,-0.480294,19.392,0.127102,
2,0,0,1,0,36569.8,0.125948,0.125649,-1.06606,19,0.0136656,10,-0.00013395,-2.97222,-0.134672,-0.4381,18.1813,0.125649,
2,0,0,1,0,36569.9,0.124449,0.124137,-1.09225,19,0.0135015,10,-0.000135589,-2.96168,-0.143367,-0.411531,17.4797,0.1241367,
2,0,0,1,0,36570.1,0.122951,0.122636,-1.11505,19,0.0133337,10,-0.000136746,-2.95271,-0.177339,-0.332697,14.4381,0.122636,
2,0,0,1,0,36570.2,0.121453,0.121159,-1.13598,19,0.0131627,10,-0.000137634,-2.94463,-0.225497,-0.261644,11.5553,0.121159,
2,0,0,1,0,36570.4,0.119955,0.11958,-1.14874,19,0.0129892,10,-0.000137367,-2.93978,-0.259386,-0.227461,10.2094,0.11958,
2,0,0,1,0,36570.5,0.118456,0.118138,-1.16593,19,0.0128133,10,-0.000137741,-2.93333,-0.29391,-0.200741,9.11243,0.118138,
2,0,0,1,0,36570.7,0.116958,0.116639,-1.179,19,0.0126352,10,-0.000137517,-2.92849,-0.421445,-0.139995,6.41973,0.116639,
2,0,0,1,0,36570.8,0.11546,0.115101,-1.18453,19,0.0124557,10,-0.000136341,-2.92645,-0.762982,-0.0773282,3.56745,0.115101,
2,0,0,1,0,36571,0.113962,0.113632,-1.18711,19,0.0122755,10,-0.000134894,-2.92551,-1.16847,-0.0504936,2.33919,0.113632,
2,0,0,1,0,36571.1,0.112463,0.112158,-1.19299,19,0.0120948,10,-0.000133803,-2.92336,-6.07915,-0.00970531,0.450331,0.112158,
2,0,0,1,0,36571.3,0.110966,0.110638,-1.19302,19,0.0119138,10,-0.000131993,-2.92335,9.51306,0.006202,-0.288313,0.110638,
2,0,0,1,0,36571.4,0.109468,0.109153,-1.18944,19,0.0117329,10,-0.000129831,-2.92466,1.3597,0.043392,-2.01126,0.109153,
2,0,0,1,0,36571.6,0.107969,0.107659,-1.18624,19,0.0115522,10,-0.00012771,-2.92583,0.911193,0.0647503,-2.99971,0.107659,
2,0,0,1,0,36571.7,0.106471,0.10616,-1.18202,19,0.0113725,10,-0.000125483,-2.92737,0.970192,0.0608127,-2.80867,0.10616,
2,0,0,1,0,36571.9,0.104973,0.104629,-1.17712,19,0.0111934,10,-0.000123161,-2.92918,0.747408,0.0789395,-3.62334,0.104629,
2,0,0,1,0,36572,0.103474,0.103152,-1.17307,19,0.0110149,10,-0.000121005,-2.93067,0.555937,0.106127,-4.85123,0.103152,
2,0,0,1,0,36572.2,0.101976,0.101623,-1.16645,19,0.0108374,10,-0.000118538,-2.93313,0.559597,0.105433,-4.79216,0.101623,
2,0,0,1,0,36572.3,0.100478,0.100116,-1.15828,19,0.0106612,10,-0.000115963,-2.93619,0.555537,0.106204,-4.804,0.100116,
2,0,0,1,0,36572.5,0.0989798,0.098653,-1.15276,19,0.0104859,10,-0.000113723,-2.93826,0.686948,0.0858872,-3.85462,0.098653,
2,0,0,1,0,36572.6,0.0974808,0.0971314,-1.14517,19,0.0103115,10,-0.000111232,-2.94113,0.583585,0.101099,-4.51592,0.0971314,
2,0,0,1,0,36572.8,0.0959833,0.0956933,-1.13836,19,0.0101383,10,-0.000108933,-2.94372,0.526215,0.112122,-4.97792,0.0956933,
2,0,0,1,0,36572.9,0.0944857,0.0942203,-1.12845,19,0.00996629,10,-0.000106323,-2.94752,0.714601,0.0825635,-3.6429,0.0942203,
2,0,0,1,0,36573.1,0.0929871,0.0927073,-1.12306,19,0.00979527,10,-0.000104116,-2.9496,0.675015,0.0874055,-3.83216,0.0927073,
2,0,0,1,0,36573.2,0.0914889,0.0911549,-1.11778,19,0.00962507,10,-0.000101891,-2.95164,0.681896,0.0865235,-3.76852,0.0911549,
2,0,0,1,0,36573.4,0.0899907,0.0896979,-1.11093,19,0.00945586,10,-9.9648e-05,-2.95431,0.471032,0.125257,-5.41933,0.0896979,
2,0,0,1,0,36573.5,0.0884925,0.0881571,-1.10085,19,0.00928785,10,-9.70477e-05,-2.95827,0.507773,0.116194,-5.00011,0.0881571,
2,0,0,1,0,36573.7,0.0869943,0.0866418,-1.09473,19,0.0091211,10,-9.48492e-05,-2.96069,0.575844,0.102458,-4.38758,0.0866418,
2,0,0,1,0,36573.8,0.0854961,0.0852081,-1.08814,19,0.00895521,10,-9.27184e-05,-2.96331,0.557545,0.105821,-4.49741,0.0852081,
2,0,0,1,0,36574,0.083998,0.0836599,-1.08309,19,0.00879024,10,-9.06111e-05,-2.96534,0.461814,0.127757,-5.39119,0.0836599,
2,0,0,1,0,36574.1,0.0824998,0.0821892,-1.07622,19,0.00862622,10,-8.8454e-05,-2.9681,0.539347,0.109392,-4.59065,0.08218915,
2,0,0,1,0,36574.3,0.0810011,0.0806757,-1.06935,19,0.00846344,10,-8.62706e-05,-2.97088,0.522575,0.112902,-4.7162,0.0806757,
2,0,0,1,0,36574.4,0.0795036,0.0792459,-1.06199,19,0.00830154,10,-8.41587e-05,-2.97388,0.662957,0.0889952,-3.68596,0.0792459,
2,0,0,1,0,36574.6,0.0780061,0.07768,-1.05726,19,0.00814049,10,-8.21276e-05,-2.97582,0.544099,0.108436,-4.46893,0.07768,
2,0,0,1,0,36574.7,0.076507,0.0761576,-1.04901,19,0.00798035,10,-7.98901e-05,-2.97922,0.562822,0.104829,-4.29309,0.0761576,
2,0,0,1,0,36574.9,0.0750088,0.0746984,-1.04239,19,0.00782161,10,-7.78647e-05,-2.98197,0.552894,0.106711,-4.34334,0.0746984,
2,0,0,1,0,36575,0.0735106,0.0732096,-1.03417,19,0.00766369,10,-7.5711e-05,-2.98541,0.694726,0.0849256,-3.43081,0.0732096,
2,0,0,1,0,36575.2,0.0720124,0.0716201,-1.02964,19,0.00750666,10,-7.3743e-05,-2.98731,0.585006,0.100854,-4.0558,0.0716201,
2,0,0,1,0,36575.3,0.0705142,0.0701779,-1.02414,19,0.00735056,10,-7.18722e-05,-2.98964,0.50406,0.11705,-4.67548,0.07017792,
2,0,0,1,0,36575.5,0.069016,0.0687474,-1.01583,19,0.0071956,10,-6.9836e-05,-2.99318,0.534614,0.11036,-4.38504,0.0687474,
2,0,0,1,0,36575.6,0.0675179,0.0672003,-1.01126,19,0.00704159,10,-6.79572e-05,-2.99514,0.72943,0.080885,-3.19127,0.0672003,
2,0,0,1,0,36575.8,0.0660188,0.065685,-1.00966,19,0.00688816,10,-6.63197e-05,-2.99582,0.582622,0.101266,-3.97257,0.065685,
2,0,0,1,0,36575.9,0.0645213,0.0642311,-0.999831,19,0.00673556,10,-6.42203e-05,-3.00007,0.496042,0.118941,-4.63009,0.06423109,
2,0,0,1,0,36576.1,0.0630237,0.0626696,-0.991576,19,0.00658409,10,-6.21417e-05,-3.00367,0.566315,0.104182,-4.04148,0.0626696,
2,0,0,1,0,36576.2,0.0615251,0.0611793,-0.986605,19,0.00643367,10,-6.03598e-05,-3.00586,0.52898,0.111535,-4.29254,0.06117931,
2,0,0,1,0,36576.4,0.0600269,0.0596926,-0.980546,19,0.00628407,10,-5.85313e-05,-3.00853,0.597075,0.098815,-3.78829,0.0596926,
2,0,0,1,0,36576.5,0.0585287,0.0582006,-0.973314,19,0.00613546,10,-5.66475e-05,-3.01175,0.432305,0.136478,-5.17907,0.0582006,
2,0,0,1,0,36576.7,0.0570305,0.0566821,-0.968646,19,0.00598772,10,-5.49049e-05,-3.01383,0.426018,0.138492,-5.23089,0.0566821,
2,0,0,1,0,36576.8,0.0555323,0.0552272,-0.96122,19,0.00584127,10,-5.30855e-05,-3.01718,0.574854,0.102635,-3.84731,0.05522725,
2,0,0,1,0,36577,0.0540342,0.0537162,-0.955843,19,0.00569553,10,-5.13442e-05,-3.01961,0.586228,0.100643,-3.74953,0.0537162,
2,0,0,1,0,36577.1,0.052536,0.052203,-0.94996,19,0.00555061,10,-4.95907e-05,-3.02229,0.474783,0.124267,-4.59847,0.052203,
2,0,0,1,0,36577.3,0.0510378,0.0507067,-0.943835,19,0.00540669,10,-4.78588e-05,-3.0251,0.428684,0.137631,-5.06057,0.0507067,
2,0,0,1,0,36577.4,0.0495391,0.0492251,-0.93302,19,0.00526399,10,-4.5928e-05,-3.03011,0.46628,0.126533,-4.61617,0.04922514,
2,0,0,1,0,36577.6,0.0480416,0.0477453,-0.927531,19,0.00512229,10,-4.42853e-05,-3.03267,0.682654,0.0864273,-3.12443,0.0477453,
2,0,0,1,0,36577.7,0.0465441,0.0462198,-0.919832,19,0.00498155,10,-4.25144e-05,-3.03629,0.487919,0.120922,-4.34782,0.0462198,
2,0,0,1,0,36577.9,0.045045,0.0447473,-0.913753,19,0.00484172,10,-4.0888e-05,-3.03917,0.46301,0.127427,-4.54882,0.0447473,
2,0,0,1,0,36578,0.0435468,0.043216,-0.903674,19,0.00470319,10,-3.90532e-05,-3.04399,0.451317,0.130728,-4.6283,0.043216,
2,0,0,1,0,36578.2,0.0420486,0.041724,-0.901513,19,0.00456573,10,-3.76147e-05,-3.04503,0.534846,0.110312,-3.87969,0.041724,
2,0,0,1,0,36578.3,0.0405504,0.0402405,-0.895494,19,0.00442904,10,-3.60351e-05,-3.04794,0.497752,0.118533,-4.1297,0.04024053,
2,0,0,1,0,36578.5,0.0390523,0.0386966,-0.887178,19,0.0042933,10,-3.43308e-05,-3.05199,0.363856,0.162152,-5.60899,0.0386966,
2,0,0,1,0,36578.6,0.0375541,0.0372459,-0.878094,19,0.00415877,10,-3.27054e-05,-3.05646,0.415331,0.142056,-4.88756,0.0372459,
2,0,0,1,0,36578.8,0.0360559,0.0357444,-0.872503,19,0.0040255,10,-3.11871e-05,-3.05923,0.408449,0.144449,-4.93006,0.0357444,
2,0,0,1,0,36578.9,0.0345568,0.0342238,-0.865564,19,0.00389287,10,-2.96229e-05,-3.0627,0.465249,0.126814,-4.28752,0.0342238,
2,0,0,1,0,36579.1,0.0330593,0.0327773,-0.860546,19,0.00376136,10,-2.82064e-05,-3.06523,0.431433,0.136754,-4.58874,0.0327773,
2,0,0,1,0,36579.2,0.0315618,0.0311817,-0.852589,19,0.00363087,10,-2.65852e-05,-3.06926,0.43877,0.134467,-4.46941,0.0311817,
2,0,0,1,0,36579.4,0.0300631,0.0297733,-0.845674,19,0.00350154,10,-2.51785e-05,-3.0728,0.485025,0.121643,-4.01619,0.0297733,
2,0,0,1,0,36579.5,0.0285649,0.0282548,-0.839028,19,0.00337312,10,-2.37065e-05,-3.07622,0.555714,0.10617,-3.46759,0.0282548,
2,0,0,1,0,36579.7,0.0270667,0.0267426,-0.833186,19,0.0032455,10,-2.22816e-05,-3.07926,0.42645,0.138352,-4.49993,0.0267426,
2,0,0,1,0,36579.8,0.0255685,0.025292,-0.826158,19,0.00311886,10,-2.08952e-05,-3.08294,0.440795,0.133849,-4.32011,0.025292,
2,0,0,1,0,36580,0.0240704,0.0237883,-0.819635,19,0.00299337,10,-1.94977e-05,-3.08638,0.415866,0.141872,-4.54578,0.0237883,
2,0,0,1,0,36580.1,0.0225722,0.0222984,-0.813664,19,0.00286862,10,-1.81434e-05,-3.08956,0.630455,0.0935832,-2.97421,0.0222984,
2,0,0,1,0,36580.3,0.021074,0.0207015,-0.809306,19,0.0027447,10,-1.67538e-05,-3.09189,0.569424,0.103613,-3.27834,0.0207015,
2,0,0,1,0,36580.4,0.0195758,0.0192551,-0.80359,19,0.00262153,10,-1.54732e-05,-3.09497,0.472605,0.12484,-3.91686,0.0192551,
2,0,0,1,0,36580.6,0.0180772,0.0177797,-0.797834,19,0.00249916,10,-1.41853e-05,-3.09809,0.689699,0.0855445,-2.66713,0.0177797,
2,0,0,1,0,36580.7,0.0165796,0.0162967,-0.794036,19,0.0023776,10,-1.29402e-05,-3.10016,0.846162,0.0697266,-2.1632,0.0162967,
2,0,0,1,0,36580.9,0.0150821,0.0147463,-0.793093,19,0.00225655,10,-1.16952e-05,-3.10068,0.6872,0.0858556,-2.65249,0.0147463,
2,0,0,1,0,36581,0.013583,0.0132892,-0.787295,19,0.0021358,10,-1.04625e-05,-3.10386,0.713077,0.08274,-2.53724,0.0132892,
2,0,0,1,0,36581.2,0.0120848,0.0117463,-0.782357,19,0.0020158,10,-9.18983e-06,-3.1066,0.827121,0.0713318,-2.18648,0.0117463,
2,0,0,1,0,36581.3,0.0105866,0.0102809,-0.780932,19,0.00189644,10,-8.02865e-06,-3.10739,1.01751,0.0579844,-1.76986,0.0102809,
2,0,0,1,0,36581.5,0.00908846,0.00872525,-0.779141,19,0.00177728,10,-6.7982e-06,-3.10838,1.63479,0.0360903,-1.09776,0.00872525,
2,0,0,1,0,36581.6,0.00759027,0.00726613,-0.778025,19,0.00165837,10,-5.65323e-06,-3.10901,1.26153,0.0467687,-1.4209,0.00726613,
2,0,0,1,0,36581.8,0.00609207,0.00578898,-0.778114,19,0.00153975,10,-4.50448e-06,-3.10896,2.02388,0.029152,-0.884282,0.00578898,
2,0,0,1,0,36581.9,0.00459389,0.0042673,-0.776194,19,0.00142138,10,-3.31225e-06,-3.11003,6.33563,0.00931241,-0.281789,0.0042673,
2,0,0,1,0,36582.1,0.0030948,0.00284965,-0.775715,19,0.00130294,10,-2.21052e-06,-3.1103,-0.894567,-0.0659537,2.00162,0.00284965,
2,0,0,1,0,36582.2,0.00159728,0.0012288,-0.786001,19,0.0011832,10,-9.6584e-07,-3.10458, , , ,0.0012288,
2,0,0,1,0,36582.3,0.000199195,-0.000147811,-0.77786,19,0.00107187,10,1.14977e-07,-3.1091, , , ,-0.000147811,