File: Figure_codes/Fig_3-5/rawdata_trumpetplot_data/after 10th/20221101_1-115_003_TrumpetPlot_ParaChange_from10_every3_10_CV_C01_28.csv
mode,ox/red,error,control changes,counter inc.,time/s,control/V,Ewe/V,<I>/mA,cycle number,(Q-Qo)/C,I Range,P/W,log(|I|),Tafel slope mV/dec,alpha_eff,dI/d(E-IR),E-IR/V,
2,1,0,0,0,56354.2,-2.44065e-05,-0.000497109,5.00285,29,0.0000000E+000,10,-2.48697e-06,-2.30078, , , ,-0.000497109,
2,1,0,1,0,56354.2,0.00179726,0.00139492,5.6351,29,4.72504e-05,10,7.86051e-06,-2.2491, , , ,0.00139492,
2,1,0,1,0,56354.2,0.00379485,0.00346112,6.14547,29,0.000106461,10,2.12702e-05,-2.21144,0.0651898,0.905049,214.113,0.00346112,
2,1,0,1,0,56354.2,0.00579244,0.00547961,6.50968,29,0.000169827,10,3.56705e-05,-2.18644,0.0845311,0.697968,176.769,0.00547961,
2,1,0,1,0,56354.2,0.00779002,0.00742413,6.84601,29,0.000236692,10,5.08256e-05,-2.16456,0.100858,0.584983,155.538,0.00742413,
2,1,0,1,0,56354.2,0.00977853,0.00943784,7.12534,29,0.000305898,10,6.72478e-05,-2.14719,0.121377,0.486091,134.917,0.00943784,
2,1,0,1,0,56354.2,0.0117761,0.011416,7.38458,29,0.000378514,10,8.43021e-05,-2.13167,0.141515,0.416918,119.753,0.011416,
2,1,0,1,0,56354.2,0.0137737,0.0133976,7.59953,29,0.000453429,10,0.000101815,-2.11921,0.159956,0.368851,109.399,0.0133976,
2,1,0,1,0,56354.2,0.0157713,0.015387,7.819,29,0.000530594,10,0.000120311,-2.10685,0.177297,0.332774,101.318,0.015387,
2,1,0,1,0,56354.3,0.017778,0.0174181,8.00687,29,0.00060976,10,0.000139464,-2.09654,0.204919,0.287918,89.8676,0.0174181,
2,1,0,1,0,56354.3,0.0197755,0.0193962,8.1793,29,0.00069072,10,0.000158647,-2.08728,0.231051,0.255354,81.4109,0.0193962,
2,1,0,1,0,56354.3,0.0217731,0.0214307,8.33355,29,0.000773302,10,0.000178594,-2.07917,0.24543,0.240394,78.1959,0.0214307,
2,1,0,1,0,56354.3,0.0237707,0.0233993,8.49233,29,0.000857473,10,0.000198715,-2.07097,0.264008,0.223478,73.9554,0.0233993,
2,1,0,1,0,56354.3,0.0257774,0.0254009,8.62716,29,0.000943077,10,0.000219138,-2.06413,0.286742,0.20576,69.2939,0.0254009,
2,1,0,1,0,56354.3,0.027775,0.0273712,8.76756,29,0.00103011,10,0.000239979,-2.05712,0.304704,0.193631,66.196,0.0273712,
2,1,0,1,0,56354.3,0.0297726,0.0294283,8.89376,29,0.00111841,10,0.000261729,-2.05091,0.336786,0.175185,60.7815,0.0294283,
2,1,0,1,0,56354.3,0.0317701,0.0314247,9.01393,29,0.00120798,10,0.00028326,-2.04509,0.342245,0.172391,60.643,0.0314247,
2,1,0,1,0,56354.3,0.0337586,0.0334012,9.13469,29,0.00129781,10,0.000305109,-2.03931,0.340175,0.17344,61.8431,0.0334012,
2,1,0,1,0,56354.3,0.0357562,0.0354053,9.26011,29,0.00138981,10,0.000327857,-2.03338,0.378624,0.155828,56.2335,0.0354053,
2,1,0,1,0,56354.4,0.0377538,0.0374016,9.35964,29,0.00148293,10,0.000350065,-2.02874,0.383425,0.153876,56.2771,0.0374016,
2,1,0,1,0,56354.4,0.0397514,0.0393699,9.48322,29,0.00157715,10,0.000373354,-2.02304,0.362045,0.162963,60.2855,0.0393699,
2,1,0,1,0,56354.4,0.0417399,0.0413761,9.59925,29,0.00167158,10,0.00039718,-2.01776,0.390108,0.15124,56.6436,0.0413761,
2,1,0,1,0,56354.4,0.0437375,0.0433916,9.71102,29,0.00176815,10,0.000421377,-2.01274,0.423426,0.13934,52.7726,0.0433916,
2,1,0,1,0,56354.4,0.0457351,0.0453767,9.81037,29,0.00186574,10,0.000445162,-2.00831,0.412354,0.143081,54.8321,0.0453767,
2,1,0,1,0,56354.4,0.0477327,0.0473626,9.92876,29,0.00196446,10,0.000470252,-2.0031,0.391367,0.150754,58.3995,0.0473626,
2,1,0,1,0,56354.4,0.0497394,0.0493546,10.0427,29,0.00206431,10,0.000495653,-1.99815,0.403608,0.146182,57.2919,0.0493546,
2,1,0,1,0,56354.4,0.0517369,0.051344,10.1569,29,0.00216533,10,0.000521494,-1.99324,0.415141,0.14212,56.3287,0.051344,
2,1,0,1,0,56354.4,0.0537345,0.053382,10.2695,29,0.00226744,10,0.000548209,-1.98845,0.416512,0.141653,56.7744,0.053382,
2,1,0,1,0,56354.4,0.0557321,0.0553394,10.3837,29,0.00237073,10,0.000574627,-1.98365,0.436113,0.135286,54.794,0.05533937,
2,1,0,1,0,56354.5,0.0577297,0.0573574,10.4874,29,0.00247509,10,0.000601528,-1.97933,0.417331,0.141375,57.9303,0.0573574,
2,1,0,1,0,56354.5,0.0597364,0.0593538,10.6163,29,0.00258066,10,0.000630115,-1.97403,0.421442,0.139996,57.938,0.0593538,
2,1,0,1,0,56354.5,0.0617339,0.0614117,10.7223,29,0.00268737,10,0.000658473,-1.96971,0.447641,0.131802,55.1755,0.0614117,
2,1,0,1,0,56354.5,0.0637315,0.0633656,10.8376,29,0.00279523,10,0.000686731,-1.96507,0.430443,0.137068,57.969,0.0633656,
2,1,0,1,0,56354.5,0.0657291,0.0653724,10.9519,29,0.00290418,10,0.000715949,-1.96051,0.408177,0.144545,61.8289,0.0653724,
2,1,0,1,0,56354.5,0.0677176,0.0673504,11.084,29,0.00301333,10,0.00074651,-1.9553,0.424735,0.13891,60.0141,0.06735035,
2,1,0,1,0,56354.5,0.0697152,0.0693307,11.1894,29,0.00312468,10,0.00077577,-1.95119,0.44582,0.13234,57.8394,0.0693307,
2,1,0,1,0,56354.5,0.0717128,0.0713308,11.3142,29,0.00323723,10,0.000807052,-1.94638,0.433302,0.136164,60.0984,0.0713308,
2,1,0,1,0,56354.5,0.0737104,0.0733366,11.4302,29,0.00335093,10,0.00083825,-1.94195,0.438304,0.13461,60.0681,0.0733366,
2,1,0,1,0,56354.5,0.0756989,0.0753377,11.5549,29,0.00346475,10,0.000870519,-1.93723,0.464134,0.127118,57.2726,0.0753377,
2,1,0,1,0,56354.6,0.0776965,0.0773427,11.6596,29,0.00358083,10,0.000901785,-1.93332,0.456126,0.12935,58.924,0.0773427,
2,1,0,1,0,56354.6,0.0796941,0.0793408,11.7908,29,0.00369814,10,0.000935489,-1.92846,0.461287,0.127903,58.7864,0.0793408,
2,1,0,1,0,56354.6,0.0816916,0.0813476,11.895,29,0.00381657,10,0.000967633,-1.92463,0.47731,0.123609,57.4315,0.08134757,
2,1,0,1,0,56354.6,0.0836983,0.083337,12.0203,29,0.00393616,10,0.00100173,-1.92009,0.485804,0.121448,56.915,0.083337,
2,1,0,1,0,56354.6,0.0856959,0.0853307,12.1217,29,0.00405688,10,0.00103436,-1.91644,0.514852,0.114596,54.241,0.0853307,
2,1,0,1,0,56354.6,0.0876935,0.0873263,12.2367,29,0.00417873,10,0.00106858,-1.91234,0.530314,0.111255,53.0899,0.0873263,
2,1,0,1,0,56354.6,0.0896911,0.0893183,12.3334,29,0.00430155,10,0.0011016,-1.90892,0.499132,0.118205,56.9804,0.0893183,
2,1,0,1,0,56354.6,0.0916978,0.0913754,12.4674,29,0.00442559,10,0.00113921,-1.90422,0.486219,0.121345,58.9626,0.0913754,
2,1,0,1,0,56354.6,0.0936953,0.0933075,12.5687,29,0.00455077,10,0.00117275,-1.90071,0.541019,0.109053,53.5133,0.0933075,
2,1,0,1,0,56354.6,0.0956929,0.0953559,12.6804,29,0.00467704,10,0.00120915,-1.89687,0.565608,0.104313,51.5869,0.0953559,
2,1,0,1,0,56354.7,0.0976905,0.0973185,12.7756,29,0.00480433,10,0.0012433,-1.89362,0.53059,0.111197,55.5026,0.0973185,
2,1,0,1,0,56354.7,0.099679,0.0993025,12.8994,29,0.00493142,10,0.00128095,-1.88943,0.554954,0.106315,53.451,0.0993025,
2,1,0,1,0,56354.7,0.101677,0.101328,12.9899,29,0.00506088,10,0.00131624,-1.88639,0.572091,0.10313,52.3371,0.101328,
2,1,0,1,0,56354.7,0.103674,0.103289,13.1081,29,0.00519139,10,0.00135391,-1.88246,0.540479,0.109162,55.8151,0.103289,
2,1,0,1,0,56354.7,0.105672,0.105332,13.2133,29,0.005323,10,0.00139178,-1.87899,0.531947,0.110913,57.2414,0.105332,
2,1,0,1,0,56354.7,0.107656,0.107351,13.3406,29,0.00545445,10,0.00143214,-1.87482,0.511309,0.11539,60.0396,0.107351,
2,1,0,1,0,56354.7,0.109658,0.109306,13.452,29,0.0055884,10,0.00147038,-1.87121,0.486068,0.121382,63.7873,0.109306,
2,1,0,1,0,56354.7,0.111655,0.111272,13.5907,29,0.00572363,10,0.00151227,-1.86676,0.478173,0.123386,65.3993,0.111272,
2,1,0,1,0,56354.7,0.113653,0.113275,13.7116,29,0.00586014,10,0.00155318,-1.86291,0.473424,0.124624,66.7491,0.113275,
2,1,0,1,0,56354.7,0.115651,0.115278,13.8581,29,0.00599797,10,0.00159753,-1.8583,0.439092,0.134368,72.6689,0.115278,
2,1,0,1,0,56354.8,0.117657,0.117309,14.0047,29,0.0061373,10,0.00164287,-1.85373,0.41876,0.140892,77.0488,0.117309,
2,1,0,1,0,56354.8,0.119655,0.1193,14.168,29,0.0062782,10,0.00169024,-1.84869,0.428395,0.137723,76.0846,0.1193001,
2,1,0,1,0,56354.8,0.121652,0.121289,14.3075,29,0.00642057,10,0.00173533,-1.84444,0.424215,0.13908,77.7434,0.121289,
2,1,0,1,0,56354.8,0.12365,0.123302,14.4792,29,0.00656455,10,0.00178531,-1.83926,0.389272,0.151565,85.6417,0.123302,
2,1,0,1,0,56354.8,0.125657,0.125298,14.6508,29,0.00671025,10,0.00183572,-1.83414,0.394771,0.149454,85.4384,0.125298,
2,1,0,1,0,56354.8,0.127654,0.127273,14.8184,29,0.00685764,10,0.00188599,-1.8292,0.410195,0.143834,83.1723,0.1272734,
2,1,0,1,0,56354.8,0.129652,0.129303,14.9839,29,0.00700664,10,0.00193746,-1.82437,0.402243,0.146678,85.8105,0.129303,
2,1,0,1,0,56354.8,0.131649,0.131296,15.1637,29,0.00715741,10,0.00199093,-1.8192,0.408954,0.144271,85.3083,0.131296,
2,1,0,1,0,56354.8,0.133638,0.133241,15.3199,29,0.00730836,10,0.00204125,-1.81474,0.424214,0.139081,83.1921,0.133241,
2,1,0,1,0,56354.8,0.135636,0.135233,15.4911,29,0.00746245,10,0.00209491,-1.80992,0.445157,0.132537,80.0732,0.135233,
2,1,0,1,0,56354.9,0.137633,0.137266,15.6422,29,0.00761814,10,0.00214715,-1.8057,0.469025,0.125793,76.8095,0.137266,
2,1,0,1,0,56354.9,0.139631,0.139271,15.8013,29,0.0077754,10,0.00220067,-1.80131,0.476265,0.123881,76.3613,0.139271,
2,1,0,1,0,56354.9,0.141619,0.141269,15.9478,29,0.00793253,10,0.00225293,-1.7973,0.489329,0.120573,75.0573,0.141269,
2,1,0,1,0,56354.9,0.143617,0.143262,16.1009,29,0.0080928,10,0.00230665,-1.79315,0.535316,0.110215,69.1877,0.143262,
2,1,0,1,0,56354.9,0.145614,0.145248,16.2231,29,0.00825442,10,0.00235637,-1.78987,0.599971,0.0983381,62.2658,0.145248,
2,1,0,1,0,56354.9,0.147612,0.147234,16.3482,29,0.0084173,10,0.00240702,-1.78653,0.609981,0.0967243,61.7015,0.1472344,
2,1,0,1,0,56354.9,0.149619,0.149222,16.4684,29,0.00858138,10,0.00245744,-1.78335,0.679529,0.0868249,55.7777,0.149222,
2,1,0,1,0,56354.9,0.151616,0.151283,16.574,29,0.00874664,10,0.00250738,-1.78057,0.82178,0.0717954,46.4031,0.151283,
2,1,0,1,0,56354.9,0.153614,0.153223,16.654,29,0.00891278,10,0.00255179,-1.77848,1.00463,0.058728,38.1618,0.153223,
2,1,0,1,0,56354.9,0.155611,0.155283,16.7267,29,0.00907972,10,0.00259737,-1.77659,1.27026,0.0464472,30.2997,0.155283,
2,1,0,1,0,56355,0.157618,0.157274,16.7768,29,0.00924725,10,0.00263855,-1.77529,1.9849,0.0297245,19.4484,0.157274,
2,1,0,1,0,56355,0.159616,0.159235,16.8035,29,0.0094152,10,0.00267571,-1.7746,14.1843,0.00415952,2.72431,0.1592351,
2,1,0,1,0,56355,0.161613,0.16127,16.7877,29,0.00958318,10,0.00270734,-1.77501,-3.97261,-0.0148517,-9.7283,0.16127,
2,1,0,1,0,56355,0.163611,0.163243,16.7646,29,0.00975097,10,0.00273669,-1.77561,-1.4765,-0.0399594,-26.0997,0.163243,
2,1,0,1,0,56355,0.165618,0.165221,16.6845,29,0.0099182,10,0.00275663,-1.77769,-0.897794,-0.0657166,-42.777,0.165221,
2,1,0,1,0,56355,0.167597,0.167233,16.5939,29,0.010083,10,0.00277504,-1.78005,-0.657484,-0.0897361,-58.0212,0.167233,
2,1,0,1,0,56355,0.169595,0.169247,16.4509,29,0.0102482,10,0.00278427,-1.78381,-0.486053,-0.121386,-77.8606,0.169247,
2,1,0,1,0,56355,0.171592,0.171285,16.2784,29,0.0104118,10,0.00278824,-1.78839,-0.377338,-0.156359,-99.193,0.171285,
2,1,0,1,0,56355,0.173572,0.173175,16.0613,29,0.0105719,10,0.00278142,-1.79422,-0.32501,-0.181533,-113.725,0.173175,
2,1,0,1,0,56355,0.175578,0.175242,15.8283,29,0.0107314,10,0.00277379,-1.80057,-0.291859,-0.202153,-124.712,0.175242,
2,1,0,1,0,56355.1,0.177576,0.177223,15.5564,29,0.0108883,10,0.00275696,-1.80809,-0.251303,-0.234776,-142.421,0.177223,
2,1,0,1,0,56355.1,0.179573,0.179214,15.2626,29,0.0110423,10,0.00273528,-1.81637,-0.2282,-0.258545,-153.868,0.179214,
2,1,0,1,0,56355.1,0.181571,0.18119,14.9461,29,0.0111933,10,0.00270808,-1.82547,-0.217107,-0.271755,-158.493,0.18119,
2,1,0,1,0,56355.1,0.183578,0.183205,14.6301,29,0.0113412,10,0.00268031,-1.83475,-0.203212,-0.290337,-165.526,0.183205,
2,1,0,1,0,56355.1,0.185575,0.185241,14.2756,29,0.0114857,10,0.00264442,-1.84541,-0.190738,-0.309325,-172.423,0.185241,
2,1,0,1,0,56355.1,0.187573,0.187201,13.9412,29,0.0116268,10,0.0026098,-1.8557,-0.188155,-0.313571,-170.535,0.187201,
2,1,0,1,0,56355.1,0.18957,0.1892,13.6003,29,0.0117644,10,0.00257318,-1.86645,-0.191589,-0.307952,-163.526,0.1892,
2,1,0,1,0,56355.1,0.191577,0.191264,13.2768,29,0.0118988,10,0.00253936,-1.87691,-0.184491,-0.319799,-165.586,0.191264,
2,1,0,1,0,56355.1,0.193575,0.19319,12.9397,29,0.0120298,10,0.00249982,-1.88807,-0.186828,-0.315798,-159.675,0.19319,
2,1,0,1,0,56355.1,0.195572,0.195252,12.6399,29,0.0121576,10,0.00246797,-1.89826,-0.189103,-0.312,-153.758,0.195252,
2,1,0,1,0,56355.2,0.19757,0.197217,12.3205,29,0.0122824,10,0.00242981,-1.90937,-0.190399,-0.309875,-149.262,0.197217,
2,1,0,1,0,56355.2,0.199558,0.199207,12.0496,29,0.012403,10,0.00240036,-1.91903,-0.202791,-0.29094,-136.75,0.199207,
2,1,0,1,0,56355.2,0.201556,0.201234,11.7711,29,0.012522,10,0.00236876,-1.92918,-0.201667,-0.292561,-134.501,0.201234,
2,1,0,1,0,56355.2,0.203553,0.203186,11.5144,29,0.0126384,10,0.00233957,-1.93876,-0.202926,-0.290746,-130.636,0.203186,
2,1,0,1,0,56355.2,0.205551,0.205159,11.2584,29,0.0127522,10,0.00230977,-1.94852,-0.230237,-0.256257,-112.85,0.205159,
2,1,0,1,0,56355.2,0.20754,0.207242,11.0567,29,0.0128626,10,0.00229141,-1.95638,-0.235636,-0.250386,-107.89,0.207242,
2,1,0,1,0,56355.2,0.209537,0.209165,10.8262,29,0.012972,10,0.00226447,-1.96552,-0.230362,-0.256118,-108.365,0.209165,
2,1,0,1,0,56355.2,0.211535,0.21119,10.6289,29,0.0130792,10,0.00224471,-1.97351,-0.250015,-0.235985,-97.8795,0.21119,
2,1,0,1,0,56355.2,0.213532,0.213195,10.4318,29,0.0131844,10,0.002224,-1.98164,-0.262368,-0.224875,-91.6693,0.213195,
2,1,0,1,0,56355.2,0.215539,0.215173,10.2637,29,0.0132879,10,0.00220848,-1.98869,-0.268519,-0.219723,-87.9465,0.2151731,
2,1,0,1,0,56355.3,0.217537,0.217169,10.0822,29,0.0133896,10,0.00218955,-1.99644,-0.286521,-0.205918,-81.1453,0.217169,
2,1,0,1,0,56355.3,0.219534,0.219253,9.93265,29,0.0134896,10,0.00217777,-2.00293,-0.299612,-0.196921,-76.3054,0.219253,
2,1,0,1,0,56355.3,0.221532,0.221169,9.77704,29,0.0135882,10,0.00216238,-2.00979,-0.308775,-0.191078,-72.9936,0.221169,
2,1,0,1,0,56355.3,0.223534,0.223187,9.64551,29,0.0136853,10,0.00215275,-2.01567,-0.334489,-0.176388,-66.3813,0.223187,
2,1,0,1,0,56355.3,0.225536,0.225189,9.51021,29,0.013781,10,0.00214159,-2.02181,-0.340461,-0.173295,-64.3707,0.225189,
2,1,0,1,0,56355.3,0.227534,0.227136,9.39134,29,0.0138756,10,0.00213311,-2.02727,-0.352912,-0.16718,-61.2515,0.227136,
2,1,0,1,0,56355.3,0.229531,0.229166,9.26661,29,0.0139688,10,0.00212359,-2.03308,-0.38252,-0.15424,-55.8455,0.229166,
2,1,0,1,0,56355.3,0.231529,0.2312,9.1644,29,0.014061,10,0.0021188,-2.0379,-0.419022,-0.140804,-50.3611,0.2311995,
2,1,0,1,0,56355.3,0.233517,0.233199,9.06348,29,0.0141512,10,0.0021136,-2.04271,-0.420573,-0.140285,-49.6281,0.233199,
2,1,0,1,0,56355.3,0.235515,0.235203,8.96569,29,0.0142413,10,0.00210876,-2.04742,-0.418459,-0.140994,-49.3335,0.235203,
2,1,0,1,0,56355.4,0.237512,0.237153,8.8684,29,0.0143305,10,0.00210317,-2.05215,-0.448607,-0.131518,-45.5518,0.2371535,
2,1,0,1,0,56355.4,0.23951,0.239183,8.78441,29,0.0144187,10,0.00210108,-2.05629,-0.485695,-0.121475,-41.6451,0.239183,
2,1,0,1,0,56355.4,0.241499,0.241175,8.70092,29,0.0145053,10,0.00209845,-2.06044,-0.490873,-0.120194,-40.8274,0.241175,
2,1,0,1,0,56355.4,0.243496,0.243123,8.62355,29,0.0145919,10,0.00209658,-2.06431,-0.500833,-0.117804,-39.6386,0.243123,
2,1,0,1,0,56355.4,0.245494,0.245158,8.54307,29,0.0146777,10,0.0020944,-2.06839,-0.537899,-0.109686,-36.601,0.245158,
2,1,0,1,0,56355.4,0.247491,0.247117,8.47735,29,0.0147628,10,0.0020949,-2.07174,-0.568376,-0.103804,-34.3291,0.247117,
2,1,0,1,0,56355.4,0.249498,0.249177,8.40507,29,0.0148471,10,0.00209435,-2.07546,-0.591234,-0.0997912,-32.7582,0.249177,
2,1,0,1,0,56355.4,0.251496,0.251139,8.34562,29,0.0149309,10,0.00209591,-2.07854,-0.577445,-0.102174,-33.2526,0.251139,
2,1,0,1,0,56355.4,0.253493,0.253133,8.27352,29,0.015014,10,0.0020943,-2.08231,-0.625685,-0.0942966,-30.4855,0.253133,
2,1,0,1,0,56355.4,0.255491,0.25518,8.22242,29,0.0150965,10,0.0020982,-2.085,-0.686442,-0.0859505,-27.5661,0.25518,
2,1,0,1,0,56355.5,0.257497,0.257157,8.16262,29,0.0151784,10,0.00209907,-2.08817,-0.716191,-0.0823802,-26.266,0.257157,
2,1,0,1,0,56355.5,0.259495,0.259183,8.11727,29,0.0152598,10,0.00210386,-2.09059,-0.680067,-0.0867562,-27.4509,0.259183,
2,1,0,1,0,56355.5,0.261493,0.261154,8.05287,29,0.0153406,10,0.00210304,-2.09405,-0.660114,-0.0893785,-28.1224,0.261154,
2,1,0,1,0,56355.5,0.26349,0.263089,8.00743,29,0.0154209,10,0.00210667,-2.09651,-0.829684,-0.0711114,-22.2267,0.263089,
2,1,0,1,0,56355.5,0.265479,0.265106,7.96504,29,0.0155,10,0.00211158,-2.09881,-0.875467,-0.0673926,-20.9498,0.265106,
2,1,0,1,0,56355.5,0.267476,0.267102,7.92335,29,0.0155794,10,0.00211635,-2.10109,-0.780748,-0.0755685,-23.3515,0.2671023,
2,1,0,1,0,56355.5,0.269474,0.269134,7.87097,29,0.0156583,10,0.00211835,-2.10397,-0.864425,-0.0682534,-20.9933,0.269134,
2,1,0,1,0,56355.5,0.271471,0.271112,7.83917,29,0.0157369,10,0.0021253,-2.10573,-0.935608,-0.0630606,-19.277,0.271112,
2,1,0,1,0,56355.5,0.27346,0.273086,7.7948,29,0.0158142,10,0.00212865,-2.10819,-0.871375,-0.0677091,-20.6059,0.273086,
2,1,0,1,0,56355.5,0.275458,0.275106,7.75689,29,0.0158919,10,0.00213396,-2.11031,-0.867978,-0.0679741,-20.5685,0.275106,
2,1,0,1,0,56355.6,0.277455,0.277099,7.71225,29,0.0159692,10,0.00213706,-2.11282,-0.90668,-0.0650725,-19.6003,0.277099,
2,1,0,1,0,56355.6,0.279453,0.279075,7.67909,29,0.0160462,10,0.00214304,-2.11469,-0.894234,-0.0659783,-19.7571,0.279075,
2,1,0,1,0,56355.6,0.281455,0.281077,7.63366,29,0.0161227,10,0.00214565,-2.11727,-1.06124,-0.0555952,-16.5889,0.281077,
2,1,0,1,0,56355.6,0.283457,0.283099,7.61233,29,0.016199,10,0.00215504,-2.11848,-1.00107,-0.0589372,-17.4783,0.283099,
2,1,0,1,0,56355.6,0.285455,0.285059,7.56407,29,0.0162748,10,0.0021562,-2.12124,-0.930947,-0.0633764,-18.7354,0.285059,
2,1,0,1,0,56355.6,0.287452,0.287099,7.53738,29,0.0163503,10,0.00216398,-2.12278,-1.03624,-0.0569364,-16.7327,0.2870993,
2,1,0,1,0,56355.6,0.28945,0.289086,7.49668,29,0.0164255,10,0.00216719,-2.12513,-1.25883,-0.046869,-13.7369,0.289086,
2,1,0,1,0,56355.6,0.291456,0.291083,7.48265,29,0.0165005,10,0.00217808,-2.12594,-1.02895,-0.05734,-16.7009,0.291083,
2,1,0,1,0,56355.6,0.293454,0.293103,7.42959,29,0.016575,10,0.00217764,-2.12904,-1.00445,-0.0587388,-17.0744,0.293103,
2,1,0,1,0,56355.6,0.295452,0.295102,7.41404,29,0.0166493,10,0.0021879,-2.12995,-1.33055,-0.0443426,-12.8131,0.295102,
2,1,0,1,0,56355.7,0.297449,0.297089,7.37852,29,0.0167232,10,0.00219208,-2.13203,-1.24095,-0.0475441,-13.7062,0.297089,
2,1,0,1,0,56355.7,0.299438,0.299074,7.3596,29,0.0167962,10,0.00220106,-2.13315,-0.0797667,-0.739657,-205.897,0.299074,
2,1,0,1,0,56355.7,0.299746,0.29945,6.89245,29,0.0168272,10,0.00206394,-2.16163,0.00927407,6.36182,1495.84,0.29945,
2,1,0,1,0,56355.7,0.29774,0.297404,4.86199,29,0.0168848,10,0.00144597,-2.31319,0.0140403,4.20218,823.364,0.297404,
2,1,0,1,0,56355.7,0.295742,0.295357,3.52282,29,0.0169262,10,0.00104049,-2.45311,0.013885,4.24919,588.087,0.295357,
2,1,0,1,0,56355.7,0.293745,0.293375,2.49248,29,0.0169559,10,0.00073123,-2.60337,0.0121897,4.84014,466.65,0.293375,
2,1,0,1,0,56355.7,0.291747,0.291348,1.65192,29,0.0169764,10,0.000481283,-2.78201,0.00967136,6.10049,382.277,0.291348,
2,1,0,1,0,56355.7,0.289745,0.289364,0.959209,29,0.0169893,10,0.00027756,-3.01809,0.00614051,9.60832,323.592,0.289364,
2,1,0,1,0,56355.7,0.287743,0.287408,0.377037,29,0.0169958,10,0.000108364,-3.42362,0.00430384,13.7087,268.113,0.287408,
2,0,0,1,0,56355.7,0.285745,0.285365,-0.112924,29,0.016997,10,-3.22246e-05,-3.94721,-0.0256299,-2.302,227.622,0.285365,
2,0,0,1,0,56355.8,0.283748,0.283371,-0.54187,29,0.0169936,10,-0.00015355,-3.2661,-0.00437604,-13.4825,200.806,0.283371,
2,0,0,1,0,56355.8,0.28175,0.281402,-0.908759,29,0.0169863,10,-0.000255726,-3.04155,-0.0110138,-5.35692,176.227,0.281402,
2,0,0,1,0,56355.8,0.279761,0.279415,-1.23902,29,0.0169756,10,-0.0003462,-2.90692,-0.0179126,-3.29377,152.668,0.279415,
2,0,0,1,0,56355.8,0.277764,0.277408,-1.5185,29,0.0169617,10,-0.000421244,-2.81859,-0.0256732,-2.29812,133.958,0.277408,
2,0,0,1,0,56355.8,0.275766,0.27537,-1.78088,29,0.0169452,10,-0.0004904,-2.74937,-0.0332255,-1.77575,121.279,0.27537,
2,0,0,1,0,56355.8,0.273769,0.273405,-2.00395,29,0.0169262,10,-0.000547891,-2.69811,-0.0414822,-1.4223,110.486,0.2734051,
2,0,0,1,0,56355.8,0.27178,0.271433,-2.21589,29,0.0169052,10,-0.000601466,-2.65445,-0.0494487,-1.19316,102.425,0.271433,
2,0,0,1,0,56355.8,0.269783,0.269464,-2.40758,29,0.016882,10,-0.000648758,-2.61842,-0.0605938,-0.973698,91.0037,0.269464,
2,0,0,1,0,56355.8,0.267785,0.267398,-2.58311,29,0.0168571,10,-0.000690719,-2.58786,-0.0724304,-0.814575,81.6304,0.267398,
2,0,0,1,0,56355.8,0.265787,0.265454,-2.73492,29,0.0168305,10,-0.000725997,-2.56305,-0.0805347,-0.732603,78.1658,0.265454,
2,0,0,1,0,56355.9,0.263781,0.263466,-2.89046,29,0.0168023,10,-0.000761537,-2.53903,-0.0925307,-0.637627,71.5988,0.263466,
2,0,0,1,0,56355.9,0.261783,0.261411,-3.0244,29,0.0167727,10,-0.000790613,-2.51936,-0.106044,-0.556371,65.5615,0.261411,
2,0,0,1,0,56355.9,0.259786,0.259475,-3.15212,29,0.0167418,10,-0.000817894,-2.5014,-0.11617,-0.507874,62.359,0.259475,
2,0,0,1,0,56355.9,0.257788,0.257455,-3.27111,29,0.0167096,10,-0.000842164,-2.4853,-0.129273,-0.456398,58.2381,0.257455,
2,0,0,1,0,56355.9,0.255781,0.255389,-3.39005,29,0.0166763,10,-0.000865782,-2.46979,-0.146759,-0.40202,52.9753,0.255389,
2,0,0,1,0,56355.9,0.253784,0.253435,-3.48405,29,0.0166419,10,-0.000882982,-2.45792,-0.155055,-0.38051,51.8404,0.253435,
2,0,0,1,0,56355.9,0.251786,0.25146,-3.59375,29,0.0166065,10,-0.000903684,-2.44445,-0.166374,-0.354623,49.5836,0.25146,
2,0,0,1,0,56355.9,0.249789,0.24942,-3.68314,29,0.01657,10,-0.00091865,-2.43378,-0.181015,-0.32594,46.892,0.24942,
2,0,0,1,0,56355.9,0.2478,0.247477,-3.78053,29,0.0165331,10,-0.000935594,-2.42245,-0.188497,-0.313003,46.0963,0.247477,
2,0,0,1,0,56355.9,0.245802,0.245464,-3.86548,29,0.0164949,10,-0.000948839,-2.4128,-0.210222,-0.280655,42.3347,0.245464,
2,0,0,1,0,56356,0.243805,0.243452,-3.9509,29,0.0164558,10,-0.000961855,-2.4033,-0.234756,-0.251325,38.666,0.243452,
2,0,0,1,0,56356,0.241807,0.241474,-4.01976,29,0.0164159,10,-0.00097067,-2.3958,-0.237656,-0.248258,39.0231,0.241474,
2,0,0,1,0,56356,0.239819,0.239492,-4.10544,29,0.0163757,10,-0.00098322,-2.38664,-0.241844,-0.243959,39.0233,0.239492,
2,0,0,1,0,56356,0.237821,0.237404,-4.17861,29,0.0163342,10,-0.000992019,-2.37897,-0.267112,-0.220881,36.0094,0.237404,
2,0,0,1,0,56356,0.235824,0.235479,-4.24997,29,0.0162921,10,-0.00100078,-2.37161,-0.285452,-0.20669,34.2446,0.235479,
2,0,0,1,0,56356,0.233826,0.233487,-4.31273,29,0.0162492,10,-0.00100697,-2.36525,-0.292281,-0.201861,34.0198,0.233487,
2,0,0,1,0,56356,0.231824,0.231438,-4.38742,29,0.0162058,10,-0.00101542,-2.35779,-0.289541,-0.203771,34.8462,0.231438,
2,0,0,1,0,56356,0.229822,0.229503,-4.45156,29,0.0161615,10,-0.00102165,-2.35149,-0.329837,-0.178876,31.0602,0.2295033,
2,0,0,1,0,56356,0.227824,0.227438,-4.51168,29,0.0161167,10,-0.00102612,-2.34566,-0.3629,-0.162579,28.6092,0.227438,
2,0,0,1,0,56356,0.225827,0.225473,-4.56685,29,0.0160713,10,-0.0010297,-2.34038,-0.348218,-0.169434,30.2265,0.2254733,
2,0,0,1,0,56356.1,0.223829,0.223487,-4.63108,29,0.0160253,10,-0.00103499,-2.33432,-0.348642,-0.169228,30.5643,0.223487,
2,0,0,1,0,56356.1,0.221822,0.221464,-4.68939,29,0.0159786,10,-0.00103853,-2.32888,-0.367288,-0.160637,29.4022,0.221464,
2,0,0,1,0,56356.1,0.219825,0.219464,-4.74937,29,0.0159314,10,-0.00104232,-2.32336,-0.379064,-0.155646,28.8366,0.219464,
2,0,0,1,0,56356.1,0.217827,0.217436,-4.80555,29,0.0158836,10,-0.0010449,-2.31826,-0.401761,-0.146853,27.5321,0.217436,
2,0,0,1,0,56356.1,0.21583,0.21549,-4.85879,29,0.0158353,10,-0.00104702,-2.31347,-0.404961,-0.145693,27.6369,0.21549,
2,0,0,1,0,56356.1,0.213841,0.213439,-4.91601,29,0.0157868,10,-0.00104927,-2.30839,-0.394568,-0.14953,28.6843,0.213439,
2,0,0,1,0,56356.1,0.211844,0.211534,-4.97227,29,0.0157374,10,-0.0010518,-2.30344,-0.450307,-0.131022,25.3922,0.211534,
2,0,0,1,0,56356.1,0.209846,0.209501,-5.01601,29,0.0156874,10,-0.00105086,-2.29964,-0.458266,-0.128746,25.2381,0.209501,
2,0,0,1,0,56356.1,0.207848,0.207505,-5.07396,29,0.015637,10,-0.00105287,-2.29465,-0.399068,-0.147844,29.2813,0.207505,
2,0,0,1,0,56356.1,0.20586,0.205467,-5.13412,29,0.0155864,10,-0.00105489,-2.28953,-0.428066,-0.137829,27.5899,0.205467,
2,0,0,1,0,56356.2,0.203862,0.203489,-5.18474,29,0.0155348,10,-0.00105504,-2.28527,-0.495488,-0.119075,24.0799,0.203489,
2,0,0,1,0,56356.2,0.201865,0.201504,-5.22956,29,0.0154828,10,-0.00105378,-2.28154,-0.476073,-0.123931,25.3183,0.201504,
2,0,0,1,0,56356.2,0.199867,0.19953,-5.28498,29,0.0154302,10,-0.00105451,-2.27696,-0.474357,-0.124379,25.6355,0.19953,
2,0,0,1,0,56356.2,0.19786,0.197463,-5.33316,29,0.0153771,10,-0.0010531,-2.27302,-0.50212,-0.117502,24.4582,0.197463,
2,0,0,1,0,56356.2,0.195863,0.195546,-5.38242,29,0.0153236,10,-0.00105251,-2.26902,-0.482071,-0.122389,25.7173,0.195546,
2,0,0,1,0,56356.2,0.193865,0.19348,-5.43557,29,0.0152694,10,-0.00105168,-2.26475,-0.479455,-0.123056,26.1007,0.19348,
2,0,0,1,0,56356.2,0.191868,0.191519,-5.48754,29,0.0152148,10,-0.00105097,-2.26062,-0.491302,-0.120089,25.7146,0.191519,
2,0,0,1,0,56356.2,0.189861,0.18949,-5.53818,29,0.0151597,10,-0.00104943,-2.25663,-0.497729,-0.118538,25.6216,0.18949,
2,0,0,1,0,56356.2,0.187863,0.187537,-5.58955,29,0.015104,10,-0.00104825,-2.25262,-0.497513,-0.11859,25.87,0.187537,
2,0,0,1,0,56356.2,0.185866,0.185498,-5.64144,29,0.0150478,10,-0.00104648,-2.24861,-0.521675,-0.113097,24.8933,0.1854984,
2,0,0,1,0,56356.3,0.183868,0.183485,-5.69043,29,0.0149912,10,-0.00104411,-2.24485,-0.455879,-0.12942,28.784,0.183485,
2,0,0,1,0,56356.3,0.18188,0.181499,-5.75657,29,0.0149345,10,-0.00104481,-2.23984,-0.441227,-0.133718,30.0048,0.181499,
2,0,0,1,0,56356.3,0.179882,0.179527,-5.80917,29,0.0148767,10,-0.0010429,-2.23589,-0.529477,-0.111431,25.251,0.179527,
2,0,0,1,0,56356.3,0.177885,0.177537,-5.8566,29,0.0148184,10,-0.00103977,-2.23235,-0.495145,-0.119157,27.2654,0.177537,
2,0,0,1,0,56356.3,0.175887,0.175559,-5.91738,29,0.0147596,10,-0.00103885,-2.22787,-0.458783,-0.128601,29.6925,0.175559,
2,0,0,1,0,56356.3,0.173908,0.173513,-5.97608,29,0.0147007,10,-0.00103693,-2.22358,-0.442661,-0.133285,31.1058,0.173513,
2,0,0,1,0,56356.3,0.171901,0.171522,-6.04294,29,0.0146406,10,-0.0010365,-2.21875,-0.453857,-0.129997,30.6275,0.171522,
2,0,0,1,0,56356.3,0.169903,0.169528,-6.09816,29,0.0145799,10,-0.00103381,-2.2148,-0.458331,-0.128728,30.6639,0.169528,
2,0,0,1,0,56356.3,0.167906,0.167548,-6.16481,29,0.0145186,10,-0.0010329,-2.21008,-0.414674,-0.142281,34.2372,0.167548,
2,0,0,1,0,56356.3,0.165908,0.165563,-6.23391,29,0.0144565,10,-0.0010321,-2.20524,-0.415491,-0.142001,34.5497,0.165563,
2,0,0,1,0,56356.4,0.163901,0.163508,-6.30438,29,0.0143938,10,-0.00103082,-2.20036,-0.396385,-0.148845,36.6377,0.163508,
2,0,0,1,0,56356.4,0.161904,0.161552,-6.38086,29,0.0143304,10,-0.00103084,-2.19512,-0.370192,-0.159377,39.7007,0.161552,
2,0,0,1,0,56356.4,0.159906,0.159542,-6.46182,29,0.0142662,10,-0.00103093,-2.18964,-0.372678,-0.158313,39.9103,0.159542,
2,0,0,1,0,56356.4,0.157909,0.157591,-6.53893,29,0.0142012,10,-0.00103048,-2.18449,-0.335783,-0.175709,44.9239,0.157591,
2,0,0,1,0,56356.4,0.155902,0.155545,-6.64139,29,0.0141352,10,-0.00103304,-2.17774,-0.305961,-0.192835,49.965,0.155545,
2,0,0,1,0,56356.4,0.153904,0.153557,-6.74051,29,0.0140683,10,-0.00103505,-2.17131,-0.315901,-0.186768,49.1297,0.1535566,
2,0,0,1,0,56356.4,0.151907,0.151499,-6.84019,29,0.0140004,10,-0.00103628,-2.16493,-0.296321,-0.199108,53.1957,0.151499,
2,0,0,1,0,56356.4,0.149909,0.149578,-6.95216,29,0.0139314,10,-0.00103989,-2.15788,-0.247928,-0.237972,64.7045,0.149578,
2,0,0,1,0,56356.4,0.147921,0.147555,-7.09535,29,0.0138618,10,-0.00104696,-2.14903,-0.242869,-0.242929,67.1836,0.147555,
2,0,0,1,0,56356.4,0.145923,0.145559,-7.22216,29,0.0137902,10,-0.00105125,-2.14133,-0.233088,-0.253123,71.4912,0.145559,
2,0,0,1,0,56356.5,0.143926,0.143567,-7.38049,29,0.0137172,10,-0.00105959,-2.13191,-0.205427,-0.287207,82.7725,0.143567,
2,0,0,1,0,56356.5,0.141928,0.141605,-7.54946,29,0.0136426,10,-0.00106904,-2.12208,-0.191892,-0.307464,90.7045,0.141605,
2,0,0,1,0,56356.5,0.139939,0.139597,-7.74058,29,0.0135669,10,-0.00108056,-2.11123,-0.185034,-0.318861,96.3349,0.139597,
2,0,0,1,0,56356.5,0.137942,0.137587,-7.93655,29,0.0134885,10,-0.00109196,-2.10037,-0.171262,-0.344502,106.942,0.137587,
2,0,0,1,0,56356.5,0.135944,0.135566,-8.17165,29,0.0134079,10,-0.0011078,-2.08769,-0.156883,-0.376077,119.966,0.135566,
2,0,0,1,0,56356.5,0.133947,0.133594,-8.41554,29,0.0133249,10,-0.00112426,-2.07492,-0.150064,-0.393166,129.308,0.1335939,
2,0,0,1,0,56356.5,0.13194,0.131572,-8.68817,29,0.0132395,10,-0.00114312,-2.06107,-0.145693,-0.40496,137.337,0.131572,
2,0,0,1,0,56356.5,0.129942,0.129556,-8.97009,29,0.0131511,10,-0.00116213,-2.0472,-0.142862,-0.412986,144.673,0.129556,
2,0,0,1,0,56356.5,0.127945,0.127548,-9.27032,29,0.0130599,10,-0.00118241,-2.03291,-0.137459,-0.42922,155.362,0.127548,
2,0,0,1,0,56356.5,0.125947,0.12559,-9.58623,29,0.0129656,10,-0.00120394,-2.01835,-0.133666,-0.441398,165.292,0.12559,
2,0,0,1,0,56356.6,0.123941,0.12357,-9.92771,29,0.0128681,10,-0.00122677,-2.00315,-0.136937,-0.430854,166.688,0.12357,
2,0,0,1,0,56356.6,0.121943,0.121624,-10.2474,29,0.0127671,10,-0.00124633,-1.98939,-0.145482,-0.405547,162.167,0.121624,
2,0,0,1,0,56356.6,0.119945,0.119603,-10.5711,29,0.012663,10,-0.00126434,-1.97588,-0.150277,-0.392607,161.917,0.1196029,
2,0,0,1,0,56356.6,0.117948,0.11763,-10.8941,29,0.0125556,10,-0.00128147,-1.96281,-0.15034,-0.392443,167.002,0.11763,
2,0,0,1,0,56356.6,0.115946,0.115576,-11.2436,29,0.0124449,10,-0.00129949,-1.9491,-0.154781,-0.381183,167.049,0.115576,
2,0,0,1,0,56356.6,0.113962,0.113577,-11.571,29,0.0123319,10,-0.00131421,-1.93663,-0.161864,-0.364504,164.519,0.113577,
2,0,0,1,0,56356.6,0.111964,0.111631,-11.8927,29,0.0122146,10,-0.00132759,-1.92472,-0.17297,-0.3411,158.205,0.111631,
2,0,0,1,0,56356.6,0.109967,0.109582,-12.2031,29,0.012094,10,-0.00133724,-1.91353,-0.182674,-0.322979,153.778,0.109582,
2,0,0,1,0,56356.6,0.107969,0.107602,-12.5123,29,0.0119704,10,-0.00134634,-1.90266,-0.186439,-0.316457,154.416,0.107602,
2,0,0,1,0,56356.6,0.10598,0.105667,-12.8077,29,0.011845,10,-0.00135335,-1.89253,-0.19808,-0.29786,148.816,0.105667,
2,0,0,1,0,56356.7,0.103983,0.10368,-13.0959,29,0.0117155,10,-0.00135778,-1.88286,-0.214955,-0.274475,140.178,0.10368,
2,0,0,1,0,56356.7,0.101985,0.101665,-13.3686,29,0.0115831,10,-0.00135912,-1.87391,-0.236502,-0.249469,130.038,0.101665,
2,0,0,1,0,56356.7,0.0999877,0.0996471,-13.6203,29,0.0114481,10,-0.00135722,-1.86581,-0.246399,-0.239449,127.306,0.0996471,
2,0,0,1,0,56356.7,0.0979811,0.0976447,-13.8805,29,0.0113105,10,-0.00135535,-1.8576,-0.260806,-0.226222,122.397,0.0976447,
2,0,0,1,0,56356.7,0.0959835,0.0956501,-14.1095,29,0.0111705,10,-0.00134958,-1.85049,-0.290076,-0.203395,111.939,0.0956501,
2,0,0,1,0,56356.7,0.0939859,0.0936676,-14.3257,29,0.0110283,10,-0.00134185,-1.84389,-0.31433,-0.187701,104.885,0.0936676,
2,0,0,1,0,56356.7,0.0919883,0.0916556,-14.5285,29,0.010884,10,-0.00133162,-1.83778,-0.330736,-0.17839,101.137,0.0916556,
2,0,0,1,0,56356.7,0.0899816,0.089667,-14.7303,29,0.0107376,10,-0.00132082,-1.83179,-0.366801,-0.16085,92.3513,0.089667,
2,0,0,1,0,56356.7,0.087984,0.087675,-14.8961,29,0.0105894,10,-0.00130602,-1.82693,-0.435507,-0.135474,78.7129,0.08767502,
2,0,0,1,0,56356.7,0.0859865,0.0856544,-15.0461,29,0.0104396,10,-0.00128877,-1.82258,-0.491552,-0.120028,70.4379,0.0856544,
2,0,0,1,0,56356.8,0.0839889,0.0836623,-15.1787,29,0.0102885,10,-0.00126989,-1.81876,-0.568927,-0.103704,61.3948,0.0836623,
2,0,0,1,0,56356.8,0.0820004,0.0816229,-15.2936,29,0.0101376,10,-0.00124831,-1.81549,-0.700193,-0.0842625,50.2449,0.0816229,
2,0,0,1,0,56356.8,0.0800028,0.0796641,-15.3796,29,0.00998423,10,-0.0012252,-1.81305,-0.8576,-0.0687966,41.281,0.0796641,
2,0,0,1,0,56356.8,0.0780052,0.0776654,-15.457,29,0.00983,10,-0.00120047,-1.81087,-1.04826,-0.0562839,33.9328,0.0776654,
2,0,0,1,0,56356.8,0.0760076,0.0756295,-15.5165,29,0.00967516,10,-0.00117351,-1.80921,-1.51941,-0.0388309,23.4956,0.0756295,
2,0,0,1,0,56356.8,0.0740191,0.0736536,-15.5513,29,0.00952142,10,-0.00114541,-1.80823,-2.40521,-0.02453,14.8827,0.0736536,
2,0,0,1,0,56356.8,0.0720215,0.0716625,-15.5756,29,0.00936581,10,-0.00111618,-1.80756,-4.48821,-0.0131455,7.98642,0.0716625,
2,0,0,1,0,56356.8,0.0700239,0.0696627,-15.5831,29,0.00920999,10,-0.00108556,-1.80735,-231.672,-0.000254671,0.154809,0.0696627,
2,0,0,1,0,56356.8,0.0680263,0.0676385,-15.5762,29,0.00905423,10,-0.00105355,-1.80754,39.1429,0.0015073,-0.916571,0.0676385,
2,0,0,1,0,56356.8,0.0660197,0.0656725,-15.5795,29,0.00889849,10,-0.00102314,-1.80745,5.87071,0.0100499,-6.1045,0.0656725,
2,0,0,1,0,56356.9,0.0640221,0.063684,-15.5521,29,0.00874286,10,-0.000990417,-1.80821,2.40719,0.0245099,-14.874,0.063684,
2,0,0,1,0,56356.9,0.0620245,0.0616764,-15.52,29,0.00858746,10,-0.000957219,-1.80911,2.3074,0.0255699,-15.4887,0.0616764,
2,0,0,1,0,56356.9,0.0600269,0.0596878,-15.4902,29,0.0084324,10,-0.000924574,-1.80994,2.58792,0.0227982,-13.7843,0.0596878,
2,0,0,1,0,56356.9,0.0580248,0.0576767,-15.4649,29,0.00827761,10,-0.000891964,-1.81065,2.21563,0.026629,-16.0645,0.0576767,
2,0,0,1,0,56356.9,0.0560227,0.0556656,-15.4256,29,0.00812316,10,-0.000858672,-1.81176,1.77485,0.0332422,-20.0117,0.0556656,
2,0,0,1,0,56356.9,0.0540251,0.0537074,-15.3855,29,0.00796907,10,-0.000826313,-1.81289,2.02447,0.0291434,-17.5049,0.0537074,
2,0,0,1,0,56356.9,0.0520275,0.0516729,-15.3557,29,0.00781538,10,-0.000793471,-1.81373,1.76294,0.0334669,-20.0423,0.0516729,
2,0,0,1,0,56356.9,0.0500299,0.04968,-15.3047,29,0.00766204,10,-0.000760339,-1.81517,1.83871,0.0320877,-19.1818,0.04968,
2,0,0,1,0,56356.9,0.0480414,0.0476928,-15.2793,29,0.00751066,10,-0.000728713,-1.8159,1.93487,0.030493,-18.17,0.0476928,
2,0,0,1,0,56356.9,0.0460438,0.0456695,-15.2319,29,0.00735811,10,-0.000695633,-1.81725,1.56323,0.0377424,-22.4396,0.0456695,
2,0,0,1,0,56357,0.0440462,0.0436821,-15.1893,29,0.00720601,10,-0.000663501,-1.81846,1.50164,0.0392904,-23.2853,0.0436821,
2,0,0,1,0,56357,0.0420486,0.041701,-15.1395,29,0.00705437,10,-0.000631331,-1.81989,1.70841,0.034535,-20.4173,0.04170097,
2,0,0,1,0,56357,0.0400601,0.0397077,-15.1082,29,0.00690466,10,-0.000599911,-1.82079,1.71571,0.0343881,-20.2636,0.03970772,
2,0,0,1,0,56357,0.0380625,0.0377018,-15.0584,29,0.00675382,10,-0.00056773,-1.82222,1.36071,0.0433598,-25.4797,0.0377018,
2,0,0,1,0,56357,0.036065,0.0357115,-15.0063,29,0.00660356,10,-0.0005359,-1.82372,1.38432,0.0426203,-24.963,0.0357115,
2,0,0,1,0,56357,0.0340674,0.0336466,-14.9572,29,0.00645376,10,-0.000503259,-1.82515,1.3495,0.04372,-25.5167,0.0336466,
2,0,0,1,0,56357,0.0320607,0.0316746,-14.9033,29,0.00630448,10,-0.000472057,-1.82672,1.15201,0.0512151,-29.7781,0.03167456,
2,0,0,1,0,56357,0.0300631,0.0296947,-14.8395,29,0.00615574,10,-0.000440655,-1.82858,1.1211,0.0526267,-30.4837,0.0296947,
2,0,0,1,0,56357,0.0280655,0.0276662,-14.7812,29,0.00600764,10,-0.000408939,-1.83029,1.13127,0.0521539,-30.082,0.0276662,
2,0,0,1,0,56357,0.0260679,0.025702,-14.7194,29,0.00586012,10,-0.000378318,-1.83211,1.04769,0.0563144,-32.3446,0.02570197,
2,0,0,1,0,56357.1,0.0240613,0.023703,-14.653,29,0.0057133,10,-0.000347319,-1.83407,0.967089,0.0610079,-34.8793,0.023703,
2,0,0,1,0,56357.1,0.0220637,0.021691,-14.5795,29,0.00556711,10,-0.000316245,-1.83626,0.922247,0.0639742,-36.4038,0.021691,
2,0,0,1,0,56357.1,0.0200661,0.0197389,-14.5087,29,0.00542171,10,-0.000286385,-1.83837,0.831781,0.0709321,-40.1376,0.0197389,
2,0,0,1,0,56357.1,0.0180685,0.0176974,-14.4192,29,0.00527705,10,-0.000255183,-1.84106,0.823933,0.0716077,-40.321,0.0176974,
2,0,0,1,0,56357.1,0.01608,0.0157478,-14.3477,29,0.0051347,10,-0.000225945,-1.84322,0.82583,0.0714433,-39.9791,0.0157478,
2,0,0,1,0,56357.1,0.0140824,0.0136736,-14.2584,29,0.00499167,10,-0.000194963,-1.84593,0.723113,0.0815917,-45.3956,0.0136736,
2,0,0,1,0,56357.1,0.0120848,0.0117243,-14.1651,29,0.00484959,10,-0.000166076,-1.84878,0.653115,0.0903363,-49.9222,0.01172434,
2,0,0,1,0,56357.1,0.0100872,0.0097488,-14.0624,29,0.00470849,10,-0.000137092,-1.85194,0.648394,0.090994,-49.9498,0.0097488,
2,0,0,1,0,56357.1,0.00810328,0.00774948,-13.9665,29,0.00456981,10,-0.000108233,-1.85491,0.650963,0.090635,-49.3943,0.00774948,
2,0,0,1,0,56357.1,0.00610116,0.00578349,-13.8666,29,0.00443059,10,-8.0197e-05,-1.85803,0.61504,0.0959287,-51.8991,0.00578349,
2,0,0,1,0,56357.2,0.00410357,0.00375763,-13.7594,29,0.00429253,10,-5.17026e-05,-1.8614,0.711781,0.0828906,-44.565,0.003757627,
2,0,0,1,0,56357.2,0.00210598,0.0017309,-13.6859,29,0.00415545,10,-2.3689e-05,-1.86373,0.683938,0.0862651,-46.0073,0.0017309,
2,0,0,1,0,56357.2,0.00010174,-0.000310574,-13.5722,29,0.00401921,10,4.21518e-06,-1.86735,0.554796,0.106345,-56.3274,-0.000310574,
2,0,0,1,0,56357.2,-0.00189827,-0.00231127,-13.4583,29,0.00388402,10,3.11057e-05,-1.87101,0.57765,0.102138,-53.6713,-0.00231127,
2,0,0,1,0,56357.2,-0.00389586,-0.00431197,-13.3574,29,0.00374996,10,5.75969e-05,-1.87428,0.595317,0.0991069,-51.6561,-0.00431197,
2,0,0,1,0,56357.2,-0.00589345,-0.00628664,-13.2529,29,0.00361689,10,8.33163e-05,-1.87769,0.57746,0.102172,-52.8428,-0.006286643,
2,0,0,1,0,56357.2,-0.00789103,-0.0082804,-13.1477,29,0.00348491,10,0.000108869,-1.88115,0.633704,0.0931034,-47.8083,-0.0082804,
2,0,0,1,0,56357.2,-0.0098977,-0.0102672,-13.0626,29,0.00335381,10,0.000134117,-1.88397,0.711247,0.0829529,-42.2894,-0.0102672,
2,0,0,1,0,56357.2,-0.0118953,-0.0122879,-12.9783,29,0.00322364,10,0.000159475,-1.88678,0.678835,0.0869135,-44.0063,-0.0122879,
2,0,0,1,0,56357.2,-0.0138929,-0.014299,-12.8852,29,0.00309431,10,0.000184245,-1.88991,0.697778,0.0845541,-42.5444,-0.014299,
2,0,0,1,0,56357.3,-0.0158905,-0.0163005,-12.8075,29,0.0029659,10,0.00020877,-1.89253,0.812613,0.0726052,-36.3063,-0.0163005,
2,0,0,1,0,56357.3,-0.017879,-0.018269,-12.741,29,0.0028394,10,0.000232766,-1.89479,0.884823,0.06668,-33.157,-0.018269,
2,0,0,1,0,56357.3,-0.0198766,-0.0202859,-12.6754,29,0.00271238,10,0.000257132,-1.89704,0.858239,0.0687454,-34.0001,-0.0202859,
2,0,0,1,0,56357.3,-0.0218741,-0.0222765,-12.6048,29,0.00258599,10,0.000280791,-1.89946,0.955517,0.0617467,-30.3972,-0.0222765,
2,0,0,1,0,56357.3,-0.0238717,-0.0243133,-12.553,29,0.00246023,10,0.000305205,-1.90125,1.22146,0.0483029,-23.672,-0.0243133,
2,0,0,1,0,56357.3,-0.0258602,-0.0262797,-12.51,29,0.00233615,10,0.00032876,-1.90274,1.19137,0.0495229,-24.1689,-0.0262797,
2,0,0,1,0,56357.3,-0.0278578,-0.02827,-12.4573,29,0.00221137,10,0.00035217,-1.90457,1.2587,0.0468739,-22.8023,-0.02827,
2,0,0,1,0,56357.3,-0.0298554,-0.0302482,-12.4195,29,0.00208695,10,0.000375668,-1.90589,1.6429,0.0359121,-17.4114,-0.0302482,
2,0,0,1,0,56357.3,-0.031853,-0.0321994,-12.3889,29,0.00196293,10,0.000398916,-1.90697,2.0023,0.0294661,-14.2494,-0.0321994,
2,0,0,1,0,56357.3,-0.0338597,-0.0342279,-12.3628,29,0.00183915,10,0.000423153,-1.90788,2.476,0.0238288,-11.4996,-0.0342279,
2,0,0,1,0,56357.4,-0.0358573,-0.036252,-12.3423,29,0.00171564,10,0.000447434,-1.9086,3.35516,0.0175848,-8.4727,-0.036252,
2,0,0,1,0,56357.4,-0.0378549,-0.0382423,-12.3288,29,0.00159226,10,0.000471482,-1.90908,3.51817,0.0167701,-8.0672,-0.0382423,
2,0,0,1,0,56357.4,-0.0398524,-0.0402838,-12.3098,29,0.00146908,10,0.000495885,-1.90975,7.41164,0.00796045,-3.82782,-0.0402838,
2,0,0,1,0,56357.4,-0.0418591,-0.0422567,-12.3134,29,0.00134594,10,0.000520326,-1.90962,-39.9908,-0.00147534,0.708853,-0.0422567,
2,0,0,1,0,56357.4,-0.0438567,-0.0442617,-12.3126,29,0.00122285,10,0.000544978,-1.90965,15.7514,0.0037457,-1.79949,-0.0442617,
2,0,0,1,0,56357.4,-0.0458543,-0.0462737,-12.3062,29,0.00109972,10,0.000569455,-1.90988,-434.812,-0.000135691,0.0652033,-0.04627372,
2,0,0,1,0,56357.4,-0.0478519,-0.0482389,-12.3129,29,0.000976657,10,0.000593959,-1.90964,-3.72778,-0.0158271,7.6107,-0.0482389,
2,0,0,1,0,56357.4,-0.0498585,-0.0502604,-12.3366,29,0.000853386,10,0.00062004,-1.90881,-2.94412,-0.02004,9.64488,-0.0502604,
2,0,0,1,0,56357.4,-0.051838,-0.0522222,-12.3513,29,0.000731215,10,0.000645012,-1.90829,-4.13247,-0.0142772,6.88145,-0.0522222,
2,0,0,1,0,56357.4,-0.0538355,-0.0542224,-12.3638,29,0.00060764,10,0.000670396,-1.90785,-3.14807,-0.0187416,9.04737,-0.0542224,
2,0,0,1,0,56357.4,-0.0558331,-0.056244,-12.3877,29,0.000483917,10,0.000696734,-1.90701,-2.16949,-0.0271953,13.1502,-0.056244,
2,0,0,1,0,56357.5,-0.0578126,-0.058218,-12.4164,29,0.000361106,10,0.000722857,-1.90601,-1.79648,-0.0328419,15.9184,-0.058218,
2,0,0,1,0,56357.5,-0.0598192,-0.0602578,-12.4516,29,0.000236797,10,0.000750305,-1.90478,-1.63232,-0.0361448,17.5643,-0.0602578,
2,0,0,1,0,56357.5,-0.0618168,-0.0622195,-12.4867,29,0.00011212,10,0.000776913,-1.90355,-1.69432,-0.0348223,16.9669,-0.0622195,
2,0,0,1,0,56357.5,-0.0638144,-0.0641802,-12.5181,29,-1.2885e-05,10,0.000803417,-1.90246,-1.62927,-0.0362126,17.6966,-0.06418024,
2,0,0,1,0,56357.5,-0.065812,-0.0661983,-12.5571,29,-0.000138283,10,0.000831256,-1.90111,-1.32987,-0.0443653,21.7501,-0.0661983,
2,0,0,1,0,56357.5,-0.0678187,-0.0682051,-12.6057,29,-0.000264089,10,0.000859771,-1.89943,-1.27942,-0.0461146,22.6817,-0.0682051,
2,0,0,1,0,56357.5,-0.0698163,-0.0702535,-12.649,29,-0.000390433,10,0.000888639,-1.89794,-1.2386,-0.0476344,23.5214,-0.0702535,
2,0,0,1,0,56357.5,-0.0718138,-0.072196,-12.6995,29,-0.000517152,10,0.000916857,-1.89621,-1.12521,-0.0524345,25.9893,-0.072196,
2,0,0,1,0,56357.5,-0.0738114,-0.074202,-12.7517,29,-0.000644429,10,0.000946198,-1.89443,-1.03578,-0.056962,28.3582,-0.074202,
2,0,0,1,0,56357.5,-0.0758181,-0.0762148,-12.8135,29,-0.000772263,10,0.000976579,-1.89233,-1.00769,-0.05855,29.2716,-0.0762148,
2,0,0,1,0,56357.6,-0.0778157,-0.0782094,-12.869,29,-0.000900766,10,0.00100647,-1.89046,-0.976223,-0.060437,30.3649,-0.0782094,
2,0,0,1,0,56357.6,-0.0798133,-0.0801884,-12.9342,29,-0.00102975,10,0.00103717,-1.88826,-0.914192,-0.0645379,32.5779,-0.0801884,
2,0,0,1,0,56357.6,-0.0818109,-0.0822308,-13,29,-0.00115948,10,0.001069,-1.88606,-0.838183,-0.0703904,35.7295,-0.0822308,
2,0,0,1,0,56357.6,-0.0837994,-0.084226,-13.0784,29,-0.00128858,10,0.00110154,-1.88344,-0.80447,-0.0733402,37.4207,-0.084226,
2,0,0,1,0,56357.6,-0.0857969,-0.0861904,-13.1481,29,-0.00141971,10,0.00113324,-1.88114,-0.812958,-0.0725744,37.2509,-0.0861904,
2,0,0,1,0,56357.6,-0.0877945,-0.0881787,-13.2257,29,-0.00155157,10,0.00116622,-1.87858,-0.767023,-0.0769207,39.7125,-0.0881787,
2,0,0,1,0,56357.6,-0.0897921,-0.0902608,-13.3098,29,-0.00168427,10,0.00120135,-1.87583,-0.726404,-0.0812221,42.1895,-0.0902608,
2,0,0,1,0,56357.6,-0.0917806,-0.0921683,-13.394,29,-0.0018164,10,0.0012345,-1.87309,-0.715874,-0.0824167,43.0783,-0.0921683,
2,0,0,1,0,56357.6,-0.0937782,-0.0941352,-13.4767,29,-0.00195079,10,0.00126863,-1.87042,-0.705951,-0.0835752,43.9751,-0.0941352,
2,0,0,1,0,56357.6,-0.0957758,-0.0961958,-13.5711,29,-0.00208603,10,0.00130548,-1.86738,-0.696425,-0.0847184,44.8569,-0.0961958,
2,0,0,1,0,56357.7,-0.0977734,-0.0981756,-13.6579,29,-0.00222219,10,0.00134088,-1.86462,-0.658152,-0.0896449,47.8078,-0.0981756,
2,0,0,1,0,56357.7,-0.0997412,-0.100133,-13.7593,29,-0.0023565,10,0.00137776,-1.8614,0.116054,0.508386,-265.814,-0.100133,
2,0,0,1,1,56357.7,-0.0996711,-0.100123,-13.1402,29,-0.00239699,10,0.00131564,-1.8814,-0.018548,-3.18093,1508.34,-0.100123,
2,0,0,1,1,56357.7,-0.0976826,-0.0980858,-10.6716,29,-0.00251351,10,0.00104673,-1.97177,-0.0239679,-2.46163,1046.23,-0.0980858,
2,0,0,1,1,56357.7,-0.095685,-0.0960833,-8.91326,29,-0.00261092,10,0.000856415,-2.04996,-0.0255827,-2.30624,806.679,-0.0960833,
2,0,0,1,1,56357.7,-0.0936874,-0.0940878,-7.4465,29,-0.0026924,10,0.000700625,-2.12805,-0.0250441,-2.35584,686.038,-0.0940878,
2,0,0,1,1,56357.7,-0.0916898,-0.0920948,-6.17702,29,-0.00276022,10,0.000568872,-2.20922,-0.0234693,-2.51392,605.477,-0.0920948,
2,0,0,1,1,56357.7,-0.0897013,-0.0901312,-5.05086,29,-0.00281556,10,0.00045524,-2.29663,-0.0211228,-2.79319,547.963,-0.0901312,
2,0,0,1,1,56357.7,-0.0877037,-0.0881748,-4.02899,29,-0.00286075,10,0.000355255,-2.3948,-0.0187927,-3.13951,488.991,-0.08817476,
2,0,0,1,1,56357.7,-0.0857062,-0.0861229,-3.09081,29,-0.00289616,10,0.00026619,-2.50993,-0.0159911,-3.68956,439.158,-0.0861229,
2,0,0,1,1,56357.8,-0.0837086,-0.08411,-2.24392,29,-0.00292262,10,0.000188736,-2.64899,-0.0120887,-4.88059,411.973,-0.08411,
2,0,0,1,1,56357.8,-0.0817019,-0.0821215,-1.44235,29,-0.00294088,10,0.000118448,-2.84093,-0.00806067,-7.31949,382.864,-0.0821215,
2,0,0,1,1,56357.8,-0.0797043,-0.0801286,-0.719569,29,-0.00295151,10,5.7658e-05,-3.14293,-0.00248776,-23.7161,352.342,-0.0801286,
2,0,0,1,1,56357.8,-0.0777067,-0.0781296,-0.0358487,29,-0.00295515,10,2.80084e-06,-4.44553,-0.0474971,-1.24218,323.973,-0.0781296,
2,1,0,1,1,56357.8,-0.0757091,-0.0760821,0.591394,29,-0.00295227,10,-4.49945e-05,-3.22812,0.00266893,22.1063,302.873,-0.0760821,
2,1,0,1,1,56357.8,-0.0737025,-0.0740649,1.19525,29,-0.00294324,10,-8.85259e-05,-2.92254,0.00856237,6.89061,285.781,-0.0740649,
2,1,0,1,1,56357.8,-0.0717049,-0.0720789,1.73541,29,-0.00292848,10,-0.000125087,-2.7606,0.0144592,4.08043,265.74,-0.0720789,
2,1,0,1,1,56357.8,-0.0697073,-0.0700834,2.25327,29,-0.00290847,10,-0.000157917,-2.64719,0.0200197,2.9471,252.735,-0.0700834,
2,1,0,1,1,56357.8,-0.0677097,-0.0681244,2.73487,29,-0.00288344,10,-0.000186311,-2.56306,0.0259408,2.27441,239.381,-0.0681244,
2,1,0,1,1,56357.8,-0.0657212,-0.0661488,3.19516,29,-0.00285404,10,-0.000211356,-2.49551,0.0327123,1.8036,222.075,-0.0661488,
2,1,0,1,1,56357.9,-0.0637236,-0.0641565,3.61603,29,-0.00281992,10,-0.000231992,-2.44177,0.0394225,1.49661,209.969,-0.0641565,
2,1,0,1,1,56357.9,-0.061726,-0.0621889,4.0266,29,-0.00278167,10,-0.00025041,-2.39506,0.046389,1.27185,198.41,-0.0621889,
2,1,0,1,1,56357.9,-0.0597284,-0.0601832,4.40437,29,-0.00273946,10,-0.000265069,-2.35612,0.0556815,1.0596,181.243,-0.0601832,
2,1,0,1,1,56357.9,-0.0577399,-0.0581452,4.7595,29,-0.00269408,10,-0.000276742,-2.32244,0.0648069,0.910396,168.41,-0.0581452,
2,1,0,1,1,56357.9,-0.0557423,-0.0560994,5.09213,29,-0.00264475,10,-0.000285665,-2.2931,0.0716289,0.82369,163.277,-0.0560994,
2,1,0,1,1,56357.9,-0.0537448,-0.0541429,5.41298,29,-0.0025922,10,-0.000293074,-2.26656,0.0808043,0.730159,153.592,-0.0541429,
2,1,0,1,1,56357.9,-0.0517472,-0.0521465,5.69925,29,-0.00253655,10,-0.000297196,-2.24418,0.0899907,0.655623,145.715,-0.0521465,
2,1,0,1,1,56357.9,-0.049745,-0.0502074,5.98643,29,-0.00247811,10,-0.000300564,-2.22283,0.10032,0.588118,137.056,-0.0502074,
2,1,0,1,1,56357.9,-0.0477429,-0.0481139,6.25195,29,-0.00241683,10,-0.000300806,-2.20398,0.113907,0.517966,126.116,-0.0481139,
2,1,0,1,1,56357.9,-0.0457453,-0.0461488,6.49829,29,-0.00235303,10,-0.000299888,-2.1872,0.126754,0.465467,117.758,-0.0461488,
2,1,0,1,1,56358,-0.0437477,-0.0441516,6.71855,29,-0.00228689,10,-0.000296634,-2.17272,0.139436,0.423134,110.949,-0.0441516,
2,1,0,1,1,56358,-0.0417501,-0.0421318,6.94398,29,-0.00221855,10,-0.000292562,-2.15839,0.148546,0.397184,107.446,-0.0421318,
2,1,0,1,1,56358,-0.0397435,-0.0401432,7.14923,29,-0.00214799,10,-0.000286993,-2.14574,0.167106,0.353069,98.3705,-0.0401432,
2,1,0,1,1,56358,-0.0377459,-0.0381286,7.33777,29,-0.00207556,10,-0.000279779,-2.13444,0.185514,0.318035,90.9692,-0.0381286,
2,1,0,1,1,56358,-0.0357483,-0.036154,7.51213,29,-0.00200127,10,-0.000271593,-2.12424,0.200782,0.293851,86.1189,-0.036154,
2,1,0,1,1,56358,-0.0337507,-0.0341108,7.68379,29,-0.00192527,10,-0.0002621,-2.11442,0.219214,0.269144,80.572,-0.0341108,
2,1,0,1,1,56358,-0.0317622,-0.03219,7.83151,29,-0.0018484,10,-0.000252097,-2.10615,0.239395,0.246455,75.3359,-0.03219,
2,1,0,1,1,56358,-0.0297646,-0.0301373,7.98313,29,-0.0017693,10,-0.00024059,-2.09783,0.263966,0.223513,69.526,-0.0301373,
2,1,0,1,1,56358,-0.027767,-0.0281713,8.11092,29,-0.00168877,10,-0.000228495,-2.09093,0.290018,0.203436,64.3829,-0.0281713,
2,1,0,1,1,56358,-0.0257694,-0.0261998,8.23664,29,-0.00160702,10,-0.000215798,-2.08425,0.308059,0.191522,61.5492,-0.0261998,
2,1,0,1,1,56358.1,-0.0237809,-0.0241333,8.35945,29,-0.00152484,10,-0.000201741,-2.07782,0.330419,0.178561,58.2071,-0.0241333,
2,1,0,1,1,56358.1,-0.0217833,-0.0221942,8.46979,29,-0.00144072,10,-0.00018798,-2.07213,0.39189,0.150553,49.6969,-0.0221942,
2,1,0,1,1,56358.1,-0.0197858,-0.020144,8.55771,29,-0.00135553,10,-0.000172387,-2.06764,0.424777,0.138896,46.4089,-0.020144,
2,1,0,1,1,56358.1,-0.0177882,-0.018231,8.65372,29,-0.00126946,10,-0.000157766,-2.0628,0.428825,0.137585,46.4435,-0.018231,
2,1,0,1,1,56358.1,-0.0157815,-0.0161791,8.74185,29,-0.00118244,10,-0.000141435,-2.0584,0.49287,0.119707,40.8158,-0.0161791,
2,1,0,1,1,56358.1,-0.0137839,-0.014155,8.82009,29,-0.00109462,10,-0.000124848,-2.05453,0.564893,0.104444,35.9283,-0.014155,
2,1,0,1,1,56358.1,-0.0117863,-0.012136,8.88711,29,-0.00100607,10,-0.000107854,-2.05124,0.582886,0.10122,35.1154,-0.012136,
2,1,0,1,1,56358.1,-0.00978874,-0.0102048,8.9588,29,-0.000916846,10,-9.14223e-05,-2.04775,0.597058,0.0988179,34.5362,-0.01020475,
2,1,0,1,1,56358.1,-0.00778208,-0.00818236,9.02366,29,-0.000826936,10,-7.38348e-05,-2.04462,0.706199,0.0835459,29.4001,-0.00818236,
2,1,0,1,1,56358.1,-0.00578449,-0.00623892,9.07539,29,-0.000736501,10,-5.66207e-05,-2.04213,0.900359,0.0655294,23.1959,-0.00623892,
2,1,0,1,1,56358.2,-0.0037869,-0.00417402,9.11664,29,-0.000645506,10,-3.8053e-05,-2.04017,0.893914,0.0660019,23.4998,-0.00417402,
2,1,0,1,1,56358.2,-0.00178931,-0.00216812,9.17106,29,-0.000554083,10,-1.98839e-05,-2.03758,1.10057,0.0536087,19.1468,-0.002168118,
2,1,0,1,1,56358.2,-2.55332e-05,-0.000516197,9.18667,29,-0.000474161,10,-4.74213e-06,-2.03684, , , ,-0.000516197,