File: Figure_codes/Fig_3-5/rawdata_trumpetplot_data/after 10th/20221101_1-115_003_TrumpetPlot_ParaChange_from10_every3_02_CV_C01_2.csv
mode,ox/red,error,control changes,counter inc.,time/s,control/V,Ewe/V,<I>/mA,cycle number,(Q-Qo)/C,I Range,P/W,log(|I|),Tafel slope mV/dec,alpha_eff,dI/d(E-IR),E-IR/V,
2,0,0,1,0,4280.29,2.44065e-05,-0.000382585,-0.349355,3,0.0000000E+000,10,1.33658e-07,-3.45673, , , ,-0.000382585,
2,0,0,1,0,4281.56,0.00129791,0.000982209,-0.17163,3,-0.00024006,10,-1.68577e-07,-3.76541, , , ,0.000982209,
2,0,0,1,0,4283.06,0.00279612,0.00245511,-0.138665,3,-0.000444337,10,-3.40439e-07,-3.85803,-0.0187814,-3.14141,18.3016,0.00245511,
2,0,0,1,0,4284.56,0.00429431,0.00394288,-0.119518,3,-0.000613154,10,-4.71246e-07,-3.92257,-0.0264786,-2.22822,10.5683,0.00394288,
2,0,0,1,0,4286.06,0.00579242,0.00549308,-0.10559,3,-0.000757693,10,-5.80014e-07,-3.97638,-0.029055,-2.03063,8.4947,0.00549308,
2,0,0,1,0,4287.56,0.00729061,0.00693732,-0.0944519,3,-0.000883365,10,-6.55243e-07,-4.02479,-0.0313963,-1.8792,7.01799,0.00693732,
2,0,0,1,0,4289.06,0.00878882,0.00851207,-0.0849972,3,-0.000994072,10,-7.23502e-07,-4.0706,-0.0341821,-1.72605,5.81514,0.00851207,
2,0,0,1,0,4290.55,0.010287,0.00996381,-0.0775684,3,-0.00109252,10,-7.72877e-07,-4.11032,-0.0386326,-1.52721,4.66864,0.00996381,
2,0,0,1,0,4292.05,0.0117852,0.0114887,-0.0714743,3,-0.00118069,10,-8.21146e-07,-4.14585,-0.0400153,-1.47443,4.10916,0.0114887,
2,0,0,1,0,4293.55,0.0132834,0.0129754,-0.0650485,3,-0.00125992,10,-8.44028e-07,-4.18676,-0.0384922,-1.53278,3.89964,0.01297536,
2,0,0,1,0,4295.05,0.0147815,0.0144556,-0.0600225,3,-0.00133058,10,-8.67663e-07,-4.22169,-0.0406946,-1.44983,3.43044,0.0144556,
2,0,0,1,0,4296.55,0.0162797,0.0159561,-0.0557375,3,-0.00139411,10,-8.89351e-07,-4.25385,-0.0464269,-1.27081,2.75729,0.0159561,
2,0,0,1,0,4298.04,0.0177779,0.017464,-0.0510042,3,-0.00145143,10,-8.90738e-07,-4.29239,-0.0461969,-1.27714,2.57324,0.017464,
2,0,0,1,0,4299.54,0.0192761,0.0189422,-0.0478538,3,-0.00150321,10,-9.06457e-07,-4.32008,-0.0460232,-1.28196,2.3899,0.0189422,
2,0,0,1,0,4301.04,0.0207743,0.0204798,-0.043758,3,-0.00154919,10,-8.96155e-07,-4.35894,-0.0467503,-1.26202,2.18473,0.0204798,
2,0,0,1,0,4302.54,0.0222725,0.0219591,-0.0407006,3,-0.00158988,10,-8.9375e-07,-4.3904,-0.0409264,-1.44161,2.29549,0.0219591,
2,0,0,1,0,4304.04,0.0237707,0.0234819,-0.0377662,3,-0.00162555,10,-8.86822e-07,-4.4229,-0.0414687,-1.42276,2.06937,0.0234819,
2,0,0,1,0,4305.54,0.0252689,0.0249368,-0.0341545,3,-0.0016564,10,-8.51701e-07,-4.46655,-0.0391164,-1.50832,2.02347,0.0249368,
2,0,0,1,0,4307.03,0.0267671,0.0264902,-0.0316108,3,-0.00168207,10,-8.37377e-07,-4.50016,-0.0324103,-1.82041,2.19971,0.0264902,
2,0,0,1,0,4308.53,0.0282653,0.0279674,-0.0285222,3,-0.00170346,10,-7.97691e-07,-4.54482,-0.0362389,-1.62809,1.79402,0.0279674,
2,0,0,1,0,4310.03,0.0297635,0.0294679,-0.0251456,3,-0.00172056,10,-7.40987e-07,-4.59954,-0.0365933,-1.61232,1.60433,0.0294679,
2,0,0,1,0,4311.53,0.0312617,0.0309928,-0.0237095,3,-0.00173388,10,-7.34824e-07,-4.62508,-0.0286264,-2.06103,1.84564,0.0309928,
2,0,0,1,0,4313.03,0.0327599,0.0324572,-0.020796,3,-0.00174337,10,-6.7498e-07,-4.68202,-0.0288732,-2.04342,1.62313,0.03245721,
2,0,0,1,0,4314.52,0.0342581,0.033928,-0.0180072,3,-0.00174866,10,-6.10947e-07,-4.74455,-0.0250026,-2.35975,1.67779,0.033928,
2,0,0,1,0,4316.02,0.0357563,0.0354326,-0.0153696,3,-0.00175,10,-5.44586e-07,-4.81334,-0.0233262,-2.52934,1.55421,0.0354326,
2,0,0,1,0,4317.52,0.0372544,0.0369882,-0.0134665,3,-0.00174802,10,-4.98103e-07,-4.87074,-0.0200048,-2.94929,1.48028,0.0369882,
2,0,0,1,0,4319.02,0.0387526,0.0384304,-0.0108062,3,-0.00174246,10,-4.15288e-07,-4.96633,-0.0135721,-4.34715,1.73406,0.0384304,
2,0,0,1,0,4320.52,0.0402508,0.0399224,-0.0083678,3,-0.00173298,10,-3.34063e-07,-5.07739,-0.0099357,-5.93818,1.69301,0.0399224,
2,0,0,1,0,4322.02,0.041749,0.0414568,-0.0060722,3,-0.00171897,10,-2.51734e-07,-5.21665,-0.00834997,-7.06589,1.50556,0.0414568,
2,0,0,1,0,4323.51,0.0432472,0.0429266,-0.00279059,3,-0.00170172,10,-1.19791e-07,-5.5543,-0.0021798,-27.0667,1.58324,0.0429266,
2,0,0,1,0,4325.01,0.0447454,0.044444,-0.000654921,3,-0.00168096,10,-2.91073e-08,-6.18381,-0.00986767,-5.97912,1.56256,0.044444,
2,0,0,1,0,4326.51,0.0462435,0.0459433,0.00179648,3,-0.00165628,10,8.25364e-08,-5.74558,0.0112735,5.23351,1.61461,0.0459433,
2,0,0,1,0,4328.01,0.0477417,0.0474332,0.00385354,3,-0.00162854,10,1.82786e-07,-5.41414,0.00366419,16.1018,1.60498,0.0474332,
2,0,0,1,0,4329.51,0.0492399,0.04894,0.00547556,3,-0.00159726,10,2.67974e-07,-5.26157,0.00748773,7.87956,1.5016,0.04894,
2,1,0,1,0,4331,0.0507381,0.0504479,0.00842072,3,-0.00156278,10,4.24808e-07,-5.07465,0.0110459,5.34136,1.59159,0.05044793,
2,0,0,1,0,4332.5,0.0522363,0.0519421,0.00985711,3,-0.00152461,10,5.11999e-07,-5.00625,0.0151719,3.88877,1.47156,0.0519421,
2,1,0,1,0,4334,0.0537345,0.0534373,0.012881,3,-0.00148268,10,6.88326e-07,-4.89005,0.0193383,3.05095,1.4415,0.0534373,
2,1,0,1,0,4335.5,0.0552327,0.0549186,0.0147545,3,-0.00143827,10,8.10294e-07,-4.83108,0.0285085,2.06956,1.1608,0.0549186,
2,1,0,1,0,4337,0.0567309,0.0564213,0.0154815,3,-0.00139056,10,8.73484e-07,-4.81019,0.0289213,2.04002,1.26811,0.0564213,
2,1,0,1,0,4338.5,0.0582291,0.0579016,0.0183557,3,-0.00134006,10,1.06283e-06,-4.73623,0.0348687,1.69206,1.23282,0.0579016,
2,1,0,1,0,4339.99,0.0597273,0.0594456,0.0207428,3,-0.00128648,10,1.23307e-06,-4.68313,0.0368775,1.59989,1.25148,0.0594456,
2,1,0,1,0,4341.49,0.0612255,0.0609121,0.0223274,3,-0.00122944,10,1.36001e-06,-4.65116,0.0423081,1.39453,1.1982,0.0609121,
2,1,0,1,0,4342.99,0.0627237,0.0624052,0.0242352,3,-0.00116979,10,1.5124e-06,-4.61555,0.0424508,1.38985,1.34114,0.0624052,
2,1,0,1,0,4344.49,0.0642219,0.0638919,0.0259465,3,-0.00110763,10,1.65777e-06,-4.58592,0.0422175,1.39752,1.4272,0.0638919,
2,1,0,1,0,4345.99,0.0657201,0.0654475,0.0278734,3,-0.00104208,10,1.82424e-06,-4.55481,0.0536191,1.10035,1.19947,0.0654475,
2,1,0,1,0,4347.48,0.0672183,0.0668738,0.0298389,3,-0.000973909,10,1.99544e-06,-4.52522,0.0638098,0.924623,1.07782,0.0668738,
2,1,0,1,0,4348.98,0.0687164,0.0684388,0.0322382,3,-0.000903181,10,2.20634e-06,-4.49163,0.0551825,1.06918,1.30197,0.0684388,
2,1,0,1,0,4350.48,0.0702146,0.069917,0.0339922,3,-0.000830113,10,2.37663e-06,-4.46862,0.0566635,1.04123,1.35444,0.069917,
2,1,0,1,0,4351.98,0.0717128,0.0714112,0.0360789,3,-0.000753909,10,2.57643e-06,-4.44275,0.0734732,0.803014,1.11545,0.0714112,
2,1,0,1,0,4353.48,0.073211,0.072917,0.0369463,3,-0.000675356,10,2.69401e-06,-4.43243,0.0846204,0.697231,1.02071,0.07291697,
2,1,0,1,0,4354.98,0.0747092,0.0743867,0.0386935,3,-0.000594204,10,2.87828e-06,-4.41236,0.0689139,0.856141,1.29703,0.0743867,
2,1,0,1,0,4356.47,0.0762074,0.0758883,0.0400507,3,-0.000511,10,3.03938e-06,-4.39739,0.0781296,0.755155,1.20032,0.0758883,
2,1,0,1,0,4357.97,0.0777055,0.0773982,0.0418226,3,-0.00042508,10,3.23699e-06,-4.37859,0.0844452,0.698678,1.13618,0.0773982,
2,1,0,1,0,4359.47,0.0792037,0.0788573,0.0436152,3,-0.000336529,10,3.43938e-06,-4.36036,0.0953133,0.619011,1.04893,0.0788573,
2,1,0,1,0,4360.97,0.0807019,0.0803578,0.0451639,3,-0.00024584,10,3.62927e-06,-4.34521,0.110108,0.535837,0.945216,0.08035776,
2,1,0,1,0,4362.47,0.0822001,0.0819134,0.0459035,3,-0.000153123,10,3.76011e-06,-4.33815,0.11154,0.528958,0.961153,0.0819134,
2,1,0,1,0,4363.96,0.0836983,0.0833609,0.0490928,3,-5.77962e-05,10,4.09242e-06,-4.30898,0.0922921,0.639275,1.21197,0.0833609,
2,1,0,1,0,4365.46,0.0851965,0.0849356,0.0501525,3,4.03087e-05,10,4.25973e-06,-4.29971,0.102368,0.576354,1.13888,0.0849356,
2,1,0,1,0,4366.96,0.0866947,0.0863894,0.0521875,3,0.000141516,10,4.50845e-06,-4.28243,0.10224,0.577073,1.17149,0.0863894,
2,1,0,1,0,4368.46,0.0881929,0.0878857,0.0536861,3,0.000245382,10,4.71824e-06,-4.27014,0.0983805,0.599712,1.27706,0.0878857,
2,1,0,1,0,4369.96,0.0896911,0.0893712,0.0562941,3,0.000351747,10,5.03107e-06,-4.24954,0.0889806,0.663066,1.46108,0.0893712,
2,1,0,1,0,4371.46,0.0911893,0.0908856,0.0582964,3,0.000461544,10,5.2983e-06,-4.23436,0.10724,0.550166,1.247,0.0908856,
2,1,0,1,0,4372.95,0.0926875,0.0923563,0.0604334,3,0.000574604,10,5.58141e-06,-4.21872,0.0996185,0.592259,1.38238,0.0923563,
2,1,0,1,0,4374.45,0.0941857,0.0938739,0.0626748,3,0.000690295,10,5.88353e-06,-4.20291,0.0943736,0.625175,1.52068,0.0938739,
2,1,0,1,0,4375.95,0.0956839,0.0953616,0.0642651,3,0.000808734,10,6.12842e-06,-4.19202,0.0892999,0.660695,1.66386,0.0953616,
2,1,0,1,0,4377.45,0.0971821,0.0968621,0.0670035,3,0.000931544,10,6.4901e-06,-4.1739,0.0786475,0.750183,1.95131,0.0968621,
2,1,0,1,0,4378.95,0.0986803,0.0983816,0.0689768,3,0.00105788,10,6.78605e-06,-4.1613,0.103955,0.567555,1.53771,0.0983816,
2,1,0,1,0,4380.44,0.100178,0.0998799,0.0720836,3,0.00118814,10,7.1997e-06,-4.14216,0.0933463,0.632055,1.76654,0.0998799,
2,1,0,1,0,4381.94,0.101677,0.101352,0.074395,3,0.00132194,10,7.54006e-06,-4.12846,0.0974172,0.605642,1.7767,0.101352,
2,1,0,1,0,4383.44,0.103175,0.102881,0.0772444,3,0.00145988,10,7.94697e-06,-4.11213,0.08752,0.674132,2.0255,0.102881,
2,1,0,1,0,4384.94,0.104673,0.1044,0.0811147,3,0.0016023,10,8.46841e-06,-4.0909,0.104044,0.567065,1.75474,0.1044,
2,1,0,1,0,4386.44,0.106171,0.105887,0.0824354,3,0.00174918,10,8.72884e-06,-4.08389,0.108698,0.542791,1.73074,0.105887,
2,1,0,1,0,4387.94,0.107669,0.107387,0.0840571,3,0.00189898,10,9.0266e-06,-4.07543,0.120564,0.489367,1.62004,0.107387,
2,1,0,1,0,4389.43,0.109167,0.108828,0.0869555,3,0.00205217,10,9.46315e-06,-4.0607,0.126114,0.467831,1.60424,0.108828,
2,1,0,1,0,4390.93,0.110666,0.110366,0.0894393,3,0.00220955,10,9.87108e-06,-4.04847,0.119032,0.495666,1.73527,0.1103662,
2,1,0,1,0,4392.43,0.112164,0.111821,0.0925145,3,0.00237117,10,1.03451e-05,-4.03379,0.158018,0.373374,1.33615,0.111821,
2,1,0,1,0,4393.93,0.113662,0.113307,0.0948872,3,0.00253624,10,1.07514e-05,-4.02279,0.149141,0.3956,1.45437,0.113307,
2,1,0,1,0,4395.43,0.11516,0.114843,0.0973744,3,0.00270406,10,1.11828e-05,-4.01156,0.120501,0.489624,1.85389,0.114843,
2,1,0,1,0,4396.92,0.116658,0.116342,0.0998067,3,0.00287631,10,1.16117e-05,-4.00084,0.139146,0.424015,1.63426,0.116342,
2,1,0,1,0,4398.42,0.118157,0.117872,0.101761,3,0.0030528,10,1.19947e-05,-3.99242,0.138441,0.426174,1.68748,0.117872,
2,1,0,1,0,4399.92,0.119655,0.119355,0.103312,3,0.00323211,10,1.23308e-05,-3.98585,0.16397,0.359822,1.46512,0.119355,
2,1,0,1,0,4401.42,0.121153,0.12082,0.105736,3,0.00341446,10,1.2775e-05,-3.97578,0.177355,0.332667,1.38069,0.12082,
2,1,0,1,0,4402.92,0.122651,0.122321,0.107919,3,0.00360086,10,1.32008e-05,-3.9669,0.135433,0.43564,1.83763,0.122321,
2,1,0,1,0,4404.42,0.124149,0.123824,0.110095,3,0.00379096,10,1.36324e-05,-3.95823,0.14628,0.403336,1.7477,0.123824,
2,1,0,1,0,4405.91,0.125648,0.125338,0.112814,3,0.00398444,10,1.41399e-05,-3.94764,0.16738,0.35249,1.55878,0.1253382,
2,1,0,1,0,4407.41,0.127146,0.126856,0.11528,3,0.00418152,10,1.46239e-05,-3.93825,0.15452,0.381827,1.71836,0.126856,
2,1,0,1,0,4408.91,0.128644,0.128338,0.118089,3,0.00438215,10,1.51553e-05,-3.92779,0.207987,0.283672,1.29775,0.128338,
2,1,0,1,0,4410.41,0.130142,0.129845,0.120267,3,0.00458628,10,1.56161e-05,-3.91985,0.243065,0.242733,1.13419,0.129845,
2,1,0,1,0,4411.91,0.13164,0.131323,0.121487,3,0.00479306,10,1.5954e-05,-3.91547,0.463296,0.127348,0.599157,0.131323,
2,1,0,1,0,4413.41,0.133139,0.132846,0.122152,3,0.00500154,10,1.62274e-05,-3.9131,0.657846,0.0896866,0.427459,0.132846,
2,1,0,1,0,4414.9,0.134637,0.134283,0.122021,3,0.00521032,10,1.63853e-05,-3.91356,4.96653,0.0118795,0.0566458,0.134283,
2,1,0,1,0,4416.4,0.136135,0.135825,0.121747,3,0.00541966,10,1.65362e-05,-3.91454,-0.431069,-0.136869,-0.649282,0.135825,
2,1,0,1,0,4417.9,0.137633,0.137325,0.121223,3,0.00562742,10,1.6647e-05,-3.91641,-0.189997,-0.310532,-1.44873,0.137325,
2,1,0,1,0,4419.4,0.139131,0.138837,0.118792,3,0.00583218,10,1.64927e-05,-3.92521,-0.167469,-0.352304,-1.6161,0.138837,
2,1,0,1,0,4420.9,0.14063,0.140292,0.115911,3,0.0060319,10,1.62613e-05,-3.93588,-0.114906,-0.513463,-2.29901,0.140292,
2,1,0,1,0,4422.39,0.142128,0.141829,0.111915,3,0.00622743,10,1.58728e-05,-3.95111,-0.104314,-0.565602,-2.44696,0.141829,
2,1,0,1,0,4423.89,0.143626,0.143323,0.107743,3,0.00641759,10,1.5442e-05,-3.96761,-0.0849407,-0.694602,-2.89745,0.143323,
2,1,0,1,0,4425.39,0.145124,0.144837,0.102637,3,0.00660016,10,1.48656e-05,-3.9887,-0.0694611,-0.849397,-3.42437,0.144837,
2,1,0,1,0,4426.89,0.146622,0.14628,0.0980909,3,0.00677464,10,1.43487e-05,-4.00837,-0.068705,-0.858744,-3.27703,0.14628,
2,1,0,1,0,4428.39,0.14812,0.147823,0.0922715,3,0.00694204,10,1.36399e-05,-4.03493,-0.068271,-0.864204,-3.10795,0.147823,
2,1,0,1,0,4429.89,0.149619,0.149279,0.0879154,3,0.00710155,10,1.31239e-05,-4.05593,-0.0651435,-0.905693,-3.10945,0.149279,
2,1,0,1,0,4431.38,0.151117,0.150824,0.0834854,3,0.00725369,10,1.25916e-05,-4.07839,-0.0668527,-0.882538,-2.87407,0.150824,
2,1,0,1,0,4432.88,0.152615,0.152291,0.0785276,3,0.00739896,10,1.1959e-05,-4.10498,-0.0724545,-0.814304,-2.51023,0.152291,
2,1,0,1,0,4434.38,0.154113,0.153811,0.0752407,3,0.0075383,10,1.15729e-05,-4.12355,-0.0745553,-0.791359,-2.33803,0.1538112,
2,1,0,1,0,4435.88,0.155611,0.155283,0.072933,3,0.00767244,10,1.13253e-05,-4.13708,-0.0808433,-0.729807,-2.06662,0.155283,
2,1,0,1,0,4437.38,0.15711,0.156812,0.0688888,3,0.00780176,10,1.08026e-05,-4.16185,-0.0783159,-0.753359,-2.02635,0.156812,
2,1,0,1,0,4438.87,0.158608,0.158314,0.0661257,3,0.00792656,10,1.04686e-05,-4.17963,-0.102288,-0.576803,-1.50286,0.158314,
2,1,0,1,0,4440.37,0.160106,0.159769,0.063601,3,0.00804709,10,1.01614e-05,-4.19654,-0.10685,-0.552178,-1.39013,0.159769,
2,1,0,1,0,4441.87,0.161604,0.161332,0.0622312,3,0.00816491,10,1.00399e-05,-4.20599,-0.111286,-0.530166,-1.29066,0.161332,
2,1,0,1,0,4443.37,0.163102,0.162792,0.0608576,3,0.00827999,10,9.90711e-06,-4.21569,-0.131356,-0.44916,-1.06364,0.162792,
2,1,0,1,0,4444.87,0.164601,0.164291,0.0591765,3,0.0083924,10,9.72216e-06,-4.22785,-0.138714,-0.425335,-0.980968,0.164291,
2,1,0,1,0,4446.37,0.166099,0.165792,0.0581151,3,0.00850287,10,9.635e-06,-4.23571,-0.185862,-0.317439,-0.71587,0.165792,
2,1,0,1,0,4447.86,0.167597,0.167311,0.056278,3,0.00861143,10,9.41595e-06,-4.24966,-0.1487,-0.396771,-0.878814,0.167311,
2,1,0,1,0,4449.36,0.169095,0.168757,0.0551586,3,0.0087184,10,9.30837e-06,-4.25839,-0.192928,-0.305813,-0.66342,0.168757,
2,1,0,1,0,4450.86,0.170593,0.170272,0.0542017,3,0.00882352,10,9.22902e-06,-4.26599,-0.187976,-0.313869,-0.668585,0.170272,
2,1,0,1,0,4452.36,0.172091,0.171847,0.0530657,3,0.00892678,10,9.11921e-06,-4.27519,-0.233116,-0.253093,-0.533112,0.171847,
2,1,0,1,0,4453.86,0.17359,0.173283,0.0528746,3,0.00902915,10,9.16229e-06,-4.27675,-0.260001,-0.226922,-0.467614,0.173283,
2,1,0,1,0,4455.35,0.175088,0.174773,0.052633,3,0.00913066,10,9.19884e-06,-4.27874,-0.528117,-0.111718,-0.227699,0.1747732,
2,1,0,1,0,4456.85,0.176586,0.176285,0.0520298,3,0.00923146,10,9.17208e-06,-4.28375,-0.400452,-0.147334,-0.298462,0.176285,
2,1,0,1,0,4458.35,0.178084,0.177787,0.0513769,3,0.00933144,10,9.13415e-06,-4.28923,-0.632504,-0.0932801,-0.186907,0.1777869,
2,1,0,1,0,4459.85,0.179582,0.179255,0.0511024,3,0.00943049,10,9.16033e-06,-4.29156,-0.46281,-0.127482,-0.253408,0.179255,
2,1,0,1,0,4461.35,0.181081,0.1808,0.0508327,3,0.00952908,10,9.19052e-06,-4.29386,-0.338061,-0.174525,-0.34297,0.1808,
2,1,0,1,0,4462.85,0.182579,0.182283,0.0502215,3,0.00962685,10,9.15452e-06,-4.29911,-0.29558,-0.199608,-0.391049,0.182283,
2,1,0,1,0,4464.34,0.184077,0.183786,0.0496358,3,0.00972383,10,9.12234e-06,-4.30421,-1.47793,-0.0399207,-0.0777248,0.183786,
2,1,0,1,0,4465.84,0.185575,0.185259,0.0499116,3,0.0098203,10,9.24655e-06,-4.3018,-1.89284,-0.0311702,-0.0604742,0.185259,
2,1,0,1,0,4467.34,0.187073,0.18676,0.0496299,3,0.00991649,10,9.26889e-06,-4.30426,-0.396358,-0.148855,-0.285297,0.18676,
2,1,0,1,0,4468.84,0.188572,0.188265,0.0493435,3,0.0100124,10,9.28964e-06,-4.30677,-0.497297,-0.118641,-0.225891,0.1882648,
2,1,0,1,0,4470.34,0.19007,0.1897,0.0492724,3,0.010108,10,9.34695e-06,-4.3074,1.11644,0.0528464,0.100653,0.1897,
2,1,0,1,0,4471.83,0.191568,0.191268,0.0490193,3,0.0102031,10,9.37582e-06,-4.30963,-0.980763,-0.0601573,-0.114667,0.191268,
2,1,0,1,0,4473.33,0.193066,0.192747,0.0488836,3,0.0102982,10,9.42217e-06,-4.31084,1.355,0.0435423,0.0825809,0.192747,
2,1,0,1,0,4474.83,0.194564,0.194231,0.0491302,3,0.0103935,10,9.54258e-06,-4.30865,1.38526,0.0425914,0.0820852,0.194231,
2,1,0,1,0,4476.33,0.196063,0.195738,0.048916,3,0.0104888,10,9.57474e-06,-4.31055,-1.36297,-0.043288,-0.0826887,0.195738,
2,1,0,1,0,4477.83,0.197561,0.197243,0.0489113,3,0.0105842,10,9.64742e-06,-4.31059,-7.81115,-0.0075533,-0.0144403,0.197243,
2,1,0,1,0,4479.33,0.199059,0.198756,0.0491518,3,0.0106792,10,9.76924e-06,-4.30846,-6.17279,-0.00955807,-0.0183313,0.198756,
2,1,0,1,0,4480.82,0.200557,0.200281,0.0485519,3,0.0107742,10,9.72403e-06,-4.31379,-0.654879,-0.0900929,-0.172383,0.200281,
2,1,0,1,0,4482.32,0.202055,0.201751,0.0490576,3,0.0108691,10,9.89743e-06,-4.30929,0.773015,0.0763245,0.145245,0.201751,
2,1,0,1,0,4483.82,0.203554,0.203232,0.0488322,3,0.0109639,10,9.92429e-06,-4.31129,-3.50049,-0.0168548,-0.0323127,0.203232,
2,1,0,1,0,4485.32,0.205052,0.204672,0.0490385,3,0.011059,10,1.00368e-05,-4.30946,0.458787,0.1286,0.24904,0.204672,
2,1,0,1,0,4486.82,0.20655,0.206219,0.048917,3,0.0111541,10,1.00876e-05,-4.31054,0.890977,0.0662195,0.127665,0.206219,
2,1,0,1,0,4488.31,0.208048,0.207761,0.0493566,3,0.0112501,10,1.02544e-05,-4.30665,58.7738,0.00100385,0.00192288,0.207761,
2,1,0,1,0,4489.81,0.209546,0.20927,0.0497402,3,0.0113458,10,1.04091e-05,-4.30329,0.860662,0.0685519,0.133407,0.20927,
2,1,0,1,0,4491.31,0.211044,0.210764,0.0497329,3,0.0114413,10,1.04819e-05,-4.30336,0.384706,0.153364,0.296606,0.210764,
2,1,0,1,0,4492.81,0.212543,0.212234,0.0501336,3,0.0115375,10,1.06401e-05,-4.29987,4.11406,0.0143411,0.0278244,0.212234,
2,1,0,1,0,4494.31,0.214041,0.213753,0.050067,3,0.0116339,10,1.0702e-05,-4.30045,2.41426,0.0244381,0.0474442,0.213753,
2,1,0,1,0,4495.81,0.215539,0.215253,0.0501513,3,0.0117303,10,1.07952e-05,-4.29972,16.4015,0.00359722,0.00708988,0.215253,
2,1,0,1,0,4497.3,0.217037,0.216743,0.0504935,3,0.0118268,10,1.09441e-05,-4.29676,0.715326,0.0824799,0.161813,0.216743,
2,1,0,1,0,4498.8,0.218535,0.21823,0.0502724,3,0.0119237,10,1.09709e-05,-4.29867,-16.4682,-0.00358266,-0.00700609,0.21823,
2,1,0,1,0,4500.3,0.220034,0.21974,0.0504715,3,0.012021,10,1.10906e-05,-4.29695,-2.60978,-0.0226073,-0.0446865,0.21974,
2,1,0,1,0,4501.8,0.221532,0.221258,0.0504059,3,0.0121183,10,1.11527e-05,-4.29752,1.42377,0.0414392,0.0823062,0.221258,
2,1,0,1,0,4503.3,0.22303,0.222717,0.0507623,3,0.0122156,10,1.13057e-05,-4.29446,-2.24904,-0.0262334,-0.052004,0.222717,
2,1,0,1,0,4504.79,0.224528,0.224286,0.0507489,3,0.0123128,10,1.13823e-05,-4.29457,0.410264,0.14381,0.28723,0.224286,
2,1,0,1,0,4506.29,0.226026,0.225747,0.0507626,3,0.0124103,10,1.14595e-05,-4.29446,1.0006,0.0589644,0.116747,0.225747,
2,1,0,1,0,4507.79,0.227525,0.227251,0.0511103,3,0.0125087,10,1.16148e-05,-4.29149,0.992022,0.0594745,0.118283,0.227251,
2,1,0,1,0,4509.29,0.229023,0.228655,0.0513252,3,0.0126068,10,1.17358e-05,-4.28967,-1.67868,-0.0351467,-0.0705826,0.228655,
2,1,0,1,0,4510.79,0.230521,0.230231,0.0510608,3,0.0127047,10,1.17558e-05,-4.29191,7.96894,0.00740374,0.014812,0.230231,
2,1,0,1,0,4512.29,0.232019,0.231682,0.0515374,3,0.0128029,10,1.19403e-05,-4.28788,-7.94967,-0.00742169,-0.0149071,0.231682,
2,1,0,1,0,4513.78,0.233517,0.233221,0.0515208,3,0.0129012,10,1.20157e-05,-4.28802,1.1623,0.0507616,0.101988,0.2332207,
2,1,0,1,0,4515.28,0.235016,0.234707,0.051725,3,0.0129997,10,1.21402e-05,-4.2863,1.21489,0.048564,0.0978711,0.234707,
2,1,0,1,0,4516.78,0.236514,0.236188,0.0526711,3,0.0130984,10,1.24403e-05,-4.27843,1.41191,0.0417874,0.0843125,0.236188,
2,1,0,1,0,4518.28,0.238012,0.237708,0.0521604,3,0.0131977,10,1.2399e-05,-4.28266,0.860686,0.06855,0.139352,0.237708,
2,1,0,1,0,4519.78,0.23951,0.239234,0.0522142,3,0.0132973,10,1.24914e-05,-4.28221,0.952536,0.0619399,0.126727,0.239234,
2,1,0,1,0,4521.27,0.241008,0.240747,0.0527327,3,0.013397,10,1.26953e-05,-4.27792,0.698581,0.0844569,0.174375,0.240747,
2,1,0,1,0,4522.77,0.242506,0.24218,0.0525883,3,0.013497,10,1.27358e-05,-4.27911,0.904962,0.0651961,0.134245,0.24218,
2,1,0,1,0,4524.27,0.244005,0.24368,0.0530001,3,0.0135974,10,1.2915e-05,-4.27572,0.73879,0.0798603,0.165195,0.24368,
2,1,0,1,0,4525.77,0.245503,0.245221,0.052865,3,0.0136981,10,1.29636e-05,-4.27683,0.716075,0.0823936,0.170856,0.2452213,
2,1,0,1,0,4527.27,0.247001,0.246724,0.0533546,3,0.0137989,10,1.31639e-05,-4.27283,0.543768,0.108502,0.225651,0.246724,
2,1,0,1,0,4528.77,0.248499,0.248205,0.0532909,3,0.0138998,10,1.32271e-05,-4.27335,1.36027,0.0433737,0.090369,0.2482053,
2,1,0,1,0,4530.26,0.249997,0.249719,0.0531733,3,0.0140008,10,1.32783e-05,-4.27431,0.841528,0.0701106,0.146682,0.249719,
2,1,0,1,0,4531.76,0.251496,0.251221,0.0536103,3,0.0141022,10,1.3468e-05,-4.27075,0.62024,0.0951244,0.198463,0.251221,
2,1,0,1,0,4533.26,0.252994,0.252713,0.054474,3,0.014204,10,1.37663e-05,-4.26381,0.393297,0.150014,0.316599,0.252713,
2,1,0,1,0,4534.76,0.254492,0.254209,0.0541673,3,0.014306,10,1.37698e-05,-4.26626,0.44058,0.133914,0.283725,0.2542094,
2,1,0,1,0,4536.26,0.25599,0.255724,0.0545899,3,0.0144083,10,1.39599e-05,-4.26289,5.526,0.0106768,0.0227703,0.255724,
2,1,0,1,0,4537.75,0.257488,0.257173,0.05451,3,0.014511,10,1.40185e-05,-4.26352,4.0561,0.014546,0.0310759,0.257173,
2,1,0,1,0,4539.25,0.258987,0.258699,0.0545403,3,0.0146134,10,1.41095e-05,-4.26328,-9.16131,-0.00644013,-0.0137441,0.258699,
2,1,0,1,0,4540.75,0.260485,0.260158,0.0547828,3,0.0147164,10,1.42522e-05,-4.26136,1.19436,0.0493987,0.105381,0.260158,
2,1,0,1,0,4542.25,0.261983,0.261692,0.0549002,3,0.0148193,10,1.43669e-05,-4.26043,-2.09328,-0.0281855,-0.0603798,0.261692,
2,1,0,1,0,4543.75,0.263481,0.263146,0.0552437,3,0.0149226,10,1.45372e-05,-4.25772,3.01663,0.0195582,0.0420073,0.2631464,
2,1,0,1,0,4545.25,0.264979,0.264676,0.0546109,3,0.015026,10,1.44542e-05,-4.26272,3.79289,0.0155554,0.0336962,0.264676,
2,1,0,1,0,4546.74,0.266477,0.266195,0.0554589,3,0.0151294,10,1.47629e-05,-4.25603,1.32248,0.0446132,0.0963872,0.266195,
2,1,0,1,0,4548.24,0.267976,0.267639,0.0555639,3,0.0152332,10,1.48711e-05,-4.25521,0.97258,0.0606634,0.131638,0.267639,
2,1,0,1,0,4549.74,0.269474,0.269206,0.0557215,3,0.0153375,10,1.50005e-05,-4.25398,0.626628,0.0941547,0.206306,0.269206,
2,1,0,1,0,4551.24,0.270972,0.270688,0.0561684,3,0.0154421,10,1.52041e-05,-4.25051,0.459157,0.128496,0.281733,0.270688,
2,1,0,1,0,4552.74,0.27247,0.272198,0.0562714,3,0.0155471,10,1.5317e-05,-4.24971,9.45427,0.00624057,0.0136831,0.272198,
2,1,0,1,0,4554.23,0.273968,0.273676,0.0564896,3,0.0156523,10,1.54599e-05,-4.24803,-8.17243,-0.00721939,-0.0158273,0.273676,
2,1,0,1,0,4555.73,0.275467,0.275193,0.0560858,3,0.0157571,10,1.54344e-05,-4.25115,2.87386,0.0205299,0.0453556,0.275193,
2,1,0,1,0,4557.23,0.276965,0.276669,0.0563571,3,0.015862,10,1.55922e-05,-4.24905,0.589172,0.100141,0.220816,0.276669,
2,1,0,1,0,4558.73,0.278463,0.278158,0.0563894,3,0.0159671,10,1.56851e-05,-4.2488,0.900385,0.0655275,0.144561,0.278158,
2,1,0,1,0,4560.23,0.279961,0.279683,0.0569625,3,0.0160726,10,1.59315e-05,-4.24441,0.760612,0.0775692,0.17192,0.279683,
2,1,0,1,0,4561.73,0.281459,0.281143,0.0570226,3,0.0161784,10,1.60315e-05,-4.24395,0.349729,0.168702,0.378011,0.281143,
2,1,0,1,0,4563.22,0.282958,0.282632,0.0574368,3,0.0162846,10,1.62334e-05,-4.24081,3.76436,0.0156733,0.0351354,0.282632,
2,1,0,1,0,4564.72,0.284456,0.284164,0.0573795,3,0.0163913,10,1.63052e-05,-4.24124,0.871665,0.0676866,0.151514,0.284164,
2,1,0,1,0,4566.22,0.285954,0.285659,0.0571084,3,0.0164979,10,1.63135e-05,-4.2433,3.01379,0.0195767,0.0436628,0.2856589,
2,1,0,1,0,4567.72,0.287452,0.2871,0.0576695,3,0.0166043,10,1.65569e-05,-4.23905,-7.85953,-0.00750681,-0.0167725,0.2871,
2,1,0,1,0,4569.22,0.28895,0.288624,0.0576085,3,0.016711,10,1.66272e-05,-4.23951,0.361495,0.163211,0.36621,0.288624,
2,1,0,1,0,4570.72,0.290448,0.290119,0.0582261,3,0.0168181,10,1.68925e-05,-4.23488,0.73675,0.0800815,0.181512,0.290119,
2,1,0,1,0,4572.21,0.291947,0.291651,0.057838,3,0.0169257,10,1.68685e-05,-4.23779,0.781713,0.0754753,0.171871,0.291651,
2,1,0,1,0,4573.71,0.293445,0.293156,0.0586712,3,0.0170332,10,1.71998e-05,-4.23158,-4.07558,-0.0144765,-0.0332107,0.293156,
2,1,0,1,0,4575.21,0.294943,0.294684,0.0587833,3,0.0171412,10,1.73225e-05,-4.23075,1.28535,0.0459018,0.104318,0.294684,
2,1,0,1,0,4576.71,0.296441,0.296151,0.0585152,3,0.0172494,10,1.73293e-05,-4.23273,0.63165,0.0934062,0.214395,0.296151,
2,1,0,1,0,4578.21,0.297939,0.297611,0.0588699,3,0.0173579,10,1.75203e-05,-4.23011,2.58742,0.0228026,0.0524544,0.297611,
2,1,0,1,0,4579.7,0.299438,0.299081,0.0588046,3,0.0174665,10,1.75874e-05,-4.23059,-0.00558736,-10.5595,-17.1276,0.299081,
2,1,0,1,0,4580.55,0.299737,0.299469,0.0336908,3,0.0175141,10,1.00893e-05,-4.47249,0.00277935,21.228,30.6781,0.299469,
2,1,0,1,0,4582.05,0.298239,0.29795,0.0231226,3,0.0175339,10,6.88938e-06,-4.63596,0.00678931,8.69013,11.7967,0.29795,
2,1,0,1,0,4583.55,0.296741,0.296416,0.0184678,3,0.0175446,10,5.47414e-06,-4.73359,0.0168067,3.51051,2.6334,0.296416,
2,1,0,1,0,4585.05,0.295243,0.294923,0.0154189,3,0.0175495,10,4.54737e-06,-4.81195,0.0207874,2.83825,1.77512,0.294923,
2,1,0,1,0,4586.55,0.293745,0.293432,0.0129856,3,0.0175508,10,3.81037e-06,-4.88654,0.0216207,2.72887,1.40829,0.293432,
2,1,0,1,0,4588.04,0.292246,0.29191,0.0116471,3,0.0175491,10,3.39989e-06,-4.93378,0.0199752,2.95366,1.25686,0.29191,
2,1,0,1,0,4589.54,0.290748,0.290482,0.00938002,3,0.0175442,10,2.72472e-06,-5.0278,0.0202174,2.91828,1.07374,0.2904816,
2,1,0,1,0,4591.04,0.28925,0.288934,0.00757355,3,0.0175365,10,2.18826e-06,-5.1207,0.0202373,2.9154,0.855771,0.288934,
2,1,0,1,0,4592.54,0.287752,0.28745,0.00635432,3,0.017527,10,1.82655e-06,-5.19693,0.0145357,4.05898,0.932092,0.28745,
2,1,0,1,0,4594.04,0.286254,0.285916,0.00471481,3,0.0175153,10,1.34804e-06,-5.32654,0.0108559,5.43484,1.00353,0.285916,
2,0,0,1,0,4595.54,0.284755,0.284453,0.00352023,3,0.0175014,10,1.00134e-06,-5.45343,0.00900918,6.54888,0.904678,0.284453,
2,1,0,1,0,4597.03,0.283257,0.282983,0.00229567,3,0.0174854,10,6.49637e-07,-5.63909,0.00801104,7.36484,0.634726,0.282983,
2,0,0,1,0,4598.53,0.281759,0.281476,0.00111057,3,0.017468,10,3.12599e-07,-5.95445,0.00756147,7.80272,0.427076,0.2814756,
2,1,0,1,0,4600.03,0.280261,0.279953,0.000518669,3,0.0174496,10,1.45203e-07,-6.28511,0.00900212,6.55401,0.653837,0.279953,
2,1,0,1,0,4601.53,0.278763,0.278456,-0.000309881,3,0.0174299,10,-8.62881e-08,-6.50881,-0.0352755,-1.67255,0.658592,0.278456,
2,0,0,1,0,4603.03,0.277264,0.276975,-0.000872314,3,0.0174087,10,-2.41609e-07,-6.05933,-0.00606191,-9.7329,0.795292,0.276975,
2,1,0,1,0,4604.52,0.275766,0.275416,-0.00268957,3,0.0173861,10,-7.40751e-07,-5.57032,-0.00756608,-7.79796,0.549954,0.275416,
2,0,0,1,0,4606.02,0.274268,0.273962,-0.00295424,3,0.0173616,10,-8.09349e-07,-5.52955,-0.0109026,-5.41156,0.568724,0.2739616,
2,1,0,1,0,4607.52,0.27277,0.272448,-0.00420886,3,0.017336,10,-1.1467e-06,-5.37584,-0.0121946,-4.83821,0.798724,0.272448,
2,0,0,1,0,4609.02,0.271272,0.270955,-0.00501861,3,0.0173088,10,-1.35982e-06,-5.29942,-0.0166496,-3.54362,0.662336,0.270955,
2,1,0,1,0,4610.52,0.269774,0.269423,-0.00605036,3,0.0172802,10,-1.63011e-06,-5.21822,-0.0322719,-1.82821,0.412318,0.269423,
2,1,0,1,0,4612.02,0.268275,0.267944,-0.00687856,3,0.0172504,10,-1.84307e-06,-5.1625,-0.0246175,-2.39667,0.59199,0.267944,
2,1,0,1,0,4613.51,0.266777,0.26646,-0.00735015,3,0.0172195,10,-1.95852e-06,-5.1337,-0.0501935,-1.17545,0.338624,0.26646,
2,0,0,1,0,4615.01,0.265279,0.264986,-0.00808662,3,0.0171872,10,-2.14284e-06,-5.09223,-0.0332631,-1.77374,0.576514,0.264986,
2,0,0,1,0,4616.51,0.263781,0.263481,-0.0096456,3,0.0171538,10,-2.54144e-06,-5.01567,-0.0514881,-1.1459,0.38548,0.263481,
2,0,0,1,0,4618.01,0.262283,0.262004,-0.0100906,3,0.0171191,10,-2.64379e-06,-4.99608,-0.0385358,-1.53105,0.596487,0.262004,
2,0,0,1,0,4619.51,0.260784,0.260523,-0.0104299,3,0.0170837,10,-2.71723e-06,-4.98172,-0.0643685,-0.916598,0.377123,0.260523,
2,1,0,1,0,4621,0.259286,0.25898,-0.0113956,3,0.017047,10,-2.95122e-06,-4.94326,-0.0457153,-1.2906,0.535326,0.25898,
2,0,0,1,0,4622.5,0.257788,0.257485,-0.0114495,3,0.0170093,10,-2.94808e-06,-4.94121,-0.0553458,-1.06603,0.483387,0.257485,
2,0,0,1,0,4624,0.25629,0.25599,-0.0125924,3,0.0169709,10,-3.22354e-06,-4.89989,-0.0492482,-1.19801,0.572347,0.2559897,
2,0,0,1,0,4625.5,0.254792,0.254451,-0.0126904,3,0.0169315,10,-3.22909e-06,-4.89652,-0.0579918,-1.01738,0.495793,0.254451,
2,0,0,1,0,4627,0.253293,0.252963,-0.0138915,3,0.0168911,10,-3.51405e-06,-4.85725,-0.0614896,-0.959512,0.501226,0.252963,
2,1,0,1,0,4628.5,0.251795,0.25146,-0.0141984,3,0.0168497,10,-3.57032e-06,-4.84776,-0.0651822,-0.905155,0.501874,0.25146,
2,0,0,1,0,4629.99,0.250297,0.249976,-0.0143834,3,0.0168074,10,-3.59551e-06,-4.84214,-0.147575,-0.399796,0.229167,0.249976,
2,0,0,1,0,4631.49,0.248799,0.248432,-0.0150437,3,0.0167644,10,-3.73734e-06,-4.82265,-0.0896466,-0.65814,0.393913,0.248432,
2,0,0,1,0,4632.99,0.247301,0.247007,-0.0159818,3,0.0167209,10,-3.94761e-06,-4.79638,-0.100071,-0.589583,0.363004,0.247007,
2,0,0,1,0,4634.49,0.245802,0.245522,-0.0164777,3,0.016676,10,-4.04564e-06,-4.7831,-0.0844741,-0.698439,0.44137,0.245522,
2,0,0,1,0,4635.99,0.244304,0.244026,-0.0173045,3,0.0166299,10,-4.22276e-06,-4.76184,-0.0902334,-0.65386,0.432053,0.244026,
2,0,0,1,0,4637.48,0.242806,0.242512,-0.017627,3,0.0165831,10,-4.27475e-06,-4.75382,-0.119028,-0.49568,0.338874,0.242512,
2,0,0,1,0,4638.98,0.241308,0.240998,-0.0181758,3,0.0165356,10,-4.38033e-06,-4.74051,-0.100242,-0.588577,0.415592,0.240998,
2,0,0,1,0,4640.48,0.23981,0.239467,-0.0188156,3,0.016487,10,-4.5057e-06,-4.72548,-0.129486,-0.455646,0.330135,0.239467,
2,0,0,1,0,4641.98,0.238312,0.238008,-0.0195507,3,0.0164373,10,-4.65323e-06,-4.70884,-0.11074,-0.532779,0.404243,0.238008,
2,0,0,1,0,4643.48,0.236813,0.236499,-0.0199857,3,0.0163869,10,-4.7266e-06,-4.69928,-0.0809943,-0.728447,0.562883,0.236499,
2,0,0,1,0,4644.98,0.235315,0.23501,-0.02046,3,0.0163356,10,-4.8083e-06,-4.68909,-0.13959,-0.422666,0.338609,0.23501,
2,1,0,1,0,4646.47,0.233817,0.233555,-0.0213445,3,0.0162834,10,-4.9851e-06,-4.67071,-0.163644,-0.360538,0.294531,0.233555,
2,0,0,1,0,4647.97,0.232319,0.231993,-0.021702,3,0.0162302,10,-5.0347e-06,-4.6635,-0.113947,-0.517786,0.441329,0.231993,
2,0,0,1,0,4649.47,0.230821,0.230504,-0.0224598,3,0.0161761,10,-5.17707e-06,-4.64859,-0.114184,-0.51671,0.448451,0.230504,
2,0,0,1,0,4650.97,0.229322,0.228982,-0.0229861,3,0.0161209,10,-5.2634e-06,-4.63854,-0.156555,-0.376864,0.334504,0.228982,
2,0,0,1,0,4652.47,0.227824,0.227517,-0.0235373,3,0.0160649,10,-5.35514e-06,-4.62824,-0.229811,-0.256733,0.23666,0.227517,
2,0,0,1,0,4653.97,0.226326,0.226035,-0.0238696,3,0.0160081,10,-5.39537e-06,-4.62215,-0.117688,-0.501324,0.470744,0.226035,
2,0,0,1,0,4655.46,0.224828,0.224515,-0.0250277,3,0.0159502,10,-5.6191e-06,-4.60158,-0.235836,-0.250174,0.238113,0.224515,
2,0,0,1,0,4656.96,0.22333,0.223047,-0.0248868,3,0.0158912,10,-5.55092e-06,-4.60403,-0.121571,-0.485313,0.479821,0.223047,
2,0,0,1,0,4658.46,0.221831,0.221503,-0.0258879,3,0.0158318,10,-5.73426e-06,-4.5869,-0.125462,-0.470263,0.468309,0.221503,
2,0,0,1,0,4659.96,0.220333,0.220072,-0.0265286,3,0.0157713,10,-5.8382e-06,-4.57629,-0.178653,-0.330249,0.339116,0.2200717,
2,0,0,1,0,4661.46,0.218835,0.218569,-0.026979,3,0.0157095,10,-5.89678e-06,-4.56897,-0.119195,-0.494987,0.514034,0.218569,
2,0,0,1,0,4662.95,0.217337,0.217064,-0.0275614,3,0.015647,10,-5.9826e-06,-4.5597,-0.169961,-0.347139,0.373963,0.217064,
2,0,0,1,0,4664.45,0.215839,0.215566,-0.0284381,3,0.0155838,10,-6.13029e-06,-4.5461,-0.193571,-0.304797,0.334762,0.215566,
2,0,0,1,0,4665.95,0.21434,0.214003,-0.0289388,3,0.0155196,10,-6.193e-06,-4.53852,-0.14235,-0.414472,0.466281,0.214003,
2,0,0,1,0,4667.45,0.212842,0.212548,-0.0294254,3,0.0154541,10,-6.25432e-06,-4.53128,-0.135902,-0.434137,0.499092,0.212548,
2,0,0,1,0,4668.95,0.211344,0.211051,-0.0304807,3,0.0153877,10,-6.43297e-06,-4.51598,-0.134116,-0.439919,0.51622,0.2110509,
2,0,0,1,0,4670.45,0.209846,0.209558,-0.0305224,3,0.0153203,10,-6.39622e-06,-4.51538,-0.161456,-0.365425,0.439386,0.209558,
2,0,0,1,0,4671.94,0.208348,0.208059,-0.0316449,3,0.0152518,10,-6.58403e-06,-4.4997,-0.130986,-0.45043,0.555874,0.208059,
2,0,0,1,0,4673.44,0.20685,0.206546,-0.0324235,3,0.0151822,10,-6.69695e-06,-4.48914,-0.188828,-0.312454,0.393958,0.206546,
2,0,0,1,0,4674.94,0.205351,0.205052,-0.0325934,3,0.0151114,10,-6.68335e-06,-4.48687,-0.195324,-0.302063,0.382355,0.205052,
2,0,0,1,0,4676.44,0.203853,0.203545,-0.0331883,3,0.0150399,10,-6.75533e-06,-4.47901,-0.214563,-0.274978,0.357942,0.203545,
2,0,0,1,0,4677.94,0.202355,0.202043,-0.0337719,3,0.0149677,10,-6.82336e-06,-4.47144,-0.544977,-0.108261,0.142567,0.2020427,
2,0,0,1,0,4679.43,0.200857,0.200557,-0.0340805,3,0.0148946,10,-6.83507e-06,-4.46749,-0.282761,-0.208657,0.280186,0.200557,
2,0,0,1,0,4680.93,0.199359,0.199042,-0.0346008,3,0.014821,10,-6.88701e-06,-4.46091,-0.21762,-0.271114,0.365441,0.199042,
2,0,0,1,0,4682.43,0.19786,0.197548,-0.0354769,3,0.0147464,10,-7.00838e-06,-4.45005,-0.210425,-0.280385,0.386835,0.1975476,
2,0,0,1,0,4683.93,0.196362,0.196013,-0.0359863,3,0.0146711,10,-7.05379e-06,-4.44386,-0.175619,-0.335954,0.472057,0.196013,
2,0,0,1,0,4685.43,0.194864,0.194513,-0.0370439,3,0.0145947,10,-7.20552e-06,-4.43128,-0.125035,-0.471867,0.676295,0.194513,
2,0,0,1,0,4686.93,0.193366,0.193064,-0.0378087,3,0.0145168,10,-7.2995e-06,-4.42241,-0.168484,-0.350182,0.512671,0.193064,
2,0,0,1,0,4688.42,0.191868,0.191532,-0.0383333,3,0.0144377,10,-7.34205e-06,-4.41642,-0.212217,-0.278017,0.416854,0.191532,
2,0,0,1,0,4689.92,0.190369,0.190036,-0.0386983,3,0.0143576,10,-7.35407e-06,-4.41231,-0.135392,-0.435773,0.66526,0.190036,
2,0,0,1,0,4691.42,0.188871,0.18857,-0.0401308,3,0.0142762,10,-7.56747e-06,-4.39652,-0.169725,-0.347622,0.542899,0.18857,
2,0,0,1,0,4692.92,0.187373,0.187064,-0.0412157,3,0.0141932,10,-7.70999e-06,-4.38494,-0.136929,-0.43088,0.687418,0.187064,
2,0,0,1,0,4694.42,0.185875,0.18554,-0.0416437,3,0.014109,10,-7.72656e-06,-4.38045,-0.188403,-0.313158,0.511568,0.1855396,
2,0,0,1,0,4695.91,0.184377,0.184084,-0.0421349,3,0.0140235,10,-7.75635e-06,-4.37536,-0.11978,-0.49257,0.820035,0.1840836,
2,0,0,1,0,4697.41,0.182878,0.182575,-0.0439362,3,0.0139363,10,-8.02163e-06,-4.35718,-0.121945,-0.483823,0.821236,0.182575,
2,0,0,1,0,4698.91,0.18138,0.181071,-0.0450556,3,0.0138473,10,-8.15826e-06,-4.34625,-0.188947,-0.312257,0.54623,0.181071,
2,0,0,1,0,4700.41,0.179882,0.179576,-0.0457295,3,0.0137569,10,-8.21192e-06,-4.3398,-0.195123,-0.302373,0.538988,0.179576,
2,0,0,1,0,4701.91,0.178384,0.178063,-0.0467407,3,0.0136646,10,-8.32278e-06,-4.3303,-0.156043,-0.3781,0.687102,0.178063,
2,0,0,1,0,4703.41,0.176886,0.176573,-0.0475223,3,0.0135711,10,-8.39114e-06,-4.3231,-0.201565,-0.292709,0.546818,0.176573,
2,0,0,1,0,4704.9,0.175388,0.175056,-0.048552,3,0.0134759,10,-8.49935e-06,-4.31379,-0.144092,-0.409462,0.778463,0.1750564,
2,0,0,1,0,4706.4,0.173889,0.173562,-0.0502958,3,0.0133791,10,-8.72946e-06,-4.29847,-0.172159,-0.342706,0.671976,0.1735623,
2,0,0,1,0,4707.9,0.172391,0.172055,-0.051364,3,0.0132802,10,-8.83745e-06,-4.28934,-0.148007,-0.39863,0.801278,0.172055,
2,0,0,1,0,4709.4,0.170893,0.170572,-0.0531772,3,0.0131795,10,-9.07053e-06,-4.27427,-0.11646,-0.506614,1.04404,0.170572,
2,0,0,1,0,4710.9,0.169395,0.169086,-0.0544741,3,0.013076,10,-9.21082e-06,-4.26381,-0.108524,-0.543659,1.1476,0.169086,
2,0,0,1,0,4712.39,0.167897,0.167558,-0.0560758,3,0.0129699,10,-9.39597e-06,-4.25122,-0.126734,-0.465543,1.01888,0.167558,
2,0,0,1,0,4713.89,0.166398,0.166104,-0.057824,3,0.0128614,10,-9.60482e-06,-4.23789,-0.110455,-0.534156,1.21303,0.166104,
2,0,0,1,0,4715.39,0.1649,0.164571,-0.0596639,3,0.0127501,10,-9.81895e-06,-4.22429,-0.0896962,-0.657776,1.53544,0.164571,
2,0,0,1,0,4716.89,0.163402,0.1631,-0.0620475,3,0.0126352,10,-1.012e-05,-4.20728,-0.0857056,-0.688403,1.65861,0.1631,
2,0,0,1,0,4718.39,0.161904,0.161605,-0.0643817,3,0.0125165,10,-1.04044e-05,-4.19124,-0.0874797,-0.674442,1.68572,0.161605,
2,0,0,1,0,4719.89,0.160406,0.160113,-0.06677,3,0.012394,10,-1.06907e-05,-4.17542,-0.0846867,-0.696686,1.81918,0.160113,
2,0,0,1,0,4721.38,0.158907,0.158599,-0.0692474,3,0.0122675,10,-1.09826e-05,-4.1596,-0.0815069,-0.723865,1.96568,0.158599,
2,0,0,1,0,4722.88,0.157409,0.15709,-0.0722834,3,0.0121367,10,-1.1355e-05,-4.14096,-0.076944,-0.766791,2.17938,0.15709,
2,0,0,1,0,4724.38,0.155911,0.155626,-0.0765191,3,0.0120003,10,-1.19083e-05,-4.11623,-0.0702385,-0.839995,2.50018,0.155626,
2,0,0,1,0,4725.88,0.154413,0.154106,-0.0797797,3,0.0118584,10,-1.22945e-05,-4.09811,-0.0766814,-0.769418,2.40379,0.154106,
2,0,0,1,0,4727.38,0.152915,0.152565,-0.084201,3,0.0117109,10,-1.28461e-05,-4.07468,-0.0642417,-0.918406,3.01854,0.152565,
2,0,0,1,0,4728.87,0.151417,0.151103,-0.0885959,3,0.0115567,10,-1.33871e-05,-4.05259,-0.0598743,-0.985397,3.43447,0.151103,
2,0,0,1,0,4730.37,0.149918,0.149614,-0.093544,3,0.011395,10,-1.39955e-05,-4.02898,-0.0630118,-0.936332,3.43146,0.149614,
2,0,0,1,0,4731.87,0.14842,0.148136,-0.0994237,3,0.0112248,10,-1.47282e-05,-4.00251,-0.0617005,-0.956233,3.68507,0.1481358,
2,0,0,1,0,4733.37,0.146922,0.14662,-0.104729,3,0.0110464,10,-1.53553e-05,-3.97993,-0.0625001,-0.943998,3.84684,0.14662,
2,0,0,1,0,4734.87,0.145424,0.145152,-0.110715,3,0.01086,10,-1.60705e-05,-3.95579,-0.0626975,-0.941026,4.05955,0.1451519,
2,0,0,1,0,4736.37,0.143926,0.143623,-0.116695,3,0.0106639,10,-1.676e-05,-3.93295,-0.0592823,-0.995237,4.53731,0.143623,
2,0,0,1,0,4737.86,0.142427,0.142132,-0.12283,3,0.0104584,10,-1.74581e-05,-3.91069,-0.0670636,-0.879762,4.23056,0.142132,
2,0,0,1,0,4739.36,0.140929,0.140606,-0.129441,3,0.0102436,10,-1.82001e-05,-3.88793,-0.0764134,-0.772116,3.89227,0.1406059,
2,0,0,1,0,4740.86,0.139431,0.139083,-0.135471,3,0.0100203,10,-1.88418e-05,-3.86815,-0.0779656,-0.756744,3.98906,0.139083,
2,0,0,1,0,4742.36,0.137933,0.137676,-0.141644,3,0.00978807,10,-1.9501e-05,-3.8488,-0.0888124,-0.664322,3.6309,0.137676,
2,0,0,1,0,4743.86,0.136435,0.1361,-0.14647,3,0.00954709,10,-1.99346e-05,-3.83425,-0.104452,-0.564851,3.21274,0.1361,
2,0,0,1,0,4745.35,0.134936,0.134635,-0.150674,3,0.0092991,10,-2.0286e-05,-3.82196,-0.130664,-0.45154,2.64255,0.134635,
2,0,0,1,0,4746.85,0.133438,0.133178,-0.154448,3,0.00904477,10,-2.0569e-05,-3.81122,-0.161691,-0.364894,2.18983,0.1331777,
2,0,0,1,0,4748.35,0.13194,0.131711,-0.157596,3,0.00878536,10,-2.07571e-05,-3.80246,-0.182806,-0.322746,1.98148,0.131711,
2,0,0,1,0,4749.85,0.130442,0.130115,-0.159886,3,0.0085216,10,-2.08035e-05,-3.79619,-0.312022,-0.189089,1.17831,0.130115,
2,0,0,1,0,4751.35,0.128944,0.128605,-0.160853,3,0.00825465,10,-2.06865e-05,-3.79357,-0.648638,-0.0909598,0.570027,0.128605,
2,0,0,1,0,4752.85,0.127445,0.127112,-0.161749,3,0.00798595,10,-2.05603e-05,-3.79116,-0.778806,-0.075757,0.478815,0.127112,
2,0,0,1,0,4754.34,0.125947,0.125647,-0.163001,3,0.00771716,10,-2.04806e-05,-3.78781,5.2436,0.0112518,-0.0715063,0.125647,
2,0,0,1,0,4755.84,0.124449,0.124144,-0.163303,3,0.00744726,10,-2.02731e-05,-3.78701,2.18078,0.0270546,-0.171635,0.124144,
2,0,0,1,0,4757.34,0.122951,0.122619,-0.163297,3,0.00717739,10,-2.00233e-05,-3.78702,2.27343,0.025952,-0.164158,0.122619,
2,0,0,1,0,4758.84,0.121453,0.121197,-0.161728,3,0.0069082,10,-1.96009e-05,-3.79122,0.679023,0.0868896,-0.547102,0.121197,
2,0,0,1,0,4760.34,0.119955,0.119665,-0.160874,3,0.00664099,10,-1.9251e-05,-3.79351,0.717956,0.0821778,-0.518112,0.119665,
2,0,0,1,0,4761.83,0.118456,0.118145,-0.160351,3,0.00637408,10,-1.89447e-05,-3.79493,1.13364,0.0520449,-0.32499,0.118145,
2,0,0,1,0,4763.33,0.116958,0.116623,-0.160298,3,0.00610774,10,-1.86944e-05,-3.79507,0.706682,0.0834888,-0.5205,0.116623,
2,0,0,1,0,4764.83,0.11546,0.115174,-0.15937,3,0.00584342,10,-1.83553e-05,-3.79759,0.40217,0.146704,-0.911705,0.115174,
2,0,0,1,0,4766.33,0.113962,0.11363,-0.156548,3,0.00558098,10,-1.77886e-05,-3.80535,0.50898,0.115918,-0.711663,0.11363,
2,0,0,1,0,4767.83,0.112464,0.112174,-0.1567,3,0.00532028,10,-1.75777e-05,-3.80493,0.405372,0.145545,-0.888101,0.112174,
2,0,0,1,0,4769.33,0.110965,0.110666,-0.155882,3,0.00506139,10,-1.72509e-05,-3.80721,0.425531,0.13865,-0.838315,0.110666,
2,0,0,1,0,4770.82,0.109467,0.109169,-0.153815,3,0.0048042,10,-1.67919e-05,-3.813,0.405144,0.145627,-0.872276,0.109169,
2,0,0,1,0,4772.32,0.107969,0.107677,-0.152264,3,0.00454911,10,-1.63953e-05,-3.8174,0.393503,0.149935,-0.895364,0.107677,
2,0,0,1,0,4773.82,0.106471,0.106119,-0.151094,3,0.00429618,10,-1.6034e-05,-3.82075,0.382569,0.15422,-0.911631,0.106119,
2,0,0,1,0,4775.32,0.104973,0.104668,-0.149433,3,0.00404513,10,-1.56408e-05,-3.82555,0.338437,0.174331,-1.02098,0.104668,
2,0,0,1,0,4776.82,0.103474,0.103197,-0.148816,3,0.00379595,10,-1.53574e-05,-3.82735,0.286584,0.205873,-1.18655,0.103197,
2,0,0,1,0,4778.31,0.101976,0.101619,-0.147391,3,0.0035497,10,-1.49777e-05,-3.83153,0.300938,0.196054,-1.1204,0.101619,
2,0,0,1,0,4779.81,0.100478,0.10016,-0.145003,3,0.00330649,10,-1.45234e-05,-3.83862,0.263872,0.223593,-1.25989,0.1001598,
2,0,0,1,0,4781.31,0.0989798,0.0986583,-0.143029,3,0.00306552,10,-1.4111e-05,-3.84458,0.300946,0.196048,-1.09383,0.0986583,
2,0,0,1,0,4782.81,0.0974816,0.0971557,-0.141548,3,0.00282737,10,-1.37522e-05,-3.8491,0.342943,0.17204,-0.949329,0.09715566,
2,0,0,1,0,4784.31,0.0959834,0.09567,-0.139066,3,0.0025915,10,-1.33044e-05,-3.85678,0.363071,0.162503,-0.889554,0.09567,
2,0,0,1,0,4785.81,0.0944852,0.0941536,-0.137555,3,0.00235889,10,-1.29513e-05,-3.86152,0.331702,0.17787,-0.961693,0.0941536,
2,0,0,1,0,4787.3,0.0929871,0.0926989,-0.136606,3,0.00212807,10,-1.26633e-05,-3.86453,0.435566,0.135456,-0.718678,0.0926989,
2,0,0,1,0,4788.8,0.0914889,0.0912026,-0.13522,3,0.00189893,10,-1.23324e-05,-3.86896,0.42095,0.140159,-0.741275,0.0912026,
2,0,0,1,0,4790.3,0.0899907,0.0896788,-0.133911,3,0.00167282,10,-1.2009e-05,-3.87318,0.280856,0.210072,-1.09604,0.0896788,
2,0,0,1,0,4791.8,0.0884925,0.0881656,-0.13162,3,0.00144868,10,-1.16043e-05,-3.88068,0.42593,0.13852,-0.713941,0.0881656,
2,0,0,1,0,4793.3,0.0869943,0.0866683,-0.131218,3,0.00122673,10,-1.13724e-05,-3.88201,0.383573,0.153817,-0.785819,0.08666826,
2,0,0,1,0,4794.8,0.0854961,0.085189,-0.130629,3,0.00100621,10,-1.11281e-05,-3.88396,0.442477,0.13334,-0.675811,0.085189,
2,0,0,1,0,4796.29,0.083998,0.0837035,-0.128853,3,0.000787598,10,-1.07854e-05,-3.88991,0.328178,0.179781,-0.903783,0.0837035,
2,0,0,1,0,4797.79,0.0824998,0.0822062,-0.127411,3,0.000570589,10,-1.0474e-05,-3.89479,0.452652,0.130343,-0.650593,0.0822062,
2,0,0,1,0,4799.29,0.0810016,0.080693,-0.126562,3,0.000355585,10,-1.02127e-05,-3.8977,0.427409,0.138041,-0.685352,0.080693,
2,0,0,1,0,4800.79,0.0795034,0.0792073,-0.125675,3,0.000141626,10,-9.95435e-06,-3.90075,0.465534,0.126736,-0.623494,0.0792073,
2,0,0,1,0,4802.29,0.0780052,0.0776761,-0.12568,3,-7.10463e-05,10,-9.76234e-06,-3.90073,0.62895,0.0938072,-0.456984,0.0776761,
2,0,0,1,0,4803.78,0.076507,0.076182,-0.124104,3,-0.000282553,10,-9.45447e-06,-3.90622,0.58579,0.100719,-0.487522,0.076182,
2,0,0,1,0,4805.28,0.0750088,0.0746878,-0.123667,3,-0.000492357,10,-9.23645e-06,-3.90774,0.469326,0.125712,-0.608284,0.0746878,
2,0,0,1,0,4806.78,0.0735106,0.0731693,-0.123247,3,-0.000701618,10,-9.01788e-06,-3.90922,0.641253,0.0920074,-0.439543,0.0731693,
2,0,0,1,0,4808.28,0.0720124,0.0717304,-0.122122,3,-0.000909717,10,-8.75985e-06,-3.91321,0.525367,0.112302,-0.535842,0.0717304,
2,0,0,1,0,4809.78,0.0705142,0.0702235,-0.12079,3,-0.00111641,10,-8.48229e-06,-3.91797,0.667118,0.0884402,-0.419976,0.07022351,
2,0,0,1,0,4811.28,0.069016,0.0687092,-0.119913,3,-0.00132192,10,-8.23911e-06,-3.92113,0.639842,0.0922102,-0.434181,0.0687092,
2,0,0,1,0,4812.77,0.0675178,0.0671706,-0.119546,3,-0.00152644,10,-8.02999e-06,-3.92246,1.19569,0.0493438,-0.231089,0.06717056,
2,0,0,1,0,4814.27,0.0660196,0.0656945,-0.119933,3,-0.00173018,10,-7.87896e-06,-3.92106,0.831713,0.0709379,-0.32996,0.0656945,
2,0,0,1,0,4815.77,0.0645214,0.0642481,-0.118743,3,-0.00193299,10,-7.62904e-06,-3.92539,0.487946,0.120915,-0.557274,0.0642481,
2,0,0,1,0,4817.27,0.0630233,0.0627201,-0.116803,3,-0.00213395,10,-7.32587e-06,-3.93255,0.603429,0.0977746,-0.446733,0.06272012,
2,0,0,1,0,4818.77,0.0615251,0.0612143,-0.11684,3,-0.002334,10,-7.1523e-06,-3.93241,0.505192,0.116787,-0.531491,0.06121432,
2,0,0,1,0,4820.26,0.0600269,0.0596905,-0.116626,3,-0.00253307,10,-6.96145e-06,-3.93321,0.409824,0.143964,-0.652308,0.0596905,
2,0,0,1,0,4821.76,0.0585287,0.0582239,-0.114829,3,-0.00273087,10,-6.68579e-06,-3.93995,0.306752,0.192338,-0.859929,0.0582239,
2,0,0,1,0,4823.26,0.0570305,0.0567065,-0.114362,3,-0.00292736,10,-6.48509e-06,-3.94172,0.526679,0.112023,-0.502743,0.0567065,
2,0,0,1,0,4824.76,0.0555323,0.0551933,-0.113288,3,-0.00312215,10,-6.25273e-06,-3.94582,0.655517,0.0900053,-0.399794,0.0551933,
2,0,0,1,0,4826.26,0.0540342,0.0537035,-0.112922,3,-0.00331605,10,-6.06431e-06,-3.94722,0.353037,0.167121,-0.731305,0.0537035,
2,0,0,1,0,4827.76,0.052536,0.0522285,-0.11194,3,-0.00350914,10,-5.84643e-06,-3.95102,0.505028,0.116825,-0.509125,0.0522285,
2,0,0,1,0,4829.25,0.0510378,0.0507047,-0.110783,3,-0.00370034,10,-5.61721e-06,-3.95553,0.442288,0.133397,-0.577704,0.0507047,
2,0,0,1,0,4830.75,0.0495396,0.0492424,-0.110568,3,-0.00389005,10,-5.44461e-06,-3.95637,0.500498,0.117882,-0.506619,0.0492424,
2,0,0,1,0,4832.25,0.0480414,0.0477451,-0.109558,3,-0.004079,10,-5.23085e-06,-3.96036,0.708192,0.0833107,-0.355344,0.0477451,
2,0,0,1,0,4833.75,0.0465432,0.0462011,-0.10898,3,-0.00426693,10,-5.03501e-06,-3.96265,0.6003,0.0982842,-0.418937,0.0462011,
2,0,0,1,0,4835.25,0.045045,0.0447473,-0.107754,3,-0.00445387,10,-4.82168e-06,-3.96757,0.485342,0.121564,-0.51424,0.0447473,
2,0,0,1,0,4836.74,0.0435468,0.0432436,-0.107341,3,-0.00463963,10,-4.64182e-06,-3.96923,0.455696,0.129472,-0.54502,0.0432436,
2,0,0,1,0,4838.24,0.0420486,0.0417474,-0.10666,3,-0.00482434,10,-4.45276e-06,-3.972,0.377843,0.15615,-0.649263,0.0417474,
2,0,0,1,0,4839.74,0.0405504,0.0402352,-0.106429,3,-0.00500807,10,-4.28219e-06,-3.97294,0.375299,0.157208,-0.647475,0.0402352,
2,0,0,1,0,4841.24,0.0390522,0.0387262,-0.10502,3,-0.00519051,10,-4.06704e-06,-3.97873,0.592076,0.0996493,-0.40778,0.0387262,
2,0,0,1,0,4842.74,0.037554,0.0372226,-0.103969,3,-0.00537156,10,-3.87e-06,-3.9831,0.950762,0.0620555,-0.253522,0.0372226,
2,0,0,1,0,4844.24,0.0360558,0.0357348,-0.103278,3,-0.00555156,10,-3.69061e-06,-3.98599,0.467985,0.126072,-0.510368,0.03573481,
2,0,0,1,0,4845.73,0.0345576,0.0342799,-0.103063,3,-0.00573099,10,-3.53299e-06,-3.9869,0.485011,0.121647,-0.490176,0.0342799,
2,0,0,1,0,4847.23,0.0330594,0.0327402,-0.102578,3,-0.00590937,10,-3.35843e-06,-3.98894,0.498634,0.118323,-0.473628,0.0327402,
2,0,0,1,0,4848.73,0.0315613,0.0312599,-0.102326,3,-0.00608696,10,-3.19872e-06,-3.99001,0.741287,0.0795913,-0.318033,0.0312599,
2,0,0,1,0,4850.23,0.0300631,0.0297372,-0.101574,3,-0.00626353,10,-3.02051e-06,-3.99322,1.55728,0.0378865,-0.150166,0.0297372,
2,0,0,1,0,4851.73,0.0285649,0.0282463,-0.101514,3,-0.00643974,10,-2.8674e-06,-3.99347,0.906913,0.0650558,-0.257514,0.0282463,
2,0,0,1,0,4853.22,0.0270667,0.0267776,-0.101199,3,-0.00661538,10,-2.70986e-06,-3.99482,1.17593,0.050173,-0.197412,0.0267776,
2,0,0,1,0,4854.72,0.0255685,0.0252272,-0.10033,3,-0.00679027,10,-2.53104e-06,-3.99857,0.684022,0.0862545,-0.338483,0.02522723,
2,0,0,1,0,4856.22,0.0240703,0.0237459,-0.100695,3,-0.00696409,10,-2.39109e-06,-3.99699,1.73166,0.0340713,-0.133366,0.0237459,
2,0,0,1,0,4857.72,0.0225722,0.022255,-0.100189,3,-0.00713808,10,-2.22971e-06,-3.99918,-2.41563,-0.0244242,0.0953827,0.022255,
2,0,0,1,0,4859.22,0.021074,0.0207619,-0.100277,3,-0.00731199,10,-2.08195e-06,-3.9988,19.5406,0.00301936,-0.011847,0.0207619,
2,0,0,1,0,4860.72,0.0195758,0.0192583,-0.100256,3,-0.00748586,10,-1.93076e-06,-3.99889,-2.72746,-0.0216319,0.0845134,0.0192583,
2,0,0,1,0,4862.21,0.0180776,0.0177419,-0.0997876,3,-0.00765963,10,-1.77043e-06,-4.00092,-7.84882,-0.00751705,0.029456,0.0177419,
2,0,0,1,0,4863.71,0.0165794,0.016269,-0.100418,3,-0.00783364,10,-1.63371e-06,-3.99819,-2.94461,-0.0200366,0.0784896,0.016269,
2,0,0,1,0,4865.21,0.0150812,0.0147844,-0.101235,3,-0.00800829,10,-1.49669e-06,-3.99467,-1.32203,-0.0446282,0.175419,0.0147844,
2,0,0,1,0,4866.71,0.013583,0.0132457,-0.100938,3,-0.00818347,10,-1.33699e-06,-3.99595,-1.10374,-0.0534547,0.210675,0.0132457,
2,0,0,1,0,4868.21,0.0120848,0.0117665,-0.100754,3,-0.00835885,10,-1.18551e-06,-3.99674,-1.4621,-0.0403528,0.159997,0.01176647,
2,0,0,1,0,4869.7,0.0105866,0.0102671,-0.102178,3,-0.0085343,10,-1.04907e-06,-3.99064,-1.21053,-0.0487389,0.193517,0.0102671,
2,0,0,1,0,4871.2,0.00908843,0.00874643,-0.102031,3,-0.00871076,10,-8.9241e-07,-3.99127,-0.714667,-0.0825559,0.329396,0.00874643,
2,0,0,1,0,4872.7,0.00759024,0.00728835,-0.102639,3,-0.0088878,10,-7.48071e-07,-3.98869,-1.41883,-0.0415835,0.166699,0.007288354,
2,0,0,1,0,4874.2,0.00609203,0.00580906,-0.103294,3,-0.0090654,10,-6.00038e-07,-3.98593,-0.506136,-0.116569,0.47005,0.005809057,
2,0,0,1,0,4875.7,0.00459384,0.00427678,-0.104302,3,-0.00924396,10,-4.46075e-07,-3.98171,-0.368777,-0.159988,0.648554,0.00427678,
2,0,0,1,0,4877.2,0.00309563,0.0027477,-0.105139,3,-0.00942413,10,-2.88892e-07,-3.97823,-0.372545,-0.15837,0.650592,0.0027477,
2,0,0,1,0,4878.69,0.00159744,0.00119099,-0.106352,3,-0.00960794,10,-1.26664e-07,-3.97326, , , ,0.00119099,
2,0,0,1,0,4880.09,0.000199235,-0.000206971,-0.106879,3,-0.00977846,10,2.21209e-08,-3.97111, , , ,-0.000206971,