File: Figure_codes/Fig_3-5/rawdata_trumpetplot_data/after 10th/20221101_1-115_003_TrumpetPlot_ParaChange_from10_every3_06_CV_C01_2.csv
mode,ox/red,error,control changes,counter inc.,time/s,control/V,Ewe/V,<I>/mA,cycle number,(Q-Qo)/C,I Range,P/W,log(|I|),Tafel slope mV/dec,alpha_eff,dI/d(E-IR),E-IR/V,
2,0,0,0,0,5090.28,2.44065e-05,-0.000287149,-1.40199,3,0.0000000E+000,10,4.02579e-07,-2.85326, , , ,-0.0002871489,
2,0,0,1,0,5090.31,0.00129787,0.000977897,0.104308,3,-1.4969e-05,10,1.02003e-07,-3.98168, , , ,0.0009778972,
2,1,0,1,0,5090.35,0.00279427,0.00251869,0.853801,3,5.35544e-06,10,2.15046e-06,-3.06864,0.00685228,8.61028,383.615,0.00251869,
2,1,0,1,0,5090.39,0.00429425,0.00400247,1.15498,3,4.42426e-05,10,4.62279e-06,-2.93742,0.0132455,4.45436,168.298,0.00400247,
2,1,0,1,0,5090.42,0.00579422,0.00551523,1.3118,3,9.15089e-05,10,7.23486e-06,-2.88213,0.0302967,1.9474,95.0761,0.00551523,
2,1,0,1,0,5090.46,0.00729063,0.00700148,1.4202,3,0.000143405,10,9.94351e-06,-2.84765,0.0522894,1.12834,61.3893,0.00700148,
2,1,0,1,0,5090.5,0.00878703,0.00848535,1.49457,3,0.000198736,10,1.2682e-05,-2.82548,0.0765935,0.7703,44.594,0.008485347,
2,1,0,1,0,5090.54,0.010287,0.00998551,1.55622,3,0.000256744,10,1.55396e-05,-2.80793,0.0993173,0.594056,35.9086,0.00998551,
2,1,0,1,0,5090.57,0.011787,0.0114962,1.60299,3,0.000316729,10,1.84283e-05,-2.79507,0.11953,0.4936,30.8502,0.0114962,
2,1,0,1,0,5090.61,0.0132825,0.0129717,1.65324,3,0.000378246,10,2.14453e-05,-2.78167,0.123359,0.478279,30.8227,0.0129717,
2,1,0,1,0,5090.65,0.014778,0.0144731,1.69568,3,0.000441405,10,2.45418e-05,-2.77066,0.142294,0.414635,27.3197,0.0144731,
2,1,0,1,0,5090.69,0.0162816,0.0159741,1.73592,3,0.000506611,10,2.77297e-05,-2.76047,0.16107,0.3663,24.632,0.0159741,
2,1,0,1,0,5090.72,0.017778,0.0174559,1.77171,3,0.00057283,10,3.09268e-05,-2.75161,0.178438,0.330647,22.807,0.0174559,
2,1,0,1,0,5090.76,0.0192744,0.0189658,1.79615,3,0.000640154,10,3.40655e-05,-2.74566,0.184486,0.319808,22.5224,0.01896582,
2,1,0,1,0,5090.8,0.0207743,0.0204413,1.83386,3,0.000709005,10,3.74865e-05,-2.73663,0.176811,0.33369,23.9514,0.0204413,
2,1,0,1,0,5090.84,0.0222743,0.0219837,1.86947,3,0.000779254,10,4.10978e-05,-2.72828,0.183487,0.321548,23.5172,0.0219837,
2,1,0,1,0,5090.87,0.0237707,0.023476,1.90705,3,0.000850628,10,4.477e-05,-2.71964,0.207751,0.283993,21.1183,0.023476,
2,1,0,1,0,5090.91,0.0252671,0.0249843,1.9364,3,0.000923132,10,4.83796e-05,-2.71301,0.196243,0.300648,22.7523,0.0249843,
2,1,0,1,0,5090.95,0.0267671,0.0264776,1.97518,3,0.000997079,10,5.2298e-05,-2.70439,0.179156,0.329321,25.3327,0.02647762,
2,1,0,1,0,5090.99,0.0282671,0.0279588,2.01641,3,0.00107241,10,5.63764e-05,-2.69542,0.186563,0.316247,24.7691,0.02795884,
2,1,0,1,0,5091.02,0.0297626,0.0294574,2.047,3,0.00114891,10,6.02992e-05,-2.68888,0.214694,0.27481,21.8954,0.02945737,
2,1,0,1,0,5091.06,0.0312581,0.0309508,2.07009,3,0.00122666,10,6.40709e-05,-2.68401,0.21444,0.275135,22.308,0.0309508,
2,1,0,1,0,5091.1,0.0327616,0.0324496,2.10771,3,0.001306,10,6.83945e-05,-2.67619,0.191149,0.308659,25.4668,0.0324496,
2,1,0,1,0,5091.13,0.034258,0.0339352,2.14689,3,0.00138633,10,7.28553e-05,-2.66819,0.199168,0.296233,24.8779,0.0339352,
2,1,0,1,0,5091.17,0.0357545,0.0353978,2.18588,3,0.00146813,10,7.73754e-05,-2.66037,0.22182,0.265982,22.6885,0.0353978,
2,1,0,1,0,5091.21,0.0372544,0.0369602,2.2274,3,0.00155148,10,8.23253e-05,-2.6522,0.205132,0.28762,24.9357,0.03696024,
2,1,0,1,0,5091.25,0.0387544,0.0384541,2.26068,3,0.00163611,10,8.69325e-05,-2.64576,0.198026,0.29794,26.2657,0.0384541,
2,1,0,1,0,5091.28,0.0402508,0.0399487,2.30156,3,0.00172199,10,9.19445e-05,-2.63798,0.198438,0.297321,26.6589,0.0399487,
2,1,0,1,0,5091.32,0.0417472,0.0414072,2.34144,3,0.00180947,10,9.69525e-05,-2.63052,0.211596,0.278834,25.4225,0.04140722,
2,1,0,1,0,5091.36,0.0432472,0.0429902,2.37939,3,0.00189862,10,0.00010229,-2.62353,0.22082,0.267186,24.8115,0.0429902,
2,1,0,1,0,5091.4,0.0447472,0.0444537,2.41164,3,0.00198904,10,0.000107206,-2.61769,0.214641,0.274878,25.9376,0.0444537,
2,1,0,1,0,5091.43,0.0462427,0.0459534,2.4501,3,0.00208066,10,0.000112591,-2.61082,0.202154,0.291857,27.9386,0.0459534,
2,1,0,1,0,5091.47,0.0477382,0.0474594,2.49184,3,0.00217379,10,0.000118261,-2.60348,0.220741,0.267281,25.9583,0.0474594,
2,1,0,1,0,5091.51,0.0492417,0.0489404,2.5301,3,0.0022689,10,0.000123824,-2.59686,0.238917,0.246948,24.3381,0.0489404,
2,1,0,1,0,5091.55,0.0507381,0.0504275,2.5631,3,0.00236481,10,0.000129251,-2.59123,0.239678,0.246163,24.6486,0.0504275,
2,1,0,1,0,5091.58,0.0522345,0.0519248,2.60179,3,0.00246209,10,0.000135097,-2.58473,0.214187,0.27546,27.9951,0.0519248,
2,1,0,1,0,5091.62,0.0537345,0.0534004,2.64988,3,0.00256117,10,0.000141505,-2.57677,0.236076,0.24992,25.7773,0.0534004,
2,1,0,1,0,5091.66,0.0552345,0.0549461,2.6801,3,0.00266181,10,0.000147261,-2.57185,0.261379,0.225726,23.6208,0.0549461,
2,1,0,1,0,5091.7,0.0567309,0.0564029,2.71089,3,0.00276346,10,0.000152902,-2.56689,0.265192,0.22248,23.64,0.0564029,
2,1,0,1,0,5091.73,0.0582273,0.0579445,2.75259,3,0.0028664,10,0.000159497,-2.56026,0.264777,0.222829,23.966,0.0579445,
2,1,0,1,0,5091.77,0.0597309,0.0594026,2.79401,3,0.00297137,10,0.000165972,-2.55377,0.255934,0.230528,25.1066,0.0594026,
2,1,0,1,0,5091.81,0.0612264,0.0609376,2.83119,3,0.00307718,10,0.000172526,-2.54803,0.289576,0.203746,22.4549,0.0609376,
2,1,0,1,0,5091.85,0.0627219,0.062436,2.86693,3,0.00318436,10,0.000179,-2.54258,0.293175,0.201245,22.4658,0.062436,
2,1,0,1,0,5091.88,0.0642218,0.0639378,2.89728,3,0.00329293,10,0.000185246,-2.53801,0.311257,0.189554,21.4536,0.06393782,
2,1,0,1,0,5091.92,0.0657218,0.0653823,2.93077,3,0.0034029,10,0.00019162,-2.53302,0.282666,0.208727,23.8743,0.0653823,
2,1,0,1,0,5091.96,0.0672182,0.0669312,2.96924,3,0.00351396,10,0.000198735,-2.52736,0.297078,0.198601,23.001,0.0669312,
2,1,0,1,0,5092,0.0687146,0.0684028,2.99627,3,0.00362627,10,0.000204953,-2.52342,0.339404,0.173834,20.3612,0.0684028,
2,1,0,1,0,5092.03,0.0702146,0.0698802,3.02474,3,0.00373992,10,0.000211369,-2.51931,0.331184,0.178148,21.0907,0.0698802,
2,1,0,1,0,5092.07,0.0717146,0.0714021,3.06662,3,0.0038548,10,0.000218963,-2.51334,0.301278,0.195833,23.4221,0.0714021,
2,1,0,1,0,5092.11,0.073211,0.0728993,3.10738,3,0.00397072,10,0.000226526,-2.50761,0.313492,0.188202,22.7166,0.0728993,
2,1,0,1,0,5092.15,0.0747074,0.074395,3.13493,3,0.00408792,10,0.000233223,-2.50377,0.37704,0.156482,19.0778,0.074395,
2,1,0,1,0,5092.18,0.0762109,0.0759006,3.15758,3,0.00420682,10,0.000239662,-2.50065,0.369166,0.15982,19.692,0.0759006,
2,1,0,1,0,5092.22,0.0777064,0.077393,3.18909,3,0.00432614,10,0.000246813,-2.49633,0.357499,0.165035,20.5483,0.077393,
2,1,0,1,0,5092.26,0.079202,0.0789066,3.21989,3,0.00444663,10,0.000254071,-2.49216,0.35851,0.16457,20.6941,0.07890664,
2,1,0,1,0,5092.3,0.0807019,0.0803934,3.24465,3,0.00456861,10,0.000260848,-2.48883,0.375047,0.157314,19.953,0.0803934,
2,1,0,1,0,5092.33,0.0822019,0.0819127,3.27881,3,0.00469172,10,0.000268576,-2.48428,0.409057,0.144234,18.4494,0.0819127,
2,1,0,1,0,5092.37,0.0836983,0.0834249,3.30967,3,0.00481548,10,0.000276109,-2.48021,0.39273,0.15023,19.4065,0.0834249,
2,1,0,1,0,5092.41,0.0851947,0.0849244,3.34145,3,0.00494044,10,0.000283771,-2.47606,0.389428,0.151504,19.7106,0.0849244,
2,1,0,1,0,5092.45,0.0866947,0.0863492,3.37534,3,0.00506698,10,0.000291458,-2.47168,0.397327,0.148492,19.501,0.0863492,
2,1,0,1,0,5092.48,0.0881947,0.0878712,3.40217,3,0.00519458,10,0.000298953,-2.46824,0.426676,0.138278,18.3631,0.0878712,
2,1,0,1,0,5092.52,0.0896911,0.0893835,3.42793,3,0.00532291,10,0.000306401,-2.46497,0.365811,0.161286,21.6364,0.0893835,
2,1,0,1,0,5092.56,0.0911875,0.0908681,3.46404,3,0.00545247,10,0.000314771,-2.46042,0.310777,0.189847,25.7187,0.0908681,
2,1,0,1,0,5092.6,0.0926901,0.0923881,3.50207,3,0.00558418,10,0.000323549,-2.45568,0.296294,0.199126,27.2633,0.0923881,
2,1,0,1,0,5092.63,0.0941856,0.0938972,3.54484,3,0.00571669,10,0.00033285,-2.4504,0.304991,0.193448,26.7607,0.0938972,
2,1,0,1,0,5092.67,0.0956821,0.0953495,3.57915,3,0.0058506,10,0.00034127,-2.44622,0.278831,0.211598,29.6232,0.0953495,
2,1,0,1,0,5092.71,0.097182,0.0968501,3.63177,3,0.00598646,10,0.000351737,-2.43988,0.249767,0.23622,33.4666,0.0968501,
2,1,0,1,0,5092.75,0.098682,0.0983655,3.68537,3,0.00612421,10,0.000362513,-2.43352,0.238427,0.247456,35.555,0.0983655,
2,1,0,1,0,5092.78,0.100178,0.0999105,3.73486,3,0.00626361,10,0.000373151,-2.42773,0.231532,0.254824,37.1564,0.09991052,
2,1,0,1,0,5092.82,0.101675,0.101343,3.78676,3,0.00640504,10,0.000383761,-2.42173,0.229993,0.256529,37.9975,0.101343,
2,1,0,1,0,5092.86,0.103175,0.102892,3.8541,3,0.00654898,10,0.000396555,-2.41408,0.204875,0.287981,43.3952,0.102892,
2,1,0,1,0,5092.9,0.104675,0.104378,3.91783,3,0.00669536,10,0.000408936,-2.40695,0.197644,0.298516,45.7077,0.104378,
2,1,0,1,0,5092.93,0.106171,0.105871,3.98806,3,0.00684395,10,0.000422221,-2.39924,0.202594,0.291223,45.2654,0.105871,
2,1,0,1,0,5092.97,0.107667,0.107351,4.05772,3,0.00699502,10,0.000435601,-2.39172,0.207159,0.284805,45.0677,0.107351,
2,1,0,1,0,5093.01,0.10917,0.108878,4.12258,3,0.00714936,10,0.000448856,-2.38483,0.1999,0.295148,47.5006,0.108878,
2,1,0,1,0,5093.05,0.110666,0.110353,4.19538,3,0.0073056,10,0.000462974,-2.37723,0.199673,0.295483,48.354,0.1103535,
2,1,0,1,0,5093.08,0.112162,0.111871,4.26386,3,0.00746454,10,0.000477001,-2.3702,0.21267,0.277425,46.1421,0.111871,
2,1,0,1,0,5093.12,0.113662,0.113326,4.33656,3,0.00762657,10,0.000491447,-2.36285,0.227223,0.259656,43.9166,0.113326,
2,1,0,1,0,5093.16,0.115162,0.114817,4.39501,3,0.00779095,10,0.000504621,-2.35704,0.238133,0.247761,42.5725,0.114817,
2,1,0,1,0,5093.19,0.116658,0.116335,4.46158,3,0.00795743,10,0.000519039,-2.35051,0.241404,0.244404,42.5804,0.116335,
2,1,0,1,0,5093.23,0.118155,0.117857,4.53293,3,0.00812638,10,0.000534235,-2.34362,0.263576,0.223845,39.5483,0.117857,
2,1,0,1,0,5093.27,0.119655,0.119367,4.59001,3,0.00829809,10,0.000547896,-2.33819,0.293064,0.201321,36.0134,0.119367,
2,1,0,1,0,5093.31,0.121155,0.120823,4.64123,3,0.0084718,10,0.000560766,-2.33337,0.300965,0.196036,35.4993,0.120823,
2,1,0,1,0,5093.34,0.122651,0.122339,4.69634,3,0.00864697,10,0.000574545,-2.32824,0.30762,0.191795,35.0984,0.122339,
2,1,0,1,0,5093.38,0.124147,0.123866,4.74735,3,0.0088241,10,0.000588036,-2.32355,0.318252,0.185388,34.2953,0.123866,
2,1,0,1,0,5093.42,0.12565,0.125302,4.78829,3,0.0090041,10,0.000599982,-2.31982,0.36612,0.161149,30.1138,0.125302,
2,1,0,1,0,5093.46,0.127146,0.126861,4.82491,3,0.0091848,10,0.000612093,-2.31651,0.374038,0.157738,29.7854,0.126861,
2,1,0,1,0,5093.49,0.128642,0.128305,4.87696,3,0.00936701,10,0.000625738,-2.31185,0.370532,0.159231,30.3485,0.128305,
2,1,0,1,0,5093.53,0.130142,0.129816,4.92685,3,0.00955152,10,0.000639586,-2.30743,0.390516,0.151082,29.012,0.129816,
2,1,0,1,0,5093.57,0.131642,0.131352,4.9716,3,0.00973776,10,0.000653031,-2.3035,0.434672,0.135734,26.2791,0.131352,
2,1,0,1,0,5093.61,0.133139,0.132867,5.01191,3,0.00992502,10,0.000665919,-2.3,0.465648,0.126705,24.744,0.132867,
2,1,0,1,0,5093.64,0.134635,0.134319,5.04634,3,0.0101136,10,0.000677819,-2.29702,0.477647,0.123522,24.3204,0.134319,
2,1,0,1,0,5093.68,0.136135,0.135787,5.08294,3,0.0103042,10,0.000690198,-2.29388,0.522969,0.112817,22.3534,0.135787,
2,1,0,1,0,5093.72,0.137635,0.137319,5.10797,3,0.0104959,10,0.000701422,-2.29175,0.709056,0.0832092,16.5787,0.137319,
2,1,0,1,0,5093.76,0.13913,0.138796,5.13249,3,0.0106882,10,0.000712367,-2.28967,1.30582,0.0451824,9.03022,0.138796,
2,1,0,1,0,5093.79,0.140626,0.140317,5.1345,3,0.0108808,10,0.00072046,-2.2895,-8.75441,-0.00673946,-1.34808,0.140317,
2,1,0,1,0,5093.83,0.14213,0.14181,5.12749,3,0.0110745,10,0.00072713,-2.29009,-1.39774,-0.042211,-8.42167,0.14181,
2,1,0,1,0,5093.87,0.143626,0.143256,5.10776,3,0.0112666,10,0.000731717,-2.29177,-0.58668,-0.100566,-19.9568,0.143256,
2,1,0,1,0,5093.91,0.145122,0.144785,5.06688,3,0.0114576,10,0.000733609,-2.29526,-0.293797,-0.200819,-39.4754,0.144785,
2,1,0,1,0,5093.94,0.146622,0.146344,4.99142,3,0.0116468,10,0.000730462,-2.30178,-0.204831,-0.288043,-55.889,0.146344,
2,1,0,1,0,5093.98,0.148122,0.147799,4.89789,3,0.0118329,10,0.000723905,-2.30999,-0.165592,-0.356298,-67.8059,0.147799,
2,1,0,1,0,5094.02,0.149619,0.149331,4.7819,3,0.0120147,10,0.000714088,-2.3204,-0.127366,-0.463232,-86.1322,0.149331,
2,1,0,1,0,5094.06,0.151115,0.150805,4.64245,3,0.0121917,10,0.000700104,-2.33325,-0.103808,-0.568358,-102.51,0.150805,
2,1,0,1,0,5094.09,0.152615,0.152326,4.47602,3,0.0123635,10,0.000681815,-2.34911,-0.0909901,-0.648422,-113.025,0.152326,
2,1,0,1,0,5094.13,0.154115,0.153821,4.30593,3,0.0125288,10,0.000662344,-2.36593,-0.0821257,-0.718411,-120.46,0.1538213,
2,1,0,1,0,5094.17,0.155611,0.15529,4.12675,3,0.012687,10,0.000640843,-2.38439,-0.079126,-0.745646,-119.69,0.15529,
2,1,0,1,0,5094.21,0.157106,0.156816,3.94399,3,0.0128385,10,0.000618479,-2.40406,-0.0735082,-0.802631,-123.243,0.156816,
2,1,0,1,0,5094.24,0.15861,0.158274,3.76102,3,0.0129839,10,0.000595272,-2.42469,-0.072548,-0.813254,-119.343,0.158274,
2,1,0,1,0,5094.28,0.160106,0.159807,3.57825,3,0.0131217,10,0.00057183,-2.44633,-0.0755758,-0.780673,-109.526,0.159807,
2,1,0,1,0,5094.32,0.161602,0.16129,3.42542,3,0.0132534,10,0.000552485,-2.46529,-0.077657,-0.759751,-101.853,0.16129,
2,1,0,1,0,5094.36,0.163102,0.16277,3.28061,3,0.0133797,10,0.000533984,-2.48404,-0.0797925,-0.739418,-94.9594,0.1627696,
2,1,0,1,0,5094.39,0.164602,0.164307,3.14965,3,0.0135009,10,0.00051751,-2.50174,-0.0857544,-0.688011,-84.8045,0.164307,
2,1,0,1,0,5094.43,0.166099,0.165756,3.02661,3,0.0136169,10,0.00050168,-2.51904,-0.0919181,-0.641876,-76.069,0.165756,
2,1,0,1,0,5094.47,0.167595,0.167267,2.92803,3,0.0137288,10,0.000489762,-2.53342,-0.101556,-0.580958,-66.297,0.167267,
2,1,0,1,0,5094.51,0.169095,0.168777,2.82952,3,0.0138373,10,0.000477559,-2.54829,-0.107754,-0.547544,-60.4665,0.168777,
2,1,0,1,0,5094.54,0.170595,0.170338,2.74148,3,0.0139423,10,0.000466977,-2.56202,-0.11046,-0.53413,-57.2414,0.170338,
2,1,0,1,0,5094.58,0.172091,0.171772,2.65071,3,0.0140439,10,0.000455316,-2.57664,-0.116337,-0.507146,-52.7872,0.171772,
2,1,0,1,0,5094.62,0.173586,0.173243,2.58489,3,0.0141425,10,0.000447814,-2.58756,-0.132715,-0.444563,-45.0462,0.173243,
2,1,0,1,0,5094.66,0.17509,0.174762,2.52046,3,0.0142392,10,0.000440481,-2.59852,-0.13942,-0.423181,-41.734,0.174762,
2,1,0,1,0,5094.69,0.176586,0.17629,2.46256,3,0.0143331,10,0.000434125,-2.60861,-0.145199,-0.406339,-39.0609,0.1762903,
2,1,0,1,0,5094.73,0.178083,0.177812,2.40607,3,0.0144248,10,0.000427827,-2.61869,-0.152377,-0.387198,-36.4124,0.177812,
2,1,0,1,0,5094.77,0.179582,0.179251,2.35828,3,0.0145147,10,0.000422725,-2.6274,-0.164597,-0.35845,-33.0111,0.179251,
2,1,0,1,0,5094.81,0.181082,0.180808,2.3154,3,0.0146029,10,0.000418644,-2.63537,-0.185071,-0.318797,-28.7766,0.1808082,
2,1,0,1,0,5094.84,0.182579,0.18232,2.273,3,0.0146893,10,0.000414413,-2.6434,-0.186118,-0.317004,-28.1239,0.18232,
2,1,0,1,0,5094.88,0.184075,0.183814,2.23328,3,0.0147741,10,0.000410508,-2.65106,-0.199014,-0.296461,-25.8706,0.1838136,
2,1,0,1,0,5094.92,0.185579,0.185296,2.19099,3,0.0148579,10,0.000405982,-2.65936,-0.233577,-0.252593,-21.6858,0.1852956,
2,1,0,1,0,5094.96,0.187074,0.186751,2.15805,3,0.01494,10,0.000403017,-2.66594,-0.250254,-0.23576,-19.9087,0.186751,
2,1,0,1,0,5094.99,0.18857,0.188247,2.13306,3,0.015021,10,0.000401542,-2.671,-0.265392,-0.222313,-18.5331,0.188247,
2,1,0,1,0,5095.03,0.19007,0.189734,2.10843,3,0.0151011,10,0.000400041,-2.67604,-0.275712,-0.213991,-17.5918,0.189734,
2,1,0,1,0,5095.07,0.19157,0.191254,2.08196,3,0.0151802,10,0.000398183,-2.68153,-0.305981,-0.192822,-15.6447,0.191254,
2,1,0,1,0,5095.11,0.193066,0.192747,2.05428,3,0.0152582,10,0.000395957,-2.68734,-0.365545,-0.161403,-12.9694,0.1927475,
2,1,0,1,0,5095.14,0.194563,0.194261,2.03779,3,0.0153355,10,0.000395861,-2.69084,-0.383807,-0.153723,-12.2413,0.194261,
2,1,0,1,0,5095.18,0.196063,0.195763,2.01836,3,0.0154123,10,0.00039512,-2.695,-0.35497,-0.166211,-13.1182,0.195763,
2,1,0,1,0,5095.22,0.197563,0.197265,1.99371,3,0.0154883,10,0.00039329,-2.70034,-0.424664,-0.138933,-10.8643,0.197265,
2,1,0,1,0,5095.25,0.199059,0.19875,1.98346,3,0.0155634,10,0.000394212,-2.70258,-0.455226,-0.129606,-10.0661,0.19875,
2,1,0,1,0,5095.29,0.200555,0.200206,1.96865,3,0.0156379,10,0.000394136,-2.70583,-0.447898,-0.131726,-10.1176,0.200206,
2,1,0,1,0,5095.33,0.202059,0.201755,1.96187,3,0.0157124,10,0.000395816,-2.70733,-0.465618,-0.126713,-9.64411,0.201755,
2,1,0,1,0,5095.37,0.203554,0.203258,1.94337,3,0.0157859,10,0.000395006,-2.71144,-0.524763,-0.112432,-8.5164,0.203258,
2,1,0,1,0,5095.4,0.20505,0.204738,1.93005,3,0.0158589,10,0.000395154,-2.71443,-0.88412,-0.066733,-5.04115,0.204738,
2,1,0,1,0,5095.44,0.20655,0.206247,1.91716,3,0.0159317,10,0.000395407,-2.71734,-0.61113,-0.0965425,-7.23432,0.206247,
2,1,0,1,0,5095.48,0.20805,0.207722,1.90894,3,0.0160044,10,0.00039653,-2.71921,-0.636043,-0.092761,-6.90977,0.207722,
2,1,0,1,0,5095.52,0.209546,0.209251,1.89609,3,0.0160763,10,0.00039676,-2.72214,-0.606009,-0.0973584,-7.23754,0.209251,
2,1,0,1,0,5095.55,0.211043,0.210781,1.8857,3,0.0161476,10,0.00039747,-2.72453,-0.569949,-0.103518,-7.64566,0.210781,
2,1,0,1,0,5095.59,0.212543,0.212252,1.87741,3,0.016219,10,0.000398484,-2.72644,-0.734681,-0.080307,-5.88254,0.212252,
2,1,0,1,0,5095.63,0.214043,0.213698,1.87246,3,0.01629,10,0.00040014,-2.72759,-0.77377,-0.07625,-5.5651,0.213698,
2,1,0,1,0,5095.67,0.215539,0.215261,1.86797,3,0.0163604,10,0.000402101,-2.72863,-0.638624,-0.0923861,-6.70748,0.215261,
2,1,0,1,0,5095.7,0.217035,0.21673,1.85528,3,0.0164306,10,0.000402095,-2.73159,-1.02701,-0.0574486,-4.16391,0.21673,
2,1,0,1,0,5095.74,0.218538,0.218283,1.84465,3,0.0165008,10,0.000402657,-2.73409,-1.74125,-0.0338836,-2.44337,0.218283,
2,1,0,1,0,5095.78,0.220034,0.21975,1.84103,3,0.0165705,10,0.000404566,-2.73494,-1.15525,-0.0510712,-3.67887,0.21975,
2,1,0,1,0,5095.82,0.22153,0.221279,1.83363,3,0.01664,10,0.000405744,-2.73669,-0.737388,-0.0800122,-5.737,0.221279,
2,1,0,1,0,5095.85,0.22303,0.222689,1.82403,3,0.0167093,10,0.00040619,-2.73897,-0.776958,-0.0759372,-5.41894,0.222689,
2,1,0,1,0,5095.89,0.22453,0.224244,1.82019,3,0.0167783,10,0.000408168,-2.73988,-1.10504,-0.0533915,-3.79227,0.224244,
2,1,0,1,0,5095.93,0.226026,0.225742,1.81866,3,0.016847,10,0.000410548,-2.74025,-1.10462,-0.053412,-3.77782,0.2257423,
2,1,0,1,0,5095.97,0.227523,0.227237,1.81366,3,0.0169154,10,0.000412132,-2.74144,-0.768291,-0.0767938,-5.4168,0.227237,
2,1,0,1,0,5096,0.229023,0.228725,1.80724,3,0.0169839,10,0.000413361,-2.74299,-0.969414,-0.0608615,-4.28613,0.2287253,
2,1,0,1,0,5096.04,0.230523,0.230201,1.79912,3,0.017052,10,0.00041416,-2.74494,-1.51422,-0.0389641,-2.7428,0.230201,
2,1,0,1,0,5096.08,0.232019,0.231767,1.79111,3,0.0171199,10,0.000415121,-2.74688,-1.15689,-0.0509988,-3.57761,0.231767,
2,1,0,1,0,5096.12,0.233515,0.23325,1.78894,3,0.0171876,10,0.000417271,-2.7474,-1.4277,-0.0413251,-2.89207,0.23325,
2,1,0,1,0,5096.15,0.235018,0.234726,1.7857,3,0.0172555,10,0.000419151,-2.74819,-1.45403,-0.040577,-2.82824,0.234726,
2,1,0,1,0,5096.19,0.236514,0.236235,1.77668,3,0.0173227,10,0.000419714,-2.75039,-1.19258,-0.0494726,-3.43604,0.236235,
2,1,0,1,0,5096.23,0.23801,0.23771,1.77601,3,0.0173898,10,0.000422175,-2.75055,-3.55734,-0.0165854,-1.14788,0.23771,
2,1,0,1,0,5096.27,0.23951,0.23927,1.77611,3,0.017457,10,0.000424969,-2.75053,-1.4807,-0.0398461,-2.75038,0.23927,
2,1,0,1,0,5096.3,0.24101,0.240718,1.76772,3,0.017524,10,0.000425522,-2.75259,-1.12609,-0.0523935,-3.61174,0.240718,
2,1,0,1,0,5096.34,0.242506,0.242193,1.75774,3,0.0175906,10,0.000425713,-2.75504,-1.66219,-0.0354953,-2.44652,0.242193,
2,1,0,1,0,5096.38,0.244003,0.243703,1.75428,3,0.017657,10,0.000427522,-2.7559,-2.15422,-0.0273881,-1.88153,0.243703,
2,1,0,1,0,5096.42,0.245503,0.245262,1.75767,3,0.0177236,10,0.00043109,-2.75506,-1.26012,-0.0468209,-3.21139,0.245262,
2,1,0,1,0,5096.45,0.247003,0.246661,1.74935,3,0.01779,10,0.000431495,-2.75712,-1.2426,-0.047481,-3.24172,0.246661,
2,1,0,1,0,5096.49,0.248499,0.248215,1.74417,3,0.017856,10,0.00043293,-2.75841,-2.2846,-0.0258251,-1.75724,0.248215,
2,1,0,1,0,5096.53,0.249995,0.249695,1.74597,3,0.0179218,10,0.00043596,-2.75796,-1.80389,-0.0327071,-2.21756,0.249695,
2,1,0,1,0,5096.57,0.251498,0.251199,1.74098,3,0.0179879,10,0.000437332,-2.75921,-2.11309,-0.0279212,-1.89001,0.251199,
2,1,0,1,0,5096.6,0.252994,0.252641,1.73528,3,0.0180535,10,0.000438404,-2.76063,-1.32291,-0.0445985,-3.01197,0.252641,
2,1,0,1,0,5096.64,0.25449,0.254206,1.72867,3,0.018119,10,0.000439438,-2.76229,-1.25574,-0.0469841,-3.17668,0.254206,
2,1,0,1,0,5096.68,0.25599,0.25572,1.72559,3,0.0181844,10,0.000441269,-2.76306,-2.26712,-0.0260242,-1.75818,0.25572,
2,1,0,1,0,5096.72,0.25749,0.257207,1.71959,3,0.0182497,10,0.000442289,-2.76458,-2.19953,-0.0268239,-1.80659,0.257207,
2,1,0,1,0,5096.75,0.258987,0.258704,1.71943,3,0.0183148,10,0.000444822,-2.76462,-0.966288,-0.0610584,-4.09712,0.258704,
2,1,0,1,0,5096.79,0.260483,0.260177,1.72153,3,0.0183798,10,0.000447901,-2.76409,-0.708979,-0.0832183,-5.5678,0.260177,
2,1,0,1,0,5096.83,0.261983,0.261715,1.71499,3,0.0184447,10,0.000448839,-2.76574,-1.3985,-0.0421881,-2.81783,0.261715,
2,1,0,1,0,5096.87,0.263483,0.263206,1.70979,3,0.0185094,10,0.000450028,-2.76706,15.854,0.00372146,0.247721,0.263206,
2,1,0,1,0,5096.9,0.264978,0.264684,1.70657,3,0.018574,10,0.000451703,-2.76787,-1.60653,-0.0367252,-2.44556,0.264684,
2,1,0,1,0,5096.94,0.266474,0.266167,1.69948,3,0.0186384,10,0.000452346,-2.76968,-1.48379,-0.039763,-2.64272,0.266167,
2,1,0,1,0,5096.98,0.267977,0.267708,1.69113,3,0.0187029,10,0.000452729,-2.77182,-2.09628,-0.0281451,-1.86678,0.267708,
2,1,0,1,0,5097.02,0.269474,0.269186,1.69072,3,0.018767,10,0.000455118,-2.77193,-3.21873,-0.0183302,-1.21502,0.269186,
2,1,0,1,0,5097.05,0.27097,0.270686,1.69464,3,0.0188309,10,0.000458715,-2.77092,-1.85826,-0.0317502,-2.09327,0.270686,
2,1,0,1,0,5097.09,0.27247,0.272174,1.6902,3,0.018895,10,0.000460027,-2.77206,-0.896326,-0.0658243,-4.32098,0.272174,
2,1,0,1,0,5097.13,0.27397,0.273677,1.68449,3,0.0189589,10,0.000461007,-2.77353,-1.37193,-0.0430051,-2.82037,0.273677,
2,1,0,1,0,5097.17,0.275467,0.275186,1.67899,3,0.0190223,10,0.000462034,-2.77495,-1.33264,-0.0442729,-2.9024,0.275186,
2,1,0,1,0,5097.2,0.276963,0.276666,1.67859,3,0.0190857,10,0.000464408,-2.77506,-1.46518,-0.0402681,-2.63265,0.276666,
2,1,0,1,0,5097.24,0.278463,0.278181,1.67426,3,0.0191492,10,0.000465748,-2.77618,-0.939416,-0.062805,-4.10174,0.2781809,
2,1,0,1,0,5097.28,0.279963,0.279658,1.66885,3,0.0192125,10,0.000466707,-2.77758,-1.68769,-0.034959,-2.28237,0.279658,
2,1,0,1,0,5097.31,0.281459,0.281137,1.66242,3,0.0192754,10,0.000467369,-2.77926,-2.11483,-0.0278982,-1.81736,0.281137,
2,1,0,1,0,5097.35,0.282954,0.282676,1.66571,3,0.0193382,10,0.000470856,-2.7784,-52.5471,-0.0011228,-0.0727217,0.282676,
2,1,0,1,0,5097.39,0.284458,0.284162,1.66233,3,0.0194014,10,0.000472373,-2.77928,-1.43939,-0.0409895,-2.64786,0.284162,
2,1,0,1,0,5097.43,0.285954,0.285663,1.6578,3,0.019464,10,0.000473571,-2.78047,-1.79731,-0.0328268,-2.11524,0.285663,
2,1,0,1,0,5097.46,0.28745,0.287116,1.65135,3,0.0195264,10,0.000474129,-2.78216,-1.33984,-0.044035,-2.833,0.287116,
2,1,0,1,0,5097.5,0.28895,0.288632,1.64821,3,0.0195889,10,0.000475727,-2.78299,-10.3367,-0.00570781,-0.367181,0.288632,
2,1,0,1,0,5097.54,0.29045,0.290162,1.64031,3,0.0196513,10,0.000475955,-2.78507,-1.52856,-0.0385983,-2.48151,0.290162,
2,1,0,1,0,5097.58,0.291947,0.291673,1.63847,3,0.0197134,10,0.000477897,-2.78556,-1.61873,-0.0364484,-2.33885,0.291673,
2,1,0,1,0,5097.61,0.293443,0.293159,1.63287,3,0.0197752,10,0.000478691,-2.78705,-1.05411,-0.0559716,-3.57174,0.293159,
2,1,0,1,0,5097.65,0.294943,0.294666,1.63605,3,0.0198371,10,0.000482089,-2.7862,-2.18322,-0.0270244,-1.72355,0.2946665,
2,1,0,1,0,5097.69,0.296443,0.296146,1.63559,3,0.0198989,10,0.000484375,-2.78632,-4.20395,-0.0140344,-0.889302,0.296146,
2,1,0,1,0,5097.73,0.297939,0.297666,1.62762,3,0.0199605,10,0.000484487,-2.78845,-0.886403,-0.0665611,-4.20613,0.297666,
2,1,0,1,0,5097.76,0.299434,0.299148,1.62026,3,0.0200219,10,0.000484697,-2.79042,-0.0106874,-5.52051,-276.391,0.299148,
2,1,0,0,0,5097.78,0.299962,0.299823,1.51899,3,0.020046,10,0.000455428,-2.81845,0.00054009,109.241,2206.18,0.299823,
2,1,0,1,0,5097.81,0.298689,0.298435,0.113752,3,0.0200647,10,3.39475e-05,-3.94404,0.00463526,12.7285,579.217,0.2984347,
2,0,0,1,0,5097.85,0.297189,0.29692,-0.251049,3,0.0200599,10,-7.45415e-05,-3.60024,0.583222,0.101162,207.54,0.29692,
2,0,0,1,0,5097.89,0.295692,0.295388,-0.380083,3,0.020047,10,-0.000112272,-3.42012,-0.00984628,-5.99211,71.9028,0.295388,
2,0,0,1,0,5097.92,0.294196,0.293904,-0.451874,3,0.0200305,10,-0.000132808,-3.34498,-0.0232167,-2.54128,42.9547,0.293904,
2,0,0,1,0,5097.96,0.292696,0.292392,-0.503683,3,0.0200118,10,-0.000147273,-3.29784,-0.0346528,-1.7026,32.8776,0.292392,
2,0,0,1,0,5098,0.291196,0.290872,-0.552557,3,0.0199913,10,-0.000160723,-3.25762,-0.0429142,-1.37484,29.0581,0.290872,
2,0,0,1,0,5098.04,0.2897,0.289388,-0.596315,3,0.0199692,10,-0.000172566,-3.22452,-0.0560236,-1.05313,23.9398,0.289388,
2,0,0,1,0,5098.07,0.288205,0.287905,-0.625757,3,0.0199457,10,-0.000180159,-3.20359,-0.0655943,-0.899468,21.6177,0.287905,
2,0,0,1,0,5098.11,0.286701,0.286391,-0.649154,3,0.019921,10,-0.000185912,-3.18765,-0.0782864,-0.753644,19.101,0.286391,
2,0,0,1,0,5098.15,0.285205,0.284912,-0.673801,3,0.0198955,10,-0.000191974,-3.17147,-0.0859147,-0.686728,18.2743,0.284912,
2,0,0,1,0,5098.19,0.283708,0.283441,-0.700798,3,0.0198688,10,-0.000198635,-3.15441,-0.0938823,-0.628447,17.2969,0.283441,
2,0,0,1,0,5098.22,0.282208,0.281919,-0.728182,3,0.0198411,10,-0.000205288,-3.13776,-0.131615,-0.448278,12.6872,0.281919,
2,0,0,1,0,5098.26,0.280709,0.280417,-0.750692,3,0.0198127,10,-0.000210507,-3.12454,-0.132414,-0.445573,13.0093,0.280417,
2,0,0,1,0,5098.3,0.279212,0.278897,-0.771079,3,0.0197836,10,-0.000215051,-3.1129,-0.133837,-0.440836,13.1498,0.2788969,
2,0,0,1,0,5098.34,0.277716,0.277399,-0.790884,3,0.0197538,10,-0.00021939,-3.10189,-0.133485,-0.441996,13.5252,0.277399,
2,0,0,1,0,5098.37,0.276216,0.275962,-0.809281,3,0.0197231,10,-0.000223331,-3.0919,-0.147962,-0.398752,12.5918,0.275962,
2,0,0,1,0,5098.41,0.274716,0.274389,-0.826687,3,0.0196917,10,-0.000226834,-3.08266,-0.170226,-0.346598,11.1856,0.274389,
2,0,0,1,0,5098.45,0.27322,0.272937,-0.835164,3,0.0196598,10,-0.000227947,-3.07823,-0.172342,-0.342342,11.3227,0.272937,
2,0,0,1,0,5098.49,0.271725,0.271485,-0.856914,3,0.0196273,10,-0.00023264,-3.06706,-0.17031,-0.346427,11.6371,0.271485,
2,0,0,1,0,5098.52,0.270221,0.269903,-0.875256,3,0.019594,10,-0.000236234,-3.05786,-0.180277,-0.327274,11.1617,0.269903,
2,0,0,1,0,5098.56,0.268725,0.268426,-0.89072,3,0.0195603,10,-0.000239093,-3.05026,-0.241451,-0.244356,8.44473,0.268426,
2,0,0,1,0,5098.6,0.267228,0.266894,-0.901487,3,0.0195261,10,-0.000240602,-3.04504,-0.248438,-0.237483,8.34023,0.266894,
2,0,0,1,0,5098.63,0.265728,0.265434,-0.917332,3,0.0194914,10,-0.000243491,-3.03747,-0.221314,-0.26659,9.50451,0.265434,
2,0,0,1,0,5098.67,0.264228,0.263942,-0.931207,3,0.019456,10,-0.000245784,-3.03095,-0.262019,-0.225174,8.16567,0.263942,
2,0,0,1,0,5098.71,0.262732,0.26246,-0.942306,3,0.0194202,10,-0.000247318,-3.02581,-0.269639,-0.218811,8.05336,0.26246,
2,0,0,1,0,5098.75,0.261236,0.260936,-0.948783,3,0.019384,10,-0.000247572,-3.02283,-0.298403,-0.197719,7.39852,0.260936,
2,0,0,1,0,5098.78,0.259736,0.259451,-0.968405,3,0.0193473,10,-0.000251254,-3.01394,-0.234162,-0.251963,9.55392,0.259451,
2,0,0,1,0,5098.82,0.258236,0.257945,-0.982124,3,0.0193101,10,-0.000253334,-3.00783,-0.284854,-0.207124,7.92225,0.257945,
2,0,0,1,0,5098.86,0.256741,0.256472,-0.995123,3,0.0192723,10,-0.000255221,-3.00212,-0.310879,-0.189785,7.30497,0.256472,
2,0,0,1,0,5098.9,0.255241,0.254906,-1.00816,3,0.0192341,10,-0.000256986,-2.99647,-0.305899,-0.192874,7.55113,0.254906,
2,0,0,1,0,5098.93,0.253741,0.25345,-1.01115,3,0.0191957,10,-0.000256277,-2.99518,-0.349104,-0.169004,6.68787,0.2534501,
2,0,0,1,0,5098.97,0.252245,0.251914,-1.02719,3,0.0191568,10,-0.000258763,-2.98835,-0.287018,-0.205562,8.22387,0.251914,
2,0,0,1,0,5099.01,0.250748,0.250443,-1.03475,3,0.0191174,10,-0.000259144,-2.98517,-0.318456,-0.185269,7.52553,0.2504425,
2,0,0,1,0,5099.05,0.249248,0.248927,-1.04554,3,0.0190775,10,-0.000260262,-2.98066,-0.345534,-0.17075,7.00944,0.248927,
2,0,0,1,0,5099.08,0.247748,0.247438,-1.05735,3,0.0190373,10,-0.000261628,-2.97578,-0.40882,-0.144318,5.98991,0.247438,
2,0,0,1,0,5099.12,0.246252,0.245951,-1.07188,3,0.0189968,10,-0.000263629,-2.96985,-0.279492,-0.211098,8.7944,0.245951,
2,0,0,1,0,5099.16,0.244756,0.244445,-1.08717,3,0.0189558,10,-0.000265754,-2.9637,-0.311035,-0.189689,7.98958,0.244445,
2,0,0,1,0,5099.2,0.243252,0.242964,-1.09444,3,0.0189142,10,-0.000265909,-2.96081,-0.420995,-0.140144,5.9501,0.242964,
2,0,0,1,0,5099.23,0.241756,0.241454,-1.09657,3,0.0188725,10,-0.000264772,-2.95996,-0.380949,-0.154876,6.65383,0.241454,
2,0,0,1,0,5099.27,0.240261,0.239922,-1.10914,3,0.0188304,10,-0.000266107,-2.95501,-0.328506,-0.179601,7.81782,0.239922,
2,0,0,1,0,5099.31,0.238761,0.238485,-1.11915,3,0.0187878,10,-0.0002669,-2.95111,-0.435553,-0.13546,5.9443,0.238485,
2,0,0,1,0,5099.35,0.237261,0.236941,-1.13055,3,0.0187448,10,-0.000267873,-2.94671,-0.765227,-0.0771013,3.40232,0.236941,
2,0,0,1,0,5099.38,0.235765,0.235442,-1.13881,3,0.0187016,10,-0.000268123,-2.94355,-0.48323,-0.122095,5.44261,0.235442,
2,0,0,1,0,5099.42,0.234268,0.233964,-1.14964,3,0.0186582,10,-0.000268974,-2.93944,-0.347205,-0.169929,7.6477,0.233964,
2,0,0,1,0,5099.46,0.232768,0.232461,-1.16589,3,0.0186141,10,-0.000271023,-2.93334,-0.336695,-0.175233,7.92349,0.232461,
2,0,0,1,0,5099.5,0.231268,0.23096,-1.17537,3,0.0185696,10,-0.000271462,-2.92983,-0.618539,-0.095386,4.34835,0.23096,
2,0,0,1,0,5099.53,0.229772,0.229457,-1.1805,3,0.0185249,10,-0.000270874,-2.92793,-0.560784,-0.10521,4.84358,0.229457,
2,0,0,1,0,5099.57,0.228275,0.227952,-1.18684,3,0.0184799,10,-0.000270542,-2.92561,-0.387601,-0.152218,7.06364,0.227952,
2,0,0,1,0,5099.61,0.226772,0.22648,-1.19552,3,0.0184343,10,-0.000270761,-2.92244,-0.331172,-0.178155,8.35762,0.22648,
2,0,0,1,0,5099.65,0.225276,0.224975,-1.20673,3,0.0183886,10,-0.000271484,-2.91839,-0.39487,-0.149416,7.07171,0.224975,
2,0,0,1,0,5099.68,0.223781,0.223449,-1.21895,3,0.0183424,10,-0.000272373,-2.91401,-0.411021,-0.143545,6.82788,0.223449,
2,0,0,1,0,5099.72,0.222281,0.222025,-1.22379,3,0.0182958,10,-0.000271712,-2.91229,-0.438307,-0.134609,6.44767,0.222025,
2,0,0,1,0,5099.76,0.220781,0.220494,-1.24104,3,0.0182489,10,-0.000273643,-2.90621,-0.332857,-0.177253,8.54408,0.220494,
2,0,0,1,0,5099.8,0.219284,0.218992,-1.25125,3,0.0182016,10,-0.000274013,-2.90266,-0.484538,-0.121765,5.92304,0.218992,
2,0,0,1,0,5099.83,0.217788,0.217496,-1.26169,3,0.0181539,10,-0.000274412,-2.89905,-0.73765,-0.0799837,3.92216,0.217496,
2,0,0,1,0,5099.87,0.216288,0.215996,-1.25936,3,0.0181058,10,-0.000272016,-2.89985,-0.442636,-0.133292,6.61094,0.215996,
2,0,0,1,0,5099.91,0.214788,0.2145,-1.27269,3,0.0180575,10,-0.000272991,-2.89528,-0.437864,-0.134745,6.76483,0.2145,
2,0,0,1,0,5099.95,0.213292,0.212964,-1.28747,3,0.0180088,10,-0.000274184,-2.89026,-0.380013,-0.155258,7.83347,0.212964,
2,0,0,1,0,5099.98,0.211796,0.211519,-1.30162,3,0.0179596,10,-0.000275318,-2.88551,-0.493594,-0.119531,6.04613,0.211519,
2,0,0,1,0,5100.02,0.210293,0.209997,-1.31192,3,0.0179098,10,-0.0002755,-2.88209,-0.447797,-0.131756,6.72698,0.209997,
2,0,0,1,0,5100.06,0.208797,0.208485,-1.32152,3,0.01786,10,-0.000275518,-2.87893,-0.291051,-0.202714,10.4706,0.208485,
2,0,0,1,0,5100.1,0.207301,0.207041,-1.33419,3,0.0178097,10,-0.000276232,-2.87478,-0.315378,-0.187077,9.69599,0.207041,
2,0,0,1,0,5100.13,0.205801,0.205483,-1.34925,3,0.0177586,10,-0.000277249,-2.86991,-0.409287,-0.144153,7.54167,0.205483,
2,0,0,1,0,5100.17,0.204301,0.204019,-1.35124,3,0.0177073,10,-0.00027568,-2.86927,-0.536607,-0.10995,5.82499,0.204019,
2,0,0,1,0,5100.21,0.202804,0.202446,-1.36007,3,0.0176559,10,-0.00027534,-2.86644,-0.383316,-0.15392,8.21757,0.202446,
2,0,0,1,0,5100.25,0.201308,0.20097,-1.37169,3,0.017604,10,-0.000275668,-2.86274,-0.373053,-0.158154,8.49589,0.20097,
2,0,0,1,0,5100.28,0.199808,0.199481,-1.38768,3,0.0175514,10,-0.000276816,-2.85771,-0.407091,-0.144931,7.84062,0.199481,
2,0,0,1,0,5100.32,0.198308,0.197993,-1.40118,3,0.0174984,10,-0.000277424,-2.8535,-0.421445,-0.139995,7.63905,0.197993,
2,0,0,1,0,5100.36,0.196812,0.196515,-1.41521,3,0.0174452,10,-0.00027811,-2.84918,-0.404293,-0.145934,8.03263,0.196515,
2,0,0,1,0,5100.4,0.195316,0.194973,-1.42826,3,0.0173914,10,-0.000278471,-2.84519,-0.332522,-0.177432,9.85928,0.194973,
2,0,0,1,0,5100.43,0.193813,0.193475,-1.44232,3,0.0173368,10,-0.000279053,-2.84094,-0.308225,-0.191418,10.7676,0.193475,
2,0,0,1,0,5100.47,0.192317,0.192044,-1.44924,3,0.0172819,10,-0.000278317,-2.83886,-0.402003,-0.146765,8.32996,0.1920435,
2,0,0,1,0,5100.51,0.190821,0.190487,-1.45808,3,0.0172265,10,-0.000277745,-2.83622,-0.377308,-0.156371,8.97156,0.190487,
2,0,0,1,0,5100.55,0.189321,0.188986,-1.4822,3,0.0171706,10,-0.000280116,-2.82909,-0.337947,-0.174584,10.1195,0.188986,
2,0,0,1,0,5100.58,0.187821,0.187501,-1.50006,3,0.017114,10,-0.000281263,-2.82389,-0.308785,-0.191072,11.1867,0.187501,
2,0,0,1,0,5100.62,0.186324,0.186012,-1.51662,3,0.0170569,10,-0.000282109,-2.81912,-0.395997,-0.148991,8.77968,0.186012,
2,0,0,1,0,5100.66,0.184828,0.184499,-1.53563,3,0.0169991,10,-0.000283322,-2.81371,-0.30274,-0.194886,11.6428,0.184499,
2,0,0,1,0,5100.69,0.183328,0.183058,-1.55014,3,0.0169407,10,-0.000283766,-2.80963,-0.288679,-0.204379,12.3861,0.183058,
2,0,0,1,0,5100.73,0.181828,0.181526,-1.57383,3,0.0168814,10,-0.000285692,-2.80304,-0.256152,-0.230332,14.1283,0.181526,
2,0,0,1,0,5100.77,0.180332,0.18004,-1.59477,3,0.0168215,10,-0.000287123,-2.7973,-0.263159,-0.224199,13.9283,0.18004,
2,0,0,1,0,5100.81,0.178836,0.178547,-1.61276,3,0.0167608,10,-0.000287953,-2.79243,-0.280822,-0.210098,13.2538,0.178547,
2,0,0,1,0,5100.84,0.177333,0.177018,-1.63131,3,0.0166992,10,-0.000288772,-2.78746,-0.248804,-0.237134,15.1705,0.177018,
2,0,0,1,0,5100.88,0.175837,0.175504,-1.66182,3,0.0166369,10,-0.000291656,-2.77942,-0.200713,-0.293952,19.0116,0.175504,
2,0,0,1,0,5100.92,0.174341,0.174039,-1.68843,3,0.0165736,10,-0.000293852,-2.77252,-0.208273,-0.283283,18.6463,0.174039,
2,0,0,1,0,5100.96,0.172841,0.17254,-1.71713,3,0.0165091,10,-0.000296273,-2.7652,-0.208807,-0.282557,18.879,0.17254,
2,0,0,1,0,5100.99,0.171341,0.17104,-1.73626,3,0.0164435,10,-0.000296971,-2.76038,-0.194462,-0.303401,20.6808,0.17104,
2,0,0,1,0,5101.03,0.169844,0.169578,-1.77674,3,0.0163771,10,-0.000301297,-2.75038,-0.179807,-0.32813,22.8267,0.1695784,
2,0,0,1,0,5101.07,0.168348,0.168003,-1.81388,3,0.0163093,10,-0.000304737,-2.74139,-0.165846,-0.355751,25.2016,0.168003,
2,0,0,1,0,5101.11,0.166848,0.166531,-1.85402,3,0.0162398,10,-0.000308751,-2.73189,-0.167733,-0.351749,25.4017,0.166531,
2,0,0,1,0,5101.14,0.165348,0.165036,-1.88821,3,0.0161689,10,-0.000311623,-2.72395,-0.151049,-0.390603,28.8449,0.165036,
2,0,0,1,0,5101.18,0.163852,0.163529,-1.93559,3,0.0160968,10,-0.000316525,-2.71319,-0.148124,-0.398314,30.1483,0.163529,
2,0,0,1,0,5101.22,0.162357,0.162081,-1.9886,3,0.0160227,10,-0.000322314,-2.70145,-0.126751,-0.465481,36.0575,0.162081,
2,0,0,1,0,5101.26,0.160853,0.160534,-2.03695,3,0.0159464,10,-0.000327001,-2.69102,-0.132783,-0.444333,35.3386,0.160534,
2,0,0,1,0,5101.29,0.159357,0.159099,-2.09717,3,0.0158683,10,-0.000333657,-2.67837,-0.120208,-0.490817,40.2553,0.1590991,
2,0,0,1,0,5101.33,0.157861,0.157577,-2.16259,3,0.0157881,10,-0.000340774,-2.66503,-0.111117,-0.530972,44.9732,0.157577,
2,0,0,1,0,5101.37,0.156361,0.156082,-2.2304,3,0.015705,10,-0.000348124,-2.65162,-0.101824,-0.579434,50.6132,0.156082,
2,0,0,1,0,5101.41,0.154861,0.154538,-2.31466,3,0.015619,10,-0.000357703,-2.63551,-0.0991555,-0.595025,53.8587,0.154538,
2,0,0,1,0,5101.44,0.153364,0.153031,-2.39717,3,0.0155302,10,-0.000366841,-2.6203,-0.0969589,-0.608505,57.0776,0.153031,
2,0,0,1,0,5101.48,0.151868,0.151564,-2.48873,3,0.0154382,10,-0.000377202,-2.60402,-0.0882914,-0.668242,65.1132,0.151564,
2,0,0,1,0,5101.52,0.150368,0.150064,-2.59706,3,0.0153422,10,-0.000389725,-2.58552,-0.080962,-0.728737,73.8107,0.150064,
2,0,0,1,0,5101.56,0.148868,0.148584,-2.71298,3,0.0152421,10,-0.000403107,-2.56655,-0.0772319,-0.763933,80.8823,0.1485844,
2,0,0,1,0,5101.59,0.147372,0.147055,-2.82914,3,0.0151379,10,-0.000416039,-2.54835,-0.0782908,-0.7536,83.3836,0.147055,
2,0,0,1,0,5101.63,0.145877,0.145589,-2.94919,3,0.0150289,10,-0.000429369,-2.5303,-0.0750746,-0.785885,91.0205,0.1455887,
2,0,0,1,0,5101.67,0.144373,0.144035,-3.09454,3,0.0149144,10,-0.000445724,-2.5094,-0.0732773,-0.80516,97.6372,0.144035,
2,0,0,1,0,5101.71,0.142877,0.142565,-3.25161,3,0.014795,10,-0.000463567,-2.4879,-0.0729636,-0.808623,102.585,0.142565,
2,0,0,1,0,5101.74,0.14138,0.141058,-3.40813,3,0.0146697,10,-0.000480743,-2.46748,-0.0766638,-0.769594,102.014,0.141058,
2,0,0,1,0,5101.78,0.13988,0.139609,-3.56821,3,0.0145383,10,-0.000498156,-2.44755,-0.0789217,-0.747577,103.793,0.139609,
2,0,0,1,0,5101.82,0.13838,0.138085,-3.71845,3,0.0144011,10,-0.000513464,-2.42964,-0.0804309,-0.733549,106.442,0.1380855,
2,0,0,1,0,5101.86,0.136884,0.136567,-3.88165,3,0.0142582,10,-0.000530105,-2.41098,-0.0830305,-0.710583,107.38,0.136567,
2,0,0,1,0,5101.89,0.135388,0.13507,-4.03931,3,0.0141093,10,-0.00054559,-2.39369,-0.0920714,-0.640807,100.869,0.13507,
2,0,0,1,0,5101.93,0.133888,0.133556,-4.19161,3,0.0139542,10,-0.000559815,-2.37762,-0.0997979,-0.591195,96.4778,0.133556,
2,0,0,1,0,5101.97,0.132389,0.132074,-4.32509,3,0.0137937,10,-0.000571233,-2.36401,-0.107793,-0.547346,92.381,0.132074,
2,0,0,1,0,5102.01,0.130893,0.130583,-4.46988,3,0.0136283,10,-0.00058369,-2.3497,-0.112795,-0.523072,91.0592,0.130583,
2,0,0,1,0,5102.04,0.129393,0.129074,-4.60085,3,0.0134576,10,-0.000593852,-2.33716,-0.12726,-0.463617,83.0144,0.129074,
2,0,0,1,0,5102.08,0.127893,0.127568,-4.72277,3,0.013282,10,-0.000602475,-2.3258,-0.149331,-0.395094,72.4353,0.127568,
2,0,0,1,0,5102.12,0.126397,0.126112,-4.81969,3,0.0131029,10,-0.000607821,-2.31698,-0.170352,-0.346342,65.015,0.126112,
2,0,0,1,0,5102.16,0.1249,0.124606,-4.91206,3,0.0129201,10,-0.000612073,-2.30874,-0.187588,-0.314519,60.1849,0.124606,
2,0,0,1,0,5102.19,0.1234,0.123075,-4.99345,3,0.0127335,10,-0.00061457,-2.3016,-0.224708,-0.262563,51.0947,0.123075,
2,0,0,1,0,5102.23,0.1219,0.121581,-5.06383,3,0.012544,10,-0.000615665,-2.29552,-0.2916,-0.202332,39.9026,0.121581,
2,0,0,1,0,5102.27,0.120404,0.120082,-5.1124,3,0.0123528,10,-0.000613907,-2.29138,-0.365876,-0.161257,32.1514,0.120082,
2,0,0,1,0,5102.31,0.118908,0.118607,-5.16369,3,0.0121599,10,-0.00061245,-2.28704,-0.451868,-0.130569,26.2682,0.118607,
2,0,0,1,0,5102.34,0.117404,0.117096,-5.20216,3,0.0119643,10,-0.000609151,-2.28382,-0.581079,-0.101535,20.5454,0.117096,
2,0,0,1,0,5102.38,0.115909,0.115558,-5.22379,3,0.0117687,10,-0.000603649,-2.28201,-1.27941,-0.0461149,9.3668,0.115558,
2,0,0,1,0,5102.42,0.114413,0.114096,-5.23302,3,0.0115724,10,-0.000597066,-2.28125,-2.33283,-0.0252912,5.15233,0.1140958,
2,0,0,1,0,5102.46,0.112913,0.112615,-5.22914,3,0.0113756,10,-0.000588877,-2.28157,8.11465,0.0072708,-1.48249,0.112615,
2,0,0,1,0,5102.49,0.111413,0.111081,-5.22209,3,0.0111788,10,-0.000580073,-2.28216,2.08727,0.0282666,-5.75909,0.111081,
2,0,0,1,0,5102.53,0.109917,0.109633,-5.21151,3,0.0109829,10,-0.000571356,-2.28304,0.9352,0.0630881,-12.818,0.1096333,
2,0,0,1,0,5102.57,0.10842,0.108123,-5.18868,3,0.0107876,10,-0.000561017,-2.28494,0.615975,0.0957831,-19.3649,0.108123,
2,0,0,1,0,5102.61,0.10692,0.106616,-5.15429,3,0.010593,10,-0.000549531,-2.28783,0.487243,0.121089,-24.3337,0.106616,
2,0,0,1,0,5102.64,0.10542,0.10505,-5.11873,3,0.0103997,10,-0.00053772,-2.29084,0.445204,0.132524,-26.4262,0.10505,
2,0,0,1,0,5102.68,0.103924,0.103689,-5.07865,3,0.0102084,10,-0.0005266,-2.29425,0.382994,0.154049,-30.461,0.103689,
2,0,0,1,0,5102.72,0.102427,0.102111,-5.03111,3,0.0100187,10,-0.00051373,-2.29834,0.309119,0.190865,-37.3587,0.102111,
2,0,0,1,0,5102.76,0.100924,0.100589,-4.95968,3,0.00983013,10,-0.000498889,-2.30455,0.291778,0.202208,-39.1966,0.100589,
2,0,0,1,0,5102.79,0.0994284,0.0991109,-4.90487,3,0.00964494,10,-0.000486126,-2.30937,0.277844,0.212349,-40.6649,0.0991109,
2,0,0,1,0,5102.83,0.0979329,0.097662,-4.84134,3,0.00946191,10,-0.000472815,-2.31503,0.278986,0.21148,-39.9978,0.097662,
2,0,0,1,0,5102.87,0.0964329,0.0961115,-4.77907,3,0.00928069,10,-0.000459324,-2.32066,0.241161,0.24465,-45.5892,0.0961115,
2,0,0,1,0,5102.9,0.094933,0.0946537,-4.70667,3,0.00910196,10,-0.000445504,-2.32729,0.236227,0.24976,-45.9344,0.0946537,
2,0,0,1,0,5102.94,0.0934366,0.0931171,-4.64427,3,0.0089264,10,-0.000432461,-2.33308,0.239304,0.246548,-44.7069,0.0931171,
2,0,0,1,0,5102.98,0.0919401,0.0916205,-4.58774,3,0.00875317,10,-0.000420331,-2.3384,0.251511,0.234582,-41.9359,0.0916205,
2,0,0,1,0,5103.02,0.0904402,0.0901399,-4.52446,3,0.00858172,10,-0.000407834,-2.34443,0.249303,0.23666,-41.7059,0.0901399,
2,0,0,1,0,5103.05,0.0889402,0.0885543,-4.46274,3,0.0084126,10,-0.000395194,-2.3504,0.258855,0.227927,-39.6973,0.0885543,
2,0,0,1,0,5103.09,0.0874438,0.0871541,-4.39525,3,0.00824634,10,-0.000383064,-2.35702,0.266175,0.221659,-38.1458,0.0871541,
2,0,0,1,0,5103.13,0.0859483,0.0856405,-4.34307,3,0.00808209,10,-0.000371943,-2.3622,0.311482,0.189417,-32.1717,0.08564055,
2,0,0,1,0,5103.17,0.0844447,0.0841086,-4.29932,3,0.00791883,10,-0.00036161,-2.3666,0.31237,0.188879,-31.7139,0.0841086,
2,0,0,1,0,5103.2,0.0829492,0.0826616,-4.25697,3,0.00775817,10,-0.000351888,-2.3709,0.328219,0.179758,-29.8255,0.0826616,
2,0,0,1,0,5103.24,0.0814528,0.081138,-4.20667,3,0.0075993,10,-0.000341321,-2.37606,0.348284,0.169402,-27.8319,0.081138,
2,0,0,1,0,5103.28,0.0799528,0.0796592,-4.16973,3,0.00744154,10,-0.000332157,-2.37989,0.410085,0.143873,-23.4127,0.0796592,
2,0,0,1,0,5103.32,0.0784529,0.0781358,-4.13358,3,0.00728514,10,-0.000322981,-2.38367,0.426318,0.138394,-22.3351,0.0781358,
2,0,0,1,0,5103.35,0.0769565,0.0766439,-4.10027,3,0.00713041,10,-0.000314261,-2.38719,0.390657,0.151028,-24.1818,0.0766439,
2,0,0,1,0,5103.39,0.0754601,0.0751638,-4.05909,3,0.00697699,10,-0.000305097,-2.39157,0.41679,0.141558,-22.4835,0.0751638,
2,0,0,1,0,5103.43,0.0739601,0.0736744,-4.03534,3,0.00682448,10,-0.000297301,-2.39412,0.464296,0.127074,-20.039,0.0736744,
2,0,0,1,0,5103.47,0.0724601,0.0720964,-4.00953,3,0.00667307,10,-0.000289073,-2.39691,0.543737,0.108508,-16.964,0.0720964,
2,0,0,1,0,5103.5,0.0709637,0.0706562,-3.98034,3,0.00652298,10,-0.000281236,-2.40008,0.476428,0.123838,-19.1981,0.0706562,
2,0,0,1,0,5103.54,0.0694682,0.0691704,-3.9521,3,0.00637391,10,-0.000273368,-2.40317,0.468965,0.125809,-19.3964,0.0691704,
2,0,0,1,0,5103.58,0.0679646,0.0676543,-3.92191,3,0.00622525,10,-0.000265334,-2.4065,0.555616,0.106188,-16.2769,0.0676543,
2,0,0,1,0,5103.62,0.0664691,0.066127,-3.89623,3,0.00607832,10,-0.000257646,-2.40936,0.529691,0.111386,-16.9371,0.066127,
2,0,0,1,0,5103.65,0.0649727,0.0646879,-3.87223,3,0.00593222,10,-0.000250487,-2.41204,0.46742,0.126225,-19.0736,0.0646879,
2,0,0,1,0,5103.69,0.0634727,0.0631633,-3.8466,3,0.00578675,10,-0.000242964,-2.41492,0.446469,0.132148,-19.8405,0.06316328,
2,0,0,1,0,5103.73,0.0619728,0.0616152,-3.81349,3,0.00564244,10,-0.000234969,-2.41868,0.480042,0.122906,-18.3263,0.0616152,
2,0,0,1,0,5103.77,0.0604764,0.0601799,-3.79313,3,0.00549947,10,-0.00022827,-2.421,0.542184,0.108819,-16.0903,0.0601799,
2,0,0,1,0,5103.8,0.05898,0.0586739,-3.77054,3,0.00535745,10,-0.000221232,-2.4236,0.488744,0.120718,-17.7335,0.0586739,
2,0,0,1,0,5103.84,0.05748,0.0571504,-3.74602,3,0.00521598,10,-0.000214087,-2.42643,0.434208,0.13588,-19.7842,0.0571504,
2,0,0,1,0,5103.88,0.05598,0.055646,-3.7065,3,0.00507565,10,-0.000206252,-2.43104,0.438092,0.134675,-19.4854,0.055646,
2,0,0,1,0,5103.92,0.0544836,0.0541076,-3.68054,3,0.00493684,10,-0.000199145,-2.43409,0.536968,0.109876,-15.7867,0.0541076,
2,0,0,1,0,5103.95,0.0529881,0.0526723,-3.65562,3,0.00479891,10,-0.00019255,-2.43704,0.451179,0.130768,-18.6439,0.0526723,
2,0,0,1,0,5103.99,0.0514846,0.0511417,-3.61972,3,0.00466119,10,-0.000185119,-2.44133,0.421161,0.140089,-19.8469,0.05114175,
2,0,0,1,0,5104.03,0.049989,0.0496754,-3.59004,3,0.00452547,10,-0.000178337,-2.4449,0.371373,0.15887,-22.3022,0.0496754,
2,0,0,1,0,5104.07,0.0484926,0.0482083,-3.56812,3,0.00439094,10,-0.000172013,-2.44756,0.389094,0.151634,-21.103,0.0482083,
2,0,0,1,0,5104.1,0.0469927,0.046679,-3.53951,3,0.00425714,10,-0.000165221,-2.45106,0.389182,0.1516,-20.8812,0.046679,
2,0,0,1,0,5104.14,0.0454927,0.045157,-3.50679,3,0.00412446,10,-0.000158356,-2.45509,0.33926,0.173908,-23.708,0.04515703,
2,0,0,1,0,5104.18,0.0439963,0.0436979,-3.46945,3,0.00399341,10,-0.000151608,-2.45974,0.313345,0.188291,-25.4597,0.0436979,
2,0,0,1,0,5104.22,0.0424999,0.0422193,-3.43064,3,0.00386381,10,-0.000144839,-2.46462,0.372755,0.158281,-21.2272,0.0422193,
2,0,0,1,0,5104.25,0.0409999,0.0406317,-3.39998,3,0.00373507,10,-0.000138147,-2.46852,0.362585,0.16272,-21.6187,0.0406317,
2,0,0,1,0,5104.29,0.0394999,0.0391767,-3.36681,3,0.00360743,10,-0.000131901,-2.47278,0.32536,0.181337,-23.8067,0.0391767,
2,0,0,1,0,5104.33,0.0380044,0.0376929,-3.33271,3,0.00348151,10,-0.00012562,-2.4772,0.299954,0.196697,-25.5381,0.0376929,
2,0,0,1,0,5104.37,0.0365089,0.0361979,-3.29028,3,0.0033571,10,-0.000119101,-2.48277,0.308166,0.191455,-24.5716,0.0361979,
2,0,0,1,0,5104.4,0.0350054,0.0346898,-3.25531,3,0.00323338,10,-0.000112926,-2.48741,0.326886,0.180491,-22.8982,0.0346898,
2,0,0,1,0,5104.44,0.033509,0.0332089,-3.22105,3,0.00311165,10,-0.000106967,-2.492,0.322911,0.182713,-22.9374,0.0332089,
2,0,0,1,0,5104.48,0.0320125,0.0317044,-3.18507,3,0.00299123,10,-0.000100981,-2.49688,0.297825,0.198103,-24.5858,0.0317044,
2,0,0,1,0,5104.52,0.0305126,0.0302358,-3.14076,3,0.00287182,10,-9.49636e-05,-2.50296,0.306288,0.192629,-23.6759,0.0302358,
2,0,0,1,0,5104.55,0.0290126,0.0287094,-3.10814,3,0.00275386,10,-8.92327e-05,-2.5075,0.324213,0.181979,-22.13,0.0287094,
2,0,0,1,0,5104.59,0.0275162,0.0271718,-3.08112,3,0.00263735,10,-8.37198e-05,-2.51129,0.325025,0.181525,-21.8409,0.0271718,
2,0,0,1,0,5104.63,0.0260198,0.0257074,-3.0498,3,0.002522,10,-7.84024e-05,-2.51573,0.295979,0.199339,-23.7087,0.0257074,
2,0,0,1,0,5104.67,0.0245198,0.0241729,-3.01356,3,0.00240753,10,-7.28466e-05,-2.52092,0.347362,0.169852,-19.9929,0.0241729,
2,0,0,1,0,5104.7,0.0230198,0.0227216,-2.99421,3,0.00229439,10,-6.80332e-05,-2.52372,0.357484,0.165042,-19.2391,0.02272159,
2,0,0,1,0,5104.74,0.0215243,0.0212471,-2.96355,3,0.00218246,10,-6.29669e-05,-2.52819,0.398946,0.14789,-17.0741,0.0212471,
2,0,0,1,0,5104.78,0.0200288,0.0197199,-2.93704,3,0.00207148,10,-5.79183e-05,-2.53209,0.409522,0.144071,-16.4898,0.0197199,
2,0,0,1,0,5104.82,0.0185253,0.0182199,-2.90587,3,0.00196083,10,-5.29447e-05,-2.53672,0.448684,0.131496,-14.9594,0.0182199,
2,0,0,1,0,5104.85,0.0170289,0.0167287,-2.8861,3,0.0018518,10,-4.82806e-05,-2.53969,0.502495,0.117414,-13.2864,0.0167287,
2,0,0,1,0,5104.89,0.0155325,0.0152382,-2.868,3,0.00174344,10,-4.37031e-05,-2.54242,0.591285,0.0997827,-11.1789,0.0152382,
2,0,0,1,0,5104.93,0.0140325,0.0136978,-2.85527,3,0.00163539,10,-3.91109e-05,-2.54435,0.614545,0.0960059,-10.6868,0.0136978,
2,0,0,1,0,5104.96,0.0125325,0.012212,-2.83951,3,0.00152803,10,-3.4676e-05,-2.54676,0.518777,0.113729,-12.5809,0.012212,
2,0,0,1,0,5105,0.0110361,0.0107288,-2.82164,3,0.00142162,10,-3.02728e-05,-2.5495,0.710469,0.0830438,-9.14199,0.0107288,
2,0,0,1,0,5105.04,0.0095397,0.00921169,-2.81158,3,0.00131572,10,-2.58994e-05,-2.55105,0.970937,0.0607661,-6.65727,0.00921169,
2,0,0,1,0,5105.08,0.00803616,0.0077314,-2.79885,3,0.00120959,10,-2.1639e-05,-2.55302,1.053,0.0560305,-6.12689,0.007731399,
2,0,0,1,0,5105.11,0.00654064,0.00622964,-2.78513,3,0.00110444,10,-1.73503e-05,-2.55515,1.15221,0.0512061,-5.581,0.00622964,
2,0,0,1,0,5105.15,0.00504513,0.00473639,-2.76987,3,0.000999636,10,-1.31192e-05,-2.55754,1.30682,0.0451476,-4.90378,0.00473639,
2,0,0,1,0,5105.19,0.00354515,0.00323312,-2.7693,3,0.000894866,10,-8.95348e-06,-2.55763,-0.985271,-0.059882,6.52994,0.00323312,
2,0,0,1,0,5105.23,0.00204518,0.00169538,-2.82021,3,0.00078981,10,-4.78131e-06,-2.54972,-7.18755,-0.00820864,0.889143,0.00169538,
2,0,0,1,0,5105.26,0.000548773,0.000206395,-2.78926,3,0.000684389,10,-5.75687e-07,-2.55451, , , ,0.000206395,
2,0,0,1,0,5105.27,0.000177222,-0.000231032,-2.77723,3,0.000658328,10,6.4163e-07,-2.55639, , , ,-0.000231032,