File: Figure_codes/Fig_3-5/rawdata_trumpetplot_data/after 10th/20221101_1-115_003_TrumpetPlot_ParaChange_from10_every3_02_CV_C01_21.csv
mode,ox/red,error,control changes,counter inc.,time/s,control/V,Ewe/V,<I>/mA,cycle number,(Q-Qo)/C,I Range,P/W,log(|I|),Tafel slope mV/dec,alpha_eff,dI/d(E-IR),E-IR/V,
2,0,0,1,0,41712.8,2.44065e-05,-0.000401673,-0.400873,22,0.0000000E+000,10,1.6102e-07,-3.39699, , , ,-0.000401673,
2,0,0,1,0,41714,0.00129791,0.000894205,-0.177355,22,-0.000265146,10,-1.58592e-07,-3.75116, , , ,0.000894205,
2,0,0,1,0,41715.5,0.00279612,0.00243709,-0.142902,22,-0.000484879,10,-3.48265e-07,-3.84496,-0.0173999,-3.39082,20.3888,0.00243709,
2,0,0,1,0,41717,0.00429431,0.00400018,-0.121899,22,-0.000666562,10,-4.87619e-07,-3.914,-0.0249066,-2.36885,11.4785,0.00400018,
2,0,0,1,0,41718.5,0.00579242,0.00545922,-0.107124,22,-0.000821763,10,-5.84816e-07,-3.97011,-0.0269549,-2.18884,9.28259,0.00545922,
2,0,0,1,0,41720,0.00729061,0.00695535,-0.0946794,22,-0.000956802,10,-6.58529e-07,-4.02374,-0.0299206,-1.97189,7.39185,0.00695535,
2,0,0,1,0,41721.5,0.00878882,0.00848452,-0.084313,22,-0.00107521,10,-7.15355e-07,-4.07411,-0.0326896,-1.80486,6.07344,0.00848452,
2,0,0,1,0,41723,0.010287,0.00996167,-0.0764771,22,-0.00118058,10,-7.6184e-07,-4.11647,-0.0363939,-1.62115,4.89204,0.00996167,
2,0,0,1,0,41724.5,0.0117852,0.0115088,-0.0698109,22,-0.00127501,10,-8.03441e-07,-4.15608,-0.0382677,-1.54177,4.23922,0.0115088,
2,0,0,1,0,41726,0.0132834,0.012969,-0.0642327,22,-0.00136002,10,-8.33035e-07,-4.19224,-0.0385205,-1.53165,3.81893,0.012969,
2,0,0,1,0,41727.5,0.0147815,0.0144503,-0.0587514,22,-0.00143672,10,-8.48976e-07,-4.23098,-0.0394385,-1.496,3.42562,0.0144503,
2,0,0,1,0,41729,0.0162797,0.0159349,-0.053861,22,-0.00150539,10,-8.58269e-07,-4.26873,-0.0414681,-1.42278,2.99781,0.0159349,
2,0,0,1,0,41730.5,0.0177779,0.0174449,-0.0489535,22,-0.00156716,10,-8.53989e-07,-4.31022,-0.0394222,-1.49662,2.86992,0.01744492,
2,0,0,1,0,41732,0.0192761,0.0189496,-0.0449035,22,-0.00162296,10,-8.50904e-07,-4.34772,-0.0410701,-1.43657,2.5306,0.0189496,
2,0,0,1,0,41733.5,0.0207743,0.0204353,-0.040969,22,-0.00167243,10,-8.37214e-07,-4.38754,-0.0395114,-1.49324,2.40901,0.0204353,
2,0,0,1,0,41735,0.0222725,0.0219612,-0.0379632,22,-0.0017164,10,-8.33719e-07,-4.42064,-0.0376544,-1.56688,2.29968,0.0219612,
2,0,0,1,0,41736.5,0.0237707,0.0234744,-0.0337686,22,-0.00175515,10,-7.927e-07,-4.47149,-0.0366897,-1.60808,2.14458,0.0234744,
2,0,0,1,0,41738,0.0252689,0.024923,-0.0308953,22,-0.00178913,10,-7.70002e-07,-4.51011,-0.0352218,-1.6751,1.99645,0.024923,
2,0,0,1,0,41739.5,0.0267671,0.026468,-0.0278448,22,-0.00181821,10,-7.36995e-07,-4.55526,-0.029382,-2.00803,2.19348,0.026468,
2,0,0,1,0,41741,0.0282653,0.0279589,-0.025001,22,-0.00184252,10,-6.99e-07,-4.60204,-0.0290649,-2.02994,1.98801,0.0279589,
2,0,0,1,0,41742.5,0.0297635,0.0294085,-0.0224192,22,-0.00186259,10,-6.59316e-07,-4.64938,-0.0287063,-2.0553,1.77818,0.0294085,
2,0,0,1,0,41744,0.0312617,0.0309111,-0.0207048,22,-0.00187925,10,-6.40008e-07,-4.68393,-0.0271119,-2.17617,1.65777,0.0309111,
2,0,0,1,0,41745.5,0.0327599,0.0324158,-0.0170808,22,-0.00189188,10,-5.5369e-07,-4.76749,-0.0231361,-2.55013,1.70975,0.0324158,
2,0,0,1,0,41747,0.0342581,0.0339353,-0.0144064,22,-0.00190019,10,-4.88885e-07,-4.84145,-0.0196183,-3.0074,1.7016,0.0339353,
2,0,0,1,0,41748.5,0.0357563,0.0354115,-0.0119445,22,-0.00190453,10,-4.22973e-07,-4.92283,-0.0159139,-3.70746,1.68511,0.0354115,
2,0,0,1,0,41750,0.0372544,0.0369416,-0.00982729,22,-0.00190513,10,-3.63036e-07,-5.00757,-0.0135057,-4.36852,1.58179,0.0369416,
2,0,0,1,0,41751.5,0.0387526,0.038406,-0.00711058,22,-0.00190209,10,-2.73089e-07,-5.14809,-0.00838024,-7.04037,1.67097,0.038406,
2,0,0,1,0,41753,0.0402508,0.0399479,-0.00480856,22,-0.0018953,10,-1.92092e-07,-5.31799,-0.00706725,-8.34837,1.42583,0.0399479,
2,0,0,1,0,41754.5,0.041749,0.0414387,-0.00263699,22,-0.00188483,10,-1.09274e-07,-5.57889,-0.00205043,-28.7745,1.32738,0.0414387,
2,0,0,1,0,41756,0.0432472,0.0429043,-0.000400123,22,-0.00187142,10,-1.7167e-08,-6.39781,-0.018716,-3.15238,1.47685,0.0429043,
2,0,0,1,0,41757.5,0.0447454,0.0444186,0.00152616,22,-0.00185494,10,6.77897e-08,-5.8164,0.00813883,7.2492,1.51189,0.0444186,
2,0,0,1,0,41759,0.0462435,0.0459338,0.00412449,22,-0.00183472,10,1.89454e-07,-5.38463,0.00403287,14.6298,1.40935,0.0459338,
2,0,0,1,0,41760.5,0.0477417,0.0474194,0.00587424,22,-0.00181154,10,2.78553e-07,-5.23105,0.00941535,6.26636,1.35824,0.04741941,
2,0,0,1,0,41762,0.0492399,0.0489242,0.00795596,22,-0.00178527,10,3.89239e-07,-5.09931,0.0123112,4.79238,1.40634,0.0489242,
2,0,0,1,0,41763.5,0.0507381,0.0504024,0.00993935,22,-0.00175593,10,5.00967e-07,-5.00264,0.015812,3.73134,1.4143,0.0504024,
2,0,0,1,0,41765,0.0522363,0.0519081,0.0114967,22,-0.00172325,10,5.9677e-07,-4.93943,0.0203012,2.90624,1.34444,0.0519081,
2,1,0,1,0,41766.5,0.0537345,0.0534076,0.0145635,22,-0.00168713,10,7.77803e-07,-4.83673,0.0241124,2.44687,1.31237,0.0534076,
2,1,0,1,0,41768,0.0552327,0.0548932,0.0161197,22,-0.00164842,10,8.84862e-07,-4.79264,0.0279927,2.10769,1.30443,0.0548932,
2,1,0,1,0,41769.5,0.0567309,0.0564287,0.0172677,22,-0.00160688,10,9.74392e-07,-4.76277,0.0360689,1.63576,1.10011,0.0564287,
2,1,0,1,0,41771,0.0582291,0.0579196,0.0196459,22,-0.00156242,10,1.13788e-06,-4.70673,0.0399964,1.47513,1.10934,0.0579196,
2,1,0,1,0,41772.5,0.0597273,0.0594064,0.0212562,22,-0.00151549,10,1.26276e-06,-4.67251,0.0494261,1.1937,0.980432,0.05940637,
2,1,0,1,0,41774,0.0612255,0.0608633,0.0224284,22,-0.00146595,10,1.36507e-06,-4.6492,0.0575494,1.02521,0.899928,0.0608633,
2,1,0,1,0,41775.5,0.0627237,0.0623957,0.0239065,22,-0.00141405,10,1.49166e-06,-4.62148,0.0564933,1.04437,0.997166,0.0623957,
2,1,0,1,0,41777,0.0642219,0.0638887,0.025775,22,-0.00136019,10,1.64673e-06,-4.5888,0.0596709,0.988756,1.01667,0.0638887,
2,1,0,1,0,41778.5,0.0657201,0.0653627,0.0276758,22,-0.00130353,10,1.80896e-06,-4.5579,0.0544511,1.08354,1.17127,0.0653627,
2,1,0,1,0,41780,0.0672183,0.0668748,0.0292511,22,-0.00124454,10,1.95616e-06,-4.53386,0.0666241,0.885566,1.00857,0.0668748,
2,1,0,1,0,41781.5,0.0687164,0.0683773,0.0314516,22,-0.00118285,10,2.15058e-06,-4.50236,0.0656681,0.898457,1.06792,0.0683773,
2,1,0,1,0,41783,0.0702146,0.0698895,0.0323758,22,-0.00111906,10,2.26273e-06,-4.48978,0.0715339,0.824784,1.05808,0.0698895,
2,1,0,1,0,41784.5,0.0717128,0.0713391,0.0341936,22,-0.00105265,10,2.43934e-06,-4.46605,0.0707148,0.834337,1.10359,0.0713391,
2,1,0,1,0,41786,0.073211,0.072882,0.0352732,22,-0.000983568,10,2.57078e-06,-4.45256,0.0801436,0.736179,1.02146,0.072882,
2,1,0,1,0,41787.5,0.0747092,0.0743443,0.0366142,22,-0.000912946,10,2.72206e-06,-4.43635,0.0915078,0.644753,0.929445,0.0743443,
2,1,0,1,0,41789,0.0762074,0.075832,0.0378603,22,-0.000840544,10,2.87103e-06,-4.42182,0.0894684,0.659451,0.987589,0.075832,
2,1,0,1,0,41790.4,0.0777055,0.077378,0.0396806,22,-0.00076586,10,3.0704e-06,-4.40142,0.0750742,0.785889,1.2144,0.07737802,
2,1,0,1,0,41791.9,0.0792037,0.078888,0.0413603,22,-0.00068871,10,3.26284e-06,-4.38342,0.089613,0.658387,1.05107,0.078888,
2,1,0,1,0,41793.4,0.0807019,0.0803631,0.0427948,22,-0.000609005,10,3.43913e-06,-4.36861,0.0985391,0.598747,0.986874,0.0803631,
2,1,0,1,0,41794.9,0.0822001,0.0818656,0.0438448,22,-0.000527373,10,3.58938e-06,-4.35808,0.0887286,0.664949,1.14564,0.0818656,
2,1,0,1,0,41796.4,0.0836983,0.0833641,0.0460222,22,-0.000443319,10,3.8366e-06,-4.33703,0.0909487,0.648717,1.16506,0.0833641,
2,1,0,1,0,41797.9,0.0851965,0.0848592,0.0475091,22,-0.000356434,10,4.03159e-06,-4.32322,0.0985164,0.598885,1.12625,0.0848592,
2,1,0,1,0,41799.4,0.0866947,0.0863248,0.0492187,22,-0.000266885,10,4.24879e-06,-4.30787,0.119663,0.49305,0.940826,0.0863248,
2,1,0,1,0,41800.9,0.0881929,0.0878443,0.0512709,22,-0.000174635,10,4.50385e-06,-4.29013,0.10161,0.580653,1.16092,0.0878443,
2,1,0,1,0,41802.4,0.0896911,0.0893501,0.0530955,22,-8.06107e-05,10,4.74409e-06,-4.27494,0.106128,0.555933,1.15314,0.0893501,
2,1,0,1,0,41803.9,0.0911893,0.0908092,0.0545781,22,1.66676e-05,10,4.9562e-06,-4.26298,0.08912,0.662029,1.41091,0.0908092,
2,1,0,1,0,41805.4,0.0926875,0.0923542,0.0567921,22,0.000117302,10,5.24499e-06,-4.24571,0.100076,0.589549,1.28865,0.0923542,
2,1,0,1,0,41806.9,0.0941857,0.0938441,0.0589765,22,0.000220402,10,5.5346e-06,-4.22932,0.102538,0.575395,1.31733,0.0938441,
2,1,0,1,0,41808.4,0.0956839,0.0953287,0.0602462,22,0.000325885,10,5.74319e-06,-4.22007,0.0933645,0.631932,1.49431,0.0953287,
2,1,0,1,0,41809.9,0.0971821,0.0968674,0.0621499,22,0.000435211,10,6.0203e-06,-4.20656,0.0885467,0.666315,1.62252,0.0968674,
2,1,0,1,0,41811.4,0.0986803,0.0983254,0.0651297,22,0.000548005,10,6.4039e-06,-4.18622,0.104491,0.564643,1.43215,0.0983254,
2,1,0,1,0,41812.9,0.100178,0.0998502,0.066481,22,0.000663828,10,6.63814e-06,-4.1773,0.110787,0.532555,1.39367,0.0998502,
2,1,0,1,0,41814.4,0.101677,0.101329,0.0690641,22,0.000782674,10,6.99823e-06,-4.16075,0.114589,0.514886,1.3881,0.101329,
2,1,0,1,0,41815.9,0.103175,0.10285,0.0711165,22,0.000905053,10,7.31434e-06,-4.14803,0.127846,0.461492,1.27714,0.1028501,
2,1,0,1,0,41817.4,0.104673,0.104325,0.0734416,22,0.00103009,10,7.6618e-06,-4.13406,0.140124,0.421055,1.20093,0.104325,
2,1,0,1,0,41818.9,0.106171,0.105837,0.0749042,22,0.00115819,10,7.92765e-06,-4.12549,0.131014,0.450334,1.30998,0.105837,
2,1,0,1,0,41820.4,0.107669,0.107326,0.0764657,22,0.00128888,10,8.20676e-06,-4.11653,0.156969,0.375871,1.12258,0.107326,
2,1,0,1,0,41821.9,0.109167,0.108811,0.0786684,22,0.00142218,10,8.55996e-06,-4.1042,0.177492,0.33241,1.02264,0.108811,
2,1,0,1,0,41823.4,0.110666,0.110337,0.0802459,22,0.00155825,10,8.85406e-06,-4.09558,0.135244,0.436248,1.37789,0.110337,
2,1,0,1,0,41824.9,0.112164,0.111831,0.0819625,22,0.0016972,10,9.16592e-06,-4.08638,0.163082,0.361781,1.15578,0.111831,
2,1,0,1,0,41826.4,0.113662,0.113331,0.08412,22,0.00183917,10,9.53342e-06,-4.0751,0.181538,0.325,1.06373,0.113331,
2,1,0,1,0,41827.9,0.11516,0.114815,0.0863048,22,0.00198329,10,9.90905e-06,-4.06397,0.168966,0.349183,1.16724,0.114815,
2,1,0,1,0,41829.4,0.116658,0.116318,0.0873972,22,0.00213012,10,1.01659e-05,-4.0585,0.181686,0.324737,1.1039,0.116318,
2,1,0,1,0,41830.9,0.118157,0.117801,0.0891593,22,0.0022798,10,1.0503e-05,-4.04983,0.199768,0.295343,1.02392,0.117801,
2,1,0,1,0,41832.4,0.119655,0.119328,0.0907023,22,0.00243152,10,1.08233e-05,-4.04238,0.222335,0.265365,0.938483,0.119328,
2,1,0,1,0,41833.9,0.121153,0.120828,0.0918325,22,0.00258527,10,1.1096e-05,-4.037,0.224469,0.262842,0.94577,0.120828,
2,1,0,1,0,41835.4,0.122651,0.12231,0.0931782,22,0.0027415,10,1.13966e-05,-4.03069,0.194543,0.303275,1.10277,0.12231,
2,1,0,1,0,41836.9,0.124149,0.123863,0.0950869,22,0.00290018,10,1.17778e-05,-4.02188,0.246278,0.239566,0.885779,0.123863,
2,1,0,1,0,41838.4,0.125648,0.125318,0.096037,22,0.00306059,10,1.20352e-05,-4.01756,0.33025,0.178652,0.669335,0.125318,
2,1,0,1,0,41839.9,0.127146,0.126791,0.0959465,22,0.00322206,10,1.21651e-05,-4.01797,0.386412,0.152687,0.5754,0.126791,
2,1,0,1,0,41841.4,0.128644,0.128307,0.0979849,22,0.00338525,10,1.25722e-05,-4.00884,0.547542,0.107754,0.407788,0.128307,
2,1,0,1,0,41842.9,0.130142,0.129824,0.0981629,22,0.00354922,10,1.27439e-05,-4.00805,-1.85567,-0.0317944,-0.121671,0.1298237,
2,1,0,1,0,41844.4,0.13164,0.131301,0.0980782,22,0.00371347,10,1.28778e-05,-4.00843,-0.541584,-0.10894,-0.412042,0.131301,
2,1,0,1,0,41845.9,0.133139,0.132774,0.0967651,22,0.00387679,10,1.28479e-05,-4.01428,-0.276592,-0.21331,-0.804619,0.132774,
2,1,0,1,0,41847.4,0.134637,0.134335,0.0953633,22,0.00403776,10,1.28106e-05,-4.02062,-0.175838,-0.335537,-1.2454,0.134335,
2,1,0,1,0,41848.9,0.136135,0.135757,0.0932451,22,0.00419632,10,1.26586e-05,-4.03037,-0.143103,-0.41229,-1.49332,0.135757,
2,1,0,1,0,41850.4,0.137633,0.137299,0.0908256,22,0.00435136,10,1.24702e-05,-4.04179,-0.105303,-0.560289,-1.97269,0.137299,
2,1,0,1,0,41851.9,0.139131,0.138837,0.087936,22,0.00450192,10,1.22088e-05,-4.05583,-0.0983225,-0.600066,-2.04432,0.138837,
2,1,0,1,0,41853.4,0.14063,0.14026,0.0848369,22,0.00464699,10,1.18992e-05,-4.07142,-0.0783125,-0.753392,-2.45263,0.14026,
2,1,0,1,0,41854.9,0.142128,0.141827,0.0803114,22,0.0047869,10,1.13904e-05,-4.09522,-0.0818203,-0.721092,-2.25199,0.141827,
2,1,0,1,0,41856.4,0.143626,0.143285,0.0769983,22,0.00492118,10,1.10327e-05,-4.11352,-0.069676,-0.846777,-2.52842,0.143285,
2,1,0,1,0,41857.9,0.145124,0.144795,0.0728279,22,0.00504943,10,1.05452e-05,-4.1377,-0.0683163,-0.863631,-2.47408,0.144795,
2,1,0,1,0,41859.4,0.146622,0.146319,0.069043,22,0.00517186,10,1.01023e-05,-4.16088,-0.0763415,-0.772843,-2.09452,0.146319,
2,1,0,1,0,41860.9,0.14812,0.147788,0.066724,22,0.00528976,10,9.861e-06,-4.17572,-0.0798309,-0.739062,-1.90742,0.147788,
2,1,0,1,0,41862.4,0.149619,0.149272,0.0630812,22,0.00540289,10,9.41624e-06,-4.2001,-0.0801482,-0.736137,-1.83412,0.149272,
2,1,0,1,0,41863.9,0.151117,0.150791,0.0608462,22,0.00551159,10,9.17507e-06,-4.21577,-0.0828648,-0.712003,-1.68928,0.150791,
2,1,0,1,0,41865.4,0.152615,0.152282,0.0579596,22,0.00561668,10,8.82621e-06,-4.23687,-0.108039,-0.546101,-1.25302,0.152282,
2,1,0,1,0,41866.9,0.154113,0.15379,0.0569758,22,0.00571886,10,8.7623e-06,-4.24431,-0.159334,-0.370291,-0.826936,0.15379,
2,1,0,1,0,41868.4,0.155611,0.155272,0.0554236,22,0.00581884,10,8.60576e-06,-4.2563,-0.125158,-0.471404,-1.02993,0.155272,
2,1,0,1,0,41869.9,0.15711,0.156765,0.0547038,22,0.00591727,10,8.57566e-06,-4.26198,-0.17906,-0.329498,-0.707343,0.156765,
2,1,0,1,0,41871.4,0.158608,0.158277,0.0537866,22,0.00601392,10,8.51316e-06,-4.26933,-0.210037,-0.280903,-0.59485,0.158277,
2,1,0,1,0,41872.8,0.160106,0.159754,0.0531539,22,0.00610939,10,8.49153e-06,-4.27447,-0.3972,-0.14854,-0.309976,0.1597537,
2,1,0,1,0,41874.3,0.161604,0.161275,0.0522949,22,0.00620386,10,8.43388e-06,-4.28154,-0.280131,-0.210616,-0.429339,0.161275,
2,1,0,1,0,41875.8,0.163102,0.162776,0.0524681,22,0.00629774,10,8.54054e-06,-4.2801,-0.361725,-0.163107,-0.331214,0.162776,
2,1,0,1,0,41877.3,0.164601,0.164277,0.0516263,22,0.00639063,10,8.48102e-06,-4.28713,-0.886289,-0.0665697,-0.13444,0.164277,
2,1,0,1,0,41878.8,0.166099,0.165761,0.0512952,22,0.0064825,10,8.50274e-06,-4.28992,-0.411908,-0.143236,-0.285835,0.165761,
2,1,0,1,0,41880.3,0.167597,0.167253,0.05077,22,0.00657429,10,8.49143e-06,-4.29439,-1.59738,-0.0369354,-0.0734397,0.167253,
2,1,0,1,0,41881.8,0.169095,0.168759,0.0509727,22,0.00666571,10,8.60209e-06,-4.29266,-15.0118,-0.00393025,-0.00786089,0.168759,
2,1,0,1,0,41883.3,0.170593,0.170296,0.0509437,22,0.00675715,10,8.67552e-06,-4.29291,-27.5724,-0.00213982,-0.00425346,0.170296,
2,1,0,1,0,41884.8,0.172091,0.171782,0.0512728,22,0.00684836,10,8.80774e-06,-4.29011,-1.84129,-0.0320427,-0.0639936,0.171782,
2,1,0,1,0,41886.3,0.17359,0.173248,0.0509366,22,0.00693959,10,8.82469e-06,-4.29297,1.08219,0.0545191,0.10824,0.173248,
2,1,0,1,0,41887.8,0.175088,0.17477,0.0512232,22,0.00703092,10,8.95229e-06,-4.29053,6.16019,0.00957763,0.0190005,0.17477,
2,1,0,1,0,41889.3,0.176586,0.176259,0.0509817,22,0.00712232,10,8.98598e-06,-4.29259,0.882545,0.0668521,0.133025,0.176259,
2,1,0,1,0,41890.8,0.178084,0.177747,0.050856,22,0.00721365,10,9.03948e-06,-4.29366,-0.894398,-0.0659662,-0.131864,0.177747,
2,1,0,1,0,41892.3,0.179582,0.179221,0.0510203,22,0.00730477,10,9.14389e-06,-4.29226,-1.29685,-0.0454948,-0.0904264,0.179221,
2,1,0,1,0,41893.8,0.181081,0.180727,0.0507865,22,0.00739593,10,9.17851e-06,-4.29425,19.9036,0.00296429,0.00590517,0.180727,
2,1,0,1,0,41895.3,0.182579,0.182234,0.0511727,22,0.00748716,10,9.32542e-06,-4.29096,-2.06653,-0.0285503,-0.056784,0.182234,
2,1,0,1,0,41896.8,0.184077,0.183739,0.0510446,22,0.00757833,10,9.37888e-06,-4.29205,11.9744,0.00492719,0.00988326,0.183739,
2,1,0,1,0,41898.3,0.185575,0.185252,0.0506749,22,0.00766934,10,9.38764e-06,-4.29521,1.64616,0.035841,0.0718965,0.185252,
2,1,0,1,0,41899.8,0.187073,0.18674,0.0514751,22,0.00776092,10,9.61246e-06,-4.2884,0.585093,0.100839,0.202572,0.18674,
2,1,0,1,0,41901.3,0.188572,0.188239,0.0518933,22,0.00785311,10,9.76837e-06,-4.28489,1.70381,0.0346282,0.0699001,0.1882394,
2,1,0,1,0,41902.8,0.19007,0.189704,0.0519496,22,0.00794541,10,9.85505e-06,-4.28442,-2.27678,-0.0259138,-0.0523577,0.189704,
2,1,0,1,0,41904.3,0.191568,0.191224,0.052013,22,0.00803755,10,9.94615e-06,-4.28389,2.8252,0.0208835,0.0421325,0.191224,
2,1,0,1,0,41905.8,0.193066,0.192705,0.0522163,22,0.00813005,10,1.00623e-05,-4.28219,0.961638,0.0613536,0.124611,0.192705,
2,1,0,1,0,41907.3,0.194564,0.194245,0.0517882,22,0.00822249,10,1.00596e-05,-4.28577,1.40728,0.0419248,0.0853833,0.194245,
2,1,0,1,0,41908.8,0.196063,0.195725,0.0520997,22,0.00831504,10,1.01972e-05,-4.28316,1.95452,0.0301864,0.0615437,0.195725,
2,1,0,1,0,41910.3,0.197561,0.197225,0.0519545,22,0.00840736,10,1.02467e-05,-4.28438,2.40572,0.0245249,0.0498377,0.197225,
2,1,0,1,0,41911.8,0.199059,0.198748,0.0518893,22,0.00849974,10,1.03129e-05,-4.28492,10.7005,0.00551378,0.0112004,0.198748,
2,1,0,1,0,41913.3,0.200557,0.200237,0.0523134,22,0.00859237,10,1.04751e-05,-4.28139,1.777,0.033202,0.0676223,0.200237,
2,1,0,1,0,41914.8,0.202055,0.201729,0.052025,22,0.0086847,10,1.04949e-05,-4.28379,0.548968,0.107474,0.220899,0.201729,
2,1,0,1,0,41916.3,0.203554,0.20321,0.052591,22,0.00877743,10,1.0687e-05,-4.27909,0.542937,0.108668,0.221549,0.20321,
2,1,0,1,0,41917.8,0.205052,0.204702,0.05273,22,0.00887069,10,1.07939e-05,-4.27794,0.940919,0.0627047,0.129127,0.204702,
2,1,0,1,0,41919.3,0.20655,0.206239,0.0525376,22,0.00896392,10,1.08353e-05,-4.27953,1.68585,0.0349972,0.0721828,0.206239,
2,1,0,1,0,41920.8,0.208048,0.20771,0.0530338,22,0.00905751,10,1.10157e-05,-4.27545,-3.59684,-0.0164033,-0.0337689,0.20771,
2,1,0,1,0,41922.3,0.209546,0.20922,0.052436,22,0.00915084,10,1.09707e-05,-4.28037,1.49417,0.0394868,0.0813989,0.20922,
2,1,0,1,0,41923.8,0.211044,0.210694,0.0529697,22,0.00924395,10,1.11604e-05,-4.27597,0.73561,0.0802055,0.165757,0.210694,
2,1,0,1,0,41925.3,0.212543,0.212191,0.0529832,22,0.00933764,10,1.12425e-05,-4.27586,5.35513,0.0110175,0.0227504,0.212191,
2,1,0,1,0,41926.8,0.214041,0.213742,0.0529702,22,0.00943146,10,1.1322e-05,-4.27597,3.37575,0.0174776,0.0362456,0.213742,
2,1,0,1,0,41928.3,0.215539,0.215217,0.0528517,22,0.00952498,10,1.13746e-05,-4.27694,0.811334,0.0727197,0.151507,0.215217,
2,1,0,1,0,41929.8,0.217037,0.216699,0.0529605,22,0.00961839,10,1.14765e-05,-4.27605,0.372545,0.15837,0.331453,0.216699,
2,1,0,1,0,41931.3,0.218535,0.218183,0.0543124,22,0.00971304,10,1.185e-05,-4.2651,0.491296,0.12009,0.25121,0.218183,
2,1,0,1,0,41932.8,0.220034,0.21973,0.0541167,22,0.00980843,10,1.18911e-05,-4.26667,0.728547,0.0809831,0.171201,0.21973,
2,1,0,1,0,41934.3,0.221532,0.221207,0.0539414,22,0.00990359,10,1.19322e-05,-4.26808,0.981416,0.0601172,0.127528,0.221207,
2,1,0,1,0,41935.8,0.22303,0.222763,0.0543412,22,0.00999899,10,1.21052e-05,-4.26487,-3.40733,-0.0173156,-0.0368751,0.222763,
2,1,0,1,0,41937.3,0.224528,0.224181,0.0547167,22,0.0100947,10,1.22664e-05,-4.26188,1.85587,0.031791,0.0674096,0.2241808,
2,1,0,1,0,41938.8,0.226026,0.22573,0.0544909,22,0.0101905,10,1.23002e-05,-4.26368,2.0112,0.0293357,0.0624777,0.22573,
2,1,0,1,0,41940.3,0.227525,0.227153,0.0550962,22,0.0102865,10,1.25153e-05,-4.25888,0.797383,0.073992,0.158281,0.227153,
2,1,0,1,0,41941.8,0.229023,0.228699,0.0553626,22,0.0103828,10,1.26614e-05,-4.25678,0.740569,0.0796685,0.172145,0.228699,
2,1,0,1,0,41943.3,0.230521,0.230232,0.0553348,22,0.0104793,10,1.27399e-05,-4.257,0.739924,0.079738,0.173172,0.230232,
2,1,0,1,0,41944.8,0.232019,0.23171,0.0559054,22,0.0105765,10,1.29538e-05,-4.25255,0.468456,0.125946,0.274452,0.23171,
2,1,0,1,0,41946.3,0.233517,0.233204,0.0563354,22,0.0106743,10,1.31376e-05,-4.24922,0.846829,0.0696717,0.151971,0.233204,
2,1,0,1,0,41947.8,0.235016,0.234717,0.0561776,22,0.0107722,10,1.31858e-05,-4.25044,0.935311,0.0630806,0.138383,0.234717,
2,1,0,1,0,41949.3,0.236514,0.236176,0.0565739,22,0.0108703,10,1.33614e-05,-4.24738,0.487414,0.121047,0.266353,0.236176,
2,1,0,1,0,41950.8,0.238012,0.237707,0.0572544,22,0.0109694,10,1.36098e-05,-4.24219,0.907692,0.065,0.143456,0.237707,
2,1,0,1,0,41952.3,0.23951,0.23918,0.0568027,22,0.0110684,10,1.35861e-05,-4.24563,-1.84565,-0.031967,-0.0709396,0.23918,
2,1,0,1,0,41953.8,0.241008,0.240683,0.0568479,22,0.0111674,10,1.36823e-05,-4.24529,1.49244,0.0395326,0.0882624,0.240683,
2,1,0,1,0,41955.3,0.242506,0.242165,0.0569451,22,0.0112663,10,1.37901e-05,-4.24454,0.623447,0.0946351,0.211752,0.242165,
2,1,0,1,0,41956.7,0.244005,0.2437,0.0570277,22,0.0113658,10,1.38976e-05,-4.24391,0.435937,0.135341,0.302802,0.2437,
2,1,0,1,0,41958.2,0.245503,0.245162,0.0576428,22,0.0114656,10,1.41318e-05,-4.23925,0.92116,0.0640497,0.143561,0.245162,
2,1,0,1,0,41959.7,0.247001,0.246665,0.0580506,22,0.0115658,10,1.4319e-05,-4.23619,0.660874,0.0892757,0.201866,0.246665,
2,1,0,1,0,41961.2,0.248499,0.24818,0.0578554,22,0.0116663,10,1.43585e-05,-4.23766,0.525068,0.112366,0.255028,0.24818,
2,1,0,1,0,41962.7,0.249997,0.249677,0.0585701,22,0.0117675,10,1.46236e-05,-4.23232,0.476583,0.123798,0.281433,0.2496772,
2,1,0,1,0,41964.2,0.251496,0.251149,0.0588663,22,0.011869,10,1.47842e-05,-4.23013,1.96867,0.0299695,0.0691182,0.251149,
2,1,0,1,0,41965.7,0.252994,0.252672,0.0589853,22,0.0119708,10,1.49039e-05,-4.22926,2.29498,0.0257083,0.0588505,0.252672,
2,1,0,1,0,41967.2,0.254492,0.254179,0.0597349,22,0.0120731,10,1.51833e-05,-4.22377,0.886657,0.0665421,0.154343,0.254179,
2,1,0,1,0,41968.7,0.25599,0.255684,0.059192,22,0.0121753,10,1.51345e-05,-4.22774,0.608592,0.0969451,0.224676,0.255684,
2,1,0,1,0,41970.2,0.257488,0.257188,0.0596111,22,0.0122779,10,1.53313e-05,-4.22467,5.83074,0.0101188,0.0235332,0.257188,
2,1,0,1,0,41971.7,0.258987,0.258656,0.0597108,22,0.0123807,10,1.54446e-05,-4.22395,0.747827,0.0788952,0.183175,0.258656,
2,1,0,1,0,41973.2,0.260485,0.260208,0.0600868,22,0.0124834,10,1.56351e-05,-4.22122,19.217,0.0030702,0.00713982,0.260208,
2,1,0,1,0,41974.7,0.261983,0.26165,0.0599764,22,0.0125862,10,1.56928e-05,-4.22202,2.00589,0.0294134,0.0686163,0.26165,
2,1,0,1,0,41976.2,0.263481,0.263184,0.0602988,22,0.0126893,10,1.58696e-05,-4.21969,0.989171,0.0596459,0.139888,0.2631835,
2,1,0,1,0,41977.7,0.264979,0.264659,0.0601712,22,0.012793,10,1.59248e-05,-4.22061,1.74704,0.0337714,0.0794119,0.264659,
2,1,0,1,0,41979.2,0.266477,0.266179,0.0602531,22,0.0128968,10,1.60381e-05,-4.22002,1.35341,0.0435935,0.103454,0.266179,
2,1,0,1,0,41980.7,0.267976,0.267654,0.0605636,22,0.0130005,10,1.62101e-05,-4.21779,0.786707,0.0749962,0.17658,0.267654,
2,1,0,1,0,41982.2,0.269474,0.26914,0.0606782,22,0.0131048,10,1.63309e-05,-4.21697,1.02344,0.0576487,0.136038,0.26914,
2,1,0,1,0,41983.7,0.270972,0.270686,0.0611503,22,0.013209,10,1.65525e-05,-4.2136,-1.8962,-0.0311148,-0.0737339,0.270686,
2,1,0,1,0,41985.2,0.27247,0.272158,0.0612295,22,0.0133136,10,1.66641e-05,-4.21304,3.73708,0.0157877,0.0376239,0.2721577,
2,1,0,1,0,41986.7,0.273968,0.2737,0.061396,22,0.0134179,10,1.68041e-05,-4.21186,1.91764,0.030767,0.0734255,0.2737,
2,1,0,1,0,41988.2,0.275467,0.27516,0.0607896,22,0.0135225,10,1.67269e-05,-4.21617,2.13449,0.0276413,0.0658344,0.27516,
2,1,0,1,0,41989.7,0.276965,0.276679,0.0610824,22,0.0136275,10,1.69002e-05,-4.21408,0.584486,0.100943,0.242314,0.276679,
2,1,0,1,0,41991.2,0.278463,0.278145,0.0617271,22,0.0137326,10,1.71691e-05,-4.20952,2.5453,0.02318,0.0557675,0.278145,
2,1,0,1,0,41992.7,0.279961,0.279653,0.0617585,22,0.0138382,10,1.72709e-05,-4.2093,0.568861,0.103716,0.250054,0.279653,
2,1,0,1,0,41994.2,0.281459,0.281119,0.0623314,22,0.0139439,10,1.75226e-05,-4.20529,1.5563,0.0379104,0.0920499,0.281119,
2,1,0,1,0,41995.7,0.282958,0.282655,0.0623393,22,0.0140499,10,1.76205e-05,-4.20524,1.78194,0.03311,0.0800409,0.282655,
2,1,0,1,0,41997.2,0.284456,0.284183,0.0619864,22,0.0141562,10,1.76155e-05,-4.2077,1.7753,0.0332338,0.080652,0.284183,
2,1,0,1,0,41998.7,0.285954,0.28562,0.0625925,22,0.0142624,10,1.78777e-05,-4.20348,1.66619,0.0354102,0.0860855,0.28562,
2,1,0,1,0,42000.2,0.287452,0.287116,0.0623424,22,0.0143687,10,1.78995e-05,-4.20522,6.26132,0.00942293,0.0230311,0.287116,
2,1,0,1,0,42001.7,0.28895,0.28862,0.0624842,22,0.0144752,10,1.80342e-05,-4.20423,0.747919,0.0788855,0.193085,0.28862,
2,1,0,1,0,42003.2,0.290448,0.290124,0.0622349,22,0.0145818,10,1.80558e-05,-4.20597,0.737196,0.0800329,0.196795,0.290124,
2,1,0,1,0,42004.7,0.291947,0.291625,0.0632217,22,0.0146888,10,1.8437e-05,-4.19913,0.555413,0.106227,0.262986,0.291625,
2,1,0,1,0,42006.2,0.293445,0.293075,0.0631846,22,0.0147963,10,1.85178e-05,-4.19939,0.526577,0.112044,0.27739,0.293075,
2,1,0,1,0,42007.7,0.294943,0.294621,0.0642509,22,0.0149046,10,1.89297e-05,-4.19212,0.976218,0.0604373,0.150198,0.294621,
2,1,0,1,0,42009.2,0.296441,0.296098,0.0647455,22,0.0150136,10,1.9171e-05,-4.18879,0.826704,0.0713677,0.178567,0.296098,
2,1,0,1,0,42010.7,0.297939,0.297644,0.0649561,22,0.0151227,10,1.93338e-05,-4.18738,2.17711,0.0271001,0.0679744,0.297644,
2,1,0,1,0,42012.2,0.299438,0.299134,0.0645093,22,0.015232,10,1.9297e-05,-4.19038,-0.00424118,-13.9112,-22.3511,0.299134,
2,1,0,1,0,42013,0.299737,0.299447,0.0321156,22,0.015281,10,9.61695e-06,-4.49328,0.00218334,27.0228,38.0308,0.299447,
2,1,0,1,0,42014.5,0.298239,0.297969,0.0193585,22,0.0153042,10,5.76822e-06,-4.71313,0.00546801,10.79,13.7885,0.297969,
2,1,0,1,0,42016,0.296741,0.296446,0.0148831,22,0.0153167,10,4.41203e-06,-4.82731,0.0127649,4.62206,2.79283,0.296446,
2,1,0,1,0,42017.5,0.295243,0.294943,0.0109849,22,0.0153234,10,3.23993e-06,-4.9592,0.0132294,4.45976,2.02374,0.294943,
2,1,0,1,0,42019,0.293745,0.293404,0.00880745,22,0.0153257,10,2.58414e-06,-5.05515,0.0116823,5.05039,1.73526,0.293404,
2,1,0,1,0,42020.5,0.292246,0.291908,0.00632088,22,0.0153248,10,1.84511e-06,-5.19922,0.0132441,4.45481,1.18504,0.291908,
2,0,0,1,0,42022,0.290748,0.29043,0.0048126,22,0.0153207,10,1.39772e-06,-5.31762,0.0109356,5.39522,1.03158,0.29043,
2,1,0,1,0,42023.5,0.28925,0.288946,0.00309997,22,0.0153143,10,8.95723e-07,-5.50864,0.0066285,8.90096,0.994605,0.288946,
2,1,0,1,0,42025,0.287752,0.287466,0.00187751,22,0.0153056,10,5.3972e-07,-5.72642,0.00299041,19.7297,1.09498,0.287466,
2,1,0,1,0,42026.5,0.286254,0.285898,0.000392012,22,0.0152947,10,1.12076e-07,-6.4067,0.0189038,3.12106,0.937302,0.285898,
2,0,0,1,0,42028,0.284755,0.284446,-0.000869485,22,0.0152816,10,-2.47321e-07,-6.06074,-0.0111749,-5.27971,0.938646,0.284446,
2,1,0,1,0,42029.5,0.283257,0.282926,-0.00188533,22,0.0152663,10,-5.33408e-07,-5.72461,-0.00537279,-10.9813,0.725372,0.282926,
2,1,0,1,0,42031,0.281759,0.281424,-0.00301386,22,0.0152498,10,-8.4817e-07,-5.52088,-0.00891788,-6.61592,0.79412,0.281424,
2,0,0,1,0,42032.5,0.280261,0.279915,-0.00379358,22,0.0152314,10,-1.06188e-06,-5.42095,-0.0116103,-5.0817,0.835627,0.279915,
2,1,0,1,0,42034,0.278763,0.278426,-0.00598644,22,0.0152111,10,-1.66678e-06,-5.22283,-0.0180378,-3.27091,0.664028,0.278426,
2,1,0,1,0,42035.5,0.277264,0.276962,-0.00673821,22,0.0151886,10,-1.86623e-06,-5.17146,-0.0226527,-2.60455,0.661073,0.276962,
2,0,0,1,0,42037,0.275766,0.275466,-0.00736901,22,0.0151653,10,-2.02991e-06,-5.13259,-0.0381387,-1.54698,0.463997,0.275466,
2,0,0,1,0,42038.5,0.274268,0.273962,-0.00847646,22,0.0151403,10,-2.32223e-06,-5.07179,-0.0304143,-1.93988,0.639022,0.2739616,
2,0,0,1,0,42040,0.27277,0.272497,-0.00914698,22,0.015114,10,-2.49253e-06,-5.03872,-0.0438064,-1.34683,0.490159,0.272497,
2,0,0,1,0,42041.5,0.271272,0.27097,-0.00991804,22,0.0150866,10,-2.68749e-06,-5.00357,-0.0591673,-0.997172,0.400949,0.27097,
2,1,0,1,0,42043,0.269774,0.26945,-0.0110246,22,0.0150578,10,-2.97058e-06,-4.95764,-0.0417651,-1.41266,0.591124,0.26945,
2,1,0,1,0,42044.5,0.268275,0.267972,-0.011844,22,0.0150279,10,-3.17387e-06,-4.9265,-0.0580217,-1.01686,0.463085,0.267972,
2,1,0,1,0,42046,0.266777,0.266456,-0.0126037,22,0.0149969,10,-3.35834e-06,-4.8995,-0.0549065,-1.07455,0.511967,0.266456,
2,0,0,1,0,42047.5,0.265279,0.264926,-0.0131236,22,0.0149645,10,-3.47679e-06,-4.88195,-0.0520396,-1.13375,0.579087,0.264926,
2,0,0,1,0,42049,0.263781,0.263401,-0.0141013,22,0.014931,10,-3.71429e-06,-4.85074,-0.0696575,-0.847002,0.470015,0.263401,
2,0,0,1,0,42050.5,0.262283,0.261963,-0.0147601,22,0.0148963,10,-3.86661e-06,-4.83091,-0.0780037,-0.756374,0.428636,0.261963,
2,0,0,1,0,42052,0.260784,0.260484,-0.0152115,22,0.0148607,10,-3.96234e-06,-4.81783,-0.0678135,-0.870033,0.527503,0.260484,
2,0,0,1,0,42053.5,0.259286,0.258993,-0.0162816,22,0.0148241,10,-4.21682e-06,-4.7883,-0.0697887,-0.845409,0.523192,0.258993,
2,0,0,1,0,42055,0.257788,0.257481,-0.0173176,22,0.014786,10,-4.45894e-06,-4.76151,-0.0895193,-0.659076,0.427632,0.257481,
2,0,0,1,0,42056.5,0.25629,0.256,-0.0170897,22,0.0147474,10,-4.37497e-06,-4.76727,-0.0946902,-0.623085,0.430843,0.256,
2,0,0,1,0,42058,0.254792,0.254493,-0.0180908,22,0.0147078,10,-4.60399e-06,-4.74254,-0.0772364,-0.763888,0.534035,0.254493,
2,0,0,1,0,42059.5,0.253293,0.252957,-0.0188116,22,0.0146669,10,-4.75853e-06,-4.72557,-0.086569,-0.681537,0.495628,0.252957,
2,0,0,1,0,42061,0.251795,0.251479,-0.0190528,22,0.0146253,10,-4.79137e-06,-4.72004,-0.108799,-0.542284,0.412405,0.251479,
2,0,0,1,0,42062.5,0.250297,0.249991,-0.0201248,22,0.0145823,10,-5.03102e-06,-4.69627,-0.0888177,-0.664282,0.512892,0.2499911,
2,0,0,1,0,42064,0.248799,0.248494,-0.0207203,22,0.0145383,10,-5.14886e-06,-4.6836,-0.124724,-0.473046,0.382074,0.248494,
2,0,0,1,0,42065.5,0.247301,0.246957,-0.0215463,22,0.0144935,10,-5.321e-06,-4.66663,-0.135877,-0.434216,0.361428,0.246957,
2,0,0,1,0,42067,0.245802,0.245504,-0.0221773,22,0.0144478,10,-5.44462e-06,-4.65409,-0.137053,-0.43049,0.371568,0.245504,
2,0,0,1,0,42068.5,0.244304,0.243958,-0.0221838,22,0.0144011,10,-5.41191e-06,-4.65396,-0.133614,-0.44157,0.38567,0.243958,
2,0,0,1,0,42070,0.242806,0.242478,-0.0233412,22,0.0143536,10,-5.65974e-06,-4.63188,-0.122789,-0.4805,0.431993,0.242478,
2,0,0,1,0,42071.5,0.241308,0.240991,-0.0234551,22,0.0143054,10,-5.65248e-06,-4.62976,-0.142641,-0.413627,0.381393,0.240991,
2,0,0,1,0,42073,0.23981,0.239473,-0.0239229,22,0.014256,10,-5.72889e-06,-4.62119,-0.122836,-0.480315,0.448606,0.239473,
2,0,0,1,0,42074.5,0.238312,0.238011,-0.0246721,22,0.014206,10,-5.87222e-06,-4.60779,-0.223421,-0.264076,0.254171,0.238011,
2,0,0,1,0,42076,0.236813,0.236511,-0.0248927,22,0.0141553,10,-5.88741e-06,-4.60393,-0.136389,-0.432587,0.42588,0.236511,
2,0,0,1,0,42077.5,0.235315,0.234995,-0.0252917,22,0.0141038,10,-5.94343e-06,-4.59702,-0.11818,-0.499238,0.499841,0.2349948,
2,0,0,1,0,42079,0.233817,0.233485,-0.0267239,22,0.0140512,10,-6.23962e-06,-4.5731,-0.147139,-0.400982,0.411046,0.233485,
2,0,0,1,0,42080.4,0.232319,0.23199,-0.0268895,22,0.0139973,10,-6.23808e-06,-4.57042,-0.115491,-0.51086,0.532677,0.23199,
2,0,0,1,0,42081.9,0.230821,0.230481,-0.0277748,22,0.0139429,10,-6.40156e-06,-4.55635,-0.13945,-0.423091,0.457831,0.230481,
2,0,0,1,0,42083.4,0.229322,0.228999,-0.0280718,22,0.0138873,10,-6.42842e-06,-4.55173,-0.138244,-0.426781,0.466304,0.228999,
2,0,0,1,0,42084.9,0.227824,0.227544,-0.0284945,22,0.0138309,10,-6.48377e-06,-4.54524,-0.154261,-0.382469,0.433749,0.227544,
2,0,0,1,0,42086.4,0.226326,0.225993,-0.0295627,22,0.0137736,10,-6.68097e-06,-4.52926,-0.175327,-0.336515,0.384159,0.225993,
2,0,0,1,0,42087.9,0.224828,0.224553,-0.0299887,22,0.0137154,10,-6.73405e-06,-4.52304,-0.230696,-0.255748,0.295904,0.2245529,
2,0,0,1,0,42089.4,0.22333,0.223037,-0.030394,22,0.0136564,10,-6.77898e-06,-4.51721,-0.288634,-0.204411,0.240852,0.223037,
2,0,0,1,0,42090.9,0.221831,0.221511,-0.0309338,22,0.0135969,10,-6.85216e-06,-4.50957,-0.232494,-0.25377,0.30511,0.221511,
2,0,0,1,0,42092.4,0.220333,0.220023,-0.0319659,22,0.0135363,10,-7.03323e-06,-4.49531,-0.19655,-0.300179,0.365119,0.220023,
2,0,0,1,0,42093.9,0.218835,0.218483,-0.0318842,22,0.0134748,10,-6.96617e-06,-4.49642,-0.154388,-0.382153,0.47713,0.218483,
2,0,0,1,0,42095.4,0.217337,0.217009,-0.0327144,22,0.0134126,10,-7.09933e-06,-4.48526,-0.194421,-0.303466,0.384906,0.217009,
2,0,0,1,0,42096.9,0.215839,0.215493,-0.032949,22,0.0133496,10,-7.10028e-06,-4.48216,-0.203012,-0.290624,0.375668,0.215493,
2,0,0,1,0,42098.4,0.21434,0.21402,-0.03345,22,0.0132855,10,-7.15896e-06,-4.4756,-0.202018,-0.292053,0.379815,0.21402,
2,0,0,1,0,42099.9,0.212842,0.212551,-0.0339913,22,0.0132207,10,-7.2249e-06,-4.46863,-0.265322,-0.222371,0.297574,0.212551,
2,0,0,1,0,42101.4,0.211344,0.211034,-0.0347028,22,0.0131551,10,-7.32346e-06,-4.45964,-0.228483,-0.258225,0.34853,0.211034,
2,0,0,1,0,42102.9,0.209846,0.209528,-0.0349473,22,0.0130887,10,-7.32245e-06,-4.45659,-0.240067,-0.245765,0.337135,0.209528,
2,0,0,1,0,42104.4,0.208348,0.208008,-0.0359763,22,0.0130216,10,-7.48334e-06,-4.44398,-0.231115,-0.255284,0.356435,0.2080075,
2,0,0,1,0,42105.9,0.20685,0.206527,-0.0367859,22,0.0129534,10,-7.59729e-06,-4.43432,-0.164736,-0.358148,0.508016,0.206527,
2,0,0,1,0,42107.4,0.205351,0.205001,-0.0366785,22,0.0128842,10,-7.51914e-06,-4.43559,-0.216213,-0.272879,0.394039,0.205001,
2,0,0,1,0,42108.9,0.203853,0.203527,-0.0377248,22,0.0128141,10,-7.67803e-06,-4.42337,-0.208138,-0.283466,0.414664,0.203527,
2,0,0,1,0,42110.4,0.202355,0.202054,-0.037941,22,0.0127431,10,-7.66614e-06,-4.42089,-0.235472,-0.250561,0.373542,0.202054,
2,0,0,1,0,42111.9,0.200857,0.200502,-0.038794,22,0.0126714,10,-7.77827e-06,-4.41124,-0.191675,-0.307813,0.466893,0.2005019,
2,0,0,1,0,42113.4,0.199359,0.199043,-0.039268,22,0.0125985,10,-7.816e-06,-4.40596,-0.281302,-0.209739,0.321096,0.199043,
2,0,0,1,0,42114.9,0.19786,0.197538,-0.0400038,22,0.0125248,10,-7.90228e-06,-4.3979,-0.304495,-0.193763,0.300755,0.197538,
2,0,0,1,0,42116.4,0.196362,0.196068,-0.0402041,22,0.0124504,10,-7.88276e-06,-4.39573,-0.226816,-0.260123,0.409099,0.196068,
2,0,0,1,0,42117.9,0.194864,0.194513,-0.0411061,22,0.0123751,10,-7.99566e-06,-4.38609,-0.282949,-0.208518,0.333687,0.1945127,
2,0,0,1,0,42119.4,0.193366,0.193054,-0.04151,22,0.0122987,10,-8.01366e-06,-4.38185,-0.180305,-0.327223,0.5315,0.193054,
2,0,0,1,0,42120.9,0.191868,0.191525,-0.0418682,22,0.0122216,10,-8.01882e-06,-4.37812,-0.303982,-0.19409,0.319214,0.191525,
2,0,0,1,0,42122.4,0.190369,0.190056,-0.0427113,22,0.0121435,10,-8.11753e-06,-4.36946,-0.203745,-0.289577,0.485768,0.190056,
2,0,0,1,0,42123.9,0.188871,0.188555,-0.0438637,22,0.0120641,10,-8.27073e-06,-4.35789,-0.220222,-0.267911,0.454707,0.1885553,
2,0,0,1,0,42125.4,0.187373,0.187029,-0.0443378,22,0.0119835,10,-8.29247e-06,-4.35323,-0.223255,-0.264272,0.456889,0.187029,
2,0,0,1,0,42126.9,0.185875,0.185542,-0.0454537,22,0.0119017,10,-8.43356e-06,-4.34243,-0.219433,-0.268875,0.472722,0.185542,
2,0,0,1,0,42128.4,0.184377,0.184039,-0.0459025,22,0.0118189,10,-8.44785e-06,-4.33816,-0.24346,-0.242339,0.431067,0.184039,
2,0,0,1,0,42129.9,0.182878,0.182584,-0.0468543,22,0.0117348,10,-8.55486e-06,-4.32925,-0.234542,-0.251554,0.45568,0.1825842,
2,0,0,1,0,42131.4,0.18138,0.181059,-0.0473234,22,0.0116496,10,-8.56833e-06,-4.32492,-0.206578,-0.285607,0.525637,0.181059,
2,0,0,1,0,42132.9,0.179882,0.179569,-0.0477243,22,0.0115635,10,-8.56983e-06,-4.32126,-0.237063,-0.248879,0.46634,0.179569,
2,0,0,1,0,42134.4,0.178384,0.178042,-0.0488087,22,0.0114761,10,-8.68998e-06,-4.3115,-0.185452,-0.318142,0.608879,0.178042,
2,0,0,1,0,42135.9,0.176886,0.176575,-0.0494212,22,0.0113875,10,-8.72654e-06,-4.30609,-0.176927,-0.33347,0.649812,0.176575,
2,0,0,1,0,42137.4,0.175388,0.175053,-0.0504453,22,0.0112971,10,-8.83062e-06,-4.29718,-0.176936,-0.333455,0.663033,0.175053,
2,0,0,1,0,42138.9,0.173889,0.173558,-0.0515697,22,0.0112053,10,-8.95033e-06,-4.28761,-0.199083,-0.296358,0.59532,0.173558,
2,0,0,1,0,42140.4,0.172391,0.172034,-0.0524405,22,0.0111121,10,-9.02157e-06,-4.28033,-0.186808,-0.315833,0.646721,0.172034,
2,0,0,1,0,42141.9,0.170893,0.170532,-0.0532828,22,0.0110177,10,-9.08641e-06,-4.27341,-0.180461,-0.326941,0.68003,0.170532,
2,0,0,1,0,42143.4,0.169395,0.169061,-0.054642,22,0.0109215,10,-9.23781e-06,-4.26247,-0.147094,-0.401104,0.851097,0.169061,
2,0,0,1,0,42144.9,0.167897,0.167571,-0.055504,22,0.0108233,10,-9.30086e-06,-4.25568,-0.186214,-0.31684,0.688835,0.167571,
2,0,0,1,0,42146.4,0.166398,0.166065,-0.056862,22,0.0107238,10,-9.44281e-06,-4.24518,-0.275826,-0.213903,0.4743,0.166065,
2,0,0,1,0,42147.9,0.1649,0.164567,-0.0577611,22,0.0106228,10,-9.50556e-06,-4.23836,-0.17373,-0.339607,0.763653,0.164567,
2,0,0,1,0,42149.4,0.163402,0.163074,-0.0585656,22,0.0105201,10,-9.5505e-06,-4.23236,-0.162103,-0.363966,0.827087,0.1630737,
2,0,0,1,0,42150.9,0.161904,0.161566,-0.0594672,22,0.0104157,10,-9.60786e-06,-4.22572,-0.146657,-0.4023,0.945226,0.161566,
2,0,0,1,0,42152.4,0.160406,0.160105,-0.0615167,22,0.0103091,10,-9.84911e-06,-4.21101,-0.139968,-0.421525,1.00977,0.160105,
2,0,0,1,0,42153.9,0.158907,0.15859,-0.0622788,22,0.0102004,10,-9.87682e-06,-4.20566,-0.124673,-0.473237,1.16392,0.15859,
2,0,0,1,0,42155.4,0.157409,0.157106,-0.0644387,22,0.0100891,10,-1.01237e-05,-4.19085,-0.120395,-0.490053,1.23372,0.1571058,
2,0,0,1,0,42156.9,0.155911,0.155596,-0.0660279,22,0.00997501,10,-1.02737e-05,-4.18027,-0.127507,-0.46272,1.20462,0.155596,
2,0,0,1,0,42158.4,0.154413,0.154059,-0.0680989,22,0.00985814,10,-1.04913e-05,-4.16686,-0.142294,-0.414634,1.10221,0.154059,
2,0,0,1,0,42159.9,0.152915,0.15257,-0.0702329,22,0.00973811,10,-1.07155e-05,-4.15346,-0.118275,-0.498838,1.37531,0.15257,
2,0,0,1,0,42161.4,0.151417,0.151069,-0.0723214,22,0.00961544,10,-1.09255e-05,-4.14073,-0.114046,-0.517337,1.46567,0.151069,
2,0,0,1,0,42162.9,0.149918,0.149581,-0.0744937,22,0.00948903,10,-1.11428e-05,-4.12788,-0.104399,-0.565141,1.64085,0.149581,
2,0,0,1,0,42164.3,0.14842,0.148102,-0.0771248,22,0.0093588,10,-1.14223e-05,-4.11281,-0.0954243,-0.618291,1.86317,0.148102,
2,0,0,1,0,42165.8,0.146922,0.146563,-0.0801773,22,0.00922437,10,-1.1751e-05,-4.09595,-0.0870421,-0.677833,2.11806,0.146563,
2,0,0,1,0,42167.3,0.145424,0.145088,-0.0833853,22,0.0090855,10,-1.20982e-05,-4.07891,-0.089258,-0.661005,2.14855,0.145088,
2,0,0,1,0,42168.8,0.143926,0.143594,-0.0868338,22,0.00894128,10,-1.24688e-05,-4.06131,-0.0804585,-0.733297,2.48253,0.143594,
2,0,0,1,0,42170.3,0.142427,0.142116,-0.0905934,22,0.0087911,10,-1.28748e-05,-4.0429,-0.0784904,-0.751684,2.65896,0.142116,
2,0,0,1,0,42171.8,0.140929,0.140614,-0.0947,22,0.00863496,10,-1.33162e-05,-4.02365,-0.0780831,-0.755605,2.80241,0.140614,
2,0,0,1,0,42173.3,0.139431,0.139063,-0.0989836,22,0.00847256,10,-1.3765e-05,-4.00444,-0.0725857,-0.812833,3.1513,0.139063,
2,0,0,1,0,42174.8,0.137933,0.137623,-0.104465,22,0.008303,10,-1.43767e-05,-3.98103,-0.0747728,-0.789057,3.19644,0.137623,
2,0,0,1,0,42176.3,0.136435,0.136075,-0.108965,22,0.00812626,10,-1.48274e-05,-3.96271,-0.079898,-0.738441,3.11949,0.136075,
2,0,0,1,0,42177.8,0.134936,0.134574,-0.11345,22,0.00794247,10,-1.52674e-05,-3.9452,-0.0917712,-0.642903,2.82741,0.134574,
2,0,0,1,0,42179.3,0.133438,0.133089,-0.117473,22,0.00775204,10,-1.56344e-05,-3.93006,-0.0934997,-0.631018,2.89416,0.133089,
2,0,0,1,0,42180.8,0.13194,0.131584,-0.121828,22,0.00755518,10,-1.60306e-05,-3.91425,-0.097809,-0.603217,2.87328,0.1315839,
2,0,0,1,0,42182.3,0.130442,0.130127,-0.125683,22,0.00735169,10,-1.63547e-05,-3.90072,-0.110189,-0.535446,2.62622,0.130127,
2,0,0,1,0,42183.8,0.128944,0.128644,-0.129463,22,0.00714223,10,-1.66547e-05,-3.88785,-0.141532,-0.416866,2.101,0.128644,
2,0,0,1,0,42185.3,0.127445,0.127129,-0.132826,22,0.00692784,10,-1.6886e-05,-3.87672,-0.157787,-0.373922,1.92897,0.127129,
2,0,0,1,0,42186.8,0.125947,0.125619,-0.135984,22,0.00670955,10,-1.70822e-05,-3.86651,-0.182917,-0.32255,1.69996,0.125619,
2,0,0,1,0,42188.3,0.124449,0.124142,-0.137757,22,0.00648747,10,-1.71014e-05,-3.86089,-0.24116,-0.244651,1.30761,0.124142,
2,0,0,1,0,42189.8,0.122951,0.122648,-0.139851,22,0.00626233,10,-1.71525e-05,-3.85433,-0.321509,-0.18351,0.993688,0.1226479,
2,0,0,1,0,42191.3,0.121453,0.121143,-0.140193,22,0.00603516,10,-1.69835e-05,-3.85327,-0.432717,-0.136348,0.745017,0.121143,
2,0,0,1,0,42192.8,0.119955,0.11961,-0.140859,22,0.00580694,10,-1.68481e-05,-3.85122,-0.70531,-0.0836512,0.459478,0.11961,
2,0,0,1,0,42194.3,0.118456,0.118147,-0.141325,22,0.00557765,10,-1.66971e-05,-3.84978,-0.669475,-0.0881287,0.485455,0.118147,
2,0,0,1,0,42195.8,0.116958,0.116601,-0.141768,22,0.00534765,10,-1.65303e-05,-3.84842,-7.14224,-0.00826072,0.0456545,0.1166015,
2,0,0,1,0,42197.3,0.11546,0.115077,-0.141439,22,0.00511738,10,-1.62764e-05,-3.84943,-3.74972,-0.0157345,0.0871108,0.115077,
2,0,0,1,0,42198.8,0.113962,0.113662,-0.140879,22,0.00488749,10,-1.60125e-05,-3.85116,-3.11355,-0.0189494,0.104767,0.113662,
2,0,0,1,0,42200.3,0.112464,0.112159,-0.141579,22,0.00465798,10,-1.58794e-05,-3.849,10.4611,0.00563995,-0.0311454,0.112159,
2,0,0,1,0,42201.8,0.110965,0.110629,-0.142053,22,0.00442836,10,-1.57152e-05,-3.84755,3.0211,0.0195293,-0.107553,0.110629,
2,0,0,1,0,42203.3,0.109467,0.109134,-0.141484,22,0.00419863,10,-1.54408e-05,-3.84929,2.25776,0.0261321,-0.143656,0.109134,
2,0,0,1,0,42204.8,0.107969,0.107646,-0.140642,22,0.00396949,10,-1.51396e-05,-3.85189,2.52952,0.0233246,-0.128556,0.1076463,
2,0,0,1,0,42206.3,0.106471,0.106173,-0.140869,22,0.00374122,10,-1.49565e-05,-3.85119,0.911845,0.064704,-0.356431,0.106173,
2,0,0,1,0,42207.8,0.104973,0.104694,-0.140393,22,0.00351309,10,-1.46983e-05,-3.85265,1.30827,0.0450976,-0.247504,0.104694,
2,0,0,1,0,42209.3,0.103474,0.103162,-0.139925,22,0.00328547,10,-1.44349e-05,-3.8541,0.712836,0.0827679,-0.45109,0.103162,
2,0,0,1,0,42210.8,0.101976,0.101621,-0.139818,22,0.00305859,10,-1.42085e-05,-3.85444,0.796251,0.0740972,-0.402597,0.101621,
2,0,0,1,0,42212.3,0.100478,0.100142,-0.139267,22,0.00283291,10,-1.39464e-05,-3.85615,1.34057,0.0440113,-0.238422,0.100142,
2,0,0,1,0,42213.8,0.0989798,0.0986784,-0.138616,22,0.00260763,10,-1.36784e-05,-3.85819,0.808644,0.0729617,-0.393234,0.0986784,
2,0,0,1,0,42215.3,0.0974816,0.097162,-0.138141,22,0.00238289,10,-1.3422e-05,-3.85968,0.651506,0.0905594,-0.487676,0.097162,
2,0,0,1,0,42216.8,0.0959834,0.0956128,-0.137428,22,0.00215908,10,-1.31399e-05,-3.86192,0.772277,0.0763975,-0.409774,0.0956128,
2,0,0,1,0,42218.3,0.0944852,0.09416,-0.136271,22,0.00193689,10,-1.28313e-05,-3.8656,0.586478,0.100601,-0.537316,0.09416,
2,0,0,1,0,42219.8,0.0929871,0.0926575,-0.135372,22,0.00171558,10,-1.25432e-05,-3.86847,0.996236,0.0592229,-0.313358,0.0926575,
2,0,0,1,0,42221.3,0.0914889,0.0911368,-0.135119,22,0.00149524,10,-1.23143e-05,-3.86928,0.584982,0.100858,-0.530959,0.0911368,
2,0,0,1,0,42222.8,0.0899907,0.089612,-0.134031,22,0.00127654,10,-1.20107e-05,-3.8728,0.517926,0.113916,-0.594023,0.089612,
2,0,0,1,0,42224.3,0.0884925,0.0881518,-0.132182,22,0.00105954,10,-1.16521e-05,-3.87883,0.395974,0.149,-0.772062,0.08815179,
2,0,0,1,0,42225.8,0.0869943,0.0866778,-0.13177,22,0.000844149,10,-1.14216e-05,-3.88018,0.552401,0.106806,-0.54987,0.0866778,
2,0,0,1,0,42227.3,0.0854961,0.0851848,-0.13107,22,0.000630014,10,-1.11652e-05,-3.8825,0.404759,0.145766,-0.745249,0.0851848,
2,0,0,1,0,42228.8,0.083998,0.0836695,-0.129505,22,0.000417156,10,-1.08356e-05,-3.88771,0.306919,0.192233,-0.971922,0.0836695,
2,0,0,1,0,42230.3,0.0824998,0.0821829,-0.128856,22,0.000206138,10,-1.05898e-05,-3.8899,0.454912,0.129696,-0.654087,0.0821829,
2,0,0,1,0,42231.8,0.0810016,0.0806835,-0.127974,22,-3.1827e-06,10,-1.03254e-05,-3.89288,0.722638,0.0816453,-0.409089,0.08068347,
2,0,0,1,0,42233.3,0.0795034,0.0791649,-0.127617,22,-0.00021171,10,-1.01028e-05,-3.89409,0.702713,0.0839603,-0.418148,0.07916487,
2,0,0,1,0,42234.8,0.0780052,0.0776474,-0.127555,22,-0.000419482,10,-9.90435e-06,-3.8943,0.370686,0.159165,-0.78514,0.07764741,
2,0,0,1,0,42236.3,0.076507,0.0761459,-0.126085,22,-0.000626076,10,-9.60084e-06,-3.89934,0.520537,0.113344,-0.555966,0.0761459,
2,0,0,1,0,42237.8,0.0750088,0.0747133,-0.125208,22,-0.000830857,10,-9.35469e-06,-3.90237,0.636486,0.0926964,-0.451905,0.0747133,
2,0,0,1,0,42239.3,0.0735106,0.0732149,-0.124585,22,-0.00103503,10,-9.12145e-06,-3.90454,0.963676,0.0612239,-0.296989,0.0732149,
2,0,0,1,0,42240.8,0.0720124,0.0716858,-0.125492,22,-0.00123898,10,-8.99598e-06,-3.90138,0.53999,0.109261,-0.527109,0.0716858,
2,0,0,1,0,42242.3,0.0705142,0.070179,-0.122917,22,-0.00144145,10,-8.62621e-06,-3.91039,0.442619,0.133298,-0.642092,0.070179,
2,0,0,1,0,42243.8,0.069016,0.0686806,-0.121675,22,-0.00164151,10,-8.35671e-06,-3.9148,0.615236,0.0958982,-0.457936,0.0686806,
2,0,0,1,0,42245.3,0.0675178,0.0672034,-0.120961,22,-0.00184081,10,-8.129e-06,-3.91735,1.05647,0.0558463,-0.263527,0.06720344,
2,0,0,1,0,42246.7,0.0660196,0.0656934,-0.121723,22,-0.00203938,10,-7.99642e-06,-3.91463,0.565524,0.104328,-0.49049,0.0656934,
2,0,0,1,0,42248.2,0.0645214,0.0642046,-0.12027,22,-0.00223712,10,-7.72186e-06,-3.91984,0.577309,0.102198,-0.478711,0.0642046,
2,0,0,1,0,42249.7,0.0630233,0.0626968,-0.118876,22,-0.00243324,10,-7.45315e-06,-3.92491,0.632224,0.0933214,-0.43522,0.06269677,
2,0,0,1,0,42251.2,0.0615251,0.0612133,-0.118919,22,-0.00262869,10,-7.27943e-06,-3.92475,0.7885,0.0748256,-0.347409,0.0612133,
2,0,0,1,0,42252.7,0.0600269,0.0596756,-0.118075,22,-0.00282323,10,-7.04621e-06,-3.92784,0.502198,0.117484,-0.54327,0.0596756,
2,0,0,1,0,42254.2,0.0585287,0.0581603,-0.117394,22,-0.00301667,10,-6.82766e-06,-3.93035,0.391811,0.150583,-0.688542,0.0581603,
2,0,0,1,0,42255.7,0.0570305,0.0566917,-0.116911,22,-0.00320924,10,-6.62789e-06,-3.93214,0.839948,0.0702424,-0.321617,0.05669165,
2,0,0,1,0,42257.2,0.0555323,0.0551922,-0.116007,22,-0.00340013,10,-6.40269e-06,-3.93552,1.03375,0.057074,-0.25931,0.0551922,
2,0,0,1,0,42258.7,0.0540342,0.053712,-0.115828,22,-0.00359078,10,-6.22134e-06,-3.93619,0.915012,0.06448,-0.290328,0.053712,
2,0,0,1,0,42260.2,0.052536,0.0522041,-0.115407,22,-0.00378071,10,-6.02472e-06,-3.93777,0.891229,0.0662007,-0.296947,0.0522041,
2,0,0,1,0,42261.7,0.0510378,0.0506803,-0.114422,22,-0.00396935,10,-5.79896e-06,-3.94149,0.859591,0.0686373,-0.306958,0.0506803,
2,0,0,1,0,42263.2,0.0495396,0.0492095,-0.114054,22,-0.00415694,10,-5.61256e-06,-3.94289,0.923249,0.0639048,-0.282889,0.0492095,
2,0,0,1,0,42264.7,0.0480414,0.0477207,-0.113213,22,-0.00434433,10,-5.40259e-06,-3.9461,0.830924,0.0710053,-0.31313,0.0477207,
2,0,0,1,0,42266.2,0.0465432,0.0462053,-0.112152,22,-0.00453038,10,-5.18202e-06,-3.95019,0.447106,0.13196,-0.581401,0.0462053,
2,0,0,1,0,42267.7,0.045045,0.0446858,-0.111936,22,-0.00471531,10,-5.00193e-06,-3.95103,0.550283,0.107218,-0.468398,0.0446858,
2,0,0,1,0,42269.2,0.0435468,0.0432075,-0.111268,22,-0.00489899,10,-4.80763e-06,-3.95363,0.784203,0.0752356,-0.327292,0.0432075,
2,0,0,1,0,42270.7,0.0420486,0.0417209,-0.111153,22,-0.00508216,10,-4.63739e-06,-3.95408,0.940063,0.0627617,-0.271659,0.0417209,
2,0,0,1,0,42272.2,0.0405504,0.0402511,-0.110951,22,-0.00526491,10,-4.46588e-06,-3.95487,0.506426,0.116503,-0.502101,0.0402511,
2,0,0,1,0,42273.7,0.0390522,0.0387188,-0.109858,22,-0.00544678,10,-4.25357e-06,-3.95917,0.481656,0.122494,-0.524704,0.0387188,
2,0,0,1,0,42275.2,0.037554,0.0371854,-0.10924,22,-0.00562769,10,-4.06212e-06,-3.96162,1.10168,0.0535546,-0.228228,0.0371854,
2,0,0,1,0,42276.7,0.0360558,0.0357359,-0.108832,22,-0.00580731,10,-3.88922e-06,-3.96324,0.605386,0.0974585,-0.413718,0.0357359,
2,0,0,1,0,42278.2,0.0345576,0.0341972,-0.107826,22,-0.00598648,10,-3.68735e-06,-3.96728,0.88073,0.0669898,-0.28405,0.0341972,
2,0,0,1,0,42279.7,0.0330594,0.0326925,-0.107859,22,-0.00616495,10,-3.52618e-06,-3.96714,0.459889,0.128292,-0.538115,0.0326925,
2,0,0,1,0,42281.2,0.0315613,0.0312907,-0.107402,22,-0.00634265,10,-3.36069e-06,-3.96899,0.982881,0.0600276,-0.252015,0.03129071,
2,0,0,1,0,42282.7,0.0300631,0.029733,-0.107354,22,-0.00651934,10,-3.19197e-06,-3.96918,1.21468,0.0485726,-0.202444,0.029733,
2,0,0,1,0,42284.2,0.0285649,0.0281922,-0.106843,22,-0.00669577,10,-3.01214e-06,-3.97125,0.909088,0.0649002,-0.270014,0.0281922,
2,0,0,1,0,42285.7,0.0270667,0.0267394,-0.106375,22,-0.00687172,10,-2.84441e-06,-3.97316,1.27999,0.0460942,-0.191579,0.0267394,
2,0,0,1,0,42287.2,0.0255685,0.0252389,-0.106514,22,-0.00704722,10,-2.68831e-06,-3.97259,0.809746,0.0728624,-0.301583,0.0252389,
2,0,0,1,0,42288.7,0.0240703,0.0237618,-0.105294,22,-0.0072216,10,-2.50197e-06,-3.9776,1.24491,0.0473929,-0.195555,0.0237618,
2,0,0,1,0,42290.2,0.0225722,0.022237,-0.105379,22,-0.00739585,10,-2.3433e-06,-3.97725,-1.86774,-0.031589,0.129803,0.022237,
2,0,0,1,0,42291.7,0.021074,0.0207366,-0.105094,22,-0.00756983,10,-2.1793e-06,-3.97842,8.82667,0.00668429,-0.02755,0.0207366,
2,0,0,1,0,42293.2,0.0195758,0.0192254,-0.105149,22,-0.00774356,10,-2.02154e-06,-3.97819,5.92627,0.00995568,-0.0409086,0.0192254,
2,0,0,1,0,42294.7,0.0180776,0.0177451,-0.104802,22,-0.00791702,10,-1.85972e-06,-3.97963,-43.1672,-0.00136678,0.00560342,0.0177451,
2,0,0,1,0,42296.2,0.0165794,0.0162319,-0.105433,22,-0.00809078,10,-1.71138e-06,-3.97702,-1.03133,-0.0572079,0.235291,0.0162319,
2,0,0,1,0,42297.7,0.0150812,0.0147494,-0.105937,22,-0.00826471,10,-1.56251e-06,-3.97495,-3.62912,-0.0162574,0.0670487,0.0147494,
2,0,0,1,0,42299.2,0.013583,0.0132447,-0.105986,22,-0.00843924,10,-1.40375e-06,-3.97475,-1.67171,-0.0352931,0.145514,0.0132447,
2,0,0,1,0,42300.7,0.0120848,0.0117601,-0.10628,22,-0.00861386,10,-1.24987e-06,-3.97355,-1.50901,-0.0390986,0.161682,0.0117601,
2,0,0,1,0,42302.2,0.0105866,0.01023,-0.106005,22,-0.00878855,10,-1.08443e-06,-3.97467,-1.19227,-0.0494853,0.205673,0.01023,
2,0,0,1,0,42303.7,0.00908843,0.00876442,-0.106593,22,-0.00896398,10,-9.34224e-07,-3.97227,-1.1187,-0.0527398,0.219849,0.00876442,
2,0,0,1,0,42305.2,0.00759024,0.00725763,-0.107284,22,-0.00914016,10,-7.78626e-07,-3.96947,-1.26933,-0.0464813,0.194685,0.00725763,
2,0,0,1,0,42306.7,0.00609203,0.00574759,-0.108064,22,-0.00931715,10,-6.21107e-07,-3.96632,-0.674764,-0.087438,0.367871,0.00574759,
2,0,0,1,0,42308.2,0.00459384,0.00425136,-0.108601,22,-0.00949493,10,-4.61702e-07,-3.96417,-0.624855,-0.0944219,0.400194,0.00425136,
2,0,0,1,0,42309.7,0.00309563,0.00278693,-0.109463,22,-0.00967392,10,-3.05067e-07,-3.96073,-0.424349,-0.139036,0.591644,0.00278693,
2,0,0,1,0,42311.2,0.00159744,0.001208,-0.11027,22,-0.00985613,10,-1.33206e-07,-3.95754, , , ,0.001208,
2,0,0,1,0,42312.6,0.000199235,-0.000157358,-0.110997,22,-0.0100254,10,1.74662e-08,-3.95469, , , ,-0.000157358,