File: Figure_codes/Fig_3-5/rawdata_trumpetplot_data/after 10th/20221101_1-115_003_TrumpetPlot_ParaChange_from10_every3_11_CV_C01_32.csv
mode,ox/red,error,control changes,counter inc.,time/s,control/V,Ewe/V,<I>/mA,cycle number,(Q-Qo)/C,I Range,P/W,log(|I|),Tafel slope mV/dec,alpha_eff,dI/d(E-IR),E-IR/V,
2,1,0,1,0,64238.7,2.44065e-05,-0.000344411,9.19558,33,0.0000000E+000,10,-3.16706e-06,-2.03642, , , ,-0.000344411,
2,1,0,1,0,64238.7,0.00214129,0.00174353,10.1855,33,4.99791e-05,10,1.77587e-05,-1.99202, , , ,0.00174353,
2,1,0,1,0,64238.7,0.00454949,0.00415807,10.9293,33,0.000113527,10,4.54448e-05,-1.96141,0.0889528,0.663273,278.432,0.004158075,
2,1,0,1,0,64238.7,0.0069466,0.0065758,11.5032,33,0.000180885,10,7.56428e-05,-1.93918,0.114791,0.513979,229.202,0.0065758,
2,1,0,1,0,64238.7,0.0093437,0.00895323,12.0217,33,0.000251551,10,0.000107634,-1.92003,0.132608,0.44492,207.625,0.00895323,
2,1,0,1,0,64238.7,0.0117408,0.0114007,12.4768,33,0.00032514,10,0.000142244,-1.9039,0.156111,0.377936,183.54,0.0114007,
2,1,0,1,0,64238.7,0.0141462,0.013812,12.9024,33,0.000401364,10,0.000178208,-1.88933,0.172804,0.341426,171.621,0.013812,
2,1,0,1,0,64238.7,0.0165433,0.0161958,13.3073,33,0.000480077,10,0.000215523,-1.87591,0.19396,0.304187,157.513,0.0161958,
2,1,0,1,0,64238.7,0.0189404,0.0185743,13.6694,33,0.000561074,10,0.000253899,-1.86425,0.21155,0.278894,148.552,0.0185743,
2,1,0,1,0,64238.7,0.0213486,0.0210079,14.0155,33,0.000644167,10,0.000294436,-1.85339,0.232134,0.254164,138.828,0.0210079,
2,1,0,1,0,64238.8,0.0237457,0.0234119,14.344,33,0.000729286,10,0.000335821,-1.84333,0.253672,0.232584,129.992,0.0234119,
2,1,0,1,0,64238.8,0.0261429,0.0257978,14.6521,33,0.00081629,10,0.000377991,-1.8341,0.270277,0.218295,124.678,0.02579779,
2,1,0,1,0,64238.8,0.02854,0.0282293,14.9313,33,0.00090507,10,0.000421499,-1.8259,0.286269,0.2061,120.026,0.0282293,
2,1,0,1,0,64238.8,0.0309482,0.0305442,15.2189,33,0.000995582,10,0.000464849,-1.81762,0.305195,0.193319,114.724,0.0305442,
2,1,0,1,0,64238.8,0.0333453,0.0330054,15.486,33,0.00108773,10,0.000511122,-1.81006,0.326985,0.180436,108.952,0.0330054,
2,1,0,1,0,64238.8,0.0357424,0.0354189,15.7414,33,0.00118144,10,0.000557542,-1.80296,0.349505,0.16881,103.631,0.0354189,
2,1,0,1,0,64238.8,0.0381478,0.0377475,15.9867,33,0.00127665,10,0.000603458,-1.79624,0.354034,0.166651,103.976,0.0377475,
2,1,0,1,0,64238.8,0.0405449,0.0401748,16.2307,33,0.00137334,10,0.000652064,-1.78966,0.379453,0.155487,98.4483,0.0401748,
2,1,0,1,0,64238.8,0.042942,0.0425787,16.4704,33,0.00147151,10,0.000701289,-1.7833,0.392277,0.150404,96.6417,0.0425787,
2,1,0,1,0,64238.8,0.0453391,0.0449795,16.6891,33,0.00157101,10,0.000750668,-1.77757,0.403442,0.146242,95.307,0.0449795,
2,1,0,1,0,64238.8,0.0477473,0.0474131,16.931,33,0.00167192,10,0.000802751,-1.77132,0.412954,0.142873,94.3009,0.0474131,
2,1,0,1,0,64238.8,0.0501444,0.0497927,17.1511,33,0.0017742,10,0.000853997,-1.76571,0.434813,0.135691,90.7952,0.0497927,
2,1,0,1,0,64238.8,0.0525415,0.0522009,17.3628,33,0.00187775,10,0.000906354,-1.76038,0.437536,0.134846,91.4369,0.05220085,
2,1,0,1,0,64238.8,0.0549469,0.0546069,17.5907,33,0.00198263,10,0.000960574,-1.75472,0.440058,0.134073,92.0057,0.0546069,
2,1,0,1,0,64238.8,0.057344,0.0570278,17.8042,33,0.00208887,10,0.00101533,-1.74948,0.454023,0.129949,90.2822,0.0570278,
2,1,0,1,0,64238.8,0.0597411,0.0594201,18.0189,33,0.00219637,10,0.00107068,-1.74427,0.464248,0.127087,89.3905,0.0594201,
2,1,0,1,0,64238.8,0.0621438,0.0617413,18.2384,33,0.00230515,10,0.00112606,-1.73901,0.466083,0.126587,90.0839,0.0617413,
2,1,0,1,0,64238.9,0.0645465,0.0642078,18.4549,33,0.00241526,10,0.00118495,-1.73389,0.469374,0.125699,90.4949,0.0642078,
2,1,0,1,0,64238.9,0.0669436,0.0666075,18.6731,33,0.00252666,10,0.00124377,-1.72878,0.4921,0.119894,87.3213,0.0666075,
2,1,0,1,0,64238.9,0.0693407,0.0689892,18.8767,33,0.00263934,10,0.00130229,-1.72407,0.486458,0.121285,89.4083,0.06898921,
2,1,0,1,0,64238.9,0.0717489,0.0713995,19.1037,33,0.0027533,10,0.001364,-1.71888,0.477963,0.123441,92.0285,0.07139951,
2,1,0,1,0,64238.9,0.074146,0.0737918,19.3272,33,0.0028686,10,0.00142619,-1.71383,0.497703,0.118545,89.3803,0.0737918,
2,1,0,1,0,64238.9,0.0765431,0.0761735,19.5269,33,0.00298519,10,0.00148743,-1.70937,0.492755,0.119735,91.3154,0.0761735,
2,1,0,1,0,64238.9,0.0789485,0.0786103,19.7592,33,0.00310306,10,0.00155327,-1.70423,0.4839,0.121926,94.0169,0.0786103,
2,1,0,1,0,64238.9,0.0813456,0.0810089,19.9803,33,0.00322232,10,0.00161859,-1.6994,0.505789,0.116649,90.9031,0.0810089,
2,1,0,1,0,64238.9,0.0837427,0.0833535,20.1904,33,0.00334287,10,0.00168294,-1.69485,0.505384,0.116743,92.0407,0.0833535,
2,1,0,1,0,64238.9,0.0861398,0.0857532,20.4101,33,0.00346471,10,0.00175023,-1.69015,0.502108,0.117505,93.6391,0.0857532,
2,1,0,1,0,64238.9,0.088548,0.0881656,20.6497,33,0.00358795,10,0.0018206,-1.68509,0.509074,0.115897,93.3679,0.0881656,
2,1,0,1,0,64238.9,0.0909451,0.0905971,20.874,33,0.00371255,10,0.00189112,-1.6804,0.529701,0.111383,90.7253,0.0905971,
2,1,0,1,0,64238.9,0.0933422,0.0930148,21.0954,33,0.00383847,10,0.00196218,-1.67581,0.522627,0.112891,92.9613,0.0930148,
2,1,0,1,0,64238.9,0.0957477,0.0954071,21.3229,33,0.00396572,10,0.00203436,-1.67115,0.536632,0.109945,91.4468,0.0954071,
2,1,0,1,0,64238.9,0.0981447,0.0977845,21.5404,33,0.00409433,10,0.00210631,-1.66675,0.548428,0.10758,90.3846,0.0977845,
2,1,0,1,0,64238.9,0.100542,0.100233,21.7505,33,0.00422421,10,0.00218012,-1.66253,0.55248,0.106791,90.6724,0.100233,
2,1,0,1,0,64239,0.102939,0.102591,21.9599,33,0.00435536,10,0.00225289,-1.65837,0.563321,0.104736,89.7863,0.102591,
2,1,0,1,0,64239,0.105347,0.104955,22.1876,33,0.00448786,10,0.0023287,-1.65389,0.551569,0.106968,92.5969,0.104955,
2,1,0,1,0,64239,0.107744,0.107325,22.3998,33,0.00462163,10,0.00240406,-1.64976,0.551991,0.106886,93.4983,0.107325,
2,1,0,1,0,64239,0.110141,0.109752,22.6286,33,0.00475674,10,0.00248354,-1.64534,0.522176,0.112989,99.8463,0.109752,
2,1,0,1,0,64239,0.11255,0.112192,22.885,33,0.00489331,10,0.00256752,-1.64045,0.523661,0.112668,100.574,0.112192,
2,1,0,1,0,64239,0.114947,0.114579,23.1193,33,0.00503135,10,0.002649,-1.63602,0.538474,0.109569,98.8509,0.114579,
2,1,0,1,0,64239,0.117344,0.116982,23.3577,33,0.0051708,10,0.00273243,-1.63157,0.536215,0.110031,100.347,0.116982,
2,1,0,1,0,64239,0.119744,0.119407,23.6106,33,0.00531172,10,0.00281928,-1.62689,0.523241,0.112759,103.905,0.1194073,
2,1,0,1,0,64239,0.122146,0.121831,23.8641,33,0.00545417,10,0.0029074,-1.62225,0.517724,0.11396,106.141,0.121831,
2,1,0,1,0,64239,0.124543,0.124196,24.1133,33,0.00559815,10,0.00299478,-1.61774,0.50772,0.116206,109.416,0.124196,
2,1,0,1,0,64239,0.126941,0.12658,24.3813,33,0.00574368,10,0.00308618,-1.61294,0.495439,0.119086,113.382,0.12658,
2,1,0,1,0,64239,0.129349,0.128997,24.6699,33,0.00589084,10,0.00318233,-1.60783,0.487902,0.120926,116.392,0.128997,
2,1,0,1,0,64239,0.131746,0.131406,24.9442,33,0.00603971,10,0.00327782,-1.60303,0.487416,0.121046,117.827,0.1314058,
2,1,0,1,0,64239,0.134143,0.133785,25.2145,33,0.00619022,10,0.00337333,-1.59835,0.483044,0.122142,120.284,0.133785,
2,1,0,1,0,64239,0.13654,0.136218,25.5098,33,0.00634243,10,0.00347489,-1.59329,0.493254,0.119614,119.057,0.136218,
2,1,0,1,0,64239,0.138945,0.1386,25.8026,33,0.00649644,10,0.00357624,-1.58834,0.506682,0.116444,117.197,0.1386,
2,1,0,1,0,64239,0.141343,0.141013,26.0701,33,0.00665207,10,0.00367622,-1.58386,0.508435,0.116042,118.139,0.141013,
2,1,0,1,0,64239.1,0.14374,0.143345,26.3655,33,0.00680941,10,0.00377936,-1.57896,0.511084,0.115441,118.739,0.143345,
2,1,0,1,0,64239.1,0.146148,0.145759,26.654,33,0.00696852,10,0.00388508,-1.57424,0.533478,0.110595,114.942,0.145759,
2,1,0,1,0,64239.1,0.148545,0.148115,26.9114,33,0.00712924,10,0.00398597,-1.57006,0.557556,0.105819,111.16,0.148115,
2,1,0,1,0,64239.1,0.150942,0.150575,27.1826,33,0.00729154,10,0.00409301,-1.56571,0.566405,0.104166,110.474,0.150575,
2,1,0,1,0,64239.1,0.153345,0.152959,27.4425,33,0.00745544,10,0.00419756,-1.56158,0.591645,0.0997219,106.744,0.152959,
2,1,0,1,0,64239.1,0.155747,0.155364,27.6868,33,0.00762088,10,0.00430152,-1.55773,0.635486,0.0928423,100.276,0.155364,
2,1,0,1,0,64239.1,0.158144,0.157828,27.9265,33,0.00778776,10,0.00440759,-1.55398,0.66822,0.0882943,96.2077,0.157828,
2,1,0,1,0,64239.1,0.160542,0.160192,28.1557,33,0.00795602,10,0.0045103,-1.55043,0.72171,0.0817503,89.7914,0.1601916,
2,1,0,1,0,64239.1,0.162947,0.162582,28.3665,33,0.00812564,10,0.00461187,-1.54719,0.793805,0.0743255,82.2078,0.162582,
2,1,0,1,0,64239.1,0.165344,0.164987,28.5498,33,0.00829644,10,0.00471033,-1.5444,0.903632,0.0652921,72.7299,0.164987,
2,1,0,1,0,64239.1,0.167741,0.167431,28.7164,33,0.00846827,10,0.00480802,-1.54187,1.00624,0.058634,65.6819,0.167431,
2,1,0,1,0,64239.1,0.170149,0.169781,28.8768,33,0.00864108,10,0.00490272,-1.53945,1.26926,0.0464839,52.3031,0.169781,
2,1,0,1,0,64239.1,0.172547,0.172198,28.9661,33,0.00881463,10,0.0049879,-1.53811,1.75485,0.0336211,37.9776,0.172198,
2,1,0,1,0,64239.1,0.174944,0.174614,29.0427,33,0.00898868,10,0.00507127,-1.53696,2.67208,0.0220801,25.0054,0.174614,
2,1,0,1,0,64239.1,0.177341,0.176981,29.0919,33,0.00916311,10,0.0051487,-1.53623,6.7913,0.00868759,9.85017,0.176981,
2,1,0,1,0,64239.1,0.179746,0.179388,29.0918,33,0.00933768,10,0.00521873,-1.53623,-9.92459,-0.00594483,-6.7419,0.179388,
2,1,0,1,0,64239.1,0.182143,0.181794,29.0579,33,0.00951214,10,0.00528256,-1.53674,-2.85343,-0.0206769,-23.4184,0.181794,
2,1,0,1,0,64239.2,0.18454,0.184188,28.9805,33,0.00968627,10,0.00533785,-1.53789,-1.75377,-0.0336418,-38.0077,0.1841875,
2,1,0,1,0,64239.2,0.186949,0.186613,28.8743,33,0.00985984,10,0.00538831,-1.53949,-1.18564,-0.0497623,-55.9927,0.186613,
2,1,0,1,0,64239.2,0.189346,0.188999,28.7166,33,0.0100326,10,0.00542739,-1.54187,-0.894185,-0.0659818,-73.8523,0.188999,
2,1,0,1,0,64239.2,0.191743,0.191396,28.5213,33,0.0102043,10,0.00545887,-1.54483,-0.767327,-0.0768903,-85.4983,0.191396,
2,1,0,1,0,64239.2,0.19414,0.193816,28.2993,33,0.0103748,10,0.00548485,-1.54822,-0.632597,-0.0932663,-102.843,0.193816,
2,1,0,1,0,64239.2,0.196548,0.196224,28.031,33,0.0105437,10,0.00550035,-1.55236,-0.550579,-0.10716,-117.092,0.196224,
2,1,0,1,0,64239.2,0.198945,0.198602,27.7247,33,0.010711,10,0.00550617,-1.55713,-0.482779,-0.122209,-132.116,0.198602,
2,1,0,1,0,64239.2,0.201342,0.200982,27.3963,33,0.0108763,10,0.00550616,-1.56231,-0.437848,-0.13475,-143.91,0.200982,
2,1,0,1,0,64239.2,0.203748,0.203376,27.0375,33,0.0110396,10,0.00549877,-1.56803,-0.406389,-0.145181,-153.043,0.203376,
2,1,0,1,0,64239.2,0.206145,0.205844,26.6463,33,0.0112006,10,0.00548499,-1.57436,-0.373548,-0.157945,-164.229,0.205844,
2,1,0,1,0,64239.2,0.208542,0.208214,26.2587,33,0.0113593,10,0.00546743,-1.58073,-0.363568,-0.16228,-166.179,0.208214,
2,1,0,1,0,64239.2,0.210939,0.210609,25.8375,33,0.0115156,10,0.00544159,-1.58775,-0.332841,-0.177262,-178.666,0.210609,
2,1,0,1,0,64239.2,0.213347,0.212996,25.4155,33,0.0116693,10,0.00541339,-1.5949,-0.324967,-0.181557,-179.982,0.212996,
2,1,0,1,0,64239.2,0.215744,0.215402,24.9805,33,0.0118205,10,0.00538083,-1.6024,-0.313914,-0.18795,-183.141,0.215402,
2,1,0,1,0,64239.2,0.218141,0.217801,24.5391,33,0.011969,10,0.00534466,-1.61014,-0.312808,-0.188614,-180.608,0.217801,
2,1,0,1,0,64239.2,0.220547,0.220249,24.1017,33,0.0121148,10,0.00530836,-1.61795,-0.305364,-0.193212,-181.675,0.220249,
2,1,0,1,0,64239.3,0.222944,0.22263,23.6589,33,0.0122581,10,0.00526719,-1.62601,-0.303692,-0.194276,-179.427,0.22263,
2,1,0,1,0,64239.3,0.225341,0.225024,23.2353,33,0.0123987,10,0.0052285,-1.63385,-0.303526,-0.194382,-176.278,0.225024,
2,1,0,1,0,64239.3,0.227744,0.227396,22.8123,33,0.0125368,10,0.00518743,-1.64183,-0.304578,-0.193711,-172.497,0.227396,
2,1,0,1,0,64239.3,0.230146,0.229828,22.3971,33,0.0126724,10,0.00514749,-1.64981,-0.30762,-0.191795,-167.75,0.229828,
2,1,0,1,0,64239.3,0.232543,0.23224,22.0069,33,0.0128056,10,0.00511087,-1.65744,-0.308002,-0.191557,-164.536,0.23224,
2,1,0,1,0,64239.3,0.234941,0.234624,21.618,33,0.0129364,10,0.00507209,-1.66518,-0.315931,-0.18675,-157.592,0.234624,
2,1,0,1,0,64239.3,0.237349,0.237034,21.2435,33,0.0130649,10,0.00503543,-1.67277,-0.327047,-0.180402,-149.668,0.237034,
2,1,0,1,0,64239.3,0.239746,0.23943,20.8922,33,0.0131913,10,0.00500223,-1.68002,-0.32292,-0.182708,-148.989,0.23943,
2,1,0,1,0,64239.3,0.242143,0.241832,20.5408,33,0.0133156,10,0.00496743,-1.68738,-0.339667,-0.173699,-139.344,0.241832,
2,1,0,1,0,64239.3,0.244548,0.244189,20.2079,33,0.0134378,10,0.00493454,-1.69448,-0.345523,-0.170756,-134.783,0.244189,
2,1,0,1,0,64239.3,0.246946,0.246634,19.8942,33,0.0135581,10,0.00490657,-1.70127,-0.362873,-0.162592,-126.278,0.246634,
2,1,0,1,0,64239.3,0.249343,0.249018,19.5936,33,0.0136765,10,0.00487915,-1.70789,-0.364818,-0.161725,-123.748,0.249018,
2,1,0,1,0,64239.3,0.25174,0.251399,19.2962,33,0.0137931,10,0.00485105,-1.71453,-0.383832,-0.153713,-115.853,0.251399,
2,1,0,1,0,64239.3,0.254148,0.25381,19.0303,33,0.0139081,10,0.00483007,-1.72055,-0.390322,-0.151157,-112.308,0.25381,
2,1,0,1,0,64239.3,0.256545,0.256251,18.7683,33,0.0140215,10,0.00480938,-1.72658,-0.400794,-0.147208,-107.869,0.256251,
2,1,0,1,0,64239.3,0.258942,0.258625,18.5174,33,0.0141333,10,0.00478906,-1.73242,-0.41006,-0.143882,-103.983,0.258625,
2,1,0,1,0,64239.3,0.261348,0.261028,18.2711,33,0.0142436,10,0.00476926,-1.73824,-0.427112,-0.138137,-98.5661,0.261028,
2,1,0,1,0,64239.4,0.263745,0.263425,18.049,33,0.0143526,10,0.00475455,-1.74355,-0.438669,-0.134498,-94.7576,0.263425,
2,1,0,1,0,64239.4,0.266142,0.265786,17.8245,33,0.0144601,10,0.0047375,-1.74898,-0.457211,-0.129043,-89.7931,0.265786,
2,1,0,1,0,64239.4,0.268539,0.268246,17.6046,33,0.0145664,10,0.00472236,-1.75437,-0.471683,-0.125084,-86.0204,0.268246,
2,1,0,1,0,64239.4,0.270947,0.270657,17.4097,33,0.0146714,10,0.00471208,-1.75921,-0.48918,-0.12061,-81.9558,0.270657,
2,1,0,1,0,64239.4,0.273344,0.27301,17.222,33,0.0147753,10,0.0047018,-1.76392,-0.493508,-0.119552,-80.3205,0.27301,
2,1,0,1,0,64239.4,0.275741,0.275423,17.0228,33,0.014878,10,0.00468847,-1.76897,-0.516155,-0.114307,-76.0158,0.275423,
2,1,0,1,0,64239.4,0.278149,0.277785,16.8509,33,0.0149796,10,0.00468094,-1.77338,-0.532933,-0.110708,-72.8197,0.277785,
2,1,0,1,0,64239.4,0.280547,0.280208,16.6785,33,0.0150802,10,0.00467345,-1.77784,-0.538038,-0.109658,-71.3972,0.280208,
2,1,0,1,0,64239.4,0.282944,0.282605,16.515,33,0.0151798,10,0.00466723,-1.78212,-0.561892,-0.105002,-67.715,0.2826049,
2,1,0,1,0,64239.4,0.285344,0.285,16.3614,33,0.0152783,10,0.00466301,-1.78618,-0.591861,-0.0996855,-63.6585,0.285,
2,1,0,1,0,64239.4,0.287746,0.287401,16.21,33,0.015376,10,0.00465877,-1.79022,-0.607058,-0.0971901,-61.4863,0.287401,
2,1,0,1,0,64239.4,0.290143,0.289807,16.0636,33,0.0154728,10,0.00465533,-1.79416,-0.615118,-0.0959165,-60.1182,0.2898072,
2,1,0,1,0,64239.4,0.29254,0.292213,15.9166,33,0.0155688,10,0.00465103,-1.79815,-0.636784,-0.092653,-57.5914,0.292213,
2,1,0,1,0,64239.4,0.294949,0.294612,15.7806,33,0.0156638,10,0.00464915,-1.80188,-0.669246,-0.0881589,-54.3311,0.2946119,
2,1,0,1,0,64239.4,0.297346,0.297012,15.6621,33,0.0157582,10,0.00465184,-1.80515,-0.70623,-0.0835422,-51.1131,0.297012,
2,1,0,1,0,64239.4,0.299621,0.299312,15.5308,33,0.0158471,10,0.00464856,-1.80881,-0.092764,-0.636022,-375.695,0.299312,
2,1,0,1,0,64239.4,0.299962,0.299766,15.4032,33,0.0158657,10,0.00461736,-1.81239,0.0144882,4.07229,2156.36,0.299766,
2,1,0,1,0,64239.4,0.297903,0.297651,12.5495,33,0.0159356,10,0.00373539,-1.90137,0.0255229,2.31165,1116.25,0.297651,
2,1,0,1,0,64239.5,0.295506,0.295241,10.3299,33,0.0160038,10,0.00304982,-1.9859,0.0286356,2.06037,844.16,0.2952407,
2,1,0,1,0,64239.5,0.293101,0.292786,8.53739,33,0.0160601,10,0.00249963,-2.06867,0.0282919,2.08541,698.664,0.292786,
2,1,0,1,0,64239.5,0.290704,0.290377,7.00794,33,0.0161065,10,0.00203494,-2.15441,0.0269873,2.18622,598.123,0.290377,
2,1,0,1,0,64239.5,0.288307,0.288018,5.6792,33,0.0161443,10,0.00163571,-2.24571,0.0246284,2.39561,528.209,0.288018,
2,1,0,1,0,64239.5,0.28591,0.28557,4.5124,33,0.0161747,10,0.00128861,-2.34559,0.0217541,2.71213,469.953,0.28557,
2,1,0,1,0,64239.5,0.283501,0.283141,3.44101,33,0.0161983,10,0.000974292,-2.46331,0.0185825,3.17504,418.248,0.283141,
2,1,0,1,0,64239.5,0.281104,0.280738,2.49954,33,0.016216,10,0.000701714,-2.60214,0.0146681,4.02233,374.221,0.280738,
2,1,0,1,0,64239.5,0.278707,0.278368,1.65545,33,0.0162284,10,0.000460824,-2.78108,0.00969322,6.08673,343.778,0.278368,
2,1,0,1,0,64239.5,0.276302,0.275985,0.862357,33,0.0162358,10,0.000237997,-3.06431,0.00418146,14.1099,309.555,0.275985,
2,1,0,1,0,64239.5,0.273905,0.273588,0.159365,33,0.0162388,10,4.36004e-05,-3.79761,0.0304689,1.9364,284.138,0.2735883,
2,0,0,1,0,64239.5,0.271508,0.271184,-0.483345,33,0.0162377,10,-0.000131076,-3.31574,-0.0123662,-4.77105,259.439,0.271184,
2,0,0,1,0,64239.5,0.269105,0.268808,-1.09217,33,0.0162329,10,-0.000293584,-2.96171,-0.00773812,-7.62459,242.57,0.268808,
2,0,0,1,0,64239.5,0.266702,0.266382,-1.64145,33,0.0162247,10,-0.000437253,-2.78477,-0.0155719,-3.78887,220.093,0.266382,
2,0,0,1,0,64239.5,0.264305,0.263988,-2.15021,33,0.0162132,10,-0.00056763,-2.66752,-0.0229949,-2.56578,204.916,0.263988,
2,0,0,1,0,64239.5,0.261908,0.261577,-2.6219,33,0.0161988,10,-0.000685828,-2.58138,-0.0307265,-1.92017,191.188,0.261577,
2,0,0,1,0,64239.5,0.2595,0.259184,-3.07224,33,0.0161817,10,-0.000796275,-2.51254,-0.0386983,-1.52462,178.825,0.259184,
2,0,0,1,0,64239.6,0.257103,0.256771,-3.48414,33,0.016162,10,-0.000894628,-2.4579,-0.0473728,-1.24544,166.666,0.2567713,
2,0,0,1,0,64239.6,0.254706,0.254393,-3.86537,33,0.0161399,10,-0.000983323,-2.41281,-0.0566497,-1.04149,155.674,0.2543928,
2,0,0,1,0,64239.6,0.2523,0.251992,-4.23735,33,0.0161156,10,-0.00106778,-2.37291,-0.0650367,-0.90718,148.551,0.251992,
2,0,0,1,0,64239.6,0.249903,0.249596,-4.5754,33,0.0160891,10,-0.001142,-2.33957,-0.07557,-0.780733,138.112,0.249596,
2,0,0,1,0,64239.6,0.247506,0.247182,-4.88659,33,0.0160606,10,-0.00120788,-2.31099,-0.0868128,-0.679624,129.254,0.247182,
2,0,0,1,0,64239.6,0.245109,0.244818,-5.19383,33,0.0160304,10,-0.00127155,-2.28451,-0.0953329,-0.618884,125.003,0.244818,
2,0,0,1,0,64239.6,0.242701,0.242351,-5.49054,33,0.0159982,10,-0.00133064,-2.26038,-0.106504,-0.553969,117.997,0.242351,
2,0,0,1,0,64239.6,0.240304,0.240009,-5.75541,33,0.0159645,10,-0.00138135,-2.23992,-0.121064,-0.487345,109.267,0.240009,
2,0,0,1,0,64239.6,0.237906,0.237567,-6.01477,33,0.0159291,10,-0.00142891,-2.22078,-0.13033,-0.452698,106.052,0.237567,
2,0,0,1,0,64239.6,0.235501,0.23519,-6.26654,33,0.0158923,10,-0.00147383,-2.20297,-0.143617,-0.410816,100.126,0.2351899,
2,0,0,1,0,64239.6,0.233104,0.232777,-6.50141,33,0.0158539,10,-0.00151338,-2.18699,-0.156581,-0.376801,95.3774,0.232777,
2,0,0,1,0,64239.6,0.230707,0.230388,-6.72006,33,0.0158142,10,-0.00154822,-2.17263,-0.166409,-0.354548,92.9247,0.230388,
2,0,0,1,0,64239.6,0.22831,0.228023,-6.93493,33,0.0157732,10,-0.00158132,-2.15896,-0.179763,-0.32821,88.743,0.228023,
2,0,0,1,0,64239.6,0.225902,0.225601,-7.15048,33,0.0157309,10,-0.00161315,-2.14566,-0.195517,-0.301765,83.9589,0.225601,
2,0,0,1,0,64239.6,0.223504,0.223172,-7.34532,33,0.0156874,10,-0.00163927,-2.13399,-0.213682,-0.276111,79.0947,0.223172,
2,0,0,1,0,64239.6,0.221107,0.220801,-7.53139,33,0.0156428,10,-0.00166294,-2.12312,-0.214793,-0.274683,80.7704,0.220801,
2,0,0,1,0,64239.6,0.218699,0.218372,-7.73347,33,0.015597,10,-0.00168877,-2.11163,-0.23303,-0.253186,76.1523,0.218372,
2,0,0,1,0,64239.7,0.216302,0.21599,-7.89686,33,0.0155501,10,-0.00170564,-2.10255,-0.257714,-0.228936,70.5344,0.21599,
2,0,0,1,0,64239.7,0.213905,0.21362,-8.06753,33,0.0155022,10,-0.00172339,-2.09326,-0.260081,-0.226853,71.4462,0.21362,
2,0,0,1,0,64239.7,0.211505,0.2112,-8.2441,33,0.0154532,10,-0.00174116,-2.08386,-0.273637,-0.215614,69.2453,0.2112,
2,0,0,1,0,64239.7,0.209102,0.208819,-8.39692,33,0.0154033,10,-0.00175343,-2.07588,-0.287185,-0.205443,67.3307,0.208819,
2,0,0,1,0,64239.7,0.206705,0.206371,-8.56265,33,0.0153524,10,-0.00176708,-2.06739,-0.304361,-0.193849,64.7155,0.206371,
2,0,0,1,0,64239.7,0.204308,0.204001,-8.71717,33,0.0153005,10,-0.00177831,-2.05962,-0.307928,-0.191603,65.1484,0.204001,
2,0,0,1,0,64239.7,0.2019,0.20155,-8.87614,33,0.0152477,10,-0.00178898,-2.05178,-0.327516,-0.180144,62.3134,0.20155,
2,0,0,1,0,64239.7,0.199503,0.199145,-9.01317,33,0.015194,10,-0.00179492,-2.04512,-0.339269,-0.173903,61.1595,0.199145,
2,0,0,1,0,64239.7,0.197106,0.196732,-9.15808,33,0.0151395,10,-0.00180169,-2.0382,-0.342921,-0.172051,61.5176,0.196732,
2,0,0,1,0,64239.7,0.194709,0.194367,-9.29829,33,0.0150841,10,-0.00180728,-2.0316,-0.356759,-0.165378,60.018,0.194367,
2,0,0,1,0,64239.7,0.192303,0.19194,-9.44571,33,0.0150278,10,-0.00181301,-2.02477,-0.374043,-0.157736,58.0985,0.19194,
2,0,0,1,0,64239.7,0.189906,0.189575,-9.57358,33,0.0149707,10,-0.00181492,-2.01893,-0.397023,-0.148606,55.5812,0.189575,
2,0,0,1,0,64239.7,0.187509,0.187166,-9.71927,33,0.0149129,10,-0.00181912,-2.01237,-0.393391,-0.149978,56.8684,0.1871662,
2,0,0,1,0,64239.7,0.185101,0.184786,-9.8639,33,0.0148541,10,-0.00182271,-2.00595,-0.406891,-0.145002,55.7423,0.184786,
2,0,0,1,0,64239.7,0.182704,0.182337,-9.98577,33,0.0147945,10,-0.00182078,-2.00062,-0.420093,-0.140445,54.7863,0.182337,
2,0,0,1,0,64239.7,0.180307,0.180006,-10.1303,33,0.0147342,10,-0.00182352,-1.99438,-0.405851,-0.145373,57.4416,0.180006,
2,0,0,1,0,64239.7,0.177904,0.177547,-10.2713,33,0.014673,10,-0.00182364,-1.98838,-0.408858,-0.144305,57.7855,0.177547,
2,0,0,1,0,64239.8,0.175501,0.175177,-10.3956,33,0.014611,10,-0.00182107,-1.98315,-0.418489,-0.140983,57.2154,0.175177,
2,0,0,1,0,64239.8,0.173104,0.172789,-10.5354,33,0.0145482,10,-0.0018204,-1.97735,-0.417767,-0.141227,58.0692,0.1727892,
2,0,0,1,0,64239.8,0.170707,0.170367,-10.6707,33,0.0144846,10,-0.00181794,-1.97181,-0.40548,-0.145506,60.6344,0.170367,
2,0,0,1,0,64239.8,0.168302,0.167998,-10.8173,33,0.0144201,10,-0.00181728,-1.96588,-0.410777,-0.14363,60.6213,0.1679983,
2,0,0,1,0,64239.8,0.165905,0.165574,-10.9597,33,0.0143547,10,-0.00181464,-1.9602,-0.418726,-0.140904,60.3211,0.165574,
2,0,0,1,0,64239.8,0.163507,0.163164,-11.1125,33,0.0142885,10,-0.00181316,-1.95419,-0.401355,-0.147002,63.7884,0.163164,
2,0,0,1,0,64239.8,0.161099,0.160777,-11.2774,33,0.0142213,10,-0.00181315,-1.94779,-0.393806,-0.14982,65.8673,0.160777,
2,0,0,1,0,64239.8,0.158702,0.15838,-11.4184,33,0.0141532,10,-0.00180845,-1.94239,-0.381313,-0.154729,69.0665,0.15838,
2,0,0,1,0,64239.8,0.156305,0.155985,-11.5998,33,0.0140842,10,-0.0018094,-1.93555,-0.363588,-0.162272,73.5142,0.155985,
2,0,0,1,0,64239.8,0.153908,0.15356,-11.781,33,0.014014,10,-0.00180909,-1.92882,-0.36179,-0.163078,74.9571,0.1535598,
2,0,0,1,0,64239.8,0.151503,0.151219,-11.9549,33,0.0139428,10,-0.00180782,-1.92245,-0.337056,-0.175045,81.7867,0.151219,
2,0,0,1,0,64239.8,0.149105,0.148783,-12.1581,33,0.0138704,10,-0.00180892,-1.91513,-0.325435,-0.181296,86.1167,0.148783,
2,0,0,1,0,64239.8,0.146708,0.146421,-12.3803,33,0.0137968,10,-0.00181274,-1.90727,-0.305029,-0.193424,93.5163,0.146421,
2,0,0,1,0,64239.8,0.1443,0.143966,-12.612,33,0.0137218,10,-0.00181571,-1.89921,-0.288993,-0.204157,100.594,0.1439663,
2,0,0,1,0,64239.8,0.141903,0.141555,-12.8605,33,0.0136454,10,-0.00182046,-1.89074,-0.271002,-0.21771,109.425,0.141555,
2,0,0,1,0,64239.8,0.139506,0.139182,-13.1365,33,0.0135674,10,-0.00182836,-1.88152,-0.248895,-0.237048,121.75,0.139182,
2,0,0,1,0,64239.9,0.137109,0.136816,-13.4373,33,0.0134876,10,-0.00183844,-1.87169,-0.235968,-0.250033,131.339,0.136816,
2,0,0,1,0,64239.9,0.134701,0.134394,-13.7662,33,0.013406,10,-0.00185009,-1.86119,-0.217273,-0.271547,146.153,0.134394,
2,0,0,1,0,64239.9,0.132303,0.13196,-14.1316,33,0.0133223,10,-0.00186481,-1.84981,-0.205808,-0.286674,158.395,0.13196,
2,0,0,1,0,64239.9,0.129906,0.129552,-14.5301,33,0.0132363,10,-0.0018824,-1.83773,-0.195056,-0.302478,171.669,0.1295522,
2,0,0,1,0,64239.9,0.127501,0.127176,-14.9553,33,0.0131478,10,-0.00190195,-1.8252,-0.187313,-0.31498,184.003,0.127176,
2,0,0,1,0,64239.9,0.125104,0.124773,-15.3997,33,0.0130567,10,-0.00192146,-1.81249,-0.183953,-0.320734,193.013,0.124773,
2,0,0,1,0,64239.9,0.122707,0.122356,-15.8834,33,0.0129628,10,-0.00194344,-1.79906,-0.179154,-0.329326,204.126,0.122356,
2,0,0,1,0,64239.9,0.12031,0.11996,-16.3662,33,0.012866,10,-0.00196328,-1.78605,-0.182418,-0.323432,206.709,0.11996,
2,0,0,1,0,64239.9,0.117901,0.117541,-16.8812,33,0.0127662,10,-0.00198423,-1.7726,-0.181936,-0.32429,213.791,0.117541,
2,0,0,1,0,64239.9,0.115504,0.115166,-17.4146,33,0.0126633,10,-0.00200557,-1.75909,-0.182745,-0.322854,219.212,0.115166,
2,0,0,1,0,64239.9,0.113107,0.112791,-17.9345,33,0.0125572,10,-0.00202285,-1.74631,-0.18661,-0.316167,221.297,0.112791,
2,0,0,1,0,64239.9,0.110702,0.11038,-18.4736,33,0.0124479,10,-0.00203911,-1.73345,-0.192228,-0.306926,221.141,0.11038,
2,0,0,1,0,64239.9,0.108305,0.107988,-19.0084,33,0.0123354,10,-0.00205267,-1.72106,-0.198663,-0.296986,220.011,0.107988,
2,0,0,1,0,64239.9,0.105908,0.105599,-19.5269,33,0.0122198,10,-0.00206201,-1.70937,-0.211823,-0.278534,211.958,0.105599,
2,0,0,1,0,64239.9,0.103505,0.103263,-20.0171,33,0.0121011,10,-0.00206702,-1.6986,-0.217167,-0.27168,212.254,0.1032626,
2,0,0,1,0,64239.9,0.101102,0.100797,-20.5286,33,0.0119794,10,-0.00206923,-1.68764,-0.22252,-0.265145,212.464,0.100797,
2,0,0,1,0,64239.9,0.0987052,0.0984505,-21.0378,33,0.0118547,10,-0.00207119,-1.677,-0.230335,-0.256149,210.142,0.0984505,
2,0,0,1,0,64240,0.0963081,0.0959988,-21.5404,33,0.0117268,10,-0.00206785,-1.66675,-0.246647,-0.239208,200.833,0.0959988,
2,0,0,1,0,64240,0.0938999,0.0936044,-22.0092,33,0.0115961,10,-0.00206016,-1.65739,-0.261476,-0.225642,193.777,0.0936044,
2,0,0,1,0,64240,0.0915028,0.0911793,-22.4819,33,0.0114626,10,-0.00204988,-1.64817,-0.27826,-0.212032,185.777,0.0911793,
2,0,0,1,0,64240,0.0891057,0.0888358,-22.9202,33,0.0113263,10,-0.00203614,-1.63978,-0.295634,-0.199571,178.275,0.0888358,
2,0,0,1,0,64240,0.0867002,0.0863714,-23.3326,33,0.0111876,10,-0.00201527,-1.63204,-0.318751,-0.185097,168.413,0.0863714,
2,0,0,1,0,64240,0.0843031,0.0839865,-23.7326,33,0.0110463,10,-0.00199322,-1.62465,-0.341369,-0.172833,159.851,0.0839865,
2,0,0,1,0,64240,0.081906,0.0816409,-24.0964,33,0.0109028,10,-0.00196725,-1.61805,-0.373882,-0.157804,148.259,0.0816409,
2,0,0,1,0,64240,0.0795089,0.0792221,-24.4391,33,0.0107571,10,-0.00193611,-1.61192,-0.398861,-0.147921,140.982,0.0792221,
2,0,0,1,0,64240,0.0771007,0.0767853,-24.7661,33,0.0106095,10,-0.00190167,-1.60614,-0.436713,-0.1351,130.446,0.0767853,
2,0,0,1,0,64240,0.0747036,0.0743824,-25.0674,33,0.0104599,10,-0.00186457,-1.60089,-0.479458,-0.123056,120.275,0.0743824,
2,0,0,1,0,64240,0.0723065,0.072022,-25.3404,33,0.0103087,10,-0.00182506,-1.59619,-0.528066,-0.111729,110.384,0.072022,
2,0,0,1,0,64240,0.0699011,0.0695894,-25.5984,33,0.0101558,10,-0.00178138,-1.59179,-0.583024,-0.101197,101.02,0.0695894,
2,0,0,1,0,64240,0.067504,0.0671802,-25.8284,33,0.0100015,10,-0.00173516,-1.5879,-0.635374,-0.0928587,93.5157,0.0671802,
2,0,0,1,0,64240,0.0651069,0.0647752,-26.0398,33,0.00984588,10,-0.00168673,-1.58436,-0.73153,-0.0806529,81.8869,0.0647752,
2,0,0,1,0,64240,0.0627098,0.0623818,-26.2087,33,0.0096891,10,-0.00163494,-1.58155,-0.839128,-0.0703111,71.9024,0.0623818,
2,0,0,1,0,64240,0.0603016,0.0599482,-26.3815,33,0.00953128,10,-0.00158152,-1.5787,-0.955495,-0.0617481,63.5237,0.0599482,
2,0,0,1,0,64240,0.0579045,0.0575909,-26.5246,33,0.00937253,10,-0.00152758,-1.57635,-1.14394,-0.0515763,53.3366,0.0575909,
2,0,0,1,0,64240.1,0.0555074,0.0551774,-26.6322,33,0.00921305,10,-0.0014695,-1.57459,-1.2929,-0.045634,47.4274,0.0551774,
2,0,0,1,0,64240.1,0.0530992,0.052765,-26.7515,33,0.00905291,10,-0.00141154,-1.57265,-1.4417,-0.040924,42.6897,0.052765,
2,0,0,1,0,64240.1,0.0507021,0.0503812,-26.8434,33,0.00889211,10,-0.0013524,-1.57116,-1.83171,-0.0322103,33.7069,0.0503812,
2,0,0,1,0,64240.1,0.048305,0.0479688,-26.9072,33,0.00873086,10,-0.00129071,-1.57013,-2.3776,-0.024815,26.0509,0.0479688,
2,0,0,1,0,64240.1,0.0459051,0.045568,-26.962,33,0.00856927,10,-0.00122861,-1.56925,-2.82218,-0.0209059,21.9929,0.045568,
2,0,0,1,0,64240.1,0.0435024,0.0431535,-27.0128,33,0.0084073,10,-0.00116569,-1.56843,-3.40427,-0.0173312,18.2621,0.0431535,
2,0,0,1,0,64240.1,0.0411053,0.0408047,-27.0501,33,0.00824511,10,-0.00110377,-1.56783,-5.65428,-0.0104346,11.0118,0.0408047,
2,0,0,1,0,64240.1,0.0387082,0.0383944,-27.0708,33,0.00808273,10,-0.00103937,-1.5675,-6.08332,-0.00969864,10.2462,0.0383944,
2,0,0,1,0,64240.1,0.0363,0.0359947,-27.0975,33,0.00792024,10,-0.000975364,-1.56707,-8.89835,-0.00663045,7.00945,0.0359947,
2,0,0,1,0,64240.1,0.0339029,0.0335388,-27.1071,33,0.00775763,10,-0.00090914,-1.56692,-38.244,-0.00154273,1.63086,0.0335388,
2,0,0,1,0,64240.1,0.0315058,0.031174,-27.1004,33,0.007595,10,-0.000844829,-1.56702,247.533,0.000238352,-0.252133,0.031174,
2,0,0,1,0,64240.1,0.0291087,0.0288019,-27.0951,33,0.00743243,10,-0.000780392,-1.56711,31.5603,0.00186944,-1.97698,0.0288019,
2,0,0,1,0,64240.1,0.0267033,0.0263577,-27.0901,33,0.00726985,10,-0.000714032,-1.56719,9.28096,0.0063571,-6.71714,0.0263577,
2,0,0,1,0,64240.1,0.0243062,0.0239834,-27.0629,33,0.00710737,10,-0.000649062,-1.56763,5.68525,0.0103777,-10.9584,0.0239834,
2,0,0,1,0,64240.1,0.0219091,0.0215816,-27.0284,33,0.0069451,10,-0.000583317,-1.56818,5.27557,0.0111836,-11.8012,0.0215816,
2,0,0,1,0,64240.1,0.0195009,0.0191437,-27.0109,33,0.00678296,10,-0.000517089,-1.56846,4.1625,0.0141742,-14.9309,0.01914374,
2,0,0,1,0,64240.2,0.0171038,0.0168034,-26.9611,33,0.00662104,10,-0.000453039,-1.56926,2.88306,0.0204644,-21.5325,0.0168034,
2,0,0,1,0,64240.2,0.0147067,0.0143539,-26.91,33,0.00645943,10,-0.000386264,-1.57009,2.88198,0.020472,-21.4959,0.0143539,
2,0,0,1,0,64240.2,0.012304,0.0119499,-26.8649,33,0.00629813,10,-0.000321033,-1.57082,2.45585,0.0240242,-25.1737,0.0119499,
2,0,0,1,0,64240.2,0.00990136,0.00953327,-26.8006,33,0.00613717,10,-0.000255498,-1.57185,2.11771,0.0278602,-29.1155,0.00953327,
2,0,0,1,0,64240.2,0.00750426,0.00719614,-26.7146,33,0.00597665,10,-0.000192242,-1.57325,1.75806,0.0335597,-34.9817,0.00719614,
2,0,0,1,0,64240.2,0.00510715,0.00479432,-26.6222,33,0.00581665,10,-0.000127635,-1.57476,2.14936,0.02745,-28.549,0.00479432,
2,0,0,1,0,64240.2,0.00270173,0.00238189,-26.5412,33,0.00565715,10,-6.32184e-05,-1.57608,1.68607,0.0349926,-36.2463,0.00238189,
2,0,0,1,0,64240.2,0.000304623,-6.44635e-05,-26.4677,33,0.00549801,10,1.7062e-06,-1.57728,1.48978,0.0396032,-40.8626,-0.0000644635,
2,0,0,1,0,64240.2,-0.00209248,-0.00245144,-26.3402,33,0.0053396,10,6.45713e-05,-1.57938,1.25158,0.0471406,-48.4857,-0.00245144,
2,0,0,1,0,64240.2,-0.00450068,-0.00490734,-26.2455,33,0.00518188,10,0.000128796,-1.58095,1.19807,0.049246,-50.3873,-0.00490734,
2,0,0,1,0,64240.2,-0.00689779,-0.00727417,-26.111,33,0.00502483,10,0.000189936,-1.58318,1.11988,0.052684,-53.6522,-0.00727417,
2,0,0,1,0,64240.2,-0.00929489,-0.00965797,-25.9685,33,0.00486863,10,0.000250803,-1.58555,1.09193,0.0540325,-54.7851,-0.009657966,
2,0,0,1,0,64240.2,-0.011692,-0.0120884,-25.8478,33,0.00471322,10,0.000312459,-1.58758,1.07837,0.0547121,-55.1633,-0.0120884,
2,0,0,1,0,64240.2,-0.0140974,-0.0144849,-25.7016,33,0.00455855,10,0.000372286,-1.59004,1.01093,0.0583624,-58.5332,-0.0144849,
2,0,0,1,0,64240.2,-0.0164945,-0.0168486,-25.5595,33,0.00440477,10,0.000430641,-1.59245,0.953705,0.061864,-61.726,-0.0168486,
2,0,0,1,0,64240.2,-0.0188916,-0.0192875,-25.4179,33,0.00425186,10,0.000490248,-1.59486,1.00417,0.058755,-58.2794,-0.0192875,
2,0,0,1,0,64240.2,-0.0212998,-0.0217084,-25.2789,33,0.00409978,10,0.000548766,-1.59724,1.00349,0.0587948,-57.9941,-0.0217084,
2,0,0,1,0,64240.3,-0.0236969,-0.0241145,-25.136,33,0.00394855,10,0.000606143,-1.5997,0.957343,0.0616289,-60.4452,-0.0241145,
2,0,0,1,0,64240.3,-0.026094,-0.0264856,-24.9945,33,0.00379817,10,0.000661992,-1.60216,1.02511,0.057555,-56.1677,-0.0264856,
2,0,0,1,0,64240.3,-0.0284912,-0.0288397,-24.8577,33,0.00364865,10,0.000716889,-1.60454,1.03347,0.0570893,-55.4037,-0.0288397,
2,0,0,1,0,64240.3,-0.0308994,-0.031286,-24.7364,33,0.00349987,10,0.000773904,-1.60666,1.02091,0.0577915,-55.7674,-0.031286,
2,0,0,1,0,64240.3,-0.0332965,-0.0336507,-24.5899,33,0.0033519,10,0.000827467,-1.60924,1.08772,0.0542417,-52.0967,-0.0336507,
2,0,0,1,0,64240.3,-0.0356936,-0.0360366,-24.479,33,0.00320473,10,0.00088214,-1.61121,1.19301,0.0494548,-47.2731,-0.0360366,
2,0,0,1,0,64240.3,-0.038099,-0.0384639,-24.3851,33,0.00305815,10,0.000937946,-1.61288,1.2701,0.0464529,-44.1817,-0.0384639,
2,0,0,1,0,64240.3,-0.0404961,-0.0408626,-24.2586,33,0.00291223,10,0.00099127,-1.61513,1.27825,0.0461569,-43.7377,-0.04086256,
2,0,0,1,0,64240.3,-0.0428932,-0.0432941,-24.1645,33,0.00276697,10,0.00104618,-1.61682,1.49755,0.0393976,-37.175,-0.04329408,
2,0,0,1,0,64240.3,-0.0452903,-0.0456917,-24.0818,33,0.00262223,10,0.00110034,-1.61831,1.62386,0.0363332,-34.1468,-0.0456917,
2,0,0,1,0,64240.3,-0.0476985,-0.0480903,-23.9949,33,0.00247799,10,0.00115392,-1.61988,1.68414,0.0350326,-32.8213,-0.0480903,
2,0,0,1,0,64240.3,-0.0500956,-0.0505123,-23.926,33,0.00233423,10,0.00120855,-1.62113,1.85466,0.0318117,-29.7135,-0.0505123,
2,0,0,1,0,64240.3,-0.0524927,-0.0528727,-23.8544,33,0.0021909,10,0.00126125,-1.62243,2.17963,0.0270689,-25.2125,-0.0528727,
2,0,0,1,0,64240.3,-0.0548981,-0.0553011,-23.8101,33,0.00204791,10,0.00131672,-1.62324,2.42247,0.0243553,-22.6337,-0.0553011,
2,0,0,1,0,64240.3,-0.0572953,-0.0576796,-23.7487,33,0.00190524,10,0.00136982,-1.62436,2.69941,0.0218567,-20.2691,-0.0576796,
2,0,0,1,0,64240.3,-0.0596924,-0.0600633,-23.7071,33,0.00176288,10,0.00142393,-1.62512,3.90902,0.0150933,-13.974,-0.0600633,
2,0,0,1,0,64240.3,-0.062095,-0.0624959,-23.6896,33,0.00162072,10,0.0014805,-1.62544,4.45928,0.0132308,-12.2253,-0.0624959,
2,0,0,1,0,64240.4,-0.0644977,-0.0648744,-23.6531,33,0.00147869,10,0.00153448,-1.62611,6.18801,0.00953457,-8.80354,-0.0648744,
2,0,0,1,0,64240.4,-0.0668948,-0.0672826,-23.6225,33,0.0013369,10,0.00158938,-1.62667,7.39094,0.00798275,-7.36505,-0.0672826,
2,0,0,1,0,64240.4,-0.0692919,-0.0696865,-23.622,33,0.00119514,10,0.00164613,-1.62668,26.6194,0.00221642,-2.04304,-0.0696865,
2,0,0,1,0,64240.4,-0.0717001,-0.0720714,-23.6124,33,0.00105342,10,0.00170178,-1.62686,173.007,0.000341027,-0.314377,-0.0720714,
2,0,0,1,0,64240.4,-0.0740972,-0.0744764,-23.6173,33,0.000911742,10,0.00175893,-1.62677,-32.8061,-0.00179845,1.65873,-0.0744764,
2,0,0,1,0,64240.4,-0.0764943,-0.0768613,-23.631,33,0.00077,10,0.00181631,-1.62652,-9.60485,-0.00614273,5.66599,-0.0768613,
2,0,0,1,0,64240.4,-0.0788997,-0.0792907,-23.6536,33,0.000628171,10,0.00187551,-1.6261,-8.70492,-0.00677778,6.25587,-0.0792907,
2,0,0,1,0,64240.4,-0.0812968,-0.0816744,-23.6627,33,0.000486218,10,0.00193264,-1.62594,-5.07851,-0.0116176,10.7329,-0.0816744,
2,0,0,1,0,64240.4,-0.0836939,-0.0840752,-23.6949,33,0.000344137,10,0.00199216,-1.62534,-3.7535,-0.0157186,14.5437,-0.0840752,
2,0,0,1,0,64240.4,-0.086091,-0.086459,-23.7302,33,0.000201857,10,0.00205169,-1.6247,-3.38892,-0.0174097,16.1292,-0.086459,
2,0,0,1,0,64240.4,-0.0884992,-0.0889022,-23.7767,33,5.93024e-05,10,0.0021138,-1.62385,-2.80156,-0.0210597,19.5426,-0.0889022,
2,0,0,1,0,64240.4,-0.0908963,-0.0912754,-23.8137,33,-8.34813e-05,10,0.0021736,-1.62317,-2.68425,-0.0219801,20.444,-0.0912754,
2,0,0,1,0,64240.4,-0.0932934,-0.0936623,-23.8767,33,-0.00022658,10,0.00223634,-1.62203,-2.3228,-0.0254004,23.6737,-0.0936623,
2,0,0,1,0,64240.4,-0.0956989,-0.0960557,-23.9427,33,-0.000370032,10,0.00229983,-1.62083,-2.23661,-0.0263791,24.6465,-0.0960557,
2,0,0,1,0,64240.4,-0.098096,-0.0984999,-23.993,33,-0.000513836,10,0.00236331,-1.61992,-2.42765,-0.0243034,22.7396,-0.0984999,
2,0,0,0,0,64240.4,-0.0999548,-0.100324,-24.0371,33,-0.000626753,10,0.00241149,-1.61912,0.0288741,2.04335,-1809.29,-0.1003238,
2,0,0,1,1,64240.4,-0.0994555,-0.0998816,-22.8062,33,-0.000666299,10,0.00227792,-1.64195,-0.0285327,-2.0678,1702.32,-0.0998816,
2,0,0,1,1,64240.5,-0.0970583,-0.0975042,-19.3132,33,-0.000791586,10,0.00188312,-1.71415,-0.0342461,-1.72282,1322.95,-0.0975042,
2,0,0,1,1,64240.5,-0.0946501,-0.09506,-16.7217,33,-0.000899204,10,0.00158956,-1.77672,-0.0389678,-1.51407,998.796,-0.09506,
2,0,0,1,1,64240.5,-0.092253,-0.0926486,-14.5556,33,-0.000992669,10,0.00134855,-1.83697,-0.0393383,-1.49981,855.669,-0.0926486,
2,0,0,1,1,64240.5,-0.0898559,-0.0902786,-12.6467,33,-0.00107398,10,0.00114173,-1.89802,-0.0379246,-1.55572,767.514,-0.0902786,
2,0,0,1,1,64240.5,-0.0874588,-0.0878386,-10.9113,33,-0.0011444,10,0.00095843,-1.96212,-0.0362872,-1.62592,691.001,-0.08783859,
2,0,0,1,1,64240.5,-0.0850534,-0.0854749,-9.32313,33,-0.00120484,10,0.000796894,-2.03044,-0.0337619,-1.74753,633.751,-0.0854749,
2,0,0,1,1,64240.5,-0.0826563,-0.0830805,-7.87623,33,-0.00125623,10,0.000654361,-2.10368,-0.0307989,-1.91565,583.515,-0.0830805,
2,0,0,1,1,64240.5,-0.0802592,-0.0806808,-6.5107,33,-0.00129921,10,0.000525289,-2.18637,-0.0269338,-2.19056,549.831,-0.0806808,
2,0,0,1,1,64240.5,-0.077851,-0.0782239,-5.23023,33,-0.00133426,10,0.000409129,-2.28148,-0.0232732,-2.53511,508.377,-0.0782239,
2,0,0,1,1,64240.5,-0.0754539,-0.0758539,-4.05315,33,-0.00136198,10,0.000307447,-2.39221,-0.0186576,-3.16226,481.814,-0.0758539,
2,0,0,1,1,64240.5,-0.0730568,-0.0734043,-2.92631,33,-0.00138278,10,0.000214804,-2.53368,-0.0137622,-4.28712,456.24,-0.0734043,
2,0,0,1,1,64240.5,-0.0706597,-0.071082,-1.87021,33,-0.00139701,10,0.000132939,-2.72811,-0.00823799,-7.16194,428.603,-0.071082,
2,0,0,1,1,64240.5,-0.0682542,-0.0686696,-0.870017,33,-0.00140507,10,5.97437e-05,-3.06047,-0.00830854,-7.10112,405.311,-0.06866961,
2,0,0,1,1,64240.5,-0.0658571,-0.0662381,0.0785889,33,-0.00140733,10,-5.20558e-06,-4.10464,0.242985,0.242813,382.097,-0.0662381,
2,1,0,1,1,64240.5,-0.06346,-0.0638851,0.974899,33,-0.00140408,10,-6.22815e-05,-3.01104,0.00677479,8.70876,364.485,-0.0638851,
2,1,0,1,1,64240.5,-0.0610518,-0.0614175,1.84089,33,-0.00139553,10,-0.000113063,-2.73497,0.0102069,5.78038,343.763,-0.0614175,
2,1,0,1,1,64240.5,-0.0586547,-0.0590772,2.64339,33,-0.00138199,10,-0.000156164,-2.57784,0.0171472,3.4408,330.968,-0.05907717,
2,1,0,1,1,64240.6,-0.0562576,-0.0566966,3.40928,33,-0.00136377,10,-0.000193294,-2.46734,0.0241209,2.44601,313.121,-0.0566966,
2,1,0,1,1,64240.6,-0.053855,-0.0542894,4.15509,33,-0.00134099,10,-0.000225578,-2.38142,0.0309876,1.90399,299.999,-0.0542894,
2,1,0,1,1,64240.6,-0.0514523,-0.0518791,4.84766,33,-0.00131389,10,-0.000251492,-2.31447,0.0380623,1.55009,288.333,-0.05187913,
2,1,0,1,1,64240.6,-0.0490552,-0.0495049,5.52065,33,-0.00128272,10,-0.000273299,-2.25801,0.0456151,1.29343,275.39,-0.0495049,
2,1,0,1,1,64240.6,-0.0466581,-0.0471009,6.17004,33,-0.00124754,10,-0.000290615,-2.20971,0.0534852,1.10311,262.466,-0.0471009,
2,1,0,1,1,64240.6,-0.0442527,-0.0447055,6.77844,33,-0.00120861,10,-0.000303034,-2.16887,0.0623018,0.947003,248.6,-0.0447055,
2,1,0,1,1,64240.6,-0.0418556,-0.0422867,7.36002,33,-0.00116612,10,-0.000311231,-2.13312,0.0715897,0.824141,235.116,-0.04228669,
2,1,0,1,1,64240.6,-0.0394585,-0.0398711,7.92528,33,-0.00112018,10,-0.000315989,-2.10099,0.0793835,0.743228,228.504,-0.0398711,
2,1,0,1,1,64240.6,-0.0370558,-0.0374746,8.45679,33,-0.001071,10,-0.000316914,-2.07279,0.0892338,0.661184,217.206,-0.0374746,
2,1,0,1,1,64240.6,-0.0346532,-0.0350335,8.96869,33,-0.00101867,10,-0.000314205,-2.04727,0.0987284,0.597599,208.119,-0.0350335,
2,1,0,1,1,64240.6,-0.0322561,-0.0326465,9.44674,33,-0.000963358,10,-0.000308403,-2.02472,0.111621,0.528574,194.207,-0.0326465,
2,1,0,1,1,64240.6,-0.0298589,-0.0302436,9.9127,33,-0.000905215,10,-0.000299796,-2.00381,0.120929,0.48789,188.058,-0.0302436,
2,1,0,1,1,64240.6,-0.0274535,-0.0278567,10.3489,33,-0.000844366,10,-0.000288285,-1.98511,0.134444,0.438845,176.734,-0.0278567,
2,1,0,1,1,64240.6,-0.0250564,-0.0254421,10.761,33,-0.000780991,10,-0.000273782,-1.96815,0.146865,0.40173,168.428,-0.0254421,
2,1,0,1,1,64240.6,-0.0226593,-0.023035,11.166,33,-0.000715154,10,-0.000257209,-1.9521,0.157527,0.374538,162.747,-0.023035,
2,1,0,1,1,64240.6,-0.0202511,-0.020683,11.5463,33,-0.000646978,10,-0.000238812,-1.93756,0.173443,0.34017,152.915,-0.020683,
2,1,0,1,1,64240.6,-0.017854,-0.0182345,11.9002,33,-0.000576609,10,-0.000216994,-1.92445,0.187777,0.314202,145.682,-0.0182345,
2,1,0,1,1,64240.7,-0.0154569,-0.0158295,12.2531,33,-0.000504117,10,-0.000193961,-1.91175,0.201301,0.293094,139.799,-0.0158295,
2,1,0,1,1,64240.7,-0.0130598,-0.0134542,12.5641,33,-0.000429628,10,-0.000169041,-1.90087,0.220626,0.26742,131.031,-0.0134542,
2,1,0,1,1,64240.7,-0.0106516,-0.0110832,12.8834,33,-0.000353224,10,-0.000142788,-1.88997,0.234068,0.252064,126.594,-0.0110832,
2,1,0,1,1,64240.7,-0.00825448,-0.00866754,13.1916,33,-0.000274981,10,-0.000114339,-1.8797,0.254898,0.231465,118.932,-0.00866754,
2,1,0,1,1,64240.7,-0.00585738,-0.00623497,13.462,33,-0.000195009,10,-8.39352e-05,-1.87089,0.271858,0.217025,113.874,-0.00623497,
2,1,0,1,1,64240.7,-0.00345195,-0.00384057,13.7266,33,-0.000113399,10,-5.2718e-05,-1.86244,0.291207,0.202605,108.364,-0.00384057,
2,1,0,1,1,64240.7,-0.00105485,-0.00145466,13.9818,33,-3.02524e-05,10,-2.03387e-05,-1.85444, , , ,-0.00145466,
2,1,0,0,1,64240.7,-7.54729e-05,-0.000535284,14.0828,33,4.81611e-06,10,-7.53832e-06,-1.85131, , , ,-0.000535284,