File: Figure_codes/Fig_3-5/rawdata_trumpetplot_data/after 10th/20221101_1-115_003_TrumpetPlot_ParaChange_from10_every3_04_CV_C01_6.csv
mode,ox/red,error,control changes,counter inc.,time/s,control/V,Ewe/V,<I>/mA,cycle number,(Q-Qo)/C,I Range,P/W,log(|I|),Tafel slope mV/dec,alpha_eff,dI/d(E-IR),E-IR/V,
2,0,0,1,0,12880.8,2.44065e-05,-0.000229887,-0.398329,7,0.0000000E+000,10,9.15706e-08,-3.39976, , , ,-0.000229887,
2,1,0,1,0,12880.9,0.00129787,0.000940802,0.185266,7,4.22268e-06,10,1.74298e-07,-3.73221, , , ,0.000940802,
2,1,0,1,0,12881.1,0.00279606,0.00246249,0.29804,7,4.48023e-05,10,7.3392e-07,-3.52572,0.0071618,8.23815,61.0401,0.00246249,
2,1,0,1,0,12881.2,0.00429425,0.0040075,0.328882,7,9.43083e-05,10,1.31799e-06,-3.48296,0.03598,1.6398,20.4101,0.0040075,
2,1,0,1,0,12881.4,0.00579244,0.00547298,0.352769,7,0.000148113,10,1.9307e-06,-3.45251,0.0500267,1.17937,16.1376,0.005472979,
2,1,0,1,0,12881.5,0.00729063,0.00694376,0.376729,7,0.000205412,10,2.61592e-06,-3.42397,0.0621059,0.949991,13.8363,0.00694376,
2,1,0,1,0,12881.7,0.00878882,0.00847605,0.397047,7,0.000265941,10,3.36539e-06,-3.40116,0.0800846,0.736721,11.3159,0.00847605,
2,1,0,1,0,12881.8,0.010287,0.0100052,0.411878,7,0.000329065,10,4.12091e-06,-3.38523,0.102744,0.574241,9.1631,0.0100052,
2,1,0,1,0,12882,0.0117852,0.0114388,0.425397,7,0.000394369,10,4.86604e-06,-3.37121,0.105651,0.55844,9.26672,0.0114388,
2,1,0,1,0,12882.1,0.0132838,0.0129759,0.439166,7,0.000461512,10,5.69859e-06,-3.35737,0.112477,0.52455,9.01227,0.01297594,
2,1,0,1,0,12882.3,0.0147814,0.0144343,0.451641,7,0.0005308,10,6.51913e-06,-3.34521,0.120657,0.488991,8.62494,0.0144343,
2,1,0,1,0,12882.4,0.0162789,0.0159244,0.464275,7,0.00060217,10,7.39331e-06,-3.33322,0.146622,0.402396,7.28151,0.0159244,
2,1,0,1,0,12882.6,0.017778,0.0174375,0.476232,7,0.000675224,10,8.30433e-06,-3.32218,0.137904,0.427833,7.94407,0.0174375,
2,1,0,1,0,12882.7,0.0192761,0.0188818,0.487398,7,0.000749656,10,9.20297e-06,-3.31212,0.155898,0.378454,7.17655,0.01888182,
2,1,0,1,0,12882.9,0.0207743,0.0204438,0.500016,7,0.000826058,10,1.02222e-05,-3.30102,0.140372,0.420311,8.12899,0.0204438,
2,1,0,1,0,12883,0.0222725,0.021975,0.509833,7,0.000904103,10,1.12036e-05,-3.29257,0.160161,0.36838,7.31434,0.021975,
2,1,0,1,0,12883.2,0.0237707,0.0234638,0.519006,7,0.000983757,10,1.21779e-05,-3.28483,0.177945,0.331563,6.74452,0.0234638,
2,1,0,1,0,12883.3,0.0252689,0.0249728,0.529862,7,0.0010648,10,1.32321e-05,-3.27584,0.173835,0.339402,7.04669,0.0249728,
2,1,0,1,0,12883.5,0.0267671,0.0264605,0.543028,7,0.0011476,10,1.43688e-05,-3.26518,0.161451,0.365435,7.73071,0.0264605,
2,1,0,1,0,12883.6,0.0282662,0.0279386,0.554052,7,0.00123229,10,1.54795e-05,-3.25645,0.168144,0.350889,7.56769,0.0279386,
2,1,0,1,0,12883.8,0.0297635,0.0294562,0.56557,7,0.00131857,10,1.66596e-05,-3.24751,0.190749,0.309307,6.80205,0.0294562,
2,1,0,1,0,12883.9,0.031261,0.0309181,0.570167,7,0.00140616,10,1.76285e-05,-3.244,0.190631,0.309498,6.93807,0.0309181,
2,1,0,1,0,12884.1,0.0327599,0.0324529,0.585185,7,0.00149534,10,1.8991e-05,-3.23271,0.187441,0.314765,7.17269,0.0324529,
2,1,0,1,0,12884.2,0.034258,0.0339619,0.595076,7,0.00158631,10,2.02099e-05,-3.22543,0.182611,0.323091,7.50647,0.0339619,
2,1,0,1,0,12884.4,0.0357562,0.0354592,0.606286,7,0.00167893,10,2.14984e-05,-3.21732,0.207227,0.284712,6.72361,0.0354592,
2,1,0,1,0,12884.5,0.0372544,0.0369384,0.614499,7,0.00177322,10,2.26986e-05,-3.21148,0.211072,0.279525,6.7276,0.0369384,
2,1,0,1,0,12884.7,0.0387526,0.0384188,0.628062,7,0.00186878,10,2.41293e-05,-3.202,0.199288,0.296054,7.28732,0.0384188,
2,1,0,1,0,12884.8,0.0402508,0.039916,0.638718,7,0.00196621,10,2.54951e-05,-3.19469,0.206252,0.286058,7.11867,0.039916,
2,1,0,1,0,12885,0.041749,0.0414536,0.652616,7,0.00206553,10,2.70533e-05,-3.18534,0.228851,0.257809,6.53887,0.0414536,
2,1,0,1,0,12885.1,0.0432472,0.0429021,0.661266,7,0.00216619,10,2.83697e-05,-3.17962,0.234526,0.251571,6.47836,0.0429021,
2,1,0,1,0,12885.3,0.0447458,0.0444065,0.670798,7,0.00226819,10,2.97878e-05,-3.17341,0.222708,0.264921,6.92158,0.0444065,
2,1,0,1,0,12885.4,0.0462433,0.0459772,0.679911,7,0.00237181,10,3.12604e-05,-3.16755,0.206311,0.285977,7.56961,0.0459772,
2,1,0,1,0,12885.6,0.0477409,0.0474037,0.690148,7,0.00247698,10,3.27156e-05,-3.16106,0.236315,0.249666,6.72666,0.0474037,
2,1,0,1,0,12885.7,0.0492399,0.0488786,0.698926,7,0.00258367,10,3.41625e-05,-3.15557,0.276154,0.213649,5.83769,0.0488786,
2,1,0,1,0,12885.9,0.0507381,0.0504003,0.705207,7,0.00269151,10,3.55426e-05,-3.15168,0.271296,0.217475,6.01888,0.0504003,
2,1,0,1,0,12886,0.0522363,0.0518785,0.717863,7,0.00280082,10,3.72416e-05,-3.14396,0.251735,0.234374,6.56307,0.0518785,
2,1,0,1,0,12886.2,0.0537345,0.053433,0.729594,7,0.0029117,10,3.89844e-05,-3.13692,0.269773,0.218703,6.20322,0.053433,
2,1,0,1,0,12886.3,0.0552327,0.0549325,0.736623,7,0.003024,10,4.04645e-05,-3.13275,0.315826,0.186812,5.36265,0.0549325,
2,1,0,1,0,12886.5,0.0567309,0.0563926,0.741726,7,0.00313754,10,4.18279e-05,-3.12976,0.310594,0.189959,5.51834,0.0563926,
2,1,0,1,0,12886.6,0.0582291,0.0579217,0.753725,7,0.00325228,10,4.36571e-05,-3.12279,0.304283,0.193898,5.71687,0.0579217,
2,1,0,1,0,12886.8,0.0597282,0.0594289,0.764817,7,0.00336857,10,4.54522e-05,-3.11644,0.288957,0.204182,6.08334,0.0594289,
2,1,0,1,0,12886.9,0.0612255,0.0609424,0.771411,7,0.00348619,10,4.70116e-05,-3.11271,0.334603,0.176328,5.30367,0.0609424,
2,1,0,1,0,12887.1,0.062723,0.0624595,0.781258,7,0.00360504,10,4.8797e-05,-3.10721,0.325009,0.181533,5.53462,0.0624595,
2,1,0,1,0,12887.2,0.0642218,0.0639141,0.787985,7,0.00372502,10,5.03634e-05,-3.10348,0.288012,0.204852,6.32128,0.0639141,
2,1,0,1,0,12887.4,0.06572,0.0653934,0.796236,7,0.00384627,10,5.20686e-05,-3.09896,0.320277,0.184216,5.72516,0.0653934,
2,1,0,1,0,12887.5,0.0672182,0.0669076,0.807811,7,0.00396913,10,5.40487e-05,-3.09269,0.339098,0.173991,5.45304,0.0669076,
2,1,0,1,0,12887.7,0.0687164,0.0683911,0.812699,7,0.00409286,10,5.55814e-05,-3.09007,0.43822,0.134635,4.26922,0.0683911,
2,1,0,1,0,12887.8,0.0702146,0.0698725,0.81976,7,0.00421741,10,5.72787e-05,-3.08631,0.410714,0.143652,4.59496,0.0698725,
2,1,0,1,0,12888,0.0717128,0.0713889,0.828152,7,0.0043432,10,5.91209e-05,-3.08189,0.34125,0.172894,5.57407,0.0713889,
2,1,0,1,0,12888.1,0.073211,0.0728353,0.835028,7,0.00447012,10,6.08195e-05,-3.0783,0.44436,0.132775,4.32876,0.0728353,
2,1,0,1,0,12888.3,0.0747092,0.0743655,0.841313,7,0.0045981,10,6.25646e-05,-3.07504,0.466561,0.126457,4.14944,0.0743655,
2,1,0,1,0,12888.4,0.0762078,0.075915,0.843448,7,0.00472695,10,6.40304e-05,-3.07394,0.432651,0.136369,4.50921,0.075915,
2,1,0,1,0,12888.6,0.0777053,0.0773626,0.853339,7,0.00485675,10,6.60165e-05,-3.06888,0.345484,0.170775,5.68873,0.0773626,
2,1,0,1,0,12888.7,0.0792029,0.0788308,0.86151,7,0.00498769,10,6.79136e-05,-3.06474,0.46046,0.128133,4.30408,0.0788308,
2,1,0,1,0,12888.9,0.0807019,0.0803801,0.867339,7,0.00511989,10,6.97168e-05,-3.06181,0.521517,0.113131,3.81883,0.0803801,
2,1,0,1,0,12889,0.0822001,0.0818975,0.872751,7,0.00525283,10,7.14762e-05,-3.05911,0.453485,0.130104,4.43672,0.0818975,
2,1,0,1,0,12889.2,0.0836983,0.0833969,0.879945,7,0.00538655,10,7.33847e-05,-3.05554,0.421399,0.14001,4.81361,0.0833969,
2,1,0,1,0,12889.3,0.0851965,0.0848667,0.887215,7,0.00552164,10,7.5295e-05,-3.05197,0.39146,0.150718,5.23308,0.08486668,
2,1,0,1,0,12889.5,0.0866947,0.0863512,0.896005,7,0.00565794,10,7.73711e-05,-3.04769,0.447048,0.131977,4.61393,0.0863512,
2,1,0,1,0,12889.6,0.0881929,0.0878804,0.906019,7,0.00579554,10,7.96213e-05,-3.04286,0.360731,0.163557,5.79648,0.0878804,
2,1,0,1,0,12889.8,0.0896911,0.0893596,0.914405,7,0.00593413,10,8.17109e-05,-3.03886,0.313268,0.188337,6.73649,0.0893596,
2,1,0,1,0,12889.9,0.0911902,0.0908503,0.927676,7,0.0060746,10,8.42796e-05,-3.0326,0.256222,0.230269,8.32099,0.0908503,
2,1,0,1,0,12890.1,0.0926875,0.0923618,0.938737,7,0.00621693,10,8.67034e-05,-3.02746,0.238017,0.247881,9.06818,0.0923618,
2,1,0,1,0,12890.2,0.094185,0.0938919,0.950929,7,0.00636102,10,8.92845e-05,-3.02185,0.249263,0.236698,8.79899,0.0938919,
2,1,0,1,0,12890.4,0.0956838,0.0953647,0.961693,7,0.00650686,10,9.17115e-05,-3.01696,0.233729,0.252429,9.50975,0.0953647,
2,1,0,1,0,12890.5,0.097182,0.0968111,0.978547,7,0.00665492,10,9.47342e-05,-3.00942,0.192088,0.307151,11.7363,0.0968111,
2,1,0,1,0,12890.7,0.0986802,0.0983656,0.996233,7,0.00680546,10,9.79951e-05,-3.00164,0.205658,0.286884,11.1472,0.09836565,
2,1,0,1,0,12890.8,0.100178,0.0998449,1.01492,7,0.00695863,10,0.000101335,-2.99357,0.208885,0.282453,11.1847,0.0998449,
2,1,0,1,0,12891,0.101677,0.101339,1.02851,7,0.00711416,10,0.000104228,-2.98779,0.2013,0.293095,11.8009,0.101339,
2,1,0,1,0,12891.1,0.103175,0.102879,1.05164,7,0.00727244,10,0.000108192,-2.97813,0.199027,0.296442,12.1538,0.102879,
2,1,0,1,0,12891.3,0.104673,0.104348,1.07278,7,0.0074337,10,0.000111943,-2.96949,0.201089,0.293402,12.2322,0.104348,
2,1,0,1,0,12891.4,0.106171,0.10585,1.09075,7,0.00759789,10,0.000115456,-2.96228,0.226313,0.260701,11.0434,0.10585,
2,1,0,1,0,12891.6,0.10767,0.107376,1.10333,7,0.00776476,10,0.000118472,-2.95729,0.230121,0.256387,11.0486,0.107376,
2,1,0,1,0,12891.7,0.109167,0.108883,1.11992,7,0.00793376,10,0.00012194,-2.95081,0.223665,0.263788,11.5514,0.1088826,
2,1,0,1,0,12891.9,0.110665,0.11036,1.13739,7,0.00810554,10,0.000125522,-2.94409,0.233515,0.252661,11.214,0.11036,
2,1,0,1,0,12892,0.112164,0.111848,1.15311,7,0.00827996,10,0.000128972,-2.93813,0.306639,0.192409,8.64122,0.111848,
2,1,0,1,0,12892.2,0.113662,0.11336,1.16851,7,0.00845648,10,0.000132462,-2.93237,0.315164,0.187204,8.51042,0.1133598,
2,1,0,1,0,12892.3,0.11516,0.114828,1.17805,7,0.0086344,10,0.000135274,-2.92884,0.371804,0.158686,7.29836,0.114828,
2,1,0,1,0,12892.5,0.116658,0.11636,1.19012,7,0.00881433,10,0.000138482,-2.92441,0.315932,0.186749,8.66161,0.11636,
2,1,0,1,0,12892.6,0.118157,0.117837,1.2051,7,0.00899636,10,0.000142005,-2.91898,0.36052,0.163652,7.6733,0.117837,
2,1,0,1,0,12892.8,0.119655,0.119385,1.21374,7,0.00918,10,0.000144902,-2.91588,0.474847,0.124251,5.89039,0.119385,
2,1,0,1,0,12892.9,0.121153,0.120852,1.22019,7,0.00936486,10,0.000147462,-2.91357,0.395471,0.149189,7.13301,0.120852,
2,1,0,1,0,12893.1,0.122652,0.122304,1.23474,7,0.0095516,10,0.000151014,-2.90842,0.324681,0.181717,8.75214,0.122304,
2,1,0,1,0,12893.2,0.124149,0.123811,1.24668,7,0.00974005,10,0.000154353,-2.90424,0.360125,0.163832,7.96859,0.123811,
2,1,0,1,0,12893.4,0.125647,0.125367,1.25988,7,0.00993034,10,0.000157947,-2.89967,0.447064,0.131972,6.47158,0.125367,
2,1,0,1,0,12893.5,0.127146,0.126811,1.26443,7,0.0101223,10,0.000160344,-2.89811,0.422725,0.139571,6.90534,0.126811,
2,1,0,1,0,12893.7,0.128644,0.128331,1.27841,7,0.0103154,10,0.00016406,-2.89333,0.394247,0.149652,7.47148,0.128331,
2,1,0,1,0,12893.8,0.130142,0.129828,1.29045,7,0.0105103,10,0.000167536,-2.88926,0.496313,0.118877,5.96728,0.129828,
2,1,0,1,0,12894,0.13164,0.131306,1.29562,7,0.0107067,10,0.000170123,-2.88752,1.12534,0.0524284,2.64249,0.131306,
2,1,0,1,0,12894.1,0.133139,0.132819,1.30063,7,0.0109038,10,0.000172749,-2.88585,3.82939,0.0154071,0.781139,0.132819,
2,1,0,1,0,12894.3,0.134637,0.134281,1.29903,7,0.0111007,10,0.000174435,-2.88638,-1.319,-0.0447308,-2.26558,0.134281,
2,1,0,1,0,12894.4,0.136135,0.135811,1.29608,7,0.0112976,10,0.000176022,-2.88737,-0.660726,-0.0892957,-4.49783,0.135811,
2,1,0,1,0,12894.6,0.137633,0.137332,1.28742,7,0.0114936,10,0.000176805,-2.89028,-0.313466,-0.188218,-9.39135,0.137332,
2,1,0,1,0,12894.7,0.139132,0.138803,1.26998,7,0.0116876,10,0.000176277,-2.8962,-0.202119,-0.291907,-14.3579,0.1388035,
2,1,0,1,0,12894.9,0.140629,0.1403,1.24242,7,0.0118781,10,0.000174311,-2.90573,-0.159328,-0.370304,-17.9057,0.1403,
2,1,0,1,0,12895,0.142127,0.141853,1.21351,7,0.0120646,10,0.000172141,-2.91596,-0.133846,-0.440804,-20.76,0.141853,
2,1,0,1,0,12895.2,0.143626,0.143294,1.17725,7,0.0122466,10,0.000168693,-2.92913,-0.106335,-0.554849,-25.3736,0.143294,
2,1,0,1,0,12895.3,0.145124,0.144831,1.13558,7,0.0124226,10,0.000164467,-2.94478,-0.0864793,-0.682244,-30.1885,0.144831,
2,1,0,1,0,12895.5,0.146622,0.146303,1.08947,7,0.0125917,10,0.000159394,-2.96278,-0.0826845,-0.713556,-30.3607,0.146303,
2,1,0,1,0,12895.6,0.14812,0.147764,1.0449,7,0.012754,10,0.000154397,-2.98093,-0.0801946,-0.73571,-29.8778,0.147764,
2,1,0,1,0,12895.8,0.149619,0.149307,0.998671,7,0.0129094,10,0.000149108,-3.00058,-0.0740796,-0.796441,-30.9961,0.149307,
2,1,0,1,0,12895.9,0.151117,0.150829,0.951722,7,0.0130578,10,0.000143548,-3.02149,-0.0721272,-0.818,-30.3449,0.150829,
2,1,0,1,0,12896.1,0.152615,0.15225,0.905999,7,0.0131995,10,0.000137938,-3.04287,-0.0743454,-0.793594,-28.1849,0.1522502,
2,1,0,1,0,12896.2,0.154114,0.153824,0.867249,7,0.0133348,10,0.000133404,-3.06186,-0.079183,-0.745109,-25.3305,0.153824,
2,1,0,1,0,12896.4,0.155612,0.155288,0.832945,7,0.0134645,10,0.000129347,-3.07938,-0.084289,-0.699973,-22.7798,0.155288,
2,1,0,1,0,12896.5,0.157109,0.156816,0.797699,7,0.0135891,10,0.000125092,-3.09816,-0.085543,-0.689712,-21.5216,0.156816,
2,1,0,1,0,12896.7,0.158608,0.158273,0.769832,7,0.0137091,10,0.000121844,-3.1136,-0.0964577,-0.611667,-18.477,0.158273,
2,1,0,1,0,12896.8,0.160106,0.159781,0.743275,7,0.0138249,10,0.000118761,-3.12885,-0.109185,-0.540369,-15.7424,0.159781,
2,1,0,1,0,12897,0.161604,0.161289,0.723508,7,0.0139371,10,0.000116694,-3.14056,-0.120481,-0.489702,-13.8578,0.161289,
2,1,0,1,0,12897.1,0.163102,0.162795,0.704338,7,0.0140463,10,0.000114663,-3.15222,-0.133748,-0.441128,-12.1088,0.1627949,
2,1,0,1,0,12897.3,0.164601,0.164269,0.687583,7,0.014153,10,0.000112949,-3.16267,-0.146712,-0.402147,-10.7856,0.164269,
2,1,0,1,0,12897.4,0.166099,0.165782,0.672104,7,0.0142569,10,0.000111423,-3.17256,-0.154189,-0.382646,-10.0451,0.165782,
2,1,0,1,0,12897.6,0.167597,0.167286,0.657914,7,0.0143589,10,0.00011006,-3.18183,-0.188617,-0.312803,-8.04541,0.167286,
2,1,0,1,0,12897.7,0.169095,0.168782,0.646873,7,0.0144591,10,0.000109181,-3.18918,-0.201501,-0.292802,-7.39286,0.168782,
2,1,0,1,0,12897.9,0.170594,0.170278,0.635719,7,0.0145577,10,0.000108249,-3.19673,-0.191789,-0.307629,-7.64872,0.1702778,
2,1,0,1,0,12898,0.172091,0.171805,0.624653,7,0.0146546,10,0.000107319,-3.20436,-0.246188,-0.239654,-5.85842,0.171805,
2,1,0,1,0,12898.2,0.173589,0.173264,0.618055,7,0.0147501,10,0.000107086,-3.20897,-0.297901,-0.198052,-4.77852,0.173264,
2,1,0,1,0,12898.3,0.175088,0.17477,0.610974,7,0.0148446,10,0.00010678,-3.21398,-0.298429,-0.197702,-4.70016,0.17477,
2,1,0,1,0,12898.5,0.176586,0.176302,0.60174,7,0.0149379,10,0.000106088,-3.22059,-0.326251,-0.180842,-4.25086,0.176302,
2,1,0,1,0,12898.6,0.178084,0.177748,0.595032,7,0.0150302,10,0.000105766,-3.22546,-0.348219,-0.169433,-3.94989,0.1777477,
2,1,0,1,0,12898.8,0.179582,0.179302,0.590753,7,0.0151214,10,0.000105923,-3.22859,-0.389031,-0.151659,-3.50748,0.179302,
2,1,0,1,0,12898.9,0.181081,0.180737,0.585121,7,0.0152121,10,0.000105753,-3.23275,-0.357666,-0.164958,-3.78427,0.180737,
2,1,0,1,0,12899.1,0.182579,0.182322,0.580294,7,0.0153021,10,0.000105801,-3.23635,-0.344231,-0.171397,-3.89036,0.182322,
2,1,0,1,0,12899.2,0.184077,0.183794,0.577465,7,0.0153913,10,0.000106135,-3.23847,-0.402308,-0.146654,-3.31431,0.183794,
2,1,0,1,0,12899.4,0.185576,0.185259,0.57247,7,0.0154797,10,0.000106055,-3.24225,-0.521454,-0.113145,-2.53244,0.185259,
2,1,0,1,0,12899.5,0.187074,0.186744,0.571156,7,0.0155678,10,0.00010666,-3.24324,-0.94256,-0.0625955,-1.38843,0.186744,
2,1,0,1,0,12899.7,0.188571,0.188223,0.567088,7,0.0156553,10,0.000106739,-3.24635,-0.700062,-0.0842782,-1.86106,0.188223,
2,1,0,1,0,12899.8,0.19007,0.189713,0.563917,7,0.0157424,10,0.000106982,-3.24879,-0.727969,-0.0810474,-1.78188,0.189713,
2,1,0,1,0,12900,0.191568,0.191264,0.559329,7,0.0158288,10,0.000106979,-3.25233,-0.651709,-0.0905313,-1.98148,0.191264,
2,1,0,1,0,12900.1,0.193066,0.19273,0.557173,7,0.015915,10,0.000107384,-3.25401,-3.22609,-0.0182884,-0.398191,0.19273,
2,1,0,1,0,12900.3,0.194564,0.194253,0.556755,7,0.0160008,10,0.000108151,-3.25434,-0.740138,-0.0797148,-1.72671,0.194253,
2,1,0,1,0,12900.4,0.196063,0.195781,0.552471,7,0.0160864,10,0.000108163,-3.25769,-0.573192,-0.102932,-2.22516,0.195781,
2,1,0,1,0,12900.6,0.197561,0.197228,0.548516,7,0.0161713,10,0.000108183,-3.26081,-0.695589,-0.0848202,-1.82426,0.197228,
2,1,0,1,0,12900.7,0.199059,0.198771,0.54947,7,0.0162559,10,0.000109219,-3.26006,-0.937793,-0.0629137,-1.34772,0.198771,
2,1,0,1,0,12900.9,0.200557,0.200281,0.546911,7,0.0163403,10,0.000109536,-3.26208,-0.928767,-0.0635251,-1.35346,0.200281,
2,1,0,1,0,12901,0.202056,0.201713,0.544092,7,0.0164245,10,0.00010975,-3.26433,-0.552028,-0.106879,-2.26854,0.201713,
2,1,0,1,0,12901.2,0.203553,0.203249,0.54127,7,0.0165083,10,0.000110013,-3.26659,-1.14663,-0.0514553,-1.08939,0.203249,
2,1,0,1,0,12901.3,0.205051,0.204776,0.538328,7,0.0165916,10,0.000110237,-3.26895,12.194,0.00483844,0.102855,0.204776,
2,1,0,1,0,12901.5,0.20655,0.20628,0.538175,7,0.0166749,10,0.000111015,-3.26908,-1.47103,-0.040108,-0.84482,0.20628,
2,1,0,1,0,12901.6,0.208048,0.20777,0.53735,7,0.0167583,10,0.000111645,-3.26974,-0.900514,-0.0655182,-1.37373,0.20777,
2,1,0,1,0,12901.8,0.209546,0.209236,0.536458,7,0.0168411,10,0.000112247,-3.27046,-0.782484,-0.0754009,-1.57538,0.209236,
2,1,0,1,0,12901.9,0.211044,0.210748,0.535006,7,0.0169235,10,0.000112751,-3.27164,-1.2538,-0.047057,-0.979583,0.210748,
2,1,0,1,0,12902.1,0.212543,0.212235,0.532913,7,0.0170058,10,0.000113103,-3.27334,-0.884497,-0.0667046,-1.3832,0.2122353,
2,1,0,1,0,12902.2,0.214041,0.213744,0.531585,7,0.0170879,10,0.000113623,-3.27443,-1.16331,-0.0507173,-1.05176,0.213744,
2,1,0,1,0,12902.3,0.215539,0.215243,0.529862,7,0.0171697,10,0.000114049,-3.27584,-1.05406,-0.0559742,-1.15908,0.215243,
2,1,0,1,0,12902.5,0.217038,0.216769,0.528003,7,0.0172513,10,0.000114455,-3.27736,-0.994403,-0.0593321,-1.22758,0.216769,
2,1,0,1,0,12902.6,0.218535,0.218216,0.527162,7,0.0173327,10,0.000115035,-3.27806,12.0025,0.00491564,0.100915,0.218216,
2,1,0,1,0,12902.8,0.220033,0.219748,0.526069,7,0.017414,10,0.000115602,-3.27896,-2.15009,-0.0274407,-0.56417,0.219748,
2,1,0,1,0,12902.9,0.221532,0.221251,0.524244,7,0.0174952,10,0.000115989,-3.28047,-1.39598,-0.0422642,-0.865677,0.221251,
2,1,0,1,0,12903.1,0.22303,0.222728,0.520466,7,0.017576,10,0.000115922,-3.28361,-6.38738,-0.00923696,-0.188694,0.222728,
2,1,0,1,0,12903.2,0.224528,0.224181,0.520663,7,0.0176566,10,0.000116723,-3.28344,-1.68381,-0.0350395,-0.713909,0.224181,
2,1,0,1,0,12903.4,0.226026,0.225733,0.521079,7,0.017737,10,0.000117625,-3.2831,-1.35664,-0.0434898,-0.883052,0.225733,
2,1,0,1,0,12903.5,0.227525,0.227227,0.518378,7,0.0178174,10,0.00011779,-3.28535,-0.83521,-0.0706409,-1.42813,0.227227,
2,1,0,1,0,12903.7,0.229023,0.228687,0.519088,7,0.0178975,10,0.000118709,-3.28476,-0.982963,-0.0600226,-1.21479,0.228687,
2,1,0,1,0,12903.8,0.230521,0.230233,0.517074,7,0.0179773,10,0.000119047,-3.28645,-1.52487,-0.0386919,-0.781915,0.230233,
2,1,0,1,0,12904,0.232019,0.231695,0.516611,7,0.018057,10,0.000119696,-3.28684,-1.91419,-0.0308224,-0.622,0.2316948,
2,1,0,1,0,12904.1,0.233518,0.233165,0.515996,7,0.0181367,10,0.000120312,-3.28735,-1.0629,-0.0555086,-1.11221,0.233165,
2,1,0,1,0,12904.3,0.235015,0.234691,0.515162,7,0.0182161,10,0.000120904,-3.28806,-3.90028,-0.0151271,-0.303299,0.234691,
2,1,0,1,0,12904.4,0.236513,0.236239,0.511908,7,0.0182952,10,0.000120933,-3.29081,-1.60109,-0.0368498,-0.737187,0.236239,
2,1,0,1,0,12904.6,0.238012,0.237725,0.51034,7,0.0183743,10,0.000121321,-3.29214,-2.88767,-0.0204317,-0.408409,0.237725,
2,1,0,1,0,12904.7,0.23951,0.239229,0.510384,7,0.0184533,10,0.000122099,-3.2921,-1.67032,-0.0353226,-0.703205,0.239229,
2,1,0,1,0,12904.9,0.241008,0.240707,0.508043,7,0.018532,10,0.00012229,-3.2941,-1.10718,-0.0532887,-1.0608,0.240707,
2,1,0,1,0,12905,0.242506,0.242207,0.507327,7,0.0186106,10,0.000122878,-3.29471,-2.39202,-0.0246653,-0.489827,0.242207,
2,1,0,1,0,12905.2,0.244005,0.243651,0.506308,7,0.018689,10,0.000123363,-3.29558,-4.55845,-0.012943,-0.256446,0.2436509,
2,1,0,1,0,12905.3,0.245503,0.245214,0.507628,7,0.0187674,10,0.000124477,-3.29445,-1.14647,-0.0514625,-1.01667,0.245214,
2,1,0,1,0,12905.5,0.247001,0.246686,0.505007,7,0.0188457,10,0.000124578,-3.2967,-0.848319,-0.0695493,-1.37112,0.246686,
2,1,0,1,0,12905.6,0.2485,0.248177,0.502408,7,0.0189238,10,0.000124686,-3.29894,-1.46868,-0.0401722,-0.7909,0.2481775,
2,1,0,1,0,12905.8,0.249997,0.249693,0.503501,7,0.0190015,10,0.000125721,-3.298,-1.14158,-0.0516826,-1.01455,0.249693,
2,1,0,1,0,12905.9,0.251495,0.251168,0.502378,7,0.0190793,10,0.000126181,-3.29897,-2.61545,-0.0225583,-0.44164,0.251168,
2,1,0,1,0,12906.1,0.252994,0.252682,0.501668,7,0.0191569,10,0.000126763,-3.29958,-0.737909,-0.0799556,-1.56479,0.252682,
2,1,0,1,0,12906.2,0.254492,0.254227,0.500363,7,0.0192345,10,0.000127206,-3.30071,18.5428,0.00318183,0.0622452,0.254227,
2,1,0,1,0,12906.4,0.25599,0.255686,0.498093,7,0.0193116,10,0.000127356,-3.30269,-4.01357,-0.0147001,-0.287033,0.255686,
2,1,0,1,0,12906.5,0.257488,0.257171,0.498093,7,0.0193889,10,0.000128095,-3.30269,-2.04527,-0.0288471,-0.561353,0.257171,
2,1,0,1,0,12906.7,0.258987,0.258668,0.498335,7,0.0194661,10,0.000128903,-3.30248,-1.49306,-0.0395162,-0.767316,0.258668,
2,1,0,1,0,12906.8,0.260485,0.260192,0.497604,7,0.0195431,10,0.000129473,-3.30312,-1.3049,-0.0452141,-0.877254,0.260192,
2,1,0,1,0,12907,0.261983,0.261669,0.495988,7,0.0196198,10,0.000129785,-3.30453,-2.30145,-0.025636,-0.496467,0.261669,
2,1,0,1,0,12907.1,0.263481,0.263193,0.497082,7,0.0196964,10,0.000130828,-3.30357,-6.31804,-0.00933833,-0.180361,0.2631931,
2,1,0,1,0,12907.3,0.26498,0.264698,0.494799,7,0.0197731,10,0.000130972,-3.30557,-2.10522,-0.0280256,-0.542065,0.264698,
2,1,0,1,0,12907.4,0.266477,0.266226,0.494302,7,0.0198496,10,0.000131596,-3.30601,-1.50154,-0.039293,-0.759671,0.266226,
2,1,0,1,0,12907.6,0.267976,0.267634,0.491064,7,0.0199258,10,0.000131426,-3.30886,-1.43647,-0.0410729,-0.789317,0.267634,
2,1,0,1,0,12907.7,0.269474,0.26916,0.491218,7,0.0200019,10,0.000132216,-3.30873,-210.866,-0.000279799,-0.00536572,0.26916,
2,1,0,1,0,12907.9,0.270972,0.270676,0.49256,7,0.020078,10,0.000133324,-3.30754,-1.23193,-0.0478923,-0.915758,0.270676,
2,1,0,1,0,12908,0.27247,0.272169,0.490743,7,0.0201539,10,0.000133565,-3.30915,-1.03847,-0.0568142,-1.08403,0.272169,
2,1,0,1,0,12908.2,0.273968,0.273657,0.486686,7,0.0202296,10,0.000133185,-3.31275,-1.16006,-0.0508595,-0.969404,0.273657,
2,1,0,1,0,12908.3,0.275467,0.275168,0.488202,7,0.0203051,10,0.000134338,-3.3114,-1.4055,-0.0419778,-0.80017,0.2751683,
2,1,0,1,0,12908.5,0.276965,0.276618,0.48721,7,0.0203805,10,0.000134771,-3.31228,-1.02036,-0.0578229,-1.09895,0.276618,
2,1,0,1,0,12908.6,0.278463,0.278199,0.4866,7,0.0204559,10,0.000135372,-3.31283,-1.47524,-0.0399936,-0.758782,0.278199,
2,1,0,1,0,12908.8,0.279962,0.279627,0.484078,7,0.020531,10,0.000135361,-3.31509,-1.33463,-0.044207,-0.83529,0.279627,
2,1,0,1,0,12908.9,0.281459,0.281151,0.484911,7,0.020606,10,0.000136333,-3.31434,-4.64223,-0.0127094,-0.240635,0.281151,
2,1,0,1,0,12909.1,0.282957,0.282645,0.484256,7,0.0206808,10,0.000136872,-3.31492,-2.62751,-0.0224547,-0.422078,0.282645,
2,1,0,1,0,12909.2,0.284456,0.284143,0.481992,7,0.0207557,10,0.000136954,-3.31696,-1.48462,-0.0397407,-0.748324,0.284143,
2,1,0,1,0,12909.4,0.285954,0.285665,0.480814,7,0.0208303,10,0.000137352,-3.31802,-2.02144,-0.0291871,-0.547746,0.285665,
2,1,0,1,0,12909.5,0.287452,0.287094,0.481103,7,0.0209047,10,0.000138122,-3.31776,-1.9205,-0.0307212,-0.576466,0.287094,
2,1,0,1,0,12909.7,0.28895,0.288617,0.479389,7,0.020979,10,0.00013836,-3.31931,3.11532,0.0189386,0.353481,0.2886174,
2,1,0,1,0,12909.8,0.290449,0.290143,0.478523,7,0.0210532,10,0.00013884,-3.3201,-3.12979,-0.0188511,-0.352851,0.290143,
2,1,0,1,0,12910,0.291947,0.291642,0.476515,7,0.0211273,10,0.000138972,-3.32192,-1.04225,-0.0566082,-1.05629,0.291642,
2,1,0,1,0,12910.1,0.293445,0.293119,0.475814,7,0.0212011,10,0.00013947,-3.32256,-1.32376,-0.0445701,-0.830159,0.293119,
2,1,0,1,0,12910.3,0.294943,0.294649,0.477331,7,0.0212749,10,0.000140645,-3.32118,-2.19074,-0.0269315,-0.500428,0.294649,
2,1,0,1,0,12910.4,0.296442,0.296108,0.478469,7,0.0213486,10,0.000141679,-3.32015,-2.20019,-0.0268159,-0.496983,0.296108,
2,1,0,1,0,12910.6,0.297939,0.297624,0.474816,7,0.0214223,10,0.000141317,-3.32347,-1.66683,-0.0353966,-0.653311,0.297624,
2,1,0,1,0,12910.7,0.299437,0.29914,0.471503,7,0.0214957,10,0.000141046,-3.32652,-0.00200537,-29.421,-227.689,0.29914,
2,1,0,1,0,12910.8,0.299738,0.299399,0.204492,7,0.0215299,10,6.12247e-05,-3.68932,0.000881704,66.9159,412.155,0.299399,
2,1,0,1,0,12911,0.29824,0.297919,-0.0061596,7,0.0215356,10,-1.83506e-06,-5.21045,0.00406199,14.5249,136.559,0.297919,
2,0,0,1,0,12911.1,0.296741,0.296501,-0.0416388,7,0.0215294,10,-1.23459e-05,-4.3805,-0.00618075,-9.54576,21.1122,0.2965005,
2,0,0,1,0,12911.3,0.295243,0.294961,-0.0639029,7,0.0215187,10,-1.88488e-05,-4.19448,-0.00991478,-5.95071,12.6568,0.294961,
2,0,0,1,0,12911.4,0.293745,0.293417,-0.0811464,7,0.0215054,10,-2.38097e-05,-4.09073,-0.0168877,-3.49367,10.3211,0.293417,
2,0,0,1,0,12911.6,0.292246,0.291927,-0.0968499,7,0.0214898,10,-2.82731e-05,-4.0139,-0.0243528,-2.42272,8.78684,0.291927,
2,0,0,1,0,12911.7,0.290748,0.290433,-0.107742,7,0.0214721,10,-3.12918e-05,-3.96762,-0.0306496,-1.92499,7.81359,0.290433,
2,0,0,1,0,12911.9,0.28925,0.288905,-0.119061,7,0.0214527,10,-3.43973e-05,-3.92423,-0.0395821,-1.49057,6.8481,0.288905,
2,0,0,1,0,12912,0.287752,0.287444,-0.126858,7,0.0214318,10,-3.64646e-05,-3.89668,-0.0481735,-1.22474,6.06917,0.287444,
2,0,0,1,0,12912.2,0.286253,0.285924,-0.135989,7,0.0214097,10,-3.88826e-05,-3.8665,-0.0598795,-0.985313,5.25045,0.2859244,
2,0,0,1,0,12912.3,0.284755,0.284437,-0.143612,7,0.0213863,10,-4.08486e-05,-3.84281,-0.0551624,-1.06957,5.96049,0.284437,
2,0,0,1,0,12912.5,0.283258,0.282939,-0.152203,7,0.0213617,10,-4.30642e-05,-3.81758,-0.0694756,-0.849219,5.04409,0.282939,
2,0,0,1,0,12912.6,0.281759,0.281452,-0.157891,7,0.021336,10,-4.44389e-05,-3.80164,-0.0903591,-0.65295,4.00351,0.281452,
2,0,0,1,0,12912.8,0.280261,0.2799,-0.162202,7,0.0213095,10,-4.54004e-05,-3.78994,-0.0936255,-0.63017,4.03529,0.2799,
2,0,0,1,0,12912.9,0.278763,0.2785,-0.17131,7,0.021282,10,-4.77098e-05,-3.76622,-0.101391,-0.581906,3.8537,0.2785,
2,0,0,1,0,12913.1,0.277264,0.276966,-0.177968,7,0.0212535,10,-4.92909e-05,-3.74966,-0.107042,-0.551188,3.80224,0.276966,
2,0,0,1,0,12913.2,0.275766,0.275427,-0.180809,7,0.0212241,10,-4.97997e-05,-3.74278,-0.15162,-0.38913,2.74545,0.275427,
2,0,0,1,0,12913.4,0.274268,0.273914,-0.18648,7,0.021194,10,-5.10796e-05,-3.72937,-0.126772,-0.465401,3.41028,0.273914,
2,0,0,1,0,12913.5,0.27277,0.272446,-0.191477,7,0.0211632,10,-5.21673e-05,-3.71788,-0.113252,-0.520961,3.92982,0.272446,
2,0,0,1,0,12913.7,0.271272,0.270981,-0.198812,7,0.0211314,10,-5.38743e-05,-3.70156,-0.136525,-0.432156,3.31775,0.270981,
2,0,0,1,0,12913.8,0.269773,0.269438,-0.205191,7,0.0210987,10,-5.52861e-05,-3.68784,-0.137982,-0.427593,3.3739,0.269438,
2,0,0,1,0,12914,0.268275,0.267951,-0.209452,7,0.0210655,10,-5.61228e-05,-3.67892,-0.155086,-0.380434,3.08536,0.267951,
2,0,0,1,0,12914.1,0.266778,0.26647,-0.211987,7,0.0210317,10,-5.64881e-05,-3.67369,-0.146184,-0.403602,3.33028,0.26647,
2,0,0,1,0,12914.3,0.265279,0.264978,-0.217572,7,0.020997,10,-5.76518e-05,-3.6624,-0.132734,-0.444497,3.73411,0.264978,
2,0,0,1,0,12914.4,0.263781,0.263521,-0.220346,7,0.0209618,10,-5.80658e-05,-3.65689,-0.183167,-0.32211,2.79165,0.263521,
2,0,0,1,0,12914.6,0.262283,0.261964,-0.224365,7,0.0209258,10,-5.87757e-05,-3.64904,-0.194142,-0.303902,2.65796,0.261964,
2,0,0,1,0,12914.7,0.260784,0.260462,-0.227976,7,0.0208894,10,-5.93789e-05,-3.64211,-0.215451,-0.273844,2.45937,0.260462,
2,0,0,1,0,12914.9,0.259286,0.258953,-0.233264,7,0.0208523,10,-6.04043e-05,-3.63215,-0.165714,-0.356036,3.23359,0.258953,
2,0,0,1,0,12915,0.257788,0.257506,-0.240231,7,0.0208145,10,-6.18609e-05,-3.61937,-0.221381,-0.266509,2.47265,0.257506,
2,0,0,1,0,12915.2,0.25629,0.255966,-0.240949,7,0.0207762,10,-6.1675e-05,-3.61807,-0.304479,-0.193773,1.81586,0.255966,
2,0,0,1,0,12915.3,0.254791,0.254457,-0.24285,7,0.0207373,10,-6.17948e-05,-3.61466,-0.27462,-0.214843,2.0539,0.2544567,
2,0,0,1,0,12915.5,0.253293,0.252956,-0.248751,7,0.0206981,10,-6.2923e-05,-3.60423,-0.241544,-0.244262,2.37036,0.252956,
2,0,0,1,0,12915.6,0.251796,0.251498,-0.251311,7,0.0206581,10,-6.32041e-05,-3.59979,-0.234765,-0.251316,2.47907,0.251498,
2,0,0,1,0,12915.8,0.250297,0.249972,-0.254394,7,0.0206177,10,-6.35915e-05,-3.59449,-0.334623,-0.176318,1.75191,0.249972,
2,0,0,1,0,12915.9,0.248799,0.24851,-0.259344,7,0.0205767,10,-6.44496e-05,-3.58612,-0.230794,-0.25564,2.58291,0.24851,
2,0,0,1,0,12916.1,0.247301,0.247,-0.261756,7,0.0205354,10,-6.46536e-05,-3.5821,-0.204084,-0.289097,2.95201,0.247,
2,0,0,1,0,12916.2,0.245802,0.245534,-0.264612,7,0.0204934,10,-6.49713e-05,-3.57739,-0.316172,-0.186607,1.92191,0.245534,
2,0,0,1,0,12916.4,0.244304,0.243994,-0.268343,7,0.0204509,10,-6.54742e-05,-3.57131,-0.370399,-0.159288,1.6695,0.243994,
2,0,0,1,0,12916.5,0.242806,0.242504,-0.273278,7,0.020408,10,-6.62709e-05,-3.5634,-0.439318,-0.134299,1.4286,0.242504,
2,0,0,1,0,12916.7,0.241308,0.241021,-0.274962,7,0.0203647,10,-6.62718e-05,-3.56073,-0.323106,-0.182603,1.96312,0.2410211,
2,0,0,1,0,12916.8,0.23981,0.239534,-0.278708,7,0.0203208,10,-6.67601e-05,-3.55485,-0.210557,-0.280209,3.03177,0.239534,
2,0,0,1,0,12917,0.238311,0.237997,-0.281907,7,0.0202764,10,-6.70931e-05,-3.54989,-0.262673,-0.224614,2.46906,0.237997,
2,0,0,1,0,12917.1,0.236814,0.236522,-0.285925,7,0.0202316,10,-6.76275e-05,-3.54375,-0.345103,-0.170964,1.90399,0.236522,
2,0,0,1,0,12917.3,0.235316,0.235047,-0.285461,7,0.0201863,10,-6.70966e-05,-3.54445,-0.279989,-0.210722,2.36436,0.235047,
2,0,0,1,0,12917.4,0.233817,0.233499,-0.290327,7,0.0201407,10,-6.7791e-05,-3.53711,-0.299128,-0.19724,2.23819,0.233499,
2,0,0,1,0,12917.6,0.232319,0.231929,-0.294235,7,0.0200944,10,-6.82416e-05,-3.53131,-0.297698,-0.198187,2.2671,0.231929,
2,0,0,1,0,12917.7,0.230821,0.230522,-0.297542,7,0.0200476,10,-6.85899e-05,-3.52645,-0.507289,-0.116305,1.3449,0.230522,
2,0,0,1,0,12917.9,0.229322,0.228987,-0.298504,7,0.0200004,10,-6.83535e-05,-3.52505,-0.423501,-0.139315,1.62836,0.228987,
2,0,0,1,0,12918,0.227824,0.227506,-0.30142,7,0.019953,10,-6.85748e-05,-3.52083,-0.365253,-0.161532,1.91323,0.227506,
2,0,0,1,0,12918.2,0.226326,0.226036,-0.30548,7,0.019905,10,-6.90497e-05,-3.51502,-0.313975,-0.187913,2.24102,0.226036,
2,0,0,1,0,12918.3,0.224828,0.22449,-0.308601,7,0.0198564,10,-6.92781e-05,-3.5106,-0.409676,-0.144016,1.72755,0.22449,
2,0,0,1,0,12918.5,0.223329,0.223028,-0.310977,7,0.0198074,10,-6.93566e-05,-3.50727,-0.338576,-0.174259,2.11917,0.223028,
2,0,0,1,0,12918.6,0.221831,0.221513,-0.316785,7,0.0197581,10,-7.0172e-05,-3.49923,-0.411583,-0.143349,1.76394,0.221513,
2,0,0,1,0,12918.8,0.220334,0.220059,-0.318623,7,0.0197082,10,-7.01158e-05,-3.49672,-0.245108,-0.24071,2.97748,0.220059,
2,0,0,1,0,12918.9,0.218835,0.218531,-0.322173,7,0.0196576,10,-7.04048e-05,-3.49191,-0.38335,-0.153906,1.92707,0.218531,
2,0,0,1,0,12919.1,0.217337,0.217037,-0.324008,7,0.0196067,10,-7.03216e-05,-3.48944,-0.43396,-0.135957,1.72303,0.217037,
2,0,0,1,0,12919.2,0.215839,0.215517,-0.32586,7,0.0195555,10,-7.02284e-05,-3.48697,-0.329597,-0.179007,2.28926,0.215517,
2,0,0,1,0,12919.4,0.21434,0.214025,-0.329579,7,0.0195037,10,-7.05382e-05,-3.48204,-0.287764,-0.205029,2.63532,0.214025,
2,0,0,1,0,12919.5,0.212842,0.212512,-0.333516,7,0.0194515,10,-7.08761e-05,-3.47688,-0.301171,-0.195902,2.5478,0.212512,
2,0,0,1,0,12919.7,0.211344,0.211038,-0.337688,7,0.0193988,10,-7.12651e-05,-3.47148,-0.373915,-0.15779,2.07798,0.211038,
2,0,0,1,0,12919.8,0.209846,0.209538,-0.336872,7,0.0193457,10,-7.05874e-05,-3.47253,-0.451953,-0.130545,1.73048,0.209538,
2,0,0,1,0,12920,0.208348,0.208041,-0.344702,7,0.0192921,10,-7.17123e-05,-3.46256,-0.310738,-0.189871,2.54935,0.208041,
2,0,0,1,0,12920.1,0.206849,0.206555,-0.351077,7,0.0192378,10,-7.25166e-05,-3.4546,-0.371109,-0.158983,2.15031,0.206555,
2,0,0,1,0,12920.3,0.205352,0.205044,-0.350738,7,0.0191829,10,-7.19167e-05,-3.45502,-0.385038,-0.153232,2.0885,0.205044,
2,0,0,1,0,12920.4,0.203854,0.203521,-0.353318,7,0.0191277,10,-7.19075e-05,-3.45183,-0.365426,-0.161455,2.23526,0.2035208,
2,0,0,1,0,12920.6,0.202355,0.202013,-0.35636,7,0.0190721,10,-7.19893e-05,-3.44811,-0.280505,-0.210335,2.93718,0.202013,
2,0,0,1,0,12920.7,0.200857,0.200522,-0.357608,7,0.0190159,10,-7.17084e-05,-3.44659,-0.302482,-0.195053,2.74239,0.200522,
2,0,0,1,0,12920.9,0.199359,0.199052,-0.363636,7,0.0189591,10,-7.23826e-05,-3.43933,-0.414862,-0.142216,2.01851,0.199052,
2,0,0,1,0,12921,0.19786,0.19752,-0.368492,7,0.0189018,10,-7.27845e-05,-3.43357,-0.448394,-0.131581,1.88239,0.19752,
2,0,0,1,0,12921.2,0.196362,0.196007,-0.371583,7,0.0188442,10,-7.28329e-05,-3.42994,-0.333786,-0.17676,2.55917,0.196007,
2,0,0,1,0,12921.3,0.194864,0.19455,-0.374834,7,0.0187859,10,-7.29239e-05,-3.42616,-0.342337,-0.172345,2.51367,0.19455,
2,0,0,1,0,12921.5,0.193366,0.193071,-0.380349,7,0.0187268,10,-7.34343e-05,-3.41982,-0.303449,-0.194431,2.87311,0.193071,
2,0,0,1,0,12921.6,0.191867,0.191528,-0.383343,7,0.0186673,10,-7.34209e-05,-3.41641,-0.396701,-0.148727,2.22395,0.191528,
2,0,0,1,0,12921.8,0.190369,0.19004,-0.384785,7,0.0186074,10,-7.31245e-05,-3.41478,-0.286173,-0.206169,3.11243,0.19004,
2,0,0,1,0,12921.9,0.188872,0.188548,-0.391409,7,0.0185468,10,-7.37993e-05,-3.40737,-0.246014,-0.239824,3.64268,0.188548,
2,0,0,1,0,12922.1,0.187373,0.187069,-0.395349,7,0.0184855,10,-7.39574e-05,-3.40302,-0.31083,-0.189815,2.92432,0.187069,
2,0,0,1,0,12922.2,0.185875,0.185565,-0.398011,7,0.0184236,10,-7.38569e-05,-3.4001,-0.314009,-0.187893,2.91975,0.185565,
2,0,0,1,0,12922.4,0.184377,0.18408,-0.401986,7,0.0183611,10,-7.39978e-05,-3.39579,-0.265418,-0.222291,3.50942,0.18408,
2,0,0,1,0,12922.5,0.182878,0.182596,-0.408453,7,0.0182979,10,-7.45817e-05,-3.38886,-0.237953,-0.247948,3.95312,0.182596,
2,0,0,1,0,12922.7,0.18138,0.181057,-0.414183,7,0.0182339,10,-7.49908e-05,-3.38281,-0.290354,-0.203201,3.2816,0.181057,
2,0,0,1,0,12922.8,0.179882,0.179525,-0.417816,7,0.018169,10,-7.50085e-05,-3.37901,-0.366194,-0.161117,2.62033,0.179525,
2,0,0,1,0,12923,0.178384,0.178068,-0.424398,7,0.0181034,10,-7.55716e-05,-3.37223,-0.289545,-0.203768,3.37909,0.178068,
2,0,0,1,0,12923.1,0.176886,0.176571,-0.429183,7,0.0180372,10,-7.5781e-05,-3.36736,-0.26915,-0.219209,3.67432,0.176571,
2,0,0,1,0,12923.3,0.175387,0.175051,-0.437241,7,0.0179698,10,-7.65396e-05,-3.35928,-0.210794,-0.279894,4.7617,0.175051,
2,0,0,1,0,12923.4,0.17389,0.173587,-0.442266,7,0.0179015,10,-7.67716e-05,-3.35432,-0.223087,-0.264471,4.55836,0.173587,
2,0,0,1,0,12923.6,0.172392,0.172096,-0.449805,7,0.0178323,10,-7.74098e-05,-3.34698,-0.2162,-0.272896,4.79218,0.172096,
2,0,0,1,0,12923.7,0.170893,0.170609,-0.456302,7,0.0177621,10,-7.78493e-05,-3.34075,-0.194614,-0.303164,5.40658,0.170609,
2,0,0,1,0,12923.9,0.169395,0.169085,-0.465109,7,0.0176905,10,-7.86431e-05,-3.33244,-0.167405,-0.352438,6.37859,0.169085,
2,0,0,1,0,12924,0.167897,0.167572,-0.474158,7,0.0176176,10,-7.94557e-05,-3.32408,-0.171211,-0.344604,6.38745,0.167572,
2,0,0,1,0,12924.2,0.166398,0.166075,-0.482338,7,0.0175434,10,-8.01042e-05,-3.31665,-0.185143,-0.318672,6.0174,0.166075,
2,0,0,1,0,12924.3,0.1649,0.164566,-0.490071,7,0.0174679,10,-8.06489e-05,-3.30974,-0.165428,-0.35665,6.87861,0.164566,
2,0,0,1,0,12924.5,0.163402,0.163087,-0.502715,7,0.017391,10,-8.1986e-05,-3.29868,-0.142852,-0.413014,8.11853,0.163087,
2,0,0,1,0,12924.6,0.161904,0.161579,-0.516157,7,0.0173122,10,-8.33999e-05,-3.28722,-0.141243,-0.417721,8.40199,0.161579,
2,0,0,1,0,12924.8,0.160405,0.160064,-0.528995,7,0.0172315,10,-8.46732e-05,-3.27655,-0.140731,-0.41924,8.6111,0.160064,
2,0,0,1,0,12924.9,0.158907,0.158591,-0.540837,7,0.0171489,10,-8.5772e-05,-3.26693,-0.127148,-0.464025,9.82884,0.158591,
2,0,0,1,0,12925.1,0.15741,0.157093,-0.556083,7,0.0170643,10,-8.73567e-05,-3.25486,-0.11313,-0.521525,11.3788,0.157093,
2,0,0,1,0,12925.2,0.155911,0.155614,-0.572484,7,0.0169769,10,-8.90864e-05,-3.24224,-0.107176,-0.550498,12.36,0.155614,
2,0,0,1,0,12925.4,0.154413,0.154044,-0.592419,7,0.0168867,10,-9.12588e-05,-3.22737,-0.10375,-0.568675,13.1693,0.154044,
2,0,0,1,0,12925.5,0.152915,0.152585,-0.613985,7,0.0167937,10,-9.36851e-05,-3.21184,-0.097405,-0.605719,14.5672,0.1525853,
2,0,0,1,0,12925.7,0.151417,0.151144,-0.637189,7,0.0166976,10,-9.63074e-05,-3.19573,-0.0931974,-0.633065,15.7993,0.151144,
2,0,0,1,0,12925.8,0.149918,0.149615,-0.664591,7,0.0165976,10,-9.94328e-05,-3.17745,-0.0842255,-0.7005,18.169,0.149615,
2,0,0,1,0,12926,0.14842,0.148152,-0.692058,7,0.0164935,10,-0.00010253,-3.15986,-0.0815985,-0.723053,19.5765,0.148152,
2,0,0,1,0,12926.1,0.146922,0.146624,-0.724528,7,0.0163848,10,-0.000106233,-3.13994,-0.0769713,-0.766519,21.7195,0.1466237,
2,0,0,1,0,12926.3,0.145424,0.145106,-0.758194,7,0.0162715,10,-0.000110019,-3.12022,-0.0733181,-0.804712,23.8609,0.145106,
2,0,0,1,0,12926.4,0.143925,0.143653,-0.795796,7,0.0161526,10,-0.000114318,-3.0992,-0.0660464,-0.893312,27.7838,0.143653,
2,0,0,1,0,12926.6,0.142428,0.14216,-0.838266,7,0.0160276,10,-0.000119167,-3.07662,-0.0678861,-0.869103,28.3625,0.14216,
2,0,0,1,0,12926.7,0.14093,0.14062,-0.880624,7,0.0158964,10,-0.000123834,-3.05521,-0.0725421,-0.813321,27.9617,0.14062,
2,0,0,1,0,12926.9,0.139431,0.139138,-0.91719,7,0.015759,10,-0.000127616,-3.03754,-0.0707022,-0.834486,30.0142,0.139138,
2,0,0,1,0,12927,0.137933,0.137638,-0.967958,7,0.015615,10,-0.000133228,-3.01414,-0.0753273,-0.783248,29.4987,0.137638,
2,0,0,1,0,12927.2,0.136435,0.136141,-1.01318,7,0.0154642,10,-0.000137935,-2.99431,-0.0795309,-0.74185,29.2278,0.136141,
2,0,0,1,0,12927.3,0.134936,0.134583,-1.05795,7,0.0153065,10,-0.000142382,-2.97553,-0.0903435,-0.653063,26.7917,0.134583,
2,0,0,1,0,12927.5,0.133438,0.133118,-1.09628,7,0.0151424,10,-0.000145935,-2.96008,-0.0939016,-0.628318,26.8503,0.133118,
2,0,0,1,0,12927.6,0.13194,0.131602,-1.13706,7,0.0149726,10,-0.000149639,-2.94422,-0.101593,-0.58075,25.7513,0.131602,
2,0,0,1,0,12927.8,0.130442,0.130121,-1.17415,7,0.0147968,10,-0.000152781,-2.93028,-0.115077,-0.5127,23.4326,0.130121,
2,0,0,1,0,12927.9,0.128943,0.128619,-1.20867,7,0.0146154,10,-0.000155459,-2.91769,-0.13461,-0.438302,20.5688,0.128619,
2,0,0,1,0,12928.1,0.127445,0.127148,-1.23873,7,0.0144295,10,-0.000157502,-2.90702,-0.159176,-0.370658,17.8301,0.127148,
2,0,0,1,0,12928.2,0.125948,0.125636,-1.26193,7,0.0142401,10,-0.000158543,-2.89896,-0.184116,-0.320451,15.723,0.125636,
2,0,0,1,0,12928.4,0.124449,0.124139,-1.28037,7,0.0140468,10,-0.000158943,-2.89267,-0.219077,-0.269312,13.4246,0.124139,
2,0,0,1,0,12928.5,0.122951,0.122652,-1.29996,7,0.0138508,10,-0.000159443,-2.88607,-0.306309,-0.192616,9.73105,0.122652,
2,0,0,1,0,12928.7,0.121453,0.12115,-1.31273,7,0.0136525,10,-0.000159037,-2.88182,-0.444085,-0.132857,6.77675,0.12115,
2,0,0,1,0,12928.8,0.119955,0.119637,-1.31603,7,0.013453,10,-0.000157446,-2.88074,-0.660852,-0.0892787,4.59152,0.1196374,
2,0,0,1,0,12929,0.118456,0.118135,-1.32463,7,0.0132524,10,-0.000156485,-2.87791,-0.864862,-0.068219,3.5175,0.1181348,
2,0,0,1,0,12929.1,0.116958,0.116652,-1.33116,7,0.013051,10,-0.000155282,-2.87577,-6.02033,-0.00980012,0.506785,0.116652,
2,0,0,1,0,12929.3,0.11546,0.115166,-1.32645,7,0.0128494,10,-0.000152762,-2.87731,1.43988,0.0409758,-2.11899,0.115166,
2,0,0,1,0,12929.4,0.113962,0.113626,-1.31981,7,0.0126484,10,-0.000149965,-2.87949,1.06774,0.0552569,-2.84775,0.113626,
2,0,0,1,0,12929.6,0.112463,0.112115,-1.31743,7,0.012448,10,-0.000147703,-2.88027,0.858326,0.0687385,-3.5331,0.112115,
2,0,0,1,0,12929.7,0.110966,0.11059,-1.31283,7,0.0122485,10,-0.000145186,-2.88179,0.746324,0.0790541,-4.04406,0.11059,
2,0,0,1,0,12929.9,0.109468,0.109172,-1.30231,7,0.0120499,10,-0.000142176,-2.88528,0.427305,0.138075,-7.01479,0.109172,
2,0,0,1,0,12930,0.107969,0.107654,-1.29286,7,0.0118525,10,-0.000139181,-2.88845,0.488837,0.120695,-6.09816,0.107654,
2,0,0,1,0,12930.2,0.106471,0.106176,-1.28159,7,0.011657,10,-0.000136074,-2.89225,0.479245,0.12311,-6.17254,0.106176,
2,0,0,1,0,12930.3,0.104973,0.104689,-1.27228,7,0.0114628,10,-0.000133194,-2.89542,0.452148,0.130488,-6.47981,0.104689,
2,0,0,1,0,12930.5,0.103474,0.103157,-1.26545,7,0.0112699,10,-0.000130539,-2.89776,0.366306,0.161068,-7.92844,0.103157,
2,0,0,1,0,12930.6,0.101976,0.10166,-1.25497,7,0.0110788,10,-0.00012758,-2.90137,0.320691,0.183978,-8.97825,0.10166,
2,0,0,1,0,12930.8,0.100478,0.10018,-1.23944,7,0.0108897,10,-0.000124167,-2.90677,0.365784,0.161297,-7.80699,0.10018,
2,0,0,1,0,12930.9,0.0989799,0.0986763,-1.22815,7,0.0107026,10,-0.00012119,-2.91075,0.379708,0.155383,-7.43619,0.0986763,
2,0,0,1,0,12931.1,0.0974808,0.0971718,-1.21659,7,0.0105168,10,-0.000118218,-2.91486,0.371054,0.159007,-7.54977,0.0971718,
2,0,0,1,0,12931.2,0.0959833,0.0956518,-1.20425,7,0.010333,10,-0.000115188,-2.91928,0.328549,0.179578,-8.43221,0.0956518,
2,0,0,1,0,12931.4,0.0944857,0.0941648,-1.18753,7,0.0101513,10,-0.000111824,-2.92536,0.392147,0.150454,-7.00248,0.0941648,
2,0,0,1,0,12931.5,0.0929871,0.0927031,-1.17696,7,0.00997119,10,-0.000109108,-2.92924,0.461063,0.127965,-5.89538,0.0927031,
2,0,0,1,0,12931.7,0.0914889,0.0911867,-1.17217,7,0.00979258,10,-0.000106887,-2.93101,0.379322,0.155541,-7.10039,0.0911867,
2,0,0,1,0,12931.8,0.0899907,0.0896618,-1.15837,7,0.00961556,10,-0.000103862,-2.93615,0.302885,0.194793,-8.78309,0.0896618,
2,0,0,1,0,12931.9,0.0884925,0.0881656,-1.14435,7,0.00944031,10,-0.000100892,-2.94144,0.376252,0.15681,-7.02771,0.0881656,
2,0,0,1,0,12932.1,0.0869943,0.0866588,-1.13606,7,0.00926695,10,-9.84499e-05,-2.9446,0.372187,0.158522,-7.03995,0.0866588,
2,0,0,1,0,12932.2,0.0854962,0.0851943,-1.12825,7,0.00909476,10,-9.61202e-05,-2.9476,0.399423,0.147713,-6.5064,0.0851943,
2,0,0,1,0,12932.4,0.083998,0.0836917,-1.11861,7,0.00892397,10,-9.36183e-05,-2.95132,0.327904,0.179931,-7.84427,0.0836917,
2,0,0,1,0,12932.5,0.0824998,0.082204,-1.11064,7,0.00875456,10,-9.12994e-05,-2.95443,0.423624,0.139275,-6.03666,0.082204,
2,0,0,1,0,12932.7,0.0810011,0.0807073,-1.1,7,0.00858663,10,-8.8778e-05,-2.95861,0.470974,0.125272,-5.38421,0.0807073,
2,0,0,1,0,12932.8,0.0795036,0.0791831,-1.09401,7,0.00841992,10,-8.66272e-05,-2.96098,0.560554,0.105253,-4.48769,0.0791831,
2,0,0,1,0,12933,0.0780061,0.0776916,-1.08533,7,0.00825421,10,-8.43213e-05,-2.96444,0.516209,0.114295,-4.83075,0.0776916,
2,0,0,1,0,12933.1,0.076507,0.0762021,-1.07733,7,0.00808962,10,-8.20949e-05,-2.96765,0.429435,0.13739,-5.77335,0.0762021,
2,0,0,1,0,12933.3,0.0750088,0.0746433,-1.06701,7,0.00792664,10,-7.96452e-05,-2.97183,0.485557,0.12151,-5.06809,0.0746433,
2,0,0,1,0,12933.4,0.0735106,0.0732001,-1.06027,7,0.00776464,10,-7.76117e-05,-2.97458,0.704821,0.0837092,-3.46711,0.0732001,
2,0,0,1,0,12933.6,0.0720124,0.0717007,-1.05341,7,0.00760358,10,-7.55304e-05,-2.9774,0.46438,0.127051,-5.22849,0.07170067,
2,0,0,1,0,12933.7,0.0705142,0.0701938,-1.04701,7,0.00744352,10,-7.34935e-05,-2.98005,0.477669,0.123517,-5.05137,0.0701938,
2,0,0,1,0,12933.9,0.0690161,0.0687093,-1.03711,7,0.00728479,10,-7.12592e-05,-2.98417,0.527888,0.111766,-4.54124,0.0687093,
2,0,0,1,0,12934,0.0675179,0.0671611,-1.03392,7,0.00712705,10,-6.94389e-05,-2.98551,0.62222,0.0948218,-3.82899,0.0671611,
2,0,0,1,0,12934.2,0.0660188,0.0657065,-1.03156,7,0.00697,10,-6.77801e-05,-2.98651,0.540271,0.109204,-4.37737,0.0657065,
2,0,0,1,0,12934.3,0.0645213,0.0641945,-1.02067,7,0.00681384,10,-6.55214e-05,-2.99111,0.483109,0.122126,-4.85692,0.0641945,
2,0,0,1,0,12934.5,0.0630237,0.0627006,-1.01194,7,0.00665888,10,-6.3449e-05,-2.99485,0.457249,0.129033,-5.1086,0.06270057,
2,0,0,1,0,12934.6,0.0615251,0.0612376,-1.00696,7,0.00650517,10,-6.16638e-05,-2.99699,0.509545,0.11579,-4.55697,0.0612376,
2,0,0,1,0,12934.8,0.0600269,0.0597022,-0.999515,7,0.00635229,10,-5.96732e-05,-3.00021,0.543057,0.108644,-4.24237,0.0597022,
2,0,0,1,0,12934.9,0.0585287,0.0582293,-0.994138,7,0.0062004,10,-5.78879e-05,-3.00255,0.387725,0.15217,-5.89233,0.0582293,
2,0,0,1,0,12935.1,0.0570305,0.0567033,-0.987801,7,0.0060494,10,-5.60116e-05,-3.00533,0.477748,0.123496,-4.75216,0.0567033,
2,0,0,1,0,12935.2,0.0555323,0.0552124,-0.98008,7,0.00589986,10,-5.41126e-05,-3.00874,0.475724,0.124021,-4.74506,0.0552124,
2,0,0,1,0,12935.4,0.0540342,0.0537247,-0.974285,7,0.0057511,10,-5.23432e-05,-3.01131,0.570078,0.103495,-3.92699,0.0537247,
2,0,0,1,0,12935.5,0.052536,0.0522517,-0.967495,7,0.00560311,10,-5.05533e-05,-3.01435,0.464261,0.127084,-4.78876,0.0522517,
2,0,0,1,0,12935.7,0.0510378,0.0507036,-0.958382,7,0.00545643,10,-4.85934e-05,-3.01846,0.382247,0.154351,-5.78042,0.0507036,
2,0,0,1,0,12935.8,0.0495391,0.0492396,-0.949582,7,0.00531099,10,-4.6757e-05,-3.02247,0.457078,0.129081,-4.78817,0.0492396,
2,0,0,1,0,12936,0.0480416,0.0477344,-0.942066,7,0.00516658,10,-4.4969e-05,-3.02592,0.556364,0.106046,-3.90132,0.04773441,
2,0,0,1,0,12936.1,0.0465441,0.0462327,-0.935344,7,0.00502324,10,-4.32435e-05,-3.02903,0.45185,0.130574,-4.77519,0.0462327,
2,0,0,1,0,12936.3,0.045045,0.044743,-0.929142,7,0.00488086,10,-4.15726e-05,-3.03192,0.411269,0.143459,-5.19806,0.04474302,
2,0,0,1,0,12936.4,0.0435468,0.0432288,-0.918303,7,0.00473987,10,-3.96971e-05,-3.03701,0.411395,0.143414,-5.15334,0.0432288,
2,0,0,1,0,12936.6,0.0420486,0.0417187,-0.914705,7,0.00460014,10,-3.81603e-05,-3.03872,0.500398,0.117906,-4.20836,0.0417187,
2,0,0,1,0,12936.7,0.0405504,0.0402363,-0.909931,7,0.00446117,10,-3.66123e-05,-3.04099,0.480755,0.122724,-4.33429,0.0402363,
2,0,0,1,0,12936.9,0.0390523,0.0387019,-0.900397,7,0.00432316,10,-3.4847e-05,-3.04557,0.368374,0.160163,-5.61602,0.0387019,
2,0,0,1,0,12937,0.0375541,0.0372067,-0.890094,7,0.00418651,10,-3.31175e-05,-3.05056,0.347273,0.169895,-5.91762,0.0372067,
2,0,0,1,0,12937.2,0.0360559,0.0357317,-0.884263,7,0.00405126,10,-3.15962e-05,-3.05342,0.434856,0.135677,-4.68899,0.0357317,
2,0,0,1,0,12937.3,0.0345568,0.0342304,-0.877398,7,0.00391676,10,-3.00337e-05,-3.0568,0.472601,0.124841,-4.27194,0.0342304,
2,0,0,1,0,12937.5,0.0330593,0.0327285,-0.870987,7,0.00378344,10,-2.85061e-05,-3.05999,0.37834,0.155944,-5.28991,0.0327285,
2,0,0,1,0,12937.6,0.0315618,0.0312,-0.865744,7,0.00365112,10,-2.70112e-05,-3.06261,0.416674,0.141597,-4.76038,0.0312,
2,0,0,1,0,12937.8,0.0300631,0.0297446,-0.855919,7,0.00352014,10,-2.5459e-05,-3.06757,0.420731,0.140232,-4.68606,0.0297446,
2,0,0,1,0,12937.9,0.0285649,0.0282388,-0.848113,7,0.00339004,10,-2.39497e-05,-3.07155,0.556866,0.10595,-3.5046,0.0282388,
2,0,0,1,0,12938.1,0.0270667,0.0267628,-0.842642,7,0.00326082,10,-2.25514e-05,-3.07436,0.402333,0.146645,-4.81261,0.0267628,
2,0,0,1,0,12938.2,0.0255685,0.025275,-0.833275,7,0.00313268,10,-2.1061e-05,-3.07921,0.380263,0.155156,-5.05785,0.025275,
2,0,0,1,0,12938.4,0.0240704,0.0237873,-0.824959,7,0.00300589,10,-1.96235e-05,-3.08357,0.450717,0.130903,-4.23137,0.0237873,
2,0,0,1,0,12938.5,0.0225722,0.0222656,-0.822662,7,0.00287986,10,-1.83171e-05,-3.08478,0.605747,0.0974004,-3.11998,0.0222656,
2,0,0,1,0,12938.7,0.021074,0.0207545,-0.816947,7,0.00275465,10,-1.69553e-05,-3.08781,0.482914,0.122175,-3.89404,0.0207545,
2,0,0,1,0,12938.8,0.0195758,0.0192466,-0.808685,7,0.00263026,10,-1.55644e-05,-3.09222,0.436545,0.135152,-4.27238,0.0192466,
2,0,0,1,0,12939,0.0180772,0.0177636,-0.801261,7,0.00250676,10,-1.42333e-05,-3.09623,0.555808,0.106152,-3.33385,0.0177636,
2,0,0,1,0,12939.1,0.0165796,0.0162841,-0.799715,7,0.0023842,10,-1.30227e-05,-3.09706,0.845467,0.0697839,-2.18385,0.0162841,
2,0,0,1,0,12939.3,0.0150821,0.0147621,-0.796368,7,0.00226201,10,-1.17561e-05,-3.09889,0.784076,0.0752478,-2.33775,0.0147621,
2,0,0,1,0,12939.4,0.013583,0.0132638,-0.791291,7,0.00214018,10,-1.04955e-05,-3.10166,0.540088,0.109241,-3.3786,0.0132638,
2,0,0,1,0,12939.6,0.0120848,0.0117548,-0.788971,7,0.0020192,10,-9.27421e-06,-3.10294,0.875369,0.0674002,-2.07872,0.0117548,
2,0,0,1,0,12939.7,0.0105866,0.0102862,-0.786288,7,0.00189892,10,-8.08789e-06,-3.10442,0.950752,0.0620562,-1.90728,0.0102862,
2,0,0,1,0,12939.9,0.00908846,0.00874858,-0.784018,7,0.00177888,10,-6.85904e-06,-3.10567,1.83741,0.0321104,-0.982387,0.008748576,
2,0,0,1,0,12940,0.00759027,0.00729794,-0.782763,7,0.00165899,10,-5.71256e-06,-3.10637,1.30181,0.0453214,-1.38402,0.00729794,
2,0,0,1,0,12940.2,0.00609208,0.00576671,-0.782528,7,0.00153943,10,-4.51261e-06,-3.1065,1.34291,0.0439346,-1.33969,0.00576671,
2,0,0,1,0,12940.3,0.00459389,0.00426942,-0.782113,7,0.0014202,10,-3.33917e-06,-3.10673,3.49409,0.0168857,-0.513356,0.00426942,
2,0,0,1,0,12940.5,0.0030948,0.0027275,-0.779483,7,0.00130091,10,-2.12604e-06,-3.10819,-1.05129,-0.0561214,1.71091,0.0027275,
2,0,0,1,0,12940.6,0.00159728,0.00124082,-0.791471,7,0.00118013,10,-9.8207e-07,-3.10157, , , ,0.00124082,
2,0,0,1,0,12940.8,0.000199195,-0.000174534,-0.781464,7,0.00106809,10,1.36392e-07,-3.10709, , , ,-0.000174534,