File: Figure_codes/Fig_3-5/rawdata_trumpetplot_data/after 10th/20221101_1-115_003_TrumpetPlot_ParaChange_from10_every3_07_CV_C01_5.csv
mode,ox/red,error,control changes,counter inc.,time/s,control/V,Ewe/V,<I>/mA,cycle number,(Q-Qo)/C,I Range,P/W,log(|I|),Tafel slope mV/dec,alpha_eff,dI/d(E-IR),E-IR/V,
2,0,0,0,0,11015.7,2.44065e-05,-0.0002108,-2.72621,6,0.0000000E+000,10,5.74683e-07,-2.56444, , , ,-0.0002108,
2,0,0,1,0,11015.7,0.0013005,0.000973368,-0.894505,6,-3.49568e-05,10,-8.70682e-07,-3.04842, , , ,0.000973368,
2,1,0,1,0,11015.7,0.00279471,0.00250347,0.285547,6,-4.0856e-05,10,7.14858e-07,-3.54432,-0.0332805,-1.77281,645.023,0.00250347,
2,1,0,1,0,11015.7,0.00429425,0.00397629,0.951937,6,-2.42116e-05,10,3.78517e-06,-3.02139,0.00242067,24.3735,376.209,0.00397629,
2,1,0,1,0,11015.8,0.00579379,0.00545942,1.37956,6,5.70372e-06,10,7.53163e-06,-2.86026,0.0109739,5.37638,250.02,0.00545942,
2,1,0,1,0,11015.8,0.007288,0.00697784,1.67136,6,4.43006e-05,10,1.16625e-05,-2.77693,0.0209603,2.81485,172.409,0.00697784,
2,1,0,1,0,11015.8,0.00878882,0.00843827,1.87797,6,8.92779e-05,10,1.58468e-05,-2.72631,0.0335391,1.75914,125.204,0.00843827,
2,1,0,1,0,11015.8,0.0102896,0.00997731,2.03925,6,0.000138788,10,2.03462e-05,-2.69053,0.0507182,1.16329,90.7892,0.00997731,
2,1,0,1,0,11015.9,0.0117838,0.0114696,2.16932,6,0.000191558,10,2.48812e-05,-2.66368,0.0656639,0.898515,74.8617,0.0114696,
2,1,0,1,0,11015.9,0.0132834,0.0129674,2.2636,6,0.000247257,10,2.93531e-05,-2.6452,0.0771674,0.764571,67.137,0.0129674,
2,1,0,1,0,11015.9,0.0147816,0.0144761,2.34215,6,0.000305339,10,3.39053e-05,-2.63039,0.094163,0.626573,57.2897,0.0144761,
2,1,0,1,0,11015.9,0.0162811,0.0159585,2.42708,6,0.000365555,10,3.87325e-05,-2.61492,0.116885,0.504768,47.721,0.0159585,
2,1,0,1,0,11016,0.0177753,0.0174402,2.50685,6,0.000427415,10,4.37199e-05,-2.60087,0.130171,0.453249,44.0504,0.0174402,
2,1,0,1,0,11016,0.0192761,0.0189333,2.56099,6,0.000491044,10,4.8488e-05,-2.59159,0.136573,0.432004,43.1136,0.0189333,
2,1,0,1,0,11016,0.020777,0.0204756,2.62056,6,0.000556273,10,5.36575e-05,-2.58161,0.139888,0.421765,43.1714,0.0204756,
2,1,0,1,0,11016,0.0222712,0.0219694,2.67992,6,0.000622759,10,5.88763e-05,-2.57188,0.161029,0.366394,38.3571,0.0219694,
2,1,0,1,0,11016.1,0.0237707,0.0235238,2.74833,6,0.000691041,10,6.4651e-05,-2.56093,0.173175,0.340696,36.3798,0.0235238,
2,1,0,1,0,11016.1,0.0252703,0.0249401,2.79246,6,0.000760656,10,6.96443e-05,-2.55401,0.173681,0.339704,37.0963,0.0249401,
2,1,0,1,0,11016.1,0.0267645,0.0264896,2.84929,6,0.000831373,10,7.54766e-05,-2.54526,0.161324,0.365724,40.7442,0.0264896,
2,1,0,1,0,11016.1,0.0282653,0.0279533,2.91144,6,0.000903827,10,8.13844e-05,-2.53589,0.182315,0.323616,36.7608,0.0279533,
2,1,0,1,0,11016.2,0.0297648,0.0294891,2.97274,6,0.000977739,10,8.76633e-05,-2.52684,0.191342,0.308349,35.6165,0.0294891,
2,1,0,1,0,11016.2,0.031259,0.030983,3.01963,6,0.0010527,10,9.35574e-05,-2.52005,0.183743,0.3211,37.7714,0.030983,
2,1,0,1,0,11016.2,0.0327585,0.0324391,3.06957,6,0.00112918,10,9.95739e-05,-2.51292,0.197624,0.298547,35.8179,0.0324391,
2,1,0,1,0,11016.2,0.034258,0.0339408,3.12327,6,0.00120705,10,0.000106006,-2.50539,0.195216,0.302229,36.8752,0.0339408,
2,1,0,1,0,11016.3,0.0357576,0.0354882,3.18282,6,0.00128632,10,0.000112953,-2.49719,0.21154,0.278907,34.5731,0.0354882,
2,1,0,1,0,11016.3,0.0372518,0.0369093,3.24181,6,0.00136671,10,0.000119653,-2.48921,0.199569,0.295637,37.3163,0.03690926,
2,1,0,1,0,11016.3,0.0387526,0.0384812,3.28442,6,0.00144866,10,0.000126388,-2.48354,0.200791,0.293837,37.7657,0.0384812,
2,1,0,1,0,11016.3,0.0402534,0.0399246,3.34712,6,0.00153201,10,0.000133632,-2.47533,0.221116,0.266829,34.8518,0.0399246,
2,1,0,1,0,11016.4,0.0417476,0.041464,3.41013,6,0.0016165,10,0.000141398,-2.46723,0.215669,0.273567,36.2604,0.041464,
2,1,0,1,0,11016.4,0.0432472,0.0429384,3.46571,6,0.00170268,10,0.000148812,-2.46021,0.227517,0.259321,34.9374,0.0429384,
2,1,0,1,0,11016.4,0.0447467,0.0444442,3.50052,6,0.00179008,10,0.000155578,-2.45587,0.219596,0.268676,36.7957,0.0444442,
2,1,0,1,0,11016.4,0.0462463,0.0459537,3.55296,6,0.00187877,10,0.000163272,-2.44941,0.226871,0.26006,36.1464,0.04595368,
2,1,0,1,0,11016.5,0.0477391,0.0474359,3.61548,6,0.00196849,10,0.000171504,-2.44183,0.242761,0.243037,34.2693,0.0474359,
2,1,0,1,0,11016.5,0.0492399,0.0489446,3.66949,6,0.00205995,10,0.000179601,-2.43539,0.242882,0.242916,34.6982,0.0489446,
2,1,0,1,0,11016.5,0.0507408,0.0504422,3.70829,6,0.00215261,10,0.000187054,-2.43083,0.243923,0.241879,35.0814,0.0504422,
2,1,0,1,0,11016.5,0.052235,0.0519458,3.76635,6,0.00224614,10,0.000195646,-2.42408,0.252664,0.233512,34.3415,0.0519458,
2,1,0,1,0,11016.6,0.0537345,0.0533975,3.82765,6,0.00234143,10,0.000204387,-2.41707,0.266648,0.221265,32.9663,0.0533975,
2,1,0,1,0,11016.6,0.0552341,0.0549276,3.87729,6,0.00243806,10,0.00021297,-2.41147,0.268763,0.219524,33.1181,0.0549276,
2,1,0,1,0,11016.6,0.0567283,0.056425,3.91099,6,0.00253545,10,0.000220678,-2.40771,0.283985,0.207757,31.7952,0.056425,
2,1,0,1,0,11016.6,0.0582291,0.0579191,3.96516,6,0.00263436,10,0.000229659,-2.40174,0.295237,0.19984,30.9529,0.0579191,
2,1,0,1,0,11016.7,0.0597299,0.059419,4.01969,6,0.00273455,10,0.000238846,-2.39581,0.282552,0.208811,32.6892,0.059419,
2,1,0,1,0,11016.7,0.0612228,0.0608988,4.0705,6,0.00283558,10,0.000247888,-2.39035,0.283792,0.207898,32.9228,0.0608988,
2,1,0,1,0,11016.7,0.0627223,0.0624005,4.10591,6,0.00293823,10,0.000256211,-2.38659,0.3007,0.196209,31.4748,0.0624005,
2,1,0,1,0,11016.7,0.0642218,0.0639138,4.14938,6,0.00304188,10,0.000265203,-2.38202,0.323611,0.182318,29.6093,0.0639138,
2,1,0,1,0,11016.8,0.0657214,0.0653977,4.20462,6,0.00314679,10,0.000274973,-2.37627,0.308752,0.191092,31.3278,0.0653977,
2,1,0,1,0,11016.8,0.0672156,0.0668836,4.25526,6,0.00325253,10,0.000284607,-2.37107,0.312064,0.189064,31.3491,0.0668836,
2,1,0,1,0,11016.8,0.0687164,0.0683847,4.29492,6,0.0033598,10,0.000293707,-2.36704,0.333601,0.176858,29.6395,0.0683847,
2,1,0,1,0,11016.8,0.0702172,0.0699368,4.33028,6,0.00346805,10,0.000302846,-2.36348,0.393362,0.149989,25.3935,0.0699368,
2,1,0,1,0,11016.9,0.0717114,0.0713935,4.38035,6,0.00357692,10,0.000312728,-2.35849,0.351641,0.167785,28.6496,0.07139346,
2,1,0,1,0,11016.9,0.073211,0.0729261,4.42178,6,0.00368731,10,0.000322463,-2.3544,0.354739,0.166319,28.6834,0.0729261,
2,1,0,1,0,11016.9,0.0747105,0.0744023,4.45859,6,0.00379876,10,0.000331729,-2.3508,0.389658,0.151415,26.3564,0.0744023,
2,1,0,1,0,11016.9,0.0762101,0.0759141,4.49289,6,0.00391113,10,0.000341073,-2.34747,0.45462,0.129779,22.7922,0.0759141,
2,1,0,1,0,11017,0.0777042,0.0773824,4.538,6,0.00402395,10,0.000351161,-2.34314,0.412979,0.142864,25.2794,0.0773824,
2,1,0,1,0,11017,0.0792037,0.0788732,4.5782,6,0.00413822,10,0.000361098,-2.33931,0.384078,0.153615,27.401,0.0788732,
2,1,0,1,0,11017,0.0807046,0.080406,4.60793,6,0.00425347,10,0.000370505,-2.33649,0.419923,0.140502,25.2622,0.080406,
2,1,0,1,0,11017,0.0821988,0.081899,4.64241,6,0.00436918,10,0.000380208,-2.33326,0.48046,0.122799,22.2883,0.081899,
2,1,0,1,0,11017.1,0.0836983,0.0833671,4.68312,6,0.00448619,10,0.000390419,-2.32946,0.459108,0.12851,23.4966,0.0833671,
2,1,0,1,0,11017.1,0.0851979,0.0848977,4.72168,6,0.0046042,10,0.00040086,-2.3259,0.406875,0.145008,26.7252,0.0848977,
2,1,0,1,0,11017.1,0.0866921,0.0864024,4.75574,6,0.00472272,10,0.000410907,-2.32278,0.425915,0.138525,25.7363,0.0864024,
2,1,0,1,0,11017.1,0.0881929,0.0878541,4.79987,6,0.00484269,10,0.000421688,-2.31877,0.480405,0.122813,23.0204,0.0878541,
2,1,0,1,0,11017.2,0.0896937,0.0893841,4.84215,6,0.00496353,10,0.000432811,-2.31496,0.44183,0.133535,25.2283,0.0893841,
2,1,0,1,0,11017.2,0.0911879,0.0908401,4.88476,6,0.00508489,10,0.000443732,-2.31116,0.364847,0.161712,30.8033,0.0908401,
2,1,0,1,0,11017.2,0.0926861,0.0923877,4.92585,6,0.0052079,10,0.000455088,-2.30752,0.315955,0.186736,35.9312,0.0923877,
2,1,0,1,0,11017.2,0.0941856,0.0938953,4.97304,6,0.00533209,10,0.000466945,-2.30338,0.347587,0.169742,33.018,0.0938953,
2,1,0,1,0,11017.3,0.0956852,0.0953715,5.026,6,0.00545753,10,0.000479338,-2.29878,0.318197,0.185419,36.436,0.0953715,
2,1,0,1,0,11017.3,0.0971794,0.0968309,5.09413,6,0.00558393,10,0.000493269,-2.29293,0.263857,0.223606,44.424,0.0968309,
2,1,0,1,0,11017.3,0.0986802,0.0983483,5.15179,6,0.00571242,10,0.00050667,-2.28804,0.251548,0.234548,47.2032,0.09834832,
2,1,0,1,0,11017.3,0.100181,0.0998768,5.22234,6,0.00584259,10,0.000521591,-2.28213,0.269623,0.218824,44.6258,0.0998768,
2,1,0,1,0,11017.4,0.101675,0.101371,5.29578,6,0.0059739,10,0.000536841,-2.27607,0.26057,0.226427,46.7951,0.101371,
2,1,0,1,0,11017.4,0.103175,0.102838,5.37227,6,0.00610755,10,0.000552474,-2.26984,0.22253,0.265133,55.6263,0.102838,
2,1,0,1,0,11017.4,0.104674,0.104369,5.45294,6,0.00624327,10,0.000569118,-2.26337,0.210671,0.280057,59.6274,0.104369,
2,1,0,1,0,11017.4,0.106169,0.105826,5.54298,6,0.00638065,10,0.000586592,-2.25626,0.224733,0.262534,56.789,0.105826,
2,1,0,1,0,11017.5,0.107668,0.107332,5.6308,6,0.00652076,10,0.000604365,-2.24943,0.223804,0.263623,57.9445,0.107332,
2,1,0,1,0,11017.5,0.109169,0.10884,5.72566,6,0.00666304,10,0.00062318,-2.24217,0.207533,0.284292,63.5196,0.10884,
2,1,0,1,0,11017.5,0.110663,0.110335,5.81451,6,0.00680714,10,0.000641545,-2.23549,0.206805,0.285293,64.7682,0.110335,
2,1,0,1,0,11017.5,0.112163,0.111852,5.90845,6,0.00695419,10,0.000660873,-2.22853,0.219652,0.268607,61.9795,0.111852,
2,1,0,1,0,11017.6,0.113662,0.113365,6.00528,6,0.00710356,10,0.000680792,-2.22147,0.236339,0.249641,58.4399,0.113365,
2,1,0,1,0,11017.6,0.115162,0.114828,6.09196,6,0.00725512,10,0.000699527,-2.21524,0.235066,0.250993,59.6548,0.114828,
2,1,0,1,0,11017.6,0.116656,0.116331,6.17776,6,0.00740826,10,0.000718665,-2.20917,0.240101,0.24573,59.1962,0.116331,
2,1,0,1,0,11017.6,0.118157,0.117815,6.26395,6,0.00756426,10,0.000737986,-2.20315,0.271815,0.21706,53.0216,0.117815,
2,1,0,1,0,11017.7,0.119657,0.119327,6.34385,6,0.00772225,10,0.000756993,-2.19765,0.329755,0.178921,44.2098,0.119327,
2,1,0,1,0,11017.7,0.121152,0.120849,6.41307,6,0.00788139,10,0.000775013,-2.19293,0.327372,0.180223,45.0211,0.120849,
2,1,0,1,0,11017.7,0.122651,0.122367,6.46936,6,0.00804279,10,0.000791637,-2.18914,0.330749,0.178383,45.0485,0.122367,
2,1,0,1,0,11017.7,0.124151,0.123855,6.53487,6,0.00820586,10,0.000809375,-2.18476,0.358799,0.164438,41.9528,0.1238547,
2,1,0,1,0,11017.8,0.125649,0.125322,6.5971,6,0.00837044,10,0.000826764,-2.18065,0.419024,0.140803,36.2308,0.125322,
2,1,0,1,0,11017.8,0.127143,0.126837,6.64712,6,0.00853584,10,0.0008431,-2.17737,0.409915,0.143932,37.3431,0.1268369,
2,1,0,1,0,11017.8,0.128644,0.128305,6.7027,6,0.00870315,10,0.000859987,-2.17375,0.408239,0.144523,37.8225,0.1283046,
2,1,0,1,0,11017.8,0.130145,0.129823,6.75441,6,0.00887186,10,0.000876877,-2.17041,0.447221,0.131926,34.7915,0.129823,
2,1,0,1,0,11017.9,0.131639,0.131327,6.81763,6,0.00904126,10,0.000895337,-2.16637,0.513616,0.114872,30.5012,0.131327,
2,1,0,1,0,11017.9,0.133139,0.132876,6.86728,6,0.00921263,10,0.000912495,-2.16322,0.491821,0.119962,32.1104,0.132876,
2,1,0,1,0,11017.9,0.134638,0.134324,6.90265,6,0.00938509,10,0.000927188,-2.16098,0.495252,0.119131,32.1322,0.134324,
2,1,0,1,0,11017.9,0.136132,0.135807,6.94912,6,0.00955804,10,0.000943739,-2.15807,0.579418,0.101826,27.6289,0.135807,
2,1,0,1,0,11018,0.137633,0.137325,7.00024,6,0.00973283,10,0.000961305,-2.15489,0.666361,0.0885406,24.1441,0.137325,
2,1,0,1,0,11018,0.139133,0.138817,7.0367,6,0.0099086,10,0.000976817,-2.15263,0.907521,0.0650123,17.7936,0.138817,
2,1,0,1,0,11018,0.140627,0.140319,7.04347,6,0.0100842,10,0.000988333,-2.15221,1.29424,0.0455867,12.5187,0.140319,
2,1,0,1,0,11018,0.142126,0.141837,7.05001,6,0.0102609,10,0.000999951,-2.15181,9.73695,0.00605939,1.66507,0.141837,
2,1,0,1,0,11018.1,0.143626,0.143308,7.05153,6,0.0104377,10,0.00101054,-2.15172,-1.04131,-0.0566596,-15.5392,0.143308,
2,1,0,1,0,11018.1,0.145125,0.144822,7.01839,6,0.010614,10,0.00101642,-2.15376,-0.466206,-0.126554,-34.5055,0.144822,
2,1,0,1,0,11018.1,0.14662,0.14633,6.94182,6,0.0107883,10,0.00101579,-2.15853,-0.313443,-0.188232,-50.8787,0.14633,
2,1,0,1,0,11018.1,0.14812,0.147812,6.85022,6,0.0109613,10,0.00101254,-2.1643,-0.216589,-0.272406,-72.5867,0.147812,
2,1,0,1,0,11018.2,0.149621,0.149284,6.73859,6,0.0111316,10,0.00100596,-2.17143,-0.157408,-0.374821,-97.9622,0.149284,
2,1,0,1,0,11018.2,0.151116,0.150816,6.57994,6,0.0112977,10,0.000992357,-2.18178,-0.12912,-0.456938,-116.556,0.150816,
2,1,0,1,0,11018.2,0.152615,0.152324,6.37685,6,0.0114601,10,0.000971345,-2.19539,-0.108215,-0.545212,-135.238,0.152324,
2,1,0,1,0,11018.2,0.154115,0.153763,6.16487,6,0.0116173,10,0.00094793,-2.21008,-0.0943131,-0.625576,-150.23,0.153763,
2,1,0,1,0,11018.3,0.155614,0.155327,5.93397,6,0.011769,10,0.000921703,-2.22666,-0.084978,-0.694297,-160.215,0.155327,
2,1,0,1,0,11018.3,0.157107,0.156834,5.68599,6,0.011914,10,0.000891757,-2.24519,-0.0767716,-0.768514,-169.986,0.156834,
2,1,0,1,0,11018.3,0.158608,0.158302,5.42579,6,0.0120533,10,0.00085891,-2.26554,-0.0744127,-0.792876,-167.838,0.158302,
2,1,0,1,0,11018.3,0.160109,0.159784,5.16782,6,0.0121861,10,0.000825734,-2.28669,-0.0716901,-0.822987,-166.32,0.159784,
2,1,0,1,0,11018.4,0.161603,0.161288,4.93429,6,0.0123122,10,0.000795842,-2.30678,-0.0723778,-0.815167,-157.023,0.161288,
2,1,0,1,0,11018.4,0.163102,0.162795,4.71266,6,0.0124331,10,0.000767199,-2.32673,-0.0753961,-0.782534,-143.901,0.162795,
2,1,0,1,0,11018.4,0.164602,0.164304,4.49764,6,0.0125485,10,0.00073898,-2.34702,-0.0804446,-0.733424,-129.186,0.164304,
2,1,0,1,0,11018.4,0.166096,0.16578,4.30616,6,0.0126585,10,0.000713874,-2.36591,-0.0844454,-0.698676,-118.046,0.16578,
2,1,0,1,0,11018.5,0.167597,0.167288,4.1426,6,0.0127645,10,0.000693006,-2.38273,-0.0908036,-0.649754,-105.426,0.167288,
2,1,0,1,0,11018.5,0.169098,0.168803,4.00633,6,0.0128667,10,0.000676283,-2.39725,-0.101106,-0.583547,-91.2656,0.168803,
2,1,0,1,0,11018.5,0.170592,0.1703,3.87004,6,0.0129651,10,0.000659067,-2.41228,-0.106101,-0.556076,-84.15,0.1702998,
2,1,0,1,0,11018.5,0.17209,0.171767,3.7406,6,0.0130606,10,0.000642512,-2.42706,-0.114622,-0.514735,-75.5177,0.1717672,
2,1,0,1,0,11018.6,0.17359,0.173276,3.64609,6,0.0131533,10,0.000631778,-2.43817,-0.126812,-0.465257,-66.2781,0.1732756,
2,1,0,1,0,11018.6,0.175089,0.174755,3.54663,6,0.0132436,10,0.000619791,-2.45018,-0.141506,-0.416943,-57.8294,0.174755,
2,1,0,1,0,11018.6,0.176583,0.176242,3.46807,6,0.0133313,10,0.000611219,-2.45991,-0.147249,-0.400681,-54.2515,0.176242,
2,1,0,1,0,11018.6,0.178084,0.177802,3.38448,6,0.0134174,10,0.000601768,-2.47051,-0.154273,-0.382439,-50.6534,0.177802,
2,1,0,1,0,11018.7,0.179585,0.179302,3.3154,6,0.0135015,10,0.000594456,-2.47946,-0.169789,-0.34749,-45.0919,0.179302,
2,1,0,1,0,11018.7,0.181079,0.180783,3.25901,6,0.0135837,10,0.000589173,-2.48691,-0.192734,-0.306122,-38.88,0.1807826,
2,1,0,1,0,11018.7,0.182579,0.182298,3.20321,6,0.0136648,10,0.00058394,-2.49441,-0.205314,-0.287365,-35.9056,0.182298,
2,1,0,1,0,11018.7,0.184078,0.183783,3.14302,6,0.0137445,10,0.000577633,-2.50265,-0.211408,-0.279082,-34.3351,0.183783,
2,1,0,1,0,11018.8,0.185578,0.185293,3.10015,6,0.0138229,10,0.000574435,-2.50862,-0.218068,-0.270558,-32.7401,0.185293,
2,1,0,1,0,11018.8,0.187072,0.186725,3.05844,6,0.0138998,10,0.000571088,-2.5145,-0.273187,-0.215969,-25.7459,0.186725,
2,1,0,1,0,11018.8,0.188573,0.188229,3.01719,6,0.0139761,10,0.000567924,-2.5204,-0.313908,-0.187953,-22.1578,0.188229,
2,1,0,1,0,11018.8,0.190072,0.189807,2.97899,6,0.0140515,10,0.000565434,-2.52593,-0.294121,-0.200597,-23.3545,0.189807,
2,1,0,1,0,11018.9,0.191567,0.191214,2.94231,6,0.0141257,10,0.000562611,-2.53131,-0.294436,-0.200383,-23.0778,0.191214,
2,1,0,1,0,11018.9,0.193066,0.192755,2.91416,6,0.0141993,10,0.000561718,-2.53549,-0.406359,-0.145192,-16.5182,0.192755,
2,1,0,1,0,11018.9,0.194566,0.194256,2.89131,6,0.0142723,10,0.000561653,-2.53891,-0.405937,-0.145343,-16.4099,0.194256,
2,1,0,1,0,11018.9,0.19606,0.195774,2.86279,6,0.0143444,10,0.000560458,-2.54321,-0.355334,-0.166041,-18.5737,0.195774,
2,1,0,1,0,11019,0.197561,0.197255,2.8365,6,0.0144161,10,0.000559514,-2.54722,-0.359435,-0.164147,-18.2072,0.197255,
2,1,0,1,0,11019,0.199062,0.198785,2.8197,6,0.0144871,10,0.000560513,-2.5498,-0.46833,-0.12598,-13.8589,0.198785,
2,1,0,1,0,11019,0.200556,0.200241,2.8015,6,0.0145574,10,0.000560974,-2.55261,-0.754958,-0.07815,-8.53145,0.200241,
2,1,0,1,0,11019,0.202055,0.201753,2.77436,6,0.0146275,10,0.000559736,-2.55684,-0.516797,-0.114165,-12.3812,0.201753,
2,1,0,1,0,11019.1,0.203553,0.20323,2.75809,6,0.0146971,10,0.000560528,-2.55939,-0.444762,-0.132655,-14.2872,0.20323,
2,1,0,1,0,11019.1,0.205053,0.204771,2.74421,6,0.0147663,10,0.000561934,-2.56158,-0.813419,-0.0725333,-7.7785,0.204771,
2,1,0,1,0,11019.1,0.206547,0.206237,2.72409,6,0.0148347,10,0.000561806,-2.56478,-1.15584,-0.0510451,-5.44028,0.2062366,
2,1,0,1,0,11019.1,0.208048,0.207713,2.71561,6,0.0149033,10,0.000564067,-2.56613,-0.656,-0.089939,-9.52218,0.207713,
2,1,0,1,0,11019.2,0.209549,0.209264,2.70359,6,0.0149715,10,0.000565763,-2.56806,-0.46707,-0.126319,-13.3048,0.209264,
2,1,0,1,0,11019.2,0.211043,0.210765,2.69271,6,0.0150389,10,0.00056753,-2.56981,-0.741371,-0.0795823,-8.34197,0.210765,
2,1,0,1,0,11019.2,0.212543,0.212211,2.67224,6,0.0151063,10,0.000567078,-2.57312,-1.50334,-0.0392461,-4.09881,0.212211,
2,1,0,1,0,11019.2,0.214042,0.213722,2.65813,6,0.0151735,10,0.000568101,-2.57542,-0.82008,-0.0719442,-7.49311,0.213722,
2,1,0,1,0,11019.3,0.215536,0.215221,2.65041,6,0.0152401,10,0.000570424,-2.57669,-0.620954,-0.0950152,-9.83677,0.215221,
2,1,0,1,0,11019.3,0.217036,0.216693,2.63987,6,0.0153066,10,0.000572041,-2.57842,-0.915185,-0.0644679,-6.64893,0.216693,
2,1,0,1,0,11019.3,0.218537,0.218232,2.62957,6,0.0153729,10,0.000573857,-2.58012,-3.04161,-0.0193976,-1.99171,0.2182325,
2,1,0,1,0,11019.3,0.220031,0.219745,2.62359,6,0.0154388,10,0.000576521,-2.5811,-1.18867,-0.0496354,-5.0855,0.219745,
2,1,0,1,0,11019.4,0.22153,0.221244,2.61623,6,0.0155047,10,0.000578824,-2.58232,-0.721092,-0.0818203,-8.33797,0.221244,
2,1,0,1,0,11019.4,0.22303,0.222696,2.60513,6,0.0155704,10,0.000580153,-2.58417,-0.828805,-0.0711869,-7.23681,0.2226963,
2,1,0,1,0,11019.4,0.224529,0.224215,2.59433,6,0.0156358,10,0.000581686,-2.58598,-1.47461,-0.0400106,-4.0644,0.224215,
2,1,0,1,0,11019.4,0.226024,0.22573,2.58356,6,0.0157008,10,0.000583187,-2.58778,-1.45381,-0.040583,-4.10419,0.22573,
2,1,0,1,0,11019.5,0.227525,0.227206,2.58214,6,0.0157658,10,0.000586677,-2.58802,-0.660369,-0.089344,-9.00347,0.227206,
2,1,0,1,0,11019.5,0.229025,0.228762,2.57819,6,0.0158308,10,0.000589791,-2.58869,-1.15212,-0.0512101,-5.13894,0.228762,
2,1,0,1,0,11019.5,0.23052,0.230222,2.56576,6,0.0158951,10,0.000590695,-2.59078,-3.14026,-0.0187882,-1.88543,0.230222,
2,1,0,1,0,11019.5,0.232019,0.231725,2.55869,6,0.0159596,10,0.000592912,-2.59198,-2.52551,-0.0233617,-2.33486,0.231725,
2,1,0,1,0,11019.6,0.233519,0.233255,2.56072,6,0.016024,10,0.000597301,-2.59164,-1.49665,-0.0394214,-3.92698,0.2332547,
2,1,0,1,0,11019.6,0.235018,0.234731,2.55796,6,0.0160883,10,0.000600431,-2.59211,-1.18883,-0.0496288,-4.93729,0.234731,
2,1,0,1,0,11019.6,0.236511,0.236198,2.5369,6,0.016152,10,0.000599213,-2.5957,-3.15558,-0.018697,-1.85389,0.236198,
2,1,0,1,0,11019.6,0.238012,0.237678,2.53178,6,0.0162159,10,0.000601749,-2.59657,-1.92863,-0.0305917,-3.02752,0.237678,
2,1,0,1,0,11019.7,0.239513,0.239205,2.52945,6,0.0162796,10,0.000605057,-2.59697,-1.18039,-0.0499834,-4.93791,0.239205,
2,1,0,1,0,11019.7,0.241007,0.240731,2.52897,6,0.016343,10,0.000608803,-2.59706,-1.13164,-0.0521367,-5.12901,0.240731,
2,1,0,1,0,11019.7,0.242506,0.242216,2.51462,6,0.0164064,10,0.000609083,-2.59953,-1.95037,-0.0302507,-2.97901,0.242216,
2,1,0,1,0,11019.7,0.244006,0.243695,2.50963,6,0.0164696,10,0.000611584,-2.60039,-2.32929,-0.0253297,-2.48723,0.243695,
2,1,0,1,0,11019.8,0.2455,0.245196,2.51555,6,0.0165326,10,0.000616803,-2.59937,-1.57618,-0.0374322,-3.66283,0.2451961,
2,1,0,1,0,11019.8,0.247001,0.246662,2.50757,6,0.0165957,10,0.000618523,-2.60075,-1.25819,-0.0468927,-4.57257,0.246662,
2,1,0,1,0,11019.8,0.248502,0.248155,2.4949,6,0.0166586,10,0.000619121,-2.60295,-1.9347,-0.0304956,-2.97417,0.248155,
2,1,0,1,0,11019.8,0.249995,0.249689,2.48748,6,0.0167211,10,0.000621096,-2.60424,-1.66477,-0.0354403,-3.45071,0.249689,
2,1,0,1,0,11019.9,0.251494,0.251211,2.48705,6,0.0167837,10,0.000624775,-2.60432,-1.41497,-0.041697,-4.04755,0.2512112,
2,1,0,1,0,11019.9,0.252994,0.252718,2.48733,6,0.0168463,10,0.000628592,-2.60427,-1.24731,-0.0473019,-4.57246,0.252718,
2,1,0,1,0,11019.9,0.254493,0.254194,2.47553,6,0.0169087,10,0.000629265,-2.60633,-1.83271,-0.0321928,-3.11939,0.254194,
2,1,0,1,0,11019.9,0.255988,0.255733,2.46927,6,0.0169706,10,0.000631474,-2.60743,-1.4854,-0.0397199,-3.83593,0.255733,
2,1,0,1,0,11020,0.257488,0.257157,2.46468,6,0.0170327,10,0.000633811,-2.60824,-1.65821,-0.0355804,-3.41907,0.257157,
2,1,0,1,0,11020,0.258989,0.258684,2.46804,6,0.0170948,10,0.000638441,-2.60765,-1.30251,-0.0452973,-4.34872,0.258684,
2,1,0,1,0,11020,0.260483,0.260197,2.4657,6,0.0171565,10,0.000641569,-2.60806,-1.83063,-0.0322293,-3.09082,0.260197,
2,1,0,1,0,11020,0.261983,0.261687,2.44474,6,0.0172182,10,0.000639756,-2.61177,-1.45103,-0.0406606,-3.89502,0.261687,
2,1,0,1,0,11020.1,0.263482,0.263149,2.44341,6,0.0172798,10,0.00064298,-2.612,-1.7319,-0.0340667,-3.25444,0.263149,
2,1,0,1,0,11020.1,0.264982,0.264669,2.44535,6,0.0173413,10,0.000647208,-2.61166,-8.44365,-0.0069875,-0.665745,0.264669,
2,1,0,1,0,11020.1,0.266476,0.266196,2.43571,6,0.0174025,10,0.000648376,-2.61337,-3.16027,-0.0186693,-1.77404,0.266196,
2,1,0,1,0,11020.1,0.267976,0.267685,2.41972,6,0.0174638,10,0.000647722,-2.61624,-1.31029,-0.0450283,-4.27594,0.267685,
2,1,0,1,0,11020.2,0.269477,0.26918,2.42584,6,0.0175248,10,0.000652988,-2.61514,-1.38192,-0.0426943,-4.0437,0.26918,
2,1,0,1,0,11020.2,0.270971,0.270656,2.43282,6,0.0175856,10,0.000658459,-2.61389,-1.70716,-0.0345603,-3.26269,0.270656,
2,1,0,1,0,11020.2,0.27247,0.272192,2.42144,6,0.0176466,10,0.000659095,-2.61593,-1.99405,-0.0295881,-2.78679,0.272192,
2,1,0,1,0,11020.2,0.27397,0.273687,2.40656,6,0.0177074,10,0.000658643,-2.6186,-1.10954,-0.0531753,-5.01392,0.273687,
2,1,0,1,0,11020.3,0.275464,0.275149,2.40811,6,0.0177677,10,0.000662587,-2.61832,-1.01858,-0.057924,-5.44805,0.2751486,
2,1,0,1,0,11020.3,0.276965,0.276676,2.40481,6,0.0178283,10,0.000665352,-2.61892,-1.85695,-0.0317726,-2.97854,0.276676,
2,1,0,1,0,11020.3,0.278466,0.278131,2.40001,6,0.0178887,10,0.000667518,-2.61979,-1.89972,-0.0310572,-2.90262,0.278131,
2,1,0,1,0,11020.3,0.27996,0.279686,2.39172,6,0.0179487,10,0.000668931,-2.62129,-1.23903,-0.0476177,-4.44619,0.279686,
2,1,0,1,0,11020.4,0.281458,0.281159,2.38312,6,0.0180088,10,0.000670036,-2.62285,-1.20483,-0.0489695,-4.56359,0.281159,
2,1,0,1,0,11020.4,0.282958,0.282643,2.38126,6,0.0180688,10,0.000673047,-2.62319,-4.0163,-0.0146901,-1.36233,0.282643,
2,1,0,1,0,11020.4,0.284457,0.284158,2.38049,6,0.0181287,10,0.000676436,-2.62333,9.40354,0.00627424,0.582173,0.2841582,
2,1,0,1,0,11020.4,0.285951,0.285634,2.36824,6,0.0181882,10,0.000676449,-2.62557,-1.3322,-0.0442877,-4.10328,0.285634,
2,1,0,1,0,11020.5,0.287452,0.287112,2.36251,6,0.0182478,10,0.000678306,-2.62663,-0.99703,-0.0591757,-5.46512,0.287112,
2,1,0,1,0,11020.5,0.288953,0.288655,2.36613,6,0.0183073,10,0.000682995,-2.62596,-3.14893,-0.0187365,-1.72247,0.288655,
2,1,0,1,0,11020.5,0.290447,0.29017,2.35616,6,0.0183664,10,0.000683687,-2.6278,-3.80046,-0.0155244,-1.4278,0.29017,
2,1,0,1,0,11020.5,0.291947,0.291651,2.34605,6,0.0184256,10,0.000684228,-2.62966,-1.82732,-0.0322878,-2.96345,0.291651,
2,1,0,1,0,11020.6,0.293446,0.293148,2.33933,6,0.0184848,10,0.000685771,-2.63091,-0.87417,-0.0674926,-6.1819,0.293148,
2,1,0,1,0,11020.6,0.29494,0.294615,2.3415,6,0.0185435,10,0.000689841,-2.63051,-1.45518,-0.0405449,-3.70237,0.294615,
2,1,0,1,0,11020.6,0.29644,0.296156,2.33985,6,0.0186023,10,0.000692959,-2.63081,-33.1732,-0.00177855,-0.162143,0.296156,
2,1,0,1,0,11020.6,0.297941,0.297686,2.32959,6,0.0186611,10,0.000693486,-2.63272,-1.24173,-0.0475144,-4.31392,0.297686,
2,1,0,1,0,11020.7,0.29944,0.299112,2.32696,6,0.0187197,10,0.000696023,-2.63321,-0.00528193,-11.1702,-704.147,0.299112,
2,1,0,1,0,11020.7,0.299736,0.299468,1.75723,6,0.0187494,10,0.000526233,-2.75517,0.000637779,92.5085,1877.05,0.299468,
2,1,0,1,0,11020.7,0.298238,0.297971,0.260058,6,0.0187708,10,7.74898e-05,-3.58493,0.00495873,11.8982,708.02,0.297971,
2,0,0,1,0,11020.7,0.296744,0.296471,-0.274997,6,0.0187691,10,-8.15289e-05,-3.56067,-1.27061,-0.0464345,296.865,0.296471,
2,0,0,1,0,11020.7,0.295243,0.294955,-0.535712,6,0.0187581,10,-0.000158011,-3.27107,-0.00595739,-9.90366,139.839,0.294955,
2,0,0,1,0,11020.8,0.293742,0.293405,-0.681125,6,0.0187424,10,-0.000199845,-3.16677,-0.0176769,-3.33768,79.9826,0.293405,
2,0,0,1,0,11020.8,0.292248,0.291923,-0.770691,6,0.018724,10,-0.000224982,-3.11312,-0.0297821,-1.98106,57.3832,0.291923,
2,0,0,1,0,11020.8,0.290748,0.290381,-0.842627,6,0.0187033,10,-0.000244683,-3.07436,-0.0401202,-1.47058,47.3414,0.290381,
2,0,0,1,0,11020.8,0.289249,0.288938,-0.896235,6,0.0186811,10,-0.000258956,-3.04758,-0.0572928,-1.0298,35.8624,0.288938,
2,0,0,1,0,11020.9,0.287754,0.287407,-0.950961,6,0.0186576,10,-0.000273313,-3.02184,-0.0724645,-0.814192,29.9367,0.287407,
2,0,0,1,0,11020.9,0.286254,0.285958,-0.993098,6,0.0186329,10,-0.000283984,-3.00301,-0.0746446,-0.790412,30.4681,0.285958,
2,0,0,1,0,11020.9,0.284754,0.284437,-1.02993,6,0.0186072,10,-0.000292949,-2.98719,-0.0839158,-0.703086,28.2328,0.284437,
2,0,0,1,0,11020.9,0.28326,0.282982,-1.07382,6,0.0185805,10,-0.00030387,-2.96907,-0.104344,-0.565438,23.518,0.282982,
2,0,0,1,0,11021,0.28176,0.281478,-1.10898,6,0.0185528,10,-0.000312153,-2.95508,-0.127958,-0.461089,19.7393,0.281478,
2,0,0,1,0,11021,0.280261,0.279964,-1.13668,6,0.0185244,10,-0.00031823,-2.94436,-0.115719,-0.509856,22.511,0.279964,
2,0,0,1,0,11021,0.278761,0.278427,-1.1569,6,0.0184953,10,-0.000322114,-2.9367,-0.134365,-0.439102,20.0155,0.278427,
2,0,0,1,0,11021,0.277267,0.276979,-1.18795,6,0.0184655,10,-0.000329038,-2.9252,-0.145997,-0.404118,18.7972,0.276979,
2,0,0,1,0,11021.1,0.275766,0.275468,-1.22339,6,0.0184348,10,-0.000337005,-2.91243,-0.201068,-0.293433,13.8969,0.275468,
2,0,0,1,0,11021.1,0.274265,0.273957,-1.24665,6,0.0184036,10,-0.000341529,-2.90425,-0.161697,-0.364881,17.6412,0.273957,
2,0,0,1,0,11021.1,0.272771,0.272447,-1.26722,6,0.0183719,10,-0.00034525,-2.89715,-0.173149,-0.340748,16.8924,0.272447,
2,0,0,1,0,11021.1,0.271272,0.270942,-1.28871,6,0.0183395,10,-0.000349167,-2.88984,-0.196143,-0.300801,15.1833,0.270942,
2,0,0,1,0,11021.2,0.269772,0.269495,-1.32363,6,0.0183064,10,-0.00035671,-2.87823,-0.206016,-0.286386,14.6563,0.269495,
2,0,0,1,0,11021.2,0.268273,0.267908,-1.34091,6,0.0182728,10,-0.00035924,-2.8726,-0.213508,-0.276337,14.3963,0.267908,
2,0,0,1,0,11021.2,0.26678,0.26649,-1.34994,6,0.0182388,10,-0.000359745,-2.86969,-0.212605,-0.27751,14.7103,0.26649,
2,0,0,1,0,11021.2,0.265279,0.264991,-1.37234,6,0.0182043,10,-0.000363657,-2.86254,-0.241609,-0.244197,13.1139,0.264991,
2,0,0,1,0,11021.3,0.263778,0.263452,-1.39624,6,0.0181692,10,-0.000367842,-2.85504,-0.294419,-0.200395,10.8812,0.263452,
2,0,0,1,0,11021.3,0.262284,0.261969,-1.41693,6,0.0181337,10,-0.000371191,-2.84865,-0.267743,-0.22036,12.1474,0.261969,
2,0,0,1,0,11021.3,0.260784,0.260456,-1.42065,6,0.0180978,10,-0.000370017,-2.84751,-0.278481,-0.211863,11.8606,0.260456,
2,0,0,1,0,11021.3,0.259285,0.258985,-1.44351,6,0.0180614,10,-0.000373846,-2.84058,-0.313423,-0.188244,10.6642,0.258985,
2,0,0,1,0,11021.4,0.257791,0.257474,-1.47273,6,0.0180247,10,-0.00037919,-2.83188,-0.340936,-0.173053,9.88293,0.257474,
2,0,0,1,0,11021.4,0.25629,0.255964,-1.48846,6,0.0179873,10,-0.000380992,-2.82726,-0.31352,-0.188186,10.8695,0.255964,
2,0,0,1,0,11021.4,0.254789,0.254509,-1.49356,6,0.0179495,10,-0.000380124,-2.82578,-0.290633,-0.203005,11.9058,0.254509,
2,0,0,1,0,11021.4,0.253296,0.253,-1.51214,6,0.0179116,10,-0.000382572,-2.82041,-0.375855,-0.156976,9.29775,0.253,
2,0,0,1,0,11021.5,0.251797,0.251447,-1.53516,6,0.0178731,10,-0.000386012,-2.81385,-0.391543,-0.150686,8.99678,0.251447,
2,0,0,1,0,11021.5,0.250297,0.249999,-1.54873,6,0.0178342,10,-0.000387182,-2.81002,-0.343705,-0.171659,10.3295,0.249999,
2,0,0,1,0,11021.5,0.248797,0.248465,-1.56036,6,0.0177948,10,-0.000387695,-2.80678,-0.369092,-0.159852,9.75654,0.248465,
2,0,0,1,0,11021.5,0.247303,0.246974,-1.57436,6,0.0177554,10,-0.000388826,-2.8029,-0.396149,-0.148934,9.16411,0.246974,
2,0,0,1,0,11021.6,0.245802,0.24546,-1.59583,6,0.0177153,10,-0.000391712,-2.79701,-0.416462,-0.14167,8.79312,0.24546,
2,0,0,1,0,11021.6,0.244302,0.243962,-1.61112,6,0.0176749,10,-0.000393053,-2.79287,-0.345595,-0.17072,10.6773,0.243962,
2,0,0,1,0,11021.6,0.242807,0.242492,-1.62339,6,0.0176342,10,-0.000393659,-2.78958,-0.436542,-0.135153,8.55145,0.242492,
2,0,0,1,0,11021.6,0.241308,0.240989,-1.62846,6,0.0175932,10,-0.000392442,-2.78822,-0.716971,-0.0822907,5.26185,0.240989,
2,0,0,1,0,11021.7,0.239808,0.239507,-1.64716,6,0.0175517,10,-0.000394505,-2.78327,-0.366998,-0.160764,10.3234,0.239507,
2,0,0,1,0,11021.7,0.238309,0.237993,-1.66282,6,0.0175099,10,-0.00039574,-2.77915,-0.39981,-0.14757,9.55507,0.237993,
2,0,0,1,0,11021.7,0.236815,0.236519,-1.67415,6,0.0174679,10,-0.000395969,-2.7762,-0.402335,-0.146644,9.58398,0.236519,
2,0,0,1,0,11021.7,0.235315,0.235029,-1.68051,6,0.0174254,10,-0.000394968,-2.77456,-0.527765,-0.111792,7.36817,0.235029,
2,0,0,1,0,11021.8,0.233814,0.233513,-1.70429,6,0.0173827,10,-0.000397974,-2.76846,-0.457398,-0.128991,8.56654,0.233513,
2,0,0,1,0,11021.8,0.23232,0.232002,-1.72394,6,0.0173397,10,-0.000399956,-2.76348,-0.35748,-0.165044,11.0321,0.232002,
2,0,0,1,0,11021.8,0.230821,0.2305,-1.72835,6,0.0172961,10,-0.000398386,-2.76237,-0.508545,-0.116017,7.82257,0.2305,
2,0,0,1,0,11021.8,0.229321,0.228972,-1.73417,6,0.0172523,10,-0.000397076,-2.76091,-0.617817,-0.0954976,6.51296,0.228972,
2,0,0,1,0,11021.9,0.227827,0.227512,-1.75302,6,0.0172084,10,-0.000398833,-2.75621,-0.595121,-0.0991395,6.79151,0.227512,
2,0,0,1,0,11021.9,0.226326,0.226049,-1.77005,6,0.0171639,10,-0.000400118,-2.75201,-0.428871,-0.137571,9.49807,0.226049,
2,0,0,1,0,11021.9,0.224825,0.224514,-1.78129,6,0.0171191,10,-0.000399925,-2.74927,-0.448097,-0.131668,9.14934,0.224514,
2,0,0,1,0,11021.9,0.223331,0.222991,-1.7935,6,0.0170741,10,-0.000399935,-2.7463,-0.606062,-0.0973498,6.79917,0.222991,
2,0,0,1,0,11022,0.221831,0.221529,-1.80694,6,0.0170287,10,-0.00040029,-2.74306,-0.524241,-0.112544,7.92031,0.221529,
2,0,0,1,0,11022,0.220333,0.220039,-1.82289,6,0.016983,10,-0.000401107,-2.73924,-0.355592,-0.165921,11.768,0.220039,
2,0,0,1,0,11022,0.218834,0.218534,-1.83059,6,0.0169368,10,-0.000400045,-2.73741,-0.391218,-0.150811,10.8096,0.218534,
2,0,0,1,0,11022,0.217339,0.21703,-1.84377,6,0.0168905,10,-0.000400155,-2.73429,-0.66007,-0.0893845,6.45801,0.21703,
2,0,0,1,0,11022.1,0.215839,0.215493,-1.85647,6,0.0168438,10,-0.000400058,-2.73131,-0.620312,-0.0951134,6.90152,0.215493,
2,0,0,1,0,11022.1,0.214338,0.214046,-1.87239,6,0.0167967,10,-0.000400779,-2.7276,-0.435152,-0.135585,9.89274,0.214046,
2,0,0,1,0,11022.1,0.212844,0.212467,-1.88247,6,0.0167495,10,-0.000399963,-2.72527,-0.38308,-0.154015,11.347,0.212467,
2,0,0,1,0,11022.1,0.211344,0.211022,-1.89532,6,0.0167018,10,-0.000399956,-2.72232,-0.69494,-0.0848994,6.2936,0.211022,
2,0,0,1,0,11022.2,0.209845,0.209518,-1.90805,6,0.0166537,10,-0.00039977,-2.71941,-0.610729,-0.0966059,7.20482,0.209518,
2,0,0,1,0,11022.2,0.20835,0.208051,-1.92789,6,0.0166056,10,-0.0004011,-2.71492,-0.374806,-0.157415,11.845,0.208051,
2,0,0,1,0,11022.2,0.206851,0.206564,-1.94511,6,0.0165568,10,-0.00040179,-2.71106,-0.327522,-0.180141,13.6453,0.206564,
2,0,0,1,0,11022.2,0.20535,0.205073,-1.95461,6,0.0165075,10,-0.000400838,-2.70894,-0.537735,-0.10972,8.35716,0.205073,
2,0,0,1,0,11022.3,0.203856,0.203547,-1.9721,6,0.0164581,10,-0.000401415,-2.70507,-0.907501,-0.0650137,4.99487,0.203547,
2,0,0,1,0,11022.3,0.202356,0.202035,-1.98372,6,0.0164084,10,-0.000400782,-2.70252,-0.406342,-0.145198,11.236,0.202035,
2,0,0,1,0,11022.3,0.200857,0.200574,-1.99377,6,0.0163582,10,-0.000399898,-2.70032,-0.386156,-0.152788,11.9079,0.200574,
2,0,0,1,0,11022.3,0.199357,0.199023,-2.00938,6,0.0163077,10,-0.000399915,-2.69694,-0.532258,-0.110848,8.70574,0.199023,
2,0,0,1,0,11022.4,0.197863,0.197498,-2.03004,6,0.0162569,10,-0.000400928,-2.6925,-0.618527,-0.095388,7.54007,0.197498,
2,0,0,1,0,11022.4,0.196362,0.196016,-2.05042,6,0.0162057,10,-0.000401915,-2.68816,-0.405837,-0.145379,11.5716,0.196016,
2,0,0,1,0,11022.4,0.194861,0.194574,-2.05932,6,0.016154,10,-0.000400689,-2.68628,-0.301908,-0.195424,15.6969,0.194574,
2,0,0,1,0,11022.4,0.193367,0.193042,-2.07622,6,0.016102,10,-0.000400797,-2.68273,-0.487995,-0.120903,9.80798,0.193042,
2,0,0,1,0,11022.5,0.191868,0.191522,-2.09454,6,0.0160494,10,-0.00040115,-2.67891,-0.568934,-0.103703,8.48219,0.191522,
2,0,0,1,0,11022.5,0.190368,0.190039,-2.10523,6,0.0159964,10,-0.000400077,-2.6767,-0.397869,-0.14829,12.2086,0.190039,
2,0,0,1,0,11022.5,0.18887,0.188501,-2.12755,6,0.015943,10,-0.000401045,-2.67212,-0.314242,-0.187753,15.6163,0.188501,
2,0,0,1,0,11022.5,0.187376,0.187075,-2.14434,6,0.0158894,10,-0.000401152,-2.66871,-0.383325,-0.153916,12.9064,0.187075,
2,0,0,1,0,11022.6,0.185875,0.185534,-2.17057,6,0.015835,10,-0.000402714,-2.66343,-0.454632,-0.129775,10.9416,0.185534,
2,0,0,1,0,11022.6,0.184374,0.184063,-2.18869,6,0.0157801,10,-0.000402856,-2.65982,-0.342878,-0.172073,14.6753,0.184063,
2,0,0,1,0,11022.6,0.18288,0.182509,-2.20863,6,0.015725,10,-0.000403095,-2.65588,-0.311326,-0.189512,16.3242,0.1825095,
2,0,0,1,0,11022.6,0.18138,0.181051,-2.22451,6,0.0156691,10,-0.000402749,-2.65277,-0.332938,-0.17721,15.462,0.181051,
2,0,0,1,0,11022.7,0.179881,0.179561,-2.25873,6,0.0156125,10,-0.000405578,-2.64614,-0.446758,-0.132062,11.6128,0.179561,
2,0,0,1,0,11022.7,0.178387,0.178068,-2.28473,6,0.0155556,10,-0.000406838,-2.64116,-0.325414,-0.181307,16.1351,0.178068,
2,0,0,1,0,11022.7,0.176886,0.176556,-2.30109,6,0.015498,10,-0.000406272,-2.63807,-0.287904,-0.20493,18.431,0.176556,
2,0,0,1,0,11022.7,0.175385,0.175068,-2.32766,6,0.0154396,10,-0.0004075,-2.63308,-0.28074,-0.210159,19.136,0.175068,
2,0,0,1,0,11022.8,0.173892,0.173584,-2.36079,6,0.0153808,10,-0.000409795,-2.62694,-0.281611,-0.209508,19.2758,0.1735841,
2,0,0,1,0,11022.8,0.172392,0.172092,-2.39358,6,0.0153209,10,-0.000411915,-2.62095,-0.255413,-0.230999,21.5537,0.172092,
2,0,0,1,0,11022.8,0.170893,0.170572,-2.41411,6,0.0152604,10,-0.00041178,-2.61724,-0.250654,-0.235384,22.2968,0.170572,
2,0,0,1,0,11022.8,0.169393,0.169083,-2.45268,6,0.015199,10,-0.000414706,-2.61036,-0.2122,-0.27804,26.7345,0.169083,
2,0,0,1,0,11022.9,0.167899,0.167591,-2.50129,6,0.0151369,10,-0.000419194,-2.60184,-0.244692,-0.241119,23.4965,0.167591,
2,0,0,1,0,11022.9,0.166398,0.166122,-2.54264,6,0.0150735,10,-0.00042239,-2.59471,-0.213587,-0.276233,27.3339,0.166122,
2,0,0,1,0,11022.9,0.164898,0.164572,-2.57757,6,0.0150091,10,-0.000424195,-2.58879,-0.182974,-0.32245,32.4855,0.164572,
2,0,0,1,0,11022.9,0.163403,0.16308,-2.62414,6,0.0149439,10,-0.000427945,-2.58101,-0.182629,-0.323059,33.1967,0.16308,
2,0,0,1,0,11023,0.161904,0.161613,-2.68149,6,0.0148772,10,-0.000433364,-2.57162,-0.180142,-0.32752,34.2503,0.161613,
2,0,0,1,0,11023,0.160404,0.160079,-2.73827,6,0.014809,10,-0.00043834,-2.56252,-0.166334,-0.354707,37.7909,0.160079,
2,0,0,1,0,11023,0.158905,0.15857,-2.79412,6,0.0147395,10,-0.000443063,-2.55375,-0.148703,-0.396765,43.3467,0.15857,
2,0,0,1,0,11023,0.157411,0.157094,-2.85128,6,0.0146687,10,-0.000447919,-2.54496,-0.140668,-0.419428,46.9986,0.157094,
2,0,0,1,0,11023.1,0.155911,0.155605,-2.92941,6,0.0145959,10,-0.000455831,-2.53322,-0.133741,-0.441153,50.632,0.155605,
2,0,0,1,0,11023.1,0.15441,0.154082,-3.02381,6,0.0145211,10,-0.000465916,-2.51944,-0.12463,-0.4734,55.6298,0.154082,
2,0,0,1,0,11023.1,0.152916,0.152581,-3.10099,6,0.0144445,10,-0.000473153,-2.5085,-0.115675,-0.51005,61.8002,0.152581,
2,0,0,1,0,11023.1,0.151417,0.151092,-3.18918,6,0.0143654,10,-0.000481861,-2.49632,-0.112097,-0.526332,65.8233,0.151092,
2,0,0,1,0,11023.2,0.149917,0.149581,-3.30204,6,0.0142838,10,-0.000493921,-2.48122,-0.103246,-0.571451,73.7645,0.149581,
2,0,0,1,0,11023.2,0.148423,0.148141,-3.42251,6,0.0141997,10,-0.000507013,-2.46566,-0.0971579,-0.607259,81.134,0.148141,
2,0,0,1,0,11023.2,0.146922,0.146598,-3.54356,6,0.0141123,10,-0.000519478,-2.45056,-0.0921484,-0.640271,88.6564,0.146598,
2,0,0,1,0,11023.2,0.145421,0.145127,-3.67455,6,0.0140216,10,-0.000533274,-2.4348,-0.0861866,-0.684561,98.5309,0.145127,
2,0,0,1,0,11023.3,0.143927,0.143597,-3.82841,6,0.0139277,10,-0.00054975,-2.41698,-0.0831642,-0.70944,106.235,0.143597,
2,0,0,1,0,11023.3,0.142429,0.142118,-4.00275,6,0.0138294,10,-0.000568861,-2.39764,-0.0806682,-0.731391,114.126,0.142118,
2,0,0,1,0,11023.3,0.140929,0.140607,-4.16775,6,0.0137268,10,-0.000586015,-2.3801,-0.0808217,-0.730002,118.854,0.140607,
2,0,0,1,0,11023.3,0.13943,0.139124,-4.33967,6,0.0136199,10,-0.000603754,-2.36254,-0.0812687,-0.725987,123.321,0.139124,
2,0,0,1,0,11023.4,0.137935,0.137609,-4.53674,6,0.0135089,10,-0.000624295,-2.34326,-0.081522,-0.723731,128.212,0.137609,
2,0,0,1,0,11023.4,0.136435,0.136113,-4.7363,6,0.0133926,10,-0.000644672,-2.32456,-0.083412,-0.707332,130.599,0.136113,
2,0,0,1,0,11023.4,0.134934,0.134606,-4.93807,6,0.0132712,10,-0.000664694,-2.30644,-0.0853032,-0.69165,133.018,0.134606,
2,0,0,1,0,11023.4,0.13344,0.133114,-5.12877,6,0.0131453,10,-0.000682712,-2.28999,-0.0896989,-0.657756,131.561,0.1331141,
2,0,0,1,0,11023.5,0.13194,0.131639,-5.31759,6,0.0130142,10,-0.000700003,-2.27429,-0.094376,-0.625159,130.04,0.131639,
2,0,0,1,0,11023.5,0.13044,0.130138,-5.52779,6,0.0128781,10,-0.000719376,-2.25745,-0.095901,-0.615218,132.498,0.130138,
2,0,0,1,0,11023.5,0.128941,0.128643,-5.71894,6,0.012737,10,-0.0007357,-2.24268,-0.104401,-0.565128,125.886,0.128643,
2,0,0,1,0,11023.5,0.127447,0.127141,-5.90318,6,0.0125917,10,-0.000750537,-2.22891,-0.116946,-0.504507,116.068,0.127141,
2,0,0,1,0,11023.6,0.125946,0.125647,-6.07672,6,0.0124415,10,-0.000763523,-2.21633,-0.126953,-0.46474,110.019,0.1256472,
2,0,0,1,0,11023.6,0.124446,0.124126,-6.24339,6,0.0122871,10,-0.000774967,-2.20458,-0.134362,-0.439112,106.599,0.124126,
2,0,0,1,0,11023.6,0.122952,0.122678,-6.39015,6,0.0121294,10,-0.000783931,-2.19449,-0.149402,-0.394907,98.2815,0.122678,
2,0,0,1,0,11023.6,0.121453,0.12116,-6.52273,6,0.0119674,10,-0.000790295,-2.18557,-0.176875,-0.333569,84.8295,0.12116,
2,0,0,1,0,11023.7,0.119953,0.119668,-6.64562,6,0.0118023,10,-0.000795271,-2.17746,-0.208526,-0.282939,73.3076,0.119668,
2,0,0,1,0,11023.7,0.118459,0.11812,-6.76223,6,0.0116348,10,-0.000798755,-2.16991,-0.213924,-0.275799,72.6242,0.11812,
2,0,0,1,0,11023.7,0.116958,0.116669,-6.86488,6,0.0114641,10,-0.000800921,-2.16337,-0.250464,-0.235563,62.9764,0.116669,
2,0,0,1,0,11023.7,0.115457,0.115111,-6.95101,6,0.0112908,10,-0.000800136,-2.15795,-0.308083,-0.191507,51.8389,0.115111,
2,0,0,1,0,11023.8,0.113963,0.113673,-7.01184,6,0.0111164,10,-0.000797056,-2.15417,-0.395884,-0.149034,40.7588,0.1136729,
2,0,0,1,0,11023.8,0.112464,0.11218,-7.08393,6,0.0109398,10,-0.000794673,-2.14973,-0.456132,-0.129348,35.6767,0.11218,
2,0,0,1,0,11023.8,0.110965,0.110631,-7.12057,6,0.0107617,10,-0.000787753,-2.14749,-0.519651,-0.113538,31.5397,0.110631,
2,0,0,1,0,11023.8,0.109466,0.109159,-7.16135,6,0.0105826,10,-0.000781726,-2.14501,-0.940645,-0.0627229,17.515,0.109159,
2,0,0,1,0,11023.9,0.107972,0.107647,-7.18729,6,0.0104034,10,-0.000773691,-2.14343,-1.96395,-0.0300415,8.41254,0.1076471,
2,0,0,1,0,11023.9,0.106471,0.106168,-7.19977,6,0.0102233,10,-0.000764386,-2.14268,-3.97397,-0.0148466,4.1649,0.106168,
2,0,0,1,0,11023.9,0.10497,0.104654,-7.19843,6,0.0100429,10,-0.000753346,-2.14276,-187.59,-0.000314516,0.0882366,0.104654,
2,0,0,1,0,11023.9,0.103476,0.103194,-7.18574,6,0.00986328,10,-0.000741527,-2.14353,1.52856,0.0385985,-10.8099,0.103194,
2,0,0,1,0,11024,0.101976,0.101701,-7.16576,6,0.00968335,10,-0.000728765,-2.14474,0.704941,0.083695,-23.3711,0.101701,
2,0,0,1,0,11024,0.100477,0.100151,-7.13388,6,0.00950427,10,-0.000714462,-2.14667,0.612672,0.0962994,-26.7619,0.100151,
2,0,0,1,0,11024,0.0989825,0.098664,-7.08849,6,0.00932685,10,-0.000699379,-2.14945,0.573103,0.102948,-28.4306,0.098664,
2,0,0,1,0,11024,0.0974817,0.0971586,-7.03014,6,0.00914988,10,-0.000683039,-2.15304,0.42754,0.137999,-37.8665,0.0971586,
2,0,0,1,0,11024.1,0.0959822,0.0956633,-6.97507,6,0.00897435,10,-0.000667259,-2.15645,0.348337,0.169376,-46.0325,0.0956633,
2,0,0,1,0,11024.1,0.094488,0.0941814,-6.89814,6,0.00880118,10,-0.000649677,-2.16127,0.310316,0.190129,-51.1166,0.0941814,
2,0,0,1,0,11024.1,0.0929884,0.0927055,-6.82299,6,0.00862923,10,-0.000632528,-2.16603,0.329538,0.179038,-47.6641,0.0927055,
2,0,0,1,0,11024.1,0.0914889,0.0911976,-6.74343,6,0.00845923,10,-0.000614984,-2.17112,0.295941,0.199364,-52.4773,0.09119758,
2,0,0,1,0,11024.2,0.0899894,0.089659,-6.65902,6,0.00829113,10,-0.000597041,-2.17659,0.257002,0.229571,-59.6174,0.089659,
2,0,0,1,0,11024.2,0.0884951,0.0881632,-6.57525,6,0.00812587,10,-0.000579696,-2.18209,0.252827,0.233361,-59.8543,0.0881632,
2,0,0,1,0,11024.2,0.0869943,0.0866789,-6.48903,6,0.00796223,10,-0.000562462,-2.18782,0.278952,0.211506,-53.5855,0.08667893,
2,0,0,1,0,11024.2,0.0854935,0.0851813,-6.40458,6,0.00780059,10,-0.000545551,-2.19351,0.275916,0.213833,-53.4948,0.0851813,
2,0,0,1,0,11024.3,0.0839993,0.0836777,-6.32707,6,0.00764163,10,-0.000529434,-2.1988,0.26249,0.224771,-55.5302,0.0836777,
2,0,0,1,0,11024.3,0.0824998,0.0821574,-6.26215,6,0.00748391,10,-0.000514482,-2.20328,0.298123,0.197905,-48.3069,0.0821574,
2,0,0,1,0,11024.3,0.0810002,0.0806841,-6.18284,6,0.00732811,10,-0.000498857,-2.20881,0.348956,0.169076,-40.8363,0.0806841,
2,0,0,1,0,11024.3,0.0795007,0.079195,-6.11277,6,0.00717395,10,-0.000484101,-2.21376,0.36215,0.162916,-38.9322,0.079195,
2,0,0,1,0,11024.4,0.0780078,0.0776868,-6.05625,6,0.00702184,10,-0.00047049,-2.2178,0.378615,0.155831,-36.8697,0.0776868,
2,0,0,1,0,11024.4,0.076507,0.0761636,-6.01803,6,0.00687056,10,-0.000458354,-2.22055,0.372652,0.158325,-37.1031,0.0761636,
2,0,0,1,0,11024.4,0.0750062,0.0746803,-5.95462,6,0.00672064,10,-0.000444693,-2.22515,0.463585,0.127269,-29.5776,0.0746803,
2,0,0,1,0,11024.4,0.073512,0.0732021,-5.90352,6,0.00657254,10,-0.00043215,-2.22889,0.530472,0.111222,-25.6652,0.0732021,
2,0,0,1,0,11024.5,0.0720124,0.0716475,-5.86532,6,0.00642494,10,-0.000420236,-2.23171,0.455725,0.129464,-29.6651,0.07164754,
2,0,0,1,0,11024.5,0.0705129,0.0701569,-5.82971,6,0.00627828,10,-0.000408994,-2.23435,0.481058,0.122646,-27.9012,0.07015691,
2,0,0,1,0,11024.5,0.0690187,0.0686726,-5.78785,6,0.00613326,10,-0.000397467,-2.23748,0.576492,0.102343,-23.1282,0.06867256,
2,0,0,1,0,11024.5,0.0675179,0.0671933,-5.75012,6,0.00598861,10,-0.00038637,-2.24032,0.626421,0.0941859,-21.1619,0.0671933,
2,0,0,1,0,11024.6,0.066017,0.0657286,-5.7265,6,0.00584475,10,-0.000376395,-2.24211,0.563943,0.10462,-23.3512,0.0657286,
2,0,0,1,0,11024.6,0.0645242,0.0642226,-5.69487,6,0.00570219,10,-0.000365739,-2.24452,0.550899,0.107098,-23.7382,0.0642226,
2,0,0,1,0,11024.6,0.0630246,0.0627113,-5.65258,6,0.00555992,10,-0.000354481,-2.24775,0.640239,0.0921531,-20.3371,0.0627113,
2,0,0,1,0,11024.6,0.0615251,0.0612382,-5.6116,6,0.00541864,10,-0.000343645,-2.25091,0.591317,0.0997773,-21.898,0.0612382,
2,0,0,1,0,11024.7,0.0600256,0.0596695,-5.58449,6,0.0052781,10,-0.000333223,-2.25302,0.571205,0.10329,-22.5239,0.0596695,
2,0,0,1,0,11024.7,0.0585314,0.0582145,-5.5582,6,0.00513889,10,-0.000323568,-2.25507,0.543575,0.108541,-23.5246,0.0582145,
2,0,0,1,0,11024.7,0.0570305,0.0567048,-5.52504,6,0.00499994,10,-0.000313296,-2.25766,0.569056,0.10368,-22.3352,0.0567048,
2,0,0,1,0,11024.7,0.0555297,0.0552396,-5.48337,6,0.00486192,10,-0.0003029,-2.26095,0.561895,0.105002,-22.5007,0.0552396,
2,0,0,1,0,11024.8,0.0540355,0.0536882,-5.45391,6,0.00472525,10,-0.00029281,-2.26329,0.552303,0.106825,-22.7482,0.0536882,
2,0,0,1,0,11024.8,0.052536,0.0521963,-5.43419,6,0.00458872,10,-0.000283644,-2.26487,0.591282,0.0997831,-21.1062,0.0521963,
2,0,0,1,0,11024.8,0.0510364,0.0507278,-5.39534,6,0.00445301,10,-0.000273694,-2.26798,0.530277,0.111263,-23.4011,0.0507278,
2,0,0,1,0,11024.8,0.0495369,0.0492253,-5.34881,6,0.00431828,10,-0.000263297,-2.27174,0.51456,0.114661,-23.9811,0.0492253,
2,0,0,1,0,11024.9,0.0480427,0.0477182,-5.31658,6,0.00418499,10,-0.000253697,-2.27437,0.52757,0.111833,-23.207,0.0477182,
2,0,0,1,0,11024.9,0.0465432,0.0462392,-5.2884,6,0.00405199,10,-0.000244531,-2.27668,0.509679,0.115759,-23.8616,0.0462392,
2,0,0,1,0,11024.9,0.0450424,0.0447182,-5.25184,6,0.00391987,10,-0.000234853,-2.27969,0.491297,0.12009,-24.5727,0.0447182,
2,0,0,1,0,11024.9,0.0435482,0.04325,-5.19817,6,0.00378921,10,-0.000224821,-2.28415,0.467646,0.126164,-25.6481,0.04325,
2,0,0,1,0,11025,0.0420486,0.0417217,-5.1682,6,0.0036591,10,-0.000215626,-2.28666,0.459798,0.128317,-25.9152,0.0417217,
2,0,0,1,0,11025,0.0405491,0.0402115,-5.14475,6,0.00352985,10,-0.000206878,-2.28864,0.466595,0.126448,-25.3221,0.0402115,
2,0,0,1,0,11025,0.0390549,0.0387434,-5.09822,6,0.00340195,10,-0.000197522,-2.29258,0.451347,0.13072,-25.9771,0.0387434,
2,0,0,1,0,11025,0.0375541,0.0372129,-5.04768,6,0.00327458,10,-0.000187839,-2.29691,0.405621,0.145456,-28.6979,0.0372129,
2,0,0,1,0,11025.1,0.0360532,0.0357728,-5.00988,6,0.00314841,10,-0.000179217,-2.30017,0.341876,0.172577,-33.7684,0.0357728,
2,0,0,1,0,11025.1,0.034559,0.0342021,-4.97448,6,0.00302375,10,-0.000170138,-2.30325,0.406508,0.145138,-28.0948,0.0342021,
2,0,0,1,0,11025.1,0.0330595,0.0327481,-4.92585,6,0.00289968,10,-0.000161312,-2.30752,0.410894,0.143589,-27.5711,0.0327481,
2,0,0,1,0,11025.1,0.0315613,0.0312242,-4.87686,6,0.00277672,10,-0.000152276,-2.31186,0.370468,0.159258,-30.3044,0.0312242,
2,0,0,1,0,11025.2,0.0300618,0.0297488,-4.82267,6,0.00265504,10,-0.000143469,-2.31671,0.342704,0.17216,-32.4438,0.0297488,
2,0,0,1,0,11025.2,0.0285676,0.028272,-4.78583,6,0.00253499,10,-0.000135305,-2.32004,0.358855,0.164412,-30.6544,0.028272,
2,0,0,1,0,11025.2,0.0270667,0.0267417,-4.74217,6,0.00241551,10,-0.000126814,-2.32402,0.390016,0.151276,-27.9575,0.0267417,
2,0,0,1,0,11025.2,0.0255659,0.0252361,-4.68487,6,0.00229719,10,-0.000118228,-2.3293,0.338203,0.174451,-31.9262,0.0252361,
2,0,0,1,0,11025.3,0.0240717,0.023782,-4.64034,6,0.00218058,10,-0.000110356,-2.33345,0.318169,0.185436,-33.6028,0.023782,
2,0,0,1,0,11025.3,0.0225722,0.0222232,-4.60103,6,0.0020647,10,-0.00010225,-2.33714,0.359947,0.163913,-29.3842,0.0222232,
2,0,0,1,0,11025.3,0.0210726,0.0207388,-4.55605,6,0.0019499,10,-9.44871e-05,-2.34141,0.387227,0.152366,-27.0642,0.02073882,
2,0,0,1,0,11025.3,0.0195784,0.0192392,-4.50394,6,0.00183663,10,-8.66522e-05,-2.34641,0.35808,0.164768,-28.9904,0.0192392,
2,0,0,1,0,11025.4,0.0180789,0.0177345,-4.46104,6,0.00172398,10,-7.91145e-05,-2.35056,0.330115,0.178726,-31.1613,0.0177345,
2,0,0,1,0,11025.4,0.0165781,0.0162779,-4.42785,6,0.00161247,10,-7.2076e-05,-2.35381,0.385668,0.152981,-26.4408,0.0162779,
2,0,0,1,0,11025.4,0.0150839,0.0147784,-4.39468,6,0.00150234,10,-6.49464e-05,-2.35707,0.471627,0.125099,-21.4244,0.0147784,
2,0,0,1,0,11025.4,0.0135844,0.0132749,-4.35118,6,0.00139259,10,-5.77615e-05,-2.36139,0.416593,0.141625,-24.0512,0.0132749,
2,0,0,1,0,11025.5,0.0120848,0.0117631,-4.31674,6,0.00128376,10,-5.07784e-05,-2.36484,0.41899,0.140815,-23.7513,0.0117631,
2,0,0,1,0,11025.5,0.0105853,0.0102676,-4.28589,6,0.00117586,10,-4.40059e-05,-2.36796,0.454692,0.129758,-21.7195,0.01026762,
2,0,0,1,0,11025.5,0.00909108,0.00876476,-4.25508,6,0.00106908,10,-3.72947e-05,-2.37109,0.574269,0.102739,-17.0705,0.00876476,
2,0,0,1,0,11025.5,0.00759027,0.0072659,-4.22653,6,0.000962506,10,-3.07095e-05,-2.37402,0.638424,0.092415,-15.2681,0.0072659,
2,0,0,1,0,11025.6,0.00608945,0.00576654,-4.20712,6,0.000856616,10,-2.42606e-05,-2.37601,0.495112,0.119165,-19.5645,0.005766545,
2,0,0,1,0,11025.6,0.00459524,0.00431315,-4.18525,6,0.000751817,10,-1.80516e-05,-2.37828,0.657483,0.0897362,-14.6534,0.00431315,
2,0,0,1,0,11025.6,0.0030957,0.00277869,-4.17158,6,0.000647075,10,-1.15915e-05,-2.3797,9.49352,0.00621477,-1.01266,0.002778687,
2,0,0,1,0,11025.6,0.00159616,0.00119702,-4.17804,6,0.000542188,10,-5.0012e-06,-2.37903, , , ,0.00119702,
2,0,0,1,0,11025.7,0.000199195,-0.00016499,-4.14974,6,0.000444667,10,6.84666e-07,-2.38198, , , ,-0.00016499,