File: Figure_codes/Fig_3-5/rawdata_trumpetplot_data/after 10th/20221101_1-115_003_TrumpetPlot_ParaChange_from10_every3_03_CV_C01_8.csv
mode,ox/red,error,control changes,counter inc.,time/s,control/V,Ewe/V,<I>/mA,cycle number,(Q-Qo)/C,I Range,P/W,log(|I|),Tafel slope mV/dec,alpha_eff,dI/d(E-IR),E-IR/V,
2,0,0,1,0,16701.1,2.44065e-05,-0.000382585,-0.108935,9,0.0000000E+000,10,4.16768e-08,-3.96283, , , ,-0.000382585,
2,1,0,0,0,16701.3,0.00129787,0.000930198,0.150201,9,2.98837e-05,10,1.39717e-07,-3.82333, , , ,0.000930198,
2,1,0,0,0,16701.6,0.00279606,0.00250596,0.183179,9,8.70142e-05,10,4.5904e-07,-3.73712,0.021968,2.68572,16.763,0.00250596,
2,1,0,1,0,16701.9,0.00429469,0.00399085,0.192995,9,0.000148448,10,7.70213e-07,-3.71445,0.0822796,0.717067,5.45236,0.00399085,
2,1,0,1,0,16702.2,0.00579255,0.00548058,0.199624,9,0.000212967,10,1.09405e-06,-3.69979,0.0737502,0.799998,6.26598,0.00548058,
2,1,0,1,0,16702.5,0.00729041,0.00697215,0.210707,9,0.000280415,10,1.46908e-06,-3.67632,0.0858805,0.687001,5.60325,0.00697215,
2,1,0,1,0,16702.8,0.00878882,0.00847711,0.219586,9,0.000350376,10,1.86146e-06,-3.65839,0.101875,0.579141,4.8959,0.00847711,
2,1,0,1,0,16703.1,0.010287,0.0100158,0.226282,9,0.0004225,10,2.26639e-06,-3.64535,0.117995,0.500021,4.38139,0.0100158,
2,1,0,1,0,16703.4,0.0117852,0.011459,0.230703,9,0.000496479,10,2.64362e-06,-3.63695,0.12639,0.466811,4.20775,0.011459,
2,1,0,1,0,16703.7,0.0132836,0.0129183,0.237233,9,0.000572321,10,3.06464e-06,-3.62483,0.126885,0.464988,4.32659,0.0129183,
2,1,0,1,0,16704,0.0147815,0.0144099,0.243208,9,0.000650045,10,3.5046e-06,-3.61402,0.153331,0.384789,3.66107,0.0144099,
2,1,0,1,0,16704.3,0.0162793,0.0160067,0.248495,9,0.000729784,10,3.97759e-06,-3.60468,0.175687,0.335825,3.24429,0.0160067,
2,1,0,0,0,16704.6,0.017778,0.0174789,0.254465,9,0.000810904,10,4.44777e-06,-3.59437,0.172863,0.341311,3.4001,0.0174789,
2,1,0,0,0,16704.9,0.0192761,0.0189624,0.259032,9,0.00089333,10,4.91187e-06,-3.58665,0.168828,0.349467,3.52959,0.0189624,
2,1,0,1,0,16705.2,0.0207747,0.020444,0.265659,9,0.00097773,10,5.43113e-06,-3.57568,0.160078,0.36857,3.8027,0.020444,
2,1,0,1,0,16705.5,0.0222725,0.0219728,0.271538,9,0.00106379,10,5.96644e-06,-3.56617,0.147585,0.399769,4.21188,0.0219728,
2,1,0,1,0,16705.8,0.0237704,0.0234646,0.276591,9,0.00115149,10,6.49007e-06,-3.55816,0.19489,0.302734,3.26335,0.0234646,
2,1,0,1,0,16706.1,0.0252689,0.0249717,0.279855,9,0.00124052,10,6.98846e-06,-3.55307,0.178405,0.330709,3.65372,0.0249717,
2,1,0,1,0,16706.4,0.0267671,0.0264256,0.286539,9,0.00133134,10,7.57195e-06,-3.54282,0.152929,0.3858,4.31677,0.0264256,
2,1,0,1,0,16706.7,0.0282657,0.0279486,0.293332,9,0.00142396,10,8.19825e-06,-3.53264,0.18673,0.315964,3.61378,0.0279486,
2,1,0,1,0,16707,0.0297635,0.0294637,0.29831,9,0.00151829,10,8.78932e-06,-3.52533,0.193029,0.305654,3.5466,0.0294637,
2,1,0,1,0,16707.3,0.0312613,0.0309851,0.301341,9,0.00161402,10,9.33707e-06,-3.52094,0.189963,0.310587,3.67936,0.0309851,
2,1,0,0,0,16707.6,0.0327599,0.0324275,0.309479,9,0.00171129,10,1.00356e-05,-3.50937,0.205201,0.287523,3.46722,0.0324275,
2,1,0,0,0,16707.9,0.034258,0.0339099,0.316122,9,0.00181043,10,1.07197e-05,-3.50015,0.196953,0.299563,3.67844,0.0339099,
2,1,0,1,0,16708.2,0.0357567,0.0354446,0.319652,9,0.00191122,10,1.133e-05,-3.49532,0.245547,0.24028,2.9988,0.0354446,
2,1,0,1,0,16708.5,0.0372545,0.036948,0.325299,9,0.00201364,10,1.20191e-05,-3.48772,0.23041,0.256065,3.26109,0.036948,
2,1,0,1,0,16708.8,0.0387524,0.0383879,0.331773,9,0.00211738,10,1.27361e-05,-3.47916,0.200828,0.293783,3.81959,0.0383879,
2,1,0,1,0,16709.1,0.0402508,0.0398938,0.337158,9,0.0022229,10,1.34505e-05,-3.47217,0.214113,0.275556,3.6304,0.0398938,
2,1,0,1,0,16709.4,0.041749,0.0414589,0.34213,9,0.00233048,10,1.41843e-05,-3.46581,0.227861,0.25893,3.44289,0.0414589,
2,1,0,1,0,16709.7,0.0432472,0.04297,0.347275,9,0.00243935,10,1.49224e-05,-3.45933,0.227556,0.259277,3.51442,0.04297,
2,1,0,1,0,16710,0.0447456,0.0444061,0.352856,9,0.00254947,10,1.5669e-05,-3.4524,0.214633,0.274888,3.77267,0.0444061,
2,1,0,1,0,16710.3,0.0462435,0.0459655,0.357702,9,0.00266138,10,1.6442e-05,-3.44648,0.217989,0.270656,3.76531,0.0459655,
2,1,0,1,0,16710.6,0.0477413,0.047418,0.363268,9,0.00277496,10,1.72255e-05,-3.43977,0.248506,0.237419,3.35901,0.047418,
2,1,0,0,0,16710.9,0.0492399,0.0489592,0.366108,9,0.00289003,10,1.79243e-05,-3.43639,0.256323,0.230178,3.30434,0.0489592,
2,1,0,0,0,16711.2,0.0507381,0.0504066,0.370754,9,0.0030061,10,1.86885e-05,-3.43091,0.265992,0.221811,3.22869,0.0504066,
2,1,0,1,0,16711.5,0.0522367,0.0519286,0.377158,9,0.00312396,10,1.95853e-05,-3.42348,0.222851,0.264751,3.88351,0.0519286,
2,1,0,1,0,16711.8,0.0537345,0.0534098,0.383186,9,0.00324347,10,2.04659e-05,-3.41659,0.285826,0.206419,3.07146,0.0534098,
2,1,0,1,0,16712.1,0.0552323,0.0549129,0.386781,9,0.00336441,10,2.12392e-05,-3.41254,0.323192,0.182554,2.74502,0.0549129,
2,1,0,1,0,16712.4,0.0567309,0.0564244,0.389254,9,0.00348664,10,2.19634e-05,-3.40977,0.346121,0.17046,2.59845,0.0564244,
2,1,0,1,0,16712.7,0.0582291,0.0578687,0.395498,9,0.00360989,10,2.28869e-05,-3.40286,0.345617,0.170709,2.64056,0.0578687,
2,1,0,1,0,16713,0.0597277,0.0593854,0.399455,9,0.00373478,10,2.37218e-05,-3.39853,0.319537,0.184642,2.87823,0.0593854,
2,1,0,1,0,16713.3,0.0612255,0.0609132,0.403083,9,0.00386108,10,2.45531e-05,-3.39461,0.474725,0.124282,1.95682,0.0609132,
2,1,0,1,0,16713.6,0.0627233,0.0624208,0.408056,9,0.00398868,10,2.54712e-05,-3.38928,0.352777,0.167244,2.6669,0.0624208,
2,1,0,0,0,16713.9,0.0642218,0.0639215,0.41276,9,0.00411713,10,2.63843e-05,-3.3843,0.284063,0.207701,3.3577,0.0639215,
2,1,0,0,0,16714.2,0.06572,0.065387,0.416961,9,0.00424719,10,2.72638e-05,-3.3799,0.361951,0.163005,2.65151,0.065387,
2,1,0,1,0,16714.5,0.0672187,0.066909,0.422499,9,0.00437881,10,2.8269e-05,-3.37417,0.427218,0.138103,2.26305,0.066909,
2,1,0,1,0,16714.8,0.0687165,0.0684241,0.425266,9,0.00451138,10,2.90984e-05,-3.37134,0.451867,0.130569,2.15941,0.0684241,
2,1,0,1,0,16715.1,0.0702144,0.0698894,0.426756,9,0.00464436,10,2.98257e-05,-3.36982,0.416274,0.141734,2.36809,0.0698894,
2,1,0,1,0,16715.4,0.0717128,0.0714016,0.430643,9,0.00477874,10,3.07486e-05,-3.36588,0.321661,0.183423,3.08011,0.0714016,
2,1,0,1,0,16715.7,0.073211,0.0729106,0.434216,9,0.00491435,10,3.1659e-05,-3.36229,0.405938,0.145342,2.46865,0.0729106,
2,1,0,1,0,16716,0.0747092,0.0743973,0.438365,9,0.00505094,10,3.26132e-05,-3.35816,0.463503,0.127292,2.17623,0.0743973,
2,1,0,1,0,16716.3,0.0762076,0.0759055,0.439351,9,0.00518832,10,3.33491e-05,-3.35719,0.475595,0.124055,2.13646,0.0759055,
2,1,0,1,0,16716.6,0.0777054,0.0774024,0.445431,9,0.00532684,10,3.44775e-05,-3.35122,0.34316,0.171931,2.98301,0.0774024,
2,1,0,1,0,16716.9,0.0792033,0.078894,0.450315,9,0.00546643,10,3.55272e-05,-3.34648,0.492372,0.119828,2.09561,0.078894,
2,1,0,0,0,16717.2,0.0807019,0.0803706,0.453141,9,0.00560723,10,3.64192e-05,-3.34377,0.490731,0.120229,2.11233,0.0803706,
2,1,0,0,0,16717.5,0.0822001,0.0818827,0.453276,9,0.00574869,10,3.71155e-05,-3.34364,0.421048,0.140127,2.4876,0.0818827,
2,1,0,1,0,16717.8,0.0836986,0.0833688,0.458701,9,0.00589109,10,3.82414e-05,-3.33847,0.360432,0.163693,2.93712,0.0833688,
2,1,0,1,0,16718.1,0.0851965,0.0848612,0.46388,9,0.00603512,10,3.93654e-05,-3.33359,0.354967,0.166213,3.00906,0.0848612,
2,1,0,1,0,16718.4,0.0866944,0.0863309,0.467904,9,0.00618045,10,4.03946e-05,-3.32984,0.446791,0.132053,2.41279,0.0863309,
2,1,0,1,0,16718.7,0.0881929,0.0878697,0.473314,9,0.00632726,10,4.159e-05,-3.32485,0.304153,0.193982,3.58549,0.0878697,
2,1,0,1,0,16719,0.0896911,0.0893702,0.478863,9,0.00647517,10,4.27961e-05,-3.31979,0.245434,0.24039,4.49414,0.0893702,
2,1,0,1,0,16719.3,0.0911897,0.0908744,0.485751,9,0.00662529,10,4.41423e-05,-3.31359,0.221072,0.266881,5.03504,0.0908744,
2,1,0,1,0,16719.6,0.0926875,0.0923871,0.492652,9,0.0067775,10,4.55147e-05,-3.30746,0.25254,0.233626,4.47892,0.09238711,
2,1,0,1,0,16719.9,0.0941853,0.0938458,0.499747,9,0.00693161,10,4.68992e-05,-3.30125,0.245204,0.240616,4.69231,0.0938458,
2,1,0,0,0,16720.2,0.0956838,0.0953446,0.505665,9,0.0070875,10,4.82124e-05,-3.29614,0.230237,0.256258,5.07668,0.0953446,
2,1,0,0,0,16720.5,0.097182,0.0968302,0.513484,9,0.00724607,10,4.97208e-05,-3.28947,0.174364,0.338373,6.78251,0.0968302,
2,1,0,1,0,16720.8,0.0986807,0.0983502,0.523179,9,0.00740739,10,5.14548e-05,-3.28135,0.204457,0.288569,5.90461,0.09835019,
2,1,0,1,0,16721.1,0.100179,0.0998355,0.532547,9,0.0075713,10,5.3167e-05,-3.27364,0.211109,0.279476,5.80721,0.0998355,
2,1,0,1,0,16721.4,0.101676,0.10131,0.539557,9,0.00773756,10,5.46626e-05,-3.26796,0.19183,0.307563,6.51356,0.10131,
2,1,0,1,0,16721.7,0.103175,0.102833,0.551088,9,0.00790671,10,5.66701e-05,-3.25878,0.186153,0.316943,6.8229,0.102833,
2,1,0,1,0,16722,0.104673,0.104346,0.562948,9,0.00807907,10,5.87415e-05,-3.24953,0.206899,0.285164,6.22689,0.104346,
2,1,0,1,0,16722.3,0.106171,0.105881,0.569836,9,0.00825436,10,6.03347e-05,-3.24425,0.240324,0.245502,5.44105,0.105881,
2,1,0,1,0,16722.6,0.10767,0.107348,0.576114,9,0.00843195,10,6.18449e-05,-3.23949,0.233565,0.252607,5.6985,0.1073484,
2,1,0,1,0,16722.9,0.109167,0.108871,0.586168,9,0.00861177,10,6.38166e-05,-3.23198,0.244003,0.2418,5.53451,0.108871,
2,1,0,1,0,16723.2,0.110665,0.110353,0.593515,9,0.00879442,10,6.54962e-05,-3.22657,0.263978,0.223504,5.1807,0.1103531,
2,1,0,0,0,16723.5,0.112164,0.11185,0.601014,9,0.00897945,10,6.72233e-05,-3.22112,0.35218,0.167528,3.92283,0.11185,
2,1,0,0,0,16723.8,0.113662,0.113346,0.609223,9,0.00916656,10,6.90531e-05,-3.21522,0.352149,0.167543,3.96653,0.113346,
2,1,0,1,0,16724.1,0.115161,0.114877,0.614421,9,0.00935503,10,7.05832e-05,-3.21153,0.361902,0.163028,3.90292,0.114877,
2,1,0,1,0,16724.4,0.116658,0.116363,0.622061,9,0.00954562,10,7.23849e-05,-3.20617,0.325551,0.181231,4.37359,0.116363,
2,1,0,1,0,16724.7,0.118156,0.117839,0.625614,9,0.00973851,10,7.3722e-05,-3.20369,0.358626,0.164517,4.01388,0.117839,
2,1,0,1,0,16725,0.119655,0.119311,0.63084,9,0.00993308,10,7.5266e-05,-3.20008,0.438379,0.134587,3.3216,0.1193108,
2,1,0,1,0,16725.3,0.121153,0.120836,0.636424,9,0.0101287,10,7.69027e-05,-3.19625,0.403499,0.146221,3.64129,0.120836,
2,1,0,1,0,16725.6,0.122652,0.122354,0.643584,9,0.0103264,10,7.8745e-05,-3.19139,0.29678,0.1988,4.97761,0.122354,
2,1,0,1,0,16725.9,0.124149,0.123793,0.650367,9,0.0105261,10,8.05111e-05,-3.18684,0.333955,0.176671,4.47947,0.123793,
2,1,0,1,0,16726.2,0.125647,0.125324,0.654509,9,0.0107275,10,8.20257e-05,-3.18408,0.44123,0.133717,3.41445,0.125324,
2,1,0,0,0,16726.5,0.127146,0.12681,0.65765,9,0.0109306,10,8.33966e-05,-3.18201,0.445328,0.132487,3.41301,0.12681,
2,1,0,0,0,16726.8,0.128644,0.128274,0.665994,9,0.011135,10,8.543e-05,-3.17653,0.55613,0.10609,2.75354,0.128274,
2,1,0,1,0,16727.1,0.130143,0.129816,0.671303,9,0.0113409,10,8.71457e-05,-3.17308,0.834377,0.0707114,1.84112,0.129816,
2,1,0,1,0,16727.4,0.131641,0.131324,0.671556,9,0.011548,10,8.81917e-05,-3.17292,245.567,0.000240261,0.00625562,0.131324,
2,1,0,1,0,16727.7,0.133138,0.132859,0.670746,9,0.0117549,10,8.91149e-05,-3.17344,-0.88529,-0.0666448,-1.74099,0.1328593,
2,1,0,1,0,16728,0.134637,0.134306,0.666293,9,0.0119611,10,8.94871e-05,-3.17633,-0.460943,-0.127999,-3.323,0.134306,
2,1,0,1,0,16728.3,0.136135,0.135819,0.660686,9,0.0121661,10,8.97339e-05,-3.18,-0.302573,-0.194994,-5.01062,0.1358192,
2,1,0,1,0,16728.6,0.137633,0.137321,0.651035,9,0.0123687,10,8.94006e-05,-3.1864,-0.168431,-0.350292,-8.847,0.137321,
2,1,0,1,0,16728.9,0.139132,0.138782,0.638154,9,0.0125677,10,8.85644e-05,-3.19507,-0.139978,-0.421494,-10.4121,0.138782,
2,1,0,1,0,16729.2,0.140629,0.140329,0.621393,9,0.0127617,10,8.71996e-05,-3.20663,-0.118693,-0.497083,-11.9719,0.140329,
2,1,0,1,0,16729.5,0.142127,0.141829,0.600222,9,0.0129503,10,8.51288e-05,-3.22169,-0.100991,-0.58421,-13.6165,0.141829,
2,1,0,0,0,16729.8,0.143626,0.143321,0.578691,9,0.0131328,10,8.29383e-05,-3.23755,-0.0862562,-0.684009,-15.3629,0.143321,
2,1,0,0,0,16730.1,0.145124,0.144841,0.552746,9,0.0133079,10,8.00604e-05,-3.25747,-0.0776489,-0.75983,-16.4531,0.144841,
2,1,0,1,0,16730.4,0.146623,0.14631,0.525942,9,0.0134752,10,7.69505e-05,-3.27906,-0.074511,-0.79183,-16.2857,0.14631,
2,1,0,1,0,16730.7,0.14812,0.147824,0.503999,9,0.0136354,10,7.45032e-05,-3.29757,-0.0744882,-0.792071,-15.5532,0.147824,
2,1,0,1,0,16731,0.149618,0.149286,0.479841,9,0.0137884,10,7.16334e-05,-3.3189,-0.0752207,-0.784359,-14.7218,0.149286,
2,1,0,1,0,16731.3,0.151117,0.150744,0.45817,9,0.0139345,10,6.90666e-05,-3.33897,-0.0768507,-0.767722,-13.7649,0.150744,
2,1,0,1,0,16731.6,0.152615,0.152277,0.435912,9,0.0140743,10,6.63793e-05,-3.3606,-0.0849479,-0.694543,-11.9249,0.152277,
2,1,0,1,0,16731.9,0.154114,0.153801,0.420121,9,0.0142084,10,6.46152e-05,-3.37663,-0.0886321,-0.665673,-10.9939,0.1538012,
2,1,0,1,0,16732.2,0.155612,0.155258,0.407091,9,0.0143379,10,6.3204e-05,-3.39031,-0.0997378,-0.591551,-9.41721,0.155258,
2,1,0,1,0,16732.5,0.157109,0.156829,0.392133,9,0.0144632,10,6.14976e-05,-3.40657,-0.0981274,-0.601259,-9.23126,0.156829,
2,1,0,0,0,16732.8,0.158608,0.158331,0.380943,9,0.0145848,10,6.03149e-05,-3.41914,-0.127281,-0.463542,-6.93325,0.158331,
2,1,0,0,0,16733.1,0.160106,0.159747,0.371423,9,0.0147028,10,5.93338e-05,-3.43013,-0.136877,-0.431043,-6.27345,0.159747,
2,1,0,1,0,16733.4,0.161605,0.1613,0.363824,9,0.0148184,10,5.86848e-05,-3.43911,-0.157857,-0.373755,-5.30308,0.1613,
2,1,0,1,0,16733.7,0.163102,0.162748,0.357107,9,0.0149316,10,5.81187e-05,-3.4472,-0.178771,-0.330031,-4.58099,0.162748,
2,1,0,1,0,16734,0.1646,0.164289,0.348611,9,0.0150427,10,5.72729e-05,-3.45766,-0.190867,-0.309115,-4.21555,0.164289,
2,1,0,1,0,16734.3,0.166099,0.165775,0.344028,9,0.0151515,10,5.70311e-05,-3.46341,-0.203223,-0.290321,-3.89296,0.165775,
2,1,0,1,0,16734.6,0.167597,0.167301,0.338078,9,0.0152589,10,5.65607e-05,-3.47098,-0.302424,-0.195091,-2.57581,0.167301,
2,1,0,1,0,16734.9,0.169095,0.168804,0.333267,9,0.0153649,10,5.6257e-05,-3.47721,-0.272299,-0.216674,-2.82397,0.168804,
2,1,0,1,0,16735.2,0.170594,0.170263,0.328453,9,0.0154696,10,5.59232e-05,-3.48353,-0.258002,-0.228681,-2.95286,0.170263,
2,1,0,1,0,16735.5,0.172091,0.171726,0.323596,9,0.0155727,10,5.55697e-05,-3.49,-0.334569,-0.176346,-2.24132,0.171726,
2,1,0,1,0,16735.8,0.173589,0.173246,0.32263,9,0.015675,10,5.58944e-05,-3.49129,-0.559838,-0.105388,-1.32668,0.173246,
2,1,0,0,0,16736.1,0.175088,0.174791,0.318672,9,0.0157765,10,5.5701e-05,-3.49666,-0.359944,-0.163915,-2.03572,0.174791,
2,1,0,0,0,16736.4,0.176586,0.176253,0.31678,9,0.0158771,10,5.58332e-05,-3.49924,-0.378184,-0.156009,-1.92161,0.176253,
2,1,0,1,0,16736.7,0.178085,0.177791,0.312242,9,0.0159769,10,5.55137e-05,-3.50551,-0.426669,-0.138281,-1.69157,0.177791,
2,1,0,1,0,16737,0.179582,0.179285,0.311667,9,0.0160758,10,5.58773e-05,-3.50631,-0.53009,-0.111302,-1.35622,0.179285,
2,1,0,1,0,16737.3,0.18108,0.180771,0.30805,9,0.0161742,10,5.56866e-05,-3.51138,-0.506086,-0.116581,-1.41072,0.180771,
2,1,0,1,0,16737.6,0.182579,0.182283,0.307222,9,0.0162722,10,5.60013e-05,-3.51255,-0.489294,-0.120582,-1.44762,0.182283,
2,1,0,1,0,16737.9,0.184077,0.183769,0.305355,9,0.0163694,10,5.61146e-05,-3.5152,-0.704263,-0.0837756,-1.00129,0.183769,
2,1,0,1,0,16738.2,0.185576,0.185236,0.304322,9,0.016466,10,5.63714e-05,-3.51667,-0.531208,-0.111068,-1.31802,0.185236,
2,1,0,1,0,16738.5,0.187074,0.186796,0.3038,9,0.0165623,10,5.67487e-05,-3.51741,-0.921742,-0.0640092,-0.755391,0.186796,
2,1,0,1,0,16738.8,0.188571,0.188253,0.301193,9,0.0166581,10,5.67004e-05,-3.52116,-0.983372,-0.0599977,-0.703115,0.188253,
2,1,0,0,0,16739.1,0.19007,0.189764,0.300286,9,0.0167536,10,5.69835e-05,-3.52247,-0.858844,-0.068697,-0.803462,0.189764,
2,1,0,0,0,16739.4,0.191568,0.19127,0.298066,9,0.0168484,10,5.7011e-05,-3.52569,-1.05459,-0.0559458,-0.650476,0.19127,
2,1,0,1,0,16739.7,0.193067,0.192733,0.296603,9,0.016943,10,5.71651e-05,-3.52782,-2.38666,-0.0247207,-0.285656,0.192733,
2,1,0,1,0,16740,0.194564,0.194203,0.296328,9,0.0170374,10,5.75478e-05,-3.52823,-2.28541,-0.0258159,-0.297989,0.194203,
2,1,0,1,0,16740.3,0.196062,0.195795,0.295037,9,0.0171314,10,5.77666e-05,-3.53012,-0.761031,-0.0775264,-0.893584,0.195795,
2,1,0,1,0,16740.6,0.197561,0.197234,0.292228,9,0.017225,10,5.76372e-05,-3.53428,-0.811065,-0.0727438,-0.83337,0.197234,
2,1,0,1,0,16740.9,0.199059,0.198702,0.292609,9,0.0173183,10,5.81421e-05,-3.53371,-0.972974,-0.0606388,-0.691885,0.198702,
2,1,0,1,0,16741.2,0.200557,0.200233,0.291844,9,0.0174114,10,5.84367e-05,-3.53485,-1.13098,-0.052167,-0.593337,0.200233,
2,1,0,1,0,16741.5,0.202056,0.201754,0.291087,9,0.0175041,10,5.87278e-05,-3.53598,-1.12421,-0.0524811,-0.594462,0.2017535,
2,1,0,1,0,16741.8,0.203553,0.203229,0.289069,9,0.0175965,10,5.87472e-05,-3.539,-1.36925,-0.0430893,-0.488033,0.203229,
2,1,0,1,0,16742.1,0.205051,0.204718,0.288056,9,0.0176886,10,5.89701e-05,-3.54052,2.40925,0.024489,0.27841,0.204718,
2,1,0,0,0,16742.4,0.20655,0.206188,0.287402,9,0.0177806,10,5.92587e-05,-3.54151,-0.798678,-0.0738721,-0.830624,0.206188,
2,1,0,0,0,16742.7,0.208048,0.207744,0.288344,9,0.0178727,10,5.99018e-05,-3.54009,-0.734509,-0.0803258,-0.89902,0.207744,
2,1,0,1,0,16743,0.209547,0.209268,0.287175,9,0.0179642,10,6.00963e-05,-3.54185,-1.01379,-0.0581974,-0.652332,0.209268,
2,1,0,1,0,16743.3,0.211044,0.210769,0.287085,9,0.0180552,10,6.05086e-05,-3.54199,-1.13679,-0.0519007,-0.578784,0.210769,
2,1,0,1,0,16743.6,0.212542,0.212242,0.285498,9,0.0181462,10,6.05947e-05,-3.5444,-1.98366,-0.029743,-0.330794,0.2122422,
2,1,0,1,0,16743.9,0.214041,0.213738,0.284994,9,0.0182371,10,6.09141e-05,-3.54516,-6.36238,-0.00927326,-0.103024,0.213738,
2,1,0,1,0,16744.2,0.215539,0.215277,0.283924,9,0.0183277,10,6.11222e-05,-3.5468,-1.31019,-0.0450317,-0.499362,0.215277,
2,1,0,1,0,16744.5,0.217038,0.216709,0.284176,9,0.018418,10,6.15836e-05,-3.54641,-1.36167,-0.0433291,-0.479261,0.216709,
2,1,0,1,0,16744.8,0.218535,0.218247,0.282239,9,0.0185083,10,6.15977e-05,-3.54938,1.91434,0.03082,0.339488,0.218247,
2,1,0,1,0,16745.1,0.220033,0.219723,0.28263,9,0.0185984,10,6.21002e-05,-3.54878,-2.4746,-0.0238423,-0.263319,0.219723,
2,1,0,0,0,16745.4,0.221532,0.221256,0.281392,9,0.0186883,10,6.22597e-05,-3.55069,-1.35713,-0.043474,-0.478853,0.221256,
2,1,0,0,0,16745.7,0.22303,0.222698,0.279931,9,0.0187779,10,6.23402e-05,-3.55295,-1.61859,-0.0364515,-0.40055,0.222698,
2,1,0,1,0,16746,0.224529,0.224227,0.281016,9,0.0188674,10,6.30112e-05,-3.55127,-2.22761,-0.0264858,-0.290209,0.224227,
2,1,0,1,0,16746.3,0.226026,0.225714,0.2797,9,0.0189568,10,6.31323e-05,-3.55331,-37.0582,-0.00159209,-0.0173573,0.225714,
2,1,0,1,0,16746.6,0.227524,0.227254,0.279864,9,0.019046,10,6.36001e-05,-3.55305,-1.33627,-0.0441526,-0.480969,0.227254,
2,1,0,1,0,16746.9,0.229023,0.228707,0.27873,9,0.0191351,10,6.37473e-05,-3.55482,-1.50454,-0.0392145,-0.42789,0.228707,
2,1,0,1,0,16747.2,0.230521,0.230229,0.278418,9,0.0192239,10,6.40999e-05,-3.5553,-1.351,-0.0436713,-0.475798,0.230229,
2,1,0,1,0,16747.5,0.232019,0.231755,0.276897,9,0.0193126,10,6.41724e-05,-3.55768,-4.0934,-0.0144134,-0.156741,0.231755,
2,1,0,1,0,16747.8,0.233518,0.233185,0.278548,9,0.0194013,10,6.49531e-05,-3.5551,-1.27567,-0.0462504,-0.500622,0.233185,
2,1,0,1,0,16748.1,0.235015,0.234699,0.27775,9,0.0194898,10,6.51876e-05,-3.55635,-4.92963,-0.0119685,-0.12958,0.2346988,
2,1,0,1,0,16748.4,0.236513,0.236186,0.277429,9,0.0195781,10,6.55249e-05,-3.55685,-1.78842,-0.0329899,-0.356412,0.236186,
2,1,0,0,0,16748.7,0.238012,0.237756,0.277449,9,0.0196665,10,6.59652e-05,-3.55682,-4.26063,-0.0138477,-0.149766,0.237756,
2,1,0,0,0,16749,0.23951,0.239199,0.276206,9,0.0197547,10,6.60684e-05,-3.55877,-1.40231,-0.0420736,-0.454319,0.2391993,
2,1,0,1,0,16749.3,0.241009,0.240713,0.276714,9,0.0198429,10,6.66086e-05,-3.55797,-1.75791,-0.0335626,-0.36195,0.240713,
2,1,0,1,0,16749.6,0.242506,0.242163,0.274542,9,0.0199307,10,6.6484e-05,-3.56139,-1.67521,-0.0352195,-0.380204,0.242163,
2,1,0,1,0,16749.9,0.244004,0.243713,0.275317,9,0.0200184,10,6.70983e-05,-3.56017,356.302,0.00016559,0.00177629,0.243713,
2,1,0,1,0,16750.2,0.245503,0.245215,0.274512,9,0.0201063,10,6.73144e-05,-3.56144,-1.89307,-0.0311663,-0.333828,0.245215,
2,1,0,1,0,16750.5,0.247001,0.246707,0.274585,9,0.0201939,10,6.77421e-05,-3.56132,-5.01516,-0.0117643,-0.126096,0.246707,
2,1,0,1,0,16750.8,0.2485,0.248189,0.272275,9,0.0202812,10,6.75755e-05,-3.56499,-1.72725,-0.0341584,-0.365289,0.248189,
2,1,0,1,0,16751.1,0.249997,0.249691,0.274685,9,0.0203685,10,6.85864e-05,-3.56117,-1.13352,-0.0520502,-0.555806,0.249691,
2,1,0,1,0,16751.4,0.251495,0.251183,0.273401,9,0.0204558,10,6.86736e-05,-3.5632,-4.88949,-0.0120667,-0.128452,0.251183,
2,1,0,0,0,16751.7,0.252994,0.252687,0.27253,9,0.0205429,10,6.88647e-05,-3.56459,-0.96723,-0.0609989,-0.646503,0.252687,
2,1,0,0,0,16752,0.254492,0.254192,0.272236,9,0.0206299,10,6.92002e-05,-3.56506,-5.76761,-0.0102295,-0.109155,0.254192,
2,1,0,1,0,16752.3,0.255991,0.255713,0.271957,9,0.0207167,10,6.95429e-05,-3.5655,-5.42519,-0.0108752,-0.116042,0.255713,
2,1,0,1,0,16752.6,0.257488,0.257214,0.272074,9,0.0208035,10,6.99811e-05,-3.56531,-1.36901,-0.0430968,-0.456909,0.257214,
2,1,0,1,0,16752.9,0.258986,0.258698,0.271448,9,0.0208903,10,7.0223e-05,-3.56631,-1.26198,-0.0467518,-0.493323,0.258698,
2,1,0,1,0,16753.2,0.260485,0.260192,0.271623,9,0.0209769,10,7.06742e-05,-3.56603,-1.53811,-0.0383587,-0.404888,0.260192,
2,1,0,1,0,16753.4,0.261983,0.261669,0.270922,9,0.0210631,10,7.0892e-05,-3.56716,-2.34484,-0.0251617,-0.265672,0.261669,
2,1,0,1,0,16753.7,0.263481,0.263192,0.269463,9,0.0211493,10,7.09206e-05,-3.5695,2.83175,0.0208352,0.218564,0.263192,
2,1,0,1,0,16754,0.26498,0.264654,0.269925,9,0.0212355,10,7.14367e-05,-3.56876,-2.54309,-0.0232001,-0.244736,0.264654,
2,1,0,1,0,16754.3,0.266477,0.266173,0.268771,9,0.0213216,10,7.15395e-05,-3.57062,-7.5348,-0.00783033,-0.0823882,0.266173,
2,1,0,0,0,16754.6,0.267976,0.26766,0.267555,9,0.0214074,10,7.16137e-05,-3.57259,105.216,0.000560749,0.00587519,0.26766,
2,1,0,0,0,16754.9,0.269474,0.269176,0.268294,9,0.0214931,10,7.22183e-05,-3.57139,2.62296,0.0224937,0.235309,0.269176,
2,1,0,0,0,16755.2,0.270972,0.270688,0.27002,9,0.0215789,10,7.30911e-05,-3.5686,-12.9525,-0.0045551,-0.0476174,0.270688,
2,1,0,1,0,16755.5,0.27247,0.27216,0.267901,9,0.0216647,10,7.29121e-05,-3.57202,-1.4014,-0.0421007,-0.439678,0.27216,
2,1,0,1,0,16755.8,0.273968,0.273682,0.266488,9,0.0217501,10,7.29331e-05,-3.57432,-1.69979,-0.0347102,-0.362136,0.273682,
2,1,0,1,0,16756.1,0.275466,0.27521,0.266625,9,0.0218355,10,7.33779e-05,-3.5741,-4.47597,-0.0131815,-0.136992,0.27521,
2,1,0,1,0,16756.4,0.276965,0.276688,0.266245,9,0.0219208,10,7.36667e-05,-3.57472,8.49011,0.00694927,0.0723908,0.276688,
2,1,0,1,0,16756.7,0.278463,0.278199,0.2657,9,0.0220059,10,7.39175e-05,-3.57561,-0.871696,-0.0676841,-0.701119,0.278199,
2,1,0,1,0,16757,0.279962,0.27967,0.264655,9,0.0220909,10,7.40161e-05,-3.57732,-16.2724,-0.00362578,-0.0375478,0.27967,
2,1,0,1,0,16757.3,0.281459,0.281139,0.265667,9,0.0221756,10,7.46895e-05,-3.57566,-7.47617,-0.00789175,-0.0817781,0.281139,
2,1,0,1,0,16757.6,0.282957,0.282646,0.26449,9,0.0222602,10,7.47569e-05,-3.57759,-22.3612,-0.0026385,-0.0272758,0.282646,
2,1,0,0,0,16757.9,0.284456,0.284199,0.265282,9,0.022345,10,7.53928e-05,-3.57629,7.47882,0.00788895,0.0812665,0.284199,
2,1,0,0,0,16758.2,0.285954,0.285622,0.264025,9,0.0224296,10,7.54112e-05,-3.57836,-0.669282,-0.0881541,-0.909638,0.285622,
2,1,0,0,0,16758.5,0.287452,0.287136,0.263712,9,0.0225139,10,7.57211e-05,-3.57887,-2.63562,-0.0223856,-0.230495,0.287136,
2,1,0,1,0,16758.8,0.28895,0.288648,0.263724,9,0.0225982,10,7.61235e-05,-3.57885,2.70045,0.0218482,0.223472,0.2886484,
2,1,0,1,0,16759.1,0.290448,0.290117,0.263052,9,0.0226824,10,7.63158e-05,-3.57996,7.42997,0.00794081,0.0815615,0.290117,
2,1,0,1,0,16759.4,0.291947,0.291645,0.262574,9,0.0227665,10,7.65785e-05,-3.58075,-5.0404,-0.0117054,-0.11996,0.2916449,
2,1,0,1,0,16759.7,0.293445,0.293171,0.260328,9,0.0228503,10,7.63205e-05,-3.58448,-1.18834,-0.0496493,-0.507646,0.293171,
2,1,0,1,0,16760,0.294943,0.294659,0.261008,9,0.022934,10,7.69082e-05,-3.58335,21.0008,0.00280942,0.0286876,0.294659,
2,1,0,1,0,16760.3,0.296442,0.296147,0.262742,9,0.0230178,10,7.78101e-05,-3.58047,274.225,0.000215152,0.00219765,0.296147,
2,1,0,1,0,16760.6,0.297939,0.297677,0.26154,9,0.0231016,10,7.78546e-05,-3.58246,-5.71144,-0.0103301,-0.105501,0.297677,
2,1,0,1,0,16760.9,0.299437,0.29913,0.26093,9,0.0231851,10,7.80519e-05,-3.58348,-0.00222482,-26.5189,-123.042,0.29913,
2,1,0,1,0,16761.1,0.299737,0.299451,0.0912972,9,0.0232223,10,2.7339e-05,-4.03954,0.000774298,76.198,228.163,0.2994507,
2,1,0,1,0,16761.4,0.29824,0.297986,0.018106,9,0.0232289,10,5.39532e-06,-4.74218,0.00214063,27.5619,68.9573,0.297986,
2,1,0,0,0,16761.7,0.296741,0.296439,0.000614616,9,0.0232262,10,1.82196e-07,-6.2114,0.0158378,3.72528,10.2851,0.296439,
2,0,0,0,0,16762,0.295243,0.294971,-0.0108899,9,0.0232194,10,-3.21221e-06,-4.96298,-0.0062972,-9.36924,6.73203,0.294971,
2,0,0,1,0,16762.3,0.293744,0.293441,-0.0197025,9,0.0232098,10,-5.78152e-06,-4.70548,-0.00690007,-8.55064,5.2296,0.293441,
2,0,0,1,0,16762.6,0.292246,0.291921,-0.0271319,9,0.023198,10,-7.92035e-06,-4.56652,-0.0111189,-5.30628,4.95362,0.291921,
2,0,0,1,0,16762.9,0.290749,0.29041,-0.0335339,9,0.0231839,10,-9.73858e-06,-4.47452,-0.0169939,-3.47183,4.29288,0.29041,
2,0,0,1,0,16763.2,0.28925,0.288926,-0.0383203,9,0.023168,10,-1.10717e-05,-4.41657,-0.0230355,-2.56126,3.78838,0.288926,
2,0,0,1,0,16763.5,0.287752,0.287441,-0.0431612,9,0.0231505,10,-1.24063e-05,-4.36491,-0.0300343,-1.96442,3.31034,0.2874414,
2,0,0,1,0,16763.8,0.286253,0.285971,-0.0468948,9,0.0231317,10,-1.34106e-05,-4.32888,-0.0388576,-1.51836,2.83487,0.285971,
2,0,0,1,0,16764.1,0.284755,0.284456,-0.0524071,9,0.0231114,10,-1.49075e-05,-4.28061,-0.0357526,-1.65023,3.29362,0.284456,
2,0,0,1,0,16764.4,0.283257,0.28295,-0.057569,9,0.0230897,10,-1.62891e-05,-4.23981,-0.0459609,-1.2837,2.83709,0.28295,
2,0,0,0,0,16764.7,0.281759,0.281435,-0.0610157,9,0.0230669,10,-1.7172e-05,-4.21456,-0.0591693,-0.99714,2.3256,0.281435,
2,0,0,0,0,16765,0.280261,0.279911,-0.0628016,9,0.0230429,10,-1.75789e-05,-4.20203,-0.0585889,-1.00702,2.49254,0.279911,
2,0,0,0,0,16765.3,0.278763,0.278488,-0.0687258,9,0.0230179,10,-1.91393e-05,-4.16288,-0.0792452,-0.744525,1.95594,0.278488,
2,0,0,1,0,16765.6,0.277264,0.276946,-0.0712894,9,0.0229917,10,-1.97433e-05,-4.14698,-0.0783582,-0.752952,2.09337,0.276946,
2,0,0,1,0,16765.9,0.275766,0.2755,-0.0738699,9,0.0229646,10,-2.03512e-05,-4.13153,-0.106825,-0.552304,1.60267,0.2755,
2,0,0,1,0,16766.2,0.274269,0.274024,-0.0763346,9,0.0229366,10,-2.09175e-05,-4.11728,-0.0864624,-0.682378,2.06811,0.274024,
2,0,0,1,0,16766.5,0.27277,0.2725,-0.0805972,9,0.0229078,10,-2.19628e-05,-4.09368,-0.0841913,-0.700785,2.20774,0.2725,
2,0,0,1,0,16766.8,0.271272,0.270927,-0.0830663,9,0.0228779,10,-2.25049e-05,-4.08058,-0.108385,-0.544354,1.78035,0.270927,
2,0,0,1,0,16767.1,0.269773,0.269396,-0.0871575,9,0.022847,10,-2.34799e-05,-4.0597,-0.124754,-0.472932,1.57254,0.269396,
2,0,0,1,0,16767.4,0.268275,0.267987,-0.0885785,9,0.0228154,10,-2.37379e-05,-4.05267,-0.124964,-0.472135,1.63398,0.267987,
2,0,0,1,0,16767.7,0.266778,0.26648,-0.0919964,9,0.0227833,10,-2.45152e-05,-4.03623,-0.117226,-0.503302,1.79268,0.26648,
2,0,0,0,0,16768,0.265279,0.264977,-0.0938023,9,0.0227502,10,-2.48554e-05,-4.02779,-0.105469,-0.559404,2.05366,0.264977,
2,0,0,0,0,16768.3,0.263781,0.263487,-0.0963022,9,0.0227163,10,-2.53744e-05,-4.01636,-0.127655,-0.462184,1.74199,0.263487,
2,0,0,1,0,16768.6,0.262282,0.261971,-0.0982252,9,0.0226816,10,-2.57322e-05,-4.00778,-0.129018,-0.457302,1.76823,0.261971,
2,0,0,1,0,16768.9,0.260784,0.260493,-0.0999484,9,0.0226464,10,-2.60359e-05,-4.00022,-0.181325,-0.325382,1.29547,0.260493,
2,0,0,1,0,16769.2,0.259286,0.259002,-0.103194,9,0.0226105,10,-2.67273e-05,-3.98635,-0.133574,-0.441703,1.76882,0.2590017,
2,0,0,1,0,16769.5,0.257788,0.257507,-0.107018,9,0.0225738,10,-2.75578e-05,-3.97054,-0.177769,-0.331892,1.36086,0.257507,
2,0,0,1,0,16769.8,0.25629,0.255968,-0.107589,9,0.0225364,10,-2.75393e-05,-3.96823,-0.170695,-0.345645,1.45159,0.255968,
2,0,0,1,0,16770.1,0.254791,0.254482,-0.109025,9,0.0224986,10,-2.77449e-05,-3.96248,-0.180519,-0.326836,1.39511,0.254482,
2,0,0,1,0,16770.4,0.253293,0.252991,-0.113009,9,0.02246,10,-2.85902e-05,-3.94689,-0.176892,-0.333537,1.4463,0.252991,
2,0,0,1,0,16770.7,0.251795,0.25152,-0.114638,9,0.0224207,10,-2.88339e-05,-3.94067,-0.155927,-0.378382,1.69881,0.25152,
2,0,0,0,0,16771,0.250297,0.250001,-0.116855,9,0.0223807,10,-2.92139e-05,-3.93235,-0.319433,-0.184703,0.836981,0.2500006,
2,0,0,0,0,16771.3,0.248799,0.248491,-0.11855,9,0.02234,10,-2.94586e-05,-3.9261,-0.181021,-0.325928,1.52012,0.248491,
2,0,0,0,0,16771.6,0.247301,0.247021,-0.119329,9,0.0222991,10,-2.94768e-05,-3.92325,-0.179639,-0.328436,1.55407,0.247021,
2,0,0,1,0,16771.9,0.245802,0.245502,-0.124116,9,0.0222573,10,-3.04708e-05,-3.90617,-0.243554,-0.242246,1.16207,0.245502,
2,0,0,1,0,16772.2,0.244304,0.243989,-0.124995,9,0.0222147,10,-3.04974e-05,-3.90311,-0.188227,-0.313452,1.52123,0.243989,
2,0,0,1,0,16772.5,0.242806,0.242477,-0.127485,9,0.0221718,10,-3.09123e-05,-3.89454,-0.186955,-0.315584,1.5626,0.242477,
2,0,0,1,0,16772.8,0.241308,0.240999,-0.128525,9,0.0221284,10,-3.09744e-05,-3.89101,-0.226349,-0.260659,1.30548,0.240999,
2,0,0,1,0,16773.1,0.23981,0.239518,-0.130383,9,0.0220843,10,-3.12291e-05,-3.88478,-0.181097,-0.325792,1.64516,0.239518,
2,0,0,1,0,16773.4,0.238311,0.238004,-0.132221,9,0.0220397,10,-3.14692e-05,-3.8787,-0.244756,-0.241057,1.24917,0.238004,
2,0,0,1,0,16773.7,0.236813,0.236477,-0.134098,9,0.0219945,10,-3.17111e-05,-3.87258,-0.303543,-0.194371,1.01498,0.236477,
2,0,0,1,0,16774,0.235316,0.235006,-0.135052,9,0.0219489,10,-3.1738e-05,-3.8695,-0.226041,-0.261015,1.38368,0.235006,
2,0,0,0,0,16774.3,0.233817,0.233452,-0.137328,9,0.0219028,10,-3.20594e-05,-3.86224,-0.278941,-0.211514,1.13353,0.2334519,
2,0,0,0,0,16774.6,0.232319,0.231985,-0.139604,9,0.0218559,10,-3.23861e-05,-3.8551,-0.251022,-0.235039,1.27502,0.231985,
2,0,0,1,0,16774.9,0.23082,0.230478,-0.140897,9,0.0218085,10,-3.24738e-05,-3.8511,-0.368515,-0.160102,0.878272,0.230478,
2,0,0,1,0,16775.2,0.229322,0.229008,-0.142446,9,0.0217607,10,-3.26212e-05,-3.84635,-0.328415,-0.179651,1.00397,0.2290078,
2,0,0,1,0,16775.5,0.227825,0.227502,-0.144579,9,0.0217124,10,-3.2892e-05,-3.8399,-0.222069,-0.265684,1.50056,0.227502,
2,0,0,1,0,16775.8,0.226326,0.22602,-0.1462,9,0.0216635,10,-3.3044e-05,-3.83505,-0.289256,-0.203971,1.17151,0.22602,
2,0,0,1,0,16776.1,0.224828,0.224518,-0.148121,9,0.021614,10,-3.32559e-05,-3.82938,-0.862697,-0.0683901,0.392962,0.224518,
2,0,0,1,0,16776.4,0.223329,0.22304,-0.149552,9,0.0215639,10,-3.33561e-05,-3.82521,-0.272715,-0.216343,1.26815,0.22304,
2,0,0,1,0,16776.7,0.221831,0.221529,-0.152612,9,0.0215136,10,-3.38078e-05,-3.81641,-0.316462,-0.186436,1.10107,0.221529,
2,0,0,1,0,16777,0.220333,0.220078,-0.153727,9,0.0214624,10,-3.3832e-05,-3.81325,-0.29245,-0.201744,1.20668,0.2200783,
2,0,0,0,0,16777.3,0.218835,0.218508,-0.155717,9,0.0214106,10,-3.40253e-05,-3.80766,-0.246015,-0.239823,1.45343,0.218508,
2,0,0,0,0,16777.6,0.217337,0.217021,-0.15771,9,0.0213584,10,-3.42264e-05,-3.80214,-0.300124,-0.196585,1.20495,0.217021,
2,0,0,0,0,16777.9,0.215839,0.215551,-0.158598,9,0.0213058,10,-3.41861e-05,-3.7997,-0.394668,-0.149493,0.927772,0.215551,
2,0,0,1,0,16778.2,0.21434,0.214003,-0.161458,9,0.0212524,10,-3.45525e-05,-3.79194,-0.206381,-0.285878,1.79036,0.214003,
2,0,0,1,0,16778.5,0.212842,0.212548,-0.162694,9,0.0211984,10,-3.45803e-05,-3.78863,-0.311367,-0.189487,1.20787,0.212548,
2,0,0,1,0,16778.8,0.211344,0.211037,-0.163783,9,0.021144,10,-3.45644e-05,-3.78573,-0.326212,-0.180864,1.1658,0.211037,
2,0,0,1,0,16779.1,0.209846,0.209538,-0.164707,9,0.0210891,10,-3.45122e-05,-3.78329,-0.324178,-0.181999,1.18054,0.209538,
2,0,0,1,0,16779.4,0.208348,0.208014,-0.169001,9,0.0210336,10,-3.51546e-05,-3.77211,-0.232586,-0.253669,1.66715,0.2080138,
2,0,0,1,0,16779.7,0.206849,0.206487,-0.173126,9,0.0209773,10,-3.57482e-05,-3.76164,-0.274946,-0.214588,1.42138,0.206487,
2,0,0,1,0,16780,0.205351,0.205039,-0.172073,9,0.0209203,10,-3.52817e-05,-3.76429,-0.412012,-0.1432,0.958806,0.205039,
2,0,0,1,0,16780.3,0.203854,0.203532,-0.173306,9,0.0208629,10,-3.52733e-05,-3.76119,-0.335031,-0.176103,1.20006,0.203532,
2,0,0,0,0,16780.6,0.202355,0.202029,-0.175232,9,0.0208051,10,-3.54019e-05,-3.75639,-0.28899,-0.204159,1.40696,0.202029,
2,0,0,0,0,16780.9,0.200857,0.200546,-0.17777,9,0.0207465,10,-3.56512e-05,-3.75014,-0.32745,-0.18018,1.25094,0.200546,
2,0,0,1,0,16781.2,0.199358,0.199016,-0.180085,9,0.0206872,10,-3.58399e-05,-3.74452,-0.425213,-0.138754,0.971669,0.199016,
2,0,0,1,0,16781.5,0.19786,0.197546,-0.183647,9,0.0206275,10,-3.62787e-05,-3.73602,-0.362108,-0.162935,1.15715,0.1975455,
2,0,0,1,0,16781.8,0.196363,0.196053,-0.184068,9,0.0205672,10,-3.60871e-05,-3.73502,-0.249409,-0.236559,1.69938,0.196053,
2,0,0,1,0,16782.1,0.194864,0.194542,-0.185981,9,0.0205061,10,-3.61812e-05,-3.73053,-0.309483,-0.190641,1.3886,0.194542,
2,0,0,1,0,16782.4,0.193366,0.193016,-0.188729,9,0.0204442,10,-3.64277e-05,-3.72416,-0.233612,-0.252555,1.86065,0.193016,
2,0,0,1,0,16782.7,0.191867,0.191566,-0.191145,9,0.0203818,10,-3.66169e-05,-3.71864,-0.371092,-0.15899,1.19106,0.191566,
2,0,0,1,0,16783,0.190369,0.190036,-0.192316,9,0.0203188,10,-3.65469e-05,-3.71598,-0.295684,-0.199538,1.50734,0.1900356,
2,0,0,1,0,16783.3,0.188871,0.188557,-0.196115,9,0.0202551,10,-3.69789e-05,-3.70749,-0.238045,-0.247852,1.88664,0.188557,
2,0,0,0,0,16783.6,0.187373,0.187016,-0.197967,9,0.0201903,10,-3.7023e-05,-3.70341,-0.215084,-0.274312,2.11607,0.187016,
2,0,0,0,0,16783.9,0.185875,0.185571,-0.20061,9,0.020125,10,-3.72275e-05,-3.69765,-0.338242,-0.174431,1.3633,0.185571,
2,0,0,0,0,16784.2,0.184377,0.18408,-0.201128,9,0.020059,10,-3.70238e-05,-3.69653,-0.241673,-0.244131,1.93258,0.18408,
2,0,0,1,0,16784.5,0.182878,0.182568,-0.207057,9,0.0199922,10,-3.7802e-05,-3.68391,-0.210444,-0.280359,2.25143,0.182568,
2,0,0,1,0,16784.8,0.181381,0.18107,-0.209034,9,0.0199244,10,-3.78498e-05,-3.67978,-0.243948,-0.241855,1.97079,0.18107,
2,0,0,1,0,16785.1,0.179882,0.179549,-0.211885,9,0.0198556,10,-3.80438e-05,-3.6739,-0.230314,-0.256172,2.11582,0.179549,
2,0,0,1,0,16785.4,0.178384,0.178069,-0.214912,9,0.019786,10,-3.82691e-05,-3.66774,-0.219689,-0.268561,2.25642,0.178069,
2,0,0,1,0,16785.7,0.176886,0.176589,-0.217753,9,0.0197157,10,-3.84528e-05,-3.66204,-0.215087,-0.274307,2.34154,0.176589,
2,0,0,1,0,16786,0.175387,0.175024,-0.22182,9,0.0196441,10,-3.88239e-05,-3.654,-0.223733,-0.263707,2.27508,0.175024,
2,0,0,1,0,16786.3,0.173889,0.173561,-0.226233,9,0.0195715,10,-3.92653e-05,-3.64544,-0.222718,-0.264909,2.3265,0.173561,
2,0,0,1,0,16786.6,0.172392,0.172076,-0.23051,9,0.0194977,10,-3.96652e-05,-3.63731,-0.213229,-0.276698,2.48062,0.172076,
2,0,0,0,0,16786.9,0.170893,0.170566,-0.232668,9,0.019423,10,-3.96851e-05,-3.63326,-0.204182,-0.288958,2.63896,0.170566,
2,0,0,0,0,16787.2,0.169395,0.169053,-0.237838,9,0.0193469,10,-4.02074e-05,-3.62372,-0.166523,-0.354305,3.27908,0.169053,
2,0,0,1,0,16787.5,0.167896,0.167574,-0.243197,9,0.0192691,10,-4.07535e-05,-3.61404,-0.156336,-0.377393,3.5821,0.167574,
2,0,0,1,0,16787.8,0.166398,0.166102,-0.247018,9,0.0191901,10,-4.10303e-05,-3.60727,-0.175504,-0.336174,3.26603,0.166102,
2,0,0,1,0,16788.1,0.164901,0.164566,-0.251277,9,0.0191097,10,-4.13517e-05,-3.59985,-0.170817,-0.3454,3.41978,0.164566,
2,0,0,1,0,16788.4,0.163402,0.163064,-0.258794,9,0.0190275,10,-4.22e-05,-3.58705,-0.123898,-0.476197,4.80134,0.163064,
2,0,0,1,0,16788.7,0.161904,0.161573,-0.26607,9,0.0189435,10,-4.29898e-05,-3.575,-0.136411,-0.432518,4.47076,0.161573,
2,0,0,1,0,16789,0.160405,0.160088,-0.271917,9,0.0188574,10,-4.35306e-05,-3.56556,-0.137215,-0.429982,4.55442,0.160088,
2,0,0,1,0,16789.3,0.158907,0.158583,-0.276684,9,0.0187694,10,-4.38773e-05,-3.55802,-0.118687,-0.497105,5.42388,0.158583,
2,0,0,1,0,16789.6,0.157409,0.157089,-0.287427,9,0.0186791,10,-4.51517e-05,-3.54147,-0.109716,-0.537752,6.05186,0.157089,
2,0,0,0,0,16789.9,0.155911,0.15561,-0.296324,9,0.018586,10,-4.61109e-05,-3.52823,-0.110268,-0.535059,6.19581,0.15561,
2,0,0,0,0,16790.2,0.154413,0.15406,-0.306109,9,0.0184897,10,-4.71592e-05,-3.51412,-0.109045,-0.541063,6.46141,0.15406,
2,0,0,0,0,16790.5,0.152915,0.152599,-0.317809,9,0.0183905,10,-4.84973e-05,-3.49783,-0.096564,-0.610994,7.58266,0.152599,
2,0,0,1,0,16790.8,0.151416,0.15107,-0.329993,9,0.0182881,10,-4.9852e-05,-3.4815,-0.0849136,-0.694824,8.96515,0.15107,
2,0,0,1,0,16791.1,0.149919,0.149573,-0.343176,9,0.0181815,10,-5.13298e-05,-3.46448,-0.0778648,-0.757723,10.1818,0.149573,
2,0,0,1,0,16791.4,0.14842,0.148105,-0.358726,9,0.0180705,10,-5.31291e-05,-3.44524,-0.0778581,-0.757789,10.633,0.148105,
2,0,0,1,0,16791.7,0.146922,0.14661,-0.374618,9,0.0179548,10,-5.49227e-05,-3.42641,-0.0756192,-0.780225,11.4356,0.14661,
2,0,0,1,0,16792,0.145424,0.145131,-0.392892,9,0.0178343,10,-5.70207e-05,-3.40573,-0.0740177,-0.797106,12.2761,0.145131,
2,0,0,1,0,16792.3,0.143925,0.143652,-0.412442,9,0.0177079,10,-5.92481e-05,-3.38464,-0.0658017,-0.896633,14.459,0.143652,
2,0,0,1,0,16792.6,0.142427,0.142097,-0.433319,9,0.0175753,10,-6.15733e-05,-3.36319,-0.0685415,-0.860792,14.6217,0.142097,
2,0,0,1,0,16792.9,0.14093,0.140622,-0.456007,9,0.017436,10,-6.41247e-05,-3.34103,-0.0702761,-0.839546,14.9858,0.140622,
2,0,0,0,0,16793.2,0.139431,0.139161,-0.475934,9,0.0172902,10,-6.62312e-05,-3.32245,-0.0686813,-0.85904,16.0897,0.139161,
2,0,0,0,0,16793.5,0.137933,0.137587,-0.503809,9,0.0171373,10,-6.93175e-05,-3.29773,-0.0736466,-0.801124,15.6699,0.137587,
2,0,0,1,0,16793.8,0.136434,0.136082,-0.526364,9,0.0169769,10,-7.16285e-05,-3.27871,-0.077905,-0.757333,15.5257,0.136082,
2,0,0,1,0,16794.1,0.134936,0.134588,-0.550296,9,0.0168096,10,-7.40632e-05,-3.2594,-0.0897802,-0.65716,14.0453,0.134588,
2,0,0,1,0,16794.4,0.133439,0.1331,-0.569324,9,0.0166356,10,-7.57768e-05,-3.24464,-0.0900755,-0.655006,14.5859,0.1331,
2,0,0,1,0,16794.7,0.13194,0.131644,-0.590972,9,0.0164554,10,-7.77981e-05,-3.22843,-0.101287,-0.582502,13.4556,0.131644,
2,0,0,1,0,16795,0.130442,0.130125,-0.612179,9,0.0162688,10,-7.96596e-05,-3.21312,-0.120375,-0.490134,11.6613,0.130125,
2,0,0,1,0,16795.3,0.128943,0.128593,-0.628328,9,0.0160769,10,-8.07988e-05,-3.20181,-0.149925,-0.393531,9.60103,0.1285933,
2,0,0,1,0,16795.6,0.127445,0.127084,-0.642734,9,0.0158806,10,-8.16815e-05,-3.19197,-0.172813,-0.34141,8.5237,0.127084,
2,0,0,1,0,16795.9,0.125947,0.125608,-0.65196,9,0.0156809,10,-8.18912e-05,-3.18578,-0.227215,-0.259666,6.59415,0.125608,
2,0,0,0,0,16796.2,0.124449,0.124107,-0.662275,9,0.0154776,10,-8.2193e-05,-3.17896,-0.256155,-0.230329,5.93426,0.124107,
2,0,0,0,0,16796.5,0.122951,0.122621,-0.669946,9,0.015272,10,-8.21497e-05,-3.17396,-0.453585,-0.130075,3.38926,0.122621,
2,0,0,0,0,16796.8,0.121453,0.121148,-0.67437,9,0.0150644,10,-8.16989e-05,-3.1711,-0.659097,-0.0895164,2.34958,0.121148,
2,0,0,1,0,16797.1,0.119954,0.119631,-0.674882,9,0.0148563,10,-8.07367e-05,-3.17077,-1.09979,-0.0536466,1.41503,0.119631,
2,0,0,1,0,16797.4,0.118456,0.118152,-0.677587,9,0.0146473,10,-8.00582e-05,-3.16903,-1.04396,-0.0565155,1.48868,0.118152,
2,0,0,1,0,16797.7,0.116958,0.116643,-0.678236,9,0.0144381,10,-7.91114e-05,-3.16862,1.48893,0.0396257,-1.04703,0.116643,
2,0,0,1,0,16798,0.11546,0.115135,-0.675558,9,0.0142293,10,-7.77803e-05,-3.17034,0.722474,0.0816639,-2.14726,0.115135,
2,0,0,1,0,16798.3,0.113962,0.113669,-0.668649,9,0.0140216,10,-7.60049e-05,-3.1748,0.8229,0.0716977,-1.87836,0.113669,
2,0,0,1,0,16798.6,0.112463,0.112143,-0.669538,9,0.0138148,10,-7.50843e-05,-3.17422,0.596129,0.0989718,-2.58271,0.112143,
2,0,0,1,0,16798.9,0.110965,0.11063,-0.665182,9,0.0136088,10,-7.35893e-05,-3.17706,0.577922,0.10209,-2.64977,0.11063,
2,0,0,1,0,16799.2,0.109468,0.109126,-0.662015,9,0.013404,10,-7.22431e-05,-3.17913,0.373629,0.157911,-4.07006,0.109126,
2,0,0,0,0,16799.5,0.107969,0.107627,-0.655,9,0.0132005,10,-7.04959e-05,-3.18376,0.498562,0.11834,-3.03416,0.107627,
2,0,0,0,0,16799.8,0.106471,0.106146,-0.651442,9,0.012999,10,-6.91478e-05,-3.18612,0.511924,0.115252,-2.93951,0.106146,
2,0,0,1,0,16800.1,0.104972,0.104664,-0.646449,9,0.0127984,10,-6.76601e-05,-3.18947,0.56923,0.103649,-2.61329,0.104664,
2,0,0,1,0,16800.4,0.103474,0.103174,-0.644404,9,0.012599,10,-6.64855e-05,-3.19084,0.389818,0.151353,-3.78341,0.103174,
2,0,0,1,0,16800.7,0.101977,0.101642,-0.63724,9,0.0124013,10,-6.47701e-05,-3.1957,0.404254,0.145948,-3.62284,0.101642,
2,0,0,1,0,16801,0.100478,0.100135,-0.630656,9,0.0122057,10,-6.3151e-05,-3.20021,0.413837,0.142568,-3.51486,0.100135,
2,0,0,1,0,16801.3,0.0989799,0.0986923,-0.626073,9,0.0120114,10,-6.17885e-05,-3.20338,0.467265,0.126267,-3.07644,0.0986923,
2,0,0,1,0,16801.6,0.0974812,0.0971488,-0.621246,9,0.0118186,10,-6.03533e-05,-3.20674,0.370604,0.159199,-3.85522,0.0971488,
2,0,0,1,0,16801.9,0.0959834,0.095652,-0.614455,9,0.0116276,10,-5.87738e-05,-3.21151,0.342366,0.17233,-4.13985,0.095652,
2,0,0,1,0,16802.2,0.0944855,0.0941901,-0.606931,9,0.0114387,10,-5.71669e-05,-3.21686,0.38159,0.154616,-3.67769,0.0941901,
2,0,0,0,0,16802.5,0.0929871,0.0926999,-0.604187,9,0.0112513,10,-5.60081e-05,-3.21883,0.507478,0.116261,-2.73577,0.0926999,
2,0,0,0,0,16802.8,0.0914889,0.0911581,-0.600891,9,0.0110651,10,-5.4776e-05,-3.2212,0.378608,0.155834,-3.63496,0.09115807,
2,0,0,0,0,16803.1,0.0899907,0.0896852,-0.592699,9,0.0108808,10,-5.31563e-05,-3.22717,0.353258,0.167017,-3.85259,0.0896852,
2,0,0,1,0,16803.4,0.0884923,0.0882057,-0.584112,9,0.0106983,10,-5.1522e-05,-3.2335,0.346573,0.170238,-3.89052,0.0882057,
2,0,0,1,0,16803.7,0.0869946,0.0866994,-0.58024,9,0.0105177,10,-5.03065e-05,-3.23639,0.450721,0.130901,-2.96886,0.0866994,
2,0,0,1,0,16804,0.0854962,0.0851477,-0.575851,9,0.0103384,10,-4.90324e-05,-3.23969,0.405356,0.145551,-3.26987,0.0851477,
2,0,0,1,0,16804.3,0.083998,0.0836833,-0.570806,9,0.0101605,10,-4.77669e-05,-3.24351,0.293419,0.201078,-4.47257,0.0836833,
2,0,0,1,0,16804.6,0.0824998,0.0821785,-0.565865,9,0.00998426,10,-4.65019e-05,-3.24729,0.389329,0.151543,-3.35283,0.0821785,
2,0,0,1,0,16804.9,0.0810014,0.0806663,-0.560667,9,0.00980986,10,-4.52269e-05,-3.2513,0.406516,0.145136,-3.18567,0.0806663,
2,0,0,1,0,16805.2,0.0795035,0.0791449,-0.556659,9,0.00963648,10,-4.40568e-05,-3.25441,0.506717,0.116436,-2.5314,0.0791449,
2,0,0,1,0,16805.5,0.0780056,0.0776851,-0.553226,9,0.00946424,10,-4.29774e-05,-3.2571,0.512826,0.115049,-2.48006,0.0776851,
2,0,0,0,0,16805.8,0.076507,0.0761671,-0.549421,9,0.00929333,10,-4.18478e-05,-3.2601,0.403457,0.146236,-3.12819,0.0761671,
2,0,0,0,0,16806.1,0.0750088,0.0746963,-0.545049,9,0.00912413,10,-4.07132e-05,-3.26356,0.577505,0.102164,-2.17071,0.0746963,
2,0,0,1,0,16806.4,0.0735103,0.073116,-0.541012,9,0.00895585,10,-3.95567e-05,-3.26679,0.665631,0.0886377,-1.86683,0.073116,
2,0,0,1,0,16806.7,0.0720124,0.0716403,-0.537274,9,0.00878848,10,-3.84905e-05,-3.2698,0.478228,0.123372,-2.5887,0.0716403,
2,0,0,1,0,16807,0.0705146,0.0701878,-0.532237,9,0.0086224,10,-3.73566e-05,-3.27389,0.458982,0.128545,-2.67969,0.0701878,
2,0,0,1,0,16807.3,0.0690161,0.0687018,-0.527535,9,0.00845755,10,-3.62426e-05,-3.27775,0.542687,0.108718,-2.24942,0.0687018,
2,0,0,1,0,16807.6,0.0675179,0.0672109,-0.52625,9,0.00829371,10,-3.53697e-05,-3.27881,0.630859,0.0935233,-1.91863,0.0672109,
2,0,0,1,0,16807.9,0.0660192,0.0657281,-0.525883,9,0.00813052,10,-3.45653e-05,-3.27911,0.532164,0.110868,-2.26459,0.0657281,
2,0,0,1,0,16808.2,0.0645214,0.0642384,-0.51983,9,0.00796828,10,-3.33931e-05,-3.28414,0.468333,0.125979,-2.55102,0.0642384,
2,0,0,1,0,16808.5,0.0630235,0.0626777,-0.514489,9,0.00780748,10,-3.2247e-05,-3.28862,0.455382,0.129562,-2.61068,0.0626777,
2,0,0,0,0,16808.8,0.0615251,0.0612504,-0.512482,9,0.00764769,10,-3.13897e-05,-3.29032,0.468656,0.125892,-2.51944,0.0612504,
2,0,0,0,0,16809.1,0.0600269,0.0596852,-0.508442,9,0.00748879,10,-3.03465e-05,-3.29376,0.520897,0.113266,-2.25254,0.0596852,
2,0,0,0,0,16809.4,0.0585287,0.0582155,-0.505075,9,0.00733087,10,-2.94032e-05,-3.29664,0.366103,0.161157,-3.17856,0.05821548,
2,0,0,1,0,16809.7,0.0570303,0.0567063,-0.502679,9,0.00717387,10,-2.85051e-05,-3.29871,0.529238,0.111481,-2.18959,0.0567063,
2,0,0,1,0,16810,0.0555325,0.0552263,-0.500186,9,0.0070183,10,-2.76234e-05,-3.30087,0.562937,0.104807,-2.04376,0.0552263,
2,0,0,1,0,16810.3,0.0540342,0.0537183,-0.496764,9,0.00686342,10,-2.66853e-05,-3.30385,0.676255,0.0872452,-1.68594,0.0537183,
2,0,0,1,0,16810.6,0.052536,0.0521924,-0.493794,9,0.00670934,10,-2.57723e-05,-3.30645,0.551055,0.107067,-2.05845,0.0521924,
2,0,0,1,0,16810.9,0.0510378,0.050694,-0.490443,9,0.0065565,10,-2.48625e-05,-3.30941,0.446354,0.132182,-2.52404,0.050694,
2,0,0,1,0,16811.2,0.0495394,0.0492432,-0.484921,9,0.00640496,10,-2.3879e-05,-3.31433,0.468425,0.125954,-2.382,0.04924316,
2,0,0,1,0,16811.5,0.0480415,0.0477313,-0.481781,9,0.00625425,10,-2.2996e-05,-3.31715,0.893099,0.0660621,-1.23849,0.0477313,
2,0,0,1,0,16811.8,0.0465436,0.0461975,-0.478792,9,0.00610451,10,-2.2119e-05,-3.31985,0.504304,0.116993,-2.19107,0.0461975,
2,0,0,0,0,16812,0.045045,0.0446942,-0.475028,9,0.0059557,10,-2.1231e-05,-3.32328,0.396637,0.148751,-2.76224,0.0446942,
2,0,0,0,0,16812.3,0.0435468,0.0432542,-0.469741,9,0.00580835,10,-2.03183e-05,-3.32814,0.406572,0.145116,-2.67485,0.0432542,
2,0,0,1,0,16812.6,0.0420483,0.041748,-0.468183,9,0.00566203,10,-1.95457e-05,-3.32958,0.550974,0.107083,-1.95233,0.041748,
2,0,0,1,0,16812.9,0.0405504,0.0402343,-0.467459,9,0.00551651,10,-1.88079e-05,-3.33026,0.615204,0.0959031,-1.73792,0.04023429,
2,0,0,1,0,16813.2,0.0390526,0.0387077,-0.461536,9,0.00537185,10,-1.7865e-05,-3.33579,0.409201,0.144183,-2.59302,0.0387077,
2,0,0,1,0,16813.5,0.0375541,0.0372724,-0.457302,9,0.00522843,10,-1.70448e-05,-3.3398,0.405819,0.145385,-2.60308,0.03727245,
2,0,0,1,0,16813.8,0.0360559,0.0357709,-0.455039,9,0.00508635,10,-1.62772e-05,-3.34195,0.477959,0.123441,-2.18962,0.0357709,
2,0,0,1,0,16814.1,0.0345572,0.0342443,-0.450284,9,0.00494502,10,-1.54197e-05,-3.34651,0.433563,0.136082,-2.39539,0.0342443,
2,0,0,1,0,16814.4,0.0330594,0.0327275,-0.447905,9,0.00480477,10,-1.46588e-05,-3.34881,0.334731,0.176261,-3.0764,0.0327275,
2,0,0,1,0,16814.7,0.0315615,0.0312274,-0.444793,9,0.00466551,10,-1.38897e-05,-3.35184,0.430693,0.136989,-2.37326,0.0312274,
2,0,0,0,0,16815,0.0300631,0.0297839,-0.441382,9,0.00452761,10,-1.31461e-05,-3.35519,0.527903,0.111763,-1.92353,0.02978386,
2,0,0,0,0,16815.3,0.0285649,0.0282569,-0.437868,9,0.0043903,10,-1.23728e-05,-3.35866,0.748723,0.0788008,-1.34459,0.0282569,
2,0,0,0,0,16815.6,0.0270667,0.0267734,-0.43585,9,0.00425373,10,-1.16692e-05,-3.36066,0.469792,0.125588,-2.13108,0.0267734,
2,0,0,1,0,16815.9,0.0255683,0.0253013,-0.432426,9,0.0041181,10,-1.09409e-05,-3.36409,0.442415,0.133359,-2.24703,0.0253013,
2,0,0,1,0,16816.2,0.0240706,0.0237631,-0.427976,9,0.0039839,10,-1.017e-05,-3.36858,0.589723,0.100047,-1.67941,0.0237631,
2,0,0,1,0,16816.5,0.0225722,0.0222454,-0.425887,9,0.00385013,10,-9.47405e-06,-3.37071,1.06309,0.0554987,-0.921975,0.0222454,
2,0,0,1,0,16816.8,0.021074,0.0207428,-0.42367,9,0.00371703,10,-8.78812e-06,-3.37297,0.572988,0.102969,-1.70544,0.0207428,
2,0,0,1,0,16817.1,0.0195758,0.0192646,-0.421709,9,0.0035847,10,-8.12407e-06,-3.37499,0.643549,0.0916791,-1.50808,0.0192646,
2,0,0,1,0,16817.4,0.0180774,0.0177695,-0.417429,9,0.00345319,10,-7.41749e-06,-3.37942,0.768498,0.0767732,-1.2565,0.0177695,
2,0,0,1,0,16817.7,0.0165795,0.0162575,-0.418028,9,0.0033222,10,-6.79606e-06,-3.3788,1.0421,0.0566162,-0.92365,0.0162575,
2,0,0,1,0,16818,0.0150817,0.0147296,-0.417868,9,0.00319148,10,-6.15504e-06,-3.37896,0.854793,0.0690226,-1.12308,0.0147296,
2,0,0,0,0,16818.3,0.013583,0.013268,-0.41655,9,0.00306103,10,-5.5268e-06,-3.38033,0.806042,0.0731972,-1.18773,0.013268,
2,0,0,0,0,16818.6,0.0120848,0.0117421,-0.41314,9,0.00293123,10,-4.85114e-06,-3.3839,1.21599,0.0485201,-0.78642,0.0117421,
2,0,0,1,0,16818.9,0.0105863,0.0103027,-0.413385,9,0.0028019,10,-4.25899e-06,-3.38364,1.42177,0.0414976,-0.67078,0.0103027,
2,0,0,1,0,16819.2,0.00908846,0.0088049,-0.414131,9,0.0026725,10,-3.64638e-06,-3.38286,7.15247,0.0082489,-0.133041,0.0088049,
2,0,0,1,0,16819.5,0.0075906,0.00723466,-0.413205,9,0.00254316,10,-2.9894e-06,-3.38383,2.20928,0.0267056,-0.429662,0.00723466,
2,0,0,1,0,16819.8,0.00609208,0.00576247,-0.413339,9,0.00241381,10,-2.38185e-06,-3.38369,-1.76047,-0.0335137,0.540566,0.00576247,
2,0,0,1,0,16820.1,0.00459389,0.00423973,-0.414144,9,0.00228479,10,-1.75586e-06,-3.38285,2.23518,0.0263961,-0.424295,0.00423973,
2,0,0,1,0,16820.4,0.00309525,0.00275702,-0.414287,9,0.00215534,10,-1.1422e-06,-3.3827,-0.821576,-0.0718132,1.16119,0.00275702,
2,0,0,1,0,16820.7,0.00159739,0.00125129,-0.417651,9,0.00202384,10,-5.22603e-07,-3.37919, , , ,0.00125129,
2,0,0,0,0,16821,0.000199195,-0.000163081,-0.41569,9,0.00190225,10,6.77913e-08,-3.38123, , , ,-0.000163081,