File: Figure_codes/Fig_3-5/rawdata_trumpetplot_data/after 10th/20221101_1-115_003_TrumpetPlot_ParaChange_from10_every3_04_CV_C01_29.csv
mode,ox/red,error,control changes,counter inc.,time/s,control/V,Ewe/V,<I>/mA,cycle number,(Q-Qo)/C,I Range,P/W,log(|I|),Tafel slope mV/dec,alpha_eff,dI/d(E-IR),E-IR/V,
2,0,0,1,0,58193.8,2.44065e-05,-0.000382585,-0.385608,30,0.0000000E+000,10,1.47528e-07,-3.41385, , , ,-0.000382585,
2,1,0,1,0,58193.9,0.00129787,0.000915352,0.0891246,30,-7.40767e-06,10,8.15804e-08,-4.05, , , ,0.000915352,
2,1,0,1,0,58194.1,0.00279606,0.00242855,0.23863,30,2.13469e-05,10,5.79526e-07,-3.62227,0.0029548,19.9675,77.3097,0.00242855,
2,1,0,1,0,58194.2,0.00429425,0.00396084,0.287334,30,6.32622e-05,10,1.13808e-06,-3.54161,0.0202747,2.91003,30.023,0.00396084,
2,1,0,1,0,58194.4,0.00579244,0.00538497,0.31847,30,0.000111008,10,1.71495e-06,-3.49693,0.0368731,1.60008,19.4402,0.00538497,
2,1,0,1,0,58194.5,0.00729063,0.006948,0.343791,30,0.000162831,10,2.38866e-06,-3.46371,0.0530798,1.11153,14.6641,0.006948,
2,1,0,1,0,58194.7,0.00878882,0.00846969,0.362877,30,0.000217916,10,3.07346e-06,-3.44024,0.070794,0.833405,11.6944,0.00846969,
2,1,0,1,0,58194.8,0.010287,0.00993835,0.379473,30,0.00027573,10,3.77134e-06,-3.42082,0.0900263,0.655364,9.61578,0.00993835,
2,1,0,1,0,58195,0.0117852,0.0114335,0.39352,30,0.00033573,10,4.49932e-06,-3.40503,0.0994658,0.593169,9.08678,0.0114335,
2,1,0,1,0,58195.1,0.0132838,0.0128939,0.406585,30,0.000397661,10,5.24248e-06,-3.39085,0.104172,0.566373,8.99017,0.0128939,
2,1,0,1,0,58195.3,0.0147814,0.0144387,0.419774,30,0.000461609,10,6.06098e-06,-3.37698,0.118068,0.49971,8.13902,0.0144387,
2,1,0,1,0,58195.4,0.0162789,0.0159255,0.430355,30,0.000527429,10,6.85361e-06,-3.36617,0.140292,0.420551,7.04056,0.0159255,
2,1,0,1,0,58195.6,0.017778,0.0174831,0.44057,30,0.00059483,10,7.70256e-06,-3.35598,0.151793,0.388688,6.67291,0.0174831,
2,1,0,1,0,58195.7,0.0192761,0.0189189,0.450002,30,0.000663456,10,8.51356e-06,-3.34679,0.164106,0.359523,6.31636,0.0189189,
2,1,0,1,0,58195.9,0.0207743,0.0204311,0.460541,30,0.000733801,10,9.40934e-06,-3.33673,0.146551,0.402591,7.21938,0.0204311,
2,1,0,1,0,58196,0.0222725,0.0219252,0.471727,30,0.000805681,10,1.03427e-05,-3.32631,0.167166,0.352943,6.48103,0.0219252,
2,1,0,1,0,58196.2,0.0237707,0.0234235,0.481297,30,0.000879147,10,1.12737e-05,-3.31759,0.181877,0.324396,6.07993,0.0234235,
2,1,0,1,0,58196.3,0.0252689,0.0248964,0.488659,30,0.000953937,10,1.21659e-05,-3.31099,0.174757,0.337611,6.46738,0.0248964,
2,1,0,1,0,58196.5,0.0267671,0.0264213,0.499677,30,0.00103024,10,1.32021e-05,-3.30131,0.154572,0.381698,7.45142,0.0264213,
2,1,0,1,0,58196.6,0.0282662,0.0279099,0.512804,30,0.00110822,10,1.43123e-05,-3.29005,0.170582,0.345874,6.89143,0.0279099,
2,1,0,1,0,58196.8,0.0297635,0.0294114,0.522114,30,0.00118773,10,1.53561e-05,-3.28223,0.188529,0.312949,6.36198,0.0294114,
2,1,0,1,0,58196.9,0.031261,0.0309072,0.527706,30,0.00126849,10,1.63099e-05,-3.27761,0.199808,0.295284,6.11677,0.0309072,
2,1,0,1,0,58197.1,0.0327599,0.0324137,0.540422,30,0.00135074,10,1.7517e-05,-3.26727,0.181201,0.325605,6.86656,0.0324137,
2,1,0,1,0,58197.2,0.034258,0.033911,0.549541,30,0.00143448,10,1.86355e-05,-3.26,0.186367,0.316579,6.78524,0.033911,
2,1,0,1,0,58197.4,0.0357562,0.035422,0.559876,30,0.00151977,10,1.9832e-05,-3.25191,0.235603,0.250421,5.45884,0.035422,
2,1,0,1,0,58197.5,0.0372544,0.0369087,0.569149,30,0.00160643,10,2.10066e-05,-3.24477,0.209944,0.281027,6.25341,0.0369087,
2,1,0,1,0,58197.7,0.0387526,0.0383795,0.578486,30,0.0016943,10,2.2202e-05,-3.23771,0.193185,0.305406,6.92373,0.0383795,
2,1,0,1,0,58197.8,0.0402508,0.0398768,0.587971,30,0.00178384,10,2.34464e-05,-3.23064,0.209238,0.281976,6.47244,0.0398768,
2,1,0,1,0,58198,0.041749,0.0413847,0.599605,30,0.001875,10,2.48145e-05,-3.22213,0.237883,0.248021,5.78745,0.0413847,
2,1,0,1,0,58198.1,0.0432472,0.0429021,0.610548,30,0.00196754,10,2.61938e-05,-3.21428,0.249001,0.236947,5.61688,0.0429021,
2,1,0,1,0,58198.3,0.0447458,0.0443809,0.617896,30,0.00206134,10,2.74228e-05,-3.20908,0.22391,0.263499,6.35193,0.0443809,
2,1,0,1,0,58198.4,0.0462433,0.0458802,0.627319,30,0.00215669,10,2.87815e-05,-3.20251,0.201035,0.293481,7.1563,0.0458802,
2,1,0,1,0,58198.6,0.0477409,0.0474089,0.637116,30,0.00225351,10,3.0205e-05,-3.19578,0.2284,0.258319,6.41993,0.0474089,
2,1,0,1,0,58198.7,0.0492399,0.0489221,0.643859,30,0.00235183,10,3.14989e-05,-3.19121,0.240096,0.245735,6.18573,0.0489221,
2,1,0,1,0,58198.9,0.0507381,0.0503621,0.652027,30,0.0024512,10,3.28375e-05,-3.18573,0.26674,0.22119,5.64793,0.0503621,
2,1,0,1,0,58199,0.0522363,0.051852,0.661809,30,0.00255178,10,3.43161e-05,-3.17927,0.238333,0.247553,6.39355,0.051852,
2,1,0,1,0,58199.2,0.0537345,0.0533864,0.674088,30,0.00265386,10,3.59871e-05,-3.17128,0.263344,0.224041,5.86885,0.0533864,
2,1,0,1,0,58199.3,0.0552327,0.0548699,0.679527,30,0.00275719,10,3.72856e-05,-3.16779,0.348037,0.169522,4.48734,0.0548699,
2,1,0,1,0,58199.5,0.0567309,0.056364,0.686023,30,0.00286164,10,3.8667e-05,-3.16366,0.322875,0.182733,4.90286,0.056364,
2,1,0,1,0,58199.6,0.0582291,0.0578899,0.695825,30,0.00296711,10,4.02813e-05,-3.1575,0.308386,0.191319,5.18879,0.0578899,
2,1,0,1,0,58199.8,0.0597282,0.0593592,0.703578,30,0.00307392,10,4.17638e-05,-3.15269,0.321414,0.183564,5.02662,0.0593592,
2,1,0,1,0,58199.9,0.0612255,0.0608768,0.709597,30,0.00318178,10,4.3198e-05,-3.14899,0.39219,0.150437,4.15492,0.0608768,
2,1,0,1,0,58200.1,0.062723,0.0623452,0.717221,30,0.00329071,10,4.47153e-05,-3.14435,0.347539,0.169765,4.74652,0.0623452,
2,1,0,1,0,58200.2,0.0642218,0.0638547,0.722583,30,0.00340051,10,4.61403e-05,-3.14111,0.306107,0.192743,5.44822,0.0638547,
2,1,0,1,0,58200.4,0.06572,0.065369,0.730996,30,0.00351148,10,4.77844e-05,-3.13609,0.313875,0.187973,5.36008,0.065369,
2,1,0,1,0,58200.5,0.0672182,0.0668408,0.738386,30,0.00362373,10,4.93544e-05,-3.13172,0.370361,0.159304,4.57877,0.06684082,
2,1,0,1,0,58200.7,0.0687164,0.0683349,0.744826,30,0.00373689,10,5.08977e-05,-3.12794,0.495135,0.119159,3.45408,0.0683349,
2,1,0,1,0,58200.8,0.0702146,0.0698163,0.748869,30,0.00385079,10,5.22833e-05,-3.12559,0.44613,0.132249,3.86875,0.0698163,
2,1,0,1,0,58201,0.0717128,0.0713348,0.756036,30,0.00396561,10,5.39317e-05,-3.12146,0.384955,0.153265,4.51544,0.0713348,
2,1,0,1,0,58201.1,0.073211,0.0728342,0.762523,30,0.00408148,10,5.55378e-05,-3.11775,0.483882,0.121931,3.62397,0.0728342,
2,1,0,1,0,58201.3,0.0747092,0.07434,0.765977,30,0.00419819,10,5.69427e-05,-3.11578,0.485338,0.121565,3.64204,0.07434,
2,1,0,1,0,58201.4,0.0762078,0.0758365,0.770559,30,0.00431556,10,5.84365e-05,-3.11319,0.445484,0.13244,3.99909,0.0758365,
2,1,0,1,0,58201.6,0.0777053,0.0773355,0.777364,30,0.00443369,10,6.01178e-05,-3.10938,0.425983,0.138503,4.20424,0.0773355,
2,1,0,1,0,58201.7,0.0792029,0.0788449,0.78439,30,0.00455278,10,6.18452e-05,-3.10547,0.488607,0.120751,3.68738,0.0788449,
2,1,0,1,0,58201.9,0.0807019,0.0803737,0.789213,30,0.0046728,10,6.3432e-05,-3.10281,0.590676,0.0998855,3.06883,0.0803737,
2,1,0,1,0,58202,0.0822001,0.0818509,0.792735,30,0.00479341,10,6.4886e-05,-3.10087,0.537895,0.109687,3.39963,0.0818509,
2,1,0,1,0,58202.2,0.0836983,0.0833407,0.797785,30,0.00491462,10,6.6488e-05,-3.09811,0.489712,0.120479,3.76087,0.0833407,
2,1,0,1,0,58202.3,0.0851965,0.0848455,0.804281,30,0.00503684,10,6.82395e-05,-3.09459,0.407766,0.144691,4.54542,0.0848455,
2,1,0,1,0,58202.5,0.0866947,0.0863279,0.810826,30,0.00516003,10,6.99969e-05,-3.09107,0.463192,0.127377,4.03208,0.08632791,
2,1,0,1,0,58202.6,0.0881929,0.0878082,0.819045,30,0.0052843,10,7.19189e-05,-3.08669,0.412048,0.143187,4.5755,0.0878082,
2,1,0,1,0,58202.8,0.0896911,0.089296,0.825467,30,0.00540942,10,7.37109e-05,-3.0833,0.333309,0.177013,5.71789,0.089296,
2,1,0,1,0,58202.9,0.0911902,0.0908077,0.835309,30,0.00553595,10,7.58525e-05,-3.07815,0.308773,0.191079,6.22265,0.0908077,
2,1,0,1,0,58203.1,0.0926875,0.092351,0.844832,30,0.005664,10,7.80211e-05,-3.07323,0.284164,0.207627,6.83692,0.092351,
2,1,0,1,0,58203.2,0.094185,0.093825,0.85557,30,0.00579345,10,8.02739e-05,-3.06774,0.28217,0.209094,6.98101,0.093825,
2,1,0,1,0,58203.4,0.0956838,0.0953392,0.864633,30,0.00592445,10,8.24334e-05,-3.06317,0.228794,0.257874,8.72833,0.0953392,
2,1,0,1,0,58203.5,0.097182,0.096809,0.877527,30,0.00605723,10,8.49525e-05,-3.05674,0.215936,0.273229,9.36985,0.09680897,
2,1,0,1,0,58203.7,0.0986802,0.0983381,0.892327,30,0.0061921,10,8.77497e-05,-3.04948,0.217635,0.271096,9.45805,0.09833806,
2,1,0,1,0,58203.8,0.100178,0.0998364,0.906791,30,0.00632912,10,9.05307e-05,-3.04249,0.211532,0.278917,9.87587,0.0998364,
2,1,0,1,0,58204,0.101677,0.101363,0.918375,30,0.00646818,10,9.30896e-05,-3.03698,0.210078,0.280848,10.1153,0.101363,
2,1,0,1,0,58204.1,0.103175,0.102824,0.938245,30,0.00660959,10,9.64737e-05,-3.02768,0.206286,0.286011,10.4785,0.102824,
2,1,0,1,0,58204.3,0.104673,0.104293,0.956269,30,0.00675349,10,9.97324e-05,-3.01942,0.202108,0.291924,10.8651,0.104293,
2,1,0,1,0,58204.4,0.106171,0.105828,0.970871,30,0.00689995,10,0.000102745,-3.01284,0.225184,0.262008,9.89995,0.105828,
2,1,0,1,0,58204.6,0.10767,0.107321,0.984216,30,0.00704876,10,0.000105627,-3.00691,0.224253,0.263095,10.1175,0.107321,
2,1,0,1,0,58204.7,0.109167,0.108808,0.999283,30,0.00719956,10,0.00010873,-3.00031,0.237836,0.24807,9.69469,0.108808,
2,1,0,1,0,58204.9,0.110665,0.110284,1.01497,30,0.00735273,10,0.000111934,-2.99355,0.232739,0.253503,10.0368,0.110284,
2,1,0,1,0,58205,0.112164,0.111794,1.02805,30,0.00750823,10,0.00011493,-2.98798,0.279859,0.210821,8.45395,0.111794,
2,1,0,1,0,58205.2,0.113662,0.113314,1.04198,30,0.00766552,10,0.000118071,-2.98214,0.330266,0.178644,7.24999,0.1133142,
2,1,0,1,0,58205.3,0.11516,0.114809,1.05154,30,0.0078243,10,0.000120727,-2.97817,0.342014,0.172508,7.07919,0.114809,
2,1,0,1,0,58205.5,0.116658,0.116281,1.06353,30,0.00798473,10,0.000123669,-2.97325,0.359204,0.164252,6.79406,0.1162812,
2,1,0,1,0,58205.6,0.118157,0.117773,1.07425,30,0.0081468,10,0.000126517,-2.9689,0.440551,0.133923,5.59541,0.117773,
2,1,0,1,0,58205.8,0.119655,0.119279,1.07894,30,0.00831006,10,0.000128695,-2.967,0.67191,0.0878094,3.69553,0.119279,
2,1,0,1,0,58205.9,0.121153,0.120803,1.08432,30,0.0084741,10,0.000130989,-2.96484,0.649987,0.0907711,3.8459,0.120803,
2,1,0,1,0,58206.1,0.122652,0.12232,1.09088,30,0.00863922,10,0.000133437,-2.96222,0.554437,0.106414,4.52022,0.1223199,
2,1,0,1,0,58206.2,0.124149,0.12379,1.0959,30,0.00880521,10,0.000135661,-2.96023,0.654165,0.0901913,3.85882,0.12379,
2,1,0,1,0,58206.4,0.125647,0.12528,1.10005,30,0.00897182,10,0.000137814,-2.95859,1.03262,0.0571363,2.45379,0.1252804,
2,1,0,1,0,58206.5,0.127146,0.126799,1.10083,30,0.00913917,10,0.000139584,-2.95828,1.17412,0.0502504,2.16096,0.126799,
2,1,0,1,0,58206.7,0.128644,0.128268,1.10771,30,0.00930685,10,0.000142084,-2.95557,1.17068,0.0503982,2.17667,0.128268,
2,1,0,1,0,58206.8,0.130142,0.129767,1.11085,30,0.0094751,10,0.000144152,-2.95435,2.31143,0.0255253,1.10355,0.129767,
2,1,0,1,0,58207,0.13164,0.131292,1.10953,30,0.00964365,10,0.000145673,-2.95486,-1.72414,-0.0342199,-1.47827,0.131292,
2,1,0,1,0,58207.1,0.133139,0.132814,1.10805,30,0.00981198,10,0.000147164,-2.95544,-0.785734,-0.075089,-3.24063,0.132814,
2,1,0,1,0,58207.3,0.134637,0.134256,1.10113,30,0.00997949,10,0.000147834,-2.95816,-0.503347,-0.117215,-5.03362,0.134256,
2,1,0,1,0,58207.4,0.136135,0.135764,1.09459,30,0.0101461,10,0.000148606,-2.96075,-0.354943,-0.166224,-7.07066,0.135764,
2,1,0,1,0,58207.6,0.137633,0.137283,1.08185,30,0.0103112,10,0.00014852,-2.96583,-0.240493,-0.245329,-10.3001,0.137283,
2,1,0,1,0,58207.7,0.139132,0.138764,1.06445,30,0.010474,10,0.000147707,-2.97288,-0.176311,-0.334636,-13.8239,0.138764,
2,1,0,1,0,58207.9,0.140629,0.140285,1.03969,30,0.0106334,10,0.000145854,-2.98309,-0.142441,-0.414206,-16.7437,0.140285,
2,1,0,1,0,58208,0.142127,0.141753,1.01284,30,0.0107893,10,0.000143574,-2.99446,-0.120267,-0.490574,-19.2963,0.141753,
2,1,0,1,0,58208.2,0.143626,0.143265,0.980803,30,0.0109409,10,0.000140515,-3.00842,-0.101324,-0.582289,-22.2066,0.143265,
2,1,0,1,0,58208.3,0.145124,0.144765,0.944714,30,0.0110874,10,0.000136761,-3.0247,-0.0873024,-0.675812,-24.8829,0.144765,
2,1,0,1,0,58208.5,0.146622,0.146289,0.903973,30,0.011228,10,0.000132241,-3.04384,-0.0815224,-0.723728,-25.597,0.1462886,
2,1,0,1,0,58208.6,0.14812,0.147773,0.867501,30,0.011363,10,0.000128193,-3.06173,-0.0787604,-0.749107,-25.3719,0.147773,
2,1,0,1,0,58208.8,0.149619,0.149272,0.830629,30,0.0114923,10,0.000123989,-3.08059,-0.0781718,-0.754748,-24.441,0.149272,
2,1,0,1,0,58208.9,0.151117,0.150784,0.795276,30,0.011616,10,0.000119915,-3.09948,-0.0755306,-0.78114,-24.1939,0.150784,
2,1,0,1,0,58209.1,0.152615,0.152275,0.756566,30,0.0117343,10,0.000115206,-3.12115,-0.0798544,-0.738845,-21.942,0.152275,
2,1,0,1,0,58209.2,0.154114,0.153746,0.726798,30,0.0118477,10,0.000111743,-3.13859,-0.0900601,-0.655118,-18.7294,0.1537464,
2,1,0,1,0,58209.4,0.155612,0.15523,0.701306,30,0.0119567,10,0.000108864,-3.15409,-0.0965614,-0.61101,-16.7722,0.15523,
2,1,0,1,0,58209.5,0.157109,0.1568,0.678243,30,0.0120621,10,0.000106348,-3.16861,-0.102476,-0.575747,-15.2639,0.1567996,
2,1,0,1,0,58209.7,0.158608,0.15828,0.656562,30,0.0121641,10,0.00010392,-3.18272,-0.11601,-0.508578,-13.0823,0.15828,
2,1,0,1,0,58209.8,0.160106,0.159745,0.639263,30,0.0122631,10,0.000102119,-3.19432,-0.135843,-0.434324,-10.883,0.159745,
2,1,0,1,0,58210,0.161604,0.161264,0.624189,30,0.0123598,10,0.000100659,-3.20468,-0.154305,-0.382359,-9.33075,0.161264,
2,1,0,1,0,58210.1,0.163102,0.162773,0.613268,30,0.0124545,10,9.98232e-05,-3.21235,-0.171166,-0.344695,-8.24196,0.162773,
2,1,0,1,0,58210.3,0.164601,0.164286,0.600385,30,0.0125473,10,9.86348e-05,-3.22157,-0.191827,-0.307569,-7.21942,0.164286,
2,1,0,1,0,58210.4,0.166099,0.165727,0.590306,30,0.0126384,10,9.78296e-05,-3.22892,-0.219226,-0.269129,-6.22908,0.165727,
2,1,0,1,0,58210.6,0.167597,0.167244,0.583395,30,0.0127283,10,9.75695e-05,-3.23404,-0.292786,-0.201512,-4.58845,0.167244,
2,1,0,1,0,58210.7,0.169095,0.168729,0.577538,30,0.0128172,10,9.74473e-05,-3.23842,-0.303937,-0.194119,-4.37579,0.168729,
2,1,0,1,0,58210.9,0.170594,0.170221,0.569927,30,0.0129051,10,9.70137e-05,-3.24418,-0.323828,-0.182195,-4.0591,0.170221,
2,1,0,1,0,58211,0.172091,0.17174,0.563481,30,0.012992,10,9.67723e-05,-3.24912,-0.389375,-0.151525,-3.34526,0.17174,
2,1,0,1,0,58211.2,0.173589,0.173226,0.559239,30,0.0130781,10,9.68749e-05,-3.2524,-0.493354,-0.11959,-2.61596,0.173226,
2,1,0,1,0,58211.3,0.175088,0.174729,0.556172,30,0.0131636,10,9.71792e-05,-3.25479,-0.452926,-0.130264,-2.82547,0.174729,
2,1,0,1,0,58211.5,0.176586,0.176164,0.551264,30,0.0132486,10,9.7113e-05,-3.25864,-0.450649,-0.130922,-2.81445,0.176164,
2,1,0,1,0,58211.6,0.178084,0.177728,0.547477,30,0.013333,10,9.73017e-05,-3.26163,-0.535395,-0.110199,-2.36204,0.177728,
2,1,0,1,0,58211.8,0.179582,0.179224,0.545018,30,0.0134167,10,9.76802e-05,-3.26359,-0.734582,-0.0803178,-1.71358,0.179224,
2,1,0,1,0,58211.9,0.181081,0.18074,0.543855,30,0.0135001,10,9.82964e-05,-3.26452,-1.006,-0.0586482,-1.24506,0.18074,
2,1,0,1,0,58212.1,0.182579,0.182278,0.541331,30,0.0135833,10,9.86727e-05,-3.26654,-0.563093,-0.104778,-2.20642,0.182278,
2,1,0,1,0,58212.2,0.184077,0.183782,0.538287,30,0.0136661,10,9.89277e-05,-3.26899,-0.747339,-0.0789467,-1.66211,0.183782,
2,1,0,1,0,58212.4,0.185576,0.185218,0.537366,30,0.0137484,10,9.95299e-05,-3.26973,-0.884891,-0.0666749,-1.39688,0.185218,
2,1,0,1,0,58212.5,0.187074,0.186751,0.535541,30,0.0138305,10,0.000100013,-3.27121,-1.74472,-0.0338162,-0.704924,0.186751,
2,1,0,1,0,58212.7,0.188571,0.188168,0.532575,30,0.0139124,10,0.000100213,-3.27362,-1.48474,-0.0397376,-0.826257,0.188168,
2,1,0,1,0,58212.8,0.19007,0.18975,0.53114,30,0.0139941,10,0.000100784,-3.27479,-1.17283,-0.0503057,-1.04389,0.1897504,
2,1,0,1,0,58213,0.191568,0.19118,0.528343,30,0.0140754,10,0.000101009,-3.27708,-0.97532,-0.060493,-1.25196,0.19118,
2,1,0,1,0,58213.1,0.193066,0.192695,0.528896,30,0.0141565,10,0.000101916,-3.27663,3.8404,0.015363,0.316299,0.192695,
2,1,0,1,0,58213.3,0.194564,0.194181,0.527492,30,0.0142375,10,0.000102429,-3.27778,-1.40365,-0.0420332,-0.864036,0.194181,
2,1,0,1,0,58213.4,0.196063,0.195712,0.526208,30,0.0143184,10,0.000102985,-3.27884,-1.03209,-0.0571655,-1.17408,0.195712,
2,1,0,1,0,58213.6,0.197561,0.197183,0.523952,30,0.014399,10,0.000103314,-3.28071,-1.21157,-0.0486973,-0.997945,0.197183,
2,1,0,1,0,58213.7,0.199059,0.198672,0.523982,30,0.0144793,10,0.0001041,-3.28068,-1.82864,-0.0322644,-0.658624,0.198672,
2,1,0,1,0,58213.9,0.200557,0.200229,0.52263,30,0.0145596,10,0.000104646,-3.28181,-1.31976,-0.0447051,-0.910174,0.200229,
2,1,0,1,0,58214,0.202056,0.201658,0.522346,30,0.0146398,10,0.000105335,-3.28204,-0.989487,-0.0596268,-1.21091,0.201658,
2,1,0,1,0,58214.2,0.203553,0.203189,0.519702,30,0.0147198,10,0.000105598,-3.28425,-2.13001,-0.0276994,-0.56267,0.203189,
2,1,0,1,0,58214.3,0.205051,0.204682,0.51859,30,0.0147995,10,0.000106146,-3.28518,2.18344,0.0270216,0.54982,0.204682,
2,1,0,1,0,58214.5,0.20655,0.206224,0.518246,30,0.0148792,10,0.000106875,-3.28546,-9.15837,-0.00644219,-0.130193,0.206224,
2,1,0,1,0,58214.6,0.208048,0.207721,0.517798,30,0.014959,10,0.000107558,-3.28584,-3.32811,-0.0177278,-0.357737,0.207721,
2,1,0,1,0,58214.7,0.209546,0.20919,0.516355,30,0.0150386,10,0.000108016,-3.28705,-1.261,-0.0467882,-0.945047,0.20919,
2,1,0,1,0,58214.9,0.211044,0.210665,0.515525,30,0.0151178,10,0.000108603,-3.28775,-1.21407,-0.0485971,-0.977956,0.210665,
2,1,0,1,0,58215,0.212543,0.212185,0.514927,30,0.015197,10,0.00010926,-3.28825,-3.29813,-0.017889,-0.359139,0.212185,
2,1,0,1,0,58215.2,0.214041,0.213695,0.514645,30,0.0152761,10,0.000109977,-3.28849,-2.0988,-0.0281113,-0.565245,0.213695,
2,1,0,1,0,58215.3,0.215539,0.215156,0.514801,30,0.0153551,10,0.000110762,-3.28836,-2.61709,-0.0225441,-0.451992,0.215156,
2,1,0,1,0,58215.5,0.217038,0.216701,0.511994,30,0.0154339,10,0.00011095,-3.29074,-7.0704,-0.00834465,-0.167319,0.216701,
2,1,0,1,0,58215.6,0.218535,0.218187,0.511896,30,0.0155126,10,0.000111689,-3.29082,3.85723,0.0152959,0.305975,0.218187,
2,1,0,1,0,58215.8,0.220033,0.21967,0.513309,30,0.0155914,10,0.000112759,-3.28962,8.942,0.00659808,0.131925,0.21967,
2,1,0,1,0,58215.9,0.221532,0.221178,0.511853,30,0.0156701,10,0.00011321,-3.29085,-7.30785,-0.00807351,-0.160888,0.221178,
2,1,0,1,0,58216.1,0.22303,0.222661,0.508608,30,0.0157486,10,0.000113247,-3.29362,-1.8055,-0.0326778,-0.651164,0.222661,
2,1,0,1,0,58216.2,0.224528,0.22417,0.509801,30,0.015827,10,0.000114282,-3.2926,-2.3727,-0.0248662,-0.495212,0.22417,
2,1,0,1,0,58216.4,0.226026,0.225672,0.509468,30,0.0159053,10,0.000114973,-3.29288,-1.64197,-0.0359325,-0.715012,0.225672,
2,1,0,1,0,58216.5,0.227524,0.227165,0.508747,30,0.0159835,10,0.000115569,-3.2935,-1.58543,-0.0372138,-0.737818,0.227165,
2,1,0,1,0,58216.7,0.229023,0.228673,0.506659,30,0.0160617,10,0.000115859,-3.29528,-1.56619,-0.0376712,-0.747807,0.228673,
2,1,0,1,0,58216.8,0.230521,0.230143,0.508579,30,0.0161396,10,0.000117046,-3.29364,-2.45905,-0.023993,-0.476536,0.230143,
2,1,0,1,0,58217,0.232019,0.231656,0.508031,30,0.0162176,10,0.000117688,-3.29411,12.7446,0.0046294,0.0916984,0.231656,
2,1,0,1,0,58217.1,0.233518,0.233165,0.507945,30,0.0162957,10,0.000118435,-3.29418,-2.09169,-0.0282068,-0.557851,0.233165,
2,1,0,1,0,58217.3,0.235015,0.234647,0.506048,30,0.0163735,10,0.000118742,-3.29581,-2.20639,-0.0267405,-0.528187,0.234647,
2,1,0,1,0,58217.4,0.236513,0.236155,0.505181,30,0.0164511,10,0.000119301,-3.29655,-5.58835,-0.0105577,-0.208418,0.236155,
2,1,0,1,0,58217.6,0.238012,0.237701,0.504165,30,0.0165287,10,0.00011984,-3.29743,-20.0256,-0.00294623,-0.0579498,0.237701,
2,1,0,1,0,58217.7,0.23951,0.239128,0.504433,30,0.0166063,10,0.000120624,-3.2972,16.2732,0.0036256,0.0714529,0.239128,
2,1,0,1,0,58217.9,0.241008,0.24064,0.503703,30,0.0166837,10,0.000121211,-3.29783,-2.0759,-0.0284213,-0.559646,0.24064,
2,1,0,1,0,58218,0.242506,0.242151,0.501438,30,0.016761,10,0.000121424,-3.29978,-1.90148,-0.0310285,-0.610422,0.242151,
2,1,0,1,0,58218.2,0.244005,0.243686,0.501388,30,0.0168381,10,0.000122181,-3.29983,3.66351,0.0161048,0.315532,0.243686,
2,1,0,1,0,58218.3,0.245503,0.245162,0.502863,30,0.0169153,10,0.000123283,-3.29855,-49.3411,-0.00119576,-0.0234403,0.245162,
2,1,0,1,0,58218.5,0.247001,0.246676,0.502451,30,0.0169924,10,0.000123943,-3.29891,-1.73861,-0.0339352,-0.663033,0.246676,
2,1,0,1,0,58218.6,0.2485,0.248105,0.498954,30,0.0170695,10,0.000123793,-3.30194,-7.99121,-0.00738311,-0.144126,0.248105,
2,1,0,1,0,58218.8,0.249997,0.249634,0.499808,30,0.0171463,10,0.000124769,-3.3012,-2.54781,-0.0231571,-0.451333,0.249634,
2,1,0,1,0,58218.9,0.251495,0.251115,0.498553,30,0.0172231,10,0.000125194,-3.30229,-1.55217,-0.0380113,-0.741872,0.251115,
2,1,0,1,0,58219.1,0.252994,0.252683,0.498249,30,0.0172998,10,0.000125899,-3.30255,-1.00226,-0.0588669,-1.14396,0.2526834,
2,1,0,1,0,58219.2,0.254492,0.254102,0.497457,30,0.0173764,10,0.000126405,-3.30324,-2.25808,-0.0261284,-0.508068,0.254102,
2,1,0,1,0,58219.4,0.25599,0.255619,0.496824,30,0.0174527,10,0.000126997,-3.3038,-2.24314,-0.0263024,-0.511094,0.2556186,
2,1,0,1,0,58219.5,0.257488,0.257108,0.497566,30,0.0175291,10,0.000127928,-3.30315,-3.41456,-0.0172789,-0.334771,0.257108,
2,1,0,1,0,58219.7,0.258987,0.258638,0.49675,30,0.0176055,10,0.000128478,-3.30386,-2.04014,-0.0289196,-0.560209,0.258638,
2,1,0,1,0,58219.8,0.260485,0.260137,0.496335,30,0.0176818,10,0.000129115,-3.30422,-2.83777,-0.020791,-0.402851,0.260137,
2,1,0,1,0,58220,0.261983,0.261628,0.495528,30,0.0177579,10,0.000129644,-3.30493,-2.44018,-0.0241786,-0.467006,0.261628,
2,1,0,1,0,58220.1,0.263481,0.263121,0.495503,30,0.0178339,10,0.000130377,-3.30495,-6.04061,-0.00976722,-0.188404,0.263121,
2,1,0,1,0,58220.3,0.26498,0.264674,0.493872,30,0.0179099,10,0.000130715,-3.30639,-3.10926,-0.0189755,-0.365391,0.264674,
2,1,0,1,0,58220.4,0.266477,0.266109,0.49275,30,0.0179857,10,0.000131125,-3.30737,-2.32475,-0.025379,-0.488933,0.266109,
2,1,0,1,0,58220.6,0.267976,0.26763,0.489639,30,0.0180614,10,0.000131042,-3.31012,-2.61643,-0.0225498,-0.433161,0.26763,
2,1,0,1,0,58220.7,0.269474,0.269138,0.491615,30,0.018137,10,0.000132312,-3.30837,5.66725,0.0104107,0.199777,0.269138,
2,1,0,1,0,58220.9,0.270972,0.270626,0.492451,30,0.0182126,10,0.00013327,-3.30764,-2.20806,-0.0267203,-0.5106,0.2706255,
2,1,0,1,0,58221,0.27247,0.272114,0.489103,30,0.0182881,10,0.000133092,-3.3106,-2.46398,-0.023945,-0.456937,0.272114,
2,1,0,1,0,58221.2,0.273968,0.273616,0.487342,30,0.0183633,10,0.000133345,-3.31217,-1.81014,-0.0325942,-0.62188,0.273616,
2,1,0,1,0,58221.3,0.275467,0.275113,0.488759,30,0.0184384,10,0.000134464,-3.31091,-1.57233,-0.0375238,-0.715302,0.275113,
2,1,0,1,0,58221.5,0.276965,0.276624,0.488008,30,0.0185135,10,0.000134995,-3.31157,-1.27071,-0.0464307,-0.883265,0.276624,
2,1,0,1,0,58221.6,0.278463,0.278115,0.486989,30,0.0185884,10,0.000135439,-3.31248,-0.842538,-0.0700265,-1.32947,0.278115,
2,1,0,1,0,58221.8,0.279962,0.279599,0.485832,30,0.0186633,10,0.000135838,-3.31351,-4.29047,-0.0137514,-0.261139,0.279599,
2,1,0,1,0,58221.9,0.281459,0.281082,0.486249,30,0.0187379,10,0.000136676,-3.31314,-1.1829,-0.0498773,-0.945155,0.281082,
2,1,0,1,0,58222.1,0.282957,0.282602,0.484885,30,0.0188125,10,0.00013703,-3.31436,-9.05048,-0.00651899,-0.123305,0.282602,
2,1,0,1,0,58222.2,0.284456,0.284108,0.485272,30,0.018887,10,0.00013787,-3.31401,-1.33562,-0.0441744,-0.835558,0.284108,
2,1,0,1,0,58222.4,0.285954,0.285636,0.483511,30,0.0189614,10,0.000138108,-3.31559,-1.21759,-0.0484562,-0.91314,0.285636,
2,1,0,1,0,58222.5,0.287452,0.287097,0.48241,30,0.0190355,10,0.000138498,-3.31658,-1.6621,-0.0354973,-0.668438,0.287097,
2,1,0,1,0,58222.7,0.28895,0.288576,0.481748,30,0.0191096,10,0.000139021,-3.31718,-6.0583,-0.0097387,-0.182759,0.288576,
2,1,0,1,0,58222.8,0.290449,0.290104,0.481356,30,0.0191836,10,0.000139643,-3.31753,-4.77485,-0.0123564,-0.232433,0.290104,
2,1,0,1,0,58223,0.291947,0.291572,0.479604,30,0.0192574,10,0.000139839,-3.31912,-1.48504,-0.0397296,-0.744331,0.291572,
2,1,0,1,0,58223.1,0.293445,0.29307,0.479045,30,0.0193311,10,0.000140394,-3.31962,-1.79159,-0.0329316,-0.615994,0.29307,
2,1,0,1,0,58223.3,0.294943,0.29458,0.478616,30,0.0194047,10,0.000140991,-3.32001,-1.52473,-0.0386955,-0.722349,0.29458,
2,1,0,1,0,58223.4,0.296442,0.296077,0.479797,30,0.0194782,10,0.000142057,-3.31894,-6.81734,-0.0086544,-0.1614,0.296077,
2,1,0,1,0,58223.6,0.297939,0.297616,0.477548,30,0.0195517,10,0.000142126,-3.32098,-0.998819,-0.0590698,-1.09849,0.297616,
2,1,0,1,0,58223.7,0.299437,0.299083,0.475453,30,0.019625,10,0.0001422,-3.32289,-0.00314617,-18.753,-196.699,0.299083,
2,1,0,1,0,58223.8,0.299738,0.299417,0.281975,30,0.0196612,10,8.4428e-05,-3.54979,0.000612523,96.3229,400.959,0.299417,
2,1,0,1,0,58224,0.29824,0.297852,0.0288779,30,0.0196764,10,8.60135e-06,-4.53943,0.00346406,17.032,130.424,0.297852,
2,1,0,1,0,58224.1,0.296741,0.296437,-0.0229878,30,0.0196744,10,-6.81442e-06,-4.6385,0.069784,0.845465,30.9802,0.296437,
2,0,0,1,0,58224.3,0.295243,0.294872,-0.0501987,30,0.0196668,10,-1.48022e-05,-4.29931,-0.00449854,-13.1154,15.9045,0.294872,
2,0,0,1,0,58224.4,0.293745,0.293389,-0.0688851,30,0.0196559,10,-2.02102e-05,-4.16187,-0.0128983,-4.57424,11.1538,0.2933892,
2,0,0,1,0,58224.6,0.292246,0.291915,-0.0836758,30,0.0196426,10,-2.44262e-05,-4.0774,-0.019528,-3.0213,9.52257,0.2919153,
2,0,0,1,0,58224.7,0.290748,0.290352,-0.0960078,30,0.0196271,10,-2.78761e-05,-4.01769,-0.0257739,-2.28914,8.38832,0.2903522,
2,0,0,1,0,58224.9,0.28925,0.288876,-0.108457,30,0.0196098,10,-3.13308e-05,-3.96474,-0.0341934,-1.72548,7.22078,0.288876,
2,0,0,1,0,58225,0.287752,0.287375,-0.118384,30,0.019591,10,-3.40205e-05,-3.92671,-0.0454009,-1.29953,5.90387,0.287375,
2,0,0,1,0,58225.2,0.286253,0.285919,-0.124518,30,0.0195708,10,-3.56021e-05,-3.90477,-0.05066,-1.16463,5.73518,0.285919,
2,0,0,1,0,58225.3,0.284755,0.284427,-0.13461,30,0.0195495,10,-3.82868e-05,-3.87092,-0.0555523,-1.06206,5.53391,0.2844274,
2,0,0,1,0,58225.5,0.283258,0.282926,-0.142757,30,0.0195267,10,-4.03895e-05,-3.8454,-0.063285,-0.93229,5.15609,0.282926,
2,0,0,1,0,58225.6,0.281759,0.281374,-0.149187,30,0.019503,10,-4.19773e-05,-3.82627,-0.0741518,-0.795665,4.59465,0.281374,
2,0,0,1,0,58225.8,0.280261,0.279921,-0.15459,30,0.0194782,10,-4.32731e-05,-3.81082,-0.0817623,-0.721604,4.37677,0.279921,
2,0,0,1,0,58225.9,0.278763,0.278382,-0.162167,30,0.0194525,10,-4.51444e-05,-3.79004,-0.0877932,-0.672034,4.23378,0.278382,
2,0,0,1,0,58226.1,0.277264,0.276867,-0.168127,30,0.0194258,10,-4.65487e-05,-3.77436,-0.0914497,-0.645164,4.24117,0.276867,
2,0,0,1,0,58226.2,0.275766,0.27542,-0.173365,30,0.0193982,10,-4.77482e-05,-3.76104,-0.112967,-0.522276,3.53741,0.27542,
2,0,0,1,0,58226.4,0.274268,0.2739,-0.180117,30,0.0193697,10,-4.93341e-05,-3.74445,-0.111493,-0.529181,3.72295,0.2739,
2,0,0,1,0,58226.5,0.27277,0.272413,-0.184943,30,0.0193406,10,-5.0381e-05,-3.73296,-0.109047,-0.54105,3.89984,0.272413,
2,0,0,1,0,58226.7,0.271272,0.270937,-0.191969,30,0.0193104,10,-5.20116e-05,-3.71677,-0.124726,-0.473037,3.52246,0.270937,
2,0,0,1,0,58226.8,0.269773,0.269445,-0.197762,30,0.0192794,10,-5.3286e-05,-3.70386,-0.126043,-0.468095,3.56903,0.269445,
2,0,0,1,0,58227,0.268275,0.267885,-0.200693,30,0.0192477,10,-5.37628e-05,-3.69747,-0.152405,-0.387127,3.03051,0.267885,
2,0,0,1,0,58227.1,0.266778,0.266453,-0.204422,30,0.0192155,10,-5.44687e-05,-3.68947,-0.163473,-0.360917,2.88093,0.266453,
2,0,0,1,0,58227.3,0.265279,0.264937,-0.209587,30,0.0191824,10,-5.55273e-05,-3.67864,-0.13026,-0.452942,3.71053,0.264937,
2,0,0,1,0,58227.4,0.263781,0.263443,-0.214242,30,0.0191487,10,-5.64406e-05,-3.6691,-0.160808,-0.366898,3.07133,0.263443,
2,0,0,1,0,58227.6,0.262283,0.261974,-0.218076,30,0.0191142,10,-5.71301e-05,-3.66139,-0.187657,-0.314404,2.68911,0.261974,
2,0,0,1,0,58227.7,0.260784,0.260418,-0.221886,30,0.0190792,10,-5.77831e-05,-3.65387,-0.187803,-0.31416,2.73225,0.260418,
2,0,0,1,0,58227.9,0.259286,0.258935,-0.228526,30,0.0190435,10,-5.91733e-05,-3.64106,-0.162076,-0.364027,3.23104,0.258935,
2,0,0,1,0,58228,0.257788,0.257451,-0.233791,30,0.0190072,10,-6.01898e-05,-3.63117,-0.215214,-0.274146,2.4667,0.257451,
2,0,0,1,0,58228.2,0.25629,0.25593,-0.236482,30,0.0189702,10,-6.0523e-05,-3.6262,-0.231264,-0.25512,2.33899,0.25593,
2,0,0,1,0,58228.3,0.254791,0.254459,-0.237513,30,0.0189327,10,-6.04373e-05,-3.62431,-0.267866,-0.220259,2.05325,0.2544587,
2,0,0,1,0,58228.5,0.253293,0.252922,-0.242939,30,0.0188947,10,-6.14446e-05,-3.6145,-0.227108,-0.259788,2.47714,0.252922,
2,0,0,1,0,58228.6,0.251796,0.25144,-0.247279,30,0.0188562,10,-6.21759e-05,-3.60681,-0.209887,-0.281104,2.70919,0.25144,
2,0,0,1,0,58228.8,0.250297,0.24996,-0.250725,30,0.0188169,10,-6.26714e-05,-3.6008,-0.247188,-0.238684,2.32773,0.2499603,
2,0,0,1,0,58228.9,0.248799,0.248413,-0.254765,30,0.0187772,10,-6.32871e-05,-3.59386,-0.271745,-0.217115,2.14087,0.248413,
2,0,0,1,0,58229.1,0.247301,0.246961,-0.256058,30,0.0187371,10,-6.32365e-05,-3.59166,-0.241266,-0.244544,2.46044,0.246961,
2,0,0,1,0,58229.2,0.245802,0.245441,-0.260513,30,0.0186965,10,-6.39406e-05,-3.58417,-0.249162,-0.236794,2.3977,0.245441,
2,0,0,1,0,58229.4,0.244304,0.24395,-0.265475,30,0.0186551,10,-6.47626e-05,-3.57598,-0.293481,-0.201035,2.06968,0.24395,
2,0,0,1,0,58229.5,0.242806,0.242416,-0.267657,30,0.0186134,10,-6.48842e-05,-3.57242,-0.350583,-0.168291,1.74964,0.2424155,
2,0,0,1,0,58229.7,0.241308,0.24095,-0.270934,30,0.0185712,10,-6.52816e-05,-3.56714,-0.349711,-0.168711,1.781,0.24095,
2,0,0,1,0,58229.8,0.23981,0.239462,-0.273643,30,0.0185286,10,-6.55272e-05,-3.56282,-0.237101,-0.248839,2.6465,0.239462,
2,0,0,1,0,58230,0.238311,0.237984,-0.277554,30,0.0184853,10,-6.60535e-05,-3.55665,-0.303249,-0.194559,2.10327,0.237984,
2,0,0,1,0,58230.1,0.236814,0.236452,-0.280216,30,0.0184417,10,-6.62577e-05,-3.55251,-0.394728,-0.14947,1.6311,0.236452,
2,0,0,1,0,58230.3,0.235316,0.234984,-0.280984,30,0.0183976,10,-6.60265e-05,-3.55132,-0.30916,-0.19084,2.10575,0.234984,
2,0,0,1,0,58230.4,0.233817,0.233455,-0.28556,30,0.0183531,10,-6.66654e-05,-3.5443,-0.270767,-0.2179,2.4234,0.233455,
2,0,0,1,0,58230.6,0.232319,0.231994,-0.290018,30,0.0183081,10,-6.72824e-05,-3.53757,-0.334732,-0.176261,1.98789,0.231994,
2,0,0,1,0,58230.7,0.230821,0.230467,-0.291087,30,0.0182626,10,-6.70859e-05,-3.53598,-0.452508,-0.130384,1.4742,0.230467,
2,0,0,1,0,58230.9,0.229322,0.228981,-0.294158,30,0.0182167,10,-6.73567e-05,-3.53142,-0.404821,-0.145743,1.67497,0.2289812,
2,0,0,1,0,58231,0.227824,0.227457,-0.296346,30,0.0181705,10,-6.74061e-05,-3.5282,-0.351361,-0.167918,1.95353,0.227457,
2,0,0,1,0,58231.2,0.226326,0.22599,-0.300427,30,0.0181238,10,-6.78935e-05,-3.52226,-0.353391,-0.166954,1.95481,0.22599,
2,0,0,1,0,58231.3,0.224828,0.224463,-0.303239,30,0.0180765,10,-6.8066e-05,-3.51821,-0.356761,-0.165377,1.95003,0.224463,
2,0,0,1,0,58231.5,0.223329,0.222979,-0.306817,30,0.0180289,10,-6.84139e-05,-3.51312,-0.324369,-0.181892,2.1764,0.222979,
2,0,0,1,0,58231.6,0.221831,0.221461,-0.307714,30,0.0179809,10,-6.81468e-05,-3.51185,-0.389546,-0.151458,1.82317,0.221461,
2,0,0,1,0,58231.8,0.220334,0.219967,-0.31183,30,0.0179325,10,-6.85924e-05,-3.50608,-0.279142,-0.211362,2.56862,0.219967,
2,0,0,1,0,58231.9,0.218835,0.218478,-0.315415,30,0.0178834,10,-6.89113e-05,-3.50112,-0.377074,-0.156468,1.9202,0.218478,
2,0,0,1,0,58232.1,0.217337,0.216998,-0.317803,30,0.017834,10,-6.89625e-05,-3.49784,-0.422404,-0.139677,1.73179,0.216998,
2,0,0,1,0,58232.2,0.215839,0.215561,-0.318445,30,0.0177842,10,-6.86443e-05,-3.49697,-0.375847,-0.156979,1.96275,0.2155607,
2,0,0,1,0,58232.4,0.21434,0.213913,-0.323083,30,0.017734,10,-6.91116e-05,-3.49069,-0.313285,-0.188327,2.3762,0.213913,
2,0,0,1,0,58232.5,0.212842,0.212466,-0.326248,30,0.0176832,10,-6.93168e-05,-3.48645,-0.417078,-0.14146,1.79858,0.212466,
2,0,0,1,0,58232.7,0.211344,0.210982,-0.329573,30,0.0176321,10,-6.95339e-05,-3.48205,-0.551808,-0.106921,1.37223,0.210982,
2,0,0,1,0,58232.8,0.209846,0.209494,-0.330132,30,0.0175806,10,-6.91608e-05,-3.48131,-0.437534,-0.134847,1.74538,0.209494,
2,0,0,1,0,58233,0.208348,0.207989,-0.33545,30,0.0175287,10,-6.97701e-05,-3.47437,-0.2917,-0.202262,2.65111,0.207989,
2,0,0,1,0,58233.1,0.206849,0.206496,-0.341862,30,0.0174762,10,-7.0593e-05,-3.46615,-0.383512,-0.153841,2.0249,0.206496,
2,0,0,1,0,58233.3,0.205352,0.204965,-0.342469,30,0.017423,10,-7.01944e-05,-3.46538,-0.453487,-0.130103,1.7248,0.204965,
2,0,0,1,0,58233.4,0.203854,0.203501,-0.3432,30,0.0173697,10,-6.98416e-05,-3.46445,-0.374831,-0.157404,2.11561,0.203501,
2,0,0,1,0,58233.6,0.202355,0.201956,-0.347352,30,0.0173161,10,-7.01498e-05,-3.45923,-0.391908,-0.150546,2.04036,0.201956,
2,0,0,1,0,58233.7,0.200857,0.20048,-0.349045,30,0.0172618,10,-6.99765e-05,-3.45712,-0.4187,-0.140913,1.92159,0.20048,
2,0,0,1,0,58233.9,0.199359,0.199022,-0.353165,30,0.0172072,10,-7.02874e-05,-3.45202,-0.425176,-0.138766,1.90868,0.199022,
2,0,0,1,0,58234,0.19786,0.197468,-0.355538,30,0.0171521,10,-7.02074e-05,-3.44911,-0.440797,-0.133849,1.85492,0.197468,
2,0,0,1,0,58234.2,0.196362,0.19599,-0.358662,30,0.0170966,10,-7.02942e-05,-3.44531,-0.408307,-0.144499,2.0267,0.19599,
2,0,0,1,0,58234.3,0.194864,0.194496,-0.363786,30,0.0170405,10,-7.07548e-05,-3.43915,-0.348971,-0.169069,2.39125,0.194496,
2,0,0,1,0,58234.5,0.193366,0.193006,-0.36598,30,0.0169839,10,-7.06362e-05,-3.43654,-0.360563,-0.163633,2.33547,0.193006,
2,0,0,1,0,58234.6,0.191867,0.191495,-0.368338,30,0.0169268,10,-7.05349e-05,-3.43375,-0.480906,-0.122685,1.7683,0.191495,
2,0,0,1,0,58234.8,0.190369,0.190021,-0.370505,30,0.0168694,10,-7.04035e-05,-3.43121,-0.40205,-0.146748,2.13825,0.190021,
2,0,0,1,0,58234.9,0.188872,0.188492,-0.374417,30,0.0168115,10,-7.05747e-05,-3.42664,-0.302615,-0.194967,2.85536,0.188492,
2,0,0,1,0,58235.1,0.187373,0.186987,-0.377484,30,0.0167529,10,-7.05846e-05,-3.4231,-0.359479,-0.164127,2.4273,0.186987,
2,0,0,1,0,58235.2,0.185875,0.185499,-0.381536,30,0.0166939,10,-7.07746e-05,-3.41846,-0.442536,-0.133322,1.9887,0.185499,
2,0,0,1,0,58235.4,0.184377,0.184044,-0.38406,30,0.0166345,10,-7.0684e-05,-3.4156,-0.348119,-0.169482,2.54778,0.184044,
2,0,0,1,0,58235.5,0.182878,0.182545,-0.389436,30,0.0165745,10,-7.10896e-05,-3.40956,-0.34002,-0.173519,2.63967,0.182545,
2,0,0,1,0,58235.7,0.18138,0.181072,-0.392272,30,0.0165139,10,-7.10295e-05,-3.40641,-0.455987,-0.12939,1.98704,0.181072,
2,0,0,1,0,58235.8,0.179882,0.179514,-0.396132,30,0.0164526,10,-7.11114e-05,-3.40216,-0.452186,-0.130477,2.02138,0.179514,
2,0,0,1,0,58236,0.178384,0.178032,-0.400814,30,0.016391,10,-7.13577e-05,-3.39706,-0.436435,-0.135186,2.11589,0.178032,
2,0,0,1,0,58236.1,0.176886,0.176515,-0.40458,30,0.0163288,10,-7.14147e-05,-3.393,-0.310048,-0.190293,3.00843,0.176515,
2,0,0,1,0,58236.3,0.175387,0.175009,-0.409035,30,0.0162659,10,-7.15846e-05,-3.38824,-0.266707,-0.221217,3.52169,0.175009,
2,0,0,1,0,58236.4,0.17389,0.173517,-0.413813,30,0.0162022,10,-7.18036e-05,-3.3832,-0.301324,-0.195802,3.15024,0.173517,
2,0,0,1,0,58236.6,0.172392,0.172034,-0.416988,30,0.0161379,10,-7.1736e-05,-3.37988,-0.334557,-0.176353,2.87702,0.172034,
2,0,0,1,0,58236.7,0.170893,0.170515,-0.421747,30,0.016073,10,-7.19141e-05,-3.37495,-0.337163,-0.174989,2.88681,0.170515,
2,0,0,1,0,58236.9,0.169395,0.169031,-0.427339,30,0.0160074,10,-7.22336e-05,-3.36923,-0.233171,-0.253034,4.20972,0.169031,
2,0,0,1,0,58237,0.167897,0.167553,-0.432966,30,0.0159408,10,-7.25448e-05,-3.36355,-0.29842,-0.197708,3.34323,0.167553,
2,0,0,1,0,58237.2,0.166398,0.166026,-0.436809,30,0.0158735,10,-7.25216e-05,-3.35971,-0.329184,-0.179231,3.06402,0.166026,
2,0,0,1,0,58237.3,0.1649,0.16453,-0.443119,30,0.0158054,10,-7.29063e-05,-3.35348,-0.256084,-0.230393,3.9974,0.1645297,
2,0,0,1,0,58237.5,0.163402,0.163081,-0.450619,30,0.0157364,10,-7.34875e-05,-3.34619,-0.245279,-0.240542,4.22288,0.1630812,
2,0,0,1,0,58237.6,0.161904,0.161535,-0.459259,30,0.0156663,10,-7.41864e-05,-3.33794,-0.222529,-0.265134,4.73154,0.161535,
2,0,0,1,0,58237.8,0.160405,0.160016,-0.465273,30,0.015595,10,-7.44508e-05,-3.33229,-0.222207,-0.265519,4.80647,0.160016,
2,0,0,1,0,58237.9,0.158907,0.158534,-0.471309,30,0.0155228,10,-7.47184e-05,-3.32669,-0.205348,-0.287317,5.30514,0.158534,
2,0,0,1,0,58238.1,0.15741,0.157025,-0.480872,30,0.0154495,10,-7.55087e-05,-3.31797,-0.167158,-0.352958,6.6413,0.157025,
2,0,0,1,0,58238.2,0.155911,0.155508,-0.489302,30,0.0153746,10,-7.60903e-05,-3.31042,-0.156403,-0.377232,7.22779,0.155508,
2,0,0,1,0,58238.4,0.154413,0.154069,-0.500651,30,0.0152981,10,-7.71346e-05,-3.30047,-0.173835,-0.339402,6.62787,0.154069,
2,0,0,1,0,58238.5,0.152915,0.152542,-0.511634,30,0.0152202,10,-7.80456e-05,-3.29104,-0.154234,-0.382537,7.64237,0.152542,
2,0,0,1,0,58238.7,0.151417,0.15104,-0.523283,30,0.0151407,10,-7.90368e-05,-3.28126,-0.143775,-0.410364,8.38993,0.15104,
2,0,0,1,0,58238.8,0.149918,0.149558,-0.53833,30,0.0150592,10,-8.05114e-05,-3.26895,-0.128088,-0.46062,9.65255,0.149558,
2,0,0,1,0,58239,0.14842,0.148056,-0.551875,30,0.0149755,10,-8.17085e-05,-3.25816,-0.119136,-0.495233,10.6844,0.148056,
2,0,0,1,0,58239.1,0.146922,0.146501,-0.569616,30,0.0148894,10,-8.34491e-05,-3.24442,-0.111194,-0.530606,11.8106,0.146501,
2,0,0,1,0,58239.3,0.145424,0.145053,-0.586185,30,0.0148008,10,-8.50281e-05,-3.23197,-0.100908,-0.584694,13.4424,0.145053,
2,0,0,1,0,58239.4,0.143925,0.143585,-0.609607,30,0.0147091,10,-8.75307e-05,-3.21495,-0.0876309,-0.673279,16.0069,0.143585,
2,0,0,1,0,58239.6,0.142428,0.142077,-0.633457,30,0.014614,10,-8.99996e-05,-3.19828,-0.0889399,-0.663369,16.3848,0.142077,
2,0,0,1,0,58239.7,0.14093,0.140557,-0.656107,30,0.0145153,10,-9.22204e-05,-3.18303,-0.0907865,-0.649877,16.6804,0.140557,
2,0,0,1,0,58239.9,0.139431,0.139054,-0.679773,30,0.0144129,10,-9.45255e-05,-3.16764,-0.0840042,-0.702346,18.7336,0.139054,
2,0,0,1,0,58240,0.137933,0.137609,-0.711189,30,0.0143065,10,-9.78661e-05,-3.14801,-0.0813218,-0.725513,20.1517,0.137609,
2,0,0,1,0,58240.2,0.136435,0.136079,-0.741221,30,0.0141955,10,-0.000100865,-3.13005,-0.0845941,-0.697449,20.116,0.136079,
2,0,0,1,0,58240.3,0.134936,0.134544,-0.771739,30,0.01408,10,-0.000103832,-3.11253,-0.0884731,-0.66687,20.0619,0.134544,
2,0,0,1,0,58240.5,0.133438,0.133074,-0.801573,30,0.01396,10,-0.000106668,-3.09606,-0.0875725,-0.673728,21.0954,0.133074,
2,0,0,1,0,58240.6,0.13194,0.131608,-0.833696,30,0.0138354,10,-0.000109721,-3.07899,-0.0914657,-0.64505,21.0552,0.131608,
2,0,0,1,0,58240.8,0.130442,0.130111,-0.865618,30,0.0137059,10,-0.000112626,-3.06267,-0.0957747,-0.616029,20.7617,0.130111,
2,0,0,1,0,58240.9,0.128943,0.128562,-0.895869,30,0.0135716,10,-0.000115175,-3.04776,-0.106484,-0.554074,19.3392,0.128562,
2,0,0,1,0,58241.1,0.127445,0.127078,-0.924805,30,0.013433,10,-0.000117522,-3.03395,-0.112895,-0.522609,18.8505,0.127078,
2,0,0,1,0,58241.2,0.125948,0.125587,-0.952489,30,0.0132903,10,-0.00011962,-3.02114,-0.119353,-0.49433,18.3484,0.125587,
2,0,0,1,0,58241.4,0.124449,0.124074,-0.979226,30,0.0131432,10,-0.000121497,-3.00912,-0.125686,-0.469422,17.9056,0.124074,
2,0,0,1,0,58241.5,0.122951,0.12257,-1.00707,30,0.0129921,10,-0.000123437,-2.99694,-0.142938,-0.412766,16.1708,0.12257,
2,0,0,1,0,58241.7,0.121453,0.121122,-1.02906,30,0.0128374,10,-0.000124642,-2.98756,-0.169038,-0.349035,13.9898,0.121122,
2,0,0,1,0,58241.8,0.119955,0.119592,-1.04781,30,0.0126795,10,-0.00012531,-2.97972,-0.191285,-0.30844,12.6215,0.119592,
2,0,0,1,0,58242,0.118456,0.118104,-1.06763,30,0.0125187,10,-0.000126091,-2.97158,-0.202123,-0.291902,12.1468,0.118104,
2,0,0,1,0,58242.1,0.116958,0.116529,-1.08602,30,0.0123551,10,-0.000126553,-2.96416,-0.25811,-0.228585,9.66142,0.116529,
2,0,0,1,0,58242.3,0.11546,0.115089,-1.09877,30,0.0121894,10,-0.000126456,-2.9591,-0.356892,-0.165316,7.06062,0.115089,
2,0,0,1,0,58242.4,0.113962,0.11362,-1.10584,30,0.012022,10,-0.000125645,-2.95631,-0.430189,-0.137149,5.91496,0.11362,
2,0,0,1,0,58242.6,0.112463,0.112089,-1.1138,30,0.0118534,10,-0.000124844,-2.95319,-0.611968,-0.0964103,4.186,0.112089,
2,0,0,1,0,58242.7,0.110966,0.110608,-1.12093,30,0.0116839,10,-0.000123985,-2.95042,-1.0028,-0.0588354,2.56384,0.110608,
2,0,0,1,0,58242.9,0.109468,0.10909,-1.12116,30,0.0115137,10,-0.000122306,-2.95033,-14.914,-0.00395602,0.172633,0.10909,
2,0,0,1,0,58243,0.107969,0.1076,-1.12137,30,0.0113433,10,-0.000120659,-2.95025,6.12114,0.00963873,-0.422126,0.1076,
2,0,0,1,0,58243.2,0.106471,0.106118,-1.12089,30,0.0111734,10,-0.000118947,-2.95044,4.63337,0.0127337,-0.557069,0.106118,
2,0,0,1,0,58243.3,0.104973,0.104621,-1.11983,30,0.0110034,10,-0.000117158,-2.95085,2.20451,0.0267633,-1.1673,0.104621,
2,0,0,1,0,58243.5,0.103474,0.103128,-1.11837,30,0.0108335,10,-0.000115336,-2.95141,0.981872,0.0600893,-2.61364,0.103128,
2,0,0,1,0,58243.6,0.101976,0.101612,-1.11498,30,0.0106644,10,-0.000113294,-2.95273,0.745668,0.0791237,-3.43658,0.101612,
2,0,0,1,0,58243.8,0.100478,0.100123,-1.10727,30,0.0104962,10,-0.000110863,-2.95574,0.823928,0.0716082,-3.09403,0.100123,
2,0,0,1,0,58243.9,0.0989798,0.098653,-1.10435,30,0.0103286,10,-0.000108948,-2.95689,0.821577,0.0718131,-3.0886,0.098653,
2,0,0,1,0,58244,0.0974808,0.0970961,-1.09795,30,0.0101615,10,-0.000106606,-2.95942,0.877131,0.0672648,-2.87988,0.09709613,
2,0,0,1,0,58244.2,0.0959833,0.0956229,-1.09431,30,0.00999526,10,-0.000104641,-2.96086,0.680936,0.0866455,-3.69341,0.0956229,
2,0,0,1,0,58244.3,0.0944857,0.094136,-1.08477,30,0.00982995,10,-0.000102115,-2.96466,0.759643,0.077668,-3.29432,0.094136,
2,0,0,1,0,58244.5,0.0929871,0.0926596,-1.08103,30,0.00966533,10,-0.000100168,-2.96616,1.11969,0.0526931,-2.22518,0.0926596,
2,0,0,1,0,58244.6,0.0914889,0.0911315,-1.07792,30,0.00950143,10,-9.82325e-05,-2.96741,0.741562,0.0795618,-3.34269,0.0911315,
2,0,0,1,0,58244.8,0.0899907,0.0896183,-1.07169,30,0.00933823,10,-9.60428e-05,-2.96993,0.66756,0.0883816,-3.69007,0.0896183,
2,0,0,1,0,58244.9,0.0884925,0.0881338,-1.06342,30,0.00917595,10,-9.37231e-05,-2.9733,0.645744,0.0913675,-3.79926,0.0881338,
2,0,0,1,0,58245.1,0.0869943,0.0866513,-1.06107,30,0.0090146,10,-9.1943e-05,-2.97426,0.658356,0.0896172,-3.71478,0.08665134,
2,0,0,1,0,58245.2,0.0854961,0.0851106,-1.05648,30,0.00885385,10,-8.99174e-05,-2.97614,0.744628,0.0792342,-3.26751,0.0851106,
2,0,0,1,0,58245.4,0.083998,0.0836186,-1.05012,30,0.00869378,10,-8.78098e-05,-2.97876,0.5571,0.105906,-4.34149,0.0836186,
2,0,0,1,0,58245.5,0.0824998,0.082169,-1.04532,30,0.00853444,10,-8.58932e-05,-2.98075,0.637644,0.0925281,-3.77708,0.082169,
2,0,0,1,0,58245.7,0.0810011,0.0806598,-1.04016,30,0.00837618,10,-8.3899e-05,-2.9829,0.726057,0.0812608,-3.30094,0.0806598,
2,0,0,1,0,58245.8,0.0795036,0.0791388,-1.03487,30,0.00821868,10,-8.18986e-05,-2.98511,0.849548,0.0694487,-2.80134,0.0791388,
2,0,0,1,0,58246,0.0780061,0.0776463,-1.02952,30,0.00806185,10,-7.99382e-05,-2.98737,0.708719,0.0832487,-3.3417,0.0776463,
2,0,0,1,0,58246.1,0.076507,0.0761565,-1.02438,30,0.00790575,10,-7.80129e-05,-2.98954,0.587746,0.100384,-4.00803,0.07615649,
2,0,0,1,0,58246.3,0.0750088,0.074673,-1.01718,30,0.00775086,10,-7.5956e-05,-2.9926,0.575191,0.102575,-4.07359,0.07467299,
2,0,0,1,0,58246.4,0.0735106,0.0731375,-1.0114,30,0.00759671,10,-7.39712e-05,-2.99508,0.735295,0.0802399,-3.16481,0.0731375,
2,0,0,1,0,58246.6,0.0720124,0.0716678,-1.00635,30,0.00744333,10,-7.21228e-05,-2.99725,0.644448,0.0915513,-3.60035,0.07166779,
2,0,0,1,0,58246.7,0.0705142,0.0701154,-1.00199,30,0.00729076,10,-7.02545e-05,-2.99914,0.545484,0.108161,-4.22499,0.07011535,
2,0,0,1,0,58246.9,0.069016,0.0686955,-0.99238,30,0.00713925,10,-6.8172e-05,-3.00332,0.509959,0.115696,-4.4955,0.0686955,
2,0,0,1,0,58247,0.0675179,0.0671452,-0.990489,30,0.00698857,10,-6.65066e-05,-3.00415,0.730022,0.0808195,-3.12086,0.0671452,
2,0,0,1,0,58247.2,0.0660188,0.0656599,-0.988145,30,0.0068385,10,-6.48815e-05,-3.00518,0.662048,0.0891174,-3.42239,0.0656599,
2,0,0,1,0,58247.3,0.0645213,0.0641678,-0.979413,30,0.00668922,10,-6.28468e-05,-3.00903,0.528201,0.1117,-4.26147,0.0641678,
2,0,0,1,0,58247.5,0.0630237,0.0626909,-0.971412,30,0.00654095,10,-6.08987e-05,-3.0126,0.51252,0.115117,-4.37087,0.0626909,
2,0,0,1,0,58247.6,0.0615251,0.0611592,-0.964489,30,0.00639364,10,-5.89873e-05,-3.0157,0.587855,0.100365,-3.78786,0.0611592,
2,0,0,1,0,58247.8,0.0600269,0.0596544,-0.960425,30,0.0062472,10,-5.72936e-05,-3.01754,0.606625,0.0972594,-3.64717,0.0596544,
2,0,0,1,0,58247.9,0.0585287,0.0581455,-0.955266,30,0.00610147,10,-5.55444e-05,-3.01988,0.476609,0.123791,-4.60649,0.0581455,
2,0,0,1,0,58248.1,0.0570305,0.0566673,-0.948426,30,0.00595669,10,-5.37447e-05,-3.023,0.515131,0.114534,-4.24242,0.0566673,
2,0,0,1,0,58248.2,0.0555323,0.05517,-0.943285,30,0.00581306,10,-5.2041e-05,-3.02536,0.527963,0.11175,-4.11254,0.05517,
2,0,0,1,0,58248.4,0.0540342,0.0536971,-0.937366,30,0.00567015,10,-5.03338e-05,-3.02809,0.613461,0.0961756,-3.51662,0.0536971,
2,0,0,1,0,58248.5,0.052536,0.0521478,-0.933447,30,0.00552798,10,-4.86772e-05,-3.02991,0.534046,0.110477,-4.01571,0.0521478,
2,0,0,1,0,58248.7,0.0510378,0.0506855,-0.925223,30,0.00538676,10,-4.68954e-05,-3.03375,0.468798,0.125854,-4.54478,0.0506855,
2,0,0,1,0,58248.8,0.0495391,0.0492078,-0.917905,30,0.00524659,10,-4.51681e-05,-3.0372,0.526948,0.111965,-4.01661,0.0492078,
2,0,0,1,0,58249,0.0480416,0.0476986,-0.912817,30,0.00510739,10,-4.35401e-05,-3.03962,0.621543,0.0949251,-3.37607,0.0476986,
2,0,0,1,0,58249.1,0.0465441,0.046154,-0.905355,30,0.00496907,10,-4.17857e-05,-3.04318,0.561232,0.105126,-3.72084,0.046154,
2,0,0,1,0,58249.3,0.045045,0.0446804,-0.900241,30,0.00483163,10,-4.02232e-05,-3.04564,0.521198,0.113201,-3.9743,0.0446804,
2,0,0,1,0,58249.4,0.0435468,0.0431524,-0.891266,30,0.00469529,10,-3.84602e-05,-3.04999,0.480757,0.122723,-4.27597,0.0431524,
2,0,0,1,0,58249.6,0.0420486,0.0417155,-0.886133,30,0.00456003,10,-3.69655e-05,-3.0525,0.52515,0.112349,-3.8911,0.0417155,
2,0,0,1,0,58249.7,0.0405504,0.0401727,-0.882794,30,0.00442551,10,-3.54642e-05,-3.05414,0.478823,0.123219,-4.2359,0.0401727,
2,0,0,1,0,58249.9,0.0390523,0.0386945,-0.875606,30,0.00429187,10,-3.38811e-05,-3.05769,0.418263,0.14106,-4.81222,0.0386945,
2,0,0,1,0,58250,0.0375541,0.0371707,-0.866204,30,0.00415931,10,-3.21974e-05,-3.06238,0.434266,0.135862,-4.60412,0.0371707,
2,0,0,1,0,58250.2,0.0360559,0.0356861,-0.861169,30,0.00402798,10,-3.07317e-05,-3.06491,0.457939,0.128838,-4.33237,0.0356861,
2,0,0,1,0,58250.3,0.0345568,0.0341965,-0.854663,30,0.00389729,10,-2.92265e-05,-3.06821,0.473448,0.124618,-4.15479,0.0341965,
2,0,0,1,0,58250.5,0.0330593,0.0326955,-0.84715,30,0.00376759,10,-2.7698e-05,-3.07204,0.411479,0.143385,-4.74364,0.0326955,
2,0,0,1,0,58250.6,0.0315618,0.0311648,-0.841581,30,0.00363888,10,-2.62277e-05,-3.0749,0.410035,0.14389,-4.72767,0.0311648,
2,0,0,1,0,58250.8,0.0300631,0.0296958,-0.834158,30,0.00351133,10,-2.4771e-05,-3.07875,0.467376,0.126237,-4.11414,0.0296958,
2,0,0,1,0,58250.9,0.0285649,0.0281784,-0.828828,30,0.0033846,10,-2.33551e-05,-3.08154,0.497484,0.118597,-3.83044,0.0281784,
2,0,0,1,0,58251.1,0.0270667,0.0267405,-0.822336,30,0.00325871,10,-2.19897e-05,-3.08495,0.442893,0.133215,-4.27932,0.0267405,
2,0,0,1,0,58251.2,0.0255685,0.0252209,-0.816614,30,0.00313371,10,-2.05958e-05,-3.08798,0.426833,0.138227,-4.40841,0.0252209,
2,0,0,1,0,58251.4,0.0240704,0.0237576,-0.807563,30,0.00300979,10,-1.91857e-05,-3.09282,0.511246,0.115404,-3.65553,0.0237576,
2,0,0,1,0,58251.5,0.0225722,0.0222041,-0.805722,30,0.0028866,10,-1.78903e-05,-3.09381,0.617607,0.09553,-3.00437,0.0222041,
2,0,0,1,0,58251.7,0.021074,0.0206972,-0.801567,30,0.00276412,10,-1.65902e-05,-3.09606,0.637891,0.0924922,-2.89029,0.0206972,
2,0,0,1,0,58251.8,0.0195758,0.0191734,-0.796682,30,0.00264234,10,-1.52751e-05,-3.09871,0.483019,0.122148,-3.79041,0.01917343,
2,0,0,1,0,58252,0.0180771,0.017736,-0.790787,30,0.00252126,10,-1.40254e-05,-3.10194,0.66082,0.089283,-2.75672,0.017736,
2,0,0,1,0,58252.1,0.0165796,0.0162714,-0.786764,30,0.00240107,10,-1.28018e-05,-3.10416,0.817672,0.0721561,-2.21767,0.01627144,
2,0,0,1,0,58252.3,0.0150821,0.0147091,-0.784792,30,0.00228133,10,-1.15436e-05,-3.10525,0.799965,0.0737532,-2.25408,0.0147091,
2,0,0,1,0,58252.4,0.013583,0.0131821,-0.781691,30,0.00216184,10,-1.03044e-05,-3.10696,0.70629,0.083535,-2.5405,0.0131821,
2,0,0,1,0,58252.6,0.0120848,0.0117495,-0.776418,30,0.0020431,10,-9.12254e-06,-3.1099,0.822975,0.0716911,-2.17392,0.0117495,
2,0,0,1,0,58252.7,0.0105866,0.0102109,-0.77289,30,0.00192494,10,-7.89188e-06,-3.11188,1.45005,0.0406883,-1.23123,0.0102109,
2,0,0,1,0,58252.9,0.00908846,0.00876024,-0.771904,30,0.00180708,10,-6.76206e-06,-3.11244,1.93394,0.0305076,-0.920226,0.008760239,
2,0,0,1,0,58253,0.00759027,0.0072025,-0.770075,30,0.00168935,10,-5.54647e-06,-3.11347,1.37336,0.0429603,-1.29245,0.0072025,
2,0,0,1,0,58253.2,0.00609207,0.00573172,-0.770614,30,0.00157186,10,-4.41694e-06,-3.11316,1.87842,0.0314094,-0.943562,0.00573172,
2,0,0,1,0,58253.3,0.00459389,0.00423442,-0.768438,30,0.00145465,10,-3.25389e-06,-3.11439,1.98532,0.0297182,-0.891283,0.00423442,
2,0,0,1,0,58253.5,0.0030948,0.00273495,-0.769386,30,0.00133737,10,-2.10423e-06,-3.11386,-1.70664,-0.0345708,1.03942,0.00273495,
2,0,0,1,0,58253.6,0.00159728,0.00118462,-0.776382,30,0.00121908,10,-9.19718e-07,-3.10992, , , ,0.00118462,
2,0,0,1,0,58253.8,0.000199195,-0.000185986,-0.770768,30,0.001109,10,1.43352e-07,-3.11308, , , ,-0.000185986,