File: Figure_codes/Fig_3-5/rawdata_trumpetplot_data/after 10th/20221101_1-115_003_TrumpetPlot_ParaChange_from10_every3_05_CV_C01_30.csv
mode,ox/red,error,control changes,counter inc.,time/s,control/V,Ewe/V,<I>/mA,cycle number,(Q-Qo)/C,I Range,P/W,log(|I|),Tafel slope mV/dec,alpha_eff,dI/d(E-IR),E-IR/V,
2,0,0,1,0,60223.9,2.44065e-05,-0.00042076,-0.757051,31,0.0000000E+000,10,3.18537e-07,-3.12087, , , ,-0.00042076,
2,0,0,1,0,60224,0.00129787,0.000913241,-0.0480872,31,-1.91154e-05,10,-4.39152e-08,-4.31797, , , ,0.000913241,
2,1,0,1,0,60224.1,0.00279606,0.00247429,0.295909,31,-7.28486e-06,10,7.32166e-07,-3.52884,0.0129869,4.54304,179.109,0.00247429,
2,1,0,1,0,60224.1,0.00429425,0.00395699,0.454004,31,2.24148e-05,10,1.79649e-06,-3.34294,0.0090762,6.50052,91.4667,0.00395699,
2,1,0,1,0,60224.2,0.00579244,0.00542797,0.548615,31,6.13866e-05,10,2.97787e-06,-3.26073,0.0214143,2.75516,55.239,0.00542797,
2,1,0,1,0,60224.3,0.00729063,0.0069184,0.615761,31,0.00010626,10,4.26008e-06,-3.21059,0.035269,1.67286,39.1872,0.0069184,
2,1,0,1,0,60224.4,0.00878882,0.00843465,0.666315,31,0.00015546,10,5.62013e-06,-3.17632,0.0506115,1.16574,29.7531,0.00843465,
2,1,0,1,0,60224.4,0.010287,0.00995531,0.707681,31,0.000208044,10,7.04518e-06,-3.15016,0.0677915,0.870316,23.6917,0.00995531,
2,1,0,1,0,60224.5,0.0117852,0.0114558,0.736228,31,0.000263204,10,8.43409e-06,-3.13299,0.0865438,0.681736,19.5184,0.0114558,
2,1,0,1,0,60224.6,0.0132847,0.0129573,0.763892,31,0.000320559,10,9.89799e-06,-3.11697,0.0943876,0.625082,18.6451,0.0129573,
2,1,0,1,0,60224.7,0.0147802,0.0143716,0.789708,31,0.000379826,10,1.13493e-05,-3.10253,0.10666,0.553159,17.0262,0.0143716,
2,1,0,1,0,60224.7,0.0162798,0.0159688,0.813575,31,0.000441191,10,1.29918e-05,-3.0896,0.130743,0.451268,14.2985,0.01596877,
2,1,0,1,0,60224.8,0.017778,0.0174174,0.835359,31,0.000504104,10,1.45498e-05,-3.07813,0.144234,0.409059,13.2947,0.0174174,
2,1,0,1,0,60224.9,0.0192761,0.018957,0.853546,31,0.000568346,10,1.61806e-05,-3.06877,0.151224,0.39015,13.0031,0.018957,
2,1,0,1,0,60225,0.0207743,0.0204342,0.875179,31,0.000634108,10,1.78836e-05,-3.0579,0.152441,0.387036,13.1584,0.0204342,
2,1,0,1,0,60225,0.0222725,0.0219423,0.893325,31,0.000701388,10,1.96016e-05,-3.04899,0.163811,0.36017,12.5278,0.0219423,
2,1,0,1,0,60225.1,0.0237707,0.0234524,0.911395,31,0.000770076,10,2.13744e-05,-3.04029,0.181427,0.3252,11.5483,0.0234524,
2,1,0,1,0,60225.2,0.0252689,0.0249073,0.928059,31,0.000839998,10,2.31154e-05,-3.03242,0.178497,0.330538,12.0028,0.0249073,
2,1,0,1,0,60225.3,0.0267671,0.0264245,0.948186,31,0.00091125,10,2.50554e-05,-3.02311,0.163009,0.361943,13.3674,0.0264245,
2,1,0,1,0,60225.3,0.0282653,0.0279473,0.966582,31,0.000983958,10,2.70133e-05,-3.01476,0.183794,0.321012,12.0956,0.0279473,
2,1,0,1,0,60225.4,0.0297644,0.029433,0.982153,31,0.00105815,10,2.89077e-05,-3.00782,0.190009,0.310512,11.8923,0.029433,
2,1,0,1,0,60225.5,0.0312599,0.0308988,0.999216,31,0.00113343,10,3.08746e-05,-3.00034,0.192514,0.306471,11.9659,0.0308988,
2,1,0,1,0,60225.6,0.0327599,0.032415,1.01588,31,0.00121012,10,3.29298e-05,-2.99316,0.198758,0.296843,11.8005,0.032415,
2,1,0,1,0,60225.6,0.034258,0.0339181,1.03573,31,0.00128811,10,3.51301e-05,-2.98475,0.206284,0.286014,11.5616,0.0339181,
2,1,0,1,0,60225.7,0.0357562,0.0354038,1.05603,31,0.00136752,10,3.73874e-05,-2.97633,0.213342,0.276552,11.3581,0.0354038,
2,1,0,1,0,60225.8,0.0372544,0.0368947,1.07247,31,0.00144818,10,3.95686e-05,-2.96961,0.225843,0.261244,10.9308,0.03689469,
2,1,0,1,0,60225.9,0.0387526,0.0383892,1.08894,31,0.00153002,10,4.18037e-05,-2.96299,0.210058,0.280875,11.9543,0.0383892,
2,1,0,1,0,60225.9,0.0402508,0.0399012,1.1059,31,0.00161329,10,4.41266e-05,-2.95629,0.218709,0.269765,11.6484,0.0399012,
2,1,0,1,0,60226,0.041749,0.0414013,1.12631,31,0.00169806,10,4.66308e-05,-2.94834,0.240973,0.244841,10.74,0.0414013,
2,1,0,1,0,60226.1,0.0432472,0.0429244,1.14358,31,0.00178405,10,4.90875e-05,-2.94173,0.239365,0.246486,10.9789,0.0429244,
2,1,0,1,0,60226.2,0.0447449,0.0444121,1.15861,31,0.00187116,10,5.14564e-05,-2.93606,0.233535,0.252639,11.417,0.0444121,
2,1,0,1,0,60226.2,0.0462445,0.0458852,1.17639,31,0.00195976,10,5.39787e-05,-2.92945,0.219885,0.268322,12.2858,0.0458852,
2,1,0,1,0,60226.3,0.04774,0.0473943,1.19315,31,0.00204944,10,5.65486e-05,-2.9233,0.224956,0.262274,12.2074,0.0473943,
2,1,0,1,0,60226.4,0.0492399,0.0488786,1.20771,31,0.00214055,10,5.90314e-05,-2.91804,0.278298,0.212003,10.0085,0.0488786,
2,1,0,1,0,60226.5,0.0507381,0.0503854,1.2219,31,0.00223274,10,6.15658e-05,-2.91297,0.263956,0.223522,10.6755,0.0503854,
2,1,0,1,0,60226.5,0.0522363,0.051885,1.24021,31,0.00232615,10,6.43484e-05,-2.9065,0.259796,0.227101,10.986,0.051885,
2,1,0,1,0,60226.6,0.0537345,0.0533554,1.26055,31,0.00242085,10,6.72572e-05,-2.89944,0.265143,0.222521,10.9208,0.0533554,
2,1,0,1,0,60226.7,0.0552327,0.0548892,1.27537,31,0.00251681,10,7.00038e-05,-2.89436,0.286208,0.206144,10.2292,0.0548892,
2,1,0,1,0,60226.8,0.0567309,0.0563572,1.28575,31,0.0026139,10,7.24615e-05,-2.89084,0.327841,0.179965,9.05159,0.0563572,
2,1,0,1,0,60226.8,0.0582291,0.0578836,1.30385,31,0.00271194,10,7.54717e-05,-2.88477,0.331388,0.178039,9.07096,0.0578836,
2,1,0,1,0,60226.9,0.0597291,0.059413,1.31888,31,0.00281126,10,7.83588e-05,-2.87979,0.300613,0.196266,10.0966,0.059413,
2,1,0,1,0,60227,0.0612246,0.0608838,1.33411,31,0.00291148,10,8.12259e-05,-2.87481,0.359596,0.164073,8.51102,0.0608838,
2,1,0,1,0,60227.1,0.0627241,0.0623988,1.34686,31,0.00301302,10,8.40426e-05,-2.87068,0.359513,0.164111,8.62051,0.06239875,
2,1,0,1,0,60227.1,0.0642218,0.0638867,1.35609,31,0.00311528,10,8.66361e-05,-2.86771,0.342516,0.172255,9.14531,0.0638867,
2,1,0,1,0,60227.2,0.06572,0.0653806,1.37181,31,0.00321865,10,8.96896e-05,-2.86271,0.34289,0.172067,9.21419,0.0653806,
2,1,0,1,0,60227.3,0.0672182,0.0668353,1.38767,31,0.00332316,10,9.2745e-05,-2.85772,0.357584,0.164996,8.92064,0.0668353,
2,1,0,1,0,60227.4,0.0687164,0.0683411,1.39847,31,0.00342863,10,9.55734e-05,-2.85435,0.423128,0.139438,7.60969,0.0683411,
2,1,0,1,0,60227.4,0.0702146,0.0698566,1.40801,31,0.00353484,10,9.83591e-05,-2.85139,0.473979,0.124478,6.85051,0.0698566,
2,1,0,1,0,60227.5,0.0717128,0.0713446,1.42286,31,0.00364192,10,0.000101513,-2.84684,0.405103,0.145642,8.07466,0.0713446,
2,1,0,1,0,60227.6,0.073211,0.0728346,1.43257,31,0.00374985,10,0.00010434,-2.84388,0.4831,0.122128,6.83177,0.0728346,
2,1,0,1,0,60227.7,0.0747092,0.0743867,1.44279,31,0.00385866,10,0.000107324,-2.8408,0.498754,0.118295,6.6514,0.0743867,
2,1,0,1,0,60227.7,0.0762087,0.0758402,1.44828,31,0.00396822,10,0.000109838,-2.83915,0.525471,0.11228,6.36096,0.07584022,
2,1,0,1,0,60227.8,0.0777042,0.0773214,1.45986,31,0.00407817,10,0.000112878,-2.83569,0.451554,0.13066,7.4542,0.0773214,
2,1,0,1,0,60227.9,0.0792037,0.0788679,1.47462,31,0.00418922,10,0.0001163,-2.83132,0.475888,0.123979,7.11783,0.0788679,
2,1,0,1,0,60228,0.0807019,0.0803388,1.48104,31,0.00430099,10,0.000118985,-2.82943,0.516858,0.114151,6.58891,0.0803388,
2,1,0,1,0,60228,0.0822001,0.0818517,1.48881,31,0.0044134,10,0.000121862,-2.82716,0.596484,0.098913,5.75279,0.0818517,
2,1,0,1,0,60228.1,0.0836983,0.0833578,1.50015,31,0.00452641,10,0.000125049,-2.82387,0.529405,0.111446,6.5294,0.0833578,
2,1,0,1,0,60228.2,0.0851965,0.0848572,1.50839,31,0.00464016,10,0.000127998,-2.82149,0.501839,0.117568,6.93159,0.0848572,
2,1,0,1,0,60228.3,0.0866947,0.0863344,1.52028,31,0.00475476,10,0.000131252,-2.81808,0.542761,0.108703,6.45293,0.0863344,
2,1,0,1,0,60228.3,0.0881929,0.0878526,1.53251,31,0.00487016,10,0.000134635,-2.8146,0.55781,0.105771,6.32403,0.08785262,
2,1,0,1,0,60228.4,0.0896911,0.0893236,1.54081,31,0.00498624,10,0.00013763,-2.81225,0.455668,0.12948,7.8074,0.08932358,
2,1,0,1,0,60228.5,0.0911893,0.0908146,1.55705,31,0.00510329,10,0.000141403,-2.8077,0.355078,0.166161,10.0934,0.0908146,
2,1,0,1,0,60228.6,0.0926884,0.0923281,1.57257,31,0.00522171,10,0.000145192,-2.80339,0.317013,0.186112,11.4291,0.0923281,
2,1,0,1,0,60228.6,0.0941839,0.0938509,1.59056,31,0.00534103,10,0.000149276,-2.79845,0.318871,0.185028,11.4819,0.0938509,
2,1,0,1,0,60228.7,0.0956838,0.0953331,1.60447,31,0.00546188,10,0.000152959,-2.79467,0.286541,0.205904,12.9301,0.0953331,
2,1,0,1,0,60228.8,0.097182,0.0968387,1.62474,31,0.00558397,10,0.000157338,-2.78922,0.241728,0.244076,15.5046,0.0968387,
2,1,0,1,0,60228.9,0.0986802,0.098335,1.65011,31,0.00570775,10,0.000162264,-2.78249,0.230941,0.255477,16.4656,0.098335,
2,1,0,1,0,60228.9,0.100178,0.099817,1.676,31,0.00583332,10,0.000167293,-2.77573,0.231604,0.254745,16.6432,0.099817,
2,1,0,1,0,60229,0.101677,0.101293,1.69646,31,0.00596069,10,0.00017184,-2.77046,0.227167,0.259721,17.2345,0.101293,
2,1,0,1,0,60229.1,0.103175,0.10281,1.72679,31,0.00609004,10,0.000177531,-2.76276,0.203824,0.289465,19.5268,0.10281,
2,1,0,1,0,60229.2,0.104673,0.104335,1.7583,31,0.00622157,10,0.000183452,-2.75491,0.201717,0.292489,20.0485,0.104335,
2,1,0,1,0,60229.2,0.106171,0.105854,1.78877,31,0.00635545,10,0.000189347,-2.74745,0.210468,0.280327,19.5285,0.105854,
2,1,0,1,0,60229.3,0.107669,0.107263,1.81476,31,0.00649145,10,0.000194657,-2.74118,0.216781,0.272164,19.2898,0.1072629,
2,1,0,1,0,60229.4,0.109168,0.108814,1.84386,31,0.00662973,10,0.000200637,-2.73427,0.212329,0.27787,20.0102,0.108814,
2,1,0,1,0,60229.5,0.110664,0.110321,1.87483,31,0.00676995,10,0.000206833,-2.72704,0.223172,0.26437,19.3251,0.1103213,
2,1,0,1,0,60229.5,0.112164,0.111829,1.90372,31,0.00691269,10,0.000212891,-2.7204,0.254609,0.231728,17.1828,0.1118291,
2,1,0,1,0,60229.6,0.113662,0.113275,1.92853,31,0.00705728,10,0.000218455,-2.71477,0.27332,0.215865,16.224,0.113275,
2,1,0,1,0,60229.7,0.11516,0.114802,1.9501,31,0.00720357,10,0.000223875,-2.70994,0.30351,0.194392,14.8013,0.114802,
2,1,0,1,0,60229.8,0.116658,0.116298,1.97281,31,0.00735164,10,0.000229434,-2.70491,0.316178,0.186604,14.3456,0.116298,
2,1,0,1,0,60229.8,0.118157,0.117777,1.99598,31,0.00750141,10,0.000235081,-2.69984,0.365526,0.161411,12.5502,0.1177772,
2,1,0,1,0,60229.9,0.119655,0.119277,2.01283,31,0.00765252,10,0.000240084,-2.69619,0.512488,0.115125,9.03277,0.119277,
2,1,0,1,0,60230,0.121153,0.120784,2.02392,31,0.00780471,10,0.000244459,-2.69381,0.53382,0.110524,8.7322,0.120784,
2,1,0,1,0,60230.1,0.122653,0.122279,2.03726,31,0.00795812,10,0.000249114,-2.69095,0.50971,0.115752,9.19636,0.122279,
2,1,0,1,0,60230.1,0.124149,0.123789,2.04815,31,0.00811203,10,0.000253539,-2.68864,0.663859,0.0888743,7.10654,0.123789,
2,1,0,1,0,60230.2,0.125648,0.125255,2.05691,31,0.00826716,10,0.000257638,-2.68678,0.801183,0.0736411,5.9111,0.125255,
2,1,0,1,0,60230.3,0.127146,0.12681,2.06369,31,0.00842274,10,0.000261696,-2.68536,0.948622,0.0621955,5.0161,0.12681,
2,1,0,1,0,60230.4,0.128644,0.128283,2.07299,31,0.00857885,10,0.000265929,-2.6834,0.933203,0.0632231,5.11551,0.128283,
2,1,0,1,0,60230.4,0.130142,0.129803,2.08281,31,0.00873556,10,0.000270356,-2.68135,1.17689,0.0501323,4.06799,0.129803,
2,1,0,1,0,60230.5,0.13164,0.131296,2.08923,31,0.0088928,10,0.000274307,-2.68001,2.29208,0.0257408,2.09284,0.1312955,
2,1,0,1,0,60230.6,0.133139,0.132791,2.08869,31,0.00905036,10,0.00027736,-2.68013,68.7977,0.000857587,0.0698295,0.132791,
2,1,0,1,0,60230.7,0.134637,0.134275,2.08696,31,0.00920785,10,0.000280228,-2.68049,-2.36668,-0.0249294,-2.02999,0.134275,
2,1,0,1,0,60230.7,0.136135,0.135771,2.08436,31,0.00936519,10,0.000282995,-2.68103,-1.10742,-0.053277,-4.32609,0.135771,
2,1,0,1,0,60230.8,0.137633,0.13729,2.07437,31,0.00952199,10,0.00028479,-2.68311,-0.506861,-0.116403,-9.39096,0.13729,
2,1,0,1,0,60230.9,0.139133,0.138796,2.05899,31,0.00967809,10,0.000285779,-2.68635,-0.348226,-0.16943,-13.553,0.138796,
2,1,0,1,0,60231,0.140628,0.140287,2.03195,31,0.0098321,10,0.000285056,-2.69209,-0.246409,-0.239439,-18.9313,0.1402871,
2,1,0,1,0,60231,0.142128,0.141799,2.00071,31,0.0099844,10,0.000283698,-2.69882,-0.198453,-0.2973,-23.1274,0.141799,
2,1,0,1,0,60231.1,0.143626,0.143279,1.95978,31,0.0101339,10,0.000280795,-2.70779,-0.150313,-0.392515,-29.8979,0.143279,
2,1,0,1,0,60231.2,0.145124,0.144765,1.90918,31,0.01028,10,0.000276382,-2.71915,-0.119316,-0.494486,-36.7345,0.144765,
2,1,0,1,0,60231.3,0.146622,0.146336,1.85036,31,0.010422,10,0.000270775,-2.73274,-0.107204,-0.550354,-39.6821,0.146336,
2,1,0,1,0,60231.3,0.14812,0.147813,1.79035,31,0.0105593,10,0.000264637,-2.74706,-0.0953161,-0.618993,-43.1344,0.147813,
2,1,0,1,0,60231.4,0.149619,0.149241,1.72379,31,0.0106919,10,0.000257261,-2.76352,-0.0873078,-0.67577,-45.3279,0.149241,
2,1,0,1,0,60231.5,0.151117,0.150793,1.65495,31,0.0108195,10,0.000249555,-2.78122,-0.0849007,-0.69493,-44.806,0.150793,
2,1,0,1,0,60231.6,0.152615,0.152256,1.58532,31,0.010942,10,0.000241375,-2.79988,-0.0830236,-0.710641,-44.0569,0.152256,
2,1,0,1,0,60231.6,0.154113,0.153753,1.52196,31,0.0110593,10,0.000234006,-2.8176,-0.0832873,-0.708391,-42.1938,0.153753,
2,1,0,1,0,60231.7,0.155613,0.155312,1.46187,31,0.0111721,10,0.000227047,-2.83509,-0.0869511,-0.678542,-38.7533,0.155312,
2,1,0,1,0,60231.8,0.157108,0.156776,1.40282,31,0.0112803,10,0.000219929,-2.853,-0.0871298,-0.677151,-37.1087,0.156776,
2,1,0,1,0,60231.9,0.158608,0.158267,1.35217,31,0.0113847,10,0.000214004,-2.86897,-0.0921087,-0.640547,-33.891,0.158267,
2,1,0,1,0,60231.9,0.160106,0.159744,1.30315,31,0.011485,10,0.000208172,-2.885,-0.100923,-0.584602,-29.8691,0.159744,
2,1,0,1,0,60232,0.161604,0.161242,1.26293,31,0.0115821,10,0.000203637,-2.89862,-0.11259,-0.524027,-25.8544,0.161242,
2,1,0,1,0,60232.1,0.163102,0.162748,1.22579,31,0.0116763,10,0.000199495,-2.91158,-0.125389,-0.470537,-22.5651,0.162748,
2,1,0,1,0,60232.2,0.164601,0.164229,1.19334,31,0.0117679,10,0.000195982,-2.92323,-0.131409,-0.448981,-20.9316,0.164229,
2,1,0,1,0,60232.2,0.166099,0.165729,1.1627,31,0.0118571,10,0.000192693,-2.93453,-0.149051,-0.395837,-18.0216,0.165729,
2,1,0,1,0,60232.3,0.167597,0.167222,1.13967,31,0.0119443,10,0.000190578,-2.94322,-0.180787,-0.326351,-14.532,0.167222,
2,1,0,1,0,60232.4,0.169095,0.168746,1.11831,31,0.0120299,10,0.00018871,-2.95144,-0.184766,-0.319323,-13.95,0.168746,
2,1,0,1,0,60232.5,0.170593,0.170251,1.09817,31,0.012114,10,0.000186964,-2.95933,-0.204945,-0.287883,-12.3771,0.170251,
2,1,0,1,0,60232.5,0.172092,0.171784,1.08014,31,0.0121966,10,0.000185551,-2.96652,-0.236608,-0.249358,-10.5349,0.171784,
2,1,0,1,0,60232.6,0.173588,0.173279,1.06568,31,0.0122779,10,0.000184661,-2.97237,-0.278019,-0.212216,-8.84223,0.173279,
2,1,0,1,0,60232.7,0.175088,0.174722,1.05185,31,0.0123583,10,0.000183782,-2.97805,-0.292273,-0.201866,-8.29553,0.174722,
2,1,0,1,0,60232.8,0.176586,0.176219,1.0414,31,0.0124378,10,0.000183514,-2.98238,-0.302595,-0.19498,-7.92005,0.176219,
2,1,0,1,0,60232.8,0.178084,0.177747,1.02871,31,0.0125163,10,0.00018285,-2.98771,-0.338292,-0.174406,-7.02271,0.177747,
2,1,0,1,0,60232.9,0.179582,0.179255,1.01976,31,0.0125941,10,0.000182797,-2.9915,-0.453076,-0.130221,-5.19645,0.179255,
2,1,0,1,0,60233,0.181081,0.180678,1.01368,31,0.0126713,10,0.00018315,-2.9941,-0.429027,-0.13752,-5.44505,0.180678,
2,1,0,1,0,60233.1,0.182579,0.182234,1.00634,31,0.012748,10,0.000183389,-2.99726,-0.427132,-0.138131,-5.41916,0.182234,
2,1,0,1,0,60233.1,0.184077,0.183778,0.9988,31,0.0128241,10,0.000183558,-3.00052,-0.466949,-0.126352,-4.93104,0.183778,
2,1,0,1,0,60233.2,0.185577,0.185214,0.992086,31,0.0128997,10,0.000183748,-3.00345,-0.550886,-0.1071,-4.14428,0.185214,
2,1,0,1,0,60233.3,0.187073,0.186721,0.988107,31,0.0129748,10,0.0001845,-3.0052,-0.898413,-0.0656713,-2.52706,0.186721,
2,1,0,1,0,60233.4,0.188572,0.188198,0.980867,31,0.0130496,10,0.000184598,-3.00839,-0.646813,-0.0912165,-3.49576,0.1881984,
2,1,0,1,0,60233.4,0.19007,0.189746,0.977217,31,0.013124,10,0.000185423,-3.01001,-0.886185,-0.0665775,-2.54469,0.189746,
2,1,0,1,0,60233.5,0.191568,0.191203,0.970649,31,0.013198,10,0.000185591,-3.01294,-0.716676,-0.0823245,-3.12378,0.191203,
2,1,0,1,0,60233.6,0.193066,0.192691,0.968868,31,0.0132718,10,0.000186693,-3.01374,-1.4297,-0.0412673,-1.56065,0.192691,
2,1,0,1,0,60233.7,0.194564,0.194215,0.966805,31,0.0133453,10,0.000187768,-3.01466,-0.935462,-0.0630705,-2.37789,0.194215,
2,1,0,1,0,60233.7,0.196063,0.195654,0.962169,31,0.0134185,10,0.000188252,-3.01675,-0.754061,-0.078243,-2.93816,0.195654,
2,1,0,1,0,60233.8,0.197561,0.197175,0.957727,31,0.0134914,10,0.00018884,-3.01876,-0.980516,-0.0601724,-2.25529,0.197175,
2,1,0,1,0,60233.9,0.199059,0.1987,0.957193,31,0.0135641,10,0.000190195,-3.019,-1.00126,-0.0589256,-2.20014,0.1987,
2,1,0,1,0,60234,0.200557,0.200203,0.954793,31,0.0136366,10,0.000191152,-3.02009,-1.21358,-0.0486167,-1.80956,0.200203,
2,1,0,1,0,60234,0.202057,0.201706,0.950811,31,0.0137091,10,0.000191784,-3.02191,-1.3177,-0.044775,-1.66003,0.201706,
2,1,0,1,0,60234.1,0.203552,0.203201,0.946802,31,0.0137811,10,0.000192391,-3.02374,-1.22227,-0.048271,-1.78751,0.203201,
2,1,0,1,0,60234.2,0.205052,0.204705,0.9434,31,0.013853,10,0.000193119,-3.0253,-3.91433,-0.0150728,-0.557727,0.204705,
2,1,0,1,0,60234.3,0.20655,0.206206,0.943381,31,0.0139248,10,0.000194531,-3.02531,-8.66285,-0.00681069,-0.25079,0.206206,
2,1,0,1,0,60234.3,0.208048,0.207683,0.942066,31,0.0139966,10,0.000195651,-3.02592,-2.52173,-0.0233967,-0.859373,0.207683,
2,1,0,1,0,60234.4,0.209546,0.209166,0.939571,31,0.0140682,10,0.000196527,-3.02707,-0.844275,-0.0698825,-2.56634,0.209166,
2,1,0,1,0,60234.5,0.211044,0.210705,0.937635,31,0.0141395,10,0.000197564,-3.02797,-1.50758,-0.0391357,-1.43446,0.210705,
2,1,0,1,0,60234.6,0.212543,0.212183,0.9355,31,0.0142106,10,0.000198498,-3.02896,-4.07038,-0.014495,-0.529307,0.212183,
2,1,0,1,0,60234.6,0.214041,0.213738,0.934554,31,0.0142817,10,0.00019975,-3.0294,-3.57703,-0.0164941,-0.601227,0.213738,
2,1,0,1,0,60234.7,0.215539,0.215228,0.933124,31,0.0143527,10,0.000200834,-3.03006,-1.31251,-0.0449521,-1.63605,0.215228,
2,1,0,1,0,60234.8,0.217037,0.216711,0.929913,31,0.0144234,10,0.000201522,-3.03156,-2.20591,-0.0267463,-0.972543,0.216711,
2,1,0,1,0,60234.9,0.218536,0.218191,0.928855,31,0.0144941,10,0.000202668,-3.03205,5.9642,0.00989236,0.358969,0.218191,
2,1,0,1,0,60234.9,0.220032,0.219681,0.930037,31,0.0145646,10,0.000204312,-3.0315,-6.67746,-0.00883569,-0.31977,0.219681,
2,1,0,1,0,60235,0.221532,0.221187,0.927313,31,0.0146353,10,0.000205109,-3.03277,-2.32149,-0.0254147,-0.919659,0.221187,
2,1,0,1,0,60235.1,0.22303,0.222682,0.922151,31,0.0147057,10,0.000205347,-3.0352,-4.33083,-0.0136233,-0.492693,0.222682,
2,1,0,1,0,60235.2,0.224528,0.224182,0.924663,31,0.014776,10,0.000207293,-3.03402,-2.8795,-0.0204896,-0.739657,0.224182,
2,1,0,1,0,60235.2,0.226026,0.225662,0.923171,31,0.0148462,10,0.000208325,-3.03472,-11.2567,-0.00524134,-0.188969,0.225662,
2,1,0,1,0,60235.3,0.227525,0.227205,0.922393,31,0.0149164,10,0.000209573,-3.03508,-1.82238,-0.0323752,-1.16437,0.227205,
2,1,0,1,0,60235.4,0.229023,0.228667,0.922085,31,0.0149865,10,0.000210851,-3.03523,-2.29072,-0.025756,-0.926812,0.2286671,
2,1,0,1,0,60235.5,0.230521,0.230184,0.919552,31,0.0150563,10,0.000211666,-3.03642,-4.44987,-0.0132588,-0.476972,0.230184,
2,1,0,1,0,60235.5,0.232019,0.231668,0.917644,31,0.0151262,10,0.000212589,-3.03733,-2.17753,-0.027095,-0.971978,0.231668,
2,1,0,1,0,60235.6,0.233517,0.23318,0.918908,31,0.015196,10,0.000214271,-3.03673,-2.47279,-0.0238597,-0.852918,0.23318,
2,1,0,1,0,60235.7,0.235016,0.234702,0.918489,31,0.0152658,10,0.000215571,-3.03693,-1.98369,-0.0297425,-1.06428,0.234702,
2,1,0,1,0,60235.8,0.236512,0.236201,0.915266,31,0.0153353,10,0.000216186,-3.03845,-4.25647,-0.0138613,-0.495341,0.236201,
2,1,0,1,0,60235.8,0.238012,0.237627,0.915107,31,0.0154048,10,0.000217454,-3.03853,-4.26428,-0.0138359,-0.493558,0.237627,
2,1,0,1,0,60235.9,0.23951,0.239188,0.913861,31,0.0154743,10,0.000218584,-3.03912,-5.92249,-0.00996202,-0.35488,0.239188,
2,1,0,1,0,60236,0.241008,0.240663,0.914503,31,0.0155438,10,0.000220087,-3.03881,-1.90256,-0.0310108,-1.10565,0.2406626,
2,1,0,1,0,60236.1,0.242506,0.242145,0.909855,31,0.015613,10,0.000220317,-3.04103,-2.1247,-0.0277687,-0.988444,0.242145,
2,1,0,1,0,60236.1,0.244005,0.243639,0.911874,31,0.0156822,10,0.000222168,-3.04007,417.459,0.000141331,0.00501588,0.243639,
2,1,0,1,0,60236.2,0.245503,0.245199,0.911418,31,0.0157514,10,0.000223478,-3.04028,-2.12261,-0.0277959,-0.986946,0.245199,
2,1,0,1,0,60236.3,0.247001,0.246706,0.910371,31,0.0158206,10,0.000224594,-3.04078,-1.35164,-0.0436505,-1.54864,0.246706,
2,1,0,1,0,60236.4,0.248501,0.248148,0.907229,31,0.0158897,10,0.000225127,-3.04228,-5.48807,-0.0107506,-0.380858,0.248148,
2,1,0,1,0,60236.4,0.249997,0.249669,0.905814,31,0.0159585,10,0.000226154,-3.04296,-6.86135,-0.0085989,-0.304309,0.249669,
2,1,0,1,0,60236.5,0.251496,0.25113,0.905515,31,0.0160274,10,0.000227402,-3.0431,5.52831,0.0106723,0.377059,0.25113,
2,1,0,1,0,60236.6,0.252994,0.252662,0.90478,31,0.0160962,10,0.000228604,-3.04346,-2.15447,-0.0273849,-0.965057,0.252662,
2,1,0,1,0,60236.7,0.254492,0.254135,0.903412,31,0.016165,10,0.000229589,-3.04411,-2.25424,-0.0261728,-0.923123,0.2541351,
2,1,0,1,0,60236.7,0.25599,0.255698,0.901597,31,0.0162335,10,0.000230537,-3.04499,-3.69356,-0.0159738,-0.563112,0.255698,
2,1,0,1,0,60236.8,0.257488,0.257138,0.902942,31,0.0163021,10,0.000232181,-3.04434,-19.3921,-0.00304247,-0.107036,0.257138,
2,1,0,1,0,60236.9,0.258987,0.258673,0.901674,31,0.0163706,10,0.000233238,-3.04495,-3.19126,-0.018488,-0.651089,0.258673,
2,1,0,1,0,60237,0.260485,0.260171,0.900478,31,0.0164391,10,0.000234278,-3.04553,-2.19238,-0.0269115,-0.944621,0.260171,
2,1,0,1,0,60237,0.261983,0.26163,0.897915,31,0.0165074,10,0.000234922,-3.04676,-1.94002,-0.0304121,-1.06576,0.26163,
2,1,0,1,0,60237.1,0.263481,0.263122,0.898022,31,0.0165756,10,0.000236289,-3.04671,208.527,0.000282936,0.00990778,0.2631219,
2,1,0,1,0,60237.2,0.264981,0.264654,0.897591,31,0.0166439,10,0.000237551,-3.04692,-3.92624,-0.0150271,-0.526027,0.264654,
2,1,0,1,0,60237.3,0.266476,0.266149,0.894901,31,0.0167119,10,0.000238177,-3.04823,-1.65173,-0.03572,-1.24759,0.266149,
2,1,0,1,0,60237.3,0.267976,0.26763,0.892171,31,0.01678,10,0.000238772,-3.04955,-4.47783,-0.013176,-0.459722,0.26763,
2,1,0,1,0,60237.4,0.269474,0.269144,0.892079,31,0.0168479,10,0.000240098,-3.0496,-5.92762,-0.00995341,-0.347003,0.269144,
2,1,0,1,0,60237.5,0.270972,0.270634,0.892927,31,0.0169157,10,0.000241657,-3.04918,-2.98157,-0.0197882,-0.68793,0.270634,
2,1,0,1,0,60237.6,0.27247,0.272153,0.890125,31,0.0169835,10,0.00024225,-3.05055,-1.98912,-0.0296614,-1.02999,0.2721532,
2,1,0,1,0,60237.6,0.273968,0.273624,0.888735,31,0.0170512,10,0.00024318,-3.05123,-1.42876,-0.0412946,-1.43261,0.273624,
2,1,0,1,0,60237.7,0.275467,0.275133,0.88789,31,0.0171187,10,0.000244288,-3.05164,-1.74872,-0.0337389,-1.16962,0.275133,
2,1,0,1,0,60237.8,0.276965,0.276613,0.886482,31,0.0171862,10,0.000245212,-3.05233,-2.53506,-0.0232736,-0.806553,0.276613,
2,1,0,1,0,60237.9,0.278463,0.278138,0.883991,31,0.0172535,10,0.000245872,-3.05355,-1.30462,-0.045224,-1.5609,0.278138,
2,1,0,1,0,60237.9,0.279961,0.279623,0.884787,31,0.0173207,10,0.000247407,-3.05316,-1.57239,-0.0375224,-1.29411,0.279623,
2,1,0,1,0,60238,0.28146,0.281117,0.883426,31,0.0173879,10,0.000248346,-3.05383,-11.1045,-0.00531317,-0.183106,0.281117,
2,1,0,1,0,60238.1,0.282956,0.282636,0.88144,31,0.0174548,10,0.000249127,-3.05481,-4.80795,-0.0122714,-0.421604,0.282636,
2,1,0,1,0,60238.2,0.284456,0.28415,0.88027,31,0.0175219,10,0.000250129,-3.05538,-2.96725,-0.0198837,-0.681287,0.28415,
2,1,0,1,0,60238.2,0.285954,0.285648,0.878419,31,0.0175887,10,0.000250919,-3.0563,-1.52567,-0.0386715,-1.32421,0.285648,
2,1,0,1,0,60238.3,0.287452,0.287123,0.875608,31,0.0176554,10,0.000251407,-3.05769,-2.01198,-0.0293244,-1.00417,0.287123,
2,1,0,1,0,60238.4,0.28895,0.288645,0.875975,31,0.0177219,10,0.000252846,-3.05751,-8.75717,-0.00673734,-0.229963,0.288645,
2,1,0,1,0,60238.5,0.290449,0.290105,0.872137,31,0.0177884,10,0.000253011,-3.05942,-2.20202,-0.0267936,-0.913623,0.290105,
2,1,0,1,0,60238.5,0.291947,0.291579,0.871152,31,0.0178548,10,0.000254009,-3.05991,-1.25642,-0.0469587,-1.59831,0.291579,
2,1,0,1,0,60238.6,0.293445,0.29311,0.869354,31,0.017921,10,0.000254817,-3.0608,-1.59836,-0.0369128,-1.25494,0.29311,
2,1,0,1,0,60238.7,0.294943,0.294603,0.869585,31,0.0179871,10,0.000256183,-3.06069,-2.29757,-0.0256793,-0.870692,0.294603,
2,1,0,1,0,60238.7,0.296441,0.296089,0.871229,31,0.0180532,10,0.000257961,-3.05987,-4.38349,-0.0134596,-0.455779,0.296089,
2,1,0,1,0,60238.8,0.29794,0.297655,0.865674,31,0.0181192,10,0.000257672,-3.06265,-1.59956,-0.0368852,-1.24449,0.297655,
2,1,0,1,0,60238.9,0.299436,0.29912,0.864983,31,0.018185,10,0.000258734,-3.06299,-0.00488172,-12.0859,-274.547,0.29912,
2,1,0,1,0,60238.9,0.299739,0.299386,0.618161,31,0.0182192,10,0.000185068,-3.2089,0.00102792,57.3975,657.332,0.299386,
2,1,0,1,0,60239,0.298239,0.297921,0.123227,31,0.0182417,10,3.6712e-05,-3.90929,0.00340929,17.3057,240.328,0.297921,
2,0,0,1,0,60239.1,0.296741,0.296439,-0.0303953,31,0.0182433,10,-9.01034e-06,-4.51719,0.0162114,3.63942,86.4418,0.296439,
2,0,0,1,0,60239.2,0.295243,0.294883,-0.107414,31,0.0182368,10,-3.16745e-05,-3.96894,-0.00265714,-22.2043,42.0024,0.294883,
2,0,0,1,0,60239.2,0.293745,0.293446,-0.154971,31,0.0182258,10,-4.54757e-05,-3.80975,-0.0111598,-5.28684,27.6829,0.293446,
2,0,0,1,0,60239.3,0.292246,0.291891,-0.187398,31,0.018212,10,-5.46996e-05,-3.72724,-0.0200431,-2.94365,20.5886,0.291891,
2,0,0,1,0,60239.4,0.290748,0.290381,-0.216472,31,0.0181957,10,-6.28594e-05,-3.6646,-0.027404,-2.15297,17.6326,0.290381,
2,0,0,1,0,60239.5,0.28925,0.2889,-0.240094,31,0.0181776,10,-6.9363e-05,-3.61962,-0.0390853,-1.50952,13.9275,0.2889,
2,0,0,1,0,60239.5,0.287752,0.287413,-0.259383,31,0.018158,10,-7.455e-05,-3.58606,-0.0508681,-1.15986,11.5516,0.287413,
2,0,0,1,0,60239.6,0.286254,0.285891,-0.27332,31,0.018137,10,-7.81396e-05,-3.56333,-0.0615949,-0.957872,10.2313,0.285891,
2,0,0,1,0,60239.7,0.284754,0.284408,-0.291233,31,0.0181148,10,-8.28289e-05,-3.53576,-0.0650207,-0.907404,10.2405,0.284408,
2,0,0,1,0,60239.8,0.283259,0.282897,-0.305031,31,0.0180915,10,-8.62924e-05,-3.51566,-0.0743622,-0.793413,9.41992,0.282897,
2,0,0,1,0,60239.8,0.281759,0.281414,-0.319291,31,0.0180671,10,-8.98531e-05,-3.49581,-0.0830686,-0.710256,8.75426,0.281414,
2,0,0,1,0,60239.9,0.280261,0.279897,-0.328717,31,0.0180417,10,-9.20068e-05,-3.48318,-0.0922327,-0.639686,8.20866,0.279897,
2,0,0,1,0,60240,0.278763,0.278403,-0.340986,31,0.0180156,10,-9.49313e-05,-3.46726,-0.107225,-0.550243,7.32649,0.2784026,
2,0,0,1,0,60240.1,0.277264,0.276893,-0.354918,31,0.0179886,10,-9.82746e-05,-3.44987,-0.111692,-0.528237,7.26817,0.276893,
2,0,0,1,0,60240.1,0.275766,0.275406,-0.36259,31,0.0179607,10,-9.98593e-05,-3.44058,-0.13329,-0.442642,6.23099,0.275406,
2,0,0,1,0,60240.2,0.274268,0.273873,-0.372531,31,0.0179322,10,-0.000102026,-3.42884,-0.143632,-0.410772,5.96884,0.273873,
2,0,0,1,0,60240.3,0.27277,0.272421,-0.383186,31,0.017903,10,-0.000104388,-3.41659,-0.123989,-0.475847,7.10803,0.272421,
2,0,0,1,0,60240.4,0.271272,0.270917,-0.393257,31,0.017873,10,-0.00010654,-3.40532,-0.15355,-0.384239,5.85329,0.270917,
2,0,0,1,0,60240.4,0.269774,0.269442,-0.40136,31,0.0178422,10,-0.000108143,-3.39647,-0.163786,-0.360226,5.60929,0.269442,
2,0,0,1,0,60240.5,0.268274,0.267929,-0.409397,31,0.0178108,10,-0.000109689,-3.38785,-0.203631,-0.28974,4.6076,0.267929,
2,0,0,1,0,60240.6,0.266779,0.266397,-0.414552,31,0.017779,10,-0.000110436,-3.38242,-0.181948,-0.324268,5.274,0.266397,
2,0,0,1,0,60240.7,0.265279,0.264941,-0.424138,31,0.0177465,10,-0.000112372,-3.37249,-0.176106,-0.335025,5.54018,0.264941,
2,0,0,1,0,60240.7,0.263781,0.263431,-0.431366,31,0.0177135,10,-0.000113635,-3.36515,-0.182537,-0.323223,5.447,0.263431,
2,0,0,1,0,60240.8,0.262283,0.261899,-0.437912,31,0.0176798,10,-0.000114689,-3.35861,-0.20806,-0.283572,4.84839,0.261899,
2,0,0,1,0,60240.9,0.260784,0.260499,-0.445101,31,0.0176456,10,-0.000115949,-3.35154,-0.239439,-0.246409,4.29014,0.260499,
2,0,0,1,0,60241,0.259286,0.258969,-0.453381,31,0.0176109,10,-0.000117412,-3.34354,-0.199001,-0.296481,5.25689,0.2589694,
2,0,0,1,0,60241,0.257788,0.257431,-0.462885,31,0.0175756,10,-0.000119161,-3.33453,-0.206095,-0.286276,5.15096,0.257431,
2,0,0,1,0,60241.1,0.25629,0.255923,-0.470128,31,0.0175397,10,-0.000120317,-3.32778,-0.278674,-0.211717,3.85905,0.255923,
2,0,0,1,0,60241.2,0.25479,0.254455,-0.471733,31,0.0175033,10,-0.000120035,-3.3263,-0.256999,-0.229573,4.26093,0.254455,
2,0,0,1,0,60241.3,0.253294,0.252948,-0.480247,31,0.0174666,10,-0.000121477,-3.31854,-0.253125,-0.233087,4.37803,0.252948,
2,0,0,1,0,60241.3,0.251795,0.251419,-0.485588,31,0.0174292,10,-0.000122086,-3.31373,-0.267051,-0.220932,4.20627,0.251419,
2,0,0,1,0,60241.4,0.250297,0.249972,-0.492952,31,0.0173914,10,-0.000123224,-3.3072,-0.308424,-0.191295,3.6884,0.2499719,
2,0,0,1,0,60241.5,0.248799,0.248475,-0.498496,31,0.0173532,10,-0.000123864,-3.30234,-0.311563,-0.189368,3.69717,0.2484753,
2,0,0,1,0,60241.6,0.247301,0.246952,-0.505523,31,0.0173146,10,-0.00012484,-3.29626,-0.31148,-0.189418,3.74951,0.246952,
2,0,0,1,0,60241.6,0.245802,0.245443,-0.511723,31,0.0172755,10,-0.000125599,-3.29096,-0.286415,-0.205995,4.10238,0.245443,
2,0,0,1,0,60241.7,0.244304,0.244009,-0.519063,31,0.0172358,10,-0.000126656,-3.28478,-0.321232,-0.183668,3.70796,0.244009,
2,0,0,1,0,60241.8,0.242806,0.242428,-0.524226,31,0.0171958,10,-0.000127087,-3.28048,-0.4092,-0.144184,2.95192,0.242428,
2,0,0,1,0,60241.9,0.241308,0.240949,-0.52807,31,0.0171554,10,-0.000127238,-3.27731,-0.338326,-0.174388,3.60349,0.240949,
2,0,0,1,0,60241.9,0.23981,0.239479,-0.533518,31,0.0171146,10,-0.000127766,-3.27285,-0.280622,-0.210248,4.37305,0.2394793,
2,0,0,1,0,60242,0.23831,0.237916,-0.539565,31,0.0170732,10,-0.000128371,-3.26796,-0.308662,-0.191147,4.02481,0.237916,
2,0,0,1,0,60242.1,0.236815,0.236448,-0.546257,31,0.0170316,10,-0.000129161,-3.2626,-0.418026,-0.14114,3.00125,0.2364479,
2,0,0,1,0,60242.2,0.235315,0.234953,-0.547991,31,0.0169895,10,-0.000128752,-3.26123,-0.363427,-0.162344,3.48808,0.234953,
2,0,0,1,0,60242.2,0.233817,0.23344,-0.556335,31,0.016947,10,-0.000129871,-3.25466,-0.367412,-0.160582,3.47893,0.23344,
2,0,0,1,0,60242.3,0.232319,0.231963,-0.56173,31,0.0169041,10,-0.000130301,-3.25047,-0.348929,-0.169089,3.69069,0.231963,
2,0,0,1,0,60242.4,0.230821,0.230489,-0.567736,31,0.0168608,10,-0.000130857,-3.24585,-0.53365,-0.110559,2.43826,0.230489,
2,0,0,1,0,60242.5,0.229322,0.228955,-0.571076,31,0.0168171,10,-0.000130751,-3.24331,-0.451231,-0.130753,2.91793,0.228955,
2,0,0,1,0,60242.5,0.227824,0.227469,-0.576141,31,0.0167731,10,-0.000131054,-3.23947,-0.4324,-0.136448,3.07385,0.227469,
2,0,0,1,0,60242.6,0.226326,0.226002,-0.583425,31,0.0167287,10,-0.000131855,-3.23401,-0.425805,-0.138561,3.14943,0.226002,
2,0,0,1,0,60242.7,0.224828,0.224496,-0.587073,31,0.0166838,10,-0.000131796,-3.23131,-0.442208,-0.133421,3.05692,0.224496,
2,0,0,1,0,60242.8,0.22333,0.223001,-0.593976,31,0.0166385,10,-0.000132457,-3.22623,-0.45671,-0.129185,2.98821,0.223001,
2,0,0,1,0,60242.8,0.22183,0.221489,-0.597615,31,0.016593,10,-0.000132365,-3.22358,-0.372426,-0.158421,3.68747,0.221489,
2,0,0,1,0,60242.9,0.220335,0.219995,-0.603448,31,0.016547,10,-0.000132756,-3.21936,-0.284613,-0.207299,4.87305,0.219995,
2,0,0,1,0,60243,0.218835,0.218486,-0.609222,31,0.0165006,10,-0.000133107,-3.21522,-0.3504,-0.168379,3.98943,0.218486,
2,0,0,1,0,60243.1,0.217337,0.216987,-0.614006,31,0.0164538,10,-0.000133231,-3.21183,-0.476168,-0.123906,2.96142,0.216987,
2,0,0,1,0,60243.1,0.215839,0.215484,-0.61542,31,0.0164067,10,-0.000132613,-3.21083,-0.373219,-0.158084,3.81323,0.215484,
2,0,0,1,0,60243.2,0.21434,0.213988,-0.621384,31,0.0163593,10,-0.000132969,-3.20664,-0.398297,-0.148131,3.59866,0.213988,
2,0,0,1,0,60243.3,0.212842,0.212526,-0.627754,31,0.0163114,10,-0.000133414,-3.20221,-0.480125,-0.122885,3.01061,0.212526,
2,0,0,1,0,60243.4,0.211344,0.210976,-0.632243,31,0.0162632,10,-0.000133388,-3.19912,-0.472336,-0.124911,3.07696,0.210976,
2,0,0,1,0,60243.4,0.209846,0.209516,-0.635106,31,0.0162146,10,-0.000133065,-3.19715,-0.46591,-0.126634,3.14675,0.209516,
2,0,0,1,0,60243.5,0.208348,0.20799,-0.641768,31,0.0161657,10,-0.000133481,-3.19262,-0.331154,-0.178165,4.4812,0.20799,
2,0,0,1,0,60243.6,0.20685,0.206533,-0.650992,31,0.0161164,10,-0.000134451,-3.18642,-0.383942,-0.153669,3.87158,0.206533,
2,0,0,1,0,60243.7,0.20535,0.204995,-0.654091,31,0.0160664,10,-0.000134085,-3.18436,-0.492765,-0.119733,3.03864,0.2049948,
2,0,0,1,0,60243.7,0.203855,0.203483,-0.656592,31,0.0160163,10,-0.000133606,-3.1827,-0.5484,-0.107586,2.76432,0.203483,
2,0,0,1,0,60243.8,0.202355,0.202013,-0.661438,31,0.0159659,10,-0.000133619,-3.17951,-0.428041,-0.137837,3.56782,0.202013,
2,0,0,1,0,60243.9,0.200857,0.200496,-0.665345,31,0.0159151,10,-0.000133399,-3.17695,-0.414118,-0.142472,3.70454,0.200496,
2,0,0,1,0,60244,0.199359,0.199035,-0.671922,31,0.0158639,10,-0.000133736,-3.17268,-0.479313,-0.123093,3.22527,0.199035,
2,0,0,1,0,60244,0.19786,0.197517,-0.67678,31,0.0158122,10,-0.000133675,-3.16955,-0.501859,-0.117563,3.10058,0.197517,
2,0,0,1,0,60244.1,0.196362,0.196016,-0.681888,31,0.0157603,10,-0.000133661,-3.16629,-0.491315,-0.120086,3.20129,0.196016,
2,0,0,1,0,60244.2,0.194864,0.194487,-0.687003,31,0.0157079,10,-0.000133613,-3.16304,-0.392412,-0.150352,4.03579,0.194487,
2,0,0,1,0,60244.3,0.193366,0.19304,-0.694086,31,0.0156551,10,-0.000133986,-3.15859,-0.42306,-0.13946,3.77898,0.1930401,
2,0,0,1,0,60244.3,0.191866,0.191533,-0.699388,31,0.0156017,10,-0.000133956,-3.15528,-0.443465,-0.133043,3.63464,0.191533,
2,0,0,1,0,60244.4,0.19037,0.18998,-0.703095,31,0.0155481,10,-0.000133574,-3.15299,-0.455969,-0.129395,3.56562,0.18998,
2,0,0,1,0,60244.5,0.188871,0.188505,-0.709962,31,0.0154941,10,-0.000133832,-3.14876,-0.326786,-0.180546,5.01078,0.188505,
2,0,0,1,0,60244.6,0.187373,0.187046,-0.716205,31,0.0154395,10,-0.000133964,-3.14496,-0.3766,-0.156665,4.37686,0.187046,
2,0,0,1,0,60244.6,0.185875,0.185517,-0.723496,31,0.0153845,10,-0.000134221,-3.14056,-0.464033,-0.127146,3.58291,0.185517,
2,0,0,1,0,60244.7,0.184377,0.184049,-0.727689,31,0.0153291,10,-0.00013393,-3.13805,-0.464047,-0.127142,3.61486,0.184049,
2,0,0,1,0,60244.8,0.182878,0.182512,-0.734242,31,0.0152733,10,-0.000134008,-3.13416,-0.417663,-0.141262,4.05197,0.182512,
2,0,0,1,0,60244.9,0.18138,0.181038,-0.741692,31,0.015217,10,-0.000134275,-3.12978,-0.311163,-0.189611,5.48724,0.181038,
2,0,0,1,0,60244.9,0.179882,0.179534,-0.748314,31,0.0151601,10,-0.000134348,-3.12592,-0.533087,-0.110676,3.22904,0.179534,
2,0,0,1,0,60245,0.178384,0.178005,-0.75446,31,0.0151028,10,-0.000134298,-3.12236,-0.469578,-0.125645,3.70111,0.178005,
2,0,0,1,0,60245.1,0.176886,0.176498,-0.760042,31,0.0150451,10,-0.000134146,-3.11916,-0.424005,-0.139149,4.1392,0.176498,
2,0,0,1,0,60245.2,0.175386,0.175048,-0.769186,31,0.0149867,10,-0.000134645,-3.11397,-0.340269,-0.173392,5.18937,0.175048,
2,0,0,1,0,60245.2,0.173891,0.173522,-0.774781,31,0.0149279,10,-0.000134441,-3.11082,-0.324079,-0.182054,5.50043,0.173522,
2,0,0,1,0,60245.3,0.172391,0.171989,-0.784141,31,0.0148683,10,-0.000134864,-3.10561,-0.35703,-0.165252,5.05504,0.171989,
2,0,0,1,0,60245.4,0.170893,0.170543,-0.789288,31,0.0148084,10,-0.000134608,-3.10276,-0.338609,-0.174242,5.39125,0.170543,
2,0,0,1,0,60245.5,0.169395,0.168985,-0.798987,31,0.0147478,10,-0.000135017,-3.09746,-0.2837,-0.207966,6.48601,0.168985,
2,0,0,1,0,60245.5,0.167897,0.167565,-0.808405,31,0.0146864,10,-0.00013546,-3.09237,-0.28117,-0.209838,6.63687,0.167565,
2,0,0,1,0,60245.6,0.166398,0.166049,-0.818723,31,0.0146243,10,-0.000135948,-3.08686,-0.331116,-0.178186,5.68892,0.166049,
2,0,0,1,0,60245.7,0.1649,0.164555,-0.824866,31,0.0145616,10,-0.000135736,-3.08362,-0.304545,-0.193731,6.27013,0.164555,
2,0,0,1,0,60245.8,0.163402,0.163052,-0.837515,31,0.0144981,10,-0.000136558,-3.07701,-0.260999,-0.226055,7.38814,0.163052,
2,0,0,1,0,60245.8,0.161904,0.161551,-0.850451,31,0.0144338,10,-0.000137391,-3.07035,-0.248188,-0.237723,7.89079,0.161551,
2,0,0,1,0,60245.9,0.160406,0.16,-0.862964,31,0.0143686,10,-0.000138075,-3.06401,-0.254856,-0.231503,7.79572,0.16,
2,0,0,1,0,60246,0.158906,0.158539,-0.872917,31,0.0143024,10,-0.000138392,-3.05903,-0.227939,-0.258841,8.84361,0.158539,
2,0,0,1,0,60246.1,0.157411,0.157085,-0.887012,31,0.0142354,10,-0.000139337,-3.05207,-0.206586,-0.285595,9.93108,0.157085,
2,0,0,1,0,60246.1,0.155911,0.155572,-0.903477,31,0.0141671,10,-0.000140555,-3.04408,-0.181021,-0.325929,11.5122,0.155572,
2,0,0,1,0,60246.2,0.154413,0.154053,-0.921592,31,0.0140977,10,-0.000141974,-3.03546,-0.187075,-0.315382,11.346,0.154053,
2,0,0,1,0,60246.3,0.152915,0.152575,-0.936544,31,0.0140269,10,-0.000142893,-3.02847,-0.175116,-0.33692,12.3693,0.152575,
2,0,0,1,0,60246.4,0.151417,0.151065,-0.958641,31,0.0139549,10,-0.000144817,-3.01834,-0.159304,-0.370362,13.8856,0.151065,
2,0,0,1,0,60246.4,0.149918,0.149544,-0.982755,31,0.0138811,10,-0.000146965,-3.00755,-0.141784,-0.416126,15.9416,0.1495437,
2,0,0,1,0,60246.5,0.14842,0.148108,-1.00795,31,0.0138056,10,-0.000149286,-2.99656,-0.129339,-0.456165,17.9557,0.148108,
2,0,0,1,0,60246.6,0.146922,0.146521,-1.03407,31,0.0137281,10,-0.000151513,-2.98545,-0.124973,-0.472103,19.098,0.146521,
2,0,0,1,0,60246.7,0.145424,0.145106,-1.06128,31,0.0136485,10,-0.000153998,-2.97417,-0.111494,-0.529179,22.0237,0.145106,
2,0,0,1,0,60246.7,0.143926,0.143594,-1.09967,31,0.0135664,10,-0.000157907,-2.95874,-0.0979803,-0.602162,25.8587,0.143594,
2,0,0,1,0,60246.8,0.142426,0.142062,-1.13853,31,0.0134815,10,-0.000161742,-2.94366,-0.0986934,-0.597811,26.5862,0.142062,
2,0,0,1,0,60246.9,0.140931,0.140565,-1.17614,31,0.0133938,10,-0.000165324,-2.92954,-0.0968282,-0.609326,28.0683,0.140565,
2,0,0,1,0,60247,0.139431,0.139076,-1.21769,31,0.0133026,10,-0.000169351,-2.91446,-0.0912884,-0.646304,30.8651,0.139076,
2,0,0,1,0,60247,0.137933,0.137593,-1.26909,31,0.0132082,10,-0.000174618,-2.89651,-0.088748,-0.664804,33.0167,0.137593,
2,0,0,1,0,60247.1,0.136435,0.136081,-1.32113,31,0.0131101,10,-0.000179781,-2.87905,-0.0875715,-0.673736,34.7159,0.136081,
2,0,0,1,0,60247.2,0.134936,0.134614,-1.37289,31,0.013008,10,-0.00018481,-2.86236,-0.0901167,-0.654707,35.0341,0.134614,
2,0,0,1,0,60247.3,0.133438,0.133083,-1.42603,31,0.012902,10,-0.00018978,-2.84587,-0.0934248,-0.631524,35.1355,0.133083,
2,0,0,1,0,60247.3,0.13194,0.131635,-1.48105,31,0.0127921,10,-0.000194957,-2.82943,-0.0933573,-0.63198,36.5562,0.131635,
2,0,0,1,0,60247.4,0.130442,0.130085,-1.53762,31,0.012678,10,-0.00020002,-2.81315,-0.0967478,-0.609833,36.5394,0.130085,
2,0,0,1,0,60247.5,0.128942,0.128581,-1.59177,31,0.0125595,10,-0.000204671,-2.79812,-0.100917,-0.584639,36.2058,0.128581,
2,0,0,1,0,60247.6,0.127446,0.127085,-1.6444,31,0.0124372,10,-0.000208979,-2.78399,-0.107025,-0.551271,35.3495,0.127085,
2,0,0,1,0,60247.6,0.125947,0.125575,-1.6978,31,0.0123109,10,-0.000213202,-2.77011,-0.114773,-0.514057,33.9706,0.125575,
2,0,0,1,0,60247.7,0.124449,0.124096,-1.74725,31,0.0121809,10,-0.000216826,-2.75765,-0.118409,-0.498274,33.8684,0.124096,
2,0,0,1,0,60247.8,0.122951,0.122614,-1.79399,31,0.0120471,10,-0.000219968,-2.74618,-0.131625,-0.448244,31.3373,0.122614,
2,0,0,1,0,60247.9,0.121453,0.121127,-1.84055,31,0.0119098,10,-0.000222941,-2.73505,-0.143065,-0.412399,29.5437,0.121127,
2,0,0,1,0,60247.9,0.119955,0.119617,-1.87948,31,0.0117693,10,-0.000224817,-2.72596,-0.160656,-0.367245,26.962,0.119617,
2,0,0,1,0,60248,0.118456,0.118122,-1.92327,31,0.0116258,10,-0.000227181,-2.71596,-0.169531,-0.348019,26.084,0.118122,
2,0,0,1,0,60248.1,0.116958,0.116594,-1.96209,31,0.0114792,10,-0.000228769,-2.70728,-0.189203,-0.311835,23.7944,0.116594,
2,0,0,1,0,60248.2,0.11546,0.115091,-1.994,31,0.0113299,10,-0.000229492,-2.70028,-0.235281,-0.250764,19.4609,0.115091,
2,0,0,1,0,60248.2,0.113962,0.113607,-2.019,31,0.0111784,10,-0.000229373,-2.69486,-0.267611,-0.220469,17.3654,0.113607,
2,0,0,1,0,60248.3,0.112462,0.112091,-2.04395,31,0.0110249,10,-0.00022911,-2.68953,-0.298389,-0.197729,15.7632,0.112091,
2,0,0,1,0,60248.4,0.110967,0.110572,-2.06757,31,0.0108699,10,-0.000228615,-2.68454,-0.350585,-0.16829,13.5435,0.110572,
2,0,0,1,0,60248.5,0.109467,0.109088,-2.08365,31,0.0107131,10,-0.000227302,-2.68118,-0.608389,-0.0969775,7.85976,0.109088,
2,0,0,1,0,60248.5,0.107969,0.107601,-2.09566,31,0.0105554,10,-0.000225494,-2.67868,-0.781271,-0.075518,6.15958,0.107601,
2,0,0,1,0,60248.6,0.106471,0.106139,-2.10033,31,0.0103973,10,-0.000222928,-2.67771,-1.57874,-0.0373715,3.06422,0.106139,
2,0,0,1,0,60248.7,0.104973,0.104589,-2.10462,31,0.0102387,10,-0.00022012,-2.67683,-2.87602,-0.0205144,1.68177,0.104589,
2,0,0,1,0,60248.8,0.103474,0.103117,-2.10725,31,0.0100798,10,-0.000217294,-2.67628,5.8333,0.0101143,-0.829566,0.103117,
2,0,0,1,0,60248.8,0.101976,0.101603,-2.10405,31,0.00992106,10,-0.000213777,-2.67694,1.24584,0.0473578,-3.88141,0.101603,
2,0,0,1,0,60248.9,0.100478,0.100127,-2.09528,31,0.00976282,10,-0.000209794,-2.67876,0.93531,0.0630807,-5.15535,0.100127,
2,0,0,1,0,60249,0.0989799,0.0986183,-2.0898,31,0.00960504,10,-0.000206092,-2.6799,0.944651,0.062457,-5.08306,0.0986183,
2,0,0,1,0,60249.1,0.0974817,0.0971124,-2.07908,31,0.00944782,10,-0.000201904,-2.68213,0.733557,0.0804301,-6.52251,0.0971124,
2,0,0,1,0,60249.1,0.0959821,0.0956182,-2.0683,31,0.00929116,10,-0.000197767,-2.68439,0.61791,0.0954832,-7.70696,0.0956182,
2,0,0,1,0,60249.2,0.0944866,0.0941588,-2.05593,31,0.00913585,10,-0.000193584,-2.68699,0.609239,0.0968421,-7.77462,0.0941588,
2,0,0,1,0,60249.3,0.0929871,0.0926127,-2.04447,31,0.00898095,10,-0.000189344,-2.68942,0.740551,0.0796704,-6.36009,0.0926127,
2,0,0,1,0,60249.4,0.0914889,0.0911253,-2.03655,31,0.00882699,10,-0.000185581,-2.69111,0.647954,0.0910559,-7.22546,0.0911253,
2,0,0,1,0,60249.4,0.0899907,0.0896268,-2.0234,31,0.00867387,10,-0.000181351,-2.69392,0.557744,0.105783,-8.35,0.0896268,
2,0,0,1,0,60249.5,0.0884925,0.0881559,-2.00773,31,0.00852168,10,-0.000176993,-2.69729,0.640917,0.0920557,-7.22399,0.0881559,
2,0,0,1,0,60249.6,0.0869943,0.0866281,-1.99809,31,0.00837041,10,-0.000173091,-2.69939,0.665677,0.0886315,-6.92604,0.0866281,
2,0,0,1,0,60249.7,0.0854961,0.0851698,-1.99296,31,0.00821982,10,-0.00016974,-2.7005,0.685633,0.0860519,-6.69215,0.0851698,
2,0,0,1,0,60249.7,0.083998,0.0836769,-1.98234,31,0.00806991,10,-0.000165876,-2.70282,0.630072,0.09364,-7.23829,0.0836769,
2,0,0,1,0,60249.8,0.0824998,0.082137,-1.97375,31,0.00792073,10,-0.000162118,-2.70471,0.679546,0.0868227,-6.68488,0.082137,
2,0,0,1,0,60249.9,0.081002,0.0806119,-1.9629,31,0.00777234,10,-0.000158233,-2.7071,0.810763,0.0727709,-5.57925,0.0806119,
2,0,0,1,0,60250,0.0795025,0.0791532,-1.95508,31,0.00762435,10,-0.000154751,-2.70883,0.954167,0.0618341,-4.71803,0.07915315,
2,0,0,1,0,60250,0.078007,0.0776357,-1.94946,31,0.00747729,10,-0.000151348,-2.71009,0.815566,0.0723424,-5.49397,0.0776357,
2,0,0,1,0,60250.1,0.076507,0.0761022,-1.93884,31,0.00733048,10,-0.00014755,-2.71246,0.680711,0.0866741,-6.54972,0.0761022,
2,0,0,1,0,60250.2,0.0750088,0.074672,-1.9267,31,0.00718463,10,-0.000143871,-2.71519,0.722518,0.0816589,-6.14241,0.074672,
2,0,0,1,0,60250.3,0.0735106,0.0731665,-1.91908,31,0.00703944,10,-0.000140412,-2.71691,0.815553,0.0723435,-5.42035,0.0731665,
2,0,0,1,0,60250.3,0.0720124,0.0716361,-1.91063,31,0.00689488,10,-0.00013687,-2.71882,0.741268,0.0795934,-5.9368,0.0716361,
2,0,0,1,0,60250.4,0.0705142,0.0701704,-1.90186,31,0.00675097,10,-0.000133455,-2.72082,0.607223,0.0971636,-7.20392,0.07017044,
2,0,0,1,0,60250.5,0.069016,0.0686696,-1.88921,31,0.00660783,10,-0.000129732,-2.72372,0.662995,0.0889901,-6.56953,0.06866958,
2,0,0,1,0,60250.6,0.0675179,0.0671591,-1.88033,31,0.00646552,10,-0.000126281,-2.72577,0.838084,0.0703987,-5.17441,0.0671591,
2,0,0,1,0,60250.6,0.0660179,0.0656787,-1.8775,31,0.00632364,10,-0.000123312,-2.72642,0.742509,0.0794603,-5.80687,0.0656787,
2,0,0,1,0,60250.7,0.0645224,0.0641772,-1.86219,31,0.00618266,10,-0.00011951,-2.72998,0.675545,0.0873369,-6.34697,0.0641772,
2,0,0,1,0,60250.8,0.0630228,0.0626675,-1.85335,31,0.00604214,10,-0.000116145,-2.73204,0.591396,0.099764,-7.20962,0.0626675,
2,0,0,1,0,60250.9,0.0615251,0.0611836,-1.84284,31,0.00590269,10,-0.000112752,-2.73451,0.605428,0.0974518,-7.01187,0.0611836,
2,0,0,1,0,60250.9,0.0600269,0.0596442,-1.83414,31,0.00576399,10,-0.000109396,-2.73657,0.600279,0.0982876,-7.03203,0.0596442,
2,0,0,1,0,60251,0.0585287,0.0581901,-1.82186,31,0.00562602,10,-0.000106014,-2.73948,0.547566,0.107749,-7.65506,0.0581901,
2,0,0,1,0,60251.1,0.0570305,0.0566893,-1.81235,31,0.00548882,10,-0.000102741,-2.74176,0.553191,0.106654,-7.54108,0.0566893,
2,0,0,1,0,60251.2,0.0555323,0.0552059,-1.79866,31,0.00535255,10,-9.92964e-05,-2.74505,0.579546,0.101804,-7.15753,0.05520593,
2,0,0,1,0,60251.2,0.0540341,0.0536971,-1.7914,31,0.00521706,10,-9.61929e-05,-2.74681,0.656186,0.0899136,-6.2735,0.0536971,
2,0,0,1,0,60251.3,0.052536,0.0521837,-1.78049,31,0.0050822,10,-9.29124e-05,-2.74946,0.569575,0.103586,-7.19173,0.0521837,
2,0,0,1,0,60251.4,0.0510378,0.050658,-1.76898,31,0.00494814,10,-8.96131e-05,-2.75228,0.495559,0.119058,-8.21053,0.050658,
2,0,0,1,0,60251.5,0.0495382,0.0491699,-1.7571,31,0.0048149,10,-8.63964e-05,-2.7552,0.54616,0.108027,-7.40829,0.0491699,
2,0,0,1,0,60251.5,0.0480427,0.0477045,-1.74619,31,0.00468286,10,-8.33011e-05,-2.75791,0.669463,0.0881303,-6.00377,0.0477045,
2,0,0,1,0,60251.6,0.0465432,0.0461882,-1.73307,31,0.00455129,10,-8.00471e-05,-2.76119,0.571418,0.103252,-6.99431,0.0461882,
2,0,0,1,0,60251.7,0.045045,0.0446734,-1.72391,31,0.00442063,10,-7.70128e-05,-2.76349,0.494782,0.119245,-8.00987,0.0446734,
2,0,0,1,0,60251.8,0.0435468,0.0432095,-1.71006,31,0.00429089,10,-7.38907e-05,-2.76699,0.488471,0.120785,-8.06418,0.0432095,
2,0,0,1,0,60251.8,0.0420486,0.0417323,-1.69957,31,0.0041622,10,-7.0927e-05,-2.76966,0.536217,0.11003,-7.2979,0.0417323,
2,0,0,1,0,60251.9,0.0405504,0.0402042,-1.68924,31,0.00403426,10,-6.79146e-05,-2.77231,0.499326,0.118159,-7.77967,0.0402042,
2,0,0,1,0,60252,0.0390523,0.038722,-1.67573,31,0.00390712,10,-6.48876e-05,-2.7758,0.427116,0.138136,-9.01716,0.038722,
2,0,0,1,0,60252.1,0.0375541,0.0371663,-1.662,31,0.00378092,10,-6.17704e-05,-2.77937,0.432611,0.136381,-8.85253,0.0371663,
2,0,0,1,0,60252.1,0.0360559,0.0357074,-1.64815,31,0.00365595,10,-5.88513e-05,-2.783,0.41161,0.143339,-9.23781,0.0357074,
2,0,0,1,0,60252.2,0.0345577,0.0341803,-1.6379,31,0.00353183,10,-5.59838e-05,-2.78571,0.487856,0.120937,-7.72222,0.0341803,
2,0,0,1,0,60252.3,0.0330582,0.0327,-1.62623,31,0.00340835,10,-5.31779e-05,-2.78882,0.451009,0.130818,-8.28052,0.0327,
2,0,0,1,0,60252.4,0.0315626,0.0311868,-1.61357,31,0.00328614,10,-5.03222e-05,-2.79221,0.437381,0.134894,-8.49185,0.0311868,
2,0,0,1,0,60252.4,0.0300631,0.0297425,-1.60022,31,0.0031647,10,-4.75946e-05,-2.79582,0.420499,0.14031,-8.76484,0.0297425,
2,0,0,1,0,60252.5,0.0285649,0.0282174,-1.58768,31,0.00304424,10,-4.48003e-05,-2.79924,0.496425,0.11885,-7.36535,0.0282174,
2,0,0,1,0,60252.6,0.0270667,0.0267073,-1.57751,31,0.00292459,10,-4.21311e-05,-2.80203,0.459743,0.128333,-7.89917,0.0267073,
2,0,0,1,0,60252.7,0.0255685,0.0251923,-1.5663,31,0.00280579,10,-3.94587e-05,-2.80512,0.425131,0.138781,-8.48009,0.0251923,
2,0,0,1,0,60252.7,0.0240704,0.0237066,-1.5526,31,0.00268798,10,-3.68068e-05,-2.80894,0.473281,0.124662,-7.55998,0.02370663,
2,0,0,1,0,60252.8,0.0225722,0.0222065,-1.53991,31,0.00257101,10,-3.41961e-05,-2.8125,0.557432,0.105843,-6.36762,0.0222065,
2,0,0,1,0,60252.9,0.021074,0.0207181,-1.53153,31,0.00245476,10,-3.17304e-05,-2.81487,0.57091,0.103344,-6.18034,0.0207181,
2,0,0,1,0,60253,0.0195758,0.0192507,-1.52293,31,0.00233935,10,-2.93175e-05,-2.81732,0.473599,0.124578,-7.39761,0.0192507,
2,0,0,1,0,60253,0.018078,0.017759,-1.50883,31,0.00222467,10,-2.67952e-05,-2.82136,0.515181,0.114523,-6.75114,0.017759,
2,0,0,1,0,60253.1,0.0165785,0.0162497,-1.5013,31,0.00211066,10,-2.43957e-05,-2.82353,0.76001,0.0776306,-4.55453,0.0162497,
2,0,0,1,0,60253.2,0.015083,0.0147148,-1.49534,31,0.00199754,10,-2.20036e-05,-2.82526,0.789381,0.0747421,-4.35861,0.0147148,
2,0,0,1,0,60253.3,0.013583,0.0131829,-1.48625,31,0.00188456,10,-1.95931e-05,-2.82791,0.641217,0.0920126,-5.33384,0.0131829,
2,0,0,1,0,60253.3,0.0120848,0.0117346,-1.47743,31,0.00177242,10,-1.73371e-05,-2.83049,0.607804,0.0970707,-5.60655,0.0117346,
2,0,0,1,0,60253.4,0.0105866,0.0102647,-1.47083,31,0.00166096,10,-1.50976e-05,-2.83244,0.845663,0.0697677,-4.01079,0.0102647,
2,0,0,1,0,60253.5,0.00908846,0.00872739,-1.4647,31,0.00154988,10,-1.2783e-05,-2.83425,1.07405,0.0549325,-3.14085,0.00872739,
2,0,0,1,0,60253.5,0.00759027,0.00721374,-1.46217,31,0.00143917,10,-1.05477e-05,-2.835,1.07097,0.0550901,-3.14069,0.00721374,
2,0,0,1,0,60253.6,0.00609208,0.00574478,-1.45664,31,0.00132885,10,-8.36809e-06,-2.83665,1.0999,0.053641,-3.0494,0.00574478,
2,0,0,1,0,60253.7,0.00459389,0.00421354,-1.4505,31,0.00121893,10,-6.11172e-06,-2.83848,1.56911,0.0376009,-2.13171,0.00421354,
2,0,0,1,0,60253.8,0.00309391,0.00273751,-1.44989,31,0.00110907,10,-3.96908e-06,-2.83867,-2.74845,-0.0214666,1.21673,0.00273751,
2,0,0,1,0,60253.8,0.0015984,0.00118666,-1.46193,31,0.000998882,10,-1.73483e-06,-2.83507, , , ,0.00118666,
2,0,0,1,0,60253.9,0.000199195,-0.000189865,-1.45327,31,0.000895976,10,2.75925e-07,-2.83765, , , ,-0.000189865,