File: Figure_codes/Fig_3-5/rawdata_trumpetplot_data/after 10th/20221101_1-115_003_TrumpetPlot_ParaChange_from10_every3_09_CV_C01_25.csv
mode,ox/red,error,control changes,counter inc.,time/s,control/V,Ewe/V,<I>/mA,cycle number,(Q-Qo)/C,I Range,P/W,log(|I|),Tafel slope mV/dec,alpha_eff,dI/d(E-IR),E-IR/V,
2,0,0,0,0,50435.8,2.44065e-05,-0.000306236,-5.26397,26,0.0000000E+000,10,1.61202e-06,-2.27869, , , ,-0.000306236,
2,0,0,1,0,50435.8,0.00179726,0.00139959,-3.11294,26,-7.10355e-05,10,-4.35684e-06,-2.50683, , , ,0.001399589,
2,0,0,1,0,50435.8,0.00379485,0.00348011,-1.61215,26,-0.00011687,10,-5.61047e-06,-2.79259,-0.00538872,-10.9488,633.43,0.00348011,
2,0,0,1,0,50435.8,0.00579244,0.00543946,-0.553963,26,-0.000137734,10,-3.01326e-06,-3.25652,-0.00496083,-11.8932,476.045,0.00543946,
2,1,0,1,0,50435.9,0.00779002,0.00741251,0.259846,26,-0.000140099,10,1.92611e-06,-3.58528,0.0187785,3.14189,364.899,0.00741251,
2,1,0,1,0,50435.9,0.00978761,0.00943567,0.90425,26,-0.000128002,10,8.5322e-06,-3.04371,0.00547129,10.7836,286.798,0.00943567,
2,1,0,1,0,50435.9,0.0117852,0.011439,1.41463,26,-0.000104434,10,1.61819e-05,-2.84936,0.0129836,4.54419,233.434,0.011439,
2,1,0,1,0,50435.9,0.0137828,0.0134345,1.83771,26,-7.16747e-05,10,2.46886e-05,-2.73572,0.0208752,2.82632,195.868,0.0134345,
2,1,0,1,0,50435.9,0.0157804,0.0154161,2.19362,26,-3.11031e-05,10,3.3817e-05,-2.65884,0.030107,1.95968,164.462,0.0154161,
2,1,0,1,0,50436,0.017778,0.0174412,2.49667,26,1.58421e-05,10,4.35449e-05,-2.60264,0.0410073,1.43877,138.186,0.0174412,
2,1,0,1,0,50436,0.0197755,0.0194371,2.74927,26,6.8407e-05,10,5.34378e-05,-2.56078,0.0529956,1.1133,118.509,0.0194371,
2,1,0,1,0,50436,0.0217731,0.0214545,2.97228,26,0.00012577,10,6.37689e-05,-2.52691,0.0652924,0.903627,104.177,0.0214545,
2,1,0,1,0,50436,0.0237707,0.0234637,3.16875,26,0.000187338,10,7.43505e-05,-2.49911,0.076451,0.771737,95.1072,0.0234637,
2,1,0,1,0,50436,0.0257683,0.0254347,3.35083,26,0.000252332,10,8.52274e-05,-2.47485,0.0893657,0.660208,85.9742,0.0254347,
2,1,0,1,0,50436.1,0.0277659,0.0274398,3.51059,26,0.000321047,10,9.63297e-05,-2.45462,0.105315,0.560222,76.5606,0.0274398,
2,1,0,1,0,50436.1,0.0297635,0.0294348,3.65708,26,0.000392885,10,0.000107645,-2.43687,0.11901,0.495757,70.6279,0.0294348,
2,1,0,1,0,50436.1,0.0317611,0.0314516,3.79393,26,0.000467517,10,0.000119325,-2.42091,0.128119,0.46051,68.145,0.03145159,
2,1,0,1,0,50436.1,0.0337587,0.0334331,3.92954,26,0.000544471,10,0.000131377,-2.40566,0.139534,0.422835,64.7192,0.0334331,
2,1,0,1,0,50436.1,0.0357562,0.0354505,4.05274,26,0.000624457,10,0.000143672,-2.39225,0.156413,0.377207,59.5656,0.0354505,
2,1,0,1,0,50436.2,0.0377538,0.0373904,4.16525,26,0.000706818,10,0.00015574,-2.38036,0.163543,0.360761,58.6676,0.0373904,
2,1,0,1,0,50436.2,0.0397514,0.0393792,4.28322,26,0.000791456,10,0.00016867,-2.36823,0.164748,0.358123,59.8866,0.0393792,
2,1,0,1,0,50436.2,0.041749,0.0414217,4.40667,26,0.000878031,10,0.000182532,-2.35589,0.182427,0.323416,55.4667,0.0414217,
2,1,0,1,0,50436.2,0.0437466,0.043425,4.50763,26,0.000967312,10,0.000195744,-2.34605,0.202369,0.291547,51.2985,0.043425,
2,1,0,1,0,50436.2,0.0457442,0.0454222,4.6119,26,0.00105863,10,0.000209482,-2.33612,0.199667,0.295492,53.1894,0.0454222,
2,1,0,1,0,50436.3,0.0477418,0.0473904,4.71855,26,0.00115209,10,0.000223614,-2.32619,0.196142,0.300803,55.4256,0.0473904,
2,1,0,1,0,50436.3,0.0497484,0.0494023,4.8325,26,0.00124767,10,0.000238737,-2.31583,0.211551,0.278892,52.4899,0.0494023,
2,1,0,1,0,50436.3,0.0517369,0.0513818,4.92806,26,0.00134482,10,0.000253212,-2.30732,0.229179,0.257441,49.5526,0.0513818,
2,1,0,1,0,50436.3,0.0537345,0.0534466,5.0329,26,0.00144444,10,0.000268991,-2.29818,0.23827,0.247618,48.56,0.05344655,
2,1,0,1,0,50436.3,0.0557321,0.0553989,5.12313,26,0.00154608,10,0.000283815,-2.29047,0.251373,0.234711,46.9442,0.0553989,
2,1,0,1,0,50436.4,0.0577206,0.0573895,5.218,26,0.00164907,10,0.000299458,-2.2825,0.245383,0.24044,48.9833,0.05738952,
2,1,0,1,0,50436.4,0.0597273,0.0593824,5.31825,26,0.00175458,10,0.000315811,-2.27423,0.258263,0.228449,47.3672,0.0593824,
2,1,0,1,0,50436.4,0.0617249,0.0614174,5.40879,26,0.00186196,10,0.000332193,-2.2669,0.284021,0.207731,43.8208,0.0614174,
2,1,0,1,0,50436.4,0.0637224,0.0633747,5.4932,26,0.00197113,10,0.00034813,-2.26017,0.282138,0.209117,44.8713,0.0633747,
2,1,0,1,0,50436.4,0.06572,0.0654214,5.58845,26,0.00208207,10,0.000365604,-2.25271,0.271991,0.216919,47.3017,0.0654214,
2,1,0,1,0,50436.5,0.0677176,0.0673836,5.68283,26,0.00219444,10,0.000382929,-2.24544,0.295065,0.199956,44.2954,0.06738361,
2,1,0,1,0,50436.5,0.0697152,0.0694052,5.76492,26,0.00230907,10,0.000400115,-2.23921,0.317538,0.185804,41.8118,0.0694052,
2,1,0,1,0,50436.5,0.0717128,0.0713845,5.85011,26,0.00242532,10,0.000417607,-2.23284,0.305988,0.192818,44.0281,0.0713845,
2,1,0,1,0,50436.5,0.0737104,0.0733281,5.93763,26,0.00254327,10,0.000435395,-2.22639,0.324788,0.181657,42.0615,0.07332807,
2,1,0,1,0,50436.5,0.075708,0.0753407,6.01652,26,0.0026623,10,0.000453289,-2.22065,0.360453,0.163683,38.4217,0.0753407,
2,1,0,1,0,50436.6,0.0777056,0.0773531,6.09228,26,0.00278342,10,0.000471257,-2.21522,0.369429,0.159706,37.9718,0.07735312,
2,1,0,1,0,50436.6,0.0797031,0.0793451,6.16857,26,0.00290608,10,0.000489446,-2.20982,0.38638,0.152699,36.7486,0.0793451,
2,1,0,1,0,50436.6,0.0817007,0.0814096,6.24135,26,0.00303023,10,0.000508106,-2.20472,0.397515,0.148422,36.1477,0.0814096,
2,1,0,1,0,50436.6,0.0836983,0.0833402,6.31298,26,0.00315519,10,0.000526125,-2.19977,0.416415,0.141686,34.8895,0.0833402,
2,1,0,1,0,50436.6,0.0856959,0.0853386,6.37843,26,0.00328217,10,0.000544326,-2.19529,0.460031,0.128252,31.9171,0.0853386,
2,1,0,1,0,50436.7,0.0876935,0.0873452,6.44081,26,0.00341046,10,0.000562574,-2.19106,0.471634,0.125097,31.4471,0.0873452,
2,1,0,1,0,50436.7,0.0896911,0.0893461,6.50446,26,0.00353998,10,0.000581147,-2.18679,0.446608,0.132107,33.5558,0.0893461,
2,1,0,1,0,50436.7,0.0916887,0.091391,6.57657,26,0.00367021,10,0.000601039,-2.182,0.431254,0.13681,35.1034,0.091391,
2,1,0,1,0,50436.7,0.0936862,0.0933544,6.64516,26,0.00380253,10,0.000620355,-2.17749,0.457468,0.128971,33.4351,0.0933544,
2,1,0,1,0,50436.7,0.0956838,0.0953633,6.70939,26,0.00393612,10,0.000639829,-2.17332,0.459705,0.128343,33.6183,0.0953633,
2,1,0,1,0,50436.8,0.0976814,0.0973319,6.77888,26,0.00407105,10,0.000659801,-2.16884,0.387754,0.152158,40.3126,0.0973319,
2,1,0,1,0,50436.8,0.099679,0.0993096,6.86847,26,0.00420691,10,0.000682106,-2.16314,0.383973,0.153657,41.1435,0.0993096,
2,1,0,1,0,50436.8,0.101677,0.101339,6.94373,26,0.00434513,10,0.000703669,-2.15841,0.383825,0.153716,41.7086,0.1013387,
2,1,0,1,0,50436.8,0.103674,0.103357,7.03726,26,0.00448499,10,0.000727347,-2.1526,0.320357,0.184169,50.6284,0.103357,
2,1,0,1,0,50436.8,0.105672,0.105315,7.14503,26,0.00462684,10,0.000752476,-2.146,0.298823,0.197441,55.0777,0.105315,
2,1,0,1,0,50436.9,0.107667,0.107392,7.25954,26,0.00477015,10,0.000779618,-2.13909,0.292536,0.201685,57.143,0.107392,
2,1,0,1,0,50436.9,0.109667,0.109354,7.37587,26,0.00491652,10,0.000806583,-2.13219,0.276221,0.213597,61.5225,0.109354,
2,1,0,1,0,50436.9,0.111665,0.111341,7.50246,26,0.00506535,10,0.000835329,-2.1248,0.263585,0.223837,65.5637,0.1113407,
2,1,0,1,0,50436.9,0.113662,0.113326,7.63625,26,0.00521677,10,0.000865384,-2.11712,0.267821,0.220296,65.6211,0.113326,
2,1,0,1,0,50436.9,0.11566,0.11533,7.76424,26,0.0053708,10,0.000895449,-2.1099,0.262411,0.224838,68.1989,0.11533,
2,1,0,1,0,50437,0.117657,0.117336,7.90974,26,0.00552688,10,0.000928097,-2.10184,0.262543,0.224725,69.298,0.117336,
2,1,0,1,0,50437,0.119655,0.119313,8.04024,26,0.00568641,10,0.000959303,-2.09473,0.275514,0.214145,67.2207,0.119313,
2,1,0,1,0,50437,0.121652,0.12133,8.17824,26,0.00584865,10,0.000992267,-2.08734,0.278018,0.212217,67.7013,0.12133,
2,1,0,1,0,50437,0.12365,0.123297,8.30998,26,0.00601356,10,0.0010246,-2.0804,0.293396,0.201093,65.198,0.123297,
2,1,0,1,0,50437,0.125648,0.125318,8.43822,26,0.00618034,10,0.00105746,-2.07375,0.321549,0.183487,60.369,0.125318,
2,1,0,1,0,50437.1,0.127645,0.127304,8.55186,26,0.00635032,10,0.00108868,-2.06794,0.358176,0.164724,54.949,0.127304,
2,1,0,1,0,50437.1,0.129643,0.129313,8.65776,26,0.00652245,10,0.00111956,-2.06259,0.387172,0.152387,51.4691,0.129313,
2,1,0,1,0,50437.1,0.13164,0.131303,8.7577,26,0.00669667,10,0.00114991,-2.05761,0.429754,0.137288,46.8841,0.131303,
2,1,0,1,0,50437.1,0.133638,0.13328,8.84377,26,0.00687193,10,0.0011787,-2.05336,0.479068,0.123156,42.4976,0.1332805,
2,1,0,1,0,50437.1,0.135636,0.135278,8.92664,26,0.0070497,10,0.00120758,-2.04931,0.537097,0.10985,38.2459,0.135278,
2,1,0,1,0,50437.2,0.137633,0.13734,8.99902,26,0.00722902,10,0.00123592,-2.0458,0.627117,0.0940814,33.0171,0.13734,
2,1,0,1,0,50437.2,0.139631,0.139267,9.05833,26,0.0074097,10,0.00126153,-2.04295,0.692143,0.0852424,30.1356,0.139267,
2,1,0,1,0,50437.2,0.141628,0.141302,9.11841,26,0.0075906,10,0.00128845,-2.04008,0.814441,0.0724423,25.7564,0.141302,
2,1,0,1,0,50437.2,0.143626,0.143305,9.16235,26,0.00777341,10,0.00131301,-2.03799,1.37957,0.0427668,15.2702,0.143305,
2,1,0,1,0,50437.2,0.145624,0.145313,9.17966,26,0.00795686,10,0.00133392,-2.03717,7.27574,0.00810914,2.90146,0.145313,
2,1,0,1,0,50437.3,0.147621,0.147254,9.17381,26,0.00814042,10,0.00135088,-2.03745,-3.31243,-0.0178117,-6.37226,0.147254,
2,1,0,1,0,50437.3,0.149619,0.149301,9.15425,26,0.00832282,10,0.00136674,-2.03838,-0.975799,-0.0604633,-21.5454,0.149301,
2,1,0,1,0,50437.3,0.151616,0.151259,9.0875,26,0.00850531,10,0.00137457,-2.04156,-0.48801,-0.120899,-42.7901,0.1512595,
2,1,0,1,0,50437.3,0.153614,0.153276,8.98415,26,0.00868601,10,0.00137706,-2.04652,-0.327791,-0.179993,-62.9475,0.153276,
2,1,0,1,0,50437.3,0.155611,0.155258,8.83582,26,0.00886425,10,0.00137183,-2.05375,-0.253694,-0.232563,-80.0918,0.155258,
2,1,0,1,0,50437.4,0.157609,0.157243,8.66646,26,0.00903845,10,0.00136274,-2.06216,-0.19951,-0.295725,-99.6467,0.157243,
2,1,0,1,0,50437.4,0.159607,0.159278,8.43526,26,0.00920946,10,0.00134355,-2.0739,-0.158279,-0.37276,-122.459,0.1592776,
2,1,0,1,0,50437.4,0.161604,0.161265,8.17391,26,0.00937555,10,0.00131816,-2.08757,-0.136799,-0.43129,-137.307,0.161265,
2,1,0,1,0,50437.4,0.163602,0.163278,7.88602,26,0.00953611,10,0.00128761,-2.10314,-0.122522,-0.481545,-147.959,0.1632777,
2,1,0,1,0,50437.4,0.165606,0.165282,7.57956,26,0.00969072,10,0.00125276,-2.12036,-0.113436,-0.520115,-153.799,0.165282,
2,1,0,1,0,50437.5,0.167597,0.167244,7.27596,26,0.00983854,10,0.00121686,-2.13811,-0.109834,-0.537175,-152.479,0.1672443,
2,1,0,1,0,50437.5,0.169595,0.169244,6.97537,26,0.00998101,10,0.00118054,-2.15643,-0.108604,-0.543258,-147.83,0.169244,
2,1,0,1,0,50437.5,0.171592,0.171291,6.6777,26,0.0101175,10,0.00114383,-2.17537,-0.10841,-0.544228,-142.033,0.171291,
2,1,0,1,0,50437.5,0.173581,0.173246,6.40705,26,0.0102476,10,0.00110999,-2.19334,-0.113885,-0.518064,-129.731,0.173246,
2,1,0,1,0,50437.5,0.175587,0.175265,6.16213,26,0.0103734,10,0.00108001,-2.21027,-0.120608,-0.48919,-117.723,0.175265,
2,1,0,1,0,50437.6,0.177585,0.177285,5.9315,26,0.0104943,10,0.00105157,-2.22684,-0.123774,-0.476676,-110.474,0.177285,
2,1,0,1,0,50437.6,0.179582,0.179266,5.72023,26,0.0106107,10,0.00102544,-2.24259,-0.132596,-0.44496,-99.541,0.179266,
2,1,0,1,0,50437.6,0.18158,0.181245,5.5373,26,0.0107233,10,0.00100361,-2.2567,-0.146295,-0.403296,-87.282,0.181245,
2,1,0,1,0,50437.6,0.183578,0.183229,5.37428,26,0.0108319,10,0.000984724,-2.26968,-0.156535,-0.376914,-79.1038,0.1832291,
2,1,0,1,0,50437.6,0.185575,0.185243,5.22109,26,0.0109378,10,0.000967169,-2.28224,-0.167448,-0.352349,-71.914,0.185243,
2,1,0,1,0,50437.7,0.187573,0.187213,5.08775,26,0.0110408,10,0.000952495,-2.29347,-0.181316,-0.325399,-64.6556,0.187213,
2,1,0,1,0,50437.7,0.18957,0.189225,4.96362,26,0.0111413,10,0.000939241,-2.3042,-0.2017,-0.292514,-56.7632,0.189225,
2,1,0,1,0,50437.7,0.191568,0.191251,4.85858,26,0.0112391,10,0.000929207,-2.31349,-0.218804,-0.269648,-51.1635,0.191251,
2,1,0,1,0,50437.7,0.193566,0.193177,4.76144,26,0.0113353,10,0.000919799,-2.32226,-0.238654,-0.24722,-45.9897,0.1931767,
2,1,0,1,0,50437.7,0.195563,0.195223,4.6759,26,0.0114297,10,0.000912842,-2.33014,-0.25981,-0.227089,-41.4461,0.195223,
2,1,0,1,0,50437.8,0.197561,0.19725,4.59263,26,0.0115224,10,0.000905894,-2.33794,-0.280927,-0.210019,-37.698,0.19725,
2,1,0,1,0,50437.8,0.199558,0.199262,4.52363,26,0.0116132,10,0.000901388,-2.34451,-0.321733,-0.183382,-32.4036,0.199262,
2,1,0,1,0,50437.8,0.201556,0.201241,4.4633,26,0.011703,10,0.000898198,-2.35034,-0.32434,-0.181908,-31.6688,0.201241,
2,1,0,1,0,50437.8,0.203553,0.203209,4.39862,26,0.0117916,10,0.000893841,-2.35668,-0.337272,-0.174933,-30.0596,0.203209,
2,1,0,1,0,50437.8,0.205551,0.205235,4.34323,26,0.011879,10,0.000891384,-2.36219,-0.449914,-0.131136,-22.2822,0.205235,
2,1,0,1,0,50437.9,0.207549,0.207216,4.30934,26,0.0119651,10,0.000892966,-2.36559,-0.457044,-0.129091,-21.664,0.207216,
2,1,0,1,0,50437.9,0.209546,0.209203,4.25728,26,0.0120507,10,0.000890634,-2.37087,-0.386674,-0.152583,-25.357,0.209203,
2,1,0,1,0,50437.9,0.211544,0.211233,4.20748,26,0.0121354,10,0.00088876,-2.37598,-0.439207,-0.134333,-22.0882,0.2112333,
2,1,0,1,0,50437.9,0.213541,0.213178,4.16947,26,0.0122192,10,0.00088884,-2.37992,-0.577208,-0.102216,-16.6531,0.213178,
2,1,0,1,0,50437.9,0.215539,0.215176,4.14182,26,0.0123019,10,0.000891221,-2.38281,-0.561577,-0.105061,-16.9573,0.2151759,
2,1,0,1,0,50438,0.217537,0.21715,4.10212,26,0.0123844,10,0.000890775,-2.38699,-0.608108,-0.0970222,-15.5636,0.21715,
2,1,0,1,0,50438,0.219534,0.219213,4.07899,26,0.0124662,10,0.000894168,-2.38945,-0.670106,-0.0880457,-13.9975,0.219213,
2,1,0,1,0,50438,0.221532,0.221217,4.04519,26,0.0125475,10,0.000894865,-2.39306,-0.654132,-0.0901958,-14.2588,0.221217,
2,1,0,1,0,50438,0.223525,0.223168,4.0226,26,0.0126278,10,0.000897715,-2.39549,-0.805252,-0.073269,-11.5014,0.223168,
2,1,0,1,0,50438,0.225527,0.225205,3.99933,26,0.0127081,10,0.000900667,-2.39801,-0.788217,-0.0748525,-11.6817,0.225205,
2,1,0,1,0,50438.1,0.227525,0.227224,3.97522,26,0.0127879,10,0.000903265,-2.40064,-0.724038,-0.0814874,-12.6381,0.227224,
2,1,0,1,0,50438.1,0.229522,0.229206,3.94876,26,0.0128672,10,0.000905079,-2.40354,-0.829401,-0.0711357,-10.9755,0.229206,
2,1,0,1,0,50438.1,0.23152,0.231187,3.93172,26,0.012946,10,0.000908964,-2.40542,-1.21457,-0.048577,-7.45773,0.231187,
2,1,0,1,0,50438.1,0.233517,0.233212,3.91888,26,0.0130243,10,0.000913931,-2.40684,-1.07835,-0.054713,-8.36008,0.233212,
2,1,0,1,0,50438.1,0.235515,0.235128,3.89877,26,0.0131025,10,0.000916712,-2.40907,-0.9883,-0.0596985,-9.08805,0.235128,
2,1,0,1,0,50438.2,0.237512,0.237205,3.88259,26,0.0131803,10,0.000920971,-2.41088,-1.1894,-0.0496048,-7.51825,0.237205,
2,1,0,1,0,50438.2,0.23951,0.239171,3.86838,26,0.0132578,10,0.000925203,-2.41247,-1.39663,-0.0422447,-6.38012,0.2391707,
2,1,0,1,0,50438.2,0.241508,0.241199,3.85711,26,0.0133347,10,0.000930331,-2.41374,-1.05375,-0.0559906,-8.4163,0.241199,
2,1,0,1,0,50438.2,0.243505,0.243151,3.83488,26,0.0134116,10,0.000932455,-2.41625,-1.22553,-0.0481425,-7.22004,0.243151,
2,1,0,1,0,50438.2,0.245503,0.245159,3.82852,26,0.0134883,10,0.000938596,-2.41697,-2.08803,-0.0282563,-4.21944,0.245159,
2,1,0,1,0,50438.3,0.2475,0.247224,3.81769,26,0.0135648,10,0.000943826,-2.4182,-1.53719,-0.0383818,-5.71769,0.247224,
2,1,0,1,0,50438.3,0.249498,0.249156,3.80567,26,0.0136406,10,0.000948205,-2.41957,-1.31206,-0.0449676,-6.67683,0.249156,
2,1,0,1,0,50438.3,0.251496,0.251148,3.7915,26,0.0137166,10,0.000952227,-2.42119,-1.1874,-0.0496885,-7.35132,0.251148,
2,1,0,1,0,50438.3,0.253493,0.253159,3.77624,26,0.0137923,10,0.00095599,-2.42294,-1.33828,-0.0440865,-6.50107,0.253159,
2,1,0,1,0,50438.3,0.255491,0.255152,3.76547,26,0.0138677,10,0.000960766,-2.42418,-2.46369,-0.0239478,-3.52262,0.255152,
2,1,0,1,0,50438.4,0.257488,0.257214,3.76196,26,0.0139426,10,0.000967627,-2.42459,-2.28672,-0.0258011,-3.78398,0.257214,
2,1,0,1,0,50438.4,0.259486,0.259145,3.75036,26,0.0140178,10,0.000971888,-2.42593,-1.17326,-0.0502872,-7.3548,0.259145,
2,1,0,1,0,50438.4,0.261484,0.261121,3.73322,26,0.0140927,10,0.000974822,-2.42792,-1.41814,-0.0416036,-6.06951,0.261121,
2,1,0,1,0,50438.4,0.263481,0.263157,3.72601,26,0.0141673,10,0.000980526,-2.42876,-3.80344,-0.0155123,-2.25733,0.263157,
2,1,0,1,0,50438.4,0.265479,0.265134,3.72416,26,0.0142415,10,0.000987402,-2.42897,-2.35537,-0.0250492,-3.63533,0.265134,
2,1,0,1,0,50438.5,0.267476,0.267195,3.71133,26,0.0143158,10,0.000991647,-2.43047,-1.33721,-0.0441218,-6.3906,0.267195,
2,1,0,1,0,50438.5,0.269474,0.269157,3.69845,26,0.0143899,10,0.000995465,-2.43198,-1.39132,-0.0424058,-6.12224,0.269157,
2,1,0,1,0,50438.5,0.271471,0.271114,3.68733,26,0.0144639,10,0.000999688,-2.43329,-3.92389,-0.0150361,-2.16775,0.271114,
2,1,0,1,0,50438.5,0.273469,0.27315,3.68979,26,0.0145373,10,0.00100787,-2.433,-2.37131,-0.0248807,-3.57347,0.27315,
2,1,0,1,0,50438.5,0.275467,0.275144,3.67293,26,0.0146109,10,0.00101058,-2.43499,-1.23806,-0.0476551,-6.83714,0.275144,
2,1,0,1,0,50438.6,0.277464,0.277116,3.66268,26,0.0146843,10,0.00101499,-2.4362,-1.67467,-0.0352309,-5.03626,0.277116,
2,1,0,1,0,50438.6,0.279462,0.279139,3.65281,26,0.0147576,10,0.00101964,-2.43737,-2.56353,-0.0230151,-3.28389,0.279139,
2,1,0,1,0,50438.6,0.281464,0.281154,3.64941,26,0.0148306,10,0.00102605,-2.43778,-1.97214,-0.0299167,-4.25492,0.281154,
2,1,0,1,0,50438.6,0.283457,0.283137,3.6358,26,0.0149031,10,0.00102943,-2.4394,-1.9009,-0.031038,-4.4099,0.283137,
2,1,0,1,0,50438.6,0.285455,0.285154,3.63178,26,0.0149759,10,0.00103562,-2.43988,-1.95946,-0.0301103,-4.26249,0.285154,
2,1,0,1,0,50438.7,0.287452,0.287117,3.61883,26,0.0150484,10,0.00103903,-2.44143,-1.5758,-0.0374412,-5.29153,0.287117,
2,1,0,1,0,50438.7,0.28945,0.2891,3.6109,26,0.0151207,10,0.00104391,-2.44238,-3.94573,-0.0149529,-2.10935,0.2891,
2,1,0,1,0,50438.7,0.291447,0.29113,3.61037,26,0.0151926,10,0.00105109,-2.44245,-1.56917,-0.0375994,-5.28302,0.29113,
2,1,0,1,0,50438.7,0.293445,0.293111,3.58971,26,0.0152646,10,0.00105218,-2.44494,-1.29149,-0.0456835,-6.41398,0.293111,
2,1,0,1,0,50438.7,0.295442,0.295129,3.58472,26,0.0153364,10,0.00105795,-2.44554,-2.95751,-0.0199492,-2.79045,0.295129,
2,1,0,1,0,50438.8,0.29744,0.297097,3.57858,26,0.0154081,10,0.00106319,-2.44629,-2.15359,-0.0273961,-3.8245,0.297097,
2,1,0,1,0,50438.8,0.299438,0.299152,3.56933,26,0.0154793,10,0.00106777,-2.44741,-0.0373643,-1.57905,-205.503,0.299152,
2,1,0,1,0,50438.8,0.299737,0.299415,3.10218,26,0.0155085,10,0.000928841,-2.50833,0.00428146,13.7803,1255.92,0.299415,
2,1,0,1,0,50438.8,0.29774,0.297444,1.42489,26,0.0155513,10,0.000423826,-2.84622,0.00510955,11.547,646.619,0.297444,
2,1,0,1,0,50438.8,0.295742,0.295405,0.509129,26,0.0155698,10,0.000150399,-3.29317,0.00336885,17.5134,377.394,0.295405,
2,0,0,1,0,50438.8,0.293745,0.293426,-0.0914367,26,0.0155736,10,-2.68299e-05,-4.03888,0.400299,0.14739,252.622,0.293426,
2,0,0,1,0,50438.9,0.291747,0.29142,-0.497591,26,0.0155675,10,-0.000145008,-3.30313,-0.00425639,-13.8615,177.608,0.29142,
2,0,0,1,0,50438.9,0.289754,0.289403,-0.805982,26,0.0155544,10,-0.000233254,-3.09367,-0.0126507,-4.66377,133.262,0.289403,
2,0,0,1,0,50438.9,0.287752,0.287418,-1.03091,26,0.0155359,10,-0.000296301,-2.98678,-0.0226613,-2.60355,101.067,0.287418,
2,0,0,1,0,50438.9,0.285754,0.285398,-1.21074,26,0.0155134,10,-0.000345544,-2.91695,-0.0334681,-1.76287,81.6749,0.285398,
2,0,0,1,0,50438.9,0.283757,0.283408,-1.35843,26,0.0154877,10,-0.000384989,-2.86696,-0.0453039,-1.30232,68.232,0.283408,
2,0,0,1,0,50439,0.281759,0.281402,-1.48344,26,0.0154592,10,-0.000417443,-2.82873,-0.0595905,-0.990091,56.7604,0.281402,
2,0,0,1,0,50439,0.279761,0.279411,-1.58531,26,0.0154287,10,-0.000442953,-2.79989,-0.0761075,-0.775219,47.7034,0.2794109,
2,0,0,1,0,50439,0.277764,0.27741,-1.67388,26,0.0153961,10,-0.00046435,-2.77628,-0.0925647,-0.637392,41.488,0.27741,
2,0,0,1,0,50439,0.275766,0.275365,-1.75317,26,0.0153618,10,-0.000482762,-2.75618,-0.10993,-0.536706,36.5737,0.275365,
2,0,0,1,0,50439,0.273769,0.273404,-1.82037,26,0.015326,10,-0.000497697,-2.73984,-0.120183,-0.490917,34.8849,0.273404,
2,0,0,1,0,50439.1,0.271771,0.271438,-1.89017,26,0.015289,10,-0.000513064,-2.7235,-0.128861,-0.457858,33.7015,0.2714377,
2,0,0,1,0,50439.1,0.269774,0.26946,-1.9533,26,0.0152506,10,-0.000526335,-2.70923,-0.155267,-0.379991,28.8837,0.26946,
2,0,0,1,0,50439.1,0.267776,0.267416,-2.00633,26,0.015211,10,-0.000536526,-2.6976,-0.184715,-0.319411,24.9711,0.267416,
2,0,0,1,0,50439.1,0.265778,0.26543,-2.05394,26,0.0151705,10,-0.000545177,-2.68741,-0.185374,-0.318276,25.5513,0.26543,
2,0,0,1,0,50439.1,0.263781,0.263413,-2.10862,26,0.0151291,10,-0.000555437,-2.676,-0.193561,-0.304813,25.0168,0.263413,
2,0,0,1,0,50439.2,0.261783,0.261478,-2.15279,26,0.0150865,10,-0.000562908,-2.667,-0.245783,-0.240049,20.1227,0.261478,
2,0,0,1,0,50439.2,0.259786,0.25948,-2.18775,26,0.0150432,10,-0.000567678,-2.66,-0.247312,-0.238565,20.4247,0.25948,
2,0,0,1,0,50439.2,0.257788,0.257443,-2.23522,26,0.014999,10,-0.00057544,-2.65068,-0.244616,-0.241195,20.9898,0.257443,
2,0,0,1,0,50439.2,0.25579,0.255442,-2.27251,26,0.0149541,10,-0.000580496,-2.64349,-0.287129,-0.205482,18.213,0.255442,
2,0,0,1,0,50439.2,0.253793,0.253477,-2.30745,26,0.0149084,10,-0.000584885,-2.63687,-0.307456,-0.191897,17.273,0.253477,
2,0,0,1,0,50439.3,0.251795,0.251498,-2.34064,26,0.0148619,10,-0.000588666,-2.63067,-0.30592,-0.192861,17.6336,0.251498,
2,0,0,1,0,50439.3,0.249798,0.249448,-2.37848,26,0.0148147,10,-0.000593309,-2.6237,-0.327196,-0.18032,16.7094,0.249448,
2,0,0,1,0,50439.3,0.2478,0.247438,-2.40849,26,0.0147671,10,-0.00059595,-2.61826,-0.345748,-0.170644,16.0529,0.247438,
2,0,0,1,0,50439.3,0.245802,0.245448,-2.44271,26,0.0147185,10,-0.000599557,-2.61213,-0.355356,-0.166031,15.81,0.245448,
2,0,0,1,0,50439.3,0.243805,0.243442,-2.47166,26,0.0146694,10,-0.000601706,-2.60701,-0.428497,-0.137691,13.2668,0.2434417,
2,0,0,1,0,50439.4,0.241807,0.24149,-2.49521,26,0.0146196,10,-0.000602569,-2.60289,-0.36528,-0.16152,15.7753,0.24149,
2,0,0,1,0,50439.4,0.23981,0.239505,-2.53377,26,0.0145696,10,-0.00060685,-2.59623,-0.365314,-0.161505,15.9285,0.239505,
2,0,0,1,0,50439.4,0.237812,0.237466,-2.55931,26,0.0145186,10,-0.000607749,-2.59188,-0.447399,-0.131873,13.1764,0.2374662,
2,0,0,1,0,50439.4,0.235815,0.235477,-2.58684,26,0.0144671,10,-0.000609141,-2.58723,-0.457581,-0.128939,13.0087,0.235477,
2,0,0,1,0,50439.4,0.233817,0.233481,-2.61115,26,0.0144151,10,-0.000609653,-2.58317,-0.417541,-0.141303,14.4251,0.233481,
2,0,0,1,0,50439.5,0.231815,0.231449,-2.64494,26,0.0143626,10,-0.000612169,-2.57758,-0.385161,-0.153183,15.7962,0.231449,
2,0,0,1,0,50439.5,0.229822,0.229524,-2.67366,26,0.0143097,10,-0.000613668,-2.57289,-0.472244,-0.124935,13.0225,0.229524,
2,0,0,1,0,50439.5,0.227824,0.227462,-2.69687,26,0.014256,10,-0.000613434,-2.56914,-0.509951,-0.115697,12.1832,0.227462,
2,0,0,1,0,50439.5,0.225827,0.225483,-2.72288,26,0.0142019,10,-0.000613964,-2.56497,-0.557205,-0.105886,11.2373,0.225483,
2,0,0,1,0,50439.5,0.223829,0.223454,-2.7419,26,0.0141473,10,-0.000612689,-2.56195,-0.538343,-0.109596,11.7459,0.223454,
2,0,0,1,0,50439.6,0.221831,0.221504,-2.76962,26,0.0140923,10,-0.000613482,-2.55758,-0.463908,-0.12718,13.7426,0.221504,
2,0,0,1,0,50439.6,0.219834,0.219534,-2.79578,26,0.0140366,10,-0.000613768,-2.5535,-0.486151,-0.121361,13.2438,0.219534,
2,0,0,1,0,50439.6,0.217836,0.217479,-2.82293,26,0.0139804,10,-0.000613928,-2.5493,-0.602586,-0.0979113,10.7665,0.2174792,
2,0,0,1,0,50439.6,0.215839,0.21547,-2.83953,26,0.0139238,10,-0.000611834,-2.54675,-0.561083,-0.105154,11.6801,0.21547,
2,0,0,1,0,50439.6,0.213841,0.213491,-2.86951,26,0.0138669,10,-0.000612614,-2.54219,-0.505651,-0.116681,13.0484,0.213491,
2,0,0,1,0,50439.7,0.211844,0.211486,-2.89152,26,0.0138092,10,-0.000611515,-2.53887,-0.598328,-0.0986082,11.1287,0.2114858,
2,0,0,1,0,50439.7,0.209846,0.209476,-2.91419,26,0.0137511,10,-0.000610453,-2.53548,-0.582291,-0.101324,11.5243,0.209476,
2,0,0,1,0,50439.7,0.207848,0.207517,-2.93726,26,0.0136925,10,-0.000609531,-2.53206,-0.442167,-0.133434,15.3334,0.207517,
2,0,0,1,0,50439.7,0.205851,0.205511,-2.97498,26,0.0136336,10,-0.000611393,-2.52652,-0.505292,-0.116764,13.5087,0.205511,
2,0,0,1,0,50439.7,0.203853,0.203483,-2.99176,26,0.0135739,10,-0.00060877,-2.52407,-0.728751,-0.0809604,9.4597,0.203483,
2,0,0,1,0,50439.8,0.201856,0.201498,-3.01295,26,0.0135138,10,-0.000607103,-2.52101,-0.576985,-0.102256,12.0348,0.201498,
2,0,0,1,0,50439.8,0.199858,0.199492,-3.03978,26,0.0134532,10,-0.000606412,-2.51716,-0.515435,-0.114466,13.5809,0.199492,
2,0,0,1,0,50439.8,0.19786,0.19749,-3.06738,26,0.0133924,10,-0.000605777,-2.51323,-0.60477,-0.0975578,11.6618,0.19749,
2,0,0,1,0,50439.8,0.195863,0.195509,-3.08623,26,0.0133308,10,-0.000603386,-2.51057,-0.526724,-0.112013,13.5268,0.195509,
2,0,0,1,0,50439.8,0.193865,0.1935,-3.12135,26,0.0132687,10,-0.000603981,-2.50566,-0.52092,-0.113261,13.7623,0.1935,
2,0,0,1,0,50439.9,0.191868,0.191536,-3.14091,26,0.013206,10,-0.000601597,-2.50295,-0.555424,-0.106225,13.048,0.191536,
2,0,0,1,0,50439.9,0.18987,0.189496,-3.1736,26,0.0131432,10,-0.000601384,-2.49845,-0.492085,-0.119898,14.835,0.189496,
2,0,0,1,0,50439.9,0.187872,0.187549,-3.20006,26,0.0130794,10,-0.000600167,-2.49484,-0.563046,-0.104787,13.0842,0.187549,
2,0,0,1,0,50439.9,0.185875,0.185531,-3.22547,26,0.0130151,10,-0.000598426,-2.49141,-0.596315,-0.098941,12.4525,0.185531,
2,0,0,1,0,50439.9,0.183877,0.183549,-3.24986,26,0.0129503,10,-0.00059651,-2.48814,-0.445266,-0.132505,16.8513,0.183549,
2,0,0,1,0,50440,0.18188,0.18158,-3.29205,26,0.0128852,10,-0.000597771,-2.48253,-0.435016,-0.135627,17.3853,0.18158,
2,0,0,1,0,50440,0.179882,0.179549,-3.31941,26,0.0128191,10,-0.000595997,-2.47894,-0.619286,-0.0952709,12.3325,0.179549,
2,0,0,1,0,50440,0.177885,0.177549,-3.34177,26,0.0127524,10,-0.000593327,-2.47602,-0.513778,-0.114836,15.0108,0.177549,
2,0,0,1,0,50440,0.175887,0.175544,-3.37953,26,0.0126851,10,-0.000593256,-2.47114,-0.393161,-0.150066,19.8022,0.175544,
2,0,0,1,0,50440,0.173896,0.173554,-3.42088,26,0.0126174,10,-0.000593707,-2.46586,-0.41685,-0.141538,18.8755,0.173554,
2,0,0,1,0,50440.1,0.171892,0.171543,-3.45504,26,0.0125486,10,-0.000592689,-2.46155,-0.446388,-0.132172,17.83,0.171543,
2,0,0,1,0,50440.1,0.169894,0.169534,-3.49254,26,0.0124791,10,-0.000592107,-2.45686,-0.378916,-0.155707,21.2519,0.169534,
2,0,0,1,0,50440.1,0.167897,0.167557,-3.53976,26,0.0124087,10,-0.000593111,-2.45103,-0.372804,-0.15826,21.8415,0.167557,
2,0,0,1,0,50440.1,0.165899,0.165512,-3.5804,26,0.0123375,10,-0.000592599,-2.44607,-0.366815,-0.160844,22.5011,0.165512,
2,0,0,1,0,50440.1,0.163901,0.163559,-3.62972,26,0.0122656,10,-0.000593673,-2.44013,-0.31828,-0.185372,26.2698,0.163559,
2,0,0,1,0,50440.2,0.161904,0.161627,-3.68247,26,0.0121925,10,-0.000595185,-2.43386,-0.316781,-0.186249,26.7698,0.1616268,
2,0,0,1,0,50440.2,0.159906,0.159567,-3.73657,26,0.0121182,10,-0.000596235,-2.42753,-0.303687,-0.194279,28.3528,0.159567,
2,0,0,1,0,50440.2,0.157909,0.157587,-3.79701,26,0.0120428,10,-0.000598359,-2.42056,-0.266186,-0.22165,32.8886,0.157587,
2,0,0,1,0,50440.2,0.155911,0.155565,-3.86822,26,0.0119664,10,-0.000601758,-2.41249,-0.240643,-0.245177,37.038,0.1555647,
2,0,0,1,0,50440.2,0.153913,0.153574,-3.94562,26,0.0118881,10,-0.000605947,-2.40388,-0.236782,-0.249175,38.3622,0.153574,
2,0,0,1,0,50440.3,0.151916,0.151541,-4.02258,26,0.0118084,10,-0.000609585,-2.39549,-0.212594,-0.277524,43.6803,0.151541,
2,0,0,1,0,50440.3,0.149918,0.149547,-4.12152,26,0.0117269,10,-0.000616363,-2.38494,-0.182544,-0.32321,52.0337,0.149547,
2,0,0,1,0,50440.3,0.147921,0.147567,-4.22938,26,0.0116437,10,-0.000624114,-2.37372,-0.172681,-0.34167,56.4284,0.147567,
2,0,0,1,0,50440.3,0.145923,0.145603,-4.34408,26,0.0115578,10,-0.000632513,-2.3621,-0.15669,-0.376539,64.0006,0.145603,
2,0,0,1,0,50440.3,0.143926,0.143595,-4.48355,26,0.0114694,10,-0.000643816,-2.34838,-0.13914,-0.424034,74.3209,0.143595,
2,0,0,1,0,50440.4,0.141928,0.141605,-4.64127,26,0.0113781,10,-0.000657225,-2.33336,-0.130829,-0.450971,81.7904,0.141605,
2,0,0,1,0,50440.4,0.13993,0.139546,-4.81475,26,0.0112839,10,-0.000671878,-2.31743,-0.124202,-0.475033,89.3259,0.139546,
2,0,0,1,0,50440.4,0.137933,0.137592,-4.99968,26,0.0111859,10,-0.000687917,-2.30106,-0.113874,-0.518118,101.297,0.137592,
2,0,0,1,0,50440.4,0.135935,0.135647,-5.20967,26,0.0110838,10,-0.000706677,-2.28319,-0.111714,-0.528136,107.469,0.135647,
2,0,0,1,0,50440.4,0.133938,0.133547,-5.43442,26,0.0109773,10,-0.00072575,-2.26485,-0.109153,-0.540526,114.772,0.133547,
2,0,0,1,0,50440.5,0.13194,0.131563,-5.67845,26,0.0108667,10,-0.000747072,-2.24577,-0.104063,-0.566966,125.617,0.131563,
2,0,0,1,0,50440.5,0.129942,0.129626,-5.92695,26,0.0107506,10,-0.000768288,-2.22717,-0.109137,-0.540604,124.948,0.1296261,
2,0,0,1,0,50440.5,0.127945,0.127605,-6.17296,26,0.0106295,10,-0.0007877,-2.20951,-0.113996,-0.517562,124.699,0.127605,
2,0,0,1,0,50440.5,0.125947,0.125617,-6.42694,26,0.0105034,10,-0.00080733,-2.192,-0.115756,-0.509694,127.811,0.125617,
2,0,0,1,0,50440.5,0.12395,0.123603,-6.68445,26,0.0103729,10,-0.000826218,-2.17493,-0.123302,-0.4785,124.616,0.123603,
2,0,0,1,0,50440.6,0.121952,0.121616,-6.92551,26,0.0102367,10,-0.00084225,-2.15955,-0.133434,-0.442166,119.417,0.121616,
2,0,0,1,0,50440.6,0.119955,0.119609,-7.16135,26,0.0100957,10,-0.000856565,-2.14501,-0.141849,-0.415936,116.177,0.1196094,
2,0,0,1,0,50440.6,0.117957,0.117587,-7.39355,26,0.00995004,10,-0.000869386,-2.13115,-0.146559,-0.40257,116.064,0.117587,
2,0,0,1,0,50440.6,0.115955,0.115673,-7.61827,26,0.0097998,10,-0.000881225,-2.11814,-0.160679,-0.367192,109.039,0.115673,
2,0,0,1,0,50440.6,0.113962,0.113599,-7.82845,26,0.0096459,10,-0.0008893,-2.10632,-0.179872,-0.328011,100.076,0.113599,
2,0,0,1,0,50440.7,0.111964,0.111652,-8.02063,26,0.00948731,10,-0.00089552,-2.09579,-0.192954,-0.305772,95.6736,0.111652,
2,0,0,1,0,50440.7,0.109967,0.109618,-8.20928,26,0.00932484,10,-0.000899885,-2.0857,-0.209948,-0.281022,89.9407,0.109618,
2,0,0,1,0,50440.7,0.107969,0.107618,-8.38349,26,0.00915876,10,-0.000902212,-2.07657,-0.226811,-0.260128,85.042,0.107618,
2,0,0,1,0,50440.7,0.105971,0.10565,-8.54676,26,0.00899016,10,-0.000902962,-2.0682,-0.255055,-0.231322,77.0648,0.10565,
2,0,0,1,0,50440.7,0.103974,0.103626,-8.69114,26,0.00881766,10,-0.000900624,-2.06092,-0.294232,-0.200522,67.9529,0.103626,
2,0,0,1,0,50440.8,0.101976,0.101611,-8.82117,26,0.00864244,10,-0.000896331,-2.05447,-0.35471,-0.166333,57.1611,0.101611,
2,0,0,1,0,50440.8,0.0999786,0.0996037,-8.92103,26,0.00846498,10,-0.000888568,-2.04958,-0.423574,-0.139291,48.4756,0.0996037,
2,0,0,1,0,50440.8,0.0979811,0.0976279,-9.01427,26,0.00828634,10,-0.000880044,-2.04507,-0.494037,-0.119424,41.9606,0.0976279,
2,0,0,1,0,50440.8,0.0959835,0.0956876,-9.08536,26,0.0081052,10,-0.000869356,-2.04166,-0.719985,-0.0819461,29.0119,0.09568762,
2,0,0,1,0,50440.8,0.0939859,0.0936681,-9.12915,26,0.00792296,10,-0.00085511,-2.03957,-1.14714,-0.0514322,18.3102,0.0936681,
2,0,0,1,0,50440.9,0.0919883,0.0916718,-9.15889,26,0.00773995,10,-0.000839612,-2.03816,-1.55414,-0.0379632,13.566,0.0916718,
2,0,0,1,0,50440.9,0.0899907,0.0896419,-9.18377,26,0.00755729,10,-0.000823251,-2.03698,-19.5187,-0.00302274,1.08071,0.0896419,
2,0,0,1,0,50440.9,0.0879931,0.0876312,-9.16325,26,0.00737372,10,-0.000802987,-2.03795,1.83972,0.0320701,-11.4657,0.0876312,
2,0,0,1,0,50440.9,0.0859955,0.0856479,-9.13798,26,0.00719055,10,-0.000782648,-2.03915,1.31371,0.0449109,-16.0047,0.0856479,
2,0,0,1,0,50440.9,0.083998,0.083645,-9.09946,26,0.00700802,10,-0.000761124,-2.04098,1.00792,0.0585364,-20.7811,0.083645,
2,0,0,1,0,50441,0.0820004,0.0816721,-9.05536,26,0.00682722,10,-0.00073957,-2.04309,0.823838,0.071616,-25.2911,0.0816721,
2,0,0,1,0,50441,0.0800028,0.0796518,-8.99846,26,0.00664656,10,-0.000716743,-2.04583,0.719634,0.0819861,-28.7888,0.0796518,
2,0,0,1,0,50441,0.0780052,0.0776567,-8.93976,26,0.00646707,10,-0.000694233,-2.04867,0.66478,0.0887511,-30.9524,0.0776567,
2,0,0,1,0,50441,0.0760076,0.0756434,-8.87439,26,0.00628878,10,-0.00067129,-2.05186,0.679083,0.0868818,-30.1096,0.0756434,
2,0,0,1,0,50441,0.07401,0.0736953,-8.82048,26,0.00611265,10,-0.000650028,-2.05451,0.710711,0.0830154,-28.565,0.0736953,
2,0,0,1,0,50441.1,0.0720124,0.0716208,-8.75949,26,0.00593677,10,-0.000627362,-2.05752,0.686782,0.0859079,-29.3734,0.0716208,
2,0,0,1,0,50441.1,0.0700148,0.0696596,-8.70194,26,0.00576207,10,-0.000606174,-2.06038,0.676339,0.0872344,-29.6213,0.0696596,
2,0,0,1,0,50441.1,0.0680173,0.0676585,-8.64212,26,0.00558854,10,-0.000584713,-2.06338,0.86872,0.067916,-22.9424,0.0676585,
2,0,0,1,0,50441.1,0.0660106,0.0656383,-8.60968,26,0.005416,10,-0.000565125,-2.06501,0.903566,0.0652968,-21.9125,0.0656383,
2,0,0,1,0,50441.1,0.0640221,0.0637068,-8.55553,26,0.00524512,10,-0.000545045,-2.06775,0.793103,0.0743914,-24.8522,0.0637068,
2,0,0,1,0,50441.2,0.0620245,0.0616541,-8.51067,26,0.00507439,10,-0.000524717,-2.07004,0.848994,0.069494,-23.0782,0.0616541,
2,0,0,1,0,50441.2,0.0600269,0.0597035,-8.46314,26,0.00490462,10,-0.000505279,-2.07247,0.929935,0.0634453,-20.9693,0.0597035,
2,0,0,1,0,50441.2,0.0580361,0.057665,-8.42702,26,0.0047365,10,-0.000485944,-2.07433,0.889036,0.066364,-21.8055,0.057665,
2,0,0,1,0,50441.2,0.0560317,0.055679,-8.37538,26,0.00456836,10,-0.000466333,-2.077,0.812822,0.0725866,-23.7375,0.055679,
2,0,0,1,0,50441.2,0.0540342,0.0536632,-8.33202,26,0.00440119,10,-0.000447123,-2.07925,0.891642,0.06617,-21.5179,0.0536632,
2,0,0,1,0,50441.3,0.0520366,0.0516998,-8.28976,26,0.00423486,10,-0.000428578,-2.08146,0.833045,0.0708245,-22.9034,0.0516998,
2,0,0,1,0,50441.3,0.050039,0.0496639,-8.24043,26,0.00406945,10,-0.000409252,-2.08405,0.837062,0.0704846,-22.6793,0.0496639,
2,0,0,1,0,50441.3,0.0480414,0.0477299,-8.19972,26,0.00390576,10,-0.000391372,-2.0862,0.829044,0.0711663,-22.7621,0.0477299,
2,0,0,1,0,50441.3,0.0460438,0.0457228,-8.15072,26,0.00374216,10,-0.000372674,-2.0888,0.73574,0.0801914,-25.5011,0.0457228,
2,0,0,1,0,50441.3,0.0440462,0.0437054,-8.09709,26,0.0035796,10,-0.000353887,-2.09167,0.705593,0.0836176,-26.4264,0.0437054,
2,0,0,1,0,50441.4,0.0420486,0.0417406,-8.04549,26,0.00341813,10,-0.000335824,-2.09445,0.732232,0.0805756,-25.3024,0.04174063,
2,0,0,1,0,50441.4,0.0400511,0.0396956,-7.99564,26,0.0032584,10,-0.000317391,-2.09715,0.738474,0.0798944,-24.928,0.0396956,
2,0,0,1,0,50441.4,0.0380535,0.0376823,-7.94432,26,0.00309894,10,-0.00029936,-2.09994,0.590378,0.0999359,-30.9441,0.0376823,
2,0,0,1,0,50441.4,0.0360559,0.0357232,-7.87272,26,0.00294071,10,-0.000281239,-2.10388,0.604277,0.0976373,-30.0424,0.0357232,
2,0,0,1,0,50441.4,0.0340583,0.033687,-7.82429,26,0.00278368,10,-0.000263577,-2.10656,0.664727,0.0887583,-27.0809,0.033687,
2,0,0,1,0,50441.5,0.0320607,0.0316858,-7.76338,26,0.00262853,10,-0.000245989,-2.10995,0.532713,0.110754,-33.5326,0.0316858,
2,0,0,1,0,50441.5,0.0300631,0.0297393,-7.69191,26,0.00247395,10,-0.000228752,-2.11397,0.48735,0.121063,-36.3391,0.0297393,
2,0,0,1,0,50441.5,0.0280655,0.0277305,-7.61965,26,0.00232072,10,-0.000211297,-2.11807,0.51532,0.114492,-34.0633,0.0277305,
2,0,0,1,0,50441.5,0.0260679,0.025728,-7.55528,26,0.00216891,10,-0.000194382,-2.12175,0.493867,0.119465,-35.1996,0.025728,
2,0,0,1,0,50441.5,0.0240704,0.0237707,-7.48026,26,0.00201923,10,-0.000177811,-2.12608,0.454785,0.129732,-37.8704,0.0237707,
2,0,0,1,0,50441.6,0.0220728,0.0217557,-7.40484,26,0.00187026,10,-0.000161097,-2.13048,0.458604,0.128651,-37.1772,0.0217557,
2,0,0,1,0,50441.6,0.0200752,0.0197116,-7.32936,26,0.00172282,10,-0.000144473,-2.13493,0.431661,0.136681,-39.0783,0.0197116,
2,0,0,1,0,50441.6,0.0180776,0.0177313,-7.24758,26,0.00157691,10,-0.000128509,-2.13981,0.457387,0.128993,-36.5361,0.0177313,
2,0,0,1,0,50441.6,0.01608,0.0157939,-7.18622,26,0.00143325,10,-0.000113499,-2.1435,0.490826,0.120206,-33.6811,0.0157939,
2,0,0,1,0,50441.6,0.0140824,0.0137047,-7.11196,26,0.00129024,10,-9.74671e-05,-2.14801,0.451376,0.130711,-36.2805,0.0137047,
2,0,0,1,0,50441.7,0.0120848,0.0117204,-7.03843,26,0.00114872,10,-8.24935e-05,-2.15252,0.436683,0.13511,-37.1108,0.0117204,
2,0,0,1,0,50441.7,0.0100872,0.00973411,-6.96461,26,0.00100869,10,-6.77942e-05,-2.1571,0.476086,0.123927,-33.7158,0.00973411,
2,0,0,1,0,50441.7,0.00809193,0.0077408,-6.90426,26,0.000870688,10,-5.34445e-05,-2.16088,0.530626,0.111189,-29.9567,0.0077408,
2,0,0,1,0,50441.7,0.00609208,0.00566419,-6.84268,26,0.000733152,10,-3.87583e-05,-2.16477,0.500738,0.117826,-31.4589,0.00566419,
2,0,0,1,0,50441.7,0.00409449,0.00374939,-6.77869,26,0.000596925,10,-2.54159e-05,-2.16885,0.865349,0.0681806,-18.112,0.00374939,
2,0,0,1,0,50441.8,0.0020969,0.00170921,-6.77105,26,0.000461732,10,-1.15732e-05,-2.16934,0.827291,0.0713171,-18.7607,0.001709211,
2,0,0,1,0,50441.8,9.14991e-05,-0.000316214,-6.70242,26,0.000327042,10,2.1194e-06,-2.17377,0.52249,0.112921,-29.5767,-0.000316214,
2,0,0,1,0,50441.8,-0.00189827,-0.00231331,-6.65208,26,0.000194099,10,1.53883e-05,-2.17704,0.679883,0.0867796,-22.5476,-0.00231331,
2,0,0,1,0,50441.8,-0.00389586,-0.00428055,-6.61303,26,6.14408e-05,10,2.83074e-05,-2.1796,0.804387,0.0733478,-18.9332,-0.00428055,
2,0,0,1,0,50441.8,-0.00589345,-0.00631459,-6.57632,26,-7.05044e-05,10,4.15268e-05,-2.18202,0.839563,0.0702747,-18.0376,-0.00631459,
2,0,0,1,0,50441.9,-0.00789103,-0.00828889,-6.54073,26,-0.000201712,10,5.42154e-05,-2.18437,1.18807,0.0496605,-12.6966,-0.00828889,
2,0,0,1,0,50441.9,-0.00988862,-0.0102906,-6.52584,26,-0.000331832,10,6.71551e-05,-2.18536,1.67326,0.0352605,-8.97598,-0.0102906,
2,0,0,1,0,50441.9,-0.0118862,-0.0122935,-6.50478,26,-0.000462218,10,7.99666e-05,-2.18677,1.67018,0.0353256,-8.97224,-0.0122935,
2,0,0,1,0,50441.9,-0.0138838,-0.0142612,-6.49021,26,-0.000592257,10,9.25585e-05,-2.18774,2.30418,0.0256056,-6.48748,-0.01426124,
2,0,0,1,0,50441.9,-0.0158814,-0.0162385,-6.47919,26,-0.00072203,10,0.000105212,-2.18848,10.6884,0.00552,-1.39757,-0.0162385,
2,0,0,1,0,50442,-0.017879,-0.0182923,-6.48458,26,-0.000851145,10,0.000118618,-2.18812,-24.5072,-0.00240745,0.608869,-0.0182923,
2,0,0,1,0,50442,-0.0198766,-0.02024,-6.48163,26,-0.000980905,10,0.000131188,-2.18832,-18.1623,-0.00324849,0.822312,-0.02024,
2,0,0,1,0,50442,-0.0218741,-0.0222857,-6.48786,26,-0.00111061,10,0.000144587,-2.1879,-5.26877,-0.0111981,2.83512,-0.0222857,
2,0,0,1,0,50442,-0.0238717,-0.0242488,-6.49299,26,-0.00124051,10,0.000157447,-2.18756,-2.18572,-0.0269934,6.84921,-0.0242488,
2,0,0,1,0,50442,-0.0258693,-0.026298,-6.51534,26,-0.00137006,10,0.00017134,-2.18606,-1.79112,-0.0329402,8.36859,-0.02629797,
2,0,0,1,0,50442.1,-0.0278669,-0.028247,-6.52645,26,-0.0015005,10,0.000184353,-2.18532,-1.72512,-0.0342005,8.71935,-0.028247,
2,0,0,1,0,50442.1,-0.0298645,-0.030266,-6.54994,26,-0.00163133,10,0.00019824,-2.18376,-1.36129,-0.0433413,11.0766,-0.030266,
2,0,0,1,0,50442.1,-0.0318621,-0.0322333,-6.57061,26,-0.00176258,10,0.000211792,-2.18239,-1.14467,-0.0515432,13.229,-0.0322333,
2,0,0,1,0,50442.1,-0.0338597,-0.0342771,-6.60301,26,-0.00189369,10,0.000226332,-2.18026,-1.06399,-0.0554519,14.2814,-0.0342771,
2,0,0,1,0,50442.1,-0.0358573,-0.0362398,-6.62783,26,-0.00202606,10,0.000240191,-2.17863,-1.05657,-0.0558409,14.4522,-0.0362398,
2,0,0,1,0,50442.2,-0.0378548,-0.0382427,-6.66032,26,-0.00215907,10,0.000254709,-2.17651,-0.9654,-0.0611146,15.8838,-0.0382427,
2,0,0,1,0,50442.2,-0.0398524,-0.0402419,-6.69139,26,-0.0022927,10,0.000269274,-2.17448,-0.779948,-0.075646,19.7796,-0.0402419,
2,0,0,1,0,50442.2,-0.04185,-0.0422515,-6.73961,26,-0.00242633,10,0.000284759,-2.17137,-0.758182,-0.0778177,20.4456,-0.0422515,
2,0,0,1,0,50442.2,-0.0438476,-0.044244,-6.77322,26,-0.0025615,10,0.000299674,-2.1692,-0.901549,-0.0654429,17.3018,-0.044244,
2,0,0,1,0,50442.2,-0.0458452,-0.0462685,-6.80911,26,-0.00269745,10,0.000315048,-2.16691,-0.768695,-0.0767535,20.4095,-0.0462685,
2,0,0,1,0,50442.3,-0.0478428,-0.0482007,-6.85397,26,-0.00283418,10,0.000330366,-2.16406,-0.594764,-0.099199,26.5657,-0.0482007,
2,0,0,1,0,50442.3,-0.0498495,-0.0502608,-6.91517,26,-0.00297187,10,0.000347562,-2.1602,-0.657206,-0.089774,24.1839,-0.0502608,
2,0,0,1,0,50442.3,-0.051838,-0.0522312,-6.95145,26,-0.00310991,10,0.000363083,-2.15792,-0.729091,-0.0809227,21.9765,-0.0522312,
2,0,0,1,0,50442.3,-0.0538356,-0.054225,-7.00229,26,-0.00324951,10,0.000379699,-2.15476,-0.644482,-0.0915464,25.0149,-0.054225,
2,0,0,1,0,50442.3,-0.0558331,-0.0562458,-7.05187,26,-0.00339015,10,0.000396638,-2.1517,-0.587322,-0.100456,27.6698,-0.0562458,
2,0,0,1,0,50442.4,-0.0578216,-0.0582441,-7.1135,26,-0.00353116,10,0.000414319,-2.14792,-0.556829,-0.105957,29.4008,-0.0582441,
2,0,0,1,0,50442.4,-0.0598283,-0.0602062,-7.16831,26,-0.00367408,10,0.000431577,-2.14458,-0.550729,-0.107131,29.9889,-0.0602062,
2,0,0,1,0,50442.4,-0.0618259,-0.0622034,-7.23223,26,-0.00381815,10,0.000449869,-2.14073,-0.539367,-0.109388,30.8673,-0.0622034,
2,0,0,1,0,50442.4,-0.0638235,-0.0642457,-7.293,26,-0.00396346,10,0.000468544,-2.13709,-0.567272,-0.104007,29.5959,-0.0642457,
2,0,0,1,0,50442.4,-0.0658211,-0.0662087,-7.35077,26,-0.00410995,10,0.000486685,-2.13367,-0.50449,-0.11695,33.59,-0.0662087,
2,0,0,1,0,50442.5,-0.0678187,-0.068216,-7.42636,26,-0.00425713,10,0.000506597,-2.12922,-0.473135,-0.1247,36.1273,-0.068216,
2,0,0,1,0,50442.5,-0.0698162,-0.0702451,-7.4966,26,-0.00440643,10,0.000526599,-2.12514,-0.505414,-0.116736,34.1424,-0.0702451,
2,0,0,1,0,50442.5,-0.0718138,-0.0722028,-7.56248,26,-0.00455709,10,0.000546032,-2.12134,-0.483528,-0.12202,36.0397,-0.0722028,
2,0,0,1,0,50442.5,-0.0738114,-0.0742265,-7.64008,26,-0.00470919,10,0.000567096,-2.1169,-0.43384,-0.135995,40.5644,-0.0742265,
2,0,0,1,0,50442.5,-0.075809,-0.0761823,-7.72391,26,-0.0048622,10,0.000588425,-2.11216,-0.438321,-0.134605,40.5558,-0.0761823,
2,0,0,1,0,50442.6,-0.0778066,-0.0781916,-7.80089,26,-0.00501754,10,0.000609965,-2.10786,-0.4611,-0.127955,38.9634,-0.0781916,
2,0,0,1,0,50442.6,-0.0798042,-0.0802322,-7.88171,26,-0.0051744,10,0.000632367,-2.10338,-0.425671,-0.138605,42.6541,-0.0802322,
2,0,0,1,0,50442.6,-0.0818018,-0.0821648,-7.97037,26,-0.00533298,10,0.000654884,-2.09852,-0.405786,-0.145397,45.2341,-0.0821648,
2,0,0,1,0,50442.6,-0.0837994,-0.0842232,-8.06224,26,-0.00549259,10,0.000679028,-2.09354,-0.413204,-0.142787,44.9115,-0.0842232,
2,0,0,1,0,50442.6,-0.0857969,-0.0861473,-8.14923,26,-0.00565476,10,0.000702034,-2.08888,-0.405219,-0.1456,46.331,-0.0861473,
2,0,0,1,0,50442.7,-0.0877945,-0.0881793,-8.24552,26,-0.00581875,10,0.000727085,-2.08378,-0.40961,-0.14404,46.3354,-0.0881793,
2,0,0,1,0,50442.7,-0.0897921,-0.0901951,-8.33678,26,-0.00598459,10,0.000751937,-2.079,-0.405516,-0.145493,47.3574,-0.09019509,
2,0,0,1,0,50442.7,-0.0917897,-0.0921961,-8.43575,26,-0.00615147,10,0.000777743,-2.07388,-0.40197,-0.146777,48.3058,-0.0921961,
2,0,0,1,0,50442.7,-0.0937873,-0.0941898,-8.52975,26,-0.00632111,10,0.000803416,-2.06906,-0.422954,-0.139495,46.428,-0.0941898,
2,0,0,1,0,50442.7,-0.0957849,-0.0961927,-8.6213,26,-0.00649265,10,0.000829307,-2.06443,-0.429934,-0.13723,46.1734,-0.0961927,
2,0,0,1,0,50442.8,-0.0977825,-0.0981739,-8.71371,26,-0.00666603,10,0.000855459,-2.0598,-0.410184,-0.143838,48.9352,-0.0981739,
2,0,0,1,0,50442.8,-0.0997501,-0.100132,-8.8141,26,-0.00683777,10,0.000882577,-2.05482,0.00986632,5.97994,-1826.06,-0.100132,
2,0,0,1,1,50442.8,-0.0987313,-0.0991135,-6.99791,26,-0.00695816,10,0.000693588,-2.15503,-0.0135977,-4.33896,1167.05,-0.0991135,
2,0,0,1,1,50442.8,-0.0967337,-0.0970972,-5.27179,26,-0.00707936,10,0.000511876,-2.27804,-0.0161544,-3.65225,760.773,-0.0970972,
2,0,0,1,1,50442.8,-0.0947362,-0.0951243,-3.963,26,-0.0071709,10,0.000376977,-2.40198,-0.0153216,-3.85077,596.036,-0.09512426,
2,0,0,1,1,50442.9,-0.0927386,-0.0931114,-2.89613,26,-0.00723886,10,0.000269663,-2.53818,-0.0134094,-4.39991,492.277,-0.0931114,
2,0,0,1,1,50442.9,-0.090741,-0.091125,-1.99424,26,-0.00728703,10,0.000181725,-2.70022,-0.0106528,-5.53843,419.95,-0.091125,
2,0,0,1,1,50442.9,-0.0887434,-0.0891345,-1.22602,26,-0.00731882,10,0.000109281,-2.9115,-0.00716477,-8.23474,361.292,-0.0891345,
2,0,0,1,1,50442.9,-0.0867458,-0.0871378,-0.553707,26,-0.0073362,10,4.82489e-05,-3.25672,-0.00274457,-21.497,318.221,-0.0871378,
2,0,0,1,1,50442.9,-0.0847482,-0.0851461,0.0431808,26,-0.00734088,10,-3.67668e-06,-4.36471,0.323487,0.182387,281.88,-0.08514607,
2,1,0,1,1,50443,-0.0827529,-0.0831526,0.569639,26,-0.00733455,10,-4.7367e-05,-3.2444,0.00289507,20.3795,248.189,-0.0831526,
2,1,0,1,1,50443,-0.080753,-0.0811528,1.03427,26,-0.00731821,10,-8.39343e-05,-2.98536,0.00992317,5.94568,219.024,-0.0811528,
2,1,0,1,1,50443,-0.0787555,-0.079113,1.4544,26,-0.00729304,10,-0.000115062,-2.83732,0.0161625,3.65042,198.412,-0.079113,
2,1,0,1,1,50443,-0.0767579,-0.077164,1.8257,26,-0.00726,10,-0.000140878,-2.73857,0.0230144,2.56362,178.796,-0.077164,
2,1,0,1,1,50443,-0.0747603,-0.0751277,2.16697,26,-0.0072198,10,-0.000162799,-2.66415,0.0295552,1.99627,166.707,-0.0751277,
2,1,0,1,1,50443.1,-0.0727627,-0.0731912,2.48799,26,-0.00717315,10,-0.000182099,-2.60415,0.0382327,1.54318,147.506,-0.0731912,
2,1,0,1,1,50443.1,-0.0707651,-0.0711414,2.75497,26,-0.00712048,10,-0.000195992,-2.55988,0.0483931,1.21918,130.464,-0.0711414,
2,1,0,1,1,50443.1,-0.0687675,-0.06917,3.01261,26,-0.0070626,10,-0.000208382,-2.52106,0.0569053,1.03681,121.005,-0.06917,
2,1,0,1,1,50443.1,-0.0667699,-0.0671409,3.23905,26,-0.00699986,10,-0.000217473,-2.48958,0.068286,0.864014,108.805,-0.0671409,
2,1,0,1,1,50443.1,-0.0647723,-0.0651429,3.45078,26,-0.00693296,10,-0.000224794,-2.46208,0.0789251,0.747544,100.232,-0.0651429,
2,1,0,1,1,50443.2,-0.0627748,-0.0631408,3.63998,26,-0.00686182,10,-0.000229832,-2.4389,0.0917563,0.643008,91.1418,-0.0631408,
2,1,0,1,1,50443.2,-0.0607772,-0.0610994,3.81931,26,-0.00678696,10,-0.000233358,-2.41801,0.104526,0.564455,83.8002,-0.0610994,
2,1,0,1,1,50443.2,-0.0587796,-0.0591659,3.97308,26,-0.00670882,10,-0.000235071,-2.40087,0.119926,0.491972,76.1568,-0.0591659,
2,1,0,1,1,50443.2,-0.056782,-0.0571856,4.11737,26,-0.0066281,10,-0.000235455,-2.38538,0.139862,0.421845,67.6187,-0.0571856,
2,1,0,1,1,50443.2,-0.0547844,-0.0551537,4.24439,26,-0.00654426,10,-0.000234093,-2.37219,0.160552,0.367483,60.8051,-0.0551537,
2,1,0,1,1,50443.3,-0.0527868,-0.0531213,4.36451,26,-0.00645795,10,-0.000231848,-2.36006,0.182154,0.323903,55.035,-0.05312128,
2,1,0,1,1,50443.3,-0.0507892,-0.0511466,4.46492,26,-0.00636949,10,-0.000228365,-2.35019,0.201302,0.293093,51.0708,-0.0511466,
2,1,0,1,1,50443.3,-0.0487916,-0.0491629,4.56667,26,-0.00627943,10,-0.00022451,-2.3404,0.21552,0.273757,48.7235,-0.0491629,
2,1,0,1,1,50443.3,-0.0467941,-0.0471964,4.65738,26,-0.006187,10,-0.000219812,-2.33186,0.26837,0.219846,39.8637,-0.0471964,
2,1,0,1,1,50443.3,-0.0447965,-0.045151,4.72659,26,-0.006093,10,-0.000213411,-2.32545,0.317105,0.186058,34.3161,-0.045151,
2,1,0,1,1,50443.4,-0.0427989,-0.0431829,4.79511,26,-0.00599759,10,-0.000207067,-2.3192,0.311586,0.189354,35.4414,-0.04318288,
2,1,0,1,1,50443.4,-0.0408013,-0.0412183,4.86597,26,-0.00590129,10,-0.000200567,-2.31283,0.374649,0.157481,29.8371,-0.0412183,
2,1,0,1,1,50443.4,-0.0388037,-0.0391701,4.91484,26,-0.00580331,10,-0.000192515,-2.30849,0.46115,0.127941,24.5399,-0.0391701,
2,1,0,1,1,50443.4,-0.0368061,-0.0372311,4.96382,26,-0.00570436,10,-0.000184808,-2.30418,0.489288,0.120583,23.3483,-0.03723108,
2,1,0,1,1,50443.4,-0.0348085,-0.0351692,5.00825,26,-0.00560447,10,-0.000176136,-2.30031,0.534647,0.110353,21.5655,-0.0351692,
2,1,0,1,1,50443.5,-0.0328109,-0.0331789,5.05121,26,-0.00550426,10,-0.000167594,-2.2966,0.689148,0.0856129,16.845,-0.0331789,
2,1,0,1,1,50443.5,-0.0308134,-0.0311999,5.07512,26,-0.00540287,10,-0.000158343,-2.29455,0.87969,0.0670691,13.2901,-0.0311999,
2,1,0,1,1,50443.5,-0.0288158,-0.0292296,5.10369,26,-0.00530093,10,-0.000149179,-2.29212,0.840728,0.0701773,13.9761,-0.0292296,
2,1,0,1,1,50443.5,-0.0268182,-0.0271998,5.13102,26,-0.00519844,10,-0.000139563,-2.2898,1.16058,0.0508365,10.1661,-0.0271998,
2,1,0,1,1,50443.5,-0.0248138,-0.0252113,5.14454,26,-0.00509565,10,-0.000129701,-2.28865,1.52411,0.0387111,7.77552,-0.0252113,
2,1,0,1,1,50443.6,-0.022823,-0.0231571,5.16246,26,-0.00499288,10,-0.000119547,-2.28714,1.62398,0.0363306,7.31523,-0.0231571,
2,1,0,1,1,50443.6,-0.0208254,-0.0211703,5.1741,26,-0.00488935,10,-0.000109538,-2.28616,2.92329,0.0201827,4.07264,-0.0211703,
2,1,0,1,1,50443.6,-0.0188278,-0.0192035,5.17856,26,-0.00478566,10,-9.94465e-05,-2.28579,3.6026,0.0163771,3.31117,-0.0192035,
2,1,0,1,1,50443.6,-0.0168393,-0.0172302,5.18715,26,-0.00468234,10,-8.93756e-05,-2.28507,2.87574,0.0205165,4.15313,-0.01723019,
2,1,0,1,1,50443.6,-0.0148327,-0.0151783,5.19527,26,-0.00457827,10,-7.88554e-05,-2.28439,4.38378,0.0134587,2.72743,-0.0151783,
2,1,0,1,1,50443.7,-0.0128351,-0.0132075,5.19812,26,-0.00447419,10,-6.86544e-05,-2.28415,13.5313,0.00436025,0.884362,-0.0132075,
2,1,0,1,1,50443.7,-0.0108375,-0.011222,5.19877,26,-0.0043701,10,-5.83407e-05,-2.2841,26.6839,0.00221107,0.448631,-0.011222,
2,1,0,1,1,50443.7,-0.00883989,-0.00918011,5.19993,26,-0.00426593,10,-4.77359e-05,-2.284,88.8235,0.000664239,0.134776,-0.00918011,
2,1,0,1,1,50443.7,-0.0068423,-0.00723244,5.19931,26,-0.00416225,10,-3.76037e-05,-2.28405,-19.2607,-0.00306323,-0.621497,-0.00723244,
2,1,0,1,1,50443.7,-0.00484471,-0.00523658,5.19748,26,-0.00405813,10,-2.7217e-05,-2.28421,-18.4799,-0.00319265,-0.647667,-0.00523658,
2,1,0,1,1,50443.8,-0.00284713,-0.00320875,5.1967,26,-0.00395402,10,-1.66749e-05,-2.28427,-6.36448,-0.0092702,-1.87901,-0.00320875,
2,1,0,1,1,50443.8,-0.000849538,-0.00121537,5.18992,26,-0.00384995,10,-6.3077e-06,-2.28484, , , ,-0.001215374,
2,1,0,1,1,50443.8,-2.55332e-05,-0.000287149,5.21147,26,-0.00380787,10,-1.49647e-06,-2.28304, , , ,-0.0002871489,