File: Figure_codes/Fig_3-5/rawdata_trumpetplot_data/after 10th/20221101_1-115_003_TrumpetPlot_ParaChange_from10_every3_08_CV_C01_11.csv
mode,ox/red,error,control changes,counter inc.,time/s,control/V,Ewe/V,<I>/mA,cycle number,(Q-Qo)/C,I Range,P/W,log(|I|),Tafel slope mV/dec,alpha_eff,dI/d(E-IR),E-IR/V,
2,0,0,0,0,22846.5,2.44065e-05,-0.000344411,-4.05742,12,0.0000000E+000,10,1.39742e-06,-2.39175, , , ,-0.000344411,
2,0,0,1,0,22846.5,0.0012943,0.000937166,-2.04458,12,-4.52954e-05,10,-1.91611e-06,-2.6894, , , ,0.000937166,
2,0,0,1,0,22846.5,0.00279784,0.0025013,-0.622434,12,-6.92571e-05,10,-1.5569e-06,-3.20591,-0.00572562,-10.3046,782.961,0.0025013,
2,1,0,1,0,22846.5,0.00429425,0.00398907,0.278661,12,-7.17103e-05,10,1.1116e-06,-3.55492,0.152163,0.387742,535.329,0.00398907,
2,1,0,1,0,22846.5,0.00579065,0.00542746,0.92744,12,-5.99186e-05,10,5.03364e-06,-3.03271,0.00185532,31.8005,385.033,0.00542746,
2,1,0,1,0,22846.5,0.0072942,0.00699023,1.41554,12,-3.75516e-05,10,9.89493e-06,-2.84908,0.00981007,6.01423,285.567,0.00699023,
2,1,0,1,0,22846.6,0.00878347,0.00847086,1.78018,12,-7.51405e-06,10,1.50797e-05,-2.74954,0.0169094,3.48918,226.969,0.00847086,
2,1,0,1,0,22846.6,0.010287,0.00994365,2.07314,12,2.90479e-05,10,2.06146e-05,-2.68337,0.0256627,2.29906,178.896,0.00994365,
2,1,0,1,0,22846.6,0.0117905,0.0115061,2.30252,12,7.05295e-05,10,2.6493e-05,-2.6378,0.0358226,1.64701,145.038,0.0115061,
2,1,0,1,0,22846.6,0.013278,0.0129533,2.48931,12,0.000115453,10,3.22448e-05,-2.60392,0.0471215,1.25208,120.589,0.0129533,
2,1,0,1,0,22846.6,0.0147816,0.0144374,2.65322,12,0.000164189,10,3.83054e-05,-2.57623,0.0585118,1.00834,103.697,0.0144374,
2,1,0,1,0,22846.7,0.0162851,0.0159337,2.79723,12,0.000215867,10,4.457e-05,-2.55327,0.0732236,0.805751,87.4162,0.0159337,
2,1,0,1,0,22846.7,0.0177744,0.0174344,2.92204,12,0.000269413,10,5.0944e-05,-2.53431,0.0887637,0.664686,75.4137,0.0174344,
2,1,0,1,0,22846.7,0.0192779,0.0189825,3.02808,12,0.00032561,10,5.74806e-05,-2.51883,0.102647,0.574784,67.7933,0.0189825,
2,1,0,1,0,22846.7,0.0207743,0.0204713,3.13245,12,0.000383498,10,6.41253e-05,-2.50412,0.113409,0.520242,63.3851,0.0204713,
2,1,0,1,0,22846.7,0.0222707,0.0219475,3.23039,12,0.000443213,10,7.08991e-05,-2.49074,0.127944,0.461137,57.9334,0.0219475,
2,1,0,1,0,22846.7,0.0237743,0.0234551,3.31467,12,0.00050493,10,7.77459e-05,-2.47956,0.148592,0.39706,51.2626,0.0234551,
2,1,0,1,0,22846.8,0.0252636,0.0249572,3.39592,12,0.000567539,10,8.47526e-05,-2.46904,0.150545,0.39191,51.8543,0.0249572,
2,1,0,1,0,22846.8,0.0267671,0.0264845,3.47982,12,0.0006323,10,9.21613e-05,-2.45844,0.14882,0.396453,53.6834,0.0264845,
2,1,0,1,0,22846.8,0.0282706,0.0279662,3.5558,12,0.000698559,10,9.9442e-05,-2.44906,0.158682,0.371812,51.4588,0.0279662,
2,1,0,1,0,22846.8,0.0297581,0.0294339,3.62907,12,0.000765584,10,0.000106818,-2.4402,0.166739,0.353846,50.0178,0.02943385,
2,1,0,1,0,22846.8,0.0312617,0.0309905,3.69516,12,0.000834679,10,0.000114515,-2.43237,0.176125,0.33499,48.3489,0.0309905,
2,1,0,1,0,22846.9,0.0327652,0.0324353,3.76591,12,0.000905112,10,0.000122148,-2.42413,0.17072,0.345595,50.8907,0.0324353,
2,1,0,1,0,22846.9,0.0342545,0.0339337,3.84219,12,0.000976147,10,0.00013038,-2.41542,0.174754,0.337618,50.6347,0.0339337,
2,1,0,1,0,22846.9,0.035758,0.0354429,3.91221,12,0.00104935,10,0.00013866,-2.40758,0.196799,0.299799,45.7734,0.0354429,
2,1,0,1,0,22846.9,0.0372544,0.0369792,3.98327,12,0.0011235,10,0.000147298,-2.39976,0.200596,0.294123,45.693,0.0369792,
2,1,0,1,0,22846.9,0.0387508,0.0384656,4.05255,12,0.00119884,10,0.000155884,-2.39227,0.191953,0.307366,48.6819,0.0384656,
2,1,0,1,0,22847,0.0402544,0.0399247,4.12199,12,0.00127594,10,0.000164569,-2.38489,0.205019,0.287778,46.3156,0.0399247,
2,1,0,1,0,22847,0.0417437,0.0414036,4.1949,12,0.00135365,10,0.000173684,-2.37728,0.211685,0.278716,45.5818,0.0414036,
2,1,0,1,0,22847,0.0432472,0.0429027,4.26384,12,0.0014334,10,0.00018293,-2.3702,0.234428,0.251676,41.8784,0.0429027,
2,1,0,1,0,22847,0.0447507,0.0444569,4.32748,12,0.00151439,10,0.000192386,-2.36377,0.228107,0.258651,43.6923,0.0444569,
2,1,0,1,0,22847,0.0462382,0.0459147,4.39689,12,0.00159577,10,0.000201882,-2.35685,0.230058,0.256457,43.9633,0.0459147,
2,1,0,1,0,22847,0.0477418,0.0474588,4.46942,12,0.00167933,10,0.000212113,-2.34975,0.23671,0.24925,43.4244,0.0474588,
2,1,0,1,0,22847.1,0.0492453,0.0489339,4.53691,12,0.00176414,10,0.000222009,-2.34324,0.250334,0.235685,41.6722,0.0489339,
2,1,0,1,0,22847.1,0.0507346,0.0504173,4.59288,12,0.0018492,10,0.000231561,-2.33791,0.240426,0.245397,44.0122,0.0504173,
2,1,0,1,0,22847.1,0.0522381,0.0519477,4.66411,12,0.0019364,10,0.00024229,-2.33123,0.23816,0.247732,45.0095,0.0519477,
2,1,0,1,0,22847.1,0.0537345,0.0533657,4.73765,12,0.00202443,10,0.000252828,-2.32444,0.238304,0.247583,45.693,0.0533657,
2,1,0,1,0,22847.1,0.0552309,0.0549659,4.79946,12,0.00211369,10,0.000263806,-2.31881,0.255277,0.231122,43.1949,0.0549659,
2,1,0,1,0,22847.2,0.0567345,0.0564216,4.85354,12,0.00220465,10,0.000273844,-2.31394,0.261167,0.225909,42.7774,0.0564216,
2,1,0,1,0,22847.2,0.0582237,0.0579118,4.9122,12,0.0022957,10,0.000284474,-2.30872,0.263674,0.223761,42.9452,0.0579118,
2,1,0,1,0,22847.2,0.0597273,0.0594275,4.97356,12,0.00238887,10,0.000295566,-2.30333,0.274362,0.215044,41.757,0.0594275,
2,1,0,1,0,22847.2,0.0612308,0.0609385,5.02723,12,0.00248322,10,0.000306352,-2.29867,0.282325,0.208979,41.0615,0.0609385,
2,1,0,1,0,22847.2,0.0627183,0.0624334,5.09305,12,0.00257771,10,0.000317976,-2.29302,0.291672,0.202282,40.207,0.0624334,
2,1,0,1,0,22847.3,0.0642219,0.0639175,5.14304,12,0.00267422,10,0.00032873,-2.28878,0.310945,0.189744,38.1781,0.0639175,
2,1,0,1,0,22847.3,0.0657254,0.0654087,5.20927,12,0.00277188,10,0.000340732,-2.28322,0.304926,0.19349,39.343,0.0654087,
2,1,0,1,0,22847.3,0.0672147,0.0668913,5.26798,12,0.00286964,10,0.000352382,-2.27836,0.328654,0.17952,36.8962,0.0668913,
2,1,0,1,0,22847.3,0.0687182,0.0684095,5.32818,12,0.00296953,10,0.000364498,-2.27342,0.374876,0.157385,32.7046,0.0684095,
2,1,0,1,0,22847.3,0.0702146,0.0699186,5.37693,12,0.00306985,10,0.000375948,-2.26947,0.380092,0.155226,32.5886,0.0699186,
2,1,0,1,0,22847.3,0.071711,0.0713925,5.4303,12,0.00317113,10,0.000387683,-2.26518,0.381865,0.154505,32.722,0.0713925,
2,1,0,1,0,22847.4,0.0732146,0.0729148,5.48978,12,0.00327397,10,0.000400286,-2.26044,0.376371,0.15676,33.5423,0.0729148,
2,1,0,1,0,22847.4,0.0747038,0.0744394,5.54116,12,0.0033767,10,0.00041248,-2.2564,0.394861,0.14942,32.2762,0.0744394,
2,1,0,1,0,22847.4,0.0762074,0.0759094,5.58667,12,0.00348142,10,0.000424081,-2.25285,0.400835,0.147193,32.0748,0.0759094,
2,1,0,1,0,22847.4,0.0777109,0.0773972,5.63338,12,0.00358704,10,0.000436008,-2.24923,0.371473,0.158827,34.8943,0.0773972,
2,1,0,1,0,22847.4,0.0791984,0.0789003,5.68519,12,0.00369245,10,0.000448563,-2.24526,0.383199,0.153967,34.1013,0.0789003,
2,1,0,1,0,22847.5,0.0807019,0.0804151,5.72573,12,0.0037999,10,0.000460435,-2.24217,0.412441,0.143051,31.9291,0.0804151,
2,1,0,1,0,22847.5,0.0822055,0.0819264,5.76305,12,0.00390822,10,0.000472145,-2.23935,0.439575,0.134221,30.1947,0.0819264,
2,1,0,1,0,22847.5,0.0836947,0.0833692,5.80438,12,0.00401611,10,0.000483907,-2.23624,0.4465,0.132139,29.9729,0.0833692,
2,1,0,1,0,22847.5,0.0851983,0.0848927,5.8503,12,0.00412597,10,0.000496648,-2.23282,0.469203,0.125745,28.716,0.0848927,
2,1,0,1,0,22847.5,0.0866947,0.0863475,5.89193,12,0.00423613,10,0.000508753,-2.22974,0.511913,0.115254,26.5113,0.0863475,
2,1,0,1,0,22847.6,0.0881911,0.0878421,5.94031,12,0.00434704,10,0.000521809,-2.22619,0.542162,0.108824,25.2387,0.08784207,
2,1,0,1,0,22847.6,0.0896946,0.089414,5.97293,12,0.00445924,10,0.000534064,-2.22381,0.498634,0.118323,27.6413,0.089414,
2,1,0,1,0,22847.6,0.0911839,0.0908585,6.02886,12,0.00457114,10,0.000547774,-2.21976,0.418558,0.14096,33.1636,0.0908585,
2,1,0,1,0,22847.6,0.0926857,0.0923583,6.08621,12,0.00468519,10,0.000562112,-2.21565,0.426754,0.138253,32.8211,0.0923583,
2,1,0,1,0,22847.6,0.0941892,0.0938893,6.13502,12,0.00480027,10,0.000576013,-2.21218,0.41295,0.142875,34.1921,0.0938893,
2,1,0,1,0,22847.6,0.0956785,0.0953519,6.18741,12,0.00491506,10,0.000589981,-2.20849,0.387984,0.152068,36.7481,0.0953519,
2,1,0,1,0,22847.7,0.097182,0.0968591,6.24575,12,0.00503211,10,0.000604958,-2.20442,0.334329,0.176473,43.0396,0.09685912,
2,1,0,1,0,22847.7,0.0986856,0.0983871,6.3196,12,0.0051504,10,0.000621768,-2.19931,0.314814,0.187412,46.1916,0.0983871,
2,1,0,1,0,22847.7,0.100175,0.0998391,6.38618,12,0.00526867,10,0.00063759,-2.19476,0.309599,0.190569,47.4624,0.0998391,
2,1,0,1,0,22847.7,0.101678,0.101351,6.44926,12,0.00538953,10,0.000653638,-2.19049,0.274914,0.214612,54.0991,0.101351,
2,1,0,1,0,22847.7,0.103175,0.102856,6.53818,12,0.00551112,10,0.000672494,-2.18454,0.252344,0.233808,59.7372,0.102856,
2,1,0,1,0,22847.8,0.104671,0.104374,6.62785,12,0.00563439,10,0.000691778,-2.17863,0.227576,0.259254,67.098,0.104374,
2,1,0,1,0,22847.8,0.106175,0.105906,6.72586,12,0.00576019,10,0.000712308,-2.17225,0.234163,0.251961,66.088,0.105906,
2,1,0,1,0,22847.8,0.107662,0.107351,6.82194,12,0.0058865,10,0.000732343,-2.16609,0.228315,0.258414,68.8421,0.107351,
2,1,0,1,0,22847.8,0.109166,0.108811,6.91906,12,0.00601592,10,0.000752869,-2.15995,0.227825,0.258971,70.0571,0.108811,
2,1,0,1,0,22847.8,0.110669,0.110337,7.02264,12,0.00614735,10,0.00077486,-2.1535,0.229001,0.257641,70.6806,0.110337,
2,1,0,1,0,22847.9,0.112159,0.111851,7.13424,12,0.00627938,10,0.000797973,-2.14665,0.241289,0.24452,68.1001,0.111851,
2,1,0,1,0,22847.9,0.113662,0.113356,7.24584,12,0.00641485,10,0.000821357,-2.13991,0.246203,0.23964,67.7409,0.113356,
2,1,0,1,0,22847.9,0.115166,0.114831,7.34832,12,0.00655232,10,0.000843812,-2.13381,0.256445,0.230069,65.9943,0.114831,
2,1,0,1,0,22847.9,0.116655,0.116338,7.46013,12,0.00669029,10,0.000867894,-2.12725,0.248978,0.236969,68.9795,0.116338,
2,1,0,1,0,22847.9,0.118158,0.117831,7.56634,12,0.00683176,10,0.000891546,-2.12111,0.263314,0.224067,66.0976,0.117831,
2,1,0,1,0,22847.9,0.119655,0.11932,7.6724,12,0.00697445,10,0.00091547,-2.11507,0.286313,0.206068,61.5933,0.11932,
2,1,0,1,0,22848,0.121151,0.120854,7.75698,12,0.00711881,10,0.000937462,-2.11031,0.302131,0.19528,59.0693,0.120854,
2,1,0,1,0,22848,0.122655,0.122322,7.84445,12,0.00726562,10,0.000959548,-2.10544,0.301406,0.195749,59.853,0.122322,
2,1,0,1,0,22848,0.124142,0.123813,7.92675,12,0.00741245,10,0.000981436,-2.1009,0.331845,0.177794,54.9622,0.123813,
2,1,0,1,0,22848,0.125646,0.125304,7.99746,12,0.00756236,10,0.00100212,-2.09705,0.366244,0.161095,50.2464,0.125304,
2,1,0,1,0,22848,0.127149,0.12686,8.06668,12,0.00771367,10,0.00102334,-2.09331,0.399423,0.147713,46.4896,0.12686,
2,1,0,1,0,22848.1,0.128639,0.128371,8.13395,12,0.00786455,10,0.00104416,-2.0897,0.410153,0.143849,45.66,0.128371,
2,1,0,1,0,22848.1,0.130142,0.129827,8.19521,12,0.0080183,10,0.00106396,-2.08644,0.439609,0.13421,42.9176,0.129827,
2,1,0,1,0,22848.1,0.131646,0.131326,8.25249,12,0.00817326,10,0.00108377,-2.08342,0.518249,0.113845,36.6494,0.131326,
2,1,0,1,0,22848.1,0.133135,0.132825,8.30723,12,0.0083276,10,0.00110341,-2.08054,0.568238,0.10383,33.6587,0.132825,
2,1,0,1,0,22848.1,0.134639,0.134333,8.3511,12,0.00848445,10,0.00112183,-2.07826,0.653579,0.0902722,29.4497,0.134333,
2,1,0,1,0,22848.2,0.136135,0.13583,8.40921,12,0.00864142,10,0.00114222,-2.07524,0.653525,0.0902796,29.6067,0.13583,
2,1,0,1,0,22848.2,0.137631,0.137334,8.44968,12,0.00879924,10,0.00116043,-2.07316,0.81151,0.0727039,23.9574,0.137334,
2,1,0,1,0,22848.2,0.139135,0.138811,8.48936,12,0.00895871,10,0.00117841,-2.07112,0.98524,0.0598839,19.8091,0.138811,
2,1,0,1,0,22848.2,0.140622,0.140305,8.51676,12,0.00911705,10,0.00119494,-2.06973,1.46811,0.0401878,13.3404,0.140305,
2,1,0,1,0,22848.2,0.142126,0.14181,8.53849,12,0.00927751,10,0.00121084,-2.06862,3.17537,0.0185805,6.17775,0.14181,
2,1,0,1,0,22848.2,0.143629,0.143312,8.5482,12,0.00943827,10,0.00122506,-2.06813,-4.40997,-0.0133788,-4.44978,0.143312,
2,1,0,1,0,22848.3,0.145119,0.144826,8.53076,12,0.00959726,10,0.00123547,-2.06901,-0.926181,-0.0637025,-21.1425,0.144826,
2,1,0,1,0,22848.3,0.146622,0.146339,8.48804,12,0.0097574,10,0.00124213,-2.07119,-0.571521,-0.103233,-34.0912,0.146339,
2,1,0,1,0,22848.3,0.148126,0.147824,8.41955,12,0.00991653,10,0.00124461,-2.07471,-0.388814,-0.151744,-49.7208,0.147824,
2,1,0,1,0,22848.3,0.149615,0.149288,8.33698,12,0.0100726,10,0.00124461,-2.07899,-0.281047,-0.209929,-67.9796,0.149288,
2,1,0,1,0,22848.3,0.151119,0.150812,8.20763,12,0.0102283,10,0.00123781,-2.08578,-0.196364,-0.300462,-95.8334,0.150812,
2,1,0,1,0,22848.4,0.152615,0.152277,8.05099,12,0.0103805,10,0.00122598,-2.09415,-0.16051,-0.367577,-115.012,0.1522771,
2,1,0,1,0,22848.4,0.154111,0.15377,7.85747,12,0.0105295,10,0.00120824,-2.10472,-0.13777,-0.428249,-130.934,0.15377,
2,1,0,1,0,22848.4,0.155615,0.155296,7.64277,12,0.0106754,10,0.00118689,-2.11675,-0.116028,-0.508496,-151.171,0.155296,
2,1,0,1,0,22848.4,0.157103,0.156763,7.39655,12,0.0108156,10,0.00115951,-2.13097,-0.10134,-0.582199,-167.541,0.156763,
2,1,0,1,0,22848.4,0.158606,0.158337,7.13291,12,0.0109525,10,0.0011294,-2.14673,-0.0909254,-0.648884,-180.342,0.158337,
2,1,0,1,0,22848.5,0.16011,0.159759,6.8568,12,0.0110843,10,0.00109544,-2.16388,-0.0849725,-0.694342,-185.633,0.159759,
2,1,0,1,0,22848.5,0.161599,0.161279,6.58834,12,0.0112095,10,0.00106256,-2.18122,-0.0808366,-0.729868,-187.48,0.161279,
2,1,0,1,0,22848.5,0.163102,0.162793,6.30994,12,0.0113309,10,0.00102721,-2.19997,-0.081222,-0.726404,-178.881,0.162793,
2,1,0,1,0,22848.5,0.164606,0.1643,6.04734,12,0.0114472,10,0.00099358,-2.21844,-0.0800756,-0.736804,-174.015,0.1643004,
2,1,0,1,0,22848.5,0.166095,0.165762,5.79262,12,0.0115575,10,0.000960196,-2.23713,-0.0833843,-0.707567,-160.388,0.165762,
2,1,0,1,0,22848.5,0.167599,0.167245,5.56126,12,0.0116644,10,0.000930092,-2.25483,-0.0890471,-0.662571,-144.192,0.167245,
2,1,0,1,0,22848.6,0.169095,0.168785,5.36028,12,0.0117666,10,0.000904735,-2.27081,-0.0927997,-0.635778,-133.175,0.168785,
2,1,0,1,0,22848.6,0.170592,0.170278,5.16793,12,0.0118652,10,0.000879986,-2.28668,-0.0981658,-0.601024,-121.346,0.170278,
2,1,0,1,0,22848.6,0.172095,0.171768,4.98674,12,0.0119608,10,0.000856564,-2.30218,-0.103552,-0.569763,-111.237,0.171768,
2,1,0,1,0,22848.6,0.173583,0.173287,4.8395,12,0.0120523,10,0.000838624,-2.3152,-0.114646,-0.514628,-97.2593,0.173287,
2,1,0,1,0,22848.6,0.175086,0.174748,4.6933,12,0.012142,10,0.000820147,-2.32852,-0.122776,-0.48055,-88.1486,0.174748,
2,1,0,1,0,22848.7,0.17659,0.176293,4.56821,12,0.0122293,10,0.000805345,-2.34025,-0.131945,-0.447157,-79.7648,0.176293,
2,1,0,1,0,22848.7,0.178079,0.177784,4.44992,12,0.0123133,10,0.000791124,-2.35165,-0.141589,-0.4167,-72.5163,0.177784,
2,1,0,1,0,22848.7,0.179582,0.179299,4.3446,12,0.0123962,10,0.000778984,-2.36205,-0.160182,-0.368332,-62.7024,0.179299,
2,1,0,1,0,22848.7,0.181086,0.180805,4.2513,12,0.0124773,10,0.000768659,-2.37148,-0.169796,-0.347476,-57.8297,0.180805,
2,1,0,1,0,22848.7,0.182575,0.18224,4.17502,12,0.0125559,10,0.000760857,-2.37934,-0.179684,-0.328354,-53.5264,0.18224,
2,1,0,1,0,22848.8,0.184079,0.18383,4.09556,12,0.0126339,10,0.000752889,-2.38769,-0.185352,-0.318313,-50.9359,0.18383,
2,1,0,1,0,22848.8,0.185582,0.185281,4.02324,12,0.0127105,10,0.000745429,-2.39542,-0.202157,-0.291853,-45.9337,0.185281,
2,1,0,1,0,22848.8,0.18707,0.186764,3.96543,12,0.012785,10,0.000740602,-2.40171,-0.22422,-0.263134,-40.7686,0.186764,
2,1,0,1,0,22848.8,0.188573,0.188239,3.90796,12,0.0128592,10,0.000735631,-2.40805,-0.239574,-0.24627,-37.595,0.188239,
2,1,0,1,0,22848.8,0.19007,0.189733,3.85822,12,0.012932,10,0.000732031,-2.41361,-0.248572,-0.237356,-35.7371,0.189733,
2,1,0,1,0,22848.8,0.191566,0.191217,3.80738,12,0.0130039,10,0.000728034,-2.41937,-0.273478,-0.215739,-32.0941,0.191217,
2,1,0,1,0,22848.9,0.19307,0.192777,3.76749,12,0.0130752,10,0.000726286,-2.42395,-0.334291,-0.176493,-25.9332,0.192777,
2,1,0,1,0,22848.9,0.194559,0.194301,3.73065,12,0.0131451,10,0.000724868,-2.42822,-0.336125,-0.17553,-25.5354,0.194301,
2,1,0,1,0,22848.9,0.196063,0.195781,3.69484,12,0.013215,10,0.00072338,-2.4324,-0.359212,-0.164249,-23.636,0.195781,
2,1,0,1,0,22848.9,0.197566,0.19727,3.64881,12,0.0132842,10,0.000719799,-2.43785,-0.373191,-0.158096,-22.5381,0.19727,
2,1,0,1,0,22848.9,0.199055,0.198758,3.61801,12,0.0133519,10,0.000719107,-2.44153,-0.451174,-0.13077,-18.4696,0.198758,
2,1,0,1,0,22849,0.200559,0.200279,3.58522,12,0.0134199,10,0.000718045,-2.44548,-0.501309,-0.117692,-16.4767,0.200279,
2,1,0,1,0,22849,0.202062,0.201766,3.55974,12,0.0134873,10,0.000718233,-2.44858,-0.506413,-0.116506,-16.1882,0.201766,
2,1,0,1,0,22849,0.20355,0.203236,3.52927,12,0.0135535,10,0.000717275,-2.45232,-0.526953,-0.111964,-15.4443,0.203236,
2,1,0,1,0,22849,0.205053,0.204742,3.49743,12,0.0136199,10,0.00071607,-2.45625,-0.657883,-0.0896816,-12.3193,0.204742,
2,1,0,1,0,22849,0.20655,0.206268,3.48526,12,0.0136856,10,0.000718897,-2.45776,-0.643985,-0.0916171,-12.4886,0.206268,
2,1,0,1,0,22849.1,0.208046,0.207773,3.4721,12,0.013751,10,0.000721407,-2.45941,-0.468711,-0.125877,-17.0307,0.207773,
2,1,0,1,0,22849.1,0.20955,0.209265,3.45328,12,0.0138163,10,0.000722649,-2.46177,-0.508236,-0.116088,-15.6299,0.209265,
2,1,0,1,0,22849.1,0.211039,0.210767,3.43237,12,0.0138805,10,0.00072343,-2.46441,-0.517786,-0.113947,-15.2695,0.210767,
2,1,0,1,0,22849.1,0.212543,0.212198,3.41589,12,0.0139451,10,0.000724844,-2.4665,-0.586067,-0.100671,-13.407,0.212198,
2,1,0,1,0,22849.1,0.214046,0.213739,3.39902,12,0.0140093,10,0.000726504,-2.46865,-0.70602,-0.083567,-11.0909,0.213739,
2,1,0,1,0,22849.1,0.215535,0.215237,3.38745,12,0.0140726,10,0.000729106,-2.47013,-0.726638,-0.0811958,-10.722,0.2152373,
2,1,0,1,0,22849.2,0.217039,0.216753,3.37034,12,0.0141362,10,0.000730529,-2.47233,-0.919459,-0.0641682,-8.43507,0.216753,
2,1,0,1,0,22849.2,0.218543,0.21821,3.35502,12,0.0141996,10,0.000732098,-2.4743,-1.9181,-0.0307596,-4.02965,0.21821,
2,1,0,1,0,22849.2,0.22003,0.219745,3.34796,12,0.0142621,10,0.000735696,-2.47522,-1.28994,-0.0457384,-5.96486,0.219745,
2,1,0,1,0,22849.2,0.221534,0.221246,3.33372,12,0.0143251,10,0.000737572,-2.47707,-1.10194,-0.0535418,-6.95576,0.221246,
2,1,0,1,0,22849.2,0.22303,0.222718,3.31177,12,0.0143875,10,0.000737592,-2.47994,-1.28933,-0.0457601,-5.9235,0.222718,
2,1,0,1,0,22849.3,0.224526,0.224237,3.30363,12,0.0144496,10,0.000740796,-2.48101,-1.642,-0.0359318,-4.63585,0.224237,
2,1,0,1,0,22849.3,0.22603,0.225733,3.29292,12,0.0145118,10,0.000743322,-2.48242,-1.70493,-0.0346055,-4.45019,0.2257333,
2,1,0,1,0,22849.3,0.227519,0.22719,3.27969,12,0.0145733,10,0.000745114,-2.48417,-1.0973,-0.0537684,-6.88337,0.22719,
2,1,0,1,0,22849.3,0.229023,0.228743,3.27517,12,0.0146352,10,0.000749171,-2.48477,-1.00932,-0.0584551,-7.475,0.228743,
2,1,0,1,0,22849.3,0.230526,0.230212,3.26431,12,0.0146969,10,0.000751481,-2.48621,-1.02505,-0.0575579,-7.34645,0.230212,
2,1,0,1,0,22849.4,0.232016,0.231708,3.25623,12,0.0147578,10,0.000754496,-2.48728,-1.27034,-0.0464442,-5.90235,0.2317083,
2,1,0,1,0,22849.4,0.233519,0.233217,3.25155,12,0.0148192,10,0.000758317,-2.48791,-0.89316,-0.0660576,-8.36569,0.233217,
2,1,0,1,0,22849.4,0.235023,0.234737,3.24889,12,0.0148804,10,0.000762635,-2.48826,-1.0574,-0.0557971,-7.05301,0.234737,
2,1,0,1,0,22849.4,0.23651,0.236208,3.23131,12,0.0149408,10,0.000763262,-2.49062,-1.0886,-0.054198,-6.83985,0.236208,
2,1,0,1,0,22849.4,0.238014,0.237697,3.22556,12,0.0150017,10,0.000766706,-2.49139,-1.49497,-0.0394656,-4.96769,0.237697,
2,1,0,1,0,22849.4,0.23951,0.239255,3.22348,12,0.0150622,10,0.000771236,-2.49167,-1.65892,-0.0355653,-4.46486,0.239255,
2,1,0,1,0,22849.5,0.241006,0.240763,3.21364,12,0.0151226,10,0.000773728,-2.493,-1.22064,-0.0483352,-6.05218,0.2407635,
2,1,0,1,0,22849.5,0.24251,0.242205,3.20036,12,0.0151831,10,0.000775142,-2.4948,-1.5741,-0.0374817,-4.68767,0.242205,
2,1,0,1,0,22849.5,0.243999,0.24372,3.20291,12,0.0152428,10,0.000780611,-2.49446,56.9009,0.00103689,0.129419,0.24372,
2,1,0,1,0,22849.5,0.245503,0.245228,3.19536,12,0.0153031,10,0.000783593,-2.49548,-2.93172,-0.0201247,-2.50414,0.2452279,
2,1,0,1,0,22849.5,0.247006,0.246748,3.18168,12,0.0153633,10,0.000785074,-2.49734,-2.09002,-0.0282294,-3.50528,0.246748,
2,1,0,1,0,22849.6,0.248496,0.248203,3.17486,12,0.0154227,10,0.00078801,-2.49827,-3.83702,-0.0153765,-1.90867,0.248203,
2,1,0,1,0,22849.6,0.249999,0.249697,3.16453,12,0.0154825,10,0.000790175,-2.49969,-2.82854,-0.0208588,-2.58272,0.249697,
2,1,0,1,0,22849.6,0.251503,0.251208,3.15985,12,0.0155423,10,0.000793781,-2.50033,-2.39706,-0.0246135,-3.0385,0.251208,
2,1,0,1,0,22849.6,0.25299,0.252669,3.15755,12,0.0156013,10,0.000797815,-2.50065,-1.5647,-0.0377068,-4.6431,0.252669,
2,1,0,1,0,22849.6,0.254494,0.254232,3.15284,12,0.0156609,10,0.000801552,-2.5013,-1.2112,-0.0487122,-5.99375,0.254232,
2,1,0,1,0,22849.7,0.25599,0.255717,3.14338,12,0.01572,10,0.000803815,-2.5026,-1.53467,-0.0384448,-4.72143,0.255717,
2,1,0,1,0,22849.7,0.257487,0.257218,3.14109,12,0.015779,10,0.000807945,-2.50292,-1.62932,-0.0362114,-4.44269,0.257218,
2,1,0,1,0,22849.7,0.25899,0.258717,3.14457,12,0.0158383,10,0.000813553,-2.50244,-1.91568,-0.0307985,-3.76779,0.258717,
2,1,0,1,0,22849.7,0.260479,0.260228,3.13811,12,0.0158968,10,0.000816624,-2.50333,-1.50653,-0.0391628,-4.79018,0.2602278,
2,1,0,1,0,22849.7,0.261983,0.26166,3.12555,12,0.0159559,10,0.00081783,-2.50507,-1.76756,-0.0333793,-4.07117,0.26166,
2,1,0,1,0,22849.7,0.263486,0.263184,3.12284,12,0.0160148,10,0.000821882,-2.50545,-3.72965,-0.0158192,-1.92543,0.263184,
2,1,0,1,0,22849.8,0.264974,0.264671,3.1196,12,0.016073,10,0.000825667,-2.5059,-2.6811,-0.0220059,-2.67539,0.264671,
2,1,0,1,0,22849.8,0.266477,0.266202,3.11415,12,0.0161318,10,0.000828993,-2.50666,-1.74258,-0.0338578,-4.11036,0.266202,
2,1,0,1,0,22849.8,0.267981,0.267687,3.09944,12,0.0161904,10,0.00082968,-2.50872,-3.31881,-0.0177774,-2.15325,0.267687,
2,1,0,1,0,22849.8,0.26947,0.269182,3.10084,12,0.0162483,10,0.000834692,-2.50852,-4.32426,-0.013644,-1.6495,0.269182,
2,1,0,1,0,22849.8,0.270974,0.270673,3.09614,12,0.0163067,10,0.000838044,-2.50918,-3.86619,-0.0152605,-1.84137,0.270673,
2,1,0,1,0,22849.9,0.27247,0.272157,3.09136,12,0.0163648,10,0.000841337,-2.50985,-2.86544,-0.0205902,-2.47979,0.272157,
2,1,0,1,0,22849.9,0.273967,0.273682,3.07339,12,0.0164227,10,0.000841132,-2.51238,-2.00911,-0.0293662,-3.5353,0.2736823,
2,1,0,1,0,22849.9,0.27547,0.27514,3.06983,12,0.0164808,10,0.000844634,-2.51289,-1.93452,-0.0304985,-3.66507,0.27514,
2,1,0,1,0,22849.9,0.276959,0.276646,3.06895,12,0.0165382,10,0.000849012,-2.51301,-1.64478,-0.0358712,-4.30105,0.276646,
2,1,0,1,0,22849.9,0.278463,0.278187,3.06067,12,0.0165961,10,0.000851438,-2.51418,-1.2773,-0.0461913,-5.51961,0.278187,
2,1,0,1,0,22850,0.279967,0.279695,3.058,12,0.0166539,10,0.000855308,-2.51456,-1.13944,-0.0517799,-6.18142,0.279695,
2,1,0,1,0,22850,0.281454,0.281156,3.0536,12,0.016711,10,0.000858538,-2.51519,-1.21065,-0.0487343,-5.81151,0.281156,
2,1,0,1,0,22850,0.282958,0.282656,3.04843,12,0.0167685,10,0.000861656,-2.51592,-1.91423,-0.0308217,-3.66806,0.282656,
2,1,0,1,0,22850,0.284461,0.284161,3.0456,12,0.016826,10,0.00086544,-2.51633,-1.97203,-0.0299185,-3.55201,0.284161,
2,1,0,1,0,22850,0.28595,0.285611,3.04576,12,0.0168829,10,0.000869902,-2.51631,-1.23798,-0.0476583,-5.6531,0.285611,
2,1,0,1,0,22850,0.287454,0.287111,3.03091,12,0.0169401,10,0.000870207,-2.51843,-1.39038,-0.0424345,-5.01999,0.2871106,
2,1,0,1,0,22850.1,0.28895,0.288639,3.02769,12,0.0169969,10,0.000873908,-2.51889,-8.61816,-0.00684601,-0.80819,0.288639,
2,1,0,1,0,22850.1,0.290447,0.290167,3.0219,12,0.0170537,10,0.000876857,-2.51972,-5.11738,-0.0115293,-1.35972,0.290167,
2,1,0,1,0,22850.1,0.29195,0.291618,3.01724,12,0.0171106,10,0.000879883,-2.52039,-3.97888,-0.0148283,-1.74463,0.291618,
2,1,0,1,0,22850.1,0.29344,0.293146,3.00487,12,0.0171669,10,0.000880867,-2.52217,-3.18415,-0.0185293,-2.17654,0.293146,
2,1,0,1,0,22850.1,0.294943,0.294639,3.00267,12,0.0172236,10,0.000884704,-2.52249,-3.88711,-0.0151784,-1.77953,0.2946392,
2,1,0,1,0,22850.2,0.296447,0.296122,2.99931,12,0.0172802,10,0.000888162,-2.52298,-7.11286,-0.00829483,-0.970022,0.296122,
2,1,0,1,0,22850.2,0.297934,0.297615,2.98919,12,0.0173362,10,0.000889629,-2.52445,-4.4229,-0.0133397,-1.55741,0.297615,
2,1,0,1,0,22850.2,0.299438,0.29921,2.9799,12,0.0173926,10,0.000891617,-2.5258,-0.0247874,-2.38024,-250.724,0.29921,
2,1,0,1,0,22850.2,0.300012,0.299689,2.99808,12,0.0174135,10,0.000898493,-2.52316,0.00121748,48.4609,3128.39,0.2996892,
2,1,0,1,0,22850.2,0.298737,0.298425,1.16998,12,0.0174436,10,0.00034915,-2.93182,0.00143387,41.1473,917.262,0.2984246,
2,1,0,1,0,22850.2,0.29724,0.296967,0.217936,12,0.0174554,10,6.47199e-05,-3.66167,0.00658975,8.9533,524.738,0.296967,
2,0,0,1,0,22850.3,0.295744,0.29545,-0.303203,12,0.0174541,10,-8.95812e-05,-3.51827,-0.0242432,-2.43367,290.03,0.29545,
2,0,0,1,0,22850.3,0.29424,0.293862,-0.606948,12,0.0174452,10,-0.000178359,-3.21685,-0.00541616,-10.8933,176.233,0.2938624,
2,0,0,1,0,22850.3,0.292751,0.292452,-0.810801,12,0.0174317,10,-0.000237121,-3.09109,-0.0139123,-4.24086,121.24,0.292452,
2,0,0,1,0,22850.3,0.291248,0.290916,-0.959417,12,0.0174148,10,-0.00027911,-3.01799,-0.0232695,-2.53551,90.3837,0.290916,
2,0,0,1,0,22850.3,0.289744,0.289415,-1.07063,12,0.0173955,10,-0.000309857,-2.97036,-0.0335101,-1.76067,71.4169,0.289415,
2,0,0,1,0,22850.3,0.288257,0.28793,-1.1562,12,0.0173746,10,-0.000332905,-2.93697,-0.046299,-1.27433,56.5227,0.28793,
2,0,0,1,0,22850.4,0.286753,0.286445,-1.23079,12,0.0173519,10,-0.000352553,-2.90982,-0.0592795,-0.995285,47.2995,0.2864449,
2,0,0,1,0,22850.4,0.285249,0.284934,-1.29489,12,0.017328,10,-0.000368958,-2.88777,-0.0691738,-0.852924,42.8914,0.284934,
2,0,0,1,0,22850.4,0.28376,0.283482,-1.34859,12,0.0173031,10,-0.0003823,-2.87012,-0.0856321,-0.688994,36.1543,0.283482,
2,0,0,1,0,22850.4,0.282257,0.281985,-1.40036,12,0.017277,10,-0.00039488,-2.85376,-0.102102,-0.577853,31.5326,0.281985,
2,0,0,1,0,22850.4,0.28076,0.280434,-1.44398,12,0.0172501,10,-0.00040494,-2.84044,-0.120026,-0.491559,27.6772,0.280434,
2,0,0,1,0,22850.5,0.279264,0.278945,-1.49288,12,0.0172224,10,-0.000416431,-2.82598,-0.140011,-0.421397,24.4858,0.278945,
2,0,0,1,0,22850.5,0.27776,0.277456,-1.52833,12,0.0171939,10,-0.000424044,-2.81578,-0.146444,-0.402884,23.9911,0.277456,
2,0,0,1,0,22850.5,0.276271,0.275973,-1.57027,12,0.0171648,10,-0.000433354,-2.80402,-0.154739,-0.381288,23.3142,0.275973,
2,0,0,1,0,22850.5,0.274767,0.274448,-1.60803,12,0.0171348,10,-0.00044132,-2.79371,-0.190504,-0.309704,19.3182,0.274448,
2,0,0,1,0,22850.5,0.273264,0.272981,-1.63593,12,0.0171042,10,-0.000446577,-2.78624,-0.182432,-0.323409,20.6457,0.272981,
2,0,0,1,0,22850.6,0.271776,0.271447,-1.67095,12,0.0170733,10,-0.000453574,-2.77704,-0.162436,-0.363219,23.656,0.271447,
2,0,0,1,0,22850.6,0.270273,0.269945,-1.70894,12,0.0170415,10,-0.00046132,-2.76727,-0.180237,-0.327346,21.7076,0.269945,
2,0,0,1,0,22850.6,0.268769,0.268468,-1.7314,12,0.017009,10,-0.000464825,-2.7616,-0.199322,-0.296003,19.9478,0.268468,
2,0,0,1,0,22850.6,0.26728,0.266945,-1.75166,12,0.0169765,10,-0.000467596,-2.75655,-0.205634,-0.286918,19.668,0.266945,
2,0,0,1,0,22850.6,0.265777,0.265485,-1.77922,12,0.0169431,10,-0.000472357,-2.74977,-0.20993,-0.281046,19.5402,0.265485,
2,0,0,1,0,22850.6,0.26428,0.263988,-1.80622,12,0.0169093,10,-0.00047682,-2.74323,-0.210624,-0.280119,19.741,0.263988,
2,0,0,1,0,22850.7,0.262784,0.262454,-1.83365,12,0.0168751,10,-0.000481249,-2.73668,-0.241257,-0.244552,17.4564,0.262454,
2,0,0,1,0,22850.7,0.26128,0.260967,-1.84531,12,0.0168402,10,-0.000481566,-2.73393,-0.265289,-0.222399,16.1023,0.260967,
2,0,0,1,0,22850.7,0.259791,0.259518,-1.87445,12,0.0168054,10,-0.000486452,-2.72713,-0.288531,-0.204484,15.018,0.259518,
2,0,0,1,0,22850.7,0.258287,0.257977,-1.89722,12,0.0167697,10,-0.000489438,-2.72188,-0.289506,-0.203795,15.1097,0.257977,
2,0,0,1,0,22850.7,0.256786,0.256456,-1.91841,12,0.0167335,10,-0.000491986,-2.71706,-0.338274,-0.174415,13.0801,0.256456,
2,0,0,1,0,22850.8,0.255296,0.255025,-1.94596,12,0.0166973,10,-0.000496269,-2.71087,-0.396605,-0.148763,11.284,0.255025,
2,0,0,1,0,22850.8,0.253793,0.253491,-1.96515,12,0.0166604,10,-0.000498147,-2.7066,-0.406485,-0.145147,11.1094,0.253491,
2,0,0,1,0,22850.8,0.252289,0.251957,-1.98941,12,0.0166231,10,-0.000501246,-2.70128,-0.334847,-0.1762,13.6283,0.251957,
2,0,0,1,0,22850.8,0.2508,0.250461,-2.00935,12,0.0165858,10,-0.000503264,-2.69694,-0.393399,-0.149975,11.7475,0.250461,
2,0,0,1,0,22850.8,0.249296,0.248941,-2.02536,12,0.0165477,10,-0.000504195,-2.6935,-0.443859,-0.132925,10.4908,0.248941,
2,0,0,1,0,22850.9,0.2478,0.2475,-2.04202,12,0.0165095,10,-0.000505399,-2.68994,-0.35533,-0.166043,13.2635,0.2475,
2,0,0,1,0,22850.9,0.246304,0.245989,-2.06608,12,0.016471,10,-0.000508234,-2.68485,-0.297631,-0.198232,15.9545,0.245989,
2,0,0,1,0,22850.9,0.2448,0.244516,-2.09221,12,0.0164318,10,-0.000511578,-2.6794,-0.314966,-0.187322,15.2264,0.244516,
2,0,0,1,0,22850.9,0.243313,0.24296,-2.10588,12,0.0163927,10,-0.000511645,-2.67657,-0.342168,-0.17243,14.1385,0.24296,
2,0,0,1,0,22850.9,0.241809,0.241479,-2.11219,12,0.0163528,10,-0.000510049,-2.67527,-0.331305,-0.178084,14.7182,0.241479,
2,0,0,1,0,22850.9,0.240306,0.239996,-2.13061,12,0.0163127,10,-0.000511337,-2.6715,-0.344117,-0.171453,14.2774,0.239996,
2,0,0,1,0,22851,0.238816,0.23851,-2.15057,12,0.0162726,10,-0.000512931,-2.66745,-0.337083,-0.175031,14.6833,0.23851,
2,0,0,1,0,22851,0.237313,0.236999,-2.16672,12,0.0162318,10,-0.000513511,-2.6642,-0.446126,-0.13225,11.1796,0.236999,
2,0,0,1,0,22851,0.235809,0.235463,-2.18494,12,0.0161906,10,-0.000514474,-2.66056,-0.463835,-0.1272,10.8594,0.235463,
2,0,0,1,0,22851,0.23432,0.234008,-2.19915,12,0.0161496,10,-0.00051462,-2.65774,-0.544086,-0.108439,9.33197,0.2340083,
2,0,0,1,0,22851,0.232816,0.232484,-2.21864,12,0.0161078,10,-0.000515799,-2.65391,-0.65537,-0.0900255,7.81181,0.232484,
2,0,0,1,0,22851.1,0.23132,0.231007,-2.23786,12,0.0160659,10,-0.00051696,-2.65017,-0.613807,-0.0961214,8.39578,0.2310067,
2,0,0,1,0,22851.1,0.229824,0.229517,-2.25587,12,0.0160237,10,-0.00051776,-2.64669,-0.648881,-0.0909258,8.0002,0.229517,
2,0,0,1,0,22851.1,0.22832,0.227954,-2.2704,12,0.015981,10,-0.000517546,-2.6439,-0.620899,-0.0950236,8.41507,0.227954,
2,0,0,1,0,22851.1,0.226832,0.226552,-2.29118,12,0.0159385,10,-0.000519071,-2.63994,-0.443828,-0.132934,11.8585,0.226552,
2,0,0,1,0,22851.1,0.225329,0.225015,-2.30632,12,0.0158952,10,-0.000518956,-2.63708,-0.501557,-0.117634,10.5714,0.225015,
2,0,0,1,0,22851.2,0.223825,0.223504,-2.32164,12,0.0158515,10,-0.000518898,-2.6342,-0.445545,-0.132422,11.9934,0.2235045,
2,0,0,1,0,22851.2,0.222336,0.222006,-2.33507,12,0.015808,10,-0.0005184,-2.6317,-0.51529,-0.114499,10.4416,0.222006,
2,0,0,1,0,22851.2,0.220833,0.22054,-2.35229,12,0.0157638,10,-0.000518776,-2.62851,-0.371717,-0.158723,14.5747,0.22054,
2,0,0,1,0,22851.2,0.219329,0.218985,-2.37217,12,0.0157193,10,-0.000519471,-2.62485,-0.382715,-0.154162,14.2191,0.218985,
2,0,0,1,0,22851.2,0.21784,0.217523,-2.3824,12,0.0156749,10,-0.000518228,-2.62298,-0.511549,-0.115336,10.7142,0.217523,
2,0,0,1,0,22851.2,0.216336,0.21602,-2.39048,12,0.0156297,10,-0.00051639,-2.62152,-0.51602,-0.114337,10.7051,0.21602,
2,0,0,1,0,22851.3,0.21484,0.21452,-2.40686,12,0.0155846,10,-0.000516319,-2.61855,-0.498917,-0.118256,11.155,0.21452,
2,0,0,1,0,22851.3,0.213343,0.213004,-2.42583,12,0.0155391,10,-0.000516711,-2.61514,-0.464548,-0.127005,12.0388,0.213004,
2,0,0,1,0,22851.3,0.21184,0.211529,-2.44622,12,0.015493,10,-0.000517446,-2.61151,-0.626153,-0.0942261,8.99476,0.211529,
2,0,0,1,0,22851.3,0.210352,0.210021,-2.45929,12,0.0154472,10,-0.000516503,-2.60919,-0.571361,-0.103262,9.92159,0.210021,
2,0,0,1,0,22851.3,0.208849,0.20855,-2.47504,12,0.0154006,10,-0.00051617,-2.60642,-0.553171,-0.106658,10.3413,0.20855,
2,0,0,1,0,22851.4,0.207345,0.207024,-2.49857,12,0.0153536,10,-0.000517266,-2.60231,-0.479297,-0.123097,12.0018,0.207024,
2,0,0,1,0,22851.4,0.205856,0.20556,-2.51875,12,0.0153067,10,-0.000517754,-2.59882,-0.486368,-0.121307,11.898,0.20556,
2,0,0,1,0,22851.4,0.204353,0.204069,-2.53762,12,0.0152591,10,-0.00051785,-2.59557,-0.879614,-0.0670749,6.62668,0.2040695,
2,0,0,1,0,22851.4,0.202849,0.202521,-2.54942,12,0.0152111,10,-0.000516312,-2.59356,-0.532799,-0.110736,10.9999,0.202521,
2,0,0,1,0,22851.4,0.20136,0.201031,-2.56715,12,0.0151635,10,-0.000516077,-2.59055,-0.52638,-0.112086,11.209,0.201031,
2,0,0,1,0,22851.5,0.199856,0.19955,-2.58235,12,0.0151149,10,-0.000515307,-2.58799,-0.478634,-0.123267,12.4268,0.19955,
2,0,0,1,0,22851.5,0.19836,0.198,-2.60453,12,0.0150663,10,-0.000515696,-2.58427,-0.51757,-0.113994,11.5584,0.1980001,
2,0,0,1,0,22851.5,0.196863,0.196585,-2.6135,12,0.0150173,10,-0.000513774,-2.58278,-0.409934,-0.143926,14.6969,0.196585,
2,0,0,1,0,22851.5,0.19536,0.195009,-2.63197,12,0.0149678,10,-0.000513259,-2.57972,-0.381677,-0.154581,15.9026,0.195009,
2,0,0,1,0,22851.5,0.193872,0.193535,-2.65942,12,0.0149185,10,-0.000514689,-2.57521,-0.387295,-0.152339,15.78,0.193535,
2,0,0,1,0,22851.5,0.192369,0.192045,-2.67075,12,0.0148682,10,-0.000512904,-2.57337,-0.479115,-0.123144,12.8389,0.192045,
2,0,0,1,0,22851.6,0.190865,0.190512,-2.6839,12,0.0148175,10,-0.000511316,-2.57123,-0.441359,-0.133678,14.0566,0.190512,
2,0,0,1,0,22851.6,0.189376,0.189028,-2.70798,12,0.0147671,10,-0.000511884,-2.56736,-0.516934,-0.114135,12.0938,0.189028,
2,0,0,1,0,22851.6,0.187872,0.18752,-2.72212,12,0.0147157,10,-0.000510452,-2.56509,-0.508683,-0.115986,12.3755,0.18752,
2,0,0,1,0,22851.6,0.186369,0.186046,-2.75428,12,0.0146639,10,-0.000512423,-2.55999,-0.480803,-0.122711,13.1808,0.186046,
2,0,0,1,0,22851.6,0.18488,0.184547,-2.77742,12,0.0146123,10,-0.000512563,-2.55636,-0.496701,-0.118784,12.8724,0.1845466,
2,0,0,1,0,22851.7,0.183376,0.183107,-2.79595,12,0.0145598,10,-0.000511956,-2.55347,-0.541716,-0.108913,11.9003,0.183107,
2,0,0,1,0,22851.7,0.18188,0.181587,-2.8248,12,0.0145071,10,-0.000512947,-2.54901,-0.414671,-0.142281,15.6533,0.181587,
2,0,0,1,0,22851.7,0.180383,0.180042,-2.85389,12,0.0144538,10,-0.000513822,-2.54456,-0.409504,-0.144077,15.9992,0.180042,
2,0,0,1,0,22851.7,0.17888,0.178518,-2.87563,12,0.0143999,10,-0.000513351,-2.54127,-0.445842,-0.132334,14.8563,0.178518,
2,0,0,1,0,22851.7,0.177392,0.177066,-2.89535,12,0.0143461,10,-0.000512668,-2.5383,-0.378747,-0.155777,17.6296,0.177066,
2,0,0,1,0,22851.8,0.175889,0.175546,-2.92669,12,0.0142912,10,-0.00051377,-2.53362,-0.305061,-0.193404,22.0676,0.175546,
2,0,0,1,0,22851.8,0.174385,0.174057,-2.95646,12,0.0142357,10,-0.000514592,-2.52923,-0.307109,-0.192114,22.1649,0.174057,
2,0,0,1,0,22851.8,0.172896,0.172613,-2.98603,12,0.0141803,10,-0.000515428,-2.52491,-0.311176,-0.189603,22.0986,0.172613,
2,0,0,1,0,22851.8,0.171392,0.171077,-3.01222,12,0.0141237,10,-0.000515321,-2.52111,-0.278842,-0.21159,24.9346,0.171077,
2,0,0,1,0,22851.8,0.169889,0.169548,-3.05105,12,0.0140665,10,-0.0005173,-2.51555,-0.271769,-0.217096,25.895,0.169548,
2,0,0,1,0,22851.8,0.1684,0.168089,-3.08895,12,0.0140092,10,-0.000519219,-2.51019,-0.253348,-0.232881,28.0975,0.168089,
2,0,0,1,0,22851.9,0.166896,0.166553,-3.13186,12,0.0139505,10,-0.000521621,-2.5042,-0.248893,-0.23705,28.9336,0.166553,
2,0,0,1,0,22851.9,0.165392,0.165051,-3.16391,12,0.0138911,10,-0.000522207,-2.49978,-0.259177,-0.227644,28.1941,0.165051,
2,0,0,1,0,22851.9,0.163905,0.163647,-3.20596,12,0.0138315,10,-0.000524646,-2.49404,-0.228175,-0.258574,32.5092,0.163647,
2,0,0,1,0,22851.9,0.162401,0.162082,-3.26013,12,0.0137705,10,-0.000528408,-2.48676,-0.234538,-0.251558,32.0527,0.162082,
2,0,0,1,0,22851.9,0.160905,0.160562,-3.3169,12,0.0137087,10,-0.000532568,-2.47927,-0.232387,-0.253886,32.8538,0.160562,
2,0,0,1,0,22852,0.159409,0.159076,-3.37256,12,0.013646,10,-0.000536492,-2.47204,-0.218691,-0.269787,35.503,0.1590756,
2,0,0,1,0,22852,0.157905,0.157618,-3.42708,12,0.0135819,10,-0.00054017,-2.46508,-0.193523,-0.304874,40.889,0.157618,
2,0,0,1,0,22852,0.156416,0.156072,-3.50294,12,0.0135173,10,-0.000546713,-2.45557,-0.175385,-0.336402,45.9811,0.156072,
2,0,0,1,0,22852,0.154912,0.154591,-3.57656,12,0.0134506,10,-0.000552906,-2.44653,-0.157566,-0.374447,52.2747,0.154591,
2,0,0,1,0,22852,0.153409,0.153068,-3.6577,12,0.0133825,10,-0.000559875,-2.43679,-0.153782,-0.383661,54.7925,0.153068,
2,0,0,1,0,22852.1,0.151919,0.151591,-3.74019,12,0.0133136,10,-0.000566981,-2.42711,-0.1411,-0.418142,61.2002,0.151591,
2,0,0,1,0,22852.1,0.150416,0.150068,-3.83708,12,0.0132422,10,-0.000575821,-2.416,-0.127012,-0.464524,69.666,0.150068,
2,0,0,1,0,22852.1,0.148912,0.148577,-3.94781,12,0.0131689,10,-0.000586554,-2.40364,-0.116461,-0.506609,78.158,0.148577,
2,0,0,1,0,22852.1,0.147425,0.147079,-4.05642,12,0.0130942,10,-0.000596615,-2.39186,-0.112493,-0.524479,83.2102,0.147079,
2,0,0,1,0,22852.1,0.145921,0.145591,-4.18411,12,0.0130165,10,-0.000609171,-2.3784,-0.104791,-0.563023,92.1999,0.145591,
2,0,0,1,0,22852.1,0.144425,0.144112,-4.32241,12,0.0129367,10,-0.000622913,-2.36427,-0.0979521,-0.602335,101.956,0.144112,
2,0,0,1,0,22852.2,0.142929,0.142628,-4.47872,12,0.0128542,10,-0.000638792,-2.34885,-0.0970248,-0.608092,106.54,0.142628,
2,0,0,1,0,22852.2,0.141425,0.141098,-4.64675,12,0.0127682,10,-0.000655647,-2.33285,-0.0924313,-0.638312,115.893,0.141098,
2,0,0,1,0,22852.2,0.139936,0.139586,-4.822,12,0.0126798,10,-0.000673084,-2.31677,-0.0927641,-0.636022,119.908,0.139586,
2,0,0,1,0,22852.2,0.138432,0.138147,-5.00474,12,0.0125872,10,-0.00069139,-2.30062,-0.0911568,-0.647237,126.742,0.138147,
2,0,0,1,0,22852.2,0.136929,0.136635,-5.21043,12,0.012491,10,-0.000711929,-2.28313,-0.0884825,-0.666798,135.654,0.136635,
2,0,0,1,0,22852.3,0.135439,0.135156,-5.42646,12,0.012392,10,-0.000733418,-2.26548,-0.0896477,-0.658132,139.064,0.135156,
2,0,0,1,0,22852.3,0.133936,0.133609,-5.63958,12,0.0122879,10,-0.000753501,-2.24875,-0.094633,-0.623461,136.741,0.133609,
2,0,0,1,0,22852.3,0.132432,0.132135,-5.84068,12,0.0121798,10,-0.000771756,-2.23354,-0.0936782,-0.629815,143.59,0.132135,
2,0,0,1,0,22852.3,0.130945,0.13064,-6.05598,12,0.0120691,10,-0.000791153,-2.21782,-0.0953558,-0.618736,146.204,0.13064,
2,0,0,1,0,22852.3,0.129441,0.129104,-6.27784,12,0.011953,10,-0.000810493,-2.20219,-0.0977416,-0.603632,147.604,0.129104,
2,0,0,1,0,22852.4,0.127945,0.127611,-6.49564,12,0.0118333,10,-0.000828917,-2.18738,-0.106746,-0.552716,139.785,0.127611,
2,0,0,1,0,22852.4,0.126448,0.126178,-6.70013,12,0.0117098,10,-0.00084541,-2.17392,-0.110918,-0.531926,138.801,0.126178,
2,0,0,1,0,22852.4,0.124945,0.124613,-6.8949,12,0.0115818,10,-0.000859197,-2.16147,-0.118136,-0.499425,134.282,0.124613,
2,0,0,1,0,22852.4,0.123456,0.123139,-7.09158,12,0.0114514,10,-0.00087325,-2.14926,-0.126406,-0.466749,129.019,0.123139,
2,0,0,1,0,22852.4,0.121952,0.121664,-7.27525,12,0.0113162,10,-0.000885137,-2.13815,-0.140054,-0.421266,119.317,0.121664,
2,0,0,1,0,22852.4,0.120449,0.120138,-7.43386,12,0.0111775,10,-0.000893093,-2.12879,-0.156258,-0.37758,109.53,0.120138,
2,0,0,1,0,22852.5,0.118959,0.118644,-7.59738,12,0.0110374,10,-0.00090138,-2.11934,-0.163878,-0.360025,106.76,0.118644,
2,0,0,1,0,22852.5,0.117456,0.117163,-7.75534,12,0.0108928,10,-0.000908641,-2.1104,-0.187407,-0.314822,95.1728,0.117163,
2,0,0,1,0,22852.5,0.115952,0.115618,-7.89377,12,0.0107454,10,-0.000912658,-2.10272,-0.206483,-0.285737,87.9041,0.115618,
2,0,0,1,0,22852.5,0.114465,0.114172,-8.02574,12,0.010597,10,-0.000916318,-2.09551,-0.235388,-0.25065,78.4195,0.114172,
2,0,0,1,0,22852.5,0.112961,0.112669,-8.13841,12,0.0104449,10,-0.000916943,-2.08946,-0.268767,-0.219521,69.7067,0.112669,
2,0,0,1,0,22852.6,0.111465,0.111145,-8.24993,12,0.0102914,10,-0.000916938,-2.08355,-0.284964,-0.207043,66.5437,0.111145,
2,0,0,1,0,22852.6,0.109968,0.109675,-8.34604,12,0.010136,10,-0.000915354,-2.07852,-0.334562,-0.17635,57.3375,0.109675,
2,0,0,1,0,22852.6,0.108465,0.108141,-8.43548,12,0.00997819,10,-0.000912225,-2.07389,-0.405152,-0.145624,47.8066,0.108141,
2,0,0,1,0,22852.6,0.106976,0.106674,-8.49796,12,0.00982072,10,-0.000906512,-2.07069,-0.461623,-0.12781,42.3173,0.106674,
2,0,0,1,0,22852.6,0.105472,0.105152,-8.55797,12,0.00966034,10,-0.00089989,-2.06763,-0.519807,-0.113504,37.8102,0.105152,
2,0,0,1,0,22852.7,0.103968,0.103655,-8.60014,12,0.00949895,10,-0.000891444,-2.06549,-0.748355,-0.0788396,26.4096,0.103655,
2,0,0,1,0,22852.7,0.102479,0.102169,-8.6303,12,0.00933856,10,-0.000881751,-2.06397,-1.2471,-0.0473099,15.8956,0.102169,
2,0,0,1,0,22852.7,0.100976,0.100631,-8.63739,12,0.00917608,10,-0.000869186,-2.06362,-2.7371,-0.0215557,7.25914,0.100631,
2,0,0,1,0,22852.7,0.0994721,0.0991745,-8.64199,12,0.00901346,10,-0.000857065,-2.06339,-13.855,-0.00425838,1.43488,0.0991745,
2,0,0,1,0,22852.7,0.0979846,0.0976857,-8.62754,12,0.0088526,10,-0.000842787,-2.06411,2.72011,0.0216903,-7.29734,0.0976857,
2,0,0,1,0,22852.7,0.0964811,0.0961539,-8.60594,12,0.0086903,10,-0.000827495,-2.0652,1.04843,0.0562749,-18.889,0.0961539,
2,0,0,1,0,22852.8,0.0949847,0.0946719,-8.56941,12,0.00852939,10,-0.000811283,-2.06705,0.706491,0.0835113,-27.9125,0.0946719,
2,0,0,1,0,22852.8,0.0934883,0.0931627,-8.52727,12,0.00836927,10,-0.000794423,-2.06919,0.586902,0.100528,-33.4464,0.0931627,
2,0,0,1,0,22852.8,0.0919847,0.0916381,-8.47258,12,0.00820921,10,-0.000776411,-2.07198,0.494225,0.119379,-39.458,0.0916381,
2,0,0,1,0,22852.8,0.0904955,0.0901612,-8.41839,12,0.00805186,10,-0.000759012,-2.07477,0.422884,0.139518,-45.7705,0.0901612,
2,0,0,1,0,22852.8,0.0889919,0.0885929,-8.34756,12,0.00789408,10,-0.000739535,-2.07844,0.364745,0.161757,-52.6408,0.0885929,
2,0,0,1,0,22852.9,0.0874884,0.0871607,-8.26661,12,0.00773777,10,-0.000720524,-2.08267,0.349172,0.168971,-54.5043,0.0871607,
2,0,0,1,0,22852.9,0.0860009,0.0856494,-8.19797,12,0.00758455,10,-0.000702151,-2.08629,0.36175,0.163096,-52.1196,0.0856494,
2,0,0,1,0,22852.9,0.0844973,0.0841732,-8.11551,12,0.00743113,10,-0.000683108,-2.09068,0.35504,0.166179,-52.61,0.08417321,
2,0,0,1,0,22852.9,0.0829938,0.0826316,-8.03639,12,0.00727919,10,-0.000664059,-2.09494,0.337126,0.175009,-54.8449,0.0826316,
2,0,0,1,0,22852.9,0.0815045,0.081185,-7.95348,12,0.0071304,10,-0.000645703,-2.09944,0.367663,0.160473,-49.821,0.081185,
2,0,0,1,0,22853,0.080001,0.0796925,-7.87551,12,0.00698151,10,-0.000627619,-2.10372,0.410424,0.143754,-44.211,0.0796925,
2,0,0,1,0,22853,0.0785046,0.0782022,-7.81278,12,0.00683468,10,-0.000610976,-2.10719,0.443595,0.133004,-40.5455,0.0782022,
2,0,0,1,0,22853,0.0770082,0.0766907,-7.74567,12,0.0066891,10,-0.00059402,-2.11094,0.433475,0.136109,-41.1406,0.0766907,
2,0,0,1,0,22853,0.0755046,0.0751865,-7.67336,12,0.00654393,10,-0.000576933,-2.11501,0.46006,0.128244,-38.4475,0.0751865,
2,0,0,1,0,22853,0.0740154,0.0737018,-7.61778,12,0.00640148,10,-0.000561444,-2.11817,0.502956,0.117306,-34.9095,0.0737018,
2,0,0,1,0,22853,0.0725118,0.0721915,-7.56932,12,0.00625852,10,-0.000546441,-2.12094,0.554391,0.106423,-31.4595,0.0721915,
2,0,0,1,0,22853.1,0.0710083,0.0706836,-7.51913,12,0.00611647,10,-0.000531479,-2.12383,0.507831,0.11618,-34.1005,0.0706836,
2,0,0,1,0,22853.1,0.0695208,0.069188,-7.46818,12,0.0059768,10,-0.000516708,-2.12679,0.565445,0.104343,-30.4546,0.069188,
2,0,0,1,0,22853.1,0.0680173,0.0677131,-7.42341,12,0.00583657,10,-0.000502662,-2.1294,0.579295,0.101848,-29.5587,0.0677131,
2,0,0,1,0,22853.1,0.0665137,0.066208,-7.38392,12,0.00569707,10,-0.000488874,-2.13171,0.619943,0.0951701,-27.4557,0.06620796,
2,0,0,1,0,22853.1,0.0650244,0.0646929,-7.35901,12,0.00555973,10,-0.000476076,-2.13318,0.598446,0.0985886,-28.285,0.0646929,
2,0,0,1,0,22853.2,0.0635209,0.0631901,-7.31915,12,0.00542163,10,-0.000462498,-2.13554,0.606123,0.0973401,-27.793,0.06319011,
2,0,0,1,0,22853.2,0.0620245,0.0617262,-7.27366,12,0.00528509,10,-0.000448976,-2.13825,0.610025,0.0967174,-27.4663,0.0617262,
2,0,0,1,0,22853.2,0.0605281,0.0601757,-7.23901,12,0.00514925,10,-0.000435612,-2.14032,0.693171,0.0851161,-24.0357,0.06017568,
2,0,0,1,0,22853.2,0.0590246,0.0586961,-7.20762,12,0.00501332,10,-0.000423059,-2.14221,0.710701,0.0830166,-23.3334,0.0586961,
2,0,0,1,0,22853.2,0.0575353,0.0572076,-7.16932,12,0.00487949,10,-0.000410139,-2.14452,0.664876,0.0887383,-24.8141,0.0572076,
2,0,0,1,0,22853.3,0.0560317,0.0557201,-7.12517,12,0.00474499,10,-0.000397015,-2.1472,0.734454,0.0803318,-22.3532,0.0557201,
2,0,0,1,0,22853.3,0.0545282,0.0542368,-7.09067,12,0.00461122,10,-0.000384575,-2.14931,0.874421,0.0674732,-18.6743,0.0542368,
2,0,0,1,0,22853.3,0.0530407,0.0527098,-7.05364,12,0.0044795,10,-0.000371796,-2.15159,0.726901,0.0811665,-22.3427,0.0527098,
2,0,0,1,0,22853.3,0.0515372,0.0512186,-7.01209,12,0.00434701,10,-0.000359149,-2.15415,0.691248,0.0853529,-23.363,0.0512186,
2,0,0,1,0,22853.3,0.0500336,0.0497008,-6.96693,12,0.00421526,10,-0.000346262,-2.15696,0.624207,0.09452,-25.7327,0.04970083,
2,0,0,1,0,22853.3,0.0485444,0.0482635,-6.93032,12,0.00408572,10,-0.000334481,-2.15925,0.598672,0.0985514,-26.685,0.04826349,
2,0,0,1,0,22853.4,0.0470408,0.0467307,-6.89335,12,0.0039555,10,-0.000322131,-2.16157,0.56713,0.104033,-28.006,0.0467307,
2,0,0,1,0,22853.4,0.0455444,0.0452545,-6.85319,12,0.00382668,10,-0.000310138,-2.16411,0.510302,0.115618,-30.9221,0.0452545,
2,0,0,1,0,22853.4,0.044048,0.0437395,-6.80674,12,0.00369866,10,-0.000297723,-2.16706,0.501935,0.117545,-31.2716,0.0437395,
2,0,0,1,0,22853.4,0.0425445,0.0422609,-6.76674,12,0.00357082,10,-0.000285968,-2.16962,0.509284,0.115849,-30.6341,0.0422609,
2,0,0,1,0,22853.4,0.0410552,0.0407107,-6.73104,12,0.00344509,10,-0.000274025,-2.17192,0.529069,0.111517,-29.2961,0.0407107,
2,0,0,1,0,22853.5,0.0395517,0.0392158,-6.69745,12,0.00331875,10,-0.000262645,-2.17409,0.493431,0.119571,-31.1869,0.0392158,
2,0,0,1,0,22853.5,0.0380481,0.0376445,-6.65423,12,0.0031932,10,-0.000250495,-2.1769,0.462233,0.127641,-33.0819,0.0376445,
2,0,0,1,0,22853.5,0.0365606,0.0362402,-6.59809,12,0.00306993,10,-0.000239116,-2.18058,0.447894,0.131728,-33.91,0.0362402,
2,0,0,1,0,22853.5,0.0350571,0.0347507,-6.55081,12,0.00294625,10,-0.000227645,-2.1837,0.484281,0.12183,-31.1257,0.0347507,
2,0,0,1,0,22853.5,0.0335535,0.0332179,-6.49559,12,0.00282344,10,-0.00021577,-2.18738,0.490023,0.120403,-30.5284,0.0332179,
2,0,0,1,0,22853.6,0.0320643,0.0317189,-6.4494,12,0.00270284,10,-0.000204568,-2.19048,0.425983,0.138503,-34.8571,0.0317189,
2,0,0,1,0,22853.6,0.0305607,0.0302447,-6.39228,12,0.00258196,10,-0.000193333,-2.19434,0.426899,0.138206,-34.4967,0.0302447,
2,0,0,1,0,22853.6,0.0290643,0.0287535,-6.33755,12,0.00246274,10,-0.000182227,-2.19808,0.425101,0.138791,-34.3398,0.0287535,
2,0,0,1,0,22853.6,0.0275679,0.0272436,-6.28921,12,0.00234448,10,-0.000171341,-2.2014,0.43639,0.1352,-33.1759,0.0272436,
2,0,0,1,0,22853.6,0.0260644,0.0257275,-6.2314,12,0.00222655,10,-0.000160318,-2.20541,0.393287,0.150018,-36.4652,0.0257275,
2,0,0,1,0,22853.6,0.0245751,0.0242326,-6.16904,12,0.00211091,10,-0.000149491,-2.20978,0.388748,0.151769,-36.6061,0.0242326,
2,0,0,1,0,22853.7,0.0230716,0.0227427,-6.1158,12,0.00199522,10,-0.00013909,-2.21355,0.360904,0.163479,-39.0716,0.0227427,
2,0,0,1,0,22853.7,0.021568,0.021259,-6.05847,12,0.0018805,10,-0.000128797,-2.21764,0.388373,0.151916,-35.9407,0.021259,
2,0,0,1,0,22853.7,0.0200805,0.0197501,-6.00734,12,0.00176802,10,-0.000118645,-2.22132,0.366572,0.16095,-37.7344,0.0197501,
2,0,0,1,0,22853.7,0.018577,0.0182603,-5.95815,12,0.00165534,10,-0.000108797,-2.22489,0.355492,0.165967,-38.588,0.01826027,
2,0,0,1,0,22853.7,0.0170735,0.0167142,-5.89723,12,0.00154374,10,-9.85675e-05,-2.22935,0.365478,0.161433,-37.2049,0.0167142,
2,0,0,1,0,22853.8,0.0155842,0.0152148,-5.85002,12,0.00143429,10,-8.9007e-05,-2.23284,0.406,0.14532,-33.199,0.0152148,
2,0,0,1,0,22853.8,0.0140806,0.0137236,-5.81036,12,0.00132454,10,-7.97393e-05,-2.2358,0.425062,0.138803,-31.433,0.0137236,
2,0,0,1,0,22853.8,0.0125842,0.0122614,-5.76229,12,0.00121624,10,-7.0654e-05,-2.23941,0.402283,0.146663,-32.9528,0.0122614,
2,0,0,1,0,22853.8,0.0110878,0.0107371,-5.7161,12,0.00110892,10,-6.13746e-05,-2.2429,0.41646,0.14167,-31.5921,0.0107371,
2,0,0,1,0,22853.8,0.00958429,0.00923708,-5.66656,12,0.00100181,10,-5.23425e-05,-2.24668,0.545624,0.108133,-23.9028,0.00923708,
2,0,0,1,0,22853.9,0.0080968,0.00773805,-5.63123,12,0.000896619,10,-4.35747e-05,-2.2494,0.566867,0.104081,-22.8718,0.00773805,
2,0,0,1,0,22853.9,0.00659326,0.0062506,-5.58989,12,0.000791009,10,-3.49402e-05,-2.2526,0.595596,0.0990604,-21.6053,0.006250598,
2,0,0,1,0,22853.9,0.00508972,0.0047686,-5.54423,12,0.000686093,10,-2.64382e-05,-2.25616,0.630554,0.0935685,-20.2908,0.0047686,
2,0,0,1,0,22853.9,0.00360044,0.00328934,-5.51755,12,0.000582957,10,-1.81491e-05,-2.25825,1.54512,0.0381848,-8.25976,0.00328934,
2,0,0,1,0,22853.9,0.0020969,0.00174326,-5.53934,12,0.000479131,10,-9.65654e-06,-2.25654,1.31573,0.0448419,-9.63952,0.00174326,
2,0,0,1,0,22853.9,0.000593362,0.00023673,-5.48787,12,0.000375237,10,-1.29914e-06,-2.2606, , , ,0.00023673,
2,0,0,1,0,22854,0.000199195,-0.000145903,-5.48919,12,0.0003483,10,8.00888e-07,-2.26049, , , ,-0.000145903,