File: Figure_codes/Fig_3-5/rawdata_trumpetplot_data/after 10th/20221101_1-115_003_TrumpetPlot_ParaChange_from10_every3_02_CV_C01_8.csv
mode,ox/red,error,control changes,counter inc.,time/s,control/V,Ewe/V,<I>/mA,cycle number,(Q-Qo)/C,I Range,P/W,log(|I|),Tafel slope mV/dec,alpha_eff,dI/d(E-IR),E-IR/V,
2,0,0,1,0,16101.1,2.44065e-05,-0.000306236,-0.352535,9,0.0000000E+000,10,1.07959e-07,-3.4528, , , ,-0.000306236,
2,0,0,1,0,16102.3,0.00129791,0.00092067,-0.171464,9,-0.000242428,10,-1.57862e-07,-3.76583, , , ,0.00092067,
2,0,0,1,0,16103.8,0.00279612,0.00245304,-0.137939,9,-0.000447612,10,-3.38368e-07,-3.86031,-0.0180942,-3.26071,18.9221,0.00245304,
2,0,0,1,0,16105.3,0.00429431,0.00398,-0.118956,9,-0.000616419,10,-4.73446e-07,-3.92461,-0.0253173,-2.33042,11.0203,0.00398,
2,0,0,1,0,16106.8,0.00579242,0.00545706,-0.105114,9,-0.000760932,10,-5.73616e-07,-3.97834,-0.0284082,-2.07687,8.6018,0.00545706,
2,0,0,1,0,16108.3,0.00729061,0.006948,-0.0936036,9,-0.000886561,10,-6.50358e-07,-4.02871,-0.0319106,-1.84891,6.82465,0.006948,
2,0,0,1,0,16109.8,0.00878882,0.00844318,-0.0840874,9,-0.0009971,10,-7.09966e-07,-4.07527,-0.0335415,-1.75902,5.82613,0.00844318,
2,0,0,1,0,16111.3,0.010287,0.00998709,-0.076213,9,-0.00109524,10,-7.61146e-07,-4.11797,-0.0370797,-1.59117,4.79096,0.00998709,
2,0,0,1,0,16112.8,0.0117852,0.0114643,-0.0701996,9,-0.00118272,10,-8.04789e-07,-4.15367,-0.0385058,-1.53224,4.19831,0.0114643,
2,0,0,1,0,16114.3,0.0132834,0.0129266,-0.064217,9,-0.00126148,10,-8.30107e-07,-4.19235,-0.0368218,-1.60231,3.9711,0.0129266,
2,0,0,1,0,16115.8,0.0147815,0.0144185,-0.0586724,9,-0.00133124,10,-8.45967e-07,-4.23157,-0.0384062,-1.53621,3.51629,0.0144185,
2,0,0,1,0,16117.3,0.0162797,0.015937,-0.0534444,9,-0.00139313,10,-8.51745e-07,-4.2721,-0.0448475,-1.31557,2.77876,0.01593701,
2,0,0,1,0,16118.8,0.0177779,0.0174428,-0.0494535,9,-0.0014485,10,-8.62608e-07,-4.3058,-0.0410846,-1.43606,2.7873,0.0174428,
2,0,0,1,0,16120.3,0.0192761,0.0189231,-0.0457937,9,-0.00149835,10,-8.66561e-07,-4.33919,-0.0418988,-1.40815,2.52349,0.0189231,
2,0,0,1,0,16121.8,0.0207743,0.0204384,-0.0417912,9,-0.0015421,10,-8.54147e-07,-4.37891,-0.0392005,-1.50508,2.4652,0.0204384,
2,0,0,1,0,16123.3,0.0222725,0.0219569,-0.0385011,9,-0.00158045,10,-8.45366e-07,-4.41453,-0.0395374,-1.49226,2.23321,0.02195695,
2,0,0,1,0,16124.8,0.0237707,0.0234808,-0.0348653,9,-0.00161352,10,-8.18665e-07,-4.45761,-0.0357411,-1.65076,2.22317,0.0234808,
2,0,0,1,0,16126.3,0.0252689,0.0249314,-0.0313075,9,-0.00164193,10,-7.8054e-07,-4.50435,-0.034397,-1.71527,2.08693,0.0249314,
2,0,0,1,0,16127.8,0.0267671,0.0264341,-0.0286598,9,-0.00166505,10,-7.57594e-07,-4.54273,-0.0289322,-2.03925,2.27766,0.0264341,
2,0,0,1,0,16129.3,0.0282653,0.0279557,-0.025206,9,-0.00168339,10,-7.04652e-07,-4.5985,-0.0301506,-1.95684,1.92754,0.0279557,
2,0,0,1,0,16130.8,0.0297635,0.0294499,-0.0225157,9,-0.0016971,10,-6.63085e-07,-4.64751,-0.0312446,-1.88833,1.63987,0.0294499,
2,0,0,1,0,16132.3,0.0312617,0.0309673,-0.020413,9,-0.00170668,10,-6.32136e-07,-4.69009,-0.0265469,-2.22248,1.70306,0.0309673,
2,0,0,1,0,16133.8,0.0327599,0.0324222,-0.0177003,9,-0.00171284,10,-5.73884e-07,-4.75202,-0.0275219,-2.14375,1.46674,0.0324222,
2,0,0,1,0,16135.3,0.0342581,0.0339312,-0.0151865,9,-0.00171473,10,-5.15297e-07,-4.81854,-0.0208981,-2.82322,1.65902,0.0339312,
2,0,0,1,0,16136.8,0.0357563,0.0354337,-0.0130739,9,-0.00171317,10,-4.63259e-07,-4.88359,-0.0216239,-2.72846,1.3333,0.0354337,
2,0,0,1,0,16138.3,0.0372544,0.0369469,-0.010073,9,-0.00170781,10,-3.72168e-07,-4.99684,-0.0138944,-4.24633,1.65118,0.0369469,
2,0,0,1,0,16139.8,0.0387526,0.0384293,-0.00782428,9,-0.00169888,10,-3.00682e-07,-5.10656,-0.00930285,-6.34214,1.67939,0.0384293,
2,0,0,1,0,16141.3,0.0402508,0.0399425,-0.00564514,9,-0.00168648,10,-2.25481e-07,-5.24832,-0.00846819,-6.96725,1.33541,0.0399425,
2,0,0,1,0,16142.8,0.041749,0.0414367,-0.00321609,9,-0.00166994,10,-1.33264e-07,-5.49267,-0.00329257,-17.9191,1.4369,0.0414367,
2,0,0,1,0,16144.3,0.0432472,0.0429192,-0.00104754,9,-0.00165044,10,-4.49594e-08,-5.97983,-0.0276071,-2.13713,1.60049,0.0429192,
2,0,0,1,0,16145.8,0.0447454,0.0444684,0.00161961,9,-0.00162746,10,7.20216e-08,-5.79059,0.0124569,4.73633,1.55682,0.0444684,
2,0,0,1,0,16147.3,0.0462435,0.0459094,0.00378928,9,-0.00160056,10,1.73963e-07,-5.42144,0.0033461,17.6325,1.50422,0.0459094,
2,0,0,1,0,16148.8,0.0477417,0.0473908,0.00591089,9,-0.00157057,10,2.80122e-07,-5.22835,0.00766619,7.69613,1.53933,0.0473908,
2,0,0,1,0,16150.3,0.0492399,0.0489178,0.0076712,9,-0.00153727,10,3.75258e-07,-5.11514,0.0118322,4.98638,1.44915,0.0489178,
2,0,0,1,0,16151.8,0.0507381,0.0504278,0.00962043,9,-0.00150139,10,4.85137e-07,-5.01681,0.0161142,3.66137,1.40637,0.0504278,
2,0,0,1,0,16153.3,0.0522363,0.0519018,0.0118322,9,-0.00146224,10,6.14112e-07,-4.92693,0.0182283,3.23673,1.4553,0.0519018,
2,0,0,1,0,16154.8,0.0537345,0.053415,0.0140262,9,-0.00141953,10,7.49212e-07,-4.85306,0.0227312,2.59555,1.34479,0.053415,
2,0,0,1,0,16156.3,0.0552327,0.0549324,0.0158451,9,-0.00137434,10,8.70413e-07,-4.8001,0.0274491,2.14944,1.29561,0.05493243,
2,1,0,1,0,16157.8,0.0567309,0.056435,0.0166953,9,-0.00132677,10,9.42199e-07,-4.77741,0.0316903,1.86177,1.24177,0.056435,
2,1,0,1,0,16159.3,0.0582291,0.0578857,0.0196002,9,-0.00127585,10,1.13457e-06,-4.70774,0.0324464,1.81839,1.37768,0.05788571,
2,1,0,1,0,16160.8,0.0597273,0.0593968,0.0218229,9,-0.0012222,10,1.29621e-06,-4.66109,0.0403901,1.46076,1.20129,0.0593968,
2,1,0,1,0,16162.3,0.0612255,0.0609005,0.0231779,9,-0.00116534,10,1.41155e-06,-4.63493,0.0511679,1.15307,1.018,0.0609005,
2,1,0,1,0,16163.8,0.0627237,0.0624179,0.0247012,9,-0.00110605,10,1.5418e-06,-4.60728,0.050444,1.16961,1.13668,0.0624179,
2,1,0,1,0,16165.3,0.0642219,0.063912,0.0258298,9,-0.0010445,10,1.65083e-06,-4.58788,0.0561272,1.05118,1.09965,0.063912,
2,1,0,1,0,16166.8,0.0657201,0.0654093,0.0275398,9,-0.000980547,10,1.80136e-06,-4.56004,0.072366,0.8153,0.888907,0.06540934,
2,1,0,1,0,16168.3,0.0672183,0.0668982,0.0296707,9,-0.000913952,10,1.98491e-06,-4.52767,0.0550905,1.07096,1.22436,0.06689816,
2,1,0,1,0,16169.8,0.0687164,0.0684049,0.0314003,9,-0.000844855,10,2.14793e-06,-4.50307,0.0710117,0.830849,1.00258,0.0684049,
2,1,0,1,0,16171.3,0.0702146,0.0699319,0.0329124,9,-0.000773824,10,2.30163e-06,-4.48264,0.0737495,0.800005,1.01924,0.0699319,
2,1,0,1,0,16172.8,0.0717128,0.0713581,0.0347655,9,-0.000699983,10,2.4808e-06,-4.45885,0.0669946,0.880668,1.16591,0.0713581,
2,1,0,1,0,16174.3,0.073211,0.0728576,0.0361312,9,-0.000623613,10,2.63243e-06,-4.44212,0.0779276,0.757113,1.06957,0.0728576,
2,1,0,1,0,16175.8,0.0747092,0.0743814,0.037332,9,-0.000545314,10,2.77681e-06,-4.42792,0.0869824,0.678298,0.992683,0.0743814,
2,1,0,1,0,16177.3,0.0762074,0.0758882,0.0381716,9,-0.000464913,10,2.89678e-06,-4.41826,0.0866848,0.680627,1.02672,0.0758882,
2,1,0,1,0,16178.8,0.0777055,0.0774215,0.0403404,9,-0.000382009,10,3.12322e-06,-4.39426,0.081696,0.722189,1.13533,0.0774215,
2,1,0,1,0,16180.3,0.0792037,0.0788849,0.0424746,9,-0.000296921,10,3.3506e-06,-4.37187,0.101035,0.583958,0.937528,0.07888487,
2,1,0,1,0,16181.8,0.0807019,0.0804076,0.0429525,9,-0.000209754,10,3.45371e-06,-4.36701,0.109786,0.537409,0.895676,0.0804076,
2,1,0,1,0,16183.2,0.0822001,0.0819102,0.0433327,9,-0.000120889,10,3.54939e-06,-4.36318,0.089231,0.661205,1.13706,0.0819102,
2,1,0,1,0,16184.7,0.0836983,0.0833789,0.0458544,9,-2.97522e-05,10,3.82329e-06,-4.33862,0.0968756,0.609028,1.09857,0.0833789,
2,1,0,1,0,16186.2,0.0851965,0.0848899,0.0477529,9,6.42254e-05,10,4.05374e-06,-4.321,0.0863708,0.683102,1.27713,0.0848899,
2,1,0,1,0,16187.7,0.0866947,0.0864,0.0493398,9,0.000161208,10,4.26296e-06,-4.3068,0.122701,0.480844,0.926031,0.0864,
2,1,0,1,0,16189.2,0.0881929,0.0878623,0.0512916,9,0.000260591,10,4.5066e-06,-4.28995,0.0775956,0.760353,1.53666,0.0878623,
2,1,0,1,0,16190.7,0.0896911,0.0894105,0.0530135,9,0.000362222,10,4.73997e-06,-4.27561,0.0848545,0.695308,1.45238,0.0894105,
2,1,0,1,0,16192.2,0.0911893,0.0908633,0.0557193,9,0.000467721,10,5.06284e-06,-4.25399,0.0865692,0.681535,1.47428,0.0908633,
2,1,0,1,0,16193.7,0.0926875,0.0923638,0.0575667,9,0.000576739,10,5.31708e-06,-4.23983,0.0930585,0.63401,1.42536,0.0923638,
2,1,0,1,0,16195.2,0.0941857,0.0938929,0.0602243,9,0.00068894,10,5.65464e-06,-4.22023,0.103309,0.571104,1.33124,0.0938929,
2,1,0,1,0,16196.7,0.0956839,0.0953488,0.0620267,9,0.00080397,10,5.91418e-06,-4.20742,0.0910123,0.648264,1.56915,0.0953488,
2,1,0,1,0,16198.2,0.0971821,0.0968928,0.0642223,9,0.000922654,10,6.22268e-06,-4.19231,0.0862375,0.684157,1.7133,0.0968928,
2,1,0,1,0,16199.7,0.0986803,0.0983307,0.0659982,9,0.00104468,10,6.48965e-06,-4.18047,0.1028,0.573928,1.49874,0.0983307,
2,1,0,1,0,16201.2,0.100178,0.099882,0.0685066,9,0.00117005,10,6.84258e-06,-4.16427,0.0909226,0.648904,1.75402,0.099882,
2,1,0,1,0,16202.7,0.101677,0.101358,0.0702773,9,0.00129878,10,7.12318e-06,-4.15318,0.11179,0.527775,1.46382,0.101358,
2,1,0,1,0,16204.2,0.103175,0.102872,0.0739747,9,0.00143148,10,7.60995e-06,-4.13092,0.0908084,0.64972,1.86301,0.102872,
2,1,0,1,0,16205.7,0.104673,0.104373,0.0765173,9,0.0015681,10,7.98633e-06,-4.11624,0.0981439,0.601158,1.77181,0.104373,
2,1,0,1,0,16207.2,0.106171,0.105845,0.0788201,9,0.00170879,10,8.34269e-06,-4.10336,0.12606,0.468031,1.42354,0.105845,
2,1,0,1,0,16208.7,0.107669,0.107347,0.0800965,9,0.00185246,10,8.59814e-06,-4.09639,0.117744,0.501085,1.57935,0.107347,
2,1,0,1,0,16210.2,0.109167,0.108829,0.082705,9,0.00199923,10,9.00067e-06,-4.08247,0.153888,0.383395,1.23947,0.108829,
2,1,0,1,0,16211.7,0.110666,0.110351,0.0841005,9,0.00214941,10,9.28061e-06,-4.0752,0.150221,0.392754,1.29733,0.110351,
2,1,0,1,0,16213.2,0.112164,0.111817,0.0872282,9,0.00230251,10,9.75359e-06,-4.05934,0.177563,0.332276,1.119,0.111817,
2,1,0,1,0,16214.7,0.113662,0.113376,0.0882207,9,0.00245845,10,1.00021e-05,-4.05443,0.143702,0.410573,1.41825,0.113376,
2,1,0,1,0,16216.2,0.11516,0.114853,0.0913691,9,0.00261642,10,1.0494e-05,-4.0392,0.167269,0.352725,1.24372,0.114853,
2,1,0,1,0,16217.7,0.116658,0.116321,0.0921861,9,0.00277797,10,1.07232e-05,-4.03533,0.163939,0.35989,1.29191,0.1163215,
2,1,0,1,0,16219.2,0.118157,0.117839,0.0947532,9,0.00294256,10,1.11656e-05,-4.02341,0.148977,0.396033,1.45449,0.1178389,
2,1,0,1,0,16220.7,0.119655,0.119346,0.096496,9,0.00311022,10,1.15164e-05,-4.01549,0.176654,0.333987,1.25203,0.119346,
2,1,0,1,0,16222.2,0.121153,0.120872,0.0983031,9,0.00328032,10,1.18821e-05,-4.00743,0.208515,0.282953,1.08729,0.120872,
2,1,0,1,0,16223.7,0.122651,0.122323,0.0994457,9,0.00345344,10,1.21645e-05,-4.00241,0.142778,0.413229,1.60915,0.122323,
2,1,0,1,0,16225.2,0.124149,0.123857,0.10185,9,0.00362959,10,1.26148e-05,-3.99204,0.175888,0.335442,1.33407,0.123857,
2,1,0,1,0,16226.7,0.125648,0.125337,0.102515,9,0.00380831,10,1.28489e-05,-3.98921,0.233486,0.252692,1.02239,0.125337,
2,1,0,1,0,16228.2,0.127146,0.126828,0.104574,9,0.0039894,10,1.32629e-05,-3.98058,0.282651,0.208738,0.854857,0.126828,
2,1,0,1,0,16229.7,0.128644,0.128306,0.106514,9,0.0041728,10,1.36664e-05,-3.97259,0.532428,0.110813,0.459069,0.128306,
2,1,0,1,0,16231.2,0.130142,0.129804,0.107635,9,0.00435795,10,1.39714e-05,-3.96805,0.902523,0.0653723,0.272882,0.129804,
2,1,0,1,0,16232.7,0.13164,0.131319,0.107459,9,0.00454418,10,1.41114e-05,-3.96876,-1.37462,-0.042921,-0.178979,0.131319,
2,1,0,1,0,16234.2,0.133139,0.132839,0.107187,9,0.00473015,10,1.42387e-05,-3.96986,-0.991304,-0.0595176,-0.248099,0.132839,
2,1,0,1,0,16235.7,0.134637,0.134309,0.106231,9,0.00491463,10,1.42678e-05,-3.97375,-0.27789,-0.212314,-0.877275,0.1343092,
2,1,0,1,0,16237.2,0.136135,0.135799,0.104506,9,0.00509755,10,1.41918e-05,-3.98086,-0.15649,-0.377021,-1.52954,0.135799,
2,1,0,1,0,16238.7,0.137633,0.13731,0.101956,9,0.00527675,10,1.39996e-05,-3.99159,-0.10959,-0.538371,-2.11869,0.13731,
2,1,0,1,0,16240.2,0.139131,0.138798,0.0987891,9,0.00545144,10,1.37117e-05,-4.00529,-0.105253,-0.560556,-2.13548,0.138798,
2,1,0,1,0,16241.7,0.14063,0.14034,0.094555,9,0.00561999,10,1.32698e-05,-4.02432,-0.0711913,-0.828753,-3.03435,0.1403397,
2,1,0,1,0,16243.2,0.142128,0.141797,0.0906632,9,0.00578275,10,1.28557e-05,-4.04257,-0.0668451,-0.882638,-3.09595,0.141797,
2,1,0,1,0,16244.7,0.143626,0.143348,0.0856905,9,0.0059387,10,1.22836e-05,-4.06707,-0.0638193,-0.924486,-3.08486,0.143348,
2,1,0,1,0,16246.2,0.145124,0.144852,0.0813139,9,0.00608729,10,1.17785e-05,-4.08984,-0.0602413,-0.979394,-3.10507,0.144852,
2,1,0,1,0,16247.7,0.146622,0.146307,0.0763019,9,0.0062283,10,1.11635e-05,-4.11746,-0.0622603,-0.947634,-2.83443,0.146307,
2,1,0,1,0,16249.2,0.14812,0.147824,0.0718916,9,0.00636314,10,1.06273e-05,-4.14332,-0.0720766,-0.818574,-2.30986,0.147824,
2,1,0,1,0,16250.7,0.149619,0.149331,0.0685257,9,0.00649204,10,1.0233e-05,-4.16415,-0.0744864,-0.792091,-2.14867,0.1493309,
2,1,0,1,0,16252.2,0.151117,0.150803,0.0658523,9,0.00661581,10,9.93071e-06,-4.18143,-0.0744507,-0.792471,-2.0359,0.150803,
2,1,0,1,0,16253.7,0.152615,0.152293,0.0627693,9,0.00673492,10,9.55931e-06,-4.20225,-0.0886636,-0.665437,-1.64656,0.152293,
2,1,0,1,0,16255.2,0.154113,0.153781,0.0611306,9,0.00685029,10,9.40076e-06,-4.21374,-0.1015,-0.581282,-1.37788,0.153781,
2,1,0,1,0,16256.7,0.155611,0.1553,0.0589959,9,0.00696253,10,9.16206e-06,-4.22918,-0.108346,-0.544551,-1.26012,0.1553,
2,1,0,1,0,16258.2,0.15711,0.156765,0.0570771,9,0.00707173,10,8.94772e-06,-4.24354,-0.123769,-0.476694,-1.06027,0.156765,
2,1,0,1,0,16259.7,0.158608,0.158253,0.0560745,9,0.00717879,10,8.87397e-06,-4.25123,-0.145743,-0.404823,-0.880662,0.158253,
2,1,0,1,0,16261.2,0.160106,0.159783,0.0542196,9,0.00728347,10,8.6634e-06,-4.26584,-0.169015,-0.349081,-0.742997,0.159783,
2,1,0,1,0,16262.7,0.161604,0.161312,0.0530007,9,0.00738637,10,8.54968e-06,-4.27572,-0.193128,-0.305497,-0.641704,0.161312,
2,1,0,1,0,16264.2,0.163102,0.162815,0.0527183,9,0.00748755,10,8.58333e-06,-4.27804,-0.226776,-0.260168,-0.535466,0.162815,
2,1,0,1,0,16265.6,0.164601,0.164334,0.051919,9,0.00758754,10,8.53204e-06,-4.28467,-0.315573,-0.186961,-0.379126,0.164334,
2,1,0,1,0,16267.1,0.166099,0.165802,0.0516257,9,0.00768657,10,8.55965e-06,-4.28713,-0.357014,-0.165259,-0.329799,0.165802,
2,1,0,1,0,16268.6,0.167597,0.167254,0.051139,9,0.00778531,10,8.55319e-06,-4.29125,-0.35969,-0.16403,-0.325457,0.167254,
2,1,0,1,0,16270.1,0.169095,0.16872,0.0504255,9,0.00788341,10,8.50781e-06,-4.29735,-0.294365,-0.200431,-0.395398,0.16872,
2,1,0,1,0,16271.6,0.170593,0.170256,0.0505538,9,0.00798075,10,8.60708e-06,-4.29625,-0.281382,-0.209679,-0.411108,0.170256,
2,1,0,1,0,16273.1,0.172091,0.171773,0.0494353,9,0.00807664,10,8.49166e-06,-4.30596,-0.305202,-0.193315,-0.374636,0.171773,
2,1,0,1,0,16274.6,0.17359,0.173266,0.0491864,9,0.00817206,10,8.52234e-06,-4.30816,-5.54612,-0.0106381,-0.0202944,0.173266,
2,1,0,1,0,16276.1,0.175088,0.174732,0.0492474,9,0.0082669,10,8.60509e-06,-4.30762,-1.41494,-0.041698,-0.0797548,0.174732,
2,1,0,1,0,16277.6,0.176586,0.176261,0.0484077,9,0.00836134,10,8.53238e-06,-4.31509,-0.888473,-0.0664061,-0.12529,0.176261,
2,1,0,1,0,16279.1,0.178084,0.177739,0.0486562,9,0.00845537,10,8.64812e-06,-4.31286,1.82128,0.0323949,0.0613906,0.177739,
2,1,0,1,0,16280.6,0.179582,0.179295,0.0487446,9,0.00854915,10,8.73966e-06,-4.31207,0.67763,0.0870682,0.165635,0.179295,
2,1,0,1,0,16282.1,0.181081,0.180777,0.048279,9,0.00864356,10,8.72775e-06,-4.31624,-2.43136,-0.0242662,-0.0460001,0.180777,
2,1,0,1,0,16283.6,0.182579,0.182249,0.0484582,9,0.00873755,10,8.83146e-06,-4.31463,-0.750257,-0.0786398,-0.149772,0.182249,
2,1,0,1,0,16285.1,0.184077,0.183768,0.0485047,9,0.0088314,10,8.9136e-06,-4.31422,4.62472,0.0127575,0.0241592,0.183768,
2,1,0,1,0,16286.6,0.185575,0.185248,0.0484831,9,0.00892497,10,8.98139e-06,-4.31441,5.80074,0.0101711,0.0193868,0.185248,
2,1,0,1,0,16288.1,0.187073,0.186774,0.0482232,9,0.00901828,10,9.00684e-06,-4.31674,-6.64109,-0.00888408,-0.0168443,0.186774,
2,1,0,1,0,16289.6,0.188572,0.188258,0.0483067,9,0.00911182,10,9.09414e-06,-4.31599,0.982078,0.0600767,0.11322,0.1882585,
2,1,0,1,0,16291.1,0.19007,0.189748,0.0488414,9,0.00920539,10,9.26757e-06,-4.31121,-41.7259,-0.00141399,-0.00267228,0.189748,
2,1,0,1,0,16292.6,0.191568,0.191265,0.0486144,9,0.00929873,10,9.29822e-06,-4.31324,1.61872,0.0364486,0.0692219,0.191265,
2,1,0,1,0,16294.1,0.193066,0.192766,0.0483792,9,0.00939229,10,9.32588e-06,-4.31534,-1.67266,-0.0352731,-0.0668659,0.192766,
2,1,0,1,0,16295.6,0.194564,0.194249,0.0491068,9,0.00948611,10,9.53893e-06,-4.30886,-6.09899,-0.00967374,-0.0184201,0.194249,
2,1,0,1,0,16297.1,0.196063,0.195753,0.0489582,9,0.00958036,10,9.58373e-06,-4.31017,0.85446,0.0690495,0.131202,0.195753,
2,1,0,1,0,16298.6,0.197561,0.197264,0.0488652,9,0.0096742,10,9.63938e-06,-4.311,-1.54662,-0.0381476,-0.0733845,0.197264,
2,1,0,1,0,16300.1,0.199059,0.198734,0.0490287,9,0.00976821,10,9.74368e-06,-4.30955,-1.03545,-0.0569801,-0.108421,0.198734,
2,1,0,1,0,16301.6,0.200557,0.200189,0.0488923,9,0.00986218,10,9.7877e-06,-4.31076,-3.70907,-0.0159069,-0.0302858,0.200189,
2,1,0,1,0,16303.1,0.202055,0.201743,0.0492491,9,0.00995616,10,9.93564e-06,-4.3076,-5.24832,-0.0112417,-0.0213691,0.201743,
2,1,0,1,0,16304.6,0.203554,0.20321,0.0485416,9,0.0100503,10,9.86414e-06,-4.31389,-1.8425,-0.0320217,-0.0611749,0.20321,
2,1,0,1,0,16306.1,0.205052,0.204718,0.0490416,9,0.0101443,10,1.00397e-05,-4.30944,0.757612,0.0778763,0.151126,0.204718,
2,1,0,1,0,16307.6,0.20655,0.206255,0.0492376,9,0.0102384,10,1.01555e-05,-4.3077,0.713394,0.0827032,0.158804,0.206255,
2,1,0,1,0,16309.1,0.208048,0.207717,0.0491608,9,0.0103334,10,1.02115e-05,-4.30838,0.771075,0.0765165,0.147649,0.207717,
2,1,0,1,0,16310.6,0.209546,0.209224,0.0490994,9,0.010428,10,1.02728e-05,-4.30892,0.625524,0.0943209,0.182392,0.209224,
2,1,0,1,0,16312.1,0.211044,0.21076,0.0502647,9,0.0105231,10,1.05938e-05,-4.29874,0.976689,0.0604082,0.11686,0.21076,
2,1,0,1,0,16313.6,0.212543,0.212239,0.0498779,9,0.0106185,10,1.05861e-05,-4.30209,1.08455,0.0544006,0.106399,0.212239,
2,1,0,1,0,16315.1,0.214041,0.213736,0.0499685,9,0.0107139,10,1.068e-05,-4.3013,-1.77061,-0.0333219,-0.0649033,0.213736,
2,1,0,1,0,16316.6,0.215539,0.215228,0.0499911,9,0.0108094,10,1.07595e-05,-4.30111,0.518792,0.113726,0.221467,0.215228,
2,1,0,1,0,16318.1,0.217037,0.216737,0.0495796,9,0.0109043,10,1.07457e-05,-4.3047,-2.68033,-0.0220122,-0.0430238,0.2167367,
2,1,0,1,0,16319.6,0.218535,0.218255,0.0496619,9,0.0109994,10,1.0839e-05,-4.30398,0.67103,0.0879245,0.172153,0.218255,
2,1,0,1,0,16321.1,0.220034,0.219716,0.0498645,9,0.0110947,10,1.0956e-05,-4.30221,0.590193,0.0999673,0.195659,0.219716,
2,1,0,1,0,16322.6,0.221532,0.221253,0.0507846,9,0.0111904,10,1.12362e-05,-4.29427,0.806455,0.0731597,0.144158,0.221253,
2,1,0,1,0,16324.1,0.22303,0.222698,0.0502813,9,0.0112862,10,1.11976e-05,-4.29859,42.224,0.00139731,0.00275401,0.222698,
2,1,0,1,0,16325.6,0.224528,0.224215,0.0507362,9,0.0113824,10,1.13758e-05,-4.29468,0.443974,0.132891,0.263314,0.224215,
2,1,0,1,0,16327.1,0.226026,0.225756,0.051483,9,0.0114792,10,1.16226e-05,-4.28834,0.35161,0.167799,0.336934,0.225756,
2,1,0,1,0,16328.6,0.227525,0.227154,0.0513226,9,0.0115765,10,1.16581e-05,-4.28969,0.464407,0.127044,0.255925,0.227154,
2,1,0,1,0,16330.1,0.229023,0.228703,0.0517819,9,0.0116741,10,1.18427e-05,-4.28582,0.606101,0.0973435,0.196922,0.228703,
2,1,0,1,0,16331.6,0.230521,0.23019,0.0519837,9,0.0117722,10,1.19661e-05,-4.28413,0.396433,0.148827,0.301268,0.23019,
2,1,0,1,0,16333.1,0.232019,0.231717,0.0520493,9,0.0118707,10,1.20607e-05,-4.28358,0.947234,0.0622866,0.127014,0.231717,
2,1,0,1,0,16334.6,0.233517,0.233235,0.0523154,9,0.0119691,10,1.22018e-05,-4.28137,-1.61778,-0.0364698,-0.0743048,0.233235,
2,1,0,1,0,16336.1,0.235016,0.23472,0.0527787,9,0.0120677,10,1.23882e-05,-4.27754,1.46338,0.0403175,0.0825632,0.23472,
2,1,0,1,0,16337.6,0.236514,0.236191,0.0526507,9,0.0121664,10,1.24356e-05,-4.2786,1.32754,0.0444432,0.0909822,0.236191,
2,1,0,1,0,16339.1,0.238012,0.237725,0.0526603,9,0.0122654,10,1.25187e-05,-4.27852,0.550223,0.107229,0.22077,0.237725,
2,1,0,1,0,16340.6,0.23951,0.239214,0.0529764,9,0.0123646,10,1.26727e-05,-4.27592,1.29622,0.0455169,0.0943186,0.239214,
2,1,0,1,0,16342.1,0.241008,0.240734,0.0537025,9,0.0124643,10,1.2928e-05,-4.27001,0.491728,0.119985,0.248342,0.240734,
2,1,0,1,0,16343.6,0.242506,0.242163,0.0530648,9,0.0125641,10,1.28503e-05,-4.27519,0.565187,0.10439,0.218145,0.242163,
2,1,0,1,0,16345.1,0.244005,0.243675,0.0538994,9,0.0126643,10,1.31339e-05,-4.26842,1.62411,0.0363277,0.0760728,0.243675,
2,1,0,1,0,16346.6,0.245503,0.245194,0.0534616,9,0.0127652,10,1.31085e-05,-4.27196,1.4919,0.0395468,0.0829987,0.245194,
2,1,0,1,0,16348,0.247001,0.246705,0.0540594,9,0.0128657,10,1.33367e-05,-4.26713,1.48294,0.0397857,0.0837847,0.246705,
2,1,0,1,0,16349.5,0.248499,0.248206,0.0535395,9,0.0129663,10,1.32888e-05,-4.27133,0.9027,0.0653595,0.137999,0.248206,
2,1,0,1,0,16351,0.249997,0.249712,0.0543921,9,0.0130674,10,1.35824e-05,-4.26446,0.821265,0.0718404,0.152749,0.249712,
2,1,0,1,0,16352.5,0.251496,0.25118,0.0549633,9,0.0131691,10,1.38057e-05,-4.25993,0.619915,0.0951744,0.203044,0.25118,
2,1,0,1,0,16354,0.252994,0.252686,0.0547168,9,0.0132711,10,1.38262e-05,-4.26188,1.95877,0.0301209,0.0646908,0.252686,
2,1,0,1,0,16355.5,0.254492,0.254191,0.0551183,9,0.0133735,10,1.40106e-05,-4.2587,1.03449,0.0570329,0.122888,0.2541914,
2,1,0,1,0,16357,0.25599,0.255702,0.0552751,9,0.0134764,10,1.4134e-05,-4.25747,0.46715,0.126298,0.27415,0.255702,
2,1,0,1,0,16358.5,0.257488,0.257166,0.0555507,9,0.0135794,10,1.42857e-05,-4.25531,0.693709,0.08505,0.184911,0.257166,
2,1,0,1,0,16360,0.258987,0.25871,0.056298,9,0.0136828,10,1.45648e-05,-4.24951,0.743128,0.0793942,0.172626,0.25871,
2,1,0,1,0,16361.5,0.260485,0.260204,0.0562819,9,0.0137864,10,1.46448e-05,-4.24963,3.89406,0.0151513,0.0330356,0.2602039,
2,1,0,1,0,16363,0.261983,0.261668,0.0564099,9,0.0138902,10,1.47607e-05,-4.24864,1.12493,0.0524477,0.114978,0.261668,
2,1,0,1,0,16364.5,0.263481,0.263158,0.0563129,9,0.0139941,10,1.48192e-05,-4.24939,-23.887,-0.00246996,-0.00543691,0.263158,
2,1,0,1,0,16366,0.264979,0.264673,0.0563997,9,0.0140982,10,1.49275e-05,-4.24872,5.27529,0.0111842,0.0245894,0.264673,
2,1,0,1,0,16367.5,0.266477,0.266157,0.0568915,9,0.0142026,10,1.51421e-05,-4.24495,0.376133,0.156859,0.347606,0.266157,
2,1,0,1,0,16369,0.267976,0.267668,0.0572242,9,0.0143073,10,1.53171e-05,-4.24242,0.884876,0.066676,0.148092,0.267668,
2,1,0,1,0,16370.5,0.269474,0.269151,0.0572767,9,0.0144125,10,1.54161e-05,-4.24202,0.961979,0.0613319,0.137314,0.2691505,
2,1,0,1,0,16372,0.270972,0.27067,0.0581269,9,0.0145182,10,1.57332e-05,-4.23562,1.13184,0.0521273,0.116452,0.27067,
2,1,0,1,0,16373.5,0.27247,0.272127,0.057565,9,0.0146241,10,1.5665e-05,-4.23984,2.42006,0.0243796,0.0550221,0.272127,
2,1,0,1,0,16375,0.273968,0.273654,0.0579722,9,0.01473,10,1.58643e-05,-4.23678,19.0098,0.00310367,0.00700143,0.273654,
2,1,0,1,0,16376.5,0.275467,0.275189,0.0579479,9,0.0148363,10,1.59466e-05,-4.23696,1.61764,0.036473,0.082302,0.275189,
2,1,0,1,0,16378,0.276965,0.276613,0.0578148,9,0.0149426,10,1.59923e-05,-4.23796,2.85335,0.0206775,0.0469551,0.276613,
2,1,0,1,0,16379.5,0.278463,0.278188,0.0586837,9,0.0150491,10,1.63251e-05,-4.23148,-16.0875,-0.00366745,-0.00832232,0.278188,
2,1,0,1,0,16381,0.279961,0.279668,0.0584303,9,0.0151559,10,1.63411e-05,-4.23336,1.1973,0.0492775,0.112081,0.279668,
2,1,0,1,0,16382.5,0.281459,0.28112,0.0587311,9,0.0152626,10,1.65105e-05,-4.23113,2.46101,0.0239739,0.0546992,0.2811203,
2,1,0,1,0,16384,0.282958,0.282662,0.058595,9,0.0153696,10,1.65626e-05,-4.23214,-8.26529,-0.00713828,-0.0163185,0.282662,
2,1,0,1,0,16385.5,0.284456,0.284136,0.0585052,9,0.0154766,10,1.66235e-05,-4.23281,0.822003,0.0717759,0.164686,0.284136,
2,1,0,1,0,16387,0.285954,0.285662,0.059136,9,0.015584,10,1.68929e-05,-4.22815,1.97323,0.0299002,0.0689875,0.285662,
2,1,0,1,0,16388.5,0.287452,0.287155,0.0590704,9,0.0156918,10,1.69624e-05,-4.22863,0.60058,0.0982384,0.227024,0.287155,
2,1,0,1,0,16390,0.28895,0.288605,0.0592161,9,0.0157997,10,1.70901e-05,-4.22756,0.601678,0.0980591,0.22724,0.288605,
2,1,0,1,0,16391.5,0.290448,0.290173,0.05949,9,0.0159075,10,1.72624e-05,-4.22556,-3.44684,-0.0171171,-0.0396919,0.290173,
2,1,0,1,0,16393,0.291947,0.291633,0.0592808,9,0.0160155,10,1.72883e-05,-4.22709,-3.58551,-0.0164551,-0.0382721,0.291633,
2,1,0,1,0,16394.5,0.293445,0.293119,0.0597256,9,0.0161235,10,1.75067e-05,-4.22384,1.13007,0.0522094,0.121865,0.293119,
2,1,0,1,0,16396,0.294943,0.294662,0.0594632,9,0.0162318,10,1.75215e-05,-4.22575,0.720061,0.0819375,0.191815,0.294662,
2,1,0,1,0,16397.5,0.296441,0.296172,0.0602779,9,0.0163405,10,1.78526e-05,-4.21984,1.00065,0.0589614,0.138126,0.296172,
2,1,0,1,0,16399,0.297939,0.297641,0.0604374,9,0.0164496,10,1.79887e-05,-4.21869,1.86819,0.0315814,0.0741116,0.297641,
2,1,0,1,0,16400.5,0.299438,0.29916,0.0600146,9,0.0165587,10,1.7954e-05,-4.22174,-0.00501703,-11.7599,-19.1678,0.29916,
2,1,0,1,0,16401.3,0.299737,0.299448,0.0334724,9,0.0166067,10,1.00232e-05,-4.47531,0.00259409,22.744,32.8174,0.2994484,
2,1,0,1,0,16402.8,0.298239,0.297941,0.0225403,9,0.0166277,10,6.71566e-06,-4.64704,0.00686433,8.59515,11.3262,0.297941,
2,1,0,1,0,16404.3,0.296741,0.296452,0.017868,9,0.0166387,10,5.29699e-06,-4.74792,0.0171887,3.43248,2.5207,0.296452,
2,1,0,1,0,16405.8,0.295243,0.294898,0.0150447,9,0.0166445,10,4.43666e-06,-4.82262,0.0207347,2.84547,1.71649,0.294898,
2,1,0,1,0,16407.3,0.293745,0.293443,0.0123644,9,0.0166465,10,3.62825e-06,-4.90783,0.0184896,3.19099,1.60789,0.293443,
2,1,0,1,0,16408.8,0.292246,0.291914,0.0106003,9,0.0166454,10,3.09439e-06,-4.97468,0.0198238,2.97622,1.21889,0.291914,
2,1,0,1,0,16410.3,0.290748,0.290483,0.00861305,9,0.0166409,10,2.50194e-06,-5.06484,0.0163459,3.60946,1.25147,0.290483,
2,1,0,1,0,16411.8,0.28925,0.288961,0.00661724,9,0.0166337,10,1.91212e-06,-5.17932,0.0186397,3.16529,0.848336,0.288961,
2,0,0,1,0,16413.3,0.287752,0.287457,0.00546939,9,0.0166243,10,1.57222e-06,-5.26206,0.0142523,4.13969,0.89343,0.287457,
2,1,0,1,0,16414.8,0.286254,0.285931,0.00454367,9,0.0166131,10,1.29918e-06,-5.34259,0.00962931,6.12713,0.932563,0.285931,
2,1,0,1,0,16416.3,0.284755,0.284466,0.0026834,9,0.0165997,10,7.63335e-07,-5.57132,0.00703496,8.38669,0.894162,0.284466,
2,1,0,1,0,16417.8,0.283257,0.282948,0.00171669,9,0.0165843,10,4.85735e-07,-5.76531,0.00422276,13.9719,0.825677,0.282948,
2,1,0,1,0,16419.3,0.281759,0.281443,0.000132811,9,0.0165672,10,3.73786e-08,-6.87677,0.00402686,14.6516,0.605137,0.281443,
2,1,0,1,0,16420.8,0.280261,0.27996,-0.00011873,9,0.0165488,10,-3.32398e-08,-6.92544,-0.23833,-0.247556,0.719746,0.27996,
2,1,0,1,0,16422.3,0.278763,0.278456,-0.00119531,9,0.0165292,10,-3.3284e-07,-5.92252,-0.00247651,-23.8238,0.699507,0.278456,
2,1,0,1,0,16423.8,0.277264,0.276976,-0.00220763,9,0.016508,10,-6.11461e-07,-5.65607,-0.00438537,-13.4538,0.771143,0.276976,
2,1,0,1,0,16425.3,0.275766,0.275465,-0.00303803,9,0.0164849,10,-8.36872e-07,-5.51741,-0.00898561,-6.56606,0.710182,0.275465,
2,0,0,1,0,16426.8,0.274268,0.273926,-0.00374059,9,0.0164603,10,-1.02464e-06,-5.42706,-0.0167759,-3.51694,0.550027,0.273926,
2,1,0,1,0,16428.3,0.27277,0.272453,-0.00494512,9,0.0164344,10,-1.34731e-06,-5.30582,-0.0196434,-3.00355,0.605077,0.272453,
2,1,0,1,0,16429.8,0.271272,0.270958,-0.00566274,9,0.0164072,10,-1.53437e-06,-5.24697,-0.0289907,-2.03513,0.453871,0.270958,
2,0,0,1,0,16431.3,0.269774,0.269474,-0.00646678,9,0.0163788,10,-1.74263e-06,-5.18931,-0.0253492,-2.32749,0.583003,0.269474,
2,1,0,1,0,16432.8,0.268275,0.267941,-0.00700335,9,0.0163493,10,-1.87648e-06,-5.15469,-0.0340246,-1.73404,0.486683,0.267941,
2,0,0,1,0,16434.3,0.266777,0.266476,-0.00838803,9,0.0163187,10,-2.23521e-06,-5.07634,-0.0334332,-1.76471,0.550953,0.266476,
2,0,0,1,0,16435.8,0.265279,0.264983,-0.00866188,9,0.0162868,10,-2.29525e-06,-5.06239,-0.0415257,-1.42081,0.499514,0.264983,
2,0,0,1,0,16437.3,0.263781,0.263479,-0.00987134,9,0.0162535,10,-2.6009e-06,-5.00562,-0.053683,-1.09904,0.407653,0.263479,
2,0,0,1,0,16438.8,0.262283,0.261992,-0.0109846,9,0.0162192,10,-2.87786e-06,-4.95922,-0.0480135,-1.22882,0.499332,0.261992,
2,0,0,1,0,16440.3,0.260784,0.260498,-0.0110837,9,0.0161841,10,-2.88728e-06,-4.95531,-0.0700392,-0.842386,0.359999,0.260498,
2,1,0,1,0,16441.8,0.259286,0.258969,-0.0119956,9,0.0161477,10,-3.10648e-06,-4.92098,-0.0450523,-1.30959,0.601583,0.2589694,
2,0,0,1,0,16443.3,0.257788,0.257499,-0.0129351,9,0.0161102,10,-3.33076e-06,-4.88823,-0.0793669,-0.743383,0.360437,0.257499,
2,0,0,1,0,16444.8,0.25629,0.255962,-0.0138239,9,0.0160714,10,-3.5384e-06,-4.85937,-0.0675704,-0.873164,0.453018,0.255962,
2,0,0,1,0,16446.3,0.254792,0.254509,-0.0138092,9,0.0160318,10,-3.51457e-06,-4.85983,-0.0805336,-0.732613,0.403408,0.254509,
2,0,0,1,0,16447.8,0.253293,0.253006,-0.0143326,9,0.0159913,10,-3.62624e-06,-4.84367,-0.067515,-0.87388,0.504738,0.2530058,
2,0,0,1,0,16449.3,0.251795,0.251508,-0.0154201,9,0.0159497,10,-3.87829e-06,-4.81191,-0.068254,-0.864418,0.519568,0.251508,
2,0,0,1,0,16450.8,0.250297,0.249973,-0.0160459,9,0.0159068,10,-4.01105e-06,-4.79463,-0.0802239,-0.735442,0.447312,0.249973,
2,0,0,1,0,16452.3,0.248799,0.2485,-0.0166982,9,0.015863,10,-4.14951e-06,-4.77733,-0.0906891,-0.650574,0.425489,0.2485,
2,0,0,1,0,16453.8,0.247301,0.24695,-0.0172713,9,0.0158185,10,-4.26514e-06,-4.76268,-0.120795,-0.488432,0.330944,0.24695,
2,0,0,1,0,16455.3,0.245802,0.245498,-0.0181501,9,0.015773,10,-4.45582e-06,-4.74112,-0.0910042,-0.648322,0.451441,0.245498,
2,0,0,1,0,16456.8,0.244304,0.244015,-0.0184062,9,0.0157264,10,-4.49137e-06,-4.73504,-0.0829239,-0.711496,0.511765,0.244015,
2,0,0,1,0,16458.3,0.242806,0.242502,-0.0193796,9,0.0156789,10,-4.69958e-06,-4.71266,-0.0775165,-0.761129,0.559379,0.2425015,
2,0,0,1,0,16459.8,0.241308,0.240966,-0.0202397,9,0.0156302,10,-4.87709e-06,-4.6938,-0.0914936,-0.644854,0.491159,0.240966,
2,0,0,1,0,16461.3,0.23981,0.239497,-0.0206162,9,0.0155804,10,-4.93753e-06,-4.68579,-0.0826892,-0.713515,0.564447,0.239497,
2,0,0,1,0,16462.8,0.238312,0.237989,-0.0212083,9,0.0155298,10,-5.04736e-06,-4.67349,-0.130507,-0.452083,0.370377,0.237989,
2,0,0,1,0,16464.3,0.236813,0.236495,-0.0220433,9,0.0154782,10,-5.21313e-06,-4.65672,-0.174181,-0.338728,0.288957,0.236495,
2,0,0,1,0,16465.8,0.235315,0.235031,-0.0222547,9,0.0154257,10,-5.23054e-06,-4.65258,-0.17747,-0.332451,0.288978,0.2350309,
2,0,0,1,0,16467.3,0.233817,0.233507,-0.0227825,9,0.0153726,10,-5.31987e-06,-4.6424,-0.125308,-0.47084,0.418103,0.233507,
2,0,0,1,0,16468.8,0.232319,0.232006,-0.0233512,9,0.0153184,10,-5.41761e-06,-4.63169,-0.294898,-0.200069,0.179978,0.232006,
2,0,0,1,0,16470.3,0.230821,0.23052,-0.0235363,9,0.0152637,10,-5.42558e-06,-4.62826,-0.125099,-0.471625,0.44047,0.23052,
2,0,0,1,0,16471.8,0.229322,0.229025,-0.0240739,9,0.0152081,10,-5.51351e-06,-4.61845,-0.209643,-0.281431,0.266505,0.229025,
2,0,0,1,0,16473.2,0.227824,0.227526,-0.0249513,9,0.0151514,10,-5.67708e-06,-4.60291,-0.20439,-0.288664,0.282103,0.227526,
2,0,0,1,0,16474.7,0.226326,0.226055,-0.0256472,9,0.0150941,10,-5.7977e-06,-4.59096,-0.168059,-0.351068,0.350806,0.226055,
2,0,0,1,0,16476.2,0.224828,0.224506,-0.0259825,9,0.0150357,10,-5.83323e-06,-4.58532,-0.16071,-0.36712,0.373615,0.224506,
2,0,0,1,0,16477.7,0.22333,0.223013,-0.0266623,9,0.0149764,10,-5.94604e-06,-4.5741,-0.154539,-0.381781,0.397108,0.223013,
2,0,0,1,0,16479.2,0.221831,0.221533,-0.0276451,9,0.0149166,10,-6.12429e-06,-4.55838,-0.243516,-0.242284,0.256192,0.221533,
2,0,0,1,0,16480.7,0.220333,0.220017,-0.0277683,9,0.0148554,10,-6.10949e-06,-4.55645,-0.190942,-0.308994,0.32719,0.220017,
2,0,0,1,0,16482.2,0.218835,0.218495,-0.028121,9,0.0147937,10,-6.1443e-06,-4.55097,-0.412644,-0.14298,0.157583,0.218495,
2,0,0,1,0,16483.7,0.217337,0.217042,-0.0283686,9,0.0147316,10,-6.15717e-06,-4.54716,-0.174414,-0.338276,0.372791,0.2170421,
2,0,0,1,0,16485.2,0.215839,0.215518,-0.0294686,9,0.0146684,10,-6.35102e-06,-4.53064,-0.147237,-0.400715,0.453028,0.215518,
2,0,0,1,0,16486.7,0.21434,0.214063,-0.0295767,9,0.0146041,10,-6.3313e-06,-4.52905,-0.157007,-0.37578,0.434559,0.214063,
2,0,0,1,0,16488.2,0.212842,0.212536,-0.0302936,9,0.0145392,10,-6.4385e-06,-4.51865,-0.186092,-0.317047,0.378336,0.212536,
2,0,0,1,0,16489.7,0.211344,0.211025,-0.03085,9,0.0144733,10,-6.51013e-06,-4.51074,-0.126119,-0.467811,0.560482,0.2110254,
2,0,0,1,0,16491.2,0.209846,0.209564,-0.0315304,9,0.0144064,10,-6.60764e-06,-4.50127,-0.179933,-0.3279,0.406832,0.209564,
2,0,0,1,0,16492.7,0.208348,0.207994,-0.0317445,9,0.0143385,10,-6.60267e-06,-4.49833,-0.143977,-0.409787,0.514772,0.207994,
2,0,0,1,0,16494.2,0.20685,0.206537,-0.033255,9,0.0142694,10,-6.86837e-06,-4.47814,-0.253491,-0.23275,0.297384,0.206537,
2,0,0,1,0,16495.7,0.205351,0.205033,-0.0333272,9,0.0141993,10,-6.83318e-06,-4.4772,-0.19013,-0.310313,0.398772,0.205033,
2,0,0,1,0,16497.2,0.203853,0.203525,-0.0335628,9,0.0141289,10,-6.83087e-06,-4.47414,-0.233839,-0.25231,0.333902,0.2035251,
2,0,0,1,0,16498.7,0.202355,0.202068,-0.0341385,9,0.0140577,10,-6.89829e-06,-4.46676,-0.254646,-0.231694,0.309123,0.202068,
2,0,0,1,0,16500.2,0.200857,0.200532,-0.0347531,9,0.0139853,10,-6.96909e-06,-4.45901,-0.246492,-0.239358,0.329322,0.200532,
2,0,0,1,0,16501.7,0.199359,0.199058,-0.0353381,9,0.0139119,10,-7.03431e-06,-4.45176,-0.284957,-0.207049,0.285056,0.199058,
2,0,0,1,0,16503.2,0.19786,0.197544,-0.0364175,9,0.0138374,10,-7.19408e-06,-4.43869,-0.188741,-0.312598,0.442543,0.197544,
2,0,0,1,0,16504.7,0.196362,0.196046,-0.0367606,9,0.0137621,10,-7.20677e-06,-4.43462,-0.234485,-0.251615,0.36316,0.196046,
2,0,0,1,0,16506.2,0.194864,0.194536,-0.0379025,9,0.0136856,10,-7.3734e-06,-4.42133,-0.221545,-0.266312,0.394381,0.194536,
2,0,0,1,0,16507.7,0.193366,0.193022,-0.038499,9,0.0136079,10,-7.43114e-06,-4.41455,-0.190078,-0.310398,0.463193,0.193022,
2,0,0,1,0,16509.2,0.191868,0.191521,-0.0392989,9,0.0135289,10,-7.52657e-06,-4.40562,-0.189891,-0.310705,0.474438,0.191521,
2,0,0,1,0,16510.7,0.190369,0.190045,-0.0398521,9,0.013449,10,-7.57369e-06,-4.39955,-0.215742,-0.273475,0.42533,0.190045,
2,0,0,1,0,16512.2,0.188871,0.188576,-0.0405578,9,0.013368,10,-7.64825e-06,-4.39193,-0.235753,-0.250262,0.397569,0.188576,
2,0,0,1,0,16513.7,0.187373,0.187041,-0.0409668,9,0.0132859,10,-7.66247e-06,-4.38757,-0.174406,-0.338291,0.544135,0.1870411,
2,0,0,1,0,16515.2,0.185875,0.185575,-0.0417625,9,0.013203,10,-7.75006e-06,-4.37921,-0.211217,-0.279334,0.454362,0.185575,
2,0,0,1,0,16516.7,0.184377,0.184105,-0.0421636,9,0.0131191,10,-7.76252e-06,-4.37506,-0.163894,-0.359989,0.595697,0.1841048,
2,0,0,1,0,16518.2,0.182878,0.182535,-0.0431208,9,0.0130341,10,-7.87108e-06,-4.36531,-0.188952,-0.312248,0.527174,0.182535,
2,0,0,1,0,16519.7,0.18138,0.181074,-0.0444129,9,0.0129477,10,-8.04203e-06,-4.35249,-0.238942,-0.246921,0.428199,0.181074,
2,0,0,1,0,16521.2,0.179882,0.179567,-0.0450807,9,0.0128601,10,-8.09503e-06,-4.34601,-0.278404,-0.211922,0.37136,0.179567,
2,0,0,1,0,16522.7,0.178384,0.178091,-0.0457484,9,0.0127712,10,-8.14739e-06,-4.33962,-0.176482,-0.334312,0.600174,0.178091,
2,0,0,1,0,16524.2,0.176886,0.176577,-0.0467407,9,0.0126809,10,-8.25334e-06,-4.3303,-0.21464,-0.274878,0.501757,0.176577,
2,0,0,1,0,16525.7,0.175388,0.175064,-0.0476022,9,0.0125885,10,-8.33342e-06,-4.32237,-0.149727,-0.39405,0.738839,0.175064,
2,0,0,1,0,16527.2,0.173889,0.173577,-0.0488198,9,0.0124951,10,-8.474e-06,-4.3114,-0.176013,-0.335202,0.638831,0.173577,
2,0,0,1,0,16528.7,0.172391,0.172094,-0.0498918,9,0.0124,10,-8.58606e-06,-4.30197,-0.145159,-0.406452,0.786534,0.172094,
2,0,0,1,0,16530.2,0.170893,0.170625,-0.0507724,9,0.0123036,10,-8.66304e-06,-4.29437,-0.170811,-0.345411,0.689372,0.170625,
2,0,0,1,0,16531.7,0.169395,0.169096,-0.0525125,9,0.0122051,10,-8.87965e-06,-4.27974,-0.123999,-0.475809,0.972323,0.169096,
2,0,0,1,0,16533.2,0.167897,0.167594,-0.0535164,9,0.0121043,10,-8.96904e-06,-4.27151,-0.143303,-0.411716,0.861526,0.167594,
2,0,0,1,0,16534.7,0.166398,0.166079,-0.0551854,9,0.0120015,10,-9.16513e-06,-4.25818,-0.14296,-0.412704,0.885637,0.166079,
2,0,0,1,0,16536.2,0.1649,0.164558,-0.055716,9,0.011897,10,-9.16853e-06,-4.25402,-0.129884,-0.454253,0.998445,0.164558,
2,0,0,1,0,16537.7,0.163402,0.163092,-0.0574386,9,0.0117901,10,-9.36776e-06,-4.2408,-0.104825,-0.562841,1.27272,0.163092,
2,0,0,1,0,16539.2,0.161904,0.161615,-0.0595279,9,0.0116804,10,-9.62058e-06,-4.22528,-0.110714,-0.532902,1.23575,0.161615,
2,0,0,1,0,16540.7,0.160406,0.160115,-0.0614499,9,0.0115679,10,-9.83905e-06,-4.21148,-0.128086,-0.460629,1.09921,0.160115,
2,0,0,1,0,16542.2,0.158907,0.158615,-0.0625282,9,0.0114529,10,-9.91788e-06,-4.20392,-0.113458,-0.520014,1.28125,0.158615,
2,0,0,1,0,16543.7,0.157409,0.157092,-0.0652821,9,0.0113349,10,-1.02553e-05,-4.18521,-0.0919059,-0.641961,1.63718,0.157092,
2,0,0,1,0,16545.2,0.155911,0.155588,-0.0677116,9,0.011213,10,-1.05351e-05,-4.16934,-0.0935274,-0.630831,1.66484,0.1555884,
2,0,0,1,0,16546.7,0.154413,0.154099,-0.0695648,9,0.0110873,10,-1.07198e-05,-4.15761,-0.0953779,-0.618592,1.68825,0.154099,
2,0,0,1,0,16548.2,0.152915,0.152634,-0.0728181,9,0.0109577,10,-1.11145e-05,-4.13776,-0.0972342,-0.606782,1.72723,0.152634,
2,0,0,1,0,16549.7,0.151417,0.151082,-0.0752295,9,0.0108243,10,-1.13658e-05,-4.12361,-0.0868338,-0.679459,2.01132,0.151082,
2,0,0,1,0,16551.2,0.149918,0.149641,-0.0789093,9,0.010686,10,-1.1808e-05,-4.10287,-0.0818306,-0.721002,2.22281,0.149641,
2,0,0,1,0,16552.7,0.14842,0.148104,-0.0826112,9,0.0105421,10,-1.2235e-05,-4.08296,-0.0680909,-0.866488,2.7925,0.148104,
2,0,0,1,0,16554.2,0.146922,0.146627,-0.0867534,9,0.0103923,10,-1.27204e-05,-4.06171,-0.0736022,-0.801607,2.7161,0.146627,
2,0,0,1,0,16555.6,0.145424,0.145117,-0.0908925,9,0.0102363,10,-1.319e-05,-4.04147,-0.0659345,-0.894828,3.18386,0.145117,
2,0,0,1,0,16557.1,0.143926,0.143634,-0.0953834,9,0.0100729,10,-1.37003e-05,-4.02053,-0.0663886,-0.888707,3.30757,0.143634,
2,0,0,1,0,16558.6,0.142427,0.142144,-0.100523,9,0.0099021,10,-1.42887e-05,-3.99773,-0.0686981,-0.85883,3.38801,0.1421435,
2,0,0,1,0,16560.1,0.140929,0.14061,-0.105687,9,0.00972379,10,-1.48607e-05,-3.97598,-0.0688651,-0.856748,3.55266,0.14061,
2,0,0,1,0,16561.6,0.139431,0.139163,-0.110928,9,0.0095376,10,-1.5437e-05,-3.95496,-0.0702789,-0.839513,3.64909,0.139163,
2,0,0,1,0,16563.1,0.137933,0.137624,-0.117546,9,0.0093427,10,-1.61772e-05,-3.92979,-0.0693394,-0.850887,3.8821,0.137624,
2,0,0,1,0,16564.6,0.136435,0.136097,-0.123323,9,0.0091389,10,-1.67839e-05,-3.90895,-0.0774345,-0.761934,3.62841,0.136097,
2,0,0,1,0,16566.1,0.134936,0.134639,-0.128687,9,0.00892646,10,-1.73262e-05,-3.89047,-0.0894794,-0.659369,3.28295,0.134639,
2,0,0,1,0,16567.6,0.133438,0.133124,-0.132718,9,0.00870689,10,-1.76679e-05,-3.87707,-0.105637,-0.558519,2.89064,0.133124,
2,0,0,1,0,16569.1,0.13194,0.131633,-0.137264,9,0.00848063,10,-1.80684e-05,-3.86244,-0.112443,-0.524712,2.80696,0.131633,
2,0,0,1,0,16570.6,0.130442,0.130107,-0.141156,9,0.00824797,10,-1.83654e-05,-3.8503,-0.14514,-0.406505,2.22938,0.130107,
2,0,0,1,0,16572.1,0.128944,0.128665,-0.144165,9,0.00800963,10,-1.85489e-05,-3.84114,-0.189223,-0.311801,1.7435,0.128665,
2,0,0,1,0,16573.6,0.127445,0.12714,-0.147126,9,0.00776773,10,-1.87056e-05,-3.83231,-0.226059,-0.260994,1.49216,0.12714,
2,0,0,1,0,16575.1,0.125947,0.125598,-0.148073,9,0.00752311,10,-1.85976e-05,-3.82953,-0.324747,-0.18168,1.04734,0.125598,
2,0,0,1,0,16576.6,0.124449,0.124117,-0.150632,9,0.00727536,10,-1.86959e-05,-3.82208,-0.473924,-0.124492,0.724425,0.124117,
2,0,0,1,0,16578.1,0.122951,0.122643,-0.150637,9,0.0070259,10,-1.84745e-05,-3.82207,-0.702916,-0.0839361,0.491892,0.122643,
2,0,0,1,0,16579.6,0.121453,0.12115,-0.150815,9,0.00677571,10,-1.82712e-05,-3.82155,-5.76269,-0.0102383,0.0602437,0.12115,
2,0,0,1,0,16581.1,0.119955,0.119626,-0.150775,9,0.00652591,10,-1.80365e-05,-3.82167,5.79832,0.0101754,-0.0598982,0.119626,
2,0,0,1,0,16582.6,0.118456,0.118124,-0.150676,9,0.00627585,10,-1.77984e-05,-3.82196,-4.10418,-0.0143756,0.0840724,0.118124,
2,0,0,1,0,16584.1,0.116958,0.116637,-0.149962,9,0.00602591,10,-1.74911e-05,-3.82402,1.24573,0.047362,-0.277865,0.116637,
2,0,0,1,0,16585.6,0.11546,0.115114,-0.149241,9,0.00577714,10,-1.71797e-05,-3.82611,0.611286,0.0965178,-0.565078,0.115114,
2,0,0,1,0,16587.1,0.113962,0.113661,-0.147962,9,0.00553014,10,-1.68175e-05,-3.82985,1.01986,0.0578509,-0.33491,0.113661,
2,0,0,1,0,16588.6,0.112464,0.112111,-0.148369,9,0.00528373,10,-1.66337e-05,-3.82866,1.42537,0.0413927,-0.239253,0.112111,
2,0,0,1,0,16590.1,0.110965,0.110606,-0.147797,9,0.00503812,10,-1.63473e-05,-3.83033,0.80205,0.0735615,-0.423202,0.110606,
2,0,0,1,0,16591.6,0.109467,0.109184,-0.147075,9,0.00479322,10,-1.60583e-05,-3.83246,0.912976,0.0646238,-0.369636,0.109184,
2,0,0,1,0,16593.1,0.107969,0.107645,-0.145346,9,0.00454958,10,-1.56458e-05,-3.8376,0.733897,0.0803927,-0.459241,0.107645,
2,0,0,1,0,16594.6,0.106471,0.106154,-0.145331,9,0.00430729,10,-1.54275e-05,-3.83764,0.885844,0.0666031,-0.379936,0.106154,
2,0,0,1,0,16596.1,0.104973,0.104676,-0.144248,9,0.00406576,10,-1.50993e-05,-3.84089,0.440826,0.13384,-0.755662,0.1046761,
2,0,0,1,0,16597.6,0.103474,0.103152,-0.14345,9,0.00382535,10,-1.47972e-05,-3.8433,0.356029,0.165717,-0.926155,0.103152,
2,0,0,1,0,16599.1,0.101976,0.101659,-0.142359,9,0.00358721,10,-1.44721e-05,-3.84661,0.355973,0.165743,-0.920597,0.101659,
2,0,0,1,0,16600.6,0.100478,0.100165,-0.141355,9,0.0033515,10,-1.41588e-05,-3.84969,0.4496,0.131228,-0.721707,0.100165,
2,0,0,1,0,16602.1,0.0989798,0.0986254,-0.140119,9,0.0031173,10,-1.38193e-05,-3.8535,0.423592,0.139285,-0.759829,0.0986254,
2,0,0,1,0,16603.6,0.0974816,0.0971906,-0.139265,9,0.00288441,10,-1.35353e-05,-3.85616,0.492028,0.119912,-0.649809,0.0971906,
2,0,0,1,0,16605.1,0.0959834,0.09567,-0.137665,9,0.00265354,10,-1.31704e-05,-3.86118,0.37131,0.158897,-0.853612,0.09567,
2,0,0,1,0,16606.6,0.0944852,0.0941791,-0.135924,9,0.00242499,10,-1.28012e-05,-3.8667,0.356546,0.165477,-0.87965,0.0941791,
2,0,0,1,0,16608.1,0.0929871,0.0926946,-0.135122,9,0.002198,10,-1.25251e-05,-3.86927,0.495976,0.118957,-0.626174,0.0926946,
2,0,0,1,0,16609.6,0.0914889,0.0911485,-0.133633,9,0.00197259,10,-1.21804e-05,-3.87409,0.459805,0.128315,-0.671978,0.0911485,
2,0,0,1,0,16611.1,0.0899907,0.0896883,-0.133227,9,0.00174937,10,-1.1949e-05,-3.87541,0.310635,0.189933,-0.982827,0.0896883,
2,0,0,1,0,16612.6,0.0884925,0.0881719,-0.130431,9,0.00152818,10,-1.15003e-05,-3.88462,0.392923,0.150157,-0.768041,0.0881719,
2,0,0,1,0,16614.1,0.0869943,0.0866789,-0.13078,9,0.00130882,10,-1.13359e-05,-3.88346,0.60234,0.0979514,-0.499091,0.0866789,
2,0,0,1,0,16615.6,0.0854961,0.0851752,-0.129837,9,0.00109027,10,-1.10589e-05,-3.8866,0.466136,0.126572,-0.639276,0.0851752,
2,0,0,1,0,16617.1,0.083998,0.0837077,-0.128152,9,0.000873247,10,-1.07273e-05,-3.89227,0.286087,0.206231,-1.03235,0.08370775,
2,0,0,1,0,16618.6,0.0824998,0.0821267,-0.12749,9,0.000657833,10,-1.04703e-05,-3.89453,0.491143,0.120128,-0.597409,0.0821267,
2,0,0,1,0,16620.1,0.0810016,0.080676,-0.126244,9,0.000444674,10,-1.01849e-05,-3.89879,0.673573,0.0875925,-0.433534,0.080676,
2,0,0,1,0,16621.6,0.0795034,0.0791734,-0.125752,9,0.000232476,10,-9.95623e-06,-3.90048,0.375653,0.15706,-0.772079,0.0791734,
2,0,0,1,0,16623.1,0.0780052,0.0776888,-0.124735,9,2.13169e-05,10,-9.69047e-06,-3.90401,0.381722,0.154563,-0.749898,0.0776888,
2,0,0,1,0,16624.6,0.076507,0.0761215,-0.123554,9,-0.000187882,10,-9.40512e-06,-3.90814,0.40825,0.144519,-0.696645,0.0761215,
2,0,0,1,0,16626.1,0.0750088,0.0747185,-0.123209,9,-0.000395299,10,-9.20597e-06,-3.90936,0.56924,0.103647,-0.498141,0.0747185,
2,0,0,1,0,16627.6,0.0735106,0.0732085,-0.122125,9,-0.000601959,10,-8.94062e-06,-3.91319,0.78671,0.0749959,-0.357992,0.0732085,
2,0,0,1,0,16629.1,0.0720124,0.07169,-0.122094,9,-0.000807801,10,-8.75292e-06,-3.91331,1.34366,0.0439101,-0.20817,0.07169003,
2,0,0,1,0,16630.6,0.0705142,0.0701821,-0.121159,9,-0.00101285,10,-8.50323e-06,-3.91664,0.625715,0.0942921,-0.445683,0.0701821,
2,0,0,1,0,16632.1,0.069016,0.0687113,-0.119992,9,-0.00121629,10,-8.24478e-06,-3.92085,0.486307,0.121323,-0.569306,0.0687113,
2,0,0,1,0,16633.6,0.0675178,0.067231,-0.119092,9,-0.00141881,10,-8.00665e-06,-3.92412,0.874307,0.067482,-0.313491,0.067231,
2,0,0,1,0,16635.1,0.0660196,0.065704,-0.119518,9,-0.0016204,10,-7.85279e-06,-3.92257,0.653801,0.0902415,-0.417159,0.065704,
2,0,0,1,0,16636.6,0.0645214,0.0641781,-0.118388,9,-0.00182137,10,-7.59794e-06,-3.92669,0.655584,0.0899961,-0.413223,0.0641781,
2,0,0,1,0,16638.1,0.0630233,0.0627339,-0.116907,9,-0.00202093,10,-7.33404e-06,-3.93216,0.477314,0.123608,-0.566863,0.0627339,
2,0,0,1,0,16639.5,0.0615251,0.0611889,-0.11682,9,-0.00221903,10,-7.14809e-06,-3.93248,0.877602,0.0672287,-0.30708,0.0611889,
2,0,0,1,0,16641,0.0600269,0.0597785,-0.115545,9,-0.00241648,10,-6.90709e-06,-3.93725,0.759103,0.0777233,-0.353039,0.0597785,
2,0,0,1,0,16642.5,0.0585287,0.0582261,-0.115227,9,-0.002613,10,-6.70922e-06,-3.93845,0.405577,0.145472,-0.65712,0.0582261,
2,0,0,1,0,16644,0.0570305,0.0567256,-0.11549,9,-0.00280904,10,-6.55123e-06,-3.93746,0.714721,0.0825497,-0.372584,0.0567256,
2,0,0,1,0,16645.5,0.0555323,0.055189,-0.114636,9,-0.00300379,10,-6.32666e-06,-3.94068,0.565981,0.104244,-0.467833,0.055189,
2,0,0,1,0,16647,0.0540342,0.0537098,-0.114613,9,-0.0031983,10,-6.15582e-06,-3.94077,0.667403,0.0884023,-0.393637,0.0537098,
2,0,0,1,0,16648.5,0.052536,0.0522274,-0.113661,9,-0.00339191,10,-5.93623e-06,-3.94439,0.515595,0.114431,-0.506059,0.0522274,
2,0,0,1,0,16650,0.0510378,0.0507588,-0.112576,9,-0.00358448,10,-5.71421e-06,-3.94856,0.647938,0.0910581,-0.400626,0.0507588,
2,0,0,1,0,16651.5,0.0495396,0.0492477,-0.111585,9,-0.00377519,10,-5.49531e-06,-3.95239,0.502817,0.117339,-0.51406,0.0492477,
2,0,0,1,0,16653,0.0480414,0.0477154,-0.111677,9,-0.00396567,10,-5.32872e-06,-3.95204,2.15769,0.0273441,-0.119103,0.04771537,
2,0,0,1,0,16654.5,0.0465432,0.0461947,-0.110881,9,-0.00415553,10,-5.12212e-06,-3.95514,0.76664,0.0769592,-0.33477,0.0461947,
2,0,0,1,0,16656,0.045045,0.0447643,-0.110595,9,-0.00434458,10,-4.95071e-06,-3.95626,0.9173,0.0643192,-0.277989,0.0447643,
2,0,0,1,0,16657.5,0.0435468,0.0432415,-0.109691,9,-0.00453234,10,-4.74322e-06,-3.95983,0.895281,0.0659011,-0.283121,0.0432415,
2,0,0,1,0,16659,0.0420486,0.0417495,-0.109181,9,-0.0047192,10,-4.55823e-06,-3.96185,0.797633,0.0739688,-0.315305,0.0417495,
2,0,0,1,0,16660.5,0.0405504,0.0402469,-0.109606,9,-0.00490576,10,-4.41129e-06,-3.96017,0.767063,0.0769168,-0.325896,0.0402469,
2,0,0,1,0,16662,0.0390522,0.0387326,-0.108018,9,-0.00509151,10,-4.18381e-06,-3.9665,0.528226,0.111695,-0.471996,0.0387326,
2,0,0,1,0,16663.5,0.037554,0.0371961,-0.107715,9,-0.00527582,10,-4.00659e-06,-3.96772,0.70615,0.0835517,-0.350694,0.0371961,
2,0,0,1,0,16665,0.0360558,0.0357476,-0.107269,9,-0.00545917,10,-3.8346e-06,-3.96953,0.393727,0.14985,-0.627292,0.03574755,
2,0,0,1,0,16666.5,0.0345576,0.0342195,-0.105879,9,-0.0056416,10,-3.62312e-06,-3.97519,0.44301,0.13318,-0.555395,0.0342195,
2,0,0,1,0,16668,0.0330594,0.0327603,-0.106426,9,-0.00582331,10,-3.48654e-06,-3.97295,0.557437,0.105842,-0.437451,0.0327603,
2,0,0,1,0,16669.5,0.0315613,0.031209,-0.105461,9,-0.00600418,10,-3.29133e-06,-3.97691,0.644785,0.0915034,-0.377923,0.031209,
2,0,0,1,0,16671,0.0300631,0.0297277,-0.104665,9,-0.00618379,10,-3.11144e-06,-3.9802,0.663543,0.0889166,-0.363569,0.0297277,
2,0,0,1,0,16672.5,0.0285649,0.0282505,-0.104592,9,-0.00636316,10,-2.95477e-06,-3.9805,1.54583,0.0381671,-0.155772,0.02825053,
2,0,0,1,0,16674,0.0270667,0.0267776,-0.104027,9,-0.00654228,10,-2.78559e-06,-3.98286,0.867344,0.0680238,-0.275526,0.0267776,
2,0,0,1,0,16675.5,0.0255685,0.0252421,-0.103395,9,-0.00672062,10,-2.60991e-06,-3.9855,0.673017,0.087665,-0.35549,0.0252421,
2,0,0,1,0,16677,0.0240703,0.0237756,-0.10303,9,-0.00689764,10,-2.44959e-06,-3.98704,1.09615,0.0538248,-0.217289,0.0237756,
2,0,0,1,0,16678.5,0.0225722,0.0222423,-0.103005,9,-0.00707451,10,-2.29107e-06,-3.98714,-1.9408,-0.0303998,0.122362,0.0222423,
2,0,0,1,0,16680,0.021074,0.0207546,-0.102365,9,-0.00725118,10,-2.12454e-06,-3.98985,1.43665,0.0410678,-0.165722,0.0207546,
2,0,0,1,0,16681.5,0.0195758,0.019252,-0.102614,9,-0.00742752,10,-1.97552e-06,-3.98879,-1.65761,-0.0355935,0.142971,0.019252,
2,0,0,1,0,16683,0.0180776,0.0177854,-0.102274,9,-0.00760351,10,-1.81899e-06,-3.99023,-60.8666,-0.000969333,0.00389919,0.0177854,
2,0,0,1,0,16684.5,0.0165794,0.0162531,-0.103162,9,-0.0077796,10,-1.67671e-06,-3.98648,-7.43963,-0.00793051,0.0317561,0.0162531,
2,0,0,1,0,16686,0.0150812,0.0147568,-0.103489,9,-0.00795625,10,-1.52717e-06,-3.98511,9.83148,0.00600113,-0.0240906,0.0147568,
2,0,0,1,0,16687.5,0.013583,0.0132564,-0.102991,9,-0.00813292,10,-1.3653e-06,-3.9872,2.6196,0.0225225,-0.0904036,0.0132564,
2,0,0,1,0,16689,0.0120848,0.0117474,-0.102731,9,-0.00830922,10,-1.20682e-06,-3.9883,-3.50114,-0.0168517,0.068383,0.0117474,
2,0,0,1,0,16690.5,0.0105866,0.0102374,-0.103849,9,-0.00848605,10,-1.06315e-06,-3.9836,-0.903219,-0.0653219,0.26423,0.0102374,
2,0,0,1,0,16692,0.00908843,0.00875596,-0.104119,9,-0.00866389,10,-9.11659e-07,-3.98247,-1.09383,-0.0539389,0.219828,0.00875596,
2,0,0,1,0,16693.5,0.00759024,0.00726188,-0.104377,9,-0.00884206,10,-7.57976e-07,-3.98139,-1.11064,-0.0531226,0.216542,0.00726188,
2,0,0,1,0,16695,0.00609203,0.00575498,-0.105237,9,-0.00902087,10,-6.05639e-07,-3.97783,-0.436645,-0.135121,0.555132,0.00575498,
2,0,0,1,0,16696.5,0.00459384,0.00425457,-0.106307,9,-0.00920044,10,-4.52289e-07,-3.97344,-0.631362,-0.0934488,0.385275,0.00425457,
2,0,0,1,0,16698,0.00309563,0.00279962,-0.106823,9,-0.0093815,10,-2.99063e-07,-3.97134,-0.503032,-0.117289,0.488343,0.00279962,
2,0,0,1,0,16699.5,0.00159744,0.00121859,-0.10778,9,-0.00956577,10,-1.3134e-07,-3.96746, , , ,0.00121859,
2,0,0,1,0,16700.9,0.000199235,-0.000224141,-0.107808,9,-0.00973662,10,2.41641e-08,-3.96735, , , ,-0.000224141,