File: Figure_codes/Fig_3-5/rawdata_trumpetplot_data/after 10th/20221101_1-115_003_TrumpetPlot_ParaChange_from10_every3_12_CV_C01_7.csv
mode,ox/red,error,control changes,counter inc.,time/s,control/V,Ewe/V,<I>/mA,cycle number,(Q-Qo)/C,I Range,P/W,log(|I|),Tafel slope mV/dec,alpha_eff,dI/d(E-IR),E-IR/V,
2,1,0,1,0,14987.4,2.44065e-05,-0.000344411,18.5777,8,0.0000000E+000,10,-6.39836e-06,-1.73101, , , ,-0.000344411,
2,1,0,1,0,14987.4,0.00200257,0.00161522,19.6318,8,5.9649e-05,10,3.17096e-05,-1.70704, , , ,0.00161522,
2,1,0,1,0,14987.4,0.004408,0.00405416,20.5928,8,0.000140286,10,8.34866e-05,-1.68628, , , ,0.00405416,
2,1,0,1,0,14987.4,0.0068051,0.00647506,21.3498,8,0.000224279,10,0.000138241,-1.67061,0.157673,0.374193,307.892,0.006475064,
2,1,0,1,0,14987.4,0.00920221,0.00885356,22.0119,8,0.000311087,10,0.000194884,-1.65734,0.188093,0.313674,267.467,0.00885356,
2,1,0,1,0,14987.5,0.0115993,0.0112713,22.6048,8,0.000400412,10,0.000254785,-1.6458,0.214135,0.275527,241.789,0.0112713,
2,1,0,1,0,14987.5,0.0140075,0.0136328,23.1548,8,0.000491999,10,0.000315665,-1.63536,0.242159,0.243642,219.155,0.0136328,
2,1,0,1,0,14987.5,0.0164046,0.0160357,23.6615,8,0.000585697,10,0.000379428,-1.62596,0.265012,0.222632,204.845,0.0160357,
2,1,0,1,0,14987.5,0.0188017,0.0184566,24.1165,8,0.000681328,10,0.000445108,-1.61769,0.293159,0.201256,188.915,0.0184566,
2,1,0,1,0,14987.5,0.0212099,0.0208902,24.5752,8,0.000778751,10,0.000513381,-1.6095,0.322372,0.183019,174.953,0.0208902,
2,1,0,1,0,14987.5,0.023607,0.0232539,24.9724,8,0.000877903,10,0.000580705,-1.60254,0.341662,0.172685,167.876,0.0232539,
2,1,0,1,0,14987.5,0.0260041,0.0256642,25.346,8,0.000978583,10,0.000650485,-1.59609,0.365439,0.16145,159.597,0.0256642,
2,1,0,1,0,14987.5,0.0284012,0.0280109,25.7204,8,0.00108076,10,0.00072045,-1.58972,0.388407,0.151903,152.342,0.0280109,
2,1,0,1,0,14987.5,0.0308067,0.030436,26.0987,8,0.00118447,10,0.000794339,-1.58338,0.405205,0.145605,148.034,0.030436,
2,1,0,1,0,14987.5,0.0332038,0.0328643,26.4365,8,0.00128956,10,0.000868817,-1.5778,0.425075,0.138799,143.025,0.03286434,
2,1,0,1,0,14987.5,0.0356009,0.0352736,26.7685,8,0.00139601,10,0.000944222,-1.57238,0.446621,0.132103,137.938,0.0352736,
2,1,0,1,0,14987.5,0.0380091,0.0376468,27.0986,8,0.00150376,10,0.00102017,-1.56705,0.45369,0.130045,137.495,0.03764677,
2,1,0,1,0,14987.5,0.0404062,0.0400348,27.4227,8,0.00161283,10,0.00109786,-1.56189,0.463255,0.12736,136.256,0.0400348,
2,1,0,1,0,14987.5,0.0428033,0.0424674,27.7568,8,0.00172323,10,0.00117876,-1.55663,0.473575,0.124584,134.887,0.0424674,
2,1,0,1,0,14987.5,0.0452032,0.0448119,28.0682,8,0.00183489,10,0.00125779,-1.55179,0.481592,0.12251,134.183,0.0448119,
2,1,0,1,0,14987.5,0.0476058,0.0472668,28.3962,8,0.00194788,10,0.0013422,-1.54674,0.488756,0.120715,133.751,0.0472668,
2,1,0,1,0,14987.5,0.0500029,0.0496781,28.7167,8,0.00206213,10,0.00142659,-1.54187,0.478377,0.123334,138.281,0.0496781,
2,1,0,1,0,14987.5,0.0524,0.0520163,29.034,8,0.00217766,10,0.00151024,-1.53709,0.480269,0.122848,139.307,0.0520163,
2,1,0,1,0,14987.5,0.0548082,0.0544394,29.3995,8,0.00229457,10,0.00160049,-1.53166,0.483894,0.121927,139.822,0.0544394,
2,1,0,1,0,14987.5,0.0572053,0.0568189,29.7269,8,0.00241286,10,0.00168905,-1.52685,0.478613,0.123273,142.968,0.0568189,
2,1,0,1,0,14987.5,0.0596024,0.059295,30.0613,8,0.00253246,10,0.00178248,-1.52199,0.492835,0.119715,140.485,0.059295,
2,1,0,1,0,14987.5,0.0620051,0.0616469,30.4109,8,0.00265342,10,0.00187474,-1.51697,0.484782,0.121704,144.471,0.0616469,
2,1,0,1,0,14987.5,0.0644077,0.0640392,30.7481,8,0.00277577,10,0.00196909,-1.51218,0.479523,0.123039,147.715,0.06403923,
2,1,0,1,0,14987.5,0.0668048,0.0664411,31.117,8,0.00289954,10,0.00206744,-1.507,0.482361,0.122315,148.536,0.0664411,
2,1,0,1,0,14987.5,0.0692019,0.0688598,31.4742,8,0.00302475,10,0.00216731,-1.50205,0.480075,0.122898,150.931,0.0688598,
2,1,0,1,0,14987.6,0.0716074,0.0712182,31.8325,8,0.00315139,10,0.00226706,-1.49713,0.488575,0.120759,150.02,0.0712182,
2,1,0,1,0,14987.6,0.0740045,0.073655,32.1994,8,0.00327948,10,0.00237165,-1.49215,0.47943,0.123063,154.692,0.073655,
2,1,0,1,0,14987.6,0.0764016,0.0760462,32.5579,8,0.00340905,10,0.00247591,-1.48734,0.474879,0.124242,158.015,0.0760462,
2,1,0,1,0,14987.6,0.0788042,0.0784321,32.9549,8,0.0035401,10,0.00258473,-1.48208,0.473077,0.124715,160.441,0.0784321,
2,1,0,1,0,14987.6,0.0812069,0.0808615,33.3563,8,0.00367277,10,0.00269724,-1.47682,0.469855,0.125571,163.353,0.0808615,
2,1,0,1,0,14987.6,0.083604,0.0832538,33.7395,8,0.003807,10,0.00280894,-1.47186,0.476195,0.123899,163.114,0.0832538,
2,1,0,1,0,14987.6,0.0860011,0.0856111,34.1204,8,0.00394275,10,0.00292108,-1.46699,0.481556,0.122519,163.19,0.0856111,
2,1,0,1,0,14987.6,0.0884065,0.0880511,34.5239,8,0.0040801,10,0.00303987,-1.46188,0.484654,0.121736,163.989,0.0880511,
2,1,0,1,0,14987.6,0.0908036,0.0904052,34.9138,8,0.00421901,10,0.00315638,-1.457,0.494054,0.11942,162.637,0.0904052,
2,1,0,1,0,14987.6,0.0932007,0.0928059,35.3059,8,0.00435952,10,0.0032766,-1.45215,0.506671,0.116446,160.352,0.0928059,
2,1,0,1,0,14987.6,0.0956034,0.0952215,35.6834,8,0.00450154,10,0.00339783,-1.44753,0.504942,0.116845,162.752,0.0952215,
2,1,0,1,0,14987.6,0.098006,0.0976085,36.0565,8,0.00464505,10,0.00351942,-1.44302,0.502565,0.117398,165.387,0.0976085,
2,1,0,1,0,14987.6,0.100403,0.100021,36.4788,8,0.00479016,10,0.00364864,-1.43796,0.487067,0.121133,172.587,0.100021,
2,1,0,1,0,14987.6,0.1028,0.102451,36.9012,8,0.00493695,10,0.00378057,-1.43296,0.485523,0.121518,174.956,0.102451,
2,1,0,1,0,14987.6,0.105208,0.104843,37.3439,8,0.00508547,10,0.00391523,-1.42778,0.497616,0.118565,172.606,0.1048426,
2,1,0,1,0,14987.6,0.107606,0.107224,37.7388,8,0.00523569,10,0.00404652,-1.42321,0.50175,0.117588,173.124,0.107224,
2,1,0,1,0,14987.6,0.110003,0.109635,38.1381,8,0.00538748,10,0.00418126,-1.41864,0.521116,0.113219,168.572,0.109635,
2,1,0,1,0,14987.6,0.112408,0.112039,38.5609,8,0.00554091,10,0.00432031,-1.41385,0.516705,0.114185,171.84,0.112039,
2,1,0,1,0,14987.6,0.114805,0.114485,38.9693,8,0.00569603,10,0.00446139,-1.40928,0.513624,0.11487,174.716,0.114485,
2,1,0,1,0,14987.6,0.117202,0.116867,39.3957,8,0.0058528,10,0.00460404,-1.40455,0.510996,0.115461,177.572,0.116867,
2,1,0,1,0,14987.6,0.119599,0.11926,39.8198,8,0.00601127,10,0.00474891,-1.3999,0.502972,0.117303,182.372,0.1192599,
2,1,0,1,0,14987.6,0.122008,0.121642,40.2662,8,0.00617149,10,0.00489804,-1.39506,0.495617,0.119044,187.171,0.121642,
2,1,0,1,0,14987.6,0.124405,0.124071,40.7175,8,0.00633348,10,0.00505186,-1.39022,0.485108,0.121622,193.381,0.124071,
2,1,0,1,0,14987.6,0.126802,0.126465,41.1924,8,0.00649734,10,0.00520941,-1.38518,0.479505,0.123044,197.889,0.126465,
2,1,0,1,0,14987.6,0.129207,0.128864,41.6771,8,0.00666311,10,0.00537068,-1.3801,0.473527,0.124597,202.685,0.128864,
2,1,0,1,0,14987.7,0.131604,0.131251,42.1677,8,0.00683085,10,0.00553456,-1.37502,0.465003,0.126881,208.885,0.131251,
2,1,0,1,0,14987.7,0.134001,0.133664,42.662,8,0.00700057,10,0.00570239,-1.36996,0.45359,0.130073,216.792,0.133664,
2,1,0,1,0,14987.7,0.136399,0.136034,43.1912,8,0.00717233,10,0.00587549,-1.3646,0.448404,0.131578,221.943,0.136034,
2,1,0,1,0,14987.7,0.138807,0.138436,43.7523,8,0.0073463,10,0.0060569,-1.359,0.44489,0.132617,226.361,0.138436,
2,1,0,1,0,14987.7,0.141204,0.140821,44.2918,8,0.00752241,10,0.00623722,-1.35368,0.443863,0.132924,229.734,0.140821,
2,1,0,1,0,14987.7,0.143601,0.143232,44.8278,8,0.0077007,10,0.0064208,-1.34845,0.45152,0.13067,228.674,0.143232,
2,1,0,1,0,14987.7,0.146009,0.145638,45.3973,8,0.00788121,10,0.00661155,-1.34297,0.454836,0.129717,229.781,0.1456375,
2,1,0,1,0,14987.7,0.148406,0.148039,45.9483,8,0.00806393,10,0.00680215,-1.33773,0.461059,0.127966,229.351,0.148039,
2,1,0,1,0,14987.7,0.150803,0.150452,46.5047,8,0.00824888,10,0.00699671,-1.3325,0.474606,0.124314,225.477,0.150452,
2,1,0,1,0,14987.7,0.153206,0.152869,47.0381,8,0.00843604,10,0.00719068,-1.32755,0.483621,0.121996,223.844,0.152869,
2,1,0,1,0,14987.7,0.155606,0.155272,47.5698,8,0.00862532,10,0.00738627,-1.32267,0.505506,0.116715,216.523,0.155272,
2,1,0,1,0,14987.7,0.158003,0.157643,48.0981,8,0.00881671,10,0.00758234,-1.31787,0.517522,0.114005,213.802,0.157643,
2,1,0,1,0,14987.7,0.1604,0.160039,48.5805,8,0.0090101,10,0.00777477,-1.31354,0.547128,0.107836,204.308,0.160039,
2,1,0,1,0,14987.7,0.162808,0.162436,49.0835,8,0.00920547,10,0.00797295,-1.30906,0.586842,0.100538,192.328,0.162436,
2,1,0,1,0,14987.7,0.165205,0.1649,49.5367,8,0.00940275,10,0.0081686,-1.30507,0.615645,0.0958345,185.008,0.1649,
2,1,0,1,0,14987.7,0.167602,0.16726,49.9477,8,0.00960176,10,0.00835426,-1.30148,0.682991,0.0863847,168.207,0.16726,
2,1,0,1,0,14987.7,0.170008,0.169667,50.3619,8,0.00980243,10,0.00854477,-1.2979,0.737545,0.0799951,156.981,0.169667,
2,1,0,1,0,14987.7,0.172405,0.172118,50.712,8,0.0100046,10,0.00872845,-1.29489,0.830227,0.0710649,140.392,0.172118,
2,1,0,1,0,14987.7,0.174802,0.174455,51.0368,8,0.0102082,10,0.00890362,-1.29212,0.993438,0.0593897,118.041,0.174455,
2,1,0,1,0,14987.7,0.177199,0.176886,51.299,8,0.0104129,10,0.00907405,-1.28989,1.22615,0.0481181,96.0939,0.176886,
2,1,0,1,0,14987.7,0.179607,0.179296,51.4984,8,0.0106185,10,0.00923346,-1.28821,1.76749,0.0333807,66.9056,0.179296,
2,1,0,1,0,14987.7,0.182005,0.181699,51.6326,8,0.0108248,10,0.00938159,-1.28708,3.24787,0.0181657,36.4924,0.181699,
2,1,0,1,0,14987.7,0.184402,0.184059,51.6793,8,0.0110314,10,0.00951206,-1.28668,180.532,0.000326811,0.656873,0.184059,
2,1,0,1,0,14987.7,0.18681,0.186473,51.6488,8,0.0112381,10,0.0096311,-1.28694,-2.8682,-0.0205704,-41.2918,0.1864727,
2,1,0,1,0,14987.7,0.189207,0.188869,51.5047,8,0.0114444,10,0.00972766,-1.28815,-1.41069,-0.0418234,-83.695,0.188869,
2,1,0,1,0,14987.8,0.191604,0.191267,51.2376,8,0.0116499,10,0.00980004,-1.29041,-0.913224,-0.0646063,-128.661,0.191267,
2,1,0,1,0,14987.8,0.194001,0.193667,50.8752,8,0.0118541,10,0.00985283,-1.29349,-0.661916,-0.0891352,-176.21,0.193667,
2,1,0,1,0,14987.8,0.196407,0.196085,50.4121,8,0.0120567,10,0.00988507,-1.29747,-0.52181,-0.113068,-221.359,0.1960853,
2,1,0,1,0,14987.8,0.198804,0.198466,49.8137,8,0.0122571,10,0.00988632,-1.30265,-0.423892,-0.139186,-269.255,0.198466,
2,1,0,1,0,14987.8,0.201201,0.200896,49.106,8,0.0124549,10,0.00986521,-1.30887,-0.355495,-0.165966,-316.543,0.200896,
2,1,0,1,0,14987.8,0.203609,0.203292,48.2836,8,0.0126496,10,0.00981566,-1.3162,-0.308593,-0.19119,-358.68,0.203292,
2,1,0,1,0,14987.8,0.206006,0.205722,47.3615,8,0.0128408,10,0.00974332,-1.32457,-0.272441,-0.21656,-398.655,0.205722,
2,1,0,1,0,14987.8,0.208403,0.208072,46.3681,8,0.0130282,10,0.00964792,-1.33378,-0.24688,-0.238982,-430.766,0.208072,
2,1,0,1,0,14987.8,0.210803,0.210486,45.2832,8,0.0132114,10,0.00953146,-1.34406,-0.226294,-0.260723,-459.185,0.210486,
2,1,0,1,0,14987.8,0.213206,0.212886,44.1506,8,0.0133902,10,0.00939906,-1.35506,-0.210742,-0.279963,-480.932,0.212886,
2,1,0,1,0,14987.8,0.215603,0.215296,42.9656,8,0.0135643,10,0.00925031,-1.36688,-0.202645,-0.291149,-487.225,0.215296,
2,1,0,1,0,14987.8,0.218,0.217682,41.7467,8,0.0137336,10,0.00908748,-1.37938,-0.193902,-0.304278,-495.316,0.217682,
2,1,0,1,0,14987.8,0.220408,0.220175,40.5625,8,0.0138981,10,0.00893082,-1.39188,-0.187332,-0.314949,-498.143,0.220175,
2,1,0,1,0,14987.8,0.222805,0.222553,39.3625,8,0.0140578,10,0.00876025,-1.40492,-0.185398,-0.318235,-488.605,0.222553,
2,1,0,1,0,14987.8,0.225202,0.224895,38.1835,8,0.0142128,10,0.0085873,-1.41812,-0.181419,-0.325215,-484.779,0.224895,
2,1,0,1,0,14987.8,0.227605,0.227335,37.0297,8,0.0143631,10,0.00841817,-1.43145,-0.181148,-0.325701,-471.209,0.227335,
2,1,0,1,0,14987.8,0.230008,0.229747,35.922,8,0.0145089,10,0.00825297,-1.44464,-0.184182,-0.320335,-449.892,0.229747,
2,1,0,1,0,14987.8,0.232405,0.232088,34.8695,8,0.0146503,10,0.00809279,-1.45755,-0.189435,-0.311452,-424.837,0.232088,
2,1,0,1,0,14987.8,0.234802,0.234471,33.8756,8,0.0147877,10,0.00794284,-1.47011,-0.194083,-0.303994,-402.826,0.234471,
2,1,0,1,0,14987.8,0.237207,0.236932,32.9527,8,0.0149213,10,0.00780755,-1.48211,-0.199357,-0.295951,-381.308,0.236932,
2,1,0,1,0,14987.8,0.239604,0.239337,32.0588,8,0.0150512,10,0.00767286,-1.49405,-0.208636,-0.28279,-354.726,0.239337,
2,1,0,1,0,14987.8,0.242002,0.241647,31.2247,8,0.0151777,10,0.00754535,-1.5055,-0.216808,-0.272131,-332.782,0.241647,
2,1,0,1,0,14987.8,0.244404,0.244078,30.4676,8,0.015301,10,0.00743648,-1.51616,-0.228551,-0.258148,-307.876,0.244078,
2,1,0,1,0,14987.8,0.246807,0.246497,29.7696,8,0.0154214,10,0.00733813,-1.52623,-0.242118,-0.243683,-283.736,0.246497,
2,1,0,1,0,14987.8,0.249204,0.248923,29.1075,8,0.015539,10,0.00724553,-1.536,-0.253386,-0.232846,-265.152,0.248923,
2,1,0,1,0,14987.9,0.251601,0.251295,28.4871,8,0.0156541,10,0.00715866,-1.54535,-0.265121,-0.22254,-248.084,0.251295,
2,1,0,1,0,14987.9,0.254006,0.253663,27.9261,8,0.0157669,10,0.00708384,-1.55399,-0.282918,-0.208541,-227.901,0.253663,
2,1,0,1,0,14987.9,0.256404,0.25608,27.3923,8,0.0158775,10,0.00701462,-1.56237,-0.30344,-0.194437,-208.469,0.25608,
2,1,0,1,0,14987.9,0.258801,0.258499,26.9252,8,0.0159861,10,0.00696013,-1.56984,-0.320449,-0.184116,-193.878,0.2584987,
2,1,0,1,0,14987.9,0.261203,0.260911,26.4825,8,0.0160928,10,0.00690957,-1.57704,-0.339834,-0.173614,-179.707,0.260911,
2,1,0,1,0,14987.9,0.263606,0.263293,26.0592,8,0.0161979,10,0.00686119,-1.58404,-0.353597,-0.166856,-169.993,0.263293,
2,1,0,1,0,14987.9,0.266003,0.265655,25.6715,8,0.0163013,10,0.00681978,-1.59055,-0.377982,-0.156092,-156.721,0.265655,
2,1,0,1,0,14987.9,0.2684,0.268049,25.3018,8,0.0164032,10,0.00678211,-1.59685,-0.405964,-0.145333,-143.866,0.2680487,
2,1,0,1,0,14987.9,0.270808,0.270464,24.9853,8,0.0165037,10,0.00675763,-1.60232,-0.431274,-0.136804,-133.597,0.270464,
2,1,0,1,0,14987.9,0.273205,0.272861,24.6827,8,0.016603,10,0.00673493,-1.60761,-0.461791,-0.127764,-123.174,0.272861,
2,1,0,1,0,14987.9,0.275603,0.275285,24.385,8,0.0167011,10,0.00671283,-1.61288,-0.476341,-0.123861,-118.011,0.275285,
2,1,0,1,0,14987.9,0.278008,0.277694,24.1137,8,0.0167981,10,0.00669623,-1.61774,-0.501217,-0.117713,-110.926,0.277694,
2,1,0,1,0,14987.9,0.280405,0.280085,23.8499,8,0.016894,10,0.00668001,-1.62251,-0.535334,-0.110212,-102.75,0.280085,
2,1,0,1,0,14987.9,0.282802,0.282469,23.6169,8,0.0169889,10,0.00667103,-1.62678,-0.557716,-0.105789,-97.618,0.282469,
2,1,0,1,0,14987.9,0.285199,0.28488,23.3992,8,0.0170829,10,0.00666595,-1.6308,-0.599436,-0.0984258,-89.9446,0.28488,
2,1,0,1,0,14987.9,0.287608,0.287247,23.1811,8,0.0171761,10,0.00665872,-1.63487,-0.620945,-0.0950164,-86.0386,0.287247,
2,1,0,1,0,14987.9,0.290005,0.289686,22.9863,8,0.0172684,10,0.00665883,-1.63853,-0.649504,-0.0908385,-81.5569,0.289686,
2,1,0,1,0,14987.9,0.292402,0.292049,22.7926,8,0.0173599,10,0.00665656,-1.64221,-0.693592,-0.0850644,-75.7393,0.2920489,
2,1,0,1,0,14987.9,0.294807,0.294486,22.6157,8,0.0174507,10,0.00666001,-1.64559,-0.696037,-0.0847656,-74.8796,0.294486,
2,1,0,1,0,14987.9,0.297204,0.296879,22.4516,8,0.0175408,10,0.00666542,-1.64875,-0.691791,-0.0852858,-74.9169,0.296879,
2,1,0,1,0,14987.9,0.299421,0.299023,22.2872,8,0.0176236,10,0.00666439,-1.65194,-0.0952675,-0.619309,-517.48,0.2990227,
2,1,0,0,0,14987.9,0.300012,0.299613,22.226,8,0.0176458,10,0.00665918,-1.65314,0.00144817,40.741,29592.4,0.299613,
2,1,0,1,0,14987.9,0.299243,0.29906,20.2485,8,0.0176727,10,0.00605551,-1.69361,0.0166453,3.54454,2252.47,0.29906,
2,1,0,1,0,14987.9,0.296846,0.296635,15.2367,8,0.0177427,10,0.00451974,-1.81711,0.018554,3.1799,1763.66,0.296635,
2,1,0,1,0,14987.9,0.294449,0.29422,11.4682,8,0.0177954,10,0.00337418,-1.9405,0.0179212,3.29219,1488.83,0.29422,
2,1,0,1,0,14987.9,0.292041,0.291775,8.40315,8,0.0178347,10,0.00245183,-2.07556,0.015568,3.78983,1199.78,0.291775,
2,1,0,1,0,14988,0.289644,0.289382,5.83906,8,0.0178628,10,0.00168972,-2.23366,0.011945,4.93929,1004.19,0.289382,
2,1,0,1,0,14988,0.287247,0.286981,3.65404,8,0.0178815,10,0.00104864,-2.43723,0.0057368,10.2845,856.254,0.2869812,
2,1,0,1,0,14988,0.284841,0.28458,1.78874,8,0.0178922,10,0.00050904,-2.74745,0.014045,4.2008,736.06,0.28458,
2,1,0,1,0,14988,0.282444,0.282169,0.17781,8,0.0178959,10,5.01724e-05,-3.75004,0.0556626,1.05996,635.135,0.2821691,
2,0,0,1,0,14988,0.280047,0.2798,-1.21372,8,0.0178936,10,-0.0003396,-2.91588,-0.0322741,-1.82809,554.761,0.2798,
2,0,0,1,0,14988,0.27765,0.277363,-2.45462,8,0.0178861,10,-0.000680822,-2.61002,-0.00685438,-8.60763,486.957,0.2773633,
2,0,0,1,0,14988,0.275242,0.274943,-3.5575,8,0.0178739,10,-0.000978111,-2.44886,-0.014912,-3.95655,431.54,0.274943,
2,0,0,1,0,14988,0.272845,0.272545,-4.50879,8,0.0178577,10,-0.00122885,-2.34594,-0.0240087,-2.45744,385.948,0.272545,
2,0,0,1,0,14988,0.270448,0.27017,-5.36973,8,0.0178378,10,-0.00145074,-2.27005,-0.0338452,-1.74323,341.392,0.27017,
2,0,0,1,0,14988,0.268039,0.267783,-6.1523,8,0.0178146,10,-0.00164748,-2.21096,-0.0437173,-1.34958,308.904,0.267783,
2,0,0,1,0,14988,0.265642,0.265351,-6.83229,8,0.0177886,10,-0.00181295,-2.16543,-0.0546754,-1.0791,278.543,0.265351,
2,0,0,1,0,14988,0.263245,0.262962,-7.46899,8,0.0177599,10,-0.00196406,-2.12674,-0.0669886,-0.880747,250.606,0.262962,
2,0,0,1,0,14988,0.260843,0.260593,-8.03721,8,0.0177288,10,-0.00209444,-2.09489,-0.0794021,-0.743053,228.533,0.260593,
2,0,0,1,0,14988,0.258443,0.258168,-8.5618,8,0.0176956,10,-0.00221038,-2.06744,-0.0935013,-0.631008,207.559,0.258168,
2,0,0,1,0,14988,0.256046,0.255729,-9.03126,8,0.0176603,10,-0.00230955,-2.04425,-0.107083,-0.550973,192.073,0.2557289,
2,0,0,1,0,14988,0.253649,0.253338,-9.46659,8,0.0176233,10,-0.00239824,-2.02381,-0.122714,-0.480793,176.126,0.253338,
2,0,0,1,0,14988,0.25124,0.250937,-9.89188,8,0.0175845,10,-0.00248224,-2.00472,-0.13746,-0.429217,164.1,0.2509369,
2,0,0,1,0,14988,0.248843,0.248512,-10.2625,8,0.0175441,10,-0.00255035,-1.98875,-0.151468,-0.38952,154.919,0.248512,
2,0,0,1,0,14988,0.246446,0.246147,-10.6036,8,0.0175024,10,-0.00261005,-1.97455,-0.171641,-0.343741,141.643,0.246147,
2,0,0,1,0,14988,0.244041,0.243755,-10.9512,8,0.0174592,10,-0.0026694,-1.96054,-0.185194,-0.318585,135.491,0.2437548,
2,0,0,1,0,14988,0.241644,0.241318,-11.2543,8,0.0174147,10,-0.00271587,-1.94868,-0.202278,-0.291677,127.533,0.241318,
2,0,0,1,0,14988,0.239247,0.238951,-11.5579,8,0.0173691,10,-0.00276176,-1.93712,-0.222503,-0.265164,119.158,0.238951,
2,0,0,1,0,14988,0.236849,0.236565,-11.8256,8,0.0173223,10,-0.00279753,-1.92718,-0.237952,-0.247949,114.109,0.236565,
2,0,0,1,0,14988,0.234441,0.23414,-12.0968,8,0.0172744,10,-0.00283235,-1.91733,-0.260819,-0.22621,106.515,0.2341401,
2,0,0,1,0,14988,0.232044,0.231744,-12.3469,8,0.0172255,10,-0.00286131,-1.90844,-0.271505,-0.217307,104.501,0.231744,
2,0,0,1,0,14988.1,0.229647,0.229287,-12.5873,8,0.0171756,10,-0.00288609,-1.90007,-0.289466,-0.203823,99.9887,0.229287,
2,0,0,1,0,14988.1,0.227239,0.226934,-12.8322,8,0.0171248,10,-0.00291205,-1.8917,-0.31029,-0.190145,94.9523,0.226934,
2,0,0,1,0,14988.1,0.224842,0.224555,-13.0552,8,0.017073,10,-0.00293162,-1.88422,-0.327401,-0.180207,91.5582,0.224555,
2,0,0,1,0,14988.1,0.222445,0.222181,-13.2549,8,0.0170203,10,-0.00294498,-1.87762,-0.345073,-0.170978,88.417,0.222181,
2,0,0,1,0,14988.1,0.220047,0.21976,-13.4595,8,0.0169669,10,-0.00295786,-1.87097,-0.36312,-0.162481,85.3486,0.21976,
2,0,0,1,0,14988.1,0.217642,0.21737,-13.6778,8,0.0169125,10,-0.00297313,-1.86399,-0.371346,-0.158882,84.6996,0.21737,
2,0,0,1,0,14988.1,0.215245,0.214983,-13.8722,8,0.0168574,10,-0.00298229,-1.85785,-0.378188,-0.156007,84.4036,0.214983,
2,0,0,1,0,14988.1,0.212848,0.212523,-14.0729,8,0.0168015,10,-0.00299081,-1.85162,-0.404846,-0.145735,79.949,0.212523,
2,0,0,1,0,14988.1,0.21044,0.210108,-14.2742,8,0.0167448,10,-0.00299912,-1.84545,-0.413454,-0.1427,79.3841,0.210108,
2,0,0,1,0,14988.1,0.208043,0.207801,-14.4428,8,0.0166874,10,-0.00300122,-1.84035,-0.421484,-0.139982,78.9276,0.207801,
2,0,0,1,0,14988.1,0.205645,0.205269,-14.6433,8,0.0166292,10,-0.00300582,-1.83436,-0.437832,-0.134755,76.9959,0.205269,
2,0,0,1,0,14988.1,0.203246,0.202946,-14.8288,8,0.0165702,10,-0.00300944,-1.8289,-0.439924,-0.134114,77.5413,0.202946,
2,0,0,1,0,14988.1,0.200843,0.200509,-15.0132,8,0.0165105,10,-0.0030103,-1.82353,-0.455022,-0.129664,75.9117,0.200509,
2,0,0,1,0,14988.1,0.198446,0.198124,-15.1931,8,0.01645,10,-0.00301012,-1.81835,-0.455532,-0.129519,76.8081,0.198124,
2,0,0,1,0,14988.1,0.196049,0.195764,-15.3649,8,0.0163889,10,-0.00300789,-1.81347,-0.454144,-0.129915,77.9926,0.195764,
2,0,0,1,0,14988.1,0.19364,0.193323,-15.5679,8,0.0163271,10,-0.00300963,-1.80777,-0.467777,-0.126128,76.5772,0.193323,
2,0,0,1,0,14988.1,0.191243,0.190959,-15.7581,8,0.0162644,10,-0.00300915,-1.8025,-0.460426,-0.128142,78.7204,0.190959,
2,0,0,1,0,14988.1,0.188846,0.188548,-15.9264,8,0.016201,10,-0.0030029,-1.79788,-0.478184,-0.123383,76.7187,0.188548,
2,0,0,1,0,14988.1,0.186444,0.186131,-16.1232,8,0.0161369,10,-0.00300102,-1.79255,-0.480729,-0.12273,77.2471,0.186131,
2,0,0,1,0,14988.1,0.184041,0.183747,-16.3025,8,0.016072,10,-0.00299555,-1.78775,-0.458418,-0.128703,81.9619,0.183747,
2,0,0,1,0,14988.1,0.181644,0.181321,-16.5026,8,0.0160064,10,-0.00299227,-1.78245,-0.454011,-0.129953,83.7919,0.181321,
2,0,0,1,0,14988.1,0.179247,0.178924,-16.7153,8,0.0159399,10,-0.00299076,-1.77689,-0.442005,-0.133483,87.0885,0.178924,
2,0,0,1,0,14988.1,0.176841,0.176543,-16.9266,8,0.0158726,10,-0.00298827,-1.77143,-0.433134,-0.136216,90.0065,0.176543,
2,0,0,1,0,14988.1,0.174444,0.174136,-17.1396,8,0.0158045,10,-0.00298462,-1.766,-0.428816,-0.137588,92.099,0.174136,
2,0,0,1,0,14988.1,0.172047,0.171721,-17.3666,8,0.0157355,10,-0.00298222,-1.76028,-0.40901,-0.144251,97.9136,0.171721,
2,0,0,1,0,14988.2,0.169644,0.169362,-17.5959,8,0.0156655,10,-0.00298007,-1.75459,-0.397444,-0.148449,102.11,0.169362,
2,0,0,1,0,14988.2,0.167242,0.16694,-17.8668,8,0.0155946,10,-0.00298269,-1.74795,-0.381969,-0.154463,107.77,0.16694,
2,0,0,1,0,14988.2,0.164845,0.16454,-18.1194,8,0.0155226,10,-0.00298137,-1.74186,-0.363467,-0.162326,114.938,0.16454,
2,0,0,1,0,14988.2,0.162448,0.162145,-18.3987,8,0.0154495,10,-0.00298325,-1.73521,-0.355345,-0.166036,119.465,0.162145,
2,0,0,1,0,14988.2,0.160042,0.15974,-18.7018,8,0.0153753,10,-0.00298743,-1.72812,-0.32965,-0.178978,130.906,0.15974,
2,0,0,1,0,14988.2,0.157645,0.157306,-19.0177,8,0.0152998,10,-0.00299161,-1.72084,-0.309466,-0.190651,141.918,0.157306,
2,0,0,1,0,14988.2,0.155248,0.154934,-19.3769,8,0.0152229,10,-0.00300214,-1.71272,-0.294288,-0.200484,151.969,0.154934,
2,0,0,1,0,14988.2,0.152845,0.152517,-19.765,8,0.0151446,10,-0.00301451,-1.7041,-0.275661,-0.214031,165.374,0.152517,
2,0,0,1,0,14988.2,0.150443,0.15013,-20.1622,8,0.0150647,10,-0.00302696,-1.69546,-0.265016,-0.222628,175.59,0.15013,
2,0,0,1,0,14988.2,0.148046,0.147739,-20.5999,8,0.0149832,10,-0.00304341,-1.68614,-0.247023,-0.238845,192.704,0.147739,
2,0,0,1,0,14988.2,0.145648,0.145316,-21.0657,8,0.0148998,10,-0.00306119,-1.67642,-0.233076,-0.253137,208.961,0.145316,
2,0,0,1,0,14988.2,0.14324,0.142947,-21.6092,8,0.0148144,10,-0.00308898,-1.66536,-0.221264,-0.26665,225.454,0.142947,
2,0,0,1,0,14988.2,0.140843,0.140506,-22.1733,8,0.0147268,10,-0.00311548,-1.65417,-0.207344,-0.284551,246.861,0.140506,
2,0,0,1,0,14988.2,0.138446,0.138133,-22.7656,8,0.0146369,10,-0.00314468,-1.64272,-0.200913,-0.29366,261.815,0.138133,
2,0,0,1,0,14988.2,0.136041,0.135717,-23.4353,8,0.0145444,10,-0.00318057,-1.63013,-0.19073,-0.309338,283.704,0.135717,
2,0,0,1,0,14988.2,0.133644,0.133333,-24.1265,8,0.0144493,10,-0.00321685,-1.61751,-0.181365,-0.325311,307.33,0.133333,
2,0,0,1,0,14988.2,0.131246,0.13097,-24.8787,8,0.0143512,10,-0.00325837,-1.60417,-0.175984,-0.335258,326.718,0.13097,
2,0,0,1,0,14988.2,0.128849,0.128559,-25.7081,8,0.0142499,10,-0.003305,-1.58993,-0.170231,-0.346588,348.438,0.128559,
2,0,0,1,0,14988.2,0.126441,0.126118,-26.5717,8,0.0141453,10,-0.00335116,-1.57558,-0.166859,-0.353591,367.064,0.126118,
2,0,0,1,0,14988.2,0.124044,0.123749,-27.4659,8,0.0140371,10,-0.00339887,-1.56121,-0.166912,-0.353479,379.345,0.1237486,
2,0,0,1,0,14988.2,0.121647,0.121382,-28.3982,8,0.0139253,10,-0.00344703,-1.54671,-0.165874,-0.355693,394.531,0.121382,
2,0,0,1,0,14988.2,0.119241,0.118906,-29.3699,8,0.0138097,10,-0.00349225,-1.5321,-0.168028,-0.351132,402.323,0.118906,
2,0,0,1,0,14988.2,0.116844,0.116529,-30.3545,8,0.0136902,10,-0.0035372,-1.51778,-0.170957,-0.345116,408.408,0.116529,
2,0,0,1,0,14988.2,0.114447,0.114126,-31.3371,8,0.0135667,10,-0.00357639,-1.50394,-0.173613,-0.339836,415.38,0.114126,
2,0,0,1,0,14988.2,0.11205,0.11175,-32.3319,8,0.0134392,10,-0.00361309,-1.49037,-0.178014,-0.331434,417.85,0.11175,
2,0,0,1,0,14988.3,0.109642,0.109316,-33.3531,8,0.0133077,10,-0.00364604,-1.47686,-0.185968,-0.317259,411.747,0.109316,
2,0,0,1,0,14988.3,0.107245,0.107002,-34.3357,8,0.0131722,10,-0.00367398,-1.46425,-0.191855,-0.307523,410.984,0.1070016,
2,0,0,1,0,14988.3,0.104848,0.104626,-35.2488,8,0.013033,10,-0.00368795,-1.45286,-0.200476,-0.2943,404.789,0.104626,
2,0,0,1,0,14988.3,0.10244,0.102266,-36.2297,8,0.0128899,10,-0.00370507,-1.44093,-0.211438,-0.279042,394.19,0.102266,
2,0,0,1,0,14988.3,0.100042,0.0998046,-37.2034,8,0.0127429,10,-0.00371307,-1.42942,-0.218086,-0.270535,391.782,0.0998046,
2,0,0,1,0,14988.3,0.0976454,0.0973901,-38.1245,8,0.0125922,10,-0.00371295,-1.4188,-0.231236,-0.25515,378.732,0.0973901,
2,0,0,1,0,14988.3,0.0952427,0.0949755,-39.0298,8,0.0124378,10,-0.00370687,-1.4086,-0.244666,-0.241145,366.452,0.0949755,
2,0,0,1,0,14988.3,0.0928428,0.0925822,-39.8973,8,0.0122799,10,-0.00369377,-1.39906,-0.259953,-0.226964,352.43,0.0925822,
2,0,0,1,0,14988.3,0.0904457,0.090192,-40.7259,8,0.0121185,10,-0.00367315,-1.39013,-0.276806,-0.213146,337.913,0.09019202,
2,0,0,1,0,14988.3,0.0880486,0.0878146,-41.4992,8,0.011954,10,-0.00364423,-1.38196,-0.296935,-0.198696,321.179,0.0878146,
2,0,0,1,0,14988.3,0.0856404,0.0854234,-42.2576,8,0.0117864,10,-0.00360978,-1.3741,-0.317669,-0.185728,305.639,0.08542338,
2,0,0,1,0,14988.3,0.0832433,0.0829908,-42.9778,8,0.0116158,10,-0.00356676,-1.36676,-0.342145,-0.172442,288.566,0.08299081,
2,0,0,1,0,14988.3,0.0808462,0.0806547,-43.6409,8,0.0114425,10,-0.00351985,-1.36011,-0.367533,-0.16053,272.869,0.0806547,
2,0,0,1,0,14988.3,0.0784408,0.0781501,-44.288,8,0.0112666,10,-0.00346111,-1.35371,-0.399593,-0.14765,254.651,0.0781501,
2,0,0,1,0,14988.3,0.0760437,0.0758193,-44.8782,8,0.0110882,10,-0.00340264,-1.34796,-0.435763,-0.135395,236.613,0.0758193,
2,0,0,1,0,14988.3,0.0736466,0.0733623,-45.4297,8,0.0109075,10,-0.00333283,-1.34266,-0.478691,-0.123253,218.039,0.0733623,
2,0,0,1,0,14988.3,0.0712495,0.070952,-45.9367,8,0.0107247,10,-0.0032593,-1.33784,-0.536541,-0.109964,196.647,0.070952,
2,0,0,1,0,14988.3,0.0688413,0.068529,-46.3858,8,0.01054,10,-0.00317877,-1.33361,-0.608077,-0.0970272,175.192,0.068529,
2,0,0,1,0,14988.3,0.0664442,0.0661526,-46.7792,8,0.0103536,10,-0.00309456,-1.32995,-0.707926,-0.0833421,151.78,0.0661526,
2,0,0,1,0,14988.3,0.0640471,0.0637635,-47.1113,8,0.0101658,10,-0.00300398,-1.32687,-0.831516,-0.0709548,130.167,0.0637635,
2,0,0,1,0,14988.3,0.0616389,0.0613097,-47.4002,8,0.00997679,10,-0.00290609,-1.32422,-1.02506,-0.0575578,106.225,0.0613097,
2,0,0,1,0,14988.3,0.0592417,0.0589546,-47.6321,8,0.0097867,10,-0.00280813,-1.3221,-1.30106,-0.0453477,84.0865,0.0589546,
2,0,0,1,0,14988.3,0.0568446,0.0565252,-47.8018,8,0.00959579,10,-0.00270201,-1.32056,-1.71524,-0.0343974,64.043,0.0565252,
2,0,0,1,0,14988.3,0.0544475,0.0541955,-47.9159,8,0.00940432,10,-0.00259682,-1.31952,-2.54801,-0.0231553,43.2317,0.0541955,
2,0,0,1,0,14988.3,0.0520421,0.0517078,-48.0151,8,0.00921242,10,-0.00248276,-1.31862,-4.07613,-0.0144745,27.0765,0.0517078,
2,0,0,1,0,14988.4,0.049645,0.0493378,-48.0478,8,0.00902027,10,-0.00237057,-1.31833,-8.25478,-0.00714737,13.3837,0.0493378,
2,0,0,1,0,14988.4,0.0472479,0.0469073,-48.0622,8,0.00882803,10,-0.00225447,-1.3182,27.0787,0.00217884,-4.08122,0.0469073,
2,0,0,1,0,14988.4,0.0448397,0.0445034,-48.0456,8,0.00863581,10,-0.00213819,-1.31835,6.74983,0.00874096,-16.3638,0.0445034,
2,0,0,1,0,14988.4,0.0424426,0.0421312,-47.9761,8,0.00844377,10,-0.00202129,-1.31898,3.89456,0.0151493,-28.3356,0.0421312,
2,0,0,1,0,14988.4,0.0400455,0.0397114,-47.8903,8,0.00825207,10,-0.00190179,-1.31975,2.88884,0.0204234,-38.1489,0.0397114,
2,0,0,1,0,14988.4,0.0376456,0.0373276,-47.7908,8,0.00806072,10,-0.00178392,-1.32066,2.48304,0.0237612,-44.2913,0.0373276,
2,0,0,1,0,14988.4,0.035243,0.0348908,-47.6789,8,0.00786977,10,-0.00166355,-1.32167,2.0964,0.0281435,-52.3254,0.0348908,
2,0,0,1,0,14988.4,0.0328459,0.0324964,-47.5493,8,0.00767931,10,-0.00154518,-1.32286,1.97199,0.029919,-55.4905,0.0324964,
2,0,0,1,0,14988.4,0.0304488,0.0301539,-47.3902,8,0.00748941,10,-0.001429,-1.32431,1.79841,0.0328068,-60.6725,0.03015394,
2,0,0,1,0,14988.4,0.0280406,0.0277097,-47.2571,8,0.00730014,10,-0.00130948,-1.32553,1.66487,0.0354381,-65.3312,0.0277097,
2,0,0,1,0,14988.4,0.0256435,0.0253058,-47.0973,8,0.00711145,10,-0.00119183,-1.327,1.66672,0.0353988,-65.0356,0.0253058,
2,0,0,1,0,14988.4,0.0232464,0.0229697,-46.9269,8,0.00692341,10,-0.0010779,-1.32858,1.53316,0.0384826,-70.4639,0.0229697,
2,0,0,1,0,14988.4,0.0208437,0.0205127,-46.7632,8,0.00673606,10,-0.00095924,-1.3301,1.43762,0.0410401,-74.8587,0.0205127,
2,0,0,1,0,14988.4,0.018441,0.0181077,-46.5805,8,0.00654937,10,-0.000843467,-1.3318,1.40452,0.0420072,-76.3255,0.0181077,
2,0,0,1,0,14988.4,0.0160439,0.0157303,-46.3805,8,0.00636348,10,-0.000729579,-1.33366,1.34319,0.0439253,-79.5072,0.01573029,
2,0,0,1,0,14988.4,0.0136468,0.0132935,-46.1884,8,0.00617835,10,-0.000614004,-1.33547,1.28775,0.0458163,-82.5767,0.0132935,
2,0,0,1,0,14988.4,0.0112414,0.0108927,-45.9983,8,0.00599399,10,-0.000501047,-1.33726,1.22266,0.0482556,-86.56,0.0108927,
2,0,0,1,0,14988.4,0.00884431,0.00848665,-45.786,8,0.00581044,10,-0.00038857,-1.33927,1.14483,0.0515362,-92.0097,0.00848665,
2,0,0,1,0,14988.4,0.0064472,0.00610498,-45.5474,8,0.00562779,10,-0.000278066,-1.34154,1.15465,0.0510978,-90.8549,0.00610498,
2,0,0,1,0,14988.4,0.00404455,0.00371907,-45.3074,8,0.00544611,10,-0.000168501,-1.34383,1.06982,0.0551497,-97.5336,0.003719067,
2,0,0,1,0,14988.4,0.0016419,0.00127165,-45.1242,8,0.00526533,10,-5.73821e-05,-1.34559,0.999771,0.0590135,-103.746,0.00127165,
2,0,0,1,0,14988.4,-0.000755207,-0.00112699,-44.8484,8,0.00508541,10,5.05437e-05,-1.34825,0.950089,0.0620994,-108.526,-0.00112699,
2,0,0,1,0,14988.4,-0.00315231,-0.00352457,-44.5483,8,0.00490666,10,0.000157014,-1.35117,0.815584,0.0723408,-125.686,-0.00352457,
2,0,0,1,0,14988.4,-0.00555774,-0.00596563,-44.2564,8,0.00472904,10,0.000264017,-1.35402,0.771675,0.076457,-131.928,-0.00596563,
2,0,0,1,0,14988.4,-0.00795485,-0.00832185,-43.9184,8,0.00455271,10,0.000365483,-1.35735,0.753211,0.0783313,-134.198,-0.00832185,
2,0,0,1,0,14988.5,-0.010352,-0.0107067,-43.5845,8,0.00437774,10,0.000466647,-1.36067,0.696162,0.0847504,-144.087,-0.0107067,
2,0,0,1,0,14988.5,-0.0127546,-0.0131679,-43.2542,8,0.00420409,10,0.000569568,-1.36397,0.671303,0.0878887,-148.182,-0.0131679,
2,0,0,1,0,14988.5,-0.0151573,-0.0155369,-42.8773,8,0.00403186,10,0.000666179,-1.36777,0.639376,0.0922775,-154.267,-0.0155369,
2,0,0,1,0,14988.5,-0.0175544,-0.017945,-42.4924,8,0.00386116,10,0.000762529,-1.37169,0.601226,0.0981328,-162.665,-0.017945,
2,0,0,1,0,14988.5,-0.0199515,-0.0203501,-42.0969,8,0.00369203,10,0.000856674,-1.37575,0.593013,0.0994919,-163.432,-0.02035005,
2,0,0,1,0,14988.5,-0.0223597,-0.0227126,-41.7016,8,0.00352447,10,0.000947154,-1.37985,0.577343,0.102192,-166.282,-0.0227126,
2,0,0,1,0,14988.5,-0.0247568,-0.0251049,-41.3136,8,0.00335848,10,0.00103717,-1.38391,0.579757,0.101767,-164.054,-0.0251049,
2,0,0,1,0,14988.5,-0.0271539,-0.0274993,-40.9037,8,0.00319408,10,0.00112482,-1.38824,0.576182,0.102398,-163.493,-0.0274993,
2,0,0,1,0,14988.5,-0.0295593,-0.0299266,-40.5258,8,0.00303128,10,0.0012128,-1.39227,0.574554,0.102688,-162.416,-0.0299266,
2,0,0,1,0,14988.5,-0.0319564,-0.032321,-40.1307,8,0.00287003,10,0.00129707,-1.39652,0.59751,0.0987431,-154.729,-0.032321,
2,0,0,1,0,14988.5,-0.0343535,-0.0347313,-39.7501,8,0.00271031,10,0.00138057,-1.40066,0.613175,0.0962205,-149.457,-0.0347313,
2,0,0,1,0,14988.5,-0.0367506,-0.0371617,-39.4087,8,0.00255203,10,0.0014645,-1.40441,0.631627,0.0934095,-143.764,-0.0371617,
2,0,0,1,0,14988.5,-0.0391588,-0.0395773,-39.0834,8,0.00239505,10,0.00154682,-1.40801,0.667368,0.0884069,-134.9,-0.03957735,
2,0,0,1,0,14988.5,-0.0415559,-0.0419283,-38.7496,8,0.00223942,10,0.0016247,-1.41173,0.696212,0.0847443,-128.298,-0.0419283,
2,0,0,1,0,14988.5,-0.043953,-0.0443354,-38.4545,8,0.00208506,10,0.0017049,-1.41505,0.742822,0.0794268,-119.377,-0.0443354,
2,0,0,1,0,14988.5,-0.0463585,-0.0467192,-38.1825,8,0.00193181,10,0.00178385,-1.41814,0.81387,0.0724931,-108.155,-0.0467192,
2,0,0,1,0,14988.5,-0.0487556,-0.0491146,-37.9449,8,0.00177958,10,0.00186365,-1.42085,0.876978,0.0672765,-99.7049,-0.0491146,
2,0,0,1,0,14988.5,-0.0511527,-0.0515207,-37.7121,8,0.00162829,10,0.00194295,-1.42352,0.977576,0.0603533,-88.9255,-0.0515207,
2,0,0,1,0,14988.5,-0.0535498,-0.0539278,-37.4981,8,0.00147788,10,0.00202219,-1.42599,1.06735,0.055277,-81.0149,-0.0539278,
2,0,0,1,0,14988.5,-0.055958,-0.0563233,-37.3284,8,0.00132823,10,0.00210246,-1.42796,1.23136,0.0479143,-69.8929,-0.0563233,
2,0,0,1,0,14988.5,-0.0583551,-0.0587315,-37.1658,8,0.00117924,10,0.0021828,-1.42986,1.51909,0.0388391,-56.4248,-0.0587315,
2,0,0,1,0,14988.5,-0.0607522,-0.0610824,-37.0438,8,0.00103084,10,0.00226272,-1.43128,1.68479,0.0350193,-50.6838,-0.0610824,
2,0,0,1,0,14988.5,-0.0631604,-0.0635775,-36.9536,8,0.000882863,10,0.00234942,-1.43234,2.02556,0.0291278,-42.0193,-0.06357754,
2,0,0,1,0,14988.5,-0.0655575,-0.0659073,-36.8427,8,0.000735277,10,0.0024282,-1.43365,2.53241,0.023298,-33.5347,-0.0659073,
2,0,0,1,0,14988.5,-0.0679546,-0.0683239,-36.7627,8,0.000588089,10,0.00251177,-1.43459,3.14542,0.0187574,-26.957,-0.0683239,
2,0,0,1,0,14988.6,-0.0703573,-0.07073,-36.7203,8,0.000441153,10,0.00259722,-1.43509,4.92426,0.0119815,-17.1889,-0.07073,
2,0,0,1,0,14988.6,-0.0727571,-0.0731541,-36.6955,8,0.000294331,10,0.00268442,-1.43539,8.30034,0.00710814,-10.1848,-0.0731541,
2,0,0,1,0,14988.6,-0.0751542,-0.0755464,-36.677,8,0.000147599,10,0.00277081,-1.43561,26.3903,0.00223567,-3.20255,-0.0755464,
2,0,0,1,0,14988.6,-0.0775514,-0.0778994,-36.6652,8,9.03675e-07,10,0.0028562,-1.43575,-33.523,-0.00175998,2.52132,-0.0778994,
2,0,0,1,0,14988.6,-0.0799595,-0.0802959,-36.6896,8,-0.000145788,10,0.00294603,-1.43546,-8.55968,-0.00689278,9.87892,-0.0802959,
2,0,0,1,0,14988.6,-0.0823567,-0.0827115,-36.7196,8,-0.000292596,10,0.00303713,-1.4351,-4.45353,-0.0132479,19.004,-0.0827115,
2,0,0,1,0,14988.6,-0.0847538,-0.0850858,-36.7712,8,-0.000439587,10,0.00312871,-1.43449,-3.59133,-0.0164285,23.5963,-0.0850858,
2,0,0,1,0,14988.6,-0.0871592,-0.0875141,-36.8479,8,-0.00058681,10,0.00322471,-1.43359,-3.06425,-0.0192543,27.6918,-0.0875141,
2,0,0,1,0,14988.6,-0.0895563,-0.0899127,-36.9166,8,-0.000734358,10,0.00331927,-1.43278,-2.57892,-0.0228778,32.9721,-0.08991275,
2,0,0,1,0,14988.6,-0.0919534,-0.0922817,-36.9846,8,-0.000882154,10,0.003413,-1.43198,-2.18143,-0.0270465,39.0922,-0.0922817,
2,0,0,1,0,14988.6,-0.0943505,-0.0946719,-37.0873,8,-0.00103031,10,0.00351112,-1.43077,-1.93118,-0.0305512,44.2684,-0.0946719,
2,0,0,1,0,14988.6,-0.0967587,-0.0971108,-37.2231,8,-0.00117895,10,0.00361476,-1.42919,-1.63213,-0.0361492,52.4731,-0.0971108,
2,0,0,1,0,14988.6,-0.0991558,-0.0994872,-37.3404,8,-0.00132808,10,0.00371489,-1.42782,-4.71024,-0.0125259,18.1551,-0.0994872,
2,0,0,1,0,14988.6,-0.0999548,-0.100286,-37.4046,8,-0.00137664,10,0.00375114,-1.42708,0.0200384,2.94435,-3969.33,-0.100286,
2,0,0,1,1,14988.6,-0.0999548,-0.100324,-37.1899,8,-0.00139899,10,0.00373103,-1.42957,-0.0247964,-2.37938,2967.19,-0.1003238,
2,0,0,1,1,14988.6,-0.0979573,-0.0984278,-31.9953,8,-0.00150425,10,0.00314923,-1.49491,-0.0314398,-1.8766,2167.88,-0.0984278,
2,0,0,1,1,14988.6,-0.0955546,-0.0960398,-27.1113,8,-0.00162172,10,0.00260377,-1.56685,-0.0322253,-1.83086,1950.52,-0.0960398,
2,0,0,1,1,14988.6,-0.0931519,-0.0936252,-22.9657,8,-0.00172128,10,0.00215017,-1.63892,-0.0322958,-1.82686,1649.38,-0.0936252,
2,0,0,1,1,14988.6,-0.0907548,-0.0911714,-19.3381,8,-0.00180543,10,0.00176308,-1.71359,-0.0304621,-1.93683,1455.77,-0.0911714,
2,0,0,1,1,14988.6,-0.0883578,-0.0887802,-16.0828,8,-0.00187587,10,0.00142783,-1.79364,-0.0278809,-2.11614,1308.67,-0.0887802,
2,0,0,1,1,14988.6,-0.0859523,-0.0864102,-13.0929,8,-0.00193387,10,0.00113136,-1.88296,-0.0245067,-2.40751,1199.22,-0.0864102,
2,0,0,1,1,14988.6,-0.0835552,-0.0840052,-10.3762,8,-0.00198047,10,0.000871657,-1.98396,-0.0207486,-2.84356,1099.37,-0.0840052,
2,0,0,1,1,14988.6,-0.0811581,-0.0816172,-7.88043,8,-0.00201668,10,0.000643179,-2.10345,-0.0165327,-3.56868,1003.35,-0.0816172,
2,0,0,1,1,14988.6,-0.0787555,-0.0792079,-5.55923,8,-0.00204328,10,0.000440335,-2.25499,-0.0111007,-5.315,929.579,-0.0792079,
2,0,0,1,1,14988.6,-0.0763528,-0.0767679,-3.41831,8,-0.00206099,10,0.000262417,-2.46619,-0.00783724,-7.52816,865.699,-0.0767679,
2,0,0,1,1,14988.6,-0.0739557,-0.0743492,-1.40015,8,-0.0020704,10,0.0001041,-2.85383,-0.0241942,-2.4386,806.514,-0.07434915,
2,1,0,1,1,14988.6,-0.0715586,-0.0719781,0.46413,8,-0.00207206,10,-3.34072e-05,-3.33336,0.187728,0.314284,756.733,-0.0719781,
2,1,0,1,1,14988.7,-0.0691532,-0.0695625,2.21997,8,-0.00206649,10,-0.000154426,-2.65365,0.0162754,3.62511,712.512,-0.0695625,
2,1,0,1,1,14988.7,-0.0667561,-0.0671691,3.84542,8,-0.00205416,10,-0.000258293,-2.41506,0.00819942,7.19563,665.157,-0.0671691,
2,1,0,1,1,14988.7,-0.0643589,-0.0648511,5.36733,8,-0.00203554,10,-0.000348077,-2.27024,0.0168337,3.50488,625.607,-0.06485109,
2,1,0,1,1,14988.7,-0.0619563,-0.0624005,6.83473,8,-0.00201098,10,-0.000426491,-2.16528,0.0243328,2.42471,590.688,-0.06240049,
2,1,0,1,1,14988.7,-0.0595536,-0.0600178,8.19121,8,-0.00198075,10,-0.000491618,-2.08665,0.0322059,1.83196,552.205,-0.0600178,
2,1,0,1,1,14988.7,-0.0571565,-0.0576414,9.47334,8,-0.00194529,10,-0.000546057,-2.0235,0.0401088,1.471,522.971,-0.0576414,
2,1,0,1,1,14988.7,-0.0547594,-0.0552205,10.6854,8,-0.00190484,10,-0.000590053,-1.97121,0.0485543,1.21513,492.234,-0.0552205,
2,1,0,1,1,14988.7,-0.0523512,-0.0528282,11.8408,8,-0.00185963,10,-0.000625526,-1.92662,0.0572752,1.03011,465.098,-0.0528282,
2,1,0,1,1,14988.7,-0.0499541,-0.0503967,12.927,8,-0.00180998,10,-0.000651479,-1.8885,0.0667652,0.883694,437.228,-0.0503967,
2,1,0,1,1,14988.7,-0.047557,-0.0480097,13.953,8,-0.00175611,10,-0.00066988,-1.85533,0.0770369,0.765867,410.418,-0.0480097,
2,1,0,1,1,14988.7,-0.0451544,-0.0455729,14.9036,8,-0.00169826,10,-0.0006792,-1.82671,0.0874086,0.674991,387.593,-0.0455729,
2,1,0,1,1,14988.7,-0.0427545,-0.0431499,15.8129,8,-0.00163672,10,-0.000682325,-1.80099,0.0992168,0.594657,362.917,-0.0431499,
2,1,0,1,1,14988.7,-0.0403574,-0.0407724,16.6573,8,-0.00157168,10,-0.00067916,-1.77839,0.110191,0.535434,344.975,-0.0407724,
2,1,0,1,1,14988.7,-0.0379603,-0.0383653,17.4531,8,-0.00150336,10,-0.000669595,-1.75813,0.122743,0.48068,324.921,-0.0383653,
2,1,0,1,1,14988.7,-0.0355521,-0.0359433,18.2256,8,-0.0014319,10,-0.000655088,-1.73932,0.137649,0.428626,302.34,-0.0359433,
2,1,0,1,1,14988.7,-0.033155,-0.033585,18.9207,8,-0.00135752,10,-0.000635453,-1.72306,0.151634,0.389094,285.345,-0.033585,
2,1,0,1,1,14988.7,-0.0307579,-0.0311429,19.5687,8,-0.00128047,10,-0.000609426,-1.70844,0.168385,0.350388,266.267,-0.0311429,
2,1,0,1,1,14988.7,-0.0283524,-0.0287538,20.1957,8,-0.00120087,10,-0.000580704,-1.69474,0.183677,0.321215,251.99,-0.0287538,
2,1,0,1,1,14988.7,-0.0259553,-0.0263742,20.7735,8,-0.00111884,10,-0.000547885,-1.68249,0.201681,0.292541,236.101,-0.0263742,
2,1,0,1,1,14988.7,-0.0235582,-0.0240244,21.3299,8,-0.00103457,10,-0.000512438,-1.67101,0.221715,0.266108,220.568,-0.02402436,
2,1,0,1,1,14988.7,-0.0211611,-0.0215557,21.8323,8,-0.000948177,10,-0.00047061,-1.6609,0.242534,0.243265,206.53,-0.0215557,
2,1,0,1,1,14988.7,-0.0187529,-0.0191401,22.3162,8,-0.000859811,10,-0.000427135,-1.65138,0.2678,0.220314,191.261,-0.0191401,
2,1,0,1,1,14988.7,-0.0163558,-0.0167319,22.7649,8,-0.000769588,10,-0.000380901,-1.64273,0.286242,0.206119,182.582,-0.01673194,
2,1,0,1,1,14988.7,-0.0139587,-0.0143269,23.1847,8,-0.000677657,10,-0.000332165,-1.6348,0.311577,0.189359,170.908,-0.0143269,
2,1,0,1,1,14988.7,-0.0115505,-0.0119559,23.585,8,-0.000584079,10,-0.000281979,-1.62736,0.342643,0.172191,158.02,-0.0119559,
2,1,0,1,1,14988.8,-0.0091534,-0.00954344,23.9564,8,-0.000488954,10,-0.000228626,-1.62058,0.372336,0.158459,147.697,-0.00954344,
2,1,0,1,1,14988.8,-0.00675629,-0.00714056,24.2806,8,-0.000392432,10,-0.000173377,-1.61474,0.400746,0.147225,139.301,-0.00714056,
2,1,0,1,1,14988.8,-0.00435919,-0.00477479,24.5955,8,-0.000294636,10,-0.000117438,-1.60914,0.466111,0.126579,121.028,-0.00477479,
2,1,0,1,1,14988.8,-0.00195376,-0.00240478,24.9155,8,-0.00019555,10,-5.99163e-05,-1.60353, , , ,-0.00240478,
2,1,0,0,1,14988.8,-7.54729e-05,-0.000497109,25.0512,8,-0.000118017,10,-1.24532e-05,-1.60117, , , ,-0.000497109,