File: Figure_codes/Fig_3-5/rawdata_trumpetplot_data/after 10th/20221101_1-115_003_TrumpetPlot_ParaChange_from10_every3_08_CV_C01_8.csv
mode,ox/red,error,control changes,counter inc.,time/s,control/V,Ewe/V,<I>/mA,cycle number,(Q-Qo)/C,I Range,P/W,log(|I|),Tafel slope mV/dec,alpha_eff,dI/d(E-IR),E-IR/V,
2,0,0,0,0,16936.1,2.44065e-05,-0.000229887,-4.03961,9,0.0000000E+000,10,9.28654e-07,-2.39366, , , ,-0.000229887,
2,0,0,1,0,16936.1,0.0012943,0.000872406,-1.88479,9,-4.37698e-05,10,-1.6443e-06,-2.72474, , , ,0.000872406,
2,0,0,1,0,16936.1,0.00279784,0.00248119,-0.353858,9,-6.34376e-05,10,-8.7799e-07,-3.45117,-0.00848295,-6.95513,822.999,0.00248119,
2,1,0,1,0,16936.1,0.00429425,0.00395912,0.587652,9,-6.02979e-05,10,2.32658e-06,-3.23088,0.0155658,3.79036,545.554,0.00395912,
2,1,0,1,0,16936.1,0.00579065,0.00549358,1.24348,9,-4.25075e-05,10,6.83116e-06,-2.90536,0.0052037,11.3381,384.586,0.00549358,
2,1,0,1,0,16936.2,0.0072942,0.00699126,1.72169,9,-1.41403e-05,10,1.20368e-05,-2.76405,0.0127535,4.62619,280.055,0.00699126,
2,1,0,1,0,16936.2,0.00878347,0.00848927,2.08148,9,2.15734e-05,10,1.76702e-05,-2.68163,0.0214254,2.75374,212.176,0.00848927,
2,1,0,1,0,16936.2,0.010287,0.00992695,2.35644,9,6.35631e-05,10,2.33923e-05,-2.62774,0.0325809,1.81088,161.014,0.00992695,
2,1,0,1,0,16936.2,0.0117905,0.0114362,2.56925,9,0.000110142,10,2.93825e-05,-2.59019,0.0439196,1.34336,132.079,0.0114362,
2,1,0,1,0,16936.2,0.013278,0.0129577,2.73671,9,0.000159668,10,3.54615e-05,-2.56277,0.0568219,1.03833,110.096,0.0129577,
2,1,0,1,0,16936.2,0.0147816,0.0144772,2.88747,9,0.000212787,10,4.18026e-05,-2.53948,0.0697664,0.845679,94.4435,0.0144772,
2,1,0,1,0,16936.3,0.0162851,0.0159453,3.00846,9,0.000268584,10,4.79706e-05,-2.52166,0.0839445,0.702845,82.1021,0.01594525,
2,1,0,1,0,16936.3,0.0177744,0.0174453,3.12119,9,0.000325922,10,5.44501e-05,-2.50568,0.0994043,0.593535,72.0934,0.0174453,
2,1,0,1,0,16936.3,0.0192779,0.018943,3.2172,9,0.000385761,10,6.09434e-05,-2.49252,0.116717,0.505495,63.3998,0.018943,
2,1,0,1,0,16936.3,0.0207743,0.020472,3.31091,9,0.000447125,10,6.77808e-05,-2.48005,0.126921,0.464854,59.9117,0.020472,
2,1,0,1,0,16936.3,0.0222707,0.0220191,3.3951,9,0.000510112,10,7.4757e-05,-2.46915,0.141252,0.417694,55.3622,0.0220191,
2,1,0,1,0,16936.4,0.0237743,0.0234558,3.47935,9,0.000575024,10,8.16108e-05,-2.4585,0.161701,0.364871,49.4968,0.0234558,
2,1,0,1,0,16936.4,0.0252636,0.0249732,3.54504,9,0.000640676,10,8.8531e-05,-2.45038,0.163208,0.361501,50.1508,0.0249732,
2,1,0,1,0,16936.4,0.0267671,0.0264845,3.62515,9,0.000708401,10,9.60102e-05,-2.44067,0.163396,0.361086,51.1323,0.0264845,
2,1,0,1,0,16936.4,0.0282706,0.027958,3.70707,9,0.000777616,10,0.000103642,-2.43097,0.179376,0.328919,47.5319,0.027958,
2,1,0,1,0,16936.4,0.0297581,0.0294492,3.78237,9,0.000847507,10,0.000111388,-2.42224,0.186001,0.317203,46.7492,0.0294492,
2,1,0,1,0,16936.5,0.0312617,0.0309397,3.85052,9,0.000919486,10,0.000119134,-2.41448,0.189929,0.310642,46.6682,0.0309397,
2,1,0,1,0,16936.5,0.0327652,0.032451,3.92189,9,0.000992758,10,0.000127269,-2.4065,0.19622,0.300683,46.0159,0.032451,
2,1,0,1,0,16936.5,0.0342545,0.0339453,3.99679,9,0.00106658,10,0.000135672,-2.39829,0.19559,0.301652,46.9961,0.0339453,
2,1,0,1,0,16936.5,0.035758,0.0354607,4.07176,9,0.00114259,10,0.000144387,-2.39022,0.20017,0.29475,46.6821,0.0354607,
2,1,0,1,0,16936.5,0.0372544,0.0369282,4.13788,9,0.0012195,10,0.000152804,-2.38322,0.202349,0.291576,47.0267,0.0369282,
2,1,0,1,0,16936.5,0.0387508,0.0384172,4.20416,9,0.00129761,10,0.000161512,-2.37632,0.199925,0.295111,48.4028,0.0384172,
2,1,0,1,0,16936.6,0.0402544,0.0399643,4.27151,9,0.00137749,10,0.000170708,-2.36942,0.193127,0.305498,50.9607,0.0399643,
2,1,0,1,0,16936.6,0.0417437,0.0414088,4.34287,9,0.00145789,10,0.000179833,-2.36222,0.206768,0.285345,48.3059,0.0414088,
2,1,0,1,0,16936.6,0.0432472,0.0429265,4.41013,9,0.00154044,10,0.000189312,-2.35555,0.226376,0.260628,44.8556,0.0429265,
2,1,0,1,0,16936.6,0.0447507,0.044443,4.47027,9,0.00162419,10,0.000198672,-2.34967,0.222618,0.265028,46.3074,0.044443,
2,1,0,1,0,16936.6,0.0462382,0.0459117,4.54023,9,0.0017083,10,0.000208449,-2.34292,0.221452,0.266423,47.2227,0.0459117,
2,1,0,1,0,16936.7,0.0477418,0.0474018,4.61236,9,0.00179464,10,0.000218634,-2.33608,0.227312,0.259555,46.7451,0.0474018,
2,1,0,1,0,16936.7,0.0492453,0.0489179,4.67866,9,0.0018823,10,0.000228871,-2.32988,0.261538,0.225589,41.1913,0.0489179,
2,1,0,1,0,16936.7,0.0507346,0.0504241,4.73766,9,0.0019702,10,0.000238892,-2.32444,0.277512,0.212603,39.4157,0.0504241,
2,1,0,1,0,16936.7,0.0522381,0.0519279,4.8076,9,0.00206024,10,0.000249649,-2.31807,0.260236,0.226718,42.5631,0.0519279,
2,1,0,1,0,16936.7,0.0537345,0.0534456,4.88382,9,0.00215109,10,0.000261019,-2.31124,0.268829,0.21947,41.7912,0.0534456,
2,1,0,1,0,16936.8,0.0552309,0.0549423,4.95067,9,0.00224319,10,0.000272001,-2.30534,0.283081,0.208421,40.1444,0.0549423,
2,1,0,1,0,16936.8,0.0567345,0.0564318,5.00707,9,0.00233697,10,0.000282558,-2.30042,0.296865,0.198743,38.8182,0.0564318,
2,1,0,1,0,16936.8,0.0582237,0.0579172,5.07271,9,0.00243079,10,0.000293797,-2.29476,0.27163,0.217207,42.9581,0.0579172,
2,1,0,1,0,16936.8,0.0597273,0.0594074,5.1298,9,0.00252682,10,0.000304748,-2.2899,0.269637,0.218813,43.7732,0.0594074,
2,1,0,1,0,16936.8,0.0612308,0.0609082,5.19615,9,0.00262406,10,0.000316488,-2.28432,0.288544,0.204475,41.3751,0.0609082,
2,1,0,1,0,16936.8,0.0627183,0.0624096,5.25218,9,0.0027214,10,0.000327787,-2.27966,0.283905,0.207816,42.5628,0.0624096,
2,1,0,1,0,16936.9,0.0642219,0.0639144,5.30383,9,0.00282079,10,0.000338991,-2.27541,0.28664,0.205833,42.6479,0.0639144,
2,1,0,1,0,16936.9,0.0657254,0.0654523,5.36164,9,0.00292133,10,0.000350931,-2.2707,0.288278,0.204663,42.8394,0.0654523,
2,1,0,1,0,16936.9,0.0672147,0.0669391,5.42844,9,0.00302198,10,0.000363375,-2.26533,0.313677,0.188091,39.7873,0.0669391,
2,1,0,1,0,16936.9,0.0687182,0.0684136,5.47742,9,0.00312475,10,0.00037473,-2.26142,0.356512,0.165492,35.3901,0.0684136,
2,1,0,1,0,16936.9,0.0702146,0.0699193,5.52556,9,0.00322797,10,0.000386343,-2.25762,0.354406,0.166476,35.9342,0.0699193,
2,1,0,1,0,16937,0.071711,0.0714195,5.58073,9,0.00333216,10,0.000398573,-2.25331,0.370905,0.159071,34.6827,0.07141947,
2,1,0,1,0,16937,0.0732146,0.0728981,5.63772,9,0.00343794,10,0.000410979,-2.2489,0.398159,0.148182,32.6372,0.0728981,
2,1,0,1,0,16937,0.0747038,0.074423,5.70085,9,0.00354361,10,0.000424275,-2.24406,0.429057,0.137511,30.5405,0.074423,
2,1,0,1,0,16937,0.0762074,0.0758944,5.73927,9,0.00365132,10,0.000435579,-2.24114,0.444382,0.132769,29.7324,0.07589443,
2,1,0,1,0,16937,0.0777109,0.0774183,5.79121,9,0.0037599,10,0.000448346,-2.23723,0.414994,0.142171,32.1137,0.0774183,
2,1,0,1,0,16937.1,0.0791984,0.0789334,5.84872,9,0.00386827,10,0.00046166,-2.23294,0.428757,0.137607,31.3279,0.0789334,
2,1,0,1,0,16937.1,0.0807019,0.0803765,5.88663,9,0.00397869,10,0.000473147,-2.23013,0.477317,0.123608,28.3424,0.0803765,
2,1,0,1,0,16937.1,0.0822055,0.0818821,5.92989,9,0.00408997,10,0.000485552,-2.22695,0.45174,0.130606,30.2028,0.0818821,
2,1,0,1,0,16937.1,0.0836947,0.0833947,5.96843,9,0.00420077,10,0.000497736,-2.22414,0.455138,0.129631,30.2289,0.0833947,
2,1,0,1,0,16937.1,0.0851983,0.0849013,6.01608,9,0.00431364,10,0.000510773,-2.22069,0.427103,0.13814,32.4248,0.0849013,
2,1,0,1,0,16937.1,0.0866947,0.0863903,6.0583,9,0.00442679,10,0.000523378,-2.21765,0.432096,0.136544,32.2827,0.0863903,
2,1,0,1,0,16937.2,0.0881911,0.0878243,6.10319,9,0.00454078,10,0.000536009,-2.21444,0.443626,0.132995,31.6939,0.0878243,
2,1,0,1,0,16937.2,0.0896946,0.0893598,6.14659,9,0.00465615,10,0.000549258,-2.21137,0.424821,0.138882,33.3706,0.0893598,
2,1,0,1,0,16937.2,0.0911839,0.0908807,6.20503,9,0.00477125,10,0.000563917,-2.20726,0.360562,0.163634,39.6065,0.0908807,
2,1,0,1,0,16937.2,0.0926857,0.0923579,6.25879,9,0.00488868,10,0.000578049,-2.20351,0.380042,0.155246,37.9478,0.0923579,
2,1,0,1,0,16937.2,0.0941892,0.0938631,6.31167,9,0.00500716,10,0.000592433,-2.19986,0.397147,0.14856,36.6336,0.0938631,
2,1,0,1,0,16937.3,0.0956785,0.0953233,6.36063,9,0.00512535,10,0.000606316,-2.1965,0.401298,0.147023,36.6004,0.0953233,
2,1,0,1,0,16937.3,0.097182,0.0968295,6.43186,9,0.00524591,10,0.000622794,-2.19166,0.343201,0.171911,43.1924,0.0968295,
2,1,0,1,0,16937.3,0.0986856,0.0984066,6.5036,9,0.00536778,10,0.000639997,-2.18685,0.310241,0.190175,48.3419,0.0984066,
2,1,0,1,0,16937.3,0.100175,0.0998412,6.58346,9,0.00548968,10,0.0006573,-2.18155,0.302667,0.194933,50.1228,0.09984117,
2,1,0,1,0,16937.3,0.101678,0.101352,6.66558,9,0.00561448,10,0.00067557,-2.17616,0.269597,0.218845,56.9817,0.101352,
2,1,0,1,0,16937.4,0.103175,0.102823,6.76767,9,0.00574024,10,0.000695869,-2.16956,0.246843,0.239018,63.1654,0.102823,
2,1,0,1,0,16937.4,0.104671,0.104326,6.87441,9,0.00586784,10,0.000717182,-2.16276,0.235061,0.250999,67.221,0.104326,
2,1,0,1,0,16937.4,0.106175,0.105803,6.96559,9,0.00599811,10,0.000736977,-2.15704,0.23306,0.253153,68.7748,0.105803,
2,1,0,1,0,16937.4,0.107662,0.107342,7.07546,9,0.00612891,10,0.000759495,-2.15025,0.224864,0.262381,72.4256,0.107342,
2,1,0,1,0,16937.4,0.109166,0.108895,7.18004,9,0.00626304,10,0.000781868,-2.14387,0.214041,0.275648,77.3248,0.1088947,
2,1,0,1,0,16937.4,0.110669,0.110322,7.29079,9,0.00639933,10,0.000804336,-2.13723,0.213407,0.276467,78.7126,0.110322,
2,1,0,1,0,16937.5,0.112159,0.111851,7.40596,9,0.00653633,10,0.000828365,-2.13042,0.216897,0.272018,78.6246,0.111851,
2,1,0,1,0,16937.5,0.113662,0.11337,7.51814,9,0.00667695,10,0.000852332,-2.12389,0.232189,0.254104,74.5457,0.11337,
2,1,0,1,0,16937.5,0.115166,0.114851,7.62742,9,0.00681966,10,0.000876016,-2.11762,0.232734,0.253508,75.5226,0.114851,
2,1,0,1,0,16937.5,0.116655,0.116304,7.74432,9,0.00696291,10,0.000900695,-2.11102,0.245672,0.240157,72.5665,0.116304,
2,1,0,1,0,16937.5,0.118158,0.11787,7.84996,9,0.00710981,10,0.000925276,-2.10513,0.26225,0.224976,68.9133,0.11787,
2,1,0,1,0,16937.6,0.119655,0.119319,7.95549,9,0.00725795,10,0.000949243,-2.09933,0.296161,0.199216,61.7878,0.119319,
2,1,0,1,0,16937.6,0.121151,0.120813,8.04331,9,0.0074078,10,0.000971734,-2.09457,0.31668,0.186308,58.5028,0.120813,
2,1,0,1,0,16937.6,0.122655,0.122367,8.13884,9,0.00756013,10,0.000995925,-2.08944,0.335697,0.175754,55.7688,0.122367,
2,1,0,1,0,16937.6,0.124142,0.123832,8.22639,9,0.00771249,10,0.00101869,-2.08479,0.358379,0.16463,52.7763,0.123832,
2,1,0,1,0,16937.6,0.125646,0.12535,8.30134,9,0.00786798,10,0.00104057,-2.08085,0.399568,0.14766,47.764,0.12535,
2,1,0,1,0,16937.7,0.127149,0.126804,8.36468,9,0.00802488,10,0.00106068,-2.07755,0.450755,0.130891,42.7112,0.126804,
2,1,0,1,0,16937.7,0.128639,0.128313,8.43053,9,0.00818126,10,0.00108175,-2.07415,0.457453,0.128975,42.4421,0.128313,
2,1,0,1,0,16937.7,0.130142,0.12982,8.49946,9,0.00834056,10,0.0011034,-2.07061,0.44987,0.131149,43.4496,0.12982,
2,1,0,1,0,16937.7,0.131646,0.131375,8.56298,9,0.0085011,10,0.00112496,-2.06737,0.489163,0.120614,40.2407,0.131375,
2,1,0,1,0,16937.7,0.133135,0.132833,8.60725,9,0.00866103,10,0.00114333,-2.06514,0.513157,0.114975,38.6284,0.132833,
2,1,0,1,0,16937.7,0.134639,0.134314,8.66167,9,0.0088236,10,0.00116339,-2.0624,0.565198,0.104388,35.3159,0.134314,
2,1,0,1,0,16937.8,0.136135,0.135796,8.71346,9,0.00898634,10,0.00118325,-2.05981,0.59655,0.098902,33.6182,0.135796,
2,1,0,1,0,16937.8,0.137631,0.137317,8.76173,9,0.00915,10,0.00120313,-2.05741,0.72057,0.0818796,27.9683,0.137317,
2,1,0,1,0,16937.8,0.139135,0.138839,8.79668,9,0.00931535,10,0.00122132,-2.05568,0.939954,0.062769,21.5319,0.138839,
2,1,0,1,0,16937.8,0.140622,0.140325,8.82254,9,0.0094795,10,0.00123802,-2.05441,1.43613,0.0410827,14.1365,0.140325,
2,1,0,1,0,16937.8,0.142126,0.141866,8.84051,9,0.00964585,10,0.00125417,-2.05352,3.30673,0.0178424,6.14923,0.141866,
2,1,0,1,0,16937.9,0.143629,0.14332,8.84775,9,0.00981245,10,0.00126806,-2.05317,-2.11674,-0.027873,-9.60165,0.1433197,
2,1,0,1,0,16937.9,0.145119,0.144799,8.82726,9,0.00997712,10,0.00127818,-2.05417,-0.735576,-0.0802093,-27.5599,0.144799,
2,1,0,1,0,16937.9,0.146622,0.146303,8.77219,9,0.0101428,10,0.0012834,-2.05689,-0.434316,-0.135846,-46.3942,0.146303,
2,1,0,1,0,16937.9,0.148126,0.147823,8.69729,9,0.0103073,10,0.00128566,-2.06062,-0.299702,-0.196862,-66.5789,0.147823,
2,1,0,1,0,16937.9,0.149615,0.149288,8.59082,9,0.0104682,10,0.00128251,-2.06597,-0.222107,-0.265638,-88.6447,0.149288,
2,1,0,1,0,16938,0.151119,0.150796,8.43883,9,0.0106284,10,0.00127254,-2.07372,-0.170157,-0.346739,-113.558,0.150796,
2,1,0,1,0,16938,0.152615,0.15232,8.24488,9,0.0107846,10,0.00125586,-2.08382,-0.13886,-0.424888,-136.066,0.15232,
2,1,0,1,0,16938,0.154111,0.153776,8.0231,9,0.0109368,10,0.00123376,-2.09566,-0.119602,-0.493302,-153.822,0.1537758,
2,1,0,1,0,16938,0.155615,0.155307,7.76683,9,0.0110854,10,0.00120625,-2.10976,-0.102005,-0.578405,-174.64,0.1553072,
2,1,0,1,0,16938,0.157103,0.156791,7.48347,9,0.0112275,10,0.00117334,-2.1259,-0.0901651,-0.654355,-190.436,0.156791,
2,1,0,1,0,16938,0.158606,0.158329,7.18368,9,0.0113657,10,0.00113738,-2.14365,-0.0813808,-0.724987,-202.857,0.158329,
2,1,0,1,0,16938.1,0.16011,0.159809,6.87015,9,0.011498,10,0.00109791,-2.16303,-0.0786292,-0.750358,-201.122,0.159809,
2,1,0,1,0,16938.1,0.161599,0.16131,6.5634,9,0.0116231,10,0.00105875,-2.18287,-0.0755356,-0.781089,-200.142,0.16131,
2,1,0,1,0,16938.1,0.163102,0.162796,6.2664,9,0.011744,10,0.00102015,-2.20298,-0.0737968,-0.799493,-195.787,0.162796,
2,1,0,1,0,16938.1,0.164606,0.164284,5.98148,9,0.0118593,10,0.00098266,-2.22319,-0.0747479,-0.78932,-184.658,0.164284,
2,1,0,1,0,16938.1,0.166095,0.165811,5.71922,9,0.0119684,10,0.00094831,-2.24266,-0.0767837,-0.768393,-172.07,0.165811,
2,1,0,1,0,16938.2,0.167599,0.16729,5.48002,9,0.0120738,10,0.000916752,-2.26122,-0.0837108,-0.704807,-151.35,0.16729,
2,1,0,1,0,16938.2,0.169095,0.168786,5.27402,9,0.0121746,10,0.000890183,-2.27786,-0.0892144,-0.661328,-136.489,0.168786,
2,1,0,1,0,16938.2,0.170592,0.170278,5.08691,9,0.0122716,10,0.00086619,-2.29355,-0.0945309,-0.624135,-124.183,0.170278,
2,1,0,1,0,16938.2,0.172095,0.171762,4.91387,9,0.0123657,10,0.000844016,-2.30858,-0.105756,-0.557889,-107.244,0.171762,
2,1,0,1,0,16938.2,0.173583,0.173267,4.76204,9,0.0124557,10,0.000825102,-2.32221,-0.114242,-0.516445,-96.1677,0.173267,
2,1,0,1,0,16938.2,0.175086,0.174796,4.62983,9,0.0125441,10,0.000809278,-2.33443,-0.127224,-0.463747,-83.8641,0.174796,
2,1,0,1,0,16938.3,0.17659,0.176281,4.50949,9,0.0126301,10,0.00079494,-2.34587,-0.137524,-0.429017,-75.5119,0.176281,
2,1,0,1,0,16938.3,0.178079,0.177805,4.39943,9,0.0127132,10,0.000782241,-2.3566,-0.153363,-0.384708,-66.1346,0.177805,
2,1,0,1,0,16938.3,0.179582,0.179282,4.30547,9,0.0127951,10,0.000771892,-2.36598,-0.170577,-0.345885,-58.2042,0.179282,
2,1,0,1,0,16938.3,0.181086,0.180784,4.21193,9,0.0128753,10,0.000761447,-2.37552,-0.18923,-0.31179,-51.3995,0.180784,
2,1,0,1,0,16938.3,0.182575,0.182282,4.13697,9,0.0129533,10,0.000754095,-2.38332,-0.19375,-0.304516,-49.201,0.182282,
2,1,0,1,0,16938.4,0.184079,0.183802,4.06434,9,0.0130306,10,0.000747033,-2.39101,-0.20822,-0.283354,-45.031,0.183802,
2,1,0,1,0,16938.4,0.185582,0.185263,3.99838,9,0.0131067,10,0.000740751,-2.39812,-0.228812,-0.257854,-40.3174,0.185263,
2,1,0,1,0,16938.4,0.18707,0.186735,3.9372,9,0.0131808,10,0.000735215,-2.40481,-0.248689,-0.237244,-36.5639,0.186735,
2,1,0,1,0,16938.4,0.188573,0.18827,3.88554,9,0.0132547,10,0.000731531,-2.41055,-0.256856,-0.2297,-34.9312,0.18827,
2,1,0,1,0,16938.4,0.19007,0.189748,3.84024,9,0.0133272,10,0.000728679,-2.41564,-0.240833,-0.244983,-36.7605,0.189748,
2,1,0,1,0,16938.5,0.191566,0.191248,3.79233,9,0.0133988,10,0.000725276,-2.42109,-0.277558,-0.212568,-31.5248,0.191248,
2,1,0,1,0,16938.5,0.19307,0.192746,3.75359,9,0.01347,10,0.000723491,-2.42555,-0.342125,-0.172452,-25.2906,0.1927463,
2,1,0,1,0,16938.5,0.194559,0.194298,3.72525,9,0.0135397,10,0.00072381,-2.42884,-0.350172,-0.168488,-24.455,0.194298,
2,1,0,1,0,16938.5,0.196063,0.195774,3.68441,9,0.0136095,10,0.000721311,-2.43363,-0.323488,-0.182387,-26.2167,0.195774,
2,1,0,1,0,16938.5,0.197566,0.197255,3.64748,9,0.0136786,10,0.000719483,-2.43801,-0.387322,-0.152328,-21.6995,0.197255,
2,1,0,1,0,16938.5,0.199055,0.198754,3.62469,9,0.0137464,10,0.00072042,-2.44073,-0.43574,-0.135402,-19.1325,0.198754,
2,1,0,1,0,16938.6,0.200559,0.20024,3.5997,9,0.0138143,10,0.000720804,-2.44373,-0.524125,-0.112569,-15.7685,0.20024,
2,1,0,1,0,16938.6,0.202062,0.201768,3.56682,9,0.0138818,10,0.00071967,-2.44772,-0.524554,-0.112476,-15.6224,0.201768,
2,1,0,1,0,16938.6,0.20355,0.203266,3.53494,9,0.0139481,10,0.000718532,-2.45162,-0.533997,-0.110487,-15.2725,0.2032658,
2,1,0,1,0,16938.6,0.205053,0.204775,3.50805,9,0.0140145,10,0.00071836,-2.45493,-0.77199,-0.0764259,-10.5109,0.204775,
2,1,0,1,0,16938.6,0.20655,0.206211,3.48714,9,0.0140803,10,0.000719085,-2.45753,-0.793517,-0.0743525,-10.1433,0.206211,
2,1,0,1,0,16938.7,0.208046,0.207711,3.47349,9,0.0141458,10,0.000721483,-2.45923,-0.634895,-0.0929288,-12.6031,0.207711,
2,1,0,1,0,16938.7,0.20955,0.209283,3.45224,9,0.0142113,10,0.000722495,-2.4619,-0.504337,-0.116985,-15.798,0.209283,
2,1,0,1,0,16938.7,0.211039,0.210739,3.43561,9,0.0142756,10,0.000724017,-2.464,-0.549065,-0.107455,-14.4378,0.210739,
2,1,0,1,0,16938.7,0.212543,0.212245,3.41806,9,0.0143403,10,0.000725466,-2.46622,-0.666357,-0.0885411,-11.8253,0.212245,
2,1,0,1,0,16938.7,0.214046,0.213789,3.40102,9,0.0144047,10,0.000727099,-2.46839,-0.753679,-0.0782827,-10.4095,0.2137887,
2,1,0,1,0,16938.8,0.215535,0.215222,3.39197,9,0.0144681,10,0.000730027,-2.46955,-0.696014,-0.0847684,-11.2325,0.215222,
2,1,0,1,0,16938.8,0.217039,0.216773,3.3726,9,0.014532,10,0.000731087,-2.47204,-0.687787,-0.0857824,-11.3034,0.216773,
2,1,0,1,0,16938.8,0.218543,0.218278,3.36392,9,0.0145955,10,0.000734271,-2.47315,-1.13057,-0.0521861,-6.85407,0.218278,
2,1,0,1,0,16938.8,0.22003,0.219745,3.35713,9,0.0146582,10,0.000737711,-2.47403,-1.01195,-0.0583035,-7.63061,0.219745,
2,1,0,1,0,16938.8,0.221534,0.221289,3.34534,9,0.0147214,10,0.000740288,-2.47556,-0.868686,-0.0679187,-8.84805,0.221289,
2,1,0,1,0,16938.8,0.22303,0.222706,3.32628,9,0.014784,10,0.000740783,-2.47804,-1.1041,-0.0534373,-6.94323,0.222706,
2,1,0,1,0,16938.9,0.224526,0.224237,3.319,9,0.0148463,10,0.000744241,-2.47899,-1.15889,-0.0509107,-6.59075,0.224237,
2,1,0,1,0,16938.9,0.22603,0.225805,3.30785,9,0.0149088,10,0.000746927,-2.48045,-1.8886,-0.0312401,-4.02797,0.225805,
2,1,0,1,0,16938.9,0.227519,0.227229,3.29489,9,0.0149704,10,0.000748695,-2.48216,-1.04623,-0.0563927,-7.25377,0.227229,
2,1,0,1,0,16938.9,0.229023,0.228713,3.27852,9,0.0150325,10,0.000749841,-2.48432,-1.67538,-0.035216,-4.51837,0.228713,
2,1,0,1,0,16938.9,0.230526,0.2302,3.2665,9,0.0150944,10,0.000751948,-2.48592,-1.98014,-0.0297959,-3.81531,0.2302,
2,1,0,1,0,16939,0.232016,0.231694,3.26863,9,0.0151555,10,0.000757324,-2.48563,-2.01896,-0.029223,-3.72654,0.231694,
2,1,0,1,0,16939,0.233519,0.233232,3.26056,9,0.0152171,10,0.000760467,-2.48671,-1.20346,-0.0490253,-6.2312,0.233232,
2,1,0,1,0,16939,0.235023,0.234722,3.2554,9,0.0152786,10,0.000764114,-2.4874,-1.01607,-0.058067,-7.37118,0.234722,
2,1,0,1,0,16939,0.23651,0.236227,3.23917,9,0.0153392,10,0.000765179,-2.48957,-0.927636,-0.0636025,-8.05138,0.236227,
2,1,0,1,0,16939,0.238014,0.237733,3.23491,9,0.0154003,10,0.000769046,-2.49014,-1.18674,-0.0497161,-6.2747,0.237733,
2,1,0,1,0,16939.1,0.23951,0.239155,3.22983,9,0.015461,10,0.000772429,-2.49082,-1.47487,-0.0400034,-5.04799,0.239155,
2,1,0,1,0,16939.1,0.241006,0.240666,3.22377,9,0.0155216,10,0.000775852,-2.49164,-0.830126,-0.0710736,-8.93961,0.240666,
2,1,0,1,0,16939.1,0.24251,0.242154,3.20869,9,0.0155823,10,0.000776999,-2.49367,-0.985573,-0.0598637,-7.51097,0.242154,
2,1,0,1,0,16939.1,0.243999,0.24368,3.21193,9,0.0156422,10,0.000782683,-2.49323,-2.25742,-0.0261361,-3.27404,0.2436801,
2,1,0,1,0,16939.1,0.245503,0.245227,3.20928,9,0.0157027,10,0.000787003,-2.49359,-1.87852,-0.0314077,-3.92373,0.2452269,
2,1,0,1,0,16939.1,0.247006,0.246686,3.19966,9,0.0157631,10,0.000789313,-2.4949,-1.43965,-0.0409821,-5.10357,0.246686,
2,1,0,1,0,16939.2,0.248496,0.248198,3.18539,9,0.0158227,10,0.000790607,-2.49684,-2.43073,-0.0242726,-3.02235,0.248198,
2,1,0,1,0,16939.2,0.249999,0.249696,3.18142,9,0.0158828,10,0.00079439,-2.49738,-2.68941,-0.0219379,-2.72522,0.249696,
2,1,0,1,0,16939.2,0.251503,0.251237,3.17564,9,0.0159428,10,0.000797838,-2.49817,-25.2847,-0.00233343,-0.289271,0.2512373,
2,1,0,1,0,16939.2,0.25299,0.252639,3.16562,9,0.016002,10,0.000799759,-2.49954,-1.62841,-0.0362317,-4.48395,0.252639,
2,1,0,1,0,16939.2,0.254494,0.25422,3.16013,9,0.0160618,10,0.000803369,-2.5003,-2.51029,-0.0235032,-2.90084,0.25422,
2,1,0,1,0,16939.3,0.25599,0.25571,3.15401,9,0.0161211,10,0.000806511,-2.50114,-1.9645,-0.030033,-3.70367,0.25571,
2,1,0,1,0,16939.3,0.257487,0.257157,3.14722,9,0.0161803,10,0.000809331,-2.50207,-1.69089,-0.0348928,-4.29295,0.257157,
2,1,0,1,0,16939.3,0.25899,0.25875,3.14886,9,0.0162398,10,0.000814768,-2.50185,-1.50666,-0.0391594,-4.80877,0.2587502,
2,1,0,1,0,16939.3,0.260479,0.260198,3.14533,9,0.0162986,10,0.00081841,-2.50233,-1.07828,-0.0547167,-6.71009,0.260198,
2,1,0,1,0,16939.3,0.261983,0.26168,3.13623,9,0.0163578,10,0.00082069,-2.50359,-1.01721,-0.0580015,-7.09542,0.26168,
2,1,0,1,0,16939.4,0.263486,0.263189,3.13163,9,0.0164169,10,0.000824208,-2.50423,-2.21933,-0.0265846,-3.24599,0.263189,
2,1,0,1,0,16939.4,0.264974,0.26473,3.13297,9,0.0164753,10,0.000829391,-2.50404,-1.53884,-0.0383406,-4.687,0.26473,
2,1,0,1,0,16939.4,0.266477,0.266163,3.12415,9,0.0165343,10,0.000831532,-2.50527,-1.24841,-0.04726,-5.75018,0.2661626,
2,1,0,1,0,16939.4,0.267981,0.267693,3.11353,9,0.0165931,10,0.000833472,-2.50675,-1.87159,-0.031524,-3.83064,0.267693,
2,1,0,1,0,16939.4,0.26947,0.269164,3.11247,9,0.0166511,10,0.000837764,-2.50689,-14.0194,-0.00420847,-0.510799,0.269164,
2,1,0,1,0,16939.4,0.270974,0.270667,3.11341,9,0.0167097,10,0.000842698,-2.50676,-6.94755,-0.0084922,-1.02742,0.270667,
2,1,0,1,0,16939.5,0.27247,0.272156,3.1034,9,0.016768,10,0.00084461,-2.50816,-3.18117,-0.0185466,-2.23805,0.272156,
2,1,0,1,0,16939.5,0.273967,0.273644,3.08896,9,0.0168262,10,0.000845277,-2.51019,-1.93101,-0.030554,-3.69071,0.273644,
2,1,0,1,0,16939.5,0.27547,0.275168,3.08136,9,0.0168844,10,0.000847892,-2.51126,-3.97708,-0.014835,-1.788,0.275168,
2,1,0,1,0,16939.5,0.276959,0.276635,3.07836,9,0.016942,10,0.000851581,-2.51168,-3.67155,-0.0160695,-1.93328,0.276635,
2,1,0,1,0,16939.5,0.278463,0.278183,3.07339,9,0.0170001,10,0.000854963,-2.51238,-1.92539,-0.0306431,-3.67596,0.278183,
2,1,0,1,0,16939.6,0.279967,0.279686,3.06618,9,0.0170581,10,0.000857565,-2.5134,-1.64094,-0.0359551,-4.3009,0.279686,
2,1,0,1,0,16939.6,0.281454,0.281114,3.05892,9,0.0171153,10,0.000859907,-2.51443,-1.71657,-0.0343709,-4.11086,0.2811141,
2,1,0,1,0,16939.6,0.282958,0.282731,3.05425,9,0.017173,10,0.000863531,-2.5151,-1.38928,-0.0424682,-5.06837,0.282731,
2,1,0,1,0,16939.6,0.284461,0.284176,3.05009,9,0.0172307,10,0.000866764,-2.51569,-1.6626,-0.0354865,-4.22527,0.2841762,
2,1,0,1,0,16939.6,0.28595,0.285638,3.04588,9,0.0172877,10,0.000870021,-2.51629,-1.09874,-0.0536979,-6.38044,0.285638,
2,1,0,1,0,16939.7,0.287454,0.28716,3.03522,9,0.0173451,10,0.000871592,-2.51781,-0.967129,-0.0610053,-7.23455,0.28716,
2,1,0,1,0,16939.7,0.28895,0.288627,3.03158,9,0.0174021,10,0.000874995,-2.51833,-2.07601,-0.0284199,-3.36348,0.288627,
2,1,0,1,0,16939.7,0.290447,0.290154,3.03189,9,0.0174589,10,0.000879716,-2.51829,-1.16629,-0.0505877,-5.98166,0.290154,
2,1,0,1,0,16939.7,0.29195,0.291645,3.0255,9,0.017516,10,0.000882372,-2.5192,-1.77575,-0.0332253,-3.91841,0.2916452,
2,1,0,1,0,16939.7,0.29344,0.293107,3.01751,9,0.0175724,10,0.000884452,-2.52035,-2.80641,-0.0210233,-2.47277,0.293107,
2,1,0,1,0,16939.7,0.294943,0.29469,3.01456,9,0.0176292,10,0.000888359,-2.52078,-4.55074,-0.0129649,-1.52495,0.29469,
2,1,0,1,0,16939.8,0.296447,0.296125,3.00879,9,0.017686,10,0.000890975,-2.52161,-14.5376,-0.00405843,-0.475874,0.296125,
2,1,0,1,0,16939.8,0.297934,0.297659,2.99853,9,0.0177421,10,0.000892538,-2.52309,-4.08794,-0.0144327,-1.69076,0.297659,
2,1,0,1,0,16939.8,0.299438,0.2991,2.98329,9,0.0177986,10,0.000892301,-2.5253,-0.0230427,-2.56046,-267.692,0.2991,
2,1,0,1,0,16939.8,0.300012,0.299708,3.00826,9,0.0178196,10,0.0009016,-2.52168,0.00103238,57.1493,3320.98,0.299708,
2,1,0,1,0,16939.8,0.298737,0.298486,1.01423,9,0.0178482,10,0.000302733,-2.99386,0.0026834,21.987,965.39,0.298486,
2,1,0,1,0,16939.8,0.29724,0.296925,0.0183596,9,0.0178564,10,5.45142e-06,-4.73614,0.0095,6.21053,529.89,0.296925,
2,0,0,1,0,16939.9,0.295744,0.295492,-0.480434,9,0.0178515,10,-0.000141965,-3.31837,-0.00828321,-7.12285,273.517,0.295492,
2,0,0,1,0,16939.9,0.29424,0.29393,-0.765609,9,0.0178393,10,-0.000225035,-3.11599,-0.00903044,-6.53346,157.101,0.29393,
2,0,0,1,0,16939.9,0.292751,0.292423,-0.944005,9,0.0178231,10,-0.000276049,-3.02503,-0.0200912,-2.93661,101.016,0.292423,
2,0,0,1,0,16939.9,0.291248,0.290942,-1.07305,9,0.017804,10,-0.000312194,-2.96938,-0.0305347,-1.93223,77.7391,0.290942,
2,0,0,1,0,16939.9,0.289744,0.289438,-1.16827,9,0.0177828,10,-0.000338142,-2.93246,-0.0443216,-1.33118,59.2078,0.289438,
2,0,0,1,0,16940,0.288257,0.287918,-1.24288,9,0.0177602,10,-0.000357848,-2.90557,-0.0589723,-1.00047,47.6995,0.2879177,
2,0,0,1,0,16940,0.286753,0.286433,-1.30202,9,0.0177361,10,-0.000372942,-2.88538,-0.0713709,-0.826668,41.8777,0.286433,
2,0,0,1,0,16940,0.285249,0.284937,-1.35758,9,0.0177109,10,-0.000386826,-2.86723,-0.0809901,-0.728484,38.5697,0.284937,
2,0,0,1,0,16940,0.28376,0.283509,-1.40715,9,0.017685,10,-0.000398939,-2.85166,-0.0934448,-0.631389,34.6273,0.283509,
2,0,0,1,0,16940,0.282257,0.281922,-1.45426,9,0.0176578,10,-0.000409989,-2.83736,-0.110128,-0.53574,30.3061,0.281922,
2,0,0,1,0,16940.1,0.28076,0.280423,-1.49322,9,0.0176299,10,-0.000418733,-2.82588,-0.125739,-0.469225,27.3432,0.280423,
2,0,0,1,0,16940.1,0.279264,0.278939,-1.53341,9,0.0176014,10,-0.000427729,-2.81434,-0.141438,-0.417143,25.0368,0.278939,
2,0,0,1,0,16940.1,0.27776,0.277492,-1.57186,9,0.017572,10,-0.000436178,-2.80359,-0.159597,-0.36968,22.6693,0.2774916,
2,0,0,1,0,16940.1,0.276271,0.275955,-1.60757,9,0.0175422,10,-0.000443618,-2.79383,-0.174869,-0.337395,21.1462,0.275955,
2,0,0,1,0,16940.1,0.274767,0.274474,-1.64072,9,0.0175114,10,-0.000450333,-2.78497,-0.218799,-0.269654,17.2445,0.274474,
2,0,0,1,0,16940.1,0.273264,0.272944,-1.66829,9,0.0174801,10,-0.000455348,-2.77773,-0.18908,-0.312037,20.3287,0.272944,
2,0,0,1,0,16940.2,0.271776,0.271447,-1.7036,9,0.0174486,10,-0.000462436,-2.76863,-0.194056,-0.304036,20.1764,0.271447,
2,0,0,1,0,16940.2,0.270273,0.269971,-1.73665,9,0.0174161,10,-0.000468846,-2.76029,-0.204738,-0.288173,19.4471,0.269971,
2,0,0,1,0,16940.2,0.268769,0.268447,-1.76246,9,0.017383,10,-0.000473129,-2.75388,-0.265241,-0.222439,15.2727,0.268447,
2,0,0,1,0,16940.2,0.26728,0.26698,-1.78256,9,0.0173499,10,-0.000475907,-2.74896,-0.22141,-0.266473,18.5794,0.26698,
2,0,0,1,0,16940.2,0.265777,0.265497,-1.81429,9,0.0173159,10,-0.000481689,-2.74129,-0.243702,-0.242099,17.115,0.265497,
2,0,0,1,0,16940.3,0.26428,0.263929,-1.84032,9,0.0172817,10,-0.000485712,-2.73511,-0.217442,-0.271337,19.4163,0.263929,
2,0,0,1,0,16940.3,0.262784,0.262456,-1.86392,9,0.0172469,10,-0.000489196,-2.72957,-0.256949,-0.229617,16.6295,0.262456,
2,0,0,1,0,16940.3,0.26128,0.260979,-1.87803,9,0.0172115,10,-0.000490127,-2.7263,-0.265768,-0.221998,16.3154,0.260979,
2,0,0,1,0,16940.3,0.259791,0.259436,-1.89805,9,0.0171762,10,-0.000492424,-2.72169,-0.254122,-0.232172,17.3164,0.259436,
2,0,0,1,0,16940.3,0.258287,0.257986,-1.92544,9,0.01714,10,-0.000496738,-2.71547,-0.241516,-0.24429,18.3763,0.257986,
2,0,0,1,0,16940.4,0.256786,0.256483,-1.94611,9,0.0171033,10,-0.000499144,-2.71083,-0.316025,-0.186694,14.1601,0.256483,
2,0,0,1,0,16940.4,0.255296,0.254974,-1.96638,9,0.0170666,10,-0.000501376,-2.70633,-0.392189,-0.150438,11.5614,0.254974,
2,0,0,1,0,16940.4,0.253793,0.253487,-1.98091,9,0.0170293,10,-0.000502133,-2.70314,-0.451349,-0.130719,10.148,0.253487,
2,0,0,1,0,16940.4,0.252289,0.251972,-2.00645,9,0.0169915,10,-0.000505569,-2.69757,-0.371533,-0.158802,12.4477,0.251972,
2,0,0,1,0,16940.4,0.2508,0.250486,-2.03345,9,0.0169537,10,-0.000509352,-2.69177,-0.416163,-0.141772,11.2216,0.250486,
2,0,0,1,0,16940.4,0.249296,0.248995,-2.05397,9,0.0169152,10,-0.000511427,-2.68741,-0.529817,-0.111359,8.90435,0.2489949,
2,0,0,1,0,16940.5,0.2478,0.24749,-2.0669,9,0.0168765,10,-0.000511536,-2.68468,-0.438367,-0.13459,10.8751,0.24749,
2,0,0,1,0,16940.5,0.246304,0.246008,-2.08602,9,0.0168375,10,-0.000513179,-2.68068,-0.356577,-0.165462,13.4645,0.2460081,
2,0,0,1,0,16940.5,0.2448,0.244449,-2.1119,9,0.0167979,10,-0.000516253,-2.67533,-0.357071,-0.165233,13.5644,0.244449,
2,0,0,1,0,16940.5,0.243313,0.243005,-2.12888,9,0.0167584,10,-0.000517327,-2.67185,-0.465821,-0.126658,10.4914,0.243005,
2,0,0,1,0,16940.5,0.241809,0.241518,-2.13953,9,0.0167181,10,-0.000516734,-2.66968,-0.419286,-0.140715,11.7594,0.241518,
2,0,0,1,0,16940.6,0.240306,0.239997,-2.16094,9,0.0166776,10,-0.000518619,-2.66536,-0.358961,-0.164363,13.8472,0.239997,
2,0,0,1,0,16940.6,0.238816,0.238506,-2.17764,9,0.0166371,10,-0.00051938,-2.66201,-0.348979,-0.169065,14.3236,0.238506,
2,0,0,1,0,16940.6,0.237313,0.237043,-2.19317,9,0.0165958,10,-0.000519874,-2.65893,-0.427875,-0.137891,11.7773,0.237043,
2,0,0,1,0,16940.6,0.235809,0.235466,-2.20286,9,0.0165542,10,-0.000518699,-2.65701,-0.416649,-0.141606,12.2124,0.235466,
2,0,0,1,0,16940.6,0.23432,0.234007,-2.22245,9,0.0165128,10,-0.000520069,-2.65317,-0.418643,-0.140932,12.2596,0.234007,
2,0,0,1,0,16940.7,0.232816,0.232497,-2.23866,9,0.0164706,10,-0.000520483,-2.65001,-0.512136,-0.115204,10.0737,0.232497,
2,0,0,1,0,16940.7,0.23132,0.230995,-2.25645,9,0.0164283,10,-0.000521228,-2.64657,-0.574126,-0.102765,9.07244,0.230995,
2,0,0,1,0,16940.7,0.229824,0.229478,-2.27542,9,0.0163857,10,-0.00052216,-2.64294,-0.719221,-0.0820333,7.28312,0.229478,
2,0,0,1,0,16940.7,0.22832,0.227987,-2.28851,9,0.0163426,10,-0.000521751,-2.64045,-0.69886,-0.0844232,7.5521,0.2279873,
2,0,0,1,0,16940.7,0.226833,0.226527,-2.31188,9,0.0162996,10,-0.000523704,-2.63603,-0.453945,-0.129972,11.7078,0.226527,
2,0,0,1,0,16940.7,0.225329,0.225032,-2.33193,9,0.0162558,10,-0.000524761,-2.63228,-0.628308,-0.093903,8.51734,0.225032,
2,0,0,1,0,16940.8,0.223825,0.223502,-2.34314,9,0.0162117,10,-0.000523698,-2.6302,-0.580852,-0.101575,9.28158,0.223502,
2,0,0,1,0,16940.8,0.222336,0.221997,-2.3566,9,0.0161679,10,-0.000523158,-2.62771,-0.591834,-0.0996902,9.17224,0.221997,
2,0,0,1,0,16940.8,0.220833,0.220522,-2.37528,9,0.0161233,10,-0.000523801,-2.62429,-0.43497,-0.135642,12.5521,0.220522,
2,0,0,1,0,16940.8,0.219329,0.218994,-2.39409,9,0.0160784,10,-0.000524293,-2.62086,-0.434838,-0.135683,12.6475,0.218994,
2,0,0,1,0,16940.8,0.21784,0.21755,-2.40884,9,0.0160335,10,-0.000524045,-2.61819,-0.495665,-0.119032,11.1666,0.21755,
2,0,0,1,0,16940.9,0.216336,0.216024,-2.41805,9,0.015988,10,-0.000522358,-2.61653,-0.466482,-0.126479,11.9503,0.216024,
2,0,0,1,0,16940.9,0.21484,0.214509,-2.43849,9,0.0159424,10,-0.000523078,-2.61288,-0.472701,-0.124815,11.8996,0.214509,
2,0,0,1,0,16940.9,0.213343,0.213011,-2.45089,9,0.0158965,10,-0.000522066,-2.61068,-0.406113,-0.14528,13.9013,0.213011,
2,0,0,1,0,16940.9,0.21184,0.211521,-2.46628,9,0.01585,10,-0.000521671,-2.60796,-0.522542,-0.11291,10.8736,0.211521,
2,0,0,1,0,16940.9,0.210352,0.210015,-2.47954,9,0.0158037,10,-0.000520741,-2.60563,-0.453102,-0.130213,12.6291,0.210015,
2,0,0,1,0,16941,0.208849,0.208518,-2.49699,9,0.0157567,10,-0.000520666,-2.60258,-0.464696,-0.126965,12.4359,0.208518,
2,0,0,1,0,16941,0.207345,0.207044,-2.51306,9,0.0157093,10,-0.000520314,-2.5998,-0.461411,-0.127869,12.5776,0.207044,
2,0,0,1,0,16941,0.205856,0.205535,-2.54307,9,0.0156619,10,-0.00052269,-2.59464,-0.625532,-0.0943198,9.33836,0.205535,
2,0,0,1,0,16941,0.204353,0.203972,-2.55896,9,0.0156138,10,-0.000521956,-2.59194,-0.971958,-0.0607022,6.05732,0.203972,
2,0,0,1,0,16941,0.202849,0.202539,-2.56966,9,0.0155654,10,-0.000520457,-2.59012,-0.716848,-0.0823048,8.26818,0.202539,
2,0,0,1,0,16941,0.20136,0.200981,-2.59435,9,0.0155172,10,-0.000521414,-2.58597,-0.550078,-0.107257,10.8541,0.200981,
2,0,0,1,0,16941.1,0.199856,0.199568,-2.61397,9,0.0154682,10,-0.000521666,-2.5827,-0.568029,-0.103868,10.5665,0.199568,
2,0,0,1,0,16941.1,0.19836,0.19803,-2.63013,9,0.015419,10,-0.000520844,-2.58002,-0.532686,-0.110759,11.3478,0.19803,
2,0,0,1,0,16941.1,0.196863,0.196547,-2.64827,9,0.0153696,10,-0.000520509,-2.57704,-0.424544,-0.138973,14.3521,0.196547,
2,0,0,1,0,16941.1,0.19536,0.195037,-2.6676,9,0.0153196,10,-0.00052028,-2.57388,-0.370562,-0.159217,16.5597,0.195037,
2,0,0,1,0,16941.1,0.193872,0.193529,-2.68883,9,0.0152697,10,-0.000520366,-2.57044,-0.339597,-0.173735,18.1919,0.193529,
2,0,0,1,0,16941.2,0.192369,0.192032,-2.70567,9,0.0152188,10,-0.000519574,-2.56773,-0.43832,-0.134605,14.1741,0.192032,
2,0,0,1,0,16941.2,0.190865,0.190561,-2.72217,9,0.0151675,10,-0.00051874,-2.56509,-0.412147,-0.143153,15.2312,0.190561,
2,0,0,1,0,16941.2,0.189376,0.18908,-2.73939,9,0.0151165,10,-0.000517963,-2.56235,-0.428798,-0.137594,14.7554,0.18908,
2,0,0,1,0,16941.2,0.187872,0.187582,-2.76163,9,0.0150645,10,-0.000518032,-2.55883,-0.380434,-0.155086,16.7492,0.187582,
2,0,0,1,0,16941.2,0.186369,0.186036,-2.78213,9,0.0150121,10,-0.000517578,-2.55562,-0.464971,-0.12689,13.7945,0.186036,
2,0,0,1,0,16941.3,0.18488,0.184525,-2.8123,9,0.0149598,10,-0.000518941,-2.55094,-0.481751,-0.12247,13.4448,0.184525,
2,0,0,1,0,16941.3,0.183376,0.183056,-2.82743,9,0.0149066,10,-0.000517579,-2.54861,-0.46612,-0.126577,14.006,0.1830564,
2,0,0,1,0,16941.3,0.18188,0.181598,-2.85938,9,0.0148532,10,-0.000519259,-2.54373,-0.382858,-0.154104,17.2039,0.1815985,
2,0,0,1,0,16941.3,0.180383,0.180069,-2.89153,9,0.0147992,10,-0.000520675,-2.53887,-0.38616,-0.152786,17.2053,0.180069,
2,0,0,1,0,16941.3,0.17888,0.178536,-2.91628,9,0.0147445,10,-0.000520663,-2.53517,-0.456986,-0.129107,14.6891,0.178536,
2,0,0,1,0,16941.3,0.177392,0.177073,-2.94009,9,0.0146898,10,-0.000520611,-2.53164,-0.370664,-0.159174,18.2835,0.177073,
2,0,0,1,0,16941.4,0.175889,0.175553,-2.97714,9,0.0146341,10,-0.000522645,-2.5262,-0.341459,-0.172788,20.0389,0.175553,
2,0,0,1,0,16941.4,0.174385,0.174026,-3.00667,9,0.0145777,10,-0.000523238,-2.52191,-0.30175,-0.195526,22.946,0.174026,
2,0,0,1,0,16941.4,0.172896,0.172555,-3.04249,9,0.0145213,10,-0.000524997,-2.51677,-0.296941,-0.198693,23.5395,0.172555,
2,0,0,1,0,16941.4,0.171392,0.171067,-3.07355,9,0.0144637,10,-0.000525782,-2.51236,-0.276096,-0.213694,25.6665,0.171067,
2,0,0,1,0,16941.4,0.169889,0.169567,-3.11005,9,0.0144054,10,-0.000527361,-2.50723,-0.248989,-0.236958,28.804,0.169567,
2,0,0,1,0,16941.5,0.1684,0.16807,-3.16085,9,0.0143469,10,-0.000531243,-2.5002,-0.23142,-0.254947,31.4044,0.16807,
2,0,0,1,0,16941.5,0.166896,0.16658,-3.19882,9,0.014287,10,-0.000532859,-2.49501,-0.239719,-0.246122,30.7072,0.16658,
2,0,0,1,0,16941.5,0.165392,0.165044,-3.24029,9,0.0142263,10,-0.00053479,-2.48942,-0.215581,-0.273679,34.643,0.165044,
2,0,0,1,0,16941.5,0.163905,0.163573,-3.28409,9,0.0141653,10,-0.000537189,-2.48359,-0.218739,-0.269728,34.7247,0.163573,
2,0,0,1,0,16941.5,0.162401,0.162085,-3.3417,9,0.0141027,10,-0.000541638,-2.47603,-0.200346,-0.29449,38.5428,0.162085,
2,0,0,1,0,16941.6,0.160905,0.160592,-3.40347,9,0.0140394,10,-0.000546569,-2.46808,-0.200361,-0.294468,39.1423,0.160592,
2,0,0,1,0,16941.6,0.159409,0.159049,-3.4668,9,0.0139749,10,-0.000551389,-2.46007,-0.190365,-0.30993,41.9723,0.159049,
2,0,0,1,0,16941.6,0.157905,0.157553,-3.53386,9,0.0139089,10,-0.000556772,-2.45175,-0.176704,-0.333891,46.1793,0.157553,
2,0,0,1,0,16941.6,0.156416,0.156103,-3.61047,9,0.0138423,10,-0.000563606,-2.44244,-0.161105,-0.36622,51.667,0.156103,
2,0,0,1,0,16941.6,0.154912,0.154573,-3.70458,9,0.0137734,10,-0.000572629,-2.43126,-0.14875,-0.396638,57.2906,0.154573,
2,0,0,1,0,16941.6,0.153409,0.153089,-3.79139,9,0.0137028,10,-0.000580421,-2.4212,-0.147317,-0.400497,59.2581,0.153089,
2,0,0,1,0,16941.7,0.151919,0.15153,-3.88561,9,0.0136313,10,-0.000588785,-2.41054,-0.135043,-0.436898,66.3896,0.15153,
2,0,0,1,0,16941.7,0.150416,0.150146,-3.99237,9,0.0135571,10,-0.00059944,-2.39877,-0.118178,-0.499246,77.9038,0.150146,
2,0,0,1,0,16941.7,0.148912,0.148592,-4.11964,9,0.0134808,10,-0.000612143,-2.38514,-0.108779,-0.542384,87.2779,0.148592,
2,0,0,1,0,16941.7,0.147425,0.147079,-4.25184,9,0.0134029,10,-0.000625355,-2.37142,-0.105737,-0.557991,92.5776,0.147079,
2,0,0,1,0,16941.7,0.145921,0.145611,-4.38125,9,0.0133215,10,-0.000637958,-2.3584,-0.0985162,-0.598886,102.816,0.145611,
2,0,0,1,0,16941.8,0.144425,0.144153,-4.54494,9,0.0132378,10,-0.00065517,-2.34247,-0.0930123,-0.634325,112.877,0.144153,
2,0,0,1,0,16941.8,0.142929,0.142585,-4.72251,9,0.013151,10,-0.00067336,-2.32583,-0.0901969,-0.654124,120.654,0.142585,
2,0,0,1,0,16941.8,0.141425,0.141108,-4.90571,9,0.0130602,10,-0.000692232,-2.3093,-0.0872542,-0.676185,129.546,0.141108,
2,0,0,1,0,16941.8,0.139936,0.139583,-5.0997,9,0.0129669,10,-0.000711833,-2.29246,-0.0890996,-0.662181,132.052,0.139583,
2,0,0,1,0,16941.8,0.138432,0.138103,-5.3037,9,0.0128689,10,-0.000732456,-2.27542,-0.0880949,-0.669732,138.953,0.138103,
2,0,0,1,0,16941.8,0.136929,0.136618,-5.5215,9,0.0127668,10,-0.000754337,-2.25794,-0.0858616,-0.687152,148.373,0.136618,
2,0,0,1,0,16941.9,0.135439,0.135124,-5.75869,9,0.0126617,10,-0.000778139,-2.23968,-0.0867937,-0.679773,152.634,0.135124,
2,0,0,1,0,16941.9,0.133936,0.133611,-5.99497,9,0.012551,10,-0.000800993,-2.22221,-0.090958,-0.648651,151.337,0.133611,
2,0,0,1,0,16941.9,0.132432,0.132121,-6.22163,9,0.012436,10,-0.000822007,-2.2061,-0.0935146,-0.630918,153.102,0.132121,
2,0,0,1,0,16941.9,0.130945,0.130647,-6.4518,9,0.0123181,10,-0.000842911,-2.19032,-0.0945093,-0.624277,157.117,0.130647,
2,0,0,1,0,16941.9,0.129441,0.129147,-6.69603,9,0.0121944,10,-0.000864775,-2.17418,-0.0990178,-0.595853,155.347,0.129147,
2,0,0,1,0,16942,0.127945,0.127615,-6.92547,9,0.0120668,10,-0.000883797,-2.15955,-0.107007,-0.551366,148.704,0.127615,
2,0,0,1,0,16942,0.126448,0.126129,-7.14127,9,0.0119351,10,-0.000900723,-2.14622,-0.11373,-0.51877,144.33,0.126129,
2,0,0,1,0,16942,0.124945,0.124622,-7.35412,9,0.0117987,10,-0.000916483,-2.13347,-0.120477,-0.48972,140.332,0.124622,
2,0,0,1,0,16942,0.123456,0.123151,-7.55948,9,0.0116598,10,-0.000930957,-2.12151,-0.127599,-0.462385,136.036,0.123151,
2,0,0,1,0,16942,0.121952,0.121671,-7.74682,9,0.0115158,10,-0.00094256,-2.11088,-0.144445,-0.408461,123.178,0.121671,
2,0,0,1,0,16942.1,0.120449,0.120166,-7.9142,9,0.0113682,10,-0.000951016,-2.10159,-0.156887,-0.376066,116.099,0.120166,
2,0,0,1,0,16942.1,0.118959,0.118608,-8.08332,9,0.0112192,10,-0.000958749,-2.09241,-0.172959,-0.341121,107.513,0.118608,
2,0,0,1,0,16942.1,0.117456,0.117121,-8.22978,9,0.0110656,10,-0.00096388,-2.08461,-0.186254,-0.316771,101.684,0.117121,
2,0,0,1,0,16942.1,0.115952,0.115602,-8.37399,9,0.0109091,10,-0.000968049,-2.07707,-0.217807,-0.270881,88.3425,0.115602,
2,0,0,1,0,16942.1,0.114465,0.114157,-8.49866,9,0.0107518,10,-0.000970178,-2.07065,-0.25628,-0.230217,76.31,0.114157,
2,0,0,1,0,16942.1,0.112961,0.112687,-8.60994,9,0.0105908,10,-0.000970227,-2.065,-0.291482,-0.202414,67.9879,0.112687,
2,0,0,1,0,16942.2,0.111465,0.1112,-8.71107,9,0.0104285,10,-0.000968667,-2.05993,-0.335978,-0.175607,59.6198,0.1112,
2,0,0,1,0,16942.2,0.109968,0.109655,-8.79885,9,0.0102646,10,-0.000964835,-2.05557,-0.403906,-0.146073,50.0973,0.109655,
2,0,0,1,0,16942.2,0.108465,0.108179,-8.87684,9,0.0100982,10,-0.000960284,-2.05174,-0.516302,-0.114274,39.4927,0.108179,
2,0,0,1,0,16942.2,0.106976,0.106671,-8.92927,9,0.00993247,10,-0.000952494,-2.04918,-0.710836,-0.0830008,28.8759,0.106671,
2,0,0,1,0,16942.2,0.105472,0.105129,-8.97649,9,0.00976406,10,-0.000943686,-2.04689,-0.81701,-0.0722146,25.2529,0.105129,
2,0,0,1,0,16942.3,0.103968,0.103662,-9.00873,9,0.0095949,10,-0.00093386,-2.04534,-1.29278,-0.0456379,16.0115,0.103662,
2,0,0,1,0,16942.3,0.102479,0.102165,-9.02812,9,0.00942705,10,-0.000922358,-2.0444,-3.5941,-0.0164158,5.76767,0.102165,
2,0,0,1,0,16942.3,0.100976,0.100705,-9.01301,9,0.00925733,10,-0.000907651,-2.04513,5.86908,0.0100527,-3.53291,0.100705,
2,0,0,1,0,16942.3,0.0994721,0.0991462,-8.99749,9,0.00908782,10,-0.000892067,-2.04588,2.04377,0.0288682,-10.1299,0.0991462,
2,0,0,1,0,16942.3,0.0979846,0.097656,-8.97507,9,0.00892045,10,-0.000876469,-2.04696,1.09954,0.053659,-18.7654,0.097656,
2,0,0,1,0,16942.4,0.0964811,0.0961672,-8.932,9,0.00875183,10,-0.000858965,-2.04905,0.697173,0.0846275,-29.4631,0.0961672,
2,0,0,1,0,16942.4,0.0949847,0.0946453,-8.87769,9,0.008585,10,-0.000840231,-2.0517,0.553828,0.106531,-36.8959,0.0946453,
2,0,0,1,0,16942.4,0.0934883,0.0931456,-8.80707,9,0.0084194,10,-0.00082034,-2.05517,0.45195,0.130545,-44.8999,0.0931456,
2,0,0,1,0,16942.4,0.0919847,0.0916851,-8.7336,9,0.00825417,10,-0.000800741,-2.05881,0.396928,0.148641,-50.6802,0.0916851,
2,0,0,1,0,16942.4,0.0904955,0.0901867,-8.66342,9,0.00809204,10,-0.000781326,-2.06231,0.336912,0.17512,-59.1336,0.0901867,
2,0,0,1,0,16942.4,0.0889919,0.0886713,-8.57644,9,0.00792981,10,-0.000760484,-2.06669,0.297088,0.198594,-66.3936,0.0886713,
2,0,0,1,0,16942.5,0.0874884,0.087173,-8.46761,9,0.00776942,10,-0.000738147,-2.07224,0.294026,0.200662,-66.3415,0.087173,
2,0,0,1,0,16942.5,0.0860009,0.0856746,-8.37569,9,0.0076126,10,-0.000717584,-2.07698,0.289013,0.204143,-66.718,0.0856746,
2,0,0,1,0,16942.5,0.0844974,0.0841357,-8.28349,9,0.00745585,10,-0.000696937,-2.08179,0.29508,0.199946,-64.603,0.0841357,
2,0,0,1,0,16942.5,0.0829938,0.0826888,-8.18925,9,0.00730091,10,-0.000677159,-2.08676,0.287179,0.205447,-65.6326,0.0826888,
2,0,0,1,0,16942.5,0.0815045,0.0811601,-8.09,9,0.00714942,10,-0.000656585,-2.09205,0.298334,0.197765,-62.4802,0.0811601,
2,0,0,1,0,16942.6,0.080001,0.0797139,-8.00537,9,0.00699802,10,-0.000638139,-2.09662,0.350417,0.168371,-52.6171,0.0797139,
2,0,0,1,0,16942.6,0.0785046,0.078163,-7.93197,9,0.00684892,10,-0.000619987,-2.10062,0.365639,0.161361,-49.9339,0.078163,
2,0,0,1,0,16942.6,0.0770082,0.0767043,-7.85192,9,0.00670128,10,-0.000602276,-2.10502,0.368273,0.160207,-49.0941,0.0767043,
2,0,0,1,0,16942.6,0.0755046,0.0751783,-7.76924,9,0.00655424,10,-0.000584078,-2.10962,0.413959,0.142526,-43.2866,0.07517831,
2,0,0,1,0,16942.6,0.0740154,0.0737195,-7.70875,9,0.00641012,10,-0.000568285,-2.11302,0.470805,0.125317,-37.7404,0.0737195,
2,0,0,1,0,16942.7,0.0725118,0.0722038,-7.64824,9,0.00626558,10,-0.000552231,-2.11644,0.529307,0.111466,-33.3052,0.0722038,
2,0,0,1,0,16942.7,0.0710083,0.0706938,-7.60105,9,0.006122,10,-0.000537347,-2.11913,0.529457,0.111435,-33.0327,0.0706938,
2,0,0,1,0,16942.7,0.0695208,0.0692214,-7.54326,9,0.00598093,10,-0.000522155,-2.12244,0.528097,0.111722,-32.9329,0.06922137,
2,0,0,1,0,16942.7,0.0680173,0.067676,-7.49679,9,0.00583937,10,-0.000507352,-2.12512,0.580017,0.101721,-29.8147,0.06767597,
2,0,0,1,0,16942.7,0.0665137,0.0661527,-7.45356,9,0.00569859,10,-0.000493073,-2.12764,0.589553,0.100076,-29.1189,0.0661527,
2,0,0,1,0,16942.7,0.0650244,0.064668,-7.41455,9,0.00556006,10,-0.000479484,-2.12992,0.552405,0.106806,-30.9117,0.064668,
2,0,0,1,0,16942.8,0.0635209,0.0632126,-7.37598,9,0.00542081,10,-0.000466255,-2.13218,0.547696,0.107724,-30.9934,0.0632126,
2,0,0,1,0,16942.8,0.0620245,0.0616854,-7.33369,9,0.00528315,10,-0.000452382,-2.13468,0.576696,0.102307,-29.3004,0.0616854,
2,0,0,1,0,16942.8,0.0605281,0.0602173,-7.30031,9,0.00514623,10,-0.000439605,-2.13666,0.654104,0.0901998,-25.6721,0.0602173,
2,0,0,1,0,16942.8,0.0590246,0.0586913,-7.26367,9,0.00500923,10,-0.000426314,-2.13884,0.6318,0.093384,-26.4442,0.0586913,
2,0,0,1,0,16942.8,0.0575353,0.0572478,-7.22943,9,0.00487441,10,-0.000413869,-2.1409,0.580775,0.101588,-28.6158,0.0572478,
2,0,0,1,0,16942.9,0.0560317,0.0556809,-7.17455,9,0.00473892,10,-0.000399486,-2.14421,0.652785,0.090382,-25.3175,0.0556809,
2,0,0,1,0,16942.9,0.0545282,0.0541829,-7.14059,9,0.00460421,10,-0.000386898,-2.14627,0.788556,0.0748203,-20.8551,0.0541829,
2,0,0,1,0,16942.9,0.0530407,0.0526669,-7.10903,9,0.00447159,10,-0.00037441,-2.14819,0.731844,0.0806183,-22.3367,0.0526669,
2,0,0,1,0,16942.9,0.0515372,0.0511988,-7.06404,9,0.00433821,10,-0.000361671,-2.15095,0.644625,0.091526,-25.2227,0.0511988,
2,0,0,1,0,16942.9,0.0500336,0.0496879,-7.01143,9,0.00420563,10,-0.000348383,-2.15419,0.642398,0.0918434,-25.1646,0.0496879,
2,0,0,1,0,16943,0.0485444,0.048194,-6.97414,9,0.00407532,10,-0.000336111,-2.15651,0.62421,0.0945195,-25.7495,0.048194,
2,0,0,1,0,16943,0.0470408,0.0467501,-6.93775,9,0.00394431,10,-0.000324341,-2.15878,0.583948,0.101036,-27.3382,0.0467501,
2,0,0,1,0,16943,0.0455444,0.0451999,-6.89494,9,0.00381473,10,-0.000311651,-2.16147,0.51653,0.114224,-30.7228,0.0451999,
2,0,0,1,0,16943,0.044048,0.0436945,-6.84673,9,0.00368599,10,-0.000299164,-2.16452,0.488874,0.120685,-32.2655,0.0436945,
2,0,0,1,0,16943,0.0425445,0.0422111,-6.80138,9,0.00355746,10,-0.000287094,-2.1674,0.503431,0.117196,-31.1539,0.0422111,
2,0,0,1,0,16943,0.0410552,0.0407039,-6.76518,9,0.00343109,10,-0.000275369,-2.16972,0.518048,0.113889,-30.0688,0.0407039,
2,0,0,1,0,16943.1,0.0395517,0.0392348,-6.7246,9,0.00330411,10,-0.000263839,-2.17233,0.480386,0.122818,-32.199,0.0392348,
2,0,0,1,0,16943.1,0.0380481,0.0377106,-6.67877,9,0.00317797,10,-0.000251861,-2.1753,0.422775,0.139554,-36.3201,0.0377106,
2,0,0,1,0,16943.1,0.0365606,0.0362402,-6.62516,9,0.00305416,10,-0.000240097,-2.1788,0.445883,0.132322,-34.2115,0.0362402,
2,0,0,1,0,16943.1,0.0350571,0.0347343,-6.57876,9,0.00292998,10,-0.000228509,-2.18186,0.462935,0.127448,-32.6877,0.0347343,
2,0,0,1,0,16943.1,0.0335535,0.0332138,-6.51977,9,0.00280673,10,-0.000216546,-2.18577,0.409729,0.143998,-36.6464,0.03321382,
2,0,0,1,0,16943.2,0.0320643,0.0317216,-6.47159,9,0.00268575,10,-0.000205289,-2.18899,0.418629,0.140936,-35.5649,0.0317216,
2,0,0,1,0,16943.2,0.0305607,0.0302369,-6.41026,9,0.00256454,10,-0.000193826,-2.19312,0.402786,0.14648,-36.6471,0.0302369,
2,0,0,1,0,16943.2,0.0290643,0.0287766,-6.35534,9,0.00244502,10,-0.000182885,-2.19686,0.425072,0.1388,-34.4135,0.0287766,
2,0,0,1,0,16943.2,0.0275679,0.0272255,-6.29966,9,0.00232655,10,-0.000171511,-2.20068,0.420753,0.140225,-34.4605,0.0272255,
2,0,0,1,0,16943.2,0.0260644,0.025736,-6.24121,9,0.00220848,10,-0.000160624,-2.20473,0.373289,0.158055,-38.4572,0.025736,
2,0,0,1,0,16943.3,0.0245751,0.0242441,-6.17592,9,0.00209276,10,-0.00014973,-2.2093,0.356365,0.165561,-39.9378,0.0242441,
2,0,0,1,0,16943.3,0.0230716,0.0227567,-6.11584,9,0.00197702,10,-0.000139176,-2.21354,0.371853,0.158665,-37.9264,0.0227567,
2,0,0,1,0,16943.3,0.021568,0.0212829,-6.05821,9,0.00186232,10,-0.000128936,-2.21766,0.371161,0.158961,-37.6094,0.0212829,
2,0,0,1,0,16943.3,0.0200805,0.0197746,-6.00187,9,0.00174986,10,-0.000118685,-2.22171,0.353787,0.166767,-39.0645,0.0197746,
2,0,0,1,0,16943.3,0.018577,0.0182258,-5.94814,9,0.00163728,10,-0.00010841,-2.22562,0.33486,0.176193,-40.9228,0.0182258,
2,0,0,1,0,16943.3,0.0170735,0.0167268,-5.89205,9,0.00152583,10,-9.85553e-05,-2.22973,0.360102,0.163843,-37.7031,0.01672681,
2,0,0,1,0,16943.4,0.0155842,0.0152762,-5.84047,9,0.00141657,10,-8.92201e-05,-2.23355,0.384074,0.153616,-35.0244,0.0152762,
2,0,0,1,0,16943.4,0.0140806,0.0137144,-5.79693,9,0.00130698,10,-7.95016e-05,-2.2368,0.394484,0.149563,-33.8057,0.0137144,
2,0,0,1,0,16943.4,0.0125842,0.0123148,-5.75198,9,0.00119887,10,-7.08343e-05,-2.24018,0.375509,0.15712,-35.2302,0.0123148,
2,0,0,1,0,16943.4,0.0110878,0.0107876,-5.70088,9,0.00109175,10,-6.14987e-05,-2.24406,0.403133,0.146354,-32.563,0.0107876,
2,0,0,1,0,16943.4,0.00958429,0.00927696,-5.65956,9,0.000984904,10,-5.25035e-05,-2.24722,0.483445,0.122041,-26.9381,0.009276961,
2,0,0,1,0,16943.5,0.0080968,0.00774793,-5.61599,9,0.000879946,10,-4.35123e-05,-2.25057,0.541389,0.108979,-23.8944,0.00774793,
2,0,0,1,0,16943.5,0.00659326,0.00626594,-5.58671,9,0.000774562,10,-3.5006e-05,-2.25284,0.541934,0.108869,-23.6853,0.006265936,
2,0,0,1,0,16943.5,0.00508972,0.00479349,-5.53781,9,0.000669872,10,-2.65454e-05,-2.25666,0.664465,0.0887932,-19.2184,0.00479349,
2,0,0,1,0,16943.5,0.00360044,0.0032815,-5.50498,9,0.000566995,10,-1.80646e-05,-2.25924,1.899,0.0310689,-6.71011,0.0032815,
2,0,0,1,0,16943.5,0.0020969,0.001716,-5.53224,9,0.000463352,10,-9.49331e-06,-2.2571,1.68451,0.035025,-7.51167,0.001715997,
2,0,0,1,0,16943.6,0.000593362,0.000235707,-5.47913,9,0.000359569,10,-1.29147e-06,-2.26129, , , ,0.0002357073,
2,0,0,1,0,16943.6,0.000199195,-0.000166899,-5.48054,9,0.000332674,10,9.14696e-07,-2.26118, , , ,-0.000166899,