File: Figure_codes/Fig_3-5/rawdata_trumpetplot_data/after 10th/20221101_1-115_003_TrumpetPlot_ParaChange_from10_every3_12_CV_C01_5.csv
mode,ox/red,error,control changes,counter inc.,time/s,control/V,Ewe/V,<I>/mA,cycle number,(Q-Qo)/C,I Range,P/W,log(|I|),Tafel slope mV/dec,alpha_eff,dI/d(E-IR),E-IR/V,
2,1,0,1,0,11047.2,2.44065e-05,-0.000439847,18.9568,6,0.0000000E+000,10,-8.33808e-06,-1.72224, , , ,-0.000439847,
2,1,0,1,0,11047.2,0.00200257,0.00160356,19.9782,6,6.075e-05,10,3.20361e-05,-1.69944, , , ,0.00160356,
2,1,0,1,0,11047.2,0.004408,0.0040743,20.9485,6,0.000142791,10,8.53506e-05,-1.67885, , , ,0.004074303,
2,1,0,1,0,11047.2,0.0068051,0.00647188,21.7091,6,0.00022821,10,0.000140499,-1.66336,0.159167,0.370679,310.187,0.00647188,
2,1,0,1,0,11047.2,0.00920221,0.00883659,22.374,6,0.000316469,10,0.00019771,-1.65026,0.189636,0.311122,269.752,0.00883659,
2,1,0,1,0,11047.2,0.0115993,0.011266,22.9753,6,0.000407242,10,0.00025884,-1.63874,0.215387,0.273926,244.425,0.01126598,
2,1,0,1,0,11047.2,0.0140075,0.0136593,23.5341,6,0.000500329,10,0.00032146,-1.6283,0.242777,0.243021,222.239,0.0136593,
2,1,0,1,0,11047.2,0.0164046,0.0160855,24.0589,6,0.000595582,10,0.000387001,-1.61872,0.265801,0.22197,207.585,0.0160855,
2,1,0,1,0,11047.2,0.0188017,0.0185075,24.5233,6,0.000692817,10,0.000453864,-1.61042,0.291705,0.202259,193.003,0.0185075,
2,1,0,1,0,11047.2,0.0212099,0.0209136,24.978,6,0.000791871,10,0.00052238,-1.60244,0.322038,0.183208,178.053,0.0209136,
2,1,0,1,0,11047.2,0.023607,0.0232804,25.391,6,0.000892654,10,0.000591112,-1.59532,0.341128,0.172956,170.992,0.0232804,
2,1,0,1,0,11047.2,0.0260041,0.0256684,25.7652,6,0.000995016,10,0.000661352,-1.58897,0.364951,0.161665,162.456,0.0256684,
2,1,0,1,0,11047.2,0.0284012,0.0280745,26.1591,6,0.00109891,10,0.000734404,-1.58238,0.390505,0.151086,154.035,0.0280745,
2,1,0,1,0,11047.2,0.0308067,0.0304975,26.535,6,0.00120435,10,0.000809252,-1.57618,0.406733,0.145058,149.899,0.0304975,
2,1,0,1,0,11047.2,0.0332038,0.0328813,26.8699,6,0.00131118,10,0.000883517,-1.57073,0.426471,0.138345,144.959,0.0328813,
2,1,0,1,0,11047.2,0.0356009,0.0352715,27.2047,6,0.00141937,10,0.000959549,-1.56536,0.444794,0.132646,140.821,0.0352715,
2,1,0,1,0,11047.2,0.0380091,0.0376669,27.5497,6,0.0015289,10,0.00103771,-1.55988,0.450248,0.131039,140.813,0.0376669,
2,1,0,1,0,11047.2,0.0404062,0.0400581,27.8813,6,0.00163978,10,0.00111687,-1.55469,0.465641,0.126707,137.768,0.0400581,
2,1,0,1,0,11047.2,0.0428033,0.0424006,28.2103,6,0.00175201,10,0.00119613,-1.54959,0.477399,0.123586,136.015,0.0424006,
2,1,0,1,0,11047.2,0.0452032,0.0448639,28.5262,6,0.00186553,10,0.0012798,-1.54476,0.483361,0.122062,135.904,0.0448639,
2,1,0,1,0,11047.3,0.0476058,0.0473092,28.8612,6,0.00198036,10,0.0013654,-1.53969,0.492961,0.119685,134.795,0.0473092,
2,1,0,1,0,11047.3,0.0500029,0.0496644,29.1869,6,0.00209649,10,0.00144955,-1.53481,0.476803,0.123741,141.004,0.04966436,
2,1,0,1,0,11047.3,0.0524,0.0520884,29.5162,6,0.00221394,10,0.00153745,-1.52994,0.482371,0.122312,140.953,0.0520884,
2,1,0,1,0,11047.3,0.0548082,0.054468,29.8804,6,0.00233275,10,0.00162753,-1.52461,0.484759,0.12171,141.855,0.054468,
2,1,0,1,0,11047.3,0.0572053,0.0568486,30.2058,6,0.00245296,10,0.00171716,-1.51991,0.482302,0.12233,144.182,0.0568486,
2,1,0,1,0,11047.3,0.0596024,0.0592918,30.5526,6,0.00257449,10,0.00181152,-1.51495,0.490727,0.12023,143.413,0.0592918,
2,1,0,1,0,11047.3,0.0620051,0.0616544,30.8954,6,0.00269742,10,0.00190484,-1.51011,0.478554,0.123288,148.747,0.06165437,
2,1,0,1,0,11047.3,0.0644077,0.0640763,31.2584,6,0.00282177,10,0.00200292,-1.50503,0.476315,0.123868,151.149,0.0640763,
2,1,0,1,0,11047.3,0.0668048,0.0664538,31.6345,6,0.00294759,10,0.00210223,-1.49984,0.476641,0.123783,152.765,0.0664538,
2,1,0,1,0,11047.3,0.0692019,0.0688142,31.9919,6,0.00307487,10,0.0022015,-1.49496,0.476379,0.123851,154.632,0.06881424,
2,1,0,1,0,11047.3,0.0716074,0.07125,32.3613,6,0.0032036,10,0.00230574,-1.48997,0.479905,0.122941,155.32,0.07125,
2,1,0,1,0,11047.3,0.0740045,0.0736338,32.7363,6,0.00333382,10,0.0024105,-1.48497,0.475938,0.123966,158.416,0.0736338,
2,1,0,1,0,11047.3,0.0764016,0.0760208,33.1204,6,0.00346557,10,0.00251784,-1.4799,0.467115,0.126307,163.345,0.07602077,
2,1,0,1,0,11047.3,0.0788042,0.0783865,33.5083,6,0.00359886,10,0.0026266,-1.47485,0.470914,0.125288,163.896,0.07838653,
2,1,0,1,0,11047.3,0.0812069,0.0808244,33.9252,6,0.00373378,10,0.00274199,-1.46948,0.469969,0.12554,166.143,0.0808244,
2,1,0,1,0,11047.3,0.083604,0.0832633,34.3145,6,0.00387028,10,0.00285714,-1.46452,0.471347,0.125173,167.625,0.0832633,
2,1,0,1,0,11047.3,0.0860011,0.0856079,34.7133,6,0.00400837,10,0.00297173,-1.4595,0.477688,0.123512,167.367,0.0856079,
2,1,0,1,0,11047.3,0.0884065,0.0880702,35.1315,6,0.00414812,10,0.00309404,-1.4543,0.478618,0.123272,168.946,0.0880702,
2,1,0,1,0,11047.3,0.0908036,0.0904126,35.53,6,0.00428949,10,0.00321236,-1.44941,0.492406,0.11982,166.044,0.0904126,
2,1,0,1,0,11047.3,0.0932007,0.0928409,35.9326,6,0.00443247,10,0.00333602,-1.44451,0.502373,0.117443,164.607,0.0928409,
2,1,0,1,0,11047.3,0.0956034,0.0952565,36.3154,6,0.00457701,10,0.00345928,-1.43991,0.491996,0.11992,170.083,0.09525653,
2,1,0,1,0,11047.3,0.098006,0.0976414,36.707,6,0.00472311,10,0.00358412,-1.43525,0.490124,0.120378,172.673,0.0976414,
2,1,0,1,0,11047.3,0.100403,0.10003,37.1658,6,0.0048709,10,0.00371771,-1.42986,0.475805,0.124,179.893,0.10003,
2,1,0,1,0,11047.3,0.1028,0.102437,37.5895,6,0.00502044,10,0.00385054,-1.42493,0.475879,0.123981,181.814,0.102437,
2,1,0,1,0,11047.3,0.105208,0.104866,38.044,6,0.00517177,10,0.00398952,-1.41971,0.493608,0.119528,177.314,0.104866,
2,1,0,1,0,11047.4,0.107606,0.107273,38.4582,6,0.00532483,10,0.00412552,-1.41501,0.492966,0.119684,179.579,0.107273,
2,1,0,1,0,11047.4,0.110003,0.109635,38.8688,6,0.00547952,10,0.00426136,-1.4104,0.506453,0.116497,176.783,0.109635,
2,1,0,1,0,11047.4,0.112408,0.112052,39.3163,6,0.00563592,10,0.00440548,-1.40543,0.507587,0.116236,178.293,0.112052,
2,1,0,1,0,11047.4,0.114805,0.114432,39.7351,6,0.00579408,10,0.00454697,-1.40083,0.507843,0.116178,180.128,0.114432,
2,1,0,1,0,11047.4,0.117202,0.116822,40.1607,6,0.00595392,10,0.00469165,-1.3962,0.514535,0.114667,179.788,0.116822,
2,1,0,1,0,11047.4,0.119599,0.119244,40.5997,6,0.00611547,10,0.00484127,-1.39148,0.505555,0.116703,185.003,0.119244,
2,1,0,1,0,11047.4,0.122008,0.121679,41.047,6,0.00627881,10,0.00499455,-1.38672,0.498689,0.11831,189.618,0.121679,
2,1,0,1,0,11047.4,0.124405,0.124059,41.5162,6,0.00644398,10,0.00515048,-1.38178,0.491025,0.120157,194.757,0.1240593,
2,1,0,1,0,11047.4,0.126802,0.126455,41.9872,6,0.00661103,10,0.00530948,-1.37688,0.482951,0.122166,200.25,0.126455,
2,1,0,1,0,11047.4,0.129207,0.128888,42.478,6,0.00678,10,0.00547492,-1.37184,0.477934,0.123448,204.707,0.128888,
2,1,0,1,0,11047.4,0.131604,0.13128,42.9696,6,0.00695094,10,0.00564103,-1.36684,0.466554,0.126459,212.211,0.13128,
2,1,0,1,0,11047.4,0.134001,0.133645,43.4786,6,0.00712391,10,0.00581071,-1.36172,0.455708,0.129469,219.921,0.133645,
2,1,0,1,0,11047.4,0.136399,0.136062,44.026,6,0.00729897,10,0.00599026,-1.35629,0.44788,0.131732,226.411,0.136062,
2,1,0,1,0,11047.4,0.138807,0.138486,44.5887,6,0.00747627,10,0.00617492,-1.35077,0.444283,0.132798,231.03,0.138486,
2,1,0,1,0,11047.4,0.141204,0.140808,45.127,6,0.00765575,10,0.00635427,-1.34556,0.442784,0.133248,234.746,0.140808,
2,1,0,1,0,11047.4,0.143601,0.143236,45.6942,6,0.00783744,10,0.00654504,-1.34014,0.444833,0.132634,236.613,0.143236,
2,1,0,1,0,11047.4,0.146009,0.145644,46.2753,6,0.00802145,10,0.00673971,-1.33465,0.445358,0.132478,239.22,0.145644,
2,1,0,1,0,11047.4,0.148406,0.148051,46.8519,6,0.00820775,10,0.00693647,-1.32927,0.451424,0.130697,238.867,0.148051,
2,1,0,1,0,11047.4,0.150803,0.150436,47.4301,6,0.00839637,10,0.00713519,-1.32395,0.46136,0.127883,236.585,0.150436,
2,1,0,1,0,11047.4,0.153206,0.152825,47.9848,6,0.00858728,10,0.00733327,-1.3189,0.471514,0.125129,234.246,0.152825,
2,1,0,1,0,11047.4,0.155606,0.15526,48.5502,6,0.00878042,10,0.00753789,-1.31381,0.484206,0.121849,230.781,0.15526,
2,1,0,1,0,11047.4,0.158003,0.157654,49.1014,6,0.00897579,10,0.00774103,-1.30891,0.495601,0.119047,228.019,0.157654,
2,1,0,1,0,11047.4,0.1604,0.160045,49.6478,6,0.00917335,10,0.00794589,-1.3041,0.514186,0.114744,222.132,0.160045,
2,1,0,1,0,11047.4,0.162808,0.162486,50.1878,6,0.00937305,10,0.00815482,-1.2994,0.541869,0.108882,212.978,0.1624863,
2,1,0,1,0,11047.4,0.165205,0.164815,50.6728,6,0.00957484,10,0.00835163,-1.29523,0.569542,0.103592,204.673,0.164815,
2,1,0,1,0,11047.5,0.167602,0.167287,51.1529,6,0.00977852,10,0.00855721,-1.29113,0.603556,0.0977539,195.001,0.167287,
2,1,0,1,0,11047.5,0.170008,0.169663,51.6163,6,0.0099841,10,0.00875738,-1.28721,0.642055,0.0918924,184.902,0.169663,
2,1,0,1,0,11047.5,0.172405,0.172043,52.0513,6,0.0101915,10,0.00895504,-1.28357,0.696684,0.0846869,171.77,0.172043,
2,1,0,1,0,11047.5,0.174802,0.174449,52.4541,6,0.0104006,10,0.00915055,-1.28022,0.774376,0.0761903,155.691,0.174449,
2,1,0,1,0,11047.5,0.177199,0.17687,52.799,6,0.0106111,10,0.00933854,-1.27737,0.892238,0.0661258,136.017,0.17687,
2,1,0,1,0,11047.5,0.179607,0.179264,53.1111,6,0.010823,10,0.0095209,-1.27481,1.064,0.0554513,114.706,0.179264,
2,1,0,1,0,11047.5,0.182005,0.181705,53.3655,6,0.011036,10,0.00969679,-1.27274,1.34115,0.0439922,91.4031,0.181705,
2,1,0,1,0,11047.5,0.184402,0.184074,53.5582,6,0.0112499,10,0.00985867,-1.27117,2.03621,0.0289754,60.3874,0.184074,
2,1,0,1,0,11047.5,0.18681,0.1865,53.6793,6,0.0114644,10,0.0100112,-1.27019,5.18653,0.0113756,23.7423,0.1865,
2,1,0,1,0,11047.5,0.189207,0.188899,53.6929,6,0.0116792,10,0.0101425,-1.27008,-7.41536,-0.00795645,-16.6059,0.188899,
2,1,0,1,0,11047.5,0.191604,0.191269,53.5926,6,0.0118938,10,0.0102506,-1.2709,-2.04339,-0.0288736,-60.164,0.191269,
2,1,0,1,0,11047.5,0.194001,0.193664,53.3989,6,0.0121078,10,0.0103415,-1.27247,-1.13067,-0.0521813,-108.284,0.193664,
2,1,0,1,0,11047.5,0.196407,0.196047,53.1049,6,0.0123208,10,0.0104111,-1.27487,-0.772535,-0.076372,-157.467,0.196047,
2,1,0,1,0,11047.5,0.198804,0.198483,52.6551,6,0.0125323,10,0.0104511,-1.27856,-0.571162,-0.103298,-211.167,0.198483,
2,1,0,1,0,11047.5,0.201201,0.200891,52.0774,6,0.0127418,10,0.0104619,-1.28335,-0.446872,-0.132029,-266.94,0.200891,
2,1,0,1,0,11047.5,0.203609,0.203248,51.3751,6,0.0129486,10,0.0104419,-1.28925,-0.369896,-0.159504,-318.175,0.203248,
2,1,0,1,0,11047.5,0.206006,0.205698,50.5287,6,0.0131524,10,0.0103936,-1.29646,-0.312142,-0.189016,-370.924,0.205698,
2,1,0,1,0,11047.5,0.208403,0.208082,49.601,6,0.0133526,10,0.0103211,-1.30451,-0.275965,-0.213795,-411.797,0.208082,
2,1,0,1,0,11047.5,0.210803,0.210454,48.5304,6,0.0135487,10,0.0102134,-1.31399,-0.244062,-0.241742,-455.784,0.210454,
2,1,0,1,0,11047.5,0.213206,0.212934,47.3865,6,0.0137405,10,0.0100902,-1.32435,-0.220644,-0.267399,-492.533,0.212934,
2,1,0,1,0,11047.5,0.215603,0.215286,46.1586,6,0.0139275,10,0.00993729,-1.33575,-0.207869,-0.283833,-509.719,0.215286,
2,1,0,1,0,11047.5,0.218,0.217685,44.8712,6,0.0141094,10,0.00976777,-1.34803,-0.192948,-0.305782,-534.397,0.217685,
2,1,0,1,0,11047.5,0.220408,0.220148,43.589,6,0.0142862,10,0.00959604,-1.36062,-0.185439,-0.318164,-540.232,0.220148,
2,1,0,1,0,11047.5,0.222805,0.222505,42.2717,6,0.0144578,10,0.00940568,-1.37395,-0.180655,-0.32659,-538.185,0.2225053,
2,1,0,1,0,11047.5,0.225202,0.224908,40.9604,6,0.0146241,10,0.00921233,-1.38764,-0.174357,-0.338386,-540.878,0.224908,
2,1,0,1,0,11047.6,0.227605,0.227323,39.6841,6,0.0147853,10,0.00902111,-1.40138,-0.175076,-0.336997,-522.201,0.227323,
2,1,0,1,0,11047.6,0.230008,0.229682,38.4322,6,0.0149414,10,0.0088272,-1.4153,-0.175301,-0.336563,-505.525,0.229682,
2,1,0,1,0,11047.6,0.232405,0.232132,37.2448,6,0.0150926,10,0.0086457,-1.42893,-0.178972,-0.329661,-480.083,0.232132,
2,1,0,1,0,11047.6,0.234802,0.234493,36.1149,6,0.0152392,10,0.0084687,-1.44231,-0.181895,-0.324362,-458.06,0.2344932,
2,1,0,1,0,11047.6,0.237207,0.236992,35.0423,6,0.0153814,10,0.00830473,-1.45541,-0.185263,-0.318466,-436.469,0.236992,
2,1,0,1,0,11047.6,0.239604,0.239299,34.0271,6,0.0155194,10,0.00814266,-1.46817,-0.193237,-0.305324,-406.613,0.239299,
2,1,0,1,0,11047.6,0.242002,0.241689,33.0733,6,0.0156535,10,0.00799345,-1.48052,-0.199077,-0.296368,-383.817,0.241689,
2,1,0,1,0,11047.6,0.244404,0.244104,32.2072,6,0.0157839,10,0.00786189,-1.49205,-0.20989,-0.281099,-354.295,0.244104,
2,1,0,1,0,11047.6,0.246807,0.2465,31.3927,6,0.015911,10,0.00773831,-1.50317,-0.221619,-0.266223,-326.96,0.2465,
2,1,0,1,0,11047.6,0.249204,0.248905,30.6237,6,0.016035,10,0.0076224,-1.51394,-0.231288,-0.255093,-305.786,0.2489052,
2,1,0,1,0,11047.6,0.251601,0.25134,29.9178,6,0.016156,10,0.00751955,-1.52407,-0.242456,-0.243343,-284.972,0.25134,
2,1,0,1,0,11047.6,0.254006,0.253708,29.2704,6,0.0162743,10,0.00742612,-1.53357,-0.258998,-0.227801,-260.964,0.253708,
2,1,0,1,0,11047.6,0.256404,0.256082,28.6622,6,0.0163901,10,0.00733987,-1.54269,-0.272415,-0.216581,-242.95,0.256082,
2,1,0,1,0,11047.6,0.258801,0.258503,28.119,6,0.0165036,10,0.00726885,-1.551,-0.29033,-0.203217,-223.524,0.258503,
2,1,0,1,0,11047.6,0.261203,0.260884,27.5992,6,0.0166149,10,0.00720018,-1.5591,-0.308217,-0.191424,-206.606,0.260884,
2,1,0,1,0,11047.6,0.263606,0.263308,27.1246,6,0.0167243,10,0.00714211,-1.56664,-0.320968,-0.183819,-194.972,0.263308,
2,1,0,1,0,11047.6,0.266003,0.265711,26.6729,6,0.0168319,10,0.00708726,-1.57393,-0.349828,-0.168654,-176.005,0.2657105,
2,1,0,1,0,11047.6,0.2684,0.268047,26.2583,6,0.0169377,10,0.00703845,-1.58073,-0.366249,-0.161093,-165.503,0.268047,
2,1,0,1,0,11047.6,0.270808,0.270543,25.8992,6,0.017042,10,0.00700683,-1.58671,-0.386409,-0.152688,-154.498,0.270543,
2,1,0,1,0,11047.6,0.273205,0.272876,25.541,6,0.0171448,10,0.00696953,-1.59276,-0.417375,-0.14136,-141.081,0.2728757,
2,1,0,1,0,11047.6,0.275603,0.275273,25.1955,6,0.0172463,10,0.00693563,-1.59868,-0.433785,-0.136012,-134.047,0.275273,
2,1,0,1,0,11047.6,0.278008,0.277679,24.8993,6,0.0173464,10,0.00691402,-1.60381,-0.45585,-0.129429,-125.94,0.277679,
2,1,0,1,0,11047.6,0.280405,0.280101,24.6179,6,0.0174454,10,0.0068955,-1.60875,-0.493289,-0.119605,-114.999,0.2801013,
2,1,0,1,0,11047.6,0.282802,0.282459,24.3342,6,0.0175433,10,0.00687339,-1.61378,-0.509912,-0.115706,-110.036,0.2824586,
2,1,0,1,0,11047.6,0.285199,0.284923,24.0858,6,0.0176401,10,0.00686258,-1.61824,-0.532193,-0.110862,-104.331,0.284923,
2,1,0,1,0,11047.7,0.287608,0.287274,23.8436,6,0.017736,10,0.00684963,-1.62263,-0.574414,-0.102713,-95.6894,0.287274,
2,1,0,1,0,11047.7,0.290005,0.289697,23.6167,6,0.0178308,10,0.0068417,-1.62678,-0.598365,-0.098602,-91.0025,0.289697,
2,1,0,1,0,11047.7,0.292402,0.292074,23.414,6,0.0179249,10,0.00683864,-1.63052,-0.630384,-0.0935938,-85.5798,0.292074,
2,1,0,1,0,11047.7,0.294807,0.294474,23.2166,6,0.0180181,10,0.00683668,-1.6342,-0.651849,-0.0905118,-82.0445,0.294474,
2,1,0,1,0,11047.7,0.297204,0.296897,23.02,6,0.0181106,10,0.00683457,-1.63789,-0.659956,-0.0893999,-80.6105,0.296897,
2,1,0,1,0,11047.7,0.299421,0.299161,22.8403,6,0.0181954,10,0.00683292,-1.6413,-0.0972904,-0.606432,-520.661,0.299161,
2,1,0,0,0,11047.7,0.300012,0.299727,22.7971,6,0.0182182,10,0.00683292,-1.64212,0.00158557,37.2107,27846.5,0.299727,
2,1,0,1,0,11047.7,0.299243,0.299067,20.8254,6,0.0182458,10,0.00622818,-1.68141,0.0176466,3.34342,2192.2,0.299067,
2,1,0,1,0,11047.7,0.296846,0.296637,15.7844,6,0.018318,10,0.00468223,-1.80177,0.019091,3.09046,1771.68,0.296637,
2,1,0,1,0,11047.7,0.294449,0.294186,11.933,6,0.0183729,10,0.00351052,-1.92325,0.018173,3.24658,1522.19,0.294186,
2,1,0,1,0,11047.7,0.292041,0.291815,8.77809,6,0.0184138,10,0.00256157,-2.0566,0.0158176,3.73002,1235.45,0.291815,
2,1,0,1,0,11047.7,0.289644,0.289411,6.12704,6,0.0184432,10,0.00177323,-2.21275,0.0122522,4.81547,1037.09,0.289411,
2,1,0,1,0,11047.7,0.287247,0.287005,3.88365,6,0.0184629,10,0.00111462,-2.41076,0.00647621,9.11027,878.872,0.287005,
2,1,0,1,0,11047.7,0.284841,0.284567,1.95736,6,0.0184743,10,0.000556998,-2.70833,0.013266,4.44747,758.31,0.284567,
2,1,0,1,0,11047.7,0.282444,0.282148,0.282331,6,0.0184786,10,7.96591e-05,-3.54924,0.0479586,1.23023,655.013,0.282148,
2,0,0,1,0,11047.7,0.280047,0.279805,-1.15666,6,0.0184766,10,-0.000323639,-2.9368,-0.0368454,-1.60129,573.259,0.279805,
2,0,0,1,0,11047.7,0.27765,0.277346,-2.44261,6,0.0184693,10,-0.000677448,-2.61215,-0.00790475,-7.46387,506.974,0.277346,
2,0,0,1,0,11047.7,0.275242,0.274908,-3.5793,6,0.0184571,10,-0.00098398,-2.4462,-0.0143778,-4.10355,443.401,0.274908,
2,0,0,1,0,11047.7,0.272845,0.272598,-4.55928,6,0.0184406,10,-0.00124285,-2.3411,-0.0235315,-2.50728,396.744,0.272598,
2,0,0,1,0,11047.7,0.270448,0.27013,-5.44662,6,0.0184205,10,-0.0014713,-2.26387,-0.0329727,-1.78936,355.221,0.27013,
2,0,0,1,0,11047.7,0.268039,0.267736,-6.25548,6,0.018397,10,-0.00167482,-2.20374,-0.0432904,-1.36289,316.838,0.2677359,
2,0,0,1,0,11047.7,0.265642,0.26537,-6.96751,6,0.0183705,10,-0.00184897,-2.15692,-0.0540134,-1.09232,286.812,0.26537,
2,0,0,1,0,11047.7,0.263245,0.262956,-7.61432,6,0.0183413,10,-0.00200223,-2.11837,-0.0660984,-0.892609,258.64,0.262956,
2,0,0,1,0,11047.7,0.260843,0.260544,-8.19601,6,0.0183096,10,-0.00213542,-2.0864,-0.0792217,-0.744745,233.721,0.260544,
2,0,0,1,0,11047.7,0.258443,0.258165,-8.73098,6,0.0182756,10,-0.00225403,-2.05894,-0.0921702,-0.64012,214.95,0.258165,
2,0,0,1,0,11047.7,0.256046,0.255732,-9.22013,6,0.0182397,10,-0.00235788,-2.03526,-0.105677,-0.558306,198.614,0.255732,
2,0,0,1,0,11047.8,0.253649,0.253362,-9.67644,6,0.0182018,10,-0.00245164,-2.01428,-0.120972,-0.487714,182.426,0.253362,
2,0,0,1,0,11047.8,0.25124,0.250953,-10.101,6,0.0181622,10,-0.00253487,-1.99564,-0.136835,-0.431176,168.372,0.250953,
2,0,0,1,0,11047.8,0.248843,0.248515,-10.4913,6,0.018121,10,-0.00260726,-1.97917,-0.152127,-0.387835,157.666,0.248515,
2,0,0,1,0,11047.8,0.246446,0.246142,-10.8349,6,0.0180783,10,-0.00266691,-1.96518,-0.169632,-0.347812,146.426,0.246142,
2,0,0,1,0,11047.8,0.244041,0.243739,-11.1937,6,0.0180342,10,-0.00272834,-1.95103,-0.185944,-0.3173,137.903,0.243739,
2,0,0,1,0,11047.8,0.241644,0.241372,-11.5039,6,0.0179887,10,-0.00277671,-1.93916,-0.202095,-0.291942,130.438,0.241372,
2,0,0,1,0,11047.8,0.239247,0.238973,-11.8072,6,0.0179421,10,-0.0028216,-1.92785,-0.222475,-0.265198,121.79,0.238973,
2,0,0,1,0,11047.8,0.236849,0.23656,-12.0847,6,0.0178942,10,-0.00285876,-1.91776,-0.239499,-0.246348,115.887,0.23656,
2,0,0,1,0,11047.8,0.234441,0.23416,-12.3603,6,0.0178453,10,-0.00289429,-1.90797,-0.258043,-0.228644,110.032,0.23416,
2,0,0,1,0,11047.8,0.232044,0.231733,-12.6209,6,0.0177953,10,-0.00292468,-1.89891,-0.271947,-0.216954,106.612,0.231733,
2,0,0,1,0,11047.8,0.229647,0.229315,-12.8699,6,0.0177443,10,-0.00295125,-1.89043,-0.290134,-0.203354,101.923,0.229315,
2,0,0,1,0,11047.8,0.227239,0.226924,-13.112,6,0.0176924,10,-0.00297543,-1.88233,-0.312766,-0.188639,96.2578,0.226924,
2,0,0,1,0,11047.8,0.224842,0.224572,-13.3375,6,0.0176394,10,-0.00299524,-1.87492,-0.330488,-0.178524,92.7255,0.224572,
2,0,0,1,0,11047.8,0.222445,0.222187,-13.5398,6,0.0175857,10,-0.00300836,-1.86839,-0.342338,-0.172344,91.099,0.222187,
2,0,0,1,0,11047.8,0.220047,0.219741,-13.7576,6,0.0175311,10,-0.00302312,-1.86146,-0.362007,-0.16298,87.4819,0.219741,
2,0,0,1,0,11047.8,0.217642,0.217333,-13.9858,6,0.0174755,10,-0.00303956,-1.85431,-0.369892,-0.159506,86.8683,0.217333,
2,0,0,1,0,11047.8,0.215245,0.21496,-14.1784,6,0.0174192,10,-0.00304779,-1.84837,-0.378648,-0.155818,86.1529,0.2149605,
2,0,0,1,0,11047.8,0.212848,0.212537,-14.378,6,0.017362,10,-0.00305587,-1.8423,-0.408114,-0.144567,81.081,0.212537,
2,0,0,1,0,11047.8,0.21044,0.210136,-14.5852,6,0.0173041,10,-0.00306486,-1.83609,-0.408421,-0.144459,82.1442,0.210136,
2,0,0,1,0,11047.8,0.208043,0.207745,-14.7631,6,0.0172454,10,-0.00306697,-1.83082,-0.423244,-0.139399,80.3023,0.207745,
2,0,0,1,0,11047.8,0.205645,0.205331,-14.9694,6,0.0171859,10,-0.00307368,-1.8248,-0.437111,-0.134977,78.8069,0.205331,
2,0,0,1,0,11047.8,0.203246,0.202926,-15.1499,6,0.0171257,10,-0.0030743,-1.81959,-0.441574,-0.133613,78.9457,0.202926,
2,0,0,1,0,11047.8,0.200843,0.200534,-15.3419,6,0.0170646,10,-0.00307656,-1.81412,-0.466791,-0.126395,75.6186,0.200534,
2,0,0,1,0,11047.8,0.198446,0.198126,-15.5226,6,0.0170029,10,-0.00307542,-1.80904,-0.447929,-0.131717,79.8404,0.1981255,
2,0,0,1,0,11047.8,0.196049,0.195724,-15.6959,6,0.0169404,10,-0.00307206,-1.80421,-0.4578,-0.128877,79.062,0.195724,
2,0,0,1,0,11047.9,0.19364,0.193284,-15.9197,6,0.0168772,10,-0.00307702,-1.79807,-0.465605,-0.126717,78.6209,0.193284,
2,0,0,1,0,11047.9,0.191243,0.190913,-16.1025,6,0.0168131,10,-0.00307418,-1.79311,-0.451494,-0.130677,82.0339,0.190913,
2,0,0,1,0,11047.9,0.188846,0.188501,-16.2792,6,0.0167483,10,-0.00306866,-1.78837,-0.474578,-0.124321,79.0542,0.188501,
2,0,0,1,0,11047.9,0.186444,0.186151,-16.4811,6,0.0166828,10,-0.00306799,-1.78301,-0.462089,-0.127681,82.1792,0.186151,
2,0,0,1,0,11047.9,0.184041,0.183751,-16.6733,6,0.0166165,10,-0.00306373,-1.77798,-0.448916,-0.131428,85.5869,0.183751,
2,0,0,1,0,11047.9,0.181644,0.181359,-16.8876,6,0.0165493,10,-0.00306272,-1.77243,-0.451243,-0.13075,86.2025,0.181359,
2,0,0,1,0,11047.9,0.179247,0.178913,-17.0999,6,0.0164813,10,-0.00305939,-1.76701,-0.436801,-0.135073,90.1597,0.178913,
2,0,0,1,0,11047.9,0.176841,0.176509,-17.3123,6,0.0164125,10,-0.00305578,-1.76164,-0.43142,-0.136758,92.4811,0.176509,
2,0,0,1,0,11047.9,0.174444,0.174131,-17.5407,6,0.0163428,10,-0.00305437,-1.75595,-0.414709,-0.142268,97.5163,0.174131,
2,0,0,1,0,11047.9,0.172047,0.171763,-17.7751,6,0.0162721,10,-0.0030531,-1.75019,-0.395066,-0.149342,103.776,0.171763,
2,0,0,1,0,11047.9,0.169644,0.169324,-18.035,6,0.0162005,10,-0.00305375,-1.74388,-0.386025,-0.15284,107.678,0.169324,
2,0,0,1,0,11047.9,0.167242,0.166918,-18.3077,6,0.0161278,10,-0.00305588,-1.73737,-0.37198,-0.158611,113.376,0.166918,
2,0,0,1,0,11047.9,0.164845,0.16454,-18.5733,6,0.016054,10,-0.00305606,-1.73111,-0.353371,-0.166963,121.263,0.16454,
2,0,0,1,0,11047.9,0.162448,0.162129,-18.8674,6,0.0159791,10,-0.00305894,-1.72429,-0.338727,-0.174182,128.583,0.162129,
2,0,0,1,0,11047.9,0.160042,0.159742,-19.1969,6,0.0159029,10,-0.00306655,-1.71677,-0.319796,-0.184493,138.48,0.159742,
2,0,0,1,0,11047.9,0.157645,0.15736,-19.5366,6,0.0158254,10,-0.00307429,-1.70915,-0.300874,-0.196095,149.827,0.15736,
2,0,0,1,0,11047.9,0.155248,0.154902,-19.908,6,0.0157465,10,-0.0030838,-1.70097,-0.29113,-0.202658,157.765,0.154902,
2,0,0,1,0,11047.9,0.152845,0.152531,-20.3054,6,0.0156661,10,-0.0030972,-1.69239,-0.275861,-0.213876,169.816,0.152531,
2,0,0,1,0,11047.9,0.150443,0.150107,-20.7169,6,0.015584,10,-0.00310976,-1.68367,-0.260413,-0.226563,183.731,0.150107,
2,0,0,1,0,11047.9,0.148046,0.147713,-21.1749,6,0.0155002,10,-0.0031278,-1.67418,-0.244368,-0.241439,200.24,0.147713,
2,0,0,1,0,11047.9,0.145648,0.145282,-21.6755,6,0.0154144,10,-0.00314907,-1.66403,-0.228779,-0.257891,218.856,0.145282,
2,0,0,1,0,11047.9,0.14324,0.142942,-22.2255,6,0.0153266,10,-0.00317696,-1.65315,-0.219253,-0.269095,233.97,0.142942,
2,0,0,1,0,11047.9,0.140843,0.140559,-22.8065,6,0.0152365,10,-0.00320567,-1.64194,-0.206842,-0.285242,254.559,0.140559,
2,0,0,1,0,11047.9,0.138446,0.138116,-23.4202,6,0.015144,10,-0.00323471,-1.63041,-0.19929,-0.296051,271.539,0.138116,
2,0,0,1,0,11047.9,0.136041,0.135751,-24.1017,6,0.0150489,10,-0.00327184,-1.61795,-0.192145,-0.30706,289.691,0.135751,
2,0,0,1,0,11048,0.133644,0.133364,-24.8262,6,0.014951,10,-0.00331093,-1.60509,-0.182571,-0.323162,313.916,0.133364,
2,0,0,1,0,11048,0.131246,0.130934,-25.5949,6,0.0148501,10,-0.00335124,-1.59185,-0.176815,-0.333681,334.288,0.130934,
2,0,0,1,0,11048,0.128849,0.128559,-26.4205,6,0.014746,10,-0.00339658,-1.57806,-0.172449,-0.342131,353.636,0.128559,
2,0,0,1,0,11048,0.126441,0.126169,-27.3048,6,0.0146384,10,-0.00344503,-1.56376,-0.168435,-0.350284,373.842,0.1261695,
2,0,0,1,0,11048,0.124044,0.123778,-28.2162,6,0.0145273,10,-0.00349255,-1.5495,-0.166779,-0.353762,390.059,0.123778,
2,0,0,1,0,11048,0.121647,0.121353,-29.1766,6,0.0144124,10,-0.00354067,-1.53497,-0.166855,-0.3536,402.91,0.121353,
2,0,0,1,0,11048,0.119241,0.118953,-30.1671,6,0.0142937,10,-0.00358848,-1.52047,-0.168135,-0.350909,413.002,0.118953,
2,0,0,1,0,11048,0.116844,0.116566,-31.1739,6,0.0141709,10,-0.00363384,-1.50621,-0.171905,-0.343212,417.127,0.116566,
2,0,0,1,0,11048,0.114447,0.114167,-32.1858,6,0.0140441,10,-0.00367454,-1.49234,-0.173712,-0.339643,426.438,0.114167,
2,0,0,1,0,11048,0.11205,0.111725,-33.1929,6,0.0139132,10,-0.00370847,-1.47895,-0.179411,-0.328853,425.81,0.111725,
2,0,0,1,0,11048,0.109642,0.109349,-34.2626,6,0.0137782,10,-0.00374659,-1.46518,-0.1865,-0.316355,421.692,0.109349,
2,0,0,1,0,11048,0.107245,0.106956,-35.2662,6,0.013639,10,-0.00377193,-1.45264,-0.191809,-0.307598,422.073,0.106956,
2,0,0,1,0,11048,0.104848,0.104639,-36.2035,6,0.0134959,10,-0.0037883,-1.44125,-0.201655,-0.292579,413.33,0.104639,
2,0,0,1,0,11048,0.10244,0.102227,-37.2018,6,0.013349,10,-0.00380301,-1.42944,-0.209124,-0.28213,409.446,0.102227,
2,0,0,1,0,11048,0.100042,0.0998089,-38.206,6,0.0131981,10,-0.00381329,-1.41787,-0.216394,-0.27265,405.614,0.0998089,
2,0,0,1,0,11048,0.0976454,0.0974092,-39.1751,6,0.0130432,10,-0.00381601,-1.40699,-0.227198,-0.259685,395.962,0.0974092,
2,0,0,1,0,11048,0.0952427,0.0950296,-40.1012,6,0.0128846,10,-0.00381081,-1.39684,-0.241609,-0.244196,381.29,0.0950296,
2,0,0,1,0,11048,0.0928428,0.0926352,-40.9996,6,0.0127223,10,-0.00379801,-1.38722,-0.258067,-0.228623,364.952,0.0926352,
2,0,0,1,0,11048,0.0904457,0.0902069,-41.8671,6,0.0125565,10,-0.0037767,-1.37813,-0.273106,-0.216033,352.173,0.0902069,
2,0,0,1,0,11048,0.0880486,0.087804,-42.6805,6,0.0123873,10,-0.00374752,-1.36977,-0.292731,-0.20155,335.06,0.087804,
2,0,0,1,0,11048,0.0856404,0.0854191,-43.4858,6,0.0122149,10,-0.00371452,-1.36165,-0.311469,-0.189425,320.722,0.0854191,
2,0,0,1,0,11048,0.0832433,0.0829802,-44.2346,6,0.0120393,10,-0.0036706,-1.35424,-0.332777,-0.177296,305.386,0.0829802,
2,0,0,1,0,11048,0.0808462,0.0806357,-44.9368,6,0.0118609,10,-0.00362351,-1.3474,-0.359301,-0.164208,287.488,0.0806357,
2,0,0,1,0,11048,0.0784408,0.0781691,-45.6228,6,0.0116797,10,-0.0035663,-1.34082,-0.38237,-0.154301,274.235,0.0781691,
2,0,0,1,0,11048,0.0760437,0.0757567,-46.2636,6,0.0114959,10,-0.00350478,-1.33476,-0.412721,-0.142954,257.583,0.0757567,
2,0,0,1,0,11048.1,0.0736466,0.0733687,-46.8704,6,0.0113095,10,-0.00343882,-1.3291,-0.448407,-0.131577,240.118,0.0733687,
2,0,0,1,0,11048.1,0.0712495,0.0709753,-47.4251,6,0.0111209,10,-0.00336602,-1.32399,-0.498657,-0.118318,218.439,0.0709753,
2,0,0,1,0,11048.1,0.0688413,0.0686128,-47.9175,6,0.0109301,10,-0.00328775,-1.31951,-0.563343,-0.104732,195.386,0.0686128,
2,0,0,1,0,11048.1,0.0664442,0.066141,-48.3641,6,0.0107375,10,-0.00319885,-1.31548,-0.639321,-0.0922855,173.808,0.06614095,
2,0,0,1,0,11048.1,0.0640471,0.0637656,-48.7467,6,0.0105432,10,-0.00310837,-1.31205,-0.746908,-0.0789923,149.947,0.0637656,
2,0,0,1,0,11048.1,0.0616389,0.061332,-49.1012,6,0.0103475,10,-0.00301148,-1.30891,-0.890805,-0.0662323,126.577,0.061332,
2,0,0,1,0,11048.1,0.0592417,0.0589355,-49.3686,6,0.0101505,10,-0.00290956,-1.30655,-1.10054,-0.0536102,103.019,0.0589355,
2,0,0,1,0,11048.1,0.0568446,0.0565443,-49.5788,6,0.00995258,10,-0.0028034,-1.3047,-1.43955,-0.0409849,79.1464,0.0565443,
2,0,0,1,0,11048.1,0.0544475,0.0541806,-49.7342,6,0.00975393,10,-0.00269463,-1.30335,-1.9774,-0.0298371,57.809,0.05418063,
2,0,0,1,0,11048.1,0.0520421,0.0516972,-49.8638,6,0.0095547,10,-0.00257782,-1.30221,-2.94478,-0.0200355,38.9131,0.0516972,
2,0,0,1,0,11048.1,0.049645,0.0493568,-49.9223,6,0.0093551,10,-0.00246401,-1.30171,-5.26668,-0.0112025,21.7896,0.0493568,
2,0,0,1,0,11048.1,0.0472479,0.0469126,-49.9536,6,0.00915533,10,-0.00234345,-1.30143,-109.567,-0.000538484,1.04801,0.0469126,
2,0,0,1,0,11048.1,0.0448397,0.0445384,-49.9443,6,0.00895554,10,-0.00222444,-1.30151,8.60744,0.00685454,-13.3376,0.0445384,
2,0,0,1,0,11048.1,0.0424426,0.0421524,-49.8738,6,0.00875591,10,-0.0021023,-1.30213,4.368,0.0135073,-26.2663,0.0421524,
2,0,0,1,0,11048.1,0.0400455,0.0397294,-49.7939,6,0.00855658,10,-0.00197828,-1.30282,2.98106,0.0197916,-38.4348,0.0397294,
2,0,0,1,0,11048.1,0.0376456,0.0372873,-49.7008,6,0.00835761,10,-0.00185321,-1.30364,2.46467,0.0239383,-46.3849,0.0372873,
2,0,0,1,0,11048.1,0.035243,0.0349523,-49.5758,6,0.00815906,10,-0.00173279,-1.30473,2.03885,0.0289378,-55.9319,0.0349523,
2,0,0,1,0,11048.1,0.0328459,0.0325197,-49.427,6,0.00796106,10,-0.00160735,-1.30604,1.84696,0.0319443,-61.5949,0.0325197,
2,0,0,1,0,11048.1,0.0304488,0.0301508,-49.2582,6,0.00776369,10,-0.00148517,-1.30752,1.73867,0.033934,-65.2376,0.0301508,
2,0,0,1,0,11048.1,0.0280406,0.0277638,-49.1142,6,0.00756698,10,-0.0013636,-1.30879,1.62099,0.0363975,-69.7343,0.0277638,
2,0,0,1,0,11048.1,0.0256435,0.0253068,-48.9466,6,0.00737087,10,-0.00123868,-1.31028,1.58915,0.0371269,-70.8755,0.0253068,
2,0,0,1,0,11048.1,0.0232464,0.0229368,-48.7587,6,0.00717548,10,-0.00111837,-1.31195,1.47442,0.0400157,-76.1253,0.0229368,
2,0,0,1,0,11048.1,0.0208437,0.0204968,-48.5739,6,0.00698085,10,-0.000995611,-1.3136,1.37842,0.0428026,-81.1118,0.0204968,
2,0,0,1,0,11048.1,0.018441,0.0181035,-48.3788,6,0.00678697,10,-0.000875824,-1.31535,1.37537,0.0428974,-80.9726,0.01810348,
2,0,0,1,0,11048.1,0.0160439,0.0157229,-48.1692,6,0.00659389,10,-0.000757358,-1.31723,1.30936,0.0450601,-84.7074,0.0157229,
2,0,0,1,0,11048.2,0.0136468,0.0132723,-47.9762,6,0.00640162,10,-0.000636753,-1.31897,1.27208,0.0463806,-86.814,0.0132723,
2,0,0,1,0,11048.2,0.0112414,0.0109563,-47.7658,6,0.00621014,10,-0.000523338,-1.32088,1.22472,0.0481743,-89.7509,0.01095634,
2,0,0,1,0,11048.2,0.00884431,0.00850998,-47.5459,6,0.00601953,10,-0.000404615,-1.32289,1.14588,0.051489,-95.4873,0.00850998,
2,0,0,1,0,11048.2,0.0064472,0.00613149,-47.3084,6,0.00582984,10,-0.000290071,-1.32506,1.19727,0.0492786,-91.0122,0.00613149,
2,0,0,1,0,11048.2,0.00404455,0.00372755,-47.0648,6,0.00564112,10,-0.000175436,-1.3273,1.10362,0.0534605,-98.2082,0.00372755,
2,0,0,1,0,11048.2,0.0016419,0.00126847,-46.8841,6,0.0054533,10,-5.94709e-05,-1.32897,1.02381,0.0576279,-105.257,0.00126847,
2,0,0,1,0,11048.2,-0.000755207,-0.00113547,-46.5987,6,0.00526637,10,5.29116e-05,-1.33163,0.959693,0.061478,-111.626,-0.00113547,
2,0,0,1,0,11048.2,-0.00315231,-0.00347261,-46.2975,6,0.00508061,10,0.000160773,-1.33444,0.831874,0.0709242,-128.07,-0.00347261,
2,0,0,1,0,11048.2,-0.00555774,-0.00591261,-45.9887,6,0.00489606,10,0.000271913,-1.33735,0.793295,0.0743734,-133.392,-0.005912608,
2,0,0,1,0,11048.2,-0.00795485,-0.00829746,-45.659,6,0.00471278,10,0.000378854,-1.34047,0.764397,0.0771851,-137.446,-0.00829746,
2,0,0,1,0,11048.2,-0.010352,-0.0107173,-45.3205,6,0.00453085,10,0.000485714,-1.34371,0.707271,0.0834192,-147.401,-0.0107173,
2,0,0,1,0,11048.2,-0.0127546,-0.0131626,-44.9656,6,0.00435031,10,0.000591865,-1.34712,0.666832,0.088478,-155.067,-0.0131626,
2,0,0,1,0,11048.2,-0.0151573,-0.0155305,-44.571,6,0.00417126,10,0.00069221,-1.35095,0.620161,0.0951366,-165.31,-0.0155305,
2,0,0,1,0,11048.2,-0.0175544,-0.0179334,-44.1647,6,0.00399385,10,0.000792023,-1.35492,0.588694,0.100222,-172.633,-0.01793338,
2,0,0,1,0,11048.2,-0.0199515,-0.0203045,-43.7357,6,0.00381809,10,0.000888029,-1.35916,0.573849,0.102814,-175.442,-0.0203045,
2,0,0,1,0,11048.2,-0.0223597,-0.0227105,-43.3173,6,0.00364402,10,0.000983759,-1.36334,0.549721,0.107327,-181.33,-0.0227105,
2,0,0,1,0,11048.2,-0.0247568,-0.0251293,-42.887,6,0.00347165,10,0.00107772,-1.36767,0.547689,0.107725,-180.216,-0.0251293,
2,0,0,1,0,11048.2,-0.0271539,-0.0275067,-42.4288,6,0.00330104,10,0.00116708,-1.37234,0.535366,0.110205,-182.508,-0.0275067,
2,0,0,1,0,11048.2,-0.0295593,-0.0298937,-42.0075,6,0.00313224,10,0.00125576,-1.37667,0.531317,0.111045,-182.048,-0.0298937,
2,0,0,1,0,11048.2,-0.0319564,-0.032322,-41.5632,6,0.00296515,10,0.00134341,-1.38129,0.548995,0.107469,-174.399,-0.032322,
2,0,0,1,0,11048.2,-0.0343535,-0.034727,-41.1397,6,0.0027998,10,0.00142866,-1.38574,0.551031,0.107072,-172.068,-0.034727,
2,0,0,1,0,11048.2,-0.0367506,-0.0371617,-40.745,6,0.00263608,10,0.00151415,-1.38993,0.568933,0.103703,-164.983,-0.0371617,
2,0,0,1,0,11048.2,-0.0391588,-0.0394777,-40.3584,6,0.0024739,10,0.00159326,-1.39407,0.588888,0.100189,-157.88,-0.0394777,
2,0,0,1,0,11048.2,-0.0415559,-0.0419378,-39.9767,6,0.00231329,10,0.00167654,-1.39819,0.619001,0.0953149,-148.905,-0.0419378,
2,0,0,1,0,11048.2,-0.043953,-0.0443152,-39.6259,6,0.00215413,10,0.00175603,-1.40202,0.665466,0.0886596,-137.339,-0.0443152,
2,0,0,1,0,11048.3,-0.0463585,-0.0467107,-39.3231,6,0.00199625,10,0.00183681,-1.40535,0.714005,0.0826325,-126.949,-0.0467107,
2,0,0,1,0,11048.3,-0.0487556,-0.0491284,-39.033,6,0.00183958,10,0.00191763,-1.40857,0.767477,0.0768753,-117.189,-0.0491284,
2,0,0,1,0,11048.3,-0.0511527,-0.0515186,-38.7604,6,0.00168401,10,0.00199688,-1.41161,0.843112,0.0699788,-105.993,-0.0515186,
2,0,0,1,0,11048.3,-0.0535498,-0.0539193,-38.5004,6,0.00152954,10,0.00207592,-1.41453,0.92909,0.063503,-95.5968,-0.0539193,
2,0,0,1,0,11048.3,-0.055958,-0.0563445,-38.302,6,0.00137594,10,0.00215811,-1.41678,1.04788,0.056304,-84.278,-0.0563445,
2,0,0,1,0,11048.3,-0.0583551,-0.0587113,-38.1169,6,0.00122313,10,0.0022379,-1.41888,1.24835,0.0472623,-70.3877,-0.0587113,
2,0,0,1,0,11048.3,-0.0607522,-0.0611291,-37.9505,6,0.00107102,10,0.00231988,-1.42078,1.36259,0.0432999,-64.2043,-0.0611291,
2,0,0,1,0,11048.3,-0.0631604,-0.0635383,-37.8234,6,0.000919488,10,0.00240323,-1.42224,1.58389,0.0372501,-55.0273,-0.0635383,
2,0,0,1,0,11048.3,-0.0655575,-0.0659157,-37.6875,6,0.000768489,10,0.0024842,-1.4238,1.97653,0.0298504,-43.9655,-0.0659157,
2,0,0,1,0,11048.3,-0.0679546,-0.0683229,-37.588,6,0.000617973,10,0.00256812,-1.42495,2.35432,0.0250603,-36.8195,-0.06832286,
2,0,0,1,0,11048.3,-0.0703573,-0.0707003,-37.5297,6,0.000467756,10,0.00265336,-1.42562,3.29654,0.0178976,-26.2362,-0.0707003,
2,0,0,1,0,11048.3,-0.0727571,-0.0731159,-37.4707,6,0.000317758,10,0.00273971,-1.42631,4.55306,0.0129583,-18.9632,-0.0731159,
2,0,0,1,0,11048.3,-0.0751542,-0.0755103,-37.4357,6,0.000167945,10,0.00282678,-1.42671,7.31137,0.00806963,-11.8014,-0.0755103,
2,0,0,1,0,11048.3,-0.0775514,-0.0778856,-37.4067,6,1.82592e-05,10,0.00291344,-1.42705,36.7534,0.00160529,-2.34681,-0.07788562,
2,0,0,1,0,11048.3,-0.0799595,-0.0803235,-37.4161,6,-0.000131379,10,0.00300539,-1.42694,-26.7569,-0.00220504,3.22289,-0.0803235,
2,0,0,1,0,11048.3,-0.0823567,-0.0827815,-37.448,6,-0.000281102,10,0.0031,-1.42657,-6.99128,-0.00843908,12.3394,-0.0827815,
2,0,0,1,0,11048.3,-0.0847538,-0.0851144,-37.4667,6,-0.000430921,10,0.00318896,-1.42635,-4.8613,-0.0121367,17.7626,-0.0851144,
2,0,0,1,0,11048.3,-0.0871592,-0.0874929,-37.5252,6,-0.000580896,10,0.00328319,-1.42568,-4.06789,-0.0145038,21.2543,-0.0874929,
2,0,0,1,0,11048.3,-0.0895563,-0.089882,-37.5859,6,-0.00073113,10,0.0033783,-1.42497,-2.92849,-0.0201469,29.5703,-0.089882,
2,0,0,1,0,11048.3,-0.0919534,-0.0923124,-37.6506,6,-0.000881588,10,0.00347562,-1.42423,-2.42486,-0.0243313,35.7968,-0.0923124,
2,0,0,1,0,11048.3,-0.0943505,-0.0947026,-37.7502,6,-0.0010324,10,0.00357504,-1.42308,-2.1415,-0.0275508,40.6233,-0.0947026,
2,0,0,1,0,11048.3,-0.0967587,-0.0971468,-37.8708,6,-0.00118366,10,0.00367903,-1.4217,-1.85326,-0.0318358,47.0126,-0.0971468,
2,0,0,1,0,11048.3,-0.0991558,-0.0995179,-37.9774,6,-0.00133536,10,0.00377943,-1.42048,-7.58974,-0.00777365,11.4627,-0.0995179,
2,0,0,1,0,11048.3,-0.0999548,-0.100324,-38.0272,6,-0.00138475,10,0.00381504,-1.41991,0.0199303,2.96032,-4071.06,-0.1003238,
2,0,0,1,1,11048.3,-0.0999548,-0.100476,-37.8164,6,-0.00140747,10,0.00379966,-1.42232,-0.0263482,-2.23924,2853.25,-0.1004765,
2,0,0,1,1,11048.3,-0.0979573,-0.0984098,-32.7293,6,-0.00151492,10,0.00322088,-1.48506,-0.0327031,-1.80411,2132.73,-0.0984098,
2,0,0,1,1,11048.3,-0.0955546,-0.0959666,-27.8446,6,-0.00163534,10,0.00267215,-1.55526,-0.0334994,-1.76123,1922.48,-0.0959666,
2,0,0,1,1,11048.4,-0.0931519,-0.0935977,-23.6822,6,-0.00173782,10,0.0022166,-1.62558,-0.0328757,-1.79464,1667.61,-0.0935977,
2,0,0,1,1,11048.4,-0.0907548,-0.0912096,-20.001,6,-0.00182469,10,0.00182428,-1.69895,-0.0308932,-1.9098,1482.96,-0.09120962,
2,0,0,1,1,11048.4,-0.0883577,-0.0887855,-16.6798,6,-0.00189764,10,0.00148092,-1.77781,-0.028431,-2.0752,1332.22,-0.0887855,
2,0,0,1,1,11048.4,-0.0859523,-0.0863795,-13.6273,6,-0.00195787,10,0.00117712,-1.86559,-0.0252585,-2.33585,1213.31,-0.0863795,
2,0,0,1,1,11048.4,-0.0835552,-0.0839766,-10.8648,6,-0.00200649,10,0.000912389,-1.96398,-0.021392,-2.75804,1118.88,-0.0839766,
2,0,0,1,1,11048.4,-0.0811581,-0.0815726,-8.30841,6,-0.00204454,10,0.000677739,-2.08048,-0.0170597,-3.45844,1030.36,-0.0815726,
2,0,0,1,1,11048.4,-0.0787555,-0.0791783,-5.93039,6,-0.00207273,10,0.000469558,-2.22692,-0.0117808,-5.00815,958.572,-0.0791783,
2,0,0,1,1,11048.4,-0.0763528,-0.076768,-3.72396,6,-0.00209178,10,0.000285881,-2.42899,-0.00627042,-9.40926,893.782,-0.076768,
2,0,0,1,1,11048.4,-0.0739557,-0.0743788,-1.66467,6,-0.00210233,10,0.000123816,-2.77867,-0.0207357,-2.84534,831.669,-0.0743788,
2,0,0,1,1,11048.4,-0.0715586,-0.0720003,0.247137,6,-0.00210494,10,-1.7794e-05,-3.60706,-37.0295,-0.00159332,776.72,-0.0720003,
2,1,0,1,1,11048.4,-0.0691532,-0.069589,2.0447,6,-0.00210017,10,-0.000142289,-2.68937,0.0190476,3.0975,727.082,-0.069589,
2,1,0,1,1,11048.4,-0.0667561,-0.0671819,3.72174,6,-0.00208843,10,-0.000250034,-2.42925,0.00667742,8.83575,680.405,-0.0671819,
2,1,0,1,1,11048.4,-0.0643589,-0.0648076,5.2944,6,-0.00207021,10,-0.000343118,-2.27618,0.0158701,3.71769,641.91,-0.0648076,
2,1,0,1,1,11048.4,-0.0619563,-0.0623952,6.78254,6,-0.00204588,10,-0.000423198,-2.16861,0.0235113,2.50943,603.285,-0.0623952,
2,1,0,1,1,11048.4,-0.0595536,-0.0600358,8.17701,6,-0.00201578,10,-0.000490913,-2.08741,0.031232,1.88909,567.612,-0.0600358,
2,1,0,1,1,11048.4,-0.0571565,-0.0576308,9.48377,6,-0.00198032,10,-0.000546557,-2.02302,0.0391469,1.50714,536.195,-0.0576308,
2,1,0,1,1,11048.4,-0.0547594,-0.055213,10.7404,6,-0.00193973,10,-0.00059301,-1.96898,0.0477284,1.23616,502.704,-0.055213,
2,1,0,1,1,11048.4,-0.0523512,-0.0527921,11.9316,6,-0.00189424,10,-0.000629897,-1.9233,0.0563235,1.04752,475.569,-0.0527921,
2,1,0,1,1,11048.4,-0.0499541,-0.0503617,13.0402,6,-0.00184418,10,-0.000656727,-1.88472,0.0655558,0.899996,448.915,-0.0503617,
2,1,0,1,1,11048.4,-0.047557,-0.0479567,14.0845,6,-0.00178979,10,-0.000675444,-1.85126,0.0752957,0.783577,424.07,-0.0479567,
2,1,0,1,1,11048.4,-0.0451544,-0.0455803,15.0647,6,-0.00173138,10,-0.000686652,-1.82204,0.0858367,0.687352,399.147,-0.0455803,
2,1,0,1,1,11048.4,-0.0427545,-0.0431944,16.0018,6,-0.00166913,10,-0.000691186,-1.79583,0.0968537,0.609166,376.157,-0.0431944,
2,1,0,1,1,11048.4,-0.0403574,-0.0407311,16.8842,6,-0.00160327,10,-0.000687713,-1.77252,0.108988,0.541342,353.14,-0.0407311,
2,1,0,1,1,11048.4,-0.0379603,-0.0383515,17.6975,6,-0.00153401,10,-0.000678727,-1.75209,0.12284,0.4803,328.873,-0.0383515,
2,1,0,1,1,11048.4,-0.0355521,-0.035903,18.4821,6,-0.00146155,10,-0.000663563,-1.73325,0.136049,0.433668,310.237,-0.035903,
2,1,0,1,1,11048.5,-0.033155,-0.0335171,19.1843,6,-0.00138614,10,-0.000643004,-1.71705,0.149935,0.393503,292.867,-0.0335171,
2,1,0,1,1,11048.5,-0.0307579,-0.0311492,19.8569,6,-0.00130797,10,-0.000618527,-1.70209,0.165555,0.356376,274.876,-0.0311492,
2,1,0,1,1,11048.5,-0.0283524,-0.02874,20.5124,6,-0.00122716,10,-0.000589527,-1.68798,0.182509,0.323271,257.355,-0.02874,
2,1,0,1,1,11048.5,-0.0259553,-0.0263689,21.1028,6,-0.00114385,10,-0.000556458,-1.67566,0.198888,0.29665,243.112,-0.02636892,
2,1,0,1,1,11048.5,-0.0235582,-0.0238854,21.6631,6,-0.00105825,10,-0.000517433,-1.66428,0.220413,0.26768,225.389,-0.0238854,
2,1,0,1,1,11048.5,-0.0211611,-0.0215769,22.184,6,-0.000970501,10,-0.000478663,-1.65396,0.24068,0.245139,211.521,-0.0215769,
2,1,0,1,1,11048.5,-0.0187529,-0.0191497,22.674,6,-0.000880719,10,-0.000434199,-1.64447,0.260181,0.226765,200.048,-0.0191497,
2,1,0,1,1,11048.5,-0.0163558,-0.0167022,23.1475,6,-0.000789023,10,-0.000386615,-1.6355,0.286472,0.205954,185.41,-0.01670225,
2,1,0,1,1,11048.5,-0.0139587,-0.0143397,23.5727,6,-0.00069554,10,-0.000338025,-1.62759,0.31014,0.190237,174.5,-0.0143397,
2,1,0,1,1,11048.5,-0.0115505,-0.011923,23.974,6,-0.000600402,10,-0.000285841,-1.62026,0.341172,0.172933,161.362,-0.011923,
2,1,0,1,1,11048.5,-0.0091534,-0.00952435,24.3536,6,-0.000503707,10,-0.000231952,-1.61344,0.37032,0.159322,151.035,-0.00952435,
2,1,0,1,1,11048.5,-0.00675629,-0.00716283,24.6868,6,-0.000405586,10,-0.000176827,-1.60754,0.397527,0.148418,142.781,-0.00716283,
2,1,0,1,1,11048.5,-0.00435919,-0.00473662,25.0231,6,-0.00030613,10,-0.000118525,-1.60166,0.463443,0.127308,123.801,-0.00473662,
2,1,0,1,1,11048.5,-0.00195376,-0.00236024,25.3393,6,-0.000205351,10,-5.9807e-05,-1.5962, , , ,-0.00236024,
2,1,0,0,1,11048.5,-7.54729e-05,-0.000344411,25.4901,6,-0.000126483,10,-8.77906e-06,-1.59363, , , ,-0.000344411,