File: Figure_codes/Fig_3-5/rawdata_trumpetplot_data/after 10th/20221101_1-115_003_TrumpetPlot_ParaChange_from10_every3_02_CV_C01_31.csv
mode,ox/red,error,control changes,counter inc.,time/s,control/V,Ewe/V,<I>/mA,cycle number,(Q-Qo)/C,I Range,P/W,log(|I|),Tafel slope mV/dec,alpha_eff,dI/d(E-IR),E-IR/V,
2,0,0,1,0,61414.1,2.44065e-05,-0.000325324,-0.393877,32,0.0000000E+000,10,1.28137e-07,-3.40464, , , ,-0.000325324,
2,0,0,1,0,61415.3,0.00129791,0.000882546,-0.180455,32,-0.00027453,10,-1.5926e-07,-3.74363, , , ,0.000882546,
2,0,0,1,0,61416.8,0.00279612,0.00245832,-0.144123,32,-0.000499879,10,-3.54302e-07,-3.84127,-0.0172924,-3.41191,20.8015,0.00245832,
2,0,0,1,0,61418.3,0.00429431,0.0039779,-0.123329,32,-0.000686053,10,-4.90591e-07,-3.90893,-0.0241134,-2.44678,11.9795,0.003977898,
2,0,0,1,0,61419.8,0.00579242,0.0054242,-0.107799,32,-0.000845412,10,-5.84723e-07,-3.96739,-0.0271563,-2.17261,9.28119,0.0054242,
2,0,0,1,0,61421.3,0.00729061,0.00701905,-0.0949947,32,-0.000983559,10,-6.66773e-07,-4.0223,-0.0293455,-2.01053,7.59542,0.00701905,
2,0,0,1,0,61422.8,0.00878882,0.0084283,-0.0854474,32,-0.00110566,10,-7.20176e-07,-4.0683,-0.0325324,-1.81358,6.11202,0.0084283,
2,0,0,1,0,61424.3,0.010287,0.00995846,-0.0766898,32,-0.00121394,10,-7.63712e-07,-4.11526,-0.0333519,-1.76901,5.35531,0.00995846,
2,0,0,1,0,61425.8,0.0117852,0.0114346,-0.0697541,32,-0.00131066,10,-7.97612e-07,-4.15643,-0.035686,-1.65331,4.52278,0.0114346,
2,0,0,1,0,61427.3,0.0132834,0.0129011,-0.0633105,32,-0.00139762,10,-8.16778e-07,-4.19852,-0.0372143,-1.58541,3.92727,0.0129011,
2,0,0,1,0,61428.8,0.0147815,0.0144185,-0.058129,32,-0.00147567,10,-8.38131e-07,-4.23561,-0.0413485,-1.4269,3.26303,0.0144185,
2,0,0,1,0,61430.3,0.0162797,0.0159455,-0.0530601,32,-0.00154631,10,-8.46072e-07,-4.27523,-0.0412667,-1.42972,2.988,0.0159455,
2,0,0,1,0,61431.8,0.0177779,0.0173951,-0.0492394,32,-0.00161042,10,-8.56522e-07,-4.30769,-0.0403348,-1.46276,2.79697,0.0173951,
2,0,0,1,0,61433.3,0.0192761,0.0188924,-0.0444702,32,-0.00166834,10,-8.40148e-07,-4.35193,-0.0379079,-1.5564,2.73564,0.0188924,
2,0,0,1,0,61434.8,0.0207743,0.0204692,-0.0411143,32,-0.00172007,10,-8.41578e-07,-4.38601,-0.0402435,-1.46607,2.37827,0.0204692,
2,0,0,1,0,61436.3,0.0222725,0.0219029,-0.03759,32,-0.0017664,10,-8.2333e-07,-4.42493,-0.0362666,-1.62684,2.38416,0.0219029,
2,0,0,1,0,61437.8,0.0237707,0.0234309,-0.0341836,32,-0.00180778,10,-8.00953e-07,-4.46618,-0.0354881,-1.66253,2.21366,0.0234309,
2,0,0,1,0,61439.3,0.0252689,0.0248996,-0.0308756,32,-0.00184427,10,-7.68792e-07,-4.51038,-0.0328001,-1.79877,2.15579,0.0248996,
2,0,0,1,0,61440.8,0.0267671,0.0264054,-0.0277131,32,-0.00187555,10,-7.31776e-07,-4.55732,-0.0304656,-1.93661,2.11293,0.0264054,
2,0,0,1,0,61442.3,0.0282653,0.0279335,-0.0251354,32,-0.0019023,10,-7.02121e-07,-4.59971,-0.032096,-1.83824,1.78718,0.0279335,
2,0,0,1,0,61443.8,0.0297635,0.0293915,-0.0221134,32,-0.00192493,10,-6.49945e-07,-4.65535,-0.0291896,-2.02127,1.74488,0.0293915,
2,0,0,1,0,61445.3,0.0312617,0.0308793,-0.0202809,32,-0.00194382,10,-6.26261e-07,-4.69291,-0.0264136,-2.2337,1.70617,0.0308793,
2,0,0,1,0,61446.8,0.0327599,0.0324477,-0.0170339,32,-0.00195882,10,-5.52711e-07,-4.76869,-0.0226403,-2.60597,1.72791,0.03244767,
2,0,0,1,0,61448.3,0.0342581,0.0338898,-0.013933,32,-0.00196953,10,-4.72187e-07,-4.85595,-0.0196816,-2.99772,1.66791,0.0338898,
2,0,0,1,0,61449.8,0.0357563,0.0353998,-0.0119668,32,-0.00197652,10,-4.23621e-07,-4.92202,-0.0170433,-3.46176,1.59751,0.0353998,
2,0,0,1,0,61451.3,0.0372544,0.036914,-0.00978598,32,-0.00197975,10,-3.61239e-07,-5.0094,-0.0120907,-4.87977,1.72493,0.036914,
2,0,0,1,0,61452.8,0.0387526,0.0383307,-0.00739237,32,-0.00197962,10,-2.83355e-07,-5.13122,-0.00873959,-6.75089,1.69798,0.0383307,
2,0,0,1,0,61454.3,0.0402508,0.039879,-0.00502058,32,-0.0019754,10,-2.00216e-07,-5.29925,-0.00650345,-9.07211,1.49481,0.039879,
2,0,0,1,0,61455.8,0.041749,0.041407,-0.00216184,32,-0.00196757,10,-8.95153e-08,-5.66518,-0.0036336,-16.2373,1.29587,0.041407,
2,0,0,1,0,61457.3,0.0432472,0.0429213,-0.000260083,32,-0.0019568,10,-1.11631e-08,-6.58489,-0.0158106,-3.73166,1.33658,0.0429213,
2,1,0,1,0,61458.8,0.0447454,0.044392,0.00182596,32,-0.00194333,10,8.10579e-08,-5.73851,0.00831777,7.09325,1.25673,0.044392,
2,0,0,1,0,61460.3,0.0462435,0.0458903,0.00387527,32,-0.00192645,10,1.77837e-07,-5.4117,0.0037233,15.8461,1.38668,0.04589029,
2,1,0,1,0,61461.8,0.0477417,0.0474512,0.00538384,32,-0.00190639,10,2.5547e-07,-5.26891,0.00810087,7.28317,1.43214,0.0474512,
2,0,0,1,0,61463.3,0.0492399,0.0488817,0.00715096,32,-0.00188324,10,3.49551e-07,-5.14564,0.0117738,5.01112,1.43285,0.0488817,
2,1,0,1,0,61464.8,0.0507381,0.0503673,0.00922758,32,-0.00185746,10,4.64769e-07,-5.03491,0.015114,3.90367,1.41279,0.0503673,
2,1,0,1,0,61466.3,0.0522363,0.0519156,0.0114843,32,-0.00182822,10,5.96212e-07,-4.9399,0.0162882,3.62226,1.55767,0.0519156,
2,1,0,1,0,61467.8,0.0537345,0.05338,0.0137402,32,-0.00179574,10,7.3345e-07,-4.86201,0.0250283,2.35733,1.19716,0.05338,
2,1,0,1,0,61469.3,0.0552327,0.0548741,0.0159139,32,-0.00176043,10,8.73261e-07,-4.79822,0.0323624,1.8231,1.06407,0.0548741,
2,1,0,1,0,61470.8,0.0567309,0.0563714,0.0160014,32,-0.00172288,10,9.02022e-07,-4.79584,0.0349831,1.68653,1.09909,0.0563714,
2,1,0,1,0,61472.3,0.0582291,0.0578836,0.0191668,32,-0.00168279,10,1.10944e-06,-4.71745,0.038176,1.54548,1.10176,0.0578836,
2,1,0,1,0,61473.8,0.0597273,0.0593692,0.020138,32,-0.0016399,10,1.19558e-06,-4.69598,0.0413025,1.42848,1.12931,0.0593692,
2,1,0,1,0,61475.3,0.0612255,0.0608994,0.0215142,32,-0.00159475,10,1.3102e-06,-4.66727,0.0565382,1.04354,0.882918,0.0608994,
2,1,0,1,0,61476.8,0.0627237,0.0623957,0.0234067,32,-0.00154695,10,1.46048e-06,-4.63066,0.0503463,1.17188,1.0697,0.0623957,
2,1,0,1,0,61478.3,0.0642219,0.0638792,0.0245914,32,-0.00149747,10,1.57088e-06,-4.60922,0.0588636,1.00232,0.987863,0.0638792,
2,1,0,1,0,61479.8,0.0657201,0.0653563,0.0264459,32,-0.00144554,10,1.72841e-06,-4.57764,0.0571341,1.03266,1.06334,0.0653563,
2,1,0,1,0,61481.3,0.0672183,0.0668515,0.028447,32,-0.00139077,10,1.90173e-06,-4.54596,0.0518369,1.13819,1.23563,0.0668515,
2,1,0,1,0,61482.8,0.0687164,0.0683497,0.0305191,32,-0.00133347,10,2.08597e-06,-4.51543,0.0655537,0.900025,1.03673,0.0683497,
2,1,0,1,0,61484.3,0.0702146,0.0699085,0.0316819,32,-0.00127389,10,2.21484e-06,-4.49919,0.0764559,0.771687,0.938003,0.06990853,
2,1,0,1,0,61485.8,0.0717128,0.071355,0.0326814,32,-0.00121221,10,2.33198e-06,-4.4857,0.0719,0.820584,1.04578,0.071355,
2,1,0,1,0,61487.3,0.073211,0.0728862,0.0339482,32,-0.00114806,10,2.47435e-06,-4.46918,0.0891086,0.662114,0.878095,0.0728862,
2,1,0,1,0,61488.8,0.0747092,0.0743984,0.0349677,32,-0.0010821,10,2.60154e-06,-4.45633,0.119651,0.493103,0.684464,0.0743984,
2,1,0,1,0,61490.3,0.0762074,0.0758448,0.0361524,32,-0.001015,10,2.74197e-06,-4.44186,0.0847069,0.69652,1.00439,0.0758448,
2,1,0,1,0,61491.8,0.0777055,0.0773441,0.0380796,32,-0.000945461,10,2.94523e-06,-4.41931,0.0654095,0.90201,1.33124,0.07734409,
2,1,0,1,0,61493.3,0.0792037,0.0788679,0.0399296,32,-0.000873358,10,3.14917e-06,-4.3987,0.0914355,0.645264,0.995031,0.0788679,
2,1,0,1,0,61494.7,0.0807019,0.0803567,0.0409926,32,-0.000798799,10,3.29403e-06,-4.38729,0.0934358,0.63145,1.00942,0.0803567,
2,1,0,1,0,61496.2,0.0822001,0.0818636,0.0420572,32,-0.000722329,10,3.44295e-06,-4.37616,0.0897788,0.657171,1.10333,0.08186356,
2,1,0,1,0,61497.7,0.0836983,0.0833651,0.0448308,32,-0.000643193,10,3.73733e-06,-4.34842,0.0999533,0.590276,1.01908,0.0833651,
2,1,0,1,0,61499.2,0.0851965,0.0848635,0.0458496,32,-0.000561573,10,3.89095e-06,-4.33866,0.0996497,0.592074,1.07081,0.0848635,
2,1,0,1,0,61500.7,0.0866947,0.0863534,0.0471798,32,-0.000477811,10,4.07413e-06,-4.32624,0.141508,0.416937,0.76604,0.0863534,
2,1,0,1,0,61502.2,0.0881929,0.0878549,0.049177,32,-0.00039133,10,4.32044e-06,-4.30824,0.107988,0.546359,1.03953,0.0878549,
2,1,0,1,0,61503.7,0.0896911,0.0893353,0.0507634,32,-0.000303209,10,4.53496e-06,-4.29445,0.0959194,0.6151,1.22254,0.08933527,
2,1,0,1,0,61505.2,0.0911893,0.0908103,0.0527211,32,-0.000212243,10,4.78762e-06,-4.27802,0.0981046,0.601399,1.22506,0.0908103,
2,1,0,1,0,61506.7,0.0926875,0.0923044,0.0547493,32,-0.000117785,10,5.0536e-06,-4.26162,0.0926181,0.637024,1.34817,0.0923044,
2,1,0,1,0,61508.2,0.0941857,0.093878,0.0564462,32,-2.09715e-05,10,5.29906e-06,-4.24837,0.104147,0.566507,1.25262,0.093878,
2,1,0,1,0,61509.7,0.0956839,0.0953467,0.0579535,32,7.84894e-05,10,5.52567e-06,-4.23692,0.0870251,0.677966,1.53707,0.0953467,
2,1,0,1,0,61511.2,0.0971821,0.0968567,0.0604215,32,0.000181562,10,5.85223e-06,-4.21881,0.0818857,0.720516,1.69404,0.0968567,
2,1,0,1,0,61512.7,0.0986803,0.0983286,0.0624967,32,0.000288349,10,6.14521e-06,-4.20414,0.102968,0.572992,1.40415,0.0983286,
2,1,0,1,0,61514.2,0.100178,0.0998375,0.0649508,32,0.00039817,10,6.48452e-06,-4.18742,0.125365,0.470627,1.1941,0.0998375,
2,1,0,1,0,61515.7,0.101677,0.101314,0.0661424,32,0.000510473,10,6.70112e-06,-4.17952,0.114748,0.514171,1.33771,0.101314,
2,1,0,1,0,61517.2,0.103175,0.102843,0.0687078,32,0.000625566,10,7.06609e-06,-4.16299,0.117326,0.502874,1.34219,0.1028427,
2,1,0,1,0,61518.7,0.104673,0.104378,0.0713528,32,0.000743869,10,7.44768e-06,-4.14659,0.130234,0.453031,1.24393,0.104378,
2,1,0,1,0,61520.2,0.106171,0.105827,0.0725292,32,0.000865346,10,7.67553e-06,-4.13949,0.124673,0.473238,1.3343,0.105827,
2,1,0,1,0,61521.7,0.107669,0.107339,0.0741874,32,0.000989575,10,7.96319e-06,-4.12967,0.127195,0.463856,1.34854,0.107339,
2,1,0,1,0,61523.2,0.109167,0.108888,0.0760633,32,0.00111637,10,8.28239e-06,-4.11882,0.137162,0.430148,1.28471,0.108888,
2,1,0,1,0,61524.7,0.110666,0.110329,0.0778337,32,0.00124621,10,8.58732e-06,-4.10883,0.148464,0.397403,1.21308,0.110329,
2,1,0,1,0,61526.2,0.112164,0.111835,0.0796901,32,0.00137885,10,8.91213e-06,-4.0986,0.253623,0.232629,0.717903,0.111835,
2,1,0,1,0,61527.7,0.113662,0.113335,0.0812737,32,0.00151368,10,9.21119e-06,-4.09005,0.199761,0.295353,0.932281,0.1133354,
2,1,0,1,0,61529.2,0.11516,0.114825,0.0824517,32,0.00164997,10,9.46754e-06,-4.0838,0.18312,0.322193,1.0345,0.114825,
2,1,0,1,0,61530.7,0.116658,0.11634,0.0842211,32,0.00178918,10,9.79824e-06,-4.07458,0.182894,0.322591,1.05613,0.11634,
2,1,0,1,0,61532.2,0.118157,0.11781,0.0861352,32,0.00193113,10,1.01476e-05,-4.06482,0.205559,0.287022,0.95863,0.11781,
2,1,0,1,0,61533.7,0.119655,0.119313,0.0868838,32,0.00207508,10,1.03664e-05,-4.06106,0.267518,0.220546,0.749742,0.119313,
2,1,0,1,0,61535.2,0.121153,0.120824,0.0881053,32,0.00222025,10,1.06452e-05,-4.055,0.267505,0.220557,0.761186,0.120824,
2,1,0,1,0,61536.7,0.122651,0.122302,0.0890344,32,0.00236757,10,1.08891e-05,-4.05044,0.2071,0.284887,0.989632,0.122302,
2,1,0,1,0,61538.2,0.124149,0.123796,0.0906116,32,0.00251673,10,1.12174e-05,-4.04282,0.327541,0.18013,0.636449,0.1237964,
2,1,0,1,0,61539.7,0.125648,0.125275,0.0916979,32,0.00266727,10,1.14874e-05,-4.03764,0.447304,0.131901,0.470787,0.125275,
2,1,0,1,0,61541.2,0.127146,0.126787,0.0914669,32,0.00281893,10,1.15968e-05,-4.03874,0.564282,0.104558,0.374409,0.126787,
2,1,0,1,0,61542.7,0.128644,0.128284,0.092885,32,0.00297142,10,1.19157e-05,-4.03205,1.7715,0.0333051,0.119821,0.128284,
2,1,0,1,0,61544.2,0.130142,0.129837,0.0930742,32,0.00312438,10,1.20844e-05,-4.03117,-1.089,-0.054178,-0.194637,0.129837,
2,1,0,1,0,61545.7,0.13164,0.131291,0.0918831,32,0.00327704,10,1.20634e-05,-4.03676,-0.30956,-0.190593,-0.67864,0.131291,
2,1,0,1,0,61547.2,0.133139,0.132798,0.0908088,32,0.00342813,10,1.20592e-05,-4.04187,-0.187837,-0.314102,-1.11007,0.132798,
2,1,0,1,0,61548.7,0.134637,0.134319,0.0889715,32,0.00357676,10,1.19505e-05,-4.05075,-0.17219,-0.342646,-1.19182,0.134319,
2,1,0,1,0,61550.2,0.136135,0.135749,0.0873454,32,0.0037229,10,1.18571e-05,-4.05876,-0.127567,-0.462502,-1.56518,0.135749,
2,1,0,1,0,61551.7,0.137633,0.137258,0.0844868,32,0.0038657,10,1.15965e-05,-4.07321,-0.0962873,-0.61275,-2.00673,0.137258,
2,1,0,1,0,61553.2,0.139131,0.138771,0.0818059,32,0.0040039,10,1.13523e-05,-4.08722,-0.0856231,-0.689066,-2.17437,0.1387714,
2,1,0,1,0,61554.7,0.14063,0.140289,0.0782197,32,0.00413695,10,1.09734e-05,-4.10668,-0.0806359,-0.731684,-2.22032,0.140289,
2,1,0,1,0,61556.2,0.142128,0.141764,0.0751038,32,0.00426513,10,1.0647e-05,-4.12434,-0.0740917,-0.796311,-2.31594,0.141764,
2,1,0,1,0,61557.7,0.143626,0.14328,0.0714872,32,0.00438829,10,1.02427e-05,-4.14577,-0.0747447,-0.789354,-2.19521,0.14328,
2,1,0,1,0,61559.2,0.145124,0.144802,0.0680562,32,0.00450581,10,9.85466e-06,-4.16713,-0.0629731,-0.936908,-2.48188,0.144802,
2,1,0,1,0,61560.7,0.146622,0.14626,0.064187,32,0.00461822,10,9.38799e-06,-4.19255,-0.0738039,-0.799415,-2.0189,0.14626,
2,1,0,1,0,61562.2,0.14812,0.147784,0.0616142,32,0.00472577,10,9.10558e-06,-4.21032,-0.0866636,-0.680793,-1.64257,0.147784,
2,1,0,1,0,61563.7,0.149619,0.149285,0.0589286,32,0.00482941,10,8.79718e-06,-4.22967,-0.0886373,-0.665634,-1.54531,0.149285,
2,1,0,1,0,61565.2,0.151117,0.150727,0.0574546,32,0.0049299,10,8.65999e-06,-4.24068,-0.105356,-0.560006,-1.25966,0.150727,
2,1,0,1,0,61566.7,0.152615,0.152256,0.0553475,32,0.00502747,10,8.42696e-06,-4.2569,-0.116501,-0.506433,-1.1048,0.152256,
2,1,0,1,0,61568.2,0.154113,0.153737,0.0541897,32,0.00512246,10,8.33095e-06,-4.26608,-0.203936,-0.289306,-0.61879,0.153737,
2,1,0,1,0,61569.7,0.155611,0.155237,0.054095,32,0.00521621,10,8.39758e-06,-4.26684,-0.312856,-0.188585,-0.394016,0.155237,
2,1,0,1,0,61571.2,0.15711,0.156788,0.0525156,32,0.00530921,10,8.23379e-06,-4.27971,-0.22653,-0.260451,-0.536518,0.156788,
2,1,0,1,0,61572.7,0.158608,0.158233,0.0519288,32,0.00540085,10,8.21686e-06,-4.28459,-0.233703,-0.252457,-0.516322,0.158233,
2,1,0,1,0,61574.2,0.160106,0.159749,0.0513683,32,0.00549118,10,8.20605e-06,-4.28931,-0.249571,-0.236406,-0.477186,0.159749,
2,1,0,1,0,61575.7,0.161604,0.161269,0.0510191,32,0.00558072,10,8.2278e-06,-4.29227,-0.334449,-0.17641,-0.352591,0.161269,
2,1,0,1,0,61577.2,0.163102,0.162756,0.0506846,32,0.00566945,10,8.2492e-06,-4.29512,-0.668054,-0.0883162,-0.175449,0.162756,
2,1,0,1,0,61578.6,0.164601,0.164251,0.0506588,32,0.00575782,10,8.32075e-06,-4.29534,-0.729438,-0.0808842,-0.159018,0.164251,
2,1,0,1,0,61580.1,0.166099,0.165731,0.050247,32,0.00584571,10,8.32749e-06,-4.29889,15.6936,0.00375948,0.00736711,0.165731,
2,1,0,1,0,61581.6,0.167597,0.167253,0.0503751,32,0.00593362,10,8.42538e-06,-4.29778,1.83457,0.0321601,0.0631805,0.167253,
2,1,0,1,0,61583.1,0.169095,0.168751,0.0499958,32,0.00602173,10,8.43684e-06,-4.30107,2.39122,0.0246736,0.0487888,0.168751,
2,1,0,1,0,61584.6,0.170593,0.170236,0.0502766,32,0.00610961,10,8.55887e-06,-4.29863,11.89,0.00496213,0.00981053,0.170236,
2,1,0,1,0,61586.1,0.172091,0.171727,0.0505543,32,0.00619757,10,8.68152e-06,-4.29624,2.0444,0.0288594,0.0570385,0.171727,
2,1,0,1,0,61587.6,0.17359,0.17324,0.0502506,32,0.00628559,10,8.70541e-06,-4.29886,0.944088,0.0624942,0.123433,0.17324,
2,1,0,1,0,61589.1,0.175088,0.174723,0.0508363,32,0.00637393,10,8.88229e-06,-4.29383,15.0869,0.00391069,0.00771684,0.174723,
2,1,0,1,0,61590.6,0.176586,0.176197,0.0505256,32,0.00646221,10,8.90247e-06,-4.29649,-1.00377,-0.0587784,-0.116478,0.176197,
2,1,0,1,0,61592.1,0.178084,0.177754,0.0502679,32,0.00655028,10,8.93532e-06,-4.29871,1.29098,0.0457017,0.090848,0.177754,
2,1,0,1,0,61593.6,0.179582,0.179239,0.0510254,32,0.0066387,10,9.14573e-06,-4.29221,1.30484,0.0452164,0.089813,0.179239,
2,1,0,1,0,61595.1,0.181081,0.180732,0.0509283,32,0.00672736,10,9.20435e-06,-4.29304,19.1486,0.00308117,0.00614519,0.180732,
2,1,0,1,0,61596.6,0.182579,0.182253,0.0508541,32,0.00681596,10,9.26833e-06,-4.29367,1.91117,0.0308711,0.0617766,0.182253,
2,1,0,1,0,61598.1,0.184077,0.18371,0.0511712,32,0.00690475,10,9.40068e-06,-4.29097,0.808084,0.0730122,0.146293,0.18371,
2,1,0,1,0,61599.6,0.185575,0.185168,0.0515363,32,0.00699416,10,9.54289e-06,-4.28789,1.72461,0.0342107,0.0687036,0.185168,
2,1,0,1,0,61601.1,0.187073,0.186696,0.0517437,32,0.00708366,10,9.66036e-06,-4.28614,2.0947,0.0281663,0.0568987,0.1866965,
2,1,0,1,0,61602.6,0.188572,0.188191,0.0519434,32,0.0071733,10,9.77527e-06,-4.28447,0.978172,0.0603166,0.121952,0.188191,
2,1,0,1,0,61604.1,0.19007,0.189714,0.0521233,32,0.00726326,10,9.88855e-06,-4.28297,0.766314,0.076992,0.156033,0.189714,
2,1,0,1,0,61605.6,0.191568,0.191223,0.0519343,32,0.00735295,10,9.93106e-06,-4.28455,-10.4792,-0.00563019,-0.0114228,0.191223,
2,1,0,1,0,61607.1,0.193066,0.192682,0.0523125,32,0.00744315,10,1.00797e-05,-4.28139,0.381555,0.15463,0.315143,0.192682,
2,1,0,1,0,61608.6,0.194564,0.194199,0.0524822,32,0.00753334,10,1.0192e-05,-4.27999,1.47728,0.0399381,0.0817405,0.194199,
2,1,0,1,0,61610.1,0.196063,0.195697,0.052447,32,0.007624,10,1.02637e-05,-4.28028,0.908058,0.0649738,0.133074,0.195697,
2,1,0,1,0,61611.6,0.197561,0.197166,0.0522374,32,0.00771453,10,1.02994e-05,-4.28202,0.8843,0.0667194,0.13724,0.197166,
2,1,0,1,0,61613.1,0.199059,0.198688,0.0529792,32,0.0078054,10,1.05263e-05,-4.27589,0.76127,0.077502,0.159865,0.198688,
2,1,0,1,0,61614.6,0.200557,0.200214,0.0532551,32,0.00789678,10,1.06624e-05,-4.27364,1.15575,0.0510492,0.105808,0.200214,
2,1,0,1,0,61616.1,0.202055,0.201696,0.0533367,32,0.00798827,10,1.07578e-05,-4.27297,1.13475,0.0519937,0.108104,0.201696,
2,1,0,1,0,61617.6,0.203554,0.203195,0.053356,32,0.00808011,10,1.08417e-05,-4.27282,0.860749,0.068545,0.142004,0.203195,
2,1,0,1,0,61619.1,0.205052,0.204712,0.0533585,32,0.00817204,10,1.09231e-05,-4.2728,0.846736,0.0696793,0.146823,0.204712,
2,1,0,1,0,61620.6,0.20655,0.206197,0.0534357,32,0.00826395,10,1.10183e-05,-4.27217,102.988,0.000572881,0.0011994,0.206197,
2,1,0,1,0,61622.1,0.208048,0.207705,0.053666,32,0.00835642,10,1.11467e-05,-4.2703,-3.53346,-0.0166975,-0.0348629,0.207705,
2,1,0,1,0,61623.6,0.209546,0.209201,0.053661,32,0.00844868,10,1.1226e-05,-4.27034,-6.82728,-0.00864181,-0.0181034,0.209201,
2,1,0,1,0,61625.1,0.211044,0.210736,0.0541035,32,0.00854084,10,1.14015e-05,-4.26677,0.951357,0.0620167,0.131027,0.210736,
2,1,0,1,0,61626.6,0.212543,0.212183,0.0544017,32,0.00863361,10,1.15431e-05,-4.26439,0.478385,0.123332,0.261973,0.212183,
2,1,0,1,0,61628.1,0.214041,0.213704,0.0545985,32,0.00872666,10,1.16679e-05,-4.26282,1.27711,0.046198,0.0982353,0.213704,
2,1,0,1,0,61629.6,0.215539,0.215198,0.0550661,32,0.0088205,10,1.18501e-05,-4.25912,1.37142,0.043021,0.0919313,0.215198,
2,1,0,1,0,61631.1,0.217037,0.216666,0.0549134,32,0.00891419,10,1.18978e-05,-4.26032,1.91803,0.0307607,0.0660404,0.216666,
2,1,0,1,0,61632.6,0.218535,0.218161,0.0549406,32,0.00900815,10,1.19859e-05,-4.26011,0.628307,0.0939031,0.201574,0.218161,
2,1,0,1,0,61634.1,0.220034,0.21968,0.0553604,32,0.00910236,10,1.21616e-05,-4.2568,4.95302,0.0119119,0.0256986,0.2196804,
2,1,0,1,0,61635.6,0.221532,0.221185,0.0549466,32,0.00919662,10,1.21534e-05,-4.26006,1.99347,0.0295967,0.063747,0.221185,
2,1,0,1,0,61637.1,0.22303,0.222667,0.055214,32,0.00929089,10,1.22943e-05,-4.25795,0.66792,0.0883339,0.190874,0.222667,
2,1,0,1,0,61638.6,0.224528,0.224211,0.055443,32,0.00938555,10,1.24309e-05,-4.25615,0.819005,0.0720387,0.155854,0.224211,
2,1,0,1,0,61640.1,0.226026,0.225641,0.0559034,32,0.0094807,10,1.26141e-05,-4.25256,0.840255,0.0702168,0.15287,0.225641,
2,1,0,1,0,61641.6,0.227525,0.227146,0.0561796,32,0.00957616,10,1.2761e-05,-4.25042,-5.54702,-0.0106363,-0.0232084,0.227146,
2,1,0,1,0,61643.1,0.229023,0.22868,0.0562122,32,0.00967189,10,1.28546e-05,-4.25017,1.13797,0.0518468,0.113973,0.22868,
2,1,0,1,0,61644.6,0.230521,0.2302,0.056314,32,0.00976768,10,1.29635e-05,-4.24938,0.814508,0.0724364,0.160617,0.2302,
2,1,0,1,0,61646.1,0.232019,0.231683,0.056641,32,0.00986398,10,1.31228e-05,-4.24687,-2.16252,-0.0272829,-0.0602124,0.231683,
2,1,0,1,0,61647.6,0.233517,0.233206,0.0568114,32,0.00996049,10,1.32487e-05,-4.24556,6.00366,0.00982734,0.0216884,0.233206,
2,1,0,1,0,61649.1,0.235016,0.234602,0.0569616,32,0.0100568,10,1.33633e-05,-4.24442,2.90153,0.0203341,0.0447809,0.234602,
2,1,0,1,0,61650.6,0.236514,0.236142,0.0566721,32,0.0101529,10,1.33827e-05,-4.24663,6.22009,0.00948539,0.0208721,0.2361422,
2,1,0,1,0,61652.1,0.238012,0.237678,0.0567401,32,0.0102492,10,1.34858e-05,-4.24611,0.632353,0.0933023,0.206886,0.237678,
2,1,0,1,0,61653.6,0.23951,0.239123,0.0572508,32,0.0103458,10,1.369e-05,-4.24222,0.608864,0.0969018,0.215546,0.239123,
2,1,0,1,0,61655.1,0.241008,0.240623,0.0575272,32,0.0104429,10,1.38424e-05,-4.24013,0.378804,0.155754,0.349988,0.240623,
2,1,0,1,0,61656.6,0.242506,0.242134,0.0578488,32,0.0105401,10,1.40072e-05,-4.23771,0.482652,0.122241,0.275488,0.242134,
2,1,0,1,0,61658.1,0.244005,0.243646,0.05823,32,0.0106383,10,1.41875e-05,-4.23485,0.424989,0.138827,0.313419,0.243646,
2,1,0,1,0,61659.6,0.245503,0.245187,0.0582211,32,0.010737,10,1.42751e-05,-4.23492,0.513673,0.114859,0.261986,0.245187,
2,1,0,1,0,61661,0.247001,0.246644,0.0588135,32,0.010836,10,1.4506e-05,-4.23052,1.21841,0.0484236,0.110521,0.246644,
2,1,0,1,0,61662.5,0.248499,0.248107,0.0583255,32,0.0109352,10,1.44709e-05,-4.23414,-4.43323,-0.0133086,-0.0304368,0.248107,
2,1,0,1,0,61664,0.249997,0.249609,0.0587003,32,0.0110342,10,1.46521e-05,-4.23136,0.725857,0.0812833,0.186699,0.249609,
2,1,0,1,0,61665.5,0.251496,0.251157,0.0591291,32,0.0111337,10,1.48507e-05,-4.2282,0.842283,0.0700477,0.161196,0.251157,
2,1,0,1,0,61667,0.252994,0.252663,0.0592732,32,0.0112336,10,1.49762e-05,-4.22714,2.04951,0.0287874,0.0665207,0.252663,
2,1,0,1,0,61668.5,0.254492,0.254169,0.0596577,32,0.0113336,10,1.51631e-05,-4.22433,1.1471,0.051434,0.119632,0.254169,
2,1,0,1,0,61670,0.25599,0.255632,0.059632,32,0.0114339,10,1.52439e-05,-4.22452,0.810909,0.0727579,0.170399,0.255632,
2,1,0,1,0,61671.5,0.257488,0.257138,0.0600202,32,0.0115346,10,1.54335e-05,-4.2217,0.889506,0.0663289,0.155106,0.257138,
2,1,0,1,0,61673,0.258987,0.258665,0.0604834,32,0.011636,10,1.5645e-05,-4.21836,0.586066,0.100671,0.237611,0.258665,
2,1,0,1,0,61674.5,0.260485,0.260143,0.0606032,32,0.0117377,10,1.57655e-05,-4.2175,0.59555,0.099068,0.234407,0.260143,
2,1,0,1,0,61676,0.261983,0.261658,0.0606893,32,0.0118395,10,1.58798e-05,-4.21689,1.25893,0.0468651,0.110942,0.2616576,
2,1,0,1,0,61677.5,0.263481,0.263135,0.0608874,32,0.0119415,10,1.60216e-05,-4.21547,0.562367,0.104914,0.249388,0.263135,
2,1,0,1,0,61679,0.264979,0.264655,0.0615161,32,0.0120439,10,1.62806e-05,-4.21101,0.789438,0.0747367,0.178408,0.264655,
2,1,0,1,0,61680.5,0.266477,0.266123,0.061068,32,0.0121468,10,1.62516e-05,-4.21419,1.292,0.0456656,0.109137,0.266123,
2,1,0,1,0,61682,0.267976,0.267632,0.0609138,32,0.0122495,10,1.63025e-05,-4.21528,3.62411,0.0162799,0.0392156,0.267632,
2,1,0,1,0,61683.5,0.269474,0.269107,0.061624,32,0.0123523,10,1.65835e-05,-4.21025,0.63115,0.0934801,0.224842,0.269107,
2,1,0,1,0,61685,0.270972,0.27064,0.0618834,32,0.0124554,10,1.67481e-05,-4.20843,0.647535,0.0911148,0.219262,0.27064,
2,1,0,1,0,61686.5,0.27247,0.272105,0.0621421,32,0.0125592,10,1.69092e-05,-4.20661,0.648893,0.090924,0.219845,0.272105,
2,1,0,1,0,61688,0.273968,0.273603,0.0619693,32,0.012663,10,1.6955e-05,-4.20782,1.89863,0.031075,0.0754057,0.273603,
2,1,0,1,0,61689.5,0.275467,0.275109,0.0626118,32,0.0127671,10,1.72251e-05,-4.20334,2.45448,0.0240376,0.0582595,0.275109,
2,1,0,1,0,61691,0.276965,0.276638,0.062416,32,0.0128714,10,1.72666e-05,-4.2047,28.3708,0.0020796,0.00507791,0.276638,
2,1,0,1,0,61692.5,0.278463,0.278135,0.0622934,32,0.0129755,10,1.7326e-05,-4.20556,4.64238,0.012709,0.0309321,0.2781353,
2,1,0,1,0,61694,0.279961,0.279617,0.062684,32,0.0130799,10,1.75275e-05,-4.20284,0.960832,0.0614051,0.150829,0.279617,
2,1,0,1,0,61695.5,0.281459,0.281111,0.0630003,32,0.0131846,10,1.77101e-05,-4.20066,0.902086,0.065404,0.16098,0.281111,
2,1,0,1,0,61697,0.282958,0.282578,0.063224,32,0.0132899,10,1.78657e-05,-4.19912,2.35624,0.0250399,0.0616176,0.282578,
2,1,0,1,0,61698.5,0.284456,0.284166,0.0635573,32,0.0133956,10,1.80608e-05,-4.19683,1.10397,0.0534437,0.132324,0.284166,
2,1,0,1,0,61700,0.285954,0.285623,0.063824,32,0.0135012,10,1.82296e-05,-4.19502,1.58052,0.0373294,0.0930566,0.285623,
2,1,0,1,0,61701.5,0.287452,0.287138,0.0638951,32,0.0136074,10,1.83467e-05,-4.19453,0.692077,0.0852506,0.212406,0.287138,
2,1,0,1,0,61703,0.28895,0.288583,0.0643617,32,0.0137139,10,1.85737e-05,-4.19137,1.19227,0.0494854,0.12407,0.288583,
2,1,0,1,0,61704.5,0.290448,0.290085,0.0644721,32,0.0138209,10,1.87024e-05,-4.19063,13.3896,0.0044064,0.0110358,0.290085,
2,1,0,1,0,61706,0.291947,0.291606,0.0641231,32,0.0139278,10,1.86987e-05,-4.19299,-3.15813,-0.0186819,-0.0469734,0.291606,
2,1,0,1,0,61707.5,0.293445,0.2931,0.0641856,32,0.0140343,10,1.88128e-05,-4.19256,-2.25821,-0.0261269,-0.065731,0.2930997,
2,1,0,1,0,61709,0.294943,0.294585,0.0642885,32,0.014141,10,1.89385e-05,-4.19187,1.55026,0.0380582,0.0956251,0.294585,
2,1,0,1,0,61710.5,0.296441,0.296124,0.064826,32,0.0142481,10,1.91965e-05,-4.18825,1.69189,0.0348723,0.0876656,0.296124,
2,1,0,1,0,61712,0.297939,0.297632,0.064644,32,0.0143553,10,1.92401e-05,-4.18947,2.15439,0.0273859,0.0692682,0.297632,
2,1,0,1,0,61713.5,0.299438,0.299125,0.0644086,32,0.0144624,10,1.92662e-05,-4.19106,-0.00414347,-14.2393,-22.6675,0.2991249,
2,1,0,1,0,61714.3,0.299737,0.299417,0.0319741,32,0.0145112,10,9.57358e-06,-4.4952,0.00195223,30.2219,40.8139,0.299417,
2,1,0,1,0,61715.8,0.298239,0.297903,0.0177159,32,0.0145348,10,5.27761e-06,-4.75164,0.00506421,11.6504,14.1042,0.297903,
2,1,0,1,0,61717.3,0.296741,0.296373,0.0127999,32,0.0145471,10,3.79356e-06,-4.89279,0.0110067,5.36038,2.87699,0.296373,
2,1,0,1,0,61718.8,0.295243,0.294912,0.0101457,32,0.0145538,10,2.99208e-06,-4.99372,0.0122927,4.79959,1.8641,0.294912,
2,1,0,1,0,61720.3,0.293745,0.293402,0.0068509,32,0.0145561,10,2.01007e-06,-5.16425,0.00979087,6.02602,1.66468,0.293402,
2,1,0,1,0,61721.8,0.292246,0.291898,0.00511045,32,0.014555,10,1.49173e-06,-5.29154,0.00789968,7.46866,1.37927,0.291898,
2,1,0,1,0,61723.3,0.290748,0.290387,0.00312668,32,0.0145509,10,9.07948e-07,-5.50492,0.00507749,11.6199,1.19526,0.290387,
2,1,0,1,0,61724.8,0.28925,0.288861,0.00134216,32,0.014544,10,3.87697e-07,-5.8722,0.00335173,17.6028,1.06841,0.288861,
2,1,0,1,0,61726.3,0.287752,0.287406,-2.3029e-05,32,0.0145347,10,-6.61867e-09,-7.63773,0.223345,0.264165,1.03643,0.287406,
2,1,0,1,0,61727.8,0.286254,0.285883,-0.00120154,32,0.0145235,10,-3.43499e-07,-5.92026,-0.00484461,-12.1785,0.801976,0.285883,
2,0,0,1,0,61729.3,0.284755,0.284386,-0.00238946,32,0.0145102,10,-6.79531e-07,-5.6217,-0.00530274,-11.1263,0.829965,0.284386,
2,0,0,1,0,61730.8,0.283257,0.282914,-0.00367805,32,0.0144952,10,-1.04058e-06,-5.43438,-0.00933009,-6.32362,0.821604,0.282914,
2,1,0,1,0,61732.3,0.281759,0.281416,-0.00507777,32,0.0144783,10,-1.42897e-06,-5.29433,-0.0167638,-3.51949,0.647474,0.281416,
2,0,0,1,0,61733.8,0.280261,0.279886,-0.00597422,32,0.0144597,10,-1.6721e-06,-5.22372,-0.0208795,-2.82574,0.628927,0.279886,
2,1,0,1,0,61735.3,0.278763,0.278438,-0.00707471,32,0.0144396,10,-1.96987e-06,-5.15029,-0.0231645,-2.547,0.673347,0.278438,
2,1,0,1,0,61736.8,0.277264,0.27687,-0.00793093,32,0.0144181,10,-2.19584e-06,-5.10068,-0.0263247,-2.24124,0.689443,0.27687,
2,0,0,1,0,61738.3,0.275766,0.275425,-0.00877996,32,0.0143951,10,-2.41822e-06,-5.05651,-0.0392299,-1.50396,0.507691,0.275425,
2,0,0,1,0,61739.8,0.274268,0.273936,-0.0095036,32,0.0143707,10,-2.60338e-06,-5.02211,-0.0354251,-1.66549,0.626045,0.273936,
2,0,0,1,0,61741.3,0.27277,0.27242,-0.0103561,32,0.0143453,10,-2.82121e-06,-4.9848,-0.0399869,-1.47548,0.627667,0.27242,
2,0,0,1,0,61742.8,0.271272,0.270925,-0.0116534,32,0.0143181,10,-3.15721e-06,-4.93355,-0.0389484,-1.51483,0.692783,0.270925,
2,0,0,1,0,61744.3,0.269774,0.269477,-0.0124732,32,0.0142892,10,-3.36125e-06,-4.90402,-0.0469401,-1.25692,0.608612,0.269477,
2,0,0,1,0,61745.8,0.268275,0.267951,-0.0136807,32,0.0142589,10,-3.66576e-06,-4.86389,-0.0657681,-0.897091,0.458559,0.267951,
2,0,0,1,0,61747.3,0.266777,0.266423,-0.014186,32,0.0142276,10,-3.77949e-06,-4.84814,-0.080095,-0.736625,0.402274,0.266423,
2,0,0,1,0,61748.8,0.265279,0.264939,-0.0147384,32,0.0141953,10,-3.90476e-06,-4.83155,-0.070868,-0.832534,0.479643,0.264939,
2,0,0,1,0,61750.3,0.263781,0.263459,-0.0149511,32,0.0141622,10,-3.93899e-06,-4.82533,-0.0785884,-0.750747,0.457214,0.263459,
2,0,0,1,0,61751.8,0.262283,0.261944,-0.0159133,32,0.0141281,10,-4.16839e-06,-4.79824,-0.0979029,-0.602638,0.381352,0.261944,
2,0,0,1,0,61753.3,0.260784,0.260448,-0.0164061,32,0.014093,10,-4.27293e-06,-4.785,-0.0867575,-0.680056,0.4508,0.260448,
2,0,0,1,0,61754.8,0.259286,0.258925,-0.0172214,32,0.0140567,10,-4.45905e-06,-4.76393,-0.0677967,-0.870248,0.591071,0.258925,
2,0,0,1,0,61756.3,0.257788,0.257461,-0.0184461,32,0.0140191,10,-4.74914e-06,-4.7341,-0.109294,-0.539828,0.381638,0.257461,
2,0,0,1,0,61757.8,0.25629,0.255961,-0.0192154,32,0.0139803,10,-4.91839e-06,-4.71635,-0.0872734,-0.676036,0.492665,0.255961,
2,0,0,1,0,61759.3,0.254792,0.254421,-0.0193726,32,0.0139409,10,-4.9288e-06,-4.71281,-0.112792,-0.523088,0.396152,0.254421,
2,0,0,1,0,61760.8,0.253293,0.252943,-0.0200099,32,0.0139005,10,-5.06136e-06,-4.69876,-0.0940237,-0.627501,0.494456,0.252943,
2,0,0,1,0,61762.3,0.251795,0.251458,-0.0204291,32,0.0138592,10,-5.13704e-06,-4.68975,-0.112554,-0.524194,0.424804,0.251458,
2,0,0,1,0,61763.8,0.250297,0.249949,-0.0212316,32,0.0138166,10,-5.3068e-06,-4.67302,-0.150787,-0.39128,0.32692,0.249949,
2,0,0,1,0,61765.3,0.248799,0.248479,-0.022126,32,0.013773,10,-5.49783e-06,-4.6551,-0.0958737,-0.615393,0.536946,0.248479,
2,0,0,1,0,61766.8,0.247301,0.246935,-0.0231152,32,0.0137283,10,-5.70796e-06,-4.6361,-0.103395,-0.570625,0.504752,0.246935,
2,0,0,1,0,61768.3,0.245802,0.245463,-0.023477,32,0.0136825,10,-5.76274e-06,-4.62936,-0.12455,-0.473707,0.436765,0.2454631,
2,0,0,1,0,61769.8,0.244304,0.243922,-0.0238787,32,0.0136359,10,-5.82454e-06,-4.62199,-0.157664,-0.374214,0.351785,0.243922,
2,0,0,1,0,61771.3,0.242806,0.242457,-0.0244455,32,0.0135886,10,-5.92698e-06,-4.6118,-0.313395,-0.188261,0.179908,0.242457,
2,0,0,1,0,61772.8,0.241308,0.240956,-0.0249283,32,0.0135407,10,-6.00665e-06,-4.60331,-0.130157,-0.453297,0.440575,0.240956,
2,0,0,1,0,61774.3,0.23981,0.239465,-0.0257479,32,0.0134918,10,-6.16573e-06,-4.58926,-0.14258,-0.413803,0.414373,0.239465,
2,0,0,1,0,61775.8,0.238312,0.237976,-0.0261764,32,0.0134417,10,-6.22934e-06,-4.58209,-0.277833,-0.212358,0.214687,0.237976,
2,0,0,1,0,61777.3,0.236813,0.236435,-0.0266595,32,0.013391,10,-6.30323e-06,-4.57415,-0.293404,-0.201088,0.207773,0.236435,
2,0,0,1,0,61778.8,0.235315,0.234966,-0.0269636,32,0.01334,10,-6.33552e-06,-4.56922,-0.180888,-0.326168,0.344335,0.234966,
2,0,0,1,0,61780.3,0.233817,0.233473,-0.0277845,32,0.013288,10,-6.48692e-06,-4.5562,-0.116896,-0.504722,0.541186,0.233473,
2,0,0,1,0,61781.8,0.232319,0.231983,-0.0282178,32,0.013235,10,-6.54606e-06,-4.54948,-0.139453,-0.423081,0.467798,0.231983,
2,0,0,1,0,61783.3,0.230821,0.230506,-0.0289276,32,0.0131808,10,-6.66799e-06,-4.53869,-0.136938,-0.430853,0.482517,0.230506,
2,0,0,1,0,61784.8,0.229322,0.228971,-0.0291583,32,0.013126,10,-6.67639e-06,-4.53524,-0.153732,-0.383784,0.443566,0.228971,
2,0,0,1,0,61786.2,0.227824,0.22748,-0.0299391,32,0.0130702,10,-6.81054e-06,-4.52376,-0.161448,-0.365443,0.430832,0.22748,
2,0,0,1,0,61787.7,0.226326,0.22599,-0.0305961,32,0.0130134,10,-6.9144e-06,-4.51433,-0.211277,-0.279254,0.334275,0.22599,
2,0,0,1,0,61789.2,0.224828,0.224469,-0.0307007,32,0.0129556,10,-6.89136e-06,-4.51285,-0.231397,-0.254973,0.306841,0.2244691,
2,0,0,1,0,61790.7,0.22333,0.223009,-0.0315407,32,0.0128972,10,-7.03385e-06,-4.50113,-0.196967,-0.299543,0.373084,0.223009,
2,0,0,1,0,61792.2,0.221831,0.221447,-0.0319605,32,0.0128382,10,-7.07756e-06,-4.49539,-0.179658,-0.328403,0.412313,0.221447,
2,0,0,1,0,61793.7,0.220333,0.220009,-0.0330577,32,0.012778,10,-7.27299e-06,-4.48073,-0.174986,-0.337169,0.431769,0.2200091,
2,0,0,1,0,61795.2,0.218835,0.218471,-0.0337013,32,0.0127165,10,-7.36278e-06,-4.47235,-0.190034,-0.31047,0.405103,0.218471,
2,0,0,1,0,61796.7,0.217337,0.217012,-0.0345817,32,0.012654,10,-7.50465e-06,-4.46115,-0.193417,-0.305041,0.405869,0.217012,
2,0,0,1,0,61798.2,0.215839,0.215484,-0.0347677,32,0.012591,10,-7.4919e-06,-4.45882,-0.214607,-0.274921,0.374387,0.215484,
2,0,0,1,0,61799.7,0.21434,0.214001,-0.0354304,32,0.012527,10,-7.58214e-06,-4.45062,-0.251485,-0.234606,0.320156,0.214001,
2,0,0,1,0,61801.2,0.212842,0.212491,-0.0355944,32,0.0124621,10,-7.56348e-06,-4.44862,-0.186955,-0.315585,0.442916,0.212491,
2,0,0,1,0,61802.7,0.211344,0.210989,-0.0362304,32,0.0123966,10,-7.64423e-06,-4.44093,-0.292143,-0.201956,0.285747,0.2109894,
2,0,0,1,0,61804.2,0.209846,0.209472,-0.0365728,32,0.0123304,10,-7.66097e-06,-4.43684,-0.282103,-0.209143,0.299919,0.209472,
2,0,0,1,0,61805.7,0.208348,0.207989,-0.0373108,32,0.0122636,10,-7.76025e-06,-4.42817,-0.25365,-0.232604,0.336859,0.207989,
2,0,0,1,0,61807.2,0.20685,0.20648,-0.0385479,32,0.0121956,10,-7.95939e-06,-4.414,-0.250888,-0.235164,0.343428,0.20648,
2,0,0,1,0,61808.7,0.205351,0.204968,-0.0380682,32,0.0121269,10,-7.80277e-06,-4.41944,-0.249239,-0.23672,0.353733,0.204968,
2,0,0,1,0,61810.2,0.203853,0.203456,-0.0385948,32,0.0120577,10,-7.85235e-06,-4.41347,-0.164454,-0.358763,0.545874,0.203456,
2,0,0,1,0,61811.7,0.202355,0.202026,-0.0393481,32,0.0119873,10,-7.94932e-06,-4.40508,-0.179853,-0.328045,0.504184,0.202026,
2,0,0,1,0,61813.2,0.200857,0.200517,-0.040368,32,0.0119156,10,-8.09446e-06,-4.39396,-0.223787,-0.263643,0.415495,0.200517,
2,0,0,1,0,61814.7,0.199359,0.199006,-0.0406011,32,0.011843,10,-8.07986e-06,-4.39146,-0.206063,-0.286321,0.457714,0.199006,
2,0,0,1,0,61816.2,0.19786,0.197509,-0.0417651,32,0.0117695,10,-8.24901e-06,-4.37919,-0.285519,-0.206641,0.332408,0.197509,
2,0,0,1,0,61817.7,0.196362,0.196008,-0.0424893,32,0.0116948,10,-8.32824e-06,-4.37172,-0.287183,-0.205444,0.336121,0.196008,
2,0,0,1,0,61819.2,0.194864,0.194501,-0.0426993,32,0.0116194,10,-8.30505e-06,-4.36958,-0.306242,-0.192658,0.320294,0.194501,
2,0,0,1,0,61820.7,0.193366,0.192967,-0.0432062,32,0.0115429,10,-8.33735e-06,-4.36445,-0.313604,-0.188135,0.316529,0.192967,
2,0,0,1,0,61822.2,0.191868,0.191503,-0.0435604,32,0.011466,10,-8.34195e-06,-4.36091,-0.388253,-0.151963,0.260832,0.191503,
2,0,0,1,0,61823.7,0.190369,0.189985,-0.0440904,32,0.0113884,10,-8.37649e-06,-4.35566,-0.252514,-0.233651,0.402724,0.189985,
2,0,0,1,0,61825.2,0.188871,0.188514,-0.0445782,32,0.0113098,10,-8.40361e-06,-4.35088,-0.256514,-0.230007,0.399631,0.188514,
2,0,0,1,0,61826.7,0.187373,0.186957,-0.0451504,32,0.0112302,10,-8.44119e-06,-4.34534,-0.213472,-0.276383,0.490365,0.186957,
2,0,0,1,0,61828.2,0.185875,0.185503,-0.0459841,32,0.0111497,10,-8.53021e-06,-4.33739,-0.251526,-0.234569,0.421,0.1855035,
2,0,0,1,0,61829.7,0.184377,0.184015,-0.0463152,32,0.0110679,10,-8.52267e-06,-4.33428,-0.205633,-0.286919,0.52406,0.184015,
2,0,0,1,0,61831.2,0.182878,0.182509,-0.0478868,32,0.0109848,10,-8.73977e-06,-4.31978,-0.220796,-0.267215,0.495523,0.182509,
2,0,0,1,0,61832.7,0.18138,0.181022,-0.0485834,32,0.0109004,10,-8.79468e-06,-4.31351,-0.228192,-0.258554,0.488533,0.181022,
2,0,0,1,0,61834.2,0.179882,0.179551,-0.048961,32,0.010815,10,-8.79101e-06,-4.31015,-0.360227,-0.163786,0.311374,0.179551,
2,0,0,1,0,61835.7,0.178384,0.178029,-0.0494605,32,0.0107287,10,-8.80539e-06,-4.30574,-0.243161,-0.242637,0.468921,0.178029,
2,0,0,1,0,61837.2,0.176886,0.176502,-0.0504157,32,0.0106419,10,-8.89846e-06,-4.29743,-0.22255,-0.265109,0.522402,0.176502,
2,0,0,1,0,61838.7,0.175388,0.175035,-0.0510699,32,0.0105538,10,-8.93904e-06,-4.29183,-0.249333,-0.236631,0.468857,0.175035,
2,0,0,1,0,61840.2,0.173889,0.173503,-0.05177,32,0.0104645,10,-8.98224e-06,-4.28592,-0.254016,-0.232269,0.466134,0.173503,
2,0,0,1,0,61841.7,0.172391,0.172029,-0.0524947,32,0.0103741,10,-9.03061e-06,-4.27988,-0.213167,-0.276779,0.561984,0.172029,
2,0,0,1,0,61843.2,0.170893,0.170554,-0.0532787,32,0.0102828,10,-9.08688e-06,-4.27345,-0.205903,-0.286543,0.596438,0.170554,
2,0,0,1,0,61844.7,0.169395,0.16906,-0.0541103,32,0.0101898,10,-9.14787e-06,-4.26672,-0.158089,-0.373208,0.786763,0.16906,
2,0,0,1,0,61846.2,0.167897,0.167497,-0.0550855,32,0.0100952,10,-9.22665e-06,-4.25896,-0.198743,-0.296865,0.640595,0.167497,
2,0,0,1,0,61847.7,0.166398,0.16601,-0.0560168,32,0.00999903,10,-9.29934e-06,-4.25168,-0.237129,-0.24881,0.548318,0.16601,
2,0,0,1,0,61849.2,0.1649,0.164525,-0.0572847,32,0.00990167,10,-9.42478e-06,-4.24196,-0.213602,-0.276215,0.618127,0.164525,
2,0,0,1,0,61850.7,0.163402,0.163067,-0.0581842,32,0.00980248,10,-9.48794e-06,-4.2352,-0.158829,-0.37147,0.843027,0.163067,
2,0,0,1,0,61852.2,0.161904,0.16151,-0.0594104,32,0.00970169,10,-9.59535e-06,-4.22614,-0.182806,-0.322746,0.749339,0.16151,
2,0,0,1,0,61853.7,0.160406,0.159994,-0.0613682,32,0.00959882,10,-9.81856e-06,-4.21206,-0.168651,-0.349834,0.828716,0.159994,
2,0,0,1,0,61855.2,0.158907,0.158549,-0.0615092,32,0.00949428,10,-9.75223e-06,-4.21106,-0.171019,-0.344991,0.834269,0.158549,
2,0,0,1,0,61856.7,0.157409,0.157017,-0.0632851,32,0.00938777,10,-9.93683e-06,-4.1987,-0.143384,-0.411483,1.01735,0.157017,
2,0,0,1,0,61858.2,0.155911,0.155509,-0.0647853,32,0.00927895,10,-1.00747e-05,-4.18852,-0.155867,-0.378528,0.959843,0.155509,
2,0,0,1,0,61859.7,0.154413,0.154005,-0.0660494,32,0.00916736,10,-1.01719e-05,-4.18013,-0.149521,-0.394593,1.02283,0.154005,
2,0,0,1,0,61861.2,0.152915,0.15253,-0.0684278,32,0.00905324,10,-1.04373e-05,-4.16477,-0.133644,-0.441473,1.17372,0.15253,
2,0,0,1,0,61862.7,0.151417,0.151069,-0.0697655,32,0.00893673,10,-1.05394e-05,-4.15636,-0.150171,-0.392886,1.07548,0.1510689,
2,0,0,1,0,61864.2,0.149918,0.149568,-0.0712673,32,0.00881738,10,-1.06593e-05,-4.14711,-0.122347,-0.482233,1.34836,0.149568,
2,0,0,1,0,61865.7,0.14842,0.148077,-0.073951,32,0.0086949,10,-1.09505e-05,-4.13106,-0.117359,-0.50273,1.45027,0.148077,
2,0,0,1,0,61867.2,0.146922,0.14655,-0.0762182,32,0.00856927,10,-1.11697e-05,-4.11794,-0.119578,-0.493401,1.46279,0.14655,
2,0,0,1,0,61868.6,0.145424,0.14509,-0.0782707,32,0.00844037,10,-1.13563e-05,-4.1064,-0.104205,-0.566193,1.7323,0.1450904,
2,0,0,1,0,61870.1,0.143926,0.143603,-0.0812358,32,0.00830721,10,-1.16657e-05,-4.09025,-0.0889582,-0.663233,2.10373,0.143603,
2,0,0,1,0,61871.6,0.142427,0.142043,-0.0841114,32,0.00816936,10,-1.19474e-05,-4.07514,-0.0907552,-0.6501,2.14923,0.142043,
2,0,0,1,0,61873.1,0.140929,0.140542,-0.0873922,32,0.00802651,10,-1.22823e-05,-4.05853,-0.0865014,-0.68207,2.34577,0.140542,
2,0,0,1,0,61874.6,0.139431,0.139067,-0.0909435,32,0.00787868,10,-1.26473e-05,-4.04123,-0.0873316,-0.675586,2.41576,0.139067,
2,0,0,1,0,61876.1,0.137933,0.137583,-0.0952556,32,0.00772515,10,-1.31055e-05,-4.02111,-0.0820974,-0.718658,2.66858,0.137583,
2,0,0,1,0,61877.6,0.136435,0.136056,-0.0990783,32,0.00756553,10,-1.34802e-05,-4.00402,-0.0807912,-0.730278,2.81431,0.136056,
2,0,0,1,0,61879.1,0.134936,0.134582,-0.10334,32,0.0073998,10,-1.39077e-05,-3.98573,-0.0830481,-0.710432,2.85866,0.134582,
2,0,0,1,0,61880.6,0.133438,0.133089,-0.107192,32,0.00722781,10,-1.42661e-05,-3.96984,-0.085125,-0.693098,2.89173,0.133089,
2,0,0,1,0,61882.1,0.13194,0.131564,-0.111416,32,0.00704942,10,-1.46583e-05,-3.95305,-0.0898164,-0.656895,2.86552,0.131564,
2,0,0,1,0,61883.6,0.130442,0.130081,-0.115206,32,0.0068648,10,-1.49861e-05,-3.93853,-0.104336,-0.565483,2.55076,0.1300813,
2,0,0,1,0,61885.1,0.128944,0.128556,-0.1194,32,0.00667409,10,-1.53496e-05,-3.923,-0.118964,-0.495947,2.30068,0.1285564,
2,0,0,1,0,61886.6,0.127445,0.127043,-0.122774,32,0.00647842,10,-1.55977e-05,-3.91089,-0.124373,-0.47438,2.26977,0.127043,
2,0,0,1,0,61888.1,0.125947,0.125567,-0.126102,32,0.00627832,10,-1.58342e-05,-3.89928,-0.146961,-0.401468,1.96504,0.125567,
2,0,0,1,0,61889.6,0.124449,0.124073,-0.12892,32,0.00607312,10,-1.59955e-05,-3.88968,-0.177236,-0.33289,1.66101,0.124073,
2,0,0,1,0,61891.1,0.122951,0.122616,-0.130767,32,0.0058643,10,-1.60342e-05,-3.8835,-0.247307,-0.23857,1.21157,0.122616,
2,0,0,1,0,61892.6,0.121453,0.12105,-0.132553,32,0.00565279,10,-1.60455e-05,-3.87761,-0.322859,-0.182742,0.941385,0.12105,
2,0,0,1,0,61894.1,0.119955,0.119578,-0.133075,32,0.00543975,10,-1.59128e-05,-3.8759,-0.429478,-0.137376,0.716343,0.119578,
2,0,0,1,0,61895.6,0.118456,0.118068,-0.134187,32,0.00522468,10,-1.58432e-05,-3.87229,-0.397749,-0.148335,0.776256,0.118068,
2,0,0,1,0,61897.1,0.116958,0.116599,-0.135963,32,0.00500769,10,-1.58532e-05,-3.86658,-0.583799,-0.101062,0.534009,0.116599,
2,0,0,1,0,61898.6,0.11546,0.115083,-0.135919,32,0.00478974,10,-1.5642e-05,-3.86672,-1.67474,-0.0352293,0.187039,0.115083,
2,0,0,1,0,61900.1,0.113962,0.113556,-0.135484,32,0.00457171,10,-1.5385e-05,-3.86811,-2.55301,-0.02311,0.122922,0.113556,
2,0,0,1,0,61901.6,0.112464,0.112059,-0.136423,32,0.00435338,10,-1.52874e-05,-3.86511,-1.54699,-0.0381386,0.203,0.112059,
2,0,0,1,0,61903.1,0.110965,0.110635,-0.137171,32,0.00413426,10,-1.51759e-05,-3.86274,-3.36601,-0.0175282,0.0934491,0.110635,
2,0,0,1,0,61904.6,0.109467,0.109098,-0.137033,32,0.0039148,10,-1.495e-05,-3.86317,13.7988,0.00427574,-0.0227591,0.109098,
2,0,0,1,0,61906.1,0.107969,0.107612,-0.136592,32,0.00369553,10,-1.4699e-05,-3.86458,-32.6971,-0.00180444,0.00963297,0.107612,
2,0,0,1,0,61907.6,0.106471,0.106101,-0.136775,32,0.00347659,10,-1.4512e-05,-3.86399,-6.12404,-0.00963417,0.0515362,0.106101,
2,0,0,1,0,61909.1,0.104973,0.104608,-0.136533,32,0.00325735,10,-1.42825e-05,-3.86476,7.2653,0.00812079,-0.04326,0.1046083,
2,0,0,1,0,61910.6,0.103474,0.103108,-0.136914,32,0.00303804,10,-1.41169e-05,-3.86355,4.88548,0.0120766,-0.0642639,0.103108,
2,0,0,1,0,61912.1,0.101976,0.101605,-0.137094,32,0.00281894,10,-1.39294e-05,-3.86298,7.71569,0.00764676,-0.0407003,0.101605,
2,0,0,1,0,61913.6,0.100478,0.100165,-0.136239,32,0.00260026,10,-1.36464e-05,-3.8657,1.30357,0.0452603,-0.240646,0.1001651,
2,0,0,1,0,61915.1,0.0989798,0.0986169,-0.135798,32,0.00238188,10,-1.3392e-05,-3.86711,1.79945,0.0327877,-0.173862,0.0986169,
2,0,0,1,0,61916.6,0.0974816,0.0970952,-0.135529,32,0.00216411,10,-1.31592e-05,-3.86797,1.13357,0.052048,-0.275405,0.0970952,
2,0,0,1,0,61918.1,0.0959834,0.0956011,-0.134783,32,0.00194711,10,-1.28854e-05,-3.87036,0.824421,0.0715654,-0.377566,0.0956011,
2,0,0,1,0,61919.6,0.0944852,0.0941314,-0.13415,32,0.00173112,10,-1.26277e-05,-3.87241,0.745771,0.0791127,-0.415174,0.0941314,
2,0,0,1,0,61921.1,0.0929871,0.0925938,-0.133765,32,0.00151575,10,-1.23858e-05,-3.87366,1.92484,0.0306519,-0.159866,0.0925938,
2,0,0,1,0,61922.6,0.0914889,0.0911305,-0.133872,32,0.00130098,10,-1.21999e-05,-3.87331,0.62075,0.0950463,-0.494813,0.0911305,
2,0,0,1,0,61924.1,0.0899907,0.0896289,-0.132422,32,0.00108747,10,-1.18688e-05,-3.87804,0.545399,0.108178,-0.560412,0.08962895,
2,0,0,1,0,61925.6,0.0884925,0.0881412,-0.131082,32,0.000875347,10,-1.15537e-05,-3.88246,0.534511,0.110381,-0.567565,0.0881412,
2,0,0,1,0,61927.1,0.0869943,0.0866164,-0.13085,32,0.000664494,10,-1.13337e-05,-3.88323,0.75405,0.0782442,-0.399992,0.08661636,
2,0,0,1,0,61928.6,0.0854961,0.0851328,-0.130612,32,0.000454493,10,-1.11193e-05,-3.88402,0.63645,0.0927017,-0.471337,0.0851328,
2,0,0,1,0,61930.1,0.083998,0.0835974,-0.129689,32,0.000245634,10,-1.08416e-05,-3.8871,0.410082,0.143874,-0.726247,0.0835974,
2,0,0,1,0,61931.6,0.0824998,0.0820853,-0.128293,32,3.80218e-05,10,-1.0531e-05,-3.8918,0.675878,0.0872938,-0.438466,0.0820853,
2,0,0,1,0,61933.1,0.0810016,0.0806399,-0.127885,32,-0.000167953,10,-1.03126e-05,-3.89318,0.643114,0.0917411,-0.458558,0.0806399,
2,0,0,1,0,61934.6,0.0795034,0.0791532,-0.127093,32,-0.000373128,10,-1.00598e-05,-3.89588,0.565891,0.10426,-0.517632,0.07915324,
2,0,0,1,0,61936.1,0.0780052,0.0776284,-0.126443,32,-0.000577365,10,-9.81553e-06,-3.89811,0.438642,0.134506,-0.662966,0.0776284,
2,0,0,1,0,61937.6,0.076507,0.0761268,-0.125495,32,-0.000780294,10,-9.55356e-06,-3.90137,0.42004,0.140463,-0.68624,0.0761268,
2,0,0,1,0,61939.1,0.0750088,0.0746539,-0.124502,32,-0.000981268,10,-9.29459e-06,-3.90482,0.492706,0.119747,-0.583071,0.0746539,
2,0,0,1,0,61940.6,0.0735106,0.0731301,-0.123897,32,-0.00118154,10,-9.06062e-06,-3.90694,1.24905,0.0472361,-0.228122,0.0731301,
2,0,0,1,0,61942.1,0.0720124,0.0716444,-0.123254,32,-0.00138077,10,-8.83048e-06,-3.9092,0.632756,0.0932429,-0.450084,0.0716444,
2,0,0,1,0,61943.6,0.0705142,0.0701599,-0.122308,32,-0.00157918,10,-8.58115e-06,-3.91254,0.582886,0.10122,-0.484665,0.0701599,
2,0,0,1,0,61945.1,0.069016,0.0686286,-0.121834,32,-0.00177612,10,-8.36131e-06,-3.91423,0.5211,0.113222,-0.538991,0.0686286,
2,0,0,1,0,61946.6,0.0675178,0.0671069,-0.120963,32,-0.00197226,10,-8.11747e-06,-3.91735,1.11394,0.0529654,-0.250592,0.06710694,
2,0,0,1,0,61948.1,0.0660196,0.0656626,-0.121648,32,-0.00216764,10,-7.98771e-06,-3.9149,0.690838,0.0854036,-0.403066,0.0656626,
2,0,0,1,0,61949.6,0.0645214,0.0641303,-0.120334,32,-0.00236257,10,-7.71703e-06,-3.91961,0.792002,0.0744947,-0.348757,0.0641303,
2,0,0,1,0,61951,0.0630233,0.0626501,-0.119325,32,-0.00255613,10,-7.47571e-06,-3.92327,0.660425,0.0893364,-0.417351,0.0626501,
2,0,0,1,0,61952.5,0.0615251,0.0611836,-0.11872,32,-0.00274865,10,-7.26373e-06,-3.92548,0.682408,0.0864585,-0.401521,0.0611836,
2,0,0,1,0,61954,0.0600269,0.0596831,-0.118574,32,-0.00294043,10,-7.07687e-06,-3.92601,0.523579,0.112686,-0.519914,0.0596831,
2,0,0,1,0,61955.5,0.0585287,0.0581709,-0.117289,32,-0.00313099,10,-6.82281e-06,-3.93074,0.516671,0.114193,-0.524257,0.0581709,
2,0,0,1,0,61957,0.0570305,0.0566619,-0.117022,32,-0.00332063,10,-6.63069e-06,-3.93173,0.774894,0.0761394,-0.347787,0.0566619,
2,0,0,1,0,61958.5,0.0555323,0.0551954,-0.116435,32,-0.00350914,10,-6.42667e-06,-3.93392,0.892049,0.0661399,-0.301589,0.0551954,
2,0,0,1,0,61960,0.0540342,0.0537046,-0.115552,32,-0.00369669,10,-6.20569e-06,-3.93722,0.851965,0.0692517,-0.313236,0.0537046,
2,0,0,1,0,61961.5,0.052536,0.0521617,-0.115799,32,-0.00388405,10,-6.04025e-06,-3.9363,1.05358,0.0559994,-0.251346,0.0521617,
2,0,0,1,0,61963,0.0510378,0.0506803,-0.114964,32,-0.00407051,10,-5.82639e-06,-3.93944,0.694923,0.0849015,-0.380406,0.0506803,
2,0,0,1,0,61964.5,0.0495396,0.0491819,-0.113913,32,-0.00425555,10,-5.60246e-06,-3.94343,0.675762,0.0873089,-0.389625,0.0491819,
2,0,0,1,0,61966,0.0480414,0.0476592,-0.113405,32,-0.00443968,10,-5.4048e-06,-3.94537,2.40196,0.0245633,-0.10878,0.0476592,
2,0,0,1,0,61967.5,0.0465432,0.0461926,-0.112933,32,-0.00462334,10,-5.21667e-06,-3.94718,0.906717,0.0650699,-0.286664,0.0461926,
2,0,0,1,0,61969,0.045045,0.0446868,-0.112267,32,-0.00480603,10,-5.01684e-06,-3.94975,0.602562,0.0979152,-0.430374,0.0446868,
2,0,0,1,0,61970.5,0.0435468,0.0432044,-0.11161,32,-0.00498756,10,-4.82204e-06,-3.9523,0.684389,0.0862082,-0.375888,0.0432044,
2,0,0,1,0,61972,0.0420486,0.041689,-0.111455,32,-0.00516841,10,-4.64644e-06,-3.9529,0.915187,0.0644677,-0.279819,0.041689,
2,0,0,1,0,61973.5,0.0405504,0.0401853,-0.111213,32,-0.0053485,10,-4.46912e-06,-3.95385,0.798699,0.0738701,-0.319593,0.0401853,
2,0,0,1,0,61975,0.0390522,0.0386934,-0.1106,32,-0.00552821,10,-4.27949e-06,-3.95624,1.03418,0.05705,-0.245017,0.0386934,
2,0,0,1,0,61976.5,0.037554,0.037125,-0.109677,32,-0.00570705,10,-4.07177e-06,-3.95988,0.889809,0.0663063,-0.284779,0.037125,
2,0,0,1,0,61978,0.0360558,0.0356712,-0.1092,32,-0.0058846,10,-3.8953e-06,-3.96178,0.517122,0.114093,-0.488392,0.0356712,
2,0,0,1,0,61979.5,0.0345576,0.0341622,-0.108609,32,-0.00606171,10,-3.71033e-06,-3.96413,1.08027,0.0546159,-0.232278,0.0341622,
2,0,0,1,0,61981,0.0330594,0.0326713,-0.10878,32,-0.00623808,10,-3.55399e-06,-3.96345,0.587233,0.100471,-0.424188,0.0326713,
2,0,0,1,0,61982.5,0.0315613,0.0311773,-0.107846,32,-0.0064137,10,-3.36234e-06,-3.9672,0.710122,0.0830844,-0.349848,0.0311773,
2,0,0,1,0,61984,0.0300631,0.0296906,-0.10773,32,-0.00658814,10,-3.19857e-06,-3.96766,1.09315,0.0539725,-0.225757,0.0296906,
2,0,0,1,0,61985.5,0.0285649,0.0281837,-0.107158,32,-0.00676238,10,-3.02011e-06,-3.96998,2.67719,0.0220381,-0.0918492,0.0281837,
2,0,0,1,0,61987,0.0270667,0.0266991,-0.106943,32,-0.0069358,10,-2.8553e-06,-3.97085,1.4209,0.0415229,-0.173322,0.0266991,
2,0,0,1,0,61988.5,0.0255685,0.0252188,-0.106235,32,-0.00710888,10,-2.67913e-06,-3.97373,3.76086,0.0156879,-0.065074,0.0252188,
2,0,0,1,0,61990,0.0240703,0.0237226,-0.10609,32,-0.00728128,10,-2.51673e-06,-3.97433,1.31288,0.0449395,-0.186185,0.0237226,
2,0,0,1,0,61991.5,0.0225722,0.0221893,-0.105636,32,-0.00745361,10,-2.34398e-06,-3.97619,-1.74665,-0.0337789,0.139602,0.0221893,
2,0,0,1,0,61993,0.021074,0.0207036,-0.105727,32,-0.00762561,10,-2.18893e-06,-3.97581,2.8298,0.0208495,-0.0861543,0.0207036,
2,0,0,1,0,61994.5,0.0195758,0.0192064,-0.105557,32,-0.00779734,10,-2.02737e-06,-3.97651,4.68843,0.0125842,-0.0519413,0.0192064,
2,0,0,1,0,61996,0.0180776,0.0177196,-0.104833,32,-0.00796853,10,-1.85759e-06,-3.9795,32.6413,0.00180753,-0.00745572,0.0177196,
2,0,0,1,0,61997.5,0.0165794,0.0162287,-0.105918,32,-0.00813982,10,-1.71891e-06,-3.97503,-2.55279,-0.023112,0.0950101,0.0162287,
2,0,0,1,0,61999,0.0150812,0.0147102,-0.106048,32,-0.00831155,10,-1.55999e-06,-3.9745,-2.12376,-0.027781,0.114428,0.0147102,
2,0,0,1,0,62000.5,0.013583,0.0131917,-0.105688,32,-0.00848333,10,-1.39421e-06,-3.97597,23.065,0.00255799,-0.0105424,0.0131917,
2,0,0,1,0,62002,0.0120848,0.0117039,-0.105257,32,-0.00865499,10,-1.23192e-06,-3.97775,-2.50693,-0.0235348,0.0974657,0.0117039,
2,0,0,1,0,62003.5,0.0105866,0.0102374,-0.106238,32,-0.00882665,10,-1.08759e-06,-3.97372,-1.47588,-0.0399762,0.166357,0.0102374,
2,0,0,1,0,62005,0.00908843,0.00870612,-0.106179,32,-0.00899914,10,-9.24412e-07,-3.97396,-1.39113,-0.0424115,0.176256,0.00870612,
2,0,0,1,0,62006.5,0.00759024,0.00725021,-0.106743,32,-0.00917186,10,-7.73907e-07,-3.97166,-1.31086,-0.0450087,0.187929,0.00725021,
2,0,0,1,0,62008,0.00609203,0.00572532,-0.107299,32,-0.00934538,10,-6.1432e-07,-3.9694,-0.628202,-0.0939189,0.392828,0.00572532,
2,0,0,1,0,62009.5,0.00459384,0.00420576,-0.108232,32,-0.00951975,10,-4.55198e-07,-3.96564,-0.504656,-0.116911,0.492827,0.004205761,
2,0,0,1,0,62011,0.00309563,0.00274238,-0.108861,32,-0.00969525,10,-2.98537e-07,-3.96313,-0.549464,-0.107377,0.456866,0.00274238,
2,0,0,1,0,62012.5,0.00159744,0.00116447,-0.110225,32,-0.00987409,10,-1.28354e-07,-3.95772, , , ,0.00116447,
2,0,0,1,0,62013.9,0.000199235,-0.000151627,-0.110632,32,-0.0100402,10,1.67749e-08,-3.95612, , , ,-0.000151627,