File: Figure_codes/Fig_3-5/rawdata_trumpetplot_data/after 10th/20221101_1-115_003_TrumpetPlot_ParaChange_from10_every3_09_CV_C01_29.csv
mode,ox/red,error,control changes,counter inc.,time/s,control/V,Ewe/V,<I>/mA,cycle number,(Q-Qo)/C,I Range,P/W,log(|I|),Tafel slope mV/dec,alpha_eff,dI/d(E-IR),E-IR/V,
2,0,0,0,0,58316.3,2.44065e-05,-0.000401673,-5.30023,30,0.0000000E+000,10,2.12896e-06,-2.27571, , , ,-0.000401673,
2,0,0,1,0,58316.3,0.00179726,0.00136847,-3.27305,30,-7.2953e-05,10,-4.47906e-06,-2.48505, , , ,0.00136847,
2,0,0,1,0,58316.3,0.00379485,0.00343363,-1.84018,30,-0.000122753,10,-6.3185e-06,-2.73514,-0.00668697,-8.82312,607.53,0.00343363,
2,0,0,1,0,58316.4,0.00579244,0.00542162,-0.810637,30,-0.000148507,10,-4.39496e-06,-3.09117,-0.0017517,-33.6816,464.339,0.005421618,
2,0,0,1,0,58316.4,0.00779002,0.00737433,-0.0103565,30,-0.000156177,10,-7.63722e-08,-4.98479,-0.0369622,-1.59622,363.222,0.00737433,
2,1,0,1,0,58316.4,0.00978761,0.00939576,0.632859,30,-0.000149501,10,5.94619e-06,-3.19869,0.00200329,29.4516,282.599,0.00939576,
2,1,0,1,0,58316.4,0.0117852,0.0114698,1.14701,30,-0.000131327,10,1.3156e-05,-2.94043,0.0100385,5.87739,237.153,0.0114698,
2,1,0,1,0,58316.4,0.0137828,0.013375,1.57656,30,-0.00010381,10,2.10865e-05,-2.80229,0.0171144,3.44739,203.315,0.013375,
2,1,0,1,0,58316.5,0.0157804,0.0153961,1.9453,30,-6.83746e-05,10,2.995e-05,-2.71101,0.0257167,2.29423,169.891,0.0153961,
2,1,0,1,0,58316.5,0.017778,0.0173931,2.25919,30,-2.63126e-05,10,3.92943e-05,-2.64605,0.0355974,1.65742,143.611,0.0173931,
2,1,0,1,0,58316.5,0.0197755,0.0193969,2.51985,30,2.16221e-05,10,4.88771e-05,-2.59863,0.0464686,1.26967,123.789,0.0193969,
2,1,0,1,0,58316.5,0.0217731,0.0213861,2.75348,30,7.45381e-05,10,5.88861e-05,-2.56012,0.0566574,1.04135,111.175,0.0213861,
2,1,0,1,0,58316.5,0.0237707,0.0233853,2.96326,30,0.000131876,10,6.92966e-05,-2.52823,0.0689369,0.855855,98.4384,0.0233853,
2,1,0,1,0,58316.6,0.0257683,0.0254109,3.14967,30,0.000192843,10,8.0036e-05,-2.50173,0.0815946,0.723087,88.543,0.0254109,
2,1,0,1,0,58316.6,0.0277659,0.0273994,3.31868,30,0.000257668,10,9.09301e-05,-2.47903,0.0930453,0.6341,81.9238,0.0273994,
2,1,0,1,0,58316.6,0.0297635,0.0294019,3.47663,30,0.000325782,10,0.000102219,-2.45884,0.10774,0.547613,74.0591,0.0294019,
2,1,0,1,0,58316.6,0.0317611,0.0314165,3.61618,30,0.000396834,10,0.000113608,-2.44175,0.116549,0.506223,71.4539,0.0314165,
2,1,0,1,0,58316.6,0.0337586,0.0333762,3.76061,30,0.000470342,10,0.000125515,-2.42474,0.127898,0.461305,67.4929,0.0333762,
2,1,0,1,0,58316.7,0.0357562,0.0353974,3.88487,30,0.000546959,10,0.000137514,-2.41062,0.146846,0.401781,60.8438,0.0353974,
2,1,0,1,0,58316.7,0.0377538,0.037351,4.00245,30,0.000626018,10,0.000149495,-2.39767,0.151709,0.388903,60.767,0.03735096,
2,1,0,1,0,58316.7,0.0397514,0.0393485,4.12496,30,0.000707423,10,0.000162311,-2.38458,0.154442,0.382021,61.5034,0.0393485,
2,1,0,1,0,58316.7,0.041749,0.0413839,4.25049,30,0.000790825,10,0.000175902,-2.37156,0.173959,0.339161,56.0929,0.0413839,
2,1,0,1,0,58316.7,0.0437466,0.0434072,4.35263,30,0.00087696,10,0.000188935,-2.36125,0.190635,0.309492,52.5892,0.0434072,
2,1,0,1,0,58316.8,0.0457442,0.0453502,4.45908,30,0.000965185,10,0.00020222,-2.35076,0.192611,0.306316,53.2856,0.0453502,
2,1,0,1,0,58316.8,0.0477418,0.0473687,4.56372,30,0.00105551,10,0.000216177,-2.34068,0.194797,0.302879,53.9856,0.0473687,
2,1,0,1,0,58316.8,0.0497484,0.0493863,4.67697,30,0.00114795,10,0.000230978,-2.33004,0.207294,0.28462,51.8294,0.0493863,
2,1,0,1,0,58316.8,0.0517369,0.0513457,4.76984,30,0.00124198,10,0.000244911,-2.3215,0.227793,0.259008,48.2491,0.0513457,
2,1,0,1,0,58316.8,0.0537345,0.0534042,4.87083,30,0.00133847,10,0.000260123,-2.3124,0.232076,0.254227,48.2795,0.0534042,
2,1,0,1,0,58316.9,0.0557321,0.0553586,4.96358,30,0.00143697,10,0.000274777,-2.3042,0.241088,0.244724,47.4021,0.0553586,
2,1,0,1,0,58316.9,0.0577206,0.057324,5.05663,30,0.00153676,10,0.000289867,-2.29614,0.240114,0.245717,48.5227,0.057324,
2,1,0,1,0,58316.9,0.0597273,0.0593564,5.15757,30,0.00163908,10,0.000306135,-2.28756,0.248634,0.237297,47.7243,0.0593564,
2,1,0,1,0,58316.9,0.0617249,0.0614,5.25116,30,0.00174329,10,0.000322421,-2.27974,0.270513,0.218104,44.6573,0.0614,
2,1,0,1,0,58316.9,0.0637225,0.0633595,5.33634,30,0.00184927,10,0.000338108,-2.27276,0.278226,0.212058,44.1785,0.0633595,
2,1,0,1,0,58317,0.06572,0.0653606,5.42613,30,0.00195697,10,0.000354656,-2.26551,0.277461,0.212643,45.0189,0.0653606,
2,1,0,1,0,58317,0.0677176,0.0673093,5.51415,30,0.00206603,10,0.000371154,-2.25852,0.294152,0.200577,43.1495,0.0673093,
2,1,0,1,0,58317,0.0697152,0.0693749,5.59935,30,0.00217733,10,0.000388454,-2.25186,0.309133,0.190856,41.6939,0.0693749,
2,1,0,1,0,58317,0.0717128,0.0713326,5.6819,30,0.00229022,10,0.000405305,-2.24551,0.315234,0.187162,41.4987,0.0713326,
2,1,0,1,0,58317,0.0737104,0.0733463,5.76416,30,0.00240476,10,0.00042278,-2.23926,0.325956,0.181006,40.712,0.0733463,
2,1,0,1,0,58317.1,0.075708,0.0753472,5.84534,30,0.00252042,10,0.00044043,-2.23319,0.349822,0.168657,38.4442,0.0753472,
2,1,0,1,0,58317.1,0.0777056,0.077344,5.91784,30,0.0026381,10,0.00045771,-2.22784,0.373054,0.158154,36.53,0.077344,
2,1,0,1,0,58317.1,0.0797031,0.0793647,5.9921,30,0.0027573,10,0.000475561,-2.22242,0.391159,0.150834,35.2519,0.0793647,
2,1,0,1,0,58317.1,0.0817007,0.0813706,6.05979,30,0.00287794,10,0.000493088,-2.21754,0.398539,0.148041,35.0221,0.0813706,
2,1,0,1,0,58317.1,0.0836983,0.0833572,6.13193,30,0.00299936,10,0.00051114,-2.2124,0.400138,0.147449,35.271,0.0833572,
2,1,0,1,0,58317.2,0.0856959,0.0853273,6.19935,30,0.00312277,10,0.000528974,-2.20765,0.417668,0.14126,34.176,0.08532735,
2,1,0,1,0,58317.2,0.0876935,0.0873091,6.26699,30,0.00324752,10,0.000547165,-2.20294,0.454025,0.129949,31.7609,0.0873091,
2,1,0,1,0,58317.2,0.0896911,0.0893253,6.32633,30,0.00337351,10,0.000565101,-2.19885,0.441022,0.13378,33.0646,0.0893253,
2,1,0,1,0,58317.2,0.0916887,0.0913146,6.39943,30,0.00350017,10,0.000584361,-2.19386,0.419758,0.140557,35.0864,0.0913146,
2,1,0,1,0,58317.2,0.0936863,0.0933231,6.46659,30,0.00362889,10,0.000603483,-2.18932,0.48076,0.122722,30.9471,0.0933231,
2,1,0,1,0,58317.3,0.0956838,0.0953377,6.52393,30,0.00375886,10,0.000621977,-2.18549,0.460845,0.128026,32.633,0.0953377,
2,1,0,1,0,58317.3,0.0976814,0.0972981,6.59631,30,0.00389016,10,0.000641808,-2.1807,0.369899,0.159503,41.1116,0.0972981,
2,1,0,1,0,58317.3,0.099679,0.0992673,6.68548,30,0.00402235,10,0.00066365,-2.17487,0.396854,0.148669,38.7219,0.0992673,
2,1,0,1,0,58317.3,0.101677,0.101315,6.75184,30,0.00415685,10,0.00068406,-2.17058,0.385143,0.15319,40.4543,0.101315,
2,1,0,1,0,58317.3,0.103674,0.103294,6.84838,30,0.00429298,10,0.000707396,-2.16441,0.318284,0.185369,49.5651,0.103294,
2,1,0,1,0,58317.4,0.105672,0.10535,6.95183,30,0.00443102,10,0.000732372,-2.1579,0.303237,0.194567,52.8045,0.10535,
2,1,0,1,0,58317.4,0.107667,0.107317,7.0608,30,0.00457043,10,0.000757742,-2.15115,0.293408,0.201085,55.414,0.107317,
2,1,0,1,0,58317.4,0.109667,0.109317,7.17166,30,0.00471275,10,0.000783981,-2.14438,0.287456,0.205249,57.4668,0.109317,
2,1,0,1,0,58317.4,0.111665,0.111283,7.28875,30,0.00485739,10,0.000811117,-2.13735,0.269422,0.218987,62.337,0.111283,
2,1,0,1,0,58317.4,0.113662,0.113263,7.41766,30,0.00500451,10,0.000840145,-2.12973,0.269105,0.219245,63.4348,0.113263,
2,1,0,1,0,58317.5,0.11566,0.115244,7.54002,30,0.00515413,10,0.000868946,-2.12263,0.260417,0.22656,66.7523,0.115244,
2,1,0,1,0,58317.5,0.117657,0.117237,7.68295,30,0.00530575,10,0.000900728,-2.11447,0.268309,0.219895,65.8536,0.1172372,
2,1,0,1,0,58317.5,0.119655,0.119326,7.80878,30,0.00546075,10,0.000931787,-2.10742,0.298969,0.197345,60.105,0.119326,
2,1,0,1,0,58317.5,0.121652,0.121288,7.92644,30,0.00561818,10,0.000961385,-2.10092,0.295248,0.199832,61.8556,0.121288,
2,1,0,1,0,58317.5,0.12365,0.123312,8.05533,30,0.00577804,10,0.000993315,-2.09392,0.289535,0.203775,64.0386,0.123312,
2,1,0,1,0,58317.6,0.125648,0.125244,8.17974,30,0.0059397,10,0.00102446,-2.08726,0.320761,0.183937,58.6512,0.125244,
2,1,0,1,0,58317.6,0.127645,0.127254,8.28658,30,0.00610445,10,0.0010545,-2.08162,0.376181,0.156839,50.6943,0.127254,
2,1,0,1,0,58317.6,0.129643,0.129299,8.38531,30,0.00627123,10,0.00108421,-2.07648,0.400421,0.147345,48.2053,0.129299,
2,1,0,1,0,58317.6,0.13164,0.131267,8.48003,30,0.00643995,10,0.00111315,-2.0716,0.438454,0.134564,44.5019,0.131267,
2,1,0,1,0,58317.6,0.133638,0.133298,8.56326,30,0.00660968,10,0.00114146,-2.06736,0.505953,0.116612,38.9486,0.1332975,
2,1,0,1,0,58317.7,0.135636,0.135298,8.63701,30,0.00678179,10,0.00116857,-2.06364,0.540916,0.109074,36.7646,0.135298,
2,1,0,1,0,58317.7,0.137633,0.1373,8.71041,30,0.00695534,10,0.00119594,-2.05996,0.645583,0.0913903,31.0261,0.1373,
2,1,0,1,0,58317.7,0.139631,0.139296,8.76107,30,0.00713018,10,0.00122038,-2.05744,0.707152,0.0834332,28.5455,0.139296,
2,1,0,1,0,58317.7,0.141628,0.141251,8.82321,30,0.00730519,10,0.00124629,-2.05437,0.855087,0.0689988,23.7176,0.141251,
2,1,0,1,0,58317.7,0.143626,0.14324,8.85461,30,0.00748201,10,0.00126834,-2.05283,1.48385,0.0397616,13.7343,0.14324,
2,1,0,1,0,58317.8,0.145623,0.145267,8.87835,30,0.00765941,10,0.00128973,-2.05167,5.5384,0.0106529,3.68437,0.145267,
2,1,0,1,0,58317.8,0.147621,0.147258,8.86941,30,0.00783691,10,0.00130609,-2.05211,-3.38649,-0.0174222,-6.0285,0.147258,
2,1,0,1,0,58317.8,0.149619,0.149259,8.85429,30,0.00801332,10,0.00132158,-2.05285,-1.03146,-0.0572004,-19.7125,0.149259,
2,1,0,1,0,58317.8,0.151616,0.151213,8.79144,30,0.00818988,10,0.00132938,-2.05594,-0.520265,-0.113404,-38.8442,0.151213,
2,1,0,1,0,58317.8,0.153614,0.153238,8.69973,30,0.00836486,10,0.00133313,-2.06049,-0.36567,-0.161348,-54.6639,0.153238,
2,1,0,1,0,58317.9,0.155611,0.155234,8.57167,30,0.00853764,10,0.00133061,-2.06693,-0.284703,-0.207233,-69.2245,0.155234,
2,1,0,1,0,58317.9,0.157609,0.157274,8.42032,30,0.00870676,10,0.0013243,-2.07467,-0.216065,-0.273066,-89.4298,0.157274,
2,1,0,1,0,58317.9,0.159607,0.15923,8.2143,30,0.0088732,10,0.00130796,-2.08543,-0.172337,-0.342352,-109.592,0.1592299,
2,1,0,1,0,58317.9,0.161604,0.161215,7.98836,30,0.00903528,10,0.00128785,-2.09754,-0.155318,-0.379867,-118.241,0.161215,
2,1,0,1,0,58317.9,0.163602,0.163225,7.74194,30,0.00919263,10,0.00126368,-2.11115,-0.141226,-0.417769,-126.021,0.1632248,
2,1,0,1,0,58318,0.165606,0.165281,7.47596,30,0.00934482,10,0.00123564,-2.12633,-0.130393,-0.452477,-131.966,0.165281,
2,1,0,1,0,58318,0.167597,0.167251,7.21062,30,0.009491,10,0.00120598,-2.14203,-0.124467,-0.474021,-133.337,0.167251,
2,1,0,1,0,58318,0.169595,0.169258,6.94573,30,0.00963256,10,0.00117562,-2.15828,-0.120968,-0.487731,-132.218,0.169258,
2,1,0,1,0,58318,0.171592,0.171201,6.68833,30,0.00976891,10,0.00114505,-2.17468,-0.121386,-0.486051,-126.92,0.171201,
2,1,0,1,0,58318,0.173581,0.173224,6.44237,30,0.00989953,10,0.00111597,-2.19095,-0.129263,-0.456434,-114.941,0.173224,
2,1,0,1,0,58318.1,0.175587,0.175255,6.22243,30,0.0100262,10,0.00109051,-2.20604,-0.134354,-0.439138,-106.691,0.175255,
2,1,0,1,0,58318.1,0.177585,0.177246,6.01324,30,0.0101486,10,0.00106582,-2.22089,-0.136386,-0.432594,-101.591,0.177246,
2,1,0,1,0,58318.1,0.179582,0.179246,5.81698,30,0.0102668,10,0.00104267,-2.2353,-0.143494,-0.411167,-93.487,0.179246,
2,1,0,1,0,58318.1,0.18158,0.18121,5.64265,30,0.0103814,10,0.00102251,-2.24852,-0.158602,-0.372,-82.0406,0.18121,
2,1,0,1,0,58318.1,0.183578,0.183254,5.48813,30,0.0104921,10,0.00100572,-2.26058,-0.166358,-0.354656,-75.9789,0.183254,
2,1,0,1,0,58318.2,0.185575,0.185208,5.33888,30,0.0106004,10,0.000988805,-2.27255,-0.171687,-0.343648,-71.691,0.185208,
2,1,0,1,0,58318.2,0.187573,0.187198,5.20535,30,0.0107058,10,0.000974433,-2.28355,-0.18739,-0.314851,-64.0229,0.187198,
2,1,0,1,0,58318.2,0.18957,0.189191,5.0839,30,0.0108087,10,0.000961828,-2.2938,-0.20381,-0.289486,-57.4938,0.189191,
2,1,0,1,0,58318.2,0.191568,0.191216,4.97434,30,0.0109089,10,0.000951175,-2.30326,-0.218342,-0.270218,-52.5018,0.191216,
2,1,0,1,0,58318.2,0.193566,0.193179,4.87453,30,0.0110074,10,0.000941656,-2.31207,-0.238379,-0.247505,-47.1293,0.193179,
2,1,0,1,0,58318.3,0.195563,0.19523,4.78519,30,0.011104,10,0.000934211,-2.3201,-0.243163,-0.242635,-45.287,0.19523,
2,1,0,1,0,58318.3,0.197561,0.197217,4.69165,30,0.0111988,10,0.000925273,-2.32867,-0.266258,-0.22159,-40.6854,0.197217,
2,1,0,1,0,58318.3,0.199558,0.199168,4.62497,30,0.0112915,10,0.000921145,-2.33489,-0.301461,-0.195714,-35.2964,0.199168,
2,1,0,1,0,58318.3,0.201556,0.201194,4.55128,30,0.0113833,10,0.00091569,-2.34187,-0.292865,-0.201458,-35.7922,0.201194,
2,1,0,1,0,58318.3,0.203553,0.203201,4.4806,30,0.0114737,10,0.000910464,-2.34866,-0.313322,-0.188304,-32.9586,0.203201,
2,1,0,1,0,58318.4,0.205551,0.205207,4.419,30,0.0115627,10,0.000906812,-2.35468,-0.407132,-0.144916,-25.0546,0.205207,
2,1,0,1,0,58318.4,0.207549,0.207222,4.37985,30,0.0116502,10,0.000907604,-2.35854,-0.418748,-0.140896,-24.0358,0.207222,
2,1,0,1,0,58318.4,0.209546,0.209175,4.32363,30,0.0117373,10,0.000904397,-2.36415,-0.365202,-0.161554,-27.2722,0.209175,
2,1,0,1,0,58318.4,0.211544,0.211191,4.27163,30,0.0118232,10,0.000902128,-2.36941,-0.404456,-0.145875,-24.3376,0.211191,
2,1,0,1,0,58318.4,0.213541,0.213159,4.22668,30,0.0119082,10,0.000900954,-2.374,-0.508168,-0.116103,-19.1831,0.213159,
2,1,0,1,0,58318.5,0.215539,0.215142,4.19583,30,0.0119919,10,0.000902699,-2.37718,-0.512353,-0.115155,-18.8248,0.215142,
2,1,0,1,0,58318.5,0.217537,0.217178,4.15101,30,0.0120753,10,0.00090151,-2.38185,-0.45883,-0.128588,-20.8449,0.217178,
2,1,0,1,0,58318.5,0.219534,0.219171,4.11186,30,0.0121579,10,0.000901197,-2.38596,-0.549542,-0.107362,-17.247,0.219171,
2,1,0,1,0,58318.5,0.221532,0.221203,4.0816,30,0.0122399,10,0.000902862,-2.38917,-0.637022,-0.0926184,-14.7555,0.2212029,
2,1,0,1,0,58318.5,0.223525,0.223182,4.05266,30,0.0123209,10,0.000904482,-2.39226,-0.648614,-0.0909632,-14.3874,0.223182,
2,1,0,1,0,58318.6,0.225527,0.2252,4.02409,30,0.0124016,10,0.000906226,-2.39533,-0.648333,-0.0910026,-14.2915,0.2252,
2,1,0,1,0,58318.6,0.227525,0.227181,3.99551,30,0.0124819,10,0.000907705,-2.39843,-0.619809,-0.0951906,-14.8398,0.2271812,
2,1,0,1,0,58318.6,0.229522,0.229168,3.9652,30,0.0125616,10,0.0009087,-2.40173,-0.763273,-0.0772987,-11.9808,0.229168,
2,1,0,1,0,58318.6,0.23152,0.231187,3.94752,30,0.0126407,10,0.000912614,-2.40368,-1.0268,-0.05746,-8.85245,0.231187,
2,1,0,1,0,58318.6,0.233517,0.233137,3.93007,30,0.0127192,10,0.000916246,-2.4056,-0.879405,-0.0670908,-10.2817,0.233137,
2,1,0,1,0,58318.7,0.235515,0.235213,3.90613,30,0.0127976,10,0.00091877,-2.40825,-0.793765,-0.0743293,-11.334,0.235213,
2,1,0,1,0,58318.7,0.237512,0.237175,3.88431,30,0.0128755,10,0.00092126,-2.41069,-1.09051,-0.0541034,-8.2132,0.237175,
2,1,0,1,0,58318.7,0.23951,0.239189,3.87347,30,0.0129531,10,0.000926491,-2.4119,-1.23916,-0.047613,-7.19116,0.239189,
2,1,0,1,0,58318.7,0.241508,0.241151,3.85571,30,0.01303,10,0.00092981,-2.4139,-1.00293,-0.0588275,-8.85248,0.241151,
2,1,0,1,0,58318.7,0.243505,0.243161,3.83831,30,0.0131069,10,0.000933326,-2.41586,-1.07126,-0.0550753,-8.25232,0.243161,
2,1,0,1,0,58318.8,0.245503,0.245116,3.82299,30,0.0131835,10,0.000937078,-2.4176,-1.07795,-0.0547333,-8.16387,0.245116,
2,1,0,1,0,58318.8,0.2475,0.247172,3.80556,30,0.0132599,10,0.000940628,-2.41958,-1.29909,-0.0454165,-6.75173,0.247172,
2,1,0,1,0,58318.8,0.249498,0.249185,3.79552,30,0.0133356,10,0.000945788,-2.42073,-1.30905,-0.045071,-6.67065,0.249185,
2,1,0,1,0,58318.8,0.251496,0.251131,3.77915,30,0.0134113,10,0.000949063,-2.42261,-1.04994,-0.0561938,-8.28786,0.251131,
2,1,0,1,0,58318.8,0.253493,0.253138,3.76276,30,0.0134868,10,0.000952498,-2.42449,-1.1687,-0.0504835,-7.41659,0.253138,
2,1,0,1,0,58318.9,0.255491,0.255114,3.74961,30,0.0135621,10,0.000956578,-2.42601,-2.05877,-0.0286579,-4.19886,0.255114,
2,1,0,1,0,58318.9,0.257488,0.257183,3.74577,30,0.0136367,10,0.000963351,-2.42646,-2.65618,-0.0222123,-3.24477,0.2571834,
2,1,0,1,0,58318.9,0.259486,0.259155,3.7365,30,0.0137116,10,0.000968334,-2.42754,-1.32869,-0.0444045,-6.46924,0.259155,
2,1,0,1,0,58318.9,0.261484,0.261115,3.72034,30,0.0137862,10,0.000971436,-2.42942,-1.20444,-0.0489853,-7.11621,0.261115,
2,1,0,1,0,58318.9,0.263481,0.263123,3.70827,30,0.0138605,10,0.000975729,-2.43083,-2.39952,-0.0245882,-3.56318,0.263123,
2,1,0,1,0,58319,0.265479,0.26513,3.70603,30,0.0139343,10,0.00098258,-2.43109,-1.71917,-0.034319,-4.95353,0.26513,
2,1,0,1,0,58319,0.267476,0.267094,3.6886,30,0.0140083,10,0.000985201,-2.43314,-1.15872,-0.050918,-7.33535,0.267094,
2,1,0,1,0,58319,0.269474,0.269128,3.67671,30,0.014082,10,0.000989504,-2.43454,-1.72304,-0.0342419,-4.91602,0.269128,
2,1,0,1,0,58319,0.271471,0.271123,3.66879,30,0.0141556,10,0.000994693,-2.43548,-4.43902,-0.0132912,-1.9052,0.271123,
2,1,0,1,0,58319,0.273469,0.273104,3.66913,30,0.0142286,10,0.00100205,-2.43544,-1.64564,-0.0358523,-5.11907,0.273104,
2,1,0,1,0,58319.1,0.275467,0.275116,3.64835,30,0.0143018,10,0.00100372,-2.4379,-1.27698,-0.0462029,-6.59209,0.275116,
2,1,0,1,0,58319.1,0.277464,0.277122,3.64264,30,0.0143747,10,0.00100946,-2.43858,-2.05252,-0.0287452,-4.08366,0.277122,
2,1,0,1,0,58319.1,0.279462,0.279121,3.632,30,0.0144475,10,0.00101377,-2.43985,-2.0132,-0.0293066,-4.15674,0.2791208,
2,1,0,1,0,58319.1,0.281464,0.281122,3.62602,30,0.0145201,10,0.00101935,-2.44057,-2.60132,-0.0226808,-3.20923,0.281122,
2,1,0,1,0,58319.1,0.283457,0.283108,3.6192,30,0.0145922,10,0.00102462,-2.44139,-1.99508,-0.0295728,-4.17533,0.283108,
2,1,0,1,0,58319.2,0.285455,0.285091,3.60945,30,0.0146645,10,0.00102902,-2.44256,-1.33228,-0.0442851,-6.23375,0.285091,
2,1,0,1,0,58319.2,0.287452,0.287066,3.59453,30,0.0147366,10,0.00103187,-2.44436,-1.39893,-0.0421752,-5.92153,0.287066,
2,1,0,1,0,58319.2,0.28945,0.289087,3.58578,30,0.0148085,10,0.0010366,-2.44542,-2.2993,-0.0256599,-3.59248,0.289087,
2,1,0,1,0,58319.2,0.291447,0.291055,3.58019,30,0.0148799,10,0.00104203,-2.44609,-1.89278,-0.0311712,-4.35154,0.291055,
2,1,0,1,0,58319.2,0.293445,0.29309,3.56836,30,0.0149515,10,0.00104585,-2.44753,-1.35665,-0.0434896,-6.0558,0.29309,
2,1,0,1,0,58319.3,0.295442,0.295086,3.55579,30,0.0150228,10,0.00104926,-2.44906,-2.31712,-0.0254626,-3.53893,0.295086,
2,1,0,1,0,58319.3,0.29744,0.297097,3.55418,30,0.015094,10,0.00105594,-2.44926,-2.96245,-0.0199159,-2.75945,0.297097,
2,1,0,1,0,58319.3,0.299438,0.299098,3.54472,30,0.0151648,10,0.00106022,-2.45042,-0.0403113,-1.46361,-190.171,0.299098,
2,1,0,1,0,58319.3,0.299737,0.299411,3.11415,30,0.0151939,10,0.00093241,-2.50666,0.00462227,12.7643,1196.09,0.299411,
2,1,0,1,0,58319.3,0.29774,0.297417,1.53465,30,0.015238,10,0.000456431,-2.81399,0.00593487,9.94124,609.884,0.297417,
2,1,0,1,0,58319.3,0.295742,0.295369,0.649091,30,0.0152591,10,0.000191721,-3.18769,0.0027367,21.5588,367.051,0.295369,
2,1,0,1,0,58319.4,0.293745,0.293376,0.0511934,30,0.0152657,10,1.50189e-05,-4.29079,0.0160782,3.66956,252.416,0.293376,
2,0,0,1,0,58319.4,0.291747,0.291351,-0.365096,30,0.0152625,10,-0.000106371,-3.43759,-0.00354435,-16.6462,183.477,0.291351,
2,0,0,1,0,58319.4,0.289754,0.289397,-0.67879,30,0.015252,10,-0.00019644,-3.16826,-0.00987308,-5.97584,139.728,0.289397,
2,0,0,1,0,58319.4,0.287752,0.287404,-0.916601,30,0.0152359,10,-0.000263435,-3.03782,-0.018905,-3.12087,106.736,0.287404,
2,0,0,1,0,58319.4,0.285754,0.285367,-1.10894,30,0.0152156,10,-0.000316454,-2.95509,-0.0286337,-2.06051,86.9137,0.285367,
2,0,0,1,0,58319.5,0.283757,0.283412,-1.26355,30,0.0151918,10,-0.000358105,-2.89841,-0.039287,-1.50177,73.1452,0.283412,
2,0,0,1,0,58319.5,0.281759,0.281412,-1.39826,30,0.0151652,10,-0.000393486,-2.85441,-0.0527531,-1.11842,60.277,0.281412,
2,0,0,1,0,58319.5,0.279761,0.279399,-1.50545,30,0.0151362,10,-0.00042062,-2.82233,-0.0658285,-0.896268,52.4916,0.279399,
2,0,0,1,0,58319.5,0.277764,0.277416,-1.60799,30,0.0151051,10,-0.000446081,-2.79372,-0.0798433,-0.738948,46.0185,0.277416,
2,0,0,1,0,58319.5,0.275766,0.275399,-1.68952,30,0.0150721,10,-0.000465292,-2.77224,-0.098333,-0.600002,39.4822,0.275399,
2,0,0,1,0,58319.6,0.273769,0.273396,-1.76672,30,0.0150375,10,-0.000483013,-2.75283,-0.106319,-0.554935,38.2109,0.273396,
2,0,0,1,0,58319.6,0.271771,0.271426,-1.84133,30,0.0150016,10,-0.000499784,-2.73487,-0.122599,-0.481245,34.4638,0.271426,
2,0,0,1,0,58319.6,0.269774,0.269384,-1.90499,30,0.0149642,10,-0.000513174,-2.72011,-0.143046,-0.412454,30.6161,0.269384,
2,0,0,1,0,58319.6,0.267776,0.267419,-1.96399,30,0.0149255,10,-0.00052521,-2.70686,-0.162312,-0.363498,27.7967,0.267419,
2,0,0,1,0,58319.6,0.265778,0.265431,-2.01487,30,0.0148858,10,-0.000534808,-2.69575,-0.174238,-0.338617,26.6523,0.265431,
2,0,0,1,0,58319.7,0.263781,0.263422,-2.07055,30,0.0148452,10,-0.000545427,-2.68391,-0.188549,-0.312916,25.2201,0.263422,
2,0,0,1,0,58319.7,0.261783,0.261409,-2.1163,30,0.0148034,10,-0.00055322,-2.67442,-0.225713,-0.261394,21.5557,0.261409,
2,0,0,1,0,58319.7,0.259786,0.259454,-2.15607,30,0.0147607,10,-0.000559401,-2.66634,-0.230614,-0.255839,21.5539,0.259454,
2,0,0,1,0,58319.7,0.257788,0.257447,-2.20169,30,0.0147172,10,-0.00056682,-2.65724,-0.234099,-0.252031,21.6346,0.257447,
2,0,0,1,0,58319.7,0.25579,0.255409,-2.24359,30,0.014673,10,-0.000573032,-2.64906,-0.260196,-0.226752,19.8343,0.255409,
2,0,0,1,0,58319.8,0.253793,0.253428,-2.2814,30,0.0146277,10,-0.000578172,-2.6418,-0.287977,-0.204878,18.2277,0.253428,
2,0,0,1,0,58319.8,0.251795,0.251427,-2.31616,30,0.0145818,10,-0.000582346,-2.63523,-0.31918,-0.184848,16.6973,0.251427,
2,0,0,1,0,58319.8,0.249798,0.249438,-2.34803,30,0.0145351,10,-0.000585688,-2.6293,-0.301506,-0.195684,17.9638,0.2494383,
2,0,0,1,0,58319.8,0.2478,0.247391,-2.38867,30,0.0144879,10,-0.000590935,-2.62184,-0.306733,-0.19235,17.8927,0.247391,
2,0,0,1,0,58319.8,0.245802,0.245449,-2.4194,30,0.0144399,10,-0.000593841,-2.61629,-0.356755,-0.165379,15.6159,0.245449,
2,0,0,1,0,58319.9,0.243805,0.243429,-2.45053,30,0.0143912,10,-0.000596532,-2.61074,-0.393627,-0.149888,14.319,0.243429,
2,0,0,1,0,58319.9,0.241807,0.241461,-2.47651,30,0.0143419,10,-0.000597981,-2.60616,-0.359321,-0.164198,15.9063,0.241461,
2,0,0,1,0,58319.9,0.23981,0.23943,-2.51415,30,0.0142923,10,-0.000601962,-2.59961,-0.348298,-0.169395,16.5921,0.23943,
2,0,0,1,0,58319.9,0.237812,0.237432,-2.54336,30,0.0142417,10,-0.000603875,-2.59459,-0.411429,-0.143403,14.2267,0.237432,
2,0,0,1,0,58319.9,0.235815,0.235493,-2.57015,30,0.0141906,10,-0.000605254,-2.59004,-0.442584,-0.133308,13.3718,0.2354933,
2,0,0,1,0,58320,0.233817,0.2334,-2.59728,30,0.014139,10,-0.000606204,-2.58548,-0.409471,-0.144088,14.6163,0.2334,
2,0,0,1,0,58320,0.231815,0.231499,-2.62854,30,0.0140869,10,-0.000608504,-2.58029,-0.414109,-0.142475,14.6009,0.231499,
2,0,0,1,0,58320,0.229822,0.229466,-2.65471,30,0.0140343,10,-0.000609167,-2.57598,-0.52466,-0.112454,11.6382,0.229466,
2,0,0,1,0,58320,0.227824,0.22748,-2.67531,30,0.0139811,10,-0.00060858,-2.57263,-0.52331,-0.112744,11.784,0.22748,
2,0,0,1,0,58320,0.225827,0.225477,-2.70172,30,0.0139274,10,-0.000609176,-2.56836,-0.455131,-0.129633,13.6725,0.225477,
2,0,0,1,0,58320.1,0.223829,0.223488,-2.7299,30,0.0138731,10,-0.000610098,-2.56385,-0.494093,-0.119411,12.7084,0.223488,
2,0,0,1,0,58320.1,0.221831,0.221489,-2.7524,30,0.0138185,10,-0.000609627,-2.56029,-0.540178,-0.109223,11.737,0.221489,
2,0,0,1,0,58320.1,0.219834,0.219463,-2.77714,30,0.0137633,10,-0.000609478,-2.5564,-0.492884,-0.119704,12.9789,0.219463,
2,0,0,1,0,58320.1,0.217836,0.217499,-2.80419,30,0.0137074,10,-0.000609908,-2.55219,-0.567905,-0.103891,11.3514,0.2174987,
2,0,0,1,0,58320.1,0.215839,0.215481,-2.82233,30,0.0136512,10,-0.00060816,-2.54939,-0.554592,-0.106385,11.7398,0.215481,
2,0,0,1,0,58320.2,0.213841,0.213499,-2.85115,30,0.0135947,10,-0.000608717,-2.54498,-0.520506,-0.113351,12.5971,0.213499,
2,0,0,1,0,58320.2,0.211843,0.211458,-2.87302,30,0.0135375,10,-0.000607522,-2.54166,-0.62123,-0.0949729,10.6466,0.211458,
2,0,0,1,0,58320.2,0.209846,0.209493,-2.8938,30,0.0134797,10,-0.00060623,-2.53853,-0.538315,-0.109601,12.3943,0.209493,
2,0,0,1,0,58320.2,0.207848,0.207475,-2.92238,30,0.0134216,10,-0.000606321,-2.53426,-0.418046,-0.141133,16.1168,0.207475,
2,0,0,1,0,58320.2,0.205851,0.205471,-2.95862,30,0.0133631,10,-0.00060791,-2.52891,-0.511959,-0.115244,13.2627,0.2054711,
2,0,0,1,0,58320.3,0.203853,0.203473,-2.97545,30,0.0133039,10,-0.000605425,-2.52645,-0.790977,-0.0745913,8.66283,0.203473,
2,0,0,1,0,58320.3,0.201856,0.20149,-2.99311,30,0.0132443,10,-0.00060308,-2.52388,-0.626029,-0.0942449,11.0234,0.20149,
2,0,0,1,0,58320.3,0.199858,0.199545,-3.01875,30,0.0131841,10,-0.000602378,-2.52017,-0.493728,-0.119499,14.0914,0.199545,
2,0,0,1,0,58320.3,0.19786,0.197443,-3.05013,30,0.0131238,10,-0.000602227,-2.51568,-0.629372,-0.0937442,11.1271,0.197443,
2,0,0,1,0,58320.3,0.195863,0.195464,-3.06416,30,0.0130627,10,-0.000598934,-2.51369,-0.597246,-0.0987867,11.8499,0.195464,
2,0,0,1,0,58320.4,0.193865,0.193467,-3.09725,30,0.0130011,10,-0.000599215,-2.50902,-0.500035,-0.117992,14.2399,0.193467,
2,0,0,1,0,58320.4,0.191868,0.19149,-3.12076,30,0.012939,10,-0.000597594,-2.50574,-0.525607,-0.112251,13.6879,0.19149,
2,0,0,1,0,58320.4,0.18987,0.189472,-3.15194,30,0.0128766,10,-0.000597202,-2.50142,-0.542493,-0.108757,13.3582,0.1894716,
2,0,0,1,0,58320.4,0.187872,0.187518,-3.17381,30,0.0128134,10,-0.000595148,-2.49842,-0.597212,-0.0987924,12.2454,0.187518,
2,0,0,1,0,58320.4,0.185875,0.185524,-3.20028,30,0.0127497,10,-0.000593728,-2.49481,-0.625396,-0.0943403,11.7708,0.185524,
2,0,0,1,0,58320.5,0.183877,0.183566,-3.22033,30,0.0126855,10,-0.000591144,-2.4921,-0.508116,-0.116115,14.6362,0.183566,
2,0,0,1,0,58320.5,0.18188,0.181478,-3.2595,30,0.0126211,10,-0.000591526,-2.48685,-0.451918,-0.130555,16.5795,0.181478,
2,0,0,1,0,58320.5,0.179882,0.179493,-3.28786,30,0.0125556,10,-0.000590148,-2.48309,-0.545719,-0.108114,13.8681,0.179493,
2,0,0,1,0,58320.5,0.177885,0.177532,-3.31422,30,0.0124895,10,-0.000588379,-2.47962,-0.529395,-0.111448,14.4248,0.177532,
2,0,0,1,0,58320.5,0.175887,0.175517,-3.34521,30,0.012423,10,-0.000587143,-2.47558,-0.459792,-0.128319,16.7646,0.1755174,
2,0,0,1,0,58320.6,0.173896,0.173532,-3.38127,30,0.0123561,10,-0.000586759,-2.47092,-0.443056,-0.133166,17.5677,0.173532,
2,0,0,1,0,58320.6,0.171892,0.171507,-3.41566,30,0.0122881,10,-0.00058581,-2.46652,-0.463706,-0.127236,16.9578,0.171507,
2,0,0,1,0,58320.6,0.169894,0.169536,-3.44903,30,0.0122194,10,-0.000584736,-2.4623,-0.415624,-0.141955,19.1338,0.169536,
2,0,0,1,0,58320.6,0.167897,0.167514,-3.49206,30,0.01215,10,-0.00058497,-2.45692,-0.382974,-0.154057,20.9879,0.167514,
2,0,0,1,0,58320.6,0.165899,0.165542,-3.53286,30,0.0120798,10,-0.000584837,-2.45187,-0.39176,-0.150603,20.7658,0.165542,
2,0,0,1,0,58320.7,0.163901,0.163549,-3.5744,30,0.0120091,10,-0.00058459,-2.4468,-0.364172,-0.162011,22.624,0.163549,
2,0,0,1,0,58320.7,0.161904,0.16152,-3.62385,30,0.0119371,10,-0.000585326,-2.44083,-0.327511,-0.180146,25.4914,0.16152,
2,0,0,1,0,58320.7,0.159906,0.159497,-3.6777,30,0.0118641,10,-0.000586581,-2.43442,-0.323597,-0.182325,26.154,0.159497,
2,0,0,1,0,58320.7,0.157909,0.157545,-3.72783,30,0.0117901,10,-0.0005873,-2.42854,-0.295574,-0.199612,29.0966,0.157545,
2,0,0,1,0,58320.7,0.155911,0.155537,-3.79292,30,0.0117153,10,-0.000589939,-2.42103,-0.272021,-0.216895,32.0909,0.155537,
2,0,0,1,0,58320.8,0.153913,0.153577,-3.85516,30,0.0116388,10,-0.000592063,-2.41396,-0.273782,-0.2155,32.4332,0.153577,
2,0,0,1,0,58320.8,0.151916,0.151602,-3.92053,30,0.0115611,10,-0.000594361,-2.40666,-0.235429,-0.250607,38.461,0.151602,
2,0,0,1,0,58320.8,0.149918,0.149531,-4.01079,30,0.0114818,10,-0.000599735,-2.39677,-0.200764,-0.293877,46.0373,0.1495305,
2,0,0,1,0,58320.8,0.147921,0.147508,-4.109,30,0.011401,10,-0.000606112,-2.38626,-0.190006,-0.310517,49.7955,0.147508,
2,0,0,1,0,58320.8,0.145923,0.145552,-4.2089,30,0.0113178,10,-0.000612614,-2.37583,-0.171418,-0.344188,56.6707,0.145552,
2,0,0,1,0,58320.9,0.143926,0.143596,-4.33075,30,0.0112324,10,-0.000621876,-2.36344,-0.154381,-0.382171,64.6796,0.143596,
2,0,0,1,0,58320.9,0.141928,0.141565,-4.46679,30,0.0111445,10,-0.00063234,-2.35,-0.146978,-0.40142,70.0404,0.1415648,
2,0,0,1,0,58320.9,0.13993,0.139553,-4.61385,30,0.0110541,10,-0.00064388,-2.33594,-0.134321,-0.439247,79.2608,0.139553,
2,0,0,1,0,58320.9,0.137933,0.137561,-4.78417,30,0.0109602,10,-0.000658113,-2.32019,-0.124178,-0.475123,88.7779,0.137561,
2,0,0,1,0,58320.9,0.135935,0.135586,-4.96605,30,0.0108627,10,-0.000673329,-2.30399,-0.119056,-0.495565,96.2154,0.135586,
2,0,0,1,0,58321,0.133938,0.133545,-5.17054,30,0.0107613,10,-0.000690499,-2.28646,-0.113587,-0.519426,104.922,0.133545,
2,0,0,1,0,58321,0.13194,0.131532,-5.39145,30,0.0106563,10,-0.000709148,-2.26829,-0.110154,-0.535614,112.679,0.131532,
2,0,0,1,0,58321,0.129942,0.129587,-5.61654,30,0.0105462,10,-0.000727829,-2.25053,-0.111615,-0.528604,115.903,0.1295867,
2,0,0,1,0,58321,0.127945,0.127564,-5.85131,30,0.0104315,10,-0.000746418,-2.23275,-0.115599,-0.510387,116.431,0.127564,
2,0,0,1,0,58321,0.125947,0.125605,-6.0802,30,0.0103122,10,-0.0007637,-2.21608,-0.116926,-0.504592,119.85,0.1256045,
2,0,0,1,0,58321.1,0.12395,0.123596,-6.32696,30,0.0101888,10,-0.000781984,-2.19881,-0.122637,-0.481094,118.576,0.123596,
2,0,0,1,0,58321.1,0.121952,0.121586,-6.55666,30,0.01006,10,-0.0007972,-2.18332,-0.133507,-0.441925,112.976,0.121586,
2,0,0,1,0,58321.1,0.119955,0.119593,-6.77921,30,0.00992652,10,-0.000810743,-2.16882,-0.137247,-0.429883,113.735,0.1195925,
2,0,0,1,0,58321.1,0.117957,0.117629,-7.00678,30,0.00978862,10,-0.000824198,-2.15448,-0.14533,-0.405973,110.889,0.117629,
2,0,0,1,0,58321.1,0.115955,0.115588,-7.22321,30,0.00964631,10,-0.00083492,-2.14127,-0.15923,-0.370533,104.328,0.115588,
2,0,0,1,0,58321.2,0.113962,0.113607,-7.42636,30,0.00950042,10,-0.000843686,-2.12922,-0.171819,-0.343385,99.4463,0.113607,
2,0,0,1,0,58321.2,0.111964,0.111581,-7.62173,30,0.00934992,10,-0.000850441,-2.11795,-0.182177,-0.323861,96.2845,0.111581,
2,0,0,1,0,58321.2,0.109967,0.109595,-7.81266,30,0.00919556,10,-0.000856227,-2.1072,-0.195569,-0.301683,91.8577,0.109595,
2,0,0,1,0,58321.2,0.107969,0.107628,-7.9849,30,0.0090376,10,-0.000859395,-2.09773,-0.214914,-0.274528,85.5109,0.107628,
2,0,0,1,0,58321.2,0.105971,0.105624,-8.15224,30,0.00887703,10,-0.000861069,-2.08872,-0.238733,-0.247138,78.5301,0.105624,
2,0,0,1,0,58321.3,0.103974,0.103599,-8.30122,30,0.00871246,10,-0.000860002,-2.08086,-0.27454,-0.214905,69.5448,0.103599,
2,0,0,1,0,58321.3,0.101976,0.101584,-8.43318,30,0.00854506,10,-0.000856676,-2.07401,-0.312283,-0.188931,62.115,0.101584,
2,0,0,1,0,58321.3,0.0999787,0.0996198,-8.54842,30,0.00837523,10,-0.000851592,-2.06811,-0.343956,-0.171534,57.2134,0.0996198,
2,0,0,1,0,58321.3,0.0979811,0.0976071,-8.66071,30,0.00820397,10,-0.000845347,-2.06245,-0.425366,-0.138704,46.7811,0.0976071,
2,0,0,1,0,58321.3,0.0959835,0.0956017,-8.73639,30,0.00802994,10,-0.000835214,-2.05867,-0.568953,-0.103699,35.3341,0.0956017,
2,0,0,1,0,58321.4,0.0939859,0.0936278,-8.80131,30,0.00785455,10,-0.000824048,-2.05545,-0.739981,-0.0797318,27.3543,0.0936278,
2,0,0,1,0,58321.4,0.0919883,0.0916121,-8.84552,30,0.00767807,10,-0.000810357,-2.05328,-0.964792,-0.0611531,21.1059,0.0916121,
2,0,0,1,0,58321.4,0.0899907,0.0896276,-8.88574,30,0.00750159,10,-0.000796407,-2.05131,-2.1885,-0.0269591,9.32611,0.0896276,
2,0,0,1,0,58321.4,0.0879931,0.0876399,-8.88257,30,0.00732385,10,-0.000778467,-2.05146,36.2622,0.00162704,-0.564156,0.0876399,
2,0,0,1,0,58321.4,0.0859955,0.0855637,-8.88345,30,0.00714615,10,-0.000760101,-2.05142,3.44366,0.0171329,-5.93127,0.0855637,
2,0,0,1,0,58321.5,0.083998,0.0836016,-8.85862,30,0.00696868,10,-0.000740595,-2.05263,1.55117,0.0380358,-13.1483,0.0836016,
2,0,0,1,0,58321.5,0.0820004,0.0816261,-8.83168,30,0.00679259,10,-0.000720895,-2.05396,1.18352,0.0498512,-17.1688,0.0816261,
2,0,0,1,0,58321.5,0.0800028,0.0796551,-8.79086,30,0.00661633,10,-0.000700237,-2.05597,0.985904,0.0598436,-20.5299,0.0796551,
2,0,0,1,0,58321.5,0.0780052,0.0776036,-8.7491,30,0.00644094,10,-0.000678962,-2.05804,0.849587,0.0694455,-23.6955,0.0776036,
2,0,0,1,0,58321.5,0.0760076,0.0756177,-8.69519,30,0.00626648,10,-0.00065751,-2.06072,0.813833,0.0724965,-24.6147,0.0756177,
2,0,0,1,0,58321.6,0.07401,0.0736137,-8.65089,30,0.00609395,10,-0.000636824,-2.06294,0.812099,0.0726513,-24.5151,0.0736137,
2,0,0,1,0,58321.6,0.0720124,0.0716308,-8.59745,30,0.00592147,10,-0.000615843,-2.06563,0.779858,0.0756548,-25.3928,0.0716308,
2,0,0,1,0,58321.6,0.0700148,0.0696314,-8.54976,30,0.00574998,10,-0.000595332,-2.06805,0.772058,0.0764191,-25.4895,0.0696314,
2,0,0,1,0,58321.6,0.0680173,0.0676511,-8.49601,30,0.00557953,10,-0.000574765,-2.07078,0.956733,0.0616682,-20.4786,0.0676511,
2,0,0,1,0,58321.6,0.0660106,0.06565,-8.46823,30,0.00540997,10,-0.000555939,-2.07221,1.00845,0.0585056,-19.3101,0.06565,
2,0,0,1,0,58321.7,0.0640221,0.063633,-8.41842,30,0.00524192,10,-0.000535689,-2.07477,0.846784,0.0696754,-22.9015,0.063633,
2,0,0,1,0,58321.7,0.0620245,0.0616288,-8.37614,30,0.00507394,10,-0.000516211,-2.07696,0.897288,0.0657537,-21.4936,0.0616288,
2,0,0,1,0,58321.7,0.0600269,0.0596732,-8.33331,30,0.00490678,10,-0.000497275,-2.07918,1.09003,0.054127,-17.6196,0.0596732,
2,0,0,1,0,58321.7,0.0580361,0.0576463,-8.30597,30,0.00474119,10,-0.000478809,-2.08061,1.06866,0.0552094,-17.8783,0.0576463,
2,0,0,1,0,58321.7,0.0560317,0.0556786,-8.26189,30,0.00457544,10,-0.000460011,-2.08292,0.967899,0.0609568,-19.6648,0.0556786,
2,0,0,1,0,58321.8,0.0540342,0.0536037,-8.22647,30,0.00441053,10,-0.00044097,-2.08479,1.10595,0.0533477,-17.1289,0.0536037,
2,0,0,1,0,58321.8,0.0520366,0.0516317,-8.19258,30,0.00424631,10,-0.000422996,-2.08658,0.912292,0.0646723,-20.6598,0.0516317,
2,0,0,1,0,58321.8,0.050039,0.0496435,-8.14466,30,0.00408289,10,-0.00040433,-2.08913,0.890861,0.0662281,-21.0661,0.0496435,
2,0,0,1,0,58321.8,0.0480414,0.0476345,-8.10837,30,0.00392109,10,-0.000386238,-2.09107,0.96232,0.0613102,-19.3961,0.0476345,
2,0,0,1,0,58321.8,0.0460438,0.0456855,-8.06789,30,0.00375928,10,-0.000368585,-2.09324,0.84219,0.0700554,-22.0493,0.0456855,
2,0,0,1,0,58321.9,0.0440462,0.0436813,-8.02121,30,0.00359835,10,-0.000350377,-2.09576,0.794415,0.0742685,-23.2479,0.0436813,
2,0,0,1,0,58321.9,0.0420486,0.0416381,-7.97379,30,0.00343841,10,-0.000332014,-2.09834,0.890351,0.066266,-20.6367,0.04163814,
2,0,0,1,0,58321.9,0.040051,0.0396639,-7.9383,30,0.00328003,10,-0.000314864,-2.10027,0.835647,0.070604,-21.8509,0.0396639,
2,0,0,1,0,58321.9,0.0380535,0.0376428,-7.88649,30,0.00312179,10,-0.00029687,-2.10312,0.660753,0.089292,-27.4732,0.0376428,
2,0,0,1,0,58321.9,0.0360559,0.0357011,-7.82943,30,0.00296464,10,-0.000279519,-2.10627,0.66063,0.0893086,-27.2987,0.0357011,
2,0,0,1,0,58322,0.0340583,0.0336748,-7.77817,30,0.00280855,10,-0.000261929,-2.10912,0.716429,0.0823529,-25.0016,0.0336748,
2,0,0,1,0,58322,0.0320607,0.0316783,-7.72885,30,0.00265421,10,-0.000244837,-2.11188,0.636885,0.0926384,-27.9198,0.0316783,
2,0,0,1,0,58322,0.0300631,0.0296957,-7.66707,30,0.00250026,10,-0.000227679,-2.11537,0.583275,0.101153,-30.2714,0.0296957,
2,0,0,1,0,58322,0.0280655,0.0276787,-7.60778,30,0.00234754,10,-0.000210573,-2.11874,0.564665,0.104487,-31.0127,0.0276787,
2,0,0,1,0,58322,0.0260679,0.0257206,-7.54379,30,0.00219602,10,-0.000194031,-2.12241,0.531774,0.110949,-32.6602,0.0257206,
2,0,0,1,0,58322.1,0.0240704,0.0237082,-7.4781,30,0.00204651,10,-0.000177292,-2.12621,0.536143,0.110045,-32.119,0.0237082,
2,0,0,1,0,58322.1,0.0220728,0.0216806,-7.41404,30,0.00189756,10,-0.000160741,-2.12995,0.515023,0.114558,-33.1362,0.02168062,
2,0,0,1,0,58322.1,0.0200752,0.0197085,-7.34557,30,0.00174996,10,-0.00014477,-2.13397,0.458382,0.128714,-36.8722,0.01970855,
2,0,0,1,0,58322.1,0.0180776,0.0176922,-7.26697,30,0.00160376,10,-0.000128569,-2.13865,0.49843,0.118372,-33.6229,0.0176922,
2,0,0,1,0,58322.1,0.01608,0.015713,-7.21123,30,0.0014597,10,-0.00011331,-2.14199,0.523939,0.112609,-31.6581,0.015713,
2,0,0,1,0,58322.2,0.0140824,0.0137005,-7.14061,30,0.00131616,10,-9.78301e-05,-2.14626,0.472828,0.124781,-34.7759,0.0137005,
2,0,0,1,0,58322.2,0.0120848,0.0116943,-7.07147,30,0.00117396,10,-8.26959e-05,-2.15049,0.473374,0.124637,-34.3993,0.0116943,
2,0,0,1,0,58322.2,0.0100872,0.00972166,-7.00373,30,0.0010332,10,-6.80879e-05,-2.15467,0.53762,0.109743,-30.0286,0.00972166,
2,0,0,1,0,58322.2,0.00809193,0.00769482,-6.95137,30,0.000894386,10,-5.34896e-05,-2.15793,0.552641,0.10676,-28.9387,0.00769482,
2,0,0,1,0,58322.2,0.00609208,0.00571191,-6.8877,30,0.000755973,10,-3.93419e-05,-2.16193,0.499521,0.118113,-31.752,0.00571191,
2,0,0,1,0,58322.3,0.00409449,0.0037316,-6.82553,30,0.000618813,10,-2.54702e-05,-2.16586,0.833111,0.0708189,-18.9322,0.0037316,
2,0,0,1,0,58322.3,0.0020969,0.00173394,-6.81239,30,0.000482648,10,-1.18123e-05,-2.1667,0.775268,0.0761027,-20.1515,0.00173394,
2,0,0,1,0,58322.3,9.14991e-05,-0.000291921,-6.74445,30,0.000347078,10,1.96885e-06,-2.17105,0.570066,0.103497,-27.2915,-0.000291921,
2,0,0,1,0,58322.3,-0.00189827,-0.00233281,-6.7014,30,0.000213208,10,1.56331e-05,-2.17383,0.681357,0.0865919,-22.6389,-0.00233281,
2,0,0,1,0,58322.3,-0.00389586,-0.00429258,-6.65388,30,7.96542e-05,10,2.85623e-05,-2.17692,0.727101,0.0811441,-21.0907,-0.00429258,
2,0,0,1,0,58322.4,-0.00589345,-0.00625484,-6.61868,30,-5.31174e-05,10,4.13988e-05,-2.17923,0.80319,0.0734571,-18.9659,-0.00625484,
2,0,0,1,0,58322.4,-0.00789103,-0.00831212,-6.57765,30,-0.000185186,10,5.46742e-05,-2.18193,1.05671,0.0558338,-14.3594,-0.00831212,
2,0,0,1,0,58322.4,-0.00988862,-0.0102681,-6.56105,30,-0.000316041,10,6.73694e-05,-2.18303,1.53695,0.0383878,-9.82517,-0.0102681,
2,0,0,1,0,58322.4,-0.0118862,-0.0122714,-6.53875,30,-0.000447106,10,8.02395e-05,-2.18451,1.3722,0.0429966,-10.9722,-0.0122714,
2,0,0,1,0,58322.4,-0.0138838,-0.0143298,-6.51649,30,-0.000577747,10,9.33798e-05,-2.18599,1.80035,0.0327713,-8.3414,-0.0143298,
2,0,0,1,0,58322.5,-0.0158814,-0.0162815,-6.5053,30,-0.000708026,10,0.000105916,-2.18673,7.06108,0.00835566,-2.12362,-0.0162815,
2,0,0,1,0,58322.5,-0.017879,-0.0183018,-6.50805,30,-0.00083755,10,0.000119109,-2.18655,8.97632,0.00657285,-1.66787,-0.0183018,
2,0,0,1,0,58322.5,-0.0198766,-0.0202849,-6.49862,30,-0.000967614,10,0.000131824,-2.18718,4.70625,0.0125365,-3.18106,-0.0202849,
2,0,0,1,0,58322.5,-0.0218741,-0.0222529,-6.49548,30,-0.00109753,10,0.000144543,-2.18739,-18.0219,-0.00327379,0.830515,-0.0222529,
2,0,0,1,0,58322.5,-0.0238717,-0.0243061,-6.50196,30,-0.00122754,10,0.000158037,-2.18696,-3.04547,-0.019373,4.91847,-0.0243061,
2,0,0,1,0,58322.6,-0.0258693,-0.0262559,-6.51517,30,-0.00135708,10,0.000171062,-2.18607,-3.76915,-0.0156534,3.97687,-0.0262559,
2,0,0,1,0,58322.6,-0.0278669,-0.028264,-6.5177,30,-0.00148742,10,0.000184216,-2.18591,-3.34037,-0.0176627,4.49734,-0.028264,
2,0,0,1,0,58322.6,-0.0298645,-0.0303202,-6.53345,30,-0.00161797,10,0.000198095,-2.18486,-1.97805,-0.0298273,7.605,-0.0303202,
2,0,0,1,0,58322.6,-0.0318621,-0.0323239,-6.54858,30,-0.0017489,10,0.000211676,-2.18385,-1.43319,-0.041167,10.5305,-0.0323239,
2,0,0,1,0,58322.6,-0.0338597,-0.0343086,-6.57545,30,-0.00187958,10,0.000225595,-2.18207,-1.15192,-0.0512187,13.142,-0.0343086,
2,0,0,1,0,58322.7,-0.0358573,-0.0362904,-6.6007,30,-0.00201139,10,0.000239542,-2.18041,-1.22875,-0.0480161,12.3677,-0.0362904,
2,0,0,1,0,58322.7,-0.0378548,-0.038273,-6.62448,30,-0.00214375,10,0.000253539,-2.17885,-1.25714,-0.0469319,12.1341,-0.038273,
2,0,0,1,0,58322.7,-0.0398524,-0.0402701,-6.64899,30,-0.00227659,10,0.000267756,-2.17724,-0.85003,-0.0694094,18.0413,-0.0402701,
2,0,0,1,0,58322.7,-0.04185,-0.0422372,-6.696,30,-0.0024094,10,0.00028282,-2.17418,-0.80629,-0.0731747,19.0952,-0.0422372,
2,0,0,1,0,58322.7,-0.0438476,-0.0442075,-6.72418,30,-0.00254363,10,0.000297259,-2.17236,-1.05377,-0.0559896,14.6959,-0.0442075,
2,0,0,1,0,58322.8,-0.0458452,-0.0462568,-6.75507,30,-0.00267854,10,0.000312468,-2.17037,-0.904108,-0.0652577,17.2134,-0.0462568,
2,0,0,1,0,58322.8,-0.0478428,-0.048238,-6.79356,30,-0.00281412,10,0.000327708,-2.1679,-0.66869,-0.0882322,23.4207,-0.048238,
2,0,0,1,0,58322.8,-0.0498495,-0.0502365,-6.84828,30,-0.00295055,10,0.000344034,-2.16442,-0.663491,-0.0889236,23.7428,-0.0502365,
2,0,0,1,0,58322.8,-0.051838,-0.0522852,-6.88965,30,-0.00308728,10,0.000360226,-2.1618,-0.785407,-0.0751203,20.196,-0.0522852,
2,0,0,1,0,58322.8,-0.0538355,-0.0542595,-6.92953,30,-0.00322549,10,0.000375992,-2.1593,-0.700156,-0.084267,22.807,-0.0542595,
2,0,0,1,0,58322.9,-0.0558331,-0.0562707,-6.98055,30,-0.00336463,10,0.0003928,-2.15611,-0.639371,-0.0922782,25.136,-0.0562707,
2,0,0,1,0,58322.9,-0.0578216,-0.0582562,-7.02999,30,-0.00350405,10,0.000409541,-2.15305,-0.619389,-0.0952551,26.1428,-0.0582562,
2,0,0,1,0,58322.9,-0.0598283,-0.0602426,-7.08438,30,-0.00364527,10,0.000426782,-2.1497,-0.568283,-0.103821,28.7142,-0.0602426,
2,0,0,1,0,58322.9,-0.0618259,-0.0622199,-7.1438,30,-0.00378754,10,0.000444487,-2.14607,-0.587208,-0.100475,27.9983,-0.0622199,
2,0,0,1,0,58322.9,-0.0638235,-0.0642366,-7.19621,30,-0.00393099,10,0.00046226,-2.1429,-0.630978,-0.0935056,26.2609,-0.0642366,
2,0,0,1,0,58323,-0.0658211,-0.0662261,-7.24901,30,-0.00407554,10,0.000480073,-2.13972,-0.531242,-0.11106,31.4603,-0.0662261,
2,0,0,1,0,58323,-0.0678187,-0.0682003,-7.32091,30,-0.00422064,10,0.000499288,-2.13544,-0.512144,-0.115202,32.8872,-0.0682003,
2,0,0,1,0,58323,-0.0698162,-0.070241,-7.38105,30,-0.00436774,10,0.000518452,-2.13188,-0.538696,-0.109524,31.5623,-0.070241,
2,0,0,1,0,58323,-0.0718138,-0.0722148,-7.44762,30,-0.00451613,10,0.000537828,-2.12798,-0.505898,-0.116624,33.9014,-0.0722148,
2,0,0,1,0,58323,-0.0738114,-0.0742281,-7.51622,30,-0.00466584,10,0.000557915,-2.124,-0.473474,-0.124611,36.5736,-0.0742281,
2,0,0,1,0,58323.1,-0.075809,-0.0762152,-7.59392,30,-0.00481632,10,0.000578773,-2.11953,-0.473322,-0.124651,36.922,-0.07621523,
2,0,0,1,0,58323.1,-0.0778066,-0.0782237,-7.66374,30,-0.00496904,10,0.000599487,-2.11556,-0.491738,-0.119983,35.8962,-0.0782237,
2,0,0,1,0,58323.1,-0.0798042,-0.0802418,-7.73846,30,-0.0051232,10,0.000620948,-2.11135,-0.444818,-0.132639,40.0828,-0.0802418,
2,0,0,1,0,58323.1,-0.0818018,-0.082206,-7.82337,30,-0.00527895,10,0.000643128,-2.10661,-0.409095,-0.144221,44.0446,-0.082206,
2,0,0,1,0,58323.1,-0.0837994,-0.0841996,-7.91278,30,-0.00543562,10,0.000666253,-2.10167,-0.432831,-0.136312,42.0667,-0.0841996,
2,0,0,1,0,58323.2,-0.085797,-0.0862216,-7.99229,30,-0.00559472,10,0.000689108,-2.09733,-0.424966,-0.138835,43.3422,-0.0862216,
2,0,0,1,0,58323.2,-0.0877945,-0.0882042,-8.08635,30,-0.00575556,10,0.00071325,-2.09225,-0.403927,-0.146066,46.0852,-0.0882042,
2,0,0,1,0,58323.2,-0.0897921,-0.0902349,-8.17724,30,-0.00591821,10,0.000737873,-2.08739,-0.42267,-0.139589,44.5326,-0.09023492,
2,0,0,1,0,58323.2,-0.0917897,-0.0921801,-8.26341,30,-0.00608176,10,0.000761721,-2.08284,-0.429723,-0.137298,44.2823,-0.0921801,
2,0,0,1,0,58323.2,-0.0937873,-0.0941777,-8.35184,30,-0.00624795,10,0.000786557,-2.07822,-0.424456,-0.139001,45.3198,-0.0941777,
2,0,0,1,0,58323.3,-0.0957849,-0.0962018,-8.44567,30,-0.006416,10,0.000812489,-2.07337,-0.433631,-0.13606,44.8221,-0.09620183,
2,0,0,1,0,58323.3,-0.0977825,-0.098173,-8.53091,30,-0.00658581,10,0.000837506,-2.069,-0.423159,-0.139428,46.4575,-0.098173,
2,0,0,1,0,58323.3,-0.0997501,-0.10018,-8.6305,30,-0.00675403,10,0.000864605,-2.06396,0.010436,5.65349,-1699.63,-0.10018,
2,0,0,1,1,58323.3,-0.0987313,-0.0991144,-6.93094,30,-0.00687257,10,0.000686956,-2.15921,-0.0144203,-4.09146,1091.34,-0.0991144,
2,0,0,1,1,58323.3,-0.0967337,-0.0971349,-5.3071,30,-0.00699368,10,0.000515505,-2.27514,-0.0172075,-3.42873,719.087,-0.09713494,
2,0,0,1,1,58323.4,-0.0947362,-0.0951351,-4.06949,30,-0.00708675,10,0.000387151,-2.39046,-0.0164556,-3.58542,570.145,-0.0951351,
2,0,0,1,1,58323.4,-0.0927386,-0.0931752,-3.04947,30,-0.00715748,10,0.000284135,-2.51578,-0.014826,-3.97949,470.422,-0.0931752,
2,0,0,1,1,58323.4,-0.090741,-0.091125,-2.18303,30,-0.00720923,10,0.000198929,-2.66094,-0.0124515,-4.73839,396.861,-0.091125,
2,0,0,1,1,58323.4,-0.0887434,-0.0891237,-1.44159,30,-0.00724523,10,0.00012848,-2.84116,-0.00892172,-6.61307,352.676,-0.0891237,
2,0,0,1,1,58323.4,-0.0867458,-0.0871594,-0.784463,30,-0.00726725,10,6.83733e-05,-3.10543,-0.00467798,-12.6123,312.015,-0.0871594,
2,0,0,1,1,58323.5,-0.0847482,-0.0851602,-0.204913,30,-0.00727691,10,1.74504e-05,-3.68843,-0.00989778,-5.96093,275.2,-0.0851602,
2,1,0,1,1,58323.5,-0.0827529,-0.0831795,0.310796,30,-0.00727572,10,-2.58518e-05,-3.50752,0.00697089,8.46377,243.294,-0.0831795,
2,1,0,1,1,58323.5,-0.0807531,-0.0811406,0.773018,30,-0.00726466,10,-6.27231e-05,-3.11181,0.00688665,8.5673,218.894,-0.08114063,
2,1,0,1,1,58323.5,-0.0787555,-0.0791655,1.18943,30,-0.00724486,10,-9.41619e-05,-2.92466,0.0130654,4.51575,197.606,-0.0791655,
2,1,0,1,1,58323.5,-0.0767579,-0.0771527,1.56106,30,-0.00721721,10,-0.00012044,-2.80658,0.019455,3.03264,179.695,-0.0771527,
2,1,0,1,1,58323.6,-0.0747603,-0.0751958,1.90277,30,-0.0071824,10,-0.00014308,-2.72061,0.0260789,2.26237,165.417,-0.0751958,
2,1,0,1,1,58323.6,-0.0727627,-0.0731385,2.22507,30,-0.00714111,10,-0.000162739,-2.65266,0.033943,1.73821,148.292,-0.0731385,
2,1,0,1,1,58323.6,-0.0707651,-0.0711949,2.49607,30,-0.00709371,10,-0.000177708,-2.60274,0.0423942,1.3917,134.849,-0.0711949,
2,1,0,1,1,58323.6,-0.0687675,-0.0691741,2.75967,30,-0.00704096,10,-0.000190897,-2.55914,0.0506112,1.16575,124.607,-0.0691741,
2,1,0,1,1,58323.6,-0.0667699,-0.0671754,2.99693,30,-0.00698324,10,-0.00020132,-2.52332,0.060478,0.975561,113.53,-0.0671754,
2,1,0,1,1,58323.7,-0.0647723,-0.0651567,3.21576,30,-0.00692124,10,-0.000209529,-2.49272,0.0714134,0.826176,103.201,-0.0651567,
2,1,0,1,1,58323.7,-0.0627748,-0.0631382,3.41357,30,-0.00685488,10,-0.000215527,-2.46679,0.0817677,0.721557,95.835,-0.0631382,
2,1,0,1,1,58323.7,-0.0607772,-0.0611701,3.59782,30,-0.0067847,10,-0.000220079,-2.44396,0.0946986,0.623029,87.1276,-0.0611701,
2,1,0,1,1,58323.7,-0.0587796,-0.0591785,3.75857,30,-0.00671102,10,-0.000222427,-2.42498,0.110102,0.535869,78.4886,-0.05917849,
2,1,0,1,1,58323.7,-0.056782,-0.0571587,3.91267,30,-0.00663461,10,-0.000223643,-2.40753,0.123725,0.476864,72.591,-0.0571587,
2,1,0,1,1,58323.8,-0.0547844,-0.0552184,4.04604,30,-0.00655496,10,-0.000223416,-2.39297,0.14124,0.417728,65.8952,-0.0552184,
2,1,0,1,1,58323.8,-0.0527868,-0.0531906,4.17415,30,-0.00647266,10,-0.000222026,-2.37943,0.164133,0.359465,58.4027,-0.05319057,
2,1,0,1,1,58323.8,-0.0507892,-0.0511727,4.28232,30,-0.00638804,10,-0.000219138,-2.36832,0.177617,0.332176,55.5299,-0.0511727,
2,1,0,1,1,58323.8,-0.0487916,-0.0492197,4.39466,30,-0.00630161,10,-0.000216304,-2.35708,0.194772,0.302919,51.8379,-0.0492197,
2,1,0,1,1,58323.8,-0.0467941,-0.0471847,4.48905,30,-0.00621269,10,-0.000211814,-2.34785,0.242244,0.243557,42.5806,-0.0471847,
2,1,0,1,1,58323.9,-0.0447965,-0.0452001,4.56581,30,-0.0061221,10,-0.000206375,-2.34048,0.26822,0.219969,39.204,-0.0452001,
2,1,0,1,1,58323.9,-0.0427989,-0.0431985,4.64532,30,-0.0060299,10,-0.000200671,-2.33298,0.270327,0.218255,39.5597,-0.0431985,
2,1,0,1,1,58323.9,-0.0408013,-0.0412062,4.72381,30,-0.00593663,10,-0.00019465,-2.32571,0.327773,0.180003,33.095,-0.0412062,
2,1,0,1,1,58323.9,-0.0388037,-0.0392066,4.77744,30,-0.00584156,10,-0.000187307,-2.32081,0.403133,0.146354,27.2921,-0.0392066,
2,1,0,1,1,58323.9,-0.0368061,-0.0372004,4.83314,30,-0.00574538,10,-0.000179794,-2.31577,0.416506,0.141655,26.7043,-0.0372004,
2,1,0,1,1,58324,-0.0348085,-0.0352224,4.88383,30,-0.00564811,10,-0.00017202,-2.31124,0.460697,0.128067,24.3996,-0.0352224,
2,1,0,1,1,58324,-0.0328109,-0.0331959,4.93084,30,-0.00555038,10,-0.000163684,-2.30708,0.550401,0.107195,20.6036,-0.0331959,
2,1,0,1,1,58324,-0.0308134,-0.0312147,4.9664,30,-0.00545132,10,-0.000155025,-2.30396,0.664728,0.0887581,17.1992,-0.0312147,
2,1,0,1,1,58324,-0.0288158,-0.0291927,4.9997,30,-0.00535159,10,-0.000145955,-2.30106,0.761123,0.077517,15.1171,-0.0291927,
2,1,0,1,1,58324,-0.0268182,-0.0271608,5.02769,30,-0.00525124,10,-0.000136556,-2.29863,0.832009,0.0709127,13.913,-0.0271608,
2,1,0,1,1,58324.1,-0.0248138,-0.0252187,5.05499,30,-0.00515044,10,-0.00012748,-2.29628,0.896059,0.0658439,12.9855,-0.0252187,
2,1,0,1,1,58324.1,-0.022823,-0.0231994,5.07913,30,-0.00504954,10,-0.000117833,-2.29421,1.19595,0.0493333,9.76985,-0.0231994,
2,1,0,1,1,58324.1,-0.0208254,-0.0212396,5.09386,30,-0.00494775,10,-0.000108192,-2.29295,2.10361,0.0280471,5.57171,-0.0212396,
2,1,0,1,1,58324.1,-0.0188278,-0.0192126,5.10134,30,-0.00484574,10,-9.80103e-05,-2.29232,2.1544,0.0273858,5.45598,-0.0192126,
2,1,0,1,1,58324.1,-0.0168393,-0.0172094,5.11585,30,-0.004744,10,-8.80405e-05,-2.29108,1.68074,0.0351036,7.00796,-0.0172094,
2,1,0,1,1,58324.2,-0.0148327,-0.0152095,5.12939,30,-0.00464137,10,-7.80157e-05,-2.28993,2.64244,0.0223278,4.46557,-0.0152095,
2,1,0,1,1,58324.2,-0.0128351,-0.0132553,5.13351,30,-0.00453866,10,-6.80459e-05,-2.28959,5.43825,0.0108491,2.17364,-0.0132553,
2,1,0,1,1,58324.2,-0.0108375,-0.0112294,5.13805,30,-0.00443586,10,-5.76971e-05,-2.2892,4.48191,0.013164,2.64007,-0.0112294,
2,1,0,1,1,58324.2,-0.00883989,-0.00922826,5.14414,30,-0.0043329,10,-4.74715e-05,-2.28869,3.78947,0.0155695,3.1258,-0.00922826,
2,1,0,1,1,58324.2,-0.0068423,-0.00724448,5.1505,30,-0.00423035,10,-3.73127e-05,-2.28815,8.50129,0.00694012,1.39406,-0.00724448,
2,1,0,1,1,58324.3,-0.00484471,-0.00520421,5.14975,30,-0.00412733,10,-2.68004e-05,-2.28821,72.955,0.000808717,0.162569,-0.00520421,
2,1,0,1,1,58324.3,-0.00284713,-0.00324734,5.15115,30,-0.00402427,10,-1.67276e-05,-2.2881,-15.1667,-0.00389009,-0.781591,-0.00324734,
2,1,0,1,1,58324.3,-0.000849538,-0.00125023,5.14666,30,-0.00392121,10,-6.4345e-06,-2.28847, , , ,-0.001250229,
2,1,0,1,1,58324.3,-2.55332e-05,-0.000458935,5.16759,30,-0.00387947,10,-2.37159e-06,-2.28671, , , ,-0.000458935,