File: Figure_codes/Fig_3-5/rawdata_trumpetplot_data/after 10th/20221101_1-115_003_TrumpetPlot_ParaChange_from10_every3_09_CV_C01_18.csv
mode,ox/red,error,control changes,counter inc.,time/s,control/V,Ewe/V,<I>/mA,cycle number,(Q-Qo)/C,I Range,P/W,log(|I|),Tafel slope mV/dec,alpha_eff,dI/d(E-IR),E-IR/V,
2,0,0,0,0,36644.9,2.44065e-05,-0.000248974,-5.31104,19,0.0000000E+000,10,1.32231e-06,-2.27482, , , ,-0.000248974,
2,0,0,1,0,36644.9,0.00179726,0.00144191,-3.07203,19,-7.12849e-05,10,-4.42961e-06,-2.51257, , , ,0.001441913,
2,0,0,1,0,36644.9,0.00379485,0.00345231,-1.50085,19,-0.000115612,10,-5.18139e-06,-2.82366,-0.00460915,-12.8006,658.67,0.00345231,
2,0,0,1,0,36644.9,0.00579244,0.00548801,-0.406991,19,-0.000133932,10,-2.23357e-06,-3.39041,-0.00734544,-8.03219,481.906,0.00548801,
2,1,0,1,0,36644.9,0.00779002,0.00745483,0.427994,19,-0.00013322,10,3.19062e-06,-3.36856,0.00935421,6.30732,375.643,0.00745483,
2,1,0,1,0,36645,0.00978761,0.00943177,1.07445,19,-0.000117828,10,1.0134e-05,-2.96881,0.00702206,8.40209,289.739,0.00943177,
2,1,0,1,0,36645,0.0117852,0.0114468,1.58462,19,-9.0936e-05,10,1.81388e-05,-2.80008,0.0147767,3.99277,232.216,0.01144678,
2,1,0,1,0,36645,0.0137828,0.0134241,2.00153,19,-5.49216e-05,10,2.68686e-05,-2.69864,0.02335,2.52676,191.697,0.0134241,
2,1,0,1,0,36645,0.0157804,0.0154599,2.35392,19,-1.11952e-05,10,3.63913e-05,-2.62821,0.0329623,1.78992,161.306,0.0154599,
2,1,0,1,0,36645,0.017778,0.0174242,2.64678,19,3.87808e-05,10,4.6118e-05,-2.57728,0.0443982,1.32888,135.549,0.01742422,
2,1,0,1,0,36645.1,0.0197755,0.019428,2.89179,19,9.42691e-05,10,5.61816e-05,-2.53883,0.0567979,1.03877,116.498,0.019428,
2,1,0,1,0,36645.1,0.0217731,0.0214276,3.11316,19,0.000154422,10,6.67075e-05,-2.5068,0.0696035,0.847658,102.302,0.0214276,
2,1,0,1,0,36645.1,0.0237707,0.0234392,3.30215,19,0.000218669,10,7.73997e-05,-2.4812,0.0825838,0.714426,91.8545,0.0234392,
2,1,0,1,0,36645.1,0.0257683,0.0254495,3.48259,19,0.000286274,10,8.86302e-05,-2.4581,0.0934703,0.631216,85.5051,0.0254495,
2,1,0,1,0,36645.1,0.0277659,0.0274541,3.64544,19,0.000357578,10,0.000100082,-2.43825,0.107779,0.547419,77.6772,0.0274541,
2,1,0,1,0,36645.2,0.0297635,0.0294535,3.79361,19,0.000431972,10,0.000111735,-2.42095,0.125556,0.469909,69.3533,0.0294535,
2,1,0,1,0,36645.2,0.0317611,0.0314325,3.92135,19,0.000509161,10,0.000123258,-2.40656,0.134785,0.437736,67.0716,0.0314325,
2,1,0,1,0,36645.2,0.0337587,0.0334501,4.06167,19,0.000588636,10,0.000135863,-2.3913,0.143372,0.411518,65.0627,0.0334501,
2,1,0,1,0,36645.2,0.0357562,0.0354663,4.1838,19,0.000671172,10,0.000148384,-2.37843,0.160095,0.368531,60.1104,0.0354663,
2,1,0,1,0,36645.2,0.0377538,0.0374041,4.29935,19,0.000756106,10,0.000160813,-2.3666,0.164602,0.358441,60.181,0.0374041,
2,1,0,1,0,36645.3,0.0397514,0.0394336,4.42256,19,0.000843371,10,0.000174397,-2.35433,0.16264,0.362764,62.6177,0.0394336,
2,1,0,1,0,36645.3,0.041749,0.0413883,4.54883,19,0.000932607,10,0.000188268,-2.3421,0.177109,0.333129,59.0057,0.0413883,
2,1,0,1,0,36645.3,0.0437466,0.0433994,4.65656,19,0.00102468,10,0.000202092,-2.33193,0.206045,0.286345,52.0078,0.0433994,
2,1,0,1,0,36645.3,0.0457442,0.0454586,4.76052,19,0.00111882,10,0.000216407,-2.32235,0.206377,0.285885,53.1368,0.0454586,
2,1,0,1,0,36645.3,0.0477418,0.0474194,4.87018,19,0.00121517,10,0.000230941,-2.31246,0.201006,0.293523,55.7984,0.0474194,
2,1,0,1,0,36645.4,0.0497484,0.0494483,4.98314,19,0.00131372,10,0.000246408,-2.3025,0.219453,0.26885,52.1915,0.0494483,
2,1,0,1,0,36645.4,0.0517369,0.0514353,5.07977,19,0.00141386,10,0.00026128,-2.29416,0.226312,0.260702,51.743,0.0514353,
2,1,0,1,0,36645.4,0.0537345,0.0534362,5.18948,19,0.00151657,10,0.000277306,-2.28488,0.228097,0.258662,52.3231,0.0534362,
2,1,0,1,0,36645.4,0.0557321,0.055415,5.288,19,0.00162136,10,0.000293035,-2.27671,0.250628,0.235409,48.553,0.055415,
2,1,0,1,0,36645.4,0.0577206,0.0573873,5.38132,19,0.00172755,10,0.00030882,-2.26911,0.251032,0.23503,49.4042,0.0573873,
2,1,0,1,0,36645.5,0.0597273,0.0594123,5.48549,19,0.00183638,10,0.000325906,-2.26078,0.248685,0.237248,50.7572,0.0594123,
2,1,0,1,0,36645.5,0.0617249,0.0613757,5.58376,19,0.00194712,10,0.000342707,-2.25307,0.275637,0.214049,46.5973,0.0613757,
2,1,0,1,0,36645.5,0.0637224,0.0634081,5.67168,19,0.00205975,10,0.00035963,-2.24629,0.284936,0.207064,45.869,0.0634081,
2,1,0,1,0,36645.5,0.06572,0.0654248,5.76949,19,0.00217421,10,0.000377468,-2.23886,0.267155,0.220845,49.7338,0.0654248,
2,1,0,1,0,36645.5,0.0677176,0.0673977,5.8701,19,0.00229012,10,0.000395631,-2.23135,0.295653,0.199558,45.6336,0.0673977,
2,1,0,1,0,36645.6,0.0697152,0.0693845,5.95018,19,0.0024084,10,0.00041285,-2.22547,0.329152,0.179249,41.6494,0.0693845,
2,1,0,1,0,36645.6,0.0717128,0.0714326,6.03815,19,0.00252831,10,0.000431321,-2.2191,0.319444,0.184696,43.5163,0.0714326,
2,1,0,1,0,36645.6,0.0737104,0.0734007,6.12495,19,0.00264995,10,0.000449576,-2.2129,0.322621,0.182877,43.7107,0.0734007,
2,1,0,1,0,36645.6,0.075708,0.0753984,6.21149,19,0.00277278,10,0.000468337,-2.2068,0.3481,0.169491,41.0533,0.0753984,
2,1,0,1,0,36645.6,0.0777056,0.0773839,6.28848,19,0.00289775,10,0.000486627,-2.20145,0.367651,0.160478,39.3888,0.0773839,
2,1,0,1,0,36645.7,0.0797031,0.0793586,6.36748,19,0.00302431,10,0.000505314,-2.19603,0.376691,0.156627,38.9148,0.0793586,
2,1,0,1,0,36645.7,0.0817007,0.0813979,6.44468,19,0.00315245,10,0.000524583,-2.1908,0.404754,0.145768,36.6418,0.0813979,
2,1,0,1,0,36645.7,0.0836983,0.0833854,6.51503,19,0.00328137,10,0.000543259,-2.18608,0.422183,0.13975,35.5352,0.08338543,
2,1,0,1,0,36645.7,0.0856959,0.085395,6.58672,19,0.00341241,10,0.000562473,-2.18133,0.424502,0.138987,35.7238,0.085395,
2,1,0,1,0,36645.7,0.0876935,0.0873726,6.65747,19,0.00354485,10,0.00058168,-2.17669,0.482424,0.122299,31.74,0.0873726,
2,1,0,1,0,36645.8,0.0896911,0.089393,6.71361,19,0.00367854,10,0.00060015,-2.17304,0.463908,0.12718,33.3801,0.089393,
2,1,0,1,0,36645.8,0.0916887,0.091443,6.79334,19,0.00381298,10,0.000621204,-2.16792,0.409941,0.143923,38.1369,0.091443,
2,1,0,1,0,36645.8,0.0936863,0.0933986,6.86638,19,0.00394959,10,0.00064131,-2.16327,0.46714,0.1263,33.8108,0.0933986,
2,1,0,1,0,36645.8,0.0956838,0.0953637,6.9259,19,0.00408749,10,0.00066048,-2.15952,0.469653,0.125625,33.9939,0.0953637,
2,1,0,1,0,36645.8,0.0976814,0.0973696,7.00137,19,0.00422677,10,0.000681721,-2.15482,0.385074,0.153217,41.9109,0.0973696,
2,1,0,1,0,36645.9,0.099679,0.0993441,7.09272,19,0.00436699,10,0.00070462,-2.14919,0.376469,0.156719,43.344,0.0993441,
2,1,0,1,0,36645.9,0.101677,0.101322,7.17268,19,0.00450968,10,0.000726751,-2.14432,0.3655,0.161422,45.2472,0.1013221,
2,1,0,1,0,36645.9,0.103674,0.10332,7.27264,19,0.00465415,10,0.000751413,-2.13831,0.313523,0.188184,53.4604,0.10332,
2,1,0,1,0,36645.9,0.105672,0.105328,7.38686,19,0.00480074,10,0.000778046,-2.13154,0.292877,0.20145,58.1021,0.105328,
2,1,0,1,0,36645.9,0.107667,0.107392,7.5092,19,0.00494888,10,0.000806426,-2.12441,0.289722,0.203643,59.6568,0.107392,
2,1,0,1,0,36646,0.109667,0.109354,7.62703,19,0.00510025,10,0.000834049,-2.11764,0.27855,0.211811,63.0949,0.109354,
2,1,0,1,0,36646,0.111665,0.11133,7.75767,19,0.00525415,10,0.00086366,-2.11027,0.265983,0.221819,67.1793,0.11133,
2,1,0,1,0,36646,0.113662,0.113342,7.89494,19,0.00541074,10,0.00089483,-2.10265,0.267925,0.220211,67.8251,0.113342,
2,1,0,1,0,36646,0.11566,0.115314,8.02792,19,0.00556997,10,0.000925734,-2.0954,0.245955,0.239881,75.3087,0.115314,
2,1,0,1,0,36646,0.117657,0.117332,8.19542,19,0.00573148,10,0.000961587,-2.08643,0.24669,0.239166,76.3589,0.117332,
2,1,0,1,0,36646.1,0.119655,0.119344,8.33561,19,0.00589683,10,0.000994803,-2.07906,0.27663,0.213281,69.3678,0.119344,
2,1,0,1,0,36646.1,0.121652,0.121343,8.47367,19,0.00606496,10,0.00102822,-2.07193,0.283125,0.208389,68.9025,0.121343,
2,1,0,1,0,36646.1,0.12365,0.123331,8.6103,19,0.00623584,10,0.00106191,-2.06498,0.28739,0.205296,68.9933,0.1233306,
2,1,0,1,0,36646.1,0.125648,0.125351,8.75015,19,0.00640866,10,0.00109684,-2.05798,0.315483,0.187015,63.7647,0.125351,
2,1,0,1,0,36646.1,0.127645,0.12731,8.86404,19,0.00658484,10,0.00112848,-2.05237,0.356665,0.165421,57.2144,0.12731,
2,1,0,1,0,36646.2,0.129643,0.12929,8.97554,19,0.0067633,10,0.00116045,-2.04694,0.377805,0.156165,54.6922,0.12929,
2,1,0,1,0,36646.2,0.13164,0.131341,9.08449,19,0.00694396,10,0.00119316,-2.0417,0.41825,0.141064,49.969,0.131341,
2,1,0,1,0,36646.2,0.133638,0.133348,9.17831,19,0.00712583,10,0.00122391,-2.03724,0.457613,0.12893,46.1678,0.133348,
2,1,0,1,0,36646.2,0.135636,0.135289,9.26677,19,0.00731036,10,0.00125369,-2.03307,0.491914,0.11994,43.3604,0.135289,
2,1,0,1,0,36646.2,0.137633,0.137281,9.34886,19,0.00749656,10,0.00128342,-2.02924,0.586796,0.100546,36.6526,0.137281,
2,1,0,1,0,36646.3,0.139631,0.13933,9.4149,19,0.00768426,10,0.00131178,-2.02618,0.643076,0.0917465,33.7175,0.13933,
2,1,0,1,0,36646.3,0.141628,0.141319,9.485,19,0.00787235,10,0.00134041,-2.02296,0.714358,0.0825917,30.5434,0.141319,
2,1,0,1,0,36646.3,0.143626,0.143329,9.53703,19,0.00806261,10,0.00136693,-2.02059,1.01862,0.0579213,21.5373,0.143329,
2,1,0,1,0,36646.3,0.145624,0.145294,9.57062,19,0.00825374,10,0.00139056,-2.01906,2.35406,0.0250631,9.34642,0.145294,
2,1,0,1,0,36646.3,0.147621,0.147256,9.57373,19,0.00844518,10,0.00140979,-2.01892,-15.1059,-0.00390575,-1.45839,0.147256,
2,1,0,1,0,36646.4,0.149619,0.149337,9.56472,19,0.00863564,10,0.00142837,-2.01933,-1.16927,-0.0504589,-18.7785,0.149337,
2,1,0,1,0,36646.4,0.151616,0.151285,9.49806,19,0.00882638,10,0.00143692,-2.02236,-0.51874,-0.113737,-42.0859,0.151285,
2,1,0,1,0,36646.4,0.153614,0.153287,9.39849,19,0.0090155,10,0.00144067,-2.02694,-0.359773,-0.163992,-60.0142,0.153287,
2,1,0,1,0,36646.4,0.155611,0.155301,9.25708,19,0.00920216,10,0.00143763,-2.03353,-0.258886,-0.2279,-82.1361,0.1553006,
2,1,0,1,0,36646.4,0.157609,0.15725,9.07297,19,0.00938462,10,0.00142673,-2.04225,-0.191838,-0.307551,-108.501,0.15725,
2,1,0,1,0,36646.5,0.159607,0.159277,8.82567,19,0.00956367,10,0.00140572,-2.05425,-0.154866,-0.380975,-130.894,0.159277,
2,1,0,1,0,36646.5,0.161604,0.161325,8.53962,19,0.00973735,10,0.00137765,-2.06856,-0.129943,-0.454047,-150.985,0.161325,
2,1,0,1,0,36646.5,0.163602,0.163271,8.22263,19,0.00990502,10,0.00134251,-2.08499,-0.113854,-0.518209,-165.984,0.163271,
2,1,0,1,0,36646.5,0.165606,0.165277,7.88359,19,0.0100661,10,0.00130298,-2.10328,-0.105062,-0.561575,-172.623,0.165277,
2,1,0,1,0,36646.5,0.167597,0.167225,7.54,19,0.0102196,10,0.00126088,-2.12263,-0.102079,-0.577986,-170.046,0.167225,
2,1,0,1,0,36646.6,0.169595,0.169276,7.20362,19,0.010367,10,0.0012194,-2.14245,-0.102085,-0.577948,-162.433,0.169276,
2,1,0,1,0,36646.6,0.171592,0.17133,6.87322,19,0.0105077,10,0.00117759,-2.16284,-0.0987777,-0.597301,-160.39,0.17133,
2,1,0,1,0,36646.6,0.173581,0.173244,6.56719,19,0.0106414,10,0.00113773,-2.18262,-0.102712,-0.574422,-147.491,0.173244,
2,1,0,1,0,36646.6,0.175587,0.17526,6.29358,19,0.01077,10,0.00110301,-2.2011,-0.108994,-0.541313,-133.07,0.17526,
2,1,0,1,0,36646.6,0.177585,0.17722,6.03813,19,0.0108933,10,0.00107007,-2.2191,-0.114391,-0.515773,-121.712,0.1772197,
2,1,0,1,0,36646.7,0.179582,0.179265,5.80619,19,0.0110117,10,0.00104084,-2.23611,-0.125175,-0.471339,-107.063,0.179265,
2,1,0,1,0,36646.7,0.18158,0.18124,5.60768,19,0.0111258,10,0.00101634,-2.25122,-0.14035,-0.420379,-92.1984,0.18124,
2,1,0,1,0,36646.7,0.183578,0.183265,5.43739,19,0.0112357,10,0.000996482,-2.26461,-0.147772,-0.399264,-84.692,0.183265,
2,1,0,1,0,36646.7,0.185575,0.18527,5.26637,19,0.0113428,10,0.000975702,-2.27849,-0.155703,-0.378927,-78.0703,0.18527,
2,1,0,1,0,36646.7,0.187573,0.187278,5.12407,19,0.0114467,10,0.000959625,-2.29039,-0.175894,-0.33543,-67.1813,0.187278,
2,1,0,1,0,36646.8,0.18957,0.189237,4.99985,19,0.011548,10,0.000946158,-2.30104,-0.195878,-0.301207,-58.8587,0.189237,
2,1,0,1,0,36646.8,0.191568,0.191224,4.89183,19,0.0116464,10,0.000935434,-2.31053,-0.216685,-0.272284,-52.0101,0.191224,
2,1,0,1,0,36646.8,0.193566,0.193263,4.7905,19,0.0117432,10,0.000925824,-2.31962,-0.234974,-0.251092,-46.9966,0.193263,
2,1,0,1,0,36646.8,0.195563,0.195279,4.70123,19,0.0118382,10,0.000918053,-2.32779,-0.241778,-0.244025,-44.7696,0.195279,
2,1,0,1,0,36646.8,0.197561,0.197238,4.6125,19,0.0119314,10,0.000909763,-2.33606,-0.274774,-0.214722,-38.7452,0.197238,
2,1,0,1,0,36646.9,0.199558,0.199265,4.54679,19,0.0120225,10,0.000906018,-2.3423,-0.324092,-0.182047,-32.3073,0.199265,
2,1,0,1,0,36646.9,0.201556,0.201255,4.48272,19,0.0121128,10,0.000902172,-2.34846,-0.322526,-0.182931,-32.0064,0.2012554,
2,1,0,1,0,36646.9,0.203554,0.203221,4.42017,19,0.0122019,10,0.000898274,-2.35456,-0.343641,-0.171691,-29.6392,0.203221,
2,1,0,1,0,36646.9,0.205551,0.20524,4.36461,19,0.0122897,10,0.000895795,-2.36005,-0.454985,-0.129675,-22.1456,0.2052405,
2,1,0,1,0,36646.9,0.207549,0.207206,4.33193,19,0.0123762,10,0.000897602,-2.36332,-0.474905,-0.124235,-20.9568,0.207206,
2,1,0,1,0,36647,0.209546,0.209264,4.28029,19,0.0124623,10,0.00089571,-2.36853,-0.408869,-0.144301,-24.1214,0.209264,
2,1,0,1,0,36647,0.211544,0.211229,4.23488,19,0.0125474,10,0.000894531,-2.37316,-0.44181,-0.133542,-22.0802,0.211229,
2,1,0,1,0,36647,0.213541,0.213202,4.19333,19,0.0126317,10,0.000894028,-2.37744,-0.578407,-0.102004,-16.7259,0.213202,
2,1,0,1,0,36647,0.215539,0.215209,4.16832,19,0.0127149,10,0.000897059,-2.38004,-0.606158,-0.0973343,-15.8075,0.215209,
2,1,0,1,0,36647,0.217537,0.217237,4.12955,19,0.0127979,10,0.000897092,-2.3841,-0.595315,-0.0991073,-15.9968,0.217237,
2,1,0,1,0,36647.1,0.219534,0.219258,4.10355,19,0.0128802,10,0.000899735,-2.38684,-0.717543,-0.082225,-13.1668,0.219258,
2,1,0,1,0,36647.1,0.221532,0.221246,4.07677,19,0.0129621,10,0.000901968,-2.38968,-0.707023,-0.0834484,-13.279,0.221246,
2,1,0,1,0,36647.1,0.223525,0.223187,4.05138,19,0.0130429,10,0.000904214,-2.3924,-0.798737,-0.0738667,-11.6852,0.223187,
2,1,0,1,0,36647.1,0.225527,0.225232,4.03019,19,0.0131238,10,0.000907728,-2.39467,-0.76933,-0.0766901,-12.0535,0.225232,
2,1,0,1,0,36647.1,0.227525,0.227182,4.00322,19,0.0132042,10,0.00090946,-2.39759,-0.710613,-0.0830269,-12.9746,0.227182,
2,1,0,1,0,36647.2,0.229522,0.229236,3.97824,19,0.0132841,10,0.000911955,-2.40031,-0.904617,-0.065221,-10.1374,0.229236,
2,1,0,1,0,36647.2,0.23152,0.23123,3.96218,19,0.0133636,10,0.000916177,-2.40207,-1.46061,-0.0403941,-6.25204,0.2312303,
2,1,0,1,0,36647.2,0.233517,0.233185,3.95355,19,0.0134425,10,0.000921908,-2.40301,-1.19086,-0.0495442,-7.63145,0.233185,
2,1,0,1,0,36647.2,0.235515,0.235244,3.93155,19,0.0135214,10,0.000924873,-2.40544,-0.892297,-0.0661215,-10.1493,0.235244,
2,1,0,1,0,36647.2,0.237512,0.237218,3.91262,19,0.0135998,10,0.000928143,-2.40753,-1.06029,-0.0556453,-8.50133,0.237218,
2,1,0,1,0,36647.3,0.23951,0.239212,3.89782,19,0.013678,10,0.000932405,-2.40918,-1.82419,-0.0323432,-4.92634,0.239212,
2,1,0,1,0,36647.3,0.241508,0.241193,3.89304,19,0.0137556,10,0.000938973,-2.40971,-1.41983,-0.0415543,-6.30081,0.241193,
2,1,0,1,0,36647.3,0.243505,0.243202,3.87268,19,0.0138333,10,0.000941844,-2.41199,-1.15458,-0.0511008,-7.73267,0.2432024,
2,1,0,1,0,36647.3,0.245503,0.245236,3.86177,19,0.0139106,10,0.000947047,-2.41321,-1.53729,-0.0383792,-5.78337,0.2452365,
2,1,0,1,0,36647.3,0.2475,0.247168,3.84974,19,0.0139878,10,0.000951532,-2.41457,-1.63126,-0.0361684,-5.43592,0.247168,
2,1,0,1,0,36647.4,0.249498,0.249174,3.84037,19,0.0140644,10,0.000956918,-2.41563,-1.57356,-0.0374946,-5.61673,0.249174,
2,1,0,1,0,36647.4,0.251496,0.251199,3.8271,19,0.0141411,10,0.000961364,-2.41713,-1.44882,-0.0407228,-6.08404,0.251199,
2,1,0,1,0,36647.4,0.253493,0.25318,3.81599,19,0.0142176,10,0.000966134,-2.41839,-1.16086,-0.0508242,-7.56119,0.25318,
2,1,0,1,0,36647.4,0.255491,0.25518,3.797,19,0.0142938,10,0.000968918,-2.42056,-1.68801,-0.0349523,-5.19109,0.25518,
2,1,0,1,0,36647.4,0.257488,0.257196,3.79514,19,0.0143695,10,0.000976096,-2.42077,-2.51343,-0.0234739,-3.47214,0.257196,
2,1,0,1,0,36647.5,0.259486,0.259163,3.78317,19,0.0144454,10,0.000980458,-2.42214,-1.43385,-0.041148,-6.07528,0.259163,
2,1,0,1,0,36647.5,0.261484,0.261141,3.77118,19,0.0145211,10,0.000984809,-2.42352,-1.64897,-0.0357799,-5.26787,0.261141,
2,1,0,1,0,36647.5,0.263481,0.263201,3.7619,19,0.0145965,10,0.000990136,-2.42459,-3.38603,-0.0174245,-2.56098,0.263201,
2,1,0,1,0,36647.5,0.265479,0.265182,3.76083,19,0.0146715,10,0.000997305,-2.42472,-2.71176,-0.0217571,-3.18885,0.265182,
2,1,0,1,0,36647.5,0.267476,0.2672,3.74914,19,0.0147466,10,0.00100177,-2.42607,-1.47243,-0.0400698,-5.86284,0.2672,
2,1,0,1,0,36647.6,0.269474,0.269178,3.7374,19,0.0148215,10,0.00100603,-2.42743,-1.62044,-0.0364098,-5.31251,0.269178,
2,1,0,1,0,36647.6,0.271471,0.271138,3.72822,19,0.0148963,10,0.00101086,-2.4285,-2.75049,-0.0214507,-3.1236,0.271138,
2,1,0,1,0,36647.6,0.273469,0.273136,3.72504,19,0.0149705,10,0.00101744,-2.42887,-2.02553,-0.0291282,-4.22849,0.273136,
2,1,0,1,0,36647.6,0.275467,0.275165,3.7112,19,0.015045,10,0.00102119,-2.43049,-1.6082,-0.0366869,-5.31811,0.275165,
2,1,0,1,0,36647.6,0.277464,0.277153,3.70367,19,0.0151192,10,0.00102649,-2.43137,-2.14257,-0.027537,-3.97991,0.277153,
2,1,0,1,0,36647.7,0.279462,0.279113,3.69548,19,0.0151932,10,0.00103146,-2.43233,-1.76771,-0.0333764,-4.81181,0.279113,
2,1,0,1,0,36647.7,0.281464,0.281141,3.68448,19,0.015267,10,0.00103586,-2.43362,-1.96822,-0.0299764,-4.31303,0.281141,
2,1,0,1,0,36647.7,0.283457,0.283175,3.67796,19,0.0153404,10,0.00104151,-2.43439,-2.12906,-0.0277118,-3.97613,0.283175,
2,1,0,1,0,36647.7,0.285455,0.285165,3.66849,19,0.015414,10,0.00104612,-2.43551,-1.26338,-0.0467001,-6.67915,0.285165,
2,1,0,1,0,36647.7,0.287452,0.28714,3.65149,19,0.0154873,10,0.00104849,-2.43753,-1.85243,-0.03185,-4.54853,0.28714,
2,1,0,1,0,36647.8,0.28945,0.289201,3.65012,19,0.0155604,10,0.00105562,-2.43769,-3.43275,-0.0171874,-2.44606,0.289201,
2,1,0,1,0,36647.8,0.291447,0.291095,3.64181,19,0.0156331,10,0.00106011,-2.43868,-1.41425,-0.0417181,-5.92384,0.291095,
2,1,0,1,0,36647.8,0.293445,0.293144,3.62677,19,0.0157059,10,0.00106317,-2.44048,-1.48205,-0.0398096,-5.64038,0.293144,
2,1,0,1,0,36647.8,0.295442,0.295129,3.61906,19,0.0157785,10,0.00106809,-2.4414,-3.19812,-0.0184484,-2.60744,0.295129,
2,1,0,1,0,36647.8,0.29744,0.297155,3.61631,19,0.0158509,10,0.0010746,-2.44173,-2.59852,-0.0227052,-3.20115,0.297155,
2,1,0,1,0,36647.9,0.299438,0.299173,3.60611,19,0.0159229,10,0.00107885,-2.44296,-0.0362982,-1.62542,-213.535,0.299173,
2,1,0,1,0,36647.9,0.299737,0.299442,3.12787,19,0.0159524,10,0.000936616,-2.50475,0.0039788,14.8286,1319.49,0.299442,
2,1,0,1,0,36647.9,0.29774,0.297446,1.32738,19,0.0159942,10,0.000394823,-2.87701,0.00443612,13.2999,677.803,0.297446,
2,1,0,1,0,36647.9,0.295742,0.295391,0.381965,19,0.0160103,10,0.000112829,-3.41798,0.00491531,12.0033,385.036,0.295391,
2,0,0,1,0,36647.9,0.293745,0.293464,-0.205591,19,0.0160116,10,-6.03335e-05,-3.687,-0.0199743,-2.95379,249.216,0.293464,
2,0,0,1,0,36647.9,0.291747,0.291442,-0.602177,19,0.0160032,10,-0.0001755,-3.22028,-0.00633247,-9.31706,170.341,0.291442,
2,0,0,1,0,36648,0.289754,0.289421,-0.894311,19,0.0159881,10,-0.000258832,-3.04851,-0.015276,-3.86227,124.791,0.289421,
2,0,0,1,0,36648,0.287752,0.287421,-1.10401,19,0.015968,10,-0.000317316,-2.95703,-0.0264421,-2.23129,93.1509,0.287421,
2,0,0,1,0,36648,0.285754,0.285424,-1.26668,19,0.0159441,10,-0.00036154,-2.89733,-0.0385373,-1.53098,74.4342,0.285424,
2,0,0,1,0,36648,0.283757,0.283455,-1.39918,19,0.0159173,10,-0.000396604,-2.85413,-0.0513471,-1.14904,62.2026,0.283455,
2,0,0,1,0,36648,0.281759,0.281433,-1.51493,19,0.0158881,10,-0.00042635,-2.81961,-0.0662459,-0.890622,52.2329,0.281433,
2,0,0,1,0,36648.1,0.279761,0.279394,-1.61132,19,0.0158568,10,-0.000450192,-2.79282,-0.0829663,-0.711132,44.4607,0.279394,
2,0,0,1,0,36648.1,0.277764,0.277442,-1.69235,19,0.0158236,10,-0.000469529,-2.77151,-0.0959901,-0.614646,40.5526,0.277442,
2,0,0,1,0,36648.1,0.275766,0.275423,-1.77235,19,0.0157889,10,-0.000488146,-2.75145,-0.111231,-0.530427,36.5196,0.2754229,
2,0,0,1,0,36648.1,0.273769,0.273455,-1.83796,19,0.0157527,10,-0.000502599,-2.73566,-0.132774,-0.444365,31.8213,0.273455,
2,0,0,1,0,36648.1,0.271771,0.271446,-1.89892,19,0.0157154,10,-0.000515452,-2.72149,-0.143447,-0.411302,30.466,0.271446,
2,0,0,1,0,36648.2,0.269774,0.269473,-1.95928,19,0.0156767,10,-0.000527973,-2.7079,-0.167744,-0.351727,26.792,0.269473,
2,0,0,1,0,36648.2,0.267776,0.267461,-2.00567,19,0.015637,10,-0.000536438,-2.69774,-0.195181,-0.302284,23.6716,0.267461,
2,0,0,1,0,36648.2,0.265778,0.265448,-2.05456,19,0.0155963,10,-0.000545377,-2.68728,-0.18854,-0.312931,25.1077,0.265448,
2,0,0,1,0,36648.2,0.263781,0.26343,-2.10688,19,0.0155548,10,-0.000555016,-2.67636,-0.203542,-0.289866,23.7792,0.26343,
2,0,0,1,0,36648.2,0.261783,0.261426,-2.15019,19,0.0155121,10,-0.000562115,-2.66752,-0.239693,-0.246148,20.6274,0.261426,
2,0,0,1,0,36648.3,0.259786,0.25949,-2.18814,19,0.0154687,10,-0.000567802,-2.65992,-0.250176,-0.235834,20.1539,0.2594904,
2,0,0,1,0,36648.3,0.257788,0.257479,-2.22973,19,0.0154244,10,-0.00057411,-2.65175,-0.245419,-0.240405,20.9209,0.257479,
2,0,0,1,0,36648.3,0.25579,0.255479,-2.27206,19,0.0153795,10,-0.000580464,-2.64358,-0.274053,-0.215287,19.0532,0.2554794,
2,0,0,1,0,36648.3,0.253793,0.25347,-2.30612,19,0.0153337,10,-0.000584533,-2.63712,-0.318987,-0.184961,16.6416,0.25347,
2,0,0,1,0,36648.3,0.251795,0.251449,-2.33912,19,0.0152872,10,-0.000588171,-2.63095,-0.323715,-0.182259,16.6397,0.251449,
2,0,0,1,0,36648.4,0.249798,0.249458,-2.37288,19,0.01524,10,-0.000591933,-2.62472,-0.327279,-0.180274,16.689,0.249458,
2,0,0,1,0,36648.4,0.2478,0.24748,-2.40538,19,0.0151923,10,-0.000595281,-2.61882,-0.330551,-0.17849,16.7593,0.24748,
2,0,0,1,0,36648.4,0.245802,0.245499,-2.43922,19,0.0151438,10,-0.000598828,-2.61275,-0.347796,-0.16964,16.1389,0.245499,
2,0,0,1,0,36648.4,0.243805,0.243454,-2.47035,19,0.0150946,10,-0.000601415,-2.60724,-0.400025,-0.147491,14.2037,0.243454,
2,0,0,1,0,36648.4,0.241807,0.241491,-2.49616,19,0.0150448,10,-0.0006028,-2.60273,-0.370444,-0.159268,15.546,0.241491,
2,0,0,1,0,36648.5,0.23981,0.239484,-2.53206,19,0.0149947,10,-0.000606388,-2.59653,-0.33528,-0.175972,17.3814,0.239484,
2,0,0,1,0,36648.5,0.237812,0.237474,-2.56597,19,0.0149437,10,-0.000609352,-2.59075,-0.431931,-0.136596,13.6435,0.237474,
2,0,0,1,0,36648.5,0.235815,0.235475,-2.58676,19,0.0148921,10,-0.000609117,-2.58724,-0.554992,-0.106308,10.7342,0.2354746,
2,0,0,1,0,36648.5,0.233817,0.233498,-2.60866,19,0.0148401,10,-0.000609115,-2.58358,-0.462434,-0.127586,13.0084,0.233498,
2,0,0,1,0,36648.5,0.231815,0.231504,-2.63842,19,0.0147875,10,-0.000610804,-2.57866,-0.375716,-0.157034,16.1855,0.231504,
2,0,0,1,0,36648.6,0.229822,0.229483,-2.67364,19,0.0147345,10,-0.000613554,-2.5729,-0.475935,-0.123967,12.8901,0.229483,
2,0,0,1,0,36648.6,0.227824,0.227471,-2.69039,19,0.0146808,10,-0.000611988,-2.57018,-0.527987,-0.111745,11.7621,0.227471,
2,0,0,1,0,36648.6,0.225827,0.225488,-2.72063,19,0.0146266,10,-0.000613469,-2.56533,-0.434291,-0.135854,14.4167,0.225488,
2,0,0,1,0,36648.6,0.223829,0.22347,-2.74808,19,0.0145719,10,-0.000614114,-2.56097,-0.458753,-0.128609,13.7929,0.22347,
2,0,0,1,0,36648.6,0.221831,0.221502,-2.77561,19,0.0145168,10,-0.000614802,-2.55664,-0.505679,-0.116675,12.6262,0.221502,
2,0,0,1,0,36648.7,0.219834,0.219528,-2.79785,19,0.0144611,10,-0.000614207,-2.55318,-0.509129,-0.115884,12.6677,0.219528,
2,0,0,1,0,36648.7,0.217836,0.217486,-2.82648,19,0.0144047,10,-0.000614719,-2.54875,-0.581156,-0.101522,11.1739,0.217486,
2,0,0,1,0,36648.7,0.215839,0.215513,-2.84272,19,0.0143479,10,-0.000612643,-2.54627,-0.513151,-0.114976,12.7974,0.215513,
2,0,0,1,0,36648.7,0.213841,0.213482,-2.87771,19,0.0142909,10,-0.000614341,-2.54095,-0.453533,-0.13009,14.581,0.2134825,
2,0,0,1,0,36648.7,0.211843,0.211486,-2.90143,19,0.0142331,10,-0.000613613,-2.53739,-0.661334,-0.0892137,10.0888,0.211486,
2,0,0,1,0,36648.8,0.209846,0.209523,-2.91766,19,0.0141748,10,-0.000611317,-2.53497,-0.599935,-0.098344,11.2211,0.209523,
2,0,0,1,0,36648.8,0.207848,0.207517,-2.94597,19,0.014116,10,-0.000611339,-2.53077,-0.413778,-0.142589,16.4194,0.207517,
2,0,0,1,0,36648.8,0.205851,0.205496,-2.98378,19,0.0140569,10,-0.000613155,-2.52523,-0.485316,-0.12157,14.1109,0.205496,
2,0,0,1,0,36648.8,0.203853,0.203511,-3.0025,19,0.013997,10,-0.000611042,-2.52252,-0.674858,-0.0874258,10.2495,0.203511,
2,0,0,1,0,36648.8,0.201856,0.201545,-3.02428,19,0.0139367,10,-0.000609528,-2.51938,-0.562273,-0.104931,12.3965,0.201545,
2,0,0,1,0,36648.9,0.199858,0.199528,-3.05188,19,0.0138758,10,-0.000608935,-2.51543,-0.450715,-0.130903,15.609,0.199528,
2,0,0,1,0,36648.9,0.19786,0.19755,-3.08663,19,0.0138147,10,-0.000609765,-2.51052,-0.551719,-0.106939,12.8431,0.19755,
2,0,0,1,0,36648.9,0.195863,0.195555,-3.1029,19,0.0137528,10,-0.000606788,-2.50823,-0.569764,-0.103552,12.5763,0.195555,
2,0,0,1,0,36648.9,0.193865,0.193514,-3.13739,19,0.0136903,10,-0.000607129,-2.50343,-0.51046,-0.115582,14.1235,0.193514,
2,0,0,1,0,36648.9,0.191868,0.191558,-3.15935,19,0.0136273,10,-0.0006052,-2.5004,-0.52748,-0.111853,13.8154,0.191558,
2,0,0,1,0,36649,0.18987,0.189528,-3.19245,19,0.013564,10,-0.000605061,-2.49588,-0.522635,-0.112889,14.0447,0.189528,
2,0,0,1,0,36649,0.187872,0.187489,-3.2165,19,0.0134998,10,-0.000603059,-2.49262,-0.529051,-0.11152,14.0164,0.187489,
2,0,0,1,0,36649,0.185875,0.185519,-3.24865,19,0.0134351,10,-0.000602687,-2.4883,-0.528487,-0.111639,14.1356,0.1855192,
2,0,0,1,0,36649,0.183877,0.183531,-3.27245,19,0.0133698,10,-0.000600596,-2.48513,-0.418021,-0.141141,18.0909,0.183531,
2,0,0,1,0,36649,0.18188,0.181563,-3.32022,19,0.0133041,10,-0.000602829,-2.47883,-0.39167,-0.150637,19.4643,0.181563,
2,0,0,1,0,36649.1,0.179882,0.179568,-3.34959,19,0.0132374,10,-0.000601479,-2.47501,-0.535067,-0.110267,14.4124,0.179568,
2,0,0,1,0,36649.1,0.177885,0.177544,-3.37814,19,0.0131701,10,-0.00059977,-2.47132,-0.504491,-0.116949,15.4294,0.1775444,
2,0,0,1,0,36649.1,0.175887,0.175544,-3.41168,19,0.0131021,10,-0.000598899,-2.46703,-0.396502,-0.148801,19.8486,0.175544,
2,0,0,1,0,36649.1,0.173896,0.173523,-3.45796,19,0.0130337,10,-0.000600035,-2.46118,-0.373128,-0.158123,21.3128,0.173523,
2,0,0,1,0,36649.1,0.171892,0.171586,-3.49602,19,0.0129641,10,-0.000599869,-2.45643,-0.40494,-0.145701,19.8881,0.171586,
2,0,0,1,0,36649.2,0.169894,0.169523,-3.53752,19,0.0128937,10,-0.000599689,-2.4513,-0.366732,-0.160881,22.2316,0.169523,
2,0,0,1,0,36649.2,0.167897,0.167539,-3.58599,19,0.0128224,10,-0.000600795,-2.44539,-0.324683,-0.181715,25.4451,0.1675394,
2,0,0,1,0,36649.2,0.165899,0.165538,-3.63891,19,0.0127501,10,-0.000602378,-2.43903,-0.327772,-0.180003,25.5472,0.165538,
2,0,0,1,0,36649.2,0.163901,0.163556,-3.68775,19,0.0126771,10,-0.000603154,-2.43324,-0.298537,-0.19763,28.504,0.163556,
2,0,0,1,0,36649.2,0.161904,0.161538,-3.75293,19,0.0126027,10,-0.00060624,-2.42563,-0.276791,-0.213157,31.186,0.1615376,
2,0,0,1,0,36649.3,0.159906,0.159618,-3.81058,19,0.012527,10,-0.000608236,-2.41901,-0.268512,-0.21973,32.7323,0.159618,
2,0,0,1,0,36649.3,0.157909,0.1576,-3.88183,19,0.01245,10,-0.000611775,-2.41096,-0.239884,-0.245953,37.2922,0.1576,
2,0,0,1,0,36649.3,0.155911,0.155595,-3.96061,19,0.0123719,10,-0.000616249,-2.40224,-0.215779,-0.273428,42.3249,0.155595,
2,0,0,1,0,36649.3,0.153913,0.153577,-4.05207,19,0.0122916,10,-0.000622307,-2.39232,-0.209738,-0.281303,44.4462,0.153577,
2,0,0,1,0,36649.3,0.151916,0.15161,-4.13772,19,0.0122097,10,-0.000627319,-2.38324,-0.190611,-0.30953,50.1575,0.15161,
2,0,0,1,0,36649.4,0.149918,0.149556,-4.25377,19,0.0121257,10,-0.000636178,-2.37123,-0.164448,-0.358775,59.5867,0.1495561,
2,0,0,1,0,36649.4,0.147921,0.147615,-4.37575,19,0.0120397,10,-0.000645926,-2.35895,-0.156846,-0.376164,64.3098,0.147615,
2,0,0,1,0,36649.4,0.145923,0.145572,-4.50997,19,0.0119507,10,-0.000656527,-2.34583,-0.14233,-0.414529,73.1427,0.1455723,
2,0,0,1,0,36649.4,0.143926,0.143595,-4.66981,19,0.0118588,10,-0.00067056,-2.3307,-0.126836,-0.465167,84.9052,0.143595,
2,0,0,1,0,36649.4,0.141928,0.141591,-4.84797,19,0.0117636,10,-0.000686431,-2.31444,-0.117679,-0.501362,95.0132,0.141591,
2,0,0,1,0,36649.5,0.13993,0.139626,-5.04686,19,0.0116651,10,-0.000704674,-2.29698,-0.111927,-0.52713,103.94,0.139626,
2,0,0,1,0,36649.5,0.137933,0.137603,-5.26256,19,0.011562,10,-0.000724142,-2.2788,-0.108695,-0.542806,111.585,0.137603,
2,0,0,1,0,36649.5,0.135935,0.135616,-5.49432,19,0.0114543,10,-0.000745119,-2.26009,-0.106176,-0.55568,119.187,0.135616,
2,0,0,1,0,36649.5,0.133938,0.133629,-5.73611,19,0.0113419,10,-0.000766514,-2.24138,-0.102967,-0.572998,128.516,0.133629,
2,0,0,1,0,36649.5,0.13194,0.131624,-6.00734,19,0.011225,10,-0.000790712,-2.22132,-0.100839,-0.585089,137.132,0.131624,
2,0,0,1,0,36649.6,0.129942,0.129639,-6.28334,19,0.011102,10,-0.000814565,-2.20181,-0.105745,-0.557948,136.742,0.129639,
2,0,0,1,0,36649.6,0.127945,0.12758,-6.56038,19,0.0109735,10,-0.000836973,-2.18307,-0.111405,-0.529599,135.42,0.12758,
2,0,0,1,0,36649.6,0.125947,0.125616,-6.82811,19,0.0108395,10,-0.000857721,-2.1657,-0.114712,-0.514331,137.085,0.1256161,
2,0,0,1,0,36649.6,0.12395,0.123602,-7.10569,19,0.0107009,10,-0.000878278,-2.14839,-0.119882,-0.49215,136.274,0.123602,
2,0,0,1,0,36649.6,0.121952,0.121649,-7.3687,19,0.010556,10,-0.000896397,-2.13261,-0.132654,-0.444765,127.69,0.121649,
2,0,0,1,0,36649.7,0.119955,0.11963,-7.61286,19,0.010406,10,-0.000910728,-2.11845,-0.142453,-0.414173,123.044,0.11963,
2,0,0,1,0,36649.7,0.117957,0.117647,-7.86116,19,0.0102511,10,-0.000924841,-2.10451,-0.149946,-0.393475,120.578,0.117647,
2,0,0,1,0,36649.7,0.115955,0.11562,-8.09639,19,0.0100914,10,-0.000936106,-2.09171,-0.166555,-0.354238,111.731,0.11562,
2,0,0,1,0,36649.7,0.113962,0.113659,-8.30676,19,0.00992801,10,-0.000944135,-2.08057,-0.186392,-0.316537,102.548,0.113659,
2,0,0,1,0,36649.7,0.111964,0.111594,-8.50926,19,0.0097597,10,-0.000949583,-2.07011,-0.199231,-0.296139,98.2622,0.111594,
2,0,0,1,0,36649.8,0.109967,0.109652,-8.7005,19,0.00958744,10,-0.000954024,-2.06046,-0.215307,-0.274027,92.9272,0.109652,
2,0,0,1,0,36649.8,0.107969,0.107691,-8.87191,19,0.00941159,10,-0.000955429,-2.05198,-0.247451,-0.238431,82.4969,0.107691,
2,0,0,1,0,36649.8,0.105971,0.105623,-9.03287,19,0.00923333,10,-0.000954077,-2.04417,-0.280965,-0.209991,73.9247,0.105623,
2,0,0,1,0,36649.8,0.103974,0.103652,-9.17053,19,0.00905117,10,-0.000950544,-2.03761,-0.320144,-0.184292,65.9021,0.103652,
2,0,0,1,0,36649.8,0.101976,0.10166,-9.294,19,0.00886641,10,-0.000944832,-2.0318,-0.396332,-0.148865,53.8998,0.10166,
2,0,0,1,0,36649.9,0.0999786,0.0996675,-9.38529,19,0.00867958,10,-0.000935409,-2.02755,-0.489725,-0.120476,44.1107,0.0996675,
2,0,0,1,0,36649.9,0.0979811,0.0976723,-9.46992,19,0.0084918,10,-0.000924949,-2.02365,-0.602366,-0.0979471,36.1518,0.0976723,
2,0,0,1,0,36649.9,0.0959835,0.0956652,-9.52998,19,0.00830168,10,-0.000911688,-2.02091,-0.93718,-0.0629548,23.3812,0.0956652,
2,0,0,1,0,36649.9,0.0939859,0.0936868,-9.56311,19,0.00811068,10,-0.000895937,-2.0194,-1.90954,-0.0308975,11.5194,0.0936868,
2,0,0,1,0,36649.9,0.0919883,0.0916477,-9.57626,19,0.0079192,10,-0.000877643,-2.0188,-4.32603,-0.0136384,5.09559,0.0916477,
2,0,0,1,0,36650,0.0899907,0.0896241,-9.58381,19,0.00772842,10,-0.00085894,-2.01846,3.3974,0.0173662,-6.48148,0.0896241,
2,0,0,1,0,36650,0.0879931,0.0876355,-9.55026,19,0.00753701,10,-0.000836942,-2.01998,1.23354,0.04783,-17.8241,0.0876355,
2,0,0,1,0,36650,0.0859955,0.0856899,-9.51369,19,0.00734631,10,-0.000815227,-2.02165,0.903253,0.0653194,-24.2226,0.0856899,
2,0,0,1,0,36650,0.083998,0.0836563,-9.45387,19,0.00715659,10,-0.000790875,-2.02439,0.735411,0.0802273,-29.6013,0.0836563,
2,0,0,1,0,36650,0.0820004,0.08168,-9.39499,19,0.00696894,10,-0.000767383,-2.0271,0.665025,0.0887185,-32.5087,0.08168,
2,0,0,1,0,36650.1,0.0800028,0.0796775,-9.32452,19,0.00678175,10,-0.000742955,-2.03037,0.596874,0.0988483,-35.9661,0.0796775,
2,0,0,1,0,36650.1,0.0780052,0.0776924,-9.25157,19,0.006596,10,-0.000718777,-2.03378,0.569344,0.103628,-37.4048,0.0776924,
2,0,0,1,0,36650.1,0.0760076,0.0756401,-9.17351,19,0.00641179,10,-0.000693885,-2.03746,0.562961,0.104803,-37.5323,0.07564012,
2,0,0,1,0,36650.1,0.07401,0.0736931,-9.10147,19,0.00623004,10,-0.000670715,-2.04089,0.563834,0.104641,-37.1623,0.0736931,
2,0,0,1,0,36650.1,0.0720124,0.0716907,-9.02674,19,0.00604871,10,-0.000647133,-2.04447,0.59093,0.0998426,-35.1875,0.0716907,
2,0,0,1,0,36650.2,0.0700148,0.0696666,-8.95978,19,0.00586877,10,-0.000624197,-2.0477,0.60757,0.0971082,-33.9535,0.0696666,
2,0,0,1,0,36650.2,0.0680173,0.0677179,-8.89185,19,0.00569022,10,-0.000602138,-2.05101,0.720205,0.0819211,-28.465,0.0677179,
2,0,0,1,0,36650.2,0.0660106,0.0657068,-8.84707,19,0.00551287,10,-0.000581313,-2.0532,0.802523,0.0735181,-25.365,0.0657068,
2,0,0,1,0,36650.2,0.0640221,0.0636765,-8.78934,19,0.00533735,10,-0.000559675,-2.05604,0.718906,0.0820692,-28.1551,0.0636765,
2,0,0,1,0,36650.2,0.0620245,0.0616973,-8.73418,19,0.00516213,10,-0.000538875,-2.05878,0.736927,0.0800622,-27.293,0.0616973,
2,0,0,1,0,36650.3,0.0600269,0.0596976,-8.68074,19,0.00498798,10,-0.00051822,-2.06144,0.77606,0.0760251,-25.7615,0.0596976,
2,0,0,1,0,36650.3,0.0580361,0.0577019,-8.63125,19,0.00481567,10,-0.000498039,-2.06393,0.784932,0.0751658,-25.3155,0.0577019,
2,0,0,1,0,36650.3,0.0560317,0.0556838,-8.57913,19,0.00464344,10,-0.000477719,-2.06656,0.824518,0.0715569,-23.9689,0.0556838,
2,0,0,1,0,36650.3,0.0540342,0.0536744,-8.53472,19,0.00447228,10,-0.000458096,-2.06881,0.794194,0.0742891,-24.7312,0.0536744,
2,0,0,1,0,36650.3,0.0520366,0.0517306,-8.48136,19,0.00430206,10,-0.000438746,-2.07153,0.73472,0.0803027,-26.5819,0.0517306,
2,0,0,1,0,36650.4,0.050039,0.0497069,-8.42925,19,0.00413289,10,-0.000418992,-2.07421,0.772296,0.0763956,-25.1363,0.0497069,
2,0,0,1,0,36650.4,0.0480414,0.0477175,-8.38049,19,0.00396556,10,-0.000399896,-2.07673,0.792465,0.0744513,-24.3502,0.0477175,
2,0,0,1,0,36650.4,0.0460438,0.0457058,-8.33182,19,0.00379841,10,-0.000380813,-2.07926,0.691537,0.0853171,-27.7203,0.0457058,
2,0,0,1,0,36650.4,0.0440462,0.0437411,-8.27026,19,0.00363236,10,-0.00036175,-2.08248,0.629054,0.0937916,-30.2792,0.0437411,
2,0,0,1,0,36650.4,0.0420486,0.0417709,-8.21268,19,0.00346752,10,-0.000343051,-2.08552,0.73305,0.0804857,-25.8134,0.0417709,
2,0,0,1,0,36650.5,0.0400511,0.0396947,-8.16581,19,0.00330445,10,-0.000324139,-2.088,0.717596,0.082219,-26.1803,0.0396947,
2,0,0,1,0,36650.5,0.0380535,0.0376819,-8.10563,19,0.00314168,10,-0.000305435,-2.09121,0.567714,0.103926,-32.8544,0.0376819,
2,0,0,1,0,36650.5,0.0360559,0.0357241,-8.03536,19,0.00298027,10,-0.000287056,-2.09499,0.559897,0.105376,-33.0638,0.0357241,
2,0,0,1,0,36650.5,0.0340583,0.0337117,-7.97436,19,0.00282014,10,-0.000268829,-2.0983,0.597107,0.0988097,-30.7485,0.0337117,
2,0,0,1,0,36650.5,0.0320607,0.0317239,-7.91236,19,0.00266198,10,-0.000251011,-2.10169,0.534802,0.110321,-34.0387,0.0317239,
2,0,0,1,0,36650.6,0.0300631,0.0296999,-7.8378,19,0.00250445,10,-0.000232782,-2.10581,0.492859,0.11971,-36.6216,0.0296999,
2,0,0,1,0,36650.6,0.0280655,0.0277135,-7.76549,19,0.00234835,10,-0.000215209,-2.10983,0.49035,0.120322,-36.4629,0.0277135,
2,0,0,1,0,36650.6,0.0260679,0.0257202,-7.69269,19,0.00219369,10,-0.000197857,-2.11392,0.478796,0.123226,-36.989,0.0257202,
2,0,0,1,0,36650.6,0.0240704,0.0237225,-7.61787,19,0.00204131,10,-0.000180715,-2.11817,0.454831,0.129718,-38.555,0.0237225,
2,0,0,1,0,36650.6,0.0220728,0.0217453,-7.53944,19,0.0018897,10,-0.000163947,-2.12266,0.428171,0.137796,-40.5302,0.0217453,
2,0,0,1,0,36650.7,0.0200752,0.0197307,-7.45608,19,0.0017397,10,-0.000147113,-2.12749,0.39454,0.149541,-43.4925,0.0197307,
2,0,0,1,0,36650.7,0.0180776,0.0177534,-7.36582,19,0.00159139,10,-0.000130768,-2.13278,0.427528,0.138003,-39.7277,0.0177534,
2,0,0,1,0,36650.7,0.01608,0.0157317,-7.29721,19,0.00144543,10,-0.000114797,-2.13684,0.473899,0.124499,-35.439,0.0157317,
2,0,0,1,0,36650.7,0.0140824,0.0137005,-7.22219,19,0.00130019,10,-9.89479e-05,-2.14133,0.425263,0.138738,-39.0876,0.0137005,
2,0,0,1,0,36650.7,0.0120848,0.011747,-7.14146,19,0.00115651,10,-8.38906e-05,-2.14621,0.411722,0.143301,-39.954,0.01174699,
2,0,0,1,0,36650.8,0.0100872,0.00980589,-7.06658,19,0.00101448,10,-6.92942e-05,-2.15079,0.456291,0.129304,-35.6747,0.00980589,
2,0,0,1,0,36650.8,0.00809193,0.00772388,-6.99793,19,0.000874566,10,-5.40512e-05,-2.15503,0.483654,0.121988,-33.3195,0.00772388,
2,0,0,1,0,36650.8,0.00609208,0.00574401,-6.93124,19,0.000735208,10,-3.98131e-05,-2.15919,0.467263,0.126267,-34.1511,0.00574401,
2,0,0,1,0,36650.8,0.00409449,0.00377411,-6.86304,19,0.00059727,10,-2.59019e-05,-2.16348,0.82508,0.0715083,-19.2343,0.00377411,
2,0,0,1,0,36650.8,0.0020969,0.00168795,-6.85323,19,0.000460424,10,-1.15679e-05,-2.1641,0.77784,0.0758511,-20.1941,0.00168795,
2,0,0,1,0,36650.9,9.14991e-05,-0.000301031,-6.78075,19,0.000324207,10,2.04121e-06,-2.16872,0.483822,0.121946,-32.3073,-0.000301031,
2,0,0,1,0,36650.9,-0.00189827,-0.00231041,-6.72405,19,0.000189797,10,1.55353e-05,-2.17237,0.598327,0.0986083,-25.8958,-0.00231041,
2,0,0,1,0,36650.9,-0.00389586,-0.00428636,-6.67755,19,5.57472e-05,10,2.86224e-05,-2.17538,0.741347,0.0795848,-20.7571,-0.00428636,
2,0,0,1,0,36650.9,-0.00589345,-0.0062565,-6.64214,19,-7.74534e-05,10,4.15566e-05,-2.17769,0.788383,0.0748367,-19.3887,-0.0062565,
2,0,0,1,0,36650.9,-0.00789103,-0.00830383,-6.59965,19,-0.000209913,10,5.48024e-05,-2.18048,1.11633,0.052852,-13.6438,-0.00830383,
2,0,0,1,0,36651,-0.00988862,-0.0102755,-6.58731,19,-0.000341213,10,6.76876e-05,-2.18129,1.73725,0.0339618,-8.7243,-0.0102755,
2,0,0,1,0,36651,-0.0118862,-0.0122835,-6.56493,19,-0.000472765,10,8.06406e-05,-2.18277,1.28273,0.0459958,-11.783,-0.0122835,
2,0,0,1,0,36651,-0.0138838,-0.0142122,-6.54092,19,-0.000603894,10,9.2961e-05,-2.18436,2.09204,0.0282022,-7.20986,-0.01421222,
2,0,0,1,0,36651,-0.0158814,-0.0162593,-6.53627,19,-0.000734714,10,0.000106275,-2.18467,-26.0967,-0.00226082,0.577226,-0.0162593,
2,0,0,1,0,36651,-0.017879,-0.0182035,-6.54323,19,-0.000864867,10,0.00011911,-2.18421,-5827.41,-1.01246e-05,0.00258268,-0.0182035,
2,0,0,1,0,36651.1,-0.0198766,-0.0202417,-6.53628,19,-0.000995668,10,0.000132305,-2.18467,37.4744,0.00157441,-0.401994,-0.0202417,
2,0,0,1,0,36651.1,-0.0218741,-0.0222459,-6.5416,19,-0.00112641,10,0.000145524,-2.18432,-4.60479,-0.0128128,3.2717,-0.0222459,
2,0,0,1,0,36651.1,-0.0238717,-0.0242629,-6.54943,19,-0.0012573,10,0.000158908,-2.1838,-1.80098,-0.0327599,8.38498,-0.0242629,
2,0,0,1,0,36651.1,-0.0258693,-0.0262455,-6.57514,19,-0.00138789,10,0.000172568,-2.1821,-1.6351,-0.0360835,9.24893,-0.0262455,
2,0,0,1,0,36651.1,-0.0278669,-0.0282353,-6.58618,19,-0.00151939,10,0.000185963,-2.18137,-1.87875,-0.0314038,8.07835,-0.0282353,
2,0,0,1,0,36651.2,-0.0298645,-0.0302707,-6.60766,19,-0.00165125,10,0.000200019,-2.17995,-1.50275,-0.0392612,10.1226,-0.0302707,
2,0,0,1,0,36651.2,-0.0318621,-0.0322302,-6.62661,19,-0.00178358,10,0.000213577,-2.17871,-1.15703,-0.0509925,13.2018,-0.0322302,
2,0,0,1,0,36651.2,-0.0338597,-0.0342352,-6.65999,19,-0.00191575,10,0.000228006,-2.17653,-1.01145,-0.0583319,15.1545,-0.0342352,
2,0,0,1,0,36651.2,-0.0358573,-0.0362302,-6.68723,19,-0.00204919,10,0.00024228,-2.17475,-0.957832,-0.0615974,16.0879,-0.0362302,
2,0,0,1,0,36651.2,-0.0378548,-0.0382514,-6.72461,19,-0.00218334,10,0.000257226,-2.17233,-0.953873,-0.0618531,16.22,-0.0382514,
2,0,0,1,0,36651.3,-0.0398524,-0.040195,-6.75154,19,-0.00231812,10,0.000271378,-2.1706,-0.81101,-0.0727488,19.1998,-0.040195,
2,0,0,1,0,36651.3,-0.04185,-0.042206,-6.80053,19,-0.00245295,10,0.000287023,-2.16746,-0.691332,-0.0853425,22.6373,-0.042206,
2,0,0,1,0,36651.3,-0.0438476,-0.0441906,-6.84199,19,-0.00258934,10,0.000302352,-2.16482,-0.834575,-0.0706947,18.867,-0.0441906,
2,0,0,1,0,36651.3,-0.0458452,-0.046223,-6.87632,19,-0.00272656,10,0.000317844,-2.16264,-0.751169,-0.0785443,21.1031,-0.04622297,
2,0,0,1,0,36651.3,-0.0478428,-0.0482211,-6.92705,19,-0.00286457,10,0.000334029,-2.15945,-0.58613,-0.10066,27.228,-0.0482211,
2,0,0,1,0,36651.4,-0.0498495,-0.0502482,-6.98592,19,-0.00300361,10,0.00035103,-2.15578,-0.628348,-0.093897,25.5705,-0.0502482,
2,0,0,1,0,36651.4,-0.051838,-0.0522067,-7.02896,19,-0.00314306,10,0.000366959,-2.15311,-0.663209,-0.0889614,24.4222,-0.0522067,
2,0,0,1,0,36651.4,-0.0538356,-0.0542163,-7.08283,19,-0.00328415,10,0.000384005,-2.14979,-0.606855,-0.0972225,26.8749,-0.05421631,
2,0,0,1,0,36651.4,-0.0558331,-0.0562375,-7.13729,19,-0.00342634,10,0.000401383,-2.14647,-0.562472,-0.104894,29.2339,-0.0562375,
2,0,0,1,0,36651.4,-0.0578216,-0.058222,-7.19993,19,-0.00356895,10,0.000419194,-2.14267,-0.562623,-0.104866,29.4489,-0.058222,
2,0,0,1,0,36651.5,-0.0598283,-0.0602135,-7.25438,19,-0.00371353,10,0.000436812,-2.1394,-0.544725,-0.108311,30.6937,-0.0602135,
2,0,0,1,0,36651.5,-0.0618259,-0.0622281,-7.3229,19,-0.00385932,10,0.00045569,-2.13532,-0.524579,-0.112471,32.1256,-0.0622281,
2,0,0,1,0,36651.5,-0.0638235,-0.0642423,-7.3838,19,-0.00400641,10,0.000474352,-2.13172,-0.510933,-0.115475,33.2985,-0.0642423,
2,0,0,1,0,36651.5,-0.0658211,-0.0661974,-7.45507,19,-0.00415481,10,0.000493506,-2.12755,-0.458092,-0.128795,37.4828,-0.0661974,
2,0,0,1,0,36651.5,-0.0678187,-0.0681654,-7.53085,19,-0.00430396,10,0.000513344,-2.12316,-0.462411,-0.127592,37.492,-0.0681654,
2,0,0,1,0,36651.6,-0.0698162,-0.0701675,-7.60391,19,-0.00445529,10,0.000533548,-2.11896,-0.478606,-0.123275,36.5813,-0.0701675,
2,0,0,1,0,36651.6,-0.0718138,-0.0721576,-7.67689,19,-0.00460813,10,0.000553946,-2.11481,-0.453126,-0.130207,39.0369,-0.0721576,
2,0,0,1,0,36651.6,-0.0738114,-0.0741862,-7.76079,19,-0.00476249,10,0.000575744,-2.11009,-0.409367,-0.144125,43.6732,-0.0741862,
2,0,0,1,0,36651.6,-0.075809,-0.076184,-7.85274,19,-0.00491788,10,0.000598253,-2.10498,-0.418342,-0.141033,43.1941,-0.076184,
2,0,0,1,0,36651.6,-0.0778066,-0.0782233,-7.93517,19,-0.00507576,10,0.000620715,-2.10044,-0.431768,-0.136648,42.3326,-0.0782233,
2,0,0,1,0,36651.7,-0.0798042,-0.0802253,-8.02382,19,-0.00523528,10,0.000643713,-2.09562,-0.393583,-0.149905,46.964,-0.0802253,
2,0,0,1,0,36651.7,-0.0818018,-0.0821752,-8.12077,19,-0.0053967,10,0.000667326,-2.0904,-0.380596,-0.15502,49.1288,-0.0821752,
2,0,0,1,0,36651.7,-0.0837994,-0.0841784,-8.21803,19,-0.00555925,10,0.000691781,-2.08523,-0.390567,-0.151062,48.442,-0.0841784,
2,0,0,1,0,36651.7,-0.085797,-0.0861548,-8.31355,19,-0.00572448,10,0.000716252,-2.08021,-0.39198,-0.150518,48.8481,-0.0861548,
2,0,0,1,0,36651.7,-0.0877945,-0.0881909,-8.41403,19,-0.0058917,10,0.000742041,-2.075,-0.38159,-0.154616,50.7761,-0.0881909,
2,0,0,1,0,36651.8,-0.0897921,-0.0901569,-8.51676,19,-0.00606091,10,0.000767845,-2.06973,-0.381253,-0.154753,51.4392,-0.0901569,
2,0,0,1,0,36651.8,-0.0917897,-0.0922152,-8.62104,19,-0.00623131,10,0.00079499,-2.06444,-0.392169,-0.150445,50.6042,-0.0922152,
2,0,0,1,0,36651.8,-0.0937873,-0.0942037,-8.72154,19,-0.00640469,10,0.000821602,-2.05941,-0.395802,-0.149064,50.7351,-0.0942037,
2,0,0,1,0,36651.8,-0.0957849,-0.0961749,-8.82194,19,-0.00658007,10,0.000848449,-2.05444,-0.415586,-0.141968,48.859,-0.09617494,
2,0,0,1,0,36651.8,-0.0977825,-0.0981835,-8.91599,19,-0.00675741,10,0.000875403,-2.04983,-0.390233,-0.151192,52.6647,-0.0981835,
2,0,0,1,0,36651.9,-0.0997501,-0.10012,-9.02968,19,-0.00693318,10,0.000904048,-2.04433,0.00925915,6.37207,-1988.47,-0.10012,
2,0,0,1,1,36651.9,-0.0987313,-0.0990758,-7.14164,19,-0.00705633,10,0.000707564,-2.1462,-0.013248,-4.4535,1217.88,-0.0990758,
2,0,0,1,1,36651.9,-0.0967337,-0.0970668,-5.3118,19,-0.0071793,10,0.000515599,-2.27476,-0.0153081,-3.85417,808.891,-0.0970668,
2,0,0,1,1,36651.9,-0.0947362,-0.0951069,-3.93127,19,-0.00727088,10,0.000373891,-2.40547,-0.0144157,-4.09275,628.344,-0.0951069,
2,0,0,1,1,36651.9,-0.0927386,-0.0930975,-2.81771,19,-0.00733769,10,0.000262322,-2.5501,-0.0124839,-4.72609,513.074,-0.0930975,
2,0,0,1,1,36652,-0.090741,-0.0911121,-1.88164,19,-0.00738392,10,0.00017144,-2.72546,-0.00962903,-6.1273,434.277,-0.0911121,
2,0,0,1,1,36652,-0.0887434,-0.0891092,-1.08567,19,-0.0074132,10,9.67427e-05,-2.9643,-0.00600824,-9.81985,367.107,-0.0891092,
2,0,0,1,1,36652,-0.0867458,-0.0870793,-0.401163,19,-0.00742768,10,3.4933e-05,-3.39668,-0.0054212,-10.8832,321.596,-0.0870793,
2,1,0,1,1,36652,-0.0847482,-0.0851145,0.198995,19,-0.0074293,10,-1.69373e-05,-3.70116,0.0154184,3.82659,283.575,-0.0851145,
2,1,0,1,1,36652,-0.0827529,-0.0831027,0.726493,19,-0.00741982,10,-6.03736e-05,-3.13877,0.00510226,11.5635,250.705,-0.0831027,
2,1,0,1,1,36652.1,-0.080753,-0.0811428,1.19473,19,-0.00740026,10,-9.69436e-05,-2.92273,0.0116194,5.0777,219.849,-0.0811428,
2,1,0,1,1,36652.1,-0.0787555,-0.079094,1.60782,19,-0.00737194,10,-0.000127169,-2.79376,0.0182893,3.22593,195.72,-0.079094,
2,1,0,1,1,36652.1,-0.0767579,-0.0771288,1.98034,19,-0.00733581,10,-0.000152742,-2.70326,0.0251414,2.34673,177.721,-0.0771288,
2,1,0,1,1,36652.1,-0.0747603,-0.0751082,2.31618,19,-0.00729259,10,-0.000173964,-2.63523,0.0326015,1.80973,161.637,-0.0751082,
2,1,0,1,1,36652.1,-0.0727627,-0.0731269,2.62721,19,-0.00724312,10,-0.000192119,-2.58051,0.0414912,1.42199,143.868,-0.0731269,
2,1,0,1,1,36652.2,-0.0707651,-0.071121,2.8898,19,-0.00718771,10,-0.000205525,-2.53913,0.0521983,1.1303,126.721,-0.071121,
2,1,0,1,1,36652.2,-0.0687675,-0.0691351,3.13304,19,-0.00712725,10,-0.000216603,-2.50403,0.0609116,0.968618,117.921,-0.0691351,
2,1,0,1,1,36652.2,-0.0667699,-0.067126,3.3609,19,-0.00706208,10,-0.000225603,-2.47354,0.0704223,0.837803,109.319,-0.067126,
2,1,0,1,1,36652.2,-0.0647723,-0.0652018,3.56303,19,-0.0069929,10,-0.000232316,-2.44818,0.0839215,0.703038,97.4184,-0.0652018,
2,1,0,1,1,36652.2,-0.0627748,-0.0631599,3.74726,19,-0.00691967,10,-0.000236677,-2.42629,0.0995717,0.592538,86.3817,-0.0631599,
2,1,0,1,1,36652.3,-0.0607772,-0.0611467,3.91332,19,-0.00684287,10,-0.000239287,-2.40745,0.114555,0.515035,78.4232,-0.0611467,
2,1,0,1,1,36652.3,-0.0587796,-0.0591702,4.06015,19,-0.00676295,10,-0.00024024,-2.39146,0.130553,0.451923,71.5064,-0.0591702,
2,1,0,1,1,36652.3,-0.056782,-0.0571566,4.19864,19,-0.00668061,10,-0.00023998,-2.37689,0.149338,0.395076,64.577,-0.0571566,
2,1,0,1,1,36652.3,-0.0547844,-0.0551611,4.31904,19,-0.00659529,10,-0.000238243,-2.36461,0.174057,0.338969,57.0456,-0.05516113,
2,1,0,1,1,36652.3,-0.0527868,-0.05314,4.42777,19,-0.00650765,10,-0.000235292,-2.35381,0.203606,0.289775,49.9678,-0.05314,
2,1,0,1,1,36652.4,-0.0507892,-0.0511536,4.51929,19,-0.00641804,10,-0.000231178,-2.34493,0.212595,0.277523,49.0054,-0.0511536,
2,1,0,1,1,36652.4,-0.0487916,-0.0491589,4.62286,19,-0.00632691,10,-0.000227255,-2.33509,0.233869,0.252278,45.3845,-0.0491589,
2,1,0,1,1,36652.4,-0.0467941,-0.047147,4.70113,19,-0.00623352,10,-0.000221644,-2.3278,0.304022,0.194065,35.5467,-0.047147,
2,1,0,1,1,36652.4,-0.0447965,-0.0451693,4.76468,19,-0.00613868,10,-0.000215217,-2.32197,0.335241,0.175993,32.7327,-0.04516926,
2,1,0,1,1,36652.4,-0.0427989,-0.0431859,4.83078,19,-0.00604255,10,-0.000208622,-2.31598,0.340278,0.173388,32.6793,-0.0431859,
2,1,0,1,1,36652.5,-0.0408013,-0.0411921,4.89465,19,-0.00594561,10,-0.000201621,-2.31028,0.412862,0.142905,27.2442,-0.0411921,
2,1,0,1,1,36652.5,-0.0388037,-0.0391925,4.93958,19,-0.00584709,10,-0.000193595,-2.30631,0.497597,0.11857,22.8612,-0.0391925,
2,1,0,1,1,36652.5,-0.0368061,-0.037178,4.98642,19,-0.00574771,10,-0.000185385,-2.30221,0.548134,0.107638,20.9264,-0.037178,
2,1,0,1,1,36652.5,-0.0348085,-0.0351697,5.02377,19,-0.00564745,10,-0.000176684,-2.29897,0.626841,0.0941228,18.4527,-0.0351697,
2,1,0,1,1,36652.5,-0.0328109,-0.0331551,5.06065,19,-0.00554696,10,-0.000167786,-2.29579,0.780371,0.0756051,14.9105,-0.0331551,
2,1,0,1,1,36652.6,-0.0308134,-0.0311965,5.08301,19,-0.00544538,10,-0.000158572,-2.29388,0.862755,0.0683856,13.5776,-0.0311965,
2,1,0,1,1,36652.6,-0.0288158,-0.0292079,5.11425,19,-0.00534327,10,-0.000149376,-2.29122,1.02537,0.0575403,11.4665,-0.0292079,
2,1,0,1,1,36652.6,-0.0268182,-0.0271504,5.1294,19,-0.00524072,10,-0.000139265,-2.28993,1.29026,0.0457271,9.15962,-0.0271504,
2,1,0,1,1,36652.6,-0.0248138,-0.0251892,5.15106,19,-0.00513787,10,-0.000129751,-2.2881,1.24811,0.0472716,9.49796,-0.0251892,
2,1,0,1,1,36652.6,-0.022823,-0.0231608,5.1673,19,-0.00503506,10,-0.000119679,-2.28674,1.90684,0.0309413,6.23513,-0.0231608,
2,1,0,1,1,36652.7,-0.0208254,-0.0211977,5.17594,19,-0.00493149,10,-0.000109718,-2.28601,3.84503,0.0153445,3.09813,-0.0211977,
2,1,0,1,1,36652.7,-0.0188278,-0.019162,5.17968,19,-0.00482785,10,-9.92532e-05,-2.2857,4.18179,0.0141088,2.85314,-0.019162,
2,1,0,1,1,36652.7,-0.0168393,-0.0171911,5.18737,19,-0.00472457,10,-8.91769e-05,-2.28505,3.93335,0.0149999,3.03575,-0.0171911,
2,1,0,1,1,36652.7,-0.0148326,-0.0151549,5.19185,19,-0.00462054,10,-7.86818e-05,-2.28468,6.09277,0.00968361,1.9619,-0.0151549,
2,1,0,1,1,36652.7,-0.0128351,-0.0131902,5.19522,19,-0.00451652,10,-6.8526e-05,-2.2844,7.62043,0.00774234,1.56971,-0.0131902,
2,1,0,1,1,36652.8,-0.0108375,-0.0111721,5.1981,19,-0.00441251,10,-5.80739e-05,-2.28416,31.0313,0.00190131,0.385554,-0.0111721,
2,1,0,1,1,36652.8,-0.00883989,-0.00917794,5.19677,19,-0.00430841,10,-4.76957e-05,-2.28427,-18.3294,-0.00321887,-0.652835,-0.00917794,
2,1,0,1,1,36652.8,-0.0068423,-0.00720216,5.19551,19,-0.00420478,10,-3.74189e-05,-2.28437,-347.832,-0.000169622,-0.0344012,-0.007202155,
2,1,0,1,1,36652.8,-0.00484471,-0.00522828,5.19664,19,-0.00410069,10,-2.71694e-05,-2.28428,12.1405,0.00485975,0.98576,-0.00522828,
2,1,0,1,1,36652.8,-0.00284713,-0.0031905,5.19946,19,-0.00399658,10,-1.65889e-05,-2.28404,-17.7122,-0.00333103,-0.675384,-0.0031905,
2,1,0,1,1,36652.9,-0.000849538,-0.00119546,5.19391,19,-0.00389249,10,-6.2091e-06,-2.28451, , , ,-0.00119546,
2,1,0,1,1,36652.9,-2.55332e-05,-0.000439847,5.20893,19,-0.00385038,10,-2.29113e-06,-2.28325, , , ,-0.000439847,