File: Figure_codes/Fig_3-5/rawdata_trumpetplot_data/after 10th/20221101_1-115_003_TrumpetPlot_ParaChange_from10_every3_02_CV_C01_23.csv
mode,ox/red,error,control changes,counter inc.,time/s,control/V,Ewe/V,<I>/mA,cycle number,(Q-Qo)/C,I Range,P/W,log(|I|),Tafel slope mV/dec,alpha_eff,dI/d(E-IR),E-IR/V,
2,0,0,1,0,45653,2.44065e-05,-0.000344411,-0.394513,24,0.0000000E+000,10,1.35875e-07,-3.40394, , , ,-0.000344411,
2,0,0,1,0,45654.3,0.00129791,0.000876196,-0.180529,24,-0.000268048,10,-1.58179e-07,-3.74345, , , ,0.000876196,
2,0,0,1,0,45655.8,0.00279612,0.00247739,-0.145299,24,-0.000492056,10,-3.59963e-07,-3.83774,-0.0174436,-3.38234,20.6309,0.00247739,
2,0,0,1,0,45657.3,0.00429431,0.0039874,-0.124747,24,-0.000677641,10,-4.97416e-07,-3.90397,-0.0249527,-2.36447,11.7238,0.0039874,
2,0,0,1,0,45658.8,0.00579242,0.00544644,-0.109453,24,-0.000836849,10,-5.96129e-07,-3.96077,-0.0272879,-2.16213,9.36091,0.00544644,
2,0,0,1,0,45660.3,0.00729061,0.0069766,-0.0969409,24,-0.000975438,10,-6.76318e-07,-4.01349,-0.0305704,-1.92997,7.42342,0.0069766,
2,0,0,1,0,45661.8,0.00878882,0.00844527,-0.0872473,24,-0.00109758,10,-7.36827e-07,-4.05925,-0.0341039,-1.73001,5.98342,0.00844527,
2,0,0,1,0,45663.3,0.010287,0.00995001,-0.0790677,24,-0.00120658,10,-7.86724e-07,-4.102,-0.0355744,-1.6585,5.17447,0.00995001,
2,0,0,1,0,45664.8,0.0117852,0.0114462,-0.0731447,24,-0.00130463,10,-8.3723e-07,-4.13582,-0.0376717,-1.56616,4.42357,0.0114462,
2,0,0,1,0,45666.3,0.0132834,0.0129436,-0.0661868,24,-0.00139318,10,-8.56695e-07,-4.17923,-0.037529,-1.57212,4.01919,0.0129436,
2,0,0,1,0,45667.8,0.0147815,0.0144365,-0.0602486,24,-0.00147232,10,-8.69781e-07,-4.22005,-0.0388535,-1.51852,3.57325,0.01443653,
2,0,0,1,0,45669.3,0.0162797,0.0159826,-0.0552474,24,-0.00154346,10,-8.82997e-07,-4.25769,-0.0442301,-1.33393,2.88657,0.0159826,
2,0,0,1,0,45670.8,0.0177779,0.0174629,-0.0508005,24,-0.00160791,10,-8.87126e-07,-4.29413,-0.0409266,-1.4416,2.85511,0.01746293,
2,0,0,1,0,45672.3,0.0192761,0.0189125,-0.0469693,24,-0.00166646,10,-8.88308e-07,-4.32819,-0.0417932,-1.41171,2.57519,0.0189125,
2,0,0,1,0,45673.8,0.0207743,0.0204258,-0.0426757,24,-0.00171858,10,-8.71684e-07,-4.36982,-0.0369139,-1.59831,2.70385,0.0204258,
2,0,0,1,0,45675.3,0.0222725,0.0219368,-0.039265,24,-0.00176498,10,-8.6135e-07,-4.40599,-0.0383292,-1.5393,2.37679,0.0219368,
2,0,0,1,0,45676.8,0.0237707,0.0234405,-0.0355838,24,-0.0018062,10,-8.34102e-07,-4.44875,-0.0374254,-1.57647,2.19164,0.0234405,
2,0,0,1,0,45678.3,0.0252689,0.0249103,-0.0327756,24,-0.00184287,10,-8.16447e-07,-4.48445,-0.03421,-1.72464,2.17857,0.0249103,
2,0,0,1,0,45679.8,0.0267671,0.026415,-0.0297083,24,-0.00187415,10,-7.84744e-07,-4.52712,-0.0289756,-2.0362,2.34322,0.026415,
2,0,0,1,0,45681.3,0.0282653,0.0279526,-0.0261022,24,-0.0019008,10,-7.29623e-07,-4.58332,-0.0316714,-1.86288,1.89735,0.0279526,
2,0,0,1,0,45682.8,0.0297635,0.0294202,-0.0239279,24,-0.00192276,10,-7.03963e-07,-4.6211,-0.0290835,-2.02864,1.86461,0.0294202,
2,0,0,1,0,45684.3,0.0312617,0.0309493,-0.0212032,24,-0.0019411,10,-6.56225e-07,-4.6736,-0.0272786,-2.16287,1.73783,0.0309493,
2,0,0,1,0,45685.8,0.0327599,0.0323904,-0.0176422,24,-0.00195521,10,-5.71436e-07,-4.75345,-0.0222636,-2.65006,1.85673,0.0323904,
2,0,0,1,0,45687.3,0.0342581,0.033963,-0.0150786,24,-0.00196492,10,-5.12113e-07,-4.82164,-0.020537,-2.87286,1.73619,0.033963,
2,0,0,1,0,45688.8,0.0357563,0.0354179,-0.0129647,24,-0.00197065,10,-4.59182e-07,-4.88724,-0.0164746,-3.58126,1.79731,0.0354179,
2,0,0,1,0,45690.3,0.0372544,0.0369744,-0.0104105,24,-0.00197272,10,-3.84923e-07,-4.98253,-0.0149727,-3.9405,1.54967,0.0369744,
2,0,0,1,0,45691.8,0.0387526,0.038424,-0.00817281,24,-0.00197128,10,-3.14032e-07,-5.08763,-0.00880513,-6.70064,1.81492,0.038424,
2,0,0,1,0,45693.3,0.0402508,0.0398672,-0.00541167,24,-0.00196559,10,-2.15748e-07,-5.26667,-0.00739645,-7.9768,1.51513,0.0398672,
2,0,0,1,0,45694.8,0.041749,0.0414303,-0.00286889,24,-0.00195591,10,-1.18859e-07,-5.54229,-0.00233977,-25.2161,1.50015,0.0414303,
2,0,0,1,0,45696.3,0.0432472,0.0428852,-0.00093843,24,-0.0019432,10,-4.02447e-08,-6.0276,-0.00895441,-6.58893,1.33199,0.0428852,
2,0,0,1,0,45697.7,0.0447454,0.044426,0.00149012,24,-0.00192718,10,6.62003e-08,-5.82678,0.0123474,4.77834,1.28969,0.044426,
2,1,0,1,0,45699.2,0.0462435,0.0459115,0.00317193,24,-0.00190824,10,1.45628e-07,-5.49868,0.00323766,18.223,1.48457,0.0459115,
2,1,0,1,0,45700.7,0.0477417,0.047447,0.00550599,24,-0.00188622,10,2.61243e-07,-5.25916,0.00814309,7.24541,1.35335,0.047447,
2,1,0,1,0,45702.2,0.0492399,0.0489464,0.00701473,24,-0.00186062,10,3.43346e-07,-5.15399,0.0109136,5.40612,1.41808,0.0489464,
2,1,0,1,0,45703.7,0.0507381,0.0503886,0.00914122,24,-0.00183228,10,4.60613e-07,-5.039,0.0154739,3.81288,1.38047,0.0503886,
2,1,0,1,0,45705.2,0.0522363,0.0519336,0.0108887,24,-0.00180081,10,5.65489e-07,-4.96302,0.0176218,3.34813,1.43264,0.0519336,
2,1,0,1,0,45706.7,0.0537345,0.0534426,0.0133624,24,-0.00176603,10,7.14122e-07,-4.87411,0.0225908,2.61168,1.32756,0.0534426,
2,1,0,1,0,45708.2,0.0552327,0.054925,0.0153682,24,-0.00172865,10,8.44097e-07,-4.81338,0.0326511,1.80698,1.058,0.054925,
2,1,0,1,0,45709.7,0.0567309,0.0563598,0.0164614,24,-0.00168839,10,9.27762e-07,-4.78353,0.0277683,2.12473,1.38813,0.0563598,
2,1,0,1,0,45711.2,0.0582291,0.0578741,0.0191654,24,-0.00164553,10,1.10918e-06,-4.71748,0.0349611,1.68759,1.22769,0.0578741,
2,1,0,1,0,45712.7,0.0597273,0.0593968,0.0207376,24,-0.00159946,10,1.23174e-06,-4.68324,0.0378313,1.55955,1.23473,0.0593968,
2,1,0,1,0,45714.2,0.0612255,0.0608697,0.0222053,24,-0.00155072,10,1.35163e-06,-4.65354,0.0586729,1.00557,0.874027,0.0608697,
2,1,0,1,0,45715.7,0.0627237,0.0623903,0.0243224,24,-0.0014995,10,1.51748e-06,-4.61399,0.0579936,1.01735,0.957692,0.0623903,
2,1,0,1,0,45717.2,0.0642219,0.0639247,0.0249592,24,-0.00144636,10,1.59551e-06,-4.60277,0.0561893,1.05002,1.06995,0.0639247,
2,1,0,1,0,45718.7,0.0657201,0.0653669,0.0273931,24,-0.00139064,10,1.7906e-06,-4.56236,0.0566479,1.04152,1.11264,0.0653669,
2,1,0,1,0,45720.2,0.0672183,0.0668473,0.0289929,24,-0.00133221,10,1.9381e-06,-4.53771,0.0648326,0.910036,1.0024,0.0668473,
2,1,0,1,0,45721.7,0.0687164,0.0684059,0.0300094,24,-0.00127171,10,2.05282e-06,-4.52274,0.0661481,0.891938,1.05094,0.0684059,
2,1,0,1,0,45723.2,0.0702146,0.0698714,0.0321932,24,-0.0012094,10,2.24939e-06,-4.49224,0.0729636,0.808623,0.996396,0.0698714,
2,1,0,1,0,45724.7,0.0717128,0.071391,0.0332705,24,-0.00114413,10,2.37522e-06,-4.47794,0.0597427,0.987568,1.26744,0.071391,
2,1,0,1,0,45726.2,0.073211,0.0728692,0.0348311,24,-0.00107674,10,2.53812e-06,-4.45803,0.0725863,0.812825,1.10328,0.0728692,
2,1,0,1,0,45727.7,0.0747092,0.0743856,0.0359299,24,-0.00100685,10,2.67267e-06,-4.44454,0.087669,0.672986,0.949704,0.07438565,
2,1,0,1,0,45729.2,0.0762074,0.075867,0.0368418,24,-0.000935707,10,2.79508e-06,-4.43366,0.0929044,0.635061,0.934546,0.075867,
2,1,0,1,0,45730.7,0.0777055,0.0773441,0.0384051,24,-0.000862252,10,2.97041e-06,-4.41561,0.0799554,0.737912,1.10998,0.0773441,
2,1,0,1,0,45732.2,0.0792037,0.0788944,0.040896,24,-0.000786356,10,3.22646e-06,-4.38832,0.0918197,0.642564,1.01242,0.0788944,
2,1,0,1,0,45733.7,0.0807019,0.080379,0.0421557,24,-0.000708152,10,3.38843e-06,-4.37514,0.114382,0.515817,0.839684,0.08037895,
2,1,0,1,0,45735.2,0.0822001,0.081906,0.0428855,24,-0.000627924,10,3.51258e-06,-4.36769,0.0996112,0.592303,1.00072,0.081906,
2,1,0,1,0,45736.7,0.0836983,0.0833514,0.0449669,24,-0.000545508,10,3.74806e-06,-4.34711,0.0869845,0.678282,1.19168,0.0833514,
2,1,0,1,0,45738.2,0.0851965,0.0848666,0.0465463,24,-0.000460556,10,3.95023e-06,-4.33211,0.102611,0.574985,1.04771,0.0848666,
2,1,0,1,0,45739.7,0.0866947,0.0863937,0.0480778,24,-0.00037278,10,4.15362e-06,-4.31806,0.113012,0.522069,0.971497,0.0863937,
2,1,0,1,0,45741.2,0.0881929,0.0878772,0.0501405,24,-0.000282578,10,4.4062e-06,-4.29981,0.0979328,0.602454,1.17838,0.0878772,
2,1,0,1,0,45742.7,0.0896911,0.0894052,0.0516272,24,-0.000190121,10,4.61574e-06,-4.28712,0.0944329,0.624782,1.26323,0.0894052,
2,1,0,1,0,45744.2,0.0911893,0.0908612,0.0534018,24,-9.46517e-05,10,4.85215e-06,-4.27244,0.09079,0.649851,1.35885,0.0908612,
2,1,0,1,0,45745.7,0.0926875,0.0923892,0.0555434,24,4.01126e-06,10,5.13161e-06,-4.25537,0.098809,0.597112,1.29472,0.0923892,
2,1,0,1,0,45747.2,0.0941857,0.0938633,0.0576037,24,0.000105344,10,5.40687e-06,-4.23955,0.107006,0.55137,1.23452,0.0938633,
2,1,0,1,0,45748.7,0.0956839,0.0953478,0.0596054,24,0.000209328,10,5.68325e-06,-4.22471,0.0952298,0.619554,1.44012,0.0953478,
2,1,0,1,0,45750.2,0.0971821,0.0969056,0.0612648,24,0.000316644,10,5.9369e-06,-4.21279,0.0821883,0.717863,1.72164,0.0969056,
2,1,0,1,0,45751.7,0.0986803,0.098389,0.063621,24,0.000427385,10,6.25961e-06,-4.1964,0.0977964,0.603294,1.50157,0.098389,
2,1,0,1,0,45753.2,0.100178,0.099847,0.0656848,24,0.0005416,10,6.55843e-06,-4.18253,0.102792,0.573975,1.48425,0.099847,
2,1,0,1,0,45754.7,0.101677,0.101365,0.0676431,24,0.000658613,10,6.85668e-06,-4.16978,0.112186,0.525912,1.39652,0.1013655,
2,1,0,1,0,45756.2,0.103175,0.102865,0.0701922,24,0.000779023,10,7.22032e-06,-4.15371,0.11564,0.510204,1.39681,0.102865,
2,1,0,1,0,45757.7,0.104673,0.104372,0.0728265,24,0.000902949,10,7.60103e-06,-4.13771,0.114289,0.516236,1.44857,0.104372,
2,1,0,1,0,45759.2,0.106171,0.105852,0.0744829,24,0.00103022,10,7.88416e-06,-4.12794,0.141551,0.416811,1.20552,0.105852,
2,1,0,1,0,45760.7,0.107669,0.10731,0.0756545,24,0.00115984,10,8.1185e-06,-4.12117,0.152251,0.387518,1.15289,0.10731,
2,1,0,1,0,45762.2,0.109167,0.108868,0.0773637,24,0.00129169,10,8.42242e-06,-4.11146,0.165933,0.355565,1.08559,0.108868,
2,1,0,1,0,45763.7,0.110666,0.110383,0.0790983,24,0.00142669,10,8.73111e-06,-4.10183,0.187854,0.314074,0.974856,0.110383,
2,1,0,1,0,45765.2,0.112164,0.111837,0.0805962,24,0.0015642,10,9.01364e-06,-4.09369,0.284539,0.207353,0.65554,0.111837,
2,1,0,1,0,45766.7,0.113662,0.113366,0.0827002,24,0.00170381,10,9.3754e-06,-4.08249,0.172045,0.342934,1.10921,0.113366,
2,1,0,1,0,45768.2,0.11516,0.114814,0.0847465,24,0.00184544,10,9.73005e-06,-4.07188,0.179325,0.329011,1.08372,0.1148136,
2,1,0,1,0,45769.7,0.116658,0.116312,0.0867927,24,0.00199051,10,1.0095e-05,-4.06152,0.171536,0.343952,1.14709,0.116312,
2,1,0,1,0,45771.2,0.118157,0.117855,0.0879442,24,0.00213813,10,1.03647e-05,-4.05579,0.213818,0.275936,0.941831,0.117855,
2,1,0,1,0,45772.7,0.119655,0.119293,0.0895653,24,0.00228784,10,1.06845e-05,-4.04786,0.227415,0.259437,0.899805,0.119293,
2,1,0,1,0,45774.2,0.121153,0.120866,0.0903394,24,0.00243899,10,1.0919e-05,-4.04412,0.190415,0.30985,1.09662,0.120866,
2,1,0,1,0,45775.7,0.122651,0.122339,0.0913534,24,0.00259255,10,1.11761e-05,-4.03928,0.166468,0.354422,1.26489,0.122339,
2,1,0,1,0,45777.2,0.124149,0.123814,0.0930706,24,0.00274851,10,1.15235e-05,-4.03119,0.238248,0.247641,0.900601,0.1238144,
2,1,0,1,0,45778.7,0.125648,0.125336,0.0944769,24,0.00290635,10,1.18414e-05,-4.02467,0.387281,0.152344,0.557828,0.125336,
2,1,0,1,0,45780.2,0.127146,0.126812,0.0947575,24,0.00306547,10,1.20164e-05,-4.02339,0.400308,0.147387,0.545158,0.1268122,
2,1,0,1,0,45781.6,0.128644,0.128332,0.0958714,24,0.00322539,10,1.23034e-05,-4.01831,1.321,0.0446632,0.166252,0.128332,
2,1,0,1,0,45783.1,0.130142,0.129786,0.0968129,24,0.00338664,10,1.25649e-05,-4.01407,4.0468,0.0145794,0.0544074,0.129786,
2,1,0,1,0,45784.6,0.13164,0.13131,0.0961787,24,0.00354817,10,1.26292e-05,-4.01692,-0.397706,-0.148351,-0.552481,0.13131,
2,1,0,1,0,45786.1,0.133139,0.132837,0.0941956,24,0.00370827,10,1.25127e-05,-4.02597,-0.274183,-0.215185,-0.797164,0.132837,
2,1,0,1,0,45787.6,0.134637,0.134299,0.0933868,24,0.00386594,10,1.25417e-05,-4.02971,-0.185414,-0.318206,-1.15977,0.134299,
2,1,0,1,0,45789.1,0.136135,0.135812,0.0914661,24,0.00402209,10,1.24222e-05,-4.03874,-0.134589,-0.43837,-1.56207,0.135812,
2,1,0,1,0,45790.6,0.137633,0.137305,0.0889937,24,0.00417466,10,1.22193e-05,-4.05064,-0.0972377,-0.606761,-2.09624,0.137305,
2,1,0,1,0,45792.1,0.139131,0.138836,0.0859549,24,0.00432238,10,1.19336e-05,-4.06573,-0.08462,-0.697235,-2.3271,0.138836,
2,1,0,1,0,45793.6,0.14063,0.140311,0.0822592,24,0.00446426,10,1.15419e-05,-4.08482,-0.0790363,-0.746493,-2.39161,0.140311,
2,1,0,1,0,45795.1,0.142128,0.141799,0.0787799,24,0.00460108,10,1.11709e-05,-4.10358,-0.0752191,-0.784375,-2.37879,0.141799,
2,1,0,1,0,45796.6,0.143626,0.143324,0.0746022,24,0.0047321,10,1.06923e-05,-4.12725,-0.068315,-0.863646,-2.52152,0.143324,
2,1,0,1,0,45798.1,0.145124,0.144799,0.0706737,24,0.00485713,10,1.02335e-05,-4.15074,-0.0650477,-0.907027,-2.51688,0.144799,
2,1,0,1,0,45799.6,0.146622,0.146326,0.0670738,24,0.00497639,10,9.81462e-06,-4.17345,-0.0687266,-0.858473,-2.26169,0.146326,
2,1,0,1,0,45801.1,0.14812,0.14784,0.0639852,24,0.00509061,10,9.45957e-06,-4.19392,-0.0819573,-0.719887,-1.80571,0.14784,
2,1,0,1,0,45802.6,0.149619,0.149296,0.0614344,24,0.00520035,10,9.1719e-06,-4.21159,-0.0916529,-0.643733,-1.55284,0.149296,
2,1,0,1,0,45804.1,0.151117,0.150805,0.058716,24,0.00530639,10,8.85465e-06,-4.23124,-0.0920892,-0.640683,-1.48461,0.150805,
2,1,0,1,0,45805.6,0.152615,0.152287,0.0569325,24,0.00540919,10,8.6701e-06,-4.24464,-0.111032,-0.531379,-1.19024,0.152287,
2,1,0,1,0,45807.1,0.154113,0.153776,0.055751,24,0.00550929,10,8.57317e-06,-4.25375,-0.136428,-0.432463,-0.943791,0.153776,
2,1,0,1,0,45808.6,0.155611,0.155308,0.0548026,24,0.00560738,10,8.5113e-06,-4.2612,-0.135626,-0.435018,-0.921342,0.1553085,
2,1,0,1,0,45810.1,0.15711,0.156788,0.053343,24,0.00570361,10,8.36352e-06,-4.27292,-0.144052,-0.409575,-0.85259,0.156788,
2,1,0,1,0,45811.6,0.158608,0.158304,0.0518031,24,0.00579784,10,8.20064e-06,-4.28564,-0.19728,-0.299068,-0.613024,0.1583041,
2,1,0,1,0,45813.1,0.160106,0.159787,0.0513151,24,0.0058905,10,8.19947e-06,-4.28975,-0.240962,-0.244852,-0.495227,0.159787,
2,1,0,1,0,45814.6,0.161604,0.16131,0.0508876,24,0.00598229,10,8.2087e-06,-4.29339,-0.359156,-0.164274,-0.326677,0.1613104,
2,1,0,1,0,45816.1,0.163102,0.162798,0.0510467,24,0.00607363,10,8.3103e-06,-4.29203,-0.760548,-0.0775756,-0.153258,0.162798,
2,1,0,1,0,45817.6,0.164601,0.164305,0.0509273,24,0.00616471,10,8.36759e-06,-4.29305,-0.897086,-0.0657685,-0.129513,0.164305,
2,1,0,1,0,45819.1,0.166099,0.165741,0.0505941,24,0.00625548,10,8.3855e-06,-4.2959,-1.4101,-0.0418409,-0.0823434,0.165741,
2,1,0,1,0,45820.6,0.167597,0.167301,0.0507112,24,0.0063461,10,8.48401e-06,-4.2949,-1.00395,-0.0587676,-0.115499,0.167301,
2,1,0,1,0,45822.1,0.169095,0.168787,0.0502735,24,0.00643647,10,8.48552e-06,-4.29866,-0.818126,-0.072116,-0.141577,0.1687872,
2,1,0,1,0,45823.6,0.170593,0.170268,0.049994,24,0.00652649,10,8.51235e-06,-4.30108,-0.634885,-0.0929303,-0.181597,0.170268,
2,1,0,1,0,45825.1,0.172091,0.171798,0.0495782,24,0.00661614,10,8.51741e-06,-4.30471,2.04843,0.0288026,0.0564884,0.171798,
2,1,0,1,0,45826.6,0.17359,0.173289,0.0496715,24,0.00670561,10,8.60751e-06,-4.30389,0.762151,0.0774124,0.151226,0.173289,
2,1,0,1,0,45828.1,0.175088,0.174743,0.0499148,24,0.00679532,10,8.72229e-06,-4.30177,2.38844,0.0247023,0.0481605,0.174743,
2,1,0,1,0,45829.6,0.176586,0.176277,0.0502875,24,0.00688519,10,8.86452e-06,-4.29854,-3.37038,-0.0175054,-0.03422,0.176277,
2,1,0,1,0,45831.1,0.178084,0.177761,0.0500635,24,0.00697521,10,8.89937e-06,-4.30048,0.559065,0.105533,0.208319,0.177761,
2,1,0,1,0,45832.6,0.179582,0.179271,0.0502207,24,0.00706508,10,9.00314e-06,-4.29912,8.83011,0.00668169,0.0130906,0.179271,
2,1,0,1,0,45834.1,0.181081,0.180792,0.0508618,24,0.00715582,10,9.19541e-06,-4.29361,0.797286,0.074001,0.146369,0.180792,
2,1,0,1,0,45835.6,0.182579,0.182275,0.0504946,24,0.00724612,10,9.20388e-06,-4.29676,-5.68377,-0.0103804,-0.0205902,0.182275,
2,1,0,1,0,45837.1,0.184077,0.183769,0.0506886,24,0.00733671,10,9.31497e-06,-4.29509,8.03669,0.00734133,0.0145035,0.1837687,
2,1,0,1,0,45838.6,0.185575,0.185236,0.050366,24,0.00742718,10,9.3296e-06,-4.29786,-2.38182,-0.024771,-0.0492502,0.185236,
2,1,0,1,0,45840.1,0.187073,0.186717,0.0507821,24,0.00751772,10,9.48186e-06,-4.29429,0.833924,0.0707498,0.140483,0.186717,
2,1,0,1,0,45841.6,0.188572,0.18824,0.0511604,24,0.00760844,10,9.63046e-06,-4.29107,0.71119,0.0829596,0.16463,0.18824,
2,1,0,1,0,45843.1,0.19007,0.189775,0.0508963,24,0.00769947,10,9.65884e-06,-4.29331,1.30049,0.0453676,0.0906507,0.189775,
2,1,0,1,0,45844.6,0.191568,0.191257,0.0512643,24,0.0077904,10,9.80467e-06,-4.29019,1.18304,0.0498714,0.0998865,0.191257,
2,1,0,1,0,45846.1,0.193066,0.192701,0.0513443,24,0.00788185,10,9.89408e-06,-4.28951,0.52914,0.111502,0.222984,0.192701,
2,1,0,1,0,45847.6,0.194564,0.194243,0.0516209,24,0.0079737,10,1.0027e-05,-4.28717,1.04608,0.0564012,0.113522,0.194243,
2,1,0,1,0,45849.1,0.196063,0.195743,0.0519912,24,0.00806588,10,1.01769e-05,-4.28407,1.78203,0.0331084,0.0669861,0.195743,
2,1,0,1,0,45850.6,0.197561,0.197234,0.0517735,24,0.00815778,10,1.02115e-05,-4.28589,3.13213,0.018837,0.0384943,0.197234,
2,1,0,1,0,45852.1,0.199059,0.198702,0.0520762,24,0.00824998,10,1.03477e-05,-4.28336,1.67465,0.0352312,0.0714915,0.198702,
2,1,0,1,0,45853.6,0.200557,0.200226,0.0526925,24,0.0083425,10,1.05504e-05,-4.27825,0.983384,0.0599969,0.122272,0.200226,
2,1,0,1,0,45855.1,0.202055,0.201731,0.0525838,24,0.00843526,10,1.06078e-05,-4.27915,1.60699,0.0367145,0.0748288,0.201731,
2,1,0,1,0,45856.6,0.203554,0.203227,0.052382,24,0.00852824,10,1.06454e-05,-4.28082,16.727,0.00352724,0.00720957,0.203227,
2,1,0,1,0,45858.1,0.205052,0.204724,0.0524514,24,0.00862083,10,1.07381e-05,-4.28024,0.421909,0.13984,0.290324,0.2047244,
2,1,0,1,0,45859.6,0.20655,0.206264,0.0527217,24,0.00871383,10,1.08746e-05,-4.27801,0.927029,0.0636442,0.132026,0.206264,
2,1,0,1,0,45861.1,0.208048,0.207744,0.05299,24,0.0088079,10,1.10084e-05,-4.27581,0.894826,0.0659346,0.135764,0.207744,
2,1,0,1,0,45862.6,0.209546,0.209232,0.0534272,24,0.0089016,10,1.11787e-05,-4.27224,0.759876,0.0776442,0.161998,0.209232,
2,1,0,1,0,45864,0.211044,0.210759,0.05362,24,0.00899566,10,1.13009e-05,-4.27067,0.807958,0.0730236,0.151272,0.2107591,
2,1,0,1,0,45865.5,0.212543,0.212256,0.053568,24,0.00909025,10,1.13702e-05,-4.27109,-0.997056,-0.0591742,-0.123896,0.212256,
2,1,0,1,0,45867,0.214041,0.213682,0.0537225,24,0.00918446,10,1.14795e-05,-4.26984,-4.04195,-0.0145969,-0.0305332,0.213682,
2,1,0,1,0,45868.5,0.215539,0.215229,0.0537475,24,0.00927868,10,1.1568e-05,-4.26964,7.78117,0.00758241,0.0158703,0.215229,
2,1,0,1,0,45870,0.217037,0.216722,0.0536923,24,0.00937281,10,1.16363e-05,-4.27009,-560.944,-0.00010518,-0.000220438,0.216722,
2,1,0,1,0,45871.5,0.218535,0.218211,0.0535297,24,0.00946725,10,1.16808e-05,-4.27141,0.861744,0.0684658,0.143422,0.218211,
2,1,0,1,0,45873,0.220034,0.219727,0.0541824,24,0.00956203,10,1.19053e-05,-4.26614,0.385148,0.153188,0.324793,0.219727,
2,1,0,1,0,45874.5,0.221532,0.221197,0.0542038,24,0.00965699,10,1.19897e-05,-4.26597,0.486476,0.12128,0.258202,0.2211968,
2,1,0,1,0,45876,0.22303,0.222711,0.0549645,24,0.00975289,10,1.22412e-05,-4.25992,0.702803,0.0839495,0.178205,0.2227111,
2,1,0,1,0,45877.5,0.224528,0.224183,0.055107,24,0.0098489,10,1.2354e-05,-4.25879,0.929091,0.0635029,0.136798,0.224183,
2,1,0,1,0,45879,0.226026,0.22568,0.0550696,24,0.00994501,10,1.24281e-05,-4.25909,0.808318,0.0729911,0.156296,0.22568,
2,1,0,1,0,45880.5,0.227525,0.22724,0.0553495,24,0.0100415,10,1.25776e-05,-4.25689,3.37782,0.0174669,0.0374271,0.22724,
2,1,0,1,0,45882,0.229023,0.228675,0.0552812,24,0.0101379,10,1.26414e-05,-4.25742,0.733096,0.0804806,0.1748,0.228675,
2,1,0,1,0,45883.5,0.230521,0.230197,0.055532,24,0.0102345,10,1.27833e-05,-4.25546,0.486763,0.121209,0.263743,0.230197,
2,1,0,1,0,45885,0.232019,0.23172,0.055828,24,0.0103319,10,1.29365e-05,-4.25315,0.708902,0.0832273,0.181506,0.23172,
2,1,0,1,0,45886.5,0.233517,0.233194,0.0561138,24,0.0104299,10,1.30854e-05,-4.25093,0.673928,0.0875464,0.191917,0.233194,
2,1,0,1,0,45888,0.235016,0.234682,0.0564982,24,0.010528,10,1.32591e-05,-4.24797,0.565482,0.104336,0.229366,0.234682,
2,1,0,1,0,45889.5,0.236514,0.236193,0.0567307,24,0.0106261,10,1.33994e-05,-4.24618,0.645725,0.0913701,0.202358,0.236193,
2,1,0,1,0,45891,0.238012,0.237685,0.0573292,24,0.010725,10,1.36263e-05,-4.24162,1.5575,0.0378812,0.0840532,0.237685,
2,1,0,1,0,45892.5,0.23951,0.239258,0.0570239,24,0.0108242,10,1.36434e-05,-4.24394,0.750099,0.0786563,0.175877,0.239258,
2,1,0,1,0,45894,0.241008,0.240693,0.0573822,24,0.0109239,10,1.38115e-05,-4.24122,1.39663,0.0422445,0.0949927,0.240693,
2,1,0,1,0,45895.5,0.242506,0.242152,0.0576086,24,0.0110238,10,1.39501e-05,-4.23951,1.30565,0.0451882,0.101862,0.2421525,
2,1,0,1,0,45897,0.244005,0.243674,0.0576835,24,0.0111239,10,1.4056e-05,-4.23895,-4.64383,-0.012705,-0.0286189,0.243674,
2,1,0,1,0,45898.5,0.245503,0.245221,0.0578818,24,0.0112241,10,1.41939e-05,-4.23746,0.766093,0.0770141,0.174642,0.245221,
2,1,0,1,0,45900,0.247001,0.246695,0.057676,24,0.0113243,10,1.42284e-05,-4.23901,0.513565,0.114883,0.260441,0.246695,
2,1,0,1,0,45901.5,0.248499,0.248172,0.0578232,24,0.011425,10,1.43501e-05,-4.2379,0.985049,0.0598955,0.136196,0.248172,
2,1,0,1,0,45903,0.249997,0.249685,0.0585416,24,0.011526,10,1.46169e-05,-4.23254,2.31593,0.0254757,0.0582093,0.249685,
2,1,0,1,0,45904.5,0.251496,0.251188,0.0585857,24,0.0116271,10,1.4716e-05,-4.23221,1.91743,0.0307703,0.0705288,0.251188,
2,1,0,1,0,45906,0.252994,0.25266,0.0591651,24,0.0117287,10,1.49487e-05,-4.22793,1.07375,0.0549474,0.12598,0.25266,
2,1,0,1,0,45907.5,0.254492,0.254179,0.058589,24,0.0118308,10,1.48921e-05,-4.23218,0.796827,0.0740437,0.171569,0.254179,
2,1,0,1,0,45909,0.25599,0.255677,0.0595092,24,0.0119328,10,1.52151e-05,-4.22542,0.612493,0.0963276,0.223687,0.255677,
2,1,0,1,0,45910.5,0.257488,0.25719,0.0597347,24,0.0120356,10,1.53632e-05,-4.22377,0.765336,0.0770903,0.178704,0.25719,
2,1,0,1,0,45912,0.258987,0.258719,0.059946,24,0.0121385,10,1.55092e-05,-4.22224,4.06102,0.0145284,0.0339784,0.2587193,
2,1,0,1,0,45913.5,0.260485,0.260188,0.0602883,24,0.0122416,10,1.56863e-05,-4.21977,1.14487,0.0515343,0.119777,0.260188,
2,1,0,1,0,45915,0.261983,0.261684,0.0601335,24,0.0123447,10,1.5736e-05,-4.22088,4.13853,0.0142563,0.0335367,0.261684,
2,1,0,1,0,45916.5,0.263481,0.263178,0.0604971,24,0.0124481,10,1.59215e-05,-4.21827,3.4637,0.0170338,0.0399573,0.263178,
2,1,0,1,0,45918,0.264979,0.264635,0.059955,24,0.0125516,10,1.58662e-05,-4.22217,1.40616,0.0419584,0.0992961,0.264635,
2,1,0,1,0,45919.5,0.266477,0.266127,0.0607185,24,0.0126551,10,1.61588e-05,-4.21668,0.654893,0.0900911,0.21381,0.266127,
2,1,0,1,0,45921,0.267976,0.26768,0.0612133,24,0.0127595,10,1.63855e-05,-4.21315,0.6283,0.0939041,0.222614,0.26768,
2,1,0,1,0,45922.5,0.269474,0.269179,0.0614085,24,0.0128645,10,1.65299e-05,-4.21177,0.877323,0.0672501,0.161298,0.269179,
2,1,0,1,0,45924,0.270972,0.270669,0.0615229,24,0.0129696,10,1.66523e-05,-4.21096,0.954919,0.0617853,0.148682,0.270669,
2,1,0,1,0,45925.5,0.27247,0.272157,0.0616873,24,0.013075,10,1.67886e-05,-4.2098,25.8627,0.00228127,0.00547849,0.272157,
2,1,0,1,0,45927,0.273968,0.27367,0.061658,24,0.0131805,10,1.68739e-05,-4.21001,3.09406,0.0190688,0.0456807,0.27367,
2,1,0,1,0,45928.5,0.275467,0.27512,0.0619474,24,0.0132861,10,1.7043e-05,-4.20798,1.61186,0.0366037,0.0888336,0.2751205,
2,1,0,1,0,45930,0.276965,0.276629,0.0622012,24,0.0133918,10,1.72067e-05,-4.2062,0.801576,0.073605,0.179099,0.276629,
2,1,0,1,0,45931.5,0.278463,0.278145,0.062322,24,0.013498,10,1.73345e-05,-4.20536,1.19489,0.0493771,0.119565,0.278145,
2,1,0,1,0,45933,0.279961,0.279676,0.062552,24,0.0136045,10,1.74943e-05,-4.20376,1.53785,0.0383652,0.0934831,0.279676,
2,1,0,1,0,45934.5,0.281459,0.281135,0.0623365,24,0.0137109,10,1.7525e-05,-4.20526,0.864178,0.0682729,0.167878,0.2811352,
2,1,0,1,0,45936,0.282958,0.282623,0.0631569,24,0.0138179,10,1.78496e-05,-4.19958,0.788295,0.074845,0.182926,0.282623,
2,1,0,1,0,45937.5,0.284456,0.28414,0.063117,24,0.0139255,10,1.79341e-05,-4.19985,1.08843,0.0542064,0.133754,0.28414,
2,1,0,1,0,45939,0.285954,0.285657,0.0634693,24,0.0140331,10,1.81304e-05,-4.19744,2.56969,0.0229599,0.0569141,0.285657,
2,1,0,1,0,45940.5,0.287452,0.287121,0.0637269,24,0.0141408,10,1.82974e-05,-4.19568,1.30643,0.0451613,0.111836,0.287121,
2,1,0,1,0,45942,0.28895,0.288626,0.0634281,24,0.0142488,10,1.8307e-05,-4.19772,1.00701,0.0585894,0.14517,0.288626,
2,1,0,1,0,45943.5,0.290448,0.290155,0.0635029,24,0.0143567,10,1.84257e-05,-4.19721,-3.78566,-0.0155851,-0.0387048,0.290155,
2,1,0,1,0,45945,0.291947,0.291581,0.063559,24,0.0144647,10,1.85326e-05,-4.19682,3.06367,0.019258,0.0478667,0.291581,
2,1,0,1,0,45946.4,0.293445,0.293142,0.0636394,24,0.0145725,10,1.86554e-05,-4.19627,0.792966,0.0744042,0.185402,0.293142,
2,1,0,1,0,45947.9,0.294943,0.294627,0.0643204,24,0.0146806,10,1.89505e-05,-4.19165,1.44596,0.0408034,0.10196,0.294627,
2,1,0,1,0,45949.4,0.296441,0.296126,0.064403,24,0.0147891,10,1.90714e-05,-4.19109,0.63858,0.0923925,0.231735,0.296126,
2,1,0,1,0,45950.9,0.297939,0.297658,0.0646887,24,0.014898,10,1.92551e-05,-4.18917,0.466136,0.126572,0.318413,0.297658,
2,1,0,1,0,45952.4,0.299438,0.299139,0.0648148,24,0.0150076,10,1.93886e-05,-4.18833,-0.00448366,-13.1589,-21.3828,0.299139,
2,1,0,1,0,45953.3,0.299737,0.299413,0.0325446,24,0.0150572,10,9.7443e-06,-4.48752,0.00228525,25.8177,37.02,0.2994135,
2,1,0,1,0,45954.8,0.298239,0.29797,0.0203346,24,0.0150813,10,6.05911e-06,-4.69176,0.00582552,10.1278,12.981,0.29797,
2,1,0,1,0,45956.3,0.296741,0.296428,0.0152745,24,0.015095,10,4.52778e-06,-4.81603,0.0138388,4.26338,2.62981,0.296428,
2,1,0,1,0,45957.8,0.295243,0.294934,0.011801,24,0.0151026,10,3.48053e-06,-4.92808,0.0158771,3.71603,1.83002,0.294934,
2,1,0,1,0,45959.3,0.293745,0.293442,0.00929692,24,0.0151061,10,2.72811e-06,-5.03166,0.0138901,4.24761,1.54821,0.293442,
2,1,0,1,0,45960.8,0.292246,0.291934,0.00758503,24,0.0151066,10,2.21433e-06,-5.12004,0.0133626,4.41532,1.2594,0.291934,
2,1,0,1,0,45962.3,0.290748,0.290454,0.00544053,24,0.0151036,10,1.58022e-06,-5.26436,0.00958249,6.15707,1.32397,0.290454,
2,1,0,1,0,45963.8,0.28925,0.288993,0.00351941,24,0.0150979,10,1.01708e-06,-5.45353,0.00782181,7.54301,1.01152,0.288993,
2,0,0,1,0,45965.3,0.287752,0.287463,0.00250166,24,0.0150897,10,7.19133e-07,-5.60177,0.0035515,16.6127,1.10435,0.287463,
2,1,0,1,0,45966.8,0.286254,0.285936,0.000539411,24,0.0150796,10,1.54237e-07,-6.26808,0.0125896,4.68639,0.909973,0.285936,
2,0,0,1,0,45968.3,0.284755,0.284445,-0.0010997,24,0.0150667,10,-3.12803e-07,-5.95873,-0.0149863,-3.93694,1.06878,0.284445,
2,0,0,1,0,45969.8,0.283257,0.282952,-0.00169049,24,0.0150518,10,-4.78328e-07,-5.77199,-0.00366024,-16.1192,0.802103,0.282952,
2,1,0,1,0,45971.3,0.281759,0.281466,-0.00316863,24,0.0150354,10,-8.91861e-07,-5.49913,-0.0112292,-5.25416,0.618122,0.281466,
2,1,0,1,0,45972.8,0.280261,0.279935,-0.00387921,24,0.0150173,10,-1.08593e-06,-5.41126,-0.0122572,-4.8135,0.697774,0.279935,
2,1,0,1,0,45974.3,0.278763,0.278461,-0.00494651,24,0.0149978,10,-1.37741e-06,-5.3057,-0.0168072,-3.5104,0.695097,0.278461,
2,1,0,1,0,45975.8,0.277264,0.276944,-0.00605772,24,0.0149767,10,-1.67765e-06,-5.21769,-0.021657,-2.72429,0.64187,0.276944,
2,0,0,1,0,45977.3,0.275766,0.275463,-0.006934,24,0.0149539,10,-1.91006e-06,-5.15902,-0.0296368,-1.99077,0.541239,0.2754631,
2,0,0,1,0,45978.8,0.274268,0.27395,-0.00780106,24,0.0149297,10,-2.1371e-06,-5.10785,-0.0310233,-1.9018,0.572653,0.27395,
2,1,0,1,0,45980.3,0.27277,0.272466,-0.00863514,24,0.0149047,10,-2.35279e-06,-5.06373,-0.0355773,-1.65836,0.580028,0.272466,
2,0,0,1,0,45981.8,0.271272,0.270983,-0.00932095,24,0.0148782,10,-2.52582e-06,-5.03054,-0.0403047,-1.46385,0.546339,0.270983,
2,0,0,1,0,45983.3,0.269774,0.269489,-0.0109224,24,0.01485,10,-2.94345e-06,-4.96168,-0.0392062,-1.50486,0.603269,0.269489,
2,0,0,1,0,45984.8,0.268275,0.267968,-0.0114386,24,0.0148207,10,-3.06518e-06,-4.94163,-0.0575487,-1.02522,0.452312,0.267968,
2,0,0,1,0,45986.3,0.266777,0.266455,-0.0121774,24,0.0147905,10,-3.24472e-06,-4.91445,-0.0514136,-1.14756,0.53091,0.266455,
2,0,0,1,0,45987.8,0.265279,0.264985,-0.013114,24,0.0147588,10,-3.47502e-06,-4.88226,-0.0527674,-1.11811,0.541421,0.264985,
2,0,0,1,0,45989.2,0.263781,0.263493,-0.0136543,24,0.0147261,10,-3.59781e-06,-4.86473,-0.0855934,-0.689305,0.365817,0.263493,
2,0,0,1,0,45990.7,0.262283,0.261976,-0.0142918,24,0.0146922,10,-3.74411e-06,-4.84491,-0.0879207,-0.671059,0.373125,0.261976,
2,0,0,1,0,45992.2,0.260784,0.260493,-0.0146032,24,0.0146575,10,-3.80404e-06,-4.83555,-0.0927821,-0.635899,0.368464,0.260493,
2,0,0,1,0,45993.7,0.259286,0.258938,-0.0150397,24,0.0146217,10,-3.89434e-06,-4.82276,-0.0699919,-0.842955,0.510358,0.258938,
2,0,0,1,0,45995.2,0.257788,0.257438,-0.0164165,24,0.014585,10,-4.22623e-06,-4.78472,-0.0808431,-0.729809,0.453483,0.257438,
2,1,0,1,0,45996.7,0.25629,0.255964,-0.016824,24,0.014547,10,-4.30634e-06,-4.77407,-0.0790175,-0.74667,0.491311,0.255964,
2,0,0,1,0,45998.2,0.254792,0.254479,-0.01722,24,0.0145082,10,-4.38213e-06,-4.76397,-0.0741883,-0.795273,0.548699,0.254479,
2,0,0,1,0,45999.7,0.253293,0.252954,-0.018766,24,0.0144679,10,-4.74693e-06,-4.72663,-0.149498,-0.394654,0.280176,0.252954,
2,0,0,1,0,46001.2,0.251795,0.251466,-0.0186004,24,0.0144265,10,-4.67737e-06,-4.73048,-0.135304,-0.436054,0.321659,0.251466,
2,0,0,1,0,46002.7,0.250297,0.249978,-0.019299,24,0.0143846,10,-4.82433e-06,-4.71447,-0.139578,-0.422703,0.321877,0.2499783,
2,0,0,1,0,46004.2,0.248799,0.248456,-0.0203682,24,0.0143418,10,-5.0606e-06,-4.69105,-0.089756,-0.657338,0.513848,0.248456,
2,0,0,1,0,46005.7,0.247301,0.246979,-0.0206075,24,0.014298,10,-5.08963e-06,-4.68598,-0.0974929,-0.605173,0.490921,0.246979,
2,0,0,1,0,46007.2,0.245802,0.245476,-0.0217792,24,0.0142531,10,-5.34628e-06,-4.66196,-0.12918,-0.456727,0.382847,0.245476,
2,0,0,1,0,46008.7,0.244304,0.24399,-0.0225449,24,0.0142071,10,-5.50074e-06,-4.64695,-0.185966,-0.317262,0.271787,0.2439902,
2,0,0,1,0,46010.2,0.242806,0.242466,-0.0226045,24,0.0141601,10,-5.48083e-06,-4.64581,-0.117591,-0.501738,0.441077,0.242466,
2,0,0,1,0,46011.7,0.241308,0.241009,-0.02335,24,0.0141126,10,-5.62756e-06,-4.63171,-0.130277,-0.452881,0.41907,0.241009,
2,0,0,1,0,46013.2,0.23981,0.239543,-0.0238967,24,0.0140637,10,-5.7243e-06,-4.62166,-0.0958772,-0.61537,0.571519,0.2395429,
2,0,0,1,0,46014.7,0.238312,0.237995,-0.025066,24,0.0140136,10,-5.96557e-06,-4.60092,-0.134977,-0.43711,0.425939,0.237995,
2,0,0,1,0,46016.2,0.236813,0.236475,-0.0250696,24,0.0139627,10,-5.92835e-06,-4.60085,-0.198802,-0.296777,0.291464,0.236475,
2,0,0,1,0,46017.7,0.235315,0.234957,-0.025667,24,0.013911,10,-6.03063e-06,-4.59062,-0.17485,-0.337433,0.337025,0.234957,
2,0,0,1,0,46019.2,0.233817,0.233487,-0.0263685,24,0.0138583,10,-6.15671e-06,-4.57891,-0.173217,-0.340614,0.34841,0.233487,
2,0,0,1,0,46020.7,0.232319,0.231957,-0.026705,24,0.0138048,10,-6.19441e-06,-4.57341,-0.200066,-0.294903,0.309336,0.231957,
2,0,0,1,0,46022.2,0.230821,0.230501,-0.0273495,24,0.0137507,10,-6.30407e-06,-4.56305,-0.193608,-0.30474,0.324038,0.230501,
2,0,0,1,0,46023.7,0.229322,0.229008,-0.0274826,24,0.0136958,10,-6.29373e-06,-4.56094,-0.220238,-0.267892,0.289517,0.229008,
2,0,0,1,0,46025.2,0.227824,0.227507,-0.0283325,24,0.0136401,10,-6.44584e-06,-4.54772,-0.205256,-0.287445,0.319958,0.227507,
2,0,0,1,0,46026.7,0.226326,0.226022,-0.0287484,24,0.0135836,10,-6.49776e-06,-4.54139,-0.211077,-0.279519,0.316735,0.226022,
2,0,0,1,0,46028.2,0.224828,0.224538,-0.029541,24,0.013526,10,-6.63309e-06,-4.52957,-0.160434,-0.367753,0.42193,0.224538,
2,0,0,1,0,46029.7,0.22333,0.223028,-0.0300672,24,0.0134674,10,-6.70583e-06,-4.52191,-0.162575,-0.362909,0.428189,0.223028,
2,0,0,1,0,46031.2,0.221831,0.221515,-0.0310888,24,0.0134081,10,-6.88662e-06,-4.5074,-0.181735,-0.324648,0.389983,0.2215149,
2,0,0,1,0,46032.7,0.220333,0.220034,-0.031501,24,0.0133477,10,-6.93128e-06,-4.50168,-0.184477,-0.319824,0.389598,0.220034,
2,0,0,1,0,46034.2,0.218835,0.218503,-0.0317335,24,0.0132864,10,-6.93388e-06,-4.49848,-0.271126,-0.217611,0.26847,0.218503,
2,0,0,1,0,46035.7,0.217337,0.217006,-0.03258,24,0.0132244,10,-7.07006e-06,-4.48705,-0.17718,-0.332994,0.421013,0.217006,
2,0,0,1,0,46037.2,0.215839,0.215568,-0.0325616,24,0.0131619,10,-7.01925e-06,-4.48729,-0.159624,-0.369619,0.474989,0.215568,
2,0,0,1,0,46038.7,0.21434,0.213986,-0.0335914,24,0.0130982,10,-7.18809e-06,-4.47377,-0.121543,-0.485425,0.633738,0.213986,
2,0,0,1,0,46040.2,0.212842,0.212537,-0.0337073,24,0.0130335,10,-7.16403e-06,-4.47228,-0.213145,-0.276807,0.368396,0.212537,
2,0,0,1,0,46041.7,0.211344,0.211013,-0.0342085,24,0.0129679,10,-7.21843e-06,-4.46587,-0.187428,-0.314788,0.426012,0.211013,
2,0,0,1,0,46043.2,0.209846,0.209542,-0.0351398,24,0.0129016,10,-7.36327e-06,-4.4542,-0.165348,-0.356822,0.488406,0.209542,
2,0,0,1,0,46044.7,0.208348,0.208045,-0.0359024,24,0.0128342,10,-7.46929e-06,-4.44488,-0.194983,-0.30259,0.422231,0.208045,
2,0,0,1,0,46046.2,0.20685,0.206543,-0.0369094,24,0.0127657,10,-7.62338e-06,-4.43286,-0.580405,-0.101653,0.14412,0.206543,
2,0,0,1,0,46047.7,0.205351,0.205048,-0.0370582,24,0.0126964,10,-7.5987e-06,-4.43112,-0.187929,-0.313949,0.448901,0.205048,
2,0,0,1,0,46049.2,0.203853,0.203509,-0.036923,24,0.012627,10,-7.51417e-06,-4.4327,-0.325757,-0.181116,0.264259,0.203509,
2,0,0,1,0,46050.7,0.202355,0.202013,-0.0380858,24,0.0125565,10,-7.69382e-06,-4.41924,-0.24984,-0.236151,0.35141,0.202013,
2,0,0,1,0,46052.2,0.200857,0.200516,-0.0380647,24,0.0124852,10,-7.63257e-06,-4.41948,-0.321454,-0.183541,0.276025,0.200516,
2,0,0,1,0,46053.7,0.199359,0.199046,-0.0386933,24,0.0124128,10,-7.70175e-06,-4.41236,-0.381405,-0.154691,0.235071,0.199046,
2,0,0,1,0,46055.2,0.19786,0.197514,-0.0394533,24,0.0123398,10,-7.79256e-06,-4.40392,-0.291582,-0.202344,0.312977,0.197514,
2,0,0,1,0,46056.7,0.196362,0.196067,-0.0401768,24,0.0122656,10,-7.87735e-06,-4.39603,-0.2186,-0.269899,0.422594,0.196067,
2,0,0,1,0,46058.2,0.194864,0.194512,-0.0411388,24,0.0121903,10,-8.00197e-06,-4.38575,-0.16832,-0.350523,0.558714,0.194512,
2,0,0,1,0,46059.7,0.193366,0.193056,-0.0415648,24,0.0121136,10,-8.02433e-06,-4.38127,-0.29693,-0.1987,0.321583,0.193056,
2,0,0,1,0,46061.2,0.191868,0.191558,-0.0417223,24,0.0120362,10,-7.99225e-06,-4.37963,-0.339914,-0.173573,0.28668,0.191558,
2,0,0,1,0,46062.7,0.190369,0.190039,-0.0425532,24,0.0119582,10,-8.08675e-06,-4.37107,-0.314501,-0.187599,0.315241,0.190039,
2,0,0,1,0,46064.2,0.188871,0.188555,-0.0432906,24,0.0118791,10,-8.16266e-06,-4.36361,-0.240315,-0.245511,0.417784,0.188555,
2,0,0,1,0,46065.7,0.187373,0.187029,-0.0440147,24,0.0117987,10,-8.23205e-06,-4.3564,-0.226308,-0.260706,0.447101,0.187029,
2,0,0,1,0,46067.2,0.185875,0.185561,-0.0441396,24,0.0117177,10,-8.19057e-06,-4.35517,-0.245054,-0.240763,0.423521,0.1855607,
2,0,0,1,0,46068.7,0.184377,0.184053,-0.0452404,24,0.0116356,10,-8.32662e-06,-4.34447,-0.222863,-0.264736,0.467656,0.184053,
2,0,0,1,0,46070.2,0.182878,0.182584,-0.04615,24,0.0115521,10,-8.42625e-06,-4.33583,-0.279106,-0.211389,0.380041,0.1825842,
2,0,0,1,0,46071.6,0.18138,0.181104,-0.0474016,24,0.0114672,10,-8.58461e-06,-4.32421,-0.256905,-0.229657,0.421788,0.181104,
2,0,0,1,0,46073.1,0.179882,0.179561,-0.0475891,24,0.0113814,10,-8.54514e-06,-4.32249,-0.23535,-0.250691,0.467854,0.179561,
2,0,0,1,0,46074.6,0.178384,0.178069,-0.0485598,24,0.0112941,10,-8.64699e-06,-4.31372,-0.181615,-0.324863,0.617362,0.178069,
2,0,0,1,0,46076.1,0.176886,0.176573,-0.0497548,24,0.0112055,10,-8.78535e-06,-4.30316,-0.162111,-0.363948,0.705941,0.176573,
2,0,0,1,0,46077.6,0.175388,0.175067,-0.05041,24,0.0111156,10,-8.82513e-06,-4.29748,-0.27129,-0.21748,0.429405,0.175067,
2,0,0,1,0,46079.1,0.173889,0.173569,-0.0508951,24,0.0110244,10,-8.8338e-06,-4.29332,-0.289306,-0.203936,0.407494,0.173569,
2,0,0,1,0,46080.6,0.172391,0.172065,-0.0514463,24,0.0109323,10,-8.8521e-06,-4.28865,-0.20912,-0.282135,0.570237,0.172065,
2,0,0,1,0,46082.1,0.170893,0.170535,-0.0531851,24,0.0108389,10,-9.06991e-06,-4.27421,-0.181945,-0.324274,0.664951,0.170535,
2,0,0,1,0,46083.6,0.169395,0.169081,-0.0534902,24,0.0107441,10,-9.04418e-06,-4.27173,-0.157983,-0.373459,0.78426,0.169081,
2,0,0,1,0,46085.1,0.167897,0.167564,-0.0544322,24,0.0106475,10,-9.12085e-06,-4.26414,-0.188369,-0.313215,0.67033,0.167564,
2,0,0,1,0,46086.6,0.166398,0.166086,-0.0559382,24,0.0105495,10,-9.29058e-06,-4.25229,-0.194862,-0.302778,0.661272,0.166086,
2,0,0,1,0,46088.1,0.1649,0.164563,-0.056574,24,0.0104499,10,-9.30996e-06,-4.24738,-0.166825,-0.353663,0.784963,0.164563,
2,0,0,1,0,46089.6,0.163402,0.163069,-0.0583981,24,0.0103483,10,-9.52295e-06,-4.2336,-0.139174,-0.42393,0.962733,0.163069,
2,0,0,1,0,46091.1,0.161904,0.161608,-0.0598994,24,0.0102447,10,-9.68023e-06,-4.22258,-0.157895,-0.373665,0.868261,0.161608,
2,0,0,1,0,46092.6,0.160406,0.160104,-0.0609339,24,0.0101388,10,-9.75579e-06,-4.21514,-0.139631,-0.422543,1.00452,0.160104,
2,0,0,1,0,46094.1,0.158907,0.158609,-0.0622141,24,0.010031,10,-9.86774e-06,-4.20611,-0.174062,-0.33896,0.822313,0.158609,
2,0,0,1,0,46095.6,0.157409,0.157099,-0.0636975,24,0.00992088,10,-1.00068e-05,-4.19588,-0.133233,-0.442832,1.09958,0.157099,
2,0,0,1,0,46097.1,0.155911,0.155561,-0.065217,24,0.00980846,10,-1.01452e-05,-4.18564,-0.140571,-0.419717,1.07475,0.155561,
2,0,0,1,0,46098.6,0.154413,0.154047,-0.0671247,24,0.00969295,10,-1.03403e-05,-4.17312,-0.130212,-0.453107,1.18609,0.154047,
2,0,0,1,0,46100.1,0.152915,0.152577,-0.0692248,24,0.00957484,10,-1.05621e-05,-4.15974,-0.129638,-0.455112,1.23367,0.152577,
2,0,0,1,0,46101.6,0.151417,0.15109,-0.0712918,24,0.00945364,10,-1.07715e-05,-4.14696,-0.107435,-0.54917,1.53132,0.1510901,
2,0,0,1,0,46103.1,0.149918,0.149586,-0.0737009,24,0.00932906,10,-1.10247e-05,-4.13253,-0.0976649,-0.604107,1.74433,0.149586,
2,0,0,1,0,46104.6,0.14842,0.148066,-0.0767021,24,0.00920027,10,-1.1357e-05,-4.11519,-0.0966525,-0.610434,1.816,0.148066,
2,0,0,1,0,46106.1,0.146922,0.146552,-0.0796499,24,0.00906703,10,-1.16728e-05,-4.09881,-0.0903203,-0.653231,2.02383,0.146552,
2,0,0,1,0,46107.6,0.145424,0.145053,-0.0818542,24,0.00892992,10,-1.18732e-05,-4.08696,-0.0934054,-0.631655,2.03526,0.145053,
2,0,0,1,0,46109.1,0.143926,0.143608,-0.0852734,24,0.00878746,10,-1.22459e-05,-4.06919,-0.0763684,-0.77257,2.58176,0.143608,
2,0,0,1,0,46110.6,0.142427,0.142103,-0.0889768,24,0.00863928,10,-1.26439e-05,-4.05072,-0.0795448,-0.74172,2.59601,0.142103,
2,0,0,1,0,46112.1,0.140929,0.140656,-0.0932315,24,0.00848538,10,-1.31135e-05,-4.03044,-0.0809546,-0.728803,2.67008,0.140656,
2,0,0,1,0,46113.6,0.139431,0.13913,-0.0970948,24,0.00832556,10,-1.35088e-05,-4.0128,-0.0760742,-0.775559,2.96659,0.13913,
2,0,0,1,0,46115.1,0.137933,0.137605,-0.102231,24,0.00815872,10,-1.40675e-05,-3.99042,-0.0745789,-0.791109,3.15034,0.137605,
2,0,0,1,0,46116.6,0.136435,0.136083,-0.107278,24,0.00798418,10,-1.45987e-05,-3.96949,-0.0797925,-0.739417,3.07974,0.136083,
2,0,0,1,0,46118.1,0.134936,0.134624,-0.111629,24,0.00780287,10,-1.5028e-05,-3.95222,-0.0858732,-0.687059,2.99426,0.134624,
2,0,0,1,0,46119.6,0.133438,0.133098,-0.115604,24,0.00761477,10,-1.53866e-05,-3.93703,-0.0903996,-0.652658,2.94687,0.133098,
2,0,0,1,0,46121.1,0.13194,0.131658,-0.120189,24,0.00742028,10,-1.58239e-05,-3.92013,-0.103313,-0.571078,2.69095,0.131658,
2,0,0,1,0,46122.6,0.130442,0.130106,-0.123953,24,0.0072195,10,-1.6127e-05,-3.90674,-0.11559,-0.510425,2.46957,0.130106,
2,0,0,1,0,46124.1,0.128944,0.128634,-0.127625,24,0.00701288,10,-1.64169e-05,-3.89406,-0.141783,-0.416129,2.06486,0.128634,
2,0,0,1,0,46125.6,0.127445,0.127111,-0.13118,24,0.00680151,10,-1.66744e-05,-3.88213,-0.158357,-0.372575,1.8986,0.127111,
2,0,0,1,0,46127.1,0.125947,0.125602,-0.133581,24,0.00658644,10,-1.67781e-05,-3.87426,-0.170822,-0.345388,1.79812,0.125602,
2,0,0,1,0,46128.6,0.124449,0.124139,-0.136439,24,0.00636722,10,-1.69374e-05,-3.86506,-0.260179,-0.226767,1.19524,0.124139,
2,0,0,1,0,46130.1,0.122951,0.12265,-0.137482,24,0.00614489,10,-1.68621e-05,-3.86176,-0.356789,-0.165364,0.884745,0.12265,
2,0,0,1,0,46131.6,0.121453,0.121152,-0.138708,24,0.00592091,10,-1.68047e-05,-3.8579,-0.645099,-0.0914588,0.493027,0.121152,
2,0,0,1,0,46133.1,0.119955,0.119625,-0.138803,24,0.00569559,10,-1.66043e-05,-3.8576,-0.610965,-0.0965685,0.525342,0.119625,
2,0,0,1,0,46134.6,0.118456,0.118173,-0.140625,24,0.00546908,10,-1.66181e-05,-3.85194,-0.684563,-0.0861864,0.46991,0.118173,
2,0,0,1,0,46136.1,0.116958,0.116624,-0.141034,24,0.00524103,10,-1.64479e-05,-3.85068,-1.2592,-0.0468551,0.25658,0.1166238,
2,0,0,1,0,46137.6,0.11546,0.115102,-0.140253,24,0.00501314,10,-1.61434e-05,-3.85309,2.38348,0.0247537,-0.135674,0.1151021,
2,0,0,1,0,46139.1,0.113962,0.113663,-0.139971,24,0.00478547,10,-1.59095e-05,-3.85396,4.20314,0.0140371,-0.0770643,0.113663,
2,0,0,1,0,46140.6,0.112464,0.112131,-0.140834,24,0.00455786,10,-1.57919e-05,-3.85129,-7.08437,-0.00832819,0.0456509,0.112131,
2,0,0,1,0,46142.1,0.110965,0.110652,-0.140935,24,0.0043297,10,-1.55946e-05,-3.85098,4.50047,0.0131098,-0.0718624,0.110652,
2,0,0,1,0,46143.6,0.109467,0.10912,-0.140426,24,0.00410172,10,-1.53233e-05,-3.85255,1.28502,0.0459136,-0.251417,0.10912,
2,0,0,1,0,46145.1,0.107969,0.107672,-0.1399,24,0.00387385,10,-1.50633e-05,-3.85418,4.11229,0.0143472,-0.0786159,0.1076718,
2,0,0,1,0,46146.6,0.106471,0.106151,-0.140063,24,0.00364668,10,-1.48679e-05,-3.85368,-12.7449,-0.0046293,0.0254401,0.106151,
2,0,0,1,0,46148.1,0.104973,0.104688,-0.139851,24,0.00341948,10,-1.46407e-05,-3.85434,5.36828,0.0109905,-0.060032,0.104688,
2,0,0,1,0,46149.6,0.103474,0.103199,-0.140014,24,0.00319196,10,-1.44493e-05,-3.85383,1.83433,0.0321643,-0.175039,0.103199,
2,0,0,1,0,46151.1,0.101976,0.101683,-0.139585,24,0.00296523,10,-1.41934e-05,-3.85516,0.50608,0.116582,-0.632133,0.101683,
2,0,0,1,0,46152.6,0.100478,0.100146,-0.138924,24,0.00273995,10,-1.39127e-05,-3.85722,0.808495,0.0729751,-0.395801,0.100146,
2,0,0,1,0,46154,0.0989798,0.0986339,-0.138505,24,0.00251521,10,-1.36613e-05,-3.85854,1.29141,0.0456866,-0.245977,0.0986339,
2,0,0,1,0,46155.5,0.0974816,0.0971493,-0.138138,24,0.00229075,10,-1.342e-05,-3.85969,0.82858,0.0712062,-0.382421,0.0971493,
2,0,0,1,0,46157,0.0959834,0.0956499,-0.13686,24,0.00206755,10,-1.30907e-05,-3.86372,0.579143,0.101875,-0.54509,0.0956499,
2,0,0,1,0,46158.5,0.0944852,0.0941865,-0.136104,24,0.00184596,10,-1.28192e-05,-3.86613,0.774146,0.076213,-0.406379,0.0941865,
2,0,0,1,0,46160,0.0929871,0.0926639,-0.135625,24,0.00162501,10,-1.25676e-05,-3.86766,1.66872,0.0353564,-0.186466,0.0926639,
2,0,0,1,0,46161.5,0.0914889,0.0911591,-0.13474,24,0.00140527,10,-1.22828e-05,-3.8705,0.372221,0.158508,-0.833125,0.0911591,
2,0,0,1,0,46163,0.0899907,0.0896342,-0.133322,24,0.00118738,10,-1.19502e-05,-3.8751,0.407061,0.144941,-0.755364,0.0896342,
2,0,0,1,0,46164.5,0.0884925,0.0881603,-0.13199,24,0.000971398,10,-1.16363e-05,-3.87946,0.537281,0.109812,-0.566523,0.0881603,
2,0,0,1,0,46166,0.0869943,0.0866545,-0.131627,24,0.000756698,10,-1.14061e-05,-3.88065,0.588639,0.100231,-0.514767,0.0866545,
2,0,0,1,0,46167.5,0.0854961,0.0851392,-0.130248,24,0.000543165,10,-1.10892e-05,-3.88523,0.556217,0.106074,-0.540745,0.0851392,
2,0,0,1,0,46169,0.083998,0.0836875,-0.12972,24,0.000331059,10,-1.08559e-05,-3.88699,0.383053,0.154026,-0.781027,0.0836875,
2,0,0,1,0,46170.5,0.0824998,0.082186,-0.129133,24,0.000120171,10,-1.06129e-05,-3.88896,0.459787,0.12832,-0.645176,0.082186,
2,0,0,1,0,46172,0.0810016,0.0807142,-0.127333,24,-8.88311e-05,10,-1.02776e-05,-3.89506,0.562491,0.10489,-0.524923,0.0807142,
2,0,0,1,0,46173.5,0.0795034,0.079184,-0.127154,24,-0.000296551,10,-1.00685e-05,-3.89567,0.574809,0.102643,-0.508922,0.079184,
2,0,0,1,0,46175,0.0780052,0.0776581,-0.126657,24,-0.000503461,10,-9.83591e-06,-3.89737,0.694758,0.0849216,-0.41717,0.0776581,
2,0,0,1,0,46176.5,0.076507,0.0761809,-0.125811,24,-0.000709115,10,-9.58439e-06,-3.90028,0.506498,0.116486,-0.569806,0.0761809,
2,0,0,1,0,46178,0.0750088,0.0746507,-0.124845,24,-0.00091294,10,-9.31979e-06,-3.90363,0.586987,0.100513,-0.489782,0.0746507,
2,0,0,1,0,46179.5,0.0735106,0.0732139,-0.123819,24,-0.00111575,10,-9.0653e-06,-3.90721,1.11524,0.0529035,-0.254865,0.0732139,
2,0,0,1,0,46181,0.0720124,0.0716603,-0.123123,24,-0.00131797,10,-8.82303e-06,-3.90966,0.809295,0.0729029,-0.351124,0.0716603,
2,0,0,1,0,46182.5,0.0705142,0.0701461,-0.12241,24,-0.0015189,10,-8.5866e-06,-3.91218,0.527222,0.111907,-0.536012,0.0701461,
2,0,0,1,0,46184,0.069016,0.0686848,-0.121234,24,-0.0017186,10,-8.32696e-06,-3.91637,0.614339,0.0960382,-0.458307,0.0686848,
2,0,0,1,0,46185.5,0.0675178,0.0671897,-0.121452,24,-0.00191749,10,-8.16032e-06,-3.9156,0.88086,0.06698,-0.316665,0.0671897,
2,0,0,1,0,46187,0.0660196,0.06567,-0.120502,24,-0.00211561,10,-7.91334e-06,-3.91901,0.780955,0.0755485,-0.354195,0.06567,
2,0,0,1,0,46188.5,0.0645214,0.0641887,-0.12013,24,-0.00231262,10,-7.71101e-06,-3.92035,0.603104,0.0978272,-0.457955,0.0641887,
2,0,0,1,0,46190,0.0630233,0.0627063,-0.118632,24,-0.00250832,10,-7.43898e-06,-3.9258,0.86272,0.0683884,-0.318326,0.0627063,
2,0,0,1,0,46191.5,0.0615251,0.0612165,-0.118524,24,-0.00270319,10,-7.25561e-06,-3.92619,0.725752,0.081295,-0.37718,0.0612165,
2,0,0,1,0,46193,0.0600269,0.059699,-0.118368,24,-0.00289765,10,-7.06645e-06,-3.92677,0.72298,0.0816066,-0.37687,0.059699,
2,0,0,1,0,46194.5,0.0585287,0.0581985,-0.11708,24,-0.00309105,10,-6.81388e-06,-3.93152,0.352667,0.167297,-0.76828,0.0581985,
2,0,0,1,0,46196,0.0570305,0.0566938,-0.117289,24,-0.00328369,10,-6.64956e-06,-3.93074,0.66564,0.0886365,-0.404679,0.0566938,
2,0,0,1,0,46197.5,0.0555323,0.0551891,-0.116383,24,-0.00347493,10,-6.42306e-06,-3.93411,1.07381,0.0549445,-0.250554,0.0551891,
2,0,0,1,0,46199,0.0540342,0.0536781,-0.115886,24,-0.00366551,10,-6.22052e-06,-3.93597,0.799756,0.0737725,-0.333173,0.0536781,
2,0,0,1,0,46200.5,0.052536,0.0522094,-0.11545,24,-0.0038556,10,-6.02757e-06,-3.93761,0.684722,0.0861664,-0.386655,0.0522094,
2,0,0,1,0,46202,0.0510378,0.0506548,-0.114919,24,-0.00404452,10,-5.82121e-06,-3.93961,0.485603,0.121498,-0.543255,0.0506548,
2,0,0,1,0,46203.5,0.0495396,0.0491883,-0.113783,24,-0.00423212,10,-5.59678e-06,-3.94392,0.723769,0.0815177,-0.362918,0.0491883,
2,0,0,1,0,46205,0.0480414,0.0477122,-0.113489,24,-0.00441886,10,-5.41483e-06,-3.94504,0.809627,0.0728731,-0.322446,0.0477122,
2,0,0,1,0,46206.5,0.0465432,0.0462064,-0.112628,24,-0.00460488,10,-5.20412e-06,-3.94835,0.757157,0.0779231,-0.344139,0.0462064,
2,0,0,1,0,46208,0.045045,0.0447133,-0.112084,24,-0.00479007,10,-5.01164e-06,-3.95046,0.698261,0.0844957,-0.371517,0.0447133,
2,0,0,1,0,46209.5,0.0435468,0.0432584,-0.111596,24,-0.00497431,10,-4.82745e-06,-3.95235,0.749262,0.0787442,-0.344744,0.0432584,
2,0,0,1,0,46211,0.0420486,0.0417124,-0.111735,24,-0.00515812,10,-4.66075e-06,-3.95181,1.48089,0.0398408,-0.173073,0.0417124,
2,0,0,1,0,46212.5,0.0405504,0.0402321,-0.111874,24,-0.00534163,10,-4.5009e-06,-3.95127,0.847508,0.0696159,-0.301515,0.0402321,
2,0,0,1,0,46214,0.0390522,0.0386987,-0.110811,24,-0.00552436,10,-4.28825e-06,-3.95542,0.547747,0.107714,-0.463726,0.0386987,
2,0,0,1,0,46215.5,0.037554,0.0371823,-0.109874,24,-0.00570596,10,-4.08537e-06,-3.9591,1.05472,0.0559389,-0.240734,0.03718226,
2,0,0,1,0,46217,0.0360558,0.0357285,-0.109225,24,-0.00588639,10,-3.90243e-06,-3.96168,0.755249,0.0781199,-0.334721,0.0357285,
2,0,0,1,0,46218.5,0.0345576,0.0342661,-0.109616,24,-0.00606663,10,-3.75612e-06,-3.96012,0.795654,0.0741528,-0.315057,0.0342661,
2,0,0,1,0,46220,0.0330594,0.0327253,-0.108648,24,-0.0062463,10,-3.55555e-06,-3.96398,0.348698,0.169201,-0.71575,0.0327253,
2,0,0,1,0,46221.5,0.0315613,0.0312229,-0.107934,24,-0.00642483,10,-3.37001e-06,-3.96684,0.514587,0.114655,-0.484206,0.0312229,
2,0,0,1,0,46223,0.0300631,0.0297425,-0.107796,24,-0.00660182,10,-3.20612e-06,-3.9674,0.624974,0.0944039,-0.396632,0.0297425,
2,0,0,1,0,46224.5,0.0285649,0.0282409,-0.107243,24,-0.00677887,10,-3.02864e-06,-3.96963,1.93971,0.030417,-0.126862,0.0282409,
2,0,0,1,0,46226,0.0270667,0.0267097,-0.1067,24,-0.00695522,10,-2.84993e-06,-3.97184,0.860801,0.0685408,-0.284814,0.02670973,
2,0,0,1,0,46227.5,0.0255685,0.0252283,-0.106435,24,-0.007131,10,-2.68516e-06,-3.97292,0.820244,0.0719298,-0.298576,0.0252283,
2,0,0,1,0,46229,0.0240703,0.0237787,-0.105624,24,-0.00730553,10,-2.51161e-06,-3.97624,1.58865,0.0371386,-0.153839,0.02377874,
2,0,0,1,0,46230.5,0.0225722,0.0222412,-0.105395,24,-0.00747984,10,-2.34412e-06,-3.97718,-1.46434,-0.0402913,0.166005,0.0222412,
2,0,0,1,0,46232,0.021074,0.0207652,-0.105487,24,-0.00765416,10,-2.19045e-06,-3.9768,5.03502,0.0117179,-0.0482391,0.02076517,
2,0,0,1,0,46233.5,0.0195758,0.0192244,-0.10568,24,-0.00782828,10,-2.03163e-06,-3.97601,-8.68418,-0.00679397,0.0280155,0.0192244,
2,0,0,1,0,46235,0.0180776,0.0177748,-0.104724,24,-0.00800193,10,-1.86145e-06,-3.97995,-29.9929,-0.00196713,0.00808869,0.0177748,
2,0,0,1,0,46236.4,0.0165794,0.0162425,-0.105268,24,-0.00817557,10,-1.70982e-06,-3.9777,-2.01899,-0.0292226,0.120123,0.0162425,
2,0,0,1,0,46237.9,0.0150812,0.0147176,-0.105959,24,-0.0083496,10,-1.55946e-06,-3.97486,-1.11641,-0.0528481,0.218068,0.0147176,
2,0,0,1,0,46239.4,0.013583,0.0132267,-0.105787,24,-0.00852388,10,-1.39922e-06,-3.97557,-0.954707,-0.0617991,0.254949,0.0132267,
2,0,0,1,0,46240.9,0.0120848,0.0117474,-0.106193,24,-0.00869875,10,-1.2475e-06,-3.9739,-0.762238,-0.0774036,0.321846,0.0117474,
2,0,0,1,0,46242.4,0.0105866,0.0102554,-0.106836,24,-0.00887398,10,-1.09564e-06,-3.97128,-0.828088,-0.0712485,0.297152,0.0102554,
2,0,0,1,0,46243.9,0.00908843,0.00873158,-0.106446,24,-0.00904966,10,-9.29445e-07,-3.97287,-1.22616,-0.0481178,0.201332,0.00873158,
2,0,0,1,0,46245.4,0.00759024,0.00724068,-0.106613,24,-0.00922544,10,-7.7195e-07,-3.97219,-1.2783,-0.0461551,0.193121,0.00724068,
2,0,0,1,0,46246.9,0.00609203,0.00576878,-0.10796,24,-0.00940191,10,-6.228e-07,-3.96674,-0.518473,-0.113796,0.477843,0.00576878,
2,0,0,1,0,46248.4,0.00459384,0.00427363,-0.108758,24,-0.00957917,10,-4.64791e-07,-3.96354,-0.546036,-0.108052,0.457038,0.00427363,
2,0,0,1,0,46249.9,0.00309563,0.00277098,-0.109669,24,-0.00975803,10,-3.0389e-07,-3.95992,-0.507784,-0.116191,0.49552,0.00277098,
2,0,0,1,0,46251.4,0.00159744,0.00121967,-0.11016,24,-0.00994,10,-1.34358e-07,-3.95798, , , ,0.001219666,
2,0,0,1,0,46252.8,0.000199235,-0.000168782,-0.11069,24,-0.0101088,10,1.86824e-08,-3.95589, , , ,-0.000168782,