File: Figure_codes/Fig_3-5/rawdata_trumpetplot_data/after 10th/20221101_1-115_003_TrumpetPlot_ParaChange_from10_every3_10_CV_C01_33.csv
mode,ox/red,error,control changes,counter inc.,time/s,control/V,Ewe/V,<I>/mA,cycle number,(Q-Qo)/C,I Range,P/W,log(|I|),Tafel slope mV/dec,alpha_eff,dI/d(E-IR),E-IR/V,
2,1,0,0,0,66204.8,-2.44065e-05,-0.000344411,5.14978,34,0.0000000E+000,10,-1.77364e-06,-2.28821, , , ,-0.000344411,
2,1,0,1,0,66204.8,0.00179726,0.00137583,5.79825,34,4.86437e-05,10,7.97743e-06,-2.2367, , , ,0.00137583,
2,1,0,1,0,66204.8,0.00379485,0.00344999,6.29681,34,0.000109413,10,2.17239e-05,-2.20088,0.0667562,0.883813,214.683,0.00344999,
2,1,0,1,0,66204.9,0.00579244,0.00543746,6.67021,34,0.000174352,10,3.6269e-05,-2.17586,0.0881586,0.669248,173.387,0.00543746,
2,1,0,1,0,66204.9,0.00779002,0.00746071,6.99222,34,0.000242747,10,5.21669e-05,-2.15539,0.104106,0.566729,154.272,0.00746071,
2,1,0,1,0,66204.9,0.00977853,0.00944912,7.2891,34,0.000313501,10,6.88756e-05,-2.13733,0.122031,0.483486,137.014,0.00944912,
2,1,0,1,0,66204.9,0.0117761,0.0114394,7.53735,34,0.000387692,10,8.62228e-05,-2.12278,0.144957,0.407018,119.558,0.0114394,
2,1,0,1,0,66204.9,0.0137737,0.0134653,7.76926,34,0.000464207,10,0.000104615,-2.10962,0.167857,0.35149,106.33,0.0134653,
2,1,0,1,0,66204.9,0.0157713,0.0155033,7.96946,34,0.000542946,10,0.000123553,-2.09857,0.181208,0.325593,101.256,0.0155033,
2,1,0,1,0,66204.9,0.017778,0.0174354,8.17126,34,0.000623711,10,0.000142469,-2.08771,0.199394,0.295896,94.1547,0.0174354,
2,1,0,1,0,66204.9,0.0197755,0.0194405,8.34017,34,0.00070628,10,0.000162137,-2.07883,0.233103,0.253108,82.336,0.0194405,
2,1,0,1,0,66204.9,0.0217731,0.0214464,8.50151,34,0.000790491,10,0.000182326,-2.0705,0.255808,0.230642,76.4497,0.0214464,
2,1,0,1,0,66204.9,0.0237707,0.0234696,8.6482,34,0.000876281,10,0.00020297,-2.06307,0.272785,0.216287,72.9912,0.0234696,
2,1,0,1,0,66205,0.0257774,0.0254616,8.79459,34,0.000963511,10,0.000223925,-2.05578,0.285923,0.206349,70.7618,0.0254616,
2,1,0,1,0,66205,0.027775,0.0274086,8.92692,34,0.00105214,10,0.000244674,-2.0493,0.312902,0.188558,65.6747,0.0274086,
2,1,0,1,0,66205,0.0297726,0.0294413,9.05595,34,0.00114209,10,0.000266619,-2.04307,0.352089,0.167571,59.166,0.0294413,
2,1,0,1,0,66205,0.0317701,0.0314889,9.16834,34,0.00123327,10,0.000288701,-2.03771,0.335683,0.175761,62.9714,0.0314889,
2,1,0,1,0,66205,0.0337586,0.0334091,9.30581,34,0.00132473,10,0.000310899,-2.03125,0.344622,0.171202,62.0663,0.0334091,
2,1,0,1,0,66205,0.0357562,0.0354037,9.41132,34,0.00141832,10,0.000333196,-2.02635,0.400294,0.147392,54.1486,0.0354037,
2,1,0,1,0,66205,0.0377538,0.0374016,9.52199,34,0.001513,10,0.000356137,-2.02127,0.401439,0.146971,54.6068,0.0374016,
2,1,0,1,0,66205,0.0397514,0.0394105,9.63012,34,0.00160878,10,0.000379528,-2.01637,0.378953,0.155692,58.5694,0.0394105,
2,1,0,1,0,66205,0.0417399,0.0414195,9.75732,34,0.00170474,10,0.000404143,-2.01067,0.40343,0.146246,55.5967,0.0414195,
2,1,0,1,0,66205,0.0437375,0.0434124,9.85261,34,0.00180281,10,0.000427725,-2.00645,0.440302,0.133999,51.5645,0.0434124,
2,1,0,1,0,66205.1,0.0457351,0.0454235,9.96379,34,0.00190189,10,0.00045259,-2.00158,0.419486,0.140648,54.675,0.0454235,
2,1,0,1,0,66205.1,0.0477327,0.0473808,10.0696,34,0.00200207,10,0.000477105,-1.99699,0.41094,0.143573,56.4611,0.04738082,
2,1,0,1,0,66205.1,0.0497393,0.0494336,10.1902,34,0.00210332,10,0.000503738,-1.99182,0.434731,0.135716,53.9062,0.0494336,
2,1,0,1,0,66205.1,0.0517369,0.0514013,10.2863,34,0.00220571,10,0.00052873,-1.98774,0.436329,0.135219,54.3405,0.0514013,
2,1,0,1,0,66205.1,0.0537345,0.0533881,10.4051,34,0.00230919,10,0.000555508,-1.98275,0.431099,0.13686,55.5382,0.0533881,
2,1,0,1,0,66205.1,0.0557321,0.05544,10.5106,34,0.00241378,10,0.000582709,-1.97837,0.449291,0.131318,53.8779,0.05544,
2,1,0,1,0,66205.1,0.0577297,0.0574043,10.6215,34,0.00251945,10,0.000609718,-1.97382,0.431066,0.13687,56.7411,0.0574043,
2,1,0,1,0,66205.1,0.0597364,0.0593972,10.7351,34,0.00262629,10,0.000637637,-1.96919,0.437916,0.134729,56.4462,0.0593972,
2,1,0,1,0,66205.1,0.0617339,0.0614482,10.8497,34,0.00273419,10,0.000666696,-1.96458,0.4663,0.126528,53.5421,0.0614482,
2,1,0,1,0,66205.1,0.0637315,0.063435,10.9513,34,0.00284321,10,0.000694698,-1.96053,0.442763,0.133254,57.0045,0.063435,
2,1,0,1,0,66205.2,0.0657291,0.0653784,11.0738,34,0.00295333,10,0.000723986,-1.9557,0.420422,0.140335,60.6323,0.06537842,
2,1,0,1,0,66205.2,0.0677176,0.0673853,11.1909,34,0.0030636,10,0.0007541,-1.95114,0.446041,0.132275,57.7602,0.0673853,
2,1,0,1,0,66205.2,0.0697152,0.0693784,11.3048,34,0.00317611,10,0.00078431,-1.94674,0.446805,0.132049,58.2652,0.0693784,
2,1,0,1,0,66205.2,0.0717128,0.0713531,11.422,34,0.00328976,10,0.000814999,-1.94226,0.451778,0.130595,58.2135,0.0713531,
2,1,0,1,0,66205.2,0.0737104,0.0734098,11.5395,34,0.00340456,10,0.000847112,-1.93781,0.464529,0.12701,57.1842,0.0734098,
2,1,0,1,0,66205.2,0.0756989,0.0753689,11.6517,34,0.00351942,10,0.000878175,-1.93361,0.458065,0.128803,58.5832,0.0753689,
2,1,0,1,0,66205.2,0.0776965,0.077341,11.7698,34,0.00363652,10,0.000910288,-1.92923,0.465752,0.126677,58.1745,0.077341,
2,1,0,1,0,66205.2,0.0796941,0.0793521,11.8834,34,0.0037548,10,0.000942973,-1.92506,0.478145,0.123394,57.228,0.0793521,
2,1,0,1,0,66205.2,0.0816917,0.0813354,11.9984,34,0.0038742,10,0.000975895,-1.92088,0.499719,0.118066,55.2606,0.0813354,
2,1,0,1,0,66205.2,0.0836983,0.0833292,12.1032,34,0.00399471,10,0.00100855,-1.9171,0.519349,0.113604,53.6713,0.0833292,
2,1,0,1,0,66205.3,0.0856959,0.0853412,12.2134,34,0.00411631,10,0.0010423,-1.91316,0.513191,0.114967,54.7997,0.08534117,
2,1,0,1,0,66205.3,0.0876935,0.0873687,12.3245,34,0.00423901,10,0.00107678,-1.90923,0.505204,0.116784,56.1768,0.0873687,
2,1,0,1,0,66205.3,0.0896911,0.0893486,12.4385,34,0.00436279,10,0.00111136,-1.90523,0.508362,0.116059,56.3311,0.0893486,
2,1,0,1,0,66205.3,0.0916978,0.0913632,12.5496,34,0.00448771,10,0.00114657,-1.90137,0.528648,0.111606,54.6581,0.0913632,
2,1,0,1,0,66205.3,0.0936953,0.0933995,12.6599,34,0.00461378,10,0.00118243,-1.89757,0.569082,0.103676,51.1913,0.0933995,
2,1,0,1,0,66205.3,0.0956929,0.0953715,12.7548,34,0.00474088,10,0.00121644,-1.89433,0.586461,0.100603,50.096,0.0953715,
2,1,0,1,0,66205.3,0.0976905,0.0973766,12.8592,34,0.00486895,10,0.00125218,-1.89079,0.551757,0.106931,53.6718,0.0973766,
2,1,0,1,0,66205.3,0.099679,0.0993455,12.968,34,0.00499678,10,0.00128832,-1.88713,0.561915,0.104998,53.1244,0.0993455,
2,1,0,1,0,66205.3,0.101677,0.101346,13.07,34,0.005127,10,0.00132459,-1.88372,0.593099,0.0994774,50.7399,0.101346,
2,1,0,1,0,66205.3,0.103674,0.103358,13.1716,34,0.00525821,10,0.00136139,-1.88036,0.543178,0.10862,55.8779,0.103358,
2,1,0,1,0,66205.4,0.105672,0.105349,13.2937,34,0.00539052,10,0.00140048,-1.87635,0.535035,0.110273,57.1725,0.105349,
2,1,0,1,0,66205.4,0.107656,0.107327,13.3986,34,0.00552263,10,0.00143803,-1.87294,0.536746,0.109922,57.5177,0.107327,
2,1,0,1,0,66205.4,0.109658,0.109324,13.5224,34,0.00565724,10,0.00147832,-1.86895,0.511293,0.115394,60.8876,0.109324,
2,1,0,1,0,66205.4,0.111655,0.111335,13.6426,34,0.00579308,10,0.00151889,-1.8651,0.489288,0.120583,64.2355,0.1113346,
2,1,0,1,0,66205.4,0.113653,0.113302,13.7779,34,0.0059302,10,0.00156107,-1.86082,0.477165,0.123647,66.4701,0.113302,
2,1,0,1,0,66205.4,0.115651,0.11532,13.9075,34,0.00606861,10,0.00160382,-1.85675,0.451004,0.130819,71.0726,0.11532,
2,1,0,1,0,66205.4,0.117657,0.11734,14.0649,34,0.00620853,10,0.00165037,-1.85186,0.421099,0.140109,76.8769,0.11734,
2,1,0,1,0,66205.4,0.119655,0.119284,14.2122,34,0.00634995,10,0.0016953,-1.84734,0.426429,0.138358,76.7678,0.119284,
2,1,0,1,0,66205.4,0.121652,0.12132,14.3704,34,0.00649285,10,0.00174341,-1.84253,0.42509,0.138794,77.8315,0.12132,
2,1,0,1,0,66205.4,0.12365,0.123322,14.5265,34,0.00663736,10,0.00179144,-1.83784,0.401769,0.14685,83.3162,0.123322,
2,1,0,1,0,66205.5,0.125657,0.125347,14.7059,34,0.00678357,10,0.00184335,-1.83251,0.406753,0.145051,83.1681,0.1253473,
2,1,0,1,0,66205.5,0.127654,0.12731,14.8582,34,0.00693143,10,0.00189159,-1.82804,0.411303,0.143446,83.2511,0.12731,
2,1,0,1,0,66205.5,0.129652,0.129324,15.037,34,0.00708094,10,0.00194466,-1.82284,0.403147,0.146349,85.8322,0.129324,
2,1,0,1,0,66205.5,0.131649,0.13128,15.1989,34,0.00723216,10,0.00199531,-1.81819,0.415411,0.142028,84.2709,0.13128,
2,1,0,1,0,66205.5,0.133638,0.133287,15.3709,34,0.00738354,10,0.00204874,-1.8133,0.432617,0.136379,81.7726,0.133287,
2,1,0,1,0,66205.5,0.135636,0.135325,15.5297,34,0.00753808,10,0.00210156,-1.80884,0.43655,0.135151,81.9318,0.135325,
2,1,0,1,0,66205.5,0.137633,0.13727,15.6973,34,0.0076942,10,0.00215478,-1.80417,0.474068,0.124455,76.1687,0.13727,
2,1,0,1,0,66205.5,0.139631,0.139337,15.8353,34,0.0078519,10,0.00220645,-1.80037,0.487905,0.120925,74.7894,0.139337,
2,1,0,1,0,66205.5,0.141619,0.141298,15.9986,34,0.00800947,10,0.00226057,-1.79592,0.483488,0.12203,76.1297,0.141298,
2,1,0,1,0,66205.5,0.143617,0.143294,16.1365,34,0.00817013,10,0.00231226,-1.79219,0.550109,0.107251,67.5317,0.143294,
2,1,0,1,0,66205.6,0.145614,0.145319,16.2701,34,0.00833215,10,0.00236435,-1.78861,0.608873,0.0969003,61.4869,0.145319,
2,1,0,1,0,66205.6,0.147612,0.147288,16.3821,34,0.00849542,10,0.00241289,-1.78563,0.633999,0.0930601,59.5226,0.147288,
2,1,0,1,0,66205.6,0.149619,0.149327,16.5087,34,0.0086599,10,0.00246519,-1.78229,0.678708,0.0869299,55.9555,0.149327,
2,1,0,1,0,66205.6,0.151616,0.151275,16.6052,34,0.00882552,10,0.00251195,-1.77976,0.826117,0.0714184,46.2696,0.151275,
2,1,0,1,0,66205.6,0.153614,0.153305,16.6927,34,0.00899202,10,0.00255908,-1.77747,0.999757,0.0590143,38.4216,0.153305,
2,1,0,1,0,66205.6,0.155611,0.155292,16.7595,34,0.00915931,10,0.00260262,-1.77574,1.17996,0.0500017,32.7022,0.155292,
2,1,0,1,0,66205.6,0.157618,0.157317,16.8239,34,0.00932722,10,0.00264669,-1.77407,1.97248,0.0299116,19.6101,0.157317,
2,1,0,1,0,66205.6,0.159616,0.159296,16.838,34,0.00949555,10,0.00268223,-1.77371,9.79556,0.00602313,3.95657,0.159296,
2,1,0,1,0,66205.6,0.161613,0.161336,16.8398,34,0.00966393,10,0.00271686,-1.77366,-4.42373,-0.0133372,-8.75519,0.161336,
2,1,0,1,0,66205.6,0.163611,0.163311,16.8029,34,0.00983216,10,0.0027441,-1.77462,-1.66358,-0.0354657,-23.2443,0.163311,
2,1,0,1,0,66205.7,0.165618,0.16531,16.7474,34,0.00999992,10,0.00276852,-1.77605,-0.956812,-0.0616631,-40.245,0.16531,
2,1,0,1,0,66205.7,0.167597,0.167259,16.644,34,0.0101652,10,0.00278386,-1.77874,-0.681864,-0.0865275,-56.1771,0.167259,
2,1,0,1,0,66205.7,0.169595,0.169279,16.5245,34,0.0103311,10,0.00279725,-1.78187,-0.520439,-0.113366,-72.9874,0.169279,
2,1,0,1,0,66205.7,0.171592,0.171278,16.3506,34,0.0104955,10,0.00280051,-1.78647,-0.399993,-0.147502,-94.0535,0.1712784,
2,1,0,1,0,66205.7,0.173572,0.173219,16.1539,34,0.0106563,10,0.00279816,-1.79172,-0.344518,-0.171254,-107.836,0.173219,
2,1,0,1,0,66205.7,0.175578,0.175267,15.9206,34,0.0108167,10,0.00279034,-1.79804,-0.305632,-0.193042,-119.871,0.175267,
2,1,0,1,0,66205.7,0.177576,0.177251,15.6706,34,0.0109746,10,0.00277763,-1.80491,-0.261526,-0.225599,-137.741,0.177251,
2,1,0,1,0,66205.7,0.179573,0.179251,15.3718,34,0.0111298,10,0.00275541,-1.81328,-0.244257,-0.241549,-144.953,0.179251,
2,1,0,1,0,66205.7,0.181571,0.181283,15.0862,34,0.0112821,10,0.00273486,-1.82142,-0.227768,-0.259035,-152.285,0.181283,
2,1,0,1,0,66205.7,0.183578,0.183269,14.7599,34,0.0114313,10,0.00270503,-1.83092,-0.207079,-0.284915,-164.097,0.183269,
2,1,0,1,0,66205.8,0.185575,0.185256,14.4341,34,0.0115772,10,0.00267401,-1.84061,-0.196677,-0.299985,-168.855,0.185256,
2,1,0,1,0,66205.8,0.187573,0.187231,14.0909,34,0.0117198,10,0.00263825,-1.85106,-0.195641,-0.301573,-165.938,0.187231,
2,1,0,1,0,66205.8,0.18957,0.189264,13.7691,34,0.011859,10,0.002606,-1.86109,-0.192452,-0.30657,-164.624,0.189264,
2,1,0,1,0,66205.8,0.191577,0.191226,13.4331,34,0.011995,10,0.00256877,-1.87182,-0.189819,-0.310823,-163.066,0.191226,
2,1,0,1,0,66205.8,0.193575,0.193236,13.1215,34,0.0121278,10,0.00253553,-1.88202,-0.195022,-0.302529,-154.86,0.193236,
2,1,0,1,0,66205.8,0.195572,0.195287,12.8043,34,0.0122574,10,0.00250052,-1.89264,-0.195822,-0.301293,-150.688,0.195287,
2,1,0,1,0,66205.8,0.19757,0.197268,12.5138,34,0.0123839,10,0.00246857,-1.90261,-0.200834,-0.293775,-143.516,0.197268,
2,1,0,1,0,66205.8,0.199558,0.199252,12.2352,34,0.0125064,10,0.00243789,-1.91239,-0.205629,-0.286924,-137.05,0.199252,
2,1,0,1,0,66205.8,0.201556,0.201248,11.9684,34,0.0126273,10,0.00240861,-1.92196,-0.207301,-0.28461,-132.938,0.201248,
2,1,0,1,0,66205.8,0.203553,0.203238,11.7054,34,0.0127457,10,0.00237898,-1.93161,-0.211591,-0.27884,-127.484,0.203238,
2,1,0,1,0,66205.9,0.205551,0.205197,11.465,34,0.0128614,10,0.00235258,-1.94063,-0.230508,-0.255957,-114.635,0.205197,
2,1,0,1,0,66205.9,0.20754,0.207215,11.2494,34,0.0129738,10,0.00233105,-1.94887,-0.24331,-0.242489,-106.454,0.207215,
2,1,0,1,0,66205.9,0.209537,0.209232,11.0354,34,0.0130852,10,0.00230896,-1.95721,-0.240219,-0.245609,-105.775,0.209232,
2,1,0,1,0,66205.9,0.211535,0.211242,10.8235,34,0.0131944,10,0.00228638,-1.96563,-0.250756,-0.235288,-99.5019,0.211242,
2,1,0,1,0,66205.9,0.213532,0.213217,10.6389,34,0.0133017,10,0.00226839,-1.9731,-0.267693,-0.220402,-91.5252,0.213217,
2,1,0,1,0,66205.9,0.215539,0.215218,10.4596,34,0.0134071,10,0.00225109,-1.98049,-0.281954,-0.209254,-85.4681,0.215218,
2,1,0,1,0,66205.9,0.217537,0.217249,10.2943,34,0.0135108,10,0.00223642,-1.9874,-0.288825,-0.204276,-82.0575,0.217249,
2,1,0,1,0,66205.9,0.219534,0.21926,10.128,34,0.0136129,10,0.00222065,-1.99448,-0.302368,-0.195126,-77.2155,0.21926,
2,1,0,1,0,66205.9,0.221532,0.221232,9.9867,34,0.0137135,10,0.00220938,-2.00058,-0.314628,-0.187523,-73.0554,0.221232,
2,1,0,1,0,66205.9,0.223534,0.223226,9.83818,34,0.0138125,10,0.00219614,-2.00709,-0.331585,-0.177933,-68.3886,0.223226,
2,1,0,1,0,66206,0.225536,0.22526,9.71127,34,0.0139103,10,0.00218756,-2.01272,-0.342502,-0.172262,-65.2632,0.22526,
2,1,0,1,0,66206,0.227534,0.227208,9.57834,34,0.0140067,10,0.00217627,-2.01871,-0.351493,-0.167855,-62.79,0.227208,
2,1,0,1,0,66206,0.229531,0.229265,9.4598,34,0.0141019,10,0.0021688,-2.02412,-0.369686,-0.159595,-58.9219,0.229265,
2,1,0,1,0,66206,0.231529,0.231206,9.34277,34,0.0141959,10,0.0021601,-2.02952,-0.411879,-0.143246,-52.3093,0.231206,
2,1,0,1,0,66206,0.233517,0.233184,9.25478,34,0.014288,10,0.00215807,-2.03363,-0.423974,-0.13916,-50.1933,0.233184,
2,1,0,1,0,66206,0.235515,0.235204,9.14207,34,0.01438,10,0.00215025,-2.03896,-0.403952,-0.146057,-52.1543,0.235204,
2,1,0,1,0,66206,0.237512,0.2372,9.04531,34,0.0144709,10,0.00214555,-2.04358,-0.440364,-0.13398,-47.3074,0.2372,
2,1,0,1,0,66206,0.23951,0.239191,8.95346,34,0.0145608,10,0.00214159,-2.04801,-0.485194,-0.121601,-42.5176,0.2391911,
2,1,0,1,0,66206,0.241499,0.241239,8.87358,34,0.014649,10,0.00214066,-2.0519,-0.471119,-0.125234,-43.3379,0.241239,
2,1,0,1,0,66206,0.243496,0.243163,8.78133,34,0.0147373,10,0.00213529,-2.05644,-0.497345,-0.11863,-40.7077,0.2431629,
2,1,0,1,0,66206,0.245494,0.245205,8.71215,34,0.0148247,10,0.00213626,-2.05987,-0.523821,-0.112634,-38.2619,0.245205,
2,1,0,1,0,66206.1,0.247491,0.247178,8.6277,34,0.0149114,10,0.00213258,-2.06411,-0.524528,-0.112482,-37.913,0.247178,
2,1,0,1,0,66206.1,0.249498,0.249181,8.56139,34,0.0149974,10,0.00213334,-2.06746,-0.545336,-0.10819,-36.1218,0.249181,
2,1,0,1,0,66206.1,0.251496,0.251194,8.48263,34,0.0150826,10,0.00213079,-2.07147,-0.562812,-0.104831,-34.7438,0.251194,
2,1,0,1,0,66206.1,0.253493,0.253148,8.42358,34,0.0151671,10,0.00213241,-2.0745,-0.59371,-0.0993751,-32.6479,0.253148,
2,1,0,1,0,66206.1,0.255491,0.255138,8.35389,34,0.015251,10,0.00213139,-2.07811,-0.65296,-0.0903577,-29.4956,0.255138,
2,1,0,1,0,66206.1,0.257497,0.25716,8.30525,34,0.0153343,10,0.00213578,-2.08065,-0.693321,-0.0850977,-27.5581,0.25716,
2,1,0,1,0,66206.1,0.259495,0.259193,8.24213,34,0.015417,10,0.0021363,-2.08396,-0.642592,-0.0918156,-29.5451,0.259193,
2,1,0,1,0,66206.1,0.261493,0.261209,8.18561,34,0.0154992,10,0.00213816,-2.08695,-0.673353,-0.0876212,-27.9935,0.2612091,
2,1,0,1,0,66206.1,0.26349,0.263178,8.13058,34,0.0155808,10,0.00213979,-2.08988,-0.783921,-0.0752627,-23.9038,0.263178,
2,1,0,1,0,66206.1,0.265479,0.265174,8.09083,34,0.015661,10,0.00214548,-2.09201,-0.739048,-0.0798324,-25.1759,0.265174,
2,1,0,1,0,66206.2,0.267476,0.267142,8.03078,34,0.0157416,10,0.00214536,-2.09524,-0.709288,-0.083182,-26.098,0.267142,
2,1,0,1,0,66206.2,0.269474,0.26912,7.98786,34,0.0158216,10,0.00214969,-2.09757,-0.789145,-0.0747645,-23.2949,0.26912,
2,1,0,1,0,66206.2,0.271471,0.271179,7.93674,34,0.0159013,10,0.00215228,-2.10036,-0.903457,-0.0653047,-20.2541,0.271179,
2,1,0,1,0,66206.2,0.27346,0.273145,7.90634,34,0.0159796,10,0.00215957,-2.10202,-0.814861,-0.072405,-22.3022,0.273145,
2,1,0,1,0,66206.2,0.275458,0.275139,7.84843,34,0.0160584,10,0.00215941,-2.10522,-0.793582,-0.0743465,-22.8081,0.2751385,
2,1,0,1,0,66206.2,0.277455,0.277133,7.81537,34,0.0161367,10,0.0021659,-2.10705,-0.833023,-0.0708264,-21.5748,0.277133,
2,1,0,1,0,66206.2,0.279453,0.27913,7.76231,34,0.0162146,10,0.0021667,-2.11001,-0.868221,-0.067955,-20.6179,0.27913,
2,1,0,1,0,66206.2,0.281455,0.281115,7.73327,34,0.016292,10,0.00217394,-2.11164,-0.978967,-0.0602676,-18.1713,0.281115,
2,1,0,1,0,66206.2,0.283457,0.283151,7.68925,34,0.0163691,10,0.00217722,-2.11412,-0.984185,-0.0599481,-18.0068,0.283151,
2,1,0,1,0,66206.2,0.285455,0.285185,7.65998,34,0.0164459,10,0.00218451,-2.11577,-0.8887,-0.0663891,-19.8192,0.2851854,
2,1,0,1,0,66206.3,0.287452,0.28717,7.6096,34,0.0165223,10,0.00218525,-2.11864,-0.904195,-0.0652514,-19.4088,0.28717,
2,1,0,1,0,66206.3,0.28945,0.289137,7.58328,34,0.0165982,10,0.00219261,-2.12014,-1.09005,-0.0541261,-16.007,0.289137,
2,1,0,1,0,66206.3,0.291456,0.291147,7.54594,34,0.0166739,10,0.00219698,-2.12229,-0.975004,-0.0605126,-17.8242,0.2911467,
2,1,0,1,0,66206.3,0.293454,0.29315,7.51175,34,0.0167492,10,0.00220207,-2.12426,-0.984119,-0.0599521,-17.5729,0.29315,
2,1,0,1,0,66206.3,0.295452,0.295159,7.47543,34,0.0168241,10,0.00220644,-2.12636,-1.1154,-0.052896,-15.4432,0.295159,
2,1,0,1,0,66206.3,0.297449,0.29715,7.44999,34,0.0168988,10,0.00221376,-2.12784,-1.1537,-0.0511397,-14.8605,0.29715,
2,1,0,1,0,66206.3,0.299438,0.299139,7.41629,34,0.0169724,10,0.0022185,-2.12981,-0.077777,-0.758579,-213.134,0.299139,
2,1,0,1,0,66206.3,0.299746,0.299476,6.95423,34,0.0170037,10,0.00208262,-2.15775,0.00954249,6.18287,1471.63,0.2994757,
2,1,0,1,0,66206.3,0.29774,0.297461,4.9474,34,0.017062,10,0.00147166,-2.30562,0.0141879,4.15848,827.149,0.297461,
2,1,0,1,0,66206.3,0.295742,0.295425,3.6036,34,0.0171043,10,0.00106459,-2.44326,0.0141255,4.17684,591.813,0.295425,
2,1,0,1,0,66206.4,0.293745,0.293446,2.5711,34,0.0171349,10,0.000754479,-2.58988,0.01244,4.74276,471.409,0.293446,
2,1,0,1,0,66206.4,0.291747,0.29143,1.72015,34,0.0171561,10,0.000501302,-2.76443,0.00992305,5.94575,388.385,0.29143,
2,1,0,1,0,66206.4,0.289745,0.289438,1.01433,34,0.0171696,10,0.000293584,-2.99382,0.00636781,9.26536,329.925,0.2894375,
2,1,0,1,0,66206.4,0.287743,0.287454,0.408579,34,0.0171765,10,0.000117448,-3.38872,0.00384688,15.3371,274.954,0.287454,
2,0,0,1,0,66206.4,0.285745,0.285416,-0.0913714,34,0.017178,10,-2.60789e-05,-4.03919,-0.0333461,-1.76932,238.857,0.2854161,
2,0,0,1,0,66206.4,0.283748,0.283495,-0.537027,34,0.0171747,10,-0.000152245,-3.27,-0.0039247,-15.033,210.86,0.283495,
2,0,0,1,0,66206.4,0.28175,0.281475,-0.922289,34,0.0171673,10,-0.000259602,-3.03513,-0.0108458,-5.43989,180.521,0.281475,
2,0,0,1,0,66206.4,0.279761,0.279453,-1.26667,34,0.0171564,10,-0.000353976,-2.89734,-0.0174343,-3.38412,160.328,0.2794534,
2,0,0,1,0,66206.4,0.277764,0.277489,-1.56143,34,0.0171422,10,-0.00043328,-2.80648,-0.0248177,-2.37733,142.45,0.277489,
2,0,0,1,0,66206.4,0.275766,0.275432,-1.83959,34,0.0171251,10,-0.000506681,-2.73528,-0.0331209,-1.78135,125.377,0.275432,
2,0,0,1,0,66206.5,0.273769,0.273438,-2.06928,34,0.0171055,10,-0.00056582,-2.68418,-0.0409624,-1.44034,115.827,0.273438,
2,0,0,1,0,66206.5,0.27178,0.271469,-2.29852,34,0.0170838,10,-0.000623977,-2.63855,-0.0486544,-1.21264,107.723,0.271469,
2,0,0,1,0,66206.5,0.269783,0.269472,-2.49654,34,0.0170599,10,-0.000672748,-2.60266,-0.0594344,-0.992692,96.2898,0.269472,
2,0,0,1,0,66206.5,0.267785,0.267484,-2.68222,34,0.0170339,10,-0.000717452,-2.57151,-0.0712393,-0.828194,86.11,0.267484,
2,0,0,1,0,66206.5,0.265787,0.265494,-2.83909,34,0.0170063,10,-0.000753761,-2.54682,-0.0809563,-0.728788,80.8053,0.265494,
2,0,0,1,0,66206.5,0.263781,0.263478,-3.00597,34,0.0169771,10,-0.000792007,-2.52201,-0.0893653,-0.660211,77.0287,0.263478,
2,0,0,1,0,66206.5,0.261783,0.26152,-3.14524,34,0.0169463,10,-0.000822541,-2.50235,-0.105488,-0.559305,68.6051,0.2615197,
2,0,0,1,0,66206.5,0.259786,0.259424,-3.28412,34,0.0169141,10,-0.000851978,-2.48358,-0.118891,-0.496254,63.3769,0.259424,
2,0,0,1,0,66206.5,0.257788,0.257454,-3.4029,34,0.0168807,10,-0.000876091,-2.46815,-0.127421,-0.463032,61.5177,0.2574541,
2,0,0,1,0,66206.5,0.255781,0.25547,-3.52735,34,0.016846,10,-0.00090113,-2.45255,-0.139958,-0.421556,57.8537,0.25547,
2,0,0,1,0,66206.6,0.253784,0.253483,-3.63264,34,0.0168102,10,-0.000920812,-2.43978,-0.156638,-0.376664,53.4101,0.253483,
2,0,0,1,0,66206.6,0.251786,0.251462,-3.74143,34,0.0167733,10,-0.000940825,-2.42696,-0.169636,-0.347803,50.67,0.251462,
2,0,0,1,0,66206.6,0.249789,0.249487,-3.83513,34,0.0167354,10,-0.000956814,-2.41622,-0.176278,-0.334698,50.1552,0.249487,
2,0,0,1,0,66206.6,0.2478,0.247508,-3.9397,34,0.0166969,10,-0.000975109,-2.40454,-0.191523,-0.308057,47.221,0.247508,
2,0,0,1,0,66206.6,0.245802,0.245534,-4.0218,34,0.0166571,10,-0.000987488,-2.39558,-0.210132,-0.280776,44.1405,0.245534,
2,0,0,1,0,66206.6,0.243805,0.243467,-4.11807,34,0.0166164,10,-0.00100262,-2.38531,-0.229788,-0.256758,41.1244,0.243467,
2,0,0,1,0,66206.6,0.241807,0.241507,-4.1874,34,0.0165749,10,-0.00101129,-2.37806,-0.240126,-0.245705,40.2471,0.241507,
2,0,0,1,0,66206.6,0.239819,0.239511,-4.2773,34,0.016533,10,-0.00102446,-2.36883,-0.245908,-0.239927,39.9456,0.239511,
2,0,0,1,0,66206.6,0.237821,0.237544,-4.34569,34,0.0164899,10,-0.00103229,-2.36194,-0.268557,-0.219693,37.3082,0.2375443,
2,0,0,1,0,66206.6,0.235824,0.235518,-4.42626,34,0.016446,10,-0.00104247,-2.35396,-0.294534,-0.200316,34.5161,0.2355184,
2,0,0,1,0,66206.7,0.233826,0.2335,-4.48527,34,0.0164015,10,-0.00104731,-2.34821,-0.294781,-0.200149,35.1224,0.2335,
2,0,0,1,0,66206.7,0.231824,0.231502,-4.56732,34,0.0163563,10,-0.00105734,-2.34034,-0.301098,-0.195949,34.828,0.231502,
2,0,0,1,0,66206.7,0.229822,0.229516,-4.62402,34,0.0163103,10,-0.00106129,-2.33498,-0.354679,-0.166347,30.0408,0.229516,
2,0,0,1,0,66206.7,0.227824,0.227489,-4.68789,34,0.0162638,10,-0.00106644,-2.32902,-0.354366,-0.166494,30.4399,0.227489,
2,0,0,1,0,66206.7,0.225827,0.225514,-4.74585,34,0.0162166,10,-0.00107026,-2.32369,-0.354379,-0.166488,30.8548,0.225514,
2,0,0,1,0,66206.7,0.223829,0.223529,-4.81006,34,0.0161687,10,-0.00107519,-2.31785,-0.35426,-0.166545,31.2529,0.223529,
2,0,0,1,0,66206.7,0.221822,0.221497,-4.8714,34,0.0161203,10,-0.001079,-2.31235,-0.380073,-0.155233,29.4998,0.221497,
2,0,0,1,0,66206.7,0.219825,0.219494,-4.9291,34,0.0160713,10,-0.00108191,-2.30723,-0.388835,-0.151735,29.1902,0.219494,
2,0,0,1,0,66206.7,0.217827,0.217513,-4.98769,34,0.0160217,10,-0.00108489,-2.3021,-0.412783,-0.142932,27.8048,0.217513,
2,0,0,1,0,66206.7,0.21583,0.215491,-5.04041,34,0.0159715,10,-0.00108616,-2.29753,-0.411842,-0.143259,28.1992,0.215491,
2,0,0,1,0,66206.8,0.213841,0.213523,-5.10019,34,0.0159213,10,-0.00108901,-2.29241,-0.390883,-0.15094,30.0397,0.2135234,
2,0,0,1,0,66206.8,0.211844,0.211542,-5.15901,34,0.01587,10,-0.00109135,-2.28743,-0.463355,-0.127332,25.5983,0.211542,
2,0,0,1,0,66206.8,0.209846,0.209525,-5.20256,34,0.0158182,10,-0.00109006,-2.28378,-0.468862,-0.125837,25.5884,0.209525,
2,0,0,1,0,66206.8,0.207848,0.207512,-5.26213,34,0.0157659,10,-0.00109196,-2.27884,-0.431872,-0.136615,28.0386,0.207512,
2,0,0,1,0,66206.8,0.20586,0.205491,-5.31567,34,0.0157135,10,-0.00109232,-2.27444,-0.4407,-0.133878,27.781,0.205491,
2,0,0,1,0,66206.8,0.203862,0.203541,-5.37246,34,0.0156601,10,-0.00109352,-2.26983,-0.512212,-0.115187,24.1091,0.2035411,
2,0,0,1,0,66206.8,0.201865,0.201545,-5.4108,34,0.0156062,10,-0.00109052,-2.26674,-0.51283,-0.115048,24.3422,0.201545,
2,0,0,1,0,66206.8,0.199867,0.199502,-5.47077,34,0.0155518,10,-0.00109143,-2.26195,-0.472225,-0.12494,26.6455,0.199502,
2,0,0,1,0,66206.8,0.19786,0.197494,-5.51873,34,0.0154969,10,-0.00108992,-2.25816,-0.50895,-0.115925,24.9733,0.1974939,
2,0,0,1,0,66206.8,0.195863,0.195551,-5.56944,34,0.0154414,10,-0.00108911,-2.25419,-0.509335,-0.115837,25.171,0.195551,
2,0,0,1,0,66206.9,0.193865,0.193578,-5.61729,34,0.0153855,10,-0.00108739,-2.25047,-0.499141,-0.118203,25.9317,0.193578,
2,0,0,1,0,66206.9,0.191868,0.191538,-5.67352,34,0.015329,10,-0.00108669,-2.24615,-0.511264,-0.1154,25.5301,0.1915378,
2,0,0,1,0,66206.9,0.189861,0.18954,-5.7204,34,0.0152721,10,-0.00108424,-2.24257,-0.517351,-0.114043,25.4769,0.18954,
2,0,0,1,0,66206.9,0.187863,0.187547,-5.7752,34,0.0152146,10,-0.00108312,-2.23843,-0.531039,-0.111103,25.0172,0.187547,
2,0,0,1,0,66206.9,0.185866,0.185592,-5.81916,34,0.0151566,10,-0.00107999,-2.23514,-0.540218,-0.109215,24.828,0.185592,
2,0,0,1,0,66206.9,0.183868,0.183524,-5.87508,34,0.0150981,10,-0.00107822,-2.23099,-0.481485,-0.122538,28.0988,0.1835237,
2,0,0,1,0,66206.9,0.18188,0.181559,-5.9325,34,0.0150396,10,-0.00107709,-2.22676,-0.465736,-0.126681,29.3361,0.1815585,
2,0,0,1,0,66206.9,0.179882,0.179514,-5.99272,34,0.01498,10,-0.00107578,-2.22238,-0.53173,-0.110958,25.9135,0.179514,
2,0,0,1,0,66206.9,0.177885,0.177561,-6.03608,34,0.0149199,10,-0.00107177,-2.21925,-0.51988,-0.113488,26.7756,0.177561,
2,0,0,1,0,66206.9,0.175887,0.175565,-6.09845,34,0.0148592,10,-0.00107067,-2.21478,-0.490128,-0.120377,28.6239,0.175565,
2,0,0,1,0,66207,0.173907,0.173581,-6.15001,34,0.0147986,10,-0.00106752,-2.21112,-0.461356,-0.127884,30.7427,0.173581,
2,0,0,1,0,66207,0.171901,0.171565,-6.22143,34,0.0147366,10,-0.00106738,-2.20611,-0.471318,-0.125181,30.3409,0.171565,
2,0,0,1,0,66207,0.169903,0.16958,-6.27139,34,0.0146742,10,-0.0010635,-2.20264,-0.466933,-0.126356,30.9832,0.16958,
2,0,0,1,0,66207,0.167906,0.167579,-6.34492,34,0.0146111,10,-0.00106328,-2.19757,-0.438132,-0.134663,33.308,0.167579,
2,0,0,1,0,66207,0.165908,0.16558,-6.40464,34,0.0145473,10,-0.00106048,-2.19351,-0.435132,-0.135591,33.9344,0.1655799,
2,0,0,1,0,66207,0.163901,0.163566,-6.48109,34,0.0144829,10,-0.00106009,-2.18835,-0.42103,-0.140132,35.415,0.163566,
2,0,0,1,0,66207,0.161904,0.161553,-6.54724,34,0.0144177,10,-0.00105773,-2.18394,-0.399159,-0.147811,37.8176,0.161553,
2,0,0,1,0,66207,0.159906,0.159601,-6.63104,34,0.0143518,10,-0.00105832,-2.17842,-0.373338,-0.158034,40.8786,0.159601,
2,0,0,1,0,66207,0.157909,0.157586,-6.70943,34,0.0142851,10,-0.00105731,-2.17331,-0.349661,-0.168735,44.2472,0.157586,
2,0,0,1,0,66207,0.155902,0.155599,-6.80813,34,0.0142174,10,-0.00105934,-2.16697,-0.334202,-0.17654,46.8709,0.155599,
2,0,0,1,0,66207.1,0.153904,0.153577,-6.8973,34,0.0141489,10,-0.00105927,-2.16132,-0.334999,-0.17612,47.4509,0.153577,
2,0,0,1,0,66207.1,0.151907,0.151559,-6.99985,34,0.0140794,10,-0.00106089,-2.15491,-0.307008,-0.192178,52.5148,0.151559,
2,0,0,1,0,66207.1,0.149909,0.149574,-7.10753,34,0.0140088,10,-0.0010631,-2.14828,-0.266565,-0.221334,61.5098,0.149574,
2,0,0,1,0,66207.1,0.147921,0.147601,-7.24325,34,0.0139378,10,-0.00106911,-2.14007,-0.25754,-0.229091,64.6861,0.1476014,
2,0,0,1,0,66207.1,0.145923,0.145609,-7.36402,34,0.0138647,10,-0.00107227,-2.13289,-0.249001,-0.236947,68.2315,0.145609,
2,0,0,1,0,66207.1,0.143926,0.143611,-7.5155,34,0.0137903,10,-0.00107931,-2.12404,-0.217749,-0.270954,79.5371,0.143611,
2,0,0,1,0,66207.1,0.141928,0.141618,-7.68144,34,0.0137143,10,-0.00108783,-2.11456,-0.196126,-0.300828,90.3368,0.1416183,
2,0,0,1,0,66207.1,0.139939,0.139616,-7.87643,34,0.0136373,10,-0.00109968,-2.10367,-0.191215,-0.308553,94.7595,0.139616,
2,0,0,1,0,66207.1,0.137942,0.137624,-8.05994,34,0.0135577,10,-0.00110924,-2.09367,-0.180812,-0.326305,102.903,0.137624,
2,0,0,1,0,66207.1,0.135944,0.135615,-8.28819,34,0.0134759,10,-0.001124,-2.08154,-0.164763,-0.358091,115.846,0.135615,
2,0,0,1,0,66207.2,0.133947,0.133625,-8.52319,34,0.0133918,10,-0.00113891,-2.0694,-0.15414,-0.382769,127.56,0.133625,
2,0,0,1,0,66207.2,0.13194,0.131641,-8.79506,34,0.0133053,10,-0.00115779,-2.05576,-0.147991,-0.398674,136.787,0.131641,
2,0,0,1,0,66207.2,0.129942,0.129661,-9.06542,34,0.013216,10,-0.00117543,-2.04261,-0.146478,-0.402792,142.674,0.129661,
2,0,0,1,0,66207.2,0.127945,0.127659,-9.36311,34,0.0131238,10,-0.00119529,-2.02858,-0.145709,-0.404917,147.938,0.127659,
2,0,0,1,0,66207.2,0.125947,0.125614,-9.66419,34,0.0130286,10,-0.00121395,-2.01483,-0.140752,-0.419178,158.363,0.125614,
2,0,0,1,0,66207.2,0.123941,0.123608,-10.0048,34,0.0129302,10,-0.00123667,-1.99979,-0.139724,-0.422261,164.605,0.123608,
2,0,0,1,0,66207.2,0.121943,0.12163,-10.3198,34,0.0128286,10,-0.00125521,-1.98633,-0.148206,-0.398094,160.321,0.12163,
2,0,0,1,0,66207.2,0.119945,0.119645,-10.64,34,0.0127237,10,-0.00127303,-1.97306,-0.152854,-0.385989,160.18,0.119645,
2,0,0,1,0,66207.2,0.117948,0.117677,-10.9531,34,0.0126157,10,-0.00128893,-1.96046,-0.149899,-0.393597,168.502,0.1176768,
2,0,0,1,0,66207.2,0.115946,0.115693,-11.3059,34,0.0125043,10,-0.00130802,-1.94669,-0.155919,-0.378401,166.64,0.115693,
2,0,0,1,0,66207.3,0.113962,0.113667,-11.6214,34,0.0123908,10,-0.00132096,-1.93474,-0.167717,-0.351782,159.602,0.113667,
2,0,0,1,0,66207.3,0.111964,0.111655,-11.9504,34,0.0122728,10,-0.00133433,-1.92262,-0.173999,-0.339082,157.956,0.1116552,
2,0,0,1,0,66207.3,0.109967,0.109645,-12.2567,34,0.0121517,10,-0.00134388,-1.91163,-0.184167,-0.320361,153.22,0.109645,
2,0,0,1,0,66207.3,0.107969,0.107647,-12.5646,34,0.0120276,10,-0.00135254,-1.90085,-0.192354,-0.306727,150.271,0.107647,
2,0,0,1,0,66207.3,0.10598,0.105665,-12.8547,34,0.0119017,10,-0.00135829,-1.89094,-0.201165,-0.293291,147.138,0.1056648,
2,0,0,1,0,66207.3,0.103983,0.103674,-13.1492,34,0.0117716,10,-0.00136322,-1.8811,-0.21473,-0.274764,140.834,0.103674,
2,0,0,1,0,66207.3,0.101985,0.101676,-13.4166,34,0.0116388,10,-0.00136414,-1.87236,-0.234935,-0.251133,131.438,0.101676,
2,0,0,1,0,66207.3,0.0999877,0.0996671,-13.6758,34,0.0115033,10,-0.00136303,-1.86405,-0.248035,-0.23787,126.9,0.0996671,
2,0,0,1,0,66207.3,0.0979811,0.097662,-13.9259,34,0.0113652,10,-0.00136003,-1.85618,-0.263531,-0.223883,121.6,0.097662,
2,0,0,1,0,66207.3,0.0959835,0.0956752,-14.1612,34,0.0112247,10,-0.00135488,-1.8489,-0.288833,-0.20427,112.786,0.0956752,
2,0,0,1,0,66207.4,0.0939859,0.0937075,-14.3719,34,0.011082,10,-0.00134675,-1.84249,-0.312762,-0.188642,105.809,0.0937075,
2,0,0,1,0,66207.4,0.0919883,0.0916695,-14.5851,34,0.0109371,10,-0.00133701,-1.83609,-0.327983,-0.179887,102.325,0.0916695,
2,0,0,1,0,66207.4,0.0899816,0.0897122,-14.7807,34,0.0107902,10,-0.00132601,-1.8303,-0.371253,-0.158921,91.591,0.08971215,
2,0,0,1,0,66207.4,0.087984,0.087669,-14.9515,34,0.0106415,10,-0.00131078,-1.82532,-0.438625,-0.134511,78.4257,0.087669,
2,0,0,1,0,66207.4,0.0859865,0.0856483,-15.0994,34,0.0104912,10,-0.00129324,-1.82104,-0.474707,-0.124287,73.2324,0.0856483,
2,0,0,1,0,66207.4,0.0839889,0.0836606,-15.245,34,0.0103394,10,-0.00127541,-1.81687,-0.552338,-0.106819,63.4708,0.0836606,
2,0,0,1,0,66207.4,0.0820004,0.0816738,-15.3517,34,0.0101879,10,-0.00125383,-1.81384,-0.671784,-0.0878259,52.6116,0.0816738,
2,0,0,1,0,66207.4,0.0800028,0.0796784,-15.4545,34,0.0100339,10,-0.00123139,-1.81094,-0.831927,-0.0709197,42.7227,0.0796784,
2,0,0,1,0,66207.4,0.0780052,0.0777299,-15.5202,34,0.00987904,10,-0.00120638,-1.8091,-1.12646,-0.0523765,31.7206,0.0777299,
2,0,0,1,0,66207.4,0.0760076,0.0756565,-15.5821,34,0.00972348,10,-0.00117889,-1.80737,-1.42608,-0.0413722,25.1408,0.0756565,
2,0,0,1,0,66207.5,0.0740191,0.0737135,-15.6212,34,0.00956906,10,-0.00115149,-1.80629,-2.11152,-0.0279419,17.0286,0.0737135,
2,0,0,1,0,66207.5,0.0720215,0.0717163,-15.6492,34,0.00941268,10,-0.0011223,-1.80551,-3.88868,-0.0151723,9.26065,0.0717163,
2,0,0,1,0,66207.5,0.0700239,0.0697147,-15.6582,34,0.00925613,10,-0.00109161,-1.80526,-23.5631,-0.00250392,1.52954,0.0697147,
2,0,0,1,0,66207.5,0.0680263,0.0677097,-15.6553,34,0.00909955,10,-0.00106002,-1.80534,-32.976,-0.00178918,1.0935,0.0677097,
2,0,0,1,0,66207.5,0.0660197,0.0657203,-15.6626,34,0.00894301,10,-0.00102935,-1.80514,15.559,0.00379201,-2.31614,0.06572026,
2,0,0,1,0,66207.5,0.0640221,0.0636779,-15.646,34,0.00878648,10,-0.000996304,-1.8056,2.58131,0.0228566,-13.9463,0.0636779,
2,0,0,1,0,66207.5,0.0620245,0.0616954,-15.6064,34,0.0086302,10,-0.000962845,-1.8067,2.51258,0.0234818,-14.3124,0.0616954,
2,0,0,1,0,66207.5,0.0600269,0.059726,-15.5894,34,0.00847418,10,-0.000931094,-1.80717,3.46127,0.0170458,-10.3682,0.059726,
2,0,0,1,0,66207.5,0.0580248,0.0576802,-15.5648,34,0.00831845,10,-0.00089778,-1.80786,2.34594,0.0251498,-15.2711,0.0576802,
2,0,0,1,0,66207.5,0.0560227,0.0556925,-15.5278,34,0.00816294,10,-0.000864783,-1.80889,1.91614,0.030791,-18.6588,0.0556925,
2,0,0,1,0,66207.6,0.0540251,0.0536649,-15.4899,34,0.00800781,10,-0.000831263,-1.80995,2.45014,0.0240803,-14.5653,0.0536649,
2,0,0,1,0,66207.6,0.0520275,0.0516841,-15.4695,34,0.00785299,10,-0.000799525,-1.81053,1.86569,0.0316236,-19.0704,0.0516841,
2,0,0,1,0,66207.6,0.0500299,0.0496991,-15.4142,34,0.00769856,10,-0.000766074,-1.81208,2.019,0.0292223,-17.6021,0.0496991,
2,0,0,1,0,66207.6,0.0480414,0.0476896,-15.3991,34,0.00754599,10,-0.000734379,-1.8125,2.39308,0.0246544,-14.8032,0.0476896,
2,0,0,1,0,66207.6,0.0460438,0.0457435,-15.3557,34,0.00739226,10,-0.000702423,-1.81373,1.79431,0.0328817,-19.711,0.04574351,
2,0,0,1,0,66207.6,0.0440462,0.0437234,-15.321,34,0.00723892,10,-0.000669885,-1.81471,1.63252,0.0361404,-21.5967,0.0437234,
2,0,0,1,0,66207.6,0.0420486,0.0417002,-15.2684,34,0.00708605,10,-0.000636694,-1.81621,1.70882,0.0345267,-20.5894,0.0417002,
2,0,0,1,0,66207.6,0.0400601,0.039752,-15.2392,34,0.00693504,10,-0.000605788,-1.81704,1.6013,0.036845,-21.8922,0.039752,
2,0,0,1,0,66207.6,0.0380625,0.0377105,-15.181,34,0.00678294,10,-0.000572484,-1.8187,1.37371,0.0429495,-25.458,0.0377105,
2,0,0,1,0,66207.6,0.036065,0.035741,-15.1371,34,0.00663134,10,-0.000541015,-1.81996,1.38154,0.0427059,-25.2185,0.035741,
2,0,0,1,0,66207.7,0.0340674,0.033749,-15.0811,34,0.00648024,10,-0.000508973,-1.82157,1.46268,0.040337,-23.7539,0.033749,
2,0,0,1,0,66207.7,0.0320607,0.0317179,-15.0415,34,0.00632959,10,-0.000477086,-1.82271,1.2914,0.0456869,-26.7933,0.0317179,
2,0,0,1,0,66207.7,0.0300631,0.0297103,-14.9729,34,0.00617949,10,-0.00044485,-1.82469,1.12704,0.0523497,-30.6064,0.0297103,
2,0,0,1,0,66207.7,0.0280655,0.027753,-14.9202,34,0.00602999,10,-0.000414079,-1.82623,1.12341,0.0525187,-30.5648,0.027753,
2,0,0,1,0,66207.7,0.0260679,0.0257471,-14.8518,34,0.00588111,10,-0.00038239,-1.82822,1.0653,0.0553835,-32.1106,0.0257471,
2,0,0,1,0,66207.7,0.0240613,0.0237672,-14.7922,34,0.00573284,10,-0.000351569,-1.82997,0.994513,0.0593255,-34.227,0.0237672,
2,0,0,1,0,66207.7,0.0220637,0.021737,-14.7145,34,0.00558529,10,-0.00031985,-1.83225,0.961149,0.0613848,-35.2658,0.021737,
2,0,0,1,0,66207.7,0.0200661,0.0197207,-14.6495,34,0.00543846,10,-0.000288898,-1.83418,0.844228,0.0698864,-39.9167,0.0197207,
2,0,0,1,0,66207.7,0.0180685,0.0177695,-14.5562,34,0.00529241,10,-0.000258655,-1.83695,0.848744,0.0695145,-39.5297,0.0177695,
2,0,0,1,0,66207.7,0.01608,0.0157494,-14.4925,34,0.00514864,10,-0.000228248,-1.83886,0.873959,0.0675089,-38.1479,0.0157494,
2,0,0,1,0,66207.8,0.0140824,0.0137452,-14.4026,34,0.00500422,10,-0.000197967,-1.84156,0.714055,0.0826266,-46.4365,0.01374521,
2,0,0,1,0,66207.8,0.0120848,0.0117927,-14.3088,34,0.00486068,10,-0.000168739,-1.8444,0.66977,0.08809,-49.1744,0.0117927,
2,0,0,1,0,66207.8,0.0100872,0.00973131,-14.2053,34,0.00471816,10,-0.000138236,-1.84755,0.701185,0.0841433,-46.6777,0.00973131,
2,0,0,1,0,66207.8,0.00810328,0.00775555,-14.1203,34,0.00457801,10,-0.000109511,-1.85016,0.652248,0.0904564,-49.8018,0.00775555,
2,0,0,1,0,66207.8,0.00610116,0.00580344,-14.0096,34,0.00443737,10,-8.13041e-05,-1.85357,0.61023,0.0966849,-52.8794,0.00580344,
2,0,0,1,0,66207.8,0.00410357,0.00374722,-13.9084,34,0.0042978,10,-5.21176e-05,-1.85672,0.767465,0.0768765,-41.7764,0.00374722,
2,0,0,1,0,66207.8,0.00210598,0.00172743,-13.8394,34,0.00415924,10,-2.39065e-05,-1.85888,0.688928,0.0856403,-46.1768,0.00172743,
2,0,0,1,0,66207.8,0.00010174,-0.000244636,-13.724,34,0.00402144,10,3.35739e-06,-1.86252,0.559312,0.105487,-56.506,-0.000244636,
2,0,0,1,0,66207.8,-0.00189827,-0.00228611,-13.6126,34,0.00388474,10,3.11199e-05,-1.86606,0.599018,0.0984945,-52.3492,-0.00228611,
2,0,0,1,0,66207.8,-0.00389586,-0.00425905,-13.5139,34,0.00374908,10,5.75562e-05,-1.86922,0.622157,0.0948314,-50.0084,-0.00425905,
2,0,0,1,0,66207.9,-0.00589345,-0.00628925,-13.4124,34,0.00361446,10,8.43537e-05,-1.87249,0.610599,0.0966264,-50.577,-0.00628925,
2,0,0,1,0,66207.9,-0.00789103,-0.00827693,-13.3107,34,0.00348084,10,0.000110171,-1.8758,0.654091,0.0902015,-46.8865,-0.00827693,
2,0,0,1,0,66207.9,-0.0098977,-0.0102655,-13.2259,34,0.00334813,10,0.000135771,-1.87857,0.735982,0.080165,-41.3847,-0.0102655,
2,0,0,1,0,66207.9,-0.0118953,-0.0122679,-13.1455,34,0.00321628,10,0.000161268,-1.88122,0.685648,0.08605,-44.1188,-0.0122679,
2,0,0,1,0,66207.9,-0.0138929,-0.0142712,-13.0492,34,0.0030853,10,0.000186228,-1.88442,0.696703,0.0846846,-43.1629,-0.0142712,
2,0,0,1,0,66207.9,-0.0158905,-0.0162225,-12.9748,34,0.00295516,10,0.000210483,-1.8869,0.884226,0.066725,-33.8042,-0.0162225,
2,0,0,1,0,66207.9,-0.017879,-0.0182817,-12.9136,34,0.00282701,10,0.000236084,-1.88895,0.923591,0.0638811,-32.1851,-0.0182817,
2,0,0,1,0,66207.9,-0.0198766,-0.0202573,-12.8449,34,0.00269823,10,0.000260203,-1.89127,0.871504,0.067699,-33.9395,-0.0202573,
2,0,0,1,0,66207.9,-0.0218741,-0.0222773,-12.778,34,0.00257016,10,0.000284661,-1.89354,1.04038,0.05671,-28.3041,-0.0222773,
2,0,0,1,0,66207.9,-0.0238717,-0.0242258,-12.7326,34,0.00244264,10,0.000308458,-1.89508,1.2029,0.0490483,-24.3672,-0.0242258,
2,0,0,1,0,66208,-0.0258602,-0.0262424,-12.6814,34,0.00231685,10,0.000332791,-1.89683,1.2533,0.0470759,-23.3072,-0.0262424,
2,0,0,1,0,66208,-0.0278578,-0.028211,-12.6397,34,0.00219027,10,0.00035658,-1.89826,1.37032,0.0430556,-21.2375,-0.028211,
2,0,0,1,0,66208,-0.0298554,-0.0302386,-12.5966,34,0.0020641,10,0.000380903,-1.89975,1.6807,0.0351043,-17.2687,-0.0302386,
2,0,0,1,0,66208,-0.031853,-0.0322584,-12.5698,34,0.00193826,10,0.000405483,-1.90067,2.08632,0.0282795,-13.872,-0.0322584,
2,0,0,1,0,66208,-0.0338597,-0.0341941,-12.5417,34,0.0018127,10,0.000428851,-1.90164,2.60605,0.0226396,-11.0865,-0.0341941,
2,0,0,1,0,66208,-0.0358573,-0.036252,-12.5256,34,0.00168737,10,0.000454077,-1.9022,3.31037,0.0178228,-8.71135,-0.036252,
2,0,0,1,0,66208,-0.0378548,-0.0382249,-12.5066,34,0.00156222,10,0.000478063,-1.90286,3.57227,0.0165161,-8.06336,-0.0382249,
2,0,0,1,0,66208,-0.0398524,-0.0402013,-12.4937,34,0.00143721,10,0.000502264,-1.90331,7.34792,0.00802948,-3.91667,-0.0402013,
2,0,0,1,0,66208,-0.0418591,-0.0422324,-12.4909,34,0.00131231,10,0.00052752,-1.90341,76.1475,0.000774812,-0.377768,-0.04223242,
2,0,0,1,0,66208,-0.0438567,-0.044221,-12.4922,34,0.00118737,10,0.000552417,-1.90336,10.801,0.00546247,-2.66171,-0.044221,
2,0,0,1,0,66208.1,-0.0458543,-0.0462243,-12.4802,34,0.00106248,10,0.00057689,-1.90378,-19.9699,-0.00295444,1.44072,-0.04622427,
2,0,0,1,0,66208.1,-0.0478519,-0.048225,-12.498,34,0.000937564,10,0.000602714,-1.90316,-3.08232,-0.0191414,9.33712,-0.048225,
2,0,0,1,0,66208.1,-0.0498585,-0.0502448,-12.5178,34,0.000812528,10,0.000628953,-1.90247,-3.19385,-0.018473,9.02328,-0.0502448,
2,0,0,1,0,66208.1,-0.051838,-0.0522094,-12.5339,34,0.00068852,10,0.000654389,-1.90191,-4.78499,-0.0123302,6.0294,-0.0522094,
2,0,0,1,0,66208.1,-0.0538355,-0.054189,-12.5416,34,0.000563172,10,0.000679615,-1.90165,-3.06003,-0.0192809,9.44568,-0.054189,
2,0,0,1,0,66208.1,-0.0558331,-0.0562202,-12.5718,34,0.000437604,10,0.000706789,-1.9006,-2.26187,-0.0260846,12.7934,-0.0562202,
2,0,0,1,0,66208.1,-0.0578126,-0.058192,-12.5928,34,0.000313055,10,0.000732799,-1.89988,-2.03592,-0.0289795,14.2504,-0.058192,
2,0,0,1,0,66208.1,-0.0598192,-0.0601884,-12.6284,34,0.00018693,10,0.00076008,-1.89865,-1.76211,-0.0334825,16.4982,-0.0601884,
2,0,0,1,0,66208.1,-0.0618168,-0.0621856,-12.6587,34,6.0501e-05,10,0.000787187,-1.89761,-1.64389,-0.0358904,17.7382,-0.0621856,
2,0,0,1,0,66208.1,-0.0638144,-0.0642011,-12.6995,34,-6.63028e-05,10,0.000815324,-1.89621,-1.62875,-0.0362241,17.9461,-0.0642011,
2,0,0,1,0,66208.2,-0.065812,-0.0661558,-12.7299,34,-0.000193463,10,0.000842158,-1.89517,-1.37366,-0.0429511,21.359,-0.0661558,
2,0,0,1,0,66208.2,-0.0678187,-0.0681981,-12.7849,34,-0.000321094,10,0.000871906,-1.8933,-1.17856,-0.0500611,24.9688,-0.0681981,
2,0,0,1,0,66208.2,-0.0698163,-0.0701806,-12.8304,34,-0.000449181,10,0.000900446,-1.89176,-1.25321,-0.047079,23.5761,-0.07018061,
2,0,0,1,0,66208.2,-0.0718138,-0.0721657,-12.8784,34,-0.000577727,10,0.000929382,-1.89014,-1.22523,-0.0481541,24.2037,-0.0721657,
2,0,0,1,0,66208.2,-0.0738114,-0.0742072,-12.9279,34,-0.000706791,10,0.00095934,-1.88847,-0.987199,-0.059765,30.1797,-0.0742072,
2,0,0,1,0,66208.2,-0.0758181,-0.0761905,-12.9999,34,-0.000836491,10,0.00099047,-1.88606,-0.99251,-0.0594452,30.1301,-0.0761905,
2,0,0,1,0,66208.2,-0.0778157,-0.0781608,-13.047,34,-0.000966762,10,0.00101976,-1.88449,-1.01975,-0.0578576,29.4867,-0.0781608,
2,0,0,1,0,66208.2,-0.0798133,-0.0801893,-13.1178,34,-0.00109762,10,0.00105191,-1.88214,-0.897318,-0.0657515,33.6541,-0.0801893,
2,0,0,1,0,66208.2,-0.0818108,-0.0822091,-13.1832,34,-0.00122914,10,0.00108378,-1.87998,-0.831414,-0.0709634,36.5311,-0.08220908,
2,0,0,1,0,66208.2,-0.0837994,-0.0841815,-13.2637,34,-0.00136005,10,0.00111656,-1.87734,-0.834073,-0.0707372,36.5955,-0.0841815,
2,0,0,1,0,66208.3,-0.0857969,-0.0861992,-13.3293,34,-0.00149299,10,0.00114897,-1.87519,-0.793481,-0.0743559,38.713,-0.0861992,
2,0,0,1,0,66208.3,-0.0877945,-0.0881684,-13.418,34,-0.00162671,10,0.00118304,-1.87231,-0.745656,-0.079125,41.4136,-0.0881684,
2,0,0,1,0,66208.3,-0.0897921,-0.0901622,-13.4934,34,-0.00176125,10,0.00121659,-1.86988,-0.740833,-0.0796401,41.9614,-0.09016221,
2,0,0,1,0,66208.3,-0.0917806,-0.0921154,-13.5836,34,-0.00189524,10,0.00125126,-1.86698,-0.743167,-0.07939,42.0665,-0.09211541,
2,0,0,1,0,66208.3,-0.0937782,-0.0941499,-13.6611,34,-0.00203147,10,0.00128619,-1.86451,-0.738627,-0.0798779,42.6124,-0.0941499,
2,0,0,1,0,66208.3,-0.0957758,-0.0961437,-13.7553,34,-0.00216857,10,0.00132248,-1.86153,-0.69758,-0.0845781,45.3948,-0.0961437,
2,0,0,1,0,66208.3,-0.0977734,-0.0981887,-13.8445,34,-0.00230659,10,0.00135937,-1.85872,-0.657508,-0.0897328,48.5081,-0.0981887,
2,0,0,1,0,66208.3,-0.0997412,-0.100123,-13.9483,34,-0.00244277,10,0.00139655,-1.85548,0.112705,0.523493,-277.488,-0.100123,
2,0,0,1,1,66208.3,-0.0996711,-0.100067,-13.3232,34,-0.00248382,10,0.00133322,-1.87539,-0.0191161,-3.0864,1485.51,-0.100067,
2,0,0,1,1,66208.3,-0.0976826,-0.0980357,-10.8471,34,-0.00260204,10,0.0010634,-1.96469,-0.0242377,-2.43423,1051.83,-0.09803573,
2,0,0,1,1,66208.3,-0.095685,-0.0960419,-9.08955,34,-0.00270123,10,0.000872977,-2.04146,-0.0256843,-2.29712,818.919,-0.0960419,
2,0,0,1,1,66208.4,-0.0936874,-0.0940862,-7.61275,34,-0.00278437,10,0.000716255,-2.11846,-0.0253861,-2.3241,692.16,-0.0940862,
2,0,0,1,1,66208.4,-0.0916898,-0.0920662,-6.3377,34,-0.00285386,10,0.000583488,-2.19807,-0.024139,-2.44418,603.97,-0.0920662,
2,0,0,1,1,66208.4,-0.0897013,-0.0900965,-5.20306,34,-0.00291072,10,0.000468777,-2.28374,-0.0218018,-2.7062,547.178,-0.0900965,
2,0,0,1,1,66208.4,-0.0877037,-0.0881123,-4.17422,34,-0.0029574,10,0.0003678,-2.37942,-0.0192402,-3.06649,494.199,-0.08811228,
2,0,0,1,1,66208.4,-0.0857061,-0.0860734,-3.21485,34,-0.00299415,10,0.000276713,-2.49284,-0.0162482,-3.63118,451.574,-0.0860734,
2,0,0,1,1,66208.4,-0.0837086,-0.0841135,-2.36847,34,-0.0030219,10,0.00019922,-2.62553,-0.0127174,-4.63932,413.167,-0.0841135,
2,0,0,1,1,66208.4,-0.0817019,-0.0820434,-1.54978,34,-0.00304129,10,0.000127149,-2.80973,-0.00872031,-6.76581,384.238,-0.0820434,
2,0,0,1,1,66208.4,-0.0797043,-0.080067,-0.813643,34,-0.00305297,10,6.5146e-05,-3.08957,-0.0035515,-16.6127,360.227,-0.080067,
2,0,0,1,1,66208.4,-0.0777067,-0.078068,-0.117738,34,-0.00305746,10,9.19155e-06,-3.92908,-0.0202222,-2.91759,335.778,-0.078068,
2,1,0,1,1,66208.4,-0.0757091,-0.0761011,0.517991,34,-0.00305539,10,-3.94197e-05,-3.28568,0.0040109,14.7099,317.948,-0.0761011,
2,1,0,1,1,66208.5,-0.0737025,-0.0741143,1.13932,34,-0.00304697,10,-8.444e-05,-2.94335,0.00782776,7.53728,291.606,-0.0741143,
2,1,0,1,1,66208.5,-0.0717049,-0.0720798,1.69065,34,-0.00303273,10,-0.000121861,-2.77195,0.0139345,4.2341,267.914,-0.0720798,
2,1,0,1,1,66208.5,-0.0697073,-0.0700687,2.22321,34,-0.00301307,10,-0.000155777,-2.65302,0.0194443,3.0343,255.967,-0.0700687,
2,1,0,1,1,66208.5,-0.0677097,-0.0680871,2.71265,34,-0.00298832,10,-0.000184696,-2.56661,0.0251194,2.34878,245.584,-0.0680871,
2,1,0,1,1,66208.5,-0.0657212,-0.0661177,3.19349,34,-0.00295898,10,-0.000211146,-2.49573,0.0313794,1.88021,230.959,-0.0661177,
2,1,0,1,1,66208.5,-0.0637236,-0.0641303,3.62651,34,-0.00292484,10,-0.000232569,-2.44051,0.0390734,1.50998,212.38,-0.0641303,
2,1,0,1,1,66208.5,-0.061726,-0.0620935,4.04816,34,-0.00288638,10,-0.000251364,-2.39274,0.0459463,1.28411,201.393,-0.0620935,
2,1,0,1,1,66208.5,-0.0597284,-0.0601005,4.43808,34,-0.0028439,10,-0.000266731,-2.3528,0.0522103,1.13005,194.912,-0.0601005,
2,1,0,1,1,66208.5,-0.0577399,-0.0581695,4.813,34,-0.00279807,10,-0.00027997,-2.31758,0.0613968,0.960962,179.439,-0.0581695,
2,1,0,1,1,66208.5,-0.0557423,-0.0561401,5.14872,34,-0.00274822,10,-0.00028905,-2.2883,0.0717705,0.822065,165.012,-0.0561401,
2,1,0,1,1,66208.6,-0.0537448,-0.0540761,5.48845,34,-0.00269494,10,-0.000296794,-2.26055,0.0799902,0.73759,157.155,-0.0540761,
2,1,0,1,1,66208.6,-0.0517472,-0.0521075,5.78247,34,-0.00263853,10,-0.00030131,-2.23789,0.088283,0.668305,150.833,-0.0521075,
2,1,0,1,1,66208.6,-0.049745,-0.0501007,6.08807,34,-0.00257912,10,-0.000305017,-2.21552,0.0963005,0.612666,145.055,-0.0501007,
2,1,0,1,1,66208.6,-0.0477429,-0.0481269,6.35987,34,-0.0025168,10,-0.000306081,-2.19655,0.108536,0.543598,134.747,-0.0481269,
2,1,0,1,1,66208.6,-0.0457453,-0.0461349,6.62245,34,-0.00245181,10,-0.000305526,-2.17898,0.123325,0.478412,123.29,-0.0461349,
2,1,0,1,1,66208.6,-0.0437477,-0.0441281,6.85288,34,-0.00238443,10,-0.000302405,-2.16413,0.136316,0.432817,115.718,-0.0441281,
2,1,0,1,1,66208.6,-0.0417501,-0.0421457,7.08408,34,-0.00231467,10,-0.000298563,-2.14972,0.147152,0.400946,110.691,-0.0421457,
2,1,0,1,1,66208.6,-0.0397435,-0.0400912,7.29974,34,-0.00224265,10,-0.000292655,-2.13669,0.161231,0.365934,104.118,-0.0400912,
2,1,0,1,1,66208.6,-0.0377459,-0.0381417,7.50097,34,-0.0021686,10,-0.000286099,-2.12488,0.179892,0.327974,95.8581,-0.0381417,
2,1,0,1,1,66208.6,-0.0357483,-0.036108,7.68156,34,-0.00209266,10,-0.000277366,-2.11455,0.193386,0.30509,91.4735,-0.036108,
2,1,0,1,1,66208.7,-0.0337507,-0.0341403,7.86699,34,-0.00201484,10,-0.000268581,-2.10419,0.210722,0.279989,85.7862,-0.0341403,
2,1,0,1,1,66208.7,-0.0317622,-0.0321344,8.02244,34,-0.00193617,10,-0.000257796,-2.09569,0.234743,0.251339,78.7018,-0.0321344,
2,1,0,1,1,66208.7,-0.0297646,-0.0301381,8.18197,34,-0.00185511,10,-0.000246589,-2.08714,0.253111,0.233099,74.329,-0.0301381,
2,1,0,1,1,66208.7,-0.027767,-0.0281236,8.32055,34,-0.00177258,10,-0.000234004,-2.07985,0.279514,0.21108,68.5223,-0.02812363,
2,1,0,1,1,66208.7,-0.0257694,-0.0261449,8.45559,34,-0.00168868,10,-0.000221071,-2.07286,0.305026,0.193426,63.7684,-0.0261449,
2,1,0,1,1,66208.7,-0.0237809,-0.0241229,8.57568,34,-0.00160437,10,-0.00020687,-2.06673,0.320568,0.184048,61.6156,-0.0241229,
2,1,0,1,1,66208.7,-0.0217833,-0.0221465,8.70196,34,-0.00151794,10,-0.000192718,-2.06038,0.370379,0.159296,53.9765,-0.0221465,
2,1,0,1,1,66208.7,-0.0197858,-0.0201553,8.78983,34,-0.00143047,10,-0.000177162,-2.05602,0.416123,0.141785,48.69,-0.02015532,
2,1,0,1,1,66208.7,-0.0177882,-0.0181347,8.89729,34,-0.00134201,10,-0.000161349,-2.05074,0.421721,0.139903,48.5248,-0.0181347,
2,1,0,1,1,66208.7,-0.0157815,-0.016121,8.9856,34,-0.00125258,10,-0.000144856,-2.04645,0.46527,0.126808,44.4693,-0.016121,
2,1,0,1,1,66208.8,-0.0137839,-0.0141472,9.07461,34,-0.00116223,10,-0.00012838,-2.04217,0.545646,0.108129,38.2357,-0.01414715,
2,1,0,1,1,66208.8,-0.0117863,-0.0121786,9.13634,34,-0.00107116,10,-0.000111267,-2.03923,0.589726,0.100046,35.7116,-0.0121786,
2,1,0,1,1,66208.8,-0.00978874,-0.0101241,9.21828,34,-0.000979317,10,-9.33265e-05,-2.03535,0.583229,0.101161,36.3617,-0.0101241,
2,1,0,1,1,66208.8,-0.00778208,-0.00810775,9.28436,34,-0.000886785,10,-7.52752e-05,-2.03225,0.687312,0.0858417,31.0883,-0.00810775,
2,1,0,1,1,66208.8,-0.00578449,-0.00616344,9.34141,34,-0.000793632,10,-5.75753e-05,-2.02959,0.820399,0.0719162,26.2029,-0.006163442,
2,1,0,1,1,66208.8,-0.0037869,-0.00416274,9.38773,34,-0.000699976,10,-3.90787e-05,-2.02744,0.886686,0.0665399,24.3846,-0.00416274,
2,1,0,1,1,66208.8,-0.00178931,-0.00216378,9.43894,34,-0.000605797,10,-2.04238e-05,-2.02508,1.22532,0.0481507,17.7055,-0.00216378,
2,1,0,1,1,66208.8,-2.55332e-05,-0.000287149,9.45635,34,-0.000523529,10,-2.71538e-06,-2.02428, , , ,-0.0002871489,