File: Figure_codes/Fig_3-5/rawdata_trumpetplot_data/after 10th/20221101_1-115_003_TrumpetPlot_ParaChange_from10_every3_07_CV_C01_2.csv
mode,ox/red,error,control changes,counter inc.,time/s,control/V,Ewe/V,<I>/mA,cycle number,(Q-Qo)/C,I Range,P/W,log(|I|),Tafel slope mV/dec,alpha_eff,dI/d(E-IR),E-IR/V,
2,0,0,0,0,5105.28,2.44065e-05,-0.00042076,-2.69695,3,0.0000000E+000,10,1.13477e-06,-2.56913, , , ,-0.00042076,
2,0,0,1,0,5105.3,0.0013005,0.000956792,-0.719638,3,-3.21994e-05,10,-6.88544e-07,-3.14289, , , ,0.000956792,
2,1,0,1,0,5105.33,0.00279471,0.002472,0.501415,3,-3.30205e-05,10,1.2395e-06,-3.2998,-0.27881,-0.211614,637.104,0.002472,
2,1,0,1,0,5105.35,0.00429425,0.0040026,1.13831,3,-1.14302e-05,10,4.5562e-06,-2.94374,0.00419617,14.0604,354.567,0.0040026,
2,1,0,1,0,5105.38,0.00579379,0.00546278,1.51322,3,2.24911e-05,10,8.26637e-06,-2.8201,0.014068,4.1939,221.209,0.00546278,
2,1,0,1,0,5105.4,0.007288,0.00699743,1.7608,3,6.39384e-05,10,1.23211e-05,-2.75429,0.0265709,2.22047,145.75,0.00699743,
2,1,0,1,0,5105.43,0.00878882,0.00847343,1.93776,3,0.000110814,10,1.64195e-05,-2.7127,0.0428574,1.37666,101.826,0.008473428,
2,1,0,1,0,5105.45,0.0102896,0.0100029,2.07426,3,0.000161446,10,2.07486e-05,-2.68314,0.0626434,0.941839,74.8249,0.0100029,
2,1,0,1,0,5105.47,0.0117838,0.0114508,2.17229,3,0.000214726,10,2.48744e-05,-2.66308,0.0784035,0.752517,63.2456,0.0114508,
2,1,0,1,0,5105.5,0.0132834,0.0129656,2.25033,3,0.000270445,10,2.91769e-05,-2.64775,0.0934361,0.631448,55.4895,0.0129656,
2,1,0,1,0,5105.52,0.0147816,0.0144266,2.32474,3,0.000328181,10,3.35381e-05,-2.63363,0.112089,0.526368,47.7685,0.0144266,
2,1,0,1,0,5105.55,0.0162811,0.0160013,2.39805,3,0.00038779,10,3.8372e-05,-2.62014,0.128495,0.45916,42.8208,0.0160013,
2,1,0,1,0,5105.57,0.0177753,0.0174625,2.46121,3,0.000448711,10,4.2979e-05,-2.60885,0.143335,0.411624,39.4245,0.0174625,
2,1,0,1,0,5105.6,0.0192761,0.0189692,2.51268,3,0.000511285,10,4.76634e-05,-2.59986,0.150729,0.391432,38.3504,0.0189692,
2,1,0,1,0,5105.62,0.020777,0.0204969,2.56777,3,0.000575233,10,5.26314e-05,-2.59044,0.162417,0.363262,36.3668,0.0204969,
2,1,0,1,0,5105.65,0.0222712,0.0220086,2.63224,3,0.000640304,10,5.7932e-05,-2.57967,0.175294,0.336578,34.3917,0.0220086,
2,1,0,1,0,5105.67,0.0237707,0.0234825,2.67597,3,0.000707019,10,6.28384e-05,-2.57252,0.171006,0.345018,35.9843,0.0234825,
2,1,0,1,0,5105.7,0.0252703,0.0249419,2.71706,3,0.000774962,10,6.77686e-05,-2.5659,0.172614,0.341804,36.4448,0.0249419,
2,1,0,1,0,5105.72,0.0267645,0.0264582,2.77629,3,0.000843888,10,7.34555e-05,-2.55654,0.190418,0.309844,33.6514,0.0264582,
2,1,0,1,0,5105.75,0.0282653,0.0279586,2.83957,3,0.000914481,10,7.93902e-05,-2.54675,0.187116,0.315312,34.8362,0.0279586,
2,1,0,1,0,5105.77,0.0297648,0.029477,2.89223,3,0.000986436,10,8.52543e-05,-2.53877,0.18744,0.314767,35.3521,0.029477,
2,1,0,1,0,5105.8,0.031259,0.0309856,2.93557,3,0.00105936,10,9.09606e-05,-2.53231,0.192051,0.30721,35.1801,0.0309856,
2,1,0,1,0,5105.82,0.0327585,0.0324626,2.98588,3,0.00113377,10,9.69292e-05,-2.52493,0.204612,0.28835,33.6653,0.0324626,
2,1,0,1,0,5105.85,0.034258,0.0339282,3.0429,3,0.00120952,10,0.00010324,-2.51671,0.200647,0.294049,34.8685,0.0339282,
2,1,0,1,0,5105.87,0.0357576,0.0354776,3.10059,3,0.00128671,10,0.000110001,-2.50856,0.198548,0.297158,35.8033,0.0354776,
2,1,0,1,0,5105.9,0.0372518,0.0369602,3.14278,3,0.00136493,10,0.000116158,-2.50269,0.193698,0.304598,37.4908,0.0369602,
2,1,0,1,0,5105.92,0.0387526,0.0384212,3.1951,3,0.00144462,10,0.000122759,-2.49552,0.210821,0.279858,35.0496,0.0384212,
2,1,0,1,0,5105.95,0.0402534,0.0399326,3.26283,3,0.0015258,10,0.000130293,-2.48641,0.195514,0.301769,38.3342,0.0399326,
2,1,0,1,0,5105.97,0.0417476,0.0414413,3.32638,3,0.00160816,10,0.000137849,-2.47803,0.194602,0.303183,39.1956,0.0414413,
2,1,0,1,0,5106,0.0432472,0.0429593,3.37636,3,0.00169227,10,0.000145046,-2.47155,0.208712,0.282687,37.2156,0.0429593,
2,1,0,1,0,5106.02,0.0447467,0.0444484,3.41901,3,0.00177762,10,0.000151969,-2.4661,0.216981,0.271913,36.4407,0.0444484,
2,1,0,1,0,5106.05,0.0462463,0.0459498,3.48912,3,0.0018644,10,0.000160325,-2.45728,0.212402,0.277776,37.7378,0.0459498,
2,1,0,1,0,5106.07,0.0477391,0.0474354,3.54185,3,0.00195232,10,0.000168009,-2.45077,0.205716,0.286803,39.582,0.0474354,
2,1,0,1,0,5106.1,0.0492399,0.0489187,3.59447,3,0.00204198,10,0.000175837,-2.44437,0.223074,0.264487,37.0816,0.0489187,
2,1,0,1,0,5106.12,0.0507408,0.0504505,3.64162,3,0.00213292,10,0.000183721,-2.43871,0.237514,0.248406,35.4067,0.0504505,
2,1,0,1,0,5106.15,0.052235,0.0519115,3.70918,3,0.00222486,10,0.000192549,-2.43072,0.221088,0.266862,38.5873,0.0519115,
2,1,0,1,0,5106.17,0.0537345,0.0534235,3.76948,3,0.00231869,10,0.000201379,-2.42372,0.226849,0.260085,38.168,0.0534235,
2,1,0,1,0,5106.2,0.0552341,0.0549265,3.81964,3,0.00241398,10,0.0002098,-2.41798,0.236859,0.249094,37.1344,0.0549265,
2,1,0,1,0,5106.22,0.0567283,0.0563921,3.86645,3,0.00251021,10,0.000218038,-2.41269,0.269924,0.21858,33.0586,0.0563921,
2,1,0,1,0,5106.25,0.0582291,0.0578968,3.92646,3,0.00260804,10,0.000227329,-2.406,0.272599,0.216435,33.1742,0.0578968,
2,1,0,1,0,5106.27,0.0597299,0.0594863,3.99073,3,0.0027073,10,0.000237394,-2.39895,0.247886,0.238013,36.9118,0.0594863,
2,1,0,1,0,5106.3,0.0612228,0.0608836,4.03332,3,0.00280752,10,0.000245563,-2.39434,0.267958,0.220184,34.6333,0.06088357,
2,1,0,1,0,5106.32,0.0627223,0.0624098,4.07895,3,0.00290944,10,0.000254567,-2.38945,0.279505,0.211087,33.68,0.0624098,
2,1,0,1,0,5106.35,0.0642218,0.0639414,4.1358,3,0.00301252,10,0.000264449,-2.38344,0.288504,0.204503,33.0164,0.0639414,
2,1,0,1,0,5106.37,0.0657214,0.0654057,4.19492,3,0.003117,10,0.000274372,-2.37728,0.253883,0.23239,37.9748,0.0654057,
2,1,0,1,0,5106.4,0.0672156,0.066908,4.24251,3,0.00322241,10,0.000283858,-2.37238,0.257064,0.229515,37.9544,0.066908,
2,1,0,1,0,5106.42,0.0687164,0.0683835,4.28628,3,0.00332953,10,0.000293111,-2.36792,0.313094,0.188442,31.5616,0.0683835,
2,1,0,1,0,5106.45,0.0702172,0.0699336,4.33909,3,0.00343777,10,0.000303448,-2.3626,0.335494,0.17586,29.7743,0.0699336,
2,1,0,1,0,5106.47,0.0717114,0.071428,4.38986,3,0.00354681,10,0.000313559,-2.35755,0.300212,0.196528,33.6011,0.071428,
2,1,0,1,0,5106.5,0.073211,0.0729078,4.43575,3,0.00365753,10,0.0003234,-2.35303,0.303429,0.194444,33.6477,0.0729078,
2,1,0,1,0,5106.52,0.0747105,0.0744309,4.47696,3,0.00376938,10,0.000333224,-2.34902,0.354574,0.166397,29.0988,0.0744309,
2,1,0,1,0,5106.55,0.0762101,0.075873,4.52081,3,0.00388234,10,0.000343007,-2.34478,0.340291,0.173381,30.6156,0.07587304,
2,1,0,1,0,5106.57,0.0777042,0.0773849,4.57352,3,0.00399591,10,0.000353921,-2.33975,0.344006,0.171509,30.5571,0.0773849,
2,1,0,1,0,5106.6,0.0792037,0.0789312,4.61818,3,0.00411116,10,0.000364519,-2.33553,0.330802,0.178354,32.1003,0.0789312,
2,1,0,1,0,5106.62,0.0807046,0.0803914,4.65806,3,0.00422754,10,0.000374468,-2.33179,0.38473,0.153354,27.8704,0.0803914,
2,1,0,1,0,5106.65,0.0821988,0.0819059,4.70307,3,0.00434457,10,0.000385209,-2.32762,0.40889,0.144293,26.4834,0.0819059,
2,1,0,1,0,5106.67,0.0836983,0.0833891,4.75106,3,0.00446307,10,0.000396186,-2.32321,0.377226,0.156405,28.9941,0.0833891,
2,1,0,1,0,5106.7,0.0851979,0.0849006,4.78565,3,0.00458276,10,0.000406304,-2.32006,0.337991,0.174561,32.6729,0.0849006,
2,1,0,1,0,5106.72,0.0866921,0.0863504,4.82876,3,0.00470307,10,0.000416965,-2.31616,0.421463,0.139989,26.4215,0.0863504,
2,1,0,1,0,5106.75,0.0881929,0.0878917,4.88204,3,0.004825,10,0.000429091,-2.3114,0.45334,0.130145,24.7825,0.0878917,
2,1,0,1,0,5106.77,0.0896937,0.0893868,4.92734,3,0.00494789,10,0.000440439,-2.30739,0.376614,0.156659,30.1194,0.0893868,
2,1,0,1,0,5106.8,0.0911879,0.0908615,4.96726,3,0.00507137,10,0.000451332,-2.30388,0.302905,0.19478,37.7904,0.0908615,
2,1,0,1,0,5106.82,0.0926861,0.0923614,5.01869,3,0.00519673,10,0.000463533,-2.29941,0.304087,0.194023,38.051,0.0923614,
2,1,0,1,0,5106.85,0.0941856,0.0939271,5.08284,3,0.00532352,10,0.000477417,-2.29389,0.346271,0.170387,33.7957,0.09392707,
2,1,0,1,0,5106.87,0.0956852,0.0953764,5.13428,3,0.00545165,10,0.000489689,-2.28952,0.307142,0.192093,38.5441,0.0953764,
2,1,0,1,0,5106.9,0.0971794,0.0969082,5.19458,3,0.00558067,10,0.000503398,-2.28445,0.267949,0.220191,44.6742,0.0969082,
2,1,0,1,0,5106.92,0.0986802,0.0983742,5.26107,3,0.00571185,10,0.000517554,-2.27893,0.263024,0.224314,46.124,0.09837418,
2,1,0,1,0,5106.95,0.100181,0.0999102,5.33451,3,0.00584473,10,0.000532972,-2.27291,0.267937,0.220201,45.8311,0.0999102,
2,1,0,1,0,5106.97,0.101675,0.101382,5.4052,3,0.00597886,10,0.00054799,-2.26719,0.246553,0.239299,50.5096,0.101382,
2,1,0,1,0,5107,0.103175,0.102883,5.48598,3,0.00611535,10,0.000564413,-2.26075,0.222808,0.264802,56.7626,0.102883,
2,1,0,1,0,5107.02,0.104674,0.104401,5.56984,3,0.00625402,10,0.000581497,-2.25416,0.21502,0.274393,59.7781,0.1044011,
2,1,0,1,0,5107.05,0.106169,0.105865,5.67039,3,0.00639442,10,0.000600297,-2.24639,0.222578,0.265076,58.552,0.1058652,
2,1,0,1,0,5107.07,0.107668,0.10734,5.76271,3,0.00653773,10,0.000618568,-2.23937,0.208006,0.283646,63.7404,0.1073397,
2,1,0,1,0,5107.1,0.109169,0.108847,5.8536,3,0.00668324,10,0.000637147,-2.23258,0.204203,0.288928,66.0622,0.1088471,
2,1,0,1,0,5107.12,0.110663,0.110324,5.94693,3,0.00683065,10,0.00065609,-2.22571,0.204623,0.288335,66.9822,0.110324,
2,1,0,1,0,5107.15,0.112163,0.111849,6.0547,3,0.00698115,10,0.000677212,-2.21791,0.220835,0.267167,63.067,0.111849,
2,1,0,1,0,5107.17,0.113662,0.11334,6.16453,3,0.00713416,10,0.000698687,-2.2101,0.21722,0.271615,65.1359,0.11334,
2,1,0,1,0,5107.2,0.115162,0.114851,6.24535,3,0.00728953,10,0.000717283,-2.20444,0.21979,0.268438,65.4209,0.114851,
2,1,0,1,0,5107.22,0.116656,0.116365,6.34151,3,0.00744671,10,0.000737928,-2.19781,0.22051,0.267562,66.2743,0.116365,
2,1,0,1,0,5107.25,0.118157,0.117857,6.44383,3,0.007607,10,0.000759447,-2.19086,0.24667,0.239186,60.0764,0.117857,
2,1,0,1,0,5107.27,0.119657,0.119355,6.54113,3,0.00776969,10,0.000780717,-2.18435,0.263059,0.224284,57.1131,0.119355,
2,1,0,1,0,5107.3,0.121152,0.12085,6.61233,3,0.00793377,10,0.0007991,-2.17965,0.277227,0.212822,54.9294,0.12085,
2,1,0,1,0,5107.32,0.122651,0.122361,6.68779,3,0.00810052,10,0.000818326,-2.17472,0.279027,0.211449,55.2322,0.122361,
2,1,0,1,0,5107.35,0.124151,0.123861,6.77158,3,0.00826933,10,0.000838732,-2.16931,0.309291,0.190759,50.3962,0.123861,
2,1,0,1,0,5107.37,0.125649,0.125373,6.85121,3,0.00844004,10,0.000858956,-2.16423,0.345136,0.170947,45.6264,0.1253729,
2,1,0,1,0,5107.4,0.127143,0.126825,6.90928,3,0.00861178,10,0.000876272,-2.16057,0.337251,0.174944,47.1915,0.126825,
2,1,0,1,0,5107.42,0.128644,0.128306,6.97335,3,0.00878579,10,0.000894724,-2.15656,0.365552,0.1614,43.9924,0.128306,
2,1,0,1,0,5107.45,0.130145,0.129834,7.0472,3,0.00896155,10,0.000914965,-2.15198,0.384144,0.153588,42.2184,0.129834,
2,1,0,1,0,5107.47,0.131639,0.131328,7.11901,3,0.0091383,10,0.000934928,-2.14758,0.413472,0.142694,39.5544,0.131328,
2,1,0,1,0,5107.5,0.133139,0.132834,7.17457,3,0.00931733,10,0.000953031,-2.1442,0.38387,0.153698,43.0113,0.132834,
2,1,0,1,0,5107.52,0.134638,0.134338,7.22297,3,0.00949773,10,0.000970322,-2.14128,0.451201,0.130762,36.9097,0.134338,
2,1,0,1,0,5107.55,0.136132,0.135816,7.28346,3,0.00967886,10,0.000989212,-2.13766,0.483229,0.122095,34.7081,0.135816,
2,1,0,1,0,5107.57,0.137633,0.137309,7.34374,3,0.00986206,10,0.00100836,-2.13408,0.549206,0.107428,30.7056,0.137309,
2,1,0,1,0,5107.6,0.139133,0.138836,7.38749,3,0.0100465,10,0.00102565,-2.1315,0.621637,0.0949107,27.2974,0.138836,
2,1,0,1,0,5107.62,0.140627,0.140296,7.40743,3,0.0102311,10,0.00103923,-2.13033,0.919902,0.0641373,18.5311,0.140296,
2,1,0,1,0,5107.65,0.142126,0.141835,7.43495,3,0.0104171,10,0.00105453,-2.12872,1.93416,0.0305041,8.83456,0.141835,
2,1,0,1,0,5107.67,0.143626,0.1433,7.45457,3,0.0106036,10,0.00106824,-2.12758,-7.64313,-0.00771935,-2.23609,0.1433,
2,1,0,1,0,5107.7,0.145125,0.144834,7.42963,3,0.01079,10,0.00107606,-2.12903,-0.895999,-0.0658483,-19.0342,0.144834,
2,1,0,1,0,5107.72,0.14662,0.146334,7.37678,3,0.010975,10,0.00107947,-2.13213,-0.452322,-0.130438,-37.4941,0.146334,
2,1,0,1,0,5107.75,0.14812,0.147823,7.31739,3,0.0111592,10,0.00108168,-2.13564,-0.286742,-0.20576,-58.5541,0.1478229,
2,1,0,1,0,5107.77,0.149621,0.149309,7.22317,3,0.0113413,10,0.00107848,-2.14127,-0.207035,-0.284976,-79.8589,0.1493087,
2,1,0,1,0,5107.8,0.151116,0.150801,7.08661,3,0.0115198,10,0.00106866,-2.14956,-0.159393,-0.370155,-101.747,0.150801,
2,1,0,1,0,5107.82,0.152615,0.15227,6.90415,3,0.0116952,10,0.00105129,-2.16089,-0.12918,-0.456727,-122.778,0.15227,
2,1,0,1,0,5107.85,0.154115,0.153836,6.70196,3,0.0118658,10,0.001031,-2.1738,-0.104957,-0.562136,-146.615,0.1538357,
2,1,0,1,0,5107.87,0.155614,0.155267,6.48331,3,0.0120311,10,0.00100664,-2.1882,-0.0936969,-0.62969,-158.636,0.155267,
2,1,0,1,0,5107.9,0.157107,0.156795,6.22665,3,0.0121898,10,0.000976311,-2.20575,-0.0836437,-0.705373,-170.94,0.156795,
2,1,0,1,0,5107.92,0.158608,0.15828,5.96044,3,0.0123427,10,0.000943416,-2.22472,-0.0786287,-0.750362,-174.415,0.15828,
2,1,0,1,0,5107.95,0.160109,0.15979,5.69275,3,0.0124887,10,0.000909645,-2.24468,-0.0726873,-0.811696,-180.318,0.15979,
2,1,0,1,0,5107.97,0.161603,0.161296,5.43945,3,0.0126276,10,0.000877362,-2.26445,-0.0730066,-0.808146,-171.298,0.161296,
2,1,0,1,0,5108,0.163102,0.162824,5.1838,3,0.0127607,10,0.000844045,-2.28535,-0.0754677,-0.781791,-158.323,0.162824,
2,1,0,1,0,5108.02,0.164602,0.164267,4.94834,3,0.0128876,10,0.000812848,-2.30554,-0.0759258,-0.777074,-150.558,0.164267,
2,1,0,1,0,5108.05,0.166096,0.165817,4.73342,3,0.0130085,10,0.000784881,-2.32482,-0.0802333,-0.735356,-136.35,0.165817,
2,1,0,1,0,5108.07,0.167597,0.16733,4.5484,3,0.0131248,10,0.000761086,-2.34214,-0.0869912,-0.67823,-120.565,0.16733,
2,1,0,1,0,5108.1,0.169098,0.168793,4.38395,3,0.0132367,10,0.000739981,-2.35813,-0.0951655,-0.619973,-106.055,0.168793,
2,1,0,1,0,5108.12,0.170592,0.17028,4.21486,3,0.0133441,10,0.000717708,-2.37522,-0.100881,-0.584847,-96.6026,0.17028,
2,1,0,1,0,5108.15,0.17209,0.171775,4.07599,3,0.0134483,10,0.000700154,-2.38977,-0.106395,-0.554537,-88.6053,0.171775,
2,1,0,1,0,5108.17,0.17359,0.173299,3.95824,3,0.0135491,10,0.000685959,-2.4025,-0.118444,-0.498126,-77.0937,0.173299,
2,1,0,1,0,5108.2,0.175089,0.174802,3.8492,3,0.0136471,10,0.000672849,-2.41463,-0.12573,-0.469258,-70.6284,0.174802,
2,1,0,1,0,5108.22,0.176583,0.176267,3.7378,3,0.0137421,10,0.00065885,-2.42738,-0.134219,-0.439579,-64.3672,0.176267,
2,1,0,1,0,5108.25,0.178084,0.177762,3.64726,3,0.0138349,10,0.000648344,-2.43803,-0.135849,-0.434305,-61.9966,0.177762,
2,1,0,1,0,5108.27,0.179585,0.179304,3.56759,3,0.0139255,10,0.000639684,-2.44762,-0.150465,-0.392117,-54.6759,0.179304,
2,1,0,1,0,5108.3,0.181079,0.180739,3.48914,3,0.0140137,10,0.000630626,-2.45728,-0.168322,-0.350519,-47.7698,0.180739,
2,1,0,1,0,5108.32,0.182579,0.182286,3.42164,3,0.0141006,10,0.000623717,-2.46577,-0.17122,-0.344586,-46.0441,0.182286,
2,1,0,1,0,5108.35,0.184078,0.183768,3.35404,3,0.0141857,10,0.000616366,-2.47443,-0.166781,-0.353758,-46.4028,0.183768,
2,1,0,1,0,5108.37,0.185578,0.185309,3.29515,3,0.0142691,10,0.000610621,-2.48212,-0.189514,-0.311323,-40.0879,0.185309,
2,1,0,1,0,5108.4,0.187072,0.186742,3.23697,3,0.0143508,10,0.000604479,-2.48986,-0.222914,-0.264676,-33.4296,0.186742,
2,1,0,1,0,5108.42,0.188573,0.188258,3.18505,3,0.0144315,10,0.000599612,-2.49688,-0.236509,-0.249462,-31.0365,0.188258,
2,1,0,1,0,5108.45,0.190072,0.189722,3.14065,3,0.014511,10,0.000595851,-2.50298,-0.214007,-0.275692,-33.8183,0.189722,
2,1,0,1,0,5108.47,0.191567,0.191238,3.09155,3,0.0145889,10,0.000591222,-2.50982,-0.249133,-0.236821,-28.6366,0.191238,
2,1,0,1,0,5108.5,0.193066,0.192739,3.05288,3,0.0146661,10,0.000588408,-2.51529,-0.311794,-0.189227,-22.5456,0.192739,
2,1,0,1,0,5108.52,0.194566,0.194239,3.01465,3,0.0147425,10,0.000585564,-2.52076,-0.333284,-0.177026,-20.8719,0.194239,
2,1,0,1,0,5108.55,0.19606,0.195753,2.98203,3,0.0148176,10,0.000583743,-2.52549,-0.250672,-0.235368,-27.4427,0.195753,
2,1,0,1,0,5108.57,0.197561,0.197241,2.94912,3,0.0148922,10,0.000581689,-2.53031,-0.291182,-0.202622,-23.318,0.1972412,
2,1,0,1,0,5108.6,0.199062,0.198802,2.91903,3,0.0149659,10,0.000580311,-2.53476,-0.374116,-0.157705,-17.9769,0.198802,
2,1,0,1,0,5108.62,0.200556,0.200239,2.89509,3,0.0150386,10,0.000579708,-2.53834,-0.439724,-0.134175,-15.1477,0.200239,
2,1,0,1,0,5108.65,0.202055,0.201728,2.86639,3,0.0151111,10,0.000578232,-2.54267,-0.365441,-0.161449,-18.0686,0.201728,
2,1,0,1,0,5108.67,0.203553,0.203261,2.84016,3,0.0151828,10,0.000577293,-2.54666,-0.379254,-0.155569,-17.271,0.203261,
2,1,0,1,0,5108.7,0.205053,0.204763,2.81639,3,0.0152539,10,0.000576692,-2.55031,-0.584142,-0.101003,-11.1442,0.204763,
2,1,0,1,0,5108.72,0.206547,0.206263,2.79612,3,0.0153243,10,0.000576736,-2.55344,-0.656031,-0.0899348,-9.84332,0.206263,
2,1,0,1,0,5108.75,0.208048,0.207715,2.78071,3,0.0153946,10,0.000577594,-2.55584,-0.442334,-0.133383,-14.476,0.207715,
2,1,0,1,0,5108.77,0.209549,0.209239,2.7692,3,0.0154644,10,0.000579424,-2.55765,-0.39812,-0.148197,-15.984,0.2092391,
2,1,0,1,0,5108.8,0.211043,0.210753,2.74589,3,0.0155333,10,0.000578706,-2.56132,-0.558361,-0.105666,-11.3139,0.210753,
2,1,0,1,0,5108.82,0.212543,0.212202,2.72656,3,0.0156021,10,0.000578581,-2.56438,-0.809082,-0.0729222,-7.75728,0.212202,
2,1,0,1,0,5108.85,0.214042,0.213739,2.7094,3,0.0156706,10,0.000579105,-2.56713,-0.594843,-0.0991859,-10.5203,0.213739,
2,1,0,1,0,5108.87,0.215536,0.215264,2.7028,3,0.0157384,10,0.000581817,-2.56819,-0.525303,-0.112316,-11.8297,0.215264,
2,1,0,1,0,5108.9,0.217036,0.216717,2.68646,3,0.0158061,10,0.000582201,-2.57082,-0.758178,-0.0778181,-8.16008,0.216717,
2,1,0,1,0,5108.92,0.218537,0.218249,2.66828,3,0.0158734,10,0.00058235,-2.57377,-1.25025,-0.0471906,-4.9251,0.218249,
2,1,0,1,0,5108.95,0.220031,0.219719,2.66344,3,0.0159402,10,0.000585208,-2.57456,-0.713351,-0.0827082,-8.59092,0.219719,
2,1,0,1,0,5108.97,0.22153,0.221271,2.65672,3,0.0160071,10,0.000587855,-2.57565,-0.637847,-0.0924987,-9.55671,0.221271,
2,1,0,1,0,5109,0.22303,0.222781,2.63642,3,0.0160737,10,0.000587343,-2.57899,-1.02215,-0.0577213,-5.94465,0.222781,
2,1,0,1,0,5109.02,0.224529,0.224257,2.627,3,0.0161398,10,0.000589123,-2.58054,-0.887628,-0.0664693,-6.83169,0.224257,
2,1,0,1,0,5109.05,0.226024,0.225708,2.61254,3,0.0162056,10,0.000589671,-2.58294,-0.837308,-0.0704639,-7.21167,0.225708,
2,1,0,1,0,5109.07,0.227525,0.227232,2.61503,3,0.0162714,10,0.000594218,-2.58252,-0.654151,-0.0901933,-9.17485,0.227232,
2,1,0,1,0,5109.1,0.229025,0.228767,2.60675,3,0.016337,10,0.000596339,-2.5839,-1.1664,-0.0505831,-5.12794,0.228767,
2,1,0,1,0,5109.12,0.23052,0.230214,2.589,3,0.016402,10,0.000596026,-2.58687,-1.38728,-0.0425293,-4.30294,0.230214,
2,1,0,1,0,5109.15,0.232019,0.23171,2.5827,3,0.016467,10,0.000598438,-2.58793,-1.46084,-0.0403877,-4.0753,0.23171,
2,1,0,1,0,5109.17,0.233519,0.233189,2.58081,3,0.016532,10,0.000601818,-2.58824,-1.16012,-0.050857,-5.10584,0.2331894,
2,1,0,1,0,5109.2,0.235018,0.234761,2.5732,3,0.0165967,10,0.000604087,-2.58953,-1.25237,-0.0471106,-4.71654,0.234761,
2,1,0,1,0,5109.22,0.236511,0.236212,2.55226,3,0.016661,10,0.000602877,-2.59307,-1.90453,-0.0309787,-3.1003,0.236212,
2,1,0,1,0,5109.25,0.238012,0.237717,2.54953,3,0.0167253,10,0.000606067,-2.59354,-1.77665,-0.0332086,-3.30775,0.237717,
2,1,0,1,0,5109.27,0.239513,0.239227,2.54744,3,0.0167895,10,0.000609417,-2.5939,-1.01792,-0.0579611,-5.75823,0.239227,
2,1,0,1,0,5109.3,0.241007,0.240701,2.54366,3,0.0168532,10,0.000612262,-2.59454,-1.92442,-0.0306585,-3.036,0.240701,
2,1,0,1,0,5109.32,0.242506,0.242175,2.52484,3,0.016917,10,0.000611455,-2.59777,-2.12012,-0.0278286,-2.75307,0.242175,
2,1,0,1,0,5109.35,0.244006,0.243725,2.51908,3,0.0169806,10,0.000613961,-2.59876,-1.25484,-0.0470179,-4.6419,0.243725,
2,1,0,1,0,5109.37,0.2455,0.245235,2.52585,3,0.0170438,10,0.000619426,-2.59759,-1.09003,-0.0541268,-5.32189,0.245235,
2,1,0,1,0,5109.4,0.247001,0.24673,2.52594,3,0.0171073,10,0.000623223,-2.59758,-1.3706,-0.0430467,-4.21475,0.2467296,
2,1,0,1,0,5109.42,0.248502,0.248253,2.50514,3,0.0171705,10,0.000621909,-2.60117,-1.80627,-0.0326639,-3.20214,0.248253,
2,1,0,1,0,5109.45,0.249995,0.249698,2.4979,3,0.0172332,10,0.000623722,-2.60242,-1.62486,-0.0363109,-3.55358,0.249698,
2,1,0,1,0,5109.47,0.251494,0.251229,2.49776,3,0.0172961,10,0.00062751,-2.60245,-1.756,-0.0335991,-3.27182,0.251229,
2,1,0,1,0,5109.5,0.252994,0.252728,2.49792,3,0.0173589,10,0.000631296,-2.60242,-0.960228,-0.0614438,-5.95962,0.252728,
2,1,0,1,0,5109.52,0.254493,0.254178,2.48439,3,0.0174216,10,0.000631477,-2.60478,-3.48702,-0.0169199,-1.64439,0.254178,
2,1,0,1,0,5109.55,0.255988,0.255668,2.47209,3,0.0174837,10,0.000632034,-2.60694,-1.68617,-0.0349905,-3.39083,0.255668,
2,1,0,1,0,5109.57,0.257488,0.257181,2.47743,3,0.0175461,10,0.00063715,-2.606,-1.41491,-0.0416988,-4.02428,0.257181,
2,1,0,1,0,5109.6,0.258989,0.258716,2.48023,3,0.0176084,10,0.000641677,-2.60551,-2.02956,-0.0290703,-2.79541,0.2587162,
2,1,0,1,0,5109.62,0.260483,0.260214,2.46503,3,0.0176703,10,0.000641436,-2.60818,-7.31197,-0.00806896,-0.775213,0.260214,
2,1,0,1,0,5109.64,0.261983,0.261735,2.45337,3,0.0177322,10,0.000642131,-2.61024,-1.08766,-0.054245,-5.2132,0.261735,
2,1,0,1,0,5109.67,0.263482,0.263195,2.45797,3,0.017794,10,0.000646926,-2.60942,-1.33355,-0.0442429,-4.23308,0.263195,
2,1,0,1,0,5109.69,0.264982,0.264664,2.45299,3,0.0178557,10,0.000649219,-2.6103,-3.87168,-0.0152389,-1.45626,0.264664,
2,1,0,1,0,5109.72,0.266476,0.266173,2.44139,3,0.017917,10,0.000649832,-2.61236,-4.72473,-0.0124875,-1.1925,0.2661728,
2,1,0,1,0,5109.74,0.267976,0.267669,2.42747,3,0.0179784,10,0.00064976,-2.61485,-1.28454,-0.045931,-4.37135,0.267669,
2,1,0,1,0,5109.77,0.269477,0.269213,2.43255,3,0.0180397,10,0.000654875,-2.61394,-1.62893,-0.0362201,-3.43543,0.269213,
2,1,0,1,0,5109.79,0.270971,0.270667,2.43892,3,0.0181006,10,0.000660137,-2.6128,-3.24654,-0.0181732,-1.71836,0.270667,
2,1,0,1,0,5109.82,0.27247,0.272178,2.42255,3,0.0181618,10,0.000659365,-2.61573,-1.34057,-0.0440113,-4.1603,0.272178,
2,1,0,1,0,5109.84,0.27397,0.273661,2.41181,3,0.0182228,10,0.000660019,-2.61766,-1.18203,-0.0499143,-4.72295,0.273661,
2,1,0,1,0,5109.87,0.275464,0.275194,2.41235,3,0.0182832,10,0.000663865,-2.61756,-1.00337,-0.0588016,-5.54293,0.275194,
2,1,0,1,0,5109.89,0.276965,0.276701,2.40994,3,0.0183439,10,0.000666833,-2.61799,-3.7221,-0.0158513,-1.4895,0.276701,
2,1,0,1,0,5109.92,0.278466,0.278209,2.40222,3,0.0184045,10,0.00066832,-2.61939,-1.77065,-0.033321,-3.12448,0.278209,
2,1,0,1,0,5109.94,0.27996,0.279722,2.39862,3,0.0184647,10,0.000670946,-2.62004,-1.25409,-0.047046,-4.41021,0.279722,
2,1,0,1,0,5109.97,0.281458,0.281164,2.39047,3,0.0185249,10,0.000672113,-2.62152,-1.47,-0.0401359,-3.74422,0.2811636,
2,1,0,1,0,5109.99,0.282958,0.282659,2.39396,3,0.018585,10,0.000676675,-2.62088,-4.82378,-0.0122311,-1.13855,0.282659,
2,1,0,1,0,5110.02,0.284457,0.284204,2.37995,3,0.0186451,10,0.00067639,-2.62343,-5.14553,-0.0114663,-1.0661,0.284204,
2,1,0,1,0,5110.04,0.285951,0.28566,2.37415,3,0.0187048,10,0.000678201,-2.62449,-0.833516,-0.0707845,-6.5788,0.28566,
2,1,0,1,0,5110.07,0.287452,0.287149,2.37113,3,0.0187645,10,0.000680866,-2.62505,-0.795577,-0.07416,-6.86369,0.287149,
2,1,0,1,0,5110.09,0.288953,0.288692,2.37518,3,0.0188242,10,0.000685694,-2.6243,-1.75584,-0.0336022,-3.0978,0.288692,
2,1,0,1,0,5110.12,0.290447,0.290167,2.36177,3,0.0188835,10,0.00068531,-2.62676,-2.44813,-0.0241,-2.22218,0.290167,
2,1,0,1,0,5110.14,0.291947,0.291682,2.34933,3,0.0189429,10,0.000685256,-2.62906,-1.29095,-0.0457027,-4.20735,0.291682,
2,1,0,1,0,5110.17,0.293446,0.293167,2.35012,3,0.0190021,10,0.000688979,-2.62891,-1.04473,-0.056474,-5.186,0.2931672,
2,1,0,1,0,5110.19,0.29494,0.294621,2.34877,3,0.019061,10,0.000691997,-2.62916,-1.89386,-0.0311533,-2.8528,0.294621,
2,1,0,1,0,5110.22,0.29644,0.296176,2.3435,3,0.01912,10,0.000694089,-2.63013,-6.46055,-0.00913235,-0.834187,0.296176,
2,1,0,1,0,5110.24,0.297941,0.297704,2.33439,3,0.019179,10,0.000694957,-2.63183,-1.25727,-0.046927,-4.28218,0.297704,
2,1,0,1,0,5110.27,0.29944,0.299158,2.33166,3,0.0192378,10,0.000697535,-2.63233,-0.0046288,-12.7463,-770.657,0.299158,
2,1,0,1,0,5110.28,0.299736,0.299422,1.70835,3,0.0192673,10,0.000511516,-2.76742,0.000867781,67.9895,1930.23,0.299422,
2,1,0,1,0,5110.31,0.298238,0.297955,0.133252,3,0.019286,10,3.97031e-05,-3.87533,0.00534539,11.0375,745.046,0.297955,
2,0,0,1,0,5110.33,0.296744,0.296463,-0.36477,3,0.0192817,10,-0.000108141,-3.43798,-0.0283459,-2.08143,269.615,0.296463,
2,0,0,1,0,5110.36,0.295243,0.294901,-0.587122,3,0.019269,10,-0.000173143,-3.23127,-0.00894434,-6.59635,115.8,0.294901,
2,0,0,1,0,5110.38,0.293742,0.293457,-0.707298,3,0.0192523,10,-0.000207562,-3.1504,-0.0220985,-2.66987,68.2295,0.293457,
2,0,0,1,0,5110.41,0.292248,0.291905,-0.783395,3,0.0192334,10,-0.000228677,-3.10602,-0.0340223,-1.73416,51.6092,0.291905,
2,0,0,1,0,5110.43,0.290748,0.290448,-0.842808,3,0.0192125,10,-0.000244792,-3.07427,-0.0448008,-1.31694,43.1752,0.290448,
2,0,0,1,0,5110.46,0.289249,0.288936,-0.901473,3,0.0191901,10,-0.000260468,-3.04505,-0.062431,-0.945043,33.2232,0.288936,
2,0,0,1,0,5110.48,0.287754,0.287447,-0.956937,3,0.0191665,10,-0.000275069,-3.01912,-0.0753256,-0.783266,28.9751,0.287447,
2,0,0,1,0,5110.51,0.286254,0.285922,-0.99245,3,0.0191417,10,-0.000283763,-3.00329,-0.0813296,-0.725444,27.9912,0.285922,
2,0,0,1,0,5110.53,0.284754,0.28445,-1.03006,3,0.019116,10,-0.000292999,-2.98714,-0.0863109,-0.683576,27.619,0.28445,
2,0,0,1,0,5110.56,0.28326,0.282954,-1.06875,3,0.0190893,10,-0.000302407,-2.97112,-0.108162,-0.54548,22.7363,0.282954,
2,0,0,1,0,5110.58,0.28176,0.28148,-1.11118,3,0.0190616,10,-0.000312775,-2.95422,-0.126764,-0.465432,19.881,0.28148,
2,0,0,1,0,5110.61,0.280261,0.279982,-1.12901,3,0.0190331,10,-0.000316102,-2.9473,-0.127828,-0.461558,20.3918,0.279982,
2,0,0,1,0,5110.63,0.278761,0.278474,-1.15877,3,0.019004,10,-0.000322686,-2.936,-0.144084,-0.409482,18.6175,0.278474,
2,0,0,1,0,5110.66,0.277267,0.276966,-1.18458,3,0.0189743,10,-0.000328089,-2.92643,-0.162373,-0.363362,16.906,0.276966,
2,0,0,1,0,5110.68,0.275766,0.275449,-1.21932,3,0.0189437,10,-0.000335861,-2.91388,-0.209894,-0.281095,13.332,0.275449,
2,0,0,1,0,5110.71,0.274265,0.273933,-1.24419,3,0.0189124,10,-0.000340826,-2.90511,-0.166683,-0.353966,17.1188,0.273933,
2,0,0,1,0,5110.73,0.272771,0.272466,-1.26634,3,0.0188808,10,-0.000345034,-2.89745,-0.166672,-0.353989,17.552,0.272466,
2,0,0,1,0,5110.76,0.271272,0.270991,-1.28809,3,0.0188485,10,-0.000349061,-2.89005,-0.201106,-0.293378,14.7565,0.270991,
2,0,0,1,0,5110.78,0.269772,0.269464,-1.3208,3,0.0188154,10,-0.000355908,-2.87916,-0.204768,-0.28813,14.7209,0.269464,
2,0,0,1,0,5110.81,0.268273,0.267936,-1.3337,3,0.0187818,10,-0.000357348,-2.87494,-0.218893,-0.269539,13.9812,0.267936,
2,0,0,1,0,5110.83,0.26678,0.266457,-1.34283,3,0.018748,10,-0.000357806,-2.87198,-0.199771,-0.295339,15.6383,0.266457,
2,0,0,1,0,5110.86,0.265279,0.264971,-1.37386,3,0.0187136,10,-0.000364032,-2.86206,-0.235108,-0.250949,13.4282,0.264971,
2,0,0,1,0,5110.88,0.263778,0.263467,-1.39433,3,0.0186786,10,-0.000367358,-2.85564,-0.266433,-0.221444,12.0034,0.263467,
2,0,0,1,0,5110.91,0.262284,0.261961,-1.4144,3,0.0186432,10,-0.000370519,-2.84943,-0.271752,-0.21711,11.9115,0.261961,
2,0,0,1,0,5110.93,0.260784,0.260481,-1.41971,3,0.0186073,10,-0.000369808,-2.8478,-0.277907,-0.212301,11.853,0.260481,
2,0,0,1,0,5110.96,0.259285,0.25898,-1.44239,3,0.018571,10,-0.000373551,-2.84092,-0.294694,-0.200208,11.311,0.25898,
2,0,0,1,0,5110.98,0.257791,0.257487,-1.46647,3,0.0185344,10,-0.000377596,-2.83373,-0.320089,-0.184324,10.5102,0.2574873,
2,0,0,1,0,5111.01,0.25629,0.255995,-1.48633,3,0.018497,10,-0.000380494,-2.82788,-0.293241,-0.2012,11.5783,0.255995,
2,0,0,1,0,5111.03,0.254789,0.254465,-1.48842,3,0.0184594,10,-0.000378752,-2.82727,-0.308526,-0.191232,11.1843,0.254465,
2,0,0,1,0,5111.06,0.253296,0.252991,-1.50324,3,0.0184216,10,-0.000380306,-2.82297,-0.356399,-0.165545,9.79784,0.252991,
2,0,0,1,0,5111.08,0.251797,0.251447,-1.52946,3,0.0183832,10,-0.000384579,-2.81546,-0.372704,-0.158302,9.43208,0.251447,
2,0,0,1,0,5111.11,0.250297,0.250016,-1.54606,3,0.0183443,10,-0.000386539,-2.81077,-0.393209,-0.150047,9.02739,0.250016,
2,0,0,1,0,5111.13,0.248797,0.248502,-1.55522,3,0.0183051,10,-0.000386474,-2.80821,-0.323619,-0.182313,11.107,0.248502,
2,0,0,1,0,5111.16,0.247303,0.247015,-1.57096,3,0.0182657,10,-0.000388051,-2.80383,-0.366853,-0.160827,9.89737,0.247015,
2,0,0,1,0,5111.18,0.245802,0.245545,-1.59321,3,0.0182258,10,-0.000391203,-2.79773,-0.394927,-0.149395,9.23075,0.245545,
2,0,0,1,0,5111.21,0.244302,0.243971,-1.61261,3,0.0181853,10,-0.000393431,-2.79247,-0.354159,-0.166592,10.3999,0.243971,
2,0,0,1,0,5111.23,0.242807,0.242502,-1.61842,3,0.0181447,10,-0.000392471,-2.79091,-0.489061,-0.120639,7.62785,0.242502,
2,0,0,1,0,5111.26,0.241308,0.241021,-1.62405,3,0.0181037,10,-0.00039143,-2.7894,-0.493163,-0.119636,7.62838,0.241021,
2,0,0,1,0,5111.28,0.239808,0.23949,-1.64685,3,0.0180624,10,-0.000394403,-2.78335,-0.351815,-0.167702,10.7661,0.23949,
2,0,0,1,0,5111.31,0.238309,0.237989,-1.66247,3,0.0180206,10,-0.00039565,-2.77925,-0.341574,-0.17273,11.1804,0.237989,
2,0,0,1,0,5111.33,0.236815,0.236509,-1.67331,3,0.0179786,10,-0.000395753,-2.77642,-0.386694,-0.152575,9.95479,0.236509,
2,0,0,1,0,5111.36,0.235315,0.235005,-1.67978,3,0.0179361,10,-0.000394756,-2.77475,-0.408045,-0.144592,9.52769,0.235005,
2,0,0,1,0,5111.38,0.233814,0.233491,-1.7019,3,0.0178934,10,-0.000397378,-2.76907,-0.44284,-0.133231,8.85259,0.233491,
2,0,0,1,0,5111.41,0.23232,0.232019,-1.72319,3,0.0178504,10,-0.000399813,-2.76367,-0.37477,-0.15743,10.5263,0.232019,
2,0,0,1,0,5111.43,0.230821,0.230487,-1.73033,3,0.0178068,10,-0.000398818,-2.76187,-0.506318,-0.116528,7.85019,0.2304865,
2,0,0,1,0,5111.46,0.229321,0.229038,-1.73763,3,0.017763,10,-0.000397984,-2.76004,-0.669339,-0.0881466,6.00165,0.229038,
2,0,0,1,0,5111.48,0.227827,0.227496,-1.75707,3,0.017719,10,-0.000399727,-2.75521,-0.476921,-0.12371,8.4846,0.227496,
2,0,0,1,0,5111.51,0.226326,0.226017,-1.77467,3,0.0176745,10,-0.000401105,-2.75088,-0.414159,-0.142457,9.82248,0.226017,
2,0,0,1,0,5111.53,0.224825,0.224493,-1.78756,3,0.0176296,10,-0.000401293,-2.74774,-0.401672,-0.146886,10.2134,0.224493,
2,0,0,1,0,5111.56,0.223331,0.223038,-1.79786,3,0.0175846,10,-0.00040099,-2.74524,-0.434454,-0.135802,9.52684,0.223038,
2,0,0,1,0,5111.58,0.221831,0.221493,-1.81009,3,0.0175391,10,-0.000400922,-2.7423,-0.549268,-0.107416,7.58582,0.221493,
2,0,0,1,0,5111.61,0.220333,0.220013,-1.82925,3,0.0174932,10,-0.000402459,-2.73773,-0.320261,-0.184225,13.0952,0.220013,
2,0,0,1,0,5111.63,0.218834,0.218527,-1.8376,3,0.0174469,10,-0.000401564,-2.73575,-0.366444,-0.161007,11.575,0.218527,
2,0,0,1,0,5111.66,0.217339,0.217009,-1.8511,3,0.0174005,10,-0.000401705,-2.73257,-0.543012,-0.108653,7.88384,0.217009,
2,0,0,1,0,5111.68,0.215839,0.215529,-1.86357,3,0.0173536,10,-0.000401654,-2.72965,-0.487471,-0.121033,8.81378,0.215529,
2,0,0,1,0,5111.71,0.214338,0.214041,-1.88514,3,0.0173064,10,-0.000403498,-2.72466,-0.393869,-0.149796,10.9584,0.214041,
2,0,0,1,0,5111.73,0.212844,0.21255,-1.8926,3,0.0172589,10,-0.000402272,-2.72294,-0.370764,-0.159131,11.757,0.21255,
2,0,0,1,0,5111.76,0.211344,0.211072,-1.90405,3,0.017211,10,-0.000401892,-2.72032,-0.547014,-0.107858,8.03596,0.211072,
2,0,0,1,0,5111.78,0.209845,0.209515,-1.91668,3,0.0171626,10,-0.000401573,-2.71745,-0.503448,-0.117192,8.78254,0.2095152,
2,0,0,1,0,5111.81,0.20835,0.208008,-1.94198,3,0.0171142,10,-0.000403947,-2.71176,-0.30665,-0.192402,14.588,0.208008,
2,0,0,1,0,5111.83,0.206851,0.206562,-1.96026,3,0.0170651,10,-0.000404914,-2.70769,-0.330453,-0.178543,13.6201,0.206562,
2,0,0,1,0,5111.86,0.20535,0.205025,-1.97131,3,0.0170154,10,-0.000404166,-2.70525,-0.522879,-0.112837,8.65865,0.205025,
2,0,0,1,0,5111.88,0.203856,0.203569,-1.98843,3,0.0169657,10,-0.000404782,-2.70149,-0.66468,-0.0887645,6.88686,0.203569,
2,0,0,1,0,5111.91,0.202356,0.202042,-1.99999,3,0.0169156,10,-0.000404082,-2.69897,-0.44109,-0.133759,10.429,0.202042,
2,0,0,1,0,5111.93,0.200857,0.200473,-2.01111,3,0.0168649,10,-0.000403173,-2.69656,-0.355978,-0.16574,13.0495,0.200473,
2,0,0,1,0,5111.96,0.199357,0.198984,-2.03395,3,0.0168138,10,-0.000404723,-2.69166,-0.514465,-0.114682,9.10841,0.198984,
2,0,0,1,0,5111.98,0.197863,0.19754,-2.05355,3,0.0167625,10,-0.000405659,-2.68749,-0.474507,-0.124339,9.94384,0.19754,
2,0,0,1,0,5112.01,0.196362,0.196063,-2.06784,3,0.0167106,10,-0.000405427,-2.68448,-0.409169,-0.144195,11.6382,0.196063,
2,0,0,1,0,5112.03,0.194861,0.19456,-2.08768,3,0.0166583,10,-0.000406179,-2.68034,-0.315467,-0.187024,15.2235,0.19456,
2,0,0,1,0,5112.06,0.193367,0.192976,-2.11006,3,0.0166056,10,-0.000407191,-2.67571,-0.351369,-0.167915,13.8211,0.192976,
2,0,0,1,0,5112.08,0.191868,0.191568,-2.13007,3,0.0165522,10,-0.000408055,-2.67161,-0.45159,-0.130649,10.8464,0.191568,
2,0,0,1,0,5112.11,0.190368,0.190046,-2.14693,3,0.0164984,10,-0.000408015,-2.66818,-0.366569,-0.160952,13.4844,0.190046,
2,0,0,1,0,5112.13,0.18887,0.188526,-2.16086,3,0.0164441,10,-0.000407377,-2.66537,-0.279409,-0.21116,17.8788,0.188526,
2,0,0,1,0,5112.16,0.187376,0.187044,-2.18571,3,0.0163894,10,-0.000408825,-2.66041,-0.309869,-0.190403,16.3063,0.187044,
2,0,0,1,0,5112.18,0.185875,0.185549,-2.21729,3,0.0163339,10,-0.000411417,-2.65418,-0.385584,-0.153015,13.2044,0.185549,
2,0,0,1,0,5112.21,0.184374,0.184068,-2.23913,3,0.0162778,10,-0.000412152,-2.64992,-0.31428,-0.187731,16.3781,0.1840677,
2,0,0,1,0,5112.23,0.18288,0.182537,-2.25894,3,0.0162214,10,-0.000412341,-2.6461,-0.257388,-0.229226,20.2468,0.182537,
2,0,0,1,0,5112.26,0.18138,0.18103,-2.28896,3,0.016164,10,-0.000414372,-2.64036,-0.284273,-0.207547,18.6081,0.18103,
2,0,0,1,0,5112.28,0.179881,0.179599,-2.32137,3,0.0161059,10,-0.000416914,-2.63426,-0.344747,-0.17114,15.4713,0.179599,
2,0,0,1,0,5112.31,0.178387,0.178047,-2.35521,3,0.0160473,10,-0.000419338,-2.62797,-0.280533,-0.210314,19.2979,0.178047,
2,0,0,1,0,5112.33,0.176886,0.176634,-2.37848,3,0.0159879,10,-0.00042012,-2.6237,-0.23077,-0.255666,23.785,0.176634,
2,0,0,1,0,5112.36,0.175385,0.175077,-2.41273,3,0.0159275,10,-0.000422415,-2.61749,-0.217393,-0.271398,25.5809,0.1750773,
2,0,0,1,0,5112.38,0.173892,0.173575,-2.44966,3,0.0158665,10,-0.000425201,-2.61089,-0.234219,-0.251901,24.0836,0.173575,
2,0,0,1,0,5112.41,0.172392,0.172042,-2.49492,3,0.0158042,10,-0.000429232,-2.60294,-0.218302,-0.270267,26.2669,0.172042,
2,0,0,1,0,5112.43,0.170893,0.170618,-2.52815,3,0.0157411,10,-0.000431346,-2.5972,-0.191626,-0.307891,30.4544,0.170618,
2,0,0,1,0,5112.46,0.169393,0.169095,-2.56511,3,0.0156769,10,-0.000433748,-2.59089,-0.179091,-0.329442,33.1617,0.169095,
2,0,0,1,0,5112.48,0.167899,0.167593,-2.62576,3,0.0156116,10,-0.000440059,-2.58074,-0.187685,-0.314356,32.2538,0.167593,
2,0,0,1,0,5112.51,0.166398,0.16606,-2.67998,3,0.0155448,10,-0.000445037,-2.57187,-0.181534,-0.325008,33.9721,0.16606,
2,0,0,1,0,5112.53,0.164898,0.164555,-2.73283,3,0.0154768,10,-0.000449703,-2.56339,-0.157528,-0.374536,39.994,0.164555,
2,0,0,1,0,5112.56,0.163403,0.163092,-2.79392,3,0.0154076,10,-0.000455665,-2.55379,-0.144912,-0.407143,44.4943,0.163092,
2,0,0,1,0,5112.58,0.161904,0.161581,-2.86528,3,0.0153364,10,-0.000462973,-2.54283,-0.148814,-0.396468,44.3637,0.161581,
2,0,0,1,0,5112.61,0.160404,0.160082,-2.93746,3,0.0152635,10,-0.000470233,-2.53203,-0.1388,-0.425072,48.6684,0.160082,
2,0,0,1,0,5112.63,0.158905,0.158555,-3.01688,3,0.0151886,10,-0.000478341,-2.52044,-0.123883,-0.476256,56.1629,0.158555,
2,0,0,1,0,5112.66,0.157411,0.15708,-3.09559,3,0.0151121,10,-0.000486256,-2.50926,-0.115112,-0.512546,62.3703,0.15708,
2,0,0,1,0,5112.68,0.155911,0.155601,-3.19856,3,0.0150329,10,-0.0004977,-2.49504,-0.111974,-0.526906,65.9127,0.155601,
2,0,0,1,0,5112.71,0.15441,0.154087,-3.31392,3,0.0149511,10,-0.000510633,-2.47966,-0.106059,-0.556295,71.7047,0.154087,
2,0,0,1,0,5112.73,0.152916,0.152601,-3.42241,3,0.0148669,10,-0.000522265,-2.46567,-0.09686,-0.609127,81.3886,0.152601,
2,0,0,1,0,5112.75,0.151417,0.15115,-3.53641,3,0.0147795,10,-0.000534529,-2.45144,-0.0962446,-0.613021,85.0076,0.15115,
2,0,0,1,0,5112.78,0.149917,0.149587,-3.68219,3,0.0146888,10,-0.000550808,-2.43389,-0.0898362,-0.65675,94.5817,0.149587,
2,0,0,1,0,5112.8,0.148423,0.14813,-3.83809,3,0.0145949,10,-0.000568537,-2.41588,-0.0865595,-0.681612,102.009,0.1481303,
2,0,0,1,0,5112.83,0.146922,0.14659,-3.99573,3,0.0144966,10,-0.000585732,-2.3984,-0.0804544,-0.733335,114.39,0.14659,
2,0,0,1,0,5112.85,0.145421,0.145073,-4.15763,3,0.0143943,10,-0.000603159,-2.38115,-0.0805105,-0.732824,119.35,0.145073,
2,0,0,1,0,5112.88,0.143927,0.143614,-4.34572,3,0.0142879,10,-0.000624105,-2.36194,-0.0778579,-0.75779,128.773,0.143614,
2,0,0,1,0,5112.9,0.142429,0.142092,-4.55339,3,0.0141762,10,-0.000646998,-2.34167,-0.0784636,-0.751941,133.469,0.142092,
2,0,0,1,0,5112.93,0.140929,0.140654,-4.75435,3,0.0140594,10,-0.000668717,-2.32291,-0.0798565,-0.738825,136.897,0.140654,
2,0,0,1,0,5112.95,0.13943,0.139154,-4.94713,3,0.0139376,10,-0.000688412,-2.30565,-0.080938,-0.728953,141.101,0.139154,
2,0,0,1,0,5112.98,0.137935,0.137653,-5.1673,3,0.013811,10,-0.000711293,-2.28674,-0.0847916,-0.695823,140.345,0.137653,
2,0,0,1,0,5113,0.136435,0.136147,-5.39628,3,0.0136785,10,-0.000734689,-2.26791,-0.0871238,-0.677197,142.244,0.136147,
2,0,0,1,0,5113.03,0.134934,0.134603,-5.60967,3,0.0135406,10,-0.000755081,-2.25106,-0.0898431,-0.6567,143.258,0.134603,
2,0,0,1,0,5113.05,0.13344,0.133156,-5.81123,3,0.0133978,10,-0.0007738,-2.23573,-0.0967511,-0.609812,138.184,0.133156,
2,0,0,1,0,5113.08,0.13194,0.131629,-6.00711,3,0.0132495,10,-0.000790709,-2.22133,-0.104372,-0.565286,132.818,0.1316289,
2,0,0,1,0,5113.1,0.13044,0.130128,-6.22282,3,0.0130961,10,-0.000809765,-2.20601,-0.109885,-0.536926,130.051,0.130128,
2,0,0,1,0,5113.13,0.128941,0.128608,-6.40869,3,0.0129377,10,-0.000824209,-2.19323,-0.120064,-0.491404,122.608,0.128608,
2,0,0,1,0,5113.15,0.127447,0.127123,-6.58433,3,0.0127754,10,-0.00083702,-2.18149,-0.132073,-0.446721,114.578,0.127123,
2,0,0,1,0,5113.18,0.125946,0.125604,-6.74875,3,0.0126082,10,-0.000847671,-2.17078,-0.150828,-0.391173,102.829,0.125604,
2,0,0,1,0,5113.2,0.124446,0.124146,-6.89816,3,0.0124372,10,-0.000856379,-2.16127,-0.163144,-0.361644,97.0892,0.124146,
2,0,0,1,0,5113.23,0.122952,0.122689,-7.03801,3,0.0122633,10,-0.000863487,-2.15255,-0.183116,-0.322199,88.2159,0.122689,
2,0,0,1,0,5113.25,0.121453,0.121139,-7.14637,3,0.0120854,10,-0.000865704,-2.14591,-0.221435,-0.266444,74.2437,0.121139,
2,0,0,1,0,5113.28,0.119953,0.119637,-7.24954,3,0.0119048,10,-0.000867312,-2.13969,-0.27747,-0.212636,60.1288,0.119637,
2,0,0,1,0,5113.3,0.118459,0.118166,-7.34478,3,0.0117227,10,-0.000867901,-2.13402,-0.305666,-0.193021,55.1998,0.118166,
2,0,0,1,0,5113.33,0.116958,0.116598,-7.42738,3,0.0115376,10,-0.000866018,-2.12916,-0.348255,-0.169416,48.9706,0.116598,
2,0,0,1,0,5113.35,0.115457,0.115112,-7.48099,3,0.0113508,10,-0.000861152,-2.12604,-0.494471,-0.119319,34.7684,0.115112,
2,0,0,1,0,5113.38,0.113963,0.113669,-7.51838,3,0.0111635,10,-0.000854607,-2.12388,-0.774459,-0.0761822,22.3464,0.113669,
2,0,0,1,0,5113.4,0.112464,0.112175,-7.56281,3,0.0109745,10,-0.000848356,-2.12132,-0.954266,-0.0618277,18.2182,0.1121748,
2,0,0,1,0,5113.43,0.110965,0.110639,-7.58178,3,0.0107848,10,-0.000838841,-2.12023,-1.5503,-0.0380571,11.2396,0.110639,
2,0,0,1,0,5113.45,0.109466,0.109147,-7.57779,3,0.0105947,10,-0.000827096,-2.12046,-49.0548,-0.00120274,0.355533,0.109147,
2,0,0,1,0,5113.48,0.107972,0.107672,-7.57989,3,0.0104054,10,-0.000816146,-2.12034,1.57529,0.0374535,-11.0689,0.107672,
2,0,0,1,0,5113.5,0.106471,0.106193,-7.55931,3,0.0102157,10,-0.000802745,-2.12152,0.935138,0.0630923,-18.5986,0.106193,
2,0,0,1,0,5113.53,0.10497,0.104644,-7.53261,3,0.0100266,10,-0.000788241,-2.12305,0.853564,0.069122,-20.287,0.104644,
2,0,0,1,0,5113.55,0.103476,0.103152,-7.49608,3,0.00983909,10,-0.000773237,-2.12517,0.593272,0.0994485,-29.0382,0.103152,
2,0,0,1,0,5113.58,0.101976,0.10167,-7.44312,3,0.00965188,10,-0.000756738,-2.12825,0.42872,0.137619,-39.9182,0.10167,
2,0,0,1,0,5113.6,0.100477,0.100131,-7.37631,3,0.0094662,10,-0.000738597,-2.13216,0.368487,0.160114,-46.0642,0.100131,
2,0,0,1,0,5113.63,0.0989825,0.0987012,-7.31283,3,0.00928291,10,-0.000721785,-2.13591,0.374126,0.157701,-44.9495,0.0987012,
2,0,0,1,0,5113.65,0.0974817,0.0971302,-7.2295,3,0.0091007,10,-0.000702203,-2.14089,0.318444,0.185276,-52.247,0.0971302,
2,0,0,1,0,5113.68,0.0959822,0.0956505,-7.14275,3,0.00892048,10,-0.000683207,-2.14613,0.271437,0.217361,-60.5704,0.0956505,
2,0,0,1,0,5113.7,0.094488,0.0941455,-7.05611,3,0.00874326,10,-0.000664302,-2.15143,0.251976,0.234149,-64.4307,0.0941455,
2,0,0,1,0,5113.73,0.0929884,0.0926758,-6.96208,3,0.00856764,10,-0.000645216,-2.15726,0.273332,0.215855,-58.6219,0.09267582,
2,0,0,1,0,5113.75,0.0914889,0.0911463,-6.86615,3,0.00839436,10,-0.000625823,-2.16329,0.261097,0.225969,-60.5452,0.0911463,
2,0,0,1,0,5113.78,0.0899894,0.0896371,-6.77185,3,0.00822335,10,-0.000607009,-2.16929,0.246684,0.239172,-63.1928,0.0896371,
2,0,0,1,0,5113.8,0.0884951,0.0881559,-6.67733,3,0.00805544,10,-0.000588646,-2.1754,0.240714,0.245104,-63.8763,0.0881559,
2,0,0,1,0,5113.83,0.0869943,0.0866325,-6.58465,3,0.00788929,10,-0.000570445,-2.18147,0.256406,0.230103,-59.1607,0.0866325,
2,0,0,1,0,5113.85,0.0854935,0.0851585,-6.49335,3,0.00772538,10,-0.000552964,-2.18753,0.269343,0.219052,-55.5768,0.0851585,
2,0,0,1,0,5113.88,0.0839993,0.0836986,-6.41437,3,0.0075642,10,-0.000536873,-2.19285,0.265664,0.222085,-55.6241,0.0836986,
2,0,0,1,0,5113.9,0.0824998,0.0821788,-6.34068,3,0.00740437,10,-0.00052107,-2.19786,0.278182,0.212091,-52.4517,0.0821788,
2,0,0,1,0,5113.93,0.0810002,0.0807408,-6.26608,3,0.0072465,10,-0.000505929,-2.203,0.332467,0.177461,-43.438,0.0807408,
2,0,0,1,0,5113.95,0.0795007,0.0791548,-6.1945,3,0.00709034,10,-0.000490324,-2.20799,0.37251,0.158385,-38.3439,0.0791548,
2,0,0,1,0,5113.98,0.0780078,0.0776795,-6.1358,3,0.0069363,10,-0.000476626,-2.21213,0.360821,0.163516,-39.2004,0.0776795,
2,0,0,1,0,5114,0.076507,0.0761385,-6.08863,3,0.00678309,10,-0.000463579,-2.21548,0.363931,0.162119,-38.4805,0.0761385,
2,0,0,1,0,5114.03,0.0750062,0.0747044,-6.02778,3,0.00663131,10,-0.000450301,-2.21984,0.424352,0.139036,-32.7102,0.0747044,
2,0,0,1,0,5114.05,0.073512,0.0731949,-5.97012,3,0.00648142,10,-0.000436982,-2.22402,0.475812,0.123999,-28.9455,0.0731949,
2,0,0,1,0,5114.08,0.0720124,0.0716922,-5.9258,3,0.00633208,10,-0.000424833,-2.22725,0.434362,0.135831,-31.48,0.0716922,
2,0,0,1,0,5114.1,0.0705129,0.0702067,-5.89519,3,0.00618384,10,-0.000413882,-2.2295,0.434229,0.135873,-31.2332,0.0702067,
2,0,0,1,0,5114.13,0.0690187,0.0687165,-5.84491,3,0.0060373,10,-0.000401642,-2.23322,0.489028,0.120648,-27.5248,0.0687165,
2,0,0,1,0,5114.15,0.0675179,0.0671956,-5.80325,3,0.00589122,10,-0.000389953,-2.23633,0.593977,0.0993305,-22.5208,0.06719555,
2,0,0,1,0,5114.18,0.066017,0.0657145,-5.77182,3,0.00574609,10,-0.000379293,-2.23869,0.513722,0.114848,-25.8816,0.0657145,
2,0,0,1,0,5114.2,0.0645242,0.0642045,-5.73679,3,0.00560237,10,-0.000368328,-2.24133,0.488383,0.120807,-26.9937,0.0642045,
2,0,0,1,0,5114.23,0.0630246,0.0627074,-5.69263,3,0.00545902,10,-0.00035697,-2.24469,0.533703,0.110548,-24.5553,0.0627074,
2,0,0,1,0,5114.25,0.0615251,0.0612176,-5.64794,3,0.00531681,10,-0.000345754,-2.24811,0.529416,0.111444,-24.6272,0.0612176,
2,0,0,1,0,5114.28,0.0600256,0.0596984,-5.61274,3,0.00517547,10,-0.000335071,-2.25083,0.531233,0.111062,-24.3503,0.0596984,
2,0,0,1,0,5114.3,0.0585314,0.0582122,-5.58055,3,0.00503558,10,-0.000324856,-2.25332,0.45753,0.128953,-28.0709,0.0582122,
2,0,0,1,0,5114.33,0.0570305,0.0567058,-5.54945,3,0.00489607,10,-0.000314686,-2.25575,0.52143,0.11315,-24.4688,0.0567058,
2,0,0,1,0,5114.35,0.0555297,0.0552248,-5.49992,3,0.00475761,10,-0.000303732,-2.25964,0.523862,0.112625,-24.2145,0.0552248,
2,0,0,1,0,5114.38,0.0540355,0.0537042,-5.46032,3,0.00462063,10,-0.000293242,-2.26278,0.499544,0.118108,-25.1924,0.0537042,
2,0,0,1,0,5114.4,0.052536,0.052205,-5.43362,3,0.00448395,10,-0.000283662,-2.26491,0.461309,0.127897,-27.0793,0.052205,
2,0,0,1,0,5114.43,0.0510364,0.0507002,-5.39016,3,0.00434828,10,-0.000273282,-2.2684,0.442112,0.13345,-28.0465,0.0507002,
2,0,0,1,0,5114.45,0.0495369,0.0492382,-5.33593,3,0.00421374,10,-0.000262732,-2.27279,0.468286,0.125991,-26.306,0.0492382,
2,0,0,1,0,5114.48,0.0480427,0.0477212,-5.29052,3,0.00408082,10,-0.00025247,-2.2765,0.445951,0.132301,-27.3932,0.0477212,
2,0,0,1,0,5114.5,0.0465432,0.0462206,-5.26016,3,0.00394837,10,-0.000243128,-2.279,0.404197,0.145968,-29.9492,0.0462206,
2,0,0,1,0,5114.53,0.0450424,0.0447079,-5.2222,3,0.00381693,10,-0.000233474,-2.28215,0.397766,0.148328,-30.1498,0.0447079,
2,0,0,1,0,5114.55,0.0435482,0.0432087,-5.16208,3,0.00368721,10,-0.000223047,-2.28718,0.38491,0.153283,-30.9198,0.0432087,
2,0,0,1,0,5114.58,0.0420486,0.0417042,-5.11969,3,0.00355818,10,-0.000213512,-2.29076,0.369065,0.159864,-31.961,0.04170417,
2,0,0,1,0,5114.6,0.0405491,0.0402587,-5.07795,3,0.00343029,10,-0.000204432,-2.29431,0.343509,0.171757,-34.0008,0.0402587,
2,0,0,1,0,5114.63,0.0390549,0.0387243,-5.03353,3,0.00330406,10,-0.00019492,-2.29813,0.323221,0.182538,-35.7504,0.0387243,
2,0,0,1,0,5114.65,0.0375541,0.0372506,-4.96959,3,0.00317859,10,-0.00018512,-2.30368,0.333818,0.176743,-34.2924,0.0372506,
2,0,0,1,0,5114.68,0.0360532,0.0357766,-4.9187,3,0.00305462,10,-0.000175974,-2.30815,0.314823,0.187407,-35.9907,0.0357766,
2,0,0,1,0,5114.7,0.034559,0.0342691,-4.8658,3,0.00293239,10,-0.000166747,-2.31285,0.306262,0.192646,-36.5675,0.0342691,
2,0,0,1,0,5114.73,0.0330595,0.0327863,-4.81553,3,0.00281098,10,-0.000157883,-2.31736,0.307373,0.191949,-36.0221,0.0327863,
2,0,0,1,0,5114.75,0.0315613,0.0312441,-4.75849,3,0.00269088,10,-0.000148674,-2.32253,0.308078,0.19151,-35.5308,0.0312441,
2,0,0,1,0,5114.78,0.0300618,0.0297627,-4.69506,3,0.00257226,10,-0.000139738,-2.32836,0.289811,0.203581,-37.4,0.0297627,
2,0,0,1,0,5114.8,0.0285676,0.0282265,-4.65293,3,0.00245546,10,-0.000131336,-2.33227,0.288514,0.204496,-37.0805,0.0282265,
2,0,0,1,0,5114.83,0.0270667,0.0267764,-4.60301,3,0.00233942,10,-0.000123252,-2.33696,0.304873,0.193523,-34.701,0.0267764,
2,0,0,1,0,5114.85,0.0255659,0.0252421,-4.54767,3,0.00222467,10,-0.000114793,-2.34221,0.305231,0.193296,-34.2874,0.0252421,
2,0,0,1,0,5114.88,0.0240717,0.023751,-4.48891,3,0.00211175,10,-0.000106616,-2.34786,0.310833,0.189812,-33.3243,0.023751,
2,0,0,1,0,5114.9,0.0225722,0.0222349,-4.44922,3,0.00199963,10,-9.89278e-05,-2.35172,0.329707,0.178947,-31.054,0.0222349,
2,0,0,1,0,5114.93,0.0210726,0.0207819,-4.40731,3,0.00188861,10,-9.15922e-05,-2.35583,0.369476,0.159685,-27.4272,0.0207819,
2,0,0,1,0,5114.95,0.0195784,0.019255,-4.35963,3,0.00177907,10,-8.39446e-05,-2.36055,0.370293,0.159333,-27.095,0.019255,
2,0,0,1,0,5114.98,0.0180789,0.0177637,-4.31342,3,0.00167017,10,-7.66223e-05,-2.36518,0.380238,0.155166,-26.1794,0.0177637,
2,0,0,1,0,5115,0.0165781,0.0162666,-4.28535,3,0.00156229,10,-6.9708e-05,-2.36801,0.396604,0.148763,-24.8609,0.0162666,
2,0,0,1,0,5115.03,0.0150839,0.0147606,-4.25657,3,0.00145564,10,-6.28296e-05,-2.37094,0.457659,0.128917,-21.369,0.0147606,
2,0,0,1,0,5115.05,0.0135844,0.0132362,-4.21915,3,0.00134934,10,-5.58456e-05,-2.37477,0.46619,0.126558,-20.8196,0.0132362,
2,0,0,1,0,5115.08,0.0120848,0.0117508,-4.18368,3,0.00124385,10,-4.91614e-05,-2.37844,0.482262,0.12234,-20.0004,0.0117508,
2,0,0,1,0,5115.1,0.0105853,0.0102774,-4.15507,3,0.0011392,10,-4.27034e-05,-2.38142,0.49194,0.119933,-19.485,0.0102774,
2,0,0,1,0,5115.13,0.00909108,0.00882453,-4.13994,3,0.00103555,10,-3.6533e-05,-2.38301,0.753145,0.0783382,-12.6382,0.00882453,
2,0,0,1,0,5115.15,0.00759027,0.00731161,-4.11436,3,0.000931962,10,-3.00826e-05,-2.3857,1.02806,0.0573896,-9.21913,0.00731161,
2,0,0,1,0,5115.18,0.00608945,0.00575826,-4.0932,3,0.000828827,10,-2.35697e-05,-2.38794,0.791352,0.0745559,-11.9228,0.00575826,
2,0,0,1,0,5115.2,0.00459524,0.00430335,-4.0777,3,0.000726647,10,-1.75478e-05,-2.38959,0.803908,0.0733915,-11.7053,0.00430335,
2,0,0,1,0,5115.23,0.0030957,0.00277533,-4.07421,3,0.000624368,10,-1.13073e-05,-2.38996,-2.60876,-0.0226161,3.60186,0.00277533,
2,0,0,1,0,5115.25,0.00159616,0.00124964,-4.10185,3,0.000521711,10,-5.12583e-06,-2.38702, , , ,0.00124964,
2,0,0,1,0,5115.28,0.000199195,-0.000161173,-4.07005,3,0.000426082,10,6.5598e-07,-2.3904, , , ,-0.000161173,