File: Figure_codes/Fig_3-5/rawdata_trumpetplot_data/after 10th/20221101_1-115_003_TrumpetPlot_ParaChange_from10_every3_10_CV_C01_1.csv
mode,ox/red,error,control changes,counter inc.,time/s,control/V,Ewe/V,<I>/mA,cycle number,(Q-Qo)/C,I Range,P/W,log(|I|),Tafel slope mV/dec,alpha_eff,dI/d(E-IR),E-IR/V,
2,1,0,0,0,3160.65,-2.44065e-05,-0.000306236,5.34504,2,0.0000000E+000,10,-1.63684e-06,-2.27205, , , ,-0.000306236,
2,1,0,1,0,3160.66,0.00179726,0.00144821,6.4377,2,5.23863e-05,10,9.32312e-06,-2.19127, , , ,0.00144821,
2,1,0,1,0,3160.67,0.00379485,0.00348657,7.34229,2,0.000121823,10,2.55994e-05,-2.13417,0.0433741,1.36026,380.606,0.00348657,
2,1,0,1,0,3160.68,0.00579244,0.00543427,7.95482,2,0.00019847,10,4.32287e-05,-2.09937,0.0654278,0.901757,277.27,0.00543427,
2,1,0,1,0,3160.69,0.00779002,0.00744719,8.44045,2,0.000280642,10,6.28576e-05,-2.07363,0.0903366,0.653113,213.632,0.00744719,
2,1,0,1,0,3160.7,0.00977853,0.0094977,8.8229,2,0.000366236,10,8.37973e-05,-2.05439,0.116767,0.505279,173.175,0.009497704,
2,1,0,1,0,3160.71,0.0117761,0.0114437,9.13255,2,0.000456167,10,0.000104511,-2.03941,0.148419,0.397524,141.104,0.0114437,
2,1,0,1,0,3160.72,0.0137737,0.0133967,9.37307,2,0.000548696,10,0.000125568,-2.02812,0.189419,0.311478,113.786,0.0133967,
2,1,0,1,0,3160.73,0.0157713,0.0154824,9.5921,2,0.000643597,10,0.000148509,-2.01809,0.225962,0.261106,97.5126,0.0154824,
2,1,0,1,0,3160.74,0.017778,0.0174493,9.76825,2,0.000740447,10,0.000170449,-2.01018,0.278359,0.211957,80.6567,0.0174493,
2,1,0,1,0,3160.75,0.0197755,0.0194335,9.91078,2,0.000838957,10,0.000192601,-2.00389,0.32548,0.181271,70.0968,0.0194335,
2,1,0,1,0,3160.76,0.0217731,0.0214689,10.05,2,0.000938805,10,0.000215763,-1.99783,0.345866,0.170586,66.8739,0.0214689,
2,1,0,1,0,3160.77,0.0237707,0.0234653,10.1804,2,0.00104004,10,0.000238886,-1.99224,0.37043,0.159274,63.2545,0.0234653,
2,1,0,1,0,3160.78,0.0257774,0.0254729,10.3033,2,0.00114244,10,0.000262455,-1.98702,0.396391,0.148843,59.827,0.02547292,
2,1,0,1,0,3160.79,0.027775,0.0274537,10.419,2,0.00124611,10,0.00028604,-1.98217,0.418276,0.141055,57.3467,0.0274537,
2,1,0,1,0,3160.8,0.0297726,0.0294639,10.5322,2,0.00135083,10,0.000310318,-1.97748,0.454746,0.129743,53.2879,0.0294639,
2,1,0,1,0,3160.81,0.0317701,0.0314082,10.6297,2,0.00145671,10,0.000333861,-1.97348,0.430664,0.136998,56.912,0.0314082,
2,1,0,1,0,3160.82,0.0337587,0.0334274,10.7577,2,0.00156256,10,0.000359603,-1.96828,0.396525,0.148793,62.4515,0.0334274,
2,1,0,1,0,3160.83,0.0357562,0.0354252,10.8806,2,0.0016708,10,0.000385448,-1.96335,0.433309,0.136162,57.7705,0.0354252,
2,1,0,1,0,3160.84,0.0377538,0.0373785,10.986,2,0.00178011,10,0.000410639,-1.95916,0.423133,0.139436,59.8564,0.03737849,
2,1,0,1,0,3160.85,0.0397514,0.0394113,11.1192,2,0.00189067,10,0.000438222,-1.95393,0.378664,0.155811,67.635,0.0394113,
2,1,0,1,0,3160.86,0.0417399,0.0414377,11.2605,2,0.00200139,10,0.000466611,-1.94844,0.376311,0.156785,68.8804,0.0414377,
2,1,0,1,0,3160.87,0.0437375,0.0434324,11.3962,2,0.00211471,10,0.000494963,-1.94324,0.393875,0.149794,66.6007,0.0434324,
2,1,0,1,0,3160.88,0.0457351,0.0454183,11.5256,2,0.00222926,10,0.000523475,-1.93834,0.374322,0.157618,70.9669,0.0454183,
2,1,0,1,0,3160.89,0.0477327,0.0474121,11.6786,2,0.00234533,10,0.000553706,-1.93261,0.338615,0.174239,79.453,0.0474121,
2,1,0,1,0,3160.9,0.0497393,0.0494292,11.8443,2,0.00246289,10,0.000585455,-1.92649,0.33876,0.174165,80.4724,0.0494292,
2,1,0,1,0,3160.91,0.0517369,0.0514221,12.0013,2,0.00258214,10,0.000617132,-1.92077,0.33245,0.17747,83.1706,0.05142213,
2,1,0,1,0,3160.92,0.0537345,0.0533899,12.1737,2,0.00270298,10,0.000649953,-1.91458,0.328379,0.17967,85.3452,0.0533899,
2,1,0,1,0,3160.93,0.0557321,0.0554261,12.343,2,0.00282561,10,0.000684126,-1.90858,0.34699,0.170034,81.8695,0.0554261,
2,1,0,1,0,3160.94,0.0577297,0.057406,12.5025,2,0.00294982,10,0.00071772,-1.903,0.321673,0.183416,89.6142,0.057406,
2,1,0,1,0,3160.95,0.0597364,0.0593763,12.697,2,0.00307595,10,0.000753902,-1.8963,0.322215,0.183108,90.6409,0.05937634,
2,1,0,1,0,3160.96,0.0617339,0.0614282,12.8671,2,0.00320379,10,0.000790403,-1.89052,0.347858,0.16961,85.18,0.0614282,
2,1,0,1,0,3160.97,0.0637315,0.0634176,13.0413,2,0.00333339,10,0.000827046,-1.88468,0.33808,0.174515,88.8222,0.0634176,
2,1,0,1,0,3160.98,0.0657291,0.0653715,13.2173,2,0.00346466,10,0.000864038,-1.87886,0.309516,0.19062,98.4608,0.0653715,
2,1,0,1,0,3160.99,0.0677176,0.0673766,13.4311,2,0.0035967,10,0.000904939,-1.87189,0.309446,0.190663,99.8385,0.0673766,
2,1,0,1,0,3161,0.0697152,0.0693983,13.6194,2,0.00373196,10,0.000945161,-1.86584,0.330441,0.178549,94.9171,0.0693983,
2,1,0,1,0,3161.01,0.0717128,0.0714072,13.8136,2,0.00386915,10,0.000986393,-1.85969,0.336629,0.175267,94.4484,0.0714072,
2,1,0,1,0,3161.02,0.0737104,0.0734106,13.9983,2,0.00400821,10,0.00102763,-1.85392,0.327802,0.179987,98.3832,0.0734106,
2,1,0,1,0,3161.03,0.0756989,0.0753377,14.2003,2,0.00414789,10,0.00106982,-1.8477,0.35285,0.16721,92.5489,0.0753377,
2,1,0,1,0,3161.04,0.0776965,0.0774026,14.3678,2,0.00429069,10,0.0011121,-1.84261,0.365508,0.161419,90.6037,0.0774026,
2,1,0,1,0,3161.05,0.0796941,0.0793703,14.5657,2,0.00443544,10,0.00115608,-1.83667,0.353685,0.166815,94.7614,0.0793703,
2,1,0,1,0,3161.06,0.0816916,0.0813849,14.7452,2,0.00458198,10,0.00120003,-1.83135,0.370608,0.159198,91.638,0.0813849,
2,1,0,1,0,3161.07,0.0836983,0.0833969,14.9347,2,0.00473041,10,0.00124551,-1.8258,0.374237,0.157654,91.8385,0.0833969,
2,1,0,1,0,3161.08,0.0856959,0.085349,15.1092,2,0.00488064,10,0.00128956,-1.82076,0.378066,0.156057,92.0608,0.085349,
2,1,0,1,0,3161.09,0.0876935,0.0873445,15.2981,2,0.00503274,10,0.0013362,-1.81536,0.406902,0.144998,86.4855,0.08734446,
2,1,0,1,0,3161.1,0.0896911,0.0893903,15.4587,2,0.00518649,10,0.00138186,-1.81083,0.40153,0.146938,88.7509,0.08939027,
2,1,0,1,0,3161.11,0.0916978,0.0913823,15.6565,2,0.00534211,10,0.00143072,-1.80531,0.405121,0.145636,88.87,0.0913823,
2,1,0,1,0,3161.12,0.0936953,0.0933934,15.8145,2,0.00549949,10,0.00147697,-1.80094,0.435119,0.135595,83.7376,0.0933934,
2,1,0,1,0,3161.13,0.0956929,0.095395,15.9925,2,0.00565864,10,0.0015256,-1.79608,0.417476,0.141326,88.1827,0.095395,
2,1,0,1,0,3161.14,0.0976905,0.0973471,16.1631,2,0.00581942,10,0.00157343,-1.79147,0.407185,0.144897,91.4627,0.0973471,
2,1,0,1,0,3161.15,0.099679,0.0993813,16.3571,2,0.00598041,10,0.00162559,-1.78629,0.419947,0.140494,89.6064,0.0993813,
2,1,0,1,0,3161.16,0.101677,0.101365,16.5231,2,0.00614482,10,0.00167486,-1.78191,0.421529,0.139967,90.3301,0.101365,
2,1,0,1,0,3161.17,0.103674,0.103369,16.7173,2,0.00631102,10,0.00172805,-1.77683,0.395046,0.14935,97.431,0.103369,
2,1,0,1,0,3161.18,0.105672,0.105336,16.9101,2,0.00647912,10,0.00178125,-1.77185,0.3771,0.156457,103.323,0.1053365,
2,1,0,1,0,3161.19,0.107656,0.107338,17.1273,2,0.00664762,10,0.00183841,-1.76631,0.37137,0.158871,106.161,0.107338,
2,1,0,1,0,3161.2,0.109658,0.109346,17.3358,2,0.00681988,10,0.0018956,-1.76106,0.355092,0.166154,112.515,0.109346,
2,1,0,1,0,3161.21,0.111655,0.111337,17.5773,2,0.00699449,10,0.00195701,-1.75505,0.336383,0.175395,120.307,0.111337,
2,1,0,1,0,3161.22,0.113653,0.11335,17.8175,2,0.00717147,10,0.00201961,-1.74915,0.323055,0.182632,127.077,0.11335,
2,1,0,1,0,3161.23,0.115651,0.115316,18.083,2,0.00735097,10,0.00208526,-1.74273,0.302152,0.195266,137.886,0.115316,
2,1,0,1,0,3161.24,0.117657,0.117378,18.3729,2,0.00753329,10,0.00215658,-1.73582,0.294242,0.200515,143.766,0.117378,
2,1,0,1,0,3161.25,0.119655,0.11935,18.663,2,0.00771856,10,0.00222743,-1.72902,0.287117,0.205491,149.684,0.11935,
2,1,0,1,0,3161.26,0.121652,0.121296,18.9594,2,0.00790673,10,0.00229971,-1.72218,0.282739,0.208673,154.484,0.121296,
2,1,0,1,0,3161.27,0.12365,0.123339,19.2791,2,0.00809803,10,0.00237786,-1.71491,0.278648,0.211737,159.326,0.1233388,
2,1,0,1,0,3161.28,0.125657,0.125354,19.6059,2,0.00829259,10,0.00245768,-1.70761,0.275717,0.213988,163.725,0.125354,
2,1,0,1,0,3161.29,0.127654,0.127339,19.9341,2,0.00849038,10,0.00253839,-1.7004,0.282006,0.209216,162.698,0.127339,
2,1,0,1,0,3161.3,0.129652,0.129313,20.25,2,0.00869134,10,0.00261859,-1.69357,0.288176,0.204736,161.867,0.129313,
2,1,0,1,0,3161.31,0.131649,0.131365,20.5857,2,0.00889562,10,0.00270424,-1.68643,0.292214,0.201907,162.098,0.131365,
2,1,0,1,0,3161.32,0.133638,0.133298,20.8959,2,0.00910108,10,0.00278538,-1.67994,0.305185,0.193326,157.671,0.133298,
2,1,0,1,0,3161.33,0.135636,0.135342,21.2127,2,0.00931171,10,0.00287097,-1.6734,0.315003,0.1873,154.995,0.135342,
2,1,0,1,0,3161.34,0.137633,0.137293,21.5151,2,0.0095254,10,0.00295387,-1.66726,0.326871,0.1805,151.549,0.137293,
2,1,0,1,0,3161.35,0.139631,0.13933,21.8172,2,0.00974213,10,0.00303979,-1.6612,0.345803,0.170617,145.184,0.13933,
2,1,0,1,0,3161.36,0.141619,0.141287,22.095,2,0.00995947,10,0.00312174,-1.65571,0.351891,0.167666,144.622,0.141287,
2,1,0,1,0,3161.37,0.143617,0.143283,22.3889,2,0.010182,10,0.00320795,-1.64997,0.380705,0.154976,135.282,0.143283,
2,1,0,1,0,3161.38,0.145614,0.145327,22.6416,2,0.0104071,10,0.00329045,-1.64509,0.417526,0.141309,124.829,0.145327,
2,1,0,1,0,3161.39,0.147612,0.147244,22.8833,2,0.0106349,10,0.00336942,-1.64048,0.426023,0.13849,123.698,0.147244,
2,1,0,1,0,3161.4,0.149619,0.149302,23.1332,2,0.010865,10,0.00345384,-1.63576,0.461685,0.127793,115.278,0.1493019,
2,1,0,1,0,3161.41,0.151616,0.15126,23.3463,2,0.0110975,10,0.00353136,-1.63178,0.557567,0.105817,96.3256,0.15126,
2,1,0,1,0,3161.42,0.153614,0.153295,23.5179,2,0.0113318,10,0.00360519,-1.6286,0.662527,0.089053,81.7121,0.153295,
2,1,0,1,0,3161.43,0.155611,0.155306,23.6768,2,0.0115678,10,0.00367715,-1.62568,0.78689,0.0749787,69.223,0.155306,
2,1,0,1,0,3161.44,0.157618,0.157304,23.7954,2,0.0118052,10,0.00374311,-1.62351,1.30352,0.0452622,41.971,0.157304,
2,1,0,1,0,3161.45,0.159616,0.159284,23.8438,2,0.0120435,10,0.00379793,-1.62262,10.7575,0.00548454,5.09546,0.159284,
2,1,0,1,0,3161.46,0.161613,0.161312,23.8158,2,0.0122818,10,0.00384178,-1.62313,-1.68231,-0.0350708,-32.5455,0.161312,
2,1,0,1,0,3161.47,0.163611,0.163303,23.713,2,0.0125196,10,0.00387241,-1.62501,-0.662987,-0.0889912,-82.1406,0.163303,
2,1,0,1,0,3161.48,0.165618,0.165319,23.4867,2,0.0127556,10,0.00388279,-1.62918,-0.401102,-0.147095,-134.58,0.165319,
2,1,0,1,0,3161.49,0.167597,0.167295,23.1758,2,0.0129867,10,0.00387719,-1.63497,-0.275829,-0.213901,-192.84,0.167295,
2,1,0,1,0,3161.5,0.169595,0.169303,22.7184,2,0.0132162,10,0.00384629,-1.64362,-0.196245,-0.300644,-265.691,0.169303,
2,1,0,1,0,3161.51,0.171592,0.171264,22.1212,2,0.0134404,10,0.00378856,-1.65519,-0.150004,-0.393323,-338.396,0.171264,
2,1,0,1,0,3161.52,0.173572,0.173243,21.3852,2,0.0136557,10,0.00370483,-1.66989,-0.126961,-0.46471,-386.924,0.173243,
2,1,0,1,0,3161.53,0.175578,0.175282,20.5664,2,0.0138655,10,0.00360493,-1.68684,-0.107824,-0.547189,-437.659,0.175282,
2,1,0,1,0,3161.54,0.177576,0.177256,19.6287,2,0.0140664,10,0.0034793,-1.70711,-0.0930305,-0.634201,-484.76,0.177256,
2,1,0,1,0,3161.55,0.179573,0.179264,18.6364,2,0.0142576,10,0.00334083,-1.72964,-0.0861651,-0.684732,-497.307,0.179264,
2,1,0,1,0,3161.56,0.181571,0.181282,17.6267,2,0.0144388,10,0.00319539,-1.75383,-0.0825383,-0.71482,-491.696,0.181282,
2,1,0,1,0,3161.57,0.183578,0.183301,16.6514,2,0.0146101,10,0.00305222,-1.77855,-0.0787988,-0.748743,-486.316,0.183301,
2,1,0,1,0,3161.58,0.185575,0.185252,15.6959,2,0.0147717,10,0.0029077,-1.80421,-0.0787898,-0.748828,-459.572,0.185252,
2,1,0,1,0,3161.59,0.187573,0.187254,14.8348,2,0.0149242,10,0.00277787,-1.82872,-0.0824567,-0.715527,-414.852,0.187254,
2,1,0,1,0,3161.6,0.18957,0.189227,14.0467,2,0.0150684,10,0.00265802,-1.85243,-0.0882069,-0.668882,-367.69,0.189227,
2,1,0,1,0,3161.61,0.191577,0.19126,13.3616,2,0.0152054,10,0.00255555,-1.87414,-0.0973594,-0.606002,-316.722,0.19126,
2,1,0,1,0,3161.62,0.193575,0.193297,12.7577,2,0.0153358,10,0.00246603,-1.89423,-0.105228,-0.560689,-280.022,0.193297,
2,1,0,1,0,3161.63,0.195572,0.195236,12.2484,2,0.0154608,10,0.00239133,-1.91192,-0.112924,-0.522477,-250.035,0.195236,
2,1,0,1,0,3161.64,0.19757,0.197208,11.7798,2,0.0155808,10,0.00232307,-1.92886,-0.132122,-0.446556,-206.163,0.197208,
2,1,0,1,0,3161.65,0.199558,0.199252,11.4205,2,0.0156956,10,0.00227554,-1.94232,-0.154633,-0.381549,-170.231,0.1992517,
2,1,0,1,0,3161.66,0.201556,0.201253,11.0913,2,0.015808,10,0.00223216,-1.95502,-0.166925,-0.353452,-153.282,0.201253,
2,1,0,1,0,3161.67,0.203553,0.203239,10.8093,2,0.0159175,10,0.00219688,-1.9662,-0.184513,-0.31976,-135.039,0.203239,
2,1,0,1,0,3161.68,0.205551,0.205222,10.5553,2,0.0160241,10,0.00216618,-1.97653,-0.219769,-0.268463,-110.898,0.205222,
2,1,0,1,0,3161.69,0.20754,0.207263,10.363,2,0.0161276,10,0.00214787,-1.98451,-0.24291,-0.242888,-98.1563,0.207263,
2,1,0,1,0,3161.7,0.209537,0.209278,10.1572,2,0.0162301,10,0.00212568,-1.99323,-0.24214,-0.243661,-96.7056,0.209278,
2,1,0,1,0,3161.71,0.211535,0.211239,9.9785,2,0.0163308,10,0.00210785,-2.00093,-0.27002,-0.218502,-85.1625,0.211239,
2,1,0,1,0,3161.72,0.213532,0.213256,9.81842,2,0.0164297,10,0.00209383,-2.00796,-0.323755,-0.182237,-69.9651,0.213256,
2,1,0,1,0,3161.73,0.215539,0.215253,9.69769,2,0.0165272,10,0.00208746,-2.01333,-0.331272,-0.178102,-67.3069,0.215253,
2,1,0,1,0,3161.74,0.217537,0.217249,9.54963,2,0.0166234,10,0.00207465,-2.02001,-0.331212,-0.178133,-66.4956,0.217249,
2,1,0,1,0,3161.75,0.219534,0.219227,9.43347,2,0.0167184,10,0.00206807,-2.02533,-0.379734,-0.155372,-57.2138,0.219227,
2,1,0,1,0,3161.76,0.221532,0.221224,9.32223,2,0.0168121,10,0.0020623,-2.03048,-0.409999,-0.143903,-52.3913,0.221224,
2,1,0,1,0,3161.77,0.223534,0.223206,9.22496,2,0.0169049,10,0.00205907,-2.03504,-0.433463,-0.136113,-48.9951,0.223206,
2,1,0,1,0,3161.78,0.225536,0.225246,9.12516,2,0.0169966,10,0.00205541,-2.03976,-0.466585,-0.126451,-45.0751,0.225246,
2,1,0,1,0,3161.79,0.227534,0.227238,9.04323,2,0.0170875,10,0.00205497,-2.04368,-0.444842,-0.132631,-46.7494,0.227238,
2,1,0,1,0,3161.8,0.229531,0.229234,8.93875,2,0.0171774,10,0.00204906,-2.04872,-0.485593,-0.121501,-42.4758,0.229234,
2,1,0,1,0,3161.81,0.231529,0.231251,8.87279,2,0.0172665,10,0.00205184,-2.05194,-0.636505,-0.0926937,-32.1034,0.2312507,
2,1,0,1,0,3161.82,0.233517,0.233235,8.81029,2,0.0173541,10,0.00205487,-2.05501,-0.605567,-0.0974294,-33.4863,0.233235,
2,1,0,1,0,3161.83,0.235515,0.235188,8.74096,2,0.0174419,10,0.00205576,-2.05844,-0.556315,-0.106055,-36.1652,0.235188,
2,1,0,1,0,3161.84,0.237513,0.237239,8.6655,2,0.0175288,10,0.00205579,-2.06221,-0.605098,-0.0975048,-33.0091,0.237239,
2,1,0,1,0,3161.85,0.23951,0.239205,8.60836,2,0.0176151,10,0.00205916,-2.06508,-0.631893,-0.0933703,-31.3519,0.2392046,
2,1,0,1,0,3161.86,0.241499,0.241163,8.54246,2,0.0177001,10,0.00206013,-2.06842,-0.666986,-0.0884576,-29.5129,0.241163,
2,1,0,1,0,3161.87,0.243496,0.243222,8.4898,2,0.0177852,10,0.0020649,-2.0711,-0.707532,-0.0833884,-27.6176,0.243222,
2,1,0,1,0,3161.88,0.245494,0.245223,8.43034,2,0.0178698,10,0.00206731,-2.07415,-0.734424,-0.0803351,-26.453,0.245223,
2,1,0,1,0,3161.89,0.247491,0.247178,8.38514,2,0.0179539,10,0.00207262,-2.07649,-0.852634,-0.0691973,-22.6443,0.2471782,
2,1,0,1,0,3161.9,0.249498,0.249216,8.33991,2,0.0180375,10,0.00207844,-2.07884,-0.838965,-0.0703247,-22.8878,0.249216,
2,1,0,1,0,3161.91,0.251496,0.251174,8.2937,2,0.0181207,10,0.00208316,-2.08125,-0.797304,-0.0739994,-23.9483,0.251174,
2,1,0,1,0,3161.92,0.253493,0.253172,8.24518,2,0.0182034,10,0.00208745,-2.0838,-0.822892,-0.0716984,-23.0775,0.253172,
2,1,0,1,0,3161.93,0.255491,0.255179,8.20125,2,0.0182856,10,0.00209279,-2.08612,-0.929121,-0.0635009,-20.3321,0.255179,
2,1,0,1,0,3161.94,0.257497,0.257192,8.16344,2,0.0183674,10,0.00209957,-2.08813,-1.11142,-0.0530851,-16.9205,0.257192,
2,1,0,1,0,3161.95,0.259495,0.25919,8.13339,2,0.018449,10,0.00210809,-2.08973,-0.851323,-0.0693039,-21.9603,0.2591902,
2,1,0,1,0,3161.96,0.261493,0.261207,8.07526,2,0.01853,10,0.00210932,-2.09284,-0.867613,-0.0680027,-21.4718,0.261207,
2,1,0,1,0,3161.97,0.26349,0.263172,8.0479,2,0.0186107,10,0.00211798,-2.09432,-1.43647,-0.0410729,-12.9027,0.263172,
2,1,0,1,0,3161.98,0.265479,0.265219,8.0235,2,0.0186902,10,0.00212799,-2.09564,-1.16043,-0.0508432,-15.906,0.265219,
2,1,0,1,0,3161.99,0.267476,0.267159,7.98448,2,0.0187703,10,0.00213312,-2.09775,-0.876575,-0.0673074,-20.9674,0.267159,
2,1,0,1,0,3162,0.269474,0.269161,7.94086,2,0.0188499,10,0.00213737,-2.10013,-1.20216,-0.0490783,-15.2349,0.2691606,
2,1,0,1,0,3162.01,0.271471,0.271153,7.92363,2,0.0189292,10,0.00214851,-2.10108,-1.75336,-0.0336496,-10.401,0.271153,
2,1,0,1,0,3162.02,0.27346,0.273153,7.89933,2,0.0190075,10,0.00215773,-2.10241,-1.17955,-0.0500191,-15.4074,0.273153,
2,1,0,1,0,3162.03,0.275458,0.275151,7.86203,2,0.0190862,10,0.00216324,-2.10447,-0.943688,-0.0625206,-19.1805,0.275151,
2,1,0,1,0,3162.04,0.277455,0.277152,7.82263,2,0.0191646,10,0.00216806,-2.10665,-1.30754,-0.0451227,-13.7962,0.277152,
2,1,0,1,0,3162.05,0.279453,0.279167,7.80663,2,0.0192428,10,0.00217935,-2.10754,-1.23798,-0.0476583,-14.496,0.279167,
2,1,0,1,0,3162.06,0.281455,0.281131,7.76495,2,0.0193205,10,0.00218297,-2.10986,-1.22182,-0.0482888,-14.6574,0.281131,
2,1,0,1,0,3162.07,0.283457,0.28312,7.74868,2,0.0193981,10,0.00219381,-2.11077,-1.19802,-0.0492477,-14.8657,0.28312,
2,1,0,1,0,3162.08,0.285455,0.285213,7.70427,2,0.0194754,10,0.00219736,-2.11327,-1.06005,-0.0556577,-16.7569,0.285213,
2,1,0,1,0,3162.09,0.287452,0.287197,7.68036,2,0.0195524,10,0.00220578,-2.11462,-1.14607,-0.0514805,-15.418,0.287197,
2,1,0,1,0,3162.1,0.28945,0.289132,7.64385,2,0.019629,10,0.00221008,-2.11669,-1.7699,-0.0333352,-9.96611,0.289132,
2,1,0,1,0,3162.11,0.291456,0.291174,7.64072,2,0.0197055,10,0.00222478,-2.11687,-1.31634,-0.0448212,-13.324,0.291174,
2,1,0,1,0,3162.12,0.293454,0.293152,7.59029,2,0.0197816,10,0.00222511,-2.11974,-1.08796,-0.0542299,-16.1033,0.293152,
2,1,0,1,0,3162.13,0.295452,0.29514,7.57686,2,0.0198575,10,0.00223624,-2.12051,-1.42519,-0.041398,-12.2232,0.2951403,
2,1,0,1,0,3162.14,0.297449,0.297194,7.54088,2,0.0199331,10,0.0022411,-2.12258,-1.68491,-0.0350166,-10.3261,0.297194,
2,1,0,1,0,3162.15,0.299438,0.299152,7.53544,2,0.0200078,10,0.00225424,-2.12289,-0.0489781,-1.20462,-336.17,0.299152,
2,1,0,1,0,3162.15,0.299746,0.299475,6.7741,2,0.0200392,10,0.00202867,-2.16915,0.00411588,14.3347,2730.24,0.299475,
2,1,0,1,0,3162.16,0.29774,0.297467,2.93688,2,0.0200853,10,0.000873625,-2.53211,0.00427061,13.8154,1493.71,0.2974672,
2,1,0,1,0,3162.17,0.295742,0.29546,0.777766,2,0.0201027,10,0.000229799,-3.10915,0.0055215,10.6855,861.661,0.29546,
2,0,0,1,0,3162.18,0.293745,0.293427,-0.544645,2,0.0201032,10,-0.000159813,-3.26389,-0.0156553,-3.76869,543.552,0.293427,
2,0,0,1,0,3162.19,0.291747,0.291448,-1.40335,2,0.0200931,10,-0.000409002,-2.85284,-0.00701904,-8.40571,366.572,0.291448,
2,0,0,1,0,3162.2,0.289745,0.289468,-1.99584,2,0.0200758,10,-0.000577731,-2.69987,-0.0171539,-3.43946,250.012,0.2894679,
2,0,0,1,0,3162.21,0.287743,0.287412,-2.41241,2,0.0200536,10,-0.000693355,-2.61755,-0.0298855,-1.9742,180.062,0.287412,
2,0,0,1,0,3162.22,0.285745,0.285473,-2.71509,2,0.0200279,10,-0.000775086,-2.56622,-0.0446957,-1.32004,137.829,0.285473,
2,0,0,1,0,3162.23,0.283748,0.283461,-2.95687,2,0.0199995,10,-0.000838158,-2.52917,-0.0630857,-0.935236,106.736,0.283461,
2,0,0,1,0,3162.24,0.28175,0.281455,-3.14404,2,0.0199688,10,-0.000884903,-2.50251,-0.0793467,-0.743573,90.9453,0.281455,
2,0,0,1,0,3162.25,0.279761,0.279491,-3.31798,2,0.0199368,10,-0.000927345,-2.47913,-0.0980909,-0.601483,77.3665,0.279491,
2,0,0,1,0,3162.26,0.277764,0.277468,-3.45245,2,0.0199029,10,-0.000957945,-2.46187,-0.119399,-0.49414,66.56,0.277468,
2,0,0,1,0,3162.27,0.275766,0.275428,-3.58843,2,0.0198677,10,-0.000988352,-2.4451,-0.144136,-0.409336,56.9631,0.275428,
2,0,0,1,0,3162.28,0.273769,0.273447,-3.6815,2,0.0198312,10,-0.0010067,-2.43398,-0.151928,-0.388342,56.0479,0.273447,
2,0,0,1,0,3162.29,0.27178,0.271474,-3.81003,2,0.0197941,10,-0.00103432,-2.41907,-0.153485,-0.384401,56.9199,0.271474,
2,0,0,1,0,3162.3,0.269783,0.269449,-3.90909,2,0.0197554,10,-0.0010533,-2.40792,-0.190856,-0.309133,47.0959,0.269449,
2,0,0,1,0,3162.31,0.267785,0.267465,-3.99885,2,0.0197159,10,-0.00106955,-2.39807,-0.21915,-0.269222,41.9394,0.267465,
2,0,0,1,0,3162.32,0.265787,0.265486,-4.07527,2,0.0196755,10,-0.00108193,-2.38984,-0.210199,-0.280686,44.7724,0.265486,
2,0,0,1,0,3162.33,0.263781,0.263489,-4.17684,2,0.0196342,10,-0.00110055,-2.37915,-0.2198,-0.268426,43.5961,0.263489,
2,0,0,1,0,3162.34,0.261783,0.261499,-4.24911,2,0.019592,10,-0.00111114,-2.3717,-0.267519,-0.220545,36.577,0.2614989,
2,0,0,1,0,3162.35,0.259786,0.259488,-4.3232,2,0.0195491,10,-0.00112182,-2.3642,-0.261207,-0.225875,38.1213,0.259488,
2,0,0,1,0,3162.36,0.257788,0.25752,-4.40079,2,0.0195055,10,-0.00113329,-2.35647,-0.246841,-0.23902,41.0946,0.25752,
2,0,0,1,0,3162.37,0.255781,0.255461,-4.48866,2,0.019461,10,-0.00114668,-2.34788,-0.290562,-0.203054,35.4383,0.255461,
2,0,0,1,0,3162.38,0.253784,0.253483,-4.54385,2,0.0194158,10,-0.00115179,-2.34258,-0.340126,-0.173465,30.8038,0.253483,
2,0,0,1,0,3162.39,0.251786,0.251449,-4.61224,2,0.0193701,10,-0.00115975,-2.33609,-0.335535,-0.175839,31.6166,0.251449,
2,0,0,1,0,3162.4,0.249789,0.249457,-4.67113,2,0.0193236,10,-0.00116525,-2.33058,-0.312038,-0.18908,34.5348,0.249457,
2,0,0,1,0,3162.41,0.2478,0.247504,-4.74848,2,0.019277,10,-0.00117527,-2.32345,-0.317038,-0.186098,34.4167,0.247504,
2,0,0,1,0,3162.42,0.245802,0.245509,-4.80702,2,0.0192292,10,-0.00118017,-2.31812,-0.353463,-0.16692,31.3413,0.245509,
2,0,0,1,0,3162.43,0.243805,0.24349,-4.87428,2,0.0191809,10,-0.00118684,-2.31209,-0.405674,-0.145437,27.5964,0.24349,
2,0,0,1,0,3162.44,0.241807,0.24151,-4.91738,2,0.0191319,10,-0.0011876,-2.30827,-0.381612,-0.154607,29.7646,0.24151,
2,0,0,1,0,3162.45,0.239819,0.239534,-4.99206,2,0.0190829,10,-0.00119577,-2.30172,-0.362109,-0.162934,31.6682,0.239534,
2,0,0,1,0,3162.46,0.237821,0.237525,-5.04357,2,0.0190327,10,-0.00119798,-2.29726,-0.413159,-0.142802,28.1347,0.237525,
2,0,0,1,0,3162.47,0.235824,0.235521,-5.10495,2,0.018982,10,-0.00120232,-2.29201,-0.461223,-0.127921,25.4298,0.235521,
2,0,0,1,0,3162.48,0.233826,0.233565,-5.14427,2,0.0189307,10,-0.00120152,-2.28868,-0.414183,-0.142449,28.6982,0.233565,
2,0,0,1,0,3162.49,0.231824,0.23152,-5.21978,2,0.0188789,10,-0.00120848,-2.28235,-0.385225,-0.153157,31.1268,0.23152,
2,0,0,1,0,3162.5,0.229822,0.229483,-5.27133,2,0.0188264,10,-0.00120968,-2.27808,-0.462811,-0.127482,26.2293,0.229483,
2,0,0,1,0,3162.51,0.227824,0.227525,-5.32456,2,0.0187734,10,-0.00121147,-2.27372,-0.483015,-0.122149,25.3663,0.2275252,
2,0,0,1,0,3162.52,0.225827,0.225546,-5.3712,2,0.0187199,10,-0.00121145,-2.26993,-0.455183,-0.129618,27.2075,0.2255462,
2,0,0,1,0,3162.53,0.223829,0.223549,-5.43274,2,0.0186658,10,-0.00121448,-2.26498,-0.417605,-0.141282,29.9452,0.223549,
2,0,0,1,0,3162.54,0.221822,0.22154,-5.49118,2,0.0186111,10,-0.00121651,-2.26033,-0.439064,-0.134377,28.7915,0.22154,
2,0,0,1,0,3162.55,0.219825,0.219555,-5.54774,2,0.0185559,10,-0.00121803,-2.25588,-0.458081,-0.128798,27.8824,0.219555,
2,0,0,1,0,3162.56,0.217827,0.217524,-5.60314,2,0.0185001,10,-0.00121882,-2.25157,-0.485658,-0.121485,26.5546,0.2175243,
2,0,0,1,0,3162.57,0.21583,0.215541,-5.65432,2,0.0184438,10,-0.00121874,-2.24762,-0.412159,-0.143149,31.6515,0.215541,
2,0,0,1,0,3162.58,0.213841,0.213565,-5.72846,2,0.0183874,10,-0.0012234,-2.24196,-0.40262,-0.14654,32.7131,0.213565,
2,0,0,1,0,3162.59,0.211844,0.211505,-5.78635,2,0.0183299,10,-0.00122384,-2.23759,-0.523583,-0.112685,25.4147,0.211505,
2,0,0,1,0,3162.6,0.209846,0.209573,-5.82991,2,0.0182717,10,-0.00122179,-2.23434,-0.478169,-0.123387,28.131,0.209573,
2,0,0,1,0,3162.61,0.207848,0.207546,-5.89773,2,0.0182132,10,-0.00122405,-2.22932,-0.384472,-0.153457,35.3397,0.207546,
2,0,0,1,0,3162.62,0.20586,0.205544,-5.97228,2,0.0181544,10,-0.00122757,-2.22386,-0.407706,-0.144712,33.687,0.205544,
2,0,0,1,0,3162.63,0.203862,0.203551,-6.03231,2,0.0180944,10,-0.00122788,-2.21952,-0.500219,-0.117948,27.7453,0.203551,
2,0,0,1,0,3162.64,0.201865,0.201555,-6.08297,2,0.0180338,10,-0.00122605,-2.21588,-0.456514,-0.12924,30.7356,0.201555,
2,0,0,1,0,3162.65,0.199867,0.199544,-6.15546,2,0.0179726,10,-0.00122829,-2.21074,-0.398424,-0.148083,35.5681,0.199544,
2,0,0,1,0,3162.66,0.19786,0.197519,-6.22652,2,0.0179106,10,-0.00122986,-2.20575,-0.406588,-0.14511,35.2558,0.197519,
2,0,0,1,0,3162.67,0.195863,0.19556,-6.29592,2,0.0178481,10,-0.00123123,-2.20094,-0.403536,-0.146207,35.9344,0.19556,
2,0,0,1,0,3162.68,0.193865,0.193546,-6.36928,2,0.0177847,10,-0.00123275,-2.19591,-0.395729,-0.149092,37.0667,0.193546,
2,0,0,1,0,3162.69,0.191868,0.191526,-6.44546,2,0.0177206,10,-0.00123447,-2.19075,-0.381121,-0.154806,38.9536,0.191526,
2,0,0,1,0,3162.7,0.189861,0.189511,-6.52647,2,0.0176557,10,-0.00123684,-2.18532,-0.347164,-0.169949,43.3189,0.189511,
2,0,0,1,0,3162.71,0.187863,0.187548,-6.61778,2,0.01759,10,-0.00124115,-2.17929,-0.333489,-0.176918,45.684,0.187548,
2,0,0,1,0,3162.72,0.185866,0.18555,-6.7074,2,0.0175233,10,-0.00124456,-2.17345,-0.348424,-0.169334,44.3119,0.18555,
2,0,0,1,0,3162.73,0.183868,0.183584,-6.7934,2,0.0174559,10,-0.00124716,-2.16791,-0.315607,-0.186942,49.6551,0.183584,
2,0,0,1,0,3162.74,0.18188,0.181559,-6.90562,2,0.0173881,10,-0.00125377,-2.1608,-0.288396,-0.204579,55.1186,0.1815585,
2,0,0,1,0,3162.75,0.179882,0.179566,-7.01488,2,0.0173185,10,-0.00125964,-2.15398,-0.306294,-0.192625,52.6977,0.179566,
2,0,0,1,0,3162.76,0.177885,0.17758,-7.1153,2,0.0172477,10,-0.00126353,-2.14781,-0.282271,-0.209019,58.1585,0.17758,
2,0,0,1,0,3162.77,0.175887,0.1756,-7.24554,2,0.017176,10,-0.00127232,-2.13993,-0.2582,-0.228505,64.5995,0.1756,
2,0,0,1,0,3162.78,0.173908,0.173576,-7.37395,2,0.0171036,10,-0.00127994,-2.1323,-0.235565,-0.250462,72.2251,0.173576,
2,0,0,1,0,3162.79,0.171901,0.171603,-7.53425,2,0.017029,10,-0.0012929,-2.12296,-0.22911,-0.257519,75.6162,0.171603,
2,0,0,1,0,3162.8,0.169903,0.169583,-7.67586,2,0.0169529,10,-0.0013017,-2.11487,-0.219856,-0.268357,80.5824,0.169583,
2,0,0,1,0,3162.81,0.167906,0.167605,-7.85641,2,0.0168753,10,-0.00131677,-2.10478,-0.201283,-0.293119,89.8669,0.167605,
2,0,0,1,0,3162.82,0.165908,0.165547,-8.03858,2,0.0167958,10,-0.00133076,-2.09482,-0.190654,-0.309461,97.2154,0.165547,
2,0,0,1,0,3162.83,0.163901,0.163602,-8.24557,2,0.0167143,10,-0.00134899,-2.08378,-0.178547,-0.330446,106.335,0.163602,
2,0,0,1,0,3162.84,0.161904,0.161623,-8.45586,2,0.0166307,10,-0.00136666,-2.07284,-0.168752,-0.349625,115.649,0.161623,
2,0,0,1,0,3162.85,0.159906,0.159586,-8.71004,2,0.0165449,10,-0.00139,-2.05998,-0.157911,-0.373629,126.979,0.159586,
2,0,0,1,0,3162.86,0.157909,0.157609,-8.96549,2,0.0164564,10,-0.00141304,-2.04743,-0.145845,-0.404539,141.9,0.157609,
2,0,0,1,0,3162.87,0.155902,0.155628,-9.27168,2,0.0163652,10,-0.00144293,-2.03284,-0.136505,-0.432217,156.481,0.155628,
2,0,0,1,0,3162.88,0.153904,0.153585,-9.59516,2,0.0162708,10,-0.00147368,-2.01795,-0.135293,-0.436091,163.391,0.153585,
2,0,0,1,0,3162.89,0.151907,0.151558,-9.93667,2,0.0161732,10,-0.00150598,-2.00276,-0.127825,-0.46157,179.282,0.151558,
2,0,0,1,0,3162.9,0.149909,0.149549,-10.3188,2,0.0160718,10,-0.00154316,-1.98637,-0.11596,-0.508797,205.284,0.149549,
2,0,0,1,0,3162.91,0.147921,0.147593,-10.7505,2,0.0159675,10,-0.0015867,-1.96857,-0.111717,-0.528121,221.553,0.147593,
2,0,0,1,0,3162.92,0.145923,0.145609,-11.1917,2,0.0158577,10,-0.00162961,-1.9511,-0.109977,-0.536474,234.739,0.145609,
2,0,0,1,0,3162.93,0.143926,0.143608,-11.686,2,0.0157433,10,-0.0016782,-1.93234,-0.104417,-0.565043,257.909,0.143608,
2,0,0,1,0,3162.94,0.141928,0.141644,-12.2144,2,0.0156237,10,-0.00173009,-1.91313,-0.102885,-0.573455,273.565,0.141644,
2,0,0,1,0,3162.95,0.139939,0.139619,-12.7774,2,0.0155,10,-0.00178396,-1.89356,-0.104206,-0.566185,282.192,0.139619,
2,0,0,1,0,3162.96,0.137942,0.13764,-13.3441,2,0.0153694,10,-0.00183669,-1.87471,-0.104735,-0.563328,293.67,0.13764,
2,0,0,1,0,3162.97,0.135944,0.135607,-13.9555,2,0.0152329,10,-0.00189246,-1.85525,-0.104987,-0.561973,305.913,0.135607,
2,0,0,1,0,3162.98,0.133947,0.133632,-14.5703,2,0.0150901,10,-0.00194706,-1.83653,-0.106414,-0.554441,315.294,0.133632,
2,0,0,1,0,3162.99,0.13194,0.131644,-15.2048,2,0.0149413,10,-0.00200163,-1.81802,-0.110795,-0.532515,315.79,0.131644,
2,0,0,1,0,3163,0.129942,0.129619,-15.8375,2,0.014786,10,-0.00205284,-1.80031,-0.116742,-0.505389,312.067,0.129619,
2,0,0,1,0,3163.01,0.127945,0.127637,-16.4554,2,0.0146245,10,-0.00210032,-1.78369,-0.125259,-0.471022,301.915,0.127637,
2,0,0,1,0,3163.02,0.125947,0.125687,-17.0249,2,0.0144571,10,-0.0021398,-1.76892,-0.130858,-0.450872,300.023,0.125687,
2,0,0,1,0,3163.03,0.123941,0.123623,-17.6598,2,0.0142837,10,-0.00218315,-1.75301,-0.133081,-0.443339,305.079,0.123623,
2,0,0,1,0,3163.04,0.121943,0.121657,-18.2543,2,0.014104,10,-0.00222076,-1.73863,-0.147072,-0.401164,285.257,0.121657,
2,0,0,1,0,3163.05,0.119945,0.119653,-18.7921,2,0.0139187,10,-0.00224854,-1.72602,-0.160599,-0.367375,269.391,0.119653,
2,0,0,1,0,3163.06,0.117948,0.117646,-19.3346,2,0.0137279,10,-0.00227465,-1.71366,-0.167948,-0.3513,264.815,0.117646,
2,0,0,1,0,3163.07,0.115946,0.115666,-19.8481,2,0.0135319,10,-0.00229574,-1.70228,-0.190411,-0.309857,239.581,0.1156657,
2,0,0,1,0,3163.08,0.113962,0.113629,-20.2971,2,0.013333,10,-0.00230634,-1.69257,-0.215179,-0.27419,217.004,0.113629,
2,0,0,1,0,3163.09,0.111964,0.111663,-20.7166,2,0.0131279,10,-0.00231328,-1.68368,-0.231622,-0.254725,205.792,0.111663,
2,0,0,1,0,3163.1,0.109967,0.109677,-21.1104,2,0.0129187,10,-0.00231533,-1.6755,-0.255466,-0.23095,190.088,0.109677,
2,0,0,1,0,3163.11,0.107969,0.107713,-21.4675,2,0.0127057,10,-0.00231233,-1.66822,-0.289136,-0.204056,170.803,0.107713,
2,0,0,1,0,3163.12,0.10598,0.105705,-21.7889,2,0.0124915,10,-0.00230319,-1.66177,-0.32833,-0.179697,152.671,0.105705,
2,0,0,1,0,3163.13,0.103983,0.103736,-22.0747,2,0.0122722,10,-0.00228994,-1.65611,-0.394032,-0.149734,128.841,0.103736,
2,0,0,1,0,3163.14,0.101985,0.101664,-22.3095,2,0.0120501,10,-0.00226807,-1.65151,-0.488162,-0.120862,105.115,0.101664,
2,0,0,1,0,3163.15,0.0999877,0.0997209,-22.4967,2,0.011826,10,-0.00224339,-1.64788,-0.583972,-0.101032,88.6548,0.0997209,
2,0,0,1,0,3163.16,0.0979811,0.0977106,-22.66,2,0.0116001,10,-0.00221412,-1.64474,-0.784502,-0.0752069,66.4213,0.0977106,
2,0,0,1,0,3163.17,0.0959835,0.0956986,-22.7639,2,0.0113729,10,-0.00217847,-1.64275,-1.38434,-0.0426196,37.817,0.09569864,
2,0,0,1,0,3163.18,0.0939859,0.093684,-22.8122,2,0.011145,10,-0.00213714,-1.64183,-3.32531,-0.0177427,15.7845,0.093684,
2,0,0,1,0,3163.19,0.0919883,0.0916929,-22.8271,2,0.0109168,10,-0.00209309,-1.64155,175.907,0.000335404,-0.298599,0.0916929,
2,0,0,1,0,3163.2,0.0899816,0.0896618,-22.811,2,0.0106884,10,-0.00204528,-1.64185,1.88396,0.031317,-27.8315,0.0896618,
2,0,0,1,0,3163.21,0.087984,0.0877019,-22.7161,2,0.0104608,10,-0.00199224,-1.64367,0.925168,0.0637722,-56.4922,0.0877019,
2,0,0,1,0,3163.22,0.0859865,0.0856778,-22.586,2,0.0102342,10,-0.00193512,-1.64616,0.705958,0.0835744,-73.6054,0.0856778,
2,0,0,1,0,3163.23,0.0839889,0.0836589,-22.4185,2,0.0100092,10,-0.0018755,-1.64939,0.563293,0.104741,-91.5791,0.0836589,
2,0,0,1,0,3163.24,0.0820004,0.0817024,-22.2219,2,0.00978823,10,-0.00181558,-1.65322,0.456135,0.129348,-112.043,0.0817024,
2,0,0,1,0,3163.25,0.0800028,0.0796919,-21.974,2,0.00956734,10,-0.00175115,-1.65809,0.402963,0.146415,-125.543,0.0796919,
2,0,0,1,0,3163.26,0.0780052,0.0777132,-21.7211,2,0.00934886,10,-0.00168801,-1.66312,0.369003,0.15989,-135.402,0.0777132,
2,0,0,1,0,3163.27,0.0760076,0.075647,-21.4263,2,0.00913325,10,-0.00162083,-1.66905,0.340015,0.173522,-145.105,0.075647,
2,0,0,1,0,3163.28,0.0740191,0.0736805,-21.1359,2,0.00892262,10,-0.00155731,-1.67498,0.323164,0.18257,-150.543,0.0736805,
2,0,0,1,0,3163.29,0.0720215,0.0717085,-20.8334,2,0.00871285,10,-0.00149393,-1.68124,0.319199,0.184837,-150.303,0.0717085,
2,0,0,1,0,3163.3,0.0700239,0.0697086,-20.5389,2,0.00850597,10,-0.00143174,-1.68742,0.320842,0.183891,-147.389,0.0697086,
2,0,0,1,0,3163.31,0.0680263,0.0677079,-20.2438,2,0.00830215,10,-0.00137066,-1.69371,0.337919,0.174598,-138.067,0.0677079,
2,0,0,1,0,3163.32,0.0660197,0.0657177,-19.9879,2,0.00810105,10,-0.00131356,-1.69923,0.352339,0.167452,-130.58,0.0657177,
2,0,0,1,0,3163.33,0.0640221,0.0637048,-19.721,2,0.00790258,10,-0.00125632,-1.70507,0.347603,0.169734,-130.666,0.0637048,
2,0,0,1,0,3163.34,0.0620245,0.0617206,-19.4656,2,0.00770664,10,-0.00120143,-1.71073,0.356915,0.165305,-125.613,0.0617206,
2,0,0,1,0,3163.35,0.0600269,0.0597373,-19.2226,2,0.00751324,10,-0.00114831,-1.71619,0.394641,0.149503,-112.252,0.0597373,
2,0,0,1,0,3163.36,0.0580248,0.0576975,-19.014,2,0.00732208,10,-0.00109706,-1.72093,0.409676,0.144016,-106.818,0.0576975,
2,0,0,1,0,3163.37,0.0560227,0.0556803,-18.7893,2,0.00713306,10,-0.00104619,-1.72609,0.408324,0.144493,-106.023,0.0556803,
2,0,0,1,0,3163.38,0.0540251,0.0536996,-18.5902,2,0.00694613,10,-0.000998285,-1.73072,0.440093,0.134063,-97.289,0.0536996,
2,0,0,1,0,3163.39,0.0520275,0.0516963,-18.4017,2,0.00676124,10,-0.000951299,-1.73514,0.434234,0.135871,-97.5418,0.0516963,
2,0,0,1,0,3163.4,0.0500299,0.0497112,-18.2011,2,0.00657821,10,-0.000904801,-1.7399,0.445637,0.132395,-94.1149,0.0497112,
2,0,0,1,0,3163.41,0.0480414,0.0477373,-18.0291,2,0.00639892,10,-0.000860661,-1.74403,0.460342,0.128166,-90.1484,0.0477373,
2,0,0,1,0,3163.42,0.0460438,0.0457682,-17.8457,2,0.00621954,10,-0.000816764,-1.74847,0.4454,0.132465,-92.2451,0.0457682,
2,0,0,1,0,3163.43,0.0440462,0.043725,-17.659,2,0.00604205,10,-0.000772139,-1.75303,0.440012,0.134087,-92.4085,0.043725,
2,0,0,1,0,3163.44,0.0420486,0.0417376,-17.4732,2,0.00586644,10,-0.000729289,-1.75763,0.4528,0.1303,-88.9013,0.0417376,
2,0,0,1,0,3163.45,0.0400601,0.0397641,-17.3068,2,0.00569437,10,-0.000688191,-1.76178,0.443209,0.13312,-89.8371,0.0397641,
2,0,0,1,0,3163.46,0.0380625,0.03772,-17.1123,2,0.00552229,10,-0.000645476,-1.76669,0.383464,0.153861,-102.693,0.03772,
2,0,0,1,0,3163.47,0.036065,0.0357931,-16.899,2,0.00535231,10,-0.000604869,-1.77214,0.3754,0.157166,-103.697,0.0357931,
2,0,0,1,0,3163.48,0.0340674,0.0337594,-16.7016,2,0.00518428,10,-0.000563836,-1.77724,0.396643,0.148748,-96.9558,0.0337594,
2,0,0,1,0,3163.49,0.0320607,0.0317362,-16.5057,2,0.00501832,10,-0.000523828,-1.78237,0.349183,0.168966,-108.702,0.0317362,
2,0,0,1,0,3163.5,0.0300631,0.0297832,-16.2694,2,0.00485442,10,-0.000484553,-1.78863,0.320282,0.184212,-116.989,0.0297832,
2,0,0,1,0,3163.51,0.0280655,0.0277738,-16.0422,2,0.00469289,10,-0.000445552,-1.79474,0.3198,0.18449,-115.458,0.0277738,
2,0,0,1,0,3163.52,0.0260679,0.0257549,-15.8043,2,0.00453358,10,-0.000407037,-1.80123,0.308413,0.191302,-118.01,0.0257549,
2,0,0,1,0,3163.53,0.0240613,0.0238002,-15.5732,2,0.00437671,10,-0.000370646,-1.80762,0.294502,0.200338,-121.65,0.0238002,
2,0,0,1,0,3163.54,0.0220637,0.0217457,-15.3165,2,0.00422229,10,-0.000333069,-1.81484,0.287536,0.205191,-122.695,0.0217457,
2,0,0,1,0,3163.55,0.0200661,0.0197216,-15.0728,2,0.0040704,10,-0.000297259,-1.82181,0.265904,0.221885,-130.381,0.0197216,
2,0,0,1,0,3163.56,0.0180685,0.017779,-14.7994,2,0.00392101,10,-0.000263118,-1.82976,0.271627,0.217209,-125.668,0.017779,
2,0,0,1,0,3163.57,0.01608,0.0157939,-14.5792,2,0.00377568,10,-0.000230263,-1.83627,0.293184,0.201239,-114.393,0.0157939,
2,0,0,1,0,3163.58,0.0140824,0.013711,-14.334,2,0.00363111,10,-0.000196534,-1.84363,0.277448,0.212652,-119.005,0.013711,
2,0,0,1,0,3163.59,0.0120848,0.0117856,-14.1022,2,0.00348897,10,-0.000166203,-1.85071,0.281159,0.209846,-115.505,0.01178558,
2,0,0,1,0,3163.6,0.0100873,0.00974642,-13.8761,2,0.0033491,10,-0.000135242,-1.85773,0.308015,0.191549,-103.867,0.00974642,
2,0,0,1,0,3163.61,0.00810328,0.0077998,-13.6882,2,0.00321276,10,-0.000106765,-1.86365,0.332621,0.177379,-94.7479,0.0077998,
2,0,0,1,0,3163.62,0.00610116,0.00577047,-13.4994,2,0.0030768,10,-7.78977e-05,-1.86969,0.337488,0.174821,-92.1275,0.00577047,
2,0,0,1,0,3163.63,0.00410357,0.0037984,-13.3196,2,0.00294275,10,-5.05931e-05,-1.87551,0.460883,0.128015,-66.7614,0.0037984,
2,0,0,1,0,3163.64,0.00210598,0.00169533,-13.2273,2,0.00281026,10,-2.24246e-05,-1.87853,0.494231,0.119377,-61.4721,0.00169533,
2,0,0,1,0,3163.65,0.00010174,-0.000259386,-13.0701,2,0.00267882,10,3.39021e-06,-1.88372,0.418872,0.140855,-71.9257,-0.000259386,
2,0,0,1,0,3163.66,-0.00189827,-0.00226789,-12.9423,2,0.00254871,10,2.93516e-05,-1.88799,0.487039,0.12114,-61.2081,-0.00226789,
2,0,0,1,0,3163.67,-0.00389586,-0.00428247,-12.8239,2,0.00241992,10,5.4918e-05,-1.89198,0.579489,0.101814,-51.016,-0.00428247,
2,0,0,1,0,3163.68,-0.00589345,-0.00629966,-12.7366,2,0.00229211,10,8.0236e-05,-1.89495,0.648846,0.0909307,-45.1897,-0.00629966,
2,0,0,1,0,3163.69,-0.00789103,-0.0082509,-12.6446,2,0.00216525,10,0.000104329,-1.8981,0.783478,0.0753052,-37.2147,-0.0082509,
2,0,0,1,0,3163.7,-0.0098977,-0.010262,-12.5891,2,0.00203901,10,0.00012919,-1.9,1.19772,0.0492604,-24.2148,-0.010262,
2,0,0,1,0,3163.71,-0.0118953,-0.0122887,-12.5468,2,0.00191334,10,0.000154184,-1.90147,1.18874,0.0496324,-24.2908,-0.01228874,
2,0,0,1,0,3163.72,-0.0138929,-0.0142634,-12.4919,2,0.0017881,10,0.000178177,-1.90337,1.39174,0.0423931,-20.6903,-0.0142634,
2,0,0,1,0,3163.73,-0.0158905,-0.0162528,-12.4648,2,0.00166332,10,0.000202588,-1.90432,3.59255,0.0164229,-7.99633,-0.0162528,
2,0,0,1,0,3163.74,-0.017879,-0.0182229,-12.4603,2,0.00153986,10,0.000227062,-1.90447,11.8573,0.00497585,-2.41961,-0.0182229,
2,0,0,1,0,3163.75,-0.0198766,-0.0202875,-12.455,2,0.00141532,10,0.000252681,-1.90466,7.7784,0.00758511,-3.68634,-0.0202875,
2,0,0,1,0,3163.76,-0.0218741,-0.0222129,-12.4455,2,0.00129083,10,0.000276452,-1.90499,-20.7828,-0.00283889,1.38023,-0.0222129,
2,0,0,1,0,3163.77,-0.0238717,-0.0242235,-12.4604,2,0.00116639,10,0.000301835,-1.90447,-2.82347,-0.0208963,10.1661,-0.0242235,
2,0,0,1,0,3163.78,-0.0258602,-0.0262181,-12.4863,2,0.00104289,10,0.000327367,-1.90357,-3.08412,-0.0191303,9.31675,-0.02621815,
2,0,0,1,0,3163.79,-0.0278578,-0.0282102,-12.4976,2,0.000918033,10,0.000352559,-1.90317,-2.77385,-0.02127,10.3822,-0.0282102,
2,0,0,1,0,3163.8,-0.0298554,-0.0302378,-12.528,2,0.000792883,10,0.000378819,-1.90212,-1.65451,-0.0356601,17.4418,-0.0302378,
2,0,0,1,0,3163.81,-0.031853,-0.0322454,-12.568,2,0.000667464,10,0.000405259,-1.90074,-1.50381,-0.0392336,19.2407,-0.0322454,
2,0,0,1,0,3163.82,-0.0338597,-0.0341941,-12.6041,2,0.000541587,10,0.000430986,-1.89949,-1.35979,-0.0433889,21.353,-0.0341941,
2,0,0,1,0,3163.83,-0.0358573,-0.0361921,-12.6522,2,0.000415343,10,0.000457912,-1.89783,-1.22771,-0.0480569,23.7287,-0.0361921,
2,0,0,1,0,3163.84,-0.0378548,-0.0382232,-12.6997,2,0.000288484,10,0.000485424,-1.89621,-1.22019,-0.0483531,23.9671,-0.0382232,
2,0,0,1,0,3163.85,-0.0398524,-0.0402421,-12.7493,2,0.00016125,10,0.000513059,-1.89451,-0.979058,-0.060262,30.0089,-0.0402421,
2,0,0,1,0,3163.86,-0.0418591,-0.0422324,-12.82,2,3.34188e-05,10,0.000541421,-1.89211,-0.84538,-0.0697911,34.9148,-0.0422324,
2,0,0,1,0,3163.87,-0.0438567,-0.044227,-12.8884,2,-9.50859e-05,10,0.000570017,-1.8898,-1.01813,-0.0579495,29.124,-0.044227,
2,0,0,1,0,3163.88,-0.0458543,-0.0461991,-12.9356,2,-0.000224262,10,0.000597611,-1.88821,-0.945184,-0.0624217,31.5492,-0.0461991,
2,0,0,1,0,3163.89,-0.0478519,-0.0481729,-13.0129,2,-0.000353965,10,0.00062687,-1.88563,-0.776396,-0.0759921,38.5934,-0.0481729,
2,0,0,1,0,3163.9,-0.0498585,-0.0502248,-13.0909,2,-0.000484488,10,0.000657489,-1.88303,-0.770486,-0.076575,39.1241,-0.0502248,
2,0,0,1,0,3163.91,-0.051838,-0.0522039,-13.1706,2,-0.000614479,10,0.000687558,-1.88039,-0.83482,-0.0706739,36.304,-0.0522039,
2,0,0,1,0,3163.92,-0.0538355,-0.0541643,-13.2339,2,-0.000746481,10,0.000716807,-1.87831,-0.790589,-0.0746279,38.5846,-0.0541643,
2,0,0,1,0,3163.93,-0.0558331,-0.0562202,-13.3256,2,-0.00087925,10,0.000749167,-1.87531,-0.729466,-0.0808811,42.0398,-0.05622017,
2,0,0,1,0,3163.94,-0.0578126,-0.0581877,-13.4031,2,-0.0010116,10,0.000779894,-1.8728,-0.690093,-0.0854958,44.7564,-0.0581877,
2,0,0,1,0,3163.95,-0.0598192,-0.0601632,-13.5021,2,-0.00114613,10,0.000812328,-1.8696,-0.647154,-0.0911684,48.0273,-0.0601632,
2,0,0,1,0,3163.96,-0.0618168,-0.0621639,-13.5941,2,-0.00128161,10,0.00084506,-1.86665,-0.658831,-0.0895525,47.5214,-0.0621639,
2,0,0,1,0,3163.97,-0.0638144,-0.0641733,-13.6926,2,-0.00141801,10,0.000878702,-1.86351,-0.687996,-0.0857564,45.8037,-0.0641733,
2,0,0,1,0,3163.98,-0.065812,-0.0661792,-13.778,2,-0.00155541,10,0.000911815,-1.86081,-0.626578,-0.0941623,50.6906,-0.0661792,
2,0,0,1,0,3163.99,-0.0678187,-0.0681782,-13.8956,2,-0.00169382,10,0.00094738,-1.85712,-0.563265,-0.104746,56.7837,-0.0681782,
2,0,0,1,0,3164,-0.0698163,-0.0701563,-14.0038,2,-0.00183337,10,0.000982455,-1.85375,-0.616585,-0.0956884,52.2827,-0.0701563,
2,0,0,1,0,3164.01,-0.0718138,-0.0721891,-14.1054,2,-0.0019739,10,0.00101825,-1.85062,-0.598001,-0.0986621,54.3421,-0.0721891,
2,0,0,1,0,3164.02,-0.0738114,-0.0741889,-14.2229,2,-0.00211561,10,0.00105519,-1.84701,-0.513549,-0.114887,63.8179,-0.07418894,
2,0,0,1,0,3164.03,-0.0758181,-0.0762139,-14.3622,2,-0.00225856,10,0.0010946,-1.84278,-0.519106,-0.113657,63.6487,-0.0762139,
2,0,0,1,0,3164.04,-0.0778157,-0.0781695,-14.4763,2,-0.00240285,10,0.00113161,-1.83934,-0.546458,-0.107968,61.0279,-0.0781695,
2,0,0,1,0,3164.05,-0.0798133,-0.0801954,-14.6052,2,-0.00254825,10,0.00117127,-1.83549,-0.498739,-0.118298,67.4531,-0.0801954,
2,0,0,1,0,3164.06,-0.0818109,-0.0821553,-14.7452,2,-0.00269507,10,0.00121139,-1.83135,-0.455346,-0.129572,74.599,-0.0821553,
2,0,0,1,0,3164.07,-0.0837994,-0.0841513,-14.9003,2,-0.00284175,10,0.00125388,-1.82681,-0.477,-0.12369,71.8754,-0.0841513,
2,0,0,1,0,3164.08,-0.0857969,-0.0861881,-15.035,2,-0.00299145,10,0.00129584,-1.8229,-0.474449,-0.124355,73.021,-0.0861881,
2,0,0,1,0,3164.09,-0.0877945,-0.0881557,-15.1927,2,-0.00314256,10,0.00133932,-1.81837,-0.447424,-0.131866,78.1667,-0.0881557,
2,0,0,1,0,3164.1,-0.0897921,-0.0901383,-15.3438,2,-0.00329528,10,0.00138306,-1.81407,-0.449197,-0.131346,78.6732,-0.0901383,
2,0,0,1,0,3164.11,-0.0917806,-0.0921137,-15.5041,2,-0.00344794,10,0.00142814,-1.80955,-0.440222,-0.134023,81.1014,-0.0921137,
2,0,0,1,0,3164.12,-0.0937782,-0.0941387,-15.6682,2,-0.00360388,10,0.00147499,-1.80498,-0.443049,-0.133168,81.421,-0.0941387,
2,0,0,1,0,3164.13,-0.0957758,-0.0961177,-15.8301,2,-0.00376134,10,0.00152155,-1.80052,-0.450106,-0.13108,80.9712,-0.0961177,
2,0,0,1,0,3164.14,-0.0977734,-0.0981019,-15.9891,2,-0.00392054,10,0.00156856,-1.79618,-0.408162,-0.14455,90.3055,-0.0981019,
2,0,0,1,0,3164.15,-0.0997412,-0.100067,-16.1868,2,-0.00407814,10,0.00161976,-1.79084,0.098798,0.597178,-364.26,-0.1000672,
2,0,0,1,1,3164.15,-0.0996711,-0.100062,-15.2752,2,-0.00412555,10,0.00152847,-1.81601,-0.0115268,-5.1185,2665.7,-0.1000618,
2,0,0,1,1,3164.16,-0.0976826,-0.0980675,-10.8563,2,-0.00425285,10,0.00106465,-1.96432,-0.0133382,-4.42338,1900.22,-0.0980675,
2,0,0,1,1,3164.17,-0.095685,-0.0960332,-7.6199,2,-0.0043442,10,0.000731763,-2.11805,-0.0118768,-4.96768,1464.94,-0.0960332,
2,0,0,1,1,3164.18,-0.0936874,-0.0940727,-5.0041,2,-0.0044066,10,0.000470749,-2.30067,-0.00937755,-6.29162,1192.98,-0.0940727,
2,0,0,1,1,3164.19,-0.0916898,-0.0920447,-2.86173,2,-0.00444534,10,0.000263407,-2.54337,-0.00595356,-9.91004,985.004,-0.0920447,
2,0,0,1,1,3164.2,-0.0897013,-0.0900748,-1.06612,2,-0.00446432,10,9.60305e-05,-2.97219,-0.00494026,-11.9427,836.732,-0.0900748,
2,1,0,1,1,3164.21,-0.0877037,-0.0880845,0.451872,2,-0.00446697,10,-3.98029e-05,-3.34498,0.0178954,3.29694,716.841,-0.0880845,
2,1,0,1,1,3164.22,-0.0857062,-0.0861107,1.7755,2,-0.00445551,10,-0.000152889,-2.75068,0.00496377,11.8861,608.133,-0.0861107,
2,1,0,1,1,3164.23,-0.0837086,-0.0840918,2.87998,2,-0.0044319,10,-0.000242183,-2.54061,0.0117812,5.00798,525.58,-0.08409179,
2,1,0,1,1,3164.24,-0.0817019,-0.0821206,3.87263,2,-0.0043979,10,-0.000318022,-2.41199,0.0187301,3.15001,457.38,-0.08212059,
2,1,0,1,1,3164.25,-0.0797043,-0.0800895,4.71054,2,-0.00435477,10,-0.000377265,-2.32693,0.0267624,2.20459,398.036,-0.0800895,
2,1,0,1,1,3164.26,-0.0777067,-0.0781027,5.47188,2,-0.00430367,10,-0.000427369,-2.26186,0.0350362,1.68397,353.898,-0.0781027,
2,1,0,1,1,3164.27,-0.0757091,-0.0761046,6.1208,2,-0.00424554,10,-0.000465821,-2.21319,0.0451151,1.30777,310.241,-0.0761046,
2,1,0,1,1,3164.28,-0.0737025,-0.0740519,6.72862,2,-0.00418118,10,-0.000498267,-2.17207,0.0555563,1.06199,275.905,-0.0740519,
2,1,0,1,1,3164.29,-0.0717049,-0.0721076,7.2236,2,-0.00411129,10,-0.000520876,-2.14125,0.0689764,0.855365,240.099,-0.0721076,
2,1,0,1,1,3164.3,-0.0697073,-0.0701017,7.67706,2,-0.00403673,10,-0.000538175,-2.1148,0.0844117,0.698955,208.342,-0.0701017,
2,1,0,1,1,3164.31,-0.0677097,-0.0680576,8.06739,2,-0.00395787,10,-0.000549047,-2.09327,0.0984691,0.599173,188.22,-0.0680576,
2,1,0,1,1,3164.32,-0.0657212,-0.0660851,8.43305,2,-0.00387615,10,-0.000557299,-2.07402,0.117394,0.502582,164.593,-0.0660851,
2,1,0,1,1,3164.33,-0.0637236,-0.0640667,8.72426,2,-0.0037903,10,-0.000558934,-2.05927,0.141827,0.416001,141.459,-0.0640667,
2,1,0,1,1,3164.34,-0.061726,-0.0620824,8.99928,2,-0.00370166,10,-0.000558697,-2.04579,0.15989,0.369004,129.293,-0.0620824,
2,1,0,1,1,3164.35,-0.0597284,-0.0601037,9.23665,2,-0.00361041,10,-0.000555157,-2.03449,0.186835,0.315786,113.687,-0.0601037,
2,1,0,1,1,3164.36,-0.0577399,-0.0580827,9.45399,2,-0.00351791,10,-0.000549113,-2.02438,0.221241,0.266677,98.1655,-0.0580827,
2,1,0,1,1,3164.37,-0.0557423,-0.0560933,9.63033,2,-0.00342242,10,-0.000540197,-2.01636,0.257736,0.228917,85.9905,-0.0560933,
2,1,0,1,1,3164.38,-0.0537447,-0.054077,9.79845,2,-0.00332526,10,-0.00052987,-2.00884,0.308981,0.19095,72.8542,-0.054077,
2,1,0,1,1,3164.39,-0.0517472,-0.0520685,9.92356,2,-0.00322654,10,-0.000516704,-2.00333,0.338001,0.174556,67.6609,-0.0520685,
2,1,0,1,1,3164.4,-0.049745,-0.0501094,10.0669,2,-0.0031266,10,-0.000504446,-1.9971,0.364423,0.1619,63.503,-0.0501094,
2,1,0,1,1,3164.41,-0.0477429,-0.0480558,10.1784,2,-0.00302528,10,-0.00048913,-1.99232,0.456778,0.129165,51.268,-0.0480558,
2,1,0,1,1,3164.42,-0.0457453,-0.0460594,10.2745,2,-0.00292299,10,-0.000473239,-1.98824,0.551842,0.106915,42.8209,-0.0460594,
2,1,0,1,1,3164.43,-0.0437477,-0.0441143,10.3472,2,-0.00281987,10,-0.000456457,-1.98518,0.672533,0.087728,35.4189,-0.0441143,
2,1,0,1,1,3164.44,-0.0417501,-0.0420676,10.4159,2,-0.00271604,10,-0.000438172,-1.9823,0.685494,0.0860693,34.9891,-0.0420676,
2,1,0,1,1,3164.45,-0.0397435,-0.0401424,10.4861,2,-0.00261143,10,-0.000420938,-1.97938,0.834731,0.0706814,28.8894,-0.0401424,
2,1,0,1,1,3164.46,-0.0377459,-0.0381122,10.5302,2,-0.00250637,10,-0.000401328,-1.97756,1.20651,0.0489015,20.0896,-0.0381122,
2,1,0,1,1,3164.47,-0.0357483,-0.0361158,10.567,2,-0.00240085,10,-0.000381636,-1.97605,1.19537,0.0493569,20.3621,-0.0361158,
2,1,0,1,1,3164.48,-0.0337507,-0.0341125,10.6116,2,-0.00229497,10,-0.000361989,-1.97422,1.71093,0.0344841,14.2597,-0.0341125,
2,1,0,1,1,3164.49,-0.0317622,-0.0320922,10.6244,2,-0.00218981,10,-0.00034096,-1.9737,2.19686,0.0268566,11.1457,-0.0320922,
2,1,0,1,1,3164.5,-0.0297646,-0.0301055,10.6563,2,-0.00208345,10,-0.000320813,-1.97239,2.73017,0.0216104,8.97562,-0.0301055,
2,1,0,1,1,3164.51,-0.027767,-0.028087,10.6603,2,-0.00197685,10,-0.000299418,-1.97223,9.83888,0.00599662,2.49504,-0.028087,
2,1,0,1,1,3164.52,-0.0257694,-0.0261489,10.6662,2,-0.00187023,10,-0.000278908,-1.97199,9.20723,0.00640801,2.6673,-0.0261489,
2,1,0,1,1,3164.53,-0.0237809,-0.0241368,10.6709,2,-0.00176458,10,-0.00025756,-1.9718,6.9795,0.00845333,3.52118,-0.0241368,
2,1,0,1,1,3164.54,-0.0217833,-0.0221239,10.6803,2,-0.00165782,10,-0.000236291,-1.97142,-6.18436,-0.0095402,-3.97005,-0.0221239,
2,1,0,1,1,3164.55,-0.0197858,-0.0201171,10.6549,2,-0.00155106,10,-0.000214347,-1.97245,-5.03876,-0.0117092,-4.87617,-0.0201171,
2,1,0,1,1,3164.56,-0.0177882,-0.0181191,10.6608,2,-0.00144452,10,-0.000193164,-1.97221,-61.9317,-0.000952662,-0.396114,-0.01811905,
2,1,0,1,1,3164.57,-0.0157815,-0.0161019,10.6533,2,-0.00133794,10,-0.000171539,-1.97251,-5.73519,-0.0102874,-4.27672,-0.0161019,
2,1,0,1,1,3164.58,-0.0137839,-0.0141341,10.6438,2,-0.00123145,10,-0.00015044,-1.9729,-2.60276,-0.0226682,-9.40834,-0.0141341,
2,1,0,1,1,3164.59,-0.0117863,-0.0121794,10.6164,2,-0.00112515,10,-0.000129302,-1.97402,-3.44987,-0.0171021,-7.09452,-0.0121794,
2,1,0,1,1,3164.6,-0.00978874,-0.0100937,10.6151,2,-0.00101899,10,-0.000107146,-1.97408,-11.171,-0.00528156,-2.18737,-0.0100937,
2,1,0,1,1,3164.61,-0.00778207,-0.00812163,10.6076,2,-0.000912887,10,-8.61506e-05,-1.97438,-4.30137,-0.0137166,-5.67644,-0.00812163,
2,1,0,1,1,3164.62,-0.00578449,-0.00616431,10.5928,2,-0.000806948,10,-6.52973e-05,-1.97499,-2.27141,-0.0259751,-10.7314,-0.00616431,
2,1,0,1,1,3164.63,-0.0037869,-0.00413585,10.5648,2,-0.000701181,10,-4.36943e-05,-1.97614,-2.49628,-0.0236352,-9.7529,-0.00413585,
2,1,0,1,1,3164.64,-0.00178931,-0.00216985,10.5538,2,-0.000595592,10,-2.29003e-05,-1.97659,-2.30747,-0.0255691,-10.5225,-0.00216985,
2,1,0,1,1,3164.65,-2.55332e-05,-0.000344411,10.5249,2,-0.000503852,10,-3.62488e-06,-1.97778, , , ,-0.000344411,