File: Figure_codes/Fig_3-5/rawdata_trumpetplot_data/after 10th/20221101_1-115_003_TrumpetPlot_ParaChange_from10_every3_05_CV_C01_10.csv
mode,ox/red,error,control changes,counter inc.,time/s,control/V,Ewe/V,<I>/mA,cycle number,(Q-Qo)/C,I Range,P/W,log(|I|),Tafel slope mV/dec,alpha_eff,dI/d(E-IR),E-IR/V,
2,0,0,1,0,20821.3,2.44065e-05,-0.000325324,-0.742422,11,0.0000000E+000,10,2.41527e-07,-3.12935, , , ,-0.000325324,
2,1,0,1,0,20821.4,0.00129787,0.00091096,0.12891,11,-1.07884e-05,10,1.17432e-07,-3.88971, , , ,0.00091096,
2,1,0,1,0,20821.5,0.00279606,0.00247923,0.463941,11,1.47038e-05,10,1.15022e-06,-3.33354,0.00460131,12.8224,171.074,0.00247923,
2,1,0,1,0,20821.5,0.00429425,0.00397971,0.576373,11,5.54432e-05,10,2.2938e-06,-3.2393,0.0176087,3.35062,67.3579,0.00397971,
2,1,0,1,0,20821.6,0.00579244,0.00548975,0.641836,11,0.000102768,10,3.52352e-06,-3.19258,0.0352378,1.67434,40.8016,0.005489747,
2,1,0,1,0,20821.7,0.00729063,0.00696738,0.697161,11,0.000154393,10,4.85739e-06,-3.15667,0.0527051,1.11944,29.9124,0.00696738,
2,1,0,1,0,20821.8,0.00878882,0.00845501,0.738139,11,0.000209351,10,6.24097e-06,-3.13186,0.0698158,0.845081,24.0513,0.00845501,
2,1,0,1,0,20821.8,0.010287,0.00994661,0.769742,11,0.000267014,10,7.65632e-06,-3.11365,0.0856283,0.689025,20.5092,0.00994661,
2,1,0,1,0,20821.9,0.0117852,0.0114688,0.795307,11,0.000327011,10,9.12119e-06,-3.09947,0.0988666,0.596764,18.4962,0.0114688,
2,1,0,1,0,20822,0.0132847,0.0129053,0.822627,11,0.000389015,10,1.06163e-05,-3.0848,0.108358,0.54449,17.4989,0.0129053,
2,1,0,1,0,20822.1,0.0147802,0.0144636,0.846911,11,0.000452818,10,1.22494e-05,-3.07216,0.117698,0.501282,16.5787,0.0144636,
2,1,0,1,0,20822.1,0.0162798,0.0159795,0.871874,11,0.000518735,10,1.39321e-05,-3.05955,0.132841,0.444139,15.0779,0.0159795,
2,1,0,1,0,20822.2,0.017778,0.0174956,0.89233,11,0.000586199,10,1.56119e-05,-3.04947,0.146371,0.403086,14.0471,0.0174956,
2,1,0,1,0,20822.3,0.0192761,0.0189277,0.9138,11,0.000655124,10,1.72962e-05,-3.03915,0.157658,0.374228,13.3282,0.0189277,
2,1,0,1,0,20822.4,0.0207743,0.0204302,0.93647,11,0.000725691,10,1.91323e-05,-3.02851,0.153074,0.385436,14.0525,0.02043019,
2,1,0,1,0,20822.4,0.0222725,0.02194,0.956144,11,0.000797783,10,2.09778e-05,-3.01948,0.171549,0.343926,12.8279,0.02194,
2,1,0,1,0,20822.5,0.0237707,0.0234419,0.97491,11,0.000871554,10,2.28538e-05,-3.01104,0.165759,0.355938,13.5518,0.0234419,
2,1,0,1,0,20822.6,0.0252689,0.0249633,0.993578,11,0.000946624,10,2.4803e-05,-3.0028,0.184167,0.320362,12.4804,0.0249633,
2,1,0,1,0,20822.7,0.0267671,0.0264386,1.01832,11,0.0010233,10,2.69229e-05,-2.99212,0.152025,0.388093,15.4144,0.0264386,
2,1,0,1,0,20822.7,0.0282653,0.0279529,1.04172,11,0.00110158,10,2.91192e-05,-2.98225,0.173499,0.34006,13.7851,0.0279529,
2,1,0,1,0,20822.8,0.0297644,0.0293901,1.06002,11,0.00118156,10,3.11543e-05,-2.97468,0.201622,0.292627,12.0672,0.0293901,
2,1,0,1,0,20822.9,0.0312599,0.0309302,1.07131,11,0.00126266,10,3.31357e-05,-2.97009,0.191406,0.308245,12.9621,0.03093016,
2,1,0,1,0,20823,0.0327599,0.0324165,1.09691,11,0.00134534,10,3.5558e-05,-2.95983,0.186294,0.316704,13.5721,0.0324165,
2,1,0,1,0,20823,0.034258,0.0338992,1.11755,11,0.00142959,10,3.78839e-05,-2.95173,0.185164,0.318637,13.8885,0.0338992,
2,1,0,1,0,20823.1,0.0357562,0.0354506,1.13947,11,0.00151543,10,4.03949e-05,-2.9433,0.218071,0.270554,11.9777,0.0354506,
2,1,0,1,0,20823.2,0.0372544,0.0369205,1.15838,11,0.00160277,10,4.27679e-05,-2.93615,0.209025,0.282262,12.7514,0.0369205,
2,1,0,1,0,20823.3,0.0387526,0.0383695,1.17812,11,0.0016913,10,4.52038e-05,-2.92881,0.217538,0.271216,12.4922,0.0383695,
2,1,0,1,0,20823.3,0.0402508,0.0399019,1.19817,11,0.00178144,10,4.78091e-05,-2.92148,0.202061,0.291991,13.628,0.0399019,
2,1,0,1,0,20823.4,0.041749,0.0414317,1.21827,11,0.00187327,10,5.0475e-05,-2.91426,0.209615,0.281468,13.3388,0.0414317,
2,1,0,1,0,20823.5,0.0432472,0.0429456,1.23811,11,0.00196648,10,5.31714e-05,-2.90724,0.240164,0.245666,11.8461,0.0429456,
2,1,0,1,0,20823.6,0.0447449,0.0444066,1.25411,11,0.00206093,10,5.56908e-05,-2.90166,0.227979,0.258796,12.6657,0.0444066,
2,1,0,1,0,20823.6,0.0462445,0.0458945,1.27524,11,0.00215696,10,5.85263e-05,-2.89441,0.223693,0.263754,13.0907,0.04589453,
2,1,0,1,0,20823.7,0.04774,0.0473831,1.29218,11,0.00225426,10,6.12277e-05,-2.88868,0.242025,0.243776,12.2775,0.0473831,
2,1,0,1,0,20823.8,0.0492399,0.0489252,1.3101,11,0.00235316,10,6.40971e-05,-2.88269,0.25398,0.232302,11.8814,0.04892524,
2,1,0,1,0,20823.9,0.0507381,0.0504096,1.32326,11,0.00245308,10,6.67052e-05,-2.87835,0.269529,0.2189,11.3396,0.0504096,
2,1,0,1,0,20823.9,0.0522363,0.0518964,1.34199,11,0.00255433,10,6.96442e-05,-2.87225,0.255594,0.230835,12.1022,0.0518964,
2,1,0,1,0,20824,0.0537345,0.0533956,1.36474,11,0.00265703,10,7.28709e-05,-2.86495,0.257756,0.228898,12.1568,0.0533956,
2,1,0,1,0,20824.1,0.0552327,0.0549582,1.3814,11,0.00276116,10,7.59195e-05,-2.85968,0.330298,0.178627,9.59233,0.0549582,
2,1,0,1,0,20824.2,0.0567309,0.056423,1.3955,11,0.00286645,10,7.87384e-05,-2.85527,0.332794,0.177287,9.65987,0.056423,
2,1,0,1,0,20824.2,0.0582291,0.0579272,1.41103,11,0.0029727,10,8.17372e-05,-2.85046,0.311975,0.189118,10.4225,0.0579272,
2,1,0,1,0,20824.3,0.0597291,0.0594057,1.42821,11,0.0030804,10,8.48437e-05,-2.84521,0.296235,0.199166,11.084,0.0594057,
2,1,0,1,0,20824.4,0.0612246,0.0608696,1.4446,11,0.00318909,10,8.79325e-05,-2.84025,0.365753,0.161311,9.0714,0.0608696,
2,1,0,1,0,20824.5,0.0627241,0.0624045,1.4594,11,0.0032992,10,9.10728e-05,-2.83583,0.348561,0.169267,9.63373,0.0624045,
2,1,0,1,0,20824.5,0.0642219,0.0639179,1.47048,11,0.0034101,10,9.39898e-05,-2.83254,0.335493,0.175861,10.111,0.0639179,
2,1,0,1,0,20824.6,0.06572,0.0654027,1.48639,11,0.00352224,10,9.72138e-05,-2.82787,0.323052,0.182633,10.6055,0.0654027,
2,1,0,1,0,20824.7,0.0672182,0.0668915,1.50506,11,0.00363564,10,0.000100676,-2.82245,0.366524,0.160972,9.42757,0.0668915,
2,1,0,1,0,20824.8,0.0687164,0.0684218,1.52058,11,0.0037501,10,0.000104041,-2.81799,0.429697,0.137306,8.12832,0.0684218,
2,1,0,1,0,20824.8,0.0702146,0.0698947,1.5293,11,0.00386531,10,0.00010689,-2.81551,0.39426,0.149647,8.93044,0.0698947,
2,1,0,1,0,20824.9,0.0717128,0.0713741,1.53974,11,0.00398148,10,0.000109897,-2.81255,0.384584,0.153412,9.21452,0.0713741,
2,1,0,1,0,20825,0.073211,0.072852,1.5539,11,0.00409866,10,0.000113205,-2.80858,0.395171,0.149302,9.05054,0.072852,
2,1,0,1,0,20825.1,0.0747092,0.0744477,1.56614,11,0.00421668,10,0.000116596,-2.80517,0.469713,0.125609,7.67362,0.0744477,
2,1,0,1,0,20825.1,0.0762087,0.0758705,1.57539,11,0.00433572,10,0.000119526,-2.80261,0.493395,0.11958,7.35587,0.0758705,
2,1,0,1,0,20825.2,0.0777042,0.0774103,1.58789,11,0.00445532,10,0.000122919,-2.79918,0.461089,0.127958,7.93316,0.0774103,
2,1,0,1,0,20825.3,0.0792037,0.0788754,1.60098,11,0.00457609,10,0.000126278,-2.79561,0.478496,0.123303,7.69491,0.07887537,
2,1,0,1,0,20825.4,0.0807019,0.0803978,1.61013,11,0.00469763,10,0.000129451,-2.79314,0.623525,0.0946234,5.93237,0.0803978,
2,1,0,1,0,20825.4,0.0822001,0.0818615,1.6184,11,0.00481993,10,0.000132485,-2.79091,0.549804,0.107311,6.78545,0.0818615,
2,1,0,1,0,20825.5,0.0836983,0.0833715,1.6293,11,0.00494285,10,0.000135837,-2.788,0.472413,0.124891,7.96818,0.0833715,
2,1,0,1,0,20825.6,0.0851965,0.0848719,1.64359,11,0.0050668,10,0.000139495,-2.78421,0.468108,0.126039,8.09044,0.08487194,
2,1,0,1,0,20825.7,0.0866947,0.0863617,1.65919,11,0.00519179,10,0.00014329,-2.7801,0.475902,0.123975,8.01824,0.0863617,
2,1,0,1,0,20825.7,0.0881929,0.0878612,1.67166,11,0.0053177,10,0.000146874,-2.77685,0.424271,0.139062,9.07355,0.0878612,
2,1,0,1,0,20825.8,0.0896911,0.0893629,1.68479,11,0.00544449,10,0.000150558,-2.77345,0.381153,0.154793,10.195,0.0893629,
2,1,0,1,0,20825.9,0.0911893,0.0908974,1.7049,11,0.00557261,10,0.000154971,-2.7683,0.301137,0.195924,13.0181,0.0908974,
2,1,0,1,0,20826,0.0926884,0.0923566,1.72452,11,0.00570243,10,0.00015927,-2.76333,0.291915,0.202114,13.5949,0.0923566,
2,1,0,1,0,20826,0.0941839,0.0939101,1.74247,11,0.00583333,10,0.000163635,-2.75884,0.286974,0.205594,14.001,0.09391012,
2,1,0,1,0,20826.1,0.0956838,0.0953585,1.75974,11,0.00596606,10,0.000167806,-2.75455,0.263357,0.224031,15.4462,0.0953585,
2,1,0,1,0,20826.2,0.097182,0.0968527,1.78833,11,0.00610037,10,0.000173205,-2.74755,0.218162,0.270441,18.8942,0.0968527,
2,1,0,1,0,20826.3,0.0986802,0.0983634,1.81695,11,0.0062367,10,0.000178721,-2.74066,0.214995,0.274425,19.4719,0.0983634,
2,1,0,1,0,20826.3,0.100178,0.0998702,1.84523,11,0.00637523,10,0.000184284,-2.73395,0.219452,0.268851,19.3777,0.0998702,
2,1,0,1,0,20826.4,0.101677,0.101378,1.87284,11,0.00651594,10,0.000189866,-2.7275,0.215234,0.27412,20.1009,0.101378,
2,1,0,1,0,20826.5,0.103175,0.102831,1.90904,11,0.00665897,10,0.000196309,-2.71918,0.18941,0.311493,23.2517,0.102831,
2,1,0,1,0,20826.6,0.104673,0.104386,1.948,11,0.00680461,10,0.000203343,-2.71041,0.190589,0.309566,23.4757,0.104386,
2,1,0,1,0,20826.6,0.106171,0.105907,1.98047,11,0.00695298,10,0.000209746,-2.70323,0.201568,0.292705,22.563,0.105907,
2,1,0,1,0,20826.7,0.107669,0.107351,2.01007,11,0.00710375,10,0.000215784,-2.69679,0.216909,0.272003,21.3413,0.107351,
2,1,0,1,0,20826.8,0.109168,0.10884,2.04143,11,0.00725695,10,0.000222189,-2.69007,0.234645,0.251444,20.0513,0.10884,
2,1,0,1,0,20826.9,0.110664,0.110341,2.07282,11,0.00741223,10,0.000228718,-2.68344,0.215667,0.27357,22.1336,0.110341,
2,1,0,1,0,20826.9,0.112164,0.111825,2.1015,11,0.00757023,10,0.000235,-2.67747,0.261455,0.22566,18.5047,0.1118251,
2,1,0,1,0,20827,0.113662,0.113337,2.1312,11,0.00773029,10,0.000241543,-2.67138,0.277863,0.212335,17.6291,0.113337,
2,1,0,1,0,20827.1,0.11516,0.114839,2.15541,11,0.00789201,10,0.000247526,-2.66647,0.328229,0.179753,15.1089,0.114839,
2,1,0,1,0,20827.2,0.116658,0.116309,2.1773,11,0.00805563,10,0.00025324,-2.66208,0.318015,0.185526,15.7608,0.116309,
2,1,0,1,0,20827.2,0.118157,0.11784,2.20225,11,0.00822103,10,0.000259513,-2.65713,0.387357,0.152314,13.0733,0.11784,
2,1,0,1,0,20827.3,0.119655,0.119347,2.22043,11,0.00838805,10,0.000265001,-2.65356,0.476549,0.123807,10.7171,0.119347,
2,1,0,1,0,20827.4,0.121153,0.12087,2.23339,11,0.00855619,10,0.000269949,-2.65104,0.464668,0.126973,11.0878,0.12087,
2,1,0,1,0,20827.5,0.122653,0.122367,2.25475,11,0.00872573,10,0.000275907,-2.6469,0.452791,0.130303,11.4565,0.122367,
2,1,0,1,0,20827.5,0.124149,0.123845,2.26982,11,0.00889614,10,0.000281106,-2.64401,0.483978,0.121906,10.7888,0.123845,
2,1,0,1,0,20827.6,0.125648,0.12537,2.28693,11,0.00906826,10,0.000286712,-2.64075,0.513289,0.114945,10.242,0.1253701,
2,1,0,1,0,20827.7,0.127146,0.126793,2.29636,11,0.00924119,10,0.000291163,-2.63896,0.524294,0.112532,10.0917,0.126793,
2,1,0,1,0,20827.8,0.128644,0.128268,2.31317,11,0.0094151,10,0.000296706,-2.63579,0.513484,0.114901,10.3833,0.128268,
2,1,0,1,0,20827.8,0.130142,0.129834,2.33218,11,0.00959028,10,0.000302797,-2.63224,0.559916,0.105373,9.57354,0.129834,
2,1,0,1,0,20827.9,0.13164,0.131342,2.34289,11,0.00976674,10,0.00030772,-2.63025,0.86646,0.0680932,6.21166,0.131342,
2,1,0,1,0,20828,0.133139,0.132835,2.35381,11,0.00994396,10,0.000312669,-2.62823,1.17581,0.0501783,4.60099,0.132835,
2,1,0,1,0,20828.1,0.134637,0.134347,2.35875,11,0.0101215,10,0.000316891,-2.62732,3.36828,0.0175163,1.60985,0.134347,
2,1,0,1,0,20828.1,0.136135,0.13579,2.35887,11,0.0102994,10,0.000320312,-2.6273,-3.03195,-0.0194594,-1.78566,0.13579,
2,1,0,1,0,20828.2,0.137633,0.137279,2.35445,11,0.0104772,10,0.000323218,-2.62811,-0.672998,-0.0876674,-8.0103,0.137279,
2,1,0,1,0,20828.3,0.139133,0.138831,2.33547,11,0.0106543,10,0.000324235,-2.63163,-0.367949,-0.160348,-14.5504,0.1388306,
2,1,0,1,0,20828.4,0.140628,0.140298,2.30842,11,0.0108291,10,0.000323865,-2.63669,-0.256344,-0.230159,-20.6483,0.140298,
2,1,0,1,0,20828.4,0.142128,0.141832,2.26847,11,0.0110019,10,0.000321741,-2.64427,-0.18174,-0.32464,-28.5823,0.141832,
2,1,0,1,0,20828.5,0.143626,0.143288,2.21905,11,0.0111715,10,0.000317963,-2.65383,-0.140685,-0.419376,-36.1078,0.143288,
2,1,0,1,0,20828.6,0.145124,0.144826,2.15565,11,0.0113366,10,0.000312194,-2.66642,-0.105763,-0.557852,-46.7245,0.144826,
2,1,0,1,0,20828.7,0.146622,0.146274,2.0786,11,0.0114965,10,0.000304045,-2.68223,-0.0951862,-0.619838,-50.2136,0.146274,
2,1,0,1,0,20828.7,0.14812,0.14782,2.00316,11,0.0116506,10,0.000296106,-2.69829,-0.0859753,-0.686244,-53.471,0.14782,
2,1,0,1,0,20828.8,0.149619,0.149292,1.91952,11,0.0117988,10,0.000286568,-2.71681,-0.0764062,-0.772189,-57.6716,0.149292,
2,1,0,1,0,20828.9,0.151117,0.150797,1.83287,11,0.0119404,10,0.000276391,-2.73687,-0.0726168,-0.812485,-57.9956,0.150797,
2,1,0,1,0,20829,0.152615,0.152271,1.74513,11,0.0120756,10,0.000265733,-2.75817,-0.0726949,-0.811611,-55.3045,0.152271,
2,1,0,1,0,20829,0.154113,0.153743,1.66421,11,0.0122045,10,0.000255862,-2.77879,-0.0744254,-0.79274,-51.6857,0.153743,
2,1,0,1,0,20829.1,0.155613,0.155294,1.59217,11,0.0123277,10,0.000247255,-2.79801,-0.0779789,-0.756615,-47.0764,0.155294,
2,1,0,1,0,20829.2,0.157108,0.156781,1.522,11,0.0124454,10,0.000238621,-2.81759,-0.0815956,-0.723078,-43.0282,0.156781,
2,1,0,1,0,20829.3,0.158608,0.158293,1.46061,11,0.0125584,10,0.000231204,-2.83546,-0.0862493,-0.684064,-39.1611,0.158293,
2,1,0,1,0,20829.3,0.160106,0.159786,1.40477,11,0.0126668,10,0.000224462,-2.8524,-0.0953492,-0.618778,-34.0354,0.159786,
2,1,0,1,0,20829.4,0.161604,0.16124,1.3557,11,0.0127715,10,0.000218594,-2.86783,-0.109342,-0.53959,-28.6847,0.16124,
2,1,0,1,0,20829.5,0.163102,0.162833,1.31658,11,0.0128729,10,0.000214383,-2.88055,-0.118282,-0.498809,-25.6952,0.162833,
2,1,0,1,0,20829.5,0.164601,0.164284,1.28061,11,0.0129713,10,0.000210383,-2.89258,-0.127211,-0.463798,-23.2531,0.164284,
2,1,0,1,0,20829.6,0.166099,0.165756,1.24755,11,0.0130671,10,0.000206788,-2.90394,-0.14363,-0.410778,-20.0711,0.165756,
2,1,0,1,0,20829.7,0.167597,0.167291,1.21891,11,0.0131608,10,0.000203912,-2.91403,-0.170072,-0.346912,-16.5566,0.167291,
2,1,0,1,0,20829.8,0.169095,0.168782,1.1974,11,0.0132525,10,0.0002021,-2.92176,-0.176013,-0.335202,-15.6705,0.168782,
2,1,0,1,0,20829.8,0.170593,0.170288,1.1737,11,0.0133426,10,0.000199868,-2.93044,-0.189764,-0.310912,-14.2866,0.170288,
2,1,0,1,0,20829.9,0.172092,0.171771,1.15297,11,0.013431,10,0.000198048,-2.93818,-0.228683,-0.258,-11.6447,0.171771,
2,1,0,1,0,20830,0.173588,0.173266,1.13702,11,0.013518,10,0.000197007,-2.94423,-0.258019,-0.228666,-10.1615,0.173266,
2,1,0,1,0,20830.1,0.175088,0.17478,1.12468,11,0.0136041,10,0.000196571,-2.94897,-0.256918,-0.229645,-10.0723,0.17478,
2,1,0,1,0,20830.1,0.176586,0.176264,1.10813,11,0.0136889,10,0.000195323,-2.95541,-0.262312,-0.224923,-9.73245,0.176264,
2,1,0,1,0,20830.2,0.178084,0.177788,1.09618,11,0.0137728,10,0.000194889,-2.96012,-0.311532,-0.189387,-8.12149,0.177788,
2,1,0,1,0,20830.3,0.179582,0.179243,1.08423,11,0.0138556,10,0.000194341,-2.96488,-0.393389,-0.149979,-6.36843,0.179243,
2,1,0,1,0,20830.4,0.181081,0.180775,1.07542,11,0.0139378,10,0.00019441,-2.96842,-0.360894,-0.163483,-6.87457,0.180775,
2,1,0,1,0,20830.4,0.182579,0.182284,1.06959,11,0.0140194,10,0.000194969,-2.97078,-0.369843,-0.159527,-6.64392,0.182284,
2,1,0,1,0,20830.5,0.184077,0.183759,1.06131,11,0.0141003,10,0.000195025,-2.97416,-0.431931,-0.136596,-5.6526,0.183759,
2,1,0,1,0,20830.6,0.185577,0.185235,1.05138,11,0.0141806,10,0.000194754,-2.97824,-0.565248,-0.104379,-4.28883,0.185235,
2,1,0,1,0,20830.7,0.187073,0.186788,1.04656,11,0.0142602,10,0.000195485,-2.98024,-0.6745,-0.0874722,-3.56377,0.186788,
2,1,0,1,0,20830.7,0.188572,0.188206,1.03965,11,0.0143396,10,0.000195669,-2.98311,-0.563444,-0.104713,-4.24794,0.188206,
2,1,0,1,0,20830.8,0.19007,0.189775,1.03253,11,0.0144185,10,0.000195948,-2.9861,-0.490866,-0.120196,-4.84934,0.1897748,
2,1,0,1,0,20830.9,0.191568,0.191262,1.02803,11,0.0144968,10,0.000196624,-2.98799,-0.557386,-0.105851,-4.24542,0.191262,
2,1,0,1,0,20831,0.193066,0.19274,1.02043,11,0.0145748,10,0.000196678,-2.99122,-1.24389,-0.0474317,-1.89027,0.19274,
2,1,0,1,0,20831,0.194564,0.194285,1.01638,11,0.0146524,10,0.000197468,-2.99294,-0.829801,-0.0711013,-2.82682,0.194285,
2,1,0,1,0,20831.1,0.196063,0.195743,1.01342,11,0.0147298,10,0.00019837,-2.99421,-0.633635,-0.0931135,-3.68191,0.195743,
2,1,0,1,0,20831.2,0.197561,0.197238,1.00433,11,0.0148068,10,0.000198093,-2.99812,-0.707793,-0.0833577,-3.28326,0.197238,
2,1,0,1,0,20831.3,0.199059,0.198717,1.00668,11,0.0148833,10,0.000200045,-2.99711,-0.766512,-0.076972,-3.02174,0.198717,
2,1,0,1,0,20831.3,0.200557,0.200219,1.00332,11,0.0149597,10,0.000200885,-2.99856,-1.08911,-0.0541726,-2.11143,0.2002189,
2,1,0,1,0,20831.4,0.202057,0.201778,0.999493,11,0.0150359,10,0.000201675,-3.00022,-0.964525,-0.06117,-2.3777,0.201778,
2,1,0,1,0,20831.5,0.203552,0.203239,0.994055,11,0.0151117,10,0.00020203,-3.00259,-1.39858,-0.0421856,-1.6368,0.203239,
2,1,0,1,0,20831.6,0.205052,0.204732,0.989514,11,0.0151873,10,0.000202585,-3.00458,-6.61487,-0.0089193,-0.346301,0.204732,
2,1,0,1,0,20831.6,0.20655,0.206249,0.987358,11,0.0152626,10,0.000203642,-3.00553,-1.59648,-0.0369564,-1.42463,0.206249,
2,1,0,1,0,20831.7,0.208048,0.207751,0.985589,11,0.015338,10,0.000204757,-3.0063,-0.942866,-0.0625752,-2.40337,0.207751,
2,1,0,1,0,20831.8,0.209546,0.209272,0.982885,11,0.015413,10,0.00020569,-3.0075,-0.701931,-0.0840538,-3.22236,0.209272,
2,1,0,1,0,20831.9,0.211044,0.210727,0.978787,11,0.0154875,10,0.000206257,-3.00931,-1.39022,-0.0424392,-1.62226,0.210727,
2,1,0,1,0,20831.9,0.212543,0.212223,0.978213,11,0.015562,10,0.000207599,-3.00957,-1.50594,-0.0391781,-1.4917,0.212223,
2,1,0,1,0,20832,0.214041,0.213705,0.974387,11,0.0156363,10,0.000208232,-3.01127,-0.859732,-0.068626,-2.60807,0.213705,
2,1,0,1,0,20832.1,0.215539,0.215239,0.970953,11,0.0157104,10,0.000208987,-3.0128,-1.14061,-0.0517266,-1.96085,0.215239,
2,1,0,1,0,20832.2,0.217037,0.216706,0.966627,11,0.0157842,10,0.000209473,-3.01474,-2.94974,-0.0200017,-0.75654,0.216706,
2,1,0,1,0,20832.2,0.218536,0.218233,0.967604,11,0.0158579,10,0.000211163,-3.0143,7.67699,0.00768531,0.289698,0.2182329,
2,1,0,1,0,20832.3,0.220032,0.219769,0.966573,11,0.0159314,10,0.000212423,-3.01477,-2.90771,-0.0202909,-0.763898,0.219769,
2,1,0,1,0,20832.4,0.221532,0.22118,0.962245,11,0.016005,10,0.000212829,-3.01671,-1.08168,-0.0545446,-2.04572,0.22118,
2,1,0,1,0,20832.5,0.22303,0.222706,0.956203,11,0.0160782,10,0.000212953,-3.01945,-1.96183,-0.0300739,-1.12718,0.222706,
2,1,0,1,0,20832.5,0.224528,0.224207,0.95782,11,0.0161511,10,0.00021475,-3.01872,-1.00641,-0.058624,-2.19206,0.224207,
2,1,0,1,0,20832.6,0.226026,0.225698,0.955293,11,0.016224,10,0.000215608,-3.01986,-1.93368,-0.0305117,-1.13783,0.225698,
2,1,0,1,0,20832.7,0.227525,0.227235,0.951423,11,0.0162967,10,0.000216196,-3.02163,-1.44452,-0.040844,-1.51921,0.2272348,
2,1,0,1,0,20832.8,0.229023,0.228731,0.950609,11,0.0163693,10,0.000217433,-3.022,-1.4116,-0.0417965,-1.55485,0.228731,
2,1,0,1,0,20832.8,0.230521,0.230212,0.948216,11,0.0164416,10,0.000218291,-3.02309,-2.43052,-0.0242747,-0.900781,0.230212,
2,1,0,1,0,20832.9,0.232019,0.231699,0.94478,11,0.0165138,10,0.000218904,-3.02467,-3.38581,-0.0174257,-0.644467,0.231699,
2,1,0,1,0,20833,0.233517,0.233192,0.948147,11,0.0165861,10,0.0002211,-3.02312,-2.40111,-0.024572,-0.905448,0.233192,
2,1,0,1,0,20833.1,0.235016,0.23474,0.943379,11,0.0166582,10,0.000221449,-3.02531,-1.62692,-0.0362649,-1.33641,0.23474,
2,1,0,1,0,20833.1,0.236512,0.236186,0.942519,11,0.0167299,10,0.000222609,-3.02571,-1.05925,-0.0557,-2.04622,0.236186,
2,1,0,1,0,20833.2,0.238012,0.237731,0.940178,11,0.0168017,10,0.000223509,-3.02679,-4.10383,-0.0143768,-0.526924,0.237731,
2,1,0,1,0,20833.3,0.23951,0.239188,0.937669,11,0.0168733,10,0.000224279,-3.02795,-1.69476,-0.0348132,-1.2756,0.239188,
2,1,0,1,0,20833.4,0.241008,0.240722,0.936927,11,0.0169448,10,0.000225539,-3.02829,-1.71903,-0.0343217,-1.25568,0.240722,
2,1,0,1,0,20833.4,0.242506,0.242185,0.934158,11,0.0170161,10,0.00022624,-3.02958,-5.62335,-0.010492,-0.383237,0.242185,
2,1,0,1,0,20833.5,0.244005,0.243672,0.934414,11,0.0170872,10,0.000227691,-3.02946,17.6129,0.00334982,0.121888,0.243672,
2,1,0,1,0,20833.6,0.245503,0.245209,0.934518,11,0.0171584,10,0.000229153,-3.02941,-1.6657,-0.0354205,-1.28862,0.2452095,
2,1,0,1,0,20833.7,0.247001,0.246666,0.932422,11,0.0172295,10,0.000229997,-3.03039,-1.08045,-0.0546071,-1.98136,0.246666,
2,1,0,1,0,20833.7,0.248501,0.248144,0.92708,11,0.0173005,10,0.00023005,-3.03288,-2.46569,-0.0239284,-0.867721,0.248144,
2,1,0,1,0,20833.8,0.249997,0.24973,0.926597,11,0.017371,10,0.000231399,-3.03311,-1.65661,-0.0356149,-1.28758,0.24973,
2,1,0,1,0,20833.9,0.251496,0.251211,0.926015,11,0.0174417,10,0.000232625,-3.03338,-4.99259,-0.0118175,-0.426986,0.251211,
2,1,0,1,0,20834,0.252994,0.252691,0.923198,11,0.0175122,10,0.000233284,-3.03471,-1.23132,-0.0479159,-1.72865,0.252691,
2,1,0,1,0,20834,0.254492,0.254196,0.923658,11,0.0175826,10,0.00023479,-3.03449,-1.71574,-0.0343875,-1.2379,0.254196,
2,1,0,1,0,20834.1,0.25599,0.255684,0.91977,11,0.0176528,10,0.000235171,-3.03632,-2.87024,-0.0205558,-0.73916,0.255684,
2,1,0,1,0,20834.2,0.257488,0.257161,0.920062,11,0.017723,10,0.000236604,-3.03618,-4.26126,-0.0138457,-0.496841,0.257161,
2,1,0,1,0,20834.3,0.258987,0.258652,0.920888,11,0.0177931,10,0.00023819,-3.03579,-2.31813,-0.0254516,-0.912542,0.258652,
2,1,0,1,0,20834.3,0.260485,0.260189,0.920953,11,0.0178631,10,0.000239622,-3.03576,-1.07386,-0.0549422,-1.96733,0.260189,
2,1,0,1,0,20834.4,0.261983,0.261668,0.913452,11,0.0179328,10,0.000239021,-3.03931,-3.83721,-0.0153758,-0.549094,0.261668,
2,1,0,1,0,20834.5,0.263481,0.263163,0.912297,11,0.0180025,10,0.000240083,-3.03986,-2.9011,-0.0203371,-0.723058,0.263163,
2,1,0,1,0,20834.6,0.264981,0.264691,0.913297,11,0.0180722,10,0.000241742,-3.03939,-5.49707,-0.010733,-0.382268,0.264691,
2,1,0,1,0,20834.6,0.266476,0.266149,0.90989,11,0.0181415,10,0.000242166,-3.04101,-2.72954,-0.0216154,-0.767774,0.266149,
2,1,0,1,0,20834.7,0.267976,0.267672,0.905493,11,0.0182109,10,0.000242375,-3.04311,-2.71566,-0.0217258,-0.769761,0.2676715,
2,1,0,1,0,20834.8,0.269474,0.269142,0.907065,11,0.0182801,10,0.000244129,-3.04236,-9.16267,-0.00643917,-0.227846,0.269142,
2,1,0,1,0,20834.9,0.270972,0.270617,0.907088,11,0.0183492,10,0.000245473,-3.04235,-2.73335,-0.0215852,-0.762438,0.270617,
2,1,0,1,0,20834.9,0.27247,0.272167,0.902819,11,0.0184182,10,0.000245718,-3.0444,-1.34246,-0.0439492,-1.54645,0.272167,
2,1,0,1,0,20835,0.273968,0.27368,0.897398,11,0.0184871,10,0.0002456,-3.04701,-1.47596,-0.039974,-1.40729,0.27368,
2,1,0,1,0,20835.1,0.275467,0.275165,0.898782,11,0.0185557,10,0.000247313,-3.04635,-1.64366,-0.0358955,-1.26294,0.275165,
2,1,0,1,0,20835.2,0.276965,0.276691,0.898024,11,0.0186243,10,0.000248476,-3.04671,-1.88935,-0.0312277,-1.09564,0.276691,
2,1,0,1,0,20835.2,0.278463,0.278127,0.895777,11,0.0186928,10,0.000249139,-3.0478,-1.10794,-0.0532521,-1.86024,0.2781266,
2,1,0,1,0,20835.3,0.279961,0.279671,0.896499,11,0.0187611,10,0.000250725,-3.04745,-1.19219,-0.0494886,-1.72939,0.279671,
2,1,0,1,0,20835.4,0.28146,0.281166,0.893855,11,0.0188293,10,0.000251322,-3.04873,-5.79644,-0.0101787,-0.354281,0.281166,
2,1,0,1,0,20835.5,0.282956,0.282676,0.892171,11,0.0188972,10,0.000252195,-3.04955,-2.20326,-0.0267785,-0.929984,0.282676,
2,1,0,1,0,20835.5,0.284456,0.284187,0.889312,11,0.0189653,10,0.000252731,-3.05095,-2.57822,-0.022884,-0.794073,0.284187,
2,1,0,1,0,20835.6,0.285954,0.285661,0.887984,11,0.0190331,10,0.000253663,-3.05159,-1.07152,-0.0550618,-1.90833,0.2856614,
2,1,0,1,0,20835.7,0.287452,0.287066,0.882875,11,0.0191006,10,0.000253443,-3.0541,-1.63565,-0.0360713,-1.24669,0.287066,
2,1,0,1,0,20835.8,0.28895,0.288614,0.882736,11,0.0191681,10,0.00025477,-3.05417,-7.9014,-0.00746703,-0.257077,0.288614,
2,1,0,1,0,20835.8,0.290449,0.290108,0.88243,11,0.0192354,10,0.000256,-3.05432,-2.00838,-0.0293768,-1.01276,0.290108,
2,1,0,1,0,20835.9,0.291947,0.291631,0.878789,11,0.0193027,10,0.000256283,-3.05612,-1.89888,-0.0310709,-1.06576,0.291631,
2,1,0,1,0,20836,0.293445,0.293117,0.877685,11,0.0193697,10,0.000257264,-3.05666,-1.32856,-0.0444091,-1.52212,0.293117,
2,1,0,1,0,20836.1,0.294943,0.294622,0.8775,11,0.0194366,10,0.000258531,-3.05675,-2.35648,-0.0250373,-0.855643,0.294622,
2,1,0,1,0,20836.1,0.296441,0.296069,0.877944,11,0.0195034,10,0.000259932,-3.05653,-2.33527,-0.0252648,-0.862409,0.296069,
2,1,0,1,0,20836.2,0.29794,0.297636,0.873146,11,0.0195703,10,0.00025988,-3.05891,-2.09165,-0.0282074,-0.962006,0.297636,
2,1,0,1,0,20836.3,0.299436,0.299103,0.870604,11,0.0196367,10,0.0002604,-3.06018,-0.00303315,-19.4517,-360.647,0.299103,
2,1,0,1,0,20836.3,0.299739,0.299455,0.521499,11,0.01967,10,0.000156166,-3.28275,0.000902106,65.4025,754.737,0.299455,
2,1,0,1,0,20836.4,0.298239,0.297934,0.00863522,11,0.0196824,10,2.57272e-06,-5.06373,0.00454407,12.984,251.013,0.297934,
2,0,0,1,0,20836.5,0.296741,0.296443,-0.0936669,11,0.0196773,10,-2.77669e-05,-4.02841,-0.0142994,-4.12603,59.5567,0.296443,
2,0,0,1,0,20836.6,0.295243,0.29491,-0.147894,11,0.0196667,10,-4.36154e-05,-3.83005,-0.0090807,-6.4973,30.3133,0.29491,
2,0,0,1,0,20836.6,0.293745,0.293451,-0.183244,11,0.019653,10,-5.3773e-05,-3.73697,-0.0184761,-3.19332,21.1939,0.2934505,
2,0,0,1,0,20836.7,0.292246,0.291899,-0.209885,11,0.0196371,10,-6.12654e-05,-3.67802,-0.0278009,-2.12224,16.9971,0.291899,
2,0,0,1,0,20836.8,0.290748,0.290438,-0.233727,11,0.0196192,10,-6.78833e-05,-3.63129,-0.0346139,-1.70452,15.216,0.290438,
2,0,0,1,0,20836.9,0.28925,0.288953,-0.254756,11,0.0195996,10,-7.36125e-05,-3.59388,-0.0457336,-1.29008,12.6993,0.288953,
2,0,0,1,0,20836.9,0.287752,0.287442,-0.271518,11,0.0195787,10,-7.80457e-05,-3.5662,-0.0590748,-0.998734,10.5513,0.287442,
2,0,0,1,0,20837,0.286254,0.285929,-0.286625,11,0.0195565,10,-8.19546e-05,-3.54269,-0.0616124,-0.957599,10.7143,0.285929,
2,0,0,1,0,20837.1,0.284754,0.284475,-0.302041,11,0.0195331,10,-8.59232e-05,-3.51993,-0.065916,-0.895079,10.5086,0.284475,
2,0,0,1,0,20837.2,0.283259,0.282943,-0.317523,11,0.0195086,10,-8.98408e-05,-3.49822,-0.0773317,-0.762948,9.40767,0.2829428,
2,0,0,1,0,20837.2,0.281759,0.281444,-0.328766,11,0.019483,10,-9.25294e-05,-3.48311,-0.0899152,-0.656174,8.43603,0.281444,
2,0,0,1,0,20837.3,0.280261,0.279937,-0.339051,11,0.0194566,10,-9.49131e-05,-3.46973,-0.0922928,-0.63927,8.52183,0.279937,
2,0,0,1,0,20837.4,0.278763,0.278447,-0.353555,11,0.0194293,10,-9.84464e-05,-3.45154,-0.117646,-0.501504,6.92294,0.278447,
2,0,0,1,0,20837.5,0.277264,0.276974,-0.365302,11,0.0194011,10,-0.000101179,-3.43735,-0.114576,-0.514942,7.3075,0.276974,
2,0,0,1,0,20837.5,0.275766,0.275477,-0.375526,11,0.0193721,10,-0.000103449,-3.42536,-0.153193,-0.385134,5.61333,0.275477,
2,0,0,1,0,20837.6,0.274268,0.273963,-0.384427,11,0.0193423,10,-0.000105319,-3.41519,-0.142775,-0.413237,6.19556,0.273963,
2,0,0,1,0,20837.7,0.27277,0.272487,-0.394201,11,0.019312,10,-0.000107414,-3.40428,-0.134216,-0.439591,6.76919,0.272487,
2,0,0,1,0,20837.8,0.271272,0.270933,-0.405023,11,0.0192808,10,-0.000109734,-3.39252,-0.140373,-0.420308,6.60878,0.270933,
2,0,0,1,0,20837.8,0.269774,0.269445,-0.415756,11,0.0192489,10,-0.000112023,-3.38116,-0.158674,-0.371832,5.9681,0.269445,
2,0,0,1,0,20837.9,0.268274,0.267952,-0.421333,11,0.0192163,10,-0.000112897,-3.37537,-0.186019,-0.317172,5.19532,0.267952,
2,0,0,1,0,20838,0.266779,0.266484,-0.427831,11,0.0191834,10,-0.00011401,-3.36873,-0.156928,-0.375968,6.30224,0.266484,
2,0,0,1,0,20838.1,0.265279,0.264988,-0.434939,11,0.0191496,10,-0.000115254,-3.36157,-0.178803,-0.329972,5.59003,0.264988,
2,0,0,1,0,20838.1,0.263781,0.263512,-0.445254,11,0.0191153,10,-0.00011733,-3.35139,-0.195994,-0.30103,5.23107,0.263512,
2,0,0,1,0,20838.2,0.262283,0.261984,-0.452499,11,0.0190804,10,-0.000118548,-3.34438,-0.247727,-0.238166,4.20415,0.261984,
2,0,0,1,0,20838.3,0.260784,0.260476,-0.455325,11,0.019045,10,-0.000118601,-3.34168,-0.275379,-0.21425,3.83042,0.260476,
2,0,0,1,0,20838.4,0.259286,0.259002,-0.467257,11,0.0190091,10,-0.00012102,-3.33044,-0.228683,-0.257999,4.69198,0.259002,
2,0,0,1,0,20838.4,0.257788,0.257481,-0.477816,11,0.0189725,10,-0.000123029,-3.32074,-0.252108,-0.234027,4.33413,0.257481,
2,0,0,1,0,20838.5,0.25629,0.255956,-0.483831,11,0.0189354,10,-0.000123839,-3.31531,-0.279183,-0.211331,3.95536,0.255956,
2,0,0,1,0,20838.6,0.25479,0.25448,-0.486389,11,0.0188979,10,-0.000123776,-3.31302,-0.277221,-0.212826,4.04194,0.25448,
2,0,0,1,0,20838.7,0.253294,0.252977,-0.491882,11,0.0188599,10,-0.000124435,-3.30814,-0.257625,-0.229015,4.41302,0.252977,
2,0,0,1,0,20838.7,0.251795,0.251482,-0.499653,11,0.0188214,10,-0.000125654,-3.30133,-0.339827,-0.173618,3.40042,0.251482,
2,0,0,1,0,20838.8,0.250297,0.250024,-0.505674,11,0.0187824,10,-0.00012643,-3.29613,-0.303082,-0.194667,3.84891,0.250024,
2,0,0,1,0,20838.9,0.248799,0.248473,-0.512585,11,0.018743,10,-0.000127364,-3.29023,-0.335718,-0.175743,3.51726,0.248473,
2,0,0,1,0,20839,0.247301,0.246975,-0.518414,11,0.0187032,10,-0.000128036,-3.28532,-0.297217,-0.198508,4.0295,0.246975,
2,0,0,1,0,20839,0.245802,0.245482,-0.524741,11,0.0186629,10,-0.000128814,-3.28006,-0.309996,-0.190325,3.88537,0.245482,
2,0,0,1,0,20839.1,0.244304,0.243959,-0.531508,11,0.018622,10,-0.000129666,-3.27449,-0.304919,-0.193494,4.00383,0.243959,
2,0,0,1,0,20839.2,0.242806,0.242483,-0.536287,11,0.0185807,10,-0.000130041,-3.2706,-0.417618,-0.141277,2.95532,0.242483,
2,0,0,1,0,20839.3,0.241308,0.241,-0.540323,11,0.0185392,10,-0.000130218,-3.26735,-0.396898,-0.148653,3.14579,0.2410001,
2,0,0,1,0,20839.3,0.23981,0.239473,-0.54766,11,0.0184972,10,-0.00013115,-3.26149,-0.277792,-0.212389,4.52241,0.239473,
2,0,0,1,0,20839.4,0.23831,0.238017,-0.55343,11,0.0184546,10,-0.000131726,-3.25694,-0.264919,-0.22271,4.81405,0.238017,
2,0,0,1,0,20839.5,0.236815,0.236461,-0.556972,11,0.0184118,10,-0.000131702,-3.25417,-0.313274,-0.188334,4.10461,0.236461,
2,0,0,1,0,20839.6,0.235315,0.234996,-0.561514,11,0.0183684,10,-0.000131954,-3.25064,-0.334289,-0.176494,3.86856,0.234996,
2,0,0,1,0,20839.6,0.233817,0.23346,-0.571374,11,0.0183247,10,-0.000133393,-3.24308,-0.314391,-0.187665,4.16897,0.23346,
2,0,0,1,0,20839.7,0.232319,0.231991,-0.576744,11,0.0182805,10,-0.000133799,-3.23902,-0.42435,-0.139036,3.11449,0.231991,
2,0,0,1,0,20839.8,0.230821,0.230489,-0.580154,11,0.0182359,10,-0.000133719,-3.23646,-0.500544,-0.117872,2.6642,0.230489,
2,0,0,1,0,20839.9,0.229322,0.228984,-0.582622,11,0.0181909,10,-0.000133411,-3.23461,-0.396413,-0.148835,3.40535,0.228984,
2,0,0,1,0,20839.9,0.227824,0.227493,-0.591057,11,0.0181456,10,-0.000134462,-3.22837,-0.474805,-0.124262,2.87383,0.227493,
2,0,0,1,0,20840,0.226326,0.226036,-0.597291,11,0.0180999,10,-0.000135009,-3.22381,-0.40031,-0.147386,3.42209,0.226036,
2,0,0,1,0,20840.1,0.224828,0.224527,-0.602419,11,0.0180537,10,-0.000135259,-3.2201,-0.639956,-0.0921938,2.16079,0.2245274,
2,0,0,1,0,20840.2,0.22333,0.223018,-0.60576,11,0.0180071,10,-0.000135095,-3.2177,-0.444894,-0.132616,3.13987,0.2230175,
2,0,0,1,0,20840.2,0.22183,0.221514,-0.61188,11,0.0179603,10,-0.00013554,-3.21333,-0.3547,-0.166338,3.97985,0.221514,
2,0,0,1,0,20840.3,0.220335,0.220026,-0.618647,11,0.017913,10,-0.000136118,-3.20856,-0.318453,-0.185271,4.44933,0.220026,
2,0,0,1,0,20840.4,0.218835,0.218504,-0.623351,11,0.0178651,10,-0.000136205,-3.20527,-0.38587,-0.152901,3.71134,0.2185041,
2,0,0,1,0,20840.5,0.217337,0.217002,-0.626629,11,0.017817,10,-0.000135979,-3.20299,-0.596562,-0.0989,2.42253,0.217002,
2,0,0,1,0,20840.5,0.215839,0.215553,-0.630387,11,0.0177686,10,-0.000135882,-3.20039,-0.569865,-0.103533,2.56198,0.215553,
2,0,0,1,0,20840.6,0.21434,0.21404,-0.638554,11,0.0177198,10,-0.000136676,-3.1948,-0.322245,-0.18309,4.55299,0.21404,
2,0,0,1,0,20840.7,0.212842,0.212506,-0.642901,11,0.0176705,10,-0.00013662,-3.19186,-0.405988,-0.145325,3.64534,0.212506,
2,0,0,1,0,20840.8,0.211344,0.211028,-0.648325,11,0.0176208,10,-0.000136814,-3.18821,-0.485216,-0.121595,3.06961,0.211028,
2,0,0,1,0,20840.8,0.209846,0.209528,-0.649922,11,0.0175709,10,-0.000136177,-3.18714,-0.431283,-0.136801,3.48779,0.209528,
2,0,0,1,0,20840.9,0.208348,0.208034,-0.659773,11,0.0175206,10,-0.000137255,-3.18061,-0.358468,-0.164589,4.24712,0.2080337,
2,0,0,1,0,20841,0.20685,0.206573,-0.668766,11,0.0174697,10,-0.000138149,-3.17473,-0.305361,-0.193214,5.00644,0.206573,
2,0,0,1,0,20841.1,0.20535,0.205012,-0.668928,11,0.0174182,10,-0.000137138,-3.17462,-0.537266,-0.109815,2.86305,0.205012,
2,0,0,1,0,20841.1,0.203855,0.203504,-0.674804,11,0.0173666,10,-0.000137325,-3.17082,-0.475044,-0.124199,3.28007,0.203504,
2,0,0,1,0,20841.2,0.202355,0.202031,-0.677694,11,0.0173146,10,-0.000136915,-3.16897,-0.437923,-0.134727,3.57356,0.202031,
2,0,0,1,0,20841.3,0.200857,0.200509,-0.684468,11,0.0172621,10,-0.000137242,-3.16465,-0.387648,-0.1522,4.07222,0.200509,
2,0,0,1,0,20841.4,0.199359,0.199006,-0.69158,11,0.0172092,10,-0.000137628,-3.16016,-0.498192,-0.118428,3.19314,0.199006,
2,0,0,1,0,20841.4,0.19786,0.197542,-0.697261,11,0.0171558,10,-0.000137738,-3.1566,-0.4225,-0.139645,3.8055,0.197542,
2,0,0,1,0,20841.5,0.196362,0.196045,-0.704977,11,0.0171022,10,-0.000138207,-3.15182,-0.422493,-0.139647,3.8352,0.196045,
2,0,0,1,0,20841.6,0.194864,0.1945,-0.710131,11,0.0170479,10,-0.00013812,-3.14866,-0.342609,-0.172208,4.76212,0.1945,
2,0,0,1,0,20841.7,0.193366,0.193034,-0.71842,11,0.0169932,10,-0.00013868,-3.14362,-0.390191,-0.151208,4.21912,0.193034,
2,0,0,1,0,20841.7,0.191866,0.191553,-0.724916,11,0.0169378,10,-0.00013886,-3.13971,-0.388015,-0.152056,4.30087,0.191553,
2,0,0,1,0,20841.8,0.19037,0.190035,-0.727144,11,0.0168824,10,-0.000138183,-3.13838,-0.391031,-0.150883,4.29076,0.190035,
2,0,0,1,0,20841.9,0.188871,0.188524,-0.735465,11,0.0168262,10,-0.000138653,-3.13344,-0.30151,-0.195682,5.59432,0.188524,
2,0,0,1,0,20842,0.187373,0.18707,-0.742531,11,0.0167695,10,-0.000138905,-3.12929,-0.320338,-0.18418,5.33828,0.18707,
2,0,0,1,0,20842,0.185875,0.185563,-0.75061,11,0.0167123,10,-0.000139286,-3.12459,-0.34544,-0.170797,4.99852,0.185563,
2,0,0,1,0,20842.1,0.184377,0.184092,-0.753309,11,0.0166547,10,-0.000138678,-3.12303,-0.372064,-0.158575,4.68372,0.184092,
2,0,0,1,0,20842.2,0.182878,0.182533,-0.764519,11,0.0165966,10,-0.00013955,-3.11661,-0.316393,-0.186477,5.55469,0.182533,
2,0,0,1,0,20842.3,0.18138,0.181045,-0.772743,11,0.0165377,10,-0.000139902,-3.11196,-0.364736,-0.161761,4.8705,0.181045,
2,0,0,1,0,20842.3,0.179882,0.179558,-0.780693,11,0.0164783,10,-0.00014018,-3.10752,-0.371874,-0.158656,4.83026,0.179558,
2,0,0,1,0,20842.4,0.178384,0.178088,-0.789078,11,0.0164182,10,-0.000140525,-3.10288,-0.308368,-0.19133,5.89429,0.178088,
2,0,0,1,0,20842.5,0.176886,0.176567,-0.797401,11,0.0163576,10,-0.000140795,-3.09832,-0.307594,-0.191811,5.97338,0.176567,
2,0,0,1,0,20842.6,0.175386,0.175053,-0.807122,11,0.0162962,10,-0.000141289,-3.09306,-0.249418,-0.236551,7.4441,0.175053,
2,0,0,1,0,20842.6,0.173891,0.173555,-0.819151,11,0.0162342,10,-0.000142168,-3.08664,-0.254659,-0.231683,7.38055,0.173555,
2,0,0,1,0,20842.7,0.172391,0.17207,-0.828041,11,0.0161712,10,-0.000142481,-3.08195,-0.247937,-0.237964,7.68083,0.17207,
2,0,0,1,0,20842.8,0.170893,0.17057,-0.83803,11,0.0161076,10,-0.000142942,-3.07674,-0.233557,-0.252615,8.2589,0.17057,
2,0,0,1,0,20842.9,0.169395,0.169029,-0.849407,11,0.0160431,10,-0.000143574,-3.07088,-0.184419,-0.319923,10.5916,0.169029,
2,0,0,1,0,20842.9,0.167897,0.16762,-0.864881,11,0.0159775,10,-0.000144971,-3.06304,-0.222145,-0.265592,8.9541,0.16762,
2,0,0,1,0,20843,0.166398,0.166072,-0.878287,11,0.015911,10,-0.000145859,-3.05636,-0.256883,-0.229676,7.87076,0.1660717,
2,0,0,1,0,20843.1,0.1649,0.164592,-0.88644,11,0.0158436,10,-0.000145901,-3.05235,-0.240784,-0.245033,8.5251,0.164592,
2,0,0,1,0,20843.2,0.163402,0.163071,-0.905322,11,0.0157752,10,-0.000147632,-3.0432,-0.187717,-0.314304,11.1034,0.163071,
2,0,0,1,0,20843.2,0.161904,0.161564,-0.923396,11,0.0157054,10,-0.000149188,-3.03461,-0.17389,-0.339296,12.2372,0.161564,
2,0,0,1,0,20843.3,0.160406,0.160127,-0.941187,11,0.0156344,10,-0.00015071,-3.02632,-0.172727,-0.341579,12.5434,0.160127,
2,0,0,1,0,20843.4,0.158906,0.158601,-0.957334,11,0.0155617,10,-0.000151835,-3.01894,-0.154209,-0.382598,14.3547,0.158601,
2,0,0,1,0,20843.5,0.157411,0.157099,-0.984928,11,0.0154878,10,-0.000154732,-3.0066,-0.135349,-0.435909,16.7953,0.157099,
2,0,0,1,0,20843.5,0.155911,0.155573,-1.00942,11,0.0154118,10,-0.000157038,-2.99593,-0.134084,-0.440023,17.3594,0.155573,
2,0,0,1,0,20843.6,0.154413,0.154019,-1.03534,11,0.0153338,10,-0.000159462,-2.98492,-0.128499,-0.459148,18.5643,0.154019,
2,0,0,1,0,20843.7,0.152915,0.152577,-1.06458,11,0.0152538,10,-0.000162431,-2.97282,-0.120393,-0.490063,20.4319,0.1525767,
2,0,0,1,0,20843.8,0.151417,0.15106,-1.09874,11,0.0151716,10,-0.000165976,-2.95911,-0.107967,-0.546464,23.4864,0.15106,
2,0,0,1,0,20843.8,0.149918,0.14961,-1.13663,11,0.0150866,10,-0.000170052,-2.94438,-0.0980209,-0.601912,26.7113,0.14961,
2,0,0,1,0,20843.9,0.14842,0.148102,-1.17861,11,0.0149987,10,-0.000174553,-2.92863,-0.0928512,-0.635426,29.298,0.148102,
2,0,0,1,0,20844,0.146922,0.146581,-1.22408,11,0.0149074,10,-0.000179427,-2.91219,-0.0883613,-0.667713,31.9347,0.146581,
2,0,0,1,0,20844.1,0.145424,0.145107,-1.27192,11,0.0148126,10,-0.000184564,-2.89554,-0.0821977,-0.717781,35.7834,0.145107,
2,0,0,1,0,20844.1,0.143926,0.143561,-1.33212,11,0.0147138,10,-0.000191239,-2.87546,-0.0758236,-0.778122,40.476,0.143561,
2,0,0,1,0,20844.2,0.142426,0.142113,-1.39496,11,0.0146104,10,-0.000198241,-2.85544,-0.0772496,-0.763758,41.5623,0.142113,
2,0,0,1,0,20844.3,0.140931,0.140607,-1.45687,11,0.0145025,10,-0.000204847,-2.83658,-0.0777336,-0.759002,43.1704,0.140607,
2,0,0,1,0,20844.3,0.139431,0.139123,-1.52014,11,0.0143893,10,-0.000211487,-2.81812,-0.0752213,-0.784353,46.7053,0.139123,
2,0,0,1,0,20844.4,0.137933,0.137599,-1.59555,11,0.0142713,10,-0.000219546,-2.79709,-0.076598,-0.770255,48.0117,0.137599,
2,0,0,1,0,20844.5,0.136435,0.136146,-1.67061,11,0.0141476,10,-0.000227447,-2.77712,-0.0780096,-0.756317,49.2845,0.136146,
2,0,0,1,0,20844.6,0.134936,0.134648,-1.7439,11,0.0140182,10,-0.000234813,-2.75848,-0.0825199,-0.714979,48.5608,0.134648,
2,0,0,1,0,20844.6,0.133438,0.133076,-1.81291,11,0.0138834,10,-0.000241254,-2.74162,-0.0889447,-0.663334,46.9887,0.133076,
2,0,0,1,0,20844.7,0.13194,0.131604,-1.8873,11,0.0137434,10,-0.000248377,-2.72416,-0.0931229,-0.633571,46.7189,0.131604,
2,0,0,1,0,20844.8,0.130442,0.130126,-1.9601,11,0.013598,10,-0.00025506,-2.70772,-0.0983292,-0.600025,45.7129,0.130126,
2,0,0,1,0,20844.9,0.128942,0.128603,-2.02614,11,0.0134473,10,-0.000260567,-2.69333,-0.1135,-0.519824,40.899,0.128603,
2,0,0,1,0,20844.9,0.127446,0.127134,-2.08325,11,0.0132923,10,-0.000264851,-2.68126,-0.123985,-0.475865,38.5405,0.127134,
2,0,0,1,0,20845,0.125947,0.125629,-2.13762,11,0.0131328,10,-0.000268547,-2.67007,-0.137561,-0.428901,35.71,0.125629,
2,0,0,1,0,20845.1,0.124449,0.124111,-2.1848,11,0.0129695,10,-0.000271159,-2.66059,-0.148727,-0.3967,33.7694,0.124111,
2,0,0,1,0,20845.2,0.122951,0.122651,-2.23278,11,0.0128025,10,-0.000273852,-2.65115,-0.17873,-0.330106,28.7037,0.122651,
2,0,0,1,0,20845.2,0.121453,0.121164,-2.27316,11,0.0126322,10,-0.000275425,-2.64337,-0.21842,-0.270121,23.9059,0.121164,
2,0,0,1,0,20845.3,0.119955,0.119629,-2.30454,11,0.0124594,10,-0.00027569,-2.63742,-0.263129,-0.224225,20.1628,0.1196291,
2,0,0,1,0,20845.4,0.118456,0.118137,-2.33179,11,0.0122843,10,-0.00027547,-2.63231,-0.29904,-0.197298,17.9342,0.118137,
2,0,0,1,0,20845.5,0.116958,0.116631,-2.35739,11,0.0121071,10,-0.000274944,-2.62757,-0.412947,-0.142875,13.1221,0.116631,
2,0,0,1,0,20845.5,0.11546,0.11511,-2.374,11,0.0119285,10,-0.00027327,-2.62452,-0.67629,-0.0872407,8.06724,0.11511,
2,0,0,1,0,20845.6,0.113962,0.113607,-2.38243,11,0.0117489,10,-0.00027066,-2.62298,-0.997132,-0.0591697,5.50117,0.113607,
2,0,0,1,0,20845.7,0.112462,0.11214,-2.39343,11,0.0115686,10,-0.000268398,-2.62098,-1.9252,-0.0306462,2.85723,0.11214,
2,0,0,1,0,20845.8,0.110967,0.110606,-2.39117,11,0.0113883,10,-0.000264478,-2.62139,53.4977,0.00110285,-0.102794,0.110606,
2,0,0,1,0,20845.8,0.109467,0.109138,-2.38893,11,0.0112075,10,-0.000260723,-2.6218,1.36243,0.0433049,-4.03142,0.109138,
2,0,0,1,0,20845.9,0.107969,0.107606,-2.38361,11,0.0110272,10,-0.000256491,-2.62276,1.05645,0.0558474,-5.19629,0.107606,
2,0,0,1,0,20846,0.106471,0.106152,-2.37396,11,0.0108478,10,-0.000252,-2.62453,0.810796,0.072768,-6.74773,0.106152,
2,0,0,1,0,20846.1,0.104973,0.104665,-2.36164,11,0.0106691,10,-0.000247182,-2.62679,0.683697,0.0862956,-7.95289,0.104665,
2,0,0,1,0,20846.1,0.103474,0.103156,-2.35333,11,0.0104912,10,-0.000242761,-2.62832,0.484587,0.121753,-11.1507,0.103156,
2,0,0,1,0,20846.2,0.101976,0.101682,-2.33735,11,0.0103143,10,-0.000237667,-2.63128,0.415836,0.141883,-12.9103,0.101682,
2,0,0,1,0,20846.3,0.100478,0.100168,-2.31251,11,0.0101392,10,-0.00023164,-2.63592,0.37476,0.157434,-14.2201,0.100168,
2,0,0,1,0,20846.4,0.0989798,0.0986523,-2.29286,11,0.00996542,10,-0.000226195,-2.63962,0.443741,0.13296,-11.881,0.0986523,
2,0,0,1,0,20846.4,0.0974817,0.0971712,-2.27442,11,0.0097931,10,-0.000221008,-2.64313,0.397998,0.148242,-13.1485,0.0971712,
2,0,0,1,0,20846.5,0.0959821,0.0956236,-2.25325,11,0.00962213,10,-0.000215463,-2.64719,0.359324,0.164197,-14.4214,0.09562356,
2,0,0,1,0,20846.6,0.0944866,0.0941522,-2.22605,11,0.00945324,10,-0.000209588,-2.65246,0.418455,0.140995,-12.2859,0.0941522,
2,0,0,1,0,20846.7,0.0929871,0.0926765,-2.20835,11,0.00928561,10,-0.000204662,-2.65593,0.409999,0.143903,-12.4116,0.0926765,
2,0,0,1,0,20846.7,0.0914889,0.0911803,-2.19217,11,0.00911944,10,-0.000199883,-2.65913,0.435019,0.135626,-11.5892,0.0911803,
2,0,0,1,0,20846.8,0.0899907,0.0896586,-2.17376,11,0.00895469,10,-0.000194897,-2.66279,0.376066,0.156887,-13.2817,0.0896586,
2,0,0,1,0,20846.9,0.0884925,0.088157,-2.14935,11,0.00879144,10,-0.00018948,-2.66769,0.40296,0.146417,-12.3067,0.088157,
2,0,0,1,0,20847,0.0869943,0.086702,-2.1336,11,0.00862975,10,-0.000184987,-2.67089,0.434346,0.135836,-11.3335,0.086702,
2,0,0,1,0,20847,0.0854961,0.0851856,-2.11996,11,0.00846912,10,-0.00018059,-2.67367,0.495855,0.118986,-9.84293,0.08518561,
2,0,0,1,0,20847.1,0.083998,0.0837057,-2.10506,11,0.0083096,10,-0.000176206,-2.67674,0.45371,0.130039,-10.675,0.0837057,
2,0,0,1,0,20847.2,0.0824998,0.082187,-2.08915,11,0.00815122,10,-0.000171701,-2.68003,0.48082,0.122707,-10.0126,0.082187,
2,0,0,1,0,20847.3,0.081002,0.0806982,-2.07622,11,0.0079941,10,-0.000167548,-2.68273,0.54332,0.108592,-8.80447,0.0806982,
2,0,0,1,0,20847.3,0.0795025,0.0791906,-2.06483,11,0.00783754,10,-0.000163515,-2.68512,0.657642,0.0897145,-7.22174,0.07919056,
2,0,0,1,0,20847.4,0.078007,0.0776674,-2.05205,11,0.00768226,10,-0.000159377,-2.68781,0.560674,0.105231,-8.42789,0.0776674,
2,0,0,1,0,20847.5,0.076507,0.0761524,-2.04055,11,0.00752748,10,-0.000155393,-2.69025,0.491947,0.119932,-9.54199,0.0761524,
2,0,0,1,0,20847.6,0.0750088,0.0747176,-2.02346,11,0.00737401,10,-0.000151188,-2.6939,0.593444,0.0994197,-7.86631,0.0747176,
2,0,0,1,0,20847.6,0.0735106,0.0731614,-2.01409,11,0.00722139,10,-0.000147354,-2.69592,0.714335,0.0825943,-6.49359,0.0731614,
2,0,0,1,0,20847.7,0.0720124,0.0717055,-2.00436,11,0.00706953,10,-0.000143724,-2.69802,0.652589,0.0904091,-7.0739,0.0717055,
2,0,0,1,0,20847.8,0.0705142,0.0701723,-1.99547,11,0.00691852,10,-0.000140027,-2.69995,0.517134,0.11409,-8.86572,0.0701723,
2,0,0,1,0,20847.9,0.0690161,0.0687128,-1.97669,11,0.00676849,10,-0.000135824,-2.70406,0.544766,0.108303,-8.37682,0.0687128,
2,0,0,1,0,20847.9,0.0675179,0.0672175,-1.96879,11,0.0066194,10,-0.000132337,-2.7058,0.725576,0.0813147,-6.25481,0.0672175,
2,0,0,1,0,20848,0.0660179,0.065694,-1.96384,11,0.00647071,10,-0.000129013,-2.70689,0.645904,0.0913448,-6.98047,0.06569396,
2,0,0,1,0,20848.1,0.0645224,0.0642148,-1.9503,11,0.00632318,10,-0.000125238,-2.7099,0.507464,0.116265,-8.83391,0.0642148,
2,0,0,1,0,20848.2,0.0630229,0.0627131,-1.93437,11,0.00617617,10,-0.00012131,-2.71346,0.583937,0.101038,-7.63278,0.0627131,
2,0,0,1,0,20848.2,0.0615251,0.0612113,-1.92428,11,0.00603034,10,-0.000117788,-2.71573,0.607398,0.0971357,-7.30537,0.06121134,
2,0,0,1,0,20848.3,0.0600269,0.0596929,-1.91424,11,0.00588533,10,-0.000114267,-2.718,0.593332,0.0994384,-7.43046,0.0596929,
2,0,0,1,0,20848.4,0.0585287,0.0581836,-1.89995,11,0.00574107,10,-0.000110546,-2.72126,0.500602,0.117858,-8.74103,0.0581836,
2,0,0,1,0,20848.5,0.0570305,0.0567194,-1.89089,11,0.00559768,10,-0.00010725,-2.72333,0.589713,0.100049,-7.38012,0.0567194,
2,0,0,1,0,20848.5,0.0555323,0.055211,-1.87869,11,0.00545535,10,-0.000103724,-2.72615,0.534555,0.110372,-8.09912,0.055211,
2,0,0,1,0,20848.6,0.0540342,0.0537449,-1.87014,11,0.00531376,10,-0.000100511,-2.72813,0.58409,0.101012,-7.36119,0.0537449,
2,0,0,1,0,20848.7,0.052536,0.0522101,-1.85865,11,0.00517291,10,-9.704e-05,-2.7308,0.527428,0.111864,-8.10578,0.0522101,
2,0,0,1,0,20848.8,0.0510378,0.0507216,-1.84627,11,0.00503297,10,-9.36455e-05,-2.73371,0.466299,0.126528,-9.10739,0.0507216,
2,0,0,1,0,20848.8,0.0495382,0.0491952,-1.82947,11,0.00489392,10,-9.00012e-05,-2.73767,0.553801,0.106537,-7.60806,0.0491952,
2,0,0,1,0,20848.9,0.0480427,0.047713,-1.81944,11,0.00475613,10,-8.6811e-05,-2.74006,0.56796,0.10388,-7.37531,0.047713,
2,0,0,1,0,20849,0.0465432,0.0462432,-1.80454,11,0.00461885,10,-8.34479e-05,-2.74363,0.518159,0.113865,-8.02855,0.0462432,
2,0,0,1,0,20849.1,0.045045,0.0447416,-1.79195,11,0.00448264,10,-8.01748e-05,-2.74667,0.418281,0.141053,-9.86396,0.0447416,
2,0,0,1,0,20849.1,0.0435468,0.0432374,-1.77665,11,0.0043475,10,-7.68176e-05,-2.7504,0.437221,0.134943,-9.37409,0.0432374,
2,0,0,1,0,20849.2,0.0420486,0.0417538,-1.76509,11,0.00421357,10,-7.36991e-05,-2.75323,0.454987,0.129674,-8.9517,0.0417538,
2,0,0,1,0,20849.3,0.0405504,0.0402023,-1.75581,11,0.00408046,10,-7.05878e-05,-2.75552,0.485781,0.121454,-8.29899,0.0402023,
2,0,0,1,0,20849.4,0.0390523,0.0387328,-1.74012,11,0.00394821,10,-6.73997e-05,-2.75942,0.401769,0.14685,-9.95274,0.0387328,
2,0,0,1,0,20849.4,0.0375541,0.0372312,-1.72378,11,0.00381713,10,-6.41782e-05,-2.76352,0.37569,0.157045,-10.5802,0.0372312,
2,0,0,1,0,20849.5,0.0360559,0.0357424,-1.70999,11,0.0036873,10,-6.1119e-05,-2.76701,0.382582,0.154215,-10.309,0.0357424,
2,0,0,1,0,20849.6,0.0345577,0.0342344,-1.69793,11,0.00355841,10,-5.81274e-05,-2.77008,0.416267,0.141736,-9.38558,0.0342344,
2,0,0,1,0,20849.7,0.0330582,0.0327059,-1.68143,11,0.00343031,10,-5.49928e-05,-2.77432,0.368978,0.159901,-10.4905,0.0327059,
2,0,0,1,0,20849.7,0.0315626,0.0312408,-1.66903,11,0.00330365,10,-5.21416e-05,-2.77754,0.373661,0.157897,-10.285,0.0312408,
2,0,0,1,0,20849.8,0.0300631,0.0297712,-1.65417,11,0.00317795,10,-4.92465e-05,-2.78142,0.404067,0.146015,-9.42847,0.0297712,
2,0,0,1,0,20849.9,0.0285649,0.0282229,-1.64097,11,0.00305333,10,-4.6313e-05,-2.7849,0.477381,0.123591,-7.90506,0.0282229,
2,0,0,1,0,20850,0.0270667,0.0267805,-1.627,11,0.00292958,10,-4.3572e-05,-2.78861,0.439041,0.134384,-8.5277,0.0267805,
2,0,0,1,0,20850,0.0255685,0.0252361,-1.61464,11,0.00280688,10,-4.07472e-05,-2.79192,0.373146,0.158115,-9.96645,0.0252361,
2,0,0,1,0,20850.1,0.0240704,0.0237205,-1.59614,11,0.00268538,10,-3.78612e-05,-2.79693,0.419579,0.140617,-8.78721,0.02372052,
2,0,0,1,0,20850.2,0.0225722,0.022267,-1.58829,11,0.00256478,10,-3.53664e-05,-2.79907,0.489632,0.120499,-7.46195,0.022267,
2,0,0,1,0,20850.3,0.021074,0.0207994,-1.57583,11,0.00244499,10,-3.27762e-05,-2.80249,0.4784,0.123328,-7.58447,0.0207994,
2,0,0,1,0,20850.3,0.0195758,0.0193051,-1.56377,11,0.00232611,10,-3.01886e-05,-2.80583,0.413139,0.142809,-8.71842,0.0193051,
2,0,0,1,0,20850.4,0.018078,0.0177223,-1.5483,11,0.00220817,10,-2.74395e-05,-2.81014,0.448784,0.131466,-7.97056,0.0177223,
2,0,0,1,0,20850.5,0.0165785,0.0162715,-1.54164,11,0.00209099,10,-2.50849e-05,-2.81202,0.562683,0.104855,-6.31465,0.0162715,
2,0,0,1,0,20850.6,0.015083,0.0147378,-1.53527,11,0.0019747,10,-2.26265e-05,-2.81382,0.663132,0.0889717,-5.32264,0.0147378,
2,0,0,1,0,20850.6,0.013583,0.0132735,-1.52307,11,0.00185868,10,-2.02166e-05,-2.81728,0.468517,0.125929,-7.47636,0.0132735,
2,0,0,1,0,20850.7,0.0120848,0.0117611,-1.51326,11,0.00174359,10,-1.77976e-05,-2.82009,0.59206,0.0996521,-5.89885,0.0117611,
2,0,0,1,0,20850.8,0.0105866,0.0102284,-1.50658,11,0.00162934,10,-1.54099e-05,-2.82201,0.688159,0.0857361,-5.04976,0.0102284,
2,0,0,1,0,20850.9,0.00908846,0.00877198,-1.49881,11,0.00151547,10,-1.31475e-05,-2.82425,0.922792,0.0639364,-3.74073,0.00877198,
2,0,0,1,0,20850.9,0.00759027,0.00727569,-1.4948,11,0.00140203,10,-1.08757e-05,-2.82542,1.02301,0.0576727,-3.36309,0.00727569,
2,0,0,1,0,20851,0.00609208,0.00575069,-1.49107,11,0.00128912,10,-8.57466e-06,-2.8265,0.859563,0.0686395,-3.98596,0.00575069,
2,0,0,1,0,20851.1,0.00459389,0.00429824,-1.48217,11,0.00117666,10,-6.37073e-06,-2.8291,1.14719,0.0514299,-2.97731,0.00429824,
2,0,0,1,0,20851.2,0.00309391,0.00276946,-1.48069,11,0.00106425,10,-4.10072e-06,-2.82954,-2.13826,-0.0275925,1.5995,0.00276946,
2,0,0,1,0,20851.2,0.0015984,0.00125858,-1.49258,11,0.000951325,10,-1.87853e-06,-2.82606, , , ,0.001258583,
2,0,0,1,0,20851.3,0.000199195,-0.000180321,-1.47847,11,0.000846026,10,2.666e-07,-2.83019, , , ,-0.000180321,