File: Figure_codes/Fig_3-5/rawdata_trumpetplot_data/after 10th/20221101_1-115_003_TrumpetPlot_ParaChange_from10_every3_10_CV_C01_9.csv
mode,ox/red,error,control changes,counter inc.,time/s,control/V,Ewe/V,<I>/mA,cycle number,(Q-Qo)/C,I Range,P/W,log(|I|),Tafel slope mV/dec,alpha_eff,dI/d(E-IR),E-IR/V,
2,1,0,0,0,18921.7,-2.44065e-05,-0.000478022,5.29606,10,0.0000000E+000,10,-2.53164e-06,-2.27605, , , ,-0.000478022,
2,1,0,1,0,18921.7,0.00179726,0.00142594,6.18475,10,5.10608e-05,10,8.81907e-06,-2.20868, , , ,0.001425938,
2,1,0,1,0,18921.7,0.00379485,0.00345953,6.89709,10,0.000116852,10,2.38607e-05,-2.16133,0.0520391,1.13376,299.746,0.00345953,
2,1,0,1,0,18921.7,0.00579244,0.0054812,7.4003,10,0.00018849,10,4.05625e-05,-2.13075,0.0731993,0.806018,231.214,0.005481197,
2,1,0,1,0,18921.7,0.00779002,0.00746389,7.82295,10,0.00026476,10,5.83897e-05,-2.10663,0.0903104,0.653303,198.613,0.00746389,
2,1,0,1,0,18921.7,0.00977853,0.00947168,8.19286,10,0.000344134,10,7.76001e-05,-2.08656,0.112994,0.522153,166.078,0.00947168,
2,1,0,1,0,18921.8,0.0117761,0.011455,8.48579,10,0.00042765,10,9.72049e-05,-2.07131,0.138224,0.426843,141.113,0.011455,
2,1,0,1,0,18921.8,0.0137737,0.0134583,8.75543,10,0.000513888,10,0.000117833,-2.05772,0.159519,0.369862,126.075,0.0134583,
2,1,0,1,0,18921.8,0.0157713,0.0154347,8.98754,10,0.000602674,10,0.00013872,-2.04636,0.181628,0.32484,113.872,0.0154347,
2,1,0,1,0,18921.8,0.017778,0.0174753,9.21285,10,0.000693731,10,0.000160998,-2.03561,0.211549,0.278895,99.9629,0.0174753,
2,1,0,1,0,18921.8,0.0197755,0.0193953,9.38345,10,0.000786744,10,0.000181995,-2.02764,0.240997,0.244816,89.7177,0.0193953,
2,1,0,1,0,18921.8,0.0217731,0.0214542,9.56982,10,0.000881534,10,0.000205313,-2.0191,0.262915,0.224407,83.6553,0.0214542,
2,1,0,1,0,18921.8,0.0237707,0.0234479,9.72247,10,0.000978029,10,0.000227972,-2.01222,0.283399,0.208187,79.022,0.0234479,
2,1,0,1,0,18921.8,0.0257774,0.0254261,9.88369,10,0.00107611,10,0.000251303,-2.00508,0.298271,0.197807,76.2203,0.0254261,
2,1,0,1,0,18921.8,0.027775,0.0274285,10.0259,10,0.00117569,10,0.000274995,-1.99888,0.314056,0.187864,73.5479,0.0274285,
2,1,0,1,0,18921.8,0.0297726,0.029463,10.1806,10,0.00127674,10,0.000299951,-1.99223,0.340106,0.173475,68.8049,0.029463,
2,1,0,1,0,18921.9,0.0317701,0.0314299,10.3012,10,0.00137921,10,0.000323765,-1.98711,0.341675,0.172679,69.5298,0.0314299,
2,1,0,1,0,18921.9,0.0337586,0.0334139,10.4553,10,0.00148197,10,0.000349352,-1.98066,0.338211,0.174448,71.0977,0.0334139,
2,1,0,1,0,18921.9,0.0357562,0.0354387,10.5862,10,0.00158722,10,0.000375162,-1.97526,0.361795,0.163076,67.387,0.0354387,
2,1,0,1,0,18921.9,0.0377538,0.0373753,10.7223,10,0.00169377,10,0.000400747,-1.96971,0.367792,0.160417,67.1098,0.0373753,
2,1,0,1,0,18921.9,0.0397514,0.0394256,10.8538,10,0.00180168,10,0.000427916,-1.96442,0.34625,0.170397,72.2615,0.0394256,
2,1,0,1,0,18921.9,0.0417399,0.0413796,11.0116,10,0.00190988,10,0.000455656,-1.95815,0.352544,0.167355,71.8207,0.0413796,
2,1,0,1,0,18921.9,0.0437375,0.0434124,11.1401,10,0.00202068,10,0.000483618,-1.95311,0.381622,0.154603,67.2441,0.0434124,
2,1,0,1,0,18921.9,0.0457351,0.0453567,11.279,10,0.00213273,10,0.00051158,-1.94773,0.376644,0.156646,68.9425,0.0453567,
2,1,0,1,0,18921.9,0.0477327,0.0474069,11.4155,10,0.00224623,10,0.000541172,-1.94251,0.359558,0.16409,73.1779,0.0474069,
2,1,0,1,0,18921.9,0.0497393,0.0494188,11.5763,10,0.00236116,10,0.000572087,-1.93643,0.371467,0.15883,71.6429,0.0494188,
2,1,0,1,0,18922,0.0517369,0.0513978,11.7014,10,0.00247758,10,0.000601427,-1.93176,0.374106,0.157709,72.1264,0.0513978,
2,1,0,1,0,18922,0.0537345,0.0533794,11.862,10,0.00259538,10,0.000633185,-1.92584,0.368487,0.160114,74.0397,0.0533794,
2,1,0,1,0,18922,0.0557321,0.0553932,11.9972,10,0.00271474,10,0.000664564,-1.92092,0.384547,0.153427,71.8834,0.0553932,
2,1,0,1,0,18922,0.0577297,0.0573748,12.1492,10,0.00283547,10,0.000697055,-1.91545,0.361066,0.163405,77.4879,0.0573748,
2,1,0,1,0,18922,0.0597364,0.0593737,12.3057,10,0.00295785,10,0.000730634,-1.90989,0.370116,0.159409,76.5351,0.0593737,
2,1,0,1,0,18922,0.0617339,0.0613909,12.4565,10,0.00308167,10,0.000764718,-1.9046,0.401677,0.146884,71.3629,0.0613909,
2,1,0,1,0,18922,0.0637315,0.0634055,12.5934,10,0.00320701,10,0.00079849,-1.89986,0.391239,0.150803,74.1891,0.0634055,
2,1,0,1,0,18922,0.0657291,0.0654279,12.756,10,0.00333376,10,0.000834601,-1.89428,0.370266,0.159345,79.287,0.0654279,
2,1,0,1,0,18922,0.0677176,0.0673647,12.9073,10,0.00346086,10,0.000869496,-1.88916,0.403257,0.146309,73.6676,0.0673647,
2,1,0,1,0,18922,0.0697152,0.0693943,13.0482,10,0.00359066,10,0.000905473,-1.88445,0.428283,0.137759,70.1413,0.0693943,
2,1,0,1,0,18922.1,0.0717128,0.0713436,13.1864,10,0.00372187,10,0.000940764,-1.87987,0.408727,0.144351,74.334,0.0713436,
2,1,0,1,0,18922.1,0.0737104,0.0733541,13.3426,10,0.00385447,10,0.000978733,-1.87476,0.402599,0.146548,76.2936,0.07335411,
2,1,0,1,0,18922.1,0.0756989,0.0753776,13.4942,10,0.00398738,10,0.00101716,-1.86985,0.402577,0.146556,77.1903,0.0753776,
2,1,0,1,0,18922.1,0.0776965,0.0773366,13.65,10,0.00412305,10,0.00105564,-1.86487,0.433968,0.135955,72.3643,0.0773366,
2,1,0,1,0,18922.1,0.0796941,0.0793807,13.7838,10,0.00426025,10,0.00109417,-1.86063,0.456761,0.12917,69.5169,0.0793807,
2,1,0,1,0,18922.1,0.0816916,0.0813779,13.9309,10,0.00439881,10,0.00113367,-1.85602,0.453704,0.130041,70.6654,0.0813779,
2,1,0,1,0,18922.1,0.0836983,0.0833604,14.0651,10,0.00453882,10,0.00117247,-1.85186,0.461147,0.127942,70.2587,0.0833604,
2,1,0,1,0,18922.1,0.0856959,0.0853776,14.2119,10,0.00468017,10,0.00121338,-1.84735,0.499195,0.11819,65.4802,0.0853776,
2,1,0,1,0,18922.1,0.0876935,0.0873705,14.3276,10,0.0048229,10,0.00125181,-1.84383,0.531083,0.111094,62.1567,0.0873705,
2,1,0,1,0,18922.1,0.0896911,0.0893877,14.4612,10,0.00496684,10,0.00129265,-1.8398,0.508195,0.116097,65.5125,0.0893877,
2,1,0,1,0,18922.2,0.0916978,0.0913936,14.5912,10,0.00511215,10,0.00133354,-1.83591,0.507567,0.116241,66.206,0.0913936,
2,1,0,1,0,18922.2,0.0936953,0.0934125,14.7277,10,0.00525879,10,0.00137575,-1.83187,0.541571,0.108942,62.5599,0.0934125,
2,1,0,1,0,18922.2,0.0956929,0.095336,14.8378,10,0.00540669,10,0.00141458,-1.82863,0.54108,0.109041,63.203,0.095336,
2,1,0,1,0,18922.2,0.0976905,0.0973566,14.9769,10,0.00555574,10,0.0014581,-1.82458,0.508191,0.116098,67.8506,0.0973566,
2,1,0,1,0,18922.2,0.099679,0.0993892,15.1129,10,0.00570466,10,0.00150205,-1.82065,0.53593,0.110089,64.9025,0.09938921,
2,1,0,1,0,18922.2,0.101677,0.10135,15.2361,10,0.0058564,10,0.00154417,-1.81713,0.53703,0.109864,65.3478,0.10135,
2,1,0,1,0,18922.2,0.103674,0.103323,15.3699,10,0.00600945,10,0.00158806,-1.81333,0.483644,0.121991,73.2329,0.103323,
2,1,0,1,0,18922.2,0.105672,0.10535,15.5291,10,0.00616392,10,0.00163599,-1.80885,0.470433,0.125416,75.9746,0.10535,
2,1,0,1,0,18922.2,0.107656,0.107343,15.6753,10,0.00631839,10,0.00168263,-1.80478,0.452478,0.130393,79.833,0.107343,
2,1,0,1,0,18922.2,0.109658,0.109342,15.8477,10,0.00647598,10,0.00173282,-1.80003,0.43352,0.136095,84.1514,0.109342,
2,1,0,1,0,18922.3,0.111655,0.111357,16.0131,10,0.00663533,10,0.00178318,-1.79552,0.403158,0.146345,91.5486,0.111357,
2,1,0,1,0,18922.3,0.113653,0.113321,16.212,10,0.00679645,10,0.00183715,-1.79016,0.383114,0.154001,97.3988,0.113321,
2,1,0,1,0,18922.3,0.115651,0.115326,16.3997,10,0.00695953,10,0.0018913,-1.78517,0.358287,0.164672,105.546,0.115326,
2,1,0,1,0,18922.3,0.117657,0.117339,16.6362,10,0.00712473,10,0.00195207,-1.77895,0.346777,0.170138,110.353,0.117339,
2,1,0,1,0,18922.3,0.119655,0.119327,16.8412,10,0.0072922,10,0.00200961,-1.77363,0.355418,0.166002,109.185,0.119327,
2,1,0,1,0,18922.3,0.121652,0.121336,17.0726,10,0.00746177,10,0.00207152,-1.7677,0.340599,0.173224,115.405,0.121336,
2,1,0,1,0,18922.3,0.12365,0.123323,17.3024,10,0.00763371,10,0.00213379,-1.76189,0.332923,0.177218,119.744,0.123323,
2,1,0,1,0,18922.3,0.125657,0.125377,17.5564,10,0.00780806,10,0.00220116,-1.75556,0.333461,0.176932,121.134,0.125377,
2,1,0,1,0,18922.3,0.127654,0.127307,17.785,10,0.00798481,10,0.00226416,-1.74995,0.350026,0.168559,117.001,0.127307,
2,1,0,1,0,18922.3,0.129652,0.129317,18.0175,10,0.00816382,10,0.00232997,-1.74431,0.352807,0.16723,117.596,0.129317,
2,1,0,1,0,18922.4,0.131649,0.131293,18.2537,10,0.00834526,10,0.00239659,-1.73865,0.361708,0.163115,116.17,0.131293,
2,1,0,1,0,18922.4,0.133638,0.133318,18.4822,10,0.00852715,10,0.00246403,-1.73325,0.393361,0.149989,108.12,0.133318,
2,1,0,1,0,18922.4,0.135636,0.135321,18.6892,10,0.00871306,10,0.00252905,-1.72841,0.40151,0.146945,107.216,0.135321,
2,1,0,1,0,18922.4,0.137633,0.137313,18.9105,10,0.00890105,10,0.00259664,-1.7233,0.423648,0.139266,102.683,0.137313,
2,1,0,1,0,18922.4,0.139631,0.139293,19.0971,10,0.00909116,10,0.00266008,-1.71903,0.454661,0.129767,96.7365,0.139293,
2,1,0,1,0,18922.4,0.141619,0.14127,19.2933,10,0.00928116,10,0.00272558,-1.71459,0.473636,0.124568,93.7494,0.14127,
2,1,0,1,0,18922.4,0.143617,0.143295,19.4722,10,0.00947504,10,0.00279027,-1.71058,0.510171,0.115648,87.8687,0.143295,
2,1,0,1,0,18922.4,0.145614,0.145271,19.6449,10,0.00967061,10,0.00285383,-1.70675,0.580164,0.101695,77.8963,0.145271,
2,1,0,1,0,18922.4,0.147612,0.147277,19.7824,10,0.00986777,10,0.0029135,-1.70372,0.619576,0.0952264,73.5515,0.147277,
2,1,0,1,0,18922.4,0.149619,0.149258,19.9381,10,0.0100664,10,0.00297591,-1.70032,0.683233,0.0863541,67.1212,0.149258,
2,1,0,1,0,18922.5,0.151616,0.15128,20.0511,10,0.0102664,10,0.00303334,-1.69786,0.898316,0.0656784,51.3702,0.15128,
2,1,0,1,0,18922.5,0.153614,0.153281,20.1448,10,0.0104674,10,0.0030878,-1.69584,1.11835,0.0527565,41.4524,0.153281,
2,1,0,1,0,18922.5,0.155611,0.15524,20.2153,10,0.0106693,10,0.00313821,-1.69432,1.60071,0.0368587,29.0619,0.15524,
2,1,0,1,0,18922.5,0.157618,0.157305,20.2617,10,0.0108717,10,0.00318726,-1.69332,19.9889,0.00295164,2.3292,0.157305,
2,1,0,1,0,18922.5,0.159616,0.159267,20.2247,10,0.0110742,10,0.00322112,-1.69412,-1.72747,-0.0341541,-26.9362,0.159267,
2,1,0,1,0,18922.5,0.161613,0.161264,20.1551,10,0.0112761,10,0.00325028,-1.69562,-0.866754,-0.0680701,-53.445,0.161264,
2,1,0,1,0,18922.5,0.163611,0.163247,20.012,10,0.011477,10,0.00326689,-1.69871,-0.526228,-0.112119,-87.4212,0.163247,
2,1,0,1,0,18922.5,0.165618,0.165278,19.8041,10,0.0116761,10,0.00327319,-1.70324,-0.370291,-0.159334,-122.905,0.165278,
2,1,0,1,0,18922.5,0.167597,0.167249,19.5201,10,0.0118708,10,0.00326472,-1.70952,-0.279846,-0.21083,-160.303,0.167249,
2,1,0,1,0,18922.5,0.169595,0.169269,19.1644,10,0.0120642,10,0.00324393,-1.7175,-0.219976,-0.268211,-200.078,0.169269,
2,1,0,1,0,18922.6,0.171592,0.171277,18.7142,10,0.0122536,10,0.0032053,-1.72783,-0.181092,-0.325802,-237.613,0.171277,
2,1,0,1,0,18922.6,0.173572,0.173249,18.2187,10,0.0124363,10,0.00315637,-1.73948,-0.156977,-0.37585,-266.66,0.173249,
2,1,0,1,0,18922.6,0.175578,0.175249,17.6549,10,0.0126157,10,0.003094,-1.75314,-0.140095,-0.421143,-289.813,0.175249,
2,1,0,1,0,18922.6,0.177576,0.177247,17.0598,10,0.0127892,10,0.00302381,-1.76803,-0.128716,-0.458375,-304.704,0.177247,
2,1,0,1,0,18922.6,0.179573,0.179282,16.4261,10,0.0129565,10,0.0029449,-1.78447,-0.121356,-0.486174,-311.675,0.179282,
2,1,0,1,0,18922.6,0.181571,0.18126,15.8092,10,0.0131176,10,0.00286557,-1.80109,-0.118671,-0.497171,-306.648,0.18126,
2,1,0,1,0,18922.6,0.183578,0.183287,15.198,10,0.0132726,10,0.0027856,-1.81821,-0.1166,-0.506005,-300.144,0.183287,
2,1,0,1,0,18922.6,0.185575,0.185274,14.6045,10,0.0134214,10,0.00270583,-1.83551,-0.116126,-0.508071,-289.73,0.185274,
2,1,0,1,0,18922.6,0.187573,0.18728,14.041,10,0.0135646,10,0.0026296,-1.8526,-0.121046,-0.487417,-267.511,0.18728,
2,1,0,1,0,18922.6,0.18957,0.189272,13.535,10,0.0137023,10,0.0025618,-1.86854,-0.124737,-0.472993,-249.96,0.189272,
2,1,0,1,0,18922.7,0.191577,0.191232,13.0531,10,0.0138352,10,0.00249618,-1.88429,-0.131483,-0.448727,-228.949,0.191232,
2,1,0,1,0,18922.7,0.193575,0.193257,12.6227,10,0.0139635,10,0.00243941,-1.89885,-0.143816,-0.410248,-202.323,0.193257,
2,1,0,1,0,18922.7,0.195572,0.195304,12.2293,10,0.0140877,10,0.00238844,-1.9126,-0.147164,-0.400913,-191.523,0.195304,
2,1,0,1,0,18922.7,0.19757,0.197204,11.8666,10,0.0142081,10,0.00234015,-1.92567,-0.159439,-0.370046,-171.732,0.197204,
2,1,0,1,0,18922.7,0.199558,0.199203,11.5597,10,0.014324,10,0.00230274,-1.93705,-0.182981,-0.322438,-145.59,0.199203,
2,1,0,1,0,18922.7,0.201556,0.201249,11.2778,10,0.0144381,10,0.00226964,-1.94778,-0.188829,-0.312452,-137.572,0.201249,
2,1,0,1,0,18922.7,0.203554,0.20321,11.0085,10,0.0145495,10,0.00223704,-1.95827,-0.199662,-0.2955,-127.112,0.20321,
2,1,0,1,0,18922.7,0.205551,0.20524,10.7704,10,0.0146583,10,0.00221052,-1.96777,-0.228537,-0.258164,-108.699,0.20524,
2,1,0,1,0,18922.7,0.20754,0.207229,10.5716,10,0.014764,10,0.00219075,-1.97586,-0.252515,-0.233649,-96.4249,0.207229,
2,1,0,1,0,18922.7,0.209537,0.209278,10.3811,10,0.0148686,10,0.00217253,-1.98376,-0.243396,-0.242403,-98.1652,0.209278,
2,1,0,1,0,18922.8,0.211535,0.211178,10.184,10,0.0149714,10,0.00215064,-1.99208,-0.263936,-0.223539,-89.022,0.211178,
2,1,0,1,0,18922.8,0.213532,0.213228,10.0294,10,0.0150725,10,0.00213855,-1.99872,-0.309726,-0.190491,-74.588,0.213228,
2,1,0,1,0,18922.8,0.215539,0.215207,9.88349,10,0.015172,10,0.00212699,-2.00509,-0.312544,-0.188773,-72.8136,0.215207,
2,1,0,1,0,18922.8,0.217537,0.217218,9.73889,10,0.01527,10,0.00211546,-2.01149,-0.326983,-0.180438,-68.6239,0.217218,
2,1,0,1,0,18922.8,0.219534,0.219222,9.60794,10,0.0153668,10,0.00210627,-2.01737,-0.356255,-0.165612,-62.1386,0.219222,
2,1,0,1,0,18922.8,0.221532,0.221219,9.4903,10,0.0154623,10,0.00209943,-2.02272,-0.384075,-0.153616,-56.918,0.221219,
2,1,0,1,0,18922.8,0.223534,0.22321,9.38098,10,0.0155566,10,0.00209393,-2.02775,-0.419991,-0.140479,-51.4656,0.22321,
2,1,0,1,0,18922.8,0.225536,0.225207,9.28504,10,0.0156499,10,0.00209106,-2.03222,-0.419192,-0.140747,-50.9717,0.225207,
2,1,0,1,0,18922.8,0.227534,0.227176,9.17884,10,0.0157423,10,0.00208521,-2.03721,-0.421125,-0.140101,-50.2133,0.227176,
2,1,0,1,0,18922.8,0.229531,0.229232,9.08294,10,0.0158336,10,0.0020821,-2.04177,-0.453393,-0.13013,-46.1419,0.229232,
2,1,0,1,0,18922.9,0.231529,0.231202,8.99304,10,0.015924,10,0.00207921,-2.04609,-0.554816,-0.106342,-37.389,0.2312021,
2,1,0,1,0,18922.9,0.233517,0.233175,8.93549,10,0.0160128,10,0.00208354,-2.04888,-0.566728,-0.104106,-36.2436,0.233175,
2,1,0,1,0,18922.9,0.235515,0.235193,8.84839,10,0.0161017,10,0.00208108,-2.05314,-0.529223,-0.111484,-38.538,0.235193,
2,1,0,1,0,18922.9,0.237512,0.23721,8.78001,10,0.0161898,10,0.00208271,-2.05651,-0.581044,-0.101541,-34.788,0.23721,
2,1,0,1,0,18922.9,0.23951,0.239198,8.70906,10,0.0162772,10,0.00208319,-2.06003,-0.644792,-0.0915024,-31.133,0.239198,
2,1,0,1,0,18922.9,0.241499,0.241173,8.65661,10,0.0163632,10,0.00208775,-2.06265,-0.626916,-0.0941115,-31.756,0.241173,
2,1,0,1,0,18922.9,0.243496,0.243155,8.58341,10,0.0164494,10,0.0020871,-2.06634,-0.652558,-0.0904135,-30.331,0.243155,
2,1,0,1,0,18922.9,0.245494,0.24517,8.5354,10,0.016535,10,0.00209262,-2.06878,-0.717114,-0.0822743,-27.384,0.24517,
2,1,0,1,0,18922.9,0.247491,0.247162,8.47369,10,0.01662,10,0.00209437,-2.07193,-0.717707,-0.0822063,-27.2089,0.247162,
2,1,0,1,0,18922.9,0.249498,0.249166,8.42667,10,0.0167045,10,0.00209964,-2.07434,-0.767497,-0.0768732,-25.2687,0.249166,
2,1,0,1,0,18923,0.251496,0.2512,8.37164,10,0.0167885,10,0.00210296,-2.07719,-0.767755,-0.0768475,-25.1214,0.2512,
2,1,0,1,0,18923,0.253493,0.253171,8.32606,10,0.016872,10,0.00210792,-2.07956,-0.767978,-0.0768251,-24.9518,0.253171,
2,1,0,1,0,18923,0.255491,0.25516,8.27284,10,0.016955,10,0.0021109,-2.08235,-0.978479,-0.0602976,-19.4999,0.25516,
2,1,0,1,0,18923,0.257497,0.257229,8.24692,10,0.0170375,10,0.00212135,-2.08371,-1.01819,-0.0579462,-18.6234,0.257229,
2,1,0,1,0,18923,0.259495,0.259204,8.19753,10,0.0171198,10,0.00212483,-2.08632,-0.779745,-0.0756657,-24.2117,0.259204,
2,1,0,1,0,18923,0.261493,0.261177,8.15134,10,0.0172015,10,0.00212894,-2.08877,-0.845776,-0.0697584,-22.1977,0.261177,
2,1,0,1,0,18923,0.26349,0.263157,8.10978,10,0.0172828,10,0.00213415,-2.09099,-1.12803,-0.0523034,-16.5719,0.263157,
2,1,0,1,0,18923,0.265479,0.265125,8.08591,10,0.017363,10,0.00214378,-2.09227,-0.997559,-0.0591443,-18.6332,0.265125,
2,1,0,1,0,18923,0.267476,0.267145,8.03547,10,0.0174437,10,0.00214664,-2.09499,-0.925251,-0.0637665,-20.0224,0.267145,
2,1,0,1,0,18923,0.269474,0.269142,8.00548,10,0.0175238,10,0.00215461,-2.09661,-1.34155,-0.0439791,-13.7444,0.269142,
2,1,0,1,0,18923.1,0.271471,0.271162,7.98026,10,0.0176037,10,0.00216394,-2.09798,-1.41524,-0.0416889,-12.9825,0.271162,
2,1,0,1,0,18923.1,0.27346,0.273146,7.95351,10,0.0176825,10,0.00217247,-2.09944,-0.988559,-0.0596828,-18.5021,0.273146,
2,1,0,1,0,18923.1,0.275458,0.275137,7.90671,10,0.0177618,10,0.00217543,-2.102,-1.00233,-0.0588628,-18.1872,0.275137,
2,1,0,1,0,18923.1,0.277455,0.277153,7.88062,10,0.0178407,10,0.00218414,-2.10344,-1.10208,-0.0535351,-16.45,0.277153,
2,1,0,1,0,18923.1,0.279453,0.279177,7.84025,10,0.0179193,10,0.00218882,-2.10567,-1.20327,-0.0490331,-15.0227,0.279177,
2,1,0,1,0,18923.1,0.281455,0.281167,7.82032,10,0.0179976,10,0.00219882,-2.10678,-1.22085,-0.048327,-14.7317,0.281167,
2,1,0,1,0,18923.1,0.283457,0.283163,7.78153,10,0.0180756,10,0.00220344,-2.10893,-1.22821,-0.0480372,-14.6066,0.283163,
2,1,0,1,0,18923.1,0.285455,0.285143,7.76225,10,0.0181533,10,0.00221335,-2.11001,-1.10085,-0.053595,-16.2089,0.285143,
2,1,0,1,0,18923.1,0.287452,0.287128,7.71726,10,0.0182307,10,0.00221584,-2.11254,-1.12478,-0.0524546,-15.8253,0.287128,
2,1,0,1,0,18923.1,0.28945,0.289156,7.69875,10,0.0183078,10,0.00222614,-2.11358,-1.39807,-0.0422009,-12.668,0.289156,
2,1,0,1,0,18923.2,0.291456,0.291157,7.66622,10,0.0183847,10,0.00223208,-2.11542,-1.12456,-0.0524651,-15.6999,0.291157,
2,1,0,1,0,18923.2,0.293454,0.293111,7.63665,10,0.0184612,10,0.00223839,-2.1171,-1.20129,-0.0491139,-14.6379,0.293111,
2,1,0,1,0,18923.2,0.295452,0.295172,7.60745,10,0.0185375,10,0.00224551,-2.11876,-1.56545,-0.0376887,-11.1992,0.295172,
2,1,0,1,0,18923.2,0.297449,0.297157,7.59133,10,0.0186134,10,0.00225582,-2.11968,-1.61339,-0.0365689,-10.8265,0.297157,
2,1,0,1,0,18923.2,0.299438,0.299128,7.56462,10,0.0186885,10,0.00226279,-2.12121,-0.0584425,-1.00954,-285.945,0.299128,
2,1,0,1,0,18923.2,0.299746,0.299457,6.9339,10,0.0187202,10,0.0020764,-2.15902,0.00604392,9.76188,2123.75,0.2994566,
2,1,0,1,0,18923.2,0.29774,0.297435,3.96841,10,0.0187729,10,0.00118034,-2.40138,0.00794656,7.42459,1186.55,0.297435,
2,1,0,1,0,18923.2,0.295742,0.295435,2.16236,10,0.0188027,10,0.000638839,-2.66507,0.00630063,9.36415,760.401,0.295435,
2,1,0,1,0,18923.2,0.293745,0.293419,0.914527,10,0.0188176,10,0.00026834,-3.0388,0.00150943,39.0875,535.988,0.293419,
2,1,0,1,0,18923.2,0.291747,0.29141,0.004655,10,0.0188218,10,1.35651e-06,-5.33208,0.0316635,1.86335,400.083,0.29141,
2,0,0,1,0,18923.2,0.289745,0.289424,-0.683936,10,0.0188182,10,-0.000197947,-3.16498,-0.00165188,-35.7169,307.58,0.289424,
2,0,0,1,0,18923.3,0.287743,0.287412,-1.22503,10,0.0188084,10,-0.000352087,-2.91185,-0.0105338,-5.60103,238.215,0.287412,
2,0,0,1,0,18923.3,0.285745,0.285447,-1.63113,10,0.018794,10,-0.000465602,-2.78751,-0.0189463,-3.11407,191.475,0.285447,
2,0,0,1,0,18923.3,0.283748,0.283431,-1.98721,10,0.0187758,10,-0.000563237,-2.70176,-0.0281405,-2.09662,158.11,0.283431,
2,0,0,1,0,18923.3,0.28175,0.281417,-2.26845,10,0.0187544,10,-0.00063838,-2.64427,-0.0391489,-1.50707,131.745,0.281417,
2,0,0,1,0,18923.3,0.279761,0.279438,-2.51324,10,0.0187307,10,-0.000702296,-2.59977,-0.049791,-1.18495,115.16,0.279438,
2,0,0,1,0,18923.3,0.277764,0.277444,-2.72597,10,0.0187044,10,-0.000756302,-2.56448,-0.0623071,-0.946923,100.057,0.277444,
2,0,0,1,0,18923.3,0.275766,0.275458,-2.91152,10,0.0186762,10,-0.000802,-2.53588,-0.0785899,-0.750733,84.7283,0.275458,
2,0,0,1,0,18923.3,0.273769,0.27345,-3.06438,10,0.0186463,10,-0.000837952,-2.51366,-0.0915158,-0.644698,77.092,0.2734496,
2,0,0,1,0,18923.3,0.27178,0.271434,-3.22173,10,0.0186151,10,-0.000874487,-2.49191,-0.102668,-0.574671,71.9284,0.2714338,
2,0,0,1,0,18923.3,0.269783,0.269419,-3.35427,10,0.0185822,10,-0.000903706,-2.4744,-0.118007,-0.49997,65.3427,0.269419,
2,0,0,1,0,18923.4,0.267785,0.267494,-3.47917,10,0.018548,10,-0.000930656,-2.45852,-0.136183,-0.433241,58.6506,0.267494,
2,0,0,1,0,18923.4,0.265787,0.26547,-3.5859,10,0.0185126,10,-0.00095195,-2.4454,-0.147663,-0.39956,55.984,0.26547,
2,0,0,1,0,18923.4,0.263781,0.263486,-3.70357,10,0.0184761,10,-0.000975838,-2.43138,-0.157526,-0.374542,53.979,0.2634857,
2,0,0,1,0,18923.4,0.261783,0.261469,-3.80189,10,0.0184386,10,-0.000994076,-2.42,-0.181028,-0.325917,48.3221,0.261469,
2,0,0,1,0,18923.4,0.259786,0.2595,-3.89617,10,0.0184001,10,-0.00101106,-2.40936,-0.199755,-0.295362,44.8396,0.2595,
2,0,0,1,0,18923.4,0.257788,0.257511,-3.97933,10,0.0183607,10,-0.00102472,-2.40019,-0.194161,-0.303871,47.3338,0.257511,
2,0,0,1,0,18923.4,0.255781,0.255446,-4.08804,10,0.0183203,10,-0.00104427,-2.38849,-0.220581,-0.267476,42.4306,0.255446,
2,0,0,1,0,18923.4,0.253784,0.253458,-4.15132,10,0.0182791,10,-0.00105219,-2.38181,-0.26001,-0.226914,36.8511,0.253458,
2,0,0,1,0,18923.4,0.251786,0.251449,-4.23536,10,0.0182371,10,-0.00106498,-2.37311,-0.24692,-0.238944,39.4358,0.251449,
2,0,0,1,0,18923.4,0.249789,0.249497,-4.30751,10,0.0181944,10,-0.00107471,-2.36577,-0.259768,-0.227126,38.2061,0.249497,
2,0,0,1,0,18923.5,0.2478,0.247505,-4.38602,10,0.0181514,10,-0.00108556,-2.35793,-0.277049,-0.212959,36.4034,0.247505,
2,0,0,1,0,18923.5,0.245802,0.245487,-4.45348,10,0.0181072,10,-0.00109327,-2.3513,-0.297508,-0.198314,34.4868,0.2454875,
2,0,0,1,0,18923.5,0.243805,0.243432,-4.52651,10,0.0180623,10,-0.0011019,-2.34424,-0.325549,-0.181233,31.9498,0.243432,
2,0,0,1,0,18923.5,0.241807,0.241481,-4.5815,10,0.0180167,10,-0.00110634,-2.33899,-0.308372,-0.191327,34.297,0.241481,
2,0,0,1,0,18923.5,0.239819,0.239523,-4.66055,10,0.017971,10,-0.00111631,-2.33156,-0.313722,-0.188064,34.1255,0.239523,
2,0,0,1,0,18923.5,0.237821,0.237474,-4.71823,10,0.0179241,10,-0.00112046,-2.32622,-0.357965,-0.164821,30.3679,0.237474,
2,0,0,1,0,18923.5,0.235824,0.235521,-4.78209,10,0.0178766,10,-0.00112628,-2.32038,-0.398197,-0.148168,27.5984,0.235521,
2,0,0,1,0,18923.5,0.233826,0.233509,-4.82766,10,0.0178285,10,-0.0011273,-2.31626,-0.378321,-0.155952,29.4633,0.233509,
2,0,0,1,0,18923.5,0.231824,0.231513,-4.90019,10,0.0177799,10,-0.00113446,-2.30979,-0.36405,-0.162066,30.9258,0.2315127,
2,0,0,1,0,18923.5,0.229822,0.229492,-4.95188,10,0.0177306,10,-0.00113642,-2.30523,-0.428511,-0.137686,26.6176,0.229492,
2,0,0,1,0,18923.6,0.227824,0.22749,-5.00728,10,0.0176808,10,-0.0011391,-2.3004,-0.436178,-0.135266,26.4139,0.22749,
2,0,0,1,0,18923.6,0.225827,0.225564,-5.05563,10,0.0176304,10,-0.00114037,-2.29622,-0.434458,-0.135801,26.8197,0.225564,
2,0,0,1,0,18923.6,0.223829,0.223513,-5.11394,10,0.0175795,10,-0.00114303,-2.29124,-0.406977,-0.144971,28.9343,0.2235125,
2,0,0,1,0,18923.6,0.221822,0.221509,-5.17296,10,0.017528,10,-0.00114586,-2.28626,-0.42607,-0.138475,27.9383,0.221509,
2,0,0,1,0,18923.6,0.219825,0.219507,-5.22585,10,0.017476,10,-0.00114711,-2.28184,-0.475111,-0.124182,25.3173,0.219507,
2,0,0,1,0,18923.6,0.217827,0.21747,-5.27523,10,0.0174234,10,-0.0011472,-2.27776,-0.478903,-0.123198,25.3707,0.21747,
2,0,0,1,0,18923.6,0.21583,0.215484,-5.32792,10,0.0173703,10,-0.00114808,-2.27344,-0.41598,-0.141834,29.5229,0.2154837,
2,0,0,1,0,18923.6,0.213841,0.213505,-5.39228,10,0.0173172,10,-0.00115128,-2.26823,-0.413368,-0.14273,30.0065,0.2135051,
2,0,0,1,0,18923.6,0.211844,0.21154,-5.44626,10,0.017263,10,-0.0011521,-2.2639,-0.519065,-0.113666,24.1337,0.21154,
2,0,0,1,0,18923.6,0.209846,0.209506,-5.48878,10,0.0172083,10,-0.00114994,-2.26052,-0.527523,-0.111844,23.9825,0.209506,
2,0,0,1,0,18923.7,0.207848,0.207515,-5.54279,10,0.0171531,10,-0.00115021,-2.25627,-0.409665,-0.14402,31.1992,0.207515,
2,0,0,1,0,18923.7,0.20586,0.205515,-5.61331,10,0.0170979,10,-0.00115362,-2.25078,-0.421498,-0.139977,30.6102,0.205515,
2,0,0,1,0,18923.7,0.203862,0.203545,-5.6643,10,0.0170415,10,-0.00115294,-2.24685,-0.564888,-0.104446,23.0666,0.203545,
2,0,0,1,0,18923.7,0.201865,0.201554,-5.70467,10,0.0169846,10,-0.0011498,-2.24377,-0.508444,-0.11604,25.8868,0.2015543,
2,0,0,1,0,18923.7,0.199867,0.199525,-5.76838,10,0.0169273,10,-0.00115094,-2.23895,-0.469972,-0.12554,28.2274,0.199525,
2,0,0,1,0,18923.7,0.19786,0.197523,-5.81848,10,0.0168693,10,-0.00114928,-2.23519,-0.51588,-0.114368,25.9779,0.197523,
2,0,0,1,0,18923.7,0.195863,0.195524,-5.87232,10,0.0168108,10,-0.00114818,-2.23119,-0.469742,-0.125601,28.8021,0.195524,
2,0,0,1,0,18923.7,0.193865,0.193528,-5.93353,10,0.0167518,10,-0.0011483,-2.22669,-0.448351,-0.131593,30.4692,0.193528,
2,0,0,1,0,18923.7,0.191868,0.191536,-5.99382,10,0.0166921,10,-0.00114803,-2.2223,-0.459878,-0.128295,30.0062,0.191536,
2,0,0,1,0,18923.7,0.189861,0.189557,-6.05268,10,0.0166319,10,-0.00114733,-2.21805,-0.460692,-0.128068,30.2597,0.189557,
2,0,0,1,0,18923.8,0.187863,0.187529,-6.11508,10,0.0165711,10,-0.00114675,-2.2136,-0.484942,-0.121664,29.0145,0.187529,
2,0,0,1,0,18923.8,0.185866,0.185547,-6.16903,10,0.0165096,10,-0.00114465,-2.20978,-0.484714,-0.121721,29.3286,0.185547,
2,0,0,1,0,18923.8,0.183868,0.183504,-6.23313,10,0.0164476,10,-0.0011438,-2.20529,-0.415979,-0.141834,34.5269,0.183504,
2,0,0,1,0,18923.8,0.18188,0.181564,-6.30655,10,0.0163855,10,-0.00114504,-2.20021,-0.377786,-0.156173,38.453,0.181564,
2,0,0,1,0,18923.8,0.179882,0.179542,-6.38548,10,0.0163221,10,-0.00114646,-2.19481,-0.440753,-0.133862,33.2923,0.179542,
2,0,0,1,0,18923.8,0.177885,0.177576,-6.43933,10,0.0162579,10,-0.00114347,-2.19116,-0.429224,-0.137457,34.625,0.177576,
2,0,0,1,0,18923.8,0.175887,0.175544,-6.52389,10,0.0161931,10,-0.00114523,-2.18549,-0.385455,-0.153066,38.9372,0.175544,
2,0,0,1,0,18923.8,0.173908,0.173512,-6.59754,10,0.0161281,10,-0.00114476,-2.18062,-0.361986,-0.16299,42.0282,0.173512,
2,0,0,1,0,18923.8,0.171901,0.171564,-6.69119,10,0.0160616,10,-0.00114797,-2.1745,-0.354409,-0.166475,43.4166,0.171564,
2,0,0,1,0,18923.8,0.169903,0.169579,-6.76833,10,0.0159943,10,-0.00114777,-2.16952,-0.338114,-0.174498,46.1934,0.169579,
2,0,0,1,0,18923.9,0.167906,0.167567,-6.87582,10,0.0159261,10,-0.00115216,-2.16268,-0.310424,-0.190063,50.9578,0.167567,
2,0,0,1,0,18923.9,0.165908,0.165573,-6.97246,10,0.0158568,10,-0.00115445,-2.15661,-0.298455,-0.197685,53.8603,0.165573,
2,0,0,1,0,18923.9,0.163901,0.163633,-7.08769,10,0.0157865,10,-0.00115978,-2.1495,-0.284748,-0.207201,57.3019,0.163633,
2,0,0,1,0,18923.9,0.161904,0.161581,-7.2012,10,0.015715,10,-0.00116358,-2.1426,-0.273358,-0.215834,60.7362,0.161581,
2,0,0,1,0,18923.9,0.159906,0.159567,-7.33468,10,0.0156423,10,-0.00117037,-2.13462,-0.258899,-0.227888,65.1969,0.159567,
2,0,0,1,0,18923.9,0.157909,0.157587,-7.46162,10,0.0155683,10,-0.00117585,-2.12717,-0.23557,-0.250457,73.1241,0.157587,
2,0,0,1,0,18923.9,0.155902,0.155536,-7.62943,10,0.0154928,10,-0.00118665,-2.11751,-0.213526,-0.276313,82.2346,0.155536,
2,0,0,1,0,18923.9,0.153904,0.153563,-7.79253,10,0.0154157,10,-0.00119664,-2.10832,-0.207499,-0.284339,86.5508,0.153563,
2,0,0,1,0,18923.9,0.151907,0.151575,-7.97223,10,0.0153368,10,-0.00120839,-2.09842,-0.189547,-0.311268,96.9972,0.151575,
2,0,0,1,0,18923.9,0.149909,0.149567,-8.18006,10,0.0152561,10,-0.00122347,-2.08724,-0.170402,-0.34624,110.676,0.1495674,
2,0,0,1,0,18924,0.147921,0.147594,-8.41281,10,0.0151739,10,-0.00124168,-2.07506,-0.167268,-0.352728,115.779,0.147594,
2,0,0,1,0,18924,0.145923,0.145549,-8.64534,10,0.0150886,10,-0.00125832,-2.06322,-0.153195,-0.385131,130.29,0.1455487,
2,0,0,1,0,18924,0.143926,0.143631,-8.92915,10,0.0150008,10,-0.0012825,-2.04919,-0.137177,-0.4301,149.991,0.143631,
2,0,0,1,0,18924,0.141928,0.141633,-9.2326,10,0.0149099,10,-0.00130764,-2.03468,-0.133337,-0.442489,159.702,0.141633,
2,0,0,1,0,18924,0.139939,0.139592,-9.57428,10,0.0148168,10,-0.00133649,-2.01889,-0.12615,-0.467697,174.774,0.139592,
2,0,0,1,0,18924,0.137942,0.137665,-9.92623,10,0.0147193,10,-0.00136649,-2.00322,-0.121076,-0.487299,189.133,0.137665,
2,0,0,1,0,18924,0.135944,0.135621,-10.3253,10,0.014618,10,-0.00140033,-1.9861,-0.11885,-0.496425,200.083,0.135621,
2,0,0,1,0,18924,0.133947,0.133601,-10.7393,10,0.0145127,10,-0.00143479,-1.96902,-0.113875,-0.518113,217.439,0.133601,
2,0,0,1,0,18924,0.13194,0.131629,-11.1933,10,0.014403,10,-0.00147336,-1.95104,-0.11362,-0.519273,226.707,0.131629,
2,0,0,1,0,18924,0.129942,0.129599,-11.6465,10,0.0142887,10,-0.00150938,-1.93381,-0.114883,-0.513567,233.555,0.129599,
2,0,0,1,0,18924.1,0.127945,0.127641,-12.1246,10,0.0141698,10,-0.0015476,-1.91633,-0.116344,-0.507119,239.717,0.127641,
2,0,0,1,0,18924.1,0.125947,0.125662,-12.5903,10,0.0140461,10,-0.00158212,-1.89996,-0.119403,-0.494126,243.087,0.125662,
2,0,0,1,0,18924.1,0.123941,0.123633,-13.099,10,0.0139176,10,-0.00161947,-1.88276,-0.12343,-0.478003,243.88,0.123633,
2,0,0,1,0,18924.1,0.121943,0.121652,-13.5683,10,0.0137842,10,-0.00165061,-1.86748,-0.134912,-0.437321,231.378,0.121652,
2,0,0,1,0,18924.1,0.119945,0.11963,-14.0252,10,0.0136462,10,-0.00167783,-1.85309,-0.138269,-0.426705,233.538,0.1196298,
2,0,0,1,0,18924.1,0.117948,0.117708,-14.4894,10,0.0135035,10,-0.00170552,-1.83895,-0.141646,-0.416532,235.59,0.117708,
2,0,0,1,0,18924.1,0.115946,0.115619,-14.9702,10,0.0133562,10,-0.00173083,-1.82477,-0.156371,-0.377308,219.897,0.115619,
2,0,0,1,0,18924.1,0.113962,0.113628,-15.3865,10,0.0132057,10,-0.00174834,-1.81286,-0.167478,-0.352286,211.548,0.113628,
2,0,0,1,0,18924.1,0.111964,0.111643,-15.8112,10,0.0130497,10,-0.00176521,-1.80104,-0.17774,-0.331946,204.59,0.111643,
2,0,0,1,0,18924.1,0.109967,0.109624,-16.2057,10,0.0128895,10,-0.00177654,-1.79033,-0.192005,-0.307284,194.179,0.109624,
2,0,0,1,0,18924.2,0.107969,0.107691,-16.5787,10,0.0127256,10,-0.00178537,-1.78045,-0.212352,-0.277841,179.584,0.1076906,
2,0,0,1,0,18924.2,0.10598,0.10563,-16.923,10,0.0125597,10,-0.00178758,-1.77152,-0.22933,-0.257271,169.848,0.10563,
2,0,0,1,0,18924.2,0.103983,0.103688,-17.2585,10,0.0123888,10,-0.0017895,-1.763,-0.252251,-0.233894,157.317,0.103688,
2,0,0,1,0,18924.2,0.101985,0.101649,-17.5493,10,0.0122146,10,-0.00178386,-1.75574,-0.282679,-0.208717,142.883,0.101649,
2,0,0,1,0,18924.2,0.0999877,0.0997096,-17.827,10,0.0120377,10,-0.00177752,-1.74892,-0.300654,-0.196239,136.465,0.09970957,
2,0,0,1,0,18924.2,0.0979811,0.0976837,-18.0904,10,0.011858,10,-0.00176714,-1.74255,-0.334506,-0.17638,124.429,0.09768372,
2,0,0,1,0,18924.2,0.0959835,0.095683,-18.328,10,0.0116759,10,-0.00175368,-1.73688,-0.394214,-0.149665,106.902,0.095683,
2,0,0,1,0,18924.2,0.0939859,0.0937049,-18.5157,10,0.0114916,10,-0.00173502,-1.73246,-0.459889,-0.128292,92.6943,0.0937049,
2,0,0,1,0,18924.2,0.0919883,0.091666,-18.7004,10,0.0113055,10,-0.00171419,-1.72815,-0.516618,-0.114204,83.277,0.091666,
2,0,0,1,0,18924.2,0.0899816,0.0896427,-18.854,10,0.0111176,10,-0.00169013,-1.7246,-0.675392,-0.0873567,64.1936,0.0896427,
2,0,0,1,0,18924.3,0.087984,0.0876429,-18.9586,10,0.0109285,10,-0.00166159,-1.72219,-1.00549,-0.058678,43.3733,0.0876429,
2,0,0,1,0,18924.3,0.0859865,0.0856648,-19.0266,10,0.0107385,10,-0.00162991,-1.72064,-1.50029,-0.0393258,29.1858,0.0856648,
2,0,0,1,0,18924.3,0.0839889,0.0836727,-19.0745,10,0.010548,10,-0.00159602,-1.71955,-2.96592,-0.0198926,14.7942,0.0836727,
2,0,0,1,0,18924.3,0.0820004,0.0816603,-19.0858,10,0.010359,10,-0.00155855,-1.71929,40.4632,0.00145812,-1.08532,0.0816603,
2,0,0,1,0,18924.3,0.0800028,0.0796537,-19.0701,10,0.0101682,10,-0.00151901,-1.71965,2.47447,0.0238435,-17.727,0.0796537,
2,0,0,1,0,18924.3,0.0780052,0.0776575,-19.0148,10,0.00997779,10,-0.00147665,-1.72091,1.47778,0.0399247,-29.6216,0.0776575,
2,0,0,1,0,18924.3,0.0760076,0.0756613,-18.9519,10,0.00978794,10,-0.00143392,-1.72235,1.07275,0.0549988,-40.6407,0.0756613,
2,0,0,1,0,18924.3,0.0740191,0.0736892,-18.8536,10,0.00960086,10,-0.00138931,-1.72461,0.83019,0.071068,-52.2763,0.0736892,
2,0,0,1,0,18924.3,0.0720215,0.0716972,-18.7446,10,0.00941291,10,-0.00134394,-1.72712,0.709368,0.0831726,-60.8054,0.07169719,
2,0,0,1,0,18924.3,0.0700239,0.0697182,-18.6121,10,0.00922613,10,-0.0012976,-1.7302,0.629668,0.0937002,-68.0489,0.0697182,
2,0,0,1,0,18924.4,0.0680263,0.0677123,-18.4735,10,0.00904077,10,-0.00125088,-1.73345,0.64009,0.0921746,-66.4667,0.0677123,
2,0,0,1,0,18924.4,0.0660197,0.0656595,-18.3423,10,0.00885674,10,-0.00120435,-1.73655,0.635935,0.0927768,-66.4086,0.06565953,
2,0,0,1,0,18924.4,0.0640221,0.06373,-18.209,10,0.00867398,10,-0.00116046,-1.73971,0.57577,0.102471,-72.7791,0.06373,
2,0,0,1,0,18924.4,0.0620245,0.0617223,-18.0558,10,0.00849266,10,-0.00111445,-1.74338,0.612973,0.0962522,-67.8884,0.0617223,
2,0,0,1,0,18924.4,0.0600269,0.0597216,-17.9369,10,0.00831272,10,-0.00107122,-1.74625,0.669151,0.0881714,-61.7056,0.0597216,
2,0,0,1,0,18924.4,0.0580248,0.0577244,-17.8091,10,0.008134,10,-0.00102802,-1.74936,0.671206,0.0879015,-61.1085,0.0577244,
2,0,0,1,0,18924.4,0.0560227,0.0556821,-17.69,10,0.00795646,10,-0.000985018,-1.75227,0.681333,0.086595,-59.7789,0.0556821,
2,0,0,1,0,18924.4,0.0540251,0.0536987,-17.5685,10,0.00778015,10,-0.000943404,-1.75527,0.753609,0.0782899,-53.7198,0.05369873,
2,0,0,1,0,18924.4,0.0520275,0.0516625,-17.4741,10,0.00760495,10,-0.000902755,-1.7576,0.741634,0.0795541,-54.2062,0.0516625,
2,0,0,1,0,18924.4,0.0500299,0.049673,-17.3502,10,0.00743079,10,-0.000861839,-1.76069,0.76597,0.0770265,-52.2144,0.049673,
2,0,0,1,0,18924.5,0.0480414,0.0476626,-17.2653,10,0.00725945,10,-0.000822907,-1.76283,0.822112,0.0717664,-48.3272,0.0476626,
2,0,0,1,0,18924.5,0.0460438,0.045726,-17.1595,10,0.00708736,10,-0.000784635,-1.7655,0.761916,0.0774363,-51.8687,0.045726,
2,0,0,1,0,18924.5,0.0440462,0.0437338,-17.0615,10,0.00691632,10,-0.000746163,-1.76798,0.762201,0.0774074,-51.5262,0.0437338,
2,0,0,1,0,18924.5,0.0420486,0.041724,-16.9533,10,0.00674627,10,-0.000707359,-1.77075,0.816155,0.0722902,-47.8637,0.041724,
2,0,0,1,0,18924.5,0.0400601,0.0397259,-16.8696,10,0.00657889,10,-0.000670163,-1.77289,0.821285,0.0718387,-47.2651,0.0397259,
2,0,0,1,0,18924.5,0.0380625,0.03772,-16.764,10,0.00641072,10,-0.00063234,-1.77562,0.729508,0.0808764,-52.9135,0.03772,
2,0,0,1,0,18924.5,0.036065,0.0357454,-16.659,10,0.00624364,10,-0.000595483,-1.77835,0.726504,0.0812109,-52.8042,0.0357454,
2,0,0,1,0,18924.5,0.0340674,0.0338106,-16.5576,10,0.00607755,10,-0.000559823,-1.781,0.815926,0.0723105,-46.7462,0.0338106,
2,0,0,1,0,18924.5,0.0320607,0.0317136,-16.4706,10,0.00591242,10,-0.000522341,-1.78329,0.744878,0.0792076,-50.8637,0.0317136,
2,0,0,1,0,18924.5,0.0300631,0.0297537,-16.3513,10,0.0057483,10,-0.00048651,-1.78645,0.66748,0.0883921,-56.4292,0.0297537,
2,0,0,1,0,18924.6,0.0280655,0.0277287,-16.2457,10,0.00558537,10,-0.000450472,-1.78926,0.657821,0.0896901,-56.8355,0.0277287,
2,0,0,1,0,18924.6,0.0260679,0.0257497,-16.1237,10,0.0054235,10,-0.00041518,-1.79254,0.651518,0.0905577,-57.0108,0.0257497,
2,0,0,1,0,18924.6,0.0240613,0.0237238,-16.0174,10,0.00526282,10,-0.000379993,-1.79541,0.623542,0.0946208,-59.1028,0.02372383,
2,0,0,1,0,18924.6,0.0220637,0.0217457,-15.887,10,0.0051033,10,-0.000345475,-1.79896,0.56424,0.104565,-64.8341,0.0217457,
2,0,0,1,0,18924.6,0.0200661,0.0197242,-15.7581,10,0.00494513,10,-0.000310814,-1.8025,0.517138,0.11409,-70.1065,0.0197242,
2,0,0,1,0,18924.6,0.0180685,0.0177122,-15.6043,10,0.00478827,10,-0.000276386,-1.80676,0.511397,0.11537,-70.3226,0.0177122,
2,0,0,1,0,18924.6,0.01608,0.0157653,-15.4797,10,0.00463447,10,-0.000244041,-1.81024,0.500187,0.117956,-71.1855,0.0157653,
2,0,0,1,0,18924.6,0.0140824,0.0137699,-15.3236,10,0.00448044,10,-0.000211004,-1.81464,0.456997,0.129104,-77.216,0.0137699,
2,0,0,1,0,18924.6,0.0120848,0.0117768,-15.1717,10,0.004328,10,-0.000178674,-1.81897,0.434819,0.135689,-80.2932,0.0117768,
2,0,0,1,0,18924.6,0.0100872,0.00977107,-15.0025,10,0.00417717,10,-0.000146591,-1.82383,0.424536,0.138975,-81.4,0.00977107,
2,0,0,1,0,18924.7,0.00810328,0.0077703,-14.8455,10,0.00402948,10,-0.000115354,-1.8284,0.416396,0.141692,-82.0641,0.0077703,
2,0,0,1,0,18924.7,0.00610116,0.00583207,-14.6793,10,0.00388178,10,-8.56107e-05,-1.83329,0.402053,0.146747,-84.0659,0.00583207,
2,0,0,1,0,18924.7,0.00410357,0.00381576,-14.5131,10,0.00373584,10,-5.53785e-05,-1.83824,0.498208,0.118424,-67.2056,0.00381576,
2,0,0,1,0,18924.7,0.00210598,0.00173611,-14.404,10,0.00359145,10,-2.50069e-05,-1.84152,0.475804,0.124001,-69.5461,0.00173611,
2,0,0,1,0,18924.7,0.00010174,-0.000259386,-14.2297,10,0.00344834,10,3.69098e-06,-1.8468,0.393404,0.149973,-83.3236,-0.000259386,
2,0,0,1,0,18924.7,-0.00189827,-0.0022783,-14.0695,10,0.00330679,10,3.20547e-05,-1.85172,0.427437,0.138032,-75.83,-0.0022783,
2,0,0,1,0,18924.7,-0.00389586,-0.00428334,-13.9246,10,0.00316686,10,5.96436e-05,-1.85622,0.428907,0.137559,-74.7327,-0.00428334,
2,0,0,1,0,18924.7,-0.00589345,-0.00624934,-13.7728,10,0.00302838,10,8.60706e-05,-1.86098,0.443609,0.133,-71.5366,-0.00624934,
2,0,0,1,0,18924.7,-0.00789103,-0.00825437,-13.6405,10,0.00289132,10,0.000112594,-1.86517,0.508,0.116142,-61.8595,-0.00825437,
2,0,0,1,0,18924.7,-0.0098977,-0.0102854,-13.5231,10,0.00275542,10,0.000139091,-1.86892,0.572956,0.102975,-54.3801,-0.0102854,
2,0,0,1,0,18924.8,-0.0118953,-0.0122523,-13.4231,10,0.0026207,10,0.000164464,-1.87215,0.582495,0.101288,-53.0347,-0.0122523,
2,0,0,1,0,18924.8,-0.0138929,-0.0142981,-13.3103,10,0.00248702,10,0.000190312,-1.87581,0.613919,0.0961039,-49.9687,-0.0142981,
2,0,0,1,0,18924.8,-0.0158905,-0.0162589,-13.2229,10,0.0023544,10,0.000214989,-1.87867,0.753011,0.0783521,-40.4548,-0.0162589,
2,0,0,1,0,18924.8,-0.017879,-0.018265,-13.1498,10,0.00222381,10,0.000240181,-1.88108,0.859119,0.068675,-35.25,-0.018265,
2,0,0,1,0,18924.8,-0.0198766,-0.0202636,-13.0817,10,0.00209268,10,0.000265083,-1.88334,0.827646,0.0712865,-36.3828,-0.0202636,
2,0,0,1,0,18924.8,-0.0218741,-0.0222312,-13.0055,10,0.00196226,10,0.000289128,-1.88587,1.08874,0.0541911,-27.5495,-0.0222312,
2,0,0,1,0,18924.8,-0.0238717,-0.0242783,-12.9711,10,0.0018324,10,0.000314917,-1.88702,1.54516,0.0381839,-19.3231,-0.0242783,
2,0,0,1,0,18924.8,-0.0258602,-0.0262286,-12.9283,10,0.00170417,10,0.00033909,-1.88846,1.48652,0.03969,-20.03,-0.0262286,
2,0,0,1,0,18924.8,-0.0278578,-0.0282648,-12.8913,10,0.00157511,10,0.000364369,-1.8897,1.75708,0.0335784,-16.8979,-0.0282648,
2,0,0,1,0,18924.8,-0.0298554,-0.0301996,-12.8612,10,0.00144635,10,0.000388402,-1.89072,2.77441,0.0212658,-10.6814,-0.0301996,
2,0,0,1,0,18924.9,-0.031853,-0.0322124,-12.8491,10,0.0013178,10,0.0004139,-1.89113,5.0817,0.0116103,-5.82221,-0.0322124,
2,0,0,1,0,18924.9,-0.0338597,-0.0342539,-12.8376,10,0.00118932,10,0.000439736,-1.89152,18.0013,0.00327754,-1.64313,-0.0342539,
2,0,0,1,0,18924.9,-0.0358573,-0.0362234,-12.8425,10,0.00106094,10,0.000465199,-1.89135,-19.7802,-0.00298277,1.49475,-0.0362234,
2,0,0,1,0,18924.9,-0.0378549,-0.0382484,-12.8435,10,0.000932455,10,0.000491244,-1.89132,-23.7648,-0.00248267,1.24456,-0.0382484,
2,0,0,1,0,18924.9,-0.0398524,-0.0402413,-12.8475,10,0.000804006,10,0.000516999,-1.89118,-3.89124,-0.0151623,7.60897,-0.0402413,
2,0,0,1,0,18924.9,-0.0418591,-0.0422454,-12.8739,10,0.000675363,10,0.000543865,-1.89029,-2.28627,-0.0258063,12.9652,-0.0422454,
2,0,0,1,0,18924.9,-0.0438567,-0.0442227,-12.8991,10,0.000546511,10,0.000570434,-1.88944,-3.20771,-0.0183932,9.25444,-0.0442227,
2,0,0,1,0,18924.9,-0.0458543,-0.0462113,-12.9106,10,0.000417383,10,0.000596617,-1.88905,-2.38564,-0.0247313,12.4741,-0.0462113,
2,0,0,1,0,18924.9,-0.0478519,-0.0482172,-12.9489,10,0.000288098,10,0.000624361,-1.88777,-1.35126,-0.043663,22.0754,-0.0482172,
2,0,0,1,0,18924.9,-0.0498585,-0.0502161,-12.999,10,0.000158377,10,0.000652762,-1.88609,-1.25611,-0.0469704,23.8231,-0.0502161,
2,0,0,1,0,18925,-0.051838,-0.0521737,-13.0432,10,2.94661e-05,10,0.000680512,-1.88462,-1.61705,-0.0364861,18.5625,-0.0521737,
2,0,0,1,0,18925,-0.0538356,-0.0542009,-13.073,10,-0.000101098,10,0.000708569,-1.88362,-1.42952,-0.0412727,21.0774,-0.0542009,
2,0,0,1,0,18925,-0.0558331,-0.0561939,-13.1279,10,-0.000232113,10,0.00073771,-1.8818,-1.14659,-0.0514571,26.3588,-0.0561939,
2,0,0,1,0,18925,-0.0578126,-0.0581894,-13.1781,10,-0.00036236,10,0.000766829,-1.88015,-1.07873,-0.0546939,28.1424,-0.0581894,
2,0,0,1,0,18925,-0.0598192,-0.0602083,-13.2409,10,-0.000494478,10,0.000797213,-1.87808,-1.00686,-0.0585982,30.275,-0.0602083,
2,0,0,1,0,18925,-0.0618168,-0.0621787,-13.2989,10,-0.000627213,10,0.000826909,-1.87618,-0.935325,-0.0630797,32.7572,-0.0621787,
2,0,0,1,0,18925,-0.0638144,-0.0642011,-13.3717,10,-0.000760582,10,0.000858477,-1.87381,-0.932734,-0.0632549,32.9925,-0.0642011,
2,0,0,1,0,18925,-0.065812,-0.0661697,-13.4306,10,-0.000894632,10,0.000888698,-1.8719,-0.864823,-0.0682221,35.7919,-0.0661697,
2,0,0,1,0,18925,-0.0678187,-0.0681929,-13.5146,10,-0.00102942,10,0.000921599,-1.8692,-0.761084,-0.0775211,40.8827,-0.0681929,
2,0,0,1,0,18925,-0.0698163,-0.0702153,-13.596,10,-0.001165,10,0.000954647,-1.86659,-0.804372,-0.0733492,38.9083,-0.0702153,
2,0,0,1,0,18925.1,-0.0718138,-0.0721804,-13.6697,10,-0.00130131,10,0.000986687,-1.86424,-0.819889,-0.071961,38.3979,-0.0721804,
2,0,0,1,0,18925.1,-0.0738114,-0.0742054,-13.7492,10,-0.00143847,10,0.00102027,-1.86172,-0.665008,-0.0887207,47.6619,-0.0742054,
2,0,0,1,0,18925.1,-0.0758181,-0.0761966,-13.8611,10,-0.00157656,10,0.00105617,-1.8582,-0.657534,-0.0897292,48.4872,-0.0761966,
2,0,0,1,0,18925.1,-0.0778157,-0.0782146,-13.9436,10,-0.00171563,10,0.00109059,-1.85563,-0.695522,-0.0848283,46.1922,-0.0782146,
2,0,0,1,0,18925.1,-0.0798133,-0.0801772,-14.045,10,-0.00185553,10,0.00112609,-1.85248,-0.645138,-0.0914533,50.1212,-0.0801772,
2,0,0,1,0,18925.1,-0.0818109,-0.0821883,-14.1428,10,-0.00199652,10,0.00116237,-1.84947,-0.594404,-0.0992591,54.8316,-0.0821883,
2,0,0,1,0,18925.1,-0.0837994,-0.0841839,-14.2647,10,-0.00213713,10,0.00120086,-1.84574,-0.594107,-0.0993087,55.2375,-0.0841839,
2,0,0,1,0,18925.1,-0.085797,-0.0861618,-14.3623,10,-0.00228028,10,0.00123748,-1.84278,-0.582011,-0.101373,56.8842,-0.0861618,
2,0,0,1,0,18925.1,-0.0877945,-0.0881875,-14.4925,10,-0.00242454,10,0.00127805,-1.83886,-0.543983,-0.108459,61.3065,-0.0881875,
2,0,0,1,0,18925.1,-0.0897921,-0.0901312,-14.6056,10,-0.00257007,10,0.00131642,-1.83548,-0.536826,-0.109905,62.6876,-0.0901312,
2,0,0,1,0,18925.2,-0.0917806,-0.0921093,-14.7383,10,-0.00271527,10,0.00135754,-1.83155,-0.540677,-0.109122,62.7329,-0.0921093,
2,0,0,1,0,18925.2,-0.0937782,-0.0941248,-14.8561,10,-0.00286328,10,0.00139833,-1.82809,-0.549128,-0.107443,62.3298,-0.0941248,
2,0,0,1,0,18925.2,-0.0957758,-0.0961732,-14.9916,10,-0.00301254,10,0.00144179,-1.82415,-0.547591,-0.107745,63.004,-0.0961732,
2,0,0,1,0,18925.2,-0.0977734,-0.0981748,-15.1113,10,-0.00316312,10,0.00148355,-1.8207,-0.488261,-0.120837,71.3511,-0.0981748,
2,0,0,1,0,18925.2,-0.0997412,-0.100063,-15.2691,10,-0.00331196,10,0.00152788,-1.81619,0.103206,0.571674,-330.144,-0.100063,
2,0,0,1,1,18925.2,-0.0996711,-0.100062,-14.4883,10,-0.00335677,10,0.00144973,-1.83898,-0.013762,-4.28717,2182.03,-0.1000618,
2,0,0,1,1,18925.2,-0.0976826,-0.0981256,-11.0418,10,-0.00348138,10,0.00108348,-1.95696,-0.0174429,-3.38247,1486.68,-0.0981256,
2,0,0,1,1,18925.2,-0.095685,-0.0960705,-8.55456,10,-0.00357858,10,0.000821841,-2.0678,-0.0177657,-3.321,1112.25,-0.0960705,
2,0,0,1,1,18925.2,-0.0936874,-0.0940576,-6.51718,10,-0.00365342,10,0.000612991,-2.18594,-0.0158006,-3.73403,946.457,-0.0940576,
2,0,0,1,1,18925.2,-0.0916898,-0.0920988,-4.79547,10,-0.00370956,10,0.000441657,-2.31917,-0.0135033,-4.3693,807.054,-0.0920988,
2,0,0,1,1,18925.2,-0.0897013,-0.0900817,-3.30844,10,-0.00374931,10,0.00029803,-2.48038,-0.0104639,-5.63843,703.452,-0.0900817,
2,0,0,1,1,18925.3,-0.0877037,-0.0881253,-2.00032,10,-0.00377553,10,0.000176279,-2.6989,-0.00670275,-8.80235,616.253,-0.0881253,
2,0,0,1,1,18925.3,-0.0857062,-0.086063,-0.831872,10,-0.00378943,10,7.15933e-05,-3.07994,-0.00385265,-15.3141,545.927,-0.08606299,
2,1,0,1,1,18925.3,-0.0837086,-0.0841256,0.183206,10,-0.00379241,10,-1.54124e-05,-3.73706,0.029637,1.99075,496.734,-0.0841256,
2,1,0,1,1,18925.3,-0.0817019,-0.0821119,1.13076,10,-0.00378557,10,-9.28492e-05,-2.94663,0.00393557,14.9915,439.203,-0.08211191,
2,1,0,1,1,18925.3,-0.0797043,-0.0800713,1.96388,10,-0.00376991,10,-0.00015725,-2.70689,0.0105818,5.57561,393.802,-0.0800713,
2,1,0,1,1,18925.3,-0.0777067,-0.0780819,2.71779,10,-0.00374634,10,-0.00021221,-2.56578,0.0166405,3.54557,361.334,-0.0780819,
2,1,0,1,1,18925.3,-0.0757091,-0.0761315,3.38746,10,-0.00371566,10,-0.000257893,-2.47013,0.0229692,2.56866,334.373,-0.0761315,
2,1,0,1,1,18925.3,-0.0737025,-0.0741265,4.04038,10,-0.00367843,10,-0.000299499,-2.39358,0.0301255,1.95847,302.903,-0.0741265,
2,1,0,1,1,18925.3,-0.0717049,-0.0721275,4.60029,10,-0.00363509,10,-0.000331807,-2.33721,0.0388707,1.51785,270.368,-0.0721275,
2,1,0,1,1,18925.3,-0.0697073,-0.0700912,5.13138,10,-0.00358636,10,-0.000359664,-2.28977,0.0472,1.25,247.998,-0.07009124,
2,1,0,1,1,18925.4,-0.0677097,-0.0680975,5.59973,10,-0.00353261,10,-0.000381327,-2.25183,0.0553125,1.06667,232.204,-0.0680975,
2,1,0,1,1,18925.4,-0.0657212,-0.066136,6.04979,10,-0.00347489,10,-0.000400109,-2.21826,0.0661762,0.89156,209.048,-0.06613604,
2,1,0,1,1,18925.4,-0.0637236,-0.0640985,6.43571,10,-0.00341238,10,-0.000412519,-2.1914,0.0784763,0.751819,188.446,-0.0640985,
2,1,0,1,1,18925.4,-0.061726,-0.0620999,6.81039,10,-0.00334612,10,-0.000422924,-2.16683,0.0881483,0.669326,177.165,-0.0620999,
2,1,0,1,1,18925.4,-0.0597284,-0.0601172,7.14106,10,-0.00327629,10,-0.0004293,-2.14624,0.102805,0.573901,159.604,-0.0601172,
2,1,0,1,1,18925.4,-0.0577399,-0.0580853,7.45113,10,-0.00320405,10,-0.000432801,-2.12778,0.119021,0.495711,143.676,-0.0580853,
2,1,0,1,1,18925.4,-0.0557423,-0.0560898,7.71969,10,-0.00312813,10,-0.000432996,-2.1124,0.134722,0.437938,131.793,-0.0560898,
2,1,0,1,1,18925.4,-0.0537448,-0.0540952,7.977,10,-0.00304956,10,-0.000431517,-2.09816,0.148047,0.398522,123.795,-0.05409519,
2,1,0,1,1,18925.4,-0.0517472,-0.0521752,8.20431,10,-0.00296856,10,-0.000428061,-2.08596,0.165089,0.357383,114.379,-0.0521752,
2,1,0,1,1,18925.4,-0.049745,-0.0501484,8.42842,10,-0.00288539,10,-0.000422672,-2.07425,0.187195,0.31518,103.483,-0.05014845,
2,1,0,1,1,18925.5,-0.0477429,-0.0481096,8.62503,10,-0.00280004,10,-0.000414946,-2.06424,0.212808,0.277246,93.2089,-0.0481096,
2,1,0,1,1,18925.5,-0.0457453,-0.0461271,8.80325,10,-0.00271287,10,-0.000406068,-2.05536,0.246274,0.239571,82.1638,-0.0461271,
2,1,0,1,1,18925.5,-0.0437477,-0.0441212,8.95273,10,-0.00262407,10,-0.000395005,-2.04804,0.272575,0.216455,75.6328,-0.0441212,
2,1,0,1,1,18925.5,-0.0417501,-0.0421387,9.1049,10,-0.00253376,10,-0.000383669,-2.04072,0.291173,0.202629,71.9375,-0.0421387,
2,1,0,1,1,18925.5,-0.0397435,-0.0400929,9.24251,10,-0.00244193,10,-0.000370559,-2.03421,0.332069,0.177674,64.0195,-0.0400929,
2,1,0,1,1,18925.5,-0.0377459,-0.0381295,9.36157,10,-0.00234894,10,-0.000356952,-2.02865,0.383698,0.153767,56.1272,-0.0381295,
2,1,0,1,1,18925.5,-0.0357483,-0.0361427,9.46423,10,-0.00225481,10,-0.000342063,-2.02391,0.428382,0.137728,50.863,-0.0361427,
2,1,0,1,1,18925.5,-0.0337507,-0.0341368,9.56465,10,-0.00215963,10,-0.000326506,-2.01933,0.482146,0.122369,45.6324,-0.0341368,
2,1,0,1,1,18925.5,-0.0317622,-0.0321455,9.64663,10,-0.00206448,10,-0.000310096,-2.01562,0.533981,0.110491,41.6027,-0.0321455,
2,1,0,1,1,18925.5,-0.0297646,-0.0301246,9.73156,10,-0.0019676,10,-0.00029316,-2.01182,0.617738,0.0955097,36.229,-0.0301246,
2,1,0,1,1,18925.6,-0.027767,-0.0281117,9.79277,10,-0.00186996,10,-0.000275291,-2.00909,0.750908,0.0785715,30.0232,-0.0281117,
2,1,0,1,1,18925.6,-0.0257694,-0.026156,9.85071,10,-0.00177171,10,-0.000257656,-2.00653,0.793062,0.0743952,28.597,-0.02615604,
2,1,0,1,1,18925.6,-0.0237809,-0.0241402,9.90634,10,-0.00167389,10,-0.000239141,-2.00409,0.85489,0.0690147,26.6744,-0.0241402,
2,1,0,1,1,18925.6,-0.0217833,-0.0221907,9.95649,10,-0.00157453,10,-0.000220942,-2.00189,1.13333,0.0520591,20.2074,-0.0221907,
2,1,0,1,1,18925.6,-0.0197858,-0.0202065,9.98583,10,-0.00147474,10,-0.000201779,-2.00062,1.20963,0.0487751,19.0255,-0.0202065,
2,1,0,1,1,18925.6,-0.0177882,-0.0181555,10.0333,10,-0.00137468,10,-0.000182159,-1.99856,1.09184,0.054037,21.1489,-0.0181555,
2,1,0,1,1,18925.6,-0.0157815,-0.0161739,10.0711,10,-0.00127418,10,-0.000162889,-1.99692,1.51783,0.0388713,15.2667,-0.0161739,
2,1,0,1,1,18925.6,-0.0137839,-0.014174,10.094,10,-0.0011734,10,-0.000143073,-1.99593,2.8713,0.0205482,8.08934,-0.014174,
2,1,0,1,1,18925.6,-0.0117863,-0.0121603,10.1036,10,-0.00107243,10,-0.000122863,-1.99552,2.12512,0.0277631,10.9607,-0.0121603,
2,1,0,1,1,18925.6,-0.00978874,-0.01017,10.1379,10,-0.000971228,10,-0.000103103,-1.99405,1.78658,0.0330239,13.0557,-0.01017,
2,1,0,1,1,18925.7,-0.00778207,-0.00811469,10.1564,10,-0.000869775,10,-8.2416e-05,-1.99326,4.11301,0.0143447,5.68185,-0.00811469,
2,1,0,1,1,18925.7,-0.00578449,-0.0061834,10.1606,10,-0.000768204,10,-6.28269e-05,-1.99308,5.05073,0.0116815,4.63437,-0.0061834,
2,1,0,1,1,18925.7,-0.0037869,-0.00418443,10.1746,10,-0.000666509,10,-4.2575e-05,-1.99248,2.87197,0.0205434,8.15931,-0.00418443,
2,1,0,1,1,18925.7,-0.00178931,-0.00217072,10.1933,10,-0.000564693,10,-2.21269e-05,-1.99168,-26.311,-0.0022424,-0.890274,-0.00217072,
2,1,0,1,1,18925.7,-2.55332e-05,-0.000401673,10.1712,10,-0.000476029,10,-4.08551e-06,-1.99263, , , ,-0.000401673,