File: Figure_codes/Fig_3-5/rawdata_trumpetplot_data/after 10th/20221101_1-115_003_TrumpetPlot_ParaChange_from10_every3_09_CV_C01_34.csv
mode,ox/red,error,control changes,counter inc.,time/s,control/V,Ewe/V,<I>/mA,cycle number,(Q-Qo)/C,I Range,P/W,log(|I|),Tafel slope mV/dec,alpha_eff,dI/d(E-IR),E-IR/V,
2,0,0,0,0,68167,2.44065e-05,-0.000325324,-5.19973,35,0.0000000E+000,10,1.6916e-06,-2.28402, , , ,-0.000325324,
2,0,0,1,0,68167,0.00179726,0.00145312,-3.10453,35,-7.05536e-05,10,-4.51125e-06,-2.508, , , ,0.00145312,
2,0,0,1,0,68167,0.00379485,0.00347762,-1.64714,35,-0.000116758,10,-5.72813e-06,-2.78327,-0.00569175,-10.3659,621.058,0.00347762,
2,0,0,1,0,68167,0.00579244,0.00546602,-0.612292,35,-0.0001387,10,-3.3468e-06,-3.21304,-0.00428898,-13.7562,459.461,0.00546602,
2,1,0,1,0,68167,0.00779002,0.00748056,0.192054,35,-0.000142427,10,1.43667e-06,-3.71658,0.0301847,1.95463,360.054,0.00748056,
2,1,0,1,0,68167,0.00978761,0.00947558,0.831366,35,-0.000131847,10,7.87768e-06,-3.08021,0.00474748,12.4276,287.42,0.00947558,
2,1,0,1,0,68167.1,0.0117852,0.0114949,1.34587,35,-0.000109811,10,1.54706e-05,-2.871,0.0121877,4.84095,234.334,0.0114949,
2,1,0,1,0,68167.1,0.0137828,0.0134618,1.76547,35,-7.85798e-05,10,2.37664e-05,-2.75314,0.0199914,2.95127,196.312,0.0134618,
2,1,0,1,0,68167.1,0.0157804,0.0154464,2.12159,35,-3.95388e-05,10,3.27711e-05,-2.67334,0.0285829,2.06417,167.614,0.0154464,
2,1,0,1,0,68167.1,0.017778,0.0174342,2.4313,35,5.93286e-06,10,4.23877e-05,-2.61416,0.0395734,1.4909,139.091,0.01743418,
2,1,0,1,0,68167.1,0.0197755,0.0194699,2.68122,35,5.7072e-05,10,5.2203e-05,-2.57167,0.0520421,1.1337,117.783,0.0194699,
2,1,0,1,0,68167.2,0.0217731,0.0214732,2.90703,35,0.000113082,10,6.24233e-05,-2.53655,0.0624705,0.944446,106.386,0.0214732,
2,1,0,1,0,68167.2,0.0237707,0.0234214,3.1016,35,0.00017329,10,7.26438e-05,-2.50841,0.0754615,0.781855,94.3337,0.0234214,
2,1,0,1,0,68167.2,0.0257683,0.0254664,3.28372,35,0.000236912,10,8.36247e-05,-2.48363,0.0870501,0.677771,86.5511,0.0254664,
2,1,0,1,0,68167.2,0.0277659,0.027432,3.44872,35,0.000304283,10,9.46053e-05,-2.46234,0.101327,0.582274,78.1026,0.027432,
2,1,0,1,0,68167.2,0.0297635,0.0294505,3.59489,35,0.00037475,10,0.000105871,-2.44431,0.117866,0.50057,70.0578,0.0294505,
2,1,0,1,0,68167.3,0.0317611,0.0314065,3.72717,35,0.000448011,10,0.000117057,-2.42862,0.126551,0.466217,67.8469,0.03140647,
2,1,0,1,0,68167.3,0.0337587,0.0334489,3.86617,35,0.000523581,10,0.000129319,-2.41272,0.140039,0.421312,63.3633,0.0334489,
2,1,0,1,0,68167.3,0.0357562,0.0354426,3.98291,35,0.000602087,10,0.000141165,-2.3998,0.161032,0.366387,56.8915,0.03544265,
2,1,0,1,0,68167.3,0.0377538,0.0374439,4.09345,35,0.000682908,10,0.000153275,-2.38791,0.166087,0.355235,56.7642,0.03744391,
2,1,0,1,0,68167.3,0.0397514,0.0394087,4.20804,35,0.000765953,10,0.000165833,-2.37592,0.165661,0.35615,58.5022,0.0394087,
2,1,0,1,0,68167.4,0.041749,0.0414299,4.32664,35,0.000850864,10,0.000179252,-2.36385,0.179919,0.327926,55.2603,0.0414299,
2,1,0,1,0,68167.4,0.0437466,0.0434193,4.42967,35,0.000938413,10,0.000192333,-2.35363,0.202849,0.290857,50.2364,0.0434193,
2,1,0,1,0,68167.4,0.0457442,0.0454009,4.52613,35,0.00102793,10,0.000205491,-2.34427,0.207278,0.284641,50.305,0.0454009,
2,1,0,1,0,68167.4,0.0477418,0.0473752,4.62867,35,0.00111948,10,0.000219284,-2.33454,0.209442,0.2817,50.8804,0.0473752,
2,1,0,1,0,68167.4,0.0497484,0.0494375,4.73151,35,0.00121306,10,0.000233914,-2.325,0.223577,0.263891,48.6702,0.0494375,
2,1,0,1,0,68167.5,0.0517369,0.0513938,4.82426,35,0.00130817,10,0.000247937,-2.31657,0.232645,0.253605,47.7623,0.0513938,
2,1,0,1,0,68167.5,0.0537345,0.0534088,4.92119,35,0.00140566,10,0.000262835,-2.30793,0.24129,0.244519,46.9259,0.0534088,
2,1,0,1,0,68167.5,0.0557321,0.0553893,5.01175,35,0.00150505,10,0.000277597,-2.30001,0.250601,0.235434,46.065,0.0553893,
2,1,0,1,0,68167.5,0.0577206,0.0574403,5.1069,35,0.00160578,10,0.000293342,-2.29184,0.245856,0.239978,47.8401,0.0574403,
2,1,0,1,0,68167.5,0.0597273,0.0594418,5.20562,35,0.00170895,10,0.000309432,-2.28353,0.262082,0.225121,45.6642,0.0594418,
2,1,0,1,0,68167.6,0.0617249,0.061433,5.28923,35,0.00181389,10,0.000324933,-2.27661,0.288588,0.204444,42.1987,0.061433,
2,1,0,1,0,68167.6,0.0637224,0.0634072,5.37296,35,0.00192059,10,0.000340684,-2.26979,0.294176,0.20056,42.0532,0.0634072,
2,1,0,1,0,68167.6,0.06572,0.0654222,5.45699,35,0.00202893,10,0.000357008,-2.26305,0.274455,0.214972,45.8349,0.0654222,
2,1,0,1,0,68167.6,0.0677176,0.0673695,5.55457,35,0.00213862,10,0.000374209,-2.25535,0.296037,0.199299,43.1078,0.0673695,
2,1,0,1,0,68167.6,0.0697152,0.0693986,5.6284,35,0.0022505,10,0.000390603,-2.24962,0.332813,0.177277,38.9654,0.0693986,
2,1,0,1,0,68167.7,0.0717128,0.0713633,5.71019,35,0.0023639,10,0.000407498,-2.24335,0.325366,0.181334,40.4032,0.0713633,
2,1,0,1,0,68167.7,0.0737104,0.0734152,5.79068,35,0.00247892,10,0.000425124,-2.23727,0.338961,0.174062,39.3213,0.0734152,
2,1,0,1,0,68167.7,0.075708,0.0753611,5.86739,35,0.00259501,10,0.000442173,-2.23156,0.356223,0.165626,37.9145,0.0753611,
2,1,0,1,0,68167.7,0.0777056,0.0773835,5.94114,35,0.00271308,10,0.000459746,-2.22613,0.379537,0.155453,36.0355,0.0773835,
2,1,0,1,0,68167.7,0.0797031,0.0793937,6.01271,35,0.00283261,10,0.000477371,-2.22093,0.385116,0.1532,35.9493,0.0793937,
2,1,0,1,0,68167.8,0.0817007,0.0813784,6.08475,35,0.00295357,10,0.000495167,-2.21576,0.404729,0.145777,34.599,0.0813784,
2,1,0,1,0,68167.8,0.0836983,0.0833863,6.15084,35,0.00307529,10,0.000512896,-2.21107,0.437003,0.135011,32.398,0.0833863,
2,1,0,1,0,68167.8,0.0856959,0.0853431,6.2132,35,0.00319894,10,0.000530254,-2.20668,0.45405,0.129942,31.5092,0.0853431,
2,1,0,1,0,68167.8,0.0876935,0.0873676,6.27629,35,0.00332387,10,0.000548345,-2.2023,0.478088,0.123408,30.2165,0.0873676,
2,1,0,1,0,68167.8,0.0896911,0.0893722,6.33495,35,0.00344997,10,0.000566168,-2.19826,0.470421,0.125419,31.0244,0.0893722,
2,1,0,1,0,68167.9,0.0916887,0.0913797,6.40077,35,0.00357673,10,0.0005849,-2.19377,0.44831,0.131605,32.877,0.0913797,
2,1,0,1,0,68167.9,0.0936863,0.0934099,6.46769,35,0.00370547,10,0.000604146,-2.18925,0.471523,0.125127,31.5595,0.0934099,
2,1,0,1,0,68167.9,0.0956838,0.0953199,6.52512,35,0.00383543,10,0.000621974,-2.18541,0.473762,0.124535,31.7373,0.0953199,
2,1,0,1,0,68167.9,0.0976814,0.0973501,6.59274,35,0.00396667,10,0.000641804,-2.18093,0.398256,0.148146,38.1693,0.0973501,
2,1,0,1,0,68167.9,0.099679,0.0993524,6.67903,35,0.00409876,10,0.000663578,-2.17529,0.38476,0.153342,39.9312,0.0993524,
2,1,0,1,0,68168,0.101677,0.101359,6.75283,35,0.00423311,10,0.00068446,-2.17051,0.387465,0.152272,40.1668,0.101359,
2,1,0,1,0,68168,0.103674,0.103351,6.83965,35,0.00436908,10,0.000706886,-2.16497,0.335936,0.175628,46.9225,0.103351,
2,1,0,1,0,68168,0.105672,0.105339,6.93956,35,0.00450693,10,0.000731005,-2.15867,0.308939,0.190976,51.7534,0.105339,
2,1,0,1,0,68168,0.107667,0.107395,7.04895,35,0.00464609,10,0.000757023,-2.15188,0.298593,0.197593,54.3513,0.107395,
2,1,0,1,0,68168,0.109667,0.109355,7.15784,35,0.00478817,10,0.000782744,-2.14522,0.284338,0.2075,58.0099,0.109355,
2,1,0,1,0,68168.1,0.111665,0.111364,7.27915,35,0.00493255,10,0.000810633,-2.13792,0.270397,0.218198,61.9965,0.111364,
2,1,0,1,0,68168.1,0.113662,0.11333,7.40427,35,0.00507941,10,0.000839124,-2.13052,0.267713,0.220385,63.6786,0.11333,
2,1,0,1,0,68168.1,0.11566,0.115297,7.52962,35,0.00522874,10,0.000868142,-2.12323,0.259758,0.227134,66.816,0.115297,
2,1,0,1,0,68168.1,0.117657,0.117345,7.67256,35,0.00538014,10,0.000900337,-2.11506,0.261812,0.225353,67.4099,0.117345,
2,1,0,1,0,68168.1,0.119655,0.11933,7.80147,35,0.00553492,10,0.000930947,-2.10782,0.292186,0.201926,61.4372,0.11933,
2,1,0,1,0,68168.2,0.121652,0.121387,7.92086,35,0.00569222,10,0.000961487,-2.10123,0.295667,0.199549,61.7137,0.121387,
2,1,0,1,0,68168.2,0.12365,0.123336,8.04869,35,0.00585196,10,0.000992689,-2.09428,0.299349,0.197095,61.8518,0.123336,
2,1,0,1,0,68168.2,0.125648,0.125293,8.16249,35,0.00601335,10,0.0010227,-2.08818,0.340991,0.173025,55.0873,0.125293,
2,1,0,1,0,68168.2,0.127645,0.127319,8.26812,35,0.00617768,10,0.00105269,-2.08259,0.360516,0.163654,52.8095,0.127319,
2,1,0,1,0,68168.2,0.129643,0.129321,8.37519,35,0.00634415,10,0.00108309,-2.07701,0.391334,0.150766,49.2306,0.129321,
2,1,0,1,0,68168.3,0.13164,0.13135,8.46656,35,0.00651265,10,0.00111208,-2.07229,0.444658,0.132686,43.8228,0.13135,
2,1,0,1,0,68168.3,0.133638,0.133329,8.55086,35,0.00668211,10,0.00114008,-2.06799,0.501724,0.117594,39.2109,0.133329,
2,1,0,1,0,68168.3,0.135636,0.135306,8.62169,35,0.00685388,10,0.00116657,-2.06441,0.586083,0.100668,33.8574,0.135306,
2,1,0,1,0,68168.3,0.137633,0.137295,8.68512,35,0.00702701,10,0.00119242,-2.06122,0.689145,0.0856133,29.0003,0.137295,
2,1,0,1,0,68168.3,0.139631,0.139305,8.73766,35,0.00720133,10,0.0012172,-2.0586,0.76061,0.0775694,26.4509,0.139305,
2,1,0,1,0,68168.4,0.141628,0.141263,8.79008,35,0.00737576,10,0.00124171,-2.05601,1.01266,0.0582625,19.9574,0.1412631,
2,1,0,1,0,68168.4,0.143626,0.143264,8.81667,35,0.00755187,10,0.00126311,-2.0547,2.10294,0.028056,9.64605,0.143264,
2,1,0,1,0,68168.4,0.145623,0.145329,8.8293,35,0.0077284,10,0.00128315,-2.05407,-21.9503,-0.0026879,-0.924673,0.145329,
2,1,0,1,0,68168.4,0.147621,0.147312,8.81292,35,0.00790488,10,0.00129825,-2.05488,-1.71693,-0.0343636,-11.8093,0.147312,
2,1,0,1,0,68168.4,0.149619,0.149327,8.78209,35,0.00808,10,0.0013114,-2.0564,-0.751049,-0.0785568,-26.8554,0.149327,
2,1,0,1,0,68168.5,0.151616,0.151275,8.7065,35,0.00825501,10,0.00131708,-2.06016,-0.442182,-0.133429,-45.2636,0.151275,
2,1,0,1,0,68168.5,0.153614,0.15328,8.60315,35,0.00842819,10,0.00131869,-2.06534,-0.320429,-0.184128,-61.6707,0.15328,
2,1,0,1,0,68168.5,0.155611,0.15529,8.45892,35,0.00859885,10,0.00131358,-2.07269,-0.257922,-0.228751,-75.4371,0.15529,
2,1,0,1,0,68168.5,0.157609,0.157316,8.29871,35,0.00876559,10,0.00130552,-2.08099,-0.197455,-0.298802,-96.3858,0.157316,
2,1,0,1,0,68168.5,0.159607,0.159274,8.07493,35,0.00892935,10,0.00128612,-2.09286,-0.161728,-0.36481,-114.854,0.159274,
2,1,0,1,0,68168.6,0.161604,0.161311,7.83983,35,0.00908852,10,0.00126465,-2.10569,-0.144737,-0.407636,-124.47,0.161311,
2,1,0,1,0,68168.6,0.163602,0.163264,7.57828,35,0.0092427,10,0.00123726,-2.12043,-0.130636,-0.451638,-133.438,0.163264,
2,1,0,1,0,68168.6,0.165606,0.165301,7.3074,35,0.00939151,10,0.00120792,-2.13624,-0.124675,-0.473231,-134.896,0.165301,
2,1,0,1,0,68168.6,0.167597,0.167281,7.03641,35,0.00953418,10,0.00117706,-2.15265,-0.118562,-0.49763,-136.6,0.167281,
2,1,0,1,0,68168.6,0.169595,0.169258,6.76681,35,0.00967216,10,0.00114534,-2.16962,-0.116641,-0.505824,-133.571,0.169258,
2,1,0,1,0,68168.7,0.171592,0.171273,6.50311,35,0.00980485,10,0.00111381,-2.18688,-0.120821,-0.488326,-124.121,0.1712734,
2,1,0,1,0,68168.7,0.173581,0.173299,6.26535,35,0.00993184,10,0.00108578,-2.20305,-0.125171,-0.471356,-115.337,0.173299,
2,1,0,1,0,68168.7,0.175587,0.17527,6.04219,35,0.010055,10,0.00105901,-2.21881,-0.127842,-0.461506,-108.95,0.17527,
2,1,0,1,0,68168.7,0.177585,0.177224,5.83772,35,0.0101737,10,0.00103458,-2.23376,-0.133104,-0.443261,-101.007,0.177224,
2,1,0,1,0,68168.7,0.179582,0.179249,5.64021,35,0.0102885,10,0.001011,-2.2487,-0.14381,-0.410263,-90.5265,0.179249,
2,1,0,1,0,68168.8,0.18158,0.181241,5.47403,35,0.0103996,10,0.000992119,-2.26169,-0.157858,-0.373754,-79.9257,0.181241,
2,1,0,1,0,68168.8,0.183578,0.183234,5.32177,35,0.0105071,10,0.000975127,-2.27394,-0.169091,-0.348925,-72.5281,0.183234,
2,1,0,1,0,68168.8,0.185575,0.185283,5.1809,35,0.0106122,10,0.000959931,-2.28559,-0.179144,-0.329343,-66.6543,0.185283,
2,1,0,1,0,68168.8,0.187573,0.187279,5.05216,35,0.0107145,10,0.000946161,-2.29652,-0.188752,-0.312579,-61.7056,0.187279,
2,1,0,1,0,68168.8,0.18957,0.189226,4.93758,35,0.0108144,10,0.000934318,-2.30649,-0.211496,-0.278966,-53.8235,0.189226,
2,1,0,1,0,68168.9,0.191568,0.191277,4.83692,35,0.0109117,10,0.000925194,-2.31543,-0.233562,-0.25261,-47.7202,0.191277,
2,1,0,1,0,68168.9,0.193566,0.193269,4.74466,35,0.0110075,10,0.000916994,-2.32379,-0.238244,-0.247645,-45.8575,0.193269,
2,1,0,1,0,68168.9,0.195563,0.19527,4.65384,35,0.0111015,10,0.000908755,-2.33219,-0.24239,-0.243409,-44.2345,0.19527,
2,1,0,1,0,68168.9,0.197561,0.197229,4.56946,35,0.0111938,10,0.000901232,-2.34013,-0.283826,-0.207874,-37.1553,0.197229,
2,1,0,1,0,68168.9,0.199558,0.199228,4.50678,35,0.0112841,10,0.000897876,-2.34613,-0.315886,-0.186776,-32.8248,0.199228,
2,1,0,1,0,68169,0.201556,0.20125,4.43748,35,0.0113736,10,0.000893044,-2.35286,-0.312241,-0.188957,-32.7528,0.20125,
2,1,0,1,0,68169,0.203554,0.203199,4.37671,35,0.0114618,10,0.000889344,-2.35885,-0.34341,-0.171806,-29.361,0.203199,
2,1,0,1,0,68169,0.205551,0.205221,4.3209,35,0.0115487,10,0.000886738,-2.36443,-0.430007,-0.137207,-23.1831,0.2052206,
2,1,0,1,0,68169,0.207549,0.207263,4.2825,35,0.0116343,10,0.000887603,-2.3683,-0.439134,-0.134355,-22.4196,0.2072631,
2,1,0,1,0,68169,0.209546,0.209237,4.23085,35,0.0117195,10,0.000885252,-2.37357,-0.381757,-0.154549,-25.5213,0.209237,
2,1,0,1,0,68169.1,0.211544,0.211258,4.18053,35,0.0118036,10,0.000883172,-2.37877,-0.444752,-0.132658,-21.6775,0.211258,
2,1,0,1,0,68169.1,0.213541,0.213262,4.14361,35,0.011887,10,0.000883673,-2.38262,-0.567685,-0.103931,-16.8221,0.213262,
2,1,0,1,0,68169.1,0.215539,0.215192,4.11437,35,0.0119691,10,0.000885377,-2.3857,-0.528036,-0.111735,-17.9146,0.215192,
2,1,0,1,0,68169.1,0.217537,0.2172,4.07305,35,0.012051,10,0.000884668,-2.39008,-0.504613,-0.116921,-18.6027,0.2172,
2,1,0,1,0,68169.1,0.219534,0.219219,4.03945,35,0.0121321,10,0.000885523,-2.39368,-0.636895,-0.0926369,-14.6191,0.219219,
2,1,0,1,0,68169.2,0.221532,0.221215,4.01436,35,0.0122128,10,0.000888037,-2.39638,-0.708987,-0.0832173,-13.0343,0.221215,
2,1,0,1,0,68169.2,0.223525,0.223211,3.98741,35,0.0122924,10,0.000890035,-2.39931,-0.676279,-0.0872421,-13.5751,0.223211,
2,1,0,1,0,68169.2,0.225527,0.225229,3.95987,35,0.0123719,10,0.000891878,-2.40232,-0.698445,-0.0844734,-13.0592,0.225229,
2,1,0,1,0,68169.2,0.227525,0.227206,3.93524,35,0.012451,10,0.000894111,-2.40503,-0.76137,-0.0774919,-11.9034,0.227206,
2,1,0,1,0,68169.2,0.229522,0.229237,3.91217,35,0.0125295,10,0.000896812,-2.40758,-0.825328,-0.0714867,-10.9183,0.229237,
2,1,0,1,0,68169.3,0.23152,0.231181,3.89184,35,0.0126076,10,0.00089972,-2.40984,-1.09797,-0.0537355,-8.17031,0.231181,
2,1,0,1,0,68169.3,0.233517,0.233201,3.87977,35,0.0126851,10,0.000904768,-2.41119,-1.11453,-0.0529369,-8.00658,0.233201,
2,1,0,1,0,68169.3,0.235515,0.235264,3.85915,35,0.0127625,10,0.000907919,-2.41351,-0.897477,-0.0657398,-9.90291,0.235264,
2,1,0,1,0,68169.3,0.237512,0.237218,3.84,35,0.0128395,10,0.000910916,-2.41567,-0.983418,-0.0599948,-8.99456,0.237218,
2,1,0,1,0,68169.3,0.23951,0.239179,3.82393,35,0.0129162,10,0.000914606,-2.41749,-1.2797,-0.0461044,-6.88438,0.239179,
2,1,0,1,0,68169.4,0.241508,0.241245,3.81227,35,0.0129923,10,0.000919692,-2.41882,-1.18557,-0.0497652,-7.39807,0.241245,
2,1,0,1,0,68169.4,0.243505,0.243169,3.79442,35,0.0130684,10,0.000922684,-2.42085,-1.1895,-0.0496005,-7.35115,0.243169,
2,1,0,1,0,68169.4,0.245503,0.245241,3.7829,35,0.0131442,10,0.000927722,-2.42218,-1.45563,-0.0405322,-5.98318,0.245241,
2,1,0,1,0,68169.4,0.2475,0.24718,3.77042,35,0.0132197,10,0.000931973,-2.42361,-1.52263,-0.0387487,-5.70354,0.24718,
2,1,0,1,0,68169.4,0.249498,0.249206,3.76028,35,0.0132947,10,0.000937087,-2.42478,-1.3753,-0.0428998,-6.29154,0.2492065,
2,1,0,1,0,68169.5,0.251496,0.251177,3.74527,35,0.0133698,10,0.000940727,-2.42652,-1.22739,-0.0480694,-7.02775,0.251177,
2,1,0,1,0,68169.5,0.253493,0.253226,3.73203,35,0.0134447,10,0.000945048,-2.42805,-1.45105,-0.0406601,-5.92423,0.253226,
2,1,0,1,0,68169.5,0.255491,0.255194,3.72148,35,0.0135192,10,0.000949698,-2.42928,-1.82207,-0.0323808,-4.70448,0.255194,
2,1,0,1,0,68169.5,0.257488,0.257181,3.71343,35,0.0135933,10,0.000955023,-2.43022,-1.85673,-0.0317764,-4.60378,0.257181,
2,1,0,1,0,68169.5,0.259486,0.259165,3.70319,35,0.0136675,10,0.000959738,-2.43142,-1.38353,-0.0426447,-6.15973,0.259165,
2,1,0,1,0,68169.6,0.261484,0.261173,3.68884,35,0.0137416,10,0.000963424,-2.43311,-1.34738,-0.0437888,-6.30679,0.261173,
2,1,0,1,0,68169.6,0.263481,0.263195,3.67778,35,0.0138153,10,0.000967974,-2.43441,-3.47353,-0.0169856,-2.44205,0.263195,
2,1,0,1,0,68169.6,0.265479,0.265199,3.67901,35,0.0138886,10,0.000975668,-2.43427,-2.21761,-0.0266053,-3.81085,0.265199,
2,1,0,1,0,68169.6,0.267476,0.267166,3.66264,35,0.0139621,10,0.000978534,-2.43621,-1.13412,-0.0520227,-7.43936,0.267166,
2,1,0,1,0,68169.6,0.269474,0.269174,3.64943,35,0.0140353,10,0.000982334,-2.43777,-2.02493,-0.0291368,-4.15536,0.269174,
2,1,0,1,0,68169.7,0.271471,0.271181,3.64596,35,0.0141084,10,0.000988714,-2.43819,-5.23669,-0.0112666,-1.60326,0.271181,
2,1,0,1,0,68169.7,0.273469,0.273144,3.64307,35,0.0141809,10,0.000995083,-2.43853,-1.91854,-0.0307526,-4.36541,0.273144,
2,1,0,1,0,68169.7,0.275467,0.275143,3.62866,35,0.0142537,10,0.000998402,-2.44025,-1.49784,-0.0393901,-5.58327,0.275143,
2,1,0,1,0,68169.7,0.277464,0.27713,3.62081,35,0.0143262,10,0.00100344,-2.44119,-1.79861,-0.032803,-4.63362,0.27713,
2,1,0,1,0,68169.7,0.279462,0.279118,3.61025,35,0.0143986,10,0.00100768,-2.44246,-2.08738,-0.0282652,-3.98531,0.279118,
2,1,0,1,0,68169.8,0.281464,0.281136,3.60485,35,0.0144708,10,0.00101345,-2.44311,-2.75142,-0.0214435,-3.0162,0.281136,
2,1,0,1,0,68169.8,0.283457,0.28317,3.59803,35,0.0145426,10,0.00101885,-2.44394,-2.55255,-0.0231141,-3.246,0.28317,
2,1,0,1,0,68169.8,0.285455,0.285117,3.59193,35,0.0146145,10,0.00102412,-2.44467,-1.61066,-0.036631,-5.12902,0.285117,
2,1,0,1,0,68169.8,0.287452,0.287174,3.57749,35,0.0146862,10,0.00102736,-2.44642,-1.46723,-0.0402118,-5.61926,0.287174,
2,1,0,1,0,68169.8,0.28945,0.289126,3.5694,35,0.0147577,10,0.00103201,-2.44741,-1.96681,-0.0299979,-4.17851,0.289126,
2,1,0,1,0,68169.9,0.291447,0.291153,3.56086,35,0.0148288,10,0.00103676,-2.44845,-1.6587,-0.0355699,-4.94121,0.291153,
2,1,0,1,0,68169.9,0.293445,0.293136,3.54959,35,0.0149,10,0.00104051,-2.44982,-1.89155,-0.0311914,-4.32414,0.293136,
2,1,0,1,0,68169.9,0.295442,0.295141,3.54362,35,0.014971,10,0.00104587,-2.45055,-2.98707,-0.0197518,-2.73199,0.295141,
2,1,0,1,0,68169.9,0.29744,0.297133,3.53866,35,0.0150418,10,0.00105145,-2.45116,-2.04695,-0.0288233,-3.97715,0.297133,
2,1,0,1,0,68169.9,0.299438,0.299163,3.52762,35,0.0151122,10,0.00105533,-2.45252,-0.0386641,-1.52596,-196.857,0.299163,
2,1,0,1,0,68170,0.299737,0.299448,3.0829,35,0.0151412,10,0.000923169,-2.51104,0.00462894,12.7459,1175.7,0.299448,
2,1,0,1,0,68170,0.29774,0.297429,1.48896,35,0.0151845,10,0.000442862,-2.82712,0.00559512,10.5449,622.373,0.297429,
2,1,0,1,0,68170,0.295742,0.295451,0.59498,35,0.0152047,10,0.000175787,-3.2255,0.00124761,47.2904,375.647,0.2954509,
2,1,0,1,0,68170,0.293745,0.293468,0.000995294,35,0.0152102,10,2.92087e-07,-6.00205,0.0265277,2.22409,251.793,0.2934683,
2,0,0,1,0,68170,0.291747,0.291422,-0.419408,35,0.0152058,10,-0.000122225,-3.37736,-0.00140447,-42.0086,183.175,0.291422,
2,0,0,1,0,68170.1,0.289754,0.289438,-0.737269,35,0.0151942,10,-0.000213394,-3.13237,-0.010933,-5.39651,138.678,0.289438,
2,0,0,1,0,68170.1,0.287752,0.287419,-0.974639,35,0.015177,10,-0.000280129,-3.01116,-0.0202707,-2.91061,105.968,0.287419,
2,0,0,1,0,68170.1,0.285754,0.285445,-1.16037,35,0.0151556,10,-0.000331221,-2.9354,-0.0305182,-1.93327,85.837,0.285445,
2,0,0,1,0,68170.1,0.283757,0.283419,-1.31795,35,0.0151307,10,-0.000373532,-2.8801,-0.0414944,-1.42188,72.1062,0.283419,
2,0,0,1,0,68170.1,0.281759,0.28144,-1.44914,35,0.015103,10,-0.000407847,-2.83889,-0.0547726,-1.07718,60.299,0.28144,
2,0,0,1,0,68170.2,0.279761,0.279447,-1.55743,35,0.015073,10,-0.000435219,-2.80759,-0.0700964,-0.841698,50.8843,0.279447,
2,0,0,1,0,68170.2,0.277764,0.277425,-1.65344,35,0.0150408,10,-0.000458707,-2.78161,-0.0842895,-0.699969,44.9492,0.277425,
2,0,0,1,0,68170.2,0.275766,0.275459,-1.73669,35,0.0150069,10,-0.000478386,-2.76028,-0.1026,-0.57505,38.8459,0.275459,
2,0,0,1,0,68170.2,0.273769,0.273375,-1.81078,35,0.0149713,10,-0.000495021,-2.74214,-0.11505,-0.512819,36.1927,0.273375,
2,0,0,1,0,68170.2,0.271771,0.271443,-1.88205,35,0.0149345,10,-0.00051087,-2.72537,-0.125501,-0.470117,34.4502,0.271443,
2,0,0,1,0,68170.3,0.269773,0.269444,-1.94622,35,0.0148962,10,-0.000524397,-2.71081,-0.151669,-0.389005,29.461,0.269444,
2,0,0,1,0,68170.3,0.267776,0.26743,-2.00028,35,0.0148567,10,-0.000534936,-2.69891,-0.174932,-0.337275,26.3054,0.26743,
2,0,0,1,0,68170.3,0.265778,0.265436,-2.05165,35,0.0148163,10,-0.000544581,-2.6879,-0.176496,-0.334285,26.7842,0.265436,
2,0,0,1,0,68170.3,0.263781,0.263456,-2.10673,35,0.0147749,10,-0.00055503,-2.67639,-0.197766,-0.298332,24.4545,0.263456,
2,0,0,1,0,68170.3,0.261783,0.26142,-2.14984,35,0.0147323,10,-0.000562013,-2.66759,-0.233678,-0.252485,21.1712,0.26142,
2,0,0,1,0,68170.4,0.259786,0.259478,-2.19094,35,0.0146889,10,-0.000568501,-2.65937,-0.223606,-0.263857,22.5936,0.259478,
2,0,0,1,0,68170.4,0.257788,0.257478,-2.23892,35,0.0146447,10,-0.000576471,-2.64996,-0.231019,-0.25539,22.2765,0.257478,
2,0,0,1,0,68170.4,0.25579,0.255495,-2.27967,35,0.0145998,10,-0.000582444,-2.64213,-0.284272,-0.207548,18.4337,0.255495,
2,0,0,1,0,68170.4,0.253793,0.253456,-2.31306,35,0.0145539,10,-0.000586258,-2.63581,-0.324281,-0.181941,16.42,0.253456,
2,0,0,1,0,68170.4,0.251795,0.251478,-2.34563,35,0.0145073,10,-0.000589874,-2.62974,-0.306592,-0.192438,17.6348,0.251478,
2,0,0,1,0,68170.5,0.249798,0.249462,-2.38349,35,0.01446,10,-0.00059459,-2.62279,-0.318948,-0.184983,17.1804,0.249462,
2,0,0,1,0,68170.5,0.2478,0.247483,-2.41426,35,0.0144122,10,-0.000597489,-2.61722,-0.334922,-0.17616,16.6106,0.247483,
2,0,0,1,0,68170.5,0.245802,0.245519,-2.44898,35,0.0143636,10,-0.000601272,-2.61101,-0.340161,-0.173447,16.5664,0.245519,
2,0,0,1,0,68170.5,0.243805,0.24347,-2.48075,35,0.0143143,10,-0.000603987,-2.60542,-0.417527,-0.141308,13.6562,0.24347,
2,0,0,1,0,68170.5,0.241807,0.241507,-2.50377,35,0.0142644,10,-0.000604678,-2.60141,-0.374154,-0.157689,15.4561,0.241507,
2,0,0,1,0,68170.6,0.23981,0.239473,-2.54253,35,0.0142142,10,-0.000608866,-2.59473,-0.37535,-0.157187,15.549,0.239473,
2,0,0,1,0,68170.6,0.237812,0.237514,-2.56586,35,0.0141631,10,-0.000609428,-2.59077,-0.484647,-0.121738,12.1942,0.237514,
2,0,0,1,0,68170.6,0.235815,0.235508,-2.59087,35,0.0141116,10,-0.000610171,-2.58655,-0.467984,-0.126073,12.7495,0.235508,
2,0,0,1,0,68170.6,0.233817,0.233517,-2.61682,35,0.0140595,10,-0.000611072,-2.58223,-0.403867,-0.146088,14.9412,0.2335173,
2,0,0,1,0,68170.6,0.231815,0.231507,-2.65065,35,0.0140068,10,-0.000613645,-2.57665,-0.385719,-0.152961,15.8107,0.231507,
2,0,0,1,0,68170.7,0.229822,0.229489,-2.68051,35,0.0139538,10,-0.000615147,-2.57178,-0.536493,-0.109974,11.4747,0.229489,
2,0,0,1,0,68170.7,0.227824,0.227504,-2.69659,35,0.0139001,10,-0.000613484,-2.56919,-0.565298,-0.10437,11.0072,0.227504,
2,0,0,1,0,68170.7,0.225827,0.225512,-2.72428,35,0.0138458,10,-0.000614358,-2.56475,-0.500775,-0.117817,12.5148,0.225512,
2,0,0,1,0,68170.7,0.223829,0.223469,-2.74708,35,0.0137911,10,-0.000613888,-2.56113,-0.488736,-0.12072,12.956,0.223469,
2,0,0,1,0,68170.7,0.221831,0.221532,-2.77585,35,0.0137361,10,-0.000614939,-2.5566,-0.469971,-0.12554,13.5896,0.221532,
2,0,0,1,0,68170.8,0.219834,0.219536,-2.80053,35,0.0136804,10,-0.000614817,-2.55276,-0.531962,-0.11091,12.1217,0.219536,
2,0,0,1,0,68170.8,0.217836,0.217461,-2.8252,35,0.0136241,10,-0.00061437,-2.54895,-0.60698,-0.0972025,10.7055,0.217461,
2,0,0,1,0,68170.8,0.215839,0.215502,-2.84371,35,0.0135674,10,-0.000612827,-2.54611,-0.557533,-0.105823,11.7642,0.215502,
2,0,0,1,0,68170.8,0.213841,0.213486,-2.87196,35,0.0135105,10,-0.000613123,-2.54182,-0.502491,-0.117415,13.1508,0.213486,
2,0,0,1,0,68170.8,0.211843,0.211509,-2.89623,35,0.0134528,10,-0.000612578,-2.53817,-0.602594,-0.0979101,11.0576,0.211509,
2,0,0,1,0,68170.9,0.209846,0.209523,-2.91578,35,0.0133946,10,-0.000610923,-2.53525,-0.649986,-0.0907712,10.3327,0.209523,
2,0,0,1,0,68170.9,0.207848,0.207526,-2.93739,35,0.0133361,10,-0.000609583,-2.53204,-0.481251,-0.122597,14.0865,0.207526,
2,0,0,1,0,68170.9,0.205851,0.205481,-2.97271,35,0.0132772,10,-0.000610837,-2.52685,-0.513833,-0.114823,13.2826,0.205481,
2,0,0,1,0,68170.9,0.203853,0.203496,-2.99092,35,0.0132175,10,-0.000608639,-2.5242,-0.628607,-0.0938583,10.9677,0.203496,
2,0,0,1,0,68170.9,0.201856,0.201556,-3.01576,35,0.0131575,10,-0.000607846,-2.5206,-0.607757,-0.0970783,11.4181,0.201556,
2,0,0,1,0,68171,0.199858,0.199487,-3.03669,35,0.0130969,10,-0.00060578,-2.5176,-0.563573,-0.104689,12.4234,0.199487,
2,0,0,1,0,68171,0.19786,0.197528,-3.06581,35,0.0130362,10,-0.000605582,-2.51345,-0.557123,-0.105901,12.6536,0.197528,
2,0,0,1,0,68171,0.195863,0.195538,-3.08666,35,0.0129747,10,-0.000603558,-2.51051,-0.602489,-0.097927,11.8075,0.195538,
2,0,0,1,0,68171,0.193865,0.193501,-3.11336,35,0.0129127,10,-0.000602437,-2.50677,-0.542453,-0.108765,13.214,0.193501,
2,0,0,1,0,68171,0.191868,0.19154,-3.13948,35,0.0128501,10,-0.000601337,-2.50314,-0.548844,-0.107499,13.1697,0.19154,
2,0,0,1,0,68171.1,0.18987,0.189574,-3.16507,35,0.0127874,10,-0.000600016,-2.49962,-0.56285,-0.104824,12.9488,0.189574,
2,0,0,1,0,68171.1,0.187872,0.187549,-3.19116,35,0.0127238,10,-0.0005985,-2.49605,-0.55288,-0.106714,13.2919,0.187549,
2,0,0,1,0,68171.1,0.185875,0.185578,-3.21819,35,0.0126597,10,-0.000597225,-2.49239,-0.608805,-0.0969112,12.16,0.185578,
2,0,0,1,0,68171.1,0.183877,0.183599,-3.23919,35,0.0125951,10,-0.000594713,-2.48956,-0.48568,-0.121479,15.403,0.183599,
2,0,0,1,0,68171.1,0.18188,0.181576,-3.27984,35,0.0125303,10,-0.000595538,-2.48415,-0.453412,-0.130125,16.62,0.181576,
2,0,0,1,0,68171.2,0.179882,0.179551,-3.30648,35,0.0124644,10,-0.000593681,-2.48063,-0.573236,-0.102924,13.2822,0.179551,
2,0,0,1,0,68171.2,0.177885,0.177527,-3.33362,35,0.012398,10,-0.000591805,-2.47708,-0.551133,-0.107052,13.9309,0.177527,
2,0,0,1,0,68171.2,0.175887,0.175529,-3.3625,35,0.012331,10,-0.000590218,-2.47334,-0.433431,-0.136123,17.8988,0.175529,
2,0,0,1,0,68171.2,0.173896,0.173535,-3.40506,35,0.0122637,10,-0.000590897,-2.46788,-0.414651,-0.142288,18.8798,0.173535,
2,0,0,1,0,68171.2,0.171892,0.171555,-3.43754,35,0.0121952,10,-0.000589727,-2.46375,-0.487716,-0.120972,16.2282,0.171555,
2,0,0,1,0,68171.3,0.169894,0.169545,-3.46981,35,0.0121262,10,-0.000588289,-2.45969,-0.439373,-0.134282,18.2051,0.169545,
2,0,0,1,0,68171.3,0.167897,0.167553,-3.5104,35,0.0120564,10,-0.000588177,-2.45464,-0.388747,-0.15177,20.7968,0.167553,
2,0,0,1,0,68171.3,0.165899,0.165555,-3.55279,35,0.0119858,10,-0.000588182,-2.44943,-0.384473,-0.153457,21.2739,0.165555,
2,0,0,1,0,68171.3,0.163901,0.163607,-3.59434,35,0.0119146,10,-0.000588059,-2.44438,-0.370809,-0.159111,22.3369,0.163607,
2,0,0,1,0,68171.3,0.161904,0.161567,-3.64188,35,0.0118422,10,-0.000588406,-2.43867,-0.33604,-0.175574,24.9727,0.161567,
2,0,0,1,0,68171.4,0.159906,0.15957,-3.69517,35,0.0117688,10,-0.000589636,-2.43237,-0.330566,-0.178482,25.7242,0.15957,
2,0,0,1,0,68171.4,0.157909,0.15757,-3.7447,35,0.0116944,10,-0.000590051,-2.42658,-0.302427,-0.195089,28.5704,0.15757,
2,0,0,1,0,68171.4,0.155911,0.155536,-3.81042,35,0.0116191,10,-0.000592656,-2.41903,-0.262777,-0.224525,33.3994,0.155536,
2,0,0,1,0,68171.4,0.153913,0.153538,-3.87934,35,0.0115422,10,-0.000595627,-2.41124,-0.26229,-0.224942,34.0334,0.153538,
2,0,0,1,0,68171.4,0.151916,0.151614,-3.9439,35,0.0114639,10,-0.000597948,-2.40407,-0.227319,-0.259547,40.0979,0.151614,
2,0,0,1,0,68171.5,0.149918,0.149558,-4.03893,35,0.0113841,10,-0.000604056,-2.39373,-0.190516,-0.309685,48.8367,0.149558,
2,0,0,1,0,68171.5,0.147921,0.147615,-4.13919,35,0.0113027,10,-0.000611005,-2.38308,-0.1948,-0.302874,48.8833,0.147615,
2,0,0,1,0,68171.5,0.145923,0.145574,-4.23372,35,0.0112189,10,-0.000616317,-2.37328,-0.179247,-0.329154,54.5719,0.145574,
2,0,0,1,0,68171.5,0.143926,0.143584,-4.35913,35,0.0111329,10,-0.000625903,-2.3606,-0.149687,-0.394157,67.145,0.143584,
2,0,0,1,0,68171.5,0.141928,0.141624,-4.4989,35,0.0110443,10,-0.000637153,-2.34689,-0.137429,-0.429314,75.5155,0.141624,
2,0,0,1,0,68171.6,0.13993,0.139622,-4.65838,35,0.0109531,10,-0.000650411,-2.33176,-0.131591,-0.448358,81.5459,0.139622,
2,0,0,1,0,68171.6,0.137933,0.137619,-4.82549,35,0.0108583,10,-0.00066408,-2.31646,-0.12504,-0.471848,89.0423,0.137619,
2,0,0,1,0,68171.6,0.135935,0.135596,-5.0168,35,0.0107599,10,-0.00068026,-2.29957,-0.116825,-0.505028,98.988,0.135596,
2,0,0,1,0,68171.6,0.133938,0.133589,-5.22442,35,0.0106575,10,-0.000697925,-2.28196,-0.11201,-0.526741,107.453,0.133589,
2,0,0,1,0,68171.6,0.13194,0.131629,-5.4431,35,0.0105514,10,-0.00071647,-2.26415,-0.110881,-0.5321,113.042,0.131629,
2,0,0,1,0,68171.7,0.129942,0.129658,-5.66875,35,0.0104402,10,-0.000735001,-2.24651,-0.114233,-0.516489,114.288,0.129658,
2,0,0,1,0,68171.7,0.127945,0.127605,-5.90296,35,0.0103244,10,-0.000753249,-2.22893,-0.116677,-0.505668,116.437,0.127605,
2,0,0,1,0,68171.7,0.125947,0.125631,-6.13774,35,0.010204,10,-0.000771088,-2.21199,-0.117991,-0.500038,119.741,0.125631,
2,0,0,1,0,68171.7,0.12395,0.123664,-6.37488,35,0.0100795,10,-0.000788344,-2.19553,-0.124951,-0.472185,117.383,0.123664,
2,0,0,1,0,68171.7,0.121952,0.121627,-6.60774,35,0.00994952,10,-0.000803677,-2.17995,-0.135625,-0.435022,111.998,0.121627,
2,0,0,1,0,68171.8,0.119955,0.119655,-6.82391,35,0.00981509,10,-0.000816514,-2.16597,-0.142143,-0.415076,110.571,0.119655,
2,0,0,1,0,68171.8,0.117957,0.117641,-7.04845,35,0.00967622,10,-0.000829186,-2.15191,-0.145484,-0.405542,111.511,0.1176408,
2,0,0,1,0,68171.8,0.115955,0.115636,-7.27209,35,0.00953294,10,-0.000840914,-2.13834,-0.16,-0.368751,104.394,0.115636,
2,0,0,1,0,68171.8,0.113962,0.113665,-7.46355,35,0.00938614,10,-0.000848341,-2.12705,-0.177374,-0.33263,96.8968,0.113665,
2,0,0,1,0,68171.8,0.111964,0.111635,-7.6597,35,0.00923477,10,-0.000855095,-2.11579,-0.184304,-0.320124,95.6253,0.111635,
2,0,0,1,0,68171.9,0.109967,0.109647,-7.84776,35,0.00907957,10,-0.000860481,-2.10525,-0.207488,-0.284354,86.924,0.109647,
2,0,0,1,0,68171.9,0.107969,0.107623,-8.00845,35,0.00892089,10,-0.000861897,-2.09645,-0.224862,-0.262383,82.021,0.107623,
2,0,0,1,0,68171.9,0.105971,0.105667,-8.17418,35,0.00875975,10,-0.000863741,-2.08756,-0.244164,-0.24164,76.959,0.105667,
2,0,0,1,0,68171.9,0.103974,0.103642,-8.31482,35,0.00859477,10,-0.000861768,-2.08015,-0.282689,-0.20871,67.6732,0.103642,
2,0,0,1,0,68171.9,0.101976,0.101683,-8.44379,35,0.00842709,10,-0.00085859,-2.07346,-0.33994,-0.17356,57.087,0.101683,
2,0,0,1,0,68172,0.0999786,0.0996601,-8.54216,35,0.00825712,10,-0.000851313,-2.06843,-0.396434,-0.148827,49.6263,0.0996601,
2,0,0,1,0,68172,0.0979811,0.0976237,-8.64524,35,0.00808591,10,-0.00084398,-2.06322,-0.464252,-0.127086,42.7911,0.0976237,
2,0,0,1,0,68172,0.0959835,0.0956523,-8.71366,35,0.00791223,10,-0.000833482,-2.0598,-0.66183,-0.0891468,30.2865,0.0956523,
2,0,0,1,0,68172,0.0939859,0.0936544,-8.76545,35,0.00773737,10,-0.000820923,-2.05723,-0.914924,-0.0644862,22.0395,0.0936544,
2,0,0,1,0,68172,0.0919883,0.091683,-8.80114,35,0.00756166,10,-0.000806915,-2.05546,-1.34591,-0.0438364,15.0474,0.091683,
2,0,0,1,0,68172.1,0.0899907,0.089651,-8.82569,35,0.00738613,10,-0.000791232,-2.05425,-4.63068,-0.0127411,4.38074,0.089651,
2,0,0,1,0,68172.1,0.0879931,0.0876338,-8.81888,35,0.00720958,10,-0.000772832,-2.05459,3.95481,0.0149185,-5.13259,0.0876338,
2,0,0,1,0,68172.1,0.0859955,0.0856769,-8.8053,35,0.00703326,10,-0.000754411,-2.05526,2.17325,0.0271483,-9.324,0.0856769,
2,0,0,1,0,68172.1,0.083998,0.0836463,-8.7817,35,0.00685734,10,-0.000734556,-2.05642,1.20266,0.0490578,-16.7941,0.0836463,
2,0,0,1,0,68172.1,0.0820004,0.0816813,-8.73819,35,0.00668289,10,-0.000713747,-2.05858,0.929367,0.063484,-21.6505,0.0816813,
2,0,0,1,0,68172.2,0.0800028,0.0796692,-8.69559,35,0.00650842,10,-0.000692771,-2.0607,0.947811,0.0622487,-21.1244,0.0796692,
2,0,0,1,0,68172.2,0.0780052,0.0776385,-8.65279,35,0.00633488,10,-0.00067179,-2.06284,0.813842,0.0724956,-24.4633,0.0776385,
2,0,0,1,0,68172.2,0.0760076,0.0756634,-8.5976,35,0.00616233,10,-0.000650523,-2.06562,0.80102,0.0736561,-24.7325,0.0756634,
2,0,0,1,0,68172.2,0.07401,0.0736923,-8.55519,35,0.00599168,10,-0.000630451,-2.06777,0.813858,0.0724942,-24.1874,0.0736923,
2,0,0,1,0,68172.2,0.0720124,0.0716625,-8.50083,35,0.00582107,10,-0.00060919,-2.07054,0.803808,0.0734007,-24.3667,0.0716625,
2,0,0,1,0,68172.3,0.0700148,0.0696739,-8.45728,35,0.00565144,10,-0.000589252,-2.07277,0.824238,0.0715812,-23.6162,0.0696739,
2,0,0,1,0,68172.3,0.0680173,0.0676793,-8.40676,35,0.0054828,10,-0.000568964,-2.07537,0.981032,0.0601407,-19.7578,0.0676793,
2,0,0,1,0,68172.3,0.0660106,0.0656968,-8.3787,35,0.00531501,10,-0.000550454,-2.07682,1.03366,0.0570787,-18.6439,0.0656968,
2,0,0,1,0,68172.3,0.0640221,0.0636856,-8.3323,35,0.0051487,10,-0.000530648,-2.07924,0.889341,0.0663413,-21.5808,0.0636856,
2,0,0,1,0,68172.3,0.0620245,0.0616798,-8.29201,35,0.00498243,10,-0.00051145,-2.08134,0.90495,0.065197,-21.0941,0.0616798,
2,0,0,1,0,68172.4,0.0600269,0.0597105,-8.24845,35,0.00481695,10,-0.000492519,-2.08363,1.08456,0.0543999,-17.5307,0.0597105,
2,0,0,1,0,68172.4,0.0580361,0.0577261,-8.2227,35,0.00465302,10,-0.000474665,-2.08499,1.06519,0.0553891,-17.7531,0.0577261,
2,0,0,1,0,68172.4,0.0560317,0.0556912,-8.17709,35,0.00448894,10,-0.000455392,-2.0874,0.935593,0.0630616,-20.1362,0.0556912,
2,0,0,1,0,68172.4,0.0540342,0.0536684,-8.14099,35,0.00432568,10,-0.000436914,-2.08932,0.994542,0.0593238,-18.8449,0.0536684,
2,0,0,1,0,68172.4,0.0520366,0.0517162,-8.10219,35,0.00416318,10,-0.000419015,-2.0914,0.866351,0.0681017,-21.5236,0.0517162,
2,0,0,1,0,68172.5,0.050039,0.0497073,-8.05573,35,0.00400151,10,-0.000400429,-2.09389,0.871757,0.0676794,-21.2873,0.0497073,
2,0,0,1,0,68172.5,0.0480414,0.0477,-8.01669,35,0.00384145,10,-0.000382396,-2.096,0.927517,0.0636107,-19.9005,0.0477,
2,0,0,1,0,68172.5,0.0460438,0.0457419,-7.97682,35,0.00368144,10,-0.000364875,-2.09817,0.789312,0.0747486,-23.2522,0.0457419,
2,0,0,1,0,68172.5,0.0440462,0.0437539,-7.92494,35,0.00352238,10,-0.000346747,-2.101,0.746772,0.0790067,-24.4426,0.0437539,
2,0,0,1,0,68172.5,0.0420486,0.0416888,-7.87775,35,0.00336433,10,-0.000328414,-2.1036,0.810948,0.0727544,-22.3743,0.0416888,
2,0,0,1,0,68172.6,0.040051,0.0397463,-7.83527,35,0.00320792,10,-0.000311423,-2.10595,0.767215,0.0769015,-23.5018,0.0397463,
2,0,0,1,0,68172.6,0.0380535,0.0376957,-7.78391,35,0.00305165,10,-0.00029342,-2.1088,0.632785,0.0932387,-28.3035,0.0376957,
2,0,0,1,0,68172.6,0.0360559,0.0357254,-7.72146,35,0.00289657,10,-0.000275852,-2.1123,0.614841,0.0959598,-28.9346,0.0357254,
2,0,0,1,0,68172.6,0.0340583,0.0337143,-7.66871,35,0.00274262,10,-0.000258545,-2.11528,0.65144,0.0905686,-27.1004,0.0337143,
2,0,0,1,0,68172.6,0.0320607,0.0317277,-7.61312,35,0.00259053,10,-0.000241547,-2.11844,0.576761,0.102295,-30.3731,0.0317277,
2,0,0,1,0,68172.7,0.0300631,0.0297264,-7.54758,35,0.00243888,10,-0.000224363,-2.12219,0.536387,0.109995,-32.4004,0.0297264,
2,0,0,1,0,68172.7,0.0280655,0.0276998,-7.48262,35,0.00228855,10,-0.000207267,-2.12595,0.540004,0.109259,-31.9082,0.0276998,
2,0,0,1,0,68172.7,0.0260679,0.0256982,-7.41905,35,0.00213947,10,-0.000190656,-2.12965,0.521335,0.113171,-32.7609,0.0256982,
2,0,0,1,0,68172.7,0.0240704,0.0237351,-7.35273,35,0.00199247,10,-0.000174518,-2.13355,0.489295,0.120582,-34.5861,0.0237351,
2,0,0,1,0,68172.7,0.0220728,0.0216876,-7.28034,35,0.00184611,10,-0.000157893,-2.13785,0.478684,0.123255,-35.0305,0.0216876,
2,0,0,1,0,68172.8,0.0200752,0.0197372,-7.21268,35,0.00170112,10,-0.000142358,-2.1419,0.448358,0.131591,-37.0144,0.0197372,
2,0,0,1,0,68172.8,0.0180776,0.0177608,-7.13499,35,0.00155753,10,-0.000126723,-2.14661,0.482278,0.122336,-34.1111,0.0177608,
2,0,0,1,0,68172.8,0.01608,0.0157574,-7.07693,35,0.00141608,10,-0.000111514,-2.15016,0.524088,0.112576,-31.0757,0.0157574,
2,0,0,1,0,68172.8,0.0140824,0.0137897,-7.01159,35,0.00127516,10,-9.6688e-05,-2.15418,0.484505,0.121774,-33.3154,0.0137897,
2,0,0,1,0,68172.8,0.0120848,0.0117607,-6.94377,35,0.00113557,10,-8.16635e-05,-2.1584,0.472537,0.124858,-33.832,0.0117607,
2,0,0,1,0,68172.9,0.0100872,0.00974863,-6.87487,35,0.000997381,10,-6.70206e-05,-2.16274,0.531656,0.110974,-29.8141,0.00974863,
2,0,0,1,0,68172.9,0.00809193,0.00775859,-6.82446,35,0.000861092,10,-5.29481e-05,-2.16593,0.567736,0.103922,-27.6613,0.007758589,
2,0,0,1,0,68172.9,0.00609208,0.00581385,-6.76603,35,0.000725161,10,-3.93367e-05,-2.16967,0.53074,0.111165,-29.3524,0.005813852,
2,0,0,1,0,68172.9,0.00409449,0.00376413,-6.70721,35,0.000590372,10,-2.52468e-05,-2.17346,1.0455,0.0564325,-14.8347,0.00376413,
2,0,0,1,0,68172.9,0.0020969,0.00173828,-6.70557,35,0.00045651,10,-1.16561e-05,-2.17356,0.935672,0.0630563,-16.4237,0.00173828,
2,0,0,1,0,68173,9.1499e-05,-0.000288017,-6.64066,35,0.000323085,10,1.91262e-06,-2.17779,0.553848,0.106527,-27.6457,-0.000288017,
2,0,0,1,0,68173,-0.00189827,-0.00229215,-6.59414,35,0.000191285,10,1.51148e-05,-2.18084,0.725635,0.0813081,-20.9393,-0.00229215,
2,0,0,1,0,68173,-0.00389586,-0.0042764,-6.55714,35,5.97125e-05,10,2.8041e-05,-2.18329,0.91477,0.0644971,-16.5153,-0.0042764,
2,0,0,1,0,68173,-0.00589345,-0.00627476,-6.52837,35,-7.1147e-05,10,4.0964e-05,-2.1852,0.928965,0.0635115,-16.1727,-0.00627476,
2,0,0,1,0,68173,-0.00789103,-0.00826897,-6.49257,35,-0.000201412,10,5.36869e-05,-2.18758,1.20021,0.0491581,-12.4768,-0.008268971,
2,0,0,1,0,68173.1,-0.00988862,-0.010265,-6.47858,35,-0.00033063,10,6.6503e-05,-2.18852,1.88218,0.0313466,-7.92352,-0.010265,
2,0,0,1,0,68173.1,-0.0118862,-0.0122336,-6.46116,35,-0.000460153,10,7.90435e-05,-2.18969,1.69417,0.0348252,-8.78143,-0.0122336,
2,0,0,1,0,68173.1,-0.0138838,-0.0142396,-6.44368,35,-0.000589351,10,9.17551e-05,-2.19087,2.74229,0.0215148,-5.41599,-0.01423955,
2,0,0,1,0,68173.1,-0.0158814,-0.0162598,-6.43935,35,-0.000718271,10,0.000104702,-2.19116,-16.1132,-0.00366159,0.92107,-0.0162598,
2,0,0,1,0,68173.1,-0.017879,-0.018284,-6.44741,35,-0.000846562,10,0.000117884,-2.19061,-88.3414,-0.000667864,0.167848,-0.018284,
2,0,0,1,0,68173.2,-0.0198766,-0.020255,-6.44002,35,-0.000975494,10,0.000130443,-2.19111,29.7536,0.00198295,-0.498878,-0.020255,
2,0,0,1,0,68173.2,-0.0218741,-0.0222193,-6.44544,35,-0.00110439,10,0.000143213,-2.19075,-3.01595,-0.0195626,4.92421,-0.0222193,
2,0,0,1,0,68173.2,-0.0238717,-0.0242198,-6.45955,35,-0.00123347,10,0.000156449,-2.1898,-1.97416,-0.0298861,7.53528,-0.0242198,
2,0,0,1,0,68173.2,-0.0258693,-0.0262212,-6.4756,35,-0.00136224,10,0.000169798,-2.18872,-2.46854,-0.0239007,6.03672,-0.0262212,
2,0,0,1,0,68173.2,-0.0278669,-0.0282857,-6.48409,35,-0.00149189,10,0.000183407,-2.18815,-1.9403,-0.0304076,7.70307,-0.0282857,
2,0,0,1,0,68173.3,-0.0298645,-0.0302473,-6.50661,35,-0.0016219,10,0.000196808,-2.18665,-1.35479,-0.0435492,11.0572,-0.0302473,
2,0,0,1,0,68173.3,-0.0318621,-0.0322155,-6.52754,35,-0.0017523,10,0.000210288,-2.18525,-1.11397,-0.0529637,13.5047,-0.0322155,
2,0,0,1,0,68173.3,-0.0338597,-0.034224,-6.56032,35,-0.00188257,10,0.00022452,-2.18308,-1.01727,-0.0579986,14.8421,-0.034224,
2,0,0,1,0,68173.3,-0.0358573,-0.0362103,-6.58684,35,-0.00201408,10,0.000238511,-2.18132,-1.00283,-0.0588333,15.1328,-0.0362103,
2,0,0,1,0,68173.3,-0.0378548,-0.0382456,-6.62117,35,-0.00214623,10,0.000253231,-2.17906,-0.988078,-0.0597119,15.4223,-0.0382456,
2,0,0,1,0,68173.4,-0.0398524,-0.040256,-6.64923,35,-0.002279,10,0.000267671,-2.17723,-0.828815,-0.0711859,18.4971,-0.040256,
2,0,0,1,0,68173.4,-0.04185,-0.0422381,-6.69502,35,-0.00241179,10,0.000282785,-2.17425,-0.782124,-0.0754356,19.6907,-0.0422381,
2,0,0,1,0,68173.4,-0.0438476,-0.0442396,-6.72767,35,-0.00254611,10,0.00029763,-2.17214,-0.892544,-0.0661032,17.3615,-0.0442396,
2,0,0,1,0,68173.4,-0.0458452,-0.0462512,-6.7647,35,-0.00268118,10,0.000312875,-2.16975,-0.73887,-0.0798517,21.0959,-0.0462512,
2,0,0,1,0,68173.4,-0.0478428,-0.0482033,-6.81129,35,-0.00281701,10,0.000328326,-2.16677,-0.584042,-0.10102,26.8782,-0.0482033,
2,0,0,1,0,68173.5,-0.0498495,-0.0501936,-6.87066,35,-0.00295383,10,0.000344863,-2.163,-0.651189,-0.0906036,24.2558,-0.0501936,
2,0,0,1,0,68173.5,-0.051838,-0.0522055,-6.90836,35,-0.00309099,10,0.000360655,-2.16062,-0.737964,-0.0799497,21.5727,-0.0522055,
2,0,0,1,0,68173.5,-0.0538355,-0.0542105,-6.95732,35,-0.0032297,10,0.00037716,-2.15756,-0.639892,-0.092203,25.0398,-0.0542105,
2,0,0,1,0,68173.5,-0.0558331,-0.0562288,-7.00911,35,-0.00336946,10,0.000394113,-2.15434,-0.564304,-0.104554,28.6199,-0.0562288,
2,0,0,1,0,68173.5,-0.0578216,-0.058182,-7.07098,35,-0.00350962,10,0.000411404,-2.15052,-0.554555,-0.106392,29.3432,-0.058182,
2,0,0,1,0,68173.6,-0.0598283,-0.0601871,-7.12526,35,-0.00365167,10,0.000428848,-2.1472,-0.555324,-0.106244,29.5656,-0.0601871,
2,0,0,1,0,68173.6,-0.0618259,-0.0622164,-7.19026,35,-0.00379486,10,0.000447352,-2.14326,-0.551772,-0.106928,29.9873,-0.0622164,
2,0,0,1,0,68173.6,-0.0638235,-0.0642423,-7.24686,35,-0.00393932,10,0.000465555,-2.13985,-0.568644,-0.103756,29.3518,-0.0642423,
2,0,0,1,0,68173.6,-0.0658211,-0.0662087,-7.30744,35,-0.00408499,10,0.000483816,-2.13623,-0.488456,-0.120789,34.4802,-0.0662087,
2,0,0,1,0,68173.6,-0.0678187,-0.0681729,-7.38239,35,-0.00423132,10,0.000503279,-2.1318,-0.459231,-0.128476,37.0059,-0.0681729,
2,0,0,1,0,68173.7,-0.0698162,-0.0701712,-7.45408,35,-0.00437979,10,0.000523062,-2.12761,-0.494792,-0.119242,34.6755,-0.07017123,
2,0,0,1,0,68173.7,-0.0718138,-0.0721576,-7.52056,35,-0.00452962,10,0.000542665,-2.12375,-0.478492,-0.123304,36.2216,-0.0721576,
2,0,0,1,0,68173.7,-0.0738114,-0.0742153,-7.60056,35,-0.0046809,10,0.000564078,-2.11915,-0.4293,-0.137433,40.7759,-0.0742153,
2,0,0,1,0,68173.7,-0.075809,-0.0761849,-7.68478,35,-0.0048331,10,0.000585464,-2.11437,-0.436674,-0.135112,40.4975,-0.0761849,
2,0,0,1,0,68173.7,-0.0778066,-0.07816,-7.76031,35,-0.00498765,10,0.000606546,-2.11012,-0.454764,-0.129738,39.3063,-0.07816,
2,0,0,1,0,68173.7,-0.0798042,-0.0801815,-7.84187,35,-0.00514378,10,0.000628773,-2.10558,-0.413033,-0.142846,43.7529,-0.0801815,
2,0,0,1,0,68173.8,-0.0818018,-0.0821969,-7.93694,35,-0.00530167,10,0.000652392,-2.10035,-0.391553,-0.150682,46.6603,-0.0821969,
2,0,0,1,0,68173.8,-0.0837994,-0.0841697,-8.02796,35,-0.00546061,10,0.000675711,-2.09539,-0.400585,-0.147285,46.1494,-0.0841697,
2,0,0,1,0,68173.8,-0.085797,-0.086188,-8.12113,35,-0.00562212,10,0.000699944,-2.09038,-0.397711,-0.148349,47.0206,-0.086188,
2,0,0,1,0,68173.8,-0.0877945,-0.0881669,-8.21591,35,-0.00578554,10,0.000724371,-2.08534,-0.397441,-0.14845,47.5992,-0.0881669,
2,0,0,1,0,68173.8,-0.0897921,-0.0901868,-8.31146,35,-0.00595087,10,0.000749584,-2.08032,-0.40661,-0.145102,47.0515,-0.0901868,
2,0,0,1,0,68173.9,-0.0917897,-0.092128,-8.40228,35,-0.00611723,10,0.000774086,-2.0756,-0.401308,-0.147019,48.2402,-0.092128,
2,0,0,1,0,68173.9,-0.0937873,-0.0941872,-8.50445,35,-0.00628644,10,0.00080101,-2.07035,-0.397219,-0.148533,49.2759,-0.0941872,
2,0,0,1,0,68173.9,-0.0957849,-0.0961337,-8.59967,35,-0.0064576,10,0.000826718,-2.06552,-0.407536,-0.144773,48.588,-0.0961337,
2,0,0,1,0,68173.9,-0.0977825,-0.0981188,-8.69547,35,-0.00663067,10,0.00085319,-2.06071,-0.408254,-0.144518,49.0595,-0.0981188,
2,0,0,1,0,68173.9,-0.0997501,-0.100173,-8.79781,35,-0.00680216,10,0.0008813,-2.05563,0.0103106,5.72225,-1748.09,-0.100173,
2,0,0,1,1,68174,-0.0987313,-0.0990775,-7.01962,35,-0.00692258,10,0.000695486,-2.15369,-0.0144181,-4.09208,1107.45,-0.0990775,
2,0,0,1,1,68174,-0.0967337,-0.0970638,-5.35499,35,-0.00704502,10,0.000519776,-2.27124,-0.0170881,-3.45269,731.278,-0.0970638,
2,0,0,1,1,68174,-0.0947362,-0.0950791,-4.09571,35,-0.0071388,10,0.000389417,-2.38767,-0.0162377,-3.63351,581.287,-0.0950791,
2,0,0,1,1,68174,-0.0927386,-0.0931105,-3.05702,35,-0.0072098,10,0.000284641,-2.5147,-0.014568,-4.04997,479.35,-0.0931105,
2,0,0,1,1,68174,-0.090741,-0.0910656,-2.17184,35,-0.00726145,10,0.00019778,-2.66317,-0.0119315,-4.94489,411.19,-0.0910656,
2,0,0,1,1,68174.1,-0.0887434,-0.0891138,-1.41358,35,-0.00729705,10,0.00012597,-2.84968,-0.00854153,-6.90742,360.213,-0.0891138,
2,0,0,1,1,68174.1,-0.0867458,-0.0871146,-0.74861,35,-0.00731839,10,6.52148e-05,-3.12574,-0.00422683,-13.9584,313.828,-0.0871146,
2,0,0,1,1,68174.1,-0.0847482,-0.0851212,-0.160598,35,-0.00732716,10,1.36703e-05,-3.79426,-0.0131538,-4.48539,279.947,-0.0851212,
2,1,0,1,1,68174.1,-0.0827529,-0.0831131,0.37158,35,-0.00732488,10,-3.08832e-05,-3.42995,0.00564895,10.4444,246.67,-0.0831131,
2,1,0,1,1,68174.1,-0.080753,-0.0810556,0.842258,35,-0.00731255,10,-6.82698e-05,-3.07455,0.00748444,7.88303,224.198,-0.0810556,
2,1,0,1,1,68174.2,-0.0787555,-0.0791352,1.26343,35,-0.00729131,10,-9.99821e-05,-2.89845,0.0134613,4.38293,204.688,-0.0791352,
2,1,0,1,1,68174.2,-0.0767579,-0.0771644,1.63874,35,-0.0072621,10,-0.000126453,-2.78549,0.0202169,2.91835,182.311,-0.0771644,
2,1,0,1,1,68174.2,-0.0747603,-0.075132,1.99325,35,-0.00722559,10,-0.000149757,-2.70044,0.0268049,2.20109,168.195,-0.07513202,
2,1,0,1,1,68174.2,-0.0727627,-0.0731364,2.31623,35,-0.00718247,10,-0.000169401,-2.63522,0.0344731,1.71148,152.475,-0.0731364,
2,1,0,1,1,68174.2,-0.0707651,-0.0711588,2.59907,35,-0.00713318,10,-0.000184947,-2.58518,0.0433902,1.35976,136.937,-0.0711588,
2,1,0,1,1,68174.3,-0.0687675,-0.069136,2.86404,35,-0.00707843,10,-0.000198008,-2.54302,0.0523296,1.12747,125.12,-0.069136,
2,1,0,1,1,68174.3,-0.0667699,-0.0671322,3.10287,35,-0.00701867,10,-0.000208303,-2.50824,0.0619676,0.952111,114.753,-0.06713222,
2,1,0,1,1,68174.3,-0.0647723,-0.0651285,3.3239,35,-0.00695452,10,-0.000216481,-2.47835,0.0729001,0.809326,104.43,-0.0651285,
2,1,0,1,1,68174.3,-0.0627747,-0.0631539,3.51833,35,-0.00688595,10,-0.000222196,-2.45366,0.0840861,0.701662,96.2143,-0.0631539,
2,1,0,1,1,68174.3,-0.0607772,-0.0611124,3.71031,35,-0.0068135,10,-0.000226746,-2.43059,0.0947795,0.622497,89.736,-0.0611124,
2,1,0,1,1,68174.4,-0.0587796,-0.0591807,3.87487,35,-0.00673754,10,-0.000229317,-2.41174,0.110957,0.531739,80.2178,-0.0591807,
2,1,0,1,1,68174.4,-0.056782,-0.0571894,4.02501,35,-0.00665881,10,-0.000230188,-2.39523,0.128357,0.459656,72.0856,-0.0571894,
2,1,0,1,1,68174.4,-0.0547844,-0.0551503,4.1654,35,-0.00657681,10,-0.000229723,-2.38034,0.14607,0.403916,65.484,-0.0551503,
2,1,0,1,1,68174.4,-0.0527868,-0.0532039,4.286,35,-0.00649217,10,-0.000228032,-2.36795,0.168769,0.34959,58.4025,-0.0532039,
2,1,0,1,1,68174.4,-0.0507892,-0.0511677,4.39799,35,-0.00640519,10,-0.000225035,-2.35675,0.182276,0.323686,55.5488,-0.0511677,
2,1,0,1,1,68174.5,-0.0487916,-0.0491615,4.51054,35,-0.00631644,10,-0.000221745,-2.34577,0.203383,0.290092,50.9427,-0.0491615,
2,1,0,1,1,68174.5,-0.046794,-0.0471448,4.60293,35,-0.00622517,10,-0.000217004,-2.33697,0.243493,0.242307,43.4705,-0.0471448,
2,1,0,1,1,68174.5,-0.0447965,-0.0451632,4.68435,35,-0.00613223,10,-0.00021156,-2.32935,0.27954,0.211061,38.5442,-0.0451632,
2,1,0,1,1,68174.5,-0.0427989,-0.0431573,4.75663,35,-0.0060377,10,-0.000205283,-2.3227,0.289737,0.203633,37.8233,-0.0431573,
2,1,0,1,1,68174.5,-0.0408013,-0.0411764,4.83515,35,-0.00594212,10,-0.000199094,-2.31559,0.333003,0.177176,33.3458,-0.0411764,
2,1,0,1,1,68174.6,-0.0388037,-0.0391875,4.889,35,-0.0058448,10,-0.000191588,-2.31078,0.415425,0.142023,27.1018,-0.0391875,
2,1,0,1,1,68174.6,-0.0368061,-0.0371419,4.94449,35,-0.00574636,10,-0.000183648,-2.30588,0.441656,0.133588,25.7577,-0.0371419,
2,1,0,1,1,68174.6,-0.0348085,-0.0351717,4.99244,35,-0.0056469,10,-0.000175593,-2.30169,0.487679,0.120981,23.5678,-0.0351717,
2,1,0,1,1,68174.6,-0.0328109,-0.0331343,5.03894,35,-0.00554703,10,-0.000166962,-2.29766,0.587832,0.100369,19.7107,-0.0331343,
2,1,0,1,1,68174.6,-0.0308134,-0.0311479,5.07175,35,-0.00544587,10,-0.000157974,-2.29484,0.764608,0.0771637,15.2647,-0.0311479,
2,1,0,1,1,68174.7,-0.0288158,-0.0292062,5.0989,35,-0.00534404,10,-0.000148919,-2.29252,0.824863,0.071527,14.2367,-0.0292062,
2,1,0,1,1,68174.7,-0.0268182,-0.0271651,5.12846,35,-0.00524166,10,-0.000139315,-2.29001,0.888903,0.066374,13.2772,-0.0271651,
2,1,0,1,1,68174.7,-0.0248138,-0.0251757,5.15241,35,-0.00513887,10,-0.000129716,-2.28799,1.15234,0.0512004,10.2887,-0.02517572,
2,1,0,1,1,68174.7,-0.022823,-0.0231637,5.16962,35,-0.00503607,10,-0.000119748,-2.28654,1.53734,0.0383779,7.74045,-0.0231637,
2,1,0,1,1,68174.7,-0.0208254,-0.0211508,5.18357,35,-0.00493243,10,-0.000109637,-2.28537,2.32111,0.0254189,5.13848,-0.02115084,
2,1,0,1,1,68174.8,-0.0188278,-0.0191948,5.19002,35,-0.0048286,10,-9.96214e-05,-2.28483,3.08521,0.0191235,3.87434,-0.0191948,
2,1,0,1,1,68174.8,-0.0168393,-0.0172154,5.19882,35,-0.00472509,10,-8.94999e-05,-2.2841,2.02742,0.029101,5.90791,-0.0172154,
2,1,0,1,1,68174.8,-0.0148326,-0.0151709,5.21379,35,-0.0046208,10,-7.9098e-05,-2.28285,4.30546,0.0137035,2.78335,-0.0151709,
2,1,0,1,1,68174.8,-0.0128351,-0.0131906,5.21002,35,-0.00451649,10,-6.87233e-05,-2.28316,-736.007,-8.01623e-05,-0.0163112,-0.0131906,
2,1,0,1,1,68174.8,-0.0108375,-0.0111869,5.21373,35,-0.00441218,10,-5.83253e-05,-2.28285,10.1373,0.00582008,1.18394,-0.0111869,
2,1,0,1,1,68174.9,-0.00883989,-0.00918575,5.21476,35,-0.00430777,10,-4.79015e-05,-2.28277,-52.3539,-0.00112695,-0.229286,-0.00918575,
2,1,0,1,1,68174.9,-0.0068423,-0.00720174,5.21281,35,-0.00420382,10,-3.75413e-05,-2.28293,271.691,0.000217158,0.0441959,-0.00720174,
2,1,0,1,1,68174.9,-0.00484471,-0.00521458,5.21494,35,-0.00409946,10,-2.71937e-05,-2.28275,29.3449,0.00201057,0.409095,-0.00521458,
2,1,0,1,1,68174.9,-0.00284713,-0.00319714,5.21445,35,-0.00399511,10,-1.66713e-05,-2.28279,-3.84995,-0.0153249,-3.11521,-0.00319714,
2,1,0,1,1,68174.9,-0.000849538,-0.00118882,5.20239,35,-0.00389081,10,-6.1847e-06,-2.2838, , , ,-0.00118882,
2,1,0,1,1,68175,-2.55332e-05,-0.000439847,5.22356,35,-0.00384861,10,-2.29757e-06,-2.28203, , , ,-0.000439847,