File: Figure_codes/Fig_3-5/rawdata_trumpetplot_data/after 10th/20221101_1-115_003_TrumpetPlot_ParaChange_from10_every3_13_CV_C01_25.csv
mode,ox/red,error,control changes,counter inc.,time/s,control/V,Ewe/V,<I>/mA,cycle number,(Q-Qo)/C,I Range,P/W,log(|I|),Tafel slope mV/dec,alpha_eff,dI/d(E-IR),E-IR/V,
2,1,0,1,0,50451.1,2.44065e-05,-0.000363498,16.6562,26,0.0000000E+000,10,-6.05451e-06,-1.77842, , , ,-0.000363498,
2,1,0,1,0,50451.1,0.00266289,0.00226843,17.9088,26,5.41073e-05,10,4.06248e-05,-1.74693, , , ,0.00226843,
2,1,0,1,0,50451.1,0.00586735,0.00546238,18.9488,26,0.000128003,10,0.000103505,-1.72242, , , ,0.005462375,
2,1,0,1,0,50451.1,0.00906349,0.00862451,19.8483,26,0.000205707,10,0.000171181,-1.70228,0.164236,0.359238,275.131,0.00862451,
2,1,0,1,0,50451.1,0.0122624,0.0118959,20.6711,26,0.000286852,10,0.000245901,-1.68464,0.188207,0.313485,250.916,0.0118959,
2,1,0,1,0,50451.1,0.0154641,0.0151248,21.4459,26,0.000371187,10,0.000324365,-1.66866,0.210427,0.280382,233.225,0.0151248,
2,1,0,1,0,50451.1,0.0186602,0.0182318,22.1529,26,0.000458485,10,0.000403886,-1.65457,0.230906,0.255516,219.884,0.0182318,
2,1,0,1,0,50451.1,0.0218675,0.0214947,22.8499,26,0.000548572,10,0.000491151,-1.64112,0.249463,0.236508,210.059,0.0214947,
2,1,0,1,0,50451.1,0.0250636,0.0247119,23.4892,26,0.000641328,10,0.000580463,-1.62913,0.269327,0.219065,200.216,0.0247119,
2,1,0,1,0,50451.2,0.0282597,0.0278656,24.1223,26,0.000736627,10,0.000672181,-1.61758,0.289312,0.203932,191.447,0.0278656,
2,1,0,1,0,50451.2,0.031467,0.0311125,24.7318,26,0.000834419,10,0.000769469,-1.60674,0.305135,0.193357,186.096,0.0311125,
2,1,0,1,0,50451.2,0.0346631,0.034298,25.3011,26,0.000934543,10,0.000867776,-1.59686,0.325153,0.181453,178.834,0.03429801,
2,1,0,1,0,50451.2,0.0378704,0.0375132,25.8714,26,0.00103695,10,0.00097052,-1.58718,0.342876,0.172074,173.429,0.0375132,
2,1,0,1,0,50451.2,0.0410665,0.0407124,26.4197,26,0.00114156,10,0.00107561,-1.57807,0.357415,0.165074,169.922,0.0407124,
2,1,0,1,0,50451.2,0.0442626,0.0439042,26.9502,26,0.00124836,10,0.00118323,-1.56944,0.375445,0.157147,165.059,0.0439042,
2,1,0,1,0,50451.2,0.0474671,0.0471257,27.4808,26,0.00135727,10,0.00129505,-1.56097,0.390145,0.151226,161.962,0.0471257,
2,1,0,1,0,50451.2,0.0506632,0.050307,27.9832,26,0.00146825,10,0.00140775,-1.5531,0.405098,0.145644,158.906,0.050307,
2,1,0,1,0,50451.2,0.0538621,0.053503,28.4913,26,0.00158124,10,0.00152437,-1.54529,0.417022,0.141479,157.193,0.053503,
2,1,0,1,0,50451.2,0.0570638,0.0567256,28.9876,26,0.00169627,10,0.00164434,-1.53779,0.429372,0.13741,155.338,0.0567256,
2,1,0,1,0,50451.2,0.06026,0.0598528,29.4814,26,0.00181326,10,0.00176454,-1.53045,0.4419,0.133514,153.525,0.0598528,
2,1,0,1,0,50451.2,0.0634672,0.0631146,29.9727,26,0.00193223,10,0.00189171,-1.52327,0.45043,0.130986,153.118,0.0631146,
2,1,0,1,0,50451.2,0.0666633,0.0663127,30.4579,26,0.00205314,10,0.00201975,-1.5163,0.46014,0.128222,152.35,0.0663127,
2,1,0,1,0,50451.2,0.0698595,0.0694706,30.9391,26,0.002176,10,0.00214936,-1.50949,0.470487,0.125402,151.378,0.0694706,
2,1,0,1,0,50451.2,0.0730667,0.0726402,31.4296,26,0.0023008,10,0.00228305,-1.50266,0.474761,0.124273,152.396,0.0726402,
2,1,0,1,0,50451.2,0.0762628,0.0759094,31.9095,26,0.00242755,10,0.00242224,-1.49608,0.484865,0.121683,151.494,0.0759094,
2,1,0,1,0,50451.2,0.0794701,0.079097,32.4062,26,0.00255622,10,0.00256323,-1.48937,0.495621,0.119043,150.48,0.079097,
2,1,0,1,0,50451.2,0.0826662,0.0822962,32.8821,26,0.00268685,10,0.00270607,-1.48304,0.496299,0.11888,152.518,0.0822962,
2,1,0,1,0,50451.2,0.0858624,0.0855358,33.3701,26,0.0028194,10,0.00285434,-1.47664,0.506259,0.116541,151.77,0.0855358,
2,1,0,1,0,50451.2,0.0890668,0.0886788,33.8571,26,0.00295391,10,0.00300241,-1.47035,0.507743,0.1162,153.524,0.0886788,
2,1,0,1,0,50451.2,0.092263,0.0919088,34.3506,26,0.00309037,10,0.00315713,-1.46407,0.513683,0.114857,153.943,0.0919088,
2,1,0,1,0,50451.2,0.0954674,0.0950752,34.844,26,0.00322881,10,0.0033128,-1.45787,0.522744,0.112866,153.417,0.0950752,
2,1,0,1,0,50451.2,0.0986636,0.0982999,35.335,26,0.00336922,10,0.00347343,-1.45179,0.526823,0.111992,154.406,0.0982999,
2,1,0,1,0,50451.2,0.10186,0.101475,35.8202,26,0.00351159,10,0.00363485,-1.44587,0.536117,0.110051,153.846,0.101475,
2,1,0,1,0,50451.2,0.105067,0.104682,36.323,26,0.00365593,10,0.00380238,-1.43982,0.537105,0.109848,155.705,0.1046825,
2,1,0,1,0,50451.3,0.108263,0.107886,36.8149,26,0.00380228,10,0.00397181,-1.43398,0.5424,0.108776,156.265,0.107886,
2,1,0,1,0,50451.3,0.111465,0.111068,37.3231,26,0.0039506,10,0.00414541,-1.42802,0.550175,0.107239,156.157,0.111068,
2,1,0,1,0,50451.3,0.114666,0.114258,37.8178,26,0.00410095,10,0.00432098,-1.4223,0.552017,0.106881,157.737,0.114258,
2,1,0,1,0,50451.3,0.117863,0.117462,38.3187,26,0.00425327,10,0.00450101,-1.41659,0.554725,0.106359,159.115,0.1174625,
2,1,0,1,0,50451.3,0.12107,0.120687,38.8341,26,0.00440761,10,0.00468678,-1.41079,0.550362,0.107202,162.525,0.120687,
2,1,0,1,0,50451.3,0.124266,0.123877,39.3612,26,0.00456404,10,0.00487594,-1.40493,0.548873,0.107493,165.145,0.1238769,
2,1,0,1,0,50451.3,0.127462,0.127033,39.894,26,0.0047226,10,0.00506784,-1.39909,0.549915,0.107289,167.036,0.127033,
2,1,0,1,0,50451.3,0.130667,0.130262,40.4324,26,0.0048833,10,0.00526679,-1.39327,0.55118,0.107043,168.914,0.130262,
2,1,0,1,0,50451.3,0.133863,0.133474,40.9699,26,0.00504614,10,0.0054684,-1.38754,0.553159,0.10666,170.558,0.133474,
2,1,0,1,0,50451.3,0.137067,0.13669,41.5255,26,0.00521116,10,0.00567611,-1.38169,0.561502,0.105075,170.216,0.13669,
2,1,0,1,0,50451.3,0.140263,0.139808,42.073,26,0.00537843,10,0.00588216,-1.376,0.548671,0.107533,176.619,0.139808,
2,1,0,1,0,50451.3,0.143459,0.143015,42.6032,26,0.00554784,10,0.0060929,-1.37056,0.542669,0.108722,181.038,0.143015,
2,1,0,1,0,50451.3,0.146667,0.146223,43.2217,26,0.00571954,10,0.00631999,-1.3643,0.544106,0.108435,182.988,0.146223,
2,1,0,1,0,50451.3,0.149863,0.149411,43.8286,26,0.0058937,10,0.00654849,-1.35824,0.537074,0.109854,187.789,0.149411,
2,1,0,1,0,50451.3,0.153064,0.152685,44.4293,26,0.00607027,10,0.00678368,-1.35233,0.554471,0.106408,184.354,0.152685,
2,1,0,1,0,50451.3,0.156266,0.155896,45.0221,26,0.00624925,10,0.00701876,-1.34657,0.574105,0.102769,180.396,0.155896,
2,1,0,1,0,50451.3,0.159462,0.159046,45.5857,26,0.00643053,10,0.00725024,-1.34117,0.597254,0.0987854,175.585,0.159046,
2,1,0,1,0,50451.3,0.16267,0.162269,46.148,26,0.00661405,10,0.00748838,-1.33585,0.620073,0.0951501,171.209,0.162269,
2,1,0,1,0,50451.3,0.165866,0.165486,46.677,26,0.00679976,10,0.00772439,-1.3309,0.646052,0.0913239,166.248,0.1654862,
2,1,0,1,0,50451.3,0.169062,0.168654,47.2063,26,0.00698757,10,0.00796152,-1.326,0.676192,0.0872533,160.625,0.168654,
2,1,0,1,0,50451.3,0.172266,0.171891,47.7211,26,0.0071775,10,0.00820283,-1.32129,0.70608,0.0835599,155.426,0.171891,
2,1,0,1,0,50451.3,0.175462,0.175088,48.2071,26,0.0073694,10,0.00844049,-1.31689,0.756542,0.0779864,146.529,0.175088,
2,1,0,1,0,50451.3,0.178667,0.178235,48.6585,26,0.00756318,10,0.00867267,-1.31284,0.813364,0.0725383,137.565,0.178235,
2,1,0,1,0,50451.3,0.181863,0.181535,49.0939,26,0.00775873,10,0.00891228,-1.30897,0.883143,0.0668069,127.804,0.181535,
2,1,0,1,0,50451.3,0.185059,0.184649,49.4761,26,0.00795592,10,0.00913571,-1.3056,0.98744,0.0597505,115.182,0.184649,
2,1,0,1,0,50451.4,0.188266,0.187858,49.8391,26,0.00815462,10,0.00936265,-1.30243,1.12115,0.0526244,102.159,0.187858,
2,1,0,1,0,50451.4,0.191463,0.191082,50.1383,26,0.00835462,10,0.00958053,-1.29983,1.32663,0.0444735,86.8372,0.191082,
2,1,0,1,0,50451.4,0.194664,0.194286,50.3964,26,0.00855572,10,0.00979131,-1.2976,1.66914,0.0353476,69.3649,0.194286,
2,1,0,1,0,50451.4,0.197866,0.197481,50.5904,26,0.00875774,10,0.00999064,-1.29593,2.19917,0.0268283,52.8502,0.1974808,
2,1,0,1,0,50451.4,0.201062,0.200678,50.7284,26,0.00896041,10,0.0101801,-1.29475,3.26933,0.0180465,35.6551,0.200678,
2,1,0,1,0,50451.4,0.204269,0.203913,50.8164,26,0.00916353,10,0.0103621,-1.294,6.93005,0.00851365,16.845,0.2039132,
2,1,0,1,0,50451.4,0.207465,0.207128,50.8544,26,0.00936687,10,0.0105334,-1.29367,-146.215,-0.000403515,-0.798785,0.207128,
2,1,0,1,0,50451.4,0.210662,0.210264,50.8058,26,0.0095702,10,0.0106826,-1.29409,-5.5809,-0.0105718,-20.9105,0.210264,
2,1,0,1,0,50451.4,0.213866,0.213512,50.7181,26,0.00977326,10,0.0108289,-1.29484,-2.96404,-0.0199052,-39.3106,0.213512,
2,1,0,1,0,50451.4,0.217062,0.216753,50.5479,26,0.00997579,10,0.0109564,-1.2963,-2.01734,-0.0292464,-57.5654,0.216753,
2,1,0,1,0,50451.4,0.220267,0.21988,50.3531,26,0.0101776,10,0.0110716,-1.29797,-1.50736,-0.0391414,-76.7233,0.21988,
2,1,0,1,0,50451.4,0.223463,0.223138,50.0646,26,0.0103784,10,0.0111713,-1.30047,-1.23479,-0.0477813,-93.1468,0.223138,
2,1,0,1,0,50451.4,0.226659,0.226302,49.7368,26,0.010578,10,0.0112555,-1.30332,-1.03219,-0.0571601,-110.729,0.226302,
2,1,0,1,0,50451.4,0.229866,0.229514,49.3593,26,0.0107762,10,0.0113286,-1.30663,-0.887293,-0.0664944,-127.796,0.229514,
2,1,0,1,0,50451.4,0.233062,0.232753,48.9276,26,0.0109727,10,0.0113881,-1.31045,-0.788049,-0.0748685,-142.635,0.232753,
2,1,0,1,0,50451.4,0.236264,0.235883,48.4359,26,0.0111674,10,0.0114252,-1.31483,-0.700299,-0.0842497,-158.919,0.235883,
2,1,0,1,0,50451.4,0.239466,0.239134,47.9066,26,0.0113601,10,0.0114561,-1.31961,-0.638904,-0.0923456,-172.333,0.239134,
2,1,0,1,0,50451.4,0.242662,0.242339,47.321,26,0.0115505,10,0.0114677,-1.32495,-0.591588,-0.0997316,-183.88,0.242339,
2,1,0,1,0,50451.4,0.245869,0.245537,46.7245,26,0.0117385,10,0.0114726,-1.33046,-0.548695,-0.107528,-195.738,0.245537,
2,1,0,1,0,50451.4,0.249065,0.24875,46.0699,26,0.011924,10,0.0114599,-1.33658,-0.520419,-0.11337,-203.553,0.24875,
2,1,0,1,0,50451.4,0.252261,0.251926,45.4025,26,0.0121069,10,0.0114381,-1.34292,-0.490222,-0.120354,-213.012,0.2519263,
2,1,0,1,0,50451.4,0.255466,0.255138,44.7157,26,0.0122871,10,0.0114087,-1.34954,-0.47295,-0.124749,-217.471,0.255138,
2,1,0,1,0,50451.4,0.258662,0.258311,44.0035,26,0.0124644,10,0.0113666,-1.35651,-0.458433,-0.128699,-220.87,0.258311,
2,1,0,1,0,50451.4,0.261866,0.261508,43.2955,26,0.012639,10,0.0113221,-1.36356,-0.445718,-0.132371,-223.544,0.261508,
2,1,0,1,0,50451.4,0.265063,0.264724,42.5758,26,0.0128107,10,0.0112709,-1.37084,-0.441578,-0.133612,-221.962,0.264724,
2,1,0,1,0,50451.5,0.268259,0.267914,41.8598,26,0.0129795,10,0.0112148,-1.3782,-0.432759,-0.136335,-222.694,0.267914,
2,1,0,1,0,50451.5,0.271466,0.271114,41.1617,26,0.0131455,10,0.0111595,-1.38551,-0.435142,-0.135588,-217.803,0.271114,
2,1,0,1,0,50451.5,0.274662,0.274307,40.4452,26,0.0133086,10,0.0110944,-1.39313,-0.430422,-0.137075,-216.43,0.274307,
2,1,0,1,0,50451.5,0.277869,0.277575,39.7768,26,0.013469,10,0.0110411,-1.40037,-0.431979,-0.136581,-212.062,0.2775754,
2,1,0,1,0,50451.5,0.281065,0.280728,39.0865,26,0.0136266,10,0.0109727,-1.40797,-0.436269,-0.135238,-206.411,0.280728,
2,1,0,1,0,50451.5,0.284262,0.28396,38.4376,26,0.0137816,10,0.0109147,-1.41524,-0.436235,-0.135248,-203.025,0.2839601,
2,1,0,1,0,50451.5,0.287469,0.287114,37.8018,26,0.013934,10,0.0108534,-1.42249,-0.441575,-0.133613,-197.185,0.287114,
2,1,0,1,0,50451.5,0.290665,0.290364,37.1804,26,0.0140839,10,0.0107959,-1.42969,-0.450698,-0.130908,-190.099,0.290364,
2,1,0,1,0,50451.5,0.293861,0.293484,36.5712,26,0.0142314,10,0.0107331,-1.43686,-0.459742,-0.128333,-183.675,0.293484,
2,1,0,1,0,50451.5,0.297066,0.296744,36.0073,26,0.0143765,10,0.010685,-1.44361,-0.457751,-0.128891,-182.698,0.296744,
2,1,0,1,0,50451.5,0.299637,0.299279,35.5674,26,0.014491,10,0.0106446,-1.44895,-0.133166,-0.443056,-604.284,0.2992788,
2,1,0,1,0,50451.5,0.300012,0.299708,35.4732,26,0.0145087,10,0.0106316,-1.4501,0.0121345,4.86218,6092.61,0.299708,
2,1,0,1,0,50451.5,0.298983,0.298776,33.3731,26,0.0145526,10,0.00997107,-1.4766,0.0440976,1.33794,1556.94,0.298776,
2,1,0,1,0,50451.5,0.295787,0.295512,28.5003,26,0.0146754,10,0.00842219,-1.54515,0.0486117,1.2137,1321.45,0.2955122,
2,1,0,1,0,50451.5,0.292579,0.292314,24.7235,26,0.0147813,10,0.00722704,-1.60689,0.0507677,1.16216,1146.96,0.292314,
2,1,0,1,0,50451.5,0.289383,0.289124,21.487,26,0.0148733,10,0.0062124,-1.66783,0.0514585,1.14655,970.043,0.289124,
2,1,0,1,0,50451.5,0.286187,0.285921,18.6285,26,0.0149531,10,0.00532627,-1.72982,0.0497671,1.18552,864.156,0.2859208,
2,1,0,1,0,50451.5,0.282983,0.282671,16.0435,26,0.0150221,10,0.00453502,-1.7947,0.0475256,1.24144,775.451,0.282671,
2,1,0,1,0,50451.5,0.279786,0.279567,13.708,26,0.0150813,10,0.0038323,-1.86303,0.0445002,1.32584,704.249,0.279567,
2,1,0,1,0,50451.5,0.276582,0.276305,11.5463,26,0.0151316,10,0.0031903,-1.93756,0.0405552,1.45481,647.673,0.276305,
2,1,0,1,0,50451.5,0.273386,0.273081,9.58635,26,0.0151736,10,0.00261785,-2.01835,0.0365231,1.61542,591.36,0.273081,
2,1,0,1,0,50451.5,0.27019,0.269887,7.76415,26,0.0152081,10,0.00209545,-2.10991,0.0313998,1.87899,548.986,0.269887,
2,1,0,1,0,50451.5,0.266982,0.266661,6.0758,26,0.0152355,10,0.00162018,-2.2164,0.0256691,2.29848,511.559,0.266661,
2,1,0,1,0,50451.5,0.263786,0.263492,4.51215,26,0.0152565,10,0.00118892,-2.34562,0.0192199,3.06974,476.205,0.263492,
2,1,0,1,0,50451.5,0.260585,0.260292,3.04373,26,0.0152715,10,0.000792259,-2.51659,0.011005,5.3612,442.504,0.260292,
2,1,0,1,0,50451.5,0.257383,0.257112,1.68026,26,0.0152808,10,0.000432014,-2.77462,0.016762,3.51986,413.472,0.2571117,
2,1,0,1,0,50451.5,0.254187,0.253876,0.418725,26,0.0152848,10,0.000106304,-3.37807,0.0616709,0.956692,385.311,0.253876,
2,0,0,1,0,50451.6,0.25098,0.250697,-0.778146,26,0.015284,10,-0.000195079,-3.10894,-0.0522358,-1.12949,361.861,0.250697,
2,0,0,1,0,50451.6,0.247783,0.247494,-1.88749,26,0.0152785,10,-0.000467142,-2.72411,-0.013196,-4.47106,339.295,0.2474938,
2,0,0,1,0,50451.6,0.244587,0.244301,-2.95546,26,0.0152687,10,-0.000722022,-2.52937,-0.016132,-3.65733,318.631,0.244301,
2,0,0,1,0,50451.6,0.241383,0.241029,-3.9405,26,0.0152548,10,-0.000949772,-2.40445,-0.0265336,-2.2236,300.946,0.2410285,
2,0,0,1,0,50451.6,0.238187,0.237843,-4.87391,26,0.015237,10,-0.00115923,-2.31212,-0.036859,-1.6007,283.053,0.237843,
2,0,0,1,0,50451.6,0.234982,0.234654,-5.75146,26,0.0152157,10,-0.0013496,-2.24022,-0.0468512,-1.25931,269.425,0.2346544,
2,0,0,1,0,50451.6,0.231786,0.231473,-6.58639,26,0.0151909,10,-0.00152457,-2.18135,-0.0574828,-1.02639,255.071,0.231473,
2,0,0,1,0,50451.6,0.22859,0.228258,-7.38118,26,0.0151629,10,-0.00168481,-2.13187,-0.0684686,-0.861709,241.718,0.228258,
2,0,0,1,0,50451.6,0.225383,0.225041,-8.1394,26,0.0151317,10,-0.0018317,-2.08941,-0.0797028,-0.74025,230.259,0.225041,
2,0,0,1,0,50451.6,0.222187,0.221856,-8.84497,26,0.0150977,10,-0.00196231,-2.0533,-0.0918141,-0.642603,218.231,0.221856,
2,0,0,1,0,50451.6,0.218979,0.218665,-9.5357,26,0.0150609,10,-0.00208512,-2.02065,-0.10407,-0.566926,208.145,0.218665,
2,0,0,1,0,50451.6,0.215783,0.215473,-10.1713,26,0.0150214,10,-0.00219165,-1.99262,-0.116266,-0.507456,199.347,0.215473,
2,0,0,1,0,50451.6,0.212587,0.212253,-10.8011,26,0.0149794,10,-0.00229256,-1.96653,-0.129997,-0.453858,189.708,0.212253,
2,0,0,1,0,50451.6,0.20938,0.209069,-11.3941,26,0.0149349,10,-0.00238216,-1.94332,-0.142502,-0.41403,182.591,0.209069,
2,0,0,1,0,50451.6,0.206184,0.205792,-11.9777,26,0.0148881,10,-0.00246491,-1.92163,-0.156434,-0.377156,174.933,0.205792,
2,0,0,1,0,50451.6,0.202988,0.202667,-12.5095,26,0.0148391,10,-0.00253527,-1.90276,-0.170399,-0.346246,168.093,0.202667,
2,0,0,1,0,50451.6,0.199783,0.199464,-13.0384,26,0.0147879,10,-0.00260068,-1.88478,-0.184236,-0.320241,162.314,0.199464,
2,0,0,1,0,50451.6,0.196587,0.196262,-13.5468,26,0.0147346,10,-0.00265873,-1.86816,-0.198136,-0.297775,156.777,0.196262,
2,0,0,1,0,50451.6,0.193382,0.193013,-14.0519,26,0.0146794,10,-0.0027122,-1.85227,-0.211729,-0.278658,152.114,0.1930133,
2,0,0,1,0,50451.6,0.190186,0.189833,-14.5216,26,0.0146222,10,-0.00275668,-1.83799,-0.226465,-0.260526,147.097,0.189833,
2,0,0,1,0,50451.6,0.18699,0.186692,-14.9811,26,0.0145631,10,-0.00279685,-1.82446,-0.24058,-0.245241,143.049,0.186692,
2,0,0,1,0,50451.6,0.183783,0.18347,-15.4286,26,0.0145023,10,-0.00283067,-1.81167,-0.25234,-0.233812,140.547,0.18347,
2,0,0,1,0,50451.6,0.180587,0.180251,-15.8775,26,0.0144396,10,-0.00286193,-1.79922,-0.26589,-0.221897,137.209,0.1802513,
2,0,0,1,0,50451.6,0.17738,0.177049,-16.3184,26,0.0143751,10,-0.00288915,-1.78732,-0.278671,-0.211719,134.475,0.177049,
2,0,0,1,0,50451.6,0.174183,0.173875,-16.7397,26,0.014309,10,-0.00291062,-1.77625,-0.289177,-0.204027,133.107,0.173875,
2,0,0,1,0,50451.7,0.170987,0.170657,-17.1516,26,0.0142412,10,-0.00292703,-1.7657,-0.299326,-0.197109,131.92,0.170657,
2,0,0,1,0,50451.7,0.16778,0.167424,-17.5849,26,0.0141717,10,-0.00294413,-1.75486,-0.305596,-0.193065,132.437,0.167424,
2,0,0,1,0,50451.7,0.164584,0.164246,-18.0074,26,0.0141004,10,-0.00295764,-1.74455,-0.308183,-0.191445,134.459,0.164246,
2,0,0,1,0,50451.7,0.161382,0.161026,-18.4414,26,0.0140275,10,-0.00296955,-1.73421,-0.314999,-0.187302,134.753,0.161026,
2,0,0,1,0,50451.7,0.158183,0.157889,-18.8683,26,0.0139528,10,-0.0029791,-1.72427,-0.317622,-0.185755,136.806,0.157889,
2,0,0,1,0,50451.7,0.154987,0.154613,-19.3112,26,0.0138765,10,-0.00298576,-1.71419,-0.316566,-0.186375,140.559,0.154613,
2,0,0,1,0,50451.7,0.151783,0.151418,-19.7623,26,0.0137983,10,-0.00299237,-1.70416,-0.31452,-0.187587,144.845,0.151418,
2,0,0,1,0,50451.7,0.148587,0.148263,-20.2354,26,0.0137182,10,-0.00300016,-1.69389,-0.305527,-0.193109,152.782,0.148263,
2,0,0,1,0,50451.7,0.145385,0.145029,-20.7311,26,0.0136362,10,-0.0030066,-1.68338,-0.29792,-0.19804,160.531,0.145029,
2,0,0,1,0,50451.7,0.142183,0.141824,-21.2651,26,0.0135522,10,-0.00301591,-1.67233,-0.287741,-0.205045,170.531,0.141824,
2,0,0,1,0,50451.7,0.138987,0.138649,-21.812,26,0.013466,10,-0.00302423,-1.6613,-0.276699,-0.213228,182.022,0.138649,
2,0,0,1,0,50451.7,0.13578,0.135436,-22.4227,26,0.0133774,10,-0.00303685,-1.64931,-0.266369,-0.221497,194.358,0.135436,
2,0,0,1,0,50451.7,0.132584,0.132251,-23.0569,26,0.0132864,10,-0.0030493,-1.6372,-0.254659,-0.231682,209.078,0.132251,
2,0,0,1,0,50451.7,0.129388,0.129047,-23.7484,26,0.0131928,10,-0.00306467,-1.62437,-0.246947,-0.238917,222.077,0.129047,
2,0,0,1,0,50451.7,0.12618,0.125859,-24.4863,26,0.0130962,10,-0.00308181,-1.61108,-0.236644,-0.24932,238.845,0.125859,
2,0,0,1,0,50451.7,0.122984,0.122621,-25.2686,26,0.0129966,10,-0.00309847,-1.59742,-0.229841,-0.256699,253.786,0.122621,
2,0,0,1,0,50451.7,0.119783,0.119512,-26.0995,26,0.0128938,10,-0.00311921,-1.58337,-0.225063,-0.262149,267.628,0.119512,
2,0,0,1,0,50451.7,0.116584,0.116291,-26.9858,26,0.0127876,10,-0.0031382,-1.56886,-0.219863,-0.268349,283.103,0.116291,
2,0,0,1,0,50451.7,0.113387,0.113081,-27.906,26,0.0126777,10,-0.00315564,-1.5543,-0.220737,-0.267287,291.294,0.1130809,
2,0,0,1,0,50451.7,0.110183,0.10988,-28.8759,26,0.0125641,10,-0.00317287,-1.53946,-0.221464,-0.266409,300.085,0.10988,
2,0,0,1,0,50451.7,0.106987,0.106694,-29.8334,26,0.0124466,10,-0.00318304,-1.5253,-0.225113,-0.262091,304.995,0.106694,
2,0,0,1,0,50451.7,0.103785,0.103501,-30.8238,26,0.0123252,10,-0.0031903,-1.51111,-0.230645,-0.255804,307.44,0.103501,
2,0,0,1,0,50451.7,0.100583,0.100264,-31.8152,26,0.0121998,10,-0.00318991,-1.49737,-0.238025,-0.247873,307.271,0.100264,
2,0,0,1,0,50451.7,0.0973873,0.0971197,-32.7988,26,0.0120704,10,-0.00318541,-1.48414,-0.247489,-0.238395,304.622,0.0971197,
2,0,0,1,0,50451.7,0.0941801,0.0938653,-33.7753,26,0.0119372,10,-0.00317033,-1.4714,-0.258073,-0.228618,300.706,0.09386529,
2,0,0,1,0,50451.8,0.0909839,0.0906533,-34.7375,26,0.0118001,10,-0.00314907,-1.4592,-0.270822,-0.217855,294.579,0.0906533,
2,0,0,1,0,50451.8,0.0877878,0.0874636,-35.6642,26,0.0116592,10,-0.00311932,-1.44777,-0.285021,-0.207002,287.357,0.08746361,
2,0,0,1,0,50451.8,0.0845806,0.0843375,-36.5641,26,0.0115146,10,-0.00308373,-1.43694,-0.296731,-0.198833,283.293,0.0843375,
2,0,0,1,0,50451.8,0.0813844,0.0811574,-37.427,26,0.0113665,10,-0.00303748,-1.42682,-0.314344,-0.187692,273.841,0.0811574,
2,0,0,1,0,50451.8,0.0781828,0.0779486,-38.3367,26,0.0112149,10,-0.00298829,-1.41639,-0.332565,-0.177409,264.711,0.07794857,
2,0,0,1,0,50451.8,0.0749838,0.0747027,-39.1587,26,0.0110598,10,-0.00292526,-1.40717,-0.350644,-0.168262,256.422,0.07470268,
2,0,0,1,0,50451.8,0.0717877,0.0715437,-39.9508,26,0.0109015,10,-0.00285823,-1.39847,-0.380854,-0.154915,241.032,0.0715437,
2,0,0,1,0,50451.8,0.0685832,0.0683286,-40.7166,26,0.0107401,10,-0.0027821,-1.39023,-0.406057,-0.1453,230.31,0.0683286,
2,0,0,1,0,50451.8,0.0653871,0.0650805,-41.4383,26,0.0105757,10,-0.00269683,-1.3826,-0.438787,-0.134462,216.87,0.0650805,
2,0,0,1,0,50451.8,0.0621854,0.0619036,-42.1065,26,0.0104085,10,-0.00260654,-1.37565,-0.478833,-0.123216,201.946,0.0619036,
2,0,0,1,0,50451.8,0.0589837,0.0587043,-42.7353,26,0.0102388,10,-0.00250875,-1.36921,-0.514281,-0.114723,190.942,0.0587043,
2,0,0,1,0,50451.8,0.0557876,0.0555295,-43.3013,26,0.0100666,10,-0.0024045,-1.3635,-0.556259,-0.106066,178.984,0.0555295,
2,0,0,1,0,50451.8,0.0525804,0.0523005,-43.8786,26,0.00989219,10,-0.00229487,-1.35775,-0.601207,-0.0981359,167.751,0.0523005,
2,0,0,1,0,50451.8,0.0493842,0.0491373,-44.3914,26,0.00971559,10,-0.00218128,-1.3527,-0.643285,-0.0917167,158.616,0.0491373,
2,0,0,1,0,50451.8,0.0461881,0.0459052,-44.8823,26,0.00953698,10,-0.00206033,-1.34792,-0.702126,-0.0840305,146.967,0.0459052,
2,0,0,1,0,50451.8,0.0429808,0.0426678,-45.3414,26,0.00935646,10,-0.00193462,-1.34351,-0.762111,-0.0774165,136.764,0.0426678,
2,0,0,1,0,50451.8,0.0397847,0.0394717,-45.764,26,0.00917421,10,-0.00180638,-1.33948,-0.827512,-0.071298,127.142,0.0394717,
2,0,0,1,0,50451.8,0.036583,0.0362629,-46.1522,26,0.00899034,10,-0.00167361,-1.33581,-0.915155,-0.0644699,115.944,0.0362629,
2,0,0,1,0,50451.8,0.0333841,0.0330807,-46.5129,26,0.00880496,10,-0.00153868,-1.33243,-1.00878,-0.0584862,106.003,0.0330807,
2,0,0,1,0,50451.8,0.030188,0.0298337,-46.8294,26,0.00861824,10,-0.00139709,-1.32948,-1.12838,-0.0522872,95.418,0.0298337,
2,0,0,1,0,50451.8,0.0269835,0.0266355,-47.1247,26,0.00843028,10,-0.00125519,-1.32675,-1.25417,-0.0470429,86.4086,0.0266355,
2,0,0,1,0,50451.8,0.0237874,0.0234755,-47.3723,26,0.00824124,10,-0.00111209,-1.32448,-1.39161,-0.0423968,78.31,0.0234755,
2,0,0,1,0,50451.8,0.0205857,0.0202476,-47.6218,26,0.00805122,10,-0.000964227,-1.32219,-1.5514,-0.0380303,70.6088,0.0202476,
2,0,0,1,0,50451.8,0.017384,0.0170484,-47.8306,26,0.00786026,10,-0.000815434,-1.32029,-1.72979,-0.0341082,63.5993,0.0170484,
2,0,0,1,0,50451.8,0.0141878,0.0138809,-48.0252,26,0.00766852,10,-0.000666636,-1.31853,-2.02974,-0.0290678,54.417,0.0138809,
2,0,0,1,0,50451.9,0.0109806,0.0106775,-48.1863,26,0.00747607,10,-0.000514507,-1.31708,-2.39953,-0.0245881,46.1809,0.0106775,
2,0,0,1,0,50451.9,0.00778448,0.00746018,-48.3176,26,0.00728304,10,-0.000360458,-1.31589,-2.61293,-0.0225801,42.5622,0.00746018,
2,0,0,1,0,50451.9,0.00458834,0.00426199,-48.4211,26,0.00708954,10,-0.00020637,-1.31497,-3.30575,-0.0178477,33.7146,0.00426199,
2,0,0,1,0,50451.9,0.0013811,0.00100867,-48.5731,26,0.00689555,10,-4.89941e-05,-1.3136,-4.19948,-0.0140494,26.5864,0.00100867,
2,0,0,1,0,50451.9,-0.00181504,-0.00219906,-48.6204,26,0.00670115,10,0.000106919,-1.31318,-5.97357,-0.00987684,18.7109,-0.00219906,
2,0,0,1,0,50451.9,-0.0050195,-0.00541846,-48.66,26,0.0065066,10,0.000263662,-1.31283,-15.8639,-0.00371913,7.05673,-0.005418459,
2,0,0,1,0,50451.9,-0.00821564,-0.00860604,-48.6619,26,0.00631195,10,0.000418786,-1.31281,-162.605,-0.000362843,0.688557,-0.00860604,
2,0,0,1,0,50451.9,-0.0114118,-0.0117745,-48.6633,26,0.00611731,10,0.000572988,-1.3128,19.2018,0.00307263,-5.83061,-0.0117745,
2,0,0,1,0,50451.9,-0.0146162,-0.014978,-48.6292,26,0.00592271,10,0.000728369,-1.3131,9.14423,0.00645216,-12.2337,-0.014978,
2,0,0,1,0,50451.9,-0.0178124,-0.0181942,-48.5855,26,0.00572827,10,0.000883977,-1.31349,5.78132,0.0102053,-19.3321,-0.01819424,
2,0,0,1,0,50451.9,-0.0210196,-0.0214041,-48.5053,26,0.00553409,10,0.00103821,-1.31421,4.1967,0.0140587,-26.5875,-0.0214041,
2,0,0,1,0,50451.9,-0.0242158,-0.0246203,-48.415,26,0.00534024,10,0.00119199,-1.31502,3.45362,0.0170835,-32.2544,-0.0246203,
2,0,0,1,0,50451.9,-0.0274119,-0.0278005,-48.2883,26,0.00514684,10,0.00134244,-1.31616,2.96078,0.0199272,-37.5355,-0.0278005,
2,0,0,1,0,50451.9,-0.0306191,-0.03104,-48.1712,26,0.0049539,10,0.00149523,-1.31721,2.62717,0.0224576,-42.1966,-0.03104,
2,0,0,1,0,50451.9,-0.0338153,-0.0341862,-48.0255,26,0.0047615,10,0.00164181,-1.31853,2.41651,0.0244154,-45.7327,-0.0341862,
2,0,0,1,0,50451.9,-0.037017,-0.0374014,-47.8757,26,0.00456972,10,0.00179062,-1.31989,2.21262,0.0266653,-49.7975,-0.0374014,
2,0,0,1,0,50451.9,-0.0402187,-0.0405816,-47.7038,26,0.00437858,10,0.00193589,-1.32145,2.09835,0.0281174,-52.3307,-0.04058155,
2,0,0,1,0,50451.9,-0.0434148,-0.0438423,-47.5337,26,0.00418813,10,0.00208399,-1.323,2.02688,0.0291088,-53.9947,-0.0438423,
2,0,0,1,0,50451.9,-0.0466193,-0.0470182,-47.354,26,0.00399838,10,0.0022265,-1.32464,1.93871,0.0304327,-56.2288,-0.0470182,
2,0,0,1,0,50451.9,-0.0498154,-0.050192,-47.185,26,0.00380933,10,0.00236831,-1.3262,1.90613,0.0309527,-56.9789,-0.050192,
2,0,0,1,0,50451.9,-0.0530115,-0.0533817,-46.984,26,0.00362102,10,0.00250809,-1.32805,1.85793,0.0317558,-58.2253,-0.0533817,
2,0,0,1,0,50451.9,-0.056216,-0.0566266,-46.8052,26,0.00343346,10,0.00265042,-1.32971,1.89288,0.0311694,-56.9525,-0.0566266,
2,0,0,1,0,50451.9,-0.0594121,-0.0597898,-46.6104,26,0.00324664,10,0.00278682,-1.33152,1.9616,0.0300774,-54.7377,-0.0597898,
2,0,0,1,0,50451.9,-0.0626194,-0.0630219,-46.4544,26,0.00306054,10,0.00292764,-1.33297,1.98491,0.0297242,-53.8955,-0.0630219,
2,0,0,1,0,50451.9,-0.0658155,-0.0662169,-46.2815,26,0.00287508,10,0.00306461,-1.33459,2.09994,0.028096,-50.7509,-0.0662169,
2,0,0,1,0,50452,-0.0690117,-0.0694098,-46.1163,26,0.00269031,10,0.00320092,-1.33615,2.17679,0.0271042,-48.8074,-0.06940978,
2,0,0,1,0,50452,-0.0722189,-0.0726048,-45.96,26,0.00250615,10,0.00333692,-1.33762,2.28317,0.0258413,-46.3761,-0.0726048,
2,0,0,1,0,50452,-0.075415,-0.075839,-45.8288,26,0.0023226,10,0.00347561,-1.33886,2.5152,0.0234573,-41.9712,-0.07583902,
2,0,0,1,0,50452,-0.0786167,-0.0789715,-45.6899,26,0.00213959,10,0.0036082,-1.34018,2.72518,0.02165,-38.623,-0.0789715,
2,0,0,1,0,50452,-0.0818184,-0.0822259,-45.5784,26,0.00195707,10,0.00374772,-1.34124,3.01879,0.0195442,-34.7859,-0.0822259,
2,0,0,1,0,50452,-0.0850146,-0.0854505,-45.4639,26,0.001775,10,0.00388491,-1.34233,3.45125,0.0170953,-30.3532,-0.0854505,
2,0,0,1,0,50452,-0.088219,-0.0886339,-45.3837,26,0.00159333,10,0.00402253,-1.3431,3.93432,0.0149962,-26.5753,-0.0886339,
2,0,0,1,0,50452,-0.0914152,-0.0917897,-45.3009,26,0.00141199,10,0.00415815,-1.34389,4.68807,0.0125851,-22.2601,-0.0917897,
2,0,0,1,0,50452,-0.0946141,-0.0950356,-45.2379,26,0.00123094,10,0.00429921,-1.3445,5.50001,0.0107273,-18.9493,-0.0950356,
2,0,0,1,0,50452,-0.0978158,-0.0982179,-45.1797,26,0.0010501,10,0.00443745,-1.34506,7.67772,0.00768457,-13.5598,-0.0982179,
2,0,0,1,0,50452,-0.101012,-0.101388,-45.142,26,0.000869457,10,0.00457688,-1.34542,10.576,0.00557864,-9.8354,-0.101388,
2,0,0,1,0,50452,-0.104219,-0.104624,-45.1268,26,0.000688924,10,0.00472134,-1.34557,19.7119,0.00299312,-5.2736,-0.104624,
2,0,0,1,0,50452,-0.107415,-0.107797,-45.1124,26,0.000508441,10,0.00486296,-1.3457,-177.939,-0.000331574,0.584199,-0.1077965,
2,0,0,1,0,50452,-0.110611,-0.110976,-45.1124,26,0.000327972,10,0.00500638,-1.3457,-27.4514,-0.00214925,3.7872,-0.110976,
2,0,0,1,0,50452,-0.113819,-0.11421,-45.1495,26,0.000147428,10,0.00515652,-1.34535,-11.3694,-0.00518938,9.14828,-0.11421,
2,0,0,1,0,50452,-0.117015,-0.117369,-45.1751,26,-3.32243e-05,10,0.00530215,-1.3451,-7.54281,-0.00782202,13.7983,-0.1173688,
2,0,0,1,0,50452,-0.120216,-0.120608,-45.2296,26,-0.000214035,10,0.00545507,-1.34458,-6.16361,-0.00957232,16.9072,-0.120608,
2,0,0,1,0,50452,-0.123418,-0.123769,-45.2889,26,-0.000395084,10,0.00560538,-1.34401,-4.8322,-0.0122098,21.5922,-0.123769,
2,0,0,1,0,50452,-0.126614,-0.126986,-45.3655,26,-0.000576401,10,0.00576077,-1.34327,-4.16752,-0.0141571,25.078,-0.126986,
2,0,0,1,0,50452,-0.129819,-0.130174,-45.4516,26,-0.000758036,10,0.00591663,-1.34245,-3.70133,-0.0159402,28.287,-0.130174,
2,0,0,1,0,50452,-0.133015,-0.133372,-45.5497,26,-0.000940038,10,0.00607508,-1.34151,-3.25604,-0.0181202,32.2274,-0.133372,
2,0,0,1,0,50452,-0.136214,-0.136618,-45.6524,26,-0.00112245,10,0.00623695,-1.34054,-3.03203,-0.0194589,34.6856,-0.136618,
2,0,0,1,0,50452,-0.139416,-0.139829,-45.7794,26,-0.00130534,10,0.0064013,-1.33933,-2.74307,-0.0215088,38.4423,-0.139829,
2,0,0,1,0,50452,-0.142612,-0.143003,-45.8966,26,-0.0014887,10,0.00656335,-1.33822,-2.65151,-0.0222515,39.8658,-0.143003,
2,0,0,1,0,50452,-0.145819,-0.146222,-46.0437,26,-0.00167258,10,0.00673263,-1.33683,-2.54429,-0.0231892,41.6704,-0.146222,
2,0,0,1,0,50452.1,-0.149015,-0.149411,-46.1624,26,-0.001857,10,0.00689717,-1.33571,-2.39329,-0.0246523,44.4298,-0.149411,
2,0,0,1,0,50452.1,-0.152211,-0.152582,-46.3108,26,-0.00204198,10,0.00706619,-1.33432,-2.39915,-0.0245921,44.4628,-0.152582,
2,0,0,1,0,50452.1,-0.155418,-0.155782,-46.4644,26,-0.00222757,10,0.00723831,-1.33288,-2.31703,-0.0254636,46.1672,-0.155782,
2,0,0,1,0,50452.1,-0.158615,-0.159008,-46.6122,26,-0.00241373,10,0.0074117,-1.3315,-2.31374,-0.0254998,46.3813,-0.159008,
2,0,0,1,0,50452.1,-0.161816,-0.162194,-46.7525,26,-0.00260047,10,0.007583,-1.33019,-2.38122,-0.0247772,45.2084,-0.162194,
2,0,0,1,0,50452.1,-0.165018,-0.165339,-46.9025,26,-0.00278779,10,0.00775484,-1.3288,-2.36877,-0.0249074,45.5925,-0.165339,
2,0,0,1,0,50452.1,-0.168214,-0.168544,-47.0413,26,-0.00297569,10,0.00792853,-1.32752,-2.43655,-0.0242146,44.4498,-0.168544,
2,0,0,1,0,50452.1,-0.171419,-0.171791,-47.195,26,-0.00316417,10,0.00810768,-1.3261,-2.53438,-0.0232799,42.8614,-0.171791,
2,0,0,1,0,50452.1,-0.174615,-0.174966,-47.3202,26,-0.00335321,10,0.00827943,-1.32495,-2.6569,-0.0222063,40.9952,-0.174966,
2,0,0,1,0,50452.1,-0.177814,-0.17813,-47.4508,26,-0.00354275,10,0.00845241,-1.32376,-2.80476,-0.0210357,38.9492,-0.17813,
2,0,0,1,0,50452.1,-0.181015,-0.181356,-47.5665,26,-0.00373281,10,0.00862647,-1.3227,-2.84014,-0.0207736,38.5631,-0.181356,
2,0,0,1,0,50452.1,-0.184211,-0.184583,-47.6932,26,-0.00392337,10,0.00880335,-1.32154,-2.97659,-0.0198213,36.8894,-0.184583,
2,0,0,1,0,50452.1,-0.187419,-0.187735,-47.8127,26,-0.00411441,10,0.00897613,-1.32046,-3.10177,-0.0190214,35.4792,-0.187735,
2,0,0,1,0,50452.1,-0.190615,-0.190988,-47.9251,26,-0.00430591,10,0.00915309,-1.31944,-3.20403,-0.0184143,34.4329,-0.190988,
2,0,0,1,0,50452.1,-0.193811,-0.194165,-48.021,26,-0.00449783,10,0.00932397,-1.31857,-3.58577,-0.0164539,30.8236,-0.194165,
2,0,0,1,0,50452.1,-0.197018,-0.197371,-48.1336,26,-0.00469016,10,0.00950018,-1.31755,-5.53897,-0.0106518,19.962,-0.197371,
2,0,0,1,0,50452.1,-0.199647,-0.199969,-48.1898,26,-0.00484912,10,0.00963646,-1.31705,0.241028,0.244784,-447.42,-0.199969,
2,0,0,1,0,50452.1,-0.200134,-0.200456,-48.1141,26,-0.00487803,10,0.00964475,-1.31773,-0.0156973,-3.7586,6488.07,-0.200456,
2,0,0,1,1,50452.1,-0.198935,-0.199423,-45.6682,26,-0.00494761,10,0.00910729,-1.34039,-0.0585881,-1.00703,1655.84,-0.199423,
2,0,0,1,1,50452.1,-0.195739,-0.196202,-40.5449,26,-0.00511904,10,0.00795498,-1.39206,-0.0668519,-0.882548,1385.78,-0.196202,
2,0,0,1,1,50452.1,-0.192535,-0.192973,-36.6047,26,-0.00527272,10,0.0070637,-1.43646,-0.0725212,-0.813556,1189.77,-0.192973,
2,0,0,1,1,50452.1,-0.189339,-0.189741,-33.265,26,-0.00541202,10,0.00631171,-1.47801,-0.0773053,-0.763208,1003.69,-0.189741,
2,0,0,1,1,50452.1,-0.186137,-0.186524,-30.3215,26,-0.00553879,10,0.0056557,-1.51825,-0.0794418,-0.742682,886.204,-0.1865243,
2,0,0,1,1,50452.1,-0.182935,-0.183372,-27.6677,26,-0.00565443,10,0.00507347,-1.55803,-0.079458,-0.74253,805.713,-0.183372,
2,0,0,1,1,50452.1,-0.179739,-0.180157,-25.247,26,-0.00575994,10,0.00454841,-1.59779,-0.0788275,-0.74847,739.128,-0.180157,
2,0,0,1,1,50452.1,-0.176532,-0.17697,-22.9756,26,-0.00585611,10,0.004066,-1.63873,-0.0774446,-0.761835,683.853,-0.17697,
2,0,0,1,1,50452.1,-0.173336,-0.17374,-20.8723,26,-0.00594357,10,0.00362636,-1.68043,-0.07444,-0.792584,645.063,-0.17374,
2,0,0,1,1,50452.2,-0.17014,-0.170537,-18.8903,26,-0.00602287,10,0.00322149,-1.72376,-0.0717536,-0.822258,604.481,-0.170537,
2,0,0,1,1,50452.2,-0.166932,-0.167377,-17.0031,26,-0.00609442,10,0.00284591,-1.76947,-0.0676602,-0.872005,576.249,-0.167377,
2,0,0,1,1,50452.2,-0.163736,-0.164153,-15.2279,26,-0.00615869,10,0.00249971,-1.81736,-0.0634987,-0.929152,548.324,-0.164153,
2,0,0,1,1,50452.2,-0.160532,-0.160987,-13.5231,26,-0.00621601,10,0.00217704,-1.86892,-0.0590048,-0.999919,522.398,-0.160987,
2,0,0,1,1,50452.2,-0.157336,-0.15777,-11.8903,26,-0.00626667,10,0.00187594,-1.92481,-0.0540827,-1.09092,499.406,-0.15777,
2,0,0,1,1,50452.2,-0.154139,-0.15459,-10.3235,26,-0.00631093,10,0.00159591,-1.98617,-0.0487048,-1.21138,479.29,-0.15459,
2,0,0,1,1,50452.2,-0.150935,-0.151309,-8.8137,26,-0.00634903,10,0.00133359,-2.05484,-0.0427213,-1.38105,462.445,-0.151309,
2,0,0,1,1,50452.2,-0.147739,-0.148151,-7.37136,26,-0.00638123,10,0.00109208,-2.13245,-0.0364591,-1.61825,446.972,-0.148151,
2,0,0,1,1,50452.2,-0.144532,-0.144925,-5.94983,26,-0.00640773,10,0.000862276,-2.2255,-0.029547,-1.99682,436.445,-0.144925,
2,0,0,1,1,50452.2,-0.141335,-0.141775,-4.59554,26,-0.00642868,10,0.000651533,-2.33766,-0.0224932,-2.62302,420.475,-0.141775,
2,0,0,1,1,50452.2,-0.138139,-0.138637,-3.28312,26,-0.00644429,10,0.000455163,-2.48371,-0.0142127,-4.15121,407.217,-0.138637,
2,0,0,1,1,50452.2,-0.134932,-0.135347,-1.98742,26,-0.00645467,10,0.000268991,-2.70171,-0.0127335,-4.63345,394.099,-0.135347,
2,0,0,1,1,50452.2,-0.131736,-0.132161,-0.752493,26,-0.00646003,10,9.94505e-05,-3.1235,-0.0429372,-1.3741,383.761,-0.132161,
2,1,0,1,1,50452.2,-0.12854,-0.128964,0.453176,26,-0.00646051,10,-5.84436e-05,-3.34373,0.0856734,0.688662,375.477,-0.128964,
2,1,0,1,1,50452.2,-0.125333,-0.125787,1.64821,26,-0.00645618,10,-0.000207324,-2.78299,0.0177922,3.31606,366.688,-0.125787,
2,1,0,1,1,50452.2,-0.122136,-0.122598,2.79964,26,-0.00644715,10,-0.000343229,-2.5529,0.0122263,4.82566,357.772,-0.122598,
2,1,0,1,1,50452.2,-0.118932,-0.11938,3.93418,26,-0.00643358,10,-0.000469664,-2.40515,0.0224999,2.62224,348.11,-0.1193804,
2,1,0,1,1,50452.2,-0.115736,-0.116192,5.02285,26,-0.00641556,10,-0.000583614,-2.29905,0.0313382,1.88269,341.153,-0.116192,
2,1,0,1,1,50452.2,-0.11254,-0.113002,6.09891,26,-0.00639322,10,-0.00068919,-2.21475,0.040047,1.47327,333.999,-0.113002,
2,1,0,1,1,50452.2,-0.109335,-0.10982,7.15886,26,-0.00636657,10,-0.000786184,-2.14516,0.0483513,1.22024,329.158,-0.10982,
2,1,0,1,1,50452.2,-0.106139,-0.106604,8.20163,26,-0.00633574,10,-0.000874323,-2.0861,0.0571638,1.03212,321.513,-0.106604,
2,1,0,1,1,50452.2,-0.102932,-0.103429,9.22391,26,-0.00630078,10,-0.000954017,-2.03508,0.0661128,0.892415,314.292,-0.1034287,
2,1,0,1,1,50452.2,-0.0997357,-0.100192,10.2174,26,-0.00626179,10,-0.0010237,-1.99066,0.0749191,0.787516,308.871,-0.100192,
2,1,0,1,1,50452.2,-0.0965395,-0.0969994,11.1882,26,-0.00621887,10,-0.00108525,-1.95124,0.0843353,0.699588,301.674,-0.0969994,
2,1,0,1,1,50452.2,-0.0933323,-0.0937991,12.1566,26,-0.00617208,10,-0.00114027,-1.91519,0.0932481,0.632721,296.887,-0.0937991,
2,1,0,1,1,50452.3,-0.0901362,-0.0905776,13.1007,26,-0.00612147,10,-0.00118663,-1.8827,0.10238,0.576284,291.666,-0.0905776,
2,1,0,1,1,50452.3,-0.0869345,-0.0873508,14.0299,26,-0.00606712,10,-0.00122552,-1.85295,0.111935,0.527094,286.041,-0.0873508,
2,1,0,1,1,50452.3,-0.0837328,-0.084177,14.9281,26,-0.00600911,10,-0.0012566,-1.826,0.121957,0.483776,279.841,-0.08417701,
2,1,0,1,1,50452.3,-0.0805366,-0.0810128,15.814,26,-0.00594754,10,-0.00128113,-1.80096,0.132156,0.446442,273.912,-0.0810128,
2,1,0,1,1,50452.3,-0.0773322,-0.0777605,16.6875,26,-0.00588245,10,-0.00129763,-1.77761,0.14232,0.41456,268.43,-0.0777605,
2,1,0,1,1,50452.3,-0.074136,-0.0745252,17.543,26,-0.00581391,10,-0.00130739,-1.7559,0.153432,0.384536,261.789,-0.0745252,
2,1,0,1,1,50452.3,-0.0709371,-0.0713408,18.3737,26,-0.00574198,10,-0.00131079,-1.7358,0.163134,0.361667,258.081,-0.0713408,
2,1,0,1,1,50452.3,-0.0677354,-0.0681447,19.1827,26,-0.00566678,10,-0.0013072,-1.71709,0.174,0.339081,252.942,-0.0681447,
2,1,0,1,1,50452.3,-0.0645393,-0.0650017,19.9803,26,-0.00558836,10,-0.00129875,-1.6994,0.185244,0.318499,247.559,-0.0650017,
2,1,0,1,1,50452.3,-0.0613321,-0.061742,20.7764,26,-0.00550678,10,-0.00128277,-1.68243,0.195918,0.301146,243.289,-0.061742,
2,1,0,1,1,50452.3,-0.0581359,-0.0585395,21.5428,26,-0.00542205,10,-0.0012611,-1.6667,0.208318,0.283221,237.289,-0.0585395,
2,1,0,1,1,50452.3,-0.0549398,-0.0553467,22.2963,26,-0.00533429,10,-0.00123403,-1.65177,0.220742,0.26728,231.868,-0.0553467,
2,1,0,1,1,50452.3,-0.0517325,-0.0521601,23.0275,26,-0.00524354,10,-0.00120112,-1.63775,0.232141,0.254156,227.818,-0.0521601,
2,1,0,1,1,50452.3,-0.0485364,-0.0489312,23.7468,26,-0.00514992,10,-0.00116196,-1.6244,0.244618,0.241193,223.03,-0.0489312,
2,1,0,1,1,50452.3,-0.0453347,-0.0457563,24.455,26,-0.00505345,10,-0.00111897,-1.61163,0.257582,0.229053,218.073,-0.04575634,
2,1,0,1,1,50452.3,-0.042133,-0.0425582,25.1485,26,-0.00495417,10,-0.00107027,-1.59949,0.270644,0.217999,213.426,-0.0425582,
2,1,0,1,1,50452.3,-0.0389369,-0.0393738,25.8158,26,-0.00485217,10,-0.00101647,-1.58811,0.286385,0.206016,207.09,-0.0393738,
2,1,0,1,1,50452.3,-0.0357324,-0.0361512,26.4744,26,-0.00474754,10,-0.000957079,-1.57717,0.301916,0.195418,201.464,-0.0361512,
2,1,0,1,1,50452.3,-0.0325363,-0.0329636,27.1043,26,-0.00464033,10,-0.000893454,-1.56696,0.317911,0.185586,195.946,-0.0329636,
2,1,0,1,1,50452.3,-0.0293374,-0.0297675,27.7254,26,-0.00453062,10,-0.000825316,-1.55712,0.332286,0.177558,191.834,-0.0297675,
2,1,0,1,1,50452.3,-0.0261357,-0.0265396,28.3306,26,-0.00441842,10,-0.000751885,-1.54774,0.347829,0.169624,187.243,-0.0265396,
2,1,0,1,1,50452.3,-0.0229395,-0.0233552,28.9291,26,-0.00430383,10,-0.000675645,-1.53867,0.365988,0.161207,181.642,-0.0233552,
2,1,0,1,1,50452.3,-0.0197323,-0.0201719,29.4994,26,-0.00418692,10,-0.000595059,-1.53019,0.385804,0.152927,175.711,-0.0201719,
2,1,0,1,1,50452.3,-0.0165361,-0.0169769,30.0487,26,-0.00406777,10,-0.000510134,-1.52217,0.403881,0.146083,171.1,-0.0169769,
2,1,0,1,1,50452.3,-0.01334,-0.0137405,30.5796,26,-0.00394645,10,-0.00042018,-1.51457,0.42569,0.138599,165.242,-0.0137405,
2,1,0,1,1,50452.4,-0.0101328,-0.0105476,31.1204,26,-0.00382298,10,-0.000328247,-1.50695,0.444069,0.132862,161.108,-0.0105476,
2,1,0,1,1,50452.4,-0.00693663,-0.00731765,31.6235,26,-0.00369743,10,-0.000231409,-1.49999,0.464067,0.127137,156.558,-0.00731765,
2,1,0,1,1,50452.4,-0.00373494,-0.00414809,32.1155,26,-0.00356991,10,-0.000133218,-1.49329, , , ,-0.00414809,
2,1,0,1,1,50452.4,-0.000774628,-0.00117471,32.5468,26,-0.00345027,10,-3.82331e-05,-1.48749, , , ,-0.00117471,
2,1,0,0,1,50452.4,-0.000125413,-0.000516197,32.6562,26,-0.0034242,10,-1.68571e-05,-1.48603, , , ,-0.000516197,