File: Figure_codes/Fig_3-5/rawdata_trumpetplot_data/after 10th/20221101_1-115_003_TrumpetPlot_ParaChange_from10_every3_07_CV_C01_16.csv
mode,ox/red,error,control changes,counter inc.,time/s,control/V,Ewe/V,<I>/mA,cycle number,(Q-Qo)/C,I Range,P/W,log(|I|),Tafel slope mV/dec,alpha_eff,dI/d(E-IR),E-IR/V,
2,0,0,0,0,32687.1,2.44065e-05,-0.000325324,-2.69758,17,0.0000000E+000,10,8.77588e-07,-2.56902, , , ,-0.000325324,
2,0,0,1,0,32687.1,0.0013005,0.000962568,-1.09883,17,-3.69254e-05,10,-1.05769e-06,-2.95907, , , ,0.000962568,
2,0,0,1,0,32687.2,0.00279471,0.00245008,-0.0517045,17,-4.98416e-05,10,-1.2668e-07,-4.28647,-0.0121336,-4.86252,591.611,0.00245008,
2,1,0,1,0,32687.2,0.00429425,0.00402839,0.57737,17,-4.22168e-05,10,2.32587e-06,-3.23855,0.00781406,7.55049,364.056,0.00402839,
2,1,0,1,0,32687.2,0.00579379,0.00544962,1.0185,17,-2.13821e-05,10,5.55042e-06,-2.99204,0.00736865,8.00689,252.909,0.005449621,
2,1,0,1,0,32687.2,0.007288,0.00696804,1.3441,17,8.60614e-06,10,9.36572e-06,-2.87157,0.0150586,3.91803,187.745,0.006968041,
2,1,0,1,0,32687.3,0.00878882,0.00844756,1.57609,17,4.56657e-05,10,1.33141e-05,-2.80242,0.0240835,2.44981,144.423,0.00844756,
2,1,0,1,0,32687.3,0.0102896,0.00998283,1.76512,17,8.79667e-05,10,1.76209e-05,-2.75323,0.0361298,1.633,109.562,0.00998283,
2,1,0,1,0,32687.3,0.0117838,0.0114797,1.90919,17,0.000134191,10,2.19168e-05,-2.71915,0.0497534,1.18585,86.9413,0.0114797,
2,1,0,1,0,32687.3,0.0132834,0.0129587,2.0316,17,0.000183869,10,2.63269e-05,-2.69216,0.0611048,0.965554,75.7325,0.0129587,
2,1,0,1,0,32687.4,0.0147816,0.0144397,2.12847,17,0.000236323,10,3.07345e-05,-2.67193,0.071643,0.823528,68.1885,0.0144397,
2,1,0,1,0,32687.4,0.0162811,0.015935,2.2205,17,0.000291257,10,3.53837e-05,-2.65355,0.0899942,0.655598,56.5756,0.015935,
2,1,0,1,0,32687.4,0.0177753,0.0174595,2.29951,17,0.000348054,10,4.01484e-05,-2.63836,0.112053,0.526536,47.1378,0.0174595,
2,1,0,1,0,32687.4,0.0192761,0.0189689,2.37367,17,0.0004068,10,4.5026e-05,-2.62458,0.122444,0.481852,44.4164,0.01896894,
2,1,0,1,0,32687.5,0.020777,0.0204354,2.43426,17,0.000467305,10,4.97451e-05,-2.61363,0.122576,0.481333,45.5994,0.0204354,
2,1,0,1,0,32687.5,0.0222712,0.0219625,2.4919,17,0.000529148,10,5.47283e-05,-2.60347,0.147783,0.399235,38.8824,0.0219625,
2,1,0,1,0,32687.5,0.0237707,0.0234495,2.55648,17,0.000592747,10,5.99481e-05,-2.59236,0.164657,0.358321,35.7064,0.0234495,
2,1,0,1,0,32687.5,0.0252703,0.0249391,2.61079,17,0.000657741,10,6.51107e-05,-2.58323,0.163858,0.360069,36.6507,0.02493906,
2,1,0,1,0,32687.5,0.0267645,0.0264406,2.66014,17,0.000723841,10,7.03357e-05,-2.5751,0.159151,0.370717,38.5693,0.02644062,
2,1,0,1,0,32687.6,0.0282653,0.0279468,2.71865,17,0.00079157,10,7.59776e-05,-2.56565,0.175896,0.335425,35.6526,0.0279468,
2,1,0,1,0,32687.6,0.0297648,0.0294273,2.77606,17,0.000860693,10,8.16918e-05,-2.55657,0.188949,0.312253,33.7603,0.0294273,
2,1,0,1,0,32687.6,0.031259,0.030909,2.826,17,0.00093084,10,8.73487e-05,-2.54883,0.184637,0.319545,35.1402,0.030909,
2,1,0,1,0,32687.6,0.0327585,0.0324283,2.87366,17,0.0010025,10,9.31878e-05,-2.54156,0.176876,0.333567,37.4286,0.0324283,
2,1,0,1,0,32687.7,0.034258,0.0339202,2.91942,17,0.00107545,10,9.9027e-05,-2.5347,0.196846,0.299726,34.2674,0.0339202,
2,1,0,1,0,32687.7,0.0357576,0.0353966,2.98128,17,0.00114973,10,0.000105527,-2.5256,0.227565,0.259266,30.1223,0.0353966,
2,1,0,1,0,32687.7,0.0372518,0.0369213,3.03625,17,0.00122501,10,0.000112102,-2.51766,0.199592,0.295603,34.913,0.0369213,
2,1,0,1,0,32687.7,0.0387526,0.0384556,3.07562,17,0.00130174,10,0.000118275,-2.51207,0.19965,0.295517,35.5572,0.0384556,
2,1,0,1,0,32687.8,0.0402534,0.0399371,3.12907,17,0.00137982,10,0.000124966,-2.50458,0.22397,0.263428,32.2108,0.0399371,
2,1,0,1,0,32687.8,0.0417476,0.0414274,3.18547,17,0.00145892,10,0.000131966,-2.49683,0.232147,0.25415,31.546,0.0414274,
2,1,0,1,0,32687.8,0.0432472,0.042933,3.24041,17,0.00153959,10,0.000139121,-2.4894,0.21993,0.268267,33.8198,0.042933,
2,1,0,1,0,32687.8,0.0447467,0.0444231,3.2801,17,0.00162146,10,0.000145712,-2.48411,0.20581,0.286672,36.7463,0.0444231,
2,1,0,1,0,32687.9,0.0462463,0.0459103,3.32623,17,0.00170457,10,0.000152708,-2.47805,0.232174,0.25412,33.0725,0.0459103,
2,1,0,1,0,32687.9,0.0477391,0.0474512,3.3815,17,0.00178862,10,0.000160457,-2.47089,0.242683,0.243115,32.0902,0.0474512,
2,1,0,1,0,32687.9,0.0492399,0.048927,3.43336,17,0.00187426,10,0.000167984,-2.46428,0.252037,0.234093,31.3146,0.048927,
2,1,0,1,0,32687.9,0.0507408,0.0504266,3.47418,17,0.00196109,10,0.000175191,-2.45915,0.247989,0.237914,32.3284,0.0504266,
2,1,0,1,0,32688,0.052235,0.0519205,3.51724,17,0.00204868,10,0.000182617,-2.4538,0.25266,0.233516,32.13,0.0519205,
2,1,0,1,0,32688,0.0537345,0.0534297,3.57924,17,0.00213791,10,0.000191238,-2.44621,0.278977,0.211487,29.4885,0.0534297,
2,1,0,1,0,32688,0.0552341,0.0549448,3.63083,17,0.00222841,10,0.000199495,-2.43999,0.273251,0.215918,30.4995,0.0549448,
2,1,0,1,0,32688,0.0567283,0.056415,3.66563,17,0.00231966,10,0.000206797,-2.43585,0.273097,0.216041,30.9475,0.056415,
2,1,0,1,0,32688.1,0.0582291,0.0578872,3.70804,17,0.00241233,10,0.000214648,-2.43086,0.28708,0.205517,29.8357,0.05788723,
2,1,0,1,0,32688.1,0.0597299,0.059421,3.76068,17,0.0025062,10,0.000223463,-2.42473,0.294764,0.20016,29.3646,0.059421,
2,1,0,1,0,32688.1,0.0612228,0.0609346,3.81172,17,0.00260085,10,0.000232266,-2.41888,0.304292,0.193893,28.7616,0.0609346,
2,1,0,1,0,32688.1,0.0627223,0.0624351,3.84573,17,0.002697,10,0.000240108,-2.41502,0.282902,0.208553,31.319,0.0624351,
2,1,0,1,0,32688.2,0.0642218,0.0639074,3.87936,17,0.00279408,10,0.00024792,-2.41124,0.306271,0.19264,29.2982,0.0639074,
2,1,0,1,0,32688.2,0.0657214,0.0654344,3.9347,17,0.0028923,10,0.000257464,-2.40509,0.320339,0.18418,28.2647,0.0654344,
2,1,0,1,0,32688.2,0.0672156,0.0668924,3.98416,17,0.00299128,10,0.00026651,-2.39966,0.313903,0.187956,29.1172,0.0668924,
2,1,0,1,0,32688.2,0.0687164,0.0683737,4.01492,17,0.00309169,10,0.000274515,-2.39632,0.34502,0.171004,26.7989,0.0683737,
2,1,0,1,0,32688.3,0.0702172,0.0698788,4.05071,17,0.003193,10,0.000283059,-2.39247,0.368681,0.16003,25.3339,0.0698788,
2,1,0,1,0,32688.3,0.0717114,0.071395,4.09385,17,0.00329483,10,0.00029228,-2.38787,0.37315,0.158113,25.2266,0.071395,
2,1,0,1,0,32688.3,0.073211,0.0729001,4.1327,17,0.00339808,10,0.000301274,-2.38377,0.383884,0.153692,24.7705,0.0729001,
2,1,0,1,0,32688.3,0.0747105,0.0743935,4.16498,17,0.00350224,10,0.000309847,-2.38039,0.40143,0.146974,23.9125,0.0743935,
2,1,0,1,0,32688.4,0.0762101,0.0758792,4.19643,17,0.00360726,10,0.000318422,-2.37712,0.444053,0.132867,21.7916,0.0758792,
2,1,0,1,0,32688.4,0.0777042,0.0773616,4.23463,17,0.00371269,10,0.000327597,-2.37318,0.430572,0.137027,22.6551,0.0773616,
2,1,0,1,0,32688.4,0.0792037,0.0789232,4.27171,17,0.00381936,10,0.000337137,-2.3694,0.44707,0.13197,21.958,0.0789232,
2,1,0,1,0,32688.4,0.0807046,0.0803625,4.30509,17,0.00392695,10,0.000345968,-2.36602,0.454253,0.129883,21.7673,0.0803625,
2,1,0,1,0,32688.5,0.0821988,0.0819253,4.32589,17,0.00403486,10,0.0003544,-2.36392,0.50983,0.115725,19.553,0.0819253,
2,1,0,1,0,32688.5,0.0836983,0.0833906,4.36131,17,0.00414383,10,0.000363692,-2.36038,0.573902,0.102805,17.4863,0.0833906,
2,1,0,1,0,32688.5,0.0851979,0.0848407,4.39217,17,0.00425362,10,0.000372635,-2.35732,0.448299,0.131609,22.5507,0.08484073,
2,1,0,1,0,32688.5,0.0866921,0.0863612,4.41993,17,0.00436374,10,0.000381711,-2.35458,0.462239,0.127639,22.0179,0.0863612,
2,1,0,1,0,32688.6,0.0881929,0.0878325,4.44831,17,0.00447508,10,0.000390706,-2.3518,0.554233,0.106453,18.491,0.0878325,
2,1,0,1,0,32688.6,0.0896937,0.0893348,4.4827,17,0.0045871,10,0.000400461,-2.34846,0.538309,0.109602,19.1833,0.0893348,
2,1,0,1,0,32688.6,0.0911879,0.0907924,4.52342,17,0.0046995,10,0.000410692,-2.34453,0.402885,0.146444,25.7926,0.0907924,
2,1,0,1,0,32688.6,0.0926861,0.0924009,4.55893,17,0.00481336,10,0.000421249,-2.34114,0.369383,0.159726,28.3993,0.0924009,
2,1,0,1,0,32688.7,0.0941856,0.0938376,4.59121,17,0.00492816,10,0.000430828,-2.33807,0.4365,0.135166,24.2407,0.0938376,
2,1,0,1,0,32688.7,0.0956852,0.0953411,4.63162,17,0.00504392,10,0.000441584,-2.33427,0.399991,0.147503,26.7023,0.0953411,
2,1,0,1,0,32688.7,0.0971794,0.0968801,4.68462,17,0.00516028,10,0.000453846,-2.32933,0.31541,0.187058,34.1598,0.0968801,
2,1,0,1,0,32688.7,0.0986802,0.0983591,4.72811,17,0.00527832,10,0.000465053,-2.32531,0.28636,0.206034,38.0558,0.0983591,
2,1,0,1,0,32688.8,0.100181,0.099864,4.77828,17,0.00539765,10,0.000477179,-2.32073,0.290787,0.202898,37.939,0.099864,
2,1,0,1,0,32688.8,0.101675,0.10134,4.83642,17,0.00551792,10,0.000490125,-2.31548,0.27164,0.2172,41.1117,0.10134,
2,1,0,1,0,32688.8,0.103175,0.102861,4.91891,17,0.00564027,10,0.000505967,-2.30813,0.234515,0.251583,48.2751,0.102861,
2,1,0,1,0,32688.8,0.104674,0.104377,4.98344,17,0.00576445,10,0.000520157,-2.30247,0.223545,0.263929,51.3995,0.104377,
2,1,0,1,0,32688.9,0.106169,0.105875,5.05861,17,0.00589004,10,0.00053558,-2.29597,0.231576,0.254776,50.3232,0.105875,
2,1,0,1,0,32688.9,0.107668,0.107352,5.13896,17,0.00601801,10,0.000551677,-2.28912,0.229115,0.257513,51.6793,0.107352,
2,1,0,1,0,32688.9,0.109169,0.108848,5.22084,17,0.00614787,10,0.00056828,-2.28226,0.220788,0.267225,54.4614,0.108848,
2,1,0,1,0,32688.9,0.110663,0.110335,5.30826,17,0.00627933,10,0.000585687,-2.27505,0.208638,0.282786,58.5184,0.110335,
2,1,0,1,0,32689,0.112163,0.111817,5.38125,17,0.00641338,10,0.000601714,-2.26912,0.234122,0.252005,52.9824,0.111817,
2,1,0,1,0,32689,0.113662,0.11332,5.47226,17,0.00654955,10,0.000620114,-2.26183,0.240597,0.245223,52.2869,0.11332,
2,1,0,1,0,32689,0.115162,0.114848,5.55175,17,0.00668769,10,0.000637606,-2.25557,0.237286,0.248646,53.8286,0.1148478,
2,1,0,1,0,32689,0.116656,0.116338,5.63034,17,0.0068273,10,0.000655021,-2.24946,0.230055,0.256461,56.3158,0.116338,
2,1,0,1,0,32689.1,0.118157,0.117864,5.70657,17,0.00696952,10,0.000672597,-2.24362,0.261058,0.226004,50.3164,0.1178636,
2,1,0,1,0,32689.1,0.119657,0.119343,5.78554,17,0.00711361,10,0.000690465,-2.23766,0.307664,0.191768,43.2365,0.119343,
2,1,0,1,0,32689.1,0.121152,0.12086,5.8494,17,0.00725878,10,0.000706961,-2.23289,0.31798,0.185546,42.2651,0.1208603,
2,1,0,1,0,32689.1,0.122651,0.122305,5.90344,17,0.00740609,10,0.00072202,-2.2289,0.333612,0.176852,40.7263,0.122305,
2,1,0,1,0,32689.2,0.124151,0.123846,5.96094,17,0.00755486,10,0.000738236,-2.22469,0.383657,0.153783,35.788,0.123846,
2,1,0,1,0,32689.2,0.125649,0.125321,6.01034,17,0.00770496,10,0.000753221,-2.2211,0.460359,0.128161,30.0421,0.125321,
2,1,0,1,0,32689.2,0.127143,0.126786,6.06158,17,0.00785572,10,0.000768523,-2.21741,0.472886,0.124766,29.4798,0.126786,
2,1,0,1,0,32689.2,0.128644,0.128323,6.09726,17,0.0080081,10,0.000782416,-2.21487,0.473411,0.124628,29.6658,0.128323,
2,1,0,1,0,32689.3,0.130145,0.129808,6.13577,17,0.0081615,10,0.000796472,-2.21213,0.556467,0.106026,25.3917,0.129808,
2,1,0,1,0,32689.3,0.131639,0.131303,6.17879,17,0.00831531,10,0.000811293,-2.2091,0.697576,0.0845786,20.3606,0.131303,
2,1,0,1,0,32689.3,0.133139,0.132813,6.2141,17,0.00847058,10,0.000825316,-2.20662,0.79134,0.0745571,18.0548,0.132813,
2,1,0,1,0,32689.3,0.134638,0.134352,6.23189,17,0.00862652,10,0.000837265,-2.20538,0.745705,0.0791197,19.2634,0.134352,
2,1,0,1,0,32689.4,0.136132,0.135789,6.25879,17,0.00878254,10,0.000849873,-2.20351,0.970125,0.0608169,14.8632,0.135789,
2,1,0,1,0,32689.4,0.137633,0.137296,6.28474,17,0.00893982,10,0.000862873,-2.20171,1.36187,0.0433229,10.6103,0.1372965,
2,1,0,1,0,32689.4,0.139133,0.138813,6.30471,17,0.0090976,10,0.000875177,-2.20033,2.51352,0.0234731,5.75828,0.138813,
2,1,0,1,0,32689.4,0.140627,0.140277,6.29786,17,0.00925486,10,0.000883445,-2.20081,-29.1551,-0.00202366,-0.497085,0.140277,
2,1,0,1,0,32689.5,0.142126,0.141803,6.28971,17,0.00941274,10,0.000891898,-2.20137,-1.95616,-0.0301612,-7.3976,0.141803,
2,1,0,1,0,32689.5,0.143626,0.14331,6.27202,17,0.00957039,10,0.000898843,-2.20259,-0.695308,-0.0848545,-20.7273,0.1433101,
2,1,0,1,0,32689.5,0.145125,0.144825,6.23718,17,0.00972726,10,0.000903303,-2.20501,-0.382761,-0.154143,-37.3794,0.144825,
2,1,0,1,0,32689.5,0.14662,0.14633,6.16667,17,0.00988218,10,0.000902371,-2.20995,-0.288463,-0.204533,-49.0996,0.14633,
2,1,0,1,0,32689.6,0.14812,0.147838,6.07988,17,0.0100358,10,0.000898837,-2.21611,-0.207605,-0.284194,-67.2197,0.147838,
2,1,0,1,0,32689.6,0.149621,0.149301,5.97491,17,0.010187,10,0.000892061,-2.22367,-0.165468,-0.356565,-82.7741,0.149301,
2,1,0,1,0,32689.6,0.151116,0.150793,5.84284,17,0.0103345,10,0.000881059,-2.23338,-0.137184,-0.43008,-97.5219,0.150793,
2,1,0,1,0,32689.6,0.152615,0.152286,5.67838,17,0.010479,10,0.00086474,-2.24578,-0.116878,-0.5048,-111.518,0.152286,
2,1,0,1,0,32689.7,0.154115,0.153798,5.49432,17,0.0106191,10,0.000845017,-2.26009,-0.103765,-0.568593,-121.847,0.1537983,
2,1,0,1,0,32689.7,0.155614,0.155282,5.30718,17,0.0107546,10,0.000824111,-2.27514,-0.0928169,-0.63566,-131.367,0.1552822,
2,1,0,1,0,32689.7,0.157107,0.156779,5.10788,17,0.0108847,10,0.000800808,-2.29176,-0.0849207,-0.694766,-138.095,0.156779,
2,1,0,1,0,32689.7,0.158608,0.158265,4.89849,17,0.0110102,10,0.000775261,-2.30994,-0.0821328,-0.718349,-137.228,0.158265,
2,1,0,1,0,32689.8,0.160109,0.159768,4.68503,17,0.0111304,10,0.00074852,-2.32929,-0.0791738,-0.745196,-136.497,0.159768,
2,1,0,1,0,32689.8,0.161603,0.161308,4.49547,17,0.0112451,10,0.000725156,-2.34723,-0.0802835,-0.734896,-128.888,0.161308,
2,1,0,1,0,32689.8,0.163102,0.162771,4.31514,17,0.0113555,10,0.000702379,-2.365,-0.0825333,-0.714863,-120.269,0.162771,
2,1,0,1,0,32689.8,0.164602,0.164267,4.13225,17,0.0114614,10,0.000678794,-2.38381,-0.0864483,-0.682489,-110.346,0.164267,
2,1,0,1,0,32689.9,0.166096,0.165781,3.96864,17,0.0115626,10,0.000657926,-2.40136,-0.0893672,-0.660198,-102.769,0.1657813,
2,1,0,1,0,32689.9,0.167597,0.167277,3.83279,17,0.0116605,10,0.000641137,-2.41648,-0.0981228,-0.601287,-90.0907,0.167277,
2,1,0,1,0,32689.9,0.169098,0.168792,3.70865,17,0.0117551,10,0.000625989,-2.43078,-0.104129,-0.566604,-82.0083,0.168792,
2,1,0,1,0,32689.9,0.170592,0.170253,3.58849,17,0.0118463,10,0.000610952,-2.44509,-0.11411,-0.517045,-72.5332,0.170253,
2,1,0,1,0,32690,0.17209,0.171774,3.4736,17,0.011935,10,0.000596674,-2.45922,-0.11859,-0.497513,-67.8735,0.1717739,
2,1,0,1,0,32690,0.17359,0.173279,3.38492,17,0.0120212,10,0.000586535,-2.47045,-0.12825,-0.460037,-60.9393,0.173279,
2,1,0,1,0,32690,0.175089,0.174769,3.30748,17,0.0121053,10,0.000578044,-2.4805,-0.143561,-0.410976,-53.0705,0.174769,
2,1,0,1,0,32690,0.176583,0.176235,3.22775,17,0.0121871,10,0.000568842,-2.4911,-0.15585,-0.37857,-47.7857,0.176235,
2,1,0,1,0,32690.1,0.178084,0.177772,3.15258,17,0.0122674,10,0.000560439,-2.50133,-0.164299,-0.359101,-44.3603,0.177772,
2,1,0,1,0,32690.1,0.179585,0.179252,3.09859,17,0.0123459,10,0.000555428,-2.50884,-0.173006,-0.341029,-41.309,0.179252,
2,1,0,1,0,32690.1,0.181079,0.180751,3.05002,17,0.0124228,10,0.000551293,-2.5157,-0.196074,-0.300907,-35.7573,0.180751,
2,1,0,1,0,32690.1,0.182579,0.182244,2.99519,17,0.0124987,10,0.000545857,-2.52358,-0.22215,-0.265586,-31.0407,0.182244,
2,1,0,1,0,32690.2,0.184078,0.183697,2.94185,17,0.0125734,10,0.000540408,-2.53138,-0.234632,-0.251457,-29.0104,0.183697,
2,1,0,1,0,32690.2,0.185578,0.185266,2.90913,17,0.012647,10,0.000538963,-2.53624,-0.248438,-0.237484,-26.9755,0.185266,
2,1,0,1,0,32690.2,0.187072,0.186763,2.8785,17,0.0127193,10,0.000537596,-2.54083,-0.298947,-0.197359,-22.1312,0.186763,
2,1,0,1,0,32690.2,0.188573,0.188259,2.83794,17,0.0127911,10,0.000534266,-2.547,-0.36062,-0.163607,-18.1251,0.188259,
2,1,0,1,0,32690.3,0.190072,0.189757,2.80384,17,0.0128621,10,0.000532049,-2.55225,-0.331581,-0.177936,-19.5,0.1897575,
2,1,0,1,0,32690.3,0.191567,0.19127,2.77874,17,0.012932,10,0.000531491,-2.55615,-0.328314,-0.179706,-19.5193,0.19127,
2,1,0,1,0,32690.3,0.193066,0.192697,2.75137,17,0.0130015,10,0.000530182,-2.56045,-0.440362,-0.133981,-14.3857,0.192697,
2,1,0,1,0,32690.3,0.194566,0.194273,2.72746,17,0.0130705,10,0.000529873,-2.56424,-0.480781,-0.122717,-13.0908,0.194273,
2,1,0,1,0,32690.4,0.19606,0.195765,2.70487,17,0.0131387,10,0.000529519,-2.56785,-0.387976,-0.152071,-16.0944,0.1957652,
2,1,0,1,0,32690.4,0.197561,0.197242,2.68549,17,0.0132066,10,0.000529691,-2.57098,-0.373536,-0.15795,-16.5817,0.197242,
2,1,0,1,0,32690.4,0.199062,0.198713,2.67927,17,0.0132739,10,0.000532405,-2.57198,-0.497392,-0.118619,-12.3525,0.198713,
2,1,0,1,0,32690.4,0.200556,0.200224,2.65553,17,0.0133406,10,0.0005317,-2.57585,-0.816423,-0.0722665,-7.47797,0.200224,
2,1,0,1,0,32690.5,0.202055,0.20175,2.63126,17,0.0134071,10,0.000530856,-2.57984,-0.578177,-0.102045,-10.5137,0.20175,
2,1,0,1,0,32690.5,0.203553,0.203219,2.6181,17,0.0134733,10,0.000532047,-2.58201,-0.54385,-0.108486,-11.1116,0.203219,
2,1,0,1,0,32690.5,0.205053,0.204761,2.60857,17,0.013539,10,0.000534134,-2.5836,-1.07714,-0.0547748,-5.58424,0.204761,
2,1,0,1,0,32690.5,0.206547,0.206236,2.59143,17,0.0136042,10,0.000534445,-2.58646,-1.37618,-0.0428722,-4.34767,0.206236,
2,1,0,1,0,32690.6,0.208048,0.207714,2.5851,17,0.0136695,10,0.000536963,-2.58752,-0.690292,-0.085471,-8.61904,0.207714,
2,1,0,1,0,32690.6,0.209549,0.209239,2.57524,17,0.0137345,10,0.00053884,-2.58918,-0.652537,-0.0904163,-9.08656,0.2092386,
2,1,0,1,0,32690.6,0.211043,0.2107,2.5678,17,0.0137989,10,0.000541037,-2.59044,-0.724931,-0.0813871,-8.13771,0.2107,
2,1,0,1,0,32690.6,0.212543,0.212227,2.55495,17,0.0138632,10,0.000542231,-2.59262,-1.4951,-0.0394622,-3.93111,0.212227,
2,1,0,1,0,32690.7,0.214042,0.213732,2.54289,17,0.0139274,10,0.000543497,-2.59467,-0.900572,-0.0655139,-6.50967,0.213732,
2,1,0,1,0,32690.7,0.215536,0.215229,2.53605,17,0.013991,10,0.000545831,-2.59584,-0.796787,-0.0740474,-7.32617,0.215229,
2,1,0,1,0,32690.7,0.217036,0.216703,2.531,17,0.0140547,10,0.000548475,-2.59671,-0.870966,-0.0677409,-6.67953,0.216703,
2,1,0,1,0,32690.7,0.218537,0.218253,2.51774,17,0.0141182,10,0.000549506,-2.59899,-5.94962,-0.0099166,-0.975443,0.218253,
2,1,0,1,0,32690.8,0.220031,0.219732,2.50834,17,0.0141812,10,0.000551161,-2.60061,-1.26108,-0.0467852,-4.5894,0.219732,
2,1,0,1,0,32690.8,0.22153,0.221259,2.5062,17,0.0142444,10,0.000554519,-2.60098,-0.939536,-0.062797,-6.13126,0.221259,
2,1,0,1,0,32690.8,0.22303,0.222726,2.49961,17,0.0143074,10,0.000556729,-2.60213,-1.54374,-0.0382188,-3.72852,0.222726,
2,1,0,1,0,32690.8,0.224529,0.224227,2.49003,17,0.0143701,10,0.000558332,-2.60379,-1.7809,-0.0331293,-3.22453,0.224227,
2,1,0,1,0,32690.9,0.226024,0.225689,2.48025,17,0.0144325,10,0.000559763,-2.60551,-1.57264,-0.0375165,-3.64206,0.225689,
2,1,0,1,0,32690.9,0.227525,0.227248,2.48068,17,0.014495,10,0.000563731,-2.60543,-0.907702,-0.0649993,-6.28497,0.227248,
2,1,0,1,0,32690.9,0.229025,0.228765,2.47978,17,0.0145574,10,0.000567287,-2.60559,-1.42154,-0.0415042,-4.00241,0.228765,
2,1,0,1,0,32690.9,0.23052,0.230184,2.46268,17,0.0146193,10,0.00056687,-2.60859,-3.00925,-0.0196062,-1.88938,0.230184,
2,1,0,1,0,32691,0.232019,0.231739,2.45923,17,0.0146813,10,0.000569899,-2.6092,-6.55388,-0.0090023,-0.86673,0.231739,
2,1,0,1,0,32691,0.233519,0.233159,2.46176,17,0.0147433,10,0.000573983,-2.60875,-1.1519,-0.0512199,-4.9124,0.233159,
2,1,0,1,0,32691,0.235018,0.234684,2.4589,17,0.0148051,10,0.000577066,-2.60926,-1.73228,-0.0340591,-3.25933,0.234684,
2,1,0,1,0,32691,0.236511,0.236202,2.44566,17,0.0148666,10,0.00057767,-2.6116,-7.37338,-0.00800176,-0.764357,0.236202,
2,1,0,1,0,32691.1,0.238012,0.237704,2.43988,17,0.0149281,10,0.00057997,-2.61263,-6.18689,-0.0095363,-0.908796,0.237704,
2,1,0,1,0,32691.1,0.239513,0.239211,2.44103,17,0.0149896,10,0.00058392,-2.61243,-1.42556,-0.0413873,-3.94256,0.239211,
2,1,0,1,0,32691.1,0.241007,0.240685,2.43818,17,0.0150507,10,0.000586833,-2.61294,-1.91955,-0.0307363,-2.91719,0.240685,
2,1,0,1,0,32691.1,0.242506,0.242205,2.42957,17,0.015112,10,0.000588454,-2.61447,-4.60593,-0.0128096,-1.21687,0.242205,
2,1,0,1,0,32691.2,0.244006,0.243653,2.42261,17,0.0151731,10,0.000590275,-2.61572,-3.55731,-0.0165855,-1.57403,0.243653,
2,1,0,1,0,32691.2,0.2455,0.245183,2.42728,17,0.0152339,10,0.000595128,-2.61488,-1.50599,-0.039177,-3.70522,0.245183,
2,1,0,1,0,32691.2,0.247001,0.246704,2.4244,17,0.0152949,10,0.000598107,-2.6154,-1.38408,-0.0426277,-4.01737,0.246704,
2,1,0,1,0,32691.2,0.248502,0.248207,2.41437,17,0.0153558,10,0.000599263,-2.6172,-2.9204,-0.0202027,-1.906,0.248207,
2,1,0,1,0,32691.3,0.249995,0.249686,2.40864,17,0.0154163,10,0.000601403,-2.61823,-1.55636,-0.037909,-3.56688,0.249686,
2,1,0,1,0,32691.3,0.251494,0.25118,2.40376,17,0.0154769,10,0.000603778,-2.61911,-1.35783,-0.0434515,-4.08074,0.2511805,
2,1,0,1,0,32691.3,0.252994,0.252693,2.41023,17,0.0155375,10,0.000609049,-2.61794,-1.9414,-0.0303905,-2.84714,0.252693,
2,1,0,1,0,32691.3,0.254493,0.25416,2.39874,17,0.015598,10,0.000609664,-2.62002,-3.22159,-0.018314,-1.71731,0.25416,
2,1,0,1,0,32691.4,0.255988,0.255705,2.39566,17,0.015658,10,0.000612583,-2.62057,-3.3717,-0.0174986,-1.63969,0.255705,
2,1,0,1,0,32691.4,0.257488,0.257185,2.39302,17,0.0157183,10,0.000615448,-2.62105,-1.7825,-0.0330995,-3.08988,0.257185,
2,1,0,1,0,32691.4,0.258989,0.258681,2.39793,17,0.0157786,10,0.000620298,-2.62016,-2.54959,-0.023141,-2.15676,0.258681,
2,1,0,1,0,32691.4,0.260483,0.260215,2.39176,17,0.0158385,10,0.000622372,-2.62128,-3.58504,-0.0164573,-1.53324,0.260215,
2,1,0,1,0,32691.5,0.261983,0.261701,2.3761,17,0.0158985,10,0.000621827,-2.62414,-1.61354,-0.0365657,-3.40439,0.261701,
2,1,0,1,0,32691.5,0.263482,0.263177,2.37975,17,0.0159584,10,0.000626295,-2.62347,-3.89957,-0.0151299,-1.40414,0.263177,
2,1,0,1,0,32691.5,0.264982,0.264718,2.37862,17,0.0160183,10,0.000629663,-2.62367,-2.4332,-0.0242479,-2.24768,0.264718,
2,1,0,1,0,32691.5,0.266476,0.266121,2.36968,17,0.0160778,10,0.00063062,-2.62531,-25.1853,-0.00234264,-0.21691,0.266121,
2,1,0,1,0,32691.6,0.267976,0.26768,2.35909,17,0.0161375,10,0.000631481,-2.62726,-1.95853,-0.0301246,-2.78573,0.26768,
2,1,0,1,0,32691.6,0.269477,0.269169,2.36813,17,0.016197,10,0.000637427,-2.62559,-1.95683,-0.0301508,-2.78457,0.269169,
2,1,0,1,0,32691.6,0.270971,0.27063,2.3694,17,0.0162563,10,0.00064123,-2.62536,-2.05438,-0.0287191,-2.64251,0.27063,
2,1,0,1,0,32691.6,0.27247,0.272169,2.35826,17,0.0163158,10,0.000641845,-2.62741,-2.90461,-0.0203125,-1.87013,0.272169,
2,1,0,1,0,32691.7,0.27397,0.273655,2.34372,17,0.0163751,10,0.000641373,-2.63009,-1.38472,-0.042608,-3.91952,0.2736553,
2,1,0,1,0,32691.7,0.275464,0.275125,2.34713,17,0.016434,10,0.000645755,-2.62946,-1.3597,-0.0433918,-3.98332,0.275125,
2,1,0,1,0,32691.7,0.276965,0.27667,2.3494,17,0.0164931,10,0.000650007,-2.62904,-2.41707,-0.0244097,-2.23283,0.2766698,
2,1,0,1,0,32691.7,0.278466,0.278177,2.34496,17,0.0165522,10,0.000652315,-2.62986,-3.54404,-0.0166477,-1.51976,0.278177,
2,1,0,1,0,32691.8,0.27996,0.279647,2.33763,17,0.0166109,10,0.000653713,-2.63122,-2.87271,-0.0205381,-1.87328,0.279647,
2,1,0,1,0,32691.8,0.281458,0.281136,2.33149,17,0.0166696,10,0.000655466,-2.63237,-1.96023,-0.0300985,-2.74489,0.281136,
2,1,0,1,0,32691.8,0.282958,0.28261,2.33552,17,0.0167283,10,0.000660042,-2.63162,-4.06645,-0.014509,-1.31785,0.28261,
2,1,0,1,0,32691.8,0.284457,0.284091,2.32735,17,0.016787,10,0.000661178,-2.63314,-8.27471,-0.00713016,-0.647741,0.284091,
2,1,0,1,0,32691.9,0.285951,0.285596,2.32036,17,0.0168453,10,0.000662685,-2.63445,-1.42077,-0.0415268,-3.76128,0.2855964,
2,1,0,1,0,32691.9,0.287452,0.287079,2.31548,17,0.0169037,10,0.000664727,-2.63536,-1.35434,-0.0435638,-3.94383,0.287079,
2,1,0,1,0,32691.9,0.288953,0.288671,2.31567,17,0.016962,10,0.000668467,-2.63532,-3.21513,-0.0183507,-1.65619,0.288671,
2,1,0,1,0,32691.9,0.290447,0.290142,2.31188,17,0.01702,10,0.000670773,-2.63604,-2.81937,-0.0209266,-1.88561,0.290142,
2,1,0,1,0,32692,0.291947,0.291661,2.30524,17,0.0170782,10,0.000672347,-2.63728,-2.03276,-0.0290246,-2.61328,0.291661,
2,1,0,1,0,32692,0.293446,0.293141,2.29833,17,0.0171362,10,0.000673737,-2.63859,-1.14453,-0.0515496,-4.63177,0.293141,
2,1,0,1,0,32692,0.29494,0.29464,2.29861,17,0.0171938,10,0.000677262,-2.63853,-2.78335,-0.0211975,-1.90142,0.29464,
2,1,0,1,0,32692,0.29644,0.296136,2.29712,17,0.0172516,10,0.000680259,-2.63882,6.7515,0.0087388,0.7824,0.296136,
2,1,0,1,0,32692.1,0.297941,0.297606,2.28829,17,0.0173094,10,0.00068101,-2.64049,-1.91605,-0.0307925,-2.75286,0.297606,
2,1,0,1,0,32692.1,0.29944,0.299137,2.2829,17,0.017367,10,0.000682902,-2.64151,-0.00658855,-8.95493,-594.325,0.299137,
2,1,0,1,0,32692.1,0.299736,0.299401,1.79477,17,0.0173965,10,0.000537357,-2.74599,0.00132607,44.4925,1675.48,0.299401,
2,1,0,1,0,32692.1,0.298238,0.297967,0.523767,17,0.0174224,10,0.000156065,-3.28086,0.00333324,17.7005,649.174,0.2979666,
2,1,0,1,0,32692.2,0.296744,0.296434,-0.0314139,17,0.0174272,10,-9.31217e-06,-4.50288,0.0138123,4.27155,310.061,0.296434,
2,0,0,1,0,32692.2,0.295243,0.294911,-0.344245,17,0.0174216,10,-0.000101522,-3.46313,-0.00557801,-10.5773,167.056,0.294911,
2,0,0,1,0,32692.2,0.293742,0.293397,-0.536486,17,0.01741,10,-0.000157404,-3.27044,-0.00955701,-6.17348,105.785,0.293397,
2,0,0,1,0,32692.2,0.292248,0.291909,-0.656008,17,0.0173947,10,-0.000191495,-3.18309,-0.0181306,-3.25417,77.7643,0.291909,
2,0,0,1,0,32692.3,0.290748,0.290415,-0.742581,17,0.0173767,10,-0.000215657,-3.12926,-0.0287079,-2.05519,58.1751,0.290415,
2,0,0,1,0,32692.3,0.289249,0.288929,-0.819283,17,0.0173565,10,-0.000236715,-3.08657,-0.0423695,-1.39251,43.9859,0.288929,
2,0,0,1,0,32692.3,0.287754,0.287405,-0.883784,17,0.0173348,10,-0.000254004,-3.05365,-0.0552954,-1.067,36.2887,0.287405,
2,0,0,1,0,32692.3,0.286254,0.285915,-0.928462,17,0.0173117,10,-0.000265461,-3.03224,-0.0660492,-0.893274,32.2969,0.285915,
2,0,0,1,0,32692.4,0.284754,0.284437,-0.972825,17,0.0172874,10,-0.000276707,-3.01197,-0.0768868,-0.767362,29.0842,0.284437,
2,0,0,1,0,32692.4,0.28326,0.282927,-1.01652,17,0.0172621,10,-0.0002876,-2.99289,-0.0929107,-0.635018,25.0662,0.2829271,
2,0,0,1,0,32692.4,0.28176,0.281427,-1.05492,17,0.0172357,10,-0.000296884,-2.97678,-0.107117,-0.5508,22.4987,0.281427,
2,0,0,1,0,32692.4,0.280261,0.279931,-1.0853,17,0.0172085,10,-0.000303811,-2.96445,-0.108335,-0.544605,23.0331,0.279931,
2,0,0,1,0,32692.5,0.278761,0.278422,-1.11197,17,0.0171805,10,-0.000309596,-2.95391,-0.123523,-0.477643,20.8278,0.278422,
2,0,0,1,0,32692.5,0.277267,0.276933,-1.14844,17,0.0171518,10,-0.000318042,-2.93989,-0.151051,-0.390597,17.4504,0.276933,
2,0,0,1,0,32692.5,0.275766,0.275479,-1.17567,17,0.0171224,10,-0.000323872,-2.92972,-0.163584,-0.360672,16.4648,0.275479,
2,0,0,1,0,32692.5,0.274265,0.273941,-1.19954,17,0.0170922,10,-0.000328602,-2.92099,-0.155253,-0.380025,17.7725,0.273941,
2,0,0,1,0,32692.6,0.272771,0.272477,-1.22458,17,0.0170616,10,-0.00033367,-2.91201,-0.165141,-0.35727,17.0606,0.272477,
2,0,0,1,0,32692.6,0.271272,0.270969,-1.24851,17,0.0170303,10,-0.000338309,-2.90361,-0.19608,-0.300897,14.6247,0.270969,
2,0,0,1,0,32692.6,0.269772,0.269436,-1.27899,17,0.0169983,10,-0.000344606,-2.89313,-0.198555,-0.297147,14.667,0.269436,
2,0,0,1,0,32692.6,0.268273,0.267922,-1.29727,17,0.0169658,10,-0.000347567,-2.88697,-0.193517,-0.304884,15.3502,0.267922,
2,0,0,1,0,32692.7,0.26678,0.266411,-1.3048,17,0.016933,10,-0.000347612,-2.88446,-0.193417,-0.305041,15.6517,0.266411,
2,0,0,1,0,32692.7,0.265279,0.264944,-1.32802,17,0.0168995,10,-0.000351852,-2.87679,-0.225992,-0.261071,13.5619,0.264944,
2,0,0,1,0,32692.7,0.263778,0.263427,-1.35699,17,0.0168656,10,-0.000357468,-2.86742,-0.264685,-0.222907,11.704,0.2634275,
2,0,0,1,0,32692.7,0.262284,0.261986,-1.37343,17,0.0168312,10,-0.000359819,-2.86219,-0.238254,-0.247635,13.1955,0.261986,
2,0,0,1,0,32692.8,0.260784,0.260488,-1.37875,17,0.0167963,10,-0.000359149,-2.86051,-0.265228,-0.22245,12.0498,0.260488,
2,0,0,1,0,32692.8,0.259285,0.25898,-1.40274,17,0.0167611,10,-0.000363282,-2.85302,-0.30901,-0.190933,10.4658,0.25898,
2,0,0,1,0,32692.8,0.257791,0.257469,-1.42493,17,0.0167255,10,-0.000366875,-2.84621,-0.307482,-0.191881,10.6238,0.2574687,
2,0,0,1,0,32692.8,0.25629,0.256005,-1.44138,17,0.0166892,10,-0.000369,-2.84122,-0.285227,-0.206853,11.55,0.256005,
2,0,0,1,0,32692.9,0.254789,0.2545,-1.44831,17,0.0166526,10,-0.000368596,-2.83914,-0.332415,-0.177489,10.0554,0.2545,
2,0,0,1,0,32692.9,0.253296,0.253001,-1.46764,17,0.0166159,10,-0.000371313,-2.83338,-0.367225,-0.160665,9.22171,0.2530005,
2,0,0,1,0,32692.9,0.251797,0.251447,-1.48771,17,0.0165785,10,-0.00037408,-2.82748,-0.307828,-0.191666,11.106,0.2514472,
2,0,0,1,0,32692.9,0.250297,0.249933,-1.50454,17,0.0165407,10,-0.000376034,-2.8226,-0.315213,-0.187175,10.9648,0.249933,
2,0,0,1,0,32693,0.248797,0.248468,-1.51393,17,0.0165025,10,-0.000376163,-2.81989,-0.34132,-0.172858,10.2184,0.248468,
2,0,0,1,0,32693,0.247303,0.246984,-1.52833,17,0.0164643,10,-0.000377472,-2.81578,-0.450899,-0.13085,7.8213,0.246984,
2,0,0,1,0,32693,0.245802,0.245475,-1.54757,17,0.0164254,10,-0.00037989,-2.81035,-0.344346,-0.171339,10.3042,0.245475,
2,0,0,1,0,32693,0.244302,0.243996,-1.5622,17,0.0163861,10,-0.00038117,-2.80626,-0.314507,-0.187595,11.3892,0.243996,
2,0,0,1,0,32693.1,0.242807,0.242516,-1.57144,17,0.0163467,10,-0.0003811,-2.8037,-0.462082,-0.127683,7.84492,0.2425164,
2,0,0,1,0,32693.1,0.241308,0.240987,-1.5811,17,0.0163068,10,-0.000381026,-2.80104,-0.50111,-0.117739,7.3013,0.240987,
2,0,0,1,0,32693.1,0.239808,0.239517,-1.60171,17,0.0162666,10,-0.000383637,-2.79542,-0.389624,-0.151428,9.43424,0.239517,
2,0,0,1,0,32693.1,0.238309,0.237977,-1.61651,17,0.016226,10,-0.000384693,-2.79142,-0.354162,-0.166591,10.4768,0.237977,
2,0,0,1,0,32693.2,0.236815,0.236461,-1.62213,17,0.0161852,10,-0.000383572,-2.78991,-0.441879,-0.133521,8.48152,0.2364614,
2,0,0,1,0,32693.2,0.235315,0.234972,-1.63002,17,0.016144,10,-0.000383009,-2.78781,-0.559102,-0.105526,6.74534,0.234972,
2,0,0,1,0,32693.2,0.233814,0.23352,-1.65552,17,0.0161025,10,-0.000386596,-2.78107,-0.501672,-0.117607,7.56239,0.23352,
2,0,0,1,0,32693.2,0.23232,0.232025,-1.66466,17,0.0160607,10,-0.000386243,-2.77867,-0.332885,-0.177238,11.4973,0.232025,
2,0,0,1,0,32693.3,0.230821,0.23048,-1.6732,17,0.0160184,10,-0.000385639,-2.77645,-0.453178,-0.130192,8.50885,0.23048,
2,0,0,1,0,32693.3,0.229321,0.228963,-1.68637,17,0.0159759,10,-0.000386116,-2.77305,-0.661183,-0.089234,5.88873,0.228963,
2,0,0,1,0,32693.3,0.227827,0.22748,-1.70602,17,0.0159332,10,-0.000388086,-2.76802,-0.507462,-0.116265,7.73172,0.22748,
2,0,0,1,0,32693.3,0.226326,0.226003,-1.71661,17,0.0158901,10,-0.000387958,-2.76533,-0.391234,-0.150805,10.0925,0.226003,
2,0,0,1,0,32693.4,0.224825,0.224521,-1.72127,17,0.0158466,10,-0.000386461,-2.76415,-0.4232,-0.139414,9.39405,0.224521,
2,0,0,1,0,32693.4,0.223331,0.223035,-1.74431,17,0.0158029,10,-0.000389042,-2.75838,-0.589975,-0.100004,6.79024,0.223035,
2,0,0,1,0,32693.4,0.221831,0.221511,-1.75348,17,0.0157589,10,-0.000388415,-2.7561,-0.507941,-0.116155,7.93859,0.221511,
2,0,0,1,0,32693.4,0.220333,0.220013,-1.76363,17,0.0157145,10,-0.000388022,-2.75359,-0.337956,-0.174579,12.0185,0.220013,
2,0,0,1,0,32693.5,0.218834,0.218534,-1.77597,17,0.0156697,10,-0.00038811,-2.75056,-0.375896,-0.156958,10.893,0.218534,
2,0,0,1,0,32693.5,0.217339,0.216992,-1.78685,17,0.0156248,10,-0.00038773,-2.74791,-0.685766,-0.0860351,6.01171,0.216992,
2,0,0,1,0,32693.5,0.215839,0.215511,-1.80103,17,0.0155795,10,-0.000388142,-2.74448,-0.620333,-0.0951101,6.68122,0.2155108,
2,0,0,1,0,32693.5,0.214338,0.214013,-1.81333,17,0.0155339,10,-0.000388078,-2.74152,-0.364652,-0.161798,11.4356,0.214013,
2,0,0,1,0,32693.6,0.212844,0.212508,-1.82821,17,0.0154881,10,-0.000388508,-2.73797,-0.470456,-0.12541,8.93691,0.212508,
2,0,0,1,0,32693.6,0.211344,0.211042,-1.83868,17,0.0154419,10,-0.000388038,-2.73549,-0.783282,-0.0753241,5.40755,0.211042,
2,0,0,1,0,32693.6,0.209845,0.209483,-1.85337,17,0.0153953,10,-0.000388249,-2.73204,-0.566451,-0.104157,7.51835,0.209483,
2,0,0,1,0,32693.6,0.20835,0.208046,-1.86085,17,0.0153486,10,-0.000387142,-2.73029,-0.360095,-0.163845,11.9323,0.2080459,
2,0,0,1,0,32693.7,0.206851,0.206513,-1.88124,17,0.0153014,10,-0.0003885,-2.72556,-0.468125,-0.126035,9.24241,0.206513,
2,0,0,1,0,32693.7,0.20535,0.205009,-1.89153,17,0.0152538,10,-0.00038778,-2.72319,-0.601736,-0.0980496,7.22754,0.205009,
2,0,0,1,0,32693.7,0.203856,0.203524,-1.90364,17,0.0152061,10,-0.000387438,-2.72041,-0.606389,-0.0972973,7.21975,0.203524,
2,0,0,1,0,32693.7,0.202356,0.202025,-1.91358,17,0.015158,10,-0.000386591,-2.71815,-0.428665,-0.137636,10.2835,0.202025,
2,0,0,1,0,32693.8,0.200857,0.200501,-1.92253,17,0.0151095,10,-0.000385469,-2.71613,-0.411439,-0.143399,10.7908,0.200501,
2,0,0,1,0,32693.8,0.199357,0.198976,-1.93687,17,0.0150607,10,-0.000385391,-2.7129,-0.785005,-0.0751587,5.69266,0.198976,
2,0,0,1,0,32693.8,0.197863,0.197469,-1.95698,17,0.0150117,10,-0.000386442,-2.70841,-0.627162,-0.0940746,7.17538,0.197469,
2,0,0,1,0,32693.8,0.196362,0.196002,-1.96792,17,0.0149623,10,-0.000385715,-2.70599,-0.512265,-0.115175,8.84235,0.196002,
2,0,0,1,0,32693.9,0.194861,0.194524,-1.97938,17,0.0149125,10,-0.000385037,-2.70347,-0.395511,-0.149174,11.5379,0.194524,
2,0,0,1,0,32693.9,0.193367,0.193071,-1.9986,17,0.0148625,10,-0.000385871,-2.69927,-0.600251,-0.0982923,7.67088,0.193071,
2,0,0,1,0,32693.9,0.191868,0.191548,-2.01584,17,0.0148119,10,-0.000386131,-2.69554,-0.623935,-0.0945611,7.4231,0.191548,
2,0,0,1,0,32693.9,0.190368,0.190014,-2.02437,17,0.014761,10,-0.000384659,-2.69371,-0.424441,-0.139006,10.9791,0.190014,
2,0,0,1,0,32694,0.18887,0.188534,-2.03414,17,0.0147098,10,-0.000383505,-2.69162,-0.367804,-0.160411,12.7948,0.188534,
2,0,0,1,0,32694,0.187376,0.187082,-2.0495,17,0.0146583,10,-0.000383424,-2.68835,-0.515588,-0.114432,9.18977,0.187082,
2,0,0,1,0,32694,0.185875,0.185511,-2.07706,17,0.0146062,10,-0.000385317,-2.68255,-0.534584,-0.110366,8.89747,0.185511,
2,0,0,1,0,32694,0.184374,0.18398,-2.09149,17,0.0145537,10,-0.000384791,-2.67954,-0.432086,-0.136547,11.1121,0.18398,
2,0,0,1,0,32694.1,0.18288,0.182588,-2.10101,17,0.0145011,10,-0.000383621,-2.67757,-0.417774,-0.141225,11.6209,0.182588,
2,0,0,1,0,32694.1,0.18138,0.181066,-2.11866,17,0.0144478,10,-0.000383618,-2.67394,-0.433292,-0.136167,11.2994,0.181066,
2,0,0,1,0,32694.1,0.179881,0.179532,-2.14403,17,0.014394,10,-0.000384921,-2.66877,-0.535834,-0.110109,9.19602,0.1795316,
2,0,0,1,0,32694.1,0.178387,0.17806,-2.16388,17,0.0143399,10,-0.000385301,-2.66477,-0.384505,-0.153444,12.9401,0.17806,
2,0,0,1,0,32694.2,0.176886,0.17657,-2.17635,17,0.0142853,10,-0.000384278,-2.66227,-0.341044,-0.172998,14.7287,0.17657,
2,0,0,1,0,32694.2,0.175385,0.175048,-2.19761,17,0.0142301,10,-0.000384687,-2.65805,-0.396544,-0.148785,12.7856,0.175048,
2,0,0,1,0,32694.2,0.173892,0.173512,-2.22609,17,0.0141745,10,-0.000386254,-2.65246,-0.323678,-0.18228,15.8044,0.173512,
2,0,0,1,0,32694.2,0.172392,0.172039,-2.248,17,0.0141182,10,-0.000386744,-2.6482,-0.334972,-0.176134,15.4147,0.172039,
2,0,0,1,0,32694.3,0.170893,0.170537,-2.25826,17,0.0140613,10,-0.000385117,-2.64623,-0.288961,-0.20418,18.1253,0.170537,
2,0,0,1,0,32694.3,0.169393,0.169053,-2.29031,17,0.0140038,10,-0.000387183,-2.64011,-0.298491,-0.197661,17.7254,0.169053,
2,0,0,1,0,32694.3,0.167899,0.167525,-2.32836,17,0.0139458,10,-0.000390058,-2.63295,-0.304095,-0.194018,17.6102,0.167525,
2,0,0,1,0,32694.3,0.166398,0.166068,-2.35527,17,0.0138868,10,-0.000391135,-2.62796,-0.283996,-0.207749,19.0888,0.166068,
2,0,0,1,0,32694.4,0.164898,0.164544,-2.37705,17,0.0138272,10,-0.00039113,-2.62396,-0.244649,-0.241162,22.457,0.164544,
2,0,0,1,0,32694.4,0.163403,0.163071,-2.41196,17,0.0137671,10,-0.000393321,-2.61763,-0.241124,-0.244687,23.092,0.163071,
2,0,0,1,0,32694.4,0.161904,0.161584,-2.45484,17,0.0137058,10,-0.000396663,-2.60998,-0.235635,-0.250388,23.935,0.161584,
2,0,0,1,0,32694.4,0.160404,0.160074,-2.48844,17,0.0136435,10,-0.000398335,-2.60407,-0.210564,-0.280199,27.237,0.160074,
2,0,0,1,0,32694.5,0.158905,0.15856,-2.52501,17,0.0135803,10,-0.000400364,-2.59774,-0.186946,-0.315599,31.2352,0.15856,
2,0,0,1,0,32694.5,0.157411,0.157064,-2.57154,17,0.0135163,10,-0.000403897,-2.58981,-0.185356,-0.318306,32.0959,0.157064,
2,0,0,1,0,32694.5,0.155911,0.155588,-2.63227,17,0.0134508,10,-0.000409548,-2.57967,-0.175233,-0.336694,34.5519,0.155588,
2,0,0,1,0,32694.5,0.15441,0.154039,-2.68588,17,0.0133839,10,-0.000413731,-2.57091,-0.156689,-0.376542,39.3956,0.154039,
2,0,0,1,0,32694.6,0.152916,0.1526,-2.7421,17,0.0133158,10,-0.000418444,-2.56192,-0.152485,-0.386922,41.5272,0.1526,
2,0,0,1,0,32694.6,0.151417,0.151057,-2.80519,17,0.0132461,10,-0.000423743,-2.55204,-0.140454,-0.420066,46.1709,0.151057,
2,0,0,1,0,32694.6,0.149917,0.149567,-2.88257,17,0.0131745,10,-0.000431138,-2.54022,-0.132501,-0.44528,50.1728,0.149567,
2,0,0,1,0,32694.6,0.148423,0.148083,-2.96645,17,0.0131012,10,-0.000439282,-2.52776,-0.116609,-0.505963,58.6284,0.148083,
2,0,0,1,0,32694.7,0.146922,0.146598,-3.04795,17,0.0130256,10,-0.000446823,-2.51599,-0.111521,-0.529049,63.2121,0.146598,
2,0,0,1,0,32694.7,0.145421,0.145082,-3.14799,17,0.0129476,10,-0.000456716,-2.50197,-0.104293,-0.565716,69.725,0.145082,
2,0,0,1,0,32694.7,0.143927,0.143558,-3.26469,17,0.0128674,10,-0.000468673,-2.48616,-0.097143,-0.607352,77.3586,0.1435582,
2,0,0,1,0,32694.7,0.142429,0.142091,-3.38546,17,0.0127839,10,-0.000481043,-2.47038,-0.0902888,-0.653458,86.3234,0.142091,
2,0,0,1,0,32694.8,0.140929,0.140639,-3.50617,17,0.0126973,10,-0.000493104,-2.45517,-0.0891399,-0.661881,90.8401,0.140639,
2,0,0,1,0,32694.8,0.13943,0.139084,-3.63889,17,0.0126074,10,-0.000506111,-2.43903,-0.0884479,-0.66706,95.1303,0.1390838,
2,0,0,1,0,32694.8,0.137935,0.13762,-3.79584,17,0.0125143,10,-0.000522383,-2.42069,-0.0912359,-0.646675,95.7903,0.1376197,
2,0,0,1,0,32694.8,0.136435,0.136062,-3.94869,17,0.012417,10,-0.000537267,-2.40355,-0.0871645,-0.676881,104.15,0.136062,
2,0,0,1,0,32694.9,0.134934,0.134608,-4.09738,17,0.0123159,10,-0.00055154,-2.38749,-0.0874167,-0.674928,108.032,0.134608,
2,0,0,1,0,32694.9,0.13344,0.133122,-4.25939,17,0.0122113,10,-0.000567018,-2.37065,-0.0926646,-0.636705,105.94,0.133122,
2,0,0,1,0,32694.9,0.13194,0.131625,-4.428,17,0.0121023,10,-0.000582836,-2.35379,-0.0950417,-0.62078,107.222,0.131625,
2,0,0,1,0,32694.9,0.13044,0.130069,-4.59344,17,0.0119891,10,-0.000597463,-2.33786,-0.0929883,-0.634489,113.545,0.1300689,
2,0,0,1,0,32695,0.128941,0.128588,-4.75419,17,0.0118717,10,-0.000611333,-2.32292,-0.102084,-0.577954,107.066,0.128588,
2,0,0,1,0,32695,0.127447,0.127119,-4.90754,17,0.0117508,10,-0.000623841,-2.30914,-0.112924,-0.522475,100.007,0.127119,
2,0,0,1,0,32695,0.125946,0.125574,-5.06353,17,0.0116258,10,-0.000635846,-2.29555,-0.121036,-0.487458,96.1119,0.125574,
2,0,0,1,0,32695,0.124446,0.124093,-5.20906,17,0.011497,10,-0.000646407,-2.28324,-0.122649,-0.481049,97.4748,0.124093,
2,0,0,1,0,32695.1,0.122952,0.12259,-5.346,17,0.0113651,10,-0.000655368,-2.27197,-0.133706,-0.441268,91.8504,0.12259,
2,0,0,1,0,32695.1,0.121453,0.121137,-5.47045,17,0.0112293,10,-0.000662675,-2.26198,-0.151253,-0.390075,83.3012,0.121137,
2,0,0,1,0,32695.1,0.119953,0.11966,-5.59001,17,0.0110905,10,-0.0006689,-2.25259,-0.168583,-0.349976,76.3402,0.11966,
2,0,0,1,0,32695.1,0.118459,0.118153,-5.71302,17,0.0109492,10,-0.000675013,-2.24313,-0.173635,-0.339793,75.6028,0.118153,
2,0,0,1,0,32695.2,0.116958,0.11662,-5.81875,17,0.0108046,10,-0.000678583,-2.23517,-0.189056,-0.312078,70.742,0.11662,
2,0,0,1,0,32695.2,0.115457,0.115132,-5.91675,17,0.0106573,10,-0.000681208,-2.22792,-0.230856,-0.25557,58.9513,0.115132,
2,0,0,1,0,32695.2,0.113963,0.113627,-6.00759,17,0.0105084,10,-0.000682625,-2.2213,-0.26046,-0.226522,53.011,0.113627,
2,0,0,1,0,32695.2,0.112464,0.112143,-6.08763,17,0.0103568,10,-0.000682688,-2.21555,-0.281571,-0.209539,49.6626,0.112143,
2,0,0,1,0,32695.3,0.110965,0.11064,-6.15409,17,0.0102033,10,-0.000680887,-2.21084,-0.293799,-0.200817,48.1939,0.11064,
2,0,0,1,0,32695.3,0.109466,0.109109,-6.21663,17,0.0100482,10,-0.000678288,-2.20645,-0.406487,-0.145146,35.1563,0.1091087,
2,0,0,1,0,32695.3,0.107972,0.107634,-6.26803,17,0.00989225,10,-0.000674651,-2.20287,-0.548963,-0.107475,26.2426,0.107634,
2,0,0,1,0,32695.3,0.106471,0.106153,-6.30714,17,0.00973471,10,-0.000669519,-2.20017,-0.609128,-0.0968597,23.8059,0.106153,
2,0,0,1,0,32695.4,0.10497,0.104662,-6.33047,17,0.00957628,10,-0.000662563,-2.19856,-0.792772,-0.0744224,18.3681,0.104662,
2,0,0,1,0,32695.4,0.103476,0.103152,-6.35414,17,0.00941779,10,-0.000655443,-2.19694,-1.95942,-0.030111,7.45158,0.103152,
2,0,0,1,0,32695.4,0.101976,0.10165,-6.36056,17,0.00925837,10,-0.000646552,-2.1965,4.71717,0.0125075,-3.09851,0.1016502,
2,0,0,1,0,32695.4,0.100477,0.100174,-6.35829,17,0.00909899,10,-0.000636937,-2.19666,2.84573,0.0207328,-5.13701,0.100174,
2,0,0,1,0,32695.5,0.0989825,0.0986047,-6.34215,17,0.00894044,10,-0.000625366,-2.19776,1.79991,0.0327794,-8.10622,0.0986047,
2,0,0,1,0,32695.5,0.0974817,0.097128,-6.31884,17,0.00878168,10,-0.000613736,-2.19936,0.8457,0.0697647,-17.1967,0.097128,
2,0,0,1,0,32695.5,0.0959822,0.0956469,-6.29213,17,0.00862357,10,-0.000601823,-2.2012,0.588004,0.100339,-24.5982,0.0956469,
2,0,0,1,0,32695.5,0.094488,0.0941535,-6.2573,17,0.00846693,10,-0.000589147,-2.20361,0.549385,0.107393,-26.1766,0.0941535,
2,0,0,1,0,32695.6,0.0929884,0.0927052,-6.20327,17,0.00831073,10,-0.000575075,-2.20738,0.51172,0.115297,-27.9311,0.09270522,
2,0,0,1,0,32695.6,0.0914889,0.0911429,-6.16111,17,0.00815564,10,-0.000561541,-2.21034,0.415868,0.141872,-34.1223,0.0911429,
2,0,0,1,0,32695.6,0.0899894,0.0896162,-6.11124,17,0.00800174,10,-0.000547666,-2.21387,0.356361,0.165563,-39.4393,0.0896162,
2,0,0,1,0,32695.6,0.0884951,0.0881743,-6.05443,17,0.0078498,10,-0.000533845,-2.21793,0.367347,0.160611,-37.9413,0.0881743,
2,0,0,1,0,32695.7,0.0869943,0.0866679,-5.99903,17,0.00769878,10,-0.000519923,-2.22192,0.382433,0.154275,-36.1248,0.0866679,
2,0,0,1,0,32695.7,0.0854935,0.0851655,-5.9396,17,0.00754909,10,-0.000505849,-2.22624,0.398085,0.14821,-34.396,0.0851655,
2,0,0,1,0,32695.7,0.0839993,0.0836697,-5.89466,17,0.00740126,10,-0.000493205,-2.22954,0.35865,0.164506,-37.8069,0.0836697,
2,0,0,1,0,32695.7,0.0824998,0.0821806,-5.84509,17,0.0072541,10,-0.000480353,-2.23321,0.428964,0.137541,-31.3464,0.0821806,
2,0,0,1,0,32695.8,0.0810002,0.0806531,-5.79306,17,0.00710827,10,-0.000467228,-2.23709,0.465341,0.126789,-28.6993,0.0806531,
2,0,0,1,0,32695.8,0.0795007,0.0791899,-5.74432,17,0.00696358,10,-0.000454892,-2.24076,0.459663,0.128355,-28.8389,0.0791899,
2,0,0,1,0,32695.8,0.0780078,0.0776768,-5.71288,17,0.00682043,10,-0.000443758,-2.24314,0.494817,0.119236,-26.574,0.0776768,
2,0,0,1,0,32695.8,0.076507,0.076194,-5.67404,17,0.00667768,10,-0.000432328,-2.24611,0.519858,0.113493,-25.1143,0.076194,
2,0,0,1,0,32695.9,0.0750062,0.0746489,-5.63111,17,0.00653594,10,-0.000420356,-2.24941,0.599444,0.0984245,-21.6535,0.0746489,
2,0,0,1,0,32695.9,0.073512,0.0731771,-5.59679,17,0.00639561,10,-0.000409557,-2.25206,0.620355,0.0951068,-20.7942,0.0731771,
2,0,0,1,0,32695.9,0.0720124,0.0717192,-5.57638,17,0.0062555,10,-0.000399933,-2.25365,0.602901,0.0978602,-21.296,0.0717192,
2,0,0,1,0,32695.9,0.0705129,0.0702144,-5.54303,17,0.00611605,10,-0.000389201,-2.25625,0.707535,0.083388,-18.0281,0.0702144,
2,0,0,1,0,32696,0.0690187,0.0686824,-5.50818,17,0.00597795,10,-0.000378314,-2.25899,0.712541,0.0828023,-17.8225,0.0686824,
2,0,0,1,0,32696,0.0675179,0.067183,-5.48449,17,0.00584005,10,-0.000368464,-2.26086,0.715737,0.0824326,-17.667,0.067183,
2,0,0,1,0,32696,0.066017,0.0656864,-5.46891,17,0.00570276,10,-0.000359233,-2.2621,0.690971,0.0853871,-18.1933,0.0656864,
2,0,0,1,0,32696,0.0645242,0.0641831,-5.44474,17,0.00556657,10,-0.00034946,-2.26402,0.712777,0.0827749,-17.5355,0.0641831,
2,0,0,1,0,32696.1,0.0630246,0.0626718,-5.4063,17,0.00543056,10,-0.000338823,-2.2671,0.730813,0.080732,-17.044,0.06267184,
2,0,0,1,0,32696.1,0.0615251,0.0611756,-5.37616,17,0.00529534,10,-0.00032889,-2.26953,0.653556,0.0902754,-18.9602,0.0611756,
2,0,0,1,0,32696.1,0.0600256,0.0596855,-5.3513,17,0.00516077,10,-0.000319395,-2.27154,0.636522,0.0926911,-19.3571,0.0596855,
2,0,0,1,0,32696.1,0.0585314,0.0582283,-5.32371,17,0.00502736,10,-0.000309991,-2.27379,0.645327,0.0914265,-18.9829,0.0582283,
2,0,0,1,0,32696.2,0.0570305,0.056683,-5.29599,17,0.00489412,10,-0.000300193,-2.27605,0.665103,0.088708,-18.3317,0.056683,
2,0,0,1,0,32696.2,0.0555297,0.0551931,-5.26463,17,0.00476166,10,-0.000290571,-2.27863,0.629026,0.0937958,-19.2884,0.0551931,
2,0,0,1,0,32696.2,0.0540355,0.0537073,-5.24157,17,0.00463045,10,-0.000281511,-2.28054,0.585991,0.100684,-20.5662,0.0537073,
2,0,0,1,0,32696.2,0.052536,0.0522396,-5.21752,17,0.00449933,10,-0.000272561,-2.28254,0.656011,0.0899375,-18.2793,0.0522396,
2,0,0,1,0,32696.3,0.0510364,0.0507467,-5.17846,17,0.00436893,10,-0.000262789,-2.2858,0.597021,0.0988239,-19.9794,0.0507467,
2,0,0,1,0,32696.3,0.0495369,0.0491975,-5.14108,17,0.0042394,10,-0.000252928,-2.28895,0.579673,0.101781,-20.4774,0.0491975,
2,0,0,1,0,32696.3,0.0480427,0.0477205,-5.11735,17,0.00411118,10,-0.000244202,-2.29095,0.591064,0.0998199,-19.927,0.0477205,
2,0,0,1,0,32696.3,0.0465432,0.0462216,-5.08965,17,0.00398313,10,-0.000235252,-2.29331,0.622166,0.09483,-18.8124,0.04622161,
2,0,0,1,0,32696.4,0.0450424,0.0446956,-5.05655,17,0.00385588,10,-0.000226006,-2.29615,0.582678,0.101257,-19.9705,0.0446956,
2,0,0,1,0,32696.4,0.0435482,0.0432007,-5.01589,17,0.00373,10,-0.00021669,-2.29965,0.513917,0.114805,-22.4998,0.0432007,
2,0,0,1,0,32696.4,0.0420486,0.0416799,-4.99252,17,0.00360445,10,-0.000208088,-2.30168,0.472422,0.124888,-24.3018,0.0416799,
2,0,0,1,0,32696.4,0.0405491,0.0401777,-4.9603,17,0.0034797,10,-0.000199294,-2.30449,0.542965,0.108663,-21.0079,0.0401777,
2,0,0,1,0,32696.5,0.0390549,0.0387225,-4.9182,17,0.00335624,10,-0.000190445,-2.30819,0.48992,0.120428,-23.1074,0.0387225,
2,0,0,1,0,32696.5,0.0375541,0.0371898,-4.88317,17,0.0032332,10,-0.000181604,-2.3113,0.429359,0.137414,-26.2067,0.0371898,
2,0,0,1,0,32696.5,0.0360532,0.0357299,-4.84374,17,0.00311117,10,-0.000173066,-2.31482,0.424423,0.139012,-26.2907,0.0357299,
2,0,0,1,0,32696.5,0.034559,0.0342183,-4.81374,17,0.00299051,10,-0.000164718,-2.31752,0.470339,0.125442,-23.5378,0.0342183,
2,0,0,1,0,32696.6,0.0330595,0.032705,-4.7743,17,0.00287027,10,-0.000156143,-2.32109,0.436353,0.135212,-25.1684,0.032705,
2,0,0,1,0,32696.6,0.0315613,0.0311845,-4.72674,17,0.002751,10,-0.000147401,-2.32544,0.40516,0.145621,-26.8973,0.0311845,
2,0,0,1,0,32696.6,0.0300618,0.0297449,-4.68642,17,0.00263287,10,-0.000139397,-2.32916,0.364878,0.161698,-29.6031,0.0297449,
2,0,0,1,0,32696.6,0.0285676,0.0282273,-4.65469,17,0.00251612,10,-0.000131389,-2.33211,0.466641,0.126435,-22.9197,0.0282273,
2,0,0,1,0,32696.7,0.0270667,0.0267644,-4.61,17,0.00239986,10,-0.000123384,-2.3363,0.420475,0.140318,-25.2459,0.0267644,
2,0,0,1,0,32696.7,0.0255659,0.0252632,-4.56632,17,0.0022846,10,-0.00011536,-2.34043,0.368873,0.159947,-28.5203,0.0252632,
2,0,0,1,0,32696.7,0.0240717,0.0237103,-4.52984,17,0.00217085,10,-0.000107404,-2.34392,0.361531,0.163195,-28.8515,0.0237103,
2,0,0,1,0,32696.7,0.0225722,0.0222485,-4.49062,17,0.0020577,10,-9.99096e-05,-2.34769,0.428304,0.137753,-24.1519,0.0222485,
2,0,0,1,0,32696.8,0.0210726,0.0207383,-4.45359,17,0.00194543,10,-9.236e-05,-2.35129,0.441006,0.133785,-23.2559,0.0207383,
2,0,0,1,0,32696.8,0.0195784,0.0192168,-4.40987,17,0.00183456,10,-8.47436e-05,-2.35557,0.388694,0.15179,-26.1631,0.0192168,
2,0,0,1,0,32696.8,0.0180789,0.0177697,-4.37703,17,0.00172419,10,-7.77785e-05,-2.35882,0.379772,0.155357,-26.5624,0.0177697,
2,0,0,1,0,32696.8,0.0165781,0.0162191,-4.34514,17,0.00161479,10,-7.04743e-05,-2.362,0.480494,0.12279,-20.8133,0.0162191,
2,0,0,1,0,32696.9,0.0150839,0.0147475,-4.31289,17,0.00150657,10,-6.36042e-05,-2.36523,0.596977,0.0988313,-16.6256,0.0147475,
2,0,0,1,0,32696.9,0.0135844,0.0132532,-4.2778,17,0.00139864,10,-5.66947e-05,-2.36878,0.466475,0.126481,-21.1477,0.0132532,
2,0,0,1,0,32696.9,0.0120848,0.0117232,-4.25213,17,0.00129148,10,-4.98484e-05,-2.37139,0.445402,0.132465,-21.9936,0.0117232,
2,0,0,1,0,32696.9,0.0105853,0.0102168,-4.22094,17,0.00118513,10,-4.31245e-05,-2.37459,0.497208,0.118663,-19.567,0.0102168,
2,0,0,1,0,32697,0.00909108,0.0087306,-4.19922,17,0.00107987,10,-3.66617e-05,-2.37683,0.673364,0.0876198,-14.3604,0.0087306,
2,0,0,1,0,32697,0.00759027,0.00727595,-4.16929,17,0.000974821,10,-3.03355e-05,-2.37994,0.594313,0.0992743,-16.1735,0.00727595,
2,0,0,1,0,32697,0.00608945,0.00573641,-4.15339,17,0.000870293,10,-2.38255e-05,-2.3816,0.623411,0.0946406,-15.3212,0.005736406,
2,0,0,1,0,32697,0.00459524,0.00424557,-4.13309,17,0.000766818,10,-1.75473e-05,-2.38373,0.795434,0.0741734,-11.9551,0.00424557,
2,0,0,1,0,32697.1,0.0030957,0.00279029,-4.11269,17,0.000663335,10,-1.14756e-05,-2.38587,5.58616,0.0105618,-1.70024,0.00279029,
2,0,0,1,0,32697.1,0.00159616,0.00118206,-4.12641,17,0.00055979,10,-4.87766e-06,-2.38443, , , ,0.00118206,
2,0,0,1,0,32697.1,0.000199195,-0.000185986,-4.09654,17,0.000463509,10,7.61899e-07,-2.38758, , , ,-0.000185986,