File: Figure_codes/Fig_3-5/rawdata_trumpetplot_data/after 10th/20221101_1-115_003_TrumpetPlot_ParaChange_from10_every3_05_CV_C01_0.csv
mode,ox/red,error,control changes,counter inc.,time/s,control/V,Ewe/V,<I>/mA,cycle number,(Q-Qo)/C,I Range,P/W,log(|I|),Tafel slope mV/dec,alpha_eff,dI/d(E-IR),E-IR/V,
2,0,0,0,0,1120.02,2.44065e-05,-0.000363498,-0.717617,1,0.0000000E+000,10,2.60852e-07,-3.14411, , , ,-0.000363498,
2,1,0,1,0,1120.08,0.00129787,0.000939338,0.387321,1,2.33129e-06,10,3.63826e-07,-3.41193, , , ,0.000939338,
2,1,0,1,0,1120.16,0.00279606,0.00246517,0.659792,1,4.51803e-05,10,1.6265e-06,-3.18059,0.00615308,9.5887,140.884,0.00246517,
2,1,0,1,0,1120.23,0.00429425,0.00398208,0.712102,1,9.81891e-05,10,2.83564e-06,-3.14746,0.0430515,1.37045,36.4857,0.00398208,
2,1,0,1,0,1120.31,0.00579244,0.0054393,0.746883,1,0.000154508,10,4.06252e-06,-3.12675,0.0730289,0.807899,23.363,0.0054393,
2,1,0,1,0,1120.38,0.00729063,0.00697566,0.78266,1,0.000213371,10,5.45957e-06,-3.10643,0.0897601,0.657307,19.9481,0.00697566,
2,1,0,1,0,1120.46,0.00878882,0.00852932,0.813464,1,0.000274464,10,6.93829e-06,-3.08966,0.113232,0.521052,16.3553,0.00852932,
2,1,0,1,0,1120.53,0.010287,0.0100127,0.83068,1,0.000337411,10,8.31731e-06,-3.08057,0.151008,0.390708,12.602,0.0100127,
2,1,0,1,0,1120.61,0.0117852,0.0114747,0.849224,1,0.000401898,10,9.74462e-06,-3.07098,0.160962,0.366545,12.1397,0.0114747,
2,1,0,1,0,1120.68,0.0132847,0.0129124,0.868308,1,0.000467697,10,1.12119e-05,-3.06133,0.158134,0.373102,12.6705,0.0129124,
2,1,0,1,0,1120.76,0.0147802,0.0144517,0.885274,1,0.000534736,10,1.27937e-05,-3.05292,0.196707,0.299938,10.3532,0.0144517,
2,1,0,1,0,1120.83,0.0162798,0.0159798,0.900628,1,0.00060341,10,1.43919e-05,-3.04545,0.219426,0.268884,9.41584,0.0159798,
2,1,0,1,0,1120.91,0.017778,0.0174938,0.913832,1,0.000672961,10,1.59864e-05,-3.03913,0.238682,0.247191,8.84199,0.0174938,
2,1,0,1,0,1120.98,0.0192761,0.0189904,0.928843,1,0.000743312,10,1.76391e-05,-3.03206,0.25671,0.229831,8.33447,0.0189904,
2,1,0,1,0,1121.05,0.0207743,0.0204469,0.943585,1,0.000814892,10,1.92934e-05,-3.02522,0.228299,0.258433,9.49769,0.0204469,
2,1,0,1,0,1121.13,0.0222725,0.0219346,0.959842,1,0.000887594,10,2.10537e-05,-3.0178,0.251093,0.234973,8.7559,0.0219346,
2,1,0,1,0,1121.2,0.0237707,0.0235157,0.971092,1,0.000961424,10,2.28359e-05,-3.01274,0.303365,0.194485,7.37672,0.0235157,
2,1,0,1,0,1121.28,0.0252689,0.0249281,0.983398,1,0.00103603,10,2.45142e-05,-3.00727,0.266241,0.221604,8.54801,0.0249281,
2,1,0,1,0,1121.35,0.0267671,0.0264215,0.999371,1,0.00111172,10,2.64049e-05,-3.00027,0.210185,0.280705,10.9435,0.0264215,
2,1,0,1,0,1121.43,0.0282653,0.0279504,1.01743,1,0.00118867,10,2.84376e-05,-2.99249,0.235711,0.250307,9.9077,0.0279504,
2,1,0,1,0,1121.5,0.0297644,0.0294197,1.02773,1,0.00126686,10,3.02356e-05,-2.98812,0.246394,0.239454,9.60096,0.0294197,
2,1,0,1,0,1121.58,0.0312599,0.0309527,1.03805,1,0.00134581,10,3.21304e-05,-2.98378,0.21886,0.269579,10.9999,0.0309527,
2,1,0,1,0,1121.65,0.0327599,0.0324558,1.05967,1,0.00142598,10,3.43923e-05,-2.97483,0.224615,0.262671,10.865,0.0324558,
2,1,0,1,0,1121.73,0.034258,0.0339649,1.07691,1,0.00150754,10,3.65772e-05,-2.96782,0.22704,0.259866,10.9172,0.0339649,
2,1,0,1,0,1121.8,0.0357562,0.0354783,1.09382,1,0.00159044,10,3.88067e-05,-2.96106,0.262857,0.224457,9.56641,0.0354783,
2,1,0,1,0,1121.88,0.0372544,0.0369574,1.1112,1,0.00167455,10,4.1067e-05,-2.95421,0.219449,0.268855,11.7005,0.0369574,
2,1,0,1,0,1121.95,0.0387526,0.0384432,1.12882,1,0.00175984,10,4.33956e-05,-2.94737,0.203495,0.289934,12.8411,0.0384432,
2,1,0,1,0,1122.03,0.0402508,0.039914,1.14849,1,0.00184676,10,4.58409e-05,-2.93987,0.203637,0.289731,13.014,0.039914,
2,1,0,1,0,1122.1,0.041749,0.0414524,1.17543,1,0.00193538,10,4.87244e-05,-2.9298,0.213136,0.276819,12.6485,0.0414524,
2,1,0,1,0,1122.18,0.0432472,0.0429955,1.19399,1,0.00202534,10,5.13362e-05,-2.923,0.222245,0.265472,12.349,0.0429955,
2,1,0,1,0,1122.25,0.0447449,0.0444312,1.21288,1,0.00211661,10,5.38895e-05,-2.91618,0.192252,0.306888,14.5074,0.0444312,
2,1,0,1,0,1122.33,0.0462445,0.0459433,1.23185,1,0.00220969,10,5.65954e-05,-2.90944,0.169014,0.349084,16.7822,0.0459433,
2,1,0,1,0,1122.4,0.04774,0.0474374,1.25503,1,0.00230432,10,5.95354e-05,-2.90135,0.17272,0.341593,16.7175,0.0474374,
2,1,0,1,0,1122.48,0.0492399,0.0489315,1.27827,1,0.00240088,10,6.2548e-05,-2.89338,0.200543,0.294202,14.6794,0.0489315,
2,1,0,1,0,1122.55,0.0507381,0.0504191,1.29491,1,0.00249876,10,6.52884e-05,-2.88776,0.192408,0.30664,15.5808,0.0504191,
2,1,0,1,0,1122.63,0.0522363,0.0519711,1.32125,1,0.00259839,10,6.86666e-05,-2.87902,0.175357,0.336456,17.3576,0.0519711,
2,1,0,1,0,1122.7,0.0537345,0.0534457,1.35111,1,0.00269997,10,7.22109e-05,-2.86931,0.192473,0.306536,16.1134,0.0534457,
2,1,0,1,0,1122.78,0.0552327,0.0549313,1.37453,1,0.00280346,10,7.55046e-05,-2.86185,0.211395,0.279098,14.9012,0.05493135,
2,1,0,1,0,1122.85,0.0567309,0.0563998,1.39087,1,0.00290854,10,7.84447e-05,-2.85671,0.225378,0.261782,14.2513,0.0563998,
2,1,0,1,0,1122.93,0.0582291,0.0579145,1.41782,1,0.00301513,10,8.21122e-05,-2.84838,0.218706,0.269768,14.92,0.0579145,
2,1,0,1,0,1123,0.0597291,0.0594497,1.44312,1,0.00312383,10,8.57931e-05,-2.8407,0.201294,0.293104,16.4516,0.0594497,
2,1,0,1,0,1123.08,0.0612246,0.0609261,1.46415,1,0.00323398,10,8.92049e-05,-2.83441,0.253815,0.232453,13.2546,0.0609261,
2,1,0,1,0,1123.15,0.0627241,0.0624408,1.48732,1,0.0033461,10,9.28697e-05,-2.82759,0.242746,0.243052,14.0934,0.0624408,
2,1,0,1,0,1123.23,0.0642219,0.0639129,1.50498,1,0.00345949,10,9.61876e-05,-2.82247,0.219105,0.269277,15.8499,0.0639129,
2,1,0,1,0,1123.3,0.06572,0.0654245,1.52998,1,0.00357472,10,0.000100098,-2.81531,0.213205,0.276729,16.5228,0.0654245,
2,1,0,1,0,1123.38,0.0672182,0.0668942,1.55777,1,0.00369188,10,0.000104206,-2.8075,0.249655,0.236326,14.3142,0.0668942,
2,1,0,1,0,1123.45,0.0687164,0.0683762,1.57764,1,0.00381062,10,0.000107873,-2.80199,0.306749,0.19234,11.8089,0.0683762,
2,1,0,1,0,1123.53,0.0702146,0.0698875,1.59189,1,0.00393064,10,0.000111253,-2.79809,0.280208,0.210558,13.113,0.0698875,
2,1,0,1,0,1123.6,0.0717128,0.0713804,1.61423,1,0.00405223,10,0.000115224,-2.79203,0.245088,0.24073,15.1464,0.0713804,
2,1,0,1,0,1123.68,0.073211,0.0728998,1.63735,1,0.00417552,10,0.000119363,-2.78586,0.2935,0.201022,12.8355,0.0728998,
2,1,0,1,0,1123.75,0.0747092,0.0744215,1.6555,1,0.00430023,10,0.000123205,-2.78107,0.292538,0.201683,13.0192,0.0744215,
2,1,0,1,0,1123.83,0.0762087,0.0758905,1.66775,1,0.00442636,10,0.000126566,-2.77787,0.288426,0.204559,13.3539,0.0758905,
2,1,0,1,0,1123.9,0.0777042,0.0773471,1.69359,1,0.00455368,10,0.000130994,-2.77119,0.269972,0.218541,14.4113,0.0773471,
2,1,0,1,0,1123.98,0.0792037,0.0789114,1.71624,1,0.0046829,10,0.000135431,-2.76542,0.300368,0.196426,13.1112,0.0789114,
2,1,0,1,0,1124.05,0.0807019,0.0803993,1.7316,1,0.00481339,10,0.00013922,-2.76155,0.368862,0.159951,10.7772,0.0803993,
2,1,0,1,0,1124.13,0.0822001,0.0819103,1.74305,1,0.00494516,10,0.000142774,-2.75869,0.343384,0.171819,11.7244,0.0819103,
2,1,0,1,0,1124.2,0.0836983,0.0834084,1.76535,1,0.00507805,10,0.000147245,-2.75317,0.33964,0.173714,11.9598,0.0834084,
2,1,0,1,0,1124.28,0.0851965,0.0848646,1.78233,1,0.00521243,10,0.000151256,-2.74901,0.358774,0.164449,11.4514,0.0848646,
2,1,0,1,0,1124.35,0.0866947,0.0863927,1.8009,1,0.00534815,10,0.000155585,-2.74451,0.414859,0.142217,9.98822,0.0863927,
2,1,0,1,0,1124.43,0.0881929,0.0878366,1.81904,1,0.00548526,10,0.000159778,-2.74016,0.389856,0.151338,10.7451,0.0878366,
2,1,0,1,0,1124.5,0.0896911,0.0894189,1.83435,1,0.00562338,10,0.000164026,-2.73652,0.342032,0.172498,12.393,0.0894189,
2,1,0,1,0,1124.58,0.0911893,0.0908749,1.85941,1,0.00576309,10,0.000168974,-2.73063,0.280839,0.210085,15.2162,0.0908749,
2,1,0,1,0,1124.65,0.0926884,0.0923941,1.88269,1,0.00590485,10,0.000173949,-2.72522,0.282146,0.209112,15.3293,0.0923941,
2,1,0,1,0,1124.73,0.0941839,0.0938679,1.89945,1,0.0060478,10,0.000178298,-2.72137,0.2998,0.196798,14.6064,0.0938679,
2,1,0,1,0,1124.8,0.0956838,0.0953331,1.91925,1,0.00619249,10,0.000182968,-2.71687,0.283069,0.20843,15.6611,0.09533307,
2,1,0,1,0,1124.88,0.097182,0.0968417,1.94545,1,0.00633895,10,0.000188401,-2.71098,0.22576,0.261339,19.881,0.0968417,
2,1,0,1,0,1124.95,0.0986802,0.0983603,1.97467,1,0.00648737,10,0.00019423,-2.7045,0.231892,0.254428,19.6519,0.0983603,
2,1,0,1,0,1125.03,0.100178,0.099861,2.00642,1,0.00663804,10,0.000200363,-2.69758,0.232019,0.254289,19.9023,0.099861,
2,1,0,1,0,1125.1,0.101677,0.101364,2.03588,1,0.00679097,10,0.000206364,-2.69125,0.220141,0.26801,21.3353,0.101364,
2,1,0,1,0,1125.17,0.103175,0.10284,2.07411,1,0.00694625,10,0.000213303,-2.68317,0.18947,0.311396,25.2523,0.10284,
2,1,0,1,0,1125.25,0.104673,0.104355,2.11434,1,0.00710441,10,0.000220642,-2.67482,0.187218,0.315141,25.9952,0.104355,
2,1,0,1,0,1125.32,0.106171,0.105845,2.15402,1,0.00726577,10,0.000227993,-2.66675,0.186501,0.316353,26.5264,0.105845,
2,1,0,1,0,1125.4,0.107669,0.107323,2.19289,1,0.00743008,10,0.000235348,-2.65898,0.180806,0.326316,27.9568,0.107323,
2,1,0,1,0,1125.47,0.109168,0.108874,2.23128,1,0.00759746,10,0.000242928,-2.65145,0.16972,0.347632,30.3776,0.108874,
2,1,0,1,0,1125.55,0.110664,0.11034,2.28146,1,0.00776794,10,0.000251736,-2.64179,0.170786,0.345461,30.7618,0.11034,
2,1,0,1,0,1125.62,0.112164,0.111847,2.3275,1,0.00794232,10,0.000260325,-2.63311,0.182324,0.3236,29.3716,0.111847,
2,1,0,1,0,1125.7,0.113662,0.113377,2.3718,1,0.0081199,10,0.000268908,-2.62492,0.185734,0.317658,29.371,0.1133769,
2,1,0,1,0,1125.77,0.11516,0.114844,2.41741,1,0.00830047,10,0.000277626,-2.61665,0.196077,0.300902,28.3518,0.114844,
2,1,0,1,0,1125.85,0.116658,0.116315,2.45569,1,0.00848442,10,0.000285634,-2.60983,0.186196,0.316871,30.3717,0.116315,
2,1,0,1,0,1125.92,0.118157,0.117829,2.50861,1,0.008672,10,0.000295588,-2.60057,0.202476,0.291393,28.4424,0.117829,
2,1,0,1,0,1126,0.119655,0.11936,2.54851,1,0.00886273,10,0.000304189,-2.59371,0.239674,0.246168,24.442,0.11936,
2,1,0,1,0,1126.07,0.121153,0.120858,2.58047,1,0.00905614,10,0.00031187,-2.5883,0.226248,0.260776,26.3127,0.120858,
2,1,0,1,0,1126.15,0.122653,0.122388,2.62167,1,0.00925274,10,0.00032086,-2.58142,0.218466,0.270065,27.605,0.122388,
2,1,0,1,0,1126.22,0.124149,0.123867,2.65883,1,0.00945186,10,0.000329341,-2.57531,0.237877,0.248027,25.7347,0.123867,
2,1,0,1,0,1126.3,0.125648,0.12534,2.70053,1,0.00965436,10,0.000338484,-2.56855,0.278399,0.211926,22.2659,0.12534,
2,1,0,1,0,1126.37,0.127146,0.126834,2.72516,1,0.00985919,10,0.000345644,-2.56461,0.282526,0.208831,22.2466,0.1268343,
2,1,0,1,0,1126.45,0.128644,0.128344,2.76211,1,0.0100662,10,0.000354501,-2.55876,0.288458,0.204536,22.0679,0.128344,
2,1,0,1,0,1126.52,0.130142,0.129805,2.79648,1,0.0102759,10,0.000362996,-2.55339,0.303432,0.194442,21.2079,0.129805,
2,1,0,1,0,1126.6,0.13164,0.131353,2.8293,1,0.0104883,10,0.000371636,-2.54832,0.364898,0.161689,17.8026,0.1313528,
2,1,0,1,0,1126.67,0.133139,0.132823,2.85643,1,0.0107027,10,0.000379398,-2.54418,0.407859,0.144658,16.1094,0.132823,
2,1,0,1,0,1126.75,0.134637,0.1343,2.87866,1,0.0109187,10,0.000386603,-2.54081,0.430955,0.136905,15.3793,0.1343,
2,1,0,1,0,1126.82,0.136135,0.135839,2.90283,1,0.0111366,10,0.000394319,-2.53718,0.511343,0.115382,13.0304,0.1358393,
2,1,0,1,0,1126.9,0.137633,0.137289,2.9182,1,0.0113561,10,0.000400636,-2.53489,0.785047,0.0751547,8.53308,0.137289,
2,1,0,1,0,1126.97,0.139133,0.138825,2.92912,1,0.0115768,10,0.000406635,-2.53326,2.06024,0.0286374,3.26344,0.138825,
2,1,0,1,0,1127.05,0.140628,0.140324,2.92494,1,0.011797,10,0.000410439,-2.53388,-3.46378,-0.0170334,-1.9408,0.140324,
2,1,0,1,0,1127.12,0.142128,0.141831,2.91728,1,0.0120176,10,0.00041376,-2.53502,-0.964201,-0.0611905,-6.94166,0.1418307,
2,1,0,1,0,1127.2,0.143626,0.143304,2.90389,1,0.0122373,10,0.000416139,-2.53702,-0.423438,-0.139336,-15.7121,0.143304,
2,1,0,1,0,1127.27,0.145124,0.144811,2.87207,1,0.0124551,10,0.000415908,-2.5418,-0.228175,-0.258573,-28.8295,0.1448113,
2,1,0,1,0,1127.35,0.146622,0.146362,2.81619,1,0.0126697,10,0.000412183,-2.55034,-0.176401,-0.334466,-36.6958,0.146362,
2,1,0,1,0,1127.42,0.14812,0.147843,2.76124,1,0.0128801,10,0.00040823,-2.5589,-0.144502,-0.4083,-43.7415,0.147843,
2,1,0,1,0,1127.5,0.149619,0.149315,2.68647,1,0.0130858,10,0.000401131,-2.57082,-0.115775,-0.509609,-53.1681,0.149315,
2,1,0,1,0,1127.57,0.151117,0.150796,2.60222,1,0.0132853,10,0.000392406,-2.58466,-0.0943403,-0.625396,-63.1239,0.150796,
2,1,0,1,0,1127.65,0.152615,0.152314,2.49844,1,0.0134779,10,0.000380547,-2.60233,-0.084086,-0.701663,-68.3169,0.152314,
2,1,0,1,0,1127.72,0.154113,0.153758,2.39499,1,0.0136626,10,0.000368249,-2.6207,-0.0790746,-0.746131,-69.7069,0.153758,
2,1,0,1,0,1127.8,0.155613,0.155309,2.29036,1,0.0138398,10,0.000355713,-2.6401,-0.074921,-0.787496,-70.2711,0.155309,
2,1,0,1,0,1127.87,0.157108,0.15685,2.1814,1,0.0140085,10,0.000342154,-2.66126,-0.0708199,-0.8331,-70.8477,0.15685,
2,1,0,1,0,1127.95,0.158608,0.158263,2.0708,1,0.0141696,10,0.000327732,-2.68386,-0.0689577,-0.855597,-69.3999,0.158263,
2,1,0,1,0,1128.02,0.160106,0.15983,1.97149,1,0.0143224,10,0.000315103,-2.70521,-0.0707308,-0.834148,-64.4599,0.15983,
2,1,0,1,0,1128.1,0.161604,0.161307,1.88084,1,0.0144682,10,0.000303393,-2.72565,-0.0731216,-0.806875,-59.3568,0.161307,
2,1,0,1,0,1128.17,0.163102,0.162818,1.79839,1,0.0146074,10,0.000292811,-2.74511,-0.0739775,-0.797539,-56.0744,0.162818,
2,1,0,1,0,1128.25,0.164601,0.164327,1.71829,1,0.0147405,10,0.000282362,-2.7649,-0.0773919,-0.762353,-51.264,0.164327,
2,1,0,1,0,1128.32,0.166099,0.165766,1.64427,1,0.0148679,10,0.000272565,-2.78403,-0.0833463,-0.70789,-45.6761,0.165766,
2,1,0,1,0,1128.4,0.167597,0.167262,1.58425,1,0.0149902,10,0.000264985,-2.80018,-0.0960594,-0.614203,-38.0696,0.167262,
2,1,0,1,0,1128.47,0.169095,0.168807,1.52929,1,0.0151083,10,0.000258155,-2.81551,-0.0973946,-0.605783,-36.2091,0.168807,
2,1,0,1,0,1128.55,0.170593,0.170306,1.47683,1,0.0152223,10,0.000251513,-2.83067,-0.101054,-0.583846,-33.7708,0.170306,
2,1,0,1,0,1128.62,0.172092,0.171792,1.42561,1,0.0153326,10,0.000244908,-2.846,-0.115028,-0.512918,-28.7004,0.171792,
2,1,0,1,0,1128.7,0.173588,0.173269,1.38695,1,0.0154393,10,0.000240316,-2.85794,-0.12546,-0.470268,-25.4691,0.173269,
2,1,0,1,0,1128.77,0.175088,0.174811,1.35235,1,0.0155434,10,0.000236406,-2.86891,-0.130853,-0.450889,-23.7906,0.1748113,
2,1,0,1,0,1128.85,0.176586,0.176281,1.31615,1,0.0156446,10,0.000232012,-2.8807,-0.141394,-0.417273,-21.4337,0.1762812,
2,1,0,1,0,1128.92,0.178084,0.177791,1.27956,1,0.0157434,10,0.000227495,-2.89294,-0.146755,-0.402031,-20.1789,0.177791,
2,1,0,1,0,1129,0.179582,0.179269,1.25707,1,0.01584,10,0.000225354,-2.90064,-0.164265,-0.359176,-17.6662,0.179269,
2,1,0,1,0,1129.07,0.181081,0.180781,1.23097,1,0.0159347,10,0.000222537,-2.90975,-0.179853,-0.328046,-15.8101,0.180781,
2,1,0,1,0,1129.15,0.182579,0.182279,1.21125,1,0.0160277,10,0.000220785,-2.91677,-0.175574,-0.336041,-15.8411,0.182279,
2,1,0,1,0,1129.22,0.184077,0.183787,1.19098,1,0.016119,10,0.000218886,-2.9241,-0.193912,-0.304261,-14.1324,0.183787,
2,1,0,1,0,1129.29,0.185577,0.185283,1.17191,1,0.0162088,10,0.000217134,-2.93111,-0.229179,-0.257441,-11.7941,0.185283,
2,1,0,1,0,1129.37,0.187073,0.186784,1.15615,1,0.0162972,10,0.00021595,-2.93699,-0.272735,-0.216327,-9.75479,0.186784,
2,1,0,1,0,1129.44,0.188572,0.188261,1.13921,1,0.0163848,10,0.000214469,-2.9434,-0.304498,-0.193761,-8.62343,0.188261,
2,1,0,1,0,1129.52,0.19007,0.189773,1.12629,1,0.0164712,10,0.000213741,-2.94835,-0.297805,-0.198116,-8.71471,0.189773,
2,1,0,1,0,1129.59,0.191568,0.191229,1.11045,1,0.0165564,10,0.000212351,-2.9545,-0.323115,-0.182598,-7.94339,0.191229,
2,1,0,1,0,1129.67,0.193066,0.192762,1.09878,1,0.0166408,10,0.000211803,-2.95909,-0.46307,-0.127411,-5.48343,0.192762,
2,1,0,1,0,1129.74,0.194564,0.194271,1.09305,1,0.0167245,10,0.000212348,-2.96136,-0.407991,-0.144611,-6.16033,0.194271,
2,1,0,1,0,1129.82,0.196063,0.195748,1.08129,1,0.0168075,10,0.00021166,-2.96606,-0.315133,-0.187223,-7.90738,0.195748,
2,1,0,1,0,1129.89,0.197561,0.197211,1.06876,1,0.0168897,10,0.000210771,-2.97112,-0.344837,-0.171095,-7.17924,0.197211,
2,1,0,1,0,1129.97,0.199059,0.198745,1.06629,1,0.016971,10,0.000211919,-2.97213,-0.447408,-0.131871,-5.48661,0.198745,
2,1,0,1,0,1130.04,0.200557,0.200251,1.05851,1,0.0170519,10,0.000211968,-2.97531,-0.572789,-0.103005,-4.24841,0.2002515,
2,1,0,1,0,1130.12,0.202057,0.201774,1.05119,1,0.0171324,10,0.000212103,-2.97832,-0.438837,-0.134446,-5.50354,0.2017744,
2,1,0,1,0,1130.19,0.203552,0.203242,1.04054,1,0.0172122,10,0.000211481,-2.98274,-0.636624,-0.0926764,-3.78098,0.203242,
2,1,0,1,0,1130.27,0.205052,0.204744,1.0337,1,0.0172914,10,0.000211644,-2.98561,-1.19325,-0.0494448,-2.01425,0.204744,
2,1,0,1,0,1130.34,0.20655,0.206232,1.02917,1,0.0173703,10,0.000212247,-2.98751,-0.793397,-0.0743638,-2.99865,0.206232,
2,1,0,1,0,1130.42,0.208048,0.207709,1.02593,1,0.0174492,10,0.000213096,-2.98888,-0.512076,-0.115217,-4.60117,0.207709,
2,1,0,1,0,1130.49,0.209546,0.209236,1.02066,1,0.0175273,10,0.000213557,-2.99112,-0.469076,-0.125779,-5.00655,0.209236,
2,1,0,1,0,1130.57,0.211044,0.210749,1.01909,1,0.0176048,10,0.000214771,-2.99179,-0.716534,-0.0823408,-3.25911,0.210749,
2,1,0,1,0,1130.64,0.212543,0.212224,1.0111,1,0.0176821,10,0.000214579,-2.99521,-0.927801,-0.0635912,-2.50172,0.212224,
2,1,0,1,0,1130.72,0.214041,0.213763,1.00596,1,0.0177591,10,0.000215037,-2.99742,-0.608301,-0.0969915,-3.80476,0.213763,
2,1,0,1,0,1130.79,0.215539,0.21523,1.00221,1,0.0178357,10,0.000215706,-2.99904,-0.554933,-0.106319,-4.15574,0.21523,
2,1,0,1,0,1130.87,0.217037,0.216708,0.995109,1,0.0179118,10,0.000215648,-3.00213,-1.07929,-0.0546658,-2.1278,0.216708,
2,1,0,1,0,1130.94,0.218536,0.218246,0.989763,1,0.0179878,10,0.000216012,-3.00447,-3.62571,-0.0162727,-0.62932,0.218246,
2,1,0,1,0,1131.02,0.220032,0.219762,0.992347,1,0.0180636,10,0.00021808,-3.00334,-1.27449,-0.0462929,-1.78551,0.2197616,
2,1,0,1,0,1131.09,0.221532,0.221264,0.984842,1,0.0181392,10,0.00021791,-3.00663,-0.716243,-0.0823743,-3.16838,0.221264,
2,1,0,1,0,1131.17,0.22303,0.222704,0.976437,1,0.0182142,10,0.000217456,-3.01036,-0.664642,-0.0887696,-3.40328,0.222704,
2,1,0,1,0,1131.24,0.224528,0.224225,0.978642,1,0.018289,10,0.000219436,-3.00938,-0.807477,-0.0730671,-2.78209,0.224225,
2,1,0,1,0,1131.32,0.226026,0.225716,0.975137,1,0.0183637,10,0.000220104,-3.01093,-1.45373,-0.0405853,-1.54235,0.225716,
2,1,0,1,0,1131.39,0.227525,0.227228,0.971393,1,0.0184381,10,0.000220728,-3.01261,-0.744702,-0.0792263,-3.00036,0.227228,
2,1,0,1,0,1131.47,0.229023,0.228716,0.969122,1,0.0185123,10,0.000221654,-3.01362,-0.931603,-0.0633317,-2.40176,0.228716,
2,1,0,1,0,1131.54,0.230521,0.230193,0.963655,1,0.018586,10,0.000221827,-3.01608,-1.13375,-0.0520399,-1.96823,0.230193,
2,1,0,1,0,1131.62,0.232019,0.231693,0.963059,1,0.0186598,10,0.000223134,-3.01635,-1.31356,-0.0449162,-1.68395,0.231693,
2,1,0,1,0,1131.69,0.233517,0.233229,0.962494,1,0.0187334,10,0.000224482,-3.0166,-0.840128,-0.0702274,-2.6267,0.233229,
2,1,0,1,0,1131.77,0.235016,0.234689,0.959738,1,0.0188068,10,0.00022524,-3.01785,-1.37616,-0.0428728,-1.60611,0.234689,
2,1,0,1,0,1131.84,0.236512,0.236225,0.953719,1,0.0188797,10,0.000225292,-3.02058,-1.50648,-0.0391643,-1.45676,0.236225,
2,1,0,1,0,1131.92,0.238012,0.237698,0.951877,1,0.0189527,10,0.000226259,-3.02142,-1.96671,-0.0299993,-1.11248,0.237698,
2,1,0,1,0,1131.99,0.23951,0.239234,0.949165,1,0.0190255,10,0.000227073,-3.02266,-2.17667,-0.0271056,-1.00596,0.239234,
2,1,0,1,0,1132.07,0.241008,0.2407,0.947559,1,0.019098,10,0.000228077,-3.02339,-1.23836,-0.0476436,-1.7643,0.2407,
2,1,0,1,0,1132.14,0.242506,0.242229,0.941835,1,0.0191702,10,0.000228139,-3.02603,-1.02274,-0.0576881,-2.13164,0.242229,
2,1,0,1,0,1132.22,0.244005,0.243684,0.942553,1,0.0192423,10,0.000229685,-3.02569,-3.04344,-0.019386,-0.712015,0.2436842,
2,1,0,1,0,1132.29,0.245503,0.245216,0.944443,1,0.0193144,10,0.000231593,-3.02482,-1.28,-0.0460938,-1.69364,0.245216,
2,1,0,1,0,1132.37,0.247001,0.246708,0.940656,1,0.0193863,10,0.000232068,-3.02657,-1.03883,-0.0567944,-2.07942,0.2467085,
2,1,0,1,0,1132.44,0.248501,0.248218,0.932394,1,0.019458,10,0.000231437,-3.0304,-1.08344,-0.054456,-1.98783,0.248218,
2,1,0,1,0,1132.52,0.249997,0.249701,0.935066,1,0.0195294,10,0.000233487,-3.02916,-3.47937,-0.0169571,-0.618597,0.249701,
2,1,0,1,0,1132.59,0.251496,0.251235,0.930751,1,0.0196008,10,0.000233838,-3.03117,-4.12125,-0.014316,-0.522132,0.251235,
2,1,0,1,0,1132.67,0.252994,0.25272,0.931625,1,0.0196719,10,0.00023544,-3.03076,-0.762253,-0.0774021,-2.80582,0.25272,
2,1,0,1,0,1132.74,0.254492,0.254172,0.925661,1,0.0197429,10,0.000235277,-3.03355,-2.0922,-0.0282,-1.02006,0.254172,
2,1,0,1,0,1132.82,0.25599,0.255658,0.92438,1,0.0198136,10,0.000236325,-3.03415,-2.19248,-0.0269102,-0.972278,0.255658,
2,1,0,1,0,1132.89,0.257488,0.257172,0.924567,1,0.0198843,10,0.000237773,-3.03406,-4.91791,-0.011997,-0.432664,0.2571719,
2,1,0,1,0,1132.97,0.258987,0.25874,0.92348,1,0.019955,10,0.000238941,-3.03457,-1.10927,-0.0531881,-1.91143,0.2587395,
2,1,0,1,0,1133.04,0.260485,0.260247,0.91966,1,0.0200254,10,0.000239339,-3.03637,-0.876776,-0.067292,-2.41676,0.260247,
2,1,0,1,0,1133.12,0.261983,0.261677,0.918053,1,0.0200955,10,0.000240233,-3.03713,-0.992155,-0.0594665,-2.12913,0.261677,
2,1,0,1,0,1133.19,0.263481,0.263191,0.917344,1,0.0201656,10,0.000241437,-3.03747,16.2197,0.00363755,0.129709,0.263191,
2,1,0,1,0,1133.27,0.264981,0.264703,0.913991,1,0.0202356,10,0.000241936,-3.03906,-2.6454,-0.0223028,-0.795403,0.264703,
2,1,0,1,0,1133.34,0.266476,0.266177,0.912129,1,0.0203054,10,0.000242788,-3.03994,-2.09892,-0.0281096,-0.999233,0.266177,
2,1,0,1,0,1133.41,0.267976,0.267666,0.904314,1,0.0203751,10,0.000242054,-3.04368,-1.42365,-0.0414428,-1.47291,0.267666,
2,1,0,1,0,1133.49,0.269474,0.269189,0.905593,1,0.0204446,10,0.000243775,-3.04307,-17.8188,-0.00331111,-0.117257,0.269189,
2,1,0,1,0,1133.56,0.270972,0.270678,0.908289,1,0.020514,10,0.000245854,-3.04178,-1.3043,-0.045235,-1.59935,0.2706776,
2,1,0,1,0,1133.64,0.27247,0.272182,0.903783,1,0.0205833,10,0.000245994,-3.04394,-1.12451,-0.0524671,-1.8493,0.272182,
2,1,0,1,0,1133.71,0.273968,0.273632,0.895395,1,0.0206524,10,0.000245008,-3.04799,-1.18367,-0.0498448,-1.75316,0.273632,
2,1,0,1,0,1133.79,0.275467,0.27515,0.900783,1,0.0207213,10,0.00024785,-3.04538,-1.41214,-0.0417806,-1.46986,0.27515,
2,1,0,1,0,1133.86,0.276965,0.276673,0.899674,1,0.0207901,10,0.000248916,-3.04591,-1.13379,-0.0520379,-1.82806,0.276673,
2,1,0,1,0,1133.94,0.278463,0.278213,0.897325,1,0.0208588,10,0.000249647,-3.04705,-0.763713,-0.0772542,-2.6975,0.278213,
2,1,0,1,0,1134.01,0.279961,0.27972,0.894949,1,0.0209274,10,0.000250335,-3.0482,-1.94575,-0.0303224,-1.05819,0.27972,
2,1,0,1,0,1134.09,0.28146,0.281164,0.893628,1,0.0209957,10,0.000251256,-3.04884,-3.07236,-0.0192035,-0.670806,0.281164,
2,1,0,1,0,1134.16,0.282956,0.282627,0.891967,1,0.0210639,10,0.000252094,-3.04965,-6.74681,-0.00874487,-0.303113,0.282627,
2,1,0,1,0,1134.24,0.284456,0.284149,0.887569,1,0.0211321,10,0.000252201,-3.0518,-1.42542,-0.0413913,-1.43609,0.284149,
2,1,0,1,0,1134.31,0.285954,0.285662,0.888477,1,0.0212002,10,0.000253804,-3.05135,-1.81903,-0.032435,-1.12092,0.285662,
2,1,0,1,0,1134.39,0.287452,0.287116,0.882934,1,0.0212679,10,0.000253504,-3.05407,-1.43025,-0.0412514,-1.42696,0.287116,
2,1,0,1,0,1134.46,0.28895,0.288631,0.883912,1,0.0213356,10,0.000255124,-3.05359,10.3196,0.00571728,0.196518,0.288631,
2,1,0,1,0,1134.54,0.290449,0.290158,0.87846,1,0.0214032,10,0.000254893,-3.05628,-1.39677,-0.0422403,-1.4523,0.290158,
2,1,0,1,0,1134.61,0.291947,0.291625,0.878643,1,0.0214707,10,0.000256234,-3.05619,-0.968937,-0.0608915,-2.09218,0.291625,
2,1,0,1,0,1134.69,0.293445,0.293135,0.873933,1,0.0215379,10,0.00025618,-3.05852,-0.876851,-0.0672862,-2.30879,0.2931346,
2,1,0,1,0,1134.76,0.294943,0.294626,0.876832,1,0.021605,10,0.000258337,-3.05708,-2.97339,-0.0198427,-0.677501,0.294626,
2,1,0,1,0,1134.84,0.296441,0.296162,0.877283,1,0.021672,10,0.000259818,-3.05686,-1.34549,-0.0438501,-1.48928,0.296162,
2,1,0,1,0,1134.91,0.29794,0.297627,0.872058,1,0.0217391,10,0.000259548,-3.05945,-0.863734,-0.0683081,-2.3169,0.297627,
2,1,0,1,0,1134.99,0.299436,0.299167,0.867964,1,0.0218057,10,0.000259666,-3.0615,-0.00130539,-45.1972,-463.242,0.299167,
2,1,0,1,0,1135.03,0.299739,0.299495,0.37981,1,0.0218372,10,0.000113751,-3.42043,0.00157828,37.3825,816.83,0.299495,
2,0,0,1,0,1135.11,0.298239,0.297959,-0.114245,1,0.0218376,10,-3.40403e-05,-3.94216,0.00568372,10.3805,287.83,0.297959,
2,0,0,1,0,1135.18,0.296741,0.296433,-0.17567,1,0.0218248,10,-5.20743e-05,-3.7553,-0.00791656,-7.45273,38.153,0.296433,
2,0,0,1,0,1135.26,0.295243,0.294929,-0.214631,1,0.0218085,10,-6.3301e-05,-3.66831,-0.0208277,-2.83277,22.3223,0.294929,
2,0,0,1,0,1135.33,0.293745,0.293412,-0.244599,1,0.0217898,10,-7.17684e-05,-3.61154,-0.0316366,-1.86493,17.2789,0.293412,
2,0,0,1,0,1135.41,0.292246,0.291904,-0.265854,1,0.0217694,10,-7.76037e-05,-3.57536,-0.042032,-1.40369,14.3363,0.291904,
2,0,0,1,0,1135.48,0.290748,0.2904,-0.28609,1,0.0217472,10,-8.30804e-05,-3.5435,-0.0494538,-1.19303,13.0728,0.2904,
2,0,0,1,0,1135.56,0.28925,0.288954,-0.301632,1,0.0217236,10,-8.7158e-05,-3.52052,-0.0676759,-0.871802,10.2974,0.288954,
2,0,0,1,0,1135.63,0.287752,0.287448,-0.319499,1,0.0216988,10,-9.18392e-05,-3.49553,-0.073507,-0.802644,9.87862,0.287448,
2,0,0,1,0,1135.7,0.286254,0.285959,-0.330447,1,0.0216729,10,-9.44942e-05,-3.4809,-0.0796534,-0.740709,9.59034,0.285959,
2,0,0,1,0,1135.78,0.284754,0.28445,-0.346985,1,0.0216459,10,-9.87001e-05,-3.45969,-0.0832981,-0.708299,9.53636,0.2844502,
2,0,0,1,0,1135.85,0.283259,0.28295,-0.361578,1,0.021618,10,-0.000102309,-3.4418,-0.093383,-0.631806,8.88365,0.28295,
2,0,0,1,0,1135.93,0.281759,0.281432,-0.368287,1,0.0215891,10,-0.000103648,-3.43381,-0.120214,-0.490792,7.0964,0.281432,
2,0,0,1,0,1136,0.280261,0.279955,-0.378125,1,0.0215593,10,-0.000105858,-3.42236,-0.11679,-0.505182,7.53062,0.279955,
2,0,0,1,0,1136.08,0.278763,0.278446,-0.392031,1,0.0215289,10,-0.00010916,-3.40668,-0.137517,-0.429038,6.58056,0.278446,
2,0,0,1,0,1136.15,0.277264,0.276947,-0.402162,1,0.0214977,10,-0.000111378,-3.3956,-0.148758,-0.396617,6.21225,0.276947,
2,0,0,1,0,1136.23,0.275766,0.275451,-0.408844,1,0.0214658,10,-0.000112617,-3.38844,-0.193163,-0.305441,4.88093,0.275451,
2,0,0,1,0,1136.3,0.274268,0.273966,-0.420178,1,0.0214332,10,-0.000115114,-3.37657,-0.184126,-0.320433,5.24983,0.273966,
2,0,0,1,0,1136.38,0.27277,0.272496,-0.427524,1,0.0214,10,-0.000116499,-3.36904,-0.159365,-0.370219,6.20827,0.2724961,
2,0,0,1,0,1136.45,0.271272,0.270973,-0.440275,1,0.0213662,10,-0.000119303,-3.35628,-0.193858,-0.304346,5.17993,0.270973,
2,0,0,1,0,1136.53,0.269774,0.269473,-0.448464,1,0.0213315,10,-0.000120849,-3.34827,-0.202731,-0.291026,5.03007,0.2694726,
2,0,0,1,0,1136.6,0.268274,0.267972,-0.452048,1,0.0212962,10,-0.000121136,-3.34482,-0.199865,-0.295199,5.21159,0.267972,
2,0,0,1,0,1136.68,0.266779,0.266433,-0.459453,1,0.0212607,10,-0.000122414,-3.33776,-0.185194,-0.318585,5.7408,0.266433,
2,0,0,1,0,1136.75,0.265279,0.264968,-0.46911,1,0.0212243,10,-0.000124299,-3.32873,-0.177168,-0.333017,6.06828,0.264968,
2,0,0,1,0,1136.83,0.263781,0.263483,-0.473514,1,0.0211875,10,-0.000124763,-3.32467,-0.239769,-0.24607,4.56549,0.263483,
2,0,0,1,0,1136.9,0.262283,0.262001,-0.479502,1,0.0211501,10,-0.00012563,-3.31921,-0.261724,-0.225428,4.23213,0.262001,
2,0,0,1,0,1136.98,0.260784,0.260519,-0.486776,1,0.0211123,10,-0.000126814,-3.31267,-0.251744,-0.234365,4.48097,0.260519,
2,0,0,1,0,1137.05,0.259286,0.259011,-0.495128,1,0.0210739,10,-0.000128243,-3.30528,-0.231104,-0.255297,4.94127,0.259011,
2,0,0,1,0,1137.13,0.257788,0.257492,-0.507404,1,0.021035,10,-0.000130653,-3.29465,-0.293605,-0.20095,3.93979,0.2574923,
2,0,0,1,0,1137.2,0.25629,0.255936,-0.512885,1,0.0209955,10,-0.000131266,-3.28998,-0.415218,-0.142094,2.81304,0.255936,
2,0,0,1,0,1137.28,0.25479,0.254494,-0.513068,1,0.0209556,10,-0.000130573,-3.28983,-0.313521,-0.188185,3.77888,0.254494,
2,0,0,1,0,1137.35,0.253294,0.252965,-0.522381,1,0.0209155,10,-0.000132144,-3.28201,-0.275527,-0.214135,4.36497,0.252965,
2,0,0,1,0,1137.43,0.251795,0.251456,-0.526785,1,0.0208746,10,-0.000132463,-3.27837,-0.305256,-0.19328,3.9797,0.251456,
2,0,0,1,0,1137.5,0.250297,0.249998,-0.529602,1,0.0208333,10,-0.000132399,-3.27605,-0.459581,-0.128378,2.66949,0.249998,
2,0,0,1,0,1137.58,0.248799,0.248495,-0.539915,1,0.0207916,10,-0.000134166,-3.26767,-0.313833,-0.187998,3.96927,0.248495,
2,0,0,1,0,1137.65,0.247301,0.246982,-0.54584,1,0.0207496,10,-0.000134813,-3.26293,-0.281215,-0.209804,4.47621,0.246982,
2,0,0,1,0,1137.73,0.245802,0.245508,-0.549869,1,0.020707,10,-0.000134997,-3.25974,-0.266348,-0.221515,4.75561,0.245508,
2,0,0,1,0,1137.8,0.244304,0.24398,-0.558558,1,0.0206637,10,-0.000136277,-3.25293,-0.292657,-0.201601,4.37495,0.2439796,
2,0,0,1,0,1137.88,0.242806,0.242518,-0.56594,1,0.0206201,10,-0.000137251,-3.24723,-0.47849,-0.123305,2.71722,0.242518,
2,0,0,1,0,1137.95,0.241308,0.241031,-0.568302,1,0.0205763,10,-0.000136978,-3.24542,-0.366529,-0.16097,3.58193,0.241031,
2,0,0,1,0,1138.03,0.23981,0.239456,-0.574438,1,0.020532,10,-0.000137552,-3.24076,-0.224523,-0.26278,5.87042,0.239456,
2,0,0,1,0,1138.1,0.23831,0.23799,-0.581191,1,0.0204871,10,-0.000138318,-3.23568,-0.293624,-0.200937,4.55791,0.23799,
2,0,0,1,0,1138.18,0.236815,0.236516,-0.58614,1,0.0204419,10,-0.000138631,-3.232,-0.355557,-0.165937,3.80747,0.236516,
2,0,0,1,0,1138.25,0.235315,0.235036,-0.584145,1,0.0203962,10,-0.000137295,-3.23348,-0.366158,-0.161133,3.72252,0.235036,
2,0,0,1,0,1138.33,0.233817,0.233473,-0.598576,1,0.0203503,10,-0.000139751,-3.22288,-0.346872,-0.170092,3.97411,0.233473,
2,0,0,1,0,1138.4,0.232319,0.231979,-0.605945,1,0.0203037,10,-0.000140566,-3.21757,-0.353209,-0.16704,3.92465,0.231979,
2,0,0,1,0,1138.48,0.230821,0.230555,-0.61026,1,0.0202567,10,-0.000140699,-3.21449,-0.408175,-0.144546,3.4254,0.230555,
2,0,0,1,0,1138.55,0.229322,0.228988,-0.612485,1,0.0202093,10,-0.000140252,-3.2129,-0.400374,-0.147362,3.54228,0.228988,
2,0,0,1,0,1138.63,0.227824,0.227512,-0.619236,1,0.0201617,10,-0.000140883,-3.20814,-0.349681,-0.168725,4.09057,0.227512,
2,0,0,1,0,1138.7,0.226326,0.226031,-0.626745,1,0.0201134,10,-0.000141664,-3.20291,-0.354283,-0.166533,4.07443,0.226031,
2,0,0,1,0,1138.78,0.224828,0.224515,-0.63377,1,0.0200648,10,-0.000142291,-3.19807,-0.398601,-0.148018,3.6507,0.224515,
2,0,0,1,0,1138.85,0.22333,0.223015,-0.640646,1,0.0200157,10,-0.000142874,-3.19338,-0.343218,-0.171903,4.28478,0.223015,
2,0,0,1,0,1138.93,0.22183,0.221546,-0.646127,1,0.0199663,10,-0.000143147,-3.18968,-0.298414,-0.197712,4.96262,0.221546,
2,0,0,1,0,1139,0.220335,0.220037,-0.651313,1,0.0199163,10,-0.000143313,-3.18621,-0.307444,-0.191905,4.85489,0.2200374,
2,0,0,1,0,1139.08,0.218835,0.218511,-0.653876,1,0.0198658,10,-0.00014288,-3.1845,-0.327635,-0.180078,4.6065,0.218511,
2,0,0,1,0,1139.15,0.217337,0.217002,-0.663463,1,0.0198149,10,-0.000143973,-3.17818,-0.557692,-0.105793,2.73862,0.217002,
2,0,0,1,0,1139.23,0.215839,0.21554,-0.665123,1,0.0197637,10,-0.000143361,-3.1771,-0.463782,-0.127215,3.31739,0.21554,
2,0,0,1,0,1139.3,0.21434,0.214048,-0.672124,1,0.0197119,10,-0.000143867,-3.17255,-0.286043,-0.206263,5.41165,0.214048,
2,0,0,1,0,1139.38,0.212842,0.212556,-0.68238,1,0.0196596,10,-0.000145044,-3.16597,-0.367168,-0.160689,4.2847,0.212556,
2,0,0,1,0,1139.45,0.211344,0.21104,-0.689029,1,0.0196068,10,-0.000145413,-3.16176,-0.408914,-0.144285,3.87185,0.21104,
2,0,0,1,0,1139.53,0.209846,0.209516,-0.687569,1,0.0195535,10,-0.000144057,-3.16268,-0.35334,-0.166978,4.51114,0.209516,
2,0,0,1,0,1139.6,0.208348,0.208054,-0.702184,1,0.0194999,10,-0.000146092,-3.15355,-0.290804,-0.202886,5.57239,0.2080543,
2,0,0,1,0,1139.68,0.20685,0.206566,-0.716394,1,0.0194455,10,-0.000147983,-3.14485,-0.273843,-0.215452,5.967,0.206566,
2,0,0,1,0,1139.75,0.20535,0.204979,-0.717299,1,0.0193903,10,-0.000147031,-3.1443,-0.39256,-0.150296,4.18964,0.204979,
2,0,0,1,0,1139.82,0.203855,0.203518,-0.720578,1,0.019335,10,-0.000146651,-3.14232,-0.342624,-0.1722,4.87116,0.203518,
2,0,0,1,0,1139.9,0.202355,0.202031,-0.728092,1,0.0192791,10,-0.000147097,-3.13781,-0.303949,-0.194111,5.54844,0.202031,
2,0,0,1,0,1139.97,0.200857,0.200493,-0.738863,1,0.0192226,10,-0.000148137,-3.13144,-0.312556,-0.188766,5.43947,0.200493,
2,0,0,1,0,1140.05,0.199359,0.199028,-0.747876,1,0.0191654,10,-0.000148848,-3.12617,-0.362757,-0.162644,4.73308,0.199028,
2,0,0,1,0,1140.12,0.19786,0.197554,-0.755639,1,0.0191077,10,-0.00014928,-3.12169,-0.307704,-0.191742,5.63925,0.197554,
2,0,0,1,0,1140.2,0.196362,0.196074,-0.765475,1,0.0190495,10,-0.000150089,-3.11607,-0.310972,-0.189728,5.63996,0.196074,
2,0,0,1,0,1140.27,0.194864,0.194559,-0.773759,1,0.0189905,10,-0.000150542,-3.11139,-0.248669,-0.237263,7.15279,0.194559,
2,0,0,1,0,1140.35,0.193366,0.193033,-0.784236,1,0.0189306,10,-0.000151384,-3.10555,-0.265619,-0.222122,6.78599,0.193033,
2,0,0,1,0,1140.42,0.191866,0.191529,-0.789426,1,0.0188701,10,-0.000151198,-3.10269,-0.286572,-0.205882,6.37256,0.191529,
2,0,0,1,0,1140.5,0.19037,0.190036,-0.801203,1,0.018809,10,-0.000152257,-3.09626,-0.231295,-0.255085,8.00217,0.190036,
2,0,0,1,0,1140.57,0.188871,0.188546,-0.811817,1,0.0187469,10,-0.000153065,-3.09054,-0.198282,-0.297556,9.45639,0.188546,
2,0,0,1,0,1140.65,0.187373,0.187045,-0.824583,1,0.0186839,10,-0.000154234,-3.08377,-0.245323,-0.240499,7.75008,0.187045,
2,0,0,1,0,1140.72,0.185875,0.185567,-0.8372,1,0.0186201,10,-0.000155357,-3.07717,-0.23563,-0.250393,8.16983,0.185567,
2,0,0,1,0,1140.8,0.184377,0.184076,-0.844752,1,0.0185553,10,-0.000155499,-3.07327,-0.224134,-0.263235,8.74142,0.184076,
2,0,0,1,0,1140.87,0.182878,0.182618,-0.867194,1,0.0184896,10,-0.000158365,-3.06188,-0.194984,-0.302588,10.2197,0.182618,
2,0,0,1,0,1140.95,0.18138,0.181061,-0.881733,1,0.0184228,10,-0.000159647,-3.05466,-0.200234,-0.294656,10.1315,0.181061,
2,0,0,1,0,1141.02,0.179882,0.179566,-0.896121,1,0.0183547,10,-0.000160913,-3.04763,-0.244034,-0.24177,8.44025,0.179566,
2,0,0,1,0,1141.1,0.178384,0.178071,-0.913122,1,0.0182855,10,-0.0001626,-3.03947,-0.19858,-0.297109,10.6071,0.178071,
2,0,0,1,0,1141.17,0.176886,0.176579,-0.930889,1,0.0182152,10,-0.000164375,-3.0311,-0.170572,-0.345894,12.5988,0.176579,
2,0,0,1,0,1141.25,0.175386,0.17509,-0.951332,1,0.0181432,10,-0.000166569,-3.02167,-0.154755,-0.381247,14.1163,0.17509,
2,0,0,1,0,1141.32,0.173891,0.173593,-0.973506,1,0.0180698,10,-0.000168993,-3.01166,-0.134829,-0.437593,16.6032,0.173593,
2,0,0,1,0,1141.4,0.172391,0.172085,-0.991769,1,0.0179945,10,-0.000170668,-3.00359,-0.136851,-0.431125,16.7603,0.172085,
2,0,0,1,0,1141.47,0.170893,0.170586,-1.01731,1,0.0179177,10,-0.000173538,-2.99255,-0.134386,-0.439033,17.5153,0.170586,
2,0,0,1,0,1141.55,0.169395,0.169059,-1.05024,1,0.0178388,10,-0.000177553,-2.97871,-0.116069,-0.508318,20.8031,0.169059,
2,0,0,1,0,1141.62,0.167897,0.16756,-1.08089,1,0.0177575,10,-0.000181114,-2.96622,-0.114481,-0.515371,21.7105,0.16756,
2,0,0,1,0,1141.7,0.166398,0.166034,-1.11194,1,0.0176739,10,-0.00018462,-2.95392,-0.118318,-0.498656,21.6602,0.166034,
2,0,0,1,0,1141.77,0.1649,0.164587,-1.14451,1,0.0175878,10,-0.000188371,-2.94138,-0.107762,-0.547501,24.5986,0.164587,
2,0,0,1,0,1141.85,0.163402,0.163076,-1.18673,1,0.0174991,10,-0.000193527,-2.92565,-0.0997396,-0.591541,27.4226,0.163076,
2,0,0,1,0,1141.92,0.161904,0.161556,-1.23543,1,0.0174069,10,-0.000199592,-2.90818,-0.0936703,-0.629869,30.2901,0.161556,
2,0,0,1,0,1142,0.160406,0.160067,-1.28027,1,0.0173113,10,-0.000204929,-2.8927,-0.0885781,-0.666079,33.3026,0.160067,
2,0,0,1,0,1142.07,0.158906,0.158557,-1.3311,1,0.0172119,10,-0.000211055,-2.87579,-0.0833271,-0.708053,36.9494,0.158557,
2,0,0,1,0,1142.15,0.157411,0.15708,-1.3896,1,0.0171086,10,-0.000218278,-2.85711,-0.0756149,-0.780269,42.5325,0.15708,
2,0,0,1,0,1142.22,0.155911,0.155572,-1.45314,1,0.0170004,10,-0.000226069,-2.83769,-0.076262,-0.773649,44.0612,0.155572,
2,0,0,1,0,1142.3,0.154413,0.154067,-1.52708,1,0.016887,10,-0.000235272,-2.81614,-0.0726965,-0.811593,48.4133,0.154067,
2,0,0,1,0,1142.37,0.152915,0.152562,-1.60382,1,0.0167683,10,-0.000244681,-2.79484,-0.0706337,-0.835295,52.346,0.152562,
2,0,0,1,0,1142.45,0.151417,0.151104,-1.6817,1,0.016644,10,-0.000254112,-2.77425,-0.0688064,-0.857478,56.404,0.151104,
2,0,0,1,0,1142.52,0.149918,0.149579,-1.77252,1,0.016513,10,-0.000265132,-2.75141,-0.0667146,-0.884364,61.0823,0.149579,
2,0,0,1,0,1142.6,0.14842,0.148102,-1.86604,1,0.0163753,10,-0.000276364,-2.72908,-0.0692637,-0.851817,61.9668,0.148102,
2,0,0,1,0,1142.67,0.146922,0.146588,-1.96429,1,0.0162305,10,-0.000287941,-2.70679,-0.0701743,-0.840764,64.2205,0.146588,
2,0,0,1,0,1142.75,0.145424,0.145093,-2.05367,1,0.0160786,10,-0.000297973,-2.68747,-0.0705723,-0.836022,67.1267,0.145093,
2,0,0,1,0,1142.82,0.143926,0.143595,-2.15848,1,0.0159193,10,-0.000309947,-2.66585,-0.0723053,-0.815984,68.6452,0.143595,
2,0,0,1,0,1142.9,0.142426,0.142096,-2.26021,1,0.015752,10,-0.000321168,-2.64585,-0.0776232,-0.760082,66.8649,0.142096,
2,0,0,1,0,1142.97,0.140931,0.140618,-2.35295,1,0.0155777,10,-0.000330868,-2.62839,-0.0869649,-0.678434,62.2203,0.140618,
2,0,0,1,0,1143.05,0.139431,0.139125,-2.44114,1,0.015396,10,-0.000339623,-2.61241,-0.0955418,-0.617531,58.8219,0.139125,
2,0,0,1,0,1143.12,0.137933,0.13761,-2.53516,1,0.015208,10,-0.000348864,-2.59599,-0.108338,-0.544594,53.6924,0.13761,
2,0,0,1,0,1143.2,0.136435,0.13611,-2.61556,1,0.0150135,10,-0.000356003,-2.58244,-0.112882,-0.522669,53.1557,0.13611,
2,0,0,1,0,1143.27,0.134936,0.134617,-2.69016,1,0.0148133,10,-0.00036214,-2.57022,-0.138377,-0.426372,44.5891,0.134617,
2,0,0,1,0,1143.35,0.133438,0.133149,-2.75161,1,0.0146077,10,-0.000366374,-2.56041,-0.15541,-0.379642,40.6729,0.133149,
2,0,0,1,0,1143.42,0.13194,0.131649,-2.81145,1,0.0143978,10,-0.000370126,-2.55107,-0.183319,-0.321843,35.2726,0.131649,
2,0,0,1,0,1143.5,0.130442,0.130098,-2.86399,1,0.0141838,10,-0.000372599,-2.54303,-0.220468,-0.267612,29.8157,0.130098,
2,0,0,1,0,1143.57,0.128942,0.128628,-2.90508,1,0.0139659,10,-0.000373675,-2.53684,-0.303647,-0.194305,21.9129,0.128628,
2,0,0,1,0,1143.65,0.127446,0.127098,-2.93124,1,0.0137462,10,-0.000372555,-2.53295,-0.405746,-0.145411,16.5836,0.1270982,
2,0,0,1,0,1143.72,0.125947,0.125623,-2.94894,1,0.0135244,10,-0.000370455,-2.53033,-0.625251,-0.0943621,10.8355,0.125623,
2,0,0,1,0,1143.8,0.124449,0.124168,-2.9642,1,0.0133015,10,-0.000368058,-2.52809,-0.823744,-0.0716242,8.25832,0.124168,
2,0,0,1,0,1143.87,0.122951,0.122679,-2.97007,1,0.0130778,10,-0.000364365,-2.52723,-2.96815,-0.0198777,2.29808,0.1226789,
2,0,0,1,0,1143.95,0.121453,0.121107,-2.96819,1,0.0128538,10,-0.00035947,-2.52751,1.47612,0.0399698,-4.61749,0.121107,
2,0,0,1,0,1144.02,0.119955,0.119607,-2.95058,1,0.0126305,10,-0.000352909,-2.53009,0.830528,0.0710391,-8.18532,0.119607,
2,0,0,1,0,1144.09,0.118456,0.118146,-2.9431,1,0.0124082,10,-0.000347716,-2.5312,0.761941,0.0774339,-8.88567,0.118146,
2,0,0,1,0,1144.17,0.116958,0.116639,-2.93224,1,0.0121867,10,-0.000342014,-2.5328,0.516502,0.11423,-13.0185,0.116639,
2,0,0,1,0,1144.24,0.11546,0.115147,-2.90144,1,0.0119666,10,-0.000334092,-2.53739,0.334638,0.17631,-19.9406,0.115147,
2,0,0,1,0,1144.32,0.113962,0.113665,-2.87043,1,0.0117488,10,-0.000326268,-2.54205,0.332469,0.17746,-19.897,0.113665,
2,0,0,1,0,1144.39,0.112462,0.112155,-2.84407,1,0.0115332,10,-0.000318978,-2.54606,0.292243,0.201887,-22.3828,0.112155,
2,0,0,1,0,1144.47,0.110967,0.110658,-2.80773,1,0.0113204,10,-0.000310697,-2.55164,0.286489,0.205941,-22.5432,0.110658,
2,0,0,1,0,1144.54,0.109467,0.109162,-2.77004,1,0.0111097,10,-0.000302381,-2.55751,0.231612,0.254737,-27.4798,0.109162,
2,0,0,1,0,1144.62,0.107969,0.107661,-2.72745,1,0.0109022,10,-0.00029364,-2.56424,0.22659,0.260382,-27.7292,0.1076611,
2,0,0,1,0,1144.69,0.106471,0.106138,-2.68753,1,0.0106981,10,-0.000285248,-2.57065,0.225115,0.262088,-27.5032,0.106138,
2,0,0,1,0,1144.77,0.104973,0.104643,-2.6466,1,0.0104969,10,-0.000276948,-2.57731,0.223371,0.264134,-27.2608,0.104643,
2,0,0,1,0,1144.84,0.103474,0.103151,-2.60749,1,0.0102984,10,-0.000268964,-2.58378,0.211857,0.27849,-28.2855,0.103151,
2,0,0,1,0,1144.92,0.101976,0.101634,-2.56352,1,0.0101034,10,-0.000260541,-2.59116,0.190977,0.308937,-30.8991,0.101634,
2,0,0,1,0,1144.99,0.100478,0.100186,-2.51629,1,0.00991189,10,-0.000252097,-2.59924,0.211716,0.278675,-27.411,0.100186,
2,0,0,1,0,1145.07,0.0989799,0.0986412,-2.47867,1,0.00972346,10,-0.000244499,-2.60578,0.217795,0.270897,-26.1838,0.0986412,
2,0,0,1,0,1145.14,0.0974817,0.0972194,-2.43882,1,0.00953791,10,-0.000237101,-2.61282,0.227398,0.259457,-24.6866,0.0972194,
2,0,0,1,0,1145.22,0.0959821,0.0956846,-2.399,1,0.009355,10,-0.000229547,-2.61997,0.224425,0.262894,-24.6323,0.0956846,
2,0,0,1,0,1145.29,0.0944866,0.094186,-2.35907,1,0.00917555,10,-0.000222192,-2.62726,0.247647,0.238242,-22.0054,0.094186,
2,0,0,1,0,1145.37,0.0929871,0.0926786,-2.32888,1,0.00899828,10,-0.000215837,-2.63285,0.261965,0.225221,-20.4902,0.0926786,
2,0,0,1,0,1145.44,0.0914889,0.0911296,-2.30538,1,0.00882325,10,-0.000210088,-2.63726,0.269311,0.219078,-19.6617,0.0911296,
2,0,0,1,0,1145.52,0.0899907,0.0896588,-2.27367,1,0.00865038,10,-0.000203854,-2.64327,0.258406,0.228322,-20.226,0.08965876,
2,0,0,1,0,1145.59,0.0884925,0.0882141,-2.24058,1,0.00847979,10,-0.000197651,-2.64964,0.291351,0.202505,-17.75,0.0882141,
2,0,0,1,0,1145.67,0.0869943,0.0866501,-2.21854,1,0.00831139,10,-0.000192237,-2.65393,0.300611,0.196267,-17.0176,0.0866501,
2,0,0,1,0,1145.74,0.0854961,0.0851468,-2.19833,1,0.00814449,10,-0.000187181,-2.65791,0.342303,0.172362,-14.7778,0.0851468,
2,0,0,1,0,1145.82,0.083998,0.0837225,-2.17515,1,0.00797921,10,-0.000182109,-2.66251,0.335702,0.175751,-14.9311,0.0837225,
2,0,0,1,0,1145.89,0.0824998,0.0821926,-2.15708,1,0.00781551,10,-0.000177296,-2.66613,0.377828,0.156156,-13.1401,0.0821926,
2,0,0,1,0,1145.97,0.081002,0.0806844,-2.13347,1,0.0076535,10,-0.000172137,-2.67091,0.434405,0.135818,-11.3414,0.0806844,
2,0,0,1,0,1146.04,0.0795025,0.0791636,-2.11896,1,0.00749251,10,-0.000167744,-2.67388,0.466945,0.126353,-10.4415,0.0791636,
2,0,0,1,0,1146.12,0.078007,0.0776977,-2.10601,1,0.00733301,10,-0.000163632,-2.67654,0.435596,0.135447,-11.1061,0.0776977,
2,0,0,1,0,1146.19,0.076507,0.076176,-2.08819,1,0.00717443,10,-0.00015907,-2.68023,0.413795,0.142583,-11.6056,0.076176,
2,0,0,1,0,1146.27,0.0750088,0.0747013,-2.06384,1,0.00701753,10,-0.000154171,-2.68532,0.399584,0.147654,-11.9315,0.0747013,
2,0,0,1,0,1146.34,0.0735106,0.0731938,-2.05198,1,0.00686181,10,-0.000150192,-2.68783,0.498372,0.118385,-9.47835,0.0731938,
2,0,0,1,0,1146.42,0.0720124,0.0716954,-2.03856,1,0.00670712,10,-0.000146155,-2.69068,0.448417,0.131574,-10.4512,0.07169535,
2,0,0,1,0,1146.49,0.0705142,0.0702223,-2.021,1,0.00655364,10,-0.000141919,-2.69443,0.375512,0.157119,-12.3813,0.0702223,
2,0,0,1,0,1146.57,0.0690161,0.0687101,-1.99688,1,0.00640157,10,-0.000137206,-2.69965,0.407261,0.14487,-11.336,0.0687101,
2,0,0,1,0,1146.64,0.0675179,0.0672206,-1.98694,1,0.00625074,10,-0.000133563,-2.70182,0.449182,0.13135,-10.1876,0.0672206,
2,0,0,1,0,1146.72,0.0660179,0.06569,-1.97839,1,0.00610076,10,-0.00012996,-2.70369,0.413262,0.142766,-10.9794,0.06569,
2,0,0,1,0,1146.79,0.0645224,0.0642372,-1.95659,1,0.00595228,10,-0.000125686,-2.7085,0.351544,0.167831,-12.7792,0.0642372,
2,0,0,1,0,1146.87,0.0630229,0.0627189,-1.93092,1,0.00580494,10,-0.000121105,-2.71423,0.337986,0.174563,-13.1918,0.0627189,
2,0,0,1,0,1146.94,0.0615251,0.0612165,-1.91415,1,0.00565938,10,-0.000117177,-2.71802,0.37158,0.158781,-11.879,0.0612165,
2,0,0,1,0,1147.02,0.0600269,0.0597029,-1.89636,1,0.00551506,10,-0.000113218,-2.72208,0.362788,0.16263,-12.056,0.0597029,
2,0,0,1,0,1147.09,0.0585287,0.0582236,-1.87999,1,0.00537207,10,-0.00010946,-2.72584,0.305777,0.192951,-14.1283,0.0582236,
2,0,0,1,0,1147.17,0.0570305,0.0567127,-1.85953,1,0.00523053,10,-0.000105459,-2.7306,0.300688,0.196217,-14.2239,0.0567127,
2,0,0,1,0,1147.24,0.0555323,0.0552205,-1.83626,1,0.00509084,10,-0.000101399,-2.73607,0.29143,0.20245,-14.5242,0.0552205,
2,0,0,1,0,1147.32,0.0540342,0.0537302,-1.8192,1,0.00495255,10,-9.77459e-05,-2.74012,0.312805,0.188616,-13.3614,0.0537302,
2,0,0,1,0,1147.39,0.052536,0.0522132,-1.801,1,0.00481562,10,-9.40361e-05,-2.74449,0.253524,0.23272,-16.2782,0.0522132,
2,0,0,1,0,1147.47,0.0510378,0.0507546,-1.7764,1,0.00468041,10,-9.01604e-05,-2.75046,0.255805,0.230645,-15.9542,0.0507546,
2,0,0,1,0,1147.54,0.0495382,0.0492561,-1.74731,1,0.004547,10,-8.60657e-05,-2.75763,0.293634,0.200931,-13.7223,0.0492561,
2,0,0,1,0,1147.62,0.0480427,0.0477181,-1.72764,1,0.00441554,10,-8.24399e-05,-2.76255,0.321929,0.18327,-12.352,0.0477181,
2,0,0,1,0,1147.69,0.0465432,0.0462498,-1.70535,1,0.00428528,10,-7.88721e-05,-2.76819,0.280427,0.210393,-14.0195,0.0462498,
2,0,0,1,0,1147.77,0.045045,0.0447272,-1.68148,1,0.00415689,10,-7.52082e-05,-2.77431,0.249368,0.236598,-15.5247,0.0447272,
2,0,0,1,0,1147.84,0.0435468,0.0432795,-1.65436,1,0.00403016,10,-7.15996e-05,-2.78137,0.260422,0.226555,-14.6718,0.0432795,
2,0,0,1,0,1147.92,0.0420486,0.0417663,-1.63911,1,0.00390519,10,-6.84598e-05,-2.78539,0.285513,0.206645,-13.2514,0.0417663,
2,0,0,1,0,1147.99,0.0405504,0.040235,-1.62535,1,0.00378164,10,-6.53958e-05,-2.78905,0.27757,0.212559,-13.4324,0.040235,
2,0,0,1,0,1148.07,0.0390523,0.0387158,-1.60156,1,0.00365933,10,-6.20058e-05,-2.79546,0.257663,0.228982,-14.2664,0.0387158,
2,0,0,1,0,1148.14,0.0375541,0.0372098,-1.57907,1,0.00353868,10,-5.87567e-05,-2.8016,0.266378,0.22149,-13.6772,0.0372098,
2,0,0,1,0,1148.21,0.0360559,0.0357627,-1.56294,1,0.0034197,10,-5.58951e-05,-2.80606,0.314127,0.187822,-11.4787,0.0357627,
2,0,0,1,0,1148.29,0.0345577,0.0342279,-1.54723,1,0.00330184,10,-5.29584e-05,-2.81045,0.349428,0.168847,-10.2019,0.0342279,
2,0,0,1,0,1148.36,0.0330582,0.0327219,-1.5302,1,0.00318487,10,-5.00711e-05,-2.81525,0.326504,0.180702,-10.7846,0.0327219,
2,0,0,1,0,1148.44,0.0315626,0.0312241,-1.51796,1,0.00306929,10,-4.7397e-05,-2.81874,0.380957,0.154873,-9.1699,0.0312241,
2,0,0,1,0,1148.51,0.0300631,0.0297565,-1.5018,1,0.00295476,10,-4.46884e-05,-2.82339,0.42665,0.138287,-8.12666,0.0297565,
2,0,0,1,0,1148.59,0.0285649,0.0282994,-1.49008,1,0.00284119,10,-4.21683e-05,-2.82679,0.506648,0.116452,-6.76344,0.0282994,
2,0,0,1,0,1148.66,0.0270667,0.0267606,-1.48121,1,0.00272832,10,-3.96381e-05,-2.82938,0.510061,0.115672,-6.68133,0.0267606,
2,0,0,1,0,1148.74,0.0255685,0.0253217,-1.46832,1,0.00261631,10,-3.71804e-05,-2.83318,0.419707,0.140574,-8.06885,0.0253217,
2,0,0,1,0,1148.81,0.0240704,0.0238063,-1.46056,1,0.00250519,10,-3.47707e-05,-2.83548,0.55116,0.107047,-6.11897,0.0238063,
2,0,0,1,0,1148.89,0.0225722,0.0222786,-1.45221,1,0.00239471,10,-3.23532e-05,-2.83797,1.09574,0.0538447,-3.05293,0.0222786,
2,0,0,1,0,1148.96,0.021074,0.020727,-1.44547,1,0.00228463,10,-2.99603e-05,-2.83999,0.843495,0.0699471,-3.94574,0.020727,
2,0,0,1,0,1149.04,0.0195758,0.0192394,-1.43892,1,0.002175,10,-2.7684e-05,-2.84196,0.769997,0.0766236,-4.30685,0.0192394,
2,0,0,1,0,1149.11,0.018078,0.0177509,-1.4306,1,0.00206595,10,-2.53945e-05,-2.84448,1.32303,0.0445946,-2.50145,0.0177509,
2,0,0,1,0,1149.19,0.0165785,0.0162838,-1.43292,1,0.00195713,10,-2.33333e-05,-2.84378,3.05907,0.0192869,-1.07803,0.0162838,
2,0,0,1,0,1149.26,0.015083,0.0147834,-1.42873,1,0.00184862,10,-2.11215e-05,-2.84505,2.53019,0.0233184,-1.29933,0.0147834,
2,0,0,1,0,1149.34,0.013583,0.0132593,-1.42332,1,0.00173993,10,-1.88722e-05,-2.8467,1.12175,0.0525964,-2.92685,0.0132593,
2,0,0,1,0,1149.41,0.0120848,0.0118183,-1.42285,1,0.00163167,10,-1.68156e-05,-2.84684,3.91206,0.0150816,-0.839628,0.0118183,
2,0,0,1,0,1149.49,0.0105866,0.0102597,-1.41966,1,0.00152371,10,-1.45653e-05,-2.84782,-81.9034,-0.000720361,0.0401085,0.0102597,
2,0,0,1,0,1149.56,0.00908846,0.00876531,-1.42404,1,0.00141556,10,-1.24821e-05,-2.84648,-8.50501,-0.00693708,0.38538,0.00876531,
2,0,0,1,0,1149.64,0.00759027,0.00724612,-1.42625,1,0.00130723,10,-1.03348e-05,-2.8458,-4.5999,-0.0128264,0.712906,0.00724612,
2,0,0,1,0,1149.71,0.00609208,0.00578329,-1.43228,1,0.00119889,10,-8.28327e-06,-2.84397,-8.8638,-0.00665629,0.370368,0.00578329,
2,0,0,1,0,1149.79,0.00459389,0.00428486,-1.42856,1,0.00109059,10,-6.12117e-06,-2.8451,-3.23515,-0.0182372,1.01804,0.00428486,
2,0,0,1,0,1149.86,0.00309391,0.00279724,-1.43407,1,0.000981799,10,-4.01143e-06,-2.84343,-0.492827,-0.119717,6.72173,0.00279724,
2,0,0,1,0,1149.94,0.0015984,0.00122194,-1.46046,1,0.000871607,10,-1.7846e-06,-2.83551, , , ,0.00122194,
2,0,0,1,0,1150.01,0.000199195,-0.000222498,-1.44219,1,0.000768773,10,3.20885e-07,-2.84098, , , ,-0.000222498,