File: Figure_codes/Fig_3-5/rawdata_trumpetplot_data/after 10th/20221101_1-115_003_TrumpetPlot_ParaChange_from10_every3_09_CV_C01_14.csv
mode,ox/red,error,control changes,counter inc.,time/s,control/V,Ewe/V,<I>/mA,cycle number,(Q-Qo)/C,I Range,P/W,log(|I|),Tafel slope mV/dec,alpha_eff,dI/d(E-IR),E-IR/V,
2,0,0,0,0,28764.3,2.44065e-05,-0.000306236,-5.32058,15,0.0000000E+000,10,1.62935e-06,-2.27404, , , ,-0.000306236,
2,0,0,1,0,28764.4,0.00179726,0.00139793,-3.00096,15,-7.05211e-05,10,-4.19514e-06,-2.52274, , , ,0.00139793,
2,0,0,1,0,28764.4,0.00379485,0.00348716,-1.38074,15,-0.000112682,10,-4.81487e-06,-2.85989,-0.00389715,-15.1393,666.495,0.00348716,
2,0,0,1,0,28764.4,0.00579244,0.00550212,-0.265544,15,-0.000128221,10,-1.46105e-06,-3.57586,-0.0100431,-5.87465,494.833,0.00550212,
2,1,0,1,0,28764.4,0.00779002,0.00741209,0.561443,15,-0.000124652,10,4.16147e-06,-3.25069,0.00607552,9.71111,368.124,0.00741209,
2,1,0,1,0,28764.4,0.00978761,0.00947601,1.19734,15,-0.000106632,10,1.13461e-05,-2.92178,0.00844974,6.98247,279.19,0.00947601,
2,1,0,1,0,28764.5,0.0117852,0.0114585,1.69116,15,-7.73149e-05,10,1.93781e-05,-2.77182,0.0164248,3.59212,224.699,0.0114585,
2,1,0,1,0,28764.5,0.0137828,0.0134527,2.0909,15,-3.91774e-05,10,2.81282e-05,-2.67967,0.0253922,2.32355,184.772,0.0134527,
2,1,0,1,0,28764.5,0.0157804,0.0154486,2.42842,15,6.34202e-06,10,3.75157e-05,-2.61468,0.0354336,1.66509,154.972,0.0154486,
2,1,0,1,0,28764.5,0.017778,0.0174155,2.70502,15,5.77575e-05,10,4.71093e-05,-2.56783,0.0479923,1.22936,128.432,0.0174155,
2,1,0,1,0,28764.5,0.0197755,0.0194454,2.94174,15,0.00011448,10,5.72032e-05,-2.5314,0.0613565,0.961593,109.623,0.0194454,
2,1,0,1,0,28764.6,0.0217731,0.0214599,3.14838,15,0.000175571,10,6.75642e-05,-2.50191,0.0740538,0.796718,97.4207,0.0214599,
2,1,0,1,0,28764.6,0.0237707,0.0234587,3.33272,15,0.000240598,10,7.81813e-05,-2.4772,0.0863018,0.683648,88.6408,0.0234587,
2,1,0,1,0,28764.6,0.0257683,0.0254547,3.50248,15,0.000308857,10,8.91547e-05,-2.45562,0.0976816,0.604003,82.3556,0.0254547,
2,1,0,1,0,28764.6,0.0277659,0.0274311,3.65987,15,0.000380697,10,0.000100394,-2.43653,0.113013,0.522063,74.3532,0.0274311,
2,1,0,1,0,28764.6,0.0297635,0.0294591,3.80023,15,0.00045555,10,0.000111951,-2.42019,0.127367,0.46323,68.6096,0.0294591,
2,1,0,1,0,28764.7,0.0317611,0.0314217,3.93366,15,0.00053312,10,0.000123602,-2.4052,0.13309,0.44331,68.0603,0.0314217,
2,1,0,1,0,28764.7,0.0337587,0.0334327,4.07067,15,0.000612929,10,0.000136093,-2.39033,0.145022,0.406835,64.4864,0.0334327,
2,1,0,1,0,28764.7,0.0357562,0.035429,4.19207,15,0.000695769,10,0.000148521,-2.37757,0.161505,0.365315,59.7267,0.035429,
2,1,0,1,0,28764.7,0.0377538,0.0374423,4.31015,15,0.00078099,10,0.000161382,-2.36551,0.169058,0.348992,58.6929,0.0374423,
2,1,0,1,0,28764.7,0.0397514,0.0394605,4.4287,15,0.000868561,10,0.000174759,-2.35372,0.166107,0.355192,61.4362,0.0394605,
2,1,0,1,0,28764.8,0.041749,0.0414455,4.55609,15,0.000958068,10,0.00018883,-2.34141,0.17819,0.331108,58.7227,0.0414455,
2,1,0,1,0,28764.8,0.0437466,0.0434341,4.66203,15,0.00105041,10,0.000202491,-2.33142,0.201887,0.292242,53.1711,0.0434341,
2,1,0,1,0,28764.8,0.0457442,0.0454586,4.76947,15,0.00114487,10,0.000216814,-2.32153,0.201081,0.293414,54.6255,0.0454586,
2,1,0,1,0,28764.8,0.0477418,0.0474307,4.88035,15,0.00124154,10,0.000231479,-2.31155,0.198152,0.297751,56.7257,0.0474307,
2,1,0,1,0,28764.8,0.0497484,0.0494431,4.9955,15,0.00134041,10,0.000246993,-2.30142,0.211376,0.279123,54.3262,0.0494431,
2,1,0,1,0,28764.9,0.0517369,0.0513901,5.09545,15,0.00144094,10,0.000261856,-2.29282,0.22644,0.260555,51.8483,0.0513901,
2,1,0,1,0,28764.9,0.0537345,0.0534569,5.2036,15,0.00154405,10,0.000278169,-2.2837,0.232668,0.25358,51.454,0.0534569,
2,1,0,1,0,28764.9,0.0557321,0.0554516,5.30443,15,0.00164929,10,0.000294139,-2.27536,0.24172,0.244084,50.5152,0.05545155,
2,1,0,1,0,28764.9,0.0577206,0.057416,5.4036,15,0.00175595,10,0.000310253,-2.26732,0.247055,0.238813,50.3697,0.057416,
2,1,0,1,0,28764.9,0.0597273,0.0594457,5.50561,15,0.00186527,10,0.000327285,-2.25919,0.256367,0.230139,49.4218,0.0594457,
2,1,0,1,0,28765,0.0617249,0.0614447,5.6027,15,0.0019765,10,0.000344256,-2.2516,0.272328,0.21665,47.3423,0.0614447,
2,1,0,1,0,28765,0.0637225,0.063422,5.69386,15,0.00208962,10,0.000361116,-2.24459,0.281401,0.209665,46.6027,0.063422,
2,1,0,1,0,28765,0.06572,0.0654426,5.78902,15,0.0022046,10,0.000378849,-2.2374,0.267702,0.220394,49.8277,0.0654426,
2,1,0,1,0,28765,0.0677176,0.0674263,5.89339,15,0.00232109,10,0.00039737,-2.22964,0.294546,0.200309,45.9593,0.0674263,
2,1,0,1,0,28765,0.0697152,0.0693828,5.97011,15,0.0024399,10,0.000414223,-2.22402,0.324832,0.181632,42.3663,0.0693828,
2,1,0,1,0,28765.1,0.0717128,0.0713799,6.06089,15,0.0025604,10,0.000432625,-2.21746,0.310316,0.190129,44.9662,0.0713799,
2,1,0,1,0,28765.1,0.0737104,0.0734023,6.15085,15,0.00268269,10,0.000451487,-2.21106,0.324148,0.182016,43.6704,0.0734023,
2,1,0,1,0,28765.1,0.075708,0.0753758,6.23539,15,0.00280612,10,0.000469998,-2.20514,0.348951,0.169078,41.1229,0.07537584,
2,1,0,1,0,28765.1,0.0777056,0.07737,6.31401,15,0.00293175,10,0.000488515,-2.19969,0.365528,0.16141,39.7818,0.07737,
2,1,0,1,0,28765.1,0.0797031,0.0794072,6.39576,15,0.00305898,10,0.00050787,-2.19411,0.382337,0.154314,38.4882,0.0794072,
2,1,0,1,0,28765.2,0.0817007,0.0813784,6.46829,15,0.00318775,10,0.000526379,-2.18921,0.410669,0.143668,36.2642,0.0813784,
2,1,0,1,0,28765.2,0.0836983,0.0833925,6.54029,15,0.00331735,10,0.000545411,-2.1844,0.414194,0.142445,36.3632,0.0833925,
2,1,0,1,0,28765.2,0.0856959,0.0853975,6.61443,15,0.00344906,10,0.000564856,-2.17951,0.423274,0.139389,35.968,0.0853975,
2,1,0,1,0,28765.2,0.0876935,0.0873855,6.68391,15,0.00358218,10,0.000584076,-2.17497,0.464234,0.127091,33.1326,0.0873855,
2,1,0,1,0,28765.2,0.0896911,0.089368,6.74599,15,0.00371663,10,0.000602876,-2.17095,0.448218,0.131632,34.6885,0.089368,
2,1,0,1,0,28765.3,0.0916887,0.0913489,6.82139,15,0.00385181,10,0.000623127,-2.16613,0.426752,0.138254,36.7937,0.0913489,
2,1,0,1,0,28765.3,0.0936862,0.0933617,6.89293,15,0.00398919,10,0.000643536,-2.1616,0.455277,0.129591,34.8546,0.0933617,
2,1,0,1,0,28765.3,0.0956838,0.0953911,6.96228,15,0.00412792,10,0.000664139,-2.15725,0.433001,0.136258,37.0526,0.0953911,
2,1,0,1,0,28765.3,0.0976814,0.0974148,7.04311,15,0.00426812,10,0.000686103,-2.15224,0.369967,0.159474,43.8767,0.0974148,
2,1,0,1,0,28765.3,0.099679,0.0994009,7.13822,15,0.00440929,10,0.000709546,-2.14641,0.358442,0.164601,45.8198,0.09940093,
2,1,0,1,0,28765.4,0.101677,0.101343,7.22311,15,0.00455307,10,0.000732013,-2.14128,0.352953,0.167161,47.1726,0.101343,
2,1,0,1,0,28765.4,0.103674,0.103346,7.32433,15,0.00469874,10,0.000756941,-2.13523,0.297909,0.198047,56.6986,0.103346,
2,1,0,1,0,28765.4,0.105672,0.105335,7.44941,15,0.00484668,10,0.000784681,-2.12788,0.274646,0.214822,62.4481,0.105335,
2,1,0,1,0,28765.4,0.107667,0.10735,7.57437,15,0.00499626,10,0.000813109,-2.12065,0.272294,0.216678,64.0791,0.10735,
2,1,0,1,0,28765.4,0.109667,0.109362,7.70749,15,0.00514918,10,0.000842908,-2.11309,0.268276,0.219923,66.1415,0.109362,
2,1,0,1,0,28765.5,0.111665,0.111359,7.83954,15,0.0053048,10,0.000873006,-2.10571,0.25664,0.229894,70.3914,0.111359,
2,1,0,1,0,28765.5,0.113662,0.113311,7.98543,15,0.00546323,10,0.000904834,-2.0977,0.247272,0.238603,74.3431,0.113311,
2,1,0,1,0,28765.5,0.11566,0.115259,8.12947,15,0.00562443,10,0.000936996,-2.08994,0.243339,0.24246,77.006,0.115259,
2,1,0,1,0,28765.5,0.117657,0.117299,8.2926,15,0.00578806,10,0.000972717,-2.08131,0.247443,0.238438,77.0923,0.117299,
2,1,0,1,0,28765.5,0.119655,0.119309,8.44168,15,0.00595562,10,0.00100717,-2.07357,0.272035,0.216883,71.4076,0.119309,
2,1,0,1,0,28765.6,0.121652,0.121349,8.58176,15,0.006126,10,0.00104139,-2.06642,0.29625,0.199156,66.6563,0.121349,
2,1,0,1,0,28765.6,0.12365,0.12336,8.71168,15,0.00629915,10,0.00107467,-2.0599,0.295506,0.199657,67.9162,0.12336,
2,1,0,1,0,28765.6,0.125648,0.125327,8.85193,15,0.00647423,10,0.00110939,-2.05296,0.313275,0.188333,64.9738,0.125327,
2,1,0,1,0,28765.6,0.127645,0.127326,8.96938,15,0.00665264,10,0.00114203,-2.04724,0.351498,0.167853,58.7513,0.127326,
2,1,0,1,0,28765.6,0.129643,0.129316,9.08628,15,0.00683338,10,0.001175,-2.04161,0.374104,0.15771,55.897,0.129316,
2,1,0,1,0,28765.7,0.13164,0.13136,9.19489,15,0.00701634,10,0.00120784,-2.03645,0.422126,0.139769,50.1111,0.13136,
2,1,0,1,0,28765.7,0.133638,0.133339,9.28789,15,0.00720049,10,0.00123844,-2.03208,0.468883,0.125831,45.5941,0.133339,
2,1,0,1,0,28765.7,0.135636,0.135302,9.37463,15,0.00738729,10,0.00126841,-2.02805,0.505085,0.116812,42.7299,0.1353025,
2,1,0,1,0,28765.7,0.137633,0.137337,9.45874,15,0.0075758,10,0.00129904,-2.02417,0.573199,0.102931,37.9644,0.137337,
2,1,0,1,0,28765.7,0.139631,0.139323,9.52728,15,0.00776586,10,0.00132737,-2.02103,0.598871,0.0985187,36.647,0.139323,
2,1,0,1,0,28765.8,0.141628,0.141312,9.60439,15,0.00795634,10,0.00135721,-2.01753,0.716799,0.0823103,30.8026,0.141312,
2,1,0,1,0,28765.8,0.143626,0.143333,9.65079,15,0.00814902,10,0.00138328,-2.01544,1.08294,0.0544815,20.508,0.1433332,
2,1,0,1,0,28765.8,0.145624,0.145297,9.68611,15,0.00834256,10,0.00140736,-2.01385,2.76732,0.0213203,8.04343,0.145297,
2,1,0,1,0,28765.8,0.147621,0.147325,9.68291,15,0.00853637,10,0.00142654,-2.01399,-5.9886,-0.00985206,-3.72141,0.147325,
2,1,0,1,0,28765.8,0.149619,0.149284,9.67127,15,0.00872913,10,0.00144376,-2.01452,-1.07049,-0.0551152,-20.7387,0.149284,
2,1,0,1,0,28765.9,0.151616,0.15131,9.60027,15,0.00892202,10,0.00145262,-2.01772,-0.474877,-0.124243,-46.442,0.15131,
2,1,0,1,0,28765.9,0.153614,0.153286,9.4854,15,0.00911304,10,0.00145398,-2.02294,-0.308398,-0.191311,-70.6281,0.153286,
2,1,0,1,0,28765.9,0.155611,0.155274,9.32033,15,0.00930124,10,0.0014472,-2.03057,-0.231135,-0.255262,-92.6208,0.155274,
2,1,0,1,0,28765.9,0.157609,0.157319,9.11179,15,0.00948478,10,0.00143346,-2.0404,-0.174088,-0.338908,-120.027,0.157319,
2,1,0,1,0,28765.9,0.159607,0.15933,8.83345,15,0.00966437,10,0.00140743,-2.05387,-0.135543,-0.435285,-149.662,0.15933,
2,1,0,1,0,28766,0.161604,0.161308,8.51488,15,0.009838,10,0.00137352,-2.06982,-0.116965,-0.504423,-167.28,0.161308,
2,1,0,1,0,28766,0.163602,0.163296,8.16997,15,0.010005,10,0.00133413,-2.08778,-0.104632,-0.563882,-179.442,0.163296,
2,1,0,1,0,28766,0.165606,0.165272,7.80348,15,0.0101648,10,0.0012897,-2.10771,-0.097438,-0.605513,-184.208,0.165272,
2,1,0,1,0,28766,0.167597,0.167303,7.43188,15,0.0103165,10,0.00124338,-2.1289,-0.0945302,-0.624139,-181.109,0.1673032,
2,1,0,1,0,28766,0.169595,0.169274,7.07879,15,0.0104617,10,0.00119825,-2.15004,-0.0945596,-0.623945,-172.455,0.169274,
2,1,0,1,0,28766.1,0.171592,0.171295,6.74356,15,0.0105999,10,0.00115513,-2.17111,-0.0959326,-0.615015,-162.035,0.171295,
2,1,0,1,0,28766.1,0.173581,0.173258,6.43324,15,0.010731,10,0.00111461,-2.19157,-0.100691,-0.585951,-147.426,0.173258,
2,1,0,1,0,28766.1,0.175587,0.17526,6.15898,15,0.010857,10,0.00107942,-2.21049,-0.110351,-0.534656,-128.744,0.17526,
2,1,0,1,0,28766.1,0.177585,0.17729,5.91412,15,0.0109778,10,0.00104851,-2.22811,-0.116481,-0.506523,-117.01,0.17729,
2,1,0,1,0,28766.1,0.179582,0.179305,5.68565,15,0.0110937,10,0.00101946,-2.24522,-0.124723,-0.473047,-105.235,0.179305,
2,1,0,1,0,28766.2,0.18158,0.181306,5.49153,15,0.0112056,10,0.000995645,-2.26031,-0.140726,-0.419256,-90.0648,0.181306,
2,1,0,1,0,28766.2,0.183578,0.183286,5.3271,15,0.0113134,10,0.000976383,-2.27351,-0.153163,-0.38521,-80.1291,0.183286,
2,1,0,1,0,28766.2,0.185575,0.185297,5.17173,15,0.0114185,10,0.000958304,-2.28636,-0.165034,-0.357502,-72.2952,0.185297,
2,1,0,1,0,28766.2,0.187573,0.187273,5.03885,15,0.0115206,10,0.000943641,-2.29767,-0.183745,-0.321097,-63.2258,0.187273,
2,1,0,1,0,28766.2,0.18957,0.18926,4.92113,15,0.0116203,10,0.000931374,-2.30794,-0.204342,-0.288731,-55.5183,0.18926,
2,1,0,1,0,28766.3,0.191568,0.191274,4.81673,15,0.0117173,10,0.000921315,-2.31725,-0.222561,-0.265096,-49.8755,0.191274,
2,1,0,1,0,28766.3,0.193566,0.193255,4.72188,15,0.0118128,10,0.000912528,-2.32589,-0.241269,-0.244541,-45.106,0.193255,
2,1,0,1,0,28766.3,0.195563,0.195259,4.63698,15,0.0119066,10,0.000905412,-2.33376,-0.255565,-0.230861,-41.7866,0.195259,
2,1,0,1,0,28766.3,0.197561,0.19725,4.55496,15,0.0119987,10,0.000898465,-2.34152,-0.30431,-0.193881,-34.5579,0.19725,
2,1,0,1,0,28766.3,0.199558,0.199278,4.49809,15,0.0120889,10,0.000896371,-2.34697,-0.349836,-0.16865,-29.5917,0.199278,
2,1,0,1,0,28766.4,0.201556,0.201223,4.43739,15,0.0121783,10,0.000892904,-2.35287,-0.332415,-0.177489,-30.7334,0.201223,
2,1,0,1,0,28766.4,0.203553,0.203244,4.37621,15,0.0122666,10,0.000889437,-2.3589,-0.375633,-0.157068,-26.8689,0.203244,
2,1,0,1,0,28766.4,0.205551,0.205235,4.32959,15,0.0123538,10,0.000888583,-2.36355,-0.504022,-0.117058,-19.812,0.205235,
2,1,0,1,0,28766.4,0.207549,0.207218,4.29747,15,0.0124397,10,0.000890514,-2.36679,-0.489561,-0.120516,-20.1742,0.207218,
2,1,0,1,0,28766.4,0.209546,0.209214,4.24931,15,0.0125253,10,0.000889016,-2.37168,-0.443936,-0.132902,-22.0584,0.209214,
2,1,0,1,0,28766.5,0.211544,0.211252,4.2085,15,0.0126099,10,0.000889052,-2.37587,-0.495861,-0.118985,-19.5513,0.211252,
2,1,0,1,0,28766.5,0.213541,0.213185,4.17167,15,0.0126938,10,0.000889339,-2.37969,-0.620626,-0.0950653,-15.4984,0.213185,
2,1,0,1,0,28766.5,0.215539,0.215261,4.14637,15,0.0127766,10,0.000892549,-2.38233,-0.661527,-0.0891876,-14.4184,0.215261,
2,1,0,1,0,28766.5,0.217537,0.21724,4.11321,15,0.0128593,10,0.000893553,-2.38582,-0.611525,-0.09648,-15.4953,0.21724,
2,1,0,1,0,28766.5,0.219534,0.219263,4.08434,15,0.0129413,10,0.000895547,-2.38888,-0.713562,-0.0826838,-13.1881,0.219263,
2,1,0,1,0,28766.6,0.221532,0.221215,4.06079,15,0.013023,10,0.000898306,-2.39139,-0.799241,-0.07382,-11.6995,0.221215,
2,1,0,1,0,28766.6,0.223525,0.22325,4.0377,15,0.0131036,10,0.000901416,-2.39387,-0.863067,-0.0683608,-10.7758,0.22325,
2,1,0,1,0,28766.6,0.225527,0.225246,4.01734,15,0.0131843,10,0.000904892,-2.39606,-0.870943,-0.0677427,-10.6189,0.225246,
2,1,0,1,0,28766.6,0.227525,0.227229,3.99544,15,0.0132645,10,0.000907882,-2.39843,-0.803073,-0.0734678,-11.4536,0.227229,
2,1,0,1,0,28766.6,0.229522,0.229199,3.97207,15,0.0133443,10,0.000910395,-2.40098,-0.894586,-0.0659523,-10.2315,0.229199,
2,1,0,1,0,28766.7,0.23152,0.231206,3.95475,15,0.0134237,10,0.000914364,-2.40288,-1.24949,-0.0472191,-7.29278,0.231206,
2,1,0,1,0,28766.7,0.233517,0.233213,3.9428,15,0.0135025,10,0.000919513,-2.4042,-1.11543,-0.0528942,-8.13007,0.233213,
2,1,0,1,0,28766.7,0.235515,0.235217,3.92215,15,0.0135813,10,0.000922556,-2.40648,-1.02173,-0.0577449,-8.84564,0.235217,
2,1,0,1,0,28766.7,0.237512,0.237206,3.90748,15,0.0136597,10,0.000926878,-2.4081,-1.31111,-0.0449999,-6.86425,0.237206,
2,1,0,1,0,28766.7,0.23951,0.239168,3.89502,15,0.0137379,10,0.000931566,-2.40949,-1.89848,-0.0310774,-4.7277,0.2391682,
2,1,0,1,0,28766.8,0.241508,0.241213,3.88853,15,0.0138155,10,0.000937965,-2.41021,-1.4103,-0.0418351,-6.33855,0.241213,
2,1,0,1,0,28766.8,0.243505,0.243189,3.86954,15,0.0138931,10,0.000941029,-2.41234,-1.41018,-0.0418387,-6.32866,0.243189,
2,1,0,1,0,28766.8,0.245503,0.245208,3.86325,15,0.0139705,10,0.000947299,-2.41305,-1.85543,-0.0317985,-4.79014,0.245208,
2,1,0,1,0,28766.8,0.2475,0.247202,3.85031,15,0.0140477,10,0.000951807,-2.4145,-1.34923,-0.0437286,-6.57054,0.247202,
2,1,0,1,0,28766.8,0.249498,0.249207,3.83697,15,0.0141243,10,0.000956202,-2.41601,-1.62698,-0.0362635,-5.43375,0.2492073,
2,1,0,1,0,28766.9,0.251496,0.251207,3.82855,15,0.0142011,10,0.00096176,-2.41697,-1.72345,-0.0342337,-5.1126,0.251207,
2,1,0,1,0,28766.9,0.253493,0.253225,3.81643,15,0.0142777,10,0.000966415,-2.41834,-1.22565,-0.0481376,-7.16587,0.253225,
2,1,0,1,0,28766.9,0.255491,0.255167,3.80018,15,0.014354,10,0.000969679,-2.4202,-1.9109,-0.0308755,-4.58776,0.255167,
2,1,0,1,0,28766.9,0.257488,0.257176,3.7983,15,0.0144297,10,0.000976834,-2.42041,-2.48758,-0.0237178,-3.511,0.257176,
2,1,0,1,0,28766.9,0.259486,0.259209,3.78599,15,0.0145057,10,0.000981361,-2.42182,-1.25511,-0.0470078,-6.94268,0.259209,
2,1,0,1,0,28767,0.261484,0.261187,3.77046,15,0.0145815,10,0.000984794,-2.42361,-1.66705,-0.0353918,-5.21521,0.261187,
2,1,0,1,0,28767,0.263481,0.263124,3.76557,15,0.014657,10,0.000990811,-2.42417,-4.52516,-0.0130382,-1.91661,0.263124,
2,1,0,1,0,28767,0.265479,0.265203,3.76276,15,0.0147321,10,0.000997897,-2.42449,-2.2364,-0.0263816,-3.86896,0.2652033,
2,1,0,1,0,28767,0.267476,0.26716,3.74995,15,0.0148073,10,0.00100184,-2.42597,-1.54256,-0.0382482,-5.60007,0.26716,
2,1,0,1,0,28767,0.269474,0.26918,3.7405,15,0.0148823,10,0.00100687,-2.42707,-2.10098,-0.0280822,-4.10076,0.26918,
2,1,0,1,0,28767.1,0.271471,0.271178,3.73348,15,0.0149572,10,0.00101244,-2.42789,-9.85223,-0.00598849,-0.873791,0.271178,
2,1,0,1,0,28767.1,0.273469,0.273174,3.73701,15,0.0150316,10,0.00102085,-2.42748,-2.25168,-0.0262026,-3.81005,0.273174,
2,1,0,1,0,28767.1,0.275467,0.275194,3.71818,15,0.0151062,10,0.00102322,-2.42967,-1.22528,-0.0481523,-6.99633,0.2751936,
2,1,0,1,0,28767.1,0.277464,0.27718,3.70898,15,0.0151806,10,0.00102806,-2.43075,-1.952,-0.0302255,-4.37571,0.27718,
2,1,0,1,0,28767.1,0.279462,0.279169,3.70078,15,0.0152548,10,0.00103314,-2.43171,-2.1129,-0.0279237,-4.03314,0.279169,
2,1,0,1,0,28767.2,0.281464,0.281186,3.69282,15,0.0153288,10,0.00103837,-2.43264,-2.26685,-0.0260273,-3.75159,0.281186,
2,1,0,1,0,28767.2,0.283457,0.283117,3.68597,15,0.0154023,10,0.00104356,-2.43345,-1.84243,-0.032023,-4.60368,0.2831172,
2,1,0,1,0,28767.2,0.285455,0.285161,3.67452,15,0.015476,10,0.00104783,-2.4348,-1.22265,-0.0482558,-6.91525,0.285161,
2,1,0,1,0,28767.2,0.287452,0.287171,3.65794,15,0.0155495,10,0.00105045,-2.43676,-1.65465,-0.0356571,-5.09924,0.287171,
2,1,0,1,0,28767.2,0.28945,0.289152,3.65417,15,0.0156228,10,0.00105661,-2.43721,-4.46774,-0.0132058,-1.88331,0.2891525,
2,1,0,1,0,28767.3,0.291447,0.291125,3.65049,15,0.0156956,10,0.00106275,-2.43765,-1.4261,-0.0413715,-5.88116,0.291125,
2,1,0,1,0,28767.3,0.293445,0.293122,3.63082,15,0.0157686,10,0.00106427,-2.43999,-1.34816,-0.0437634,-6.21375,0.293122,
2,1,0,1,0,28767.3,0.295442,0.295096,3.62582,15,0.0158413,10,0.00106996,-2.44059,-3.7472,-0.0157451,-2.2283,0.295096,
2,1,0,1,0,28767.3,0.29744,0.297167,3.62181,15,0.015914,10,0.00107628,-2.44107,-2.37969,-0.0247931,-3.50145,0.297167,
2,1,0,1,0,28767.3,0.299438,0.299155,3.6116,15,0.0159861,10,0.00108043,-2.4423,-0.0337651,-1.74737,-228.917,0.299155,
2,1,0,1,0,28767.3,0.299737,0.299424,3.10512,15,0.0160156,10,0.000929747,-2.50792,0.00368427,16.014,1382.23,0.299424,
2,1,0,1,0,28767.4,0.29774,0.297432,1.23081,15,0.016056,10,0.000366083,-2.90981,0.00379429,15.5497,711.067,0.297432,
2,1,0,1,0,28767.4,0.295742,0.295448,0.278146,15,0.0160702,10,8.21777e-05,-3.55573,0.00648987,9.09109,382.538,0.295448,
2,0,0,1,0,28767.4,0.293745,0.293436,-0.298092,15,0.0160696,10,-8.74707e-05,-3.52565,-0.0105882,-5.57224,235.426,0.293436,
2,0,0,1,0,28767.4,0.291747,0.291445,-0.664246,15,0.0160598,10,-0.000193591,-3.17767,-0.00808971,-7.29321,157.819,0.291445,
2,0,0,1,0,28767.4,0.289754,0.289448,-0.927414,15,0.0160439,10,-0.000268438,-3.03273,-0.0176067,-3.351,114.183,0.2894479,
2,0,0,1,0,28767.5,0.287752,0.287439,-1.12172,15,0.0160233,10,-0.000322426,-2.95012,-0.0289902,-2.03517,86.7256,0.287439,
2,0,0,1,0,28767.5,0.285754,0.285443,-1.27477,15,0.0159993,10,-0.000363875,-2.89457,-0.042505,-1.38807,67.8655,0.285443,
2,0,0,1,0,28767.5,0.283757,0.283432,-1.39366,15,0.0159726,10,-0.000395007,-2.85584,-0.0572548,-1.03048,55.6493,0.2834315,
2,0,0,1,0,28767.5,0.281759,0.281418,-1.49875,15,0.0159437,10,-0.000421775,-2.82427,-0.0695187,-0.848692,49.3115,0.281418,
2,0,0,1,0,28767.5,0.279761,0.279487,-1.58816,15,0.0159129,10,-0.00044387,-2.79911,-0.085074,-0.693514,42.8187,0.279487,
2,0,0,1,0,28767.6,0.277764,0.277457,-1.66833,15,0.0158804,10,-0.000462891,-2.77772,-0.103433,-0.570417,36.9922,0.277457,
2,0,0,1,0,28767.6,0.275766,0.27545,-1.73749,15,0.0158464,10,-0.000478593,-2.76008,-0.126638,-0.465897,31.4689,0.27545,
2,0,0,1,0,28767.6,0.273769,0.273443,-1.79465,15,0.015811,10,-0.000490736,-2.74602,-0.135026,-0.436952,30.6678,0.273443,
2,0,0,1,0,28767.6,0.271771,0.271433,-1.8607,15,0.0157746,10,-0.000505054,-2.73032,-0.135623,-0.435029,31.5231,0.271433,
2,0,0,1,0,28767.6,0.269774,0.26946,-1.9202,15,0.0157368,10,-0.000517418,-2.71665,-0.164056,-0.359634,26.8542,0.26946,
2,0,0,1,0,28767.7,0.267776,0.267477,-1.96693,15,0.015698,10,-0.000526108,-2.70621,-0.189389,-0.311528,23.9191,0.2674771,
2,0,0,1,0,28767.7,0.265778,0.265485,-2.01529,15,0.0156582,10,-0.000535029,-2.69566,-0.185333,-0.318346,25.0592,0.265485,
2,0,0,1,0,28767.7,0.263781,0.263448,-2.06789,15,0.0156176,10,-0.000544782,-2.68447,-0.204636,-0.288317,23.196,0.263448,
2,0,0,1,0,28767.7,0.261783,0.261473,-2.10836,15,0.015576,10,-0.000551279,-2.67605,-0.263351,-0.224035,18.3961,0.261473,
2,0,0,1,0,28767.7,0.259786,0.259499,-2.14053,15,0.0155335,10,-0.000555467,-2.66948,-0.256588,-0.229941,19.2677,0.259499,
2,0,0,1,0,28767.8,0.257788,0.257428,-2.18629,15,0.0154903,10,-0.000562813,-2.66029,-0.229856,-0.256682,21.8829,0.257428,
2,0,0,1,0,28767.8,0.25579,0.255457,-2.229,15,0.0154464,10,-0.000569412,-2.65189,-0.281131,-0.209866,18.202,0.255457,
2,0,0,1,0,28767.8,0.253793,0.253444,-2.25881,15,0.0154015,10,-0.000572482,-2.64612,-0.308946,-0.190972,16.8622,0.253444,
2,0,0,1,0,28767.8,0.251795,0.251468,-2.29626,15,0.015356,10,-0.000577436,-2.63898,-0.282801,-0.208627,18.691,0.251468,
2,0,0,1,0,28767.8,0.249798,0.249485,-2.33281,15,0.0153098,10,-0.000582001,-2.63212,-0.336762,-0.175198,15.9178,0.2494847,
2,0,0,1,0,28767.9,0.2478,0.247455,-2.36013,15,0.0152632,10,-0.000584026,-2.62706,-0.358851,-0.164414,15.163,0.247455,
2,0,0,1,0,28767.9,0.245802,0.245472,-2.39366,15,0.0152156,10,-0.000587576,-2.62094,-0.321178,-0.183699,17.1636,0.245472,
2,0,0,1,0,28767.9,0.243805,0.24348,-2.42836,15,0.0151674,10,-0.000591257,-2.61469,-0.367158,-0.160694,15.201,0.24348,
2,0,0,1,0,28767.9,0.241807,0.241481,-2.45432,15,0.0151186,10,-0.000592673,-2.61007,-0.371415,-0.158852,15.2447,0.2414811,
2,0,0,1,0,28767.9,0.23981,0.23944,-2.48995,15,0.0150695,10,-0.000596193,-2.60381,-0.339959,-0.17355,16.8499,0.23944,
2,0,0,1,0,28768,0.237812,0.237495,-2.52149,15,0.0150194,10,-0.000598841,-2.59834,-0.392261,-0.15041,14.7872,0.237495,
2,0,0,1,0,28768,0.235815,0.235483,-2.54846,15,0.0149688,10,-0.00060012,-2.59372,-0.485563,-0.121508,12.0718,0.235483,
2,0,0,1,0,28768,0.233817,0.233476,-2.57001,15,0.0149178,10,-0.000600035,-2.59007,-0.418689,-0.140916,14.1686,0.233476,
2,0,0,1,0,28768,0.231815,0.231534,-2.60442,15,0.0148661,10,-0.000603011,-2.58429,-0.397433,-0.148453,15.0622,0.231534,
2,0,0,1,0,28768,0.229822,0.229507,-2.62978,15,0.014814,10,-0.000603554,-2.58008,-0.516413,-0.11425,11.7166,0.229507,
2,0,0,1,0,28768.1,0.227824,0.227541,-2.6512,15,0.0147612,10,-0.000603257,-2.57656,-0.516438,-0.114244,11.8301,0.227541,
2,0,0,1,0,28768.1,0.225827,0.225515,-2.67702,15,0.014708,10,-0.000603706,-2.57235,-0.430491,-0.137053,14.3335,0.225515,
2,0,0,1,0,28768.1,0.223829,0.223537,-2.70859,15,0.0146541,10,-0.00060547,-2.56726,-0.426546,-0.13832,14.6086,0.223537,
2,0,0,1,0,28768.1,0.221831,0.221506,-2.73558,15,0.0146,10,-0.000605947,-2.56295,-0.494205,-0.119384,12.7393,0.221506,
2,0,0,1,0,28768.1,0.219834,0.219499,-2.76003,15,0.0145451,10,-0.000605824,-2.55909,-0.476993,-0.123692,13.334,0.219499,
2,0,0,1,0,28768.2,0.217836,0.2175,-2.78899,15,0.0144896,10,-0.000606606,-2.55455,-0.518826,-0.113718,12.3569,0.2175,
2,0,0,1,0,28768.2,0.215839,0.215561,-2.80869,15,0.0144337,10,-0.000605445,-2.5515,-0.495836,-0.118991,13.0715,0.215561,
2,0,0,1,0,28768.2,0.213841,0.21354,-2.84075,15,0.0143775,10,-0.000606615,-2.54657,-0.492053,-0.119906,13.2682,0.21354,
2,0,0,1,0,28768.2,0.211843,0.211529,-2.86219,15,0.0143205,10,-0.000605436,-2.5433,-0.622629,-0.0947595,10.5833,0.211529,
2,0,0,1,0,28768.2,0.209846,0.209557,-2.88291,15,0.014263,10,-0.000604134,-2.54017,-0.535156,-0.110248,12.4216,0.209557,
2,0,0,1,0,28768.3,0.207848,0.207528,-2.91189,15,0.0142051,10,-0.000604298,-2.53582,-0.39544,-0.149201,16.9857,0.207528,
2,0,0,1,0,28768.3,0.205851,0.205518,-2.95151,15,0.0141468,10,-0.000606589,-2.52996,-0.447368,-0.131882,15.1429,0.205518,
2,0,0,1,0,28768.3,0.203853,0.203524,-2.97252,15,0.0140876,10,-0.000604979,-2.52688,-0.665847,-0.088609,10.2778,0.2035242,
2,0,0,1,0,28768.3,0.201856,0.201507,-2.99273,15,0.0140281,10,-0.000603058,-2.52393,-0.593688,-0.0993788,11.6183,0.201507,
2,0,0,1,0,28768.3,0.199858,0.19954,-3.01881,15,0.013968,10,-0.000602372,-2.52016,-0.452904,-0.13027,15.3715,0.19954,
2,0,0,1,0,28768.4,0.19786,0.197494,-3.05442,15,0.0139076,10,-0.000603231,-2.51507,-0.497244,-0.118654,14.1095,0.197494,
2,0,0,1,0,28768.4,0.195863,0.195537,-3.07529,15,0.0138464,10,-0.000601332,-2.51211,-0.533101,-0.110673,13.307,0.195537,
2,0,0,1,0,28768.4,0.193865,0.193508,-3.10747,15,0.0137847,10,-0.000601319,-2.50759,-0.507236,-0.116317,14.0875,0.193508,
2,0,0,1,0,28768.4,0.191868,0.191545,-3.13152,15,0.0137223,10,-0.000599828,-2.50424,-0.507528,-0.11625,14.2257,0.191545,
2,0,0,1,0,28768.4,0.18987,0.189543,-3.16387,15,0.0136597,10,-0.00059969,-2.49978,-0.470914,-0.125288,15.4619,0.189543,
2,0,0,1,0,28768.5,0.187872,0.187565,-3.19307,15,0.0135962,10,-0.000598906,-2.49579,-0.482047,-0.122395,15.2578,0.1875646,
2,0,0,1,0,28768.5,0.185875,0.185551,-3.22478,15,0.0135321,10,-0.000598361,-2.4915,-0.531556,-0.110995,13.9526,0.1855513,
2,0,0,1,0,28768.5,0.183877,0.183551,-3.24907,15,0.0134674,10,-0.00059637,-2.48824,-0.404155,-0.145984,18.5825,0.183551,
2,0,0,1,0,28768.5,0.18188,0.181568,-3.29879,15,0.0134024,10,-0.000598956,-2.48164,-0.388401,-0.151905,19.4916,0.181568,
2,0,0,1,0,28768.5,0.179882,0.179556,-3.32694,15,0.0133362,10,-0.000597372,-2.47795,-0.546939,-0.107873,14.0066,0.179556,
2,0,0,1,0,28768.6,0.177885,0.177526,-3.35541,15,0.0132694,10,-0.000595672,-2.47425,-0.457109,-0.129072,16.9289,0.177526,
2,0,0,1,0,28768.6,0.175887,0.175553,-3.39471,15,0.0132019,10,-0.00059595,-2.4692,-0.358783,-0.164445,21.8119,0.175553,
2,0,0,1,0,28768.6,0.173896,0.173541,-3.44232,15,0.013134,10,-0.000597385,-2.46315,-0.358448,-0.164599,22.0917,0.173541,
2,0,0,1,0,28768.6,0.171892,0.17152,-3.4838,15,0.0130647,10,-0.000597541,-2.45795,-0.380103,-0.155221,21.1061,0.17152,
2,0,0,1,0,28768.6,0.169894,0.169564,-3.52626,15,0.0129947,10,-0.000597928,-2.45269,-0.339819,-0.173622,23.9234,0.169564,
2,0,0,1,0,28768.7,0.167897,0.167586,-3.57792,15,0.0129238,10,-0.000599608,-2.44637,-0.317984,-0.185544,25.9091,0.167586,
2,0,0,1,0,28768.7,0.165899,0.16555,-3.63026,15,0.0128517,10,-0.000600991,-2.44006,-0.303057,-0.194683,27.6026,0.1655504,
2,0,0,1,0,28768.7,0.163901,0.163578,-3.68854,15,0.012779,10,-0.000603364,-2.43315,-0.278414,-0.211915,30.5215,0.163578,
2,0,0,1,0,28768.7,0.161904,0.161583,-3.75134,15,0.0127046,10,-0.000606154,-2.42581,-0.266067,-0.221749,32.479,0.161583,
2,0,0,1,0,28768.7,0.159906,0.159586,-3.8182,15,0.012629,10,-0.000609331,-2.41814,-0.24797,-0.237932,35.4879,0.159586,
2,0,0,1,0,28768.8,0.157909,0.157589,-3.89308,15,0.012552,10,-0.000613508,-2.40971,-0.222184,-0.265545,40.3985,0.157589,
2,0,0,1,0,28768.8,0.155911,0.155599,-3.97929,15,0.0124737,10,-0.000619172,-2.40019,-0.201799,-0.29237,45.4554,0.155599,
2,0,0,1,0,28768.8,0.153913,0.153571,-4.07576,15,0.0123932,10,-0.000625916,-2.38979,-0.194263,-0.303711,48.3042,0.153571,
2,0,0,1,0,28768.8,0.151916,0.151592,-4.17285,15,0.0123108,10,-0.000632568,-2.37957,-0.177855,-0.331731,54.1632,0.151592,
2,0,0,1,0,28768.8,0.149918,0.149552,-4.2934,15,0.0122262,10,-0.000642088,-2.3672,-0.15446,-0.381976,64.1038,0.149552,
2,0,0,1,0,28768.9,0.147921,0.147579,-4.43004,15,0.0121395,10,-0.000653782,-2.35359,-0.146756,-0.402028,69.5176,0.147579,
2,0,0,1,0,28768.9,0.145923,0.14556,-4.57094,15,0.0120495,10,-0.000665345,-2.33999,-0.133526,-0.441862,79.0905,0.14556,
2,0,0,1,0,28768.9,0.143926,0.143579,-4.74644,15,0.0119564,10,-0.000681488,-2.32363,-0.117077,-0.50394,93.482,0.143579,
2,0,0,1,0,28768.9,0.141928,0.14161,-4.94022,15,0.0118597,10,-0.000699582,-2.30625,-0.111874,-0.527381,101.776,0.14161,
2,0,0,1,0,28768.9,0.13993,0.139625,-5.1488,15,0.0117594,10,-0.000718904,-2.28829,-0.107966,-0.546466,109.972,0.139625,
2,0,0,1,0,28769,0.137933,0.13762,-5.37901,15,0.0116542,10,-0.000740257,-2.2693,-0.102851,-0.573645,120.548,0.13762,
2,0,0,1,0,28769,0.135935,0.135654,-5.6275,15,0.0115442,10,-0.000763396,-2.24968,-0.101501,-0.581275,127.794,0.135654,
2,0,0,1,0,28769,0.133938,0.133578,-5.89552,15,0.0114291,10,-0.00078751,-2.22948,-0.101653,-0.580405,133.471,0.133578,
2,0,0,1,0,28769,0.13194,0.131624,-6.16544,15,0.0113092,10,-0.000811521,-2.21004,-0.0986575,-0.598029,144.142,0.131624,
2,0,0,1,0,28769,0.129942,0.129626,-6.46519,15,0.011183,10,-0.000838055,-2.18942,-0.101376,-0.581992,146.566,0.129626,
2,0,0,1,0,28769.1,0.127945,0.127642,-6.7491,15,0.0110509,10,-0.000861468,-2.17075,-0.108954,-0.541513,142.578,0.127642,
2,0,0,1,0,28769.1,0.125947,0.125623,-7.03586,15,0.0109131,10,-0.000883867,-2.15268,-0.113984,-0.517619,142.03,0.125623,
2,0,0,1,0,28769.1,0.12395,0.12362,-7.32034,15,0.0107703,10,-0.000904939,-2.13547,-0.119316,-0.494486,141.105,0.12362,
2,0,0,1,0,28769.1,0.121952,0.121661,-7.5949,15,0.0106212,10,-0.000924005,-2.11948,-0.131023,-0.450302,133.21,0.121661,
2,0,0,1,0,28769.1,0.119955,0.119676,-7.84573,15,0.0104667,10,-0.000938944,-2.10537,-0.144164,-0.409256,125.272,0.119676,
2,0,0,1,0,28769.2,0.117957,0.117654,-8.09692,15,0.0103073,10,-0.000952634,-2.09168,-0.153187,-0.38515,121.596,0.117654,
2,0,0,1,0,28769.2,0.115955,0.115624,-8.33841,15,0.0101429,10,-0.00096412,-2.07892,-0.170328,-0.346391,112.497,0.115624,
2,0,0,1,0,28769.2,0.113962,0.113622,-8.55047,15,0.00997487,10,-0.000971523,-2.06801,-0.188181,-0.313528,104.537,0.1136222,
2,0,0,1,0,28769.2,0.111964,0.111671,-8.75167,15,0.00980188,10,-0.000977306,-2.05791,-0.206165,-0.286178,97.6224,0.111671,
2,0,0,1,0,28769.2,0.109967,0.109695,-8.93387,15,0.00962505,10,-0.000979999,-2.04896,-0.233788,-0.252365,87.9189,0.109695,
2,0,0,1,0,28769.3,0.107969,0.107664,-9.10397,15,0.00944469,10,-0.000980167,-2.04077,-0.261751,-0.225405,79.9887,0.107664,
2,0,0,1,0,28769.3,0.105971,0.105695,-9.25379,15,0.00926204,10,-0.000978081,-2.03368,-0.299592,-0.196934,71.0688,0.105695,
2,0,0,1,0,28769.3,0.103974,0.103622,-9.39121,15,0.0090756,10,-0.000973136,-2.02728,-0.353307,-0.166994,61.1079,0.103622,
2,0,0,1,0,28769.3,0.101976,0.101666,-9.49998,15,0.00888672,10,-0.000965829,-2.02228,-0.448789,-0.131465,48.6779,0.101666,
2,0,0,1,0,28769.3,0.0999786,0.0996462,-9.58474,15,0.00869594,10,-0.000955083,-2.01842,-0.537988,-0.109668,41.0119,0.09964624,
2,0,0,1,0,28769.4,0.0979811,0.0976432,-9.66498,15,0.00850444,10,-0.00094372,-2.0148,-0.750758,-0.0785872,29.577,0.0976432,
2,0,0,1,0,28769.4,0.0959835,0.0956598,-9.70265,15,0.00831081,10,-0.000928153,-2.01311,-1.56442,-0.0377137,14.2668,0.0956598,
2,0,0,1,0,28769.4,0.0939859,0.0936905,-9.72137,15,0.0081166,10,-0.0009108,-2.01227,-4.15222,-0.0142093,5.38649,0.0936905,
2,0,0,1,0,28769.4,0.0919883,0.0916735,-9.72412,15,0.00792215,10,-0.000891444,-2.01215,22.1155,0.00266781,-1.01194,0.0916735,
2,0,0,1,0,28769.4,0.0899907,0.0896527,-9.71729,15,0.00772872,10,-0.000871181,-2.01245,1.67148,0.035298,-13.3584,0.0896527,
2,0,0,1,0,28769.5,0.0879931,0.0876312,-9.67012,15,0.00753488,10,-0.000847404,-2.01457,0.922149,0.063981,-24.1441,0.0876312,
2,0,0,1,0,28769.5,0.0859955,0.0856869,-9.62154,15,0.00734207,10,-0.00082444,-2.01676,0.717777,0.0821983,-30.8238,0.0856869,
2,0,0,1,0,28769.5,0.083998,0.0836476,-9.54733,15,0.00715051,10,-0.000798611,-2.02012,0.570002,0.103508,-38.5535,0.0836476,
2,0,0,1,0,28769.5,0.0820004,0.0816696,-9.46666,15,0.00696133,10,-0.000773138,-2.0238,0.531617,0.110982,-41.0004,0.0816696,
2,0,0,1,0,28769.5,0.0800028,0.0796962,-9.38532,15,0.00677291,10,-0.000747974,-2.02755,0.52808,0.111726,-40.9169,0.0796962,
2,0,0,1,0,28769.6,0.0780052,0.0776397,-9.30177,15,0.00658616,10,-0.000722186,-2.03143,0.496933,0.118728,-43.0822,0.0776397,
2,0,0,1,0,28769.6,0.0760076,0.0756459,-9.21083,15,0.00640116,10,-0.000696762,-2.0357,0.507788,0.11619,-41.8039,0.0756459,
2,0,0,1,0,28769.6,0.07401,0.0736918,-9.13673,15,0.0062188,10,-0.000673302,-2.03921,0.521001,0.113244,-40.3553,0.0736918,
2,0,0,1,0,28769.6,0.0720124,0.0717059,-9.05183,15,0.00603702,10,-0.000649069,-2.04326,0.522507,0.112917,-39.9126,0.0717059,
2,0,0,1,0,28769.6,0.0700148,0.0697108,-8.97784,15,0.00585679,10,-0.000625852,-2.04683,0.579418,0.101826,-35.685,0.0697108,
2,0,0,1,0,28769.7,0.0680173,0.0676741,-8.90795,15,0.00567806,10,-0.000602838,-2.05022,0.695612,0.0848173,-29.5214,0.0676741,
2,0,0,1,0,28769.7,0.0660106,0.0656964,-8.85932,15,0.00550058,10,-0.000582026,-2.0526,0.731565,0.080649,-27.8643,0.0656964,
2,0,0,1,0,28769.7,0.0640221,0.0637296,-8.79804,15,0.00532501,10,-0.000560696,-2.05561,0.655781,0.0899691,-30.8897,0.0637296,
2,0,0,1,0,28769.7,0.0620245,0.0616989,-8.73584,15,0.00514981,10,-0.000538992,-2.0587,0.707731,0.083365,-28.4385,0.06169891,
2,0,0,1,0,28769.7,0.0600269,0.0597234,-8.68411,15,0.00497572,10,-0.000518644,-2.06127,0.779157,0.0757228,-25.6651,0.0597234,
2,0,0,1,0,28769.8,0.0580361,0.0577179,-8.63367,15,0.00480354,10,-0.000498317,-2.0638,0.766729,0.0769503,-25.9226,0.0577179,
2,0,0,1,0,28769.8,0.0560317,0.0556999,-8.57981,15,0.00463145,10,-0.000477894,-2.06652,0.747504,0.0789294,-26.4309,0.0556999,
2,0,0,1,0,28769.8,0.0540342,0.0536979,-8.52742,15,0.00446042,10,-0.000457904,-2.06918,0.804072,0.0733765,-24.43,0.0536979,
2,0,0,1,0,28769.8,0.0520366,0.0517171,-8.48251,15,0.00429037,10,-0.000438691,-2.07148,0.721778,0.0817426,-27.0307,0.0517171,
2,0,0,1,0,28769.8,0.050039,0.0496908,-8.4191,15,0.00412138,10,-0.000418352,-2.07473,0.741961,0.079519,-26.1605,0.0496908,
2,0,0,1,0,28769.9,0.0480414,0.047688,-8.37711,15,0.00395426,10,-0.000399487,-2.07691,0.790233,0.0746616,-24.3909,0.047688,
2,0,0,1,0,28769.9,0.0460438,0.0457378,-8.32268,15,0.00378736,10,-0.000380661,-2.07974,0.673879,0.0875528,-28.4306,0.0457378,
2,0,0,1,0,28769.9,0.0440462,0.0437195,-8.26428,15,0.00362158,10,-0.00036131,-2.08279,0.66588,0.0886046,-28.5801,0.0437195,
2,0,0,1,0,28769.9,0.0420486,0.0417112,-8.2076,15,0.00345698,10,-0.000342349,-2.08578,0.722425,0.0816694,-26.1732,0.0417112,
2,0,0,1,0,28769.9,0.0400511,0.0397121,-8.15939,15,0.00329417,10,-0.000324026,-2.08834,0.717126,0.0822728,-26.1841,0.03971206,
2,0,0,1,0,28770,0.0380535,0.0376923,-8.10237,15,0.00313164,10,-0.000305397,-2.09139,0.586561,0.100586,-31.782,0.0376923,
2,0,0,1,0,28770,0.0360559,0.0357423,-8.03323,15,0.00297041,10,-0.000287126,-2.09511,0.563745,0.104657,-32.825,0.0357423,
2,0,0,1,0,28770,0.0340583,0.0336952,-7.97117,15,0.0028105,10,-0.00026859,-2.09848,0.596746,0.0988696,-30.758,0.0336952,
2,0,0,1,0,28770,0.0320607,0.0317293,-7.9098,15,0.00265258,10,-0.000250973,-2.10183,0.529126,0.111505,-34.3868,0.0317293,
2,0,0,1,0,28770,0.0300631,0.0296812,-7.83314,15,0.00249525,10,-0.000232497,-2.10606,0.476675,0.123774,-37.8421,0.0296812,
2,0,0,1,0,28770.1,0.0280655,0.0277343,-7.75861,15,0.00233943,10,-0.00021518,-2.11022,0.477434,0.123577,-37.4234,0.0277343,
2,0,0,1,0,28770.1,0.0260679,0.0257654,-7.6866,15,0.00218502,10,-0.000198048,-2.11427,0.471324,0.125179,-37.5336,0.0257654,
2,0,0,1,0,28770.1,0.0240704,0.0237125,-7.60766,15,0.00203291,10,-0.000180397,-2.11875,0.440369,0.133978,-39.7749,0.0237125,
2,0,0,1,0,28770.1,0.0220728,0.0217748,-7.52787,15,0.00188163,10,-0.000163918,-2.12333,0.428009,0.137848,-40.4909,0.0217748,
2,0,0,1,0,28770.1,0.0200752,0.019719,-7.44596,15,0.00173194,10,-0.000146827,-2.12808,0.415037,0.142156,-41.2999,0.019719,
2,0,0,1,0,28770.2,0.0180776,0.0177395,-7.36122,15,0.00158391,10,-0.000130584,-2.13305,0.425713,0.138591,-39.8435,0.0177395,
2,0,0,1,0,28770.2,0.01608,0.0157425,-7.28752,15,0.00143826,10,-0.000114724,-2.13742,0.451692,0.13062,-37.1463,0.0157425,
2,0,0,1,0,28770.2,0.0140824,0.0137516,-7.21308,15,0.00129335,10,-9.91912e-05,-2.14188,0.421005,0.140141,-39.4228,0.0137516,
2,0,0,1,0,28770.2,0.0120848,0.0117262,-7.12919,15,0.00114998,10,-8.35986e-05,-2.14696,0.413957,0.142527,-39.675,0.0117262,
2,0,0,1,0,28770.2,0.0100872,0.00971751,-7.05303,15,0.00100828,10,-6.85379e-05,-2.15162,0.461352,0.127885,-35.2302,0.00971751,
2,0,0,1,0,28770.3,0.00809193,0.00774427,-6.98891,15,0.000868685,10,-5.4124e-05,-2.15559,0.485551,0.121511,-33.1358,0.00774427,
2,0,0,1,0,28770.3,0.00609208,0.00577004,-6.92222,15,0.000729633,10,-3.99415e-05,-2.15975,0.48017,0.122873,-33.1968,0.00577004,
2,0,0,1,0,28770.3,0.00409449,0.00376847,-6.85692,15,0.000591982,10,-2.58401e-05,-2.16387,0.837792,0.0704232,-18.9195,0.00376847,
2,0,0,1,0,28770.3,0.0020969,0.00171832,-6.84557,15,0.000455447,10,-1.17629e-05,-2.16459,0.710473,0.0830432,-22.078,0.001718321,
2,0,0,1,0,28770.3,9.14991e-05,-0.000266326,-6.76784,15,0.000319494,10,1.80245e-06,-2.16955,0.487224,0.121094,-32.047,-0.000266326,
2,0,0,1,0,28770.4,-0.00189827,-0.00229132,-6.71707,15,0.000185316,10,1.53909e-05,-2.17282,0.63738,0.0925664,-24.2736,-0.00229132,
2,0,0,1,0,28770.4,-0.00389586,-0.00426561,-6.67076,15,5.14894e-05,10,2.84549e-05,-2.17582,0.737389,0.080012,-20.8451,-0.00426561,
2,0,0,1,0,28770.4,-0.00589345,-0.00626854,-6.63416,15,-8.14934e-05,10,4.15865e-05,-2.17821,0.834238,0.0707232,-18.3108,-0.00626854,
2,0,0,1,0,28770.4,-0.00789103,-0.00826358,-6.59756,15,-0.000213753,10,5.45194e-05,-2.18062,1.14547,0.0515071,-13.2825,-0.00826358,
2,0,0,1,0,28770.4,-0.00988862,-0.0102538,-6.58123,15,-0.000344886,10,6.74824e-05,-2.18169,1.72157,0.0342711,-8.80068,-0.01025377,
2,0,0,1,0,28770.5,-0.0118862,-0.0122558,-6.56242,15,-0.000476289,10,8.04276e-05,-2.18294,1.63002,0.036196,-9.27077,-0.0122558,
2,0,0,1,0,28770.5,-0.0138838,-0.0142166,-6.54449,15,-0.000607322,10,9.30402e-05,-2.18412,2.33136,0.0253071,-6.46869,-0.0142166,
2,0,0,1,0,28770.5,-0.0158814,-0.0162389,-6.53666,15,-0.000738043,10,0.000106148,-2.18464,39.8226,0.00148157,-0.378365,-0.0162389,
2,0,0,1,0,28770.5,-0.017879,-0.0182583,-6.54296,15,-0.000868138,10,0.000119463,-2.18423,-10.9368,-0.00539463,1.37678,-0.0182583,
2,0,0,1,0,28770.5,-0.0198766,-0.0202861,-6.54223,15,-0.000998915,10,0.000132716,-2.18427,57.2039,0.0010314,-0.263348,-0.0202861,
2,0,0,1,0,28770.6,-0.0218741,-0.0222753,-6.54191,15,-0.00112962,10,0.000145723,-2.1843,-4.08416,-0.0144461,3.69251,-0.02227533,
2,0,0,1,0,28770.6,-0.0238717,-0.0242235,-6.55677,15,-0.00126053,10,0.000158828,-2.18331,-1.68829,-0.0349467,8.94655,-0.0242235,
2,0,0,1,0,28770.6,-0.0258693,-0.0262646,-6.5776,15,-0.00139113,10,0.000172758,-2.18193,-2.13872,-0.0275866,7.07437,-0.0262646,
2,0,0,1,0,28770.6,-0.0278669,-0.0282258,-6.58508,15,-0.0015227,10,0.000185869,-2.18144,-1.78692,-0.0330177,8.49773,-0.0282258,
2,0,0,1,0,28770.6,-0.0298645,-0.0302868,-6.61178,15,-0.00165462,10,0.000200249,-2.17968,-1.23776,-0.0476666,12.2961,-0.0302868,
2,0,0,1,0,28770.7,-0.0318621,-0.0322528,-6.6346,15,-0.00178705,10,0.000213984,-2.17819,-1.05893,-0.0557164,14.4383,-0.0322528,
2,0,0,1,0,28770.7,-0.0338597,-0.0342057,-6.66836,15,-0.00191934,10,0.000228096,-2.17598,-0.959268,-0.0615052,16.0017,-0.0342057,
2,0,0,1,0,28770.7,-0.0358573,-0.0362311,-6.69826,15,-0.00205291,10,0.000242685,-2.17404,-0.98171,-0.0600992,15.7149,-0.0362311,
2,0,0,1,0,28770.7,-0.0378548,-0.038246,-6.73185,15,-0.0021872,10,0.000257467,-2.17187,-0.960376,-0.0614342,16.1368,-0.038246,
2,0,0,1,0,28770.7,-0.0398524,-0.0402274,-6.76275,15,-0.00232214,10,0.000272048,-2.16988,-0.728171,-0.081025,21.4217,-0.04022738,
2,0,0,1,0,28770.8,-0.04185,-0.0422285,-6.81716,15,-0.00245714,10,0.000287879,-2.1664,-0.693551,-0.0850694,22.6022,-0.0422285,
2,0,0,1,0,28770.8,-0.0438476,-0.0442309,-6.85324,15,-0.00259375,10,0.000303125,-2.1641,-0.869651,-0.0678433,18.1454,-0.0442309,
2,0,0,1,0,28770.8,-0.0458452,-0.0462117,-6.88944,15,-0.00273118,10,0.000318373,-2.16182,-0.728449,-0.080994,21.8001,-0.0462117,
2,0,0,1,0,28770.8,-0.0478428,-0.048228,-6.94037,15,-0.00286941,10,0.00033472,-2.15862,-0.560506,-0.105262,28.5355,-0.048228,
2,0,0,1,0,28770.8,-0.0498495,-0.050204,-7.00336,15,-0.00300871,10,0.000351597,-2.15469,-0.581803,-0.101409,27.685,-0.050204,
2,0,0,1,0,28770.9,-0.051838,-0.0522043,-7.05045,15,-0.00314845,10,0.000368064,-2.15178,-0.66129,-0.0892195,24.5571,-0.0522043,
2,0,0,1,0,28770.9,-0.0538355,-0.0542292,-7.10221,15,-0.00328978,10,0.000385147,-2.14861,-0.606173,-0.0973319,26.9861,-0.0542292,
2,0,0,1,0,28770.9,-0.0558331,-0.0562043,-7.1584,15,-0.00343226,10,0.000402333,-2.14518,-0.568113,-0.103853,29.0176,-0.0562043,
2,0,0,1,0,28770.9,-0.0578217,-0.058186,-7.21702,15,-0.00357519,10,0.000419929,-2.14164,-0.564557,-0.104507,29.437,-0.05818595,
2,0,0,1,0,28770.9,-0.0598283,-0.06023,-7.27691,15,-0.00372007,10,0.000438288,-2.13805,-0.51635,-0.114263,32.4696,-0.06023,
2,0,0,1,0,28771,-0.0618259,-0.0621535,-7.34585,15,-0.00386618,10,0.00045657,-2.13396,-0.509197,-0.115869,33.2042,-0.0621535,
2,0,0,1,0,28771,-0.0638235,-0.0642119,-7.40912,15,-0.0040137,10,0.000475754,-2.13023,-0.528028,-0.111736,32.3193,-0.0642119,
2,0,0,1,0,28771,-0.0658211,-0.0662252,-7.47744,15,-0.00416251,10,0.000495195,-2.12625,-0.47203,-0.124992,36.4967,-0.0662252,
2,0,0,1,0,28771,-0.0678187,-0.068209,-7.555,15,-0.00431208,10,0.000515319,-2.12177,-0.440442,-0.133956,39.5005,-0.068209,
2,0,0,1,0,28771,-0.0698162,-0.0702028,-7.63456,15,-0.00446389,10,0.000535967,-2.11722,-0.469412,-0.125689,37.4216,-0.0702028,
2,0,0,1,0,28771.1,-0.0718138,-0.0721704,-7.70324,15,-0.00461722,10,0.000555946,-2.11333,-0.45279,-0.130303,39.2216,-0.0721704,
2,0,0,1,0,28771.1,-0.0738114,-0.0742012,-7.79138,15,-0.00477212,10,0.00057813,-2.10839,-0.402281,-0.146664,44.6044,-0.0742012,
2,0,0,1,0,28771.1,-0.075809,-0.0761996,-7.88296,15,-0.00492808,10,0.000600679,-2.10331,-0.412695,-0.142963,43.9597,-0.0761996,
2,0,0,1,0,28771.1,-0.0778066,-0.0781999,-7.96717,15,-0.00508658,10,0.000623032,-2.0987,-0.416427,-0.141682,44.0702,-0.0781999,
2,0,0,1,0,28771.1,-0.0798042,-0.0801719,-8.05802,15,-0.00524679,10,0.000646027,-2.09377,-0.386906,-0.152492,47.981,-0.0801719,
2,0,0,1,0,28771.2,-0.0818018,-0.0821809,-8.15818,15,-0.00540891,10,0.000670446,-2.08841,-0.37513,-0.157279,50.0664,-0.08218088,
2,0,0,1,0,28771.2,-0.0837994,-0.0841282,-8.2561,15,-0.00557221,10,0.000694571,-2.08322,-0.385744,-0.152951,49.2763,-0.0841282,
2,0,0,1,0,28771.2,-0.0857969,-0.0861295,-8.35275,15,-0.00573821,10,0.000719418,-2.07817,-0.387834,-0.152127,49.6074,-0.0861295,
2,0,0,1,0,28771.2,-0.0877945,-0.0881548,-8.45585,15,-0.00590628,10,0.000745424,-2.07284,-0.369932,-0.159489,52.6499,-0.0881548,
2,0,0,1,0,28771.2,-0.0897921,-0.0901714,-8.56556,15,-0.00607643,10,0.000772369,-2.06724,-0.37777,-0.15618,52.1788,-0.0901714,
2,0,0,1,0,28771.3,-0.0917897,-0.0921874,-8.66627,15,-0.00624776,10,0.000798921,-2.06217,-0.387649,-0.152199,51.4847,-0.09218742,
2,0,0,1,0,28771.3,-0.0937873,-0.094153,-8.77055,15,-0.00642205,10,0.000825773,-2.05697,-0.397676,-0.148362,50.7609,-0.094153,
2,0,0,1,0,28771.3,-0.0957849,-0.096165,-8.86817,15,-0.0065984,10,0.000852807,-2.05217,-0.419499,-0.140644,48.6792,-0.096165,
2,0,0,1,0,28771.3,-0.0977825,-0.0981995,-8.96753,15,-0.00677673,10,0.000880607,-2.04733,-0.392194,-0.150436,52.6747,-0.0981995,
2,0,0,1,0,28771.3,-0.0997501,-0.100121,-9.07655,15,-0.00695348,10,0.000908754,-2.04208,0.00855861,6.89364,-2153.53,-0.100121,
2,0,0,1,1,28771.4,-0.0987313,-0.0990606,-7.11316,15,-0.00707697,10,0.000704633,-2.14794,-0.012404,-4.75654,1291.53,-0.0990606,
2,0,0,1,1,28771.4,-0.0967337,-0.0971172,-5.197,15,-0.00719859,10,0.000504717,-2.28425,-0.0143181,-4.12065,846.56,-0.0971172,
2,0,0,1,1,28771.4,-0.0947362,-0.0951082,-3.76724,15,-0.00728738,10,0.000358295,-2.42398,-0.0135298,-4.36076,639.961,-0.0951082,
2,0,0,1,1,28771.4,-0.0927386,-0.093085,-2.61654,15,-0.00735061,10,0.000243561,-2.58227,-0.0113829,-5.18322,520.381,-0.093085,
2,0,0,1,1,28771.4,-0.090741,-0.0910623,-1.66183,15,-0.00739276,10,0.00015133,-2.77941,-0.00831303,-7.09729,439.259,-0.0910623,
2,0,0,1,1,28771.5,-0.0887434,-0.0891079,-0.869601,15,-0.00741774,10,7.74883e-05,-3.06068,-0.00405178,-14.5615,373.956,-0.0891079,
2,0,0,1,1,28771.5,-0.0867458,-0.0870809,-0.172966,15,-0.00742787,10,1.50621e-05,-3.76204,-0.0125396,-4.70508,323.438,-0.0870809,
2,1,0,1,1,28771.5,-0.0847482,-0.0851253,0.418523,15,-0.0074252,10,-3.56269e-05,-3.37828,0.00544238,10.8409,277.825,-0.0851253,
2,1,0,1,1,28771.5,-0.0827529,-0.0830914,0.935415,15,-0.00741162,10,-7.7725e-05,-3.029,0.00760935,7.75362,244.762,-0.0830914,
2,1,0,1,1,28771.5,-0.080753,-0.0811619,1.38862,15,-0.00738814,10,-0.000112703,-2.85742,0.0141337,4.17441,214.469,-0.0811619,
2,1,0,1,1,28771.6,-0.0787554,-0.0791109,1.78913,15,-0.00735617,10,-0.00014154,-2.74736,0.0214375,2.75218,186.715,-0.0791109,
2,1,0,1,1,28771.6,-0.0767579,-0.0771249,2.14239,15,-0.00731665,10,-0.000165231,-2.6691,0.028425,2.07564,170.925,-0.0771249,
2,1,0,1,1,28771.6,-0.0747603,-0.0751437,2.46721,15,-0.00727037,10,-0.000185395,-2.60779,0.0361671,1.63132,155.26,-0.0751437,
2,1,0,1,1,28771.6,-0.0727627,-0.0731397,2.76112,15,-0.0072181,10,-0.000201948,-2.55891,0.0465305,1.26799,135.063,-0.0731397,
2,1,0,1,1,28771.6,-0.0707651,-0.0711293,3.00941,15,-0.00716025,10,-0.000214057,-2.52152,0.0573559,1.02866,120.255,-0.0711293,
2,1,0,1,1,28771.7,-0.0687675,-0.0691351,3.2427,15,-0.00709761,10,-0.000224184,-2.48909,0.0677942,0.870281,109.508,-0.0691351,
2,1,0,1,1,28771.7,-0.0667699,-0.0671152,3.44899,15,-0.00703059,10,-0.000231479,-2.46231,0.0800574,0.736972,98.8442,-0.0671152,
2,1,0,1,1,28771.7,-0.0647723,-0.0651337,3.63821,15,-0.00695987,10,-0.00023697,-2.43911,0.0925492,0.637499,90.1995,-0.0651337,
2,1,0,1,1,28771.7,-0.0627748,-0.0631369,3.80782,15,-0.00688535,10,-0.000240414,-2.41932,0.109268,0.539957,79.9971,-0.06313695,
2,1,0,1,1,28771.7,-0.0607772,-0.0611271,3.95873,15,-0.00680758,10,-0.000241986,-2.40244,0.125996,0.468269,72.1926,-0.06112713,
2,1,0,1,1,28771.8,-0.0587796,-0.0591403,4.09635,15,-0.00672695,10,-0.000242259,-2.3876,0.142309,0.41459,66.1593,-0.0591403,
2,1,0,1,1,28771.8,-0.056782,-0.0571487,4.22194,15,-0.00664414,10,-0.000241278,-2.37449,0.165021,0.357531,58.776,-0.0571487,
2,1,0,1,1,28771.8,-0.0547844,-0.0551566,4.3305,15,-0.00655857,10,-0.000238855,-2.36346,0.196234,0.300662,50.7329,-0.0551566,
2,1,0,1,1,28771.8,-0.0527868,-0.0531084,4.42691,15,-0.00647091,10,-0.000235106,-2.3539,0.224817,0.262435,45.2751,-0.0531084,
2,1,0,1,1,28771.8,-0.0507892,-0.0511524,4.51179,15,-0.00638144,10,-0.000230789,-2.34565,0.228456,0.258256,45.5191,-0.0511524,
2,1,0,1,1,28771.9,-0.0487916,-0.0491563,4.60681,15,-0.00629068,10,-0.000226454,-2.3366,0.261313,0.225783,40.4625,-0.0491563,
2,1,0,1,1,28771.9,-0.0467941,-0.0471661,4.67309,15,-0.00619786,10,-0.000220411,-2.3304,0.348323,0.169383,30.8591,-0.0471661,
2,1,0,1,1,28771.9,-0.0447965,-0.0451597,4.73014,15,-0.00610376,10,-0.000213612,-2.32513,0.378121,0.156035,28.807,-0.0451597,
2,1,0,1,1,28771.9,-0.0427989,-0.0431594,4.7885,15,-0.0060085,10,-0.000206669,-2.3198,0.372282,0.158482,29.619,-0.0431594,
2,1,0,1,1,28771.9,-0.0408013,-0.0411822,4.84795,15,-0.00591253,10,-0.000199649,-2.31444,0.496452,0.118843,22.4178,-0.0411822,
2,1,0,1,1,28772,-0.0388037,-0.039139,4.87863,15,-0.00581516,10,-0.000190945,-2.3117,0.620952,0.0950153,18.1103,-0.039139,
2,1,0,1,1,28772,-0.0368061,-0.0371991,4.92009,15,-0.00571707,10,-0.000183023,-2.30803,0.572056,0.103137,19.7949,-0.0371991,
2,1,0,1,1,28772,-0.0348085,-0.0351659,4.95728,15,-0.00561819,10,-0.000174327,-2.30476,0.63401,0.0930585,18.0002,-0.0351659,
2,1,0,1,1,28772,-0.0328109,-0.0331659,4.99268,15,-0.00551919,10,-0.000165587,-2.30167,0.978813,0.0602771,11.717,-0.0331659,
2,1,0,1,1,28772,-0.0308134,-0.0311431,5.00441,15,-0.00541916,10,-0.000155853,-2.30065,1.21447,0.0485809,9.50179,-0.0311431,
2,1,0,1,1,28772.1,-0.0288158,-0.0291793,5.03056,15,-0.0053187,10,-0.000146788,-2.29838,1.0224,0.0577075,11.3214,-0.02917929,
2,1,0,1,1,28772.1,-0.0268182,-0.0271595,5.04951,15,-0.00521783,10,-0.000137142,-2.29675,1.30009,0.0453814,8.94132,-0.0271595,
2,1,0,1,1,28772.1,-0.0248138,-0.0251683,5.06643,15,-0.00511675,10,-0.000127514,-2.2953,1.67843,0.0351519,6.94608,-0.0251683,
2,1,0,1,1,28772.1,-0.022823,-0.0232077,5.07696,15,-0.00501577,10,-0.000117825,-2.2944,2.85399,0.0206728,4.09412,-0.0232077,
2,1,0,1,1,28772.1,-0.0208254,-0.0211965,5.08269,15,-0.0049141,10,-0.000107735,-2.29391,4.04006,0.0146038,2.89688,-0.0211965,
2,1,0,1,1,28772.2,-0.0188278,-0.019184,5.08862,15,-0.00481237,10,-9.76202e-05,-2.2934,3.71973,0.0158614,3.15017,-0.019184,
2,1,0,1,1,28772.2,-0.0168393,-0.0172085,5.09525,15,-0.00471105,10,-8.76816e-05,-2.29283,3.68964,0.0159907,3.17962,-0.0172085,
2,1,0,1,1,28772.2,-0.0148326,-0.0151709,5.10138,15,-0.00460898,10,-7.73927e-05,-2.29231,12.0098,0.00491267,0.977271,-0.0151709,
2,1,0,1,1,28772.2,-0.0128351,-0.013178,5.09919,15,-0.00450694,10,-6.71973e-05,-2.2925,14.7451,0.00400134,0.796876,-0.013178,
2,1,0,1,1,28772.2,-0.0108375,-0.0112259,5.10452,15,-0.0044049,10,-5.7303e-05,-2.29204,7.27478,0.00811021,1.61499,-0.0112259,
2,1,0,1,1,28772.3,-0.00883989,-0.00919486,5.10562,15,-0.00430276,10,-4.69455e-05,-2.29195,39.6374,0.00148849,0.296563,-0.00919486,
2,1,0,1,1,28772.3,-0.0068423,-0.0072034,5.10572,15,-0.00420105,10,-3.67785e-05,-2.29194,10.9675,0.00537954,1.07236,-0.0072034,
2,1,0,1,1,28772.3,-0.00484471,-0.00520006,5.10991,15,-0.00409889,10,-2.65718e-05,-2.29159,10.1829,0.005794,1.15503,-0.00520006,
2,1,0,1,1,28772.3,-0.00284713,-0.00322286,5.11031,15,-0.00399666,10,-1.64698e-05,-2.29155,-9.10547,-0.00647962,-1.29154,-0.00322286,
2,1,0,1,1,28772.3,-0.000849538,-0.00123363,5.10478,15,-0.00389442,10,-6.29742e-06,-2.29202, , , ,-0.00123363,
2,1,0,1,1,28772.3,-2.55332e-05,-0.000439847,5.11861,15,-0.00385307,10,-2.25141e-06,-2.29085, , , ,-0.000439847,