File: Figure_codes/Fig_3-5/rawdata_trumpetplot_data/after 10th/20221101_1-115_003_TrumpetPlot_ParaChange_from10_every3_07_CV_C01_28.csv
mode,ox/red,error,control changes,counter inc.,time/s,control/V,Ewe/V,<I>/mA,cycle number,(Q-Qo)/C,I Range,P/W,log(|I|),Tafel slope mV/dec,alpha_eff,dI/d(E-IR),E-IR/V,
2,0,0,0,0,56328.7,2.44065e-05,-0.000401673,-2.69695,29,0.0000000E+000,10,1.08329e-06,-2.56913, , , ,-0.000401673,
2,0,0,1,0,56328.7,0.0013005,0.000920375,-1.49232,29,-4.19191e-05,10,-1.3735e-06,-2.82614, , , ,0.000920375,
2,0,0,1,0,56328.7,0.00279471,0.00244389,-0.623321,29,-6.72603e-05,10,-1.52332e-06,-3.20529,-0.00333765,-17.6771,489.56,0.00244389,
2,0,0,1,0,56328.7,0.00429425,0.00397964,-0.0460963,29,-7.48621e-05,10,-1.83447e-07,-4.33633,-0.0171026,-3.44976,349.544,0.00397964,
2,1,0,1,0,56328.8,0.00579379,0.00539159,0.382129,29,-6.98994e-05,10,2.06028e-06,-3.41779,0.00691375,8.53372,259.618,0.00539159,
2,1,0,1,0,56328.8,0.007288,0.00687587,0.723372,29,-5.54331e-05,10,4.97381e-06,-3.14064,0.00646714,9.12305,203.337,0.00687587,
2,1,0,1,0,56328.8,0.00878882,0.00841667,1.00005,29,-3.33928e-05,10,8.41705e-06,-2.99998,0.0129015,4.57312,162.457,0.00841667,
2,1,0,1,0,56328.8,0.0102896,0.00993612,1.21395,29,-5.35903e-06,10,1.20619e-05,-2.9158,0.0203176,2.90389,130.635,0.00993612,
2,1,0,1,0,56328.9,0.0117838,0.0113889,1.38737,29,2.74817e-05,10,1.58006e-05,-2.85781,0.0279686,2.10951,111.11,0.0113889,
2,1,0,1,0,56328.9,0.0132834,0.0128865,1.54148,29,6.44868e-05,10,1.98642e-05,-2.81206,0.0375223,1.5724,92.9592,0.0128865,
2,1,0,1,0,56328.9,0.0147816,0.0144212,1.67177,29,0.000104995,10,2.41089e-05,-2.77682,0.0466746,1.26407,81.2535,0.0144212,
2,1,0,1,0,56328.9,0.0162811,0.0159242,1.78324,29,0.00014856,10,2.83967e-05,-2.74879,0.0570603,1.03399,71.2137,0.0159242,
2,1,0,1,0,56329,0.0177753,0.0174234,1.87551,29,0.000194554,10,3.26776e-05,-2.72688,0.0673132,0.8765,63.8446,0.0174234,
2,1,0,1,0,56329,0.0192761,0.0189278,1.96526,29,0.000242943,10,3.7198e-05,-2.70658,0.0835575,0.7061,53.9305,0.0189278,
2,1,0,1,0,56329,0.020777,0.0204241,2.04449,29,0.000293452,10,4.17568e-05,-2.68942,0.0910525,0.647978,51.4618,0.0204241,
2,1,0,1,0,56329,0.0222712,0.0218951,2.12306,29,0.000345672,10,4.64848e-05,-2.67304,0.0988402,0.596923,49.1745,0.02189515,
2,1,0,1,0,56329.1,0.0237707,0.0233969,2.18413,29,0.000399874,10,5.11018e-05,-2.66072,0.110867,0.532171,45.3256,0.0233969,
2,1,0,1,0,56329.1,0.0252703,0.0249164,2.24858,29,0.000455688,10,5.60264e-05,-2.64809,0.128305,0.459842,40.3432,0.0249164,
2,1,0,1,0,56329.1,0.0267645,0.0264466,2.31355,29,0.000512821,10,6.11857e-05,-2.63572,0.129033,0.457248,41.1528,0.0264466,
2,1,0,1,0,56329.1,0.0282653,0.0279377,2.37018,29,0.000571705,10,6.62175e-05,-2.62522,0.136807,0.431264,39.8038,0.0279377,
2,1,0,1,0,56329.2,0.0297648,0.0293833,2.42452,29,0.000632035,10,7.12404e-05,-2.61537,0.150306,0.392534,37.1132,0.0293833,
2,1,0,1,0,56329.2,0.031259,0.0309247,2.47335,29,0.000693463,10,7.64877e-05,-2.60671,0.169055,0.348999,33.7249,0.0309247,
2,1,0,1,0,56329.2,0.0327585,0.0324076,2.53237,29,0.000756431,10,8.20682e-05,-2.59647,0.166236,0.354917,35.0229,0.0324076,
2,1,0,1,0,56329.2,0.034258,0.0339315,2.58504,29,0.00082071,10,8.77144e-05,-2.58753,0.16748,0.352281,35.4878,0.0339315,
2,1,0,1,0,56329.3,0.0357576,0.0354082,2.62675,29,0.000886302,10,9.30085e-05,-2.58058,0.179824,0.328098,33.7142,0.0354082,
2,1,0,1,0,56329.3,0.0372518,0.0369299,2.68309,29,0.000952873,10,9.9086e-05,-2.57137,0.19591,0.301159,31.5477,0.0369299,
2,1,0,1,0,56329.3,0.0387526,0.0383692,2.73594,29,0.00102093,10,0.000104976,-2.56289,0.19722,0.299158,31.8748,0.0383692,
2,1,0,1,0,56329.3,0.0402534,0.0399175,2.78554,29,0.00109022,10,0.000111192,-2.55509,0.189849,0.310774,33.7027,0.0399175,
2,1,0,1,0,56329.4,0.0417476,0.0414173,2.82854,29,0.00116051,10,0.000117151,-2.54844,0.191398,0.308258,34.0658,0.0414173,
2,1,0,1,0,56329.4,0.0432472,0.0429,2.87954,29,0.00123227,10,0.000123532,-2.54068,0.21832,0.270245,30.3762,0.0429,
2,1,0,1,0,56329.4,0.0447467,0.0443756,2.92889,29,0.00130519,10,0.000129971,-2.5333,0.227578,0.259252,29.5753,0.0443756,
2,1,0,1,0,56329.4,0.0462463,0.0458786,2.97288,29,0.00137926,10,0.000136392,-2.52682,0.21371,0.276075,31.9941,0.0458786,
2,1,0,1,0,56329.5,0.0477391,0.047356,3.01619,29,0.00145421,10,0.000142835,-2.52054,0.216125,0.272991,32.1602,0.047356,
2,1,0,1,0,56329.5,0.0492399,0.0488936,3.0609,29,0.0015306,10,0.000149658,-2.51415,0.242013,0.243788,29.1324,0.0488936,
2,1,0,1,0,56329.5,0.0507408,0.0503515,3.10724,29,0.00160813,10,0.000156454,-2.50763,0.240841,0.244975,29.7103,0.0503515,
2,1,0,1,0,56329.5,0.052235,0.0519125,3.15782,29,0.00168643,10,0.00016393,-2.50061,0.225078,0.262132,32.242,0.0519125,
2,1,0,1,0,56329.6,0.0537345,0.0533908,3.19801,29,0.00176623,10,0.000170744,-2.49512,0.242349,0.24345,30.3966,0.0533908,
2,1,0,1,0,56329.6,0.0552341,0.0548734,3.24312,29,0.0018472,10,0.000177961,-2.48904,0.276789,0.213159,26.9611,0.0548734,
2,1,0,1,0,56329.6,0.0567283,0.0563751,3.28966,29,0.00192889,10,0.000185455,-2.48285,0.287597,0.205148,26.3102,0.0563751,
2,1,0,1,0,56329.6,0.0582291,0.0578541,3.33358,29,0.00201194,10,0.000192861,-2.47709,0.253494,0.232747,30.2412,0.0578541,
2,1,0,1,0,56329.7,0.0597299,0.0593537,3.37176,29,0.00209609,10,0.000200127,-2.47214,0.271402,0.21739,28.605,0.0593537,
2,1,0,1,0,56329.7,0.0612228,0.0608939,3.41673,29,0.00218095,10,0.000208058,-2.46639,0.313219,0.188367,25.0778,0.0608939,
2,1,0,1,0,56329.7,0.0627223,0.0623703,3.46266,29,0.00226724,10,0.000215967,-2.46059,0.27687,0.213096,28.701,0.0623703,
2,1,0,1,0,56329.7,0.0642218,0.063864,3.49176,29,0.00235444,10,0.000222998,-2.45696,0.303101,0.194655,26.5412,0.063864,
2,1,0,1,0,56329.8,0.0657214,0.0653621,3.52811,29,0.00244264,10,0.000230605,-2.45246,0.290161,0.203336,28.0475,0.0653621,
2,1,0,1,0,56329.8,0.0672156,0.0668693,3.57645,29,0.00253153,10,0.000239155,-2.44655,0.33973,0.173667,24.2189,0.0668693,
2,1,0,1,0,56329.8,0.0687164,0.068323,3.61651,29,0.00262179,10,0.000247091,-2.44171,0.345939,0.17055,24.0304,0.068323,
2,1,0,1,0,56329.8,0.0702172,0.0697939,3.65052,29,0.0027129,10,0.000254784,-2.43765,0.344818,0.171105,24.3578,0.06979394,
2,1,0,1,0,56329.9,0.0717115,0.0713491,3.67994,29,0.00280456,10,0.000262561,-2.43416,0.33188,0.177775,25.566,0.0713491,
2,1,0,1,0,56329.9,0.073211,0.0728727,3.71993,29,0.00289751,10,0.000271081,-2.42947,0.382715,0.154162,22.3894,0.0728727,
2,1,0,1,0,56329.9,0.0747105,0.0743497,3.75942,29,0.00299136,10,0.000279511,-2.42488,0.412877,0.1429,20.9256,0.0743497,
2,1,0,1,0,56329.9,0.0762101,0.0758295,3.78727,29,0.00308606,10,0.000287186,-2.42167,0.371272,0.158913,23.4923,0.0758295,
2,1,0,1,0,56330,0.0777042,0.0773402,3.81373,29,0.00318113,10,0.000294955,-2.41865,0.405754,0.145408,21.6998,0.0773402,
2,1,0,1,0,56330,0.0792037,0.0788459,3.85212,29,0.0032774,10,0.000303724,-2.4143,0.441139,0.133745,20.0962,0.0788459,
2,1,0,1,0,56330,0.0807046,0.0803188,3.88873,29,0.00337448,10,0.000312339,-2.41019,0.501562,0.117633,17.8031,0.0803188,
2,1,0,1,0,56330,0.0821988,0.0818592,3.90911,29,0.00347188,10,0.000319997,-2.40792,0.458134,0.128783,19.6426,0.0818592,
2,1,0,1,0,56330.1,0.0836983,0.083353,3.9345,29,0.00357033,10,0.000327953,-2.40511,0.460683,0.128071,19.702,0.083353,
2,1,0,1,0,56330.1,0.0851979,0.0848296,3.96283,29,0.00366951,10,0.000336165,-2.402,0.481659,0.122493,18.975,0.0848296,
2,1,0,1,0,56330.1,0.0866921,0.0863153,3.99516,29,0.00376904,10,0.000344843,-2.39847,0.512018,0.11523,17.9662,0.0863153,
2,1,0,1,0,56330.1,0.0881929,0.0878126,4.02463,29,0.00386965,10,0.000353413,-2.39527,0.510091,0.115666,18.1782,0.0878126,
2,1,0,1,0,56330.2,0.0896937,0.0892879,4.04683,29,0.0039709,10,0.000361333,-2.39289,0.468166,0.126024,19.9243,0.0892879,
2,1,0,1,0,56330.2,0.0911879,0.0908411,4.0815,29,0.00407248,10,0.000370768,-2.38918,0.479443,0.123059,19.6052,0.0908411,
2,1,0,1,0,56330.2,0.0926861,0.0923467,4.11749,29,0.00417528,10,0.000380237,-2.38537,0.438119,0.134666,21.6127,0.0923467,
2,1,0,1,0,56330.2,0.0941856,0.0938138,4.14793,29,0.00427889,10,0.000389133,-2.38217,0.424853,0.138872,22.4661,0.0938138,
2,1,0,1,0,56330.3,0.0956852,0.0952859,4.16802,29,0.00438322,10,0.000397154,-2.38007,0.399998,0.147501,24.081,0.0952859,
2,1,0,1,0,56330.3,0.0971794,0.0968392,4.21086,29,0.00448803,10,0.000407777,-2.37563,0.373584,0.15793,25.9897,0.0968392,
2,1,0,1,0,56330.3,0.0986802,0.0982916,4.2584,29,0.00459425,10,0.000418565,-2.37075,0.348348,0.169371,28.1432,0.0982916,
2,1,0,1,0,56330.3,0.100181,0.0998472,4.30201,29,0.00470158,10,0.000429543,-2.36633,0.304594,0.193701,32.5178,0.0998472,
2,1,0,1,0,56330.4,0.101675,0.101332,4.34585,29,0.00480963,10,0.000440374,-2.36192,0.300999,0.196014,33.295,0.101332,
2,1,0,1,0,56330.4,0.103175,0.102816,4.40204,29,0.00491932,10,0.000452599,-2.35635,0.281446,0.209631,36.0461,0.102816,
2,1,0,1,0,56330.4,0.104674,0.10438,4.46296,29,0.00503043,10,0.000465842,-2.35038,0.269492,0.218931,38.0934,0.1043797,
2,1,0,1,0,56330.4,0.106169,0.105751,4.51814,29,0.00514253,10,0.000477796,-2.34504,0.252622,0.233551,41.1709,0.105751,
2,1,0,1,0,56330.5,0.107668,0.10733,4.57339,29,0.00525655,10,0.00049086,-2.33976,0.24736,0.238518,42.6413,0.10733,
2,1,0,1,0,56330.5,0.109169,0.108794,4.63862,29,0.00537208,10,0.000504652,-2.33361,0.256412,0.230099,41.7127,0.108794,
2,1,0,1,0,56330.5,0.110663,0.110263,4.71151,29,0.00548886,10,0.000519507,-2.32684,0.236294,0.249689,45.8494,0.110263,
2,1,0,1,0,56330.5,0.112163,0.11179,4.78337,29,0.00560785,10,0.000534732,-2.32027,0.230623,0.255829,47.6945,0.11179,
2,1,0,1,0,56330.6,0.113662,0.113315,4.849,29,0.00572862,10,0.000549466,-2.31435,0.236337,0.249644,47.2596,0.1133154,
2,1,0,1,0,56330.6,0.115162,0.114788,4.9167,29,0.00585108,10,0.000564381,-2.30833,0.258873,0.227911,43.7609,0.114788,
2,1,0,1,0,56330.6,0.116656,0.116281,4.99138,29,0.00597479,10,0.000580401,-2.30178,0.256891,0.229669,44.6736,0.116281,
2,1,0,1,0,56330.6,0.118157,0.11783,5.06189,29,0.00610075,10,0.000596444,-2.29569,0.254982,0.231389,45.6137,0.11783,
2,1,0,1,0,56330.7,0.119658,0.119277,5.11599,29,0.00622834,10,0.00061022,-2.29107,0.288439,0.20455,40.8551,0.119277,
2,1,0,1,0,56330.7,0.121152,0.120828,5.17524,29,0.00635687,10,0.000625312,-2.28607,0.32534,0.181349,36.6497,0.120828,
2,1,0,1,0,56330.7,0.122651,0.122282,5.23493,29,0.00648736,10,0.000640139,-2.28109,0.320768,0.183933,37.5273,0.122282,
2,1,0,1,0,56330.7,0.124151,0.123772,5.28685,29,0.00661925,10,0.000654367,-2.2768,0.342827,0.172098,35.4852,0.123772,
2,1,0,1,0,56330.8,0.125649,0.12533,5.32986,29,0.00675244,10,0.000667989,-2.27328,0.406786,0.145039,30.1828,0.12533,
2,1,0,1,0,56330.8,0.127143,0.126772,5.37006,29,0.00688618,10,0.000680773,-2.27002,0.484411,0.121798,25.5566,0.126772,
2,1,0,1,0,56330.8,0.128644,0.128272,5.41883,29,0.00702145,10,0.000695082,-2.26609,0.515503,0.114451,24.1737,0.128272,
2,1,0,1,0,56330.8,0.130145,0.129813,5.46003,29,0.0071577,10,0.000708784,-2.2628,0.51497,0.11457,24.3669,0.129813,
2,1,0,1,0,56330.9,0.131639,0.1313,5.48348,29,0.0072943,10,0.000719982,-2.26094,0.66965,0.0881058,18.8446,0.1313,
2,1,0,1,0,56330.9,0.133139,0.132797,5.51458,29,0.00743223,10,0.000732317,-2.25849,0.815717,0.072329,15.5702,0.132797,
2,1,0,1,0,56330.9,0.134638,0.134277,5.54175,29,0.00757075,10,0.000744132,-2.25635,0.900085,0.0655494,14.1666,0.1342774,
2,1,0,1,0,56330.9,0.136132,0.135794,5.56565,29,0.00770937,10,0.000755783,-2.25448,0.800343,0.0737184,15.9887,0.135794,
2,1,0,1,0,56331,0.137633,0.137298,5.58179,29,0.00784906,10,0.000766368,-2.25323,1.22318,0.0482351,10.5011,0.137298,
2,1,0,1,0,56331,0.139133,0.138801,5.59983,29,0.00798918,10,0.000777262,-2.25183,2.22637,0.0265005,5.78061,0.138801,
2,1,0,1,0,56331,0.140627,0.140261,5.60599,29,0.00812893,10,0.000786299,-2.25135,11.6269,0.00507446,1.10816,0.1402605,
2,1,0,1,0,56331,0.142126,0.141763,5.60793,29,0.00826938,10,0.000795,-2.2512,48.5509,0.00121522,0.265171,0.141763,
2,1,0,1,0,56331.1,0.143626,0.143277,5.59345,29,0.00840977,10,0.00080141,-2.25232,-1.51582,-0.0389228,-8.48547,0.143277,
2,1,0,1,0,56331.1,0.145125,0.144789,5.56906,29,0.00854978,10,0.000806338,-2.25422,-0.590005,-0.0999991,-21.7108,0.144789,
2,1,0,1,0,56331.1,0.14662,0.146241,5.53408,29,0.00868847,10,0.000809309,-2.25695,-0.414472,-0.14235,-30.6809,0.1462409,
2,1,0,1,0,56331.1,0.14812,0.147767,5.48139,29,0.00882658,10,0.00080997,-2.26111,-0.335782,-0.175709,-37.4992,0.147767,
2,1,0,1,0,56331.2,0.149621,0.149227,5.4193,29,0.00896324,10,0.000808706,-2.26606,-0.255191,-0.231199,-48.7366,0.149227,
2,1,0,1,0,56331.2,0.151116,0.150759,5.33287,29,0.00909748,10,0.000803977,-2.27304,-0.187702,-0.314329,-65.2001,0.150759,
2,1,0,1,0,56331.2,0.152615,0.152233,5.22966,29,0.0092299,10,0.000796128,-2.28153,-0.161845,-0.364547,-74.1419,0.152233,
2,1,0,1,0,56331.2,0.154115,0.153766,5.11019,29,0.00935949,10,0.000785773,-2.29156,-0.140157,-0.420957,-83.7907,0.153766,
2,1,0,1,0,56331.3,0.155614,0.155237,4.97844,29,0.009486,10,0.000772839,-2.30291,-0.12922,-0.456587,-88.6036,0.155237,
2,1,0,1,0,56331.3,0.157107,0.156758,4.84022,29,0.00960865,10,0.000758742,-2.31514,-0.111814,-0.52766,-99.4968,0.156758,
2,1,0,1,0,56331.3,0.158608,0.15829,4.69616,29,0.00972821,10,0.000743354,-2.32826,-0.108285,-0.544859,-99.6543,0.15829,
2,1,0,1,0,56331.3,0.160109,0.159773,4.54187,29,0.00984394,10,0.000725667,-2.34277,-0.103844,-0.568162,-100.647,0.159773,
2,1,0,1,0,56331.4,0.161603,0.161273,4.39159,29,0.00995546,10,0.000708246,-2.35738,-0.100861,-0.584963,-100.173,0.161273,
2,1,0,1,0,56331.4,0.163102,0.162727,4.24212,29,0.0100637,10,0.000690306,-2.37242,-0.103713,-0.56888,-94.2813,0.162727,
2,1,0,1,0,56331.4,0.164602,0.164199,4.10329,29,0.0101684,10,0.000673758,-2.38687,-0.101915,-0.578913,-92.7263,0.164199,
2,1,0,1,0,56331.4,0.166096,0.165697,3.96608,29,0.0102691,10,0.00065717,-2.40164,-0.106386,-0.554586,-85.9883,0.165697,
2,1,0,1,0,56331.5,0.167597,0.167227,3.8413,29,0.010367,10,0.000642371,-2.41552,-0.115754,-0.509703,-76.5685,0.167227,
2,1,0,1,0,56331.5,0.169098,0.168733,3.72647,29,0.0104619,10,0.000628778,-2.4287,-0.113715,-0.518842,-75.619,0.168733,
2,1,0,1,0,56331.5,0.170592,0.170254,3.62089,29,0.0105537,10,0.000616473,-2.44118,-0.122974,-0.479777,-67.8445,0.170254,
2,1,0,1,0,56331.5,0.17209,0.17177,3.51744,29,0.0106433,10,0.00060419,-2.45377,-0.130367,-0.452567,-62.2224,0.17177,
2,1,0,1,0,56331.6,0.17359,0.173187,3.42508,29,0.0107304,10,0.000593179,-2.46533,-0.1404,-0.420229,-56.3398,0.173187,
2,1,0,1,0,56331.6,0.175089,0.174777,3.34575,29,0.0108153,10,0.00058476,-2.47551,-0.146568,-0.402543,-52.6431,0.174777,
2,1,0,1,0,56331.6,0.176583,0.176255,3.26868,29,0.010898,10,0.000576121,-2.48563,-0.148453,-0.397432,-50.7065,0.176255,
2,1,0,1,0,56331.6,0.178084,0.177741,3.19813,29,0.0109792,10,0.00056844,-2.4951,-0.162521,-0.36303,-45.3069,0.177741,
2,1,0,1,0,56331.7,0.179585,0.179222,3.1288,29,0.0110586,10,0.000560749,-2.50462,-0.179634,-0.328446,-40.2208,0.179222,
2,1,0,1,0,56331.7,0.181079,0.180688,3.07161,29,0.0111361,10,0.000555002,-2.51263,-0.186374,-0.316568,-38.0219,0.1806877,
2,1,0,1,0,56331.7,0.182579,0.182244,3.02398,29,0.0112126,10,0.000551102,-2.51942,-0.188517,-0.312969,-36.9101,0.182244,
2,1,0,1,0,56331.7,0.184078,0.183696,2.97333,29,0.0112879,10,0.000546189,-2.52676,-0.228355,-0.25837,-29.9554,0.183696,
2,1,0,1,0,56331.8,0.185578,0.185268,2.92114,29,0.0113619,10,0.000541195,-2.53445,-0.237067,-0.248875,-28.4747,0.185268,
2,1,0,1,0,56331.8,0.187072,0.186713,2.8828,29,0.0114345,10,0.000538256,-2.54018,-0.236909,-0.249041,-28.0533,0.186713,
2,1,0,1,0,56331.8,0.188573,0.188203,2.84898,29,0.0115065,10,0.000536188,-2.54531,-0.258514,-0.228227,-25.3709,0.188203,
2,1,0,1,0,56331.8,0.190072,0.189672,2.81378,29,0.0115776,10,0.000533695,-2.55071,-0.296222,-0.199175,-21.8651,0.189672,
2,1,0,1,0,56331.9,0.191567,0.191222,2.77529,29,0.0116476,10,0.000530694,-2.55669,-0.345873,-0.170583,-18.522,0.191222,
2,1,0,1,0,56331.9,0.193066,0.192694,2.74747,29,0.011717,10,0.000529422,-2.56107,-0.333215,-0.177063,-19.0062,0.1926944,
2,1,0,1,0,56331.9,0.194566,0.194198,2.72517,29,0.0117858,10,0.000529223,-2.56461,-0.364199,-0.162,-17.2315,0.194198,
2,1,0,1,0,56331.9,0.19606,0.195721,2.70114,29,0.0118537,10,0.00052867,-2.56845,-0.375324,-0.157198,-16.5556,0.195721,
2,1,0,1,0,56332,0.197561,0.197241,2.67138,29,0.0119212,10,0.000526905,-2.57326,-0.412691,-0.142964,-14.9456,0.197241,
2,1,0,1,0,56332,0.199062,0.1987,2.65415,29,0.0119881,10,0.000527379,-2.57608,-0.397339,-0.148488,-15.3863,0.1987,
2,1,0,1,0,56332,0.200556,0.200184,2.63642,29,0.0120542,10,0.000527767,-2.57899,-0.455644,-0.129487,-13.2992,0.2001836,
2,1,0,1,0,56332,0.202055,0.201732,2.62022,29,0.0121202,10,0.000528582,-2.58166,-0.478298,-0.123354,-12.5718,0.201732,
2,1,0,1,0,56332.1,0.203553,0.20318,2.59433,29,0.0121857,10,0.000527116,-2.58597,-0.577896,-0.102094,-10.3556,0.20318,
2,1,0,1,0,56332.1,0.205053,0.204698,2.57464,29,0.0122508,10,0.000527024,-2.58928,-0.625559,-0.0943157,-9.53091,0.204698,
2,1,0,1,0,56332.1,0.206547,0.206256,2.56522,29,0.0123152,10,0.000529093,-2.59088,-0.657888,-0.0896809,-8.98929,0.206256,
2,1,0,1,0,56332.1,0.208048,0.207708,2.56219,29,0.0123797,10,0.000532187,-2.59139,-0.721097,-0.0818198,-8.15522,0.2077076,
2,1,0,1,0,56332.2,0.209549,0.209168,2.54307,29,0.0124438,10,0.00053193,-2.59464,-0.593664,-0.0993829,-9.86218,0.209168,
2,1,0,1,0,56332.2,0.211043,0.210704,2.52801,29,0.0125073,10,0.000532661,-2.59722,-0.714234,-0.082606,-8.16446,0.210704,
2,1,0,1,0,56332.2,0.212543,0.212195,2.51807,29,0.0125708,10,0.000534323,-2.59893,-0.765681,-0.0770556,-7.57462,0.212195,
2,1,0,1,0,56332.2,0.214042,0.213689,2.50942,29,0.012634,10,0.000536236,-2.60043,-1.15906,-0.0509032,-4.98587,0.213689,
2,1,0,1,0,56332.3,0.215536,0.215157,2.49743,29,0.0126967,10,0.000537339,-2.60251,-0.893054,-0.0660654,-6.44653,0.215157,
2,1,0,1,0,56332.3,0.217036,0.21668,2.48243,29,0.0127593,10,0.000537893,-2.60512,-0.879907,-0.0670525,-6.52075,0.2166799,
2,1,0,1,0,56332.3,0.218537,0.218165,2.48,29,0.0128217,10,0.000541049,-2.60555,-1.08848,-0.0542041,-5.24396,0.218165,
2,1,0,1,0,56332.3,0.220031,0.219704,2.47193,29,0.0128837,10,0.000543095,-2.60696,-1.29973,-0.0453941,-4.37352,0.219704,
2,1,0,1,0,56332.4,0.22153,0.221202,2.46171,29,0.0129457,10,0.000544534,-2.60876,-1.34203,-0.0439634,-4.2227,0.221202,
2,1,0,1,0,56332.4,0.22303,0.222707,2.44928,29,0.0130075,10,0.00054547,-2.61096,-1.0592,-0.0557023,-5.33968,0.222707,
2,1,0,1,0,56332.4,0.224529,0.224171,2.44579,29,0.0130691,10,0.000548274,-2.61158,-0.818777,-0.0720587,-6.87828,0.224171,
2,1,0,1,0,56332.4,0.226024,0.22568,2.43867,29,0.0131303,10,0.000550357,-2.61285,-2.15754,-0.027346,-2.60189,0.22568,
2,1,0,1,0,56332.5,0.227525,0.227194,2.43494,29,0.0131915,10,0.000553203,-2.61351,-1.36849,-0.0431131,-4.09518,0.227194,
2,1,0,1,0,56332.5,0.229025,0.228691,2.42289,29,0.0132526,10,0.000554093,-2.61567,-1.26599,-0.046604,-4.41347,0.228691,
2,1,0,1,0,56332.5,0.23052,0.230136,2.42129,29,0.0133133,10,0.000557226,-2.61595,-0.997299,-0.0591598,-5.59003,0.230136,
2,1,0,1,0,56332.5,0.232019,0.231645,2.41502,29,0.0133741,10,0.000559426,-2.61708,-2.33316,-0.0252876,-2.38138,0.231645,
2,1,0,1,0,56332.6,0.233519,0.233182,2.40931,29,0.0134347,10,0.000561808,-2.61811,-1.65382,-0.035675,-3.35319,0.2331817,
2,1,0,1,0,56332.6,0.235018,0.234678,2.40154,29,0.0134953,10,0.00056359,-2.61951,-1.1863,-0.0497346,-4.66595,0.234678,
2,1,0,1,0,56332.6,0.236511,0.236155,2.39882,29,0.0135553,10,0.000566493,-2.62,-1.7574,-0.0335722,-3.14226,0.236155,
2,1,0,1,0,56332.6,0.238012,0.237685,2.39347,29,0.0136155,10,0.000568892,-2.62097,-3.8637,-0.0152704,-1.42462,0.237685,
2,1,0,1,0,56332.7,0.239513,0.239198,2.38508,29,0.0136757,10,0.000570506,-2.6225,-3.75058,-0.0157309,-1.4662,0.2391984,
2,1,0,1,0,56332.7,0.241007,0.240601,2.38149,29,0.0137354,10,0.000572988,-2.62315,-1.54564,-0.0381719,-3.55385,0.240601,
2,1,0,1,0,56332.7,0.242506,0.242183,2.37956,29,0.0137953,10,0.00057629,-2.6235,-1.1337,-0.0520418,-4.83536,0.242183,
2,1,0,1,0,56332.7,0.244006,0.243633,2.37528,29,0.0138551,10,0.000578696,-2.62428,-5.57134,-0.0105899,-0.981397,0.243633,
2,1,0,1,0,56332.8,0.2455,0.245208,2.37105,29,0.0139145,10,0.0005814,-2.62506,-3.21457,-0.018354,-1.69924,0.245208,
2,1,0,1,0,56332.8,0.247001,0.246638,2.36628,29,0.0139741,10,0.000583616,-2.62593,-1.42924,-0.0412807,-3.81224,0.246638,
2,1,0,1,0,56332.8,0.248502,0.248172,2.36297,29,0.0140336,10,0.000586423,-2.62654,-1.15459,-0.0511004,-4.70886,0.248172,
2,1,0,1,0,56332.8,0.249995,0.249678,2.36156,29,0.0140927,10,0.000589628,-2.6268,-4.3051,-0.0137047,-1.26205,0.249678,
2,1,0,1,0,56332.9,0.251494,0.25117,2.35305,29,0.0141519,10,0.000591016,-2.62837,-2.95654,-0.0199558,-1.83432,0.25117,
2,1,0,1,0,56332.9,0.252994,0.252615,2.34916,29,0.0142111,10,0.000593434,-2.62909,-1.1969,-0.0492938,-4.51764,0.252615,
2,1,0,1,0,56332.9,0.254493,0.254153,2.34752,29,0.0142702,10,0.000596629,-2.62939,-1.04114,-0.0566686,-5.1885,0.254153,
2,1,0,1,0,56332.9,0.255988,0.255657,2.34469,29,0.0143288,10,0.000599437,-2.62991,-3.14115,-0.0187829,-1.71773,0.255657,
2,1,0,1,0,56333,0.257488,0.257148,2.34006,29,0.0143877,10,0.000601742,-2.63077,9.90602,0.00595597,0.54365,0.257148,
2,1,0,1,0,56333,0.258989,0.258645,2.33499,29,0.0144465,10,0.000603934,-2.63171,-1.55989,-0.0378232,-3.44712,0.258645,
2,1,0,1,0,56333,0.260483,0.260131,2.3365,29,0.014505,10,0.000607795,-2.63143,-1.02504,-0.0575588,-5.23663,0.260131,
2,1,0,1,0,56333,0.261983,0.261607,2.32818,29,0.0145636,10,0.000609067,-2.63298,-2.51157,-0.0234913,-2.13374,0.261607,
2,1,0,1,0,56333.1,0.263482,0.263173,2.32637,29,0.0146221,10,0.000612236,-2.63332,11.4274,0.00516303,0.468302,0.263173,
2,1,0,1,0,56333.1,0.264982,0.264612,2.32107,29,0.0146805,10,0.000614183,-2.63431,-2.17255,-0.027157,-2.46355,0.264612,
2,1,0,1,0,56333.1,0.266476,0.26612,2.31581,29,0.0147386,10,0.000616283,-2.6353,-1.41447,-0.0417117,-3.77266,0.26612,
2,1,0,1,0,56333.1,0.267976,0.267604,2.31318,29,0.0147968,10,0.000619015,-2.63579,-3.82298,-0.015433,-1.39351,0.267604,
2,1,0,1,0,56333.2,0.269477,0.269138,2.30896,29,0.0148549,10,0.00062143,-2.63658,-23.0058,-0.00256457,-0.231338,0.269138,
2,1,0,1,0,56333.2,0.270971,0.270633,2.30834,29,0.0149128,10,0.000624713,-2.6367,-2.35966,-0.0250036,-2.25168,0.270633,
2,1,0,1,0,56333.2,0.27247,0.272108,2.30525,29,0.0149708,10,0.000627278,-2.63728,-1.56594,-0.0376771,-3.38545,0.272108,
2,1,0,1,0,56333.2,0.27397,0.273609,2.29998,29,0.0150287,10,0.000629293,-2.63828,-1.86806,-0.0315835,-2.83799,0.2736086,
2,1,0,1,0,56333.3,0.275464,0.275091,2.29515,29,0.0150862,10,0.000631377,-2.63919,-2.23622,-0.0263838,-2.36837,0.275091,
2,1,0,1,0,56333.3,0.276965,0.276614,2.29215,29,0.015144,10,0.00063404,-2.63976,-1.40551,-0.0419776,-3.75883,0.276614,
2,1,0,1,0,56333.3,0.278466,0.278119,2.29313,29,0.0152016,10,0.000637765,-2.63957,-1.23993,-0.0475834,-4.25223,0.278119,
2,1,0,1,0,56333.3,0.27996,0.279637,2.28952,29,0.0152589,10,0.000640237,-2.64025,-2.52376,-0.0233778,-2.08578,0.2796374,
2,1,0,1,0,56333.4,0.281458,0.281097,2.27949,29,0.0153164,10,0.000640757,-2.64216,-3.34888,-0.0176178,-1.571,0.281097,
2,1,0,1,0,56333.4,0.282958,0.282601,2.27786,29,0.0153737,10,0.000643727,-2.64247,-4.12078,-0.0143177,-1.27534,0.282601,
2,1,0,1,0,56333.4,0.284457,0.284113,2.27819,29,0.015431,10,0.000647262,-2.64241,-1.68909,-0.0349301,-3.09966,0.284113,
2,1,0,1,0,56333.4,0.285951,0.285611,2.274,29,0.015488,10,0.000649482,-2.64321,-1.65719,-0.0356025,-3.15562,0.285611,
2,1,0,1,0,56333.5,0.287452,0.287082,2.26559,29,0.0155451,10,0.000650411,-2.64482,-2.86343,-0.0206047,-1.82421,0.287082,
2,1,0,1,0,56333.5,0.288953,0.288585,2.26069,29,0.015602,10,0.0006524,-2.64576,-4.38136,-0.0134661,-1.19006,0.288585,
2,1,0,1,0,56333.5,0.290447,0.29013,2.26263,29,0.0156587,10,0.000656456,-2.64539,-1.28078,-0.0460657,-4.06462,0.29013,
2,1,0,1,0,56333.5,0.291947,0.291593,2.25996,29,0.0157156,10,0.00065899,-2.6459,-1.9343,-0.030502,-2.68369,0.291593,
2,1,0,1,0,56333.6,0.293446,0.293126,2.24847,29,0.0157723,10,0.000659083,-2.64811,-2.38318,-0.0247568,-2.17859,0.293126,
2,1,0,1,0,56333.6,0.29494,0.294572,2.24654,29,0.0158287,10,0.000661768,-2.64849,-1.95231,-0.0302207,-2.66,0.294572,
2,1,0,1,0,56333.6,0.29644,0.296081,2.25085,29,0.0158852,10,0.000666434,-2.64765,-1.71792,-0.0343439,-3.00864,0.296081,
2,1,0,1,0,56333.6,0.297941,0.297671,2.24539,29,0.0159417,10,0.000668387,-2.64871,-2.90212,-0.0203299,-1.7754,0.297671,
2,1,0,1,0,56333.7,0.29944,0.299107,2.23623,29,0.0159981,10,0.000668872,-2.65048,-0.0097235,-6.06777,-432.723,0.299107,
2,1,0,1,0,56333.7,0.299736,0.299387,1.89868,29,0.0160275,10,0.000568441,-2.72155,0.00239727,24.6113,1258.42,0.2993868,
2,1,0,1,0,56333.7,0.298238,0.297908,0.898643,29,0.0160604,10,0.000267713,-3.04641,0.00383048,15.4028,533.653,0.297908,
2,1,0,1,0,56333.7,0.296744,0.296357,0.358917,29,0.016075,10,0.000106368,-3.44501,0.00322609,18.2884,300.558,0.296357,
2,1,0,1,0,56333.7,0.295243,0.294899,0.0194309,29,0.016079,10,5.73016e-06,-4.71151,0.0145967,4.04201,194.998,0.294899,
2,0,0,1,0,56333.8,0.293742,0.293406,-0.20595,29,0.0160761,10,-6.0427e-05,-3.68624,-0.00719527,-8.19983,132.905,0.293406,
2,0,0,1,0,56333.8,0.292248,0.291944,-0.374491,29,0.0160683,10,-0.00010933,-3.42656,-0.00706384,-8.3524,96.7217,0.291944,
2,0,0,1,0,56333.8,0.290748,0.290384,-0.505389,29,0.0160569,10,-0.000146757,-3.29637,-0.0140517,-4.19879,75.4688,0.290384,
2,0,0,1,0,56333.8,0.289249,0.288882,-0.603342,29,0.0160427,10,-0.000174295,-3.21944,-0.0212494,-2.77656,62.5842,0.288882,
2,0,0,1,0,56333.9,0.287754,0.287369,-0.678765,29,0.0160263,10,-0.000195056,-3.16828,-0.0295188,-1.99873,51.9017,0.287369,
2,0,0,1,0,56333.9,0.286254,0.285888,-0.748904,29,0.016008,10,-0.000214102,-3.12557,-0.0400057,-1.47479,42.512,0.285888,
2,0,0,1,0,56333.9,0.284754,0.284399,-0.810394,29,0.0159881,10,-0.000230476,-3.0913,-0.0483892,-1.21928,38.0121,0.284399,
2,0,0,1,0,56333.9,0.28326,0.282902,-0.86338,29,0.0159669,10,-0.000244252,-3.0638,-0.0584919,-1.00869,33.5389,0.282902,
2,0,0,1,0,56334,0.28176,0.281374,-0.903807,29,0.0159444,10,-0.000254308,-3.04392,-0.0737198,-0.800328,28.1298,0.281374,
2,0,0,1,0,56334,0.280261,0.279871,-0.942192,29,0.0159208,10,-0.000263693,-3.02586,-0.0851765,-0.692679,25.458,0.279871,
2,0,0,1,0,56334,0.278761,0.27838,-0.985073,29,0.0158963,10,-0.000274224,-3.00653,-0.0949055,-0.621671,23.7595,0.27838,
2,0,0,1,0,56334,0.277267,0.276912,-1.01839,29,0.015871,10,-0.000282004,-2.99209,-0.100005,-0.589969,23.3846,0.276912,
2,0,0,1,0,56334.1,0.275766,0.275363,-1.04778,29,0.0158448,10,-0.000288518,-2.97973,-0.125767,-0.469121,19.1048,0.275363,
2,0,0,1,0,56334.1,0.274265,0.273932,-1.07851,29,0.0158177,10,-0.000295438,-2.96718,-0.143911,-0.409977,17.2244,0.273932,
2,0,0,1,0,56334.1,0.272771,0.272398,-1.11104,29,0.0157901,10,-0.000302644,-2.95427,-0.135836,-0.434348,18.7395,0.272398,
2,0,0,1,0,56334.1,0.271272,0.270884,-1.13655,29,0.0157617,10,-0.000307873,-2.94441,-0.129393,-0.455975,20.1336,0.270884,
2,0,0,1,0,56334.2,0.269772,0.269447,-1.15902,29,0.0157326,10,-0.000312296,-2.93591,-0.145534,-0.405405,18.3346,0.269447,
2,0,0,1,0,56334.2,0.268273,0.267866,-1.18727,29,0.0157029,10,-0.000318028,-2.92545,-0.185603,-0.317883,14.7102,0.267866,
2,0,0,1,0,56334.2,0.26678,0.266395,-1.20647,29,0.0156727,10,-0.000321399,-2.91848,-0.18302,-0.322369,15.156,0.2663953,
2,0,0,1,0,56334.2,0.265279,0.264886,-1.22766,29,0.0156419,10,-0.00032519,-2.91092,-0.184125,-0.320435,15.3212,0.264886,
2,0,0,1,0,56334.3,0.263778,0.263448,-1.24682,29,0.0156105,10,-0.000328473,-2.90419,-0.214221,-0.275417,13.4179,0.263448,
2,0,0,1,0,56334.3,0.262284,0.261925,-1.26775,29,0.0155788,10,-0.000332057,-2.89696,-0.287315,-0.20535,10.1391,0.261925,
2,0,0,1,0,56334.3,0.260784,0.26049,-1.28805,29,0.0155464,10,-0.000335525,-2.89007,-0.243624,-0.242177,12.1803,0.26049,
2,0,0,1,0,56334.3,0.259285,0.25896,-1.30569,29,0.0155137,10,-0.000338121,-2.88416,-0.203156,-0.290418,14.8127,0.25896,
2,0,0,1,0,56334.4,0.257791,0.257439,-1.32438,29,0.0154805,10,-0.000340948,-2.87799,-0.21823,-0.270357,13.9762,0.257439,
2,0,0,1,0,56334.4,0.25629,0.255977,-1.34124,29,0.0154467,10,-0.000343327,-2.87249,-0.291618,-0.20232,10.6176,0.255977,
2,0,0,1,0,56334.4,0.254789,0.254444,-1.36537,29,0.0154125,10,-0.000347411,-2.86475,-0.307203,-0.192056,10.1874,0.254444,
2,0,0,1,0,56334.4,0.253296,0.252894,-1.37997,29,0.015378,10,-0.000348987,-2.86013,-0.254505,-0.231822,12.4572,0.252894,
2,0,0,1,0,56334.5,0.251797,0.251461,-1.38932,29,0.015343,10,-0.00034936,-2.8572,-0.269823,-0.218662,11.9051,0.251461,
2,0,0,1,0,56334.5,0.250297,0.249953,-1.40541,29,0.0153076,10,-0.000351286,-2.8522,-0.339014,-0.174034,9.56416,0.249953,
2,0,0,1,0,56334.5,0.248797,0.248397,-1.42583,29,0.0152718,10,-0.000354171,-2.84593,-0.352872,-0.167199,9.26376,0.2483974,
2,0,0,1,0,56334.5,0.247303,0.246962,-1.43908,29,0.0152357,10,-0.000355399,-2.84191,-0.282633,-0.208751,11.7077,0.246962,
2,0,0,1,0,56334.6,0.245802,0.245413,-1.4532,29,0.0151992,10,-0.000356634,-2.83767,-0.301336,-0.195795,11.0913,0.245413,
2,0,0,1,0,56334.6,0.244302,0.243939,-1.46899,29,0.0151622,10,-0.000358345,-2.83298,-0.39435,-0.149613,8.56795,0.2439391,
2,0,0,1,0,56334.6,0.242807,0.242428,-1.48904,29,0.015125,10,-0.000360985,-2.82709,-0.426793,-0.13824,8.00449,0.242428,
2,0,0,1,0,56334.6,0.241308,0.240945,-1.49831,29,0.0150874,10,-0.000361011,-2.8244,-0.328186,-0.179776,10.5129,0.240945,
2,0,0,1,0,56334.7,0.239808,0.239416,-1.50443,29,0.0150494,10,-0.000360185,-2.82263,-0.308495,-0.191251,11.2775,0.239416,
2,0,0,1,0,56334.7,0.238309,0.237934,-1.5243,29,0.0150111,10,-0.000362683,-2.81693,-0.463246,-0.127362,7.57835,0.237934,
2,0,0,1,0,56334.7,0.236815,0.236431,-1.53915,29,0.0149726,10,-0.000363902,-2.81272,-0.489941,-0.120423,7.21489,0.236431,
2,0,0,1,0,56334.7,0.235315,0.234951,-1.54866,29,0.0149336,10,-0.000363859,-2.81004,-0.364125,-0.162032,9.79566,0.234951,
2,0,0,1,0,56334.8,0.233814,0.233433,-1.56085,29,0.0148943,10,-0.000364354,-2.80664,-0.456317,-0.129296,7.89525,0.233433,
2,0,0,1,0,56334.8,0.23232,0.231923,-1.57791,29,0.0148548,10,-0.000365954,-2.80192,-0.449528,-0.131249,8.07553,0.231923,
2,0,0,1,0,56334.8,0.230821,0.230452,-1.5934,29,0.0148148,10,-0.000367202,-2.79767,-0.50126,-0.117703,7.2876,0.230452,
2,0,0,1,0,56334.8,0.229321,0.228949,-1.60239,29,0.0147745,10,-0.000366867,-2.79523,-0.434478,-0.135795,8.49972,0.228949,
2,0,0,1,0,56334.9,0.227827,0.227492,-1.61231,29,0.014734,10,-0.000366789,-2.79255,-0.520561,-0.113339,7.16336,0.227492,
2,0,0,1,0,56334.9,0.226326,0.225983,-1.62301,29,0.0146932,10,-0.000366773,-2.78968,-0.59959,-0.0984006,6.24873,0.2259827,
2,0,0,1,0,56334.9,0.224825,0.224491,-1.64373,29,0.014652,10,-0.000369001,-2.78417,-0.545799,-0.108098,6.89441,0.224491,
2,0,0,1,0,56334.9,0.223331,0.223006,-1.65373,29,0.0146106,10,-0.000368791,-2.78154,-0.442012,-0.13348,8.5905,0.223006,
2,0,0,1,0,56335,0.221831,0.221477,-1.65848,29,0.0145689,10,-0.000367317,-2.78029,-0.457645,-0.128921,8.35194,0.2214773,
2,0,0,1,0,56335,0.220333,0.220021,-1.67026,29,0.0145268,10,-0.000367491,-2.77722,-0.430913,-0.136919,8.93983,0.220021,
2,0,0,1,0,56335,0.218834,0.218504,-1.69224,29,0.0144844,10,-0.000369762,-2.77154,-0.494689,-0.119267,7.85554,0.218504,
2,0,0,1,0,56335,0.217339,0.217007,-1.70217,29,0.0144417,10,-0.000369382,-2.769,-0.504201,-0.117017,7.75681,0.217007,
2,0,0,1,0,56335.1,0.215839,0.215459,-1.70654,29,0.0143987,10,-0.00036769,-2.76788,-0.474621,-0.12431,8.31059,0.215459,
2,0,0,1,0,56335.1,0.214338,0.213969,-1.71867,29,0.0143554,10,-0.000367741,-2.76481,-0.542905,-0.108675,7.30265,0.213969,
2,0,0,1,0,56335.1,0.212844,0.212487,-1.73885,29,0.014312,10,-0.000369483,-2.75974,-0.464743,-0.126952,8.58263,0.212487,
2,0,0,1,0,56335.1,0.211344,0.210983,-1.74812,29,0.014268,10,-0.000368824,-2.75743,-0.480135,-0.122882,8.37448,0.210983,
2,0,0,1,0,56335.2,0.209845,0.209447,-1.75155,29,0.0142238,10,-0.000366857,-2.75658,-0.488216,-0.120848,8.30229,0.209447,
2,0,0,1,0,56335.2,0.20835,0.207953,-1.76568,29,0.0141796,10,-0.000367178,-2.75309,-0.534336,-0.110417,7.64961,0.207953,
2,0,0,1,0,56335.2,0.206851,0.206452,-1.78927,29,0.0141348,10,-0.000369399,-2.74732,-0.507,-0.116371,8.08564,0.206452,
2,0,0,1,0,56335.2,0.20535,0.204991,-1.79893,29,0.0140895,10,-0.000368765,-2.74498,-0.465787,-0.126667,8.86076,0.204991,
2,0,0,1,0,56335.3,0.203856,0.203487,-1.80574,29,0.0140442,10,-0.000367445,-2.74334,-0.564268,-0.10456,7.38282,0.203487,
2,0,0,1,0,56335.3,0.202356,0.201961,-1.81561,29,0.0139985,10,-0.000366683,-2.74098,-0.620118,-0.0951431,6.77337,0.201961,
2,0,0,1,0,56335.3,0.200857,0.200489,-1.82944,29,0.0139526,10,-0.000366782,-2.73768,-0.552386,-0.106809,7.62375,0.200489,
2,0,0,1,0,56335.3,0.199357,0.199002,-1.84434,29,0.0139062,10,-0.000367028,-2.73416,-0.479645,-0.123008,8.84317,0.199002,
2,0,0,1,0,56335.4,0.197863,0.19747,-1.8518,29,0.0138598,10,-0.000365674,-2.73241,-0.495269,-0.119127,8.61663,0.19747,
2,0,0,1,0,56335.4,0.196362,0.196,-1.86534,29,0.0138129,10,-0.000365607,-2.72924,-0.77349,-0.0762776,5.56193,0.196,
2,0,0,1,0,56335.4,0.194861,0.194497,-1.87879,29,0.0137657,10,-0.000365419,-2.72612,-0.562062,-0.104971,7.68821,0.194497,
2,0,0,1,0,56335.4,0.193367,0.192981,-1.89746,29,0.0137184,10,-0.000366172,-2.72183,-0.477469,-0.123568,9.12624,0.192981,
2,0,0,1,0,56335.5,0.191868,0.191482,-1.90077,29,0.0136705,10,-0.000363963,-2.72107,-0.4733,-0.124657,9.26891,0.191482,
2,0,0,1,0,56335.5,0.190368,0.189971,-1.91557,29,0.0136223,10,-0.000363901,-2.7177,-0.494199,-0.119385,8.94676,0.189971,
2,0,0,1,0,56335.5,0.18887,0.188484,-1.92991,29,0.0135738,10,-0.000363756,-2.71446,-0.541349,-0.108987,8.2043,0.188484,
2,0,0,1,0,56335.5,0.187376,0.187008,-1.9474,29,0.0135251,10,-0.000364179,-2.71054,-0.474833,-0.124254,9.43424,0.187008,
2,0,0,1,0,56335.6,0.185875,0.185503,-1.95682,29,0.0134759,10,-0.000362995,-2.70845,-0.57379,-0.102825,7.85961,0.185503,
2,0,0,1,0,56335.6,0.184374,0.184034,-1.9693,29,0.0134264,10,-0.000362418,-2.70569,-0.674194,-0.0875119,6.72732,0.184034,
2,0,0,1,0,56335.6,0.18288,0.182481,-1.98904,29,0.0133768,10,-0.000362963,-2.70136,-0.478229,-0.123372,9.55988,0.182481,
2,0,0,1,0,56335.6,0.18138,0.180989,-2.00452,29,0.0133266,10,-0.000362796,-2.69799,-0.444894,-0.132616,10.3484,0.180989,
2,0,0,1,0,56335.7,0.179881,0.179538,-2.01284,29,0.0132759,10,-0.000361382,-2.69619,-0.40684,-0.14502,11.414,0.179538,
2,0,0,1,0,56335.7,0.178387,0.17799,-2.02945,29,0.0132251,10,-0.000361222,-2.69262,-0.515769,-0.114392,9.079,0.17799,
2,0,0,1,0,56335.7,0.176886,0.176538,-2.0523,29,0.0131737,10,-0.000362308,-2.68776,-0.468466,-0.125943,10.0675,0.1765375,
2,0,0,1,0,56335.7,0.175385,0.174977,-2.06945,29,0.0131219,10,-0.000362106,-2.68415,-0.376937,-0.156525,12.5882,0.174977,
2,0,0,1,0,56335.8,0.173892,0.173512,-2.08079,29,0.0130699,10,-0.000361042,-2.68177,-0.365684,-0.161341,13.1268,0.173512,
2,0,0,1,0,56335.8,0.172392,0.172012,-2.09955,29,0.0130172,10,-0.000361147,-2.67787,-0.426306,-0.138398,11.3431,0.172012,
2,0,0,1,0,56335.8,0.170893,0.170544,-2.11663,29,0.0129641,10,-0.000360978,-2.67435,-0.439141,-0.134353,11.1105,0.170544,
2,0,0,1,0,56335.8,0.169393,0.169023,-2.13791,29,0.0129105,10,-0.000361356,-2.67001,-0.328199,-0.179769,14.9749,0.169023,
2,0,0,1,0,56335.9,0.167899,0.16754,-2.15834,29,0.0128566,10,-0.000361609,-2.66588,-0.34421,-0.171407,14.4655,0.16754,
2,0,0,1,0,56335.9,0.166398,0.166023,-2.18006,29,0.0128019,10,-0.000361941,-2.66153,-0.375801,-0.156998,13.3652,0.1660234,
2,0,0,1,0,56335.9,0.164898,0.16453,-2.20409,29,0.0127467,10,-0.000362639,-2.65677,-0.354089,-0.166625,14.3299,0.16453,
2,0,0,1,0,56335.9,0.163403,0.163055,-2.22925,29,0.0126912,10,-0.00036349,-2.65184,-0.280687,-0.210198,18.2709,0.163055,
2,0,0,1,0,56336,0.161904,0.161493,-2.25203,29,0.0126347,10,-0.000363687,-2.64743,-0.289091,-0.204088,17.9771,0.161493,
2,0,0,1,0,56336,0.160404,0.160033,-2.27919,29,0.0125776,10,-0.000364746,-2.64222,-0.301479,-0.195702,17.4316,0.160033,
2,0,0,1,0,56336,0.158905,0.158528,-2.30956,29,0.0125198,10,-0.00036613,-2.63647,-0.313866,-0.187978,16.9429,0.158528,
2,0,0,1,0,56336,0.157411,0.157058,-2.34444,29,0.0124615,10,-0.000368213,-2.62996,-0.241337,-0.244472,22.3753,0.157058,
2,0,0,1,0,56336.1,0.155911,0.155532,-2.37326,29,0.0124022,10,-0.000369117,-2.62465,-0.226231,-0.260796,24.2211,0.155532,
2,0,0,1,0,56336.1,0.15441,0.154046,-2.41157,29,0.0123419,10,-0.000371492,-2.6177,-0.233097,-0.253113,23.829,0.154046,
2,0,0,1,0,56336.1,0.152916,0.152548,-2.45367,29,0.012281,10,-0.000374303,-2.61018,-0.212217,-0.278017,26.6442,0.152548,
2,0,0,1,0,56336.1,0.151417,0.151003,-2.49814,29,0.0122188,10,-0.000377227,-2.60238,-0.181988,-0.324196,31.5992,0.151003,
2,0,0,1,0,56336.2,0.149917,0.149578,-2.53895,29,0.0121554,10,-0.000379773,-2.59535,-0.164927,-0.357734,35.541,0.149578,
2,0,0,1,0,56336.2,0.148423,0.148148,-2.59516,29,0.012091,10,-0.000384468,-2.58584,-0.162418,-0.363261,36.8845,0.148148,
2,0,0,1,0,56336.2,0.146922,0.146528,-2.65582,29,0.012025,10,-0.000389151,-2.5758,-0.156528,-0.376929,39.0543,0.146528,
2,0,0,1,0,56336.2,0.145421,0.145058,-2.72003,29,0.0119574,10,-0.000394561,-2.56543,-0.136355,-0.432695,45.9269,0.145058,
2,0,0,1,0,56336.3,0.143927,0.143559,-2.78353,29,0.0118885,10,-0.000399602,-2.5554,-0.121724,-0.484705,52.8482,0.143559,
2,0,0,1,0,56336.3,0.142429,0.142086,-2.86593,29,0.0118174,10,-0.000407208,-2.54273,-0.120645,-0.489037,54.8704,0.142086,
2,0,0,1,0,56336.3,0.140929,0.140588,-2.95905,29,0.0117442,10,-0.000416006,-2.52885,-0.115575,-0.510491,58.8962,0.140588,
2,0,0,1,0,56336.3,0.13943,0.139063,-3.04305,29,0.0116688,10,-0.000423176,-2.51669,-0.108337,-0.544596,64.7858,0.139063,
2,0,0,1,0,56336.4,0.137935,0.137574,-3.14078,29,0.0115914,10,-0.000432089,-2.50296,-0.105758,-0.557875,68.5852,0.137574,
2,0,0,1,0,56336.4,0.136435,0.136019,-3.24654,29,0.0115111,10,-0.000441591,-2.48858,-0.102545,-0.575356,73.1741,0.136019,
2,0,0,1,0,56336.4,0.134934,0.134518,-3.36919,29,0.011428,10,-0.000453215,-2.47247,-0.101946,-0.578738,75.9057,0.134518,
2,0,0,1,0,56336.4,0.13344,0.133084,-3.48255,29,0.0113422,10,-0.000463473,-2.4581,-0.0996047,-0.592342,80.5668,0.133084,
2,0,0,1,0,56336.5,0.13194,0.131556,-3.60095,29,0.0112533,10,-0.000473725,-2.44358,-0.0992586,-0.594407,83.7217,0.131556,
2,0,0,1,0,56336.5,0.13044,0.130055,-3.73257,29,0.0111611,10,-0.000485438,-2.42799,-0.102803,-0.573914,83.6016,0.130055,
2,0,0,1,0,56336.5,0.128941,0.128534,-3.86119,29,0.0110658,10,-0.000496296,-2.41328,-0.106674,-0.553086,83.1834,0.128534,
2,0,0,1,0,56336.5,0.127447,0.127105,-3.98704,29,0.0109677,10,-0.000506773,-2.39935,-0.110221,-0.535286,83.1543,0.127105,
2,0,0,1,0,56336.6,0.125946,0.12559,-4.10859,29,0.0108661,10,-0.000515997,-2.38631,-0.11078,-0.532586,85.3519,0.12559,
2,0,0,1,0,56336.6,0.124446,0.124058,-4.22974,29,0.0107614,10,-0.000524733,-2.37369,-0.121305,-0.486379,80.2446,0.124058,
2,0,0,1,0,56336.6,0.122952,0.122595,-4.35537,29,0.0106541,10,-0.000533948,-2.36097,-0.127635,-0.462256,78.4451,0.122595,
2,0,0,1,0,56336.6,0.121453,0.121093,-4.47195,29,0.0105434,10,-0.000541523,-2.3495,-0.133647,-0.44146,76.8794,0.121093,
2,0,0,1,0,56336.7,0.119953,0.119586,-4.57556,29,0.0104298,10,-0.000547174,-2.33956,-0.140446,-0.420091,75.1238,0.119586,
2,0,0,1,0,56336.7,0.118459,0.118099,-4.68568,29,0.0103139,10,-0.000553376,-2.32923,-0.150165,-0.3929,71.8722,0.118099,
2,0,0,1,0,56336.7,0.116958,0.116583,-4.80521,29,0.0101948,10,-0.000560207,-2.31829,-0.161837,-0.364564,68.1686,0.116583,
2,0,0,1,0,56336.7,0.115457,0.115102,-4.90695,29,0.0100731,10,-0.0005648,-2.30919,-0.175257,-0.336648,64.268,0.115102,
2,0,0,1,0,56336.8,0.113963,0.113578,-4.98973,29,0.00994955,10,-0.000566722,-2.30192,-0.185245,-0.318496,62.0152,0.113578,
2,0,0,1,0,56336.8,0.112464,0.112077,-5.07992,29,0.00982324,10,-0.000569341,-2.29414,-0.199755,-0.295361,58.5346,0.112077,
2,0,0,1,0,56336.8,0.110965,0.110578,-5.16554,29,0.0096947,10,-0.000571195,-2.28688,-0.212737,-0.277338,55.8593,0.110578,
2,0,0,1,0,56336.8,0.109466,0.109098,-5.24897,29,0.00956406,10,-0.000572652,-2.27993,-0.23925,-0.246604,50.4021,0.109098,
2,0,0,1,0,56336.9,0.107972,0.10759,-5.31522,29,0.00943207,10,-0.000571864,-2.27448,-0.256255,-0.23024,47.73,0.10759,
2,0,0,1,0,56336.9,0.106471,0.10606,-5.37784,29,0.00929794,10,-0.000570373,-2.26939,-0.300838,-0.196119,41.1825,0.10606,
2,0,0,1,0,56336.9,0.10497,0.104622,-5.44328,29,0.0091622,10,-0.000569488,-2.26414,-0.350226,-0.168463,35.7039,0.104622,
2,0,0,1,0,56336.9,0.103476,0.103099,-5.49719,29,0.0090256,10,-0.000566756,-2.25986,-0.406847,-0.145018,31.0231,0.1030993,
2,0,0,1,0,56337,0.101976,0.101629,-5.53344,29,0.00888733,10,-0.000562357,-2.257,-0.497946,-0.118487,25.552,0.101629,
2,0,0,1,0,56337,0.100477,0.100111,-5.55972,29,0.0087482,10,-0.000556588,-2.25495,-0.743313,-0.0793744,17.2194,0.100111,
2,0,0,1,0,56337,0.0989825,0.0985952,-5.59056,29,0.00860891,10,-0.000551203,-2.25254,-1.05244,-0.0560604,12.2159,0.0985952,
2,0,0,1,0,56337,0.0974817,0.097124,-5.60763,29,0.00846855,10,-0.000544635,-2.25122,-1.52775,-0.038619,8.43856,0.097124,
2,0,0,1,0,56337.1,0.0959822,0.0956118,-5.6183,29,0.00832784,10,-0.000537176,-2.2504,-2.43353,-0.0242446,5.30614,0.0956118,
2,0,0,1,0,56337.1,0.094488,0.0941417,-5.60969,29,0.0081876,10,-0.000528106,-2.25106,7.28512,0.0080987,-1.77398,0.0941417,
2,0,0,1,0,56337.1,0.0929884,0.0925941,-5.61231,29,0.00804691,10,-0.000519667,-2.25086,2.18129,0.0270482,-5.91581,0.0925941,
2,0,0,1,0,56337.1,0.0914889,0.0911537,-5.60292,29,0.00790636,10,-0.000510727,-2.25159,1.4707,0.0401171,-8.75201,0.0911537,
2,0,0,1,0,56337.2,0.0899894,0.0896298,-5.58345,29,0.00776611,10,-0.000500444,-2.2531,1.01237,0.058279,-12.6807,0.0896298,
2,0,0,1,0,56337.2,0.0884951,0.0880743,-5.55549,29,0.00762698,10,-0.000489296,-2.25528,0.726804,0.0811774,-17.6027,0.0880743,
2,0,0,1,0,56337.2,0.0869943,0.0866355,-5.53217,29,0.00748798,10,-0.000479282,-2.2571,0.649002,0.0909088,-19.634,0.0866355,
2,0,0,1,0,56337.2,0.0854935,0.0851502,-5.50891,29,0.00734962,10,-0.000469085,-2.25893,0.71422,0.0826076,-17.7412,0.08515019,
2,0,0,1,0,56337.3,0.0839993,0.0836148,-5.4787,29,0.00721245,10,-0.0004581,-2.26132,0.667962,0.0883284,-18.8671,0.0836148,
2,0,0,1,0,56337.3,0.0824998,0.0821262,-5.44417,29,0.00707547,10,-0.000447109,-2.26407,0.585747,0.100726,-21.4175,0.0821262,
2,0,0,1,0,56337.3,0.0810002,0.0806934,-5.41389,29,0.00693936,10,-0.000436865,-2.26649,0.609385,0.0968189,-20.4842,0.0806934,
2,0,0,1,0,56337.3,0.0795007,0.0791071,-5.39232,29,0.00680394,10,-0.00042657,-2.26822,0.786407,0.0750248,-15.7713,0.0791071,
2,0,0,1,0,56337.4,0.0780078,0.077617,-5.36054,29,0.00666966,10,-0.000416069,-2.27079,0.757791,0.0778578,-16.2931,0.077617,
2,0,0,1,0,56337.4,0.076507,0.0761061,-5.33277,29,0.00653554,10,-0.000405856,-2.27305,0.652728,0.0903899,-18.8275,0.0761061,
2,0,0,1,0,56337.4,0.0750062,0.074675,-5.31015,29,0.00640215,10,-0.000396536,-2.27489,0.706409,0.083521,-17.3088,0.074675,
2,0,0,1,0,56337.4,0.073512,0.0731428,-5.28971,29,0.00626987,10,-0.000386904,-2.27657,1.00478,0.0587195,-12.1104,0.0731428,
2,0,0,1,0,56337.5,0.0720124,0.0716068,-5.26706,29,0.00613756,10,-0.000377157,-2.27843,1.02638,0.0574833,-11.8132,0.0716068,
2,0,0,1,0,56337.5,0.0705129,0.0701427,-5.24258,29,0.00600576,10,-0.000367729,-2.28045,0.787257,0.0749438,-15.3436,0.0701427,
2,0,0,1,0,56337.5,0.0690187,0.0686723,-5.22094,29,0.00587506,10,-0.000358534,-2.28225,0.75158,0.0785013,-16.0052,0.0686723,
2,0,0,1,0,56337.5,0.0675179,0.0671169,-5.20568,29,0.00574434,10,-0.000349389,-2.28352,1.00564,0.058669,-11.9077,0.0671169,
2,0,0,1,0,56337.6,0.066017,0.0656206,-5.19062,29,0.0056141,10,-0.000340611,-2.28478,1.14556,0.0515033,-10.4171,0.0656206,
2,0,0,1,0,56337.6,0.0645242,0.0641834,-5.16143,29,0.00548482,10,-0.000331278,-2.28723,0.914612,0.0645082,-13.0116,0.0641834,
2,0,0,1,0,56337.6,0.0630246,0.0626406,-5.14184,29,0.00535552,10,-0.000322088,-2.28888,0.852026,0.0692467,-13.9014,0.06264063,
2,0,0,1,0,56337.6,0.0615251,0.0612019,-5.12876,29,0.00522673,10,-0.000313889,-2.28999,0.866713,0.0680733,-13.6234,0.0612019,
2,0,0,1,0,56337.7,0.0600256,0.059645,-5.10403,29,0.00509842,10,-0.00030443,-2.29209,1.01232,0.0582822,-11.6186,0.059645,
2,0,0,1,0,56337.7,0.0585314,0.0581863,-5.08353,29,0.00497109,10,-0.000295792,-2.29383,0.840556,0.0701916,-13.9394,0.0581863,
2,0,0,1,0,56337.7,0.0570305,0.0566483,-5.06944,29,0.00484377,10,-0.000287175,-2.29504,0.68516,0.0861113,-17.0206,0.0566483,
2,0,0,1,0,56337.7,0.0555297,0.0551748,-5.0453,29,0.00471703,10,-0.000278374,-2.29711,0.812294,0.0726338,-14.2891,0.0551748,
2,0,0,1,0,56337.8,0.0540355,0.0536866,-5.02361,29,0.00459134,10,-0.000269701,-2.29898,0.987041,0.0597746,-11.7161,0.0536866,
2,0,0,1,0,56337.8,0.052536,0.052124,-5.00075,29,0.00446562,10,-0.00026066,-2.30096,0.807118,0.0730996,-14.2676,0.052124,
2,0,0,1,0,56337.8,0.0510364,0.050653,-4.97765,29,0.00434047,10,-0.000252133,-2.30298,0.615278,0.0958916,-18.634,0.050653,
2,0,0,1,0,56337.8,0.0495369,0.0491732,-4.95718,29,0.00421593,10,-0.000243761,-2.30477,0.730448,0.0807723,-15.6067,0.0491732,
2,0,0,1,0,56337.9,0.0480427,0.0476527,-4.92766,29,0.00409252,10,-0.000234816,-2.30736,0.827545,0.0712952,-13.7076,0.0476527,
2,0,0,1,0,56337.9,0.0465432,0.0462088,-4.90036,29,0.00396923,10,-0.00022644,-2.30977,0.719893,0.0819566,-15.6872,0.0462088,
2,0,0,1,0,56337.9,0.0450424,0.0447225,-4.87687,29,0.00384655,10,-0.000218106,-2.31186,0.579602,0.101794,-19.3727,0.0447225,
2,0,0,1,0,56337.9,0.0435482,0.0431553,-4.85457,29,0.00372497,10,-0.000209501,-2.31385,0.643774,0.091647,-17.341,0.0431553,
2,0,0,1,0,56338,0.0420486,0.0417274,-4.82484,29,0.00360363,10,-0.000201328,-2.31652,0.681639,0.0865561,-16.3056,0.0417274,
2,0,0,1,0,56338,0.0405491,0.0401767,-4.79914,29,0.00348288,10,-0.000192813,-2.31884,0.676205,0.0872517,-16.3433,0.0401767,
2,0,0,1,0,56338,0.0390549,0.0386681,-4.7793,29,0.00336324,10,-0.000184806,-2.32064,0.513922,0.114803,-21.3743,0.0386681,
2,0,0,1,0,56338,0.0375541,0.0371594,-4.74831,29,0.00324377,10,-0.000176445,-2.32346,0.53412,0.110462,-20.4479,0.0371594,
2,0,0,1,0,56338.1,0.0360532,0.0356442,-4.71288,29,0.00312518,10,-0.000167987,-2.32671,0.527913,0.111761,-20.5662,0.0356442,
2,0,0,1,0,56338.1,0.034559,0.0342287,-4.684,29,0.00300779,10,-0.000160327,-2.32938,0.558485,0.105643,-19.3132,0.0342287,
2,0,0,1,0,56338.1,0.0330595,0.032665,-4.65592,29,0.00289066,10,-0.000152086,-2.33199,0.486558,0.12126,-21.996,0.03266504,
2,0,0,1,0,56338.1,0.0315613,0.0311664,-4.624,29,0.00277429,10,-0.000144114,-2.33498,0.467415,0.126226,-22.7635,0.0311664,
2,0,0,1,0,56338.2,0.0300618,0.029722,-4.58378,29,0.00265883,10,-0.000136239,-2.33878,0.490228,0.120352,-21.5543,0.029722,
2,0,0,1,0,56338.2,0.0285676,0.0281547,-4.55108,29,0.00254467,10,-0.000128134,-2.34189,0.510116,0.11566,-20.5658,0.0281547,
2,0,0,1,0,56338.2,0.0270667,0.0266918,-4.52464,29,0.00243081,10,-0.000120771,-2.34442,0.453814,0.130009,-22.9473,0.0266918,
2,0,0,1,0,56338.2,0.0255659,0.0251811,-4.48965,29,0.00231774,10,-0.000113054,-2.34779,0.439481,0.134249,-23.4945,0.0251811,
2,0,0,1,0,56338.3,0.0240717,0.023695,-4.45118,29,0.00220604,10,-0.000105471,-2.35153,0.457222,0.12904,-22.4268,0.023695,
2,0,0,1,0,56338.3,0.0225722,0.0222067,-4.41545,29,0.0020948,10,-9.80528e-05,-2.35502,0.450115,0.131078,-22.6027,0.0222067,
2,0,0,1,0,56338.3,0.0210726,0.0207182,-4.38625,29,0.00198435,10,-9.08752e-05,-2.35791,0.449114,0.13137,-22.4958,0.0207182,
2,0,0,1,0,56338.3,0.0195784,0.0191656,-4.355,29,0.00187515,10,-8.34662e-05,-2.36101,0.487389,0.121053,-20.5636,0.01916559,
2,0,0,1,0,56338.4,0.0180789,0.0177112,-4.31962,29,0.00176632,10,-7.65057e-05,-2.36455,0.477037,0.12368,-20.854,0.0177112,
2,0,0,1,0,56338.4,0.0165781,0.0162126,-4.28601,29,0.0016583,10,-6.94872e-05,-2.36795,0.48827,0.120835,-20.2504,0.0162126,
2,0,0,1,0,56338.4,0.0150839,0.014666,-4.26329,29,0.00155145,10,-6.25253e-05,-2.37025,0.472742,0.124804,-20.7489,0.014666,
2,0,0,1,0,56338.4,0.0135844,0.01322,-4.24041,29,0.0014448,10,-5.6058e-05,-2.37259,0.502042,0.11752,-19.3969,0.01322,
2,0,0,1,0,56338.5,0.0120848,0.0117595,-4.20436,29,0.0013389,10,-4.94412e-05,-2.3763,0.542467,0.108762,-17.87,0.0117595,
2,0,0,1,0,56338.5,0.0105853,0.0102374,-4.17451,29,0.00123382,10,-4.27363e-05,-2.37939,0.535814,0.110113,-17.9654,0.0102374,
2,0,0,1,0,56338.5,0.00909108,0.00870599,-4.15015,29,0.00112977,10,-3.61311e-05,-2.38194,0.549352,0.107399,-17.4044,0.00870599,
2,0,0,1,0,56338.5,0.00759027,0.00724631,-4.12869,29,0.00102588,10,-2.99178e-05,-2.38419,0.619342,0.0952624,-15.3334,0.00724631,
2,0,0,1,0,56338.6,0.00608945,0.00572284,-4.1077,29,0.000922545,10,-2.35077e-05,-2.3864,0.674262,0.087503,-14.0178,0.005722845,
2,0,0,1,0,56338.6,0.00459524,0.00422313,-4.08382,29,0.000820231,10,-1.72465e-05,-2.38893,0.64368,0.0916605,-14.626,0.004223132,
2,0,0,1,0,56338.6,0.0030957,0.00272813,-4.06745,29,0.000717995,10,-1.10965e-05,-2.39068,1.27034,0.0464444,-7.38489,0.00272813,
2,0,0,1,0,56338.6,0.00159616,0.00116142,-4.07227,29,0.000615812,10,-4.72963e-06,-2.39016, , , ,0.00116142,
2,0,0,1,0,56338.7,0.000199195,-0.000227978,-4.04807,29,0.00052086,10,9.22872e-07,-2.39275, , , ,-0.000227978,