File: Figure_codes/Fig_3-5/rawdata_trumpetplot_data/after 10th/20221101_1-115_003_TrumpetPlot_ParaChange_from10_every3_09_CV_C01_3.csv
mode,ox/red,error,control changes,counter inc.,time/s,control/V,Ewe/V,<I>/mA,cycle number,(Q-Qo)/C,I Range,P/W,log(|I|),Tafel slope mV/dec,alpha_eff,dI/d(E-IR),E-IR/V,
2,0,0,0,0,7092.91,2.44065e-05,-0.000325324,-5.2856,4,0.0000000E+000,10,1.71953e-06,-2.27691, , , ,-0.000325324,
2,0,0,1,0,7092.93,0.00179726,0.00145187,-2.09135,4,-6.10124e-05,10,-3.03637e-06,-2.67957, , , ,0.00145187,
2,0,0,1,0,7092.95,0.00379485,0.00352658,-0.0237132,4,-7.97355e-05,10,-8.36263e-08,-4.62501,-0.0171835,-3.43352,819.049,0.00352658,
2,1,0,1,0,7092.97,0.00579244,0.00549133,1.21716,4,-6.65025e-05,10,6.68385e-06,-2.91465,0.0020327,29.0255,523.589,0.00549133,
2,1,0,1,0,7092.99,0.00779002,0.00745649,2.03395,4,-3.31722e-05,10,1.51661e-05,-2.69166,0.0119079,4.95469,353.123,0.00745649,
2,1,0,1,0,7093.01,0.00978761,0.00943784,2.61077,4,1.3682e-05,10,2.464e-05,-2.58323,0.0232974,2.53247,246.386,0.00943784,
2,1,0,1,0,7093.03,0.0117852,0.0114433,3.01624,4,7.04144e-05,10,3.45158e-05,-2.52053,0.038073,1.54966,178.536,0.0114433,
2,1,0,1,0,7093.05,0.0137828,0.013421,3.32191,4,0.000134055,10,4.45834e-05,-2.47861,0.0551479,1.06985,137.094,0.013421,
2,1,0,1,0,7093.07,0.0157804,0.0154534,3.566,4,0.000203185,10,5.51067e-05,-2.44782,0.0734512,0.803254,111.01,0.01545338,
2,1,0,1,0,7093.09,0.017778,0.0174562,3.76985,4,0.000276473,10,6.58071e-05,-2.42368,0.095082,0.620517,90.668,0.01745617,
2,1,0,1,0,7093.11,0.0197755,0.0194442,3.92784,4,0.000353585,10,7.63734e-05,-2.40585,0.118485,0.497954,76.2146,0.0194442,
2,1,0,1,0,7093.13,0.0217731,0.0214965,4.07778,4,0.00043387,10,8.76578e-05,-2.38958,0.132273,0.446047,70.8213,0.0214965,
2,1,0,1,0,7093.15,0.0237707,0.0234595,4.21221,4,0.000517027,10,9.88165e-05,-2.37549,0.143081,0.412354,67.7718,0.0234595,
2,1,0,1,0,7093.17,0.0257683,0.025479,4.34768,4,0.000602426,10,0.000110775,-2.36174,0.158575,0.372064,62.9857,0.025479,
2,1,0,1,0,7093.19,0.0277659,0.027484,4.4657,4,0.000690752,10,0.000122735,-2.35011,0.17087,0.345291,60.1961,0.02748403,
2,1,0,1,0,7093.21,0.0297635,0.0294804,4.58855,4,0.000781494,10,0.000135272,-2.33832,0.179152,0.32933,58.8736,0.02948039,
2,1,0,1,0,7093.23,0.0317611,0.0314221,4.69754,4,0.000874548,10,0.000147607,-2.32813,0.179843,0.328064,60.2796,0.0314221,
2,1,0,1,0,7093.25,0.0337586,0.033482,4.82977,4,0.000969545,10,0.000161711,-2.31607,0.177651,0.332112,62.5005,0.033482,
2,1,0,1,0,7093.27,0.0357562,0.0354422,4.9488,4,0.00106748,10,0.000175397,-2.3055,0.205444,0.287183,55.3406,0.0354422,
2,1,0,1,0,7093.29,0.0377538,0.0374103,5.04716,4,0.00116762,10,0.000188816,-2.29695,0.216035,0.273104,53.8879,0.0374103,
2,1,0,1,0,7093.31,0.0397514,0.0394456,5.16454,4,0.00127,10,0.000203718,-2.28697,0.188835,0.312443,63.0935,0.0394456,
2,1,0,1,0,7093.33,0.041749,0.0414737,5.30354,4,0.00137431,10,0.000219957,-2.27543,0.19829,0.297543,61.3828,0.0414737,
2,1,0,1,0,7093.35,0.0437466,0.0434363,5.40949,4,0.00148159,10,0.000234968,-2.26684,0.233583,0.252586,53.3156,0.0434363,
2,1,0,1,0,7093.37,0.0457442,0.0454387,5.51493,4,0.00159099,10,0.000250591,-2.25846,0.226705,0.26025,56.0763,0.0454387,
2,1,0,1,0,7093.39,0.0477418,0.0474433,5.63419,4,0.00170267,10,0.000267305,-2.24917,0.211312,0.279208,61.428,0.0474433,
2,1,0,1,0,7093.41,0.0497484,0.049454,5.76158,4,0.00181673,10,0.000284933,-2.23946,0.227108,0.259788,58.2814,0.049454,
2,1,0,1,0,7093.43,0.0517369,0.0513884,5.86412,4,0.00193255,10,0.000301348,-2.2318,0.244482,0.241326,55.2928,0.0513884,
2,1,0,1,0,7093.45,0.0537345,0.0534308,5.98147,4,0.0020512,10,0.000319595,-2.22319,0.246873,0.238989,55.7494,0.0534308,
2,1,0,1,0,7093.47,0.0557321,0.055471,6.09173,4,0.00217213,10,0.000337914,-2.21526,0.262954,0.224374,53.2968,0.055471,
2,1,0,1,0,7093.49,0.0577206,0.0573934,6.19267,4,0.00229456,10,0.000355418,-2.20812,0.25247,0.233691,56.5697,0.0573934,
2,1,0,1,0,7093.51,0.0597273,0.0594167,6.31493,4,0.00241994,10,0.000375212,-2.19963,0.25795,0.228726,56.2891,0.0594167,
2,1,0,1,0,7093.53,0.0617249,0.0614395,6.42042,4,0.00254749,10,0.000394467,-2.19244,0.292192,0.201922,50.5543,0.0614395,
2,1,0,1,0,7093.55,0.0637224,0.0634051,6.51656,4,0.00267708,10,0.000413183,-2.18598,0.289242,0.203981,51.9249,0.0634051,
2,1,0,1,0,7093.57,0.06572,0.0653966,6.62589,4,0.00280873,10,0.000433311,-2.17876,0.266114,0.221709,57.3788,0.0653966,
2,1,0,1,0,7093.59,0.0677176,0.0674309,6.74756,4,0.00294212,10,0.000454994,-2.17085,0.296752,0.198819,52.2265,0.0674309,
2,1,0,1,0,7093.61,0.0697152,0.0694368,6.83689,4,0.00307818,10,0.000474732,-2.16514,0.338892,0.174097,46.48,0.0694368,
2,1,0,1,0,7093.63,0.0717128,0.0714646,6.93504,4,0.0032161,10,0.00049561,-2.15895,0.322448,0.182975,49.5299,0.0714646,
2,1,0,1,0,7093.65,0.0737104,0.07346,7.03616,4,0.003356,10,0.000516877,-2.15266,0.308488,0.191256,52.5339,0.07346,
2,1,0,1,0,7093.67,0.075708,0.0754114,7.14239,4,0.00349728,10,0.000538617,-2.14616,0.334489,0.176388,49.0958,0.0754114,
2,1,0,1,0,7093.69,0.0777056,0.0773813,7.22868,4,0.00364107,10,0.000559365,-2.14094,0.364176,0.16201,45.737,0.0773813,
2,1,0,1,0,7093.71,0.0797031,0.0794232,7.32587,4,0.00378678,10,0.000581845,-2.13514,0.371046,0.15901,45.4246,0.0794232,
2,1,0,1,0,7093.73,0.0817007,0.0814131,7.41182,4,0.00393433,10,0.000603419,-2.13007,0.382586,0.154214,44.6186,0.0814131,
2,1,0,1,0,7093.75,0.0836983,0.0833717,7.50205,4,0.00408288,10,0.000625459,-2.12482,0.396127,0.148942,43.5876,0.0833717,
2,1,0,1,0,7093.77,0.0856959,0.0854116,7.58611,4,0.004234,10,0.000647942,-2.11998,0.39364,0.149883,44.4027,0.0854116,
2,1,0,1,0,7093.79,0.0876935,0.0873892,7.68044,4,0.00438687,10,0.000671187,-2.11461,0.394147,0.14969,44.8361,0.0873892,
2,1,0,1,0,7093.81,0.0896911,0.0893859,7.7643,4,0.00454136,10,0.000694019,-2.1099,0.384574,0.153417,46.5403,0.0893859,
2,1,0,1,0,7093.83,0.0916887,0.0913866,7.86648,4,0.00469696,10,0.000718891,-2.10422,0.37297,0.15819,48.5276,0.0913866,
2,1,0,1,0,7093.85,0.0936862,0.0933648,7.95739,4,0.00485539,10,0.00074294,-2.09923,0.381814,0.154525,48.0179,0.0933648,
2,1,0,1,0,7093.87,0.0956838,0.095395,8.05895,4,0.00501578,10,0.000768783,-2.09372,0.342228,0.1724,54.2728,0.095395,
2,1,0,1,0,7093.89,0.0976814,0.0974017,8.17649,4,0.00517831,10,0.000796404,-2.08743,0.294568,0.200293,63.9837,0.0974017,
2,1,0,1,0,7093.91,0.099679,0.0993677,8.31314,4,0.00534246,10,0.000826058,-2.08023,0.30051,0.196333,63.6105,0.09936773,
2,1,0,1,0,7093.93,0.101677,0.101362,8.4284,4,0.00551007,10,0.000854318,-2.07426,0.299821,0.196784,64.8278,0.101362,
2,1,0,1,0,7093.95,0.103674,0.103341,8.57071,4,0.00568026,10,0.000885704,-2.06698,0.253468,0.232771,77.9742,0.1033408,
2,1,0,1,0,7093.97,0.105672,0.105361,8.74023,4,0.00585352,10,0.000920881,-2.05848,0.234473,0.251628,85.8511,0.105361,
2,1,0,1,0,7093.99,0.107667,0.107364,8.91607,4,0.00602935,10,0.000957261,-2.04983,0.228425,0.258291,89.8985,0.107364,
2,1,0,1,0,7094.01,0.109667,0.109349,9.0987,4,0.00620974,10,0.000994931,-2.04102,0.226354,0.260654,92.5656,0.109349,
2,1,0,1,0,7094.03,0.111665,0.111356,9.28562,4,0.00639382,10,0.00103401,-2.03219,0.227822,0.258974,93.8441,0.111356,
2,1,0,1,0,7094.05,0.113662,0.113348,9.47405,4,0.00658159,10,0.00107387,-2.02346,0.235579,0.250446,92.5734,0.113348,
2,1,0,1,0,7094.07,0.11566,0.115393,9.65937,4,0.00677307,10,0.00111463,-2.01505,0.224483,0.262826,99.1946,0.115393,
2,1,0,1,0,7094.09,0.117657,0.11734,9.86997,4,0.00696767,10,0.00115814,-2.00568,0.230988,0.255424,98.2307,0.11734,
2,1,0,1,0,7094.11,0.119655,0.119387,10.0516,4,0.00716706,10,0.00120003,-1.99776,0.2637,0.223739,87.7088,0.119387,
2,1,0,1,0,7094.13,0.121652,0.121348,10.2215,4,0.00736997,10,0.00124036,-1.99048,0.276982,0.21301,84.9482,0.121348,
2,1,0,1,0,7094.15,0.12365,0.123338,10.3873,4,0.00757629,10,0.00128115,-1.9835,0.279605,0.211012,85.5735,0.123338,
2,1,0,1,0,7094.17,0.125648,0.125337,10.5629,4,0.00778506,10,0.00132393,-1.97622,0.317576,0.185782,76.4199,0.125337,
2,1,0,1,0,7094.19,0.127645,0.127352,10.6941,4,0.00799784,10,0.00136192,-1.97086,0.355801,0.165823,69.2493,0.127352,
2,1,0,1,0,7094.21,0.129643,0.12933,10.8394,4,0.00821339,10,0.00140186,-1.96499,0.354837,0.166273,70.2957,0.12933,
2,1,0,1,0,7094.23,0.13164,0.131317,10.9728,4,0.00843169,10,0.00144092,-1.95968,0.383872,0.153697,65.8055,0.1313173,
2,1,0,1,0,7094.25,0.133638,0.133335,11.103,4,0.00865166,10,0.00148042,-1.95456,0.416522,0.141649,61.3345,0.133335,
2,1,0,1,0,7094.27,0.135636,0.135317,11.2181,4,0.00887505,10,0.001518,-1.95008,0.438549,0.134534,58.9098,0.135317,
2,1,0,1,0,7094.29,0.137633,0.13732,11.3377,4,0.00910079,10,0.00155689,-1.94547,0.487045,0.121139,53.5417,0.13732,
2,1,0,1,0,7094.31,0.139631,0.139329,11.4329,4,0.0093287,10,0.00159294,-1.94184,0.532836,0.110728,49.424,0.139329,
2,1,0,1,0,7094.33,0.141628,0.141354,11.5371,4,0.00955737,10,0.00163081,-1.9379,0.595102,0.0991427,44.579,0.141354,
2,1,0,1,0,7094.35,0.143626,0.143309,11.6103,4,0.00978904,10,0.00166387,-1.93515,0.906831,0.0650618,29.4424,0.143309,
2,1,0,1,0,7094.37,0.145624,0.145318,11.6538,4,0.0100219,10,0.0016935,-1.93353,3.05706,0.0192996,8.75815,0.145318,
2,1,0,1,0,7094.39,0.147621,0.147314,11.6454,4,0.010255,10,0.00171553,-1.93384,-2.00778,-0.0293856,-13.3342,0.147314,
2,1,0,1,0,7094.41,0.149619,0.149325,11.6004,4,0.0104865,10,0.00173222,-1.93553,-0.633907,-0.0930735,-41.9925,0.149325,
2,1,0,1,0,7094.43,0.151616,0.151342,11.4763,4,0.0107176,10,0.00173684,-1.9402,-0.321676,-0.183415,-81.8667,0.151342,
2,1,0,1,0,7094.45,0.153614,0.153299,11.2751,4,0.0109453,10,0.00172845,-1.94788,-0.21182,-0.278538,-122.101,0.153299,
2,1,0,1,0,7094.47,0.155611,0.15531,10.9918,4,0.0111683,10,0.00170714,-1.95893,-0.160699,-0.367145,-156.996,0.15531,
2,1,0,1,0,7094.49,0.157609,0.157313,10.6448,4,0.0113837,10,0.00167457,-1.97286,-0.120772,-0.488524,-201.776,0.157313,
2,1,0,1,0,7094.51,0.159607,0.159308,10.185,4,0.0115923,10,0.00162255,-1.99204,-0.0988435,-0.596903,-236.682,0.159308,
2,1,0,1,0,7094.53,0.161604,0.161346,9.69036,4,0.0117913,10,0.0015635,-2.01366,-0.0858301,-0.687405,-259.218,0.161346,
2,1,0,1,0,7094.55,0.163602,0.163269,9.1582,4,0.0119799,10,0.00149525,-2.03819,-0.0776716,-0.759609,-271.168,0.163269,
2,1,0,1,0,7094.57,0.165606,0.165276,8.6246,4,0.0121577,10,0.00142544,-2.06426,-0.0772326,-0.763926,-257.19,0.165276,
2,1,0,1,0,7094.59,0.167597,0.167322,8.11596,4,0.0123243,10,0.00135798,-2.09066,-0.0769091,-0.767139,-243.269,0.167322,
2,1,0,1,0,7094.61,0.169595,0.169299,7.64597,4,0.0124819,10,0.00129445,-2.11657,-0.0781611,-0.754851,-225.708,0.169299,
2,1,0,1,0,7094.63,0.171592,0.171271,7.22464,4,0.0126306,10,0.00123737,-2.14118,-0.0845147,-0.698103,-197.421,0.171271,
2,1,0,1,0,7094.65,0.173581,0.173277,6.86059,4,0.0127707,10,0.00118878,-2.16364,-0.0951656,-0.619972,-166.571,0.173277,
2,1,0,1,0,7094.67,0.175587,0.175291,6.55493,4,0.012905,10,0.00114902,-2.18343,-0.107394,-0.549381,-140.877,0.175291,
2,1,0,1,0,7094.69,0.177585,0.177336,6.28882,4,0.0130335,10,0.00111523,-2.20143,-0.114681,-0.514473,-126.485,0.177336,
2,1,0,1,0,7094.71,0.179582,0.179276,6.051,4,0.0131568,10,0.0010848,-2.21817,-0.129062,-0.457145,-108.291,0.1792755,
2,1,0,1,0,7094.73,0.18158,0.181333,5.85592,4,0.013276,10,0.00106187,-2.2324,-0.148999,-0.395975,-90.6843,0.181333,
2,1,0,1,0,7094.75,0.183578,0.183267,5.68901,4,0.0133909,10,0.00104261,-2.24496,-0.154739,-0.381288,-84.6389,0.183267,
2,1,0,1,0,7094.77,0.185575,0.185265,5.52314,4,0.0135031,10,0.00102324,-2.25781,-0.169597,-0.347884,-75.1821,0.185265,
2,1,0,1,0,7094.79,0.187573,0.187261,5.38875,4,0.0136123,10,0.0010091,-2.26851,-0.194752,-0.302949,-63.7822,0.187261,
2,1,0,1,0,7094.81,0.18957,0.189261,5.26822,4,0.013719,10,0.000997072,-2.27834,-0.210972,-0.279658,-57.547,0.1892615,
2,1,0,1,0,7094.83,0.191568,0.191266,5.15829,4,0.0138229,10,0.000986605,-2.28749,-0.229504,-0.257076,-51.8019,0.191266,
2,1,0,1,0,7094.85,0.193566,0.193288,5.05963,4,0.0139252,10,0.000977967,-2.29588,-0.250261,-0.235754,-46.592,0.193288,
2,1,0,1,0,7094.87,0.195563,0.195291,4.97073,4,0.0140257,10,0.000970741,-2.30358,-0.257601,-0.229037,-44.4276,0.195291,
2,1,0,1,0,7094.89,0.197561,0.197285,4.88207,4,0.0141244,10,0.000963159,-2.3114,-0.294523,-0.200324,-38.2611,0.197285,
2,1,0,1,0,7094.91,0.199558,0.199283,4.81802,4,0.0142211,10,0.000960148,-2.31713,-0.318973,-0.184969,-34.7385,0.199283,
2,1,0,1,0,7094.93,0.201556,0.201285,4.74312,4,0.0143168,10,0.000954718,-2.32394,-0.308994,-0.190942,-35.378,0.201285,
2,1,0,1,0,7094.95,0.203553,0.203248,4.67775,4,0.0144111,10,0.000950741,-2.32996,-0.336272,-0.175453,-32.0431,0.203248,
2,1,0,1,0,7094.97,0.205551,0.205231,4.61668,4,0.0145042,10,0.000947485,-2.33567,-0.471519,-0.125127,-22.6197,0.205231,
2,1,0,1,0,7094.99,0.207549,0.207278,4.58659,4,0.0145959,10,0.000950698,-2.33851,-0.465359,-0.126784,-22.617,0.207278,
2,1,0,1,0,7095.01,0.209546,0.209261,4.52553,4,0.0146871,10,0.000947017,-2.34433,-0.364208,-0.161995,-28.6311,0.209261,
2,1,0,1,0,7095.03,0.211544,0.211305,4.47128,4,0.0147771,10,0.000944804,-2.34957,-0.415874,-0.14187,-24.7821,0.211305,
2,1,0,1,0,7095.05,0.213541,0.213248,4.42672,4,0.0148662,10,0.00094399,-2.35392,-0.537239,-0.109821,-19.001,0.213248,
2,1,0,1,0,7095.07,0.215539,0.215291,4.39554,4,0.0149541,10,0.000946321,-2.35699,-0.541366,-0.108984,-18.6689,0.215291,
2,1,0,1,0,7095.09,0.217537,0.217247,4.35207,4,0.0150417,10,0.000945473,-2.3613,-0.529054,-0.11152,-18.9662,0.217247,
2,1,0,1,0,7095.11,0.219534,0.219262,4.32022,4,0.0151285,10,0.000947262,-2.36449,-0.615804,-0.0958097,-16.1518,0.2192622,
2,1,0,1,0,7095.13,0.221532,0.221251,4.28739,4,0.0152148,10,0.00094859,-2.36781,-0.618079,-0.0954571,-15.9762,0.221251,
2,1,0,1,0,7095.15,0.223525,0.223228,4.25686,4,0.0152999,10,0.000950252,-2.37091,-0.699504,-0.0843454,-14.0208,0.223228,
2,1,0,1,0,7095.17,0.225527,0.225236,4.23152,4,0.0153849,10,0.000953091,-2.3735,-0.646138,-0.0913117,-15.0626,0.225236,
2,1,0,1,0,7095.19,0.227525,0.227212,4.19686,4,0.0154694,10,0.000953576,-2.37708,-0.592643,-0.099554,-16.3138,0.227212,
2,1,0,1,0,7095.21,0.229522,0.22923,4.16637,4,0.0155533,10,0.000955055,-2.38024,-0.836308,-0.0705482,-11.4911,0.2292296,
2,1,0,1,0,7095.23,0.23152,0.231248,4.15048,4,0.0156366,10,0.00095979,-2.3819,-1.26819,-0.0465231,-7.53732,0.231248,
2,1,0,1,0,7095.25,0.233517,0.233222,4.13628,4,0.0157193,10,0.00096467,-2.38339,-0.844531,-0.0698613,-11.255,0.233222,
2,1,0,1,0,7095.27,0.235515,0.235226,4.10571,4,0.0158019,10,0.000965769,-2.38661,-0.728211,-0.0810205,-12.9968,0.235226,
2,1,0,1,0,7095.29,0.237512,0.237206,4.08449,4,0.0158839,10,0.000968868,-2.38886,-1.0228,-0.0576845,-9.20168,0.237206,
2,1,0,1,0,7095.31,0.23951,0.239206,4.06909,4,0.0159656,10,0.000973349,-2.3905,-1.62715,-0.0362597,-5.76334,0.239206,
2,1,0,1,0,7095.33,0.241508,0.241283,4.061,4,0.0160467,10,0.000979849,-2.39137,-1.0516,-0.056105,-8.87067,0.241283,
2,1,0,1,0,7095.35,0.243505,0.243216,4.03351,4,0.0161277,10,0.000981016,-2.39432,-1.06769,-0.0552594,-8.72082,0.243216,
2,1,0,1,0,7095.37,0.245503,0.245227,4.0266,4,0.0162084,10,0.000987431,-2.39506,-1.28486,-0.0459195,-7.20239,0.245227,
2,1,0,1,0,7095.39,0.2475,0.247246,4.00449,4,0.0162888,10,0.000990094,-2.39745,-1.1642,-0.0506787,-7.93276,0.2472463,
2,1,0,1,0,7095.41,0.249498,0.249196,3.99512,4,0.0163685,10,0.000995567,-2.39847,-1.35755,-0.0434606,-6.76947,0.2491961,
2,1,0,1,0,7095.43,0.251496,0.251189,3.9778,4,0.0164484,10,0.000999178,-2.40036,-1.10961,-0.0531716,-8.25608,0.251189,
2,1,0,1,0,7095.45,0.253493,0.253191,3.96213,4,0.0165279,10,0.00100318,-2.40207,-0.903656,-0.0652904,-10.0844,0.253191,
2,1,0,1,0,7095.47,0.255491,0.25518,3.93755,4,0.0166071,10,0.00100478,-2.40477,-1.97963,-0.0298036,-4.59781,0.25518,
2,1,0,1,0,7095.49,0.257488,0.25719,3.94374,4,0.0166857,10,0.00101429,-2.40409,-4.39754,-0.0134166,-2.05954,0.25719,
2,1,0,1,0,7095.51,0.259486,0.259243,3.92918,4,0.0167645,10,0.00101861,-2.4057,-0.949915,-0.0621108,-9.51348,0.259243,
2,1,0,1,0,7095.53,0.261484,0.261183,3.90576,4,0.016843,10,0.00102012,-2.40829,-1.15375,-0.0511378,-7.81062,0.261183,
2,1,0,1,0,7095.55,0.263481,0.263219,3.89812,4,0.0169212,10,0.00102606,-2.40914,-5.70182,-0.0103476,-1.57599,0.263219,
2,1,0,1,0,7095.56,0.265479,0.265208,3.89941,4,0.0169988,10,0.00103416,-2.409,-1.6145,-0.0365439,-5.54377,0.265208,
2,1,0,1,0,7095.58,0.267476,0.267189,3.87612,4,0.0170767,10,0.00103565,-2.4116,-0.930775,-0.063388,-9.59933,0.267189,
2,1,0,1,0,7095.6,0.269474,0.269175,3.86134,4,0.0171542,10,0.00103937,-2.41326,-2.14099,-0.0275574,-4.15968,0.269175,
2,1,0,1,0,7095.62,0.271471,0.271208,3.8594,4,0.0172315,10,0.0010467,-2.41348,-6.76727,-0.00871844,-1.31293,0.271208,
2,1,0,1,0,7095.64,0.273469,0.273221,3.85602,4,0.0173083,10,0.00105355,-2.41386,-1.1635,-0.0507089,-7.60785,0.273221,
2,1,0,1,0,7095.66,0.275467,0.27518,3.82918,4,0.0173852,10,0.00105371,-2.41689,-0.951643,-0.061998,-9.28594,0.27518,
2,1,0,1,0,7095.68,0.277464,0.277136,3.81967,4,0.0174619,10,0.00105857,-2.41797,-1.93613,-0.0304732,-4.54316,0.277136,
2,1,0,1,0,7095.7,0.279462,0.279168,3.81106,4,0.0175383,10,0.00106393,-2.41895,-1.73291,-0.0340468,-5.06188,0.279168,
2,1,0,1,0,7095.72,0.281464,0.281138,3.79941,4,0.0176144,10,0.00106816,-2.42028,-1.8981,-0.0310837,-4.61192,0.281138,
2,1,0,1,0,7095.74,0.283457,0.283197,3.79248,4,0.0176901,10,0.00107402,-2.42108,-1.83608,-0.0321336,-4.75269,0.283197,
2,1,0,1,0,7095.76,0.285455,0.285177,3.78021,4,0.0177659,10,0.00107803,-2.42248,-1.13024,-0.0522014,-7.69508,0.2851769,
2,1,0,1,0,7095.78,0.287452,0.287168,3.76192,4,0.0178414,10,0.0010803,-2.42459,-1.34839,-0.0437557,-6.43321,0.287168,
2,1,0,1,0,7095.8,0.28945,0.289191,3.75439,4,0.0179167,10,0.00108574,-2.42546,-2.45859,-0.0239975,-3.51663,0.289191,
2,1,0,1,0,7095.82,0.291447,0.291164,3.74787,4,0.0179915,10,0.00109124,-2.42622,-1.20411,-0.0489986,-7.15211,0.291164,
2,1,0,1,0,7095.84,0.293445,0.293174,3.7259,4,0.0180664,10,0.00109234,-2.42877,-1.31303,-0.0449344,-6.54953,0.293174,
2,1,0,1,0,7095.86,0.295442,0.295149,3.72177,4,0.018141,10,0.00109848,-2.42925,-3.21899,-0.0183287,-2.6614,0.295149,
2,1,0,1,0,7095.88,0.29744,0.29715,3.71532,4,0.0182155,10,0.00110401,-2.43,-2.49754,-0.0236232,-3.42494,0.29715,
2,1,0,1,0,7095.9,0.299438,0.299142,3.70809,4,0.0182895,10,0.00110925,-2.43085,-0.0244385,-2.41422,-314.978,0.299142,
2,1,0,1,0,7095.91,0.299737,0.299432,2.99646,4,0.0183193,10,0.000897236,-2.52339,0.00175021,33.7102,1960.11,0.299432,
2,1,0,1,0,7095.93,0.29774,0.297456,0.403555,4,0.0183485,10,0.00012004,-3.3941,0.00565175,10.4393,903.268,0.297456,
2,0,0,1,0,7095.95,0.295742,0.295458,-0.593466,4,0.0183452,10,-0.000175344,-3.2266,-0.00961365,-6.1371,363.301,0.295458,
2,0,0,1,0,7095.97,0.293745,0.293436,-1.05706,4,0.0183282,10,-0.000310179,-2.9759,-0.0115614,-5.1032,180.775,0.293436,
2,0,0,1,0,7095.99,0.291747,0.291455,-1.31702,4,0.0183044,10,-0.000383853,-2.88041,-0.0266356,-2.21508,109.073,0.291455,
2,0,0,1,0,7096.01,0.289754,0.289455,-1.49124,4,0.0182765,10,-0.000431648,-2.82645,-0.0461891,-1.27736,72.7621,0.289455,
2,0,0,1,0,7096.03,0.287752,0.2874,-1.61208,4,0.0182454,10,-0.000463312,-2.79261,-0.0682093,-0.864985,53.9424,0.2874,
2,0,0,1,0,7096.05,0.285754,0.285407,-1.70959,4,0.0182123,10,-0.000487929,-2.76711,-0.0846535,-0.696959,46.2711,0.285407,
2,0,0,1,0,7096.07,0.283757,0.283481,-1.79341,4,0.0181773,10,-0.000508399,-2.74632,-0.0973543,-0.606034,42.3735,0.283481,
2,0,0,1,0,7096.09,0.281759,0.281477,-1.87613,4,0.0181407,10,-0.000528087,-2.72674,-0.124687,-0.473186,34.386,0.281477,
2,0,0,1,0,7096.11,0.279761,0.27944,-1.93237,4,0.0181028,10,-0.000539981,-2.71391,-0.144679,-0.407799,30.8418,0.27944,
2,0,0,1,0,7096.13,0.277764,0.277429,-2.00099,4,0.0180635,10,-0.000555132,-2.69875,-0.149912,-0.393565,30.6068,0.277429,
2,0,0,1,0,7096.15,0.275766,0.275458,-2.05424,4,0.018023,10,-0.000565857,-2.68735,-0.184819,-0.319231,25.5516,0.275458,
2,0,0,1,0,7096.17,0.273769,0.273488,-2.10167,4,0.0179815,10,-0.000574783,-2.67744,-0.185648,-0.317806,26.1246,0.273488,
2,0,0,1,0,7096.19,0.271771,0.271438,-2.15927,4,0.0179391,10,-0.000586107,-2.66569,-0.182469,-0.323343,27.2099,0.271438,
2,0,0,1,0,7096.21,0.269774,0.269442,-2.21178,4,0.0178954,10,-0.000595946,-2.65526,-0.221955,-0.265819,22.8698,0.269442,
2,0,0,1,0,7096.23,0.267776,0.267454,-2.25037,4,0.0178509,10,-0.000601872,-2.64775,-0.26385,-0.223612,19.6384,0.267454,
2,0,0,1,0,7096.25,0.265778,0.265492,-2.28935,4,0.0178056,10,-0.000607803,-2.64029,-0.232386,-0.253888,22.7379,0.265492,
2,0,0,1,0,7096.27,0.263781,0.263521,-2.3398,4,0.0177595,10,-0.000616587,-2.63082,-0.256421,-0.23009,20.9307,0.263521,
2,0,0,1,0,7096.29,0.261783,0.261498,-2.37294,4,0.0177125,10,-0.000620519,-2.62471,-0.340371,-0.17334,16.0469,0.261498,
2,0,0,1,0,7096.31,0.259786,0.25948,-2.40465,4,0.0176648,10,-0.000623959,-2.61895,-0.300652,-0.19624,18.4557,0.25948,
2,0,0,1,0,7096.33,0.257788,0.257484,-2.44702,4,0.0176164,10,-0.000630069,-2.61136,-0.267306,-0.22072,21.0717,0.257484,
2,0,0,1,0,7096.35,0.25579,0.255513,-2.48824,4,0.0175673,10,-0.000635777,-2.60411,-0.333638,-0.176838,17.1252,0.255513,
2,0,0,1,0,7096.37,0.253793,0.253451,-2.51609,4,0.0175175,10,-0.000637706,-2.59927,-0.407107,-0.144925,14.2352,0.253451,
2,0,0,1,0,7096.39,0.251795,0.251479,-2.54566,4,0.017467,10,-0.000640181,-2.5942,-0.374679,-0.157468,15.6546,0.251479,
2,0,0,1,0,7096.41,0.249798,0.249444,-2.57882,4,0.0174158,10,-0.000643271,-2.58858,-0.349515,-0.168805,16.9925,0.2494439,
2,0,0,1,0,7096.43,0.2478,0.247498,-2.61332,4,0.0173643,10,-0.00064679,-2.58281,-0.392442,-0.150341,15.3077,0.247498,
2,0,0,1,0,7096.45,0.245802,0.245489,-2.63937,4,0.0173119,10,-0.000647934,-2.5785,-0.393674,-0.14987,15.4661,0.2454886,
2,0,0,1,0,7096.47,0.243805,0.243483,-2.67541,4,0.0172588,10,-0.000651416,-2.57261,-0.468225,-0.126008,13.1073,0.243483,
2,0,0,1,0,7096.49,0.241807,0.241514,-2.69146,4,0.0172052,10,-0.000650026,-2.57001,-0.417675,-0.141258,14.9113,0.241514,
2,0,0,1,0,7096.51,0.23981,0.239523,-2.73446,4,0.0171514,10,-0.000654966,-2.56313,-0.335385,-0.175917,18.7358,0.239523,
2,0,0,1,0,7096.53,0.237812,0.237491,-2.76684,4,0.0170965,10,-0.000657099,-2.55802,-0.536817,-0.109907,11.8306,0.237491,
2,0,0,1,0,7096.55,0.235815,0.235508,-2.78195,4,0.0170412,10,-0.000655173,-2.55565,-0.587857,-0.100365,10.922,0.235508,
2,0,0,1,0,7096.57,0.233817,0.233528,-2.81013,4,0.0169854,10,-0.000656242,-2.55127,-0.415251,-0.142083,15.5987,0.233528,
2,0,0,1,0,7096.59,0.231815,0.231501,-2.84446,4,0.0169289,10,-0.000658496,-2.546,-0.427269,-0.138086,15.3076,0.231501,
2,0,0,1,0,7096.61,0.229822,0.229547,-2.87106,4,0.0168721,10,-0.000659043,-2.54196,-0.5804,-0.101654,11.3742,0.229547,
2,0,0,1,0,7096.63,0.227824,0.227524,-2.8897,4,0.0168146,10,-0.000657475,-2.53915,-0.540765,-0.109105,12.331,0.227524,
2,0,0,1,0,7096.65,0.225827,0.2255,-2.92097,4,0.0167566,10,-0.000658677,-2.53447,-0.456453,-0.129258,14.7256,0.2254996,
2,0,0,1,0,7096.67,0.223829,0.223512,-2.94877,4,0.016698,10,-0.000659087,-2.53036,-0.483941,-0.121916,14.0288,0.223512,
2,0,0,1,0,7096.69,0.221831,0.221566,-2.97616,4,0.0166391,10,-0.000659415,-2.52634,-0.532627,-0.110772,12.8582,0.2215656,
2,0,0,1,0,7096.71,0.219834,0.219527,-3.00002,4,0.0165794,10,-0.000658584,-2.52288,-0.474206,-0.124418,14.5933,0.219527,
2,0,0,1,0,7096.73,0.217836,0.217543,-3.03487,4,0.0165191,10,-0.000660213,-2.51786,-0.563308,-0.104738,12.3647,0.217543,
2,0,0,1,0,7096.75,0.215839,0.215489,-3.04994,4,0.0164583,10,-0.000657229,-2.51571,-0.522319,-0.112958,13.4982,0.215489,
2,0,0,1,0,7096.77,0.213841,0.213519,-3.08918,4,0.0163972,10,-0.000659599,-2.51016,-0.429766,-0.137284,16.516,0.213519,
2,0,0,1,0,7096.79,0.211843,0.211516,-3.11556,4,0.0163353,10,-0.000658991,-2.50646,-0.581521,-0.101458,12.3284,0.2115161,
2,0,0,1,0,7096.81,0.209846,0.209554,-3.13806,4,0.0162728,10,-0.000657593,-2.50334,-0.51794,-0.113913,13.9727,0.209554,
2,0,0,1,0,7096.83,0.207848,0.207579,-3.17058,4,0.0162099,10,-0.000658144,-2.49886,-0.372353,-0.158452,19.6477,0.207579,
2,0,0,1,0,7096.85,0.205851,0.205549,-3.21675,4,0.0161464,10,-0.000661199,-2.49258,-0.476382,-0.12385,15.4776,0.2055492,
2,0,0,1,0,7096.87,0.203853,0.203483,-3.23397,4,0.016082,10,-0.000658058,-2.49026,-0.65156,-0.0905519,11.4484,0.203483,
2,0,0,1,0,7096.89,0.201856,0.201557,-3.26245,4,0.0160172,10,-0.00065757,-2.48646,-0.475791,-0.124004,15.8002,0.201557,
2,0,0,1,0,7096.91,0.199858,0.199562,-3.29592,4,0.0159517,10,-0.000657741,-2.48202,-0.391098,-0.150857,19.4362,0.199562,
2,0,0,1,0,7096.93,0.19786,0.197547,-3.3404,4,0.0158859,10,-0.000659884,-2.4762,-0.492135,-0.119886,15.565,0.197547,
2,0,0,1,0,7096.95,0.195863,0.195592,-3.35772,4,0.0158191,10,-0.000656742,-2.47396,-0.526368,-0.112089,14.7403,0.195592,
2,0,0,1,0,7096.97,0.193865,0.193569,-3.39902,4,0.0157516,10,-0.000657947,-2.46865,-0.43018,-0.137152,18.1703,0.193569,
2,0,0,1,0,7096.99,0.191868,0.19151,-3.43188,4,0.0156834,10,-0.00065724,-2.46447,-0.409634,-0.144031,19.323,0.1915101,
2,0,0,1,0,7097.01,0.18987,0.189562,-3.47646,4,0.0156148,10,-0.000659005,-2.45886,-0.413198,-0.142789,19.3385,0.189562,
2,0,0,1,0,7097.03,0.187872,0.187523,-3.50898,4,0.0155451,10,-0.000658016,-2.45482,-0.410569,-0.143703,19.716,0.187523,
2,0,0,1,0,7097.05,0.185875,0.185585,-3.55488,4,0.0154745,10,-0.000659731,-2.44918,-0.408459,-0.144445,20.0043,0.185585,
2,0,0,1,0,7097.07,0.183877,0.183548,-3.58851,4,0.0154031,10,-0.000658663,-2.44509,-0.330581,-0.178474,25.1103,0.183548,
2,0,0,1,0,7097.09,0.18188,0.181568,-3.65575,4,0.0153312,10,-0.000663765,-2.43702,-0.302776,-0.194863,27.7117,0.181568,
2,0,0,1,0,7097.11,0.179882,0.179528,-3.69991,4,0.0152577,10,-0.000664236,-2.43181,-0.378941,-0.155697,22.4866,0.179528,
2,0,0,1,0,7097.13,0.177885,0.177556,-3.74594,4,0.0151833,10,-0.000665116,-2.42644,-0.313128,-0.188421,27.6063,0.177556,
2,0,0,1,0,7097.15,0.175887,0.175578,-3.80896,4,0.0151079,10,-0.000668768,-2.41919,-0.270067,-0.218464,32.4885,0.175578,
2,0,0,1,0,7097.17,0.173896,0.173558,-3.87586,4,0.0150316,10,-0.000672685,-2.41163,-0.263167,-0.224192,33.9214,0.173558,
2,0,0,1,0,7097.19,0.171892,0.171546,-3.94573,4,0.0149534,10,-0.000676873,-2.40387,-0.264603,-0.222976,34.3149,0.171546,
2,0,0,1,0,7097.21,0.169894,0.169603,-4.01155,4,0.014874,10,-0.000680372,-2.39669,-0.233459,-0.252721,39.6908,0.169603,
2,0,0,1,0,7097.23,0.167897,0.167563,-4.10379,4,0.0147929,10,-0.000687645,-2.38681,-0.210941,-0.279699,44.7725,0.167563,
2,0,0,1,0,7097.25,0.165899,0.165549,-4.19307,4,0.01471,10,-0.000694159,-2.37747,-0.204522,-0.288477,47.2523,0.1655491,
2,0,0,1,0,7097.27,0.163901,0.163585,-4.29178,4,0.0146257,10,-0.00070207,-2.36736,-0.187601,-0.314497,52.7452,0.163585,
2,0,0,1,0,7097.29,0.161904,0.161562,-4.40339,4,0.0145389,10,-0.000711419,-2.35621,-0.176756,-0.333794,57.3819,0.161562,
2,0,0,1,0,7097.31,0.159906,0.159609,-4.51993,4,0.0144497,10,-0.000721421,-2.34487,-0.165535,-0.356421,62.9708,0.159609,
2,0,0,1,0,7097.33,0.157909,0.157599,-4.65295,4,0.0143581,10,-0.000733298,-2.33227,-0.14629,-0.403308,73.4487,0.157599,
2,0,0,1,0,7097.35,0.155911,0.155577,-4.81605,4,0.0142639,10,-0.000749268,-2.31731,-0.129771,-0.454649,85.5605,0.155577,
2,0,0,1,0,7097.37,0.153913,0.153598,-4.99525,4,0.0141659,10,-0.00076726,-2.30144,-0.130979,-0.450453,87.7322,0.153598,
2,0,0,1,0,7097.39,0.151916,0.151552,-5.16915,4,0.0140644,10,-0.000783398,-2.28658,-0.122177,-0.482905,97.7998,0.151552,
2,0,0,1,0,7097.41,0.149918,0.149578,-5.38841,4,0.0139589,10,-0.000805987,-2.26854,-0.103535,-0.569853,120.155,0.149578,
2,0,0,1,0,7097.43,0.147921,0.147606,-5.6433,4,0.0138491,10,-0.000832986,-2.24847,-0.101269,-0.582604,128.243,0.147606,
2,0,0,1,0,7097.45,0.145923,0.14559,-5.8998,4,0.0137338,10,-0.000858952,-2.22916,-0.0968813,-0.608993,140.64,0.14559,
2,0,0,1,0,7097.47,0.143926,0.143646,-6.20032,4,0.0136129,10,-0.00089065,-2.20759,-0.0913482,-0.64588,156.537,0.143646,
2,0,0,1,0,7097.49,0.141928,0.141556,-6.53122,4,0.0134856,10,-0.000924536,-2.18501,-0.0883088,-0.66811,170.396,0.141556,
2,0,0,1,0,7097.51,0.13993,0.139648,-6.88158,4,0.0133523,10,-0.000960997,-2.16231,-0.0875627,-0.673803,180.997,0.139648,
2,0,0,1,0,7097.53,0.137933,0.137601,-7.24708,4,0.0132111,10,-0.000997209,-2.13984,-0.0897762,-0.657189,186.019,0.137601,
2,0,0,1,0,7097.55,0.135935,0.135586,-7.63706,4,0.0130622,10,-0.00103548,-2.11707,-0.0898269,-0.656819,195.575,0.135586,
2,0,0,1,0,7097.57,0.133938,0.133622,-8.02541,4,0.0129057,10,-0.00107237,-2.09553,-0.0912729,-0.646413,202.666,0.133622,
2,0,0,1,0,7097.59,0.13194,0.131607,-8.44353,4,0.0127419,10,-0.00111123,-2.07348,-0.0950381,-0.620804,204.242,0.131607,
2,0,0,1,0,7097.61,0.129942,0.129595,-8.84792,4,0.0125691,10,-0.00114664,-2.05316,-0.101686,-0.580218,199.974,0.129595,
2,0,0,1,0,7097.63,0.127945,0.127672,-9.23049,4,0.0123883,10,-0.00117847,-2.03478,-0.11111,-0.531004,191.052,0.127672,
2,0,0,1,0,7097.65,0.125947,0.125655,-9.60056,4,0.0122,10,-0.00120636,-2.0177,-0.121513,-0.485546,181.776,0.1256551,
2,0,0,1,0,7097.67,0.12395,0.123635,-9.96433,4,0.0120054,10,-0.00123194,-2.00155,-0.132487,-0.445326,172.772,0.123635,
2,0,0,1,0,7097.69,0.121952,0.121667,-10.2895,4,0.0118029,10,-0.0012519,-1.9876,-0.153431,-0.384538,154.051,0.121667,
2,0,0,1,0,7097.71,0.119955,0.119691,-10.5719,4,0.0115942,10,-0.00126536,-1.97585,-0.172599,-0.341832,140.982,0.119691,
2,0,0,1,0,7097.73,0.117957,0.117684,-10.8511,4,0.0113799,10,-0.001277,-1.96452,-0.190136,-0.310304,131.225,0.117684,
2,0,0,1,0,7097.75,0.115955,0.115634,-11.1043,4,0.0111604,10,-0.00128403,-1.95451,-0.226939,-0.259982,112.384,0.115634,
2,0,0,1,0,7097.77,0.113962,0.113648,-11.3047,4,0.0109374,10,-0.00128476,-1.94674,-0.274018,-0.215315,94.8937,0.113648,
2,0,0,1,0,7097.79,0.111964,0.111639,-11.4834,4,0.0107095,10,-0.00128199,-1.93993,-0.322997,-0.182664,81.7559,0.111639,
2,0,0,1,0,7097.81,0.109967,0.109624,-11.6337,4,0.0104783,10,-0.00127533,-1.93428,-0.40763,-0.144739,65.6012,0.109624,
2,0,0,1,0,7097.83,0.107969,0.107657,-11.7446,4,0.0102445,10,-0.00126439,-1.93016,-0.529787,-0.111366,51.0026,0.107657,
2,0,0,1,0,7097.85,0.105971,0.105644,-11.8366,4,0.0100099,10,-0.00125047,-1.92677,-0.743303,-0.0793755,36.6088,0.105644,
2,0,0,1,0,7097.87,0.103974,0.103649,-11.8913,4,0.00977265,10,-0.00123252,-1.92477,-1.41889,-0.0415818,19.2713,0.103649,
2,0,0,1,0,7097.89,0.101976,0.10163,-11.914,4,0.00953464,10,-0.00121082,-1.92394,-22.9688,-0.00256871,1.19232,0.10163,
2,0,0,1,0,7097.91,0.0999786,0.0996488,-11.8961,4,0.00929668,10,-0.00118543,-1.9246,2.51701,0.0234405,-10.8792,0.0996488,
2,0,0,1,0,7097.93,0.0979811,0.0976528,-11.8707,4,0.00906023,10,-0.00115921,-1.92552,1.1198,0.0526879,-24.3612,0.0976528,
2,0,0,1,0,7097.95,0.0959835,0.0956627,-11.7989,4,0.00882361,10,-0.00112872,-1.92816,0.608876,0.0968999,-44.5573,0.0956627,
2,0,0,1,0,7097.97,0.0939859,0.0936955,-11.6944,4,0.00858877,10,-0.00109571,-1.93202,0.458018,0.128816,-58.7247,0.0936955,
2,0,0,1,0,7097.99,0.0919883,0.0916664,-11.5643,4,0.00835624,10,-0.00106005,-1.93688,0.418361,0.141027,-63.6579,0.0916664,
2,0,0,1,0,7098.01,0.0899907,0.0896792,-11.4387,4,0.00812734,10,-0.00102582,-1.94162,0.334366,0.176453,-78.5635,0.0896792,
2,0,0,1,0,7098.03,0.0879931,0.0877184,-11.2541,4,0.00790049,10,-0.000987191,-1.94869,0.290573,0.203047,-89.2244,0.0877184,
2,0,0,1,0,7098.05,0.0859955,0.0856847,-11.0823,4,0.00767726,10,-0.000949588,-1.95537,0.278257,0.212034,-91.6062,0.0856847,
2,0,0,1,0,7098.07,0.083998,0.0837252,-10.8883,4,0.00745769,10,-0.000911625,-1.96304,0.266726,0.221201,-94.0428,0.0837252,
2,0,0,1,0,7098.09,0.0820004,0.0816958,-10.7072,4,0.00724287,10,-0.000874734,-1.97032,0.27432,0.215078,-89.867,0.0816958,
2,0,0,1,0,7098.11,0.0800028,0.0796987,-10.5264,4,0.00703067,10,-0.000838943,-1.97772,0.274235,0.215144,-88.4083,0.0796987,
2,0,0,1,0,7098.13,0.0780052,0.0776937,-10.3534,4,0.006822,10,-0.000804393,-1.98492,0.284581,0.207322,-83.8038,0.0776937,
2,0,0,1,0,7098.15,0.0760076,0.0756882,-10.1904,4,0.00661668,10,-0.00077129,-1.99181,0.322022,0.183217,-72.9723,0.07568825,
2,0,0,1,0,7098.17,0.07401,0.0736554,-10.0587,4,0.00641541,10,-0.000740878,-1.99746,0.337824,0.174647,-68.5236,0.0736554,
2,0,0,1,0,7098.19,0.0720124,0.0717102,-9.91776,4,0.00621577,10,-0.000711205,-2.00359,0.35205,0.16759,-64.9494,0.0717102,
2,0,0,1,0,7098.21,0.0700148,0.0697195,-9.80307,4,0.00601861,10,-0.000683465,-2.00864,0.391134,0.150844,-57.6999,0.0697195,
2,0,0,1,0,7098.23,0.0680173,0.0676902,-9.6858,4,0.00582388,10,-0.000655634,-2.01386,0.467468,0.126212,-47.8139,0.0676902,
2,0,0,1,0,7098.25,0.0660106,0.0657185,-9.61177,4,0.00563111,10,-0.000631672,-2.0172,0.518621,0.113763,-42.6277,0.0657185,
2,0,0,1,0,7098.27,0.0640221,0.063733,-9.51712,4,0.00544087,10,-0.000606554,-2.02149,0.46598,0.126615,-47.0255,0.063733,
2,0,0,1,0,7098.29,0.0620245,0.0616865,-9.42216,4,0.00525162,10,-0.00058122,-2.02585,0.493709,0.119504,-43.9733,0.0616865,
2,0,0,1,0,7098.31,0.0600269,0.0597171,-9.34053,4,0.00506407,10,-0.00055779,-2.02963,0.548289,0.107607,-39.2402,0.0597171,
2,0,0,1,0,7098.33,0.0580361,0.0577058,-9.26596,4,0.00487904,10,-0.000534699,-2.03311,0.551741,0.106934,-38.6562,0.05770576,
2,0,0,1,0,7098.35,0.0560317,0.0557033,-9.18537,4,0.00469447,10,-0.000511656,-2.0369,0.549108,0.107447,-38.5351,0.0557033,
2,0,0,1,0,7098.37,0.0540342,0.0537556,-9.11374,4,0.00451157,10,-0.000489914,-2.0403,0.570534,0.103412,-36.7712,0.0537556,
2,0,0,1,0,7098.39,0.0520366,0.0516776,-9.03734,4,0.00433009,10,-0.000467028,-2.04396,0.513681,0.114857,-40.4864,0.0516776,
2,0,0,1,0,7098.41,0.050039,0.0497333,-8.95089,4,0.00415017,10,-0.000445158,-2.04813,0.558132,0.10571,-36.9791,0.0497333,
2,0,0,1,0,7098.43,0.0480414,0.0476946,-8.89005,4,0.00397266,10,-0.000424008,-2.0511,0.585537,0.100762,-34.9212,0.0476946,
2,0,0,1,0,7098.45,0.0460438,0.0457008,-8.81007,4,0.00379579,10,-0.000402628,-2.05502,0.484487,0.121778,-41.8581,0.0457008,
2,0,0,1,0,7098.47,0.0440462,0.043756,-8.72519,4,0.00362054,10,-0.000381779,-2.05923,0.455304,0.129584,-44.1097,0.043756,
2,0,0,1,0,7098.49,0.0420486,0.0417249,-8.63469,4,0.00344702,10,-0.000360281,-2.06375,0.528403,0.111657,-37.6868,0.0417249,
2,0,0,1,0,7098.51,0.040051,0.0396969,-8.57221,4,0.0032758,10,-0.00034029,-2.06691,0.500633,0.117851,-39.3554,0.0396969,
2,0,0,1,0,7098.53,0.0380535,0.0377756,-8.47927,4,0.00310543,10,-0.000320309,-2.07164,0.393049,0.150108,-49.6414,0.0377756,
2,0,0,1,0,7098.55,0.0360559,0.0357449,-8.37603,4,0.00293703,10,-0.000299401,-2.07696,0.39258,0.150288,-49.1475,0.0357449,
2,0,0,1,0,7098.57,0.0340583,0.0337282,-8.28035,4,0.00277055,10,-0.000279281,-2.08195,0.405399,0.145536,-47.0359,0.0337282,
2,0,0,1,0,7098.59,0.0320607,0.0317302,-8.1872,4,0.00260674,10,-0.000259781,-2.08686,0.369624,0.159621,-50.9518,0.0317302,
2,0,0,1,0,7098.61,0.0300631,0.0297696,-8.07865,4,0.00244418,10,-0.000240498,-2.09266,0.326592,0.180654,-56.924,0.0297696,
2,0,0,1,0,7098.63,0.0280655,0.0277687,-7.96169,4,0.00228385,10,-0.000221086,-2.09899,0.331415,0.178024,-55.3525,0.0277687,
2,0,0,1,0,7098.65,0.0260679,0.0257533,-7.85634,4,0.00212574,10,-0.000202327,-2.10478,0.334163,0.176561,-54.1029,0.0257533,
2,0,0,1,0,7098.67,0.0240704,0.0237208,-7.74269,4,0.00197063,10,-0.000183663,-2.11111,0.306202,0.192683,-58.2054,0.0237208,
2,0,0,1,0,7098.69,0.0220728,0.0217843,-7.62532,4,0.00181701,10,-0.000166112,-2.11774,0.308371,0.191328,-56.9614,0.0217843,
2,0,0,1,0,7098.71,0.0200752,0.0197311,-7.51543,4,0.00166565,10,-0.000148288,-2.12405,0.298935,0.197367,-57.8354,0.0197311,
2,0,0,1,0,7098.73,0.0180776,0.0177664,-7.39295,4,0.00151654,10,-0.000131346,-2.13118,0.323427,0.182422,-52.7618,0.0177664,
2,0,0,1,0,7098.75,0.01608,0.0157927,-7.30763,4,0.00137038,10,-0.000115407,-2.13622,0.37144,0.158841,-45.2653,0.0157927,
2,0,0,1,0,7098.77,0.0140824,0.0137619,-7.21168,4,0.00122526,10,-9.92468e-05,-2.14196,0.340003,0.173528,-48.8151,0.0137619,
2,0,0,1,0,7098.79,0.0120848,0.0117333,-7.10947,4,0.0010821,10,-8.34176e-05,-2.14816,0.344199,0.171413,-47.6029,0.0117333,
2,0,0,1,0,7098.81,0.0100872,0.00975402,-7.02089,4,0.000940888,10,-6.8482e-05,-2.15361,0.426194,0.138435,-38.0023,0.00975402,
2,0,0,1,0,7098.83,0.00809193,0.00777421,-6.95902,4,0.000801972,10,-5.41009e-05,-2.15745,0.469576,0.125645,-34.0932,0.00777421,
2,0,0,1,0,7098.85,0.00609208,0.00577047,-6.88508,4,0.000663621,10,-3.97302e-05,-2.16209,0.453206,0.130183,-35.0001,0.00577047,
2,0,0,1,0,7098.87,0.00409449,0.00378105,-6.81926,4,0.000526736,10,-2.5784e-05,-2.16626,1.00038,0.0589778,-15.7743,0.00378105,
2,0,0,1,0,7098.89,0.0020969,0.00174435,-6.82157,4,0.000390917,10,-1.18992e-05,-2.16612,0.927698,0.0635983,-16.8405,0.001744349,
2,0,0,1,0,7098.91,9.14991e-05,-0.000288017,-6.75073,4,0.000255359,10,1.94432e-06,-2.17065,0.549304,0.107409,-28.3554,-0.000288017,
2,0,0,1,0,7098.93,-0.00189827,-0.00227265,-6.70767,4,0.000121469,10,1.52442e-05,-2.17343,0.737281,0.0800238,-20.9538,-0.00227265,
2,0,0,1,0,7098.95,-0.00389586,-0.00422951,-6.66814,4,-1.21947e-05,10,2.8203e-05,-2.176,0.971607,0.0607241,-15.8218,-0.00422951,
2,0,0,1,0,7098.97,-0.00589345,-0.00624281,-6.64485,4,-0.000145227,10,4.14826e-05,-2.17751,1.36373,0.0432637,-11.2206,-0.00624281,
2,0,0,1,0,7098.99,-0.00789103,-0.00826026,-6.62292,4,-0.000277843,10,5.4707e-05,-2.17895,3.05239,0.0193291,-5.00513,-0.00826026,
2,0,0,1,0,7099.01,-0.00988862,-0.0101787,-6.62515,4,-0.000409635,10,6.74356e-05,-2.1788,-131.359,-0.000449152,0.116097,-0.0101787,
2,0,0,1,0,7099.03,-0.0118862,-0.0122736,-6.62338,4,-0.000542031,10,8.12925e-05,-2.17892,7.68682,0.00767548,-1.98336,-0.0122736,
2,0,0,1,0,7099.05,-0.0138838,-0.0142417,-6.6171,4,-0.000674395,10,9.42388e-05,-2.17933,-21.9452,-0.00268852,0.695098,-0.0142417,
2,0,0,1,0,7099.07,-0.0158814,-0.016235,-6.62614,4,-0.000806767,10,0.000107576,-2.17874,-1.72331,-0.0342364,8.86511,-0.016235,
2,0,0,1,0,7099.09,-0.017879,-0.0182541,-6.65267,4,-0.000938929,10,0.000121439,-2.177,-1.35324,-0.0435992,11.3133,-0.0182541,
2,0,0,1,0,7099.11,-0.0198766,-0.0202537,-6.6716,4,-0.0010721,10,0.000135125,-2.17577,-1.7059,-0.0345857,9.00378,-0.0202537,
2,0,0,1,0,7099.13,-0.0218741,-0.0222384,-6.68854,4,-0.00120556,10,0.000148742,-2.17467,-1.33984,-0.044035,11.5047,-0.0222384,
2,0,0,1,0,7099.15,-0.0238717,-0.0242264,-6.71731,4,-0.00133956,10,0.000162736,-2.1728,-0.938941,-0.0628368,16.4839,-0.02422639,
2,0,0,1,0,7099.17,-0.0258693,-0.026275,-6.75508,4,-0.00147359,10,0.000177489,-2.17037,-0.996122,-0.0592297,15.5988,-0.026275,
2,0,0,1,0,7099.19,-0.0278669,-0.028195,-6.77921,4,-0.00160888,10,0.00019114,-2.16882,-0.948909,-0.0621767,16.4714,-0.02819499,
2,0,0,1,0,7099.21,-0.0298645,-0.0302742,-6.82095,4,-0.00174487,10,0.000206499,-2.16616,-0.802323,-0.0735365,19.5708,-0.0302742,
2,0,0,1,0,7099.23,-0.0318621,-0.0323035,-6.85962,4,-0.00188166,10,0.00022159,-2.1637,-0.700312,-0.0842482,22.5736,-0.0323035,
2,0,0,1,0,7099.25,-0.0338597,-0.0342348,-6.91035,4,-0.00201861,10,0.000236575,-2.1605,-0.64444,-0.0915524,24.6805,-0.0342348,
2,0,0,1,0,7099.27,-0.0358573,-0.0361921,-6.95559,4,-0.00215722,10,0.000251737,-2.15767,-0.659388,-0.0894769,24.3,-0.0361921,
2,0,0,1,0,7099.29,-0.0378548,-0.0382278,-7.00738,4,-0.00229686,10,0.000267877,-2.15444,-0.690572,-0.0854364,23.3495,-0.03822777,
2,0,0,1,0,7099.31,-0.0398524,-0.040244,-7.0502,4,-0.00243738,10,0.000283728,-2.1518,-0.581735,-0.101421,27.9565,-0.040244,
2,0,0,1,0,7099.33,-0.04185,-0.0422211,-7.11903,4,-0.00257827,10,0.000300573,-2.14758,-0.560069,-0.105344,29.2258,-0.0422211,
2,0,0,1,0,7099.35,-0.0438476,-0.0442613,-7.16761,4,-0.00272111,10,0.000317248,-2.14463,-0.668648,-0.0882377,24.6834,-0.0442613,
2,0,0,1,0,7099.37,-0.0458452,-0.0461844,-7.21685,4,-0.00286506,10,0.000333306,-2.14165,-0.565001,-0.104425,29.4437,-0.0461844,
2,0,0,1,0,7099.39,-0.0478428,-0.048156,-7.28228,4,-0.00301005,10,0.000350686,-2.13773,-0.465831,-0.126655,36.0301,-0.048156,
2,0,0,1,0,7099.41,-0.0498495,-0.0502122,-7.36197,4,-0.00315641,10,0.000369661,-2.13301,-0.477183,-0.123642,35.4827,-0.0502122,
2,0,0,1,0,7099.43,-0.051838,-0.052176,-7.42493,4,-0.0033036,10,0.000387403,-2.12931,-0.530981,-0.111115,32.1993,-0.052176,
2,0,0,1,0,7099.45,-0.0538355,-0.054152,-7.48883,4,-0.00345266,10,0.000405535,-2.12559,-0.503844,-0.1171,34.244,-0.054152,
2,0,0,1,0,7099.47,-0.0558331,-0.0561736,-7.56182,4,-0.00360315,10,0.000424774,-2.12137,-0.468247,-0.126002,37.1964,-0.0561736,
2,0,0,1,0,7099.49,-0.0578216,-0.0582154,-7.63998,4,-0.00375439,10,0.000444765,-2.11691,-0.460188,-0.128209,38.2159,-0.0582154,
2,0,0,1,0,7099.51,-0.0598283,-0.0601589,-7.71412,4,-0.00390806,10,0.000464073,-2.11271,-0.414347,-0.142393,42.9254,-0.0601589,
2,0,0,1,0,7099.53,-0.0618259,-0.0621622,-7.80939,4,-0.00406327,10,0.000485449,-2.10738,-0.418353,-0.141029,42.9375,-0.0621622,
2,0,0,1,0,7099.55,-0.0638235,-0.0642323,-7.88902,4,-0.00422023,10,0.00050673,-2.10298,-0.454119,-0.129922,40.0042,-0.0642323,
2,0,0,1,0,7099.57,-0.0658211,-0.0661892,-7.97049,4,-0.00437887,10,0.00052756,-2.09851,-0.378927,-0.155703,48.5184,-0.0661892,
2,0,0,1,0,7099.59,-0.0678187,-0.0681828,-8.0807,4,-0.00453867,10,0.000550965,-2.09255,-0.355767,-0.165839,52.2602,-0.0681828,
2,0,0,1,0,7099.61,-0.0698162,-0.0701903,-8.17959,4,-0.00470124,10,0.000574128,-2.08727,-0.405937,-0.145343,46.3541,-0.0701903,
2,0,0,1,0,7099.63,-0.0718138,-0.0721393,-8.26409,4,-0.00486573,10,0.000596166,-2.0828,-0.386625,-0.152603,49.3034,-0.0721393,
2,0,0,1,0,7099.65,-0.0738114,-0.0742182,-8.37818,4,-0.0050322,10,0.000621813,-2.07685,-0.333177,-0.177083,57.9137,-0.0742182,
2,0,0,1,0,7099.67,-0.075809,-0.076158,-8.49683,4,-0.00520021,10,0.000647101,-2.07074,-0.345327,-0.170852,56.6018,-0.076158,
2,0,0,1,0,7099.69,-0.0778066,-0.0781435,-8.60036,4,-0.00537133,10,0.000672062,-2.06548,-0.352982,-0.167147,56.1651,-0.0781435,
2,0,0,1,0,7099.71,-0.0798042,-0.0802058,-8.72417,4,-0.00554464,10,0.000699729,-2.05928,-0.326203,-0.180869,61.5779,-0.0802058,
2,0,0,1,0,7099.73,-0.0818018,-0.0821661,-8.84806,4,-0.00572034,10,0.000727011,-2.05315,-0.313849,-0.187989,64.946,-0.0821661,
2,0,0,1,0,7099.75,-0.0837994,-0.0841714,-8.98172,4,-0.00589776,10,0.000756004,-2.04664,-0.32834,-0.179692,62.9242,-0.0841714,
2,0,0,1,0,7099.77,-0.0857969,-0.0861482,-9.09863,4,-0.00607848,10,0.00078383,-2.04102,-0.334661,-0.176298,62.6485,-0.0861482,
2,0,0,1,0,7099.79,-0.0877945,-0.0881386,-9.23027,4,-0.00626178,10,0.000813543,-2.03479,-0.327613,-0.180091,64.8585,-0.0881386,
2,0,0,1,0,7099.81,-0.0897921,-0.090159,-9.35877,4,-0.0064477,10,0.000843777,-2.02878,-0.338872,-0.174107,63.5755,-0.090159,
2,0,0,1,0,7099.83,-0.0917897,-0.0921254,-9.48373,4,-0.00663516,10,0.000873692,-2.02302,-0.337159,-0.174991,64.7957,-0.0921254,
2,0,0,1,0,7099.85,-0.0937873,-0.0941604,-9.61804,4,-0.00682624,10,0.000905638,-2.01691,-0.353103,-0.16709,62.6595,-0.0941604,
2,0,0,1,0,7099.87,-0.0957849,-0.0961376,-9.73513,4,-0.00701981,10,0.000935913,-2.01166,-0.380069,-0.155235,58.971,-0.0961376,
2,0,0,1,0,7099.89,-0.0977825,-0.0981041,-9.8506,4,-0.00721571,10,0.000966384,-2.00654,-0.370807,-0.159112,61.2143,-0.0981041,
2,0,0,1,0,7099.91,-0.0997501,-0.100166,-9.98175,4,-0.00741006,10,0.000999835,-2.00079,0.00741038,7.9618,-2629.46,-0.100166,
2,0,0,1,1,7099.92,-0.0987313,-0.0991079,-7.21109,4,-0.00754181,10,0.000714676,-2.142,-0.00876898,-6.72826,1798.48,-0.0991079,
2,0,0,1,1,7099.94,-0.0967337,-0.097092,-4.45258,4,-0.00765614,10,0.00043231,-2.35139,-0.00881635,-6.69212,1166.19,-0.097092,
2,0,0,1,1,7099.96,-0.0947361,-0.0950891,-2.52448,4,-0.00772473,10,0.00024005,-2.59783,-0.00661502,-8.9191,833.985,-0.0950891,
2,0,0,1,1,7099.98,-0.0927386,-0.0930693,-1.09775,4,-0.00776013,10,0.000102167,-2.9595,-0.00172654,-34.1724,628.771,-0.0930693,
2,0,0,1,1,7100,-0.090741,-0.0910557,0.0116419,4,-0.00777037,10,-1.06006e-06,-4.93398,-0.0404065,-1.46016,491.086,-0.0910557,
2,1,0,1,1,7100.02,-0.0887434,-0.0890557,0.873313,4,-0.00776114,10,-7.77735e-05,-3.05883,0.0018509,31.8765,396.363,-0.0890557,
2,1,0,1,1,7100.04,-0.0867458,-0.0871108,1.57524,4,-0.00773632,10,-0.00013722,-2.80265,0.010216,5.77526,318.793,-0.0871108,
2,1,0,1,1,7100.06,-0.0847482,-0.085073,2.14294,4,-0.00769885,10,-0.000182307,-2.66899,0.0179834,3.2808,263.086,-0.085073,
2,1,0,1,1,7100.08,-0.0827529,-0.0831287,2.62287,4,-0.00765134,10,-0.000218036,-2.58122,0.0265245,2.22436,222.144,-0.0831287,
2,1,0,1,1,7100.1,-0.080753,-0.0810994,3.02566,4,-0.00759464,10,-0.000245379,-2.51918,0.0370946,1.59053,184.745,-0.0810994,
2,1,0,1,1,7100.12,-0.0787554,-0.0791386,3.36002,4,-0.00753063,10,-0.000265907,-2.47366,0.0485868,1.21432,157.663,-0.0791386,
2,1,0,1,1,7100.14,-0.0767579,-0.0771562,3.64737,4,-0.00746043,10,-0.000281417,-2.43802,0.062973,0.93691,132.464,-0.0771562,
2,1,0,1,1,7100.16,-0.0747603,-0.0750713,3.8988,4,-0.00738488,10,-0.000292688,-2.40907,0.0753898,0.782599,118.542,-0.07507129,
2,1,0,1,1,7100.18,-0.0727627,-0.0731281,4.12486,4,-0.00730484,10,-0.000301643,-2.38459,0.0923761,0.638694,102.12,-0.0731281,
2,1,0,1,1,7100.2,-0.0707651,-0.0711273,4.30156,4,-0.00722048,10,-0.000305958,-2.36637,0.11689,0.504747,84.5617,-0.0711273,
2,1,0,1,1,7100.22,-0.0687675,-0.069104,4.46514,4,-0.00713276,10,-0.000308559,-2.35016,0.135141,0.436582,75.8683,-0.069104,
2,1,0,1,1,7100.24,-0.0667699,-0.0670949,4.60749,4,-0.00704199,10,-0.000309139,-2.33654,0.156491,0.377019,67.6797,-0.0670949,
2,1,0,1,1,7100.26,-0.0647723,-0.0650878,4.73696,4,-0.00694888,10,-0.000308318,-2.3245,0.179734,0.328262,60.5529,-0.0650878,
2,1,0,1,1,7100.28,-0.0627748,-0.0631265,4.84778,4,-0.00685306,10,-0.000306024,-2.31446,0.210182,0.280709,53.022,-0.0631265,
2,1,0,1,1,7100.3,-0.0607772,-0.0611775,4.9443,4,-0.00675512,10,-0.000302479,-2.3059,0.25414,0.232155,44.7291,-0.0611775,
2,1,0,1,1,7100.32,-0.0587796,-0.0591208,5.02696,4,-0.00665535,10,-0.000297198,-2.29869,0.28117,0.209837,41.1693,-0.0591208,
2,1,0,1,1,7100.34,-0.056782,-0.0571267,5.11106,4,-0.00655444,10,-0.000291978,-2.29149,0.322182,0.183127,36.4394,-0.0571267,
2,1,0,1,1,7100.36,-0.0547844,-0.0551665,5.17105,4,-0.00645158,10,-0.000285269,-2.28642,0.392382,0.150364,30.3485,-0.0551665,
2,1,0,1,1,7100.38,-0.0527868,-0.0531163,5.23277,4,-0.00634751,10,-0.000277945,-2.28127,0.4669,0.126365,25.7573,-0.0531163,
2,1,0,1,1,7100.4,-0.0507892,-0.05113,5.27502,4,-0.00624248,10,-0.000269712,-2.27778,0.485488,0.121527,25.0532,-0.05113,
2,1,0,1,1,7100.42,-0.0487916,-0.0491464,5.33223,4,-0.00613691,10,-0.00026206,-2.27309,0.5273,0.111891,23.2366,-0.0491464,
2,1,0,1,1,7100.44,-0.046794,-0.0471387,5.36776,4,-0.00602988,10,-0.000253029,-2.27021,0.898742,0.0656473,13.7319,-0.0471387,
2,1,0,1,1,7100.46,-0.0447965,-0.045122,5.38749,4,-0.00592227,10,-0.000243094,-2.26861,1.01718,0.0580033,12.2058,-0.045122,
2,1,0,1,1,7100.48,-0.0427989,-0.0431577,5.41635,4,-0.00581418,10,-0.000233757,-2.26629,0.788172,0.0748567,15.8299,-0.0431577,
2,1,0,1,1,7100.5,-0.0408013,-0.0411884,5.44976,4,-0.005706,10,-0.000224467,-2.26362,1.20049,0.0491465,10.4286,-0.0411884,
2,1,0,1,1,7100.52,-0.0388037,-0.039166,5.45798,4,-0.00559686,10,-0.000213767,-2.26297,2.17408,0.0271379,5.78423,-0.039166,
2,1,0,1,1,7100.54,-0.0368061,-0.0371593,5.47307,4,-0.00548748,10,-0.000203375,-2.26177,1.57381,0.0374885,8.00882,-0.0371593,
2,1,0,1,1,7100.56,-0.0348085,-0.035158,5.49008,4,-0.00537777,10,-0.00019302,-2.26042,1.67605,0.0352019,7.53967,-0.035158,
2,1,0,1,1,7100.58,-0.0328109,-0.0331655,5.50318,4,-0.00526841,10,-0.000182516,-2.25939,3.40497,0.0173276,3.71764,-0.0331655,
2,1,0,1,1,7100.6,-0.0308134,-0.0311644,5.50493,4,-0.00515836,10,-0.000171558,-2.25925,9.15068,0.00644761,1.38546,-0.0311644,
2,1,0,1,1,7100.62,-0.0288158,-0.0291589,5.50873,4,-0.00504825,10,-0.000160629,-2.25895,-37.8149,-0.00156023,-0.33516,-0.0291589,
2,1,0,1,1,7100.64,-0.0268182,-0.0271756,5.50359,4,-0.0049381,10,-0.000149563,-2.25935,105.971,0.000556755,0.119701,-0.0271756,
2,1,0,1,1,7100.66,-0.0248138,-0.0251762,5.50921,4,-0.00482805,10,-0.000138701,-2.25891,5.3539,0.01102,2.36902,-0.0251762,
2,1,0,1,1,7100.68,-0.022823,-0.0231343,5.51317,4,-0.00471838,10,-0.000127543,-2.2586,-13.5621,-0.00435034,-0.935036,-0.02313426,
2,1,0,1,1,7100.7,-0.0208254,-0.0211649,5.50546,4,-0.0046082,10,-0.000116523,-2.25921,-2.72641,-0.0216402,-4.64837,-0.0211649,
2,1,0,1,1,7100.72,-0.0188278,-0.0191765,5.49477,4,-0.00449821,10,-0.000105371,-2.26005,-5.37562,-0.0109755,-2.35617,-0.0191765,
2,1,0,1,1,7100.74,-0.0168393,-0.0171586,5.49602,4,-0.00438886,10,-9.4304e-05,-2.25995,-9.06431,-0.00650905,-1.39511,-0.0171586,
2,1,0,1,1,7100.76,-0.0148327,-0.0151601,5.48916,4,-0.0042789,10,-8.32162e-05,-2.26049,-4.56857,-0.0129143,-2.76723,-0.01516008,
2,1,0,1,1,7100.78,-0.0128351,-0.013152,5.48493,4,-0.00416914,10,-7.21378e-05,-2.26083,-5.21025,-0.0113238,-2.42371,-0.013152,
2,1,0,1,1,7100.8,-0.0108375,-0.0111821,5.47952,4,-0.00405951,10,-6.12726e-05,-2.26126,-10.4492,-0.00564636,-1.20813,-0.0111821,
2,1,0,1,1,7100.82,-0.00883989,-0.00919139,5.48014,4,-0.00394987,10,-5.03701e-05,-2.26121,-6.93041,-0.0085132,-1.81934,-0.00919139,
2,1,0,1,1,7100.84,-0.0068423,-0.00721543,5.47231,4,-0.00384077,10,-3.94851e-05,-2.26183,-4.17682,-0.0141256,-3.01772,-0.00721543,
2,1,0,1,1,7100.86,-0.00484471,-0.00515774,5.46797,4,-0.0037313,10,-2.82024e-05,-2.26217,-9.69967,-0.00608268,-1.29844,-0.00515774,
2,1,0,1,1,7100.88,-0.00284713,-0.00319548,5.46709,4,-0.00362187,10,-1.74699e-05,-2.26224,-9.57641,-0.00616097,-1.31412,-0.00319548,
2,1,0,1,1,7100.9,-0.000849538,-0.00124898,5.46284,4,-0.00351244,10,-6.823e-06,-2.26258, , , ,-0.00124898,
2,1,0,1,1,7100.91,-2.55332e-05,-0.000363498,5.47606,4,-0.00346816,10,-1.99054e-06,-2.26153, , , ,-0.000363498,