File: Figure_codes/Fig_3-5/rawdata_trumpetplot_data/after 10th/20221101_1-115_003_TrumpetPlot_ParaChange_from10_every3_06_CV_C01_9.csv
mode,ox/red,error,control changes,counter inc.,time/s,control/V,Ewe/V,<I>/mA,cycle number,(Q-Qo)/C,I Range,P/W,log(|I|),Tafel slope mV/dec,alpha_eff,dI/d(E-IR),E-IR/V,
2,0,0,0,0,18881.2,2.44065e-05,-0.000382585,-1.44969,10,0.0000000E+000,10,5.5463e-07,-2.83872, , , ,-0.000382585,
2,0,0,1,0,18881.2,0.00129787,0.000951311,-0.158986,10,-2.07784e-05,10,-1.51245e-07,-3.79864, , , ,0.000951311,
2,1,0,1,0,18881.3,0.00279427,0.00247847,0.561705,10,-1.12303e-05,10,1.39217e-06,-3.25049,0.0145843,4.04545,381.867,0.00247847,
2,1,0,1,0,18881.3,0.00429425,0.00399343,0.915391,10,1.76408e-05,10,3.65555e-06,-3.03839,0.00796893,7.40375,202.635,0.003993433,
2,1,0,1,0,18881.3,0.00579422,0.00545899,1.12223,10,5.69671e-05,10,6.12625e-06,-2.94992,0.0191341,3.08351,126.064,0.00545899,
2,1,0,1,0,18881.4,0.00729063,0.00695155,1.27541,10,0.000102766,10,8.8661e-06,-2.89435,0.0329472,1.79075,86.5349,0.00695155,
2,1,0,1,0,18881.4,0.00878703,0.00842758,1.38616,10,0.000153333,10,1.1682e-05,-2.85819,0.0478638,1.23266,65.384,0.00842758,
2,1,0,1,0,18881.4,0.010287,0.00997714,1.47205,10,0.000207543,10,1.46869e-05,-2.83208,0.0672928,0.876765,49.5878,0.00997714,
2,1,0,1,0,18881.5,0.011787,0.0114669,1.53443,10,0.000264523,10,1.75951e-05,-2.81405,0.0820669,0.718926,42.748,0.01146689,
2,1,0,1,0,18881.5,0.0132825,0.0129813,1.59034,10,0.000323534,10,2.06447e-05,-2.79851,0.0980009,0.602036,37.2772,0.0129813,
2,1,0,1,0,18881.6,0.014778,0.0144116,1.64368,10,0.000384673,10,2.36882e-05,-2.78418,0.110044,0.536151,34.2719,0.01441162,
2,1,0,1,0,18881.6,0.0162816,0.0159529,1.69269,10,0.000448126,10,2.70034e-05,-2.77142,0.123308,0.478477,31.5203,0.0159529,
2,1,0,1,0,18881.6,0.017778,0.017463,1.73541,10,0.000512931,10,3.03056e-05,-2.7606,0.14502,0.40684,27.5852,0.017463,
2,1,0,1,0,18881.7,0.0192744,0.0189442,1.77386,10,0.000579201,10,3.36042e-05,-2.75108,0.153571,0.384187,26.6322,0.0189442,
2,1,0,1,0,18881.7,0.0207743,0.0204383,1.81859,10,0.00064721,10,3.7169e-05,-2.74026,0.153027,0.385553,27.3315,0.0204383,
2,1,0,1,0,18881.7,0.0222743,0.0219441,1.85876,10,0.000716735,10,4.07889e-05,-2.73078,0.155942,0.378345,27.4001,0.0219441,
2,1,0,1,0,18881.8,0.0237707,0.023483,1.89684,10,0.000787587,10,4.45437e-05,-2.72197,0.174396,0.33831,24.9417,0.023483,
2,1,0,1,0,18881.8,0.0252671,0.0249799,1.93588,10,0.000859804,10,4.8358e-05,-2.71312,0.183778,0.321039,24.2054,0.0249799,
2,1,0,1,0,18881.9,0.0267671,0.0264327,1.96953,10,0.000933594,10,5.20602e-05,-2.70564,0.172958,0.341123,26.2276,0.0264327,
2,1,0,1,0,18881.9,0.0282671,0.0279532,2.01126,10,0.00100885,10,5.62211e-05,-2.69653,0.187419,0.314802,24.6829,0.0279532,
2,1,0,1,0,18881.9,0.0297626,0.0295017,2.04587,10,0.00108536,10,6.03565e-05,-2.68912,0.206382,0.285878,22.819,0.0295017,
2,1,0,1,0,18882,0.0312581,0.030908,2.07428,10,0.00116311,10,6.41118e-05,-2.68313,0.20001,0.294985,23.9964,0.030908,
2,1,0,1,0,18882,0.0327616,0.0324258,2.11753,10,0.00124261,10,6.86625e-05,-2.67417,0.195049,0.302488,25.0053,0.0324258,
2,1,0,1,0,18882,0.034258,0.0339523,2.15685,10,0.00132316,10,7.323e-05,-2.66618,0.193229,0.305337,25.6573,0.0339523,
2,1,0,1,0,18882.1,0.0357545,0.035437,2.19538,10,0.00140515,10,7.77978e-05,-2.65849,0.211017,0.279598,23.8661,0.03543698,
2,1,0,1,0,18882.1,0.0372544,0.0369246,2.23124,10,0.00148875,10,8.23877e-05,-2.65145,0.221219,0.266704,23.2005,0.0369246,
2,1,0,1,0,18882.2,0.0387544,0.0384472,2.26628,10,0.0015736,10,8.7132e-05,-2.64469,0.208333,0.2832,25.0712,0.0384472,
2,1,0,1,0,18882.2,0.0402508,0.0399387,2.29997,10,0.00165961,10,9.18577e-05,-2.63828,0.20567,0.286868,25.8271,0.0399387,
2,1,0,1,0,18882.2,0.0417472,0.0414454,2.33984,10,0.00174716,10,9.69756e-05,-2.63081,0.233562,0.25261,23.0854,0.0414454,
2,1,0,1,0,18882.3,0.0432472,0.0429362,2.37952,10,0.00183631,10,0.000102168,-2.62351,0.245212,0.240608,22.3408,0.0429362,
2,1,0,1,0,18882.3,0.0447472,0.0443777,2.40835,10,0.00192667,10,0.000106877,-2.61828,0.228574,0.258122,24.2849,0.0443777,
2,1,0,1,0,18882.3,0.0462427,0.0459198,2.44822,10,0.00201809,10,0.000112422,-2.61115,0.230759,0.255679,24.4007,0.0459198,
2,1,0,1,0,18882.4,0.0477382,0.0474393,2.48453,10,0.00211085,10,0.000117864,-2.60476,0.233811,0.252341,24.3967,0.0474393,
2,1,0,1,0,18882.4,0.0492417,0.0489302,2.51657,10,0.00220545,10,0.000123136,-2.59919,0.26161,0.225526,22.1028,0.0489302,
2,1,0,1,0,18882.5,0.0507381,0.0504403,2.54489,10,0.00230073,10,0.000128365,-2.59433,0.263619,0.223808,22.2808,0.0504403,
2,1,0,1,0,18882.5,0.0522345,0.0518686,2.58169,10,0.00239728,10,0.000133909,-2.5881,0.251049,0.235014,23.6844,0.0518686,
2,1,0,1,0,18882.5,0.0537345,0.0534092,2.61724,10,0.00249545,10,0.000139785,-2.58216,0.259382,0.227464,23.2295,0.0534092,
2,1,0,1,0,18882.6,0.0552345,0.0549132,2.65078,10,0.00259489,10,0.000145563,-2.57663,0.292627,0.201622,20.8393,0.0549132,
2,1,0,1,0,18882.6,0.0567309,0.0564027,2.68021,10,0.00269523,10,0.000151171,-2.57183,0.300304,0.196468,20.5531,0.0564027,
2,1,0,1,0,18882.6,0.0582273,0.0578942,2.71302,10,0.00279663,10,0.000157068,-2.56655,0.304416,0.193813,20.5156,0.05789423,
2,1,0,1,0,18882.7,0.0597309,0.0593982,2.74619,10,0.00289985,10,0.000163119,-2.56127,0.286219,0.206136,22.0416,0.0593982,
2,1,0,1,0,18882.7,0.0612264,0.0608867,2.77793,10,0.00300374,10,0.000169139,-2.55628,0.341048,0.172996,18.7141,0.0608867,
2,1,0,1,0,18882.8,0.0627219,0.0624005,2.8044,10,0.00310877,10,0.000174996,-2.55216,0.328861,0.179407,19.6545,0.0624005,
2,1,0,1,0,18882.8,0.0642218,0.0639156,2.82937,10,0.00321505,10,0.000180841,-2.54831,0.33377,0.176769,19.582,0.0639156,
2,1,0,1,0,18882.8,0.0657218,0.0654117,2.85946,10,0.00332248,10,0.000187042,-2.54372,0.321776,0.183357,20.5125,0.0654117,
2,1,0,1,0,18882.9,0.0672182,0.0669109,2.89571,10,0.00343084,10,0.000193755,-2.53825,0.330953,0.178273,20.1171,0.0669109,
2,1,0,1,0,18882.9,0.0687146,0.0683812,2.9191,10,0.00354027,10,0.000199611,-2.53475,0.412696,0.142962,16.2833,0.0683812,
2,1,0,1,0,18882.9,0.0702146,0.0698922,2.94454,10,0.0036508,10,0.0002058,-2.53098,0.413273,0.142763,16.3935,0.06989222,
2,1,0,1,0,18883,0.0717146,0.0714154,2.9751,10,0.00376232,10,0.000212468,-2.5265,0.385277,0.153137,17.7342,0.07141538,
2,1,0,1,0,18883,0.073211,0.0728919,2.99725,10,0.00387453,10,0.000218475,-2.52328,0.421956,0.139825,16.3373,0.0728919,
2,1,0,1,0,18883.1,0.0747074,0.0744089,3.02416,10,0.00398773,10,0.000225024,-2.5194,0.482474,0.122286,14.4169,0.0744089,
2,1,0,1,0,18883.1,0.0762109,0.0758949,3.0367,10,0.00410238,10,0.00023047,-2.5176,0.442774,0.133251,15.8487,0.0758949,
2,1,0,1,0,18883.1,0.0777064,0.0774286,3.06097,10,0.00421722,10,0.000237006,-2.51414,0.429025,0.137521,16.4926,0.0774286,
2,1,0,1,0,18883.2,0.079202,0.0789141,3.09257,10,0.00433307,10,0.000244047,-2.50968,0.46372,0.127232,15.3385,0.0789141,
2,1,0,1,0,18883.2,0.0807019,0.0803856,3.11973,10,0.00445016,10,0.000250781,-2.50588,0.555819,0.10615,12.8854,0.0803856,
2,1,0,1,0,18883.2,0.0822019,0.081909,3.14105,10,0.00456804,10,0.00025728,-2.50292,0.561666,0.105045,12.8391,0.081909,
2,1,0,1,0,18883.3,0.0836983,0.0834061,3.15614,10,0.00468624,10,0.000263242,-2.50084,0.559842,0.105387,12.9728,0.0834061,
2,1,0,1,0,18883.3,0.0851947,0.0849064,3.17578,10,0.00480526,10,0.000269644,-2.49815,0.490685,0.12024,14.9229,0.0849064,
2,1,0,1,0,18883.4,0.0866947,0.0863755,3.2054,10,0.00492552,10,0.000276867,-2.49412,0.443306,0.133091,16.629,0.08637546,
2,1,0,1,0,18883.4,0.0881947,0.087863,3.22715,10,0.00504676,10,0.000283547,-2.49118,0.443916,0.132908,16.7497,0.087863,
2,1,0,1,0,18883.4,0.0896911,0.0894072,3.24901,10,0.00516844,10,0.000290485,-2.48825,0.429293,0.137435,17.4956,0.08940722,
2,1,0,1,0,18883.5,0.0911875,0.0908856,3.27962,10,0.00529116,10,0.000298071,-2.48418,0.352097,0.167568,21.467,0.0908856,
2,1,0,1,0,18883.5,0.0926901,0.0923883,3.31604,10,0.00541581,10,0.000306364,-2.47938,0.335923,0.175635,22.713,0.09238825,
2,1,0,1,0,18883.5,0.0941856,0.0938822,3.35216,10,0.00554101,10,0.000314709,-2.47467,0.340937,0.173052,22.5946,0.0938822,
2,1,0,1,0,18883.6,0.0956821,0.0953846,3.38065,10,0.00566737,10,0.000322462,-2.471,0.31884,0.185046,24.4205,0.0953846,
2,1,0,1,0,18883.6,0.097182,0.0968469,3.42124,10,0.00579544,10,0.000331336,-2.46582,0.264828,0.222786,29.7405,0.0968469,
2,1,0,1,0,18883.7,0.098682,0.0983386,3.46343,10,0.00592514,10,0.000340588,-2.46049,0.249073,0.236878,32.0665,0.0983386,
2,1,0,1,0,18883.7,0.100178,0.0998626,3.50972,10,0.00605622,10,0.000350489,-2.45473,0.255175,0.231214,31.7361,0.0998626,
2,1,0,1,0,18883.7,0.101675,0.101402,3.5563,10,0.00618915,10,0.000360615,-2.449,0.236192,0.249797,34.7672,0.101402,
2,1,0,1,0,18883.8,0.103175,0.102892,3.61678,10,0.00632427,10,0.000372136,-2.44168,0.213747,0.276028,39.046,0.102892,
2,1,0,1,0,18883.8,0.104675,0.104372,3.68047,10,0.00646162,10,0.000384138,-2.4341,0.200631,0.294073,42.2124,0.104372,
2,1,0,1,0,18883.8,0.106171,0.105874,3.74574,10,0.00660102,10,0.000396576,-2.42646,0.215003,0.274415,39.9601,0.105874,
2,1,0,1,0,18883.9,0.107667,0.107397,3.80017,10,0.00674274,10,0.000408125,-2.4202,0.222729,0.264895,39.2824,0.107397,
2,1,0,1,0,18883.9,0.10917,0.108848,3.86242,10,0.00688734,10,0.000420416,-2.41314,0.215644,0.273599,41.278,0.108848,
2,1,0,1,0,18884,0.110666,0.110352,3.92199,10,0.00703358,10,0.0004328,-2.40649,0.213995,0.275708,42.2416,0.110352,
2,1,0,1,0,18884,0.112162,0.111855,3.98303,10,0.0071822,10,0.000445523,-2.39979,0.236561,0.249407,38.7961,0.111855,
2,1,0,1,0,18884,0.113662,0.11332,4.03858,10,0.00733342,10,0.00045765,-2.39377,0.256082,0.230395,36.358,0.11332,
2,1,0,1,0,18884.1,0.115162,0.114846,4.10109,10,0.00748664,10,0.000470993,-2.3871,0.25999,0.226932,36.2704,0.114846,
2,1,0,1,0,18884.1,0.116658,0.116341,4.15075,10,0.00764156,10,0.000482901,-2.38187,0.265086,0.22257,36.007,0.116341,
2,1,0,1,0,18884.1,0.118155,0.11783,4.20735,10,0.00779848,10,0.000495752,-2.37599,0.305708,0.192995,31.5971,0.11783,
2,1,0,1,0,18884.2,0.119655,0.119366,4.24771,10,0.00795753,10,0.000507033,-2.37185,0.37883,0.155743,25.7611,0.119366,
2,1,0,1,0,18884.2,0.121155,0.120877,4.27964,10,0.00811805,10,0.000517311,-2.36859,0.389718,0.151392,25.3107,0.120877,
2,1,0,1,0,18884.3,0.122651,0.122322,4.31836,10,0.0082795,10,0.000528232,-2.36468,0.397265,0.148515,25.0259,0.122322,
2,1,0,1,0,18884.3,0.124147,0.123825,4.35391,10,0.00844243,10,0.000539123,-2.36112,0.438019,0.134697,22.8867,0.1238249,
2,1,0,1,0,18884.3,0.12565,0.125335,4.38309,10,0.00860742,10,0.000549355,-2.35822,0.480662,0.122747,20.9988,0.125335,
2,1,0,1,0,18884.4,0.127146,0.12683,4.40844,10,0.00877266,10,0.000559124,-2.35571,0.519721,0.113522,19.5626,0.12683,
2,1,0,1,0,18884.4,0.128642,0.128355,4.44556,10,0.00893892,10,0.000570608,-2.35207,0.533018,0.11069,19.2059,0.128355,
2,1,0,1,0,18884.4,0.130142,0.129839,4.47987,10,0.00910683,10,0.000581664,-2.34873,0.542557,0.108744,18.9773,0.129839,
2,1,0,1,0,18884.5,0.131642,0.131294,4.50524,10,0.00927584,10,0.000591509,-2.34628,0.63645,0.0927018,16.2661,0.131294,
2,1,0,1,0,18884.5,0.133139,0.132827,4.53074,10,0.00944541,10,0.000601804,-2.34383,0.664598,0.0887754,15.6856,0.132827,
2,1,0,1,0,18884.6,0.134635,0.134279,4.54548,10,0.00961575,10,0.000610364,-2.34242,0.769511,0.0766721,13.624,0.134279,
2,1,0,1,0,18884.6,0.136135,0.135839,4.57067,10,0.00978744,10,0.000620874,-2.34002,0.812519,0.0726137,12.9466,0.135839,
2,1,0,1,0,18884.6,0.137635,0.137312,4.58552,10,0.00995982,10,0.000629648,-2.33861,2.02028,0.0292039,5.21722,0.137312,
2,1,0,1,0,18884.7,0.13913,0.138833,4.59411,10,0.0101321,10,0.000637814,-2.3378,-4.65494,-0.0126747,-2.26537,0.138833,
2,1,0,1,0,18884.7,0.140626,0.140333,4.58156,10,0.0103042,10,0.000642946,-2.33899,-0.923004,-0.0639217,-11.3951,0.140333,
2,1,0,1,0,18884.7,0.14213,0.141802,4.5632,10,0.0104767,10,0.00064707,-2.34073,-0.568673,-0.10375,-18.3839,0.141802,
2,1,0,1,0,18884.8,0.143626,0.143301,4.52291,10,0.0106473,10,0.000648136,-2.34458,-0.318223,-0.185404,-32.5578,0.143301,
2,1,0,1,0,18884.8,0.145122,0.144816,4.46095,10,0.010816,10,0.000646018,-2.35057,-0.212085,-0.27819,-48.2297,0.144816,
2,1,0,1,0,18884.9,0.146622,0.1463,4.37181,10,0.0109824,10,0.000639596,-2.35934,-0.164463,-0.358743,-61.1294,0.1463,
2,1,0,1,0,18884.9,0.148122,0.147837,4.27497,10,0.0111454,10,0.000632,-2.36907,-0.136831,-0.431188,-71.777,0.147837,
2,1,0,1,0,18884.9,0.149619,0.149325,4.16035,10,0.0113039,10,0.000621245,-2.38087,-0.113746,-0.518697,-83.903,0.149325,
2,1,0,1,0,18885,0.151115,0.150764,4.02822,10,0.0114576,10,0.000607311,-2.39489,-0.095458,-0.618073,-96.6402,0.150764,
2,1,0,1,0,18885,0.152615,0.15229,3.87847,10,0.0116064,10,0.00059065,-2.41134,-0.0872553,-0.676177,-101.892,0.15229,
2,1,0,1,0,18885,0.154115,0.153842,3.72118,10,0.0117493,10,0.000572476,-2.42932,-0.0831804,-0.709302,-102.865,0.153842,
2,1,0,1,0,18885.1,0.155611,0.155265,3.56656,10,0.0118861,10,0.000553762,-2.44775,-0.0812885,-0.72581,-100.852,0.155265,
2,1,0,1,0,18885.1,0.157106,0.156826,3.40725,10,0.0120171,10,0.000534343,-2.4676,-0.0782844,-0.753663,-100.291,0.156826,
2,1,0,1,0,18885.2,0.15861,0.15828,3.26138,10,0.0121432,10,0.000516211,-2.4866,-0.0789117,-0.747671,-95.4202,0.15828,
2,1,0,1,0,18885.2,0.160106,0.159772,3.11975,10,0.012263,10,0.00049845,-2.50588,-0.0821928,-0.717824,-87.7932,0.1597721,
2,1,0,1,0,18885.2,0.161602,0.161302,2.99623,10,0.012378,10,0.000483298,-2.52342,-0.0875437,-0.673949,-79.0247,0.161302,
2,1,0,1,0,18885.3,0.163102,0.162811,2.88281,10,0.0124888,10,0.000469353,-2.54018,-0.0929251,-0.63492,-71.5992,0.162811,
2,1,0,1,0,18885.3,0.164602,0.16426,2.78307,10,0.0125956,10,0.000457146,-2.55548,-0.0957008,-0.616505,-66.9788,0.16426,
2,1,0,1,0,18885.3,0.166099,0.165782,2.68559,10,0.0126983,10,0.000445223,-2.57096,-0.103401,-0.570593,-59.906,0.165782,
2,1,0,1,0,18885.4,0.167595,0.167244,2.60124,10,0.0127977,10,0.000435041,-2.58482,-0.115005,-0.513021,-52.1636,0.167244,
2,1,0,1,0,18885.4,0.169095,0.168803,2.52729,10,0.0128945,10,0.000426614,-2.59734,-0.122374,-0.482128,-47.6588,0.168803,
2,1,0,1,0,18885.5,0.170595,0.170277,2.45888,10,0.0129886,10,0.000418692,-2.60926,-0.129721,-0.454821,-43.7828,0.170277,
2,1,0,1,0,18885.5,0.172091,0.171782,2.39195,10,0.0130799,10,0.000410895,-2.62125,-0.141216,-0.417798,-39.2165,0.1717823,
2,1,0,1,0,18885.5,0.173586,0.173287,2.33969,10,0.0131691,10,0.000405438,-2.63084,-0.157708,-0.374108,-34.2697,0.173287,
2,1,0,1,0,18885.6,0.17509,0.174785,2.29492,10,0.0132569,10,0.000401117,-2.63923,-0.163654,-0.360517,-32.2967,0.174785,
2,1,0,1,0,18885.6,0.176586,0.176256,2.25216,10,0.0133424,10,0.000396958,-2.6474,-0.175026,-0.337092,-29.5761,0.176256,
2,1,0,1,0,18885.6,0.178083,0.177785,2.20874,10,0.0134264,10,0.00039268,-2.65586,-0.192326,-0.306771,-26.435,0.177785,
2,1,0,1,0,18885.7,0.179582,0.17925,2.1734,10,0.013509,10,0.000389581,-2.66286,-0.212967,-0.277038,-23.5137,0.17925,
2,1,0,1,0,18885.7,0.181082,0.180771,2.13774,10,0.0135904,10,0.00038644,-2.67005,-0.240883,-0.244932,-20.4693,0.180771,
2,1,0,1,0,18885.8,0.182579,0.18226,2.10718,10,0.0136705,10,0.000384056,-2.6763,-0.235813,-0.250198,-20.6295,0.18226,
2,1,0,1,0,18885.8,0.184075,0.183751,2.07955,10,0.0137495,10,0.000382118,-2.68203,-0.26861,-0.219649,-17.8887,0.183751,
2,1,0,1,0,18885.8,0.185579,0.185256,2.05742,10,0.0138278,10,0.000381149,-2.68668,-0.303933,-0.194122,-15.6167,0.185256,
2,1,0,1,0,18885.9,0.187074,0.186762,2.03677,10,0.0139049,10,0.000380391,-2.69106,-0.353234,-0.167028,-13.2712,0.186762,
2,1,0,1,0,18885.9,0.18857,0.188283,2.01915,10,0.0139812,10,0.000380171,-2.69483,-0.365067,-0.161614,-12.6976,0.188283,
2,1,0,1,0,18885.9,0.19007,0.18974,2.00192,10,0.0140571,10,0.000379846,-2.69855,-0.343179,-0.171922,-13.3793,0.18974,
2,1,0,1,0,18886,0.19157,0.191243,1.98133,10,0.0141322,10,0.000378916,-2.70304,-0.426774,-0.138246,-10.6723,0.191243,
2,1,0,1,0,18886,0.193066,0.192718,1.95902,10,0.0142064,10,0.000377539,-2.70796,-0.55096,-0.107086,-8.21987,0.192718,
2,1,0,1,0,18886.1,0.194563,0.194243,1.94941,10,0.0142802,10,0.00037866,-2.7101,-0.503775,-0.117116,-8.92376,0.194243,
2,1,0,1,0,18886.1,0.196063,0.195748,1.93424,10,0.0143537,10,0.000378623,-2.71349,-0.431493,-0.136735,-10.3395,0.195748,
2,1,0,1,0,18886.1,0.197563,0.197224,1.92147,10,0.0144266,10,0.00037896,-2.71637,-0.516017,-0.114337,-8.59202,0.197224,
2,1,0,1,0,18886.2,0.199059,0.198755,1.91522,10,0.0144989,10,0.000380659,-2.71778,-0.646551,-0.0912534,-6.80331,0.198755,
2,1,0,1,0,18886.2,0.200555,0.200239,1.90571,10,0.0145707,10,0.000381598,-2.71994,-0.66776,-0.088355,-6.54566,0.200239,
2,1,0,1,0,18886.2,0.202059,0.20176,1.89455,10,0.0146426,10,0.000382243,-2.72249,-0.626284,-0.0942065,-6.92968,0.20176,
2,1,0,1,0,18886.3,0.203554,0.203228,1.87973,10,0.0147138,10,0.000382014,-2.7259,-0.666244,-0.0885562,-6.50372,0.203228,
2,1,0,1,0,18886.3,0.20505,0.204752,1.87015,10,0.0147845,10,0.000382916,-2.72812,-1.63013,-0.0361934,-2.6556,0.204752,
2,1,0,1,0,18886.4,0.20655,0.206231,1.8612,10,0.0148552,10,0.000383837,-2.73021,-1.03451,-0.0570318,-4.15843,0.206231,
2,1,0,1,0,18886.4,0.20805,0.207766,1.85661,10,0.0149258,10,0.000385741,-2.73128,-0.798004,-0.0739345,-5.36367,0.207766,
2,1,0,1,0,18886.4,0.209546,0.209218,1.84995,10,0.0149958,10,0.000387044,-2.73284,-0.624763,-0.0944359,-6.81812,0.209218,
2,1,0,1,0,18886.5,0.211043,0.210729,1.84255,10,0.0150653,10,0.000388278,-2.73458,-0.767709,-0.0768521,-5.52137,0.210729,
2,1,0,1,0,18886.5,0.212543,0.212221,1.83765,10,0.0151349,10,0.000389988,-2.73574,-1.83475,-0.032157,-2.29993,0.212221,
2,1,0,1,0,18886.5,0.214043,0.213718,1.83068,10,0.0152042,10,0.000391248,-2.73739,-1.08513,-0.0543716,-3.87535,0.213718,
2,1,0,1,0,18886.6,0.215539,0.215237,1.82359,10,0.0152731,10,0.000392504,-2.73907,-1.11174,-0.0530701,-3.77457,0.215237,
2,1,0,1,0,18886.6,0.217035,0.216758,1.81233,10,0.0153417,10,0.000392838,-2.74176,-1.07184,-0.0550456,-3.90531,0.216758,
2,1,0,1,0,18886.7,0.218538,0.218255,1.8057,10,0.0154104,10,0.000394103,-2.74335,-2.98074,-0.0197937,-1.39881,0.218255,
2,1,0,1,0,18886.7,0.220034,0.219764,1.80638,10,0.0154787,10,0.000396977,-2.74319,-1.49109,-0.0395683,-2.79086,0.219764,
2,1,0,1,0,18886.7,0.22153,0.221234,1.80088,10,0.0155468,10,0.000398415,-2.74452,-1.06281,-0.0555131,-3.90237,0.2212338,
2,1,0,1,0,18886.8,0.22303,0.222733,1.79115,10,0.0156148,10,0.000398947,-2.74687,-1.41289,-0.0417584,-2.91983,0.222733,
2,1,0,1,0,18886.8,0.22453,0.22424,1.79272,10,0.0156826,10,0.000401999,-2.74649,-1.09664,-0.0538007,-3.75337,0.22424,
2,1,0,1,0,18886.8,0.226026,0.225719,1.78459,10,0.01575,10,0.000402815,-2.74846,-1.77515,-0.0332366,-2.31246,0.225719,
2,1,0,1,0,18886.9,0.227523,0.227217,1.78047,10,0.0158174,10,0.000404554,-2.74946,-0.90222,-0.0653942,-4.5434,0.227217,
2,1,0,1,0,18886.9,0.229023,0.22868,1.7758,10,0.0158847,10,0.000406089,-2.75061,-1.39879,-0.0421792,-2.92973,0.22868,
2,1,0,1,0,18887,0.230523,0.230222,1.76861,10,0.0159518,10,0.000407172,-2.75237,-1.16636,-0.0505846,-3.50709,0.230222,
2,1,0,1,0,18887,0.232019,0.231722,1.76765,10,0.0160186,10,0.000409603,-2.7526,-1.8881,-0.0312484,-2.16151,0.231722,
2,1,0,1,0,18887,0.233515,0.233213,1.76419,10,0.0160853,10,0.000411433,-2.75345,-1.47222,-0.0400754,-2.76084,0.233213,
2,1,0,1,0,18887.1,0.235018,0.234711,1.76435,10,0.0161522,10,0.000414112,-2.75341,-1.68489,-0.0350171,-2.40551,0.234711,
2,1,0,1,0,18887.1,0.236514,0.236196,1.76109,10,0.0162185,10,0.000415963,-2.75422,-1.30961,-0.0450515,-3.08415,0.236196,
2,1,0,1,0,18887.1,0.23801,0.237706,1.75542,10,0.0162848,10,0.000417273,-2.75562,-5.31455,-0.0111016,-0.757179,0.2377056,
2,1,0,1,0,18887.2,0.23951,0.239198,1.7495,10,0.0163511,10,0.000418476,-2.75709,-1.28326,-0.0459768,-3.14064,0.239198,
2,1,0,1,0,18887.2,0.24101,0.240703,1.74475,10,0.0164172,10,0.000419967,-2.75827,-1.46199,-0.0403559,-2.75397,0.240703,
2,1,0,1,0,18887.3,0.242506,0.242178,1.73131,10,0.016483,10,0.000419284,-2.76163,-1.14195,-0.0516659,-3.51965,0.242178,
2,1,0,1,0,18887.3,0.244003,0.243688,1.73697,10,0.0165487,10,0.000423279,-2.76021,-2.79298,-0.0211244,-1.43432,0.243688,
2,1,0,1,0,18887.3,0.245503,0.245221,1.74147,10,0.0166144,10,0.000427044,-2.75908,-2.35576,-0.025045,-1.6964,0.245221,
2,1,0,1,0,18887.4,0.247003,0.246677,1.73348,10,0.0166801,10,0.00042761,-2.76108,-1.45819,-0.0404611,-2.72911,0.2466775,
2,1,0,1,0,18887.4,0.248499,0.248205,1.7287,10,0.0167455,10,0.000429072,-2.76228,-1.21735,-0.048466,-3.26255,0.248205,
2,1,0,1,0,18887.4,0.249995,0.249743,1.72859,10,0.0168106,10,0.000431704,-2.76231,-1.78331,-0.0330846,-2.22579,0.249743,
2,1,0,1,0,18887.5,0.251498,0.251192,1.7211,10,0.016876,10,0.000432327,-2.76419,-1.93389,-0.0305085,-2.05087,0.251192,
2,1,0,1,0,18887.5,0.252994,0.252672,1.7154,10,0.0169409,10,0.000433434,-2.76563,-1.03376,-0.0570731,-3.82287,0.252672,
2,1,0,1,0,18887.6,0.25449,0.254191,1.7116,10,0.0170058,10,0.000435072,-2.7666,-1.05898,-0.0557142,-3.7307,0.254191,
2,1,0,1,0,18887.6,0.25599,0.255709,1.70813,10,0.0170706,10,0.000436784,-2.76748,-1.59836,-0.0369128,-2.47074,0.255709,
2,1,0,1,0,18887.6,0.25749,0.257235,1.71022,10,0.0171353,10,0.000439929,-2.76695,-2.49996,-0.0236003,-1.57265,0.257235,
2,1,0,1,0,18887.7,0.258987,0.258731,1.71031,10,0.0171998,10,0.000442509,-2.76693,-2.48995,-0.0236952,-1.57454,0.258731,
2,1,0,1,0,18887.7,0.260483,0.260161,1.70613,10,0.0172642,10,0.000443867,-2.76799,-1.97294,-0.0299045,-1.98398,0.260161,
2,1,0,1,0,18887.7,0.261983,0.261708,1.6996,10,0.0173285,10,0.000444797,-2.76965,-1.94426,-0.0303457,-2.01117,0.261708,
2,1,0,1,0,18887.8,0.263483,0.263158,1.69519,10,0.0173928,10,0.000446102,-2.77078,24.6267,0.00239577,0.158567,0.263158,
2,1,0,1,0,18887.8,0.264978,0.264677,1.69155,10,0.0174568,10,0.000447715,-2.77171,-1.94331,-0.0303606,-2.00843,0.264677,
2,1,0,1,0,18887.9,0.266474,0.266203,1.68778,10,0.0175207,10,0.000449292,-2.77268,-1.36435,-0.0432442,-2.85774,0.266203,
2,1,0,1,0,18887.9,0.267977,0.267677,1.68414,10,0.0175847,10,0.000450806,-2.77362,-2.80429,-0.0210392,-1.38591,0.267677,
2,1,0,1,0,18887.9,0.269474,0.269187,1.68535,10,0.0176483,10,0.000453673,-2.77331,-2.63031,-0.0224308,-1.47313,0.269187,
2,1,0,1,0,18888,0.27097,0.270687,1.68954,10,0.0177118,10,0.000457336,-2.77223,-2.10525,-0.0280252,-1.83561,0.270687,
2,1,0,1,0,18888,0.27247,0.272145,1.68019,10,0.0177755,10,0.000457254,-2.77464,-1.1522,-0.0512063,-3.33982,0.272145,
2,1,0,1,0,18888,0.27397,0.273682,1.67066,10,0.0178389,10,0.00045723,-2.77711,-1.91829,-0.0307566,-2.01136,0.2736823,
2,1,0,1,0,18888.1,0.275467,0.275162,1.66798,10,0.017902,10,0.000458965,-2.77781,-1.28624,-0.04587,-2.99431,0.275162,
2,1,0,1,0,18888.1,0.276963,0.276709,1.66491,10,0.017965,10,0.000460696,-2.77861,-1.82509,-0.0323271,-2.10829,0.276709,
2,1,0,1,0,18888.2,0.278463,0.278177,1.6652,10,0.0180281,10,0.000463221,-2.77853,-2.03313,-0.0290192,-1.88697,0.278177,
2,1,0,1,0,18888.2,0.279963,0.279675,1.66048,10,0.0180911,10,0.000464396,-2.77977,-1.6195,-0.0364311,-2.36086,0.279675,
2,1,0,1,0,18888.2,0.281459,0.281136,1.65915,10,0.0181537,10,0.000466446,-2.78011,-2.15368,-0.027395,-1.77221,0.281136,
2,1,0,1,0,18888.3,0.282954,0.282625,1.65821,10,0.0182162,10,0.000468653,-2.78036,-3.22749,-0.0182805,-1.1778,0.282625,
2,1,0,1,0,18888.3,0.284458,0.284124,1.65422,10,0.018279,10,0.000470005,-2.78141,-3.3869,-0.0174201,-1.12025,0.284124,
2,1,0,1,0,18888.3,0.285954,0.285645,1.64915,10,0.0183413,10,0.000471073,-2.78274,-1.15272,-0.0511834,-3.29066,0.285645,
2,1,0,1,0,18888.4,0.28745,0.287145,1.64112,10,0.0184034,10,0.00047124,-2.78486,-1.44411,-0.0408555,-2.62376,0.287145,
2,1,0,1,0,18888.4,0.28895,0.288646,1.63818,10,0.0184656,10,0.000472855,-2.78564,-3.76583,-0.0156672,-1.00473,0.2886464,
2,1,0,1,0,18888.5,0.29045,0.290158,1.63621,10,0.0185277,10,0.000474759,-2.78616,-3.05383,-0.01932,-1.23724,0.290158,
2,1,0,1,0,18888.5,0.291947,0.291697,1.63511,10,0.0185895,10,0.000476956,-2.78645,-0.846565,-0.0696934,-4.44543,0.291697,
2,1,0,1,0,18888.5,0.293443,0.29312,1.6254,10,0.0186511,10,0.000476438,-2.78904,-0.994478,-0.0593276,-3.77181,0.2931197,
2,1,0,1,0,18888.6,0.294943,0.294648,1.63028,10,0.0187127,10,0.00048036,-2.78774,-2.00906,-0.029367,-1.86495,0.294648,
2,1,0,1,0,18888.6,0.296443,0.296168,1.63107,10,0.0187743,10,0.000483071,-2.78753,-1.98042,-0.0297916,-1.88319,0.296168,
2,1,0,1,0,18888.6,0.297939,0.297682,1.61964,10,0.0188356,10,0.000482138,-2.79058,-1.21634,-0.0485062,-3.06622,0.2976819,
2,1,0,1,0,18888.7,0.299434,0.299168,1.61336,10,0.0188968,10,0.000482665,-2.79227,-0.0132882,-4.44003,-234.058,0.299168,
2,1,0,0,0,18888.7,0.299962,0.29967,1.53076,10,0.0189208,10,0.000458722,-2.81509,0.000718942,82.065,1886.9,0.29967,
2,1,0,1,0,18888.7,0.298689,0.298403,0.329318,10,0.0189449,10,9.82697e-05,-3.48238,0.00321565,18.3478,584.773,0.298403,
2,0,0,1,0,18888.8,0.297189,0.296895,-0.0989218,10,0.018947,10,-2.93694e-05,-4.00471,0.0136366,4.32659,236.562,0.296895,
2,0,0,1,0,18888.8,0.295692,0.295411,-0.283866,10,0.0189387,10,-8.38572e-05,-3.54689,-0.00205167,-28.7571,100.832,0.295411,
2,0,0,1,0,18888.8,0.294196,0.293834,-0.38825,10,0.0189255,10,-0.000114081,-3.41089,-0.0137791,-4.28185,56.5166,0.293834,
2,0,0,1,0,18888.9,0.292696,0.292379,-0.451029,10,0.0189091,10,-0.000131871,-3.3458,-0.024346,-2.4234,40.7029,0.292379,
2,0,0,1,0,18888.9,0.291196,0.290901,-0.502496,10,0.0188906,10,-0.000146177,-3.29887,-0.0341522,-1.72756,33.0626,0.2909008,
2,0,0,1,0,18888.9,0.2897,0.28938,-0.548018,10,0.0188703,10,-0.000158585,-3.26121,-0.0445757,-1.32359,27.8439,0.28938,
2,0,0,1,0,18889,0.288205,0.287894,-0.583558,10,0.0188484,10,-0.000168003,-3.23392,-0.0546872,-1.07886,24.3692,0.287894,
2,0,0,1,0,18889,0.286701,0.286369,-0.614754,10,0.0188251,10,-0.000176046,-3.2113,-0.0691657,-0.853024,20.4834,0.286369,
2,0,0,1,0,18889.1,0.285205,0.284918,-0.644562,10,0.0188008,10,-0.000183647,-3.19074,-0.0783778,-0.752764,18.973,0.284918,
2,0,0,1,0,18889.1,0.283708,0.283416,-0.678758,10,0.0187754,10,-0.000192371,-3.16829,-0.0883776,-0.66759,17.53,0.283416,
2,0,0,1,0,18889.1,0.282208,0.28187,-0.70256,10,0.0187489,10,-0.000198031,-3.15332,-0.103363,-0.570804,15.4918,0.28187,
2,0,0,1,0,18889.2,0.280709,0.280378,-0.726328,10,0.0187214,10,-0.000203646,-3.13887,-0.114056,-0.517289,14.5203,0.280378,
2,0,0,1,0,18889.2,0.279212,0.278912,-0.747394,10,0.0186933,10,-0.000208457,-3.12645,-0.127728,-0.461919,13.4034,0.278912,
2,0,0,1,0,18889.2,0.277716,0.277407,-0.766242,10,0.0186644,10,-0.000212561,-3.11563,-0.132748,-0.44445,13.2416,0.277407,
2,0,0,1,0,18889.3,0.276216,0.275871,-0.783673,10,0.0186347,10,-0.000216193,-3.10587,-0.143828,-0.410212,12.5985,0.275871,
2,0,0,1,0,18889.3,0.274716,0.274397,-0.80193,10,0.0186042,10,-0.000220047,-3.09586,-0.159222,-0.370553,11.6622,0.274397,
2,0,0,1,0,18889.4,0.27322,0.272928,-0.819995,10,0.0185732,10,-0.000223799,-3.08619,-0.15895,-0.371185,11.8695,0.272928,
2,0,0,1,0,18889.4,0.271725,0.271419,-0.837785,10,0.0185416,10,-0.000227391,-3.07687,-0.138014,-0.427494,13.9211,0.271419,
2,0,0,1,0,18889.4,0.270221,0.269918,-0.858678,10,0.018509,10,-0.000231773,-3.06617,-0.164125,-0.359482,11.9459,0.269918,
2,0,0,1,0,18889.5,0.268725,0.268391,-0.875256,10,0.018476,10,-0.000234911,-3.05786,-0.227695,-0.259119,8.76392,0.268391,
2,0,0,1,0,18889.5,0.267228,0.266916,-0.881544,10,0.0184426,10,-0.000235298,-3.05476,-0.22665,-0.260313,8.97674,0.266916,
2,0,0,1,0,18889.5,0.265728,0.265427,-0.896718,10,0.0184086,10,-0.000238013,-3.04734,-0.203029,-0.290598,10.1733,0.265427,
2,0,0,1,0,18889.6,0.264228,0.26388,-0.909946,10,0.018374,10,-0.000240117,-3.04098,-0.226739,-0.260211,9.26562,0.2638801,
2,0,0,1,0,18889.6,0.262732,0.262396,-0.923602,10,0.0183389,10,-0.00024235,-3.03451,-0.259204,-0.22762,8.20986,0.262396,
2,0,0,1,0,18889.7,0.261236,0.260943,-0.934616,10,0.0183034,10,-0.000243881,-3.02937,-0.26088,-0.226158,8.28128,0.260943,
2,0,0,1,0,18889.7,0.259736,0.259432,-0.951348,10,0.0182674,10,-0.00024681,-3.02166,-0.232252,-0.254034,9.44697,0.259432,
2,0,0,1,0,18889.7,0.258236,0.257974,-0.965145,10,0.0182309,10,-0.000248983,-3.01541,-0.244722,-0.24109,9.03815,0.257974,
2,0,0,1,0,18889.8,0.256741,0.25643,-0.977039,10,0.0181939,10,-0.000250542,-3.01009,-0.284231,-0.207577,7.87763,0.25643,
2,0,0,1,0,18889.8,0.255241,0.254917,-0.987956,10,0.0181563,10,-0.000251847,-3.00526,-0.314281,-0.18773,7.22889,0.254917,
2,0,0,1,0,18889.8,0.253741,0.253429,-0.997133,10,0.0181185,10,-0.000252702,-3.00125,-0.339767,-0.173648,6.77719,0.253429,
2,0,0,1,0,18889.9,0.252245,0.251909,-1.00978,10,0.0180803,10,-0.000254373,-2.99577,-0.307542,-0.191844,7.56441,0.251909,
2,0,0,1,0,18889.9,0.250748,0.250432,-1.02299,10,0.0180416,10,-0.00025619,-2.99013,-0.314412,-0.187652,7.49303,0.250432,
2,0,0,1,0,18890,0.249248,0.248898,-1.03284,10,0.0180024,10,-0.000257071,-2.98597,-0.39925,-0.147777,5.96614,0.248898,
2,0,0,1,0,18890,0.247748,0.247486,-1.04135,10,0.0179628,10,-0.00025772,-2.9824,-0.339175,-0.173952,7.0773,0.247486,
2,0,0,1,0,18890,0.246252,0.245969,-1.05616,10,0.017923,10,-0.000259783,-2.97627,-0.292689,-0.201579,8.26129,0.245969,
2,0,0,1,0,18890.1,0.244756,0.244428,-1.06775,10,0.0178827,10,-0.000260989,-2.97153,-0.333899,-0.1767,7.33828,0.244428,
2,0,0,1,0,18890.1,0.243252,0.242937,-1.07555,10,0.0178417,10,-0.000261292,-2.96837,-0.406267,-0.145225,6.07838,0.242937,
2,0,0,1,0,18890.1,0.241756,0.241444,-1.08074,10,0.0178006,10,-0.000260939,-2.96628,-0.385588,-0.153013,6.47655,0.241444,
2,0,0,1,0,18890.2,0.240261,0.239997,-1.08762,10,0.0177593,10,-0.000261025,-2.96352,-0.382157,-0.154387,6.60992,0.239997,
2,0,0,1,0,18890.2,0.238761,0.238456,-1.10366,10,0.0177174,10,-0.000263176,-2.95716,-0.40086,-0.147184,6.35294,0.238456,
2,0,0,1,0,18890.3,0.237261,0.236938,-1.11437,10,0.0176751,10,-0.000264036,-2.95297,-0.463858,-0.127194,5.51606,0.236938,
2,0,0,1,0,18890.3,0.235765,0.235473,-1.12413,10,0.0176326,10,-0.000264702,-2.94918,-0.475668,-0.124036,5.43548,0.2354729,
2,0,0,1,0,18890.3,0.234268,0.233948,-1.13419,10,0.0175898,10,-0.000265342,-2.94531,-0.417806,-0.141214,6.22619,0.233948,
2,0,0,1,0,18890.4,0.232768,0.232418,-1.14598,10,0.0175465,10,-0.000266347,-2.94082,-0.356477,-0.165509,7.37623,0.232418,
2,0,0,1,0,18890.4,0.231268,0.230916,-1.15129,10,0.0175028,10,-0.000265851,-2.93882,-0.413561,-0.142663,6.41115,0.230916,
2,0,0,1,0,18890.4,0.229772,0.229479,-1.16115,10,0.0174588,10,-0.000266459,-2.93511,-0.499474,-0.118124,5.35646,0.229479,
2,0,0,1,0,18890.5,0.228275,0.227957,-1.16603,10,0.0174146,10,-0.000265804,-2.93329,-0.427568,-0.13799,6.31763,0.227957,
2,0,0,1,0,18890.5,0.226772,0.22647,-1.17865,10,0.0173698,10,-0.00026693,-2.92861,-0.33193,-0.177748,8.20274,0.22647,
2,0,0,1,0,18890.6,0.225276,0.224953,-1.19293,10,0.0173248,10,-0.000268353,-2.92339,-0.39353,-0.149925,6.95157,0.224953,
2,0,0,1,0,18890.6,0.223781,0.223494,-1.1977,10,0.0172795,10,-0.000267678,-2.92165,-0.407882,-0.14465,6.75653,0.223494,
2,0,0,1,0,18890.6,0.222281,0.221972,-1.2047,10,0.0172338,10,-0.000267409,-2.91912,-0.389862,-0.151336,7.11053,0.221972,
2,0,0,1,0,18890.7,0.220781,0.220466,-1.21625,10,0.0171877,10,-0.000268142,-2.91498,-0.343362,-0.17183,8.13667,0.220466,
2,0,0,1,0,18890.7,0.219284,0.218988,-1.22931,10,0.0171413,10,-0.000269204,-2.91034,-0.40815,-0.144555,6.91892,0.218988,
2,0,0,1,0,18890.7,0.217788,0.217459,-1.23409,10,0.0170946,10,-0.000268363,-2.90865,-0.532492,-0.1108,5.34409,0.217459,
2,0,0,1,0,18890.8,0.216288,0.215979,-1.24119,10,0.0170474,10,-0.000268071,-2.90616,-0.471244,-0.1252,6.1002,0.215979,
2,0,0,1,0,18890.8,0.214788,0.214459,-1.25017,10,0.017,10,-0.000268109,-2.90303,-0.603812,-0.0977125,4.78111,0.214459,
2,0,0,1,0,18890.9,0.213292,0.212974,-1.26252,10,0.0169523,10,-0.000268885,-2.89876,-0.410802,-0.143622,7.0817,0.212974,
2,0,0,1,0,18890.9,0.211796,0.211501,-1.27343,10,0.0169042,10,-0.000269333,-2.89502,-0.51871,-0.113744,5.63602,0.211501,
2,0,0,1,0,18890.9,0.210293,0.209957,-1.28263,10,0.0168556,10,-0.000269297,-2.8919,-0.512616,-0.115096,5.74528,0.209957,
2,0,0,1,0,18891,0.208797,0.208502,-1.29051,10,0.0168069,10,-0.000269073,-2.88924,-0.392007,-0.150508,7.58268,0.208502,
2,0,0,1,0,18891,0.207301,0.20696,-1.29834,10,0.0167578,10,-0.000268706,-2.88661,-0.380061,-0.155238,7.87534,0.20696,
2,0,0,1,0,18891,0.205801,0.205499,-1.30765,10,0.0167081,10,-0.00026872,-2.88351,-0.452469,-0.130396,6.66919,0.205499,
2,0,0,1,0,18891.1,0.204301,0.203953,-1.31783,10,0.016658,10,-0.000268775,-2.88014,-0.629229,-0.0937656,4.8442,0.203953,
2,0,0,1,0,18891.1,0.202804,0.202497,-1.32522,10,0.0166079,10,-0.000268353,-2.87771,-0.514031,-0.114779,5.95224,0.202497,
2,0,0,1,0,18891.2,0.201308,0.201005,-1.33565,10,0.0165574,10,-0.000268473,-2.87431,-0.362011,-0.162978,8.50638,0.201005,
2,0,0,1,0,18891.2,0.199808,0.199538,-1.35211,10,0.0165063,10,-0.000269797,-2.86899,-0.502845,-0.117332,6.17497,0.199538,
2,0,0,1,0,18891.2,0.198308,0.197995,-1.36031,10,0.0164549,10,-0.000269334,-2.86636,-0.592315,-0.0996092,5.27232,0.197995,
2,0,0,1,0,18891.3,0.196812,0.196527,-1.3642,10,0.0164033,10,-0.000268101,-2.86512,-0.513145,-0.114977,6.13544,0.196527,
2,0,0,1,0,18891.3,0.195316,0.195023,-1.37832,10,0.0163513,10,-0.000268805,-2.86065,-0.342322,-0.172352,9.27174,0.195023,
2,0,0,1,0,18891.3,0.193813,0.193482,-1.39258,10,0.0162985,10,-0.000269438,-2.85618,-0.418076,-0.141123,7.67894,0.1934815,
2,0,0,1,0,18891.4,0.192317,0.192029,-1.40125,10,0.0162456,10,-0.000269082,-2.85348,-0.497699,-0.118546,6.48411,0.192029,
2,0,0,1,0,18891.4,0.190821,0.190526,-1.4066,10,0.0161923,10,-0.000267994,-2.85183,-0.44853,-0.131541,7.25964,0.190526,
2,0,0,1,0,18891.5,0.189321,0.189003,-1.42247,10,0.0161385,10,-0.000268851,-2.84696,-0.470094,-0.125507,6.97945,0.189003,
2,0,0,1,0,18891.5,0.187821,0.187504,-1.43842,10,0.0160842,10,-0.000269709,-2.84211,-0.345586,-0.170725,9.54434,0.1875041,
2,0,0,1,0,18891.5,0.186324,0.186058,-1.45162,10,0.0160296,10,-0.000270086,-2.83815,-0.556931,-0.105938,5.96935,0.186058,
2,0,0,1,0,18891.6,0.184828,0.184509,-1.4614,10,0.0159744,10,-0.000269642,-2.83523,-0.401501,-0.146949,8.39185,0.184509,
2,0,0,1,0,18891.6,0.183328,0.183052,-1.47093,10,0.0159188,10,-0.000269257,-2.83241,-0.355502,-0.165963,9.57381,0.183052,
2,0,0,1,0,18891.6,0.181828,0.18151,-1.48707,10,0.0158626,10,-0.000269919,-2.82767,-0.322577,-0.182902,10.6317,0.18151,
2,0,0,1,0,18891.7,0.180332,0.18001,-1.50144,10,0.015806,10,-0.000270274,-2.82349,-0.34143,-0.172803,10.1577,0.18001,
2,0,0,1,0,18891.7,0.178836,0.178504,-1.51868,10,0.0157487,10,-0.000271091,-2.81853,-0.350339,-0.168408,9.97294,0.178504,
2,0,0,1,0,18891.8,0.177333,0.177045,-1.53062,10,0.0156908,10,-0.000270989,-2.81513,-0.324031,-0.182081,10.8953,0.1770446,
2,0,0,1,0,18891.8,0.175837,0.175533,-1.54987,10,0.0156325,10,-0.000272054,-2.8097,-0.29317,-0.201248,12.151,0.175533,
2,0,0,1,0,18891.8,0.174341,0.174023,-1.5708,10,0.0155735,10,-0.000273355,-2.80388,-0.291059,-0.202708,12.388,0.174023,
2,0,0,1,0,18891.9,0.172841,0.172519,-1.58571,10,0.0155136,10,-0.000273564,-2.79978,-0.290062,-0.203405,12.5854,0.1725187,
2,0,0,1,0,18891.9,0.171341,0.171018,-1.59986,10,0.0154531,10,-0.000273604,-2.79592,-0.28984,-0.20356,12.7703,0.171018,
2,0,0,1,0,18891.9,0.169844,0.16957,-1.62309,10,0.0153921,10,-0.000275227,-2.78966,-0.245112,-0.240706,15.3411,0.16957,
2,0,0,1,0,18892,0.168348,0.168011,-1.65266,10,0.0153301,10,-0.000277665,-2.78182,-0.249272,-0.23669,15.2606,0.168011,
2,0,0,1,0,18892,0.166848,0.166541,-1.67327,10,0.015267,10,-0.000278668,-2.77643,-0.243506,-0.242294,15.8294,0.166541,
2,0,0,1,0,18892.1,0.165348,0.165007,-1.69828,10,0.0152031,10,-0.000280228,-2.76999,-0.233373,-0.252815,16.7843,0.165007,
2,0,0,1,0,18892.1,0.163852,0.163569,-1.72635,10,0.0151384,10,-0.000282377,-2.76287,-0.212679,-0.277414,18.7137,0.163569,
2,0,0,1,0,18892.1,0.162357,0.162045,-1.75598,10,0.0150726,10,-0.000284547,-2.75548,-0.182355,-0.323545,22.185,0.162045,
2,0,0,1,0,18892.2,0.160853,0.160541,-1.78688,10,0.0150052,10,-0.000286869,-2.7479,-0.183209,-0.322037,22.4942,0.160541,
2,0,0,1,0,18892.2,0.159357,0.159039,-1.82816,10,0.0149369,10,-0.00029075,-2.73798,-0.178762,-0.330048,23.554,0.159039,
2,0,0,1,0,18892.2,0.157861,0.157503,-1.86321,10,0.0148673,10,-0.000293462,-2.72974,-0.169878,-0.347309,25.3742,0.157503,
2,0,0,1,0,18892.3,0.156361,0.156042,-1.90309,10,0.014796,10,-0.000296962,-2.72054,-0.138587,-0.425727,31.7353,0.156042,
2,0,0,1,0,18892.3,0.154861,0.154549,-1.9548,10,0.0147228,10,-0.000302112,-2.7089,-0.131684,-0.448041,34.216,0.154549,
2,0,0,1,0,18892.4,0.153364,0.153054,-2.00895,10,0.0146481,10,-0.000307478,-2.69703,-0.133022,-0.443536,34.7876,0.153054,
2,0,0,1,0,18892.4,0.151868,0.151546,-2.06206,10,0.0145714,10,-0.000312497,-2.6857,-0.123516,-0.477672,38.5162,0.151546,
2,0,0,1,0,18892.4,0.150368,0.150045,-2.12781,10,0.0144922,10,-0.000319267,-2.67207,-0.108452,-0.544019,45.1639,0.150045,
2,0,0,1,0,18892.5,0.148868,0.148538,-2.1975,10,0.0144105,10,-0.000326412,-2.65807,-0.0995134,-0.592885,50.9658,0.1485377,
2,0,0,1,0,18892.5,0.147372,0.147039,-2.27524,10,0.0143262,10,-0.00033455,-2.64297,-0.0972593,-0.606626,53.9036,0.147039,
2,0,0,1,0,18892.5,0.145877,0.145603,-2.34967,10,0.0142389,10,-0.000342119,-2.62899,-0.0937239,-0.629509,58.1765,0.145603,
2,0,0,1,0,18892.6,0.144373,0.144043,-2.44803,10,0.014148,10,-0.000352621,-2.61118,-0.0850746,-0.693509,66.6112,0.144043,
2,0,0,1,0,18892.6,0.142877,0.142573,-2.55923,10,0.0140537,10,-0.000364876,-2.59189,-0.0812044,-0.726562,72.4652,0.142573,
2,0,0,1,0,18892.7,0.14138,0.141062,-2.66883,10,0.0139553,10,-0.000376471,-2.57368,-0.0817786,-0.72146,75.0121,0.141062,
2,0,0,1,0,18892.7,0.13988,0.13955,-2.78671,10,0.0138524,10,-0.000388885,-2.55491,-0.0800217,-0.7373,80.0502,0.13955,
2,0,0,1,0,18892.7,0.13838,0.138084,-2.90639,10,0.0137451,10,-0.000401325,-2.53665,-0.0810956,-0.727536,82.5466,0.138084,
2,0,0,1,0,18892.8,0.136884,0.136524,-3.03368,10,0.0136333,10,-0.00041417,-2.51803,-0.080734,-0.730795,86.5228,0.136524,
2,0,0,1,0,18892.8,0.135388,0.13507,-3.16629,10,0.0135167,10,-0.000427669,-2.49945,-0.0832341,-0.708844,87.5751,0.13507,
2,0,0,1,0,18892.8,0.133888,0.133562,-3.30138,10,0.0133947,10,-0.000440939,-2.4813,-0.0870978,-0.677399,87.2215,0.133562,
2,0,0,1,0,18892.9,0.132389,0.132069,-3.42678,10,0.013268,10,-0.000452571,-2.46511,-0.0899927,-0.655609,87.6658,0.132069,
2,0,0,1,0,18892.9,0.130893,0.130568,-3.56295,10,0.0131366,10,-0.000465206,-2.44819,-0.0943611,-0.625257,86.6138,0.130568,
2,0,0,1,0,18893,0.129393,0.129089,-3.68254,10,0.0130001,10,-0.000475375,-2.43385,-0.0995965,-0.592391,85.0599,0.129089,
2,0,0,1,0,18893,0.127893,0.127562,-3.81213,10,0.0128588,10,-0.000486285,-2.41883,-0.110154,-0.535614,79.3073,0.127562,
2,0,0,1,0,18893,0.126397,0.126137,-3.91517,10,0.0127136,10,-0.000493849,-2.40725,-0.120167,-0.490982,74.9896,0.126137,
2,0,0,1,0,18893.1,0.1249,0.124572,-4.0292,10,0.0125642,10,-0.000501927,-2.39478,-0.130523,-0.452029,70.969,0.124572,
2,0,0,1,0,18893.1,0.1234,0.123105,-4.1282,10,0.0124105,10,-0.000508203,-2.38424,-0.148142,-0.398267,64.128,0.123105,
2,0,0,1,0,18893.1,0.1219,0.121554,-4.21954,10,0.0122531,10,-0.000512902,-2.37473,-0.170866,-0.3453,56.7729,0.121554,
2,0,0,1,0,18893.2,0.120404,0.120088,-4.30086,10,0.0120929,10,-0.000516481,-2.36644,-0.193383,-0.305093,51.1211,0.120088,
2,0,0,1,0,18893.2,0.118908,0.118563,-4.37856,10,0.0119299,10,-0.000519136,-2.35867,-0.217461,-0.271314,46.3007,0.118563,
2,0,0,1,0,18893.3,0.117404,0.117081,-4.44729,10,0.0117634,10,-0.000520692,-2.3519,-0.242451,-0.243348,42.1151,0.117081,
2,0,0,1,0,18893.3,0.115909,0.115597,-4.50576,10,0.0115953,10,-0.000520851,-2.34623,-0.305879,-0.192887,33.7863,0.115597,
2,0,0,1,0,18893.3,0.114413,0.114079,-4.54931,10,0.0114252,10,-0.00051898,-2.34205,-0.37522,-0.157241,27.8816,0.114079,
2,0,0,1,0,18893.4,0.112913,0.112598,-4.58136,10,0.0112533,10,-0.000515853,-2.33901,-0.448268,-0.131618,23.5557,0.112598,
2,0,0,1,0,18893.4,0.111413,0.111089,-4.62117,10,0.0110799,10,-0.000513359,-2.33525,-0.571088,-0.103312,18.6025,0.111089,
2,0,0,1,0,18893.4,0.109917,0.109587,-4.64225,10,0.010906,10,-0.000508728,-2.33327,-0.882991,-0.0668183,12.1029,0.1095866,
2,0,0,1,0,18893.5,0.10842,0.108135,-4.658,10,0.0107313,10,-0.000503692,-2.3318,-1.68596,-0.0349949,6.35018,0.108135,
2,0,0,1,0,18893.5,0.10692,0.106621,-4.66376,10,0.0105559,10,-0.000497252,-2.33126,-4.62956,-0.0127442,2.31479,0.106621,
2,0,0,1,0,18893.6,0.10542,0.105105,-4.66429,10,0.0103804,10,-0.000490242,-2.33121,-157.18,-0.000375367,0.0681855,0.105105,
2,0,0,1,0,18893.6,0.103924,0.103614,-4.65919,10,0.0102054,10,-0.000482758,-2.33169,1.40767,0.0419133,-7.6006,0.103614,
2,0,0,1,0,18893.6,0.102427,0.102118,-4.64163,10,0.0100308,10,-0.000473992,-2.33333,0.6989,0.0844184,-15.2584,0.102118,
2,0,0,1,0,18893.7,0.100924,0.100607,-4.60868,10,0.00985612,10,-0.000463666,-2.33642,0.578862,0.101924,-18.3509,0.100607,
2,0,0,1,0,18893.7,0.0994284,0.0990857,-4.5805,10,0.00968348,10,-0.000453862,-2.33909,0.520178,0.113423,-20.2987,0.0990857,
2,0,0,1,0,18893.7,0.0979329,0.0975984,-4.55104,10,0.00951196,10,-0.000444174,-2.34189,0.454102,0.129927,-23.0657,0.0975984,
2,0,0,1,0,18893.8,0.0964329,0.0961478,-4.51079,10,0.00934131,10,-0.000433703,-2.34575,0.379843,0.155327,-27.3207,0.0961478,
2,0,0,1,0,18893.8,0.094933,0.0946297,-4.46395,10,0.00917224,10,-0.000422422,-2.35028,0.343195,0.171914,-29.9503,0.0946297,
2,0,0,1,0,18893.9,0.0934366,0.0931454,-4.42772,10,0.00900535,10,-0.000412422,-2.35382,0.353726,0.166796,-28.7864,0.0931454,
2,0,0,1,0,18893.9,0.0919401,0.091634,-4.38322,10,0.00884007,10,-0.000401652,-2.35821,0.34207,0.172479,-29.469,0.091634,
2,0,0,1,0,18893.9,0.0904402,0.0901218,-4.33574,10,0.00867588,10,-0.000390745,-2.36294,0.31573,0.186868,-31.5954,0.0901218,
2,0,0,1,0,18894,0.0889402,0.0886425,-4.28847,10,0.00851348,10,-0.000380141,-2.3677,0.323643,0.182299,-30.5325,0.0886425,
2,0,0,1,0,18894,0.0874438,0.0871012,-4.23882,10,0.00835336,10,-0.000369206,-2.37276,0.350883,0.168147,-27.8981,0.0871012,
2,0,0,1,0,18894,0.0859483,0.0855969,-4.20173,10,0.00819476,10,-0.000359655,-2.37657,0.376584,0.156672,-25.7125,0.0855969,
2,0,0,1,0,18894.1,0.0844447,0.0841529,-4.16479,10,0.00803675,10,-0.000350479,-2.38041,0.386846,0.152516,-24.7942,0.0841529,
2,0,0,1,0,18894.1,0.0829492,0.0825956,-4.13171,10,0.00788102,10,-0.000341261,-2.38387,0.374158,0.157687,-25.3982,0.0825956,
2,0,0,1,0,18894.2,0.0814528,0.0811584,-4.095,10,0.00772674,10,-0.000332344,-2.38775,0.436326,0.13522,-21.5905,0.0811584,
2,0,0,1,0,18894.2,0.0799528,0.0796368,-4.06157,10,0.00757326,10,-0.00032345,-2.39131,0.508256,0.116083,-18.3796,0.0796368,
2,0,0,1,0,18894.2,0.0784529,0.0780958,-4.02993,10,0.00742089,10,-0.000314721,-2.3947,0.51583,0.114379,-18.001,0.0780958,
2,0,0,1,0,18894.3,0.0769565,0.0766223,-4.00468,10,0.00726988,10,-0.000306848,-2.39743,0.515374,0.11448,-17.8908,0.0766223,
2,0,0,1,0,18894.3,0.0754601,0.0751371,-3.97158,10,0.00711997,10,-0.000298413,-2.40104,0.50784,0.116178,-18.0573,0.0751371,
2,0,0,1,0,18894.3,0.0739601,0.0736253,-3.95409,10,0.00697071,10,-0.000291121,-2.40295,0.57412,0.102766,-15.8691,0.0736253,
2,0,0,1,0,18894.4,0.0724601,0.0721317,-3.93231,10,0.0068222,10,-0.000283644,-2.40535,0.645371,0.0914203,-14.0234,0.0721317,
2,0,0,1,0,18894.4,0.0709637,0.0706256,-3.91129,10,0.00667492,10,-0.000276238,-2.40768,0.601699,0.0980557,-14.9432,0.07062564,
2,0,0,1,0,18894.5,0.0694682,0.0691394,-3.88916,10,0.00652844,10,-0.000268894,-2.41014,0.612293,0.096359,-14.6013,0.0691394,
2,0,0,1,0,18894.5,0.0679646,0.0677024,-3.86329,10,0.00638216,10,-0.000261554,-2.41304,0.651836,0.0905136,-13.6594,0.06770239,
2,0,0,1,0,18894.5,0.0664691,0.0661638,-3.84116,10,0.00623741,10,-0.000254146,-2.41554,0.675913,0.0872893,-13.0894,0.0661638,
2,0,0,1,0,18894.6,0.0649727,0.0646288,-3.82323,10,0.00609324,10,-0.000247091,-2.41757,0.616438,0.0957112,-14.2732,0.0646288,
2,0,0,1,0,18894.6,0.0634727,0.0631449,-3.80252,10,0.00594954,10,-0.00024011,-2.41993,0.564564,0.104505,-15.5134,0.0631449,
2,0,0,1,0,18894.6,0.0619728,0.0616372,-3.77543,10,0.00580681,10,-0.000232707,-2.42303,0.578501,0.101988,-15.0554,0.0616372,
2,0,0,1,0,18894.7,0.0604764,0.0601457,-3.75921,10,0.0056652,10,-0.0002261,-2.4249,0.613621,0.0961505,-14.0944,0.0601457,
2,0,0,1,0,18894.7,0.05898,0.058653,-3.74209,10,0.00552433,10,-0.000219485,-2.42689,0.612434,0.0963369,-14.0399,0.058653,
2,0,0,1,0,18894.8,0.05748,0.0571524,-3.72133,10,0.00538389,10,-0.000212683,-2.4293,0.539593,0.109342,-15.8305,0.0571524,
2,0,0,1,0,18894.8,0.05598,0.0556414,-3.69195,10,0.00524438,10,-0.000205426,-2.43274,0.561266,0.10512,-15.1428,0.0556414,
2,0,0,1,0,18894.8,0.0544836,0.0541671,-3.66947,10,0.00510609,10,-0.000198765,-2.4354,0.597859,0.0986854,-14.1356,0.0541671,
2,0,0,1,0,18894.9,0.0529881,0.0527032,-3.64966,10,0.00496849,10,-0.000192349,-2.43775,0.577006,0.102252,-14.5723,0.0527032,
2,0,0,1,0,18894.9,0.0514846,0.0511649,-3.62538,10,0.00483096,10,-0.000185492,-2.44065,0.507293,0.116304,-16.4739,0.0511649,
2,0,0,1,0,18894.9,0.049989,0.049677,-3.59627,10,0.00469508,10,-0.000178652,-2.44415,0.507877,0.11617,-16.345,0.049677,
2,0,0,1,0,18895,0.0484926,0.0481498,-3.57989,10,0.0045602,10,-0.000172371,-2.44613,0.504386,0.116974,-16.3434,0.04814982,
2,0,0,1,0,18895,0.0469927,0.0466934,-3.5584,10,0.00442574,10,-0.000166154,-2.44875,0.501359,0.11768,-16.316,0.0466934,
2,0,0,1,0,18895.1,0.0454927,0.0451925,-3.5334,10,0.00429217,10,-0.000159683,-2.45181,0.451038,0.130809,-17.9941,0.0451925,
2,0,0,1,0,18895.1,0.0439963,0.0436754,-3.50984,10,0.00415985,10,-0.000153293,-2.45471,0.464423,0.127039,-17.3751,0.0436754,
2,0,0,1,0,18895.1,0.0424999,0.0421818,-3.47726,10,0.00402865,10,-0.000146677,-2.45876,0.497345,0.11863,-16.1302,0.0421818,
2,0,0,1,0,18895.2,0.0409999,0.0406819,-3.4535,10,0.00389797,10,-0.000140495,-2.46174,0.487287,0.121079,-16.3403,0.04068194,
2,0,0,1,0,18895.2,0.0394999,0.0391689,-3.4282,10,0.00376816,10,-0.000134279,-2.46493,0.441609,0.133602,-17.8774,0.0391689,
2,0,0,1,0,18895.2,0.0380044,0.03767,-3.39938,10,0.0036397,10,-0.000128055,-2.4686,0.377879,0.156135,-20.7256,0.03767,
2,0,0,1,0,18895.3,0.0365089,0.0361933,-3.37193,10,0.00351242,10,-0.000122041,-2.47212,0.421545,0.139961,-18.4304,0.0361933,
2,0,0,1,0,18895.3,0.0350054,0.0346561,-3.34737,10,0.0033855,10,-0.000116007,-2.4753,0.453473,0.130107,-16.9633,0.0346561,
2,0,0,1,0,18895.4,0.033509,0.0332079,-3.32109,10,0.00326023,10,-0.000110286,-2.47872,0.439143,0.134353,-17.3741,0.0332079,
2,0,0,1,0,18895.4,0.0320125,0.0316925,-3.28858,10,0.00313603,10,-0.000104223,-2.48299,0.375536,0.157109,-20.1457,0.0316925,
2,0,0,1,0,18895.4,0.0305126,0.0302169,-3.25289,10,0.00301267,10,-9.82921e-05,-2.48773,0.35359,0.16686,-21.2342,0.0302169,
2,0,0,1,0,18895.5,0.0290126,0.0287014,-3.22457,10,0.00289046,10,-9.25497e-05,-2.49153,0.418091,0.141118,-17.7864,0.0287014,
2,0,0,1,0,18895.5,0.0275162,0.0272153,-3.19775,10,0.00276963,10,-8.70277e-05,-2.49516,0.374527,0.157532,-19.6776,0.0272153,
2,0,0,1,0,18895.5,0.0260198,0.0257128,-3.16994,10,0.0026498,10,-8.15081e-05,-2.49895,0.367798,0.160414,-19.8341,0.0257128,
2,0,0,1,0,18895.6,0.0245198,0.0242086,-3.13968,10,0.00253079,10,-7.60071e-05,-2.50311,0.353693,0.166811,-20.454,0.0242086,
2,0,0,1,0,18895.6,0.0230198,0.0227299,-3.11477,10,0.00241291,10,-7.07986e-05,-2.50657,0.387319,0.152329,-18.4982,0.0227299,
2,0,0,1,0,18895.7,0.0215243,0.0212191,-3.08798,10,0.00229636,10,-6.55243e-05,-2.51033,0.412083,0.143175,-17.228,0.0212191,
2,0,0,1,0,18895.7,0.0200288,0.0197295,-3.05826,10,0.00218075,10,-6.03379e-05,-2.51453,0.396246,0.148897,-17.7552,0.01972948,
2,0,0,1,0,18895.7,0.0185253,0.0181701,-3.0325,10,0.0020655,10,-5.51009e-05,-2.5182,0.414145,0.142462,-16.8775,0.0181701,
2,0,0,1,0,18895.8,0.0170289,0.0167278,-3.0065,10,0.00195191,10,-5.02922e-05,-2.52194,0.414762,0.14225,-16.7279,0.0167278,
2,0,0,1,0,18895.8,0.0155325,0.0152019,-2.98074,10,0.0018392,10,-4.53128e-05,-2.52568,0.467035,0.126329,-14.7388,0.0152019,
2,0,0,1,0,18895.8,0.0140325,0.0137159,-2.96236,10,0.00172693,10,-4.06315e-05,-2.52836,0.507553,0.116244,-13.4436,0.01371591,
2,0,0,1,0,18895.9,0.0125325,0.0121852,-2.94665,10,0.00161546,10,-3.59056e-05,-2.53067,0.492772,0.119731,-13.7473,0.01218522,
2,0,0,1,0,18895.9,0.0110361,0.0106967,-2.92333,10,0.00150515,10,-3.12701e-05,-2.53412,0.49745,0.118605,-13.5317,0.0106967,
2,0,0,1,0,18896,0.0095397,0.00926179,-2.90732,10,0.00139557,10,-2.6927e-05,-2.53651,0.658248,0.0896318,-10.1513,0.00926179,
2,0,0,1,0,18896,0.00803616,0.00773549,-2.88697,10,0.00128599,10,-2.23322e-05,-2.53956,0.671566,0.0878544,-9.90596,0.00773549,
2,0,0,1,0,18896,0.00654064,0.00624583,-2.87354,10,0.00117759,10,-1.79477e-05,-2.54158,0.701802,0.0840693,-9.43136,0.00624583,
2,0,0,1,0,18896.1,0.00504513,0.004711,-2.85448,10,0.00106972,10,-1.34475e-05,-2.54447,0.924531,0.0638162,-7.13451,0.004711,
2,0,0,1,0,18896.1,0.00354515,0.00324233,-2.84769,10,0.00096208,10,-9.23314e-06,-2.54551,-23.5866,-0.00250142,0.279704,0.00324233,
2,0,0,1,0,18896.1,0.00204518,0.00170253,-2.87906,10,0.000854482,10,-4.90169e-06,-2.54075,2.70601,0.0218033,-2.42255,0.00170253,
2,0,0,1,0,18896.2,0.000548773,0.000174526,-2.8484,10,0.000746832,10,-4.97119e-07,-2.5454, , , ,0.0001745256,
2,0,0,1,0,18896.2,0.000177222,-0.000191712,-2.84221,10,0.000720208,10,5.44887e-07,-2.54634, , , ,-0.0001917123,