File: Figure_codes/Fig_3-5/rawdata_trumpetplot_data/after 10th/20221101_1-115_003_TrumpetPlot_ParaChange_from10_every3_12_CV_C01_25.csv
mode,ox/red,error,control changes,counter inc.,time/s,control/V,Ewe/V,<I>/mA,cycle number,(Q-Qo)/C,I Range,P/W,log(|I|),Tafel slope mV/dec,alpha_eff,dI/d(E-IR),E-IR/V,
2,1,0,1,0,50449.8,2.44065e-05,-0.000325324,14.9173,26,0.0000000E+000,10,-4.85295e-06,-1.82631, , , ,-0.000325324,
2,1,0,1,0,50449.8,0.00200257,0.00158447,15.8209,26,4.80428e-05,10,2.50677e-05,-1.80077, , , ,0.00158447,
2,1,0,1,0,50449.8,0.004408,0.00403507,16.6005,26,0.000113028,10,6.69843e-05,-1.77988, , , ,0.00403507,
2,1,0,1,0,50449.8,0.0068051,0.00648143,17.2175,26,0.000180737,10,0.000111594,-1.76403,0.152513,0.386851,257.047,0.00648143,
2,1,0,1,0,50449.8,0.00920221,0.00881326,17.7728,26,0.000250795,10,0.000156636,-1.75024,0.178966,0.329672,227.288,0.00881326,
2,1,0,1,0,50449.8,0.0115993,0.0111907,18.2902,26,0.000322983,10,0.00020468,-1.73778,0.197686,0.298452,212.096,0.0111907,
2,1,0,1,0,50449.8,0.0140075,0.0136042,18.7755,26,0.000397167,10,0.000255425,-1.72641,0.219794,0.268433,195.898,0.0136042,
2,1,0,1,0,50449.8,0.0164046,0.0160102,19.2386,26,0.000473246,10,0.000308014,-1.71583,0.238517,0.247361,185.042,0.0160102,
2,1,0,1,0,50449.8,0.0188017,0.0184354,19.6578,26,0.000551101,10,0.000362399,-1.70647,0.258419,0.228312,174.711,0.0184354,
2,1,0,1,0,50449.8,0.0212099,0.0208266,20.0732,26,0.000630604,10,0.000418057,-1.69738,0.28005,0.210676,164.622,0.0208266,
2,1,0,1,0,50449.8,0.023607,0.0232708,20.4644,26,0.000711723,10,0.000476223,-1.689,0.293479,0.201036,160.187,0.0232708,
2,1,0,1,0,50449.8,0.0260041,0.0256568,20.8266,26,0.000794334,10,0.000534342,-1.68138,0.312323,0.188907,153.348,0.0256568,
2,1,0,1,0,50449.8,0.0284012,0.0280342,21.1954,26,0.000878425,10,0.000594195,-1.67376,0.330716,0.178401,147.325,0.0280342,
2,1,0,1,0,50449.8,0.0308067,0.0304201,21.5443,26,0.000963961,10,0.000655381,-1.66667,0.3458,0.170619,143.203,0.0304201,
2,1,0,1,0,50449.8,0.0332038,0.0328198,21.8712,26,0.00105083,10,0.000717807,-1.66013,0.364653,0.161798,137.979,0.0328198,
2,1,0,1,0,50449.8,0.0356009,0.0352481,22.2001,26,0.00113901,10,0.000782512,-1.65365,0.381408,0.15469,133.92,0.0352481,
2,1,0,1,0,50449.8,0.0380091,0.0376394,22.5207,26,0.00122849,10,0.000847664,-1.64742,0.392812,0.150199,131.896,0.03763935,
2,1,0,1,0,50449.8,0.0404062,0.0400507,22.8341,26,0.00131923,10,0.000914521,-1.64142,0.408657,0.144375,128.527,0.0400507,
2,1,0,1,0,50449.9,0.0428033,0.042461,23.1428,26,0.00141121,10,0.000982667,-1.63558,0.421914,0.139839,126.171,0.042461,
2,1,0,1,0,50449.9,0.0452032,0.0448353,23.4323,26,0.00150439,10,0.00105059,-1.63019,0.437175,0.134957,123.355,0.0448353,
2,1,0,1,0,50449.9,0.0476058,0.0472053,23.7276,26,0.00159874,10,0.00112007,-1.62475,0.450163,0.131064,121.321,0.0472053,
2,1,0,1,0,50449.9,0.0500029,0.049641,24.0171,26,0.00169427,10,0.00119223,-1.61948,0.453055,0.130227,122.043,0.049641,
2,1,0,1,0,50449.9,0.0524,0.0520333,24.3041,26,0.00179095,10,0.00126462,-1.61432,0.466813,0.126389,119.843,0.0520333,
2,1,0,1,0,50449.9,0.0548082,0.0544309,24.6034,26,0.00188879,10,0.00133918,-1.60901,0.477014,0.123686,118.662,0.0544309,
2,1,0,1,0,50449.9,0.0572053,0.0567712,24.874,26,0.00198778,10,0.00141213,-1.60425,0.483055,0.122139,118.545,0.0567712,
2,1,0,1,0,50449.9,0.0596024,0.0592462,25.1569,26,0.00208786,10,0.00149045,-1.59934,0.493105,0.11965,117.495,0.05924619,
2,1,0,1,0,50449.9,0.0620051,0.0616438,25.4434,26,0.00218909,10,0.00156843,-1.59442,0.495595,0.119049,118.202,0.0616438,
2,1,0,1,0,50449.9,0.0644077,0.0640085,25.7287,26,0.00229146,10,0.00164685,-1.58958,0.50028,0.117934,118.377,0.0640085,
2,1,0,1,0,50449.9,0.0668048,0.0664368,26.0165,26,0.00239497,10,0.00172846,-1.58475,0.504929,0.116848,118.591,0.0664368,
2,1,0,1,0,50449.9,0.0692019,0.0688238,26.2906,26,0.00249962,10,0.00180942,-1.5802,0.515069,0.114548,117.529,0.0688238,
2,1,0,1,0,50449.9,0.0716074,0.0711927,26.5758,26,0.00260538,10,0.001892,-1.57551,0.519938,0.113475,117.69,0.0711927,
2,1,0,1,0,50449.9,0.0740045,0.0736338,26.8599,26,0.00271229,10,0.0019778,-1.57089,0.516571,0.114215,119.733,0.0736338,
2,1,0,1,0,50449.9,0.0764016,0.0759985,27.1418,26,0.00282034,10,0.00206274,-1.56636,0.520325,0.113391,120.149,0.0759985,
2,1,0,1,0,50449.9,0.0788042,0.0784268,27.4404,26,0.00292953,10,0.00215207,-1.56161,0.524644,0.112457,120.406,0.0784268,
2,1,0,1,0,50449.9,0.0812069,0.0808276,27.7334,26,0.00303992,10,0.00224163,-1.557,0.524882,0.112406,121.613,0.0808276,
2,1,0,1,0,50449.9,0.083604,0.0832442,28.0171,26,0.00315144,10,0.00233226,-1.55258,0.528928,0.111546,121.993,0.0832442,
2,1,0,1,0,50449.9,0.0860011,0.0856068,28.3103,26,0.00326411,10,0.00242356,-1.54805,0.535754,0.110125,121.683,0.0856068,
2,1,0,1,0,50449.9,0.0884065,0.0880458,28.6139,26,0.00337801,10,0.00251933,-1.54342,0.531096,0.111091,124.021,0.0880458,
2,1,0,1,0,50449.9,0.0908036,0.0904115,28.8996,26,0.00349307,10,0.00261286,-1.53911,0.541695,0.108917,122.842,0.0904115,
2,1,0,1,0,50449.9,0.0932007,0.0928028,29.2026,26,0.00360933,10,0.00271008,-1.53458,0.543915,0.108473,123.626,0.0928028,
2,1,0,1,0,50449.9,0.0956034,0.0952597,29.4961,26,0.00372675,10,0.00280979,-1.53024,0.545226,0.108212,124.566,0.0952597,
2,1,0,1,0,50449.9,0.098006,0.0976372,29.7996,26,0.00384538,10,0.00290955,-1.52579,0.549534,0.107364,124.859,0.0976372,
2,1,0,1,0,50449.9,0.100403,0.100049,30.1001,26,0.00396521,10,0.00301147,-1.52143,0.54178,0.1089,127.942,0.100049,
2,1,0,1,0,50450,0.1028,0.102419,30.4032,26,0.00408624,10,0.00311385,-1.51708,0.548304,0.107604,127.694,0.102419,
2,1,0,1,0,50450,0.105208,0.104822,30.7196,26,0.00420852,10,0.0032201,-1.51258,0.551206,0.107038,128.29,0.104822,
2,1,0,1,0,50450,0.107606,0.107218,31.023,26,0.00433204,10,0.00332622,-1.50832,0.55144,0.106993,129.536,0.107218,
2,1,0,1,0,50450,0.110003,0.109634,31.3297,26,0.00445677,10,0.00343479,-1.50404,0.563961,0.104617,127.911,0.109634,
2,1,0,1,0,50450,0.112408,0.112041,31.6496,26,0.00458274,10,0.00354604,-1.49963,0.563292,0.104741,129.327,0.112041,
2,1,0,1,0,50450,0.114805,0.11441,31.9459,26,0.00470997,10,0.00365492,-1.49558,0.566647,0.104121,129.814,0.1144096,
2,1,0,1,0,50450,0.117202,0.11679,32.261,26,0.00483842,10,0.00376777,-1.49132,0.574192,0.102753,129.379,0.11679,
2,1,0,1,0,50450,0.119599,0.119193,32.5707,26,0.00496811,10,0.0038822,-1.48717,0.572461,0.103064,130.996,0.119193,
2,1,0,1,0,50450,0.122008,0.121585,32.8845,26,0.00509905,10,0.00399827,-1.48301,0.5563,0.106058,136.209,0.121585,
2,1,0,1,0,50450,0.124405,0.123964,33.1975,26,0.00523124,10,0.00411529,-1.47889,0.545849,0.108088,140.214,0.123964,
2,1,0,1,0,50450,0.126802,0.126351,33.5632,26,0.00536479,10,0.00424074,-1.47414,0.533234,0.110646,144.996,0.126351,
2,1,0,1,0,50450,0.129207,0.128791,33.9164,26,0.00549979,10,0.00436813,-1.46959,0.523974,0.112601,149.03,0.128791,
2,1,0,1,0,50450,0.131604,0.131222,34.2818,26,0.00563622,10,0.00449854,-1.46494,0.525389,0.112298,150.247,0.131222,
2,1,0,1,0,50450,0.134001,0.133635,34.6387,26,0.00577411,10,0.00462894,-1.46044,0.525025,0.112376,151.953,0.133635,
2,1,0,1,0,50450,0.136399,0.135992,35.0118,26,0.00591346,10,0.00476133,-1.45579,0.526705,0.112017,153.062,0.135992,
2,1,0,1,0,50450,0.138807,0.138484,35.3893,26,0.0060543,10,0.00490086,-1.45113,0.522909,0.11283,155.791,0.138484,
2,1,0,1,0,50450,0.141204,0.140832,35.7526,26,0.00619662,10,0.0050351,-1.44669,0.531003,0.11111,155.045,0.140832,
2,1,0,1,0,50450,0.143601,0.143213,36.131,26,0.00634042,10,0.00517444,-1.44212,0.528816,0.11157,157.33,0.143213,
2,1,0,1,0,50450,0.146009,0.145649,36.5091,26,0.00648574,10,0.00531752,-1.4376,0.535751,0.110126,156.864,0.145649,
2,1,0,1,0,50450,0.148406,0.147998,36.8862,26,0.00663257,10,0.00545908,-1.43314,0.548676,0.107532,154.73,0.147998,
2,1,0,1,0,50450,0.150803,0.150403,37.254,26,0.00678089,10,0.00560311,-1.42883,0.555697,0.106173,154.321,0.150403,
2,1,0,1,0,50450,0.153206,0.152831,37.6192,26,0.00693068,10,0.00574939,-1.42459,0.569405,0.103617,152.101,0.152831,
2,1,0,1,0,50450,0.155606,0.155226,37.9869,26,0.00708194,10,0.00589655,-1.42037,0.584523,0.100937,149.572,0.155226,
2,1,0,1,0,50450,0.158003,0.157617,38.3492,26,0.00723465,10,0.00604449,-1.41624,0.59592,0.0990065,148.085,0.157617,
2,1,0,1,0,50450,0.1604,0.160034,38.6945,26,0.00738877,10,0.00619242,-1.41235,0.622391,0.0947958,143.061,0.160034,
2,1,0,1,0,50450.1,0.162808,0.162425,39.0398,26,0.00754428,10,0.00634103,-1.40849,0.650954,0.0906362,137.98,0.162425,
2,1,0,1,0,50450.1,0.165205,0.164826,39.3603,26,0.00770112,10,0.00648758,-1.40494,0.673991,0.0875382,134.396,0.164826,
2,1,0,1,0,50450.1,0.167602,0.167215,39.6735,26,0.0078592,10,0.00663399,-1.4015,0.714293,0.0825991,127.816,0.167215,
2,1,0,1,0,50450.1,0.170008,0.169678,39.9906,26,0.00801856,10,0.00678553,-1.39804,0.756235,0.0780181,121.616,0.169678,
2,1,0,1,0,50450.1,0.172405,0.172027,40.2671,26,0.00817912,10,0.00692702,-1.39505,0.814122,0.0724707,113.748,0.172027,
2,1,0,1,0,50450.1,0.174802,0.174439,40.5295,26,0.00834075,10,0.00706993,-1.39223,0.892439,0.066111,104.463,0.174439,
2,1,0,1,0,50450.1,0.177199,0.176829,40.7672,26,0.0085034,10,0.00720883,-1.38969,0.994717,0.0593133,94.2625,0.176829,
2,1,0,1,0,50450.1,0.179607,0.179234,40.9889,26,0.00866694,10,0.00734662,-1.38733,1.12077,0.0526422,84.0917,0.179234,
2,1,0,1,0,50450.1,0.182005,0.181702,41.1791,26,0.00883129,10,0.00748232,-1.38532,1.31101,0.0450034,72.2071,0.181702,
2,1,0,1,0,50450.1,0.184402,0.184028,41.3358,26,0.00899635,10,0.00760697,-1.38367,1.67715,0.0351786,56.6469,0.184028,
2,1,0,1,0,50450.1,0.18681,0.186414,41.4593,26,0.00916194,10,0.00772861,-1.38238,2.29156,0.0257466,41.5758,0.186414,
2,1,0,1,0,50450.1,0.189207,0.188841,41.5331,26,0.00932795,10,0.00784313,-1.38161,3.64239,0.0161981,26.2105,0.1888406,
2,1,0,1,0,50450.1,0.191604,0.191228,41.5751,26,0.00949419,10,0.00795031,-1.38117,8.41553,0.00701085,11.3587,0.191228,
2,1,0,1,0,50450.1,0.194001,0.193642,41.5878,26,0.00966052,10,0.00805316,-1.38103,-20.407,-0.00289117,-4.68378,0.193642,
2,1,0,1,0,50450.1,0.196407,0.19607,41.569,26,0.00982687,10,0.00815044,-1.38123,-4.50912,-0.0130846,-21.1782,0.19607,
2,1,0,1,0,50450.1,0.198804,0.198421,41.4882,26,0.00999298,10,0.00823215,-1.38208,-2.53291,-0.0232933,-37.6414,0.198421,
2,1,0,1,0,50450.1,0.201201,0.200876,41.3708,26,0.0101587,10,0.00831041,-1.38331,-1.70411,-0.0346222,-55.8074,0.200876,
2,1,0,1,0,50450.1,0.203609,0.203255,41.226,26,0.0103239,10,0.00837938,-1.38483,-1.37151,-0.0430182,-69.0922,0.203255,
2,1,0,1,0,50450.1,0.206006,0.205611,41.0365,26,0.0104884,10,0.00843756,-1.38683,-1.08627,-0.0543145,-86.8091,0.2056109,
2,1,0,1,0,50450.1,0.208403,0.208066,40.8219,26,0.0106521,10,0.00849363,-1.38911,-0.905727,-0.065141,-103.543,0.208066,
2,1,0,1,0,50450.1,0.210803,0.210469,40.5381,26,0.0108148,10,0.008532,-1.39214,-0.788701,-0.0748065,-118.13,0.210469,
2,1,0,1,0,50450.1,0.213206,0.212818,40.2357,26,0.0109763,10,0.00856291,-1.39539,-0.676772,-0.0871785,-136.657,0.2128185,
2,1,0,1,0,50450.1,0.215603,0.21528,39.8944,26,0.0111366,10,0.00858845,-1.39909,-0.630103,-0.0936354,-145.563,0.2152797,
2,1,0,1,0,50450.1,0.218,0.217615,39.5169,26,0.0112953,10,0.00859947,-1.40322,-0.566716,-0.104109,-160.301,0.217615,
2,1,0,1,0,50450.1,0.220408,0.220096,39.1367,26,0.0114526,10,0.00861383,-1.40742,-0.516933,-0.114135,-173.936,0.220096,
2,1,0,1,0,50450.2,0.222805,0.222513,38.6817,26,0.0116082,10,0.00860718,-1.41249,-0.486546,-0.121263,-182.784,0.222513,
2,1,0,1,0,50450.2,0.225202,0.224933,38.2154,26,0.011762,10,0.00859588,-1.41776,-0.443157,-0.133136,-198.372,0.224933,
2,1,0,1,0,50450.2,0.227605,0.227322,37.7427,26,0.0119138,10,0.00857973,-1.42317,-0.426732,-0.13826,-203.422,0.2273217,
2,1,0,1,0,50450.2,0.230008,0.229674,37.2368,26,0.0120638,10,0.0085523,-1.42903,-0.404558,-0.145838,-211.71,0.229674,
2,1,0,1,0,50450.2,0.232405,0.232086,36.7343,26,0.0122116,10,0.00852552,-1.43493,-0.388372,-0.151916,-217.523,0.232086,
2,1,0,1,0,50450.2,0.234802,0.234468,36.1967,26,0.0123575,10,0.00848695,-1.44133,-0.376976,-0.156509,-220.905,0.234468,
2,1,0,1,0,50450.2,0.237207,0.236918,35.6552,26,0.0125011,10,0.00844736,-1.44788,-0.362788,-0.162629,-226.208,0.236918,
2,1,0,1,0,50450.2,0.239604,0.239272,35.1163,26,0.0126426,10,0.00840237,-1.45449,-0.361189,-0.163349,-223.832,0.239272,
2,1,0,1,0,50450.2,0.242002,0.241658,34.569,26,0.0127819,10,0.00835388,-1.46131,-0.354138,-0.166602,-224.775,0.2416584,
2,1,0,1,0,50450.2,0.244404,0.244073,34.0467,26,0.0129191,10,0.00830989,-1.46792,-0.349602,-0.168763,-224.135,0.2440729,
2,1,0,1,0,50450.2,0.246807,0.246472,33.5079,26,0.0130542,10,0.00825873,-1.47485,-0.347582,-0.169744,-221.882,0.246472,
2,1,0,1,0,50450.2,0.249204,0.248861,32.9673,26,0.0131871,10,0.00820426,-1.48192,-0.346511,-0.170269,-219.178,0.248861,
2,1,0,1,0,50450.2,0.251601,0.251249,32.4411,26,0.0133178,10,0.00815077,-1.48891,-0.346704,-0.170174,-215.596,0.251249,
2,1,0,1,0,50450.2,0.254006,0.253672,31.9429,26,0.0134466,10,0.00810301,-1.49563,-0.351422,-0.167889,-209.362,0.253672,
2,1,0,1,0,50450.2,0.256404,0.256066,31.4393,26,0.0135733,10,0.00805054,-1.50253,-0.35394,-0.166695,-204.597,0.256066,
2,1,0,1,0,50450.2,0.258801,0.25845,30.9597,26,0.013698,10,0.00800152,-1.5092,-0.355762,-0.165841,-200.444,0.25845,
2,1,0,1,0,50450.2,0.261203,0.260842,30.4783,26,0.0138209,10,0.00795002,-1.51601,-0.361753,-0.163095,-194.109,0.260842,
2,1,0,1,0,50450.2,0.263606,0.263282,30.0165,26,0.0139418,10,0.00790282,-1.52264,-0.367532,-0.16053,-188.218,0.263282,
2,1,0,1,0,50450.2,0.266003,0.265687,29.5718,26,0.0140609,10,0.00785684,-1.52912,-0.37696,-0.156515,-180.808,0.265687,
2,1,0,1,0,50450.2,0.2684,0.268095,29.1442,26,0.0141783,10,0.00781343,-1.53545,-0.381342,-0.154717,-176.095,0.268095,
2,1,0,1,0,50450.2,0.270808,0.270459,28.7395,26,0.0142941,10,0.00777285,-1.54152,-0.386502,-0.152651,-171.236,0.270459,
2,1,0,1,0,50450.2,0.273205,0.272872,28.3277,26,0.0144081,10,0.00772986,-1.54779,-0.396801,-0.148689,-164.508,0.272872,
2,1,0,1,0,50450.2,0.275603,0.275275,27.9299,26,0.0145206,10,0.00768842,-1.55393,-0.40419,-0.145971,-159.323,0.275275,
2,1,0,1,0,50450.2,0.278008,0.27767,27.5692,26,0.0146316,10,0.00765512,-1.55958,-0.414428,-0.142365,-153.276,0.27767,
2,1,0,1,0,50450.2,0.280405,0.280067,27.2086,26,0.0147411,10,0.00762025,-1.56529,-0.426814,-0.138233,-146.842,0.280067,
2,1,0,1,0,50450.3,0.282802,0.282451,26.8596,26,0.0148492,10,0.00758651,-1.5709,-0.436174,-0.135267,-141.913,0.282451,
2,1,0,1,0,50450.3,0.285199,0.284875,26.5203,26,0.0149559,10,0.00755497,-1.57642,-0.443405,-0.133061,-137.848,0.284875,
2,1,0,1,0,50450.3,0.287608,0.28727,26.2068,26,0.0150613,10,0.00752842,-1.58159,-0.463884,-0.127187,-130.185,0.28727,
2,1,0,1,0,50450.3,0.290005,0.289615,25.8925,26,0.0151655,10,0.00749886,-1.58683,-0.476483,-0.123824,-125.232,0.289615,
2,1,0,1,0,50450.3,0.292402,0.292086,25.6052,26,0.0152685,10,0.00747893,-1.59167,-0.484837,-0.12169,-121.661,0.292086,
2,1,0,1,0,50450.3,0.294807,0.294472,25.3185,26,0.0153703,10,0.00745557,-1.59656,-0.49966,-0.11808,-116.744,0.294472,
2,1,0,1,0,50450.3,0.297204,0.296891,25.0363,26,0.015471,10,0.00743305,-1.60143,-0.49483,-0.119233,-117.081,0.296891,
2,1,0,1,0,50450.3,0.299421,0.299124,24.7823,26,0.0155631,10,0.007413,-1.60586,-0.119305,-0.494531,-467.909,0.299124,
2,1,0,0,0,50450.3,0.300012,0.299632,24.7218,26,0.0155879,10,0.00740743,-1.60692,0.00295302,19.9796,17364.3,0.299632,
2,1,0,1,0,50450.3,0.299243,0.298999,23.2003,26,0.0156184,10,0.00693686,-1.63451,0.030336,1.94488,1569.1,0.2989988,
2,1,0,1,0,50450.3,0.296846,0.296584,19.7143,26,0.0157035,10,0.00584695,-1.70522,0.0351402,1.67899,1265.95,0.296584,
2,1,0,1,0,50450.3,0.294449,0.294193,17.0443,26,0.0157767,10,0.00501433,-1.76842,0.0371191,1.58948,1083.01,0.294193,
2,1,0,1,0,50450.3,0.292041,0.29177,14.7689,26,0.01584,10,0.00430913,-1.83065,0.0376611,1.5666,911.523,0.29177,
2,1,0,1,0,50450.3,0.289644,0.289352,12.753,26,0.0158947,10,0.00369011,-1.89439,0.0367,1.60763,803.172,0.289352,
2,1,0,1,0,50450.3,0.287247,0.286976,10.956,26,0.0159419,10,0.00314412,-1.96035,0.0351785,1.67716,716.35,0.286976,
2,1,0,1,0,50450.3,0.284841,0.284587,9.32893,26,0.0159823,10,0.00265489,-2.03017,0.0325532,1.81242,655.612,0.284587,
2,1,0,1,0,50450.3,0.282444,0.282104,7.84493,26,0.0160165,10,0.00221309,-2.10541,0.0299493,1.96999,594.996,0.282104,
2,1,0,1,0,50450.3,0.280047,0.279793,6.48566,26,0.016045,10,0.00181464,-2.18805,0.0267219,2.20793,545.406,0.279793,
2,1,0,1,0,50450.3,0.27765,0.277341,5.22334,26,0.0160682,10,0.00144865,-2.28205,0.0227249,2.59627,509.508,0.277341,
2,1,0,1,0,50450.3,0.275242,0.274916,4.05435,26,0.0160866,10,0.00111461,-2.39208,0.018754,3.146,466.151,0.2749159,
2,1,0,1,0,50450.3,0.272845,0.272563,2.98345,26,0.0161005,10,0.000813178,-2.52528,0.0137227,4.29945,434.659,0.272563,
2,1,0,1,0,50450.3,0.270448,0.270125,1.97902,26,0.0161103,10,0.000534582,-2.70355,0.0069396,8.50193,404.902,0.270125,
2,1,0,1,0,50450.3,0.268039,0.267713,1.03825,26,0.0161163,10,0.000277954,-2.9837,0.0146653,4.02311,376.234,0.267713,
2,1,0,1,0,50450.3,0.265642,0.265317,0.167775,26,0.0161186,10,4.45135e-05,-3.77527,0.0662032,0.891196,354.184,0.265317,
2,0,0,1,0,50450.3,0.263245,0.262895,-0.653873,26,0.0161175,10,-0.0001719,-3.18451,-0.030628,-1.92634,330.521,0.262895,
2,0,0,1,0,50450.3,0.260843,0.260535,-1.41771,26,0.0161133,10,-0.000369363,-2.84841,-0.0078217,-7.54311,311.426,0.260535,
2,0,0,1,0,50450.4,0.258443,0.258101,-2.13855,26,0.0161061,10,-0.000551961,-2.66988,-0.0132938,-4.43815,291.41,0.258101,
2,0,0,1,0,50450.4,0.256046,0.255736,-2.81592,26,0.0160961,10,-0.000720133,-2.55038,-0.0209853,-2.81149,275.954,0.255736,
2,0,0,1,0,50450.4,0.253649,0.253286,-3.45414,26,0.0160835,10,-0.000874885,-2.46166,-0.0284305,-2.07523,261.445,0.253286,
2,0,0,1,0,50450.4,0.25124,0.250923,-4.07004,26,0.0160683,10,-0.00102127,-2.3904,-0.0365517,-1.61415,244.062,0.250923,
2,0,0,1,0,50450.4,0.248843,0.248546,-4.63674,26,0.0160509,10,-0.00115244,-2.33379,-0.0440345,-1.33986,234.291,0.248546,
2,0,0,1,0,50450.4,0.246446,0.246093,-5.16949,26,0.0160312,10,-0.00127217,-2.28655,-0.0530976,-1.11116,219.009,0.246093,
2,0,0,1,0,50450.4,0.244041,0.243731,-5.69262,26,0.0160094,10,-0.00138747,-2.24469,-0.0616133,-0.957585,208.494,0.243731,
2,0,0,1,0,50450.4,0.241644,0.241304,-6.17668,26,0.0159856,10,-0.00149046,-2.20924,-0.0697952,-0.845331,200.506,0.2413042,
2,0,0,1,0,50450.4,0.239247,0.238933,-6.64091,26,0.0159599,10,-0.00158673,-2.17777,-0.0803743,-0.734065,187.825,0.238933,
2,0,0,1,0,50450.4,0.236849,0.236532,-7.08645,26,0.0159324,10,-0.00167618,-2.14957,-0.0892693,-0.660921,180.755,0.236532,
2,0,0,1,0,50450.4,0.234441,0.234092,-7.50309,26,0.0159032,10,-0.00175642,-2.12476,-0.098963,-0.596183,173.125,0.234092,
2,0,0,1,0,50450.4,0.232044,0.231714,-7.91018,26,0.0158723,10,-0.0018329,-2.10181,-0.109234,-0.540124,165.59,0.231714,
2,0,0,1,0,50450.4,0.229647,0.229336,-8.30233,26,0.0158398,10,-0.00190403,-2.0808,-0.119054,-0.495575,159.409,0.229336,
2,0,0,1,0,50450.4,0.227239,0.226919,-8.67837,26,0.0158059,10,-0.00196928,-2.06156,-0.131601,-0.448324,150.71,0.226919,
2,0,0,1,0,50450.4,0.224842,0.224525,-9.02815,26,0.0157704,10,-0.00202705,-2.0444,-0.142905,-0.412861,144.629,0.224525,
2,0,0,1,0,50450.4,0.222445,0.22211,-9.35761,26,0.0157336,10,-0.00207842,-2.02883,-0.154325,-0.38231,139.22,0.22211,
2,0,0,1,0,50450.4,0.220047,0.219774,-9.68538,26,0.0156955,10,-0.00212859,-2.01388,-0.166644,-0.354048,133.41,0.219774,
2,0,0,1,0,50450.4,0.217642,0.217316,-10.0153,26,0.015656,10,-0.00217648,-1.99934,-0.176643,-0.334007,129.983,0.217316,
2,0,0,1,0,50450.4,0.215245,0.214912,-10.3107,26,0.0156153,10,-0.00221589,-1.98671,-0.187359,-0.314903,126.372,0.214912,
2,0,0,1,0,50450.4,0.212848,0.21246,-10.6119,26,0.0155734,10,-0.00225461,-1.97421,-0.204266,-0.28884,119.236,0.21246,
2,0,0,1,0,50450.4,0.21044,0.210128,-10.9043,26,0.0155304,10,-0.0022913,-1.9624,-0.211746,-0.278635,118.196,0.210128,
2,0,0,1,0,50450.4,0.208043,0.207711,-11.1606,26,0.0154862,10,-0.00231817,-1.95231,-0.224903,-0.262336,114.146,0.207711,
2,0,0,1,0,50450.4,0.205645,0.205292,-11.4478,26,0.015441,10,-0.00235013,-1.94128,-0.240415,-0.245409,109.412,0.2052917,
2,0,0,1,0,50450.4,0.203246,0.202891,-11.7042,26,0.0153947,10,-0.00237467,-1.93166,-0.248831,-0.237108,108.013,0.202891,
2,0,0,1,0,50450.4,0.200843,0.200484,-11.9595,26,0.0153473,10,-0.00239769,-1.92229,-0.267164,-0.220838,102.854,0.200484,
2,0,0,1,0,50450.5,0.198446,0.198088,-12.1999,26,0.0152989,10,-0.00241666,-1.91364,-0.273564,-0.215671,102.602,0.198088,
2,0,0,1,0,50450.5,0.196049,0.195707,-12.4336,26,0.0152496,10,-0.00243334,-1.9054,-0.284052,-0.207708,100.796,0.195707,
2,0,0,1,0,50450.5,0.19364,0.193293,-12.6889,26,0.0151994,10,-0.00245269,-1.89657,-0.295906,-0.199388,98.5484,0.193293,
2,0,0,1,0,50450.5,0.191243,0.190937,-12.9218,26,0.0151481,10,-0.00246725,-1.88868,-0.303487,-0.194407,97.8324,0.190937,
2,0,0,1,0,50450.5,0.188846,0.188542,-13.1407,26,0.015096,10,-0.00247757,-1.88138,-0.324957,-0.181562,93.0402,0.188542,
2,0,0,1,0,50450.5,0.186444,0.186168,-13.3668,26,0.015043,10,-0.00248847,-1.87397,-0.332886,-0.177238,92.4188,0.186168,
2,0,0,1,0,50450.5,0.184041,0.183692,-13.5822,26,0.014989,10,-0.00249495,-1.86703,-0.34193,-0.17255,91.4263,0.183692,
2,0,0,1,0,50450.5,0.181644,0.181325,-13.8101,26,0.0149342,10,-0.00250412,-1.8598,-0.348758,-0.169172,91.1239,0.181325,
2,0,0,1,0,50450.5,0.179247,0.178901,-14.0221,26,0.0148785,10,-0.00250857,-1.85319,-0.354003,-0.166665,91.1583,0.178901,
2,0,0,1,0,50450.5,0.176841,0.176514,-14.2465,26,0.014822,10,-0.00251471,-1.84629,-0.365712,-0.161329,89.6351,0.176514,
2,0,0,1,0,50450.5,0.174444,0.174101,-14.4565,26,0.0147645,10,-0.0025169,-1.83994,-0.364356,-0.16193,91.3573,0.174101,
2,0,0,1,0,50450.5,0.172047,0.171715,-14.6715,26,0.0147063,10,-0.00251932,-1.83352,-0.369566,-0.159647,91.4763,0.171715,
2,0,0,1,0,50450.5,0.169644,0.169302,-14.8991,26,0.0146471,10,-0.00252244,-1.82684,-0.375384,-0.157172,91.3417,0.169302,
2,0,0,1,0,50450.5,0.167242,0.166897,-15.1263,26,0.014587,10,-0.00252452,-1.82027,-0.375434,-0.157152,92.6871,0.166897,
2,0,0,1,0,50450.5,0.164845,0.164489,-15.3345,26,0.0145261,10,-0.00252236,-1.81433,-0.37679,-0.156586,93.7767,0.1644894,
2,0,0,1,0,50450.5,0.162448,0.162105,-15.5623,26,0.0144642,10,-0.00252272,-1.80793,-0.37458,-0.15751,95.7797,0.162105,
2,0,0,1,0,50450.5,0.160042,0.159689,-15.8005,26,0.0144015,10,-0.00252317,-1.80133,-0.362462,-0.162776,100.436,0.159689,
2,0,0,1,0,50450.5,0.157645,0.157302,-16.0452,26,0.0143378,10,-0.00252395,-1.79465,-0.358741,-0.164464,103.04,0.157302,
2,0,0,1,0,50450.5,0.155248,0.15492,-16.2956,26,0.0142731,10,-0.00252451,-1.78793,-0.353596,-0.166857,106.172,0.15492,
2,0,0,1,0,50450.5,0.152845,0.15247,-16.5551,26,0.0142073,10,-0.00252415,-1.78107,-0.344382,-0.171322,110.81,0.15247,
2,0,0,1,0,50450.5,0.150443,0.1501,-16.8187,26,0.0141406,10,-0.00252448,-1.77421,-0.335063,-0.176086,115.747,0.1501,
2,0,0,1,0,50450.5,0.148046,0.147672,-17.1123,26,0.0140727,10,-0.00252701,-1.76669,-0.318719,-0.185116,123.822,0.147672,
2,0,0,1,0,50450.5,0.145648,0.145357,-17.4025,26,0.0140036,10,-0.00252957,-1.75939,-0.303716,-0.19426,132.238,0.145357,
2,0,0,1,0,50450.5,0.14324,0.142926,-17.7368,26,0.0139333,10,-0.00253505,-1.75113,-0.294695,-0.200207,138.83,0.142926,
2,0,0,1,0,50450.5,0.140843,0.14055,-18.0815,26,0.0138616,10,-0.00254135,-1.74276,-0.279446,-0.211132,149.257,0.14055,
2,0,0,1,0,50450.6,0.138446,0.138106,-18.4403,26,0.0137886,10,-0.00254673,-1.73423,-0.267541,-0.220527,159.159,0.1381065,
2,0,0,1,0,50450.6,0.136041,0.135693,-18.8449,26,0.013714,10,-0.00255712,-1.72481,-0.256089,-0.230389,169.822,0.135693,
2,0,0,1,0,50450.6,0.133644,0.13329,-19.2704,26,0.0136377,10,-0.00256856,-1.71511,-0.241623,-0.244182,184.004,0.13329,
2,0,0,1,0,50450.6,0.131246,0.130921,-19.7167,26,0.0135597,10,-0.00258133,-1.70517,-0.233049,-0.253165,195.275,0.130921,
2,0,0,1,0,50450.6,0.128849,0.128524,-20.2036,26,0.0134798,10,-0.00259664,-1.69457,-0.224648,-0.262634,207.565,0.128524,
2,0,0,1,0,50450.6,0.126441,0.126127,-20.7129,26,0.0133979,10,-0.00261245,-1.68376,-0.21442,-0.275161,223.003,0.126127,
2,0,0,1,0,50450.6,0.124044,0.123687,-21.2637,26,0.0133139,10,-0.00263004,-1.67236,-0.20944,-0.281703,234.274,0.123687,
2,0,0,1,0,50450.6,0.121647,0.121344,-21.8525,26,0.0132276,10,-0.00265166,-1.6605,-0.20258,-0.291243,248.706,0.121344,
2,0,0,1,0,50450.6,0.119241,0.118915,-22.4546,26,0.013139,10,-0.0026702,-1.64869,-0.20055,-0.294192,258.033,0.118915,
2,0,0,1,0,50450.6,0.116844,0.11656,-23.0922,26,0.0130478,10,-0.00269163,-1.63653,-0.202361,-0.291558,262.759,0.11656,
2,0,0,1,0,50450.6,0.114447,0.114131,-23.7295,26,0.0129541,10,-0.00270827,-1.62471,-0.201313,-0.293076,271.46,0.114131,
2,0,0,1,0,50450.6,0.11205,0.111731,-24.3783,26,0.0128578,10,-0.00272381,-1.613,-0.205636,-0.286914,273.031,0.111731,
2,0,0,1,0,50450.6,0.109642,0.109318,-25.06,26,0.0127589,10,-0.0027395,-1.60102,-0.208185,-0.283402,276.897,0.109318,
2,0,0,1,0,50450.6,0.107245,0.106928,-25.722,26,0.0126572,10,-0.00275041,-1.5897,-0.210965,-0.279668,280.483,0.106928,
2,0,0,1,0,50450.6,0.104848,0.10453,-26.388,26,0.012553,10,-0.00275833,-1.57859,-0.218687,-0.269792,277.623,0.10453,
2,0,0,1,0,50450.6,0.10244,0.102153,-27.0646,26,0.012446,10,-0.00276475,-1.5676,-0.223151,-0.264395,278.923,0.102153,
2,0,0,1,0,50450.6,0.100042,0.0997399,-27.719,26,0.0123363,10,-0.00276469,-1.55722,-0.232103,-0.254197,274.589,0.0997399,
2,0,0,1,0,50450.6,0.0976454,0.0973827,-28.3845,26,0.0122241,10,-0.00276416,-1.54692,-0.245519,-0.240307,265.554,0.0973827,
2,0,0,1,0,50450.6,0.0952427,0.0949766,-29.0112,26,0.0121092,10,-0.00275539,-1.53743,-0.25384,-0.23243,262.708,0.0949766,
2,0,0,1,0,50450.6,0.0928428,0.0925907,-29.6041,26,0.0119919,10,-0.00274106,-1.52865,-0.26474,-0.22286,257.495,0.0925907,
2,0,0,1,0,50450.6,0.0904457,0.0901432,-30.2401,26,0.0118722,10,-0.00272594,-1.51942,-0.271716,-0.217139,256.109,0.0901432,
2,0,0,1,0,50450.6,0.0880486,0.0877648,-30.8611,26,0.0117499,10,-0.00270851,-1.51059,-0.282487,-0.208859,251.068,0.0877648,
2,0,0,1,0,50450.6,0.0856404,0.0853916,-31.466,26,0.0116252,10,-0.00268693,-1.50216,-0.295327,-0.199779,244.749,0.0853916,
2,0,0,1,0,50450.6,0.0832433,0.082924,-32.0311,26,0.0114981,10,-0.00265614,-1.49443,-0.313529,-0.18818,234.827,0.082924,
2,0,0,1,0,50450.6,0.0808462,0.0806187,-32.5712,26,0.0113689,10,-0.00262585,-1.48717,-0.336995,-0.175077,222.243,0.0806187,
2,0,0,1,0,50450.7,0.0784408,0.0781649,-33.1154,26,0.0112375,10,-0.00258846,-1.47997,-0.35422,-0.166563,214.84,0.0781649,
2,0,0,1,0,50450.7,0.0760437,0.0757429,-33.6104,26,0.0111039,10,-0.00254575,-1.47353,-0.379936,-0.155289,203.288,0.07574293,
2,0,0,1,0,50450.7,0.0736466,0.0733379,-34.0905,26,0.0109685,10,-0.00250013,-1.46737,-0.406693,-0.145073,192.69,0.0733379,
2,0,0,1,0,50450.7,0.0712495,0.0709605,-34.5346,26,0.0108312,10,-0.00245059,-1.46175,-0.432644,-0.136371,183.516,0.0709605,
2,0,0,1,0,50450.7,0.0688413,0.0685449,-34.9691,26,0.0106921,10,-0.00239695,-1.45632,-0.462402,-0.127595,173.866,0.0685449,
2,0,0,1,0,50450.7,0.0664442,0.0661653,-35.368,26,0.0105514,10,-0.00234014,-1.45139,-0.49433,-0.119354,164.515,0.0661653,
2,0,0,1,0,50450.7,0.0640471,0.063772,-35.7537,26,0.0104091,10,-0.00228009,-1.44668,-0.53207,-0.110888,154.501,0.063772,
2,0,0,1,0,50450.7,0.0616389,0.0613553,-36.1148,26,0.0102653,10,-0.00221584,-1.44231,-0.576065,-0.102419,144.13,0.0613553,
2,0,0,1,0,50450.7,0.0592417,0.0590012,-36.4436,26,0.0101202,10,-0.00215022,-1.43838,-0.625685,-0.0942967,133.932,0.0590012,
2,0,0,1,0,50450.7,0.0568446,0.0565178,-36.7585,26,0.00997373,10,-0.00207751,-1.43464,-0.677188,-0.0871251,124.837,0.0565178,
2,0,0,1,0,50450.7,0.0544475,0.0541605,-37.041,26,0.0098261,10,-0.00200616,-1.43132,-0.740253,-0.0797025,115.086,0.0541605,
2,0,0,1,0,50450.7,0.0520421,0.0516982,-37.3204,26,0.00967733,10,-0.0019294,-1.42805,-0.802776,-0.0734949,106.898,0.0516982,
2,0,0,1,0,50450.7,0.049645,0.0493028,-37.5597,26,0.00952752,10,-0.0018518,-1.42528,-0.878956,-0.0671251,98.2747,0.0493028,
2,0,0,1,0,50450.7,0.0472479,0.0469232,-37.7841,26,0.00937682,10,-0.00177295,-1.42269,-0.989297,-0.0596383,87.8383,0.0469232,
2,0,0,1,0,50450.7,0.0448397,0.0444938,-37.991,26,0.00922526,10,-0.00169036,-1.42032,-1.08761,-0.0542476,80.3318,0.0444938,
2,0,0,1,0,50450.7,0.0424426,0.0421217,-38.1616,26,0.00907294,10,-0.00160743,-1.41837,-1.20505,-0.0489607,72.8675,0.04212169,
2,0,0,1,0,50450.7,0.0400455,0.0397018,-38.331,26,0.00891993,10,-0.00152181,-1.41645,-1.35422,-0.0435675,65.1237,0.0397018,
2,0,0,1,0,50450.7,0.0376456,0.037265,-38.4879,26,0.00876629,10,-0.00143425,-1.41468,-1.5114,-0.0390366,58.5656,0.037265,
2,0,0,1,0,50450.7,0.035243,0.0349417,-38.6131,26,0.00861207,10,-0.00134921,-1.41327,-1.74489,-0.0338131,50.9034,0.0349417,
2,0,0,1,0,50450.7,0.0328459,0.0325165,-38.7241,26,0.00845737,10,-0.00125917,-1.41202,-1.9418,-0.0303842,45.8986,0.0325165,
2,0,0,1,0,50450.7,0.0304488,0.0301211,-38.8187,26,0.00830227,10,-0.00116926,-1.41096,-2.19808,-0.0268416,40.6527,0.0301211,
2,0,0,1,0,50450.7,0.0280406,0.0277065,-38.9266,26,0.00814678,10,-0.00107852,-1.40975,-2.63924,-0.0223549,33.9263,0.0277065,
2,0,0,1,0,50450.7,0.0256435,0.0253492,-39.003,26,0.00799093,10,-0.000988697,-1.4089,-3.00585,-0.0196284,29.8463,0.0253492,
2,0,0,1,0,50450.7,0.0232463,0.022923,-39.0496,26,0.00783482,10,-0.000895134,-1.40838,-4.0425,-0.0145949,22.2332,0.022923,
2,0,0,1,0,50450.7,0.0208437,0.0205042,-39.1057,26,0.00767851,10,-0.000801833,-1.40776,-5.36695,-0.0109932,16.7679,0.0205042,
2,0,0,1,0,50450.8,0.018441,0.0181024,-39.1402,26,0.007522,10,-0.000708532,-1.40738,-6.30801,-0.00935319,14.2791,0.0181024,
2,0,0,1,0,50450.8,0.0160439,0.0157632,-39.1638,26,0.0073654,10,-0.000617345,-1.40712,-10.1737,-0.00579925,8.86028,0.0157632,
2,0,0,1,0,50450.8,0.0136468,0.0133115,-39.1868,26,0.00720869,10,-0.000521635,-1.40686,-19.6711,-0.00299932,4.5841,0.0133115,
2,0,0,1,0,50450.8,0.0112414,0.0109086,-39.1907,26,0.00705192,10,-0.000427517,-1.40682,172.808,0.000341419,-0.521805,0.0109086,
2,0,0,1,0,50450.8,0.00884431,0.00850468,-39.1842,26,0.00689516,10,-0.000333249,-1.40689,14.5969,0.00404194,-6.17682,0.00850468,
2,0,0,1,0,50450.8,0.0064472,0.00608377,-39.1587,26,0.00673848,10,-0.000238233,-1.40717,19.3069,0.0030559,-4.67129,0.006083773,
2,0,0,1,0,50450.8,0.00404455,0.00371164,-39.1275,26,0.00658193,10,-0.000145227,-1.40752,8.0085,0.00736718,-11.2505,0.00371164,
2,0,0,1,0,50450.8,0.0016419,0.00126423,-39.1457,26,0.00642543,10,-4.9489e-05,-1.40732,5.39294,0.0109402,-16.6849,0.00126423,
2,0,0,1,0,50450.8,-0.000755207,-0.00114714,-39.0756,26,0.00626899,10,4.48251e-05,-1.40809,4.39465,0.0134254,-20.4491,-0.00114714,
2,0,0,1,0,50450.8,-0.00315231,-0.00357123,-38.9976,26,0.00611284,10,0.000139269,-1.40896,2.70625,0.0218014,-33.1712,-0.00357123,
2,0,0,1,0,50450.8,-0.00555774,-0.00596139,-38.9297,26,0.00595698,10,0.000232075,-1.40972,2.53929,0.0232348,-35.2795,-0.005961386,
2,0,0,1,0,50450.8,-0.00795485,-0.00831973,-38.8278,26,0.00580147,10,0.000323037,-1.41086,2.36819,0.0249136,-37.7415,-0.00831973,
2,0,0,1,0,50450.8,-0.010352,-0.0107343,-38.7373,26,0.00564634,10,0.000415817,-1.41187,2.00678,0.0294003,-44.4246,-0.0107343,
2,0,0,1,0,50450.8,-0.0127546,-0.0131425,-38.6364,26,0.0054916,10,0.000507777,-1.413,1.89868,0.0310743,-46.8136,-0.0131425,
2,0,0,1,0,50450.8,-0.0151573,-0.0154934,-38.5062,26,0.00533732,10,0.000596592,-1.41447,1.6596,0.0355508,-53.3894,-0.0154934,
2,0,0,1,0,50450.8,-0.0175544,-0.0179556,-38.3767,26,0.00518359,10,0.000689078,-1.41593,1.56027,0.037814,-56.6154,-0.0179556,
2,0,0,1,0,50450.8,-0.0199515,-0.020331,-38.225,26,0.00503039,10,0.000777151,-1.41765,1.49999,0.0393335,-58.6731,-0.02033096,
2,0,0,1,0,50450.8,-0.0223597,-0.0227572,-38.092,26,0.00487777,10,0.000866867,-1.41917,1.39157,0.0423982,-63.0001,-0.0227572,
2,0,0,1,0,50450.8,-0.0247568,-0.0251611,-37.939,26,0.00472571,10,0.000954588,-1.42091,1.37264,0.0429828,-63.6082,-0.0251611,
2,0,0,1,0,50450.8,-0.0271539,-0.0275354,-37.7732,26,0.00457429,10,0.0010401,-1.42282,1.28831,0.0457965,-67.4999,-0.0275354,
2,0,0,1,0,50450.8,-0.0295593,-0.0299329,-37.6142,26,0.00442354,10,0.0011259,-1.42465,1.25609,0.0469713,-68.9399,-0.0299329,
2,0,0,1,0,50450.8,-0.0319564,-0.0323751,-37.4428,26,0.00427343,10,0.00121221,-1.42663,1.24956,0.0472165,-68.9943,-0.0323751,
2,0,0,1,0,50450.8,-0.0343535,-0.0347514,-37.2779,26,0.004124,10,0.00129546,-1.42855,1.25304,0.0470856,-68.5138,-0.0347514,
2,0,0,1,0,50450.8,-0.0367506,-0.037114,-37.1123,26,0.00397523,10,0.00137739,-1.43048,1.21765,0.0484542,-70.1691,-0.03711402,
2,0,0,1,0,50450.8,-0.0391588,-0.0395349,-36.9563,26,0.00382709,10,0.00146107,-1.43231,1.23014,0.0479619,-69.1546,-0.0395349,
2,0,0,1,0,50450.9,-0.0415559,-0.0419293,-36.7724,26,0.00367966,10,0.00154184,-1.43448,1.25475,0.0470214,-67.5066,-0.0419293,
2,0,0,1,0,50450.9,-0.043953,-0.0443365,-36.615,26,0.00353291,10,0.00162338,-1.43634,1.25737,0.0469234,-67.0857,-0.0443365,
2,0,0,1,0,50450.9,-0.0463585,-0.0467415,-36.4624,26,0.00338675,10,0.0017043,-1.43816,1.31309,0.0449323,-63.9431,-0.04674146,
2,0,0,1,0,50450.9,-0.0487556,-0.0491369,-36.3122,26,0.00324121,10,0.00178427,-1.43995,1.31876,0.044739,-63.3994,-0.0491369,
2,0,0,1,0,50450.9,-0.0511527,-0.0515313,-36.1584,26,0.00309629,10,0.00186329,-1.44179,1.38142,0.0427096,-60.2938,-0.0515313,
2,0,0,1,0,50450.9,-0.0535498,-0.0539087,-36.0081,26,0.00295196,10,0.00194115,-1.4436,1.45048,0.0406762,-57.2056,-0.0539087,
2,0,0,1,0,50450.9,-0.055958,-0.0563169,-35.885,26,0.00280817,10,0.00202093,-1.44509,1.55458,0.0379524,-53.1763,-0.0563169,
2,0,0,1,0,50450.9,-0.0583551,-0.0587728,-35.761,26,0.00266488,10,0.00210177,-1.44659,1.72038,0.0342947,-47.8842,-0.0587728,
2,0,0,1,0,50450.9,-0.0607522,-0.0611651,-35.6462,26,0.00252209,10,0.0021803,-1.44799,1.72694,0.0341645,-47.541,-0.0611651,
2,0,0,1,0,50450.9,-0.0631604,-0.0635521,-35.5464,26,0.00237972,10,0.00225905,-1.4492,1.8362,0.0321316,-44.5767,-0.0635521,
2,0,0,1,0,50450.9,-0.0655575,-0.0659391,-35.4276,26,0.00223778,10,0.00233606,-1.45066,2.06675,0.0285472,-39.5027,-0.0659391,
2,0,0,1,0,50450.9,-0.0679546,-0.0683239,-35.3352,26,0.00209626,10,0.00241424,-1.45179,2.18548,0.0269964,-37.2624,-0.0683239,
2,0,0,1,0,50450.9,-0.0703573,-0.0707353,-35.2681,26,0.00195506,10,0.0024947,-1.45262,2.55399,0.0231011,-31.8027,-0.0707353,
2,0,0,1,0,50450.9,-0.0727571,-0.0731477,-35.1888,26,0.00181415,10,0.00257398,-1.4536,2.82659,0.0208732,-28.6719,-0.0731477,
2,0,0,1,0,50450.9,-0.0751542,-0.0755177,-35.1229,26,0.00167352,10,0.0026524,-1.45441,3.18605,0.0185182,-25.4001,-0.0755177,
2,0,0,1,0,50450.9,-0.0775514,-0.0779588,-35.059,26,0.00153317,10,0.00273315,-1.4552,3.91127,0.0150846,-20.6574,-0.0779588,
2,0,0,1,0,50450.9,-0.0799595,-0.0803648,-35.0235,26,0.00139301,10,0.00281466,-1.45564,4.66872,0.0126373,-17.2815,-0.0803648,
2,0,0,1,0,50450.9,-0.0823567,-0.0827592,-34.9903,26,0.00125299,10,0.00289577,-1.45605,6.83822,0.00862798,-11.7862,-0.0827592,
2,0,0,1,0,50450.9,-0.0847538,-0.0851155,-34.9571,26,0.0011131,10,0.00297539,-1.45646,8.22553,0.00717279,-9.791,-0.0851155,
2,0,0,1,0,50450.9,-0.0871592,-0.0875226,-34.9462,26,0.000973309,10,0.00305859,-1.4566,10.617,0.00555715,-7.58072,-0.0875226,
2,0,0,1,0,50450.9,-0.0895563,-0.0899827,-34.9293,26,0.000833561,10,0.00314304,-1.45681,34.2923,0.0017205,-2.34646,-0.0899827,
2,0,0,1,0,50450.9,-0.0919534,-0.0923655,-34.9174,26,0.000693859,10,0.00322517,-1.45696,-86.275,-0.00068386,0.932796,-0.0923655,
2,0,0,1,0,50450.9,-0.0943505,-0.0947079,-34.9346,26,0.000554159,10,0.00330858,-1.45674,-18.4378,-0.00319995,4.36473,-0.0947079,
2,0,0,1,0,50450.9,-0.0967587,-0.0971087,-34.9552,26,0.000414367,10,0.00339445,-1.45649,-10.7082,-0.00550977,7.51479,-0.0971087,
2,0,0,1,0,50450.9,-0.0991558,-0.0995593,-34.9711,26,0.000274532,10,0.0034817,-1.45629,2.95994,0.0199328,-27.1149,-0.0995593,
2,0,0,1,0,50450.9,-0.0999548,-0.100438,-34.9781,26,0.000229068,10,0.00351314,-1.4562,0.024167,2.44135,-3129.36,-0.100438,
2,0,0,1,1,50450.9,-0.0999548,-0.100515,-34.7771,26,0.000208177,10,0.00349561,-1.45871,-0.0331912,-1.77758,2149.64,-0.100515,
2,0,0,1,1,50451,-0.0979573,-0.0984299,-30.8205,26,0.000108138,10,0.00303366,-1.51116,-0.0436786,-1.35078,1548.06,-0.0984299,
2,0,0,1,1,50451,-0.0955546,-0.0959984,-27.3166,26,-7.5834e-06,10,0.00262235,-1.56357,-0.0460916,-1.28006,1388.25,-0.0959984,
2,0,0,1,1,50451,-0.0931519,-0.0935977,-24.3884,26,-0.000110583,10,0.00228269,-1.61282,-0.0483501,-1.22027,1177.1,-0.0935977,
2,0,0,1,1,50451,-0.0907548,-0.0911715,-21.8064,26,-0.000202641,10,0.00198812,-1.66142,-0.0484547,-1.21763,1042.72,-0.0911715,
2,0,0,1,1,50451,-0.0883578,-0.088794,-19.478,26,-0.000284933,10,0.00172953,-1.71045,-0.0477047,-1.23678,942.347,-0.088794,
2,0,0,1,1,50451,-0.0859523,-0.0864155,-17.3243,26,-0.000358277,10,0.00149709,-1.76134,-0.0460299,-1.28177,866.783,-0.0864155,
2,0,0,1,1,50451,-0.0835552,-0.0840095,-15.353,26,-0.000423387,10,0.00128979,-1.81381,-0.0436978,-1.35018,806.06,-0.0840095,
2,0,0,1,1,50451,-0.0811581,-0.0815981,-13.5084,26,-0.000480893,10,0.00110226,-1.8694,-0.0413502,-1.42684,746.098,-0.0815981,
2,0,0,1,1,50451,-0.0787555,-0.0792217,-11.7622,26,-0.000531224,10,0.000931822,-1.92951,-0.0380803,-1.54936,703.211,-0.0792217,
2,0,0,1,1,50451,-0.0763528,-0.0767542,-10.116,26,-0.000574806,10,0.000776446,-1.99499,-0.0343663,-1.7168,667.095,-0.07675416,
2,0,0,1,1,50451,-0.0739557,-0.0743545,-8.56346,26,-0.000612001,10,0.000636731,-2.06735,-0.0306695,-1.92374,628.345,-0.0743545,
2,0,0,1,1,50451,-0.0715586,-0.071976,-7.08949,26,-0.000643146,10,0.000510273,-2.14938,-0.0262745,-2.24553,599.984,-0.071976,
2,0,0,1,1,50451,-0.0691532,-0.0695763,-5.70153,26,-0.00066859,10,0.000396691,-2.24401,-0.0216573,-2.72425,572.005,-0.0695763,
2,0,0,1,1,50451,-0.066756,-0.0671787,-4.37088,26,-0.000688576,10,0.00029363,-2.35943,-0.0166197,-3.55001,543.939,-0.0671787,
2,0,0,1,1,50451,-0.0643589,-0.0648108,-3.10443,26,-0.000703377,10,0.000201201,-2.50802,-0.0106114,-5.56005,520.191,-0.06481079,
2,0,0,1,1,50451,-0.0619563,-0.0624015,-1.88159,26,-0.000713211,10,0.000117414,-2.72547,-0.00905369,-6.51668,495.98,-0.0624015,
2,0,0,1,1,50451,-0.0595536,-0.0599828,-0.71108,26,-0.000718251,10,4.26525e-05,-3.14808,-0.02904,-2.03168,471.462,-0.0599828,
2,1,0,1,1,50451,-0.0571565,-0.0575958,0.382047,26,-0.000718797,10,-2.20043e-05,-3.41788,0.0802143,0.735529,454.148,-0.0575958,
2,1,0,1,1,50451,-0.0547594,-0.0551622,1.44454,26,-0.000715028,10,-7.96838e-05,-2.84027,0.0139376,4.23317,435.237,-0.05516215,
2,1,0,1,1,50451,-0.0523512,-0.0528006,2.47865,26,-0.000707061,10,-0.000130875,-2.60578,0.00904881,6.52019,418.079,-0.0528006,
2,1,0,1,1,50451,-0.0499541,-0.0504253,3.44867,26,-0.000695113,10,-0.0001739,-2.46235,0.01694,3.48288,402.561,-0.0504253,
2,1,0,1,1,50451,-0.047557,-0.0479959,4.39555,26,-0.000679311,10,-0.000210968,-2.35699,0.0241854,2.43948,385.12,-0.0479959,
2,1,0,1,1,50451,-0.0451544,-0.0456164,5.2873,26,-0.000659854,10,-0.000241187,-2.27677,0.0313648,1.88109,368.383,-0.0456164,
2,1,0,1,1,50451,-0.0427545,-0.0432326,6.16351,26,-0.000636857,10,-0.000266464,-2.21017,0.0383424,1.53876,356.717,-0.0432326,
2,1,0,1,1,50451,-0.0403574,-0.0407756,7.00346,26,-0.000610437,10,-0.00028557,-2.15469,0.0454655,1.29769,345.024,-0.0407756,
2,1,0,1,1,50451.1,-0.0379603,-0.0384247,7.80977,26,-0.000580722,10,-0.000300088,-2.10736,0.0532017,1.10899,330.792,-0.0384247,
2,1,0,1,1,50451.1,-0.0355521,-0.0359964,8.60643,26,-0.000547787,10,-0.0003098,-2.06518,0.060997,0.96726,318.52,-0.0359964,
2,1,0,1,1,50451.1,-0.033155,-0.0336232,9.34222,26,-0.000511809,10,-0.000314115,-2.02955,0.069109,0.853724,306.733,-0.0336232,
2,1,0,1,1,50451.1,-0.0307579,-0.0311927,10.0558,26,-0.000472933,10,-0.000313668,-1.99758,0.0779981,0.756429,293.632,-0.0311927,
2,1,0,1,1,50451.1,-0.0283524,-0.0288068,10.7599,26,-0.000431243,10,-0.000309958,-1.96819,0.0866522,0.680883,282.885,-0.0288068,
2,1,0,1,1,50451.1,-0.0259553,-0.0264177,11.419,26,-0.000386795,10,-0.000301665,-1.94237,0.0957157,0.616409,272.243,-0.0264177,
2,1,0,1,1,50451.1,-0.0235582,-0.0239979,12.0651,26,-0.000339749,10,-0.000289536,-1.91847,0.105619,0.558612,261.046,-0.0239979,
2,1,0,1,1,50451.1,-0.0211611,-0.0215568,12.6791,26,-0.000290188,10,-0.000273321,-1.89691,0.115169,0.512289,251.781,-0.0215568,
2,1,0,1,1,50451.1,-0.0187529,-0.0191666,13.2764,26,-0.000238205,10,-0.000254464,-1.87692,0.125508,0.470091,242.09,-0.0191666,
2,1,0,1,1,50451.1,-0.0163558,-0.0167797,13.8457,26,-0.000183905,10,-0.000232326,-1.85868,0.135001,0.437033,234.913,-0.0167797,
2,1,0,1,1,50451.1,-0.0139587,-0.0143747,14.3947,26,-0.000127352,10,-0.00020692,-1.8418,0.148253,0.39797,222.457,-0.0143747,
2,1,0,1,1,50451.1,-0.0115505,-0.0119834,14.928,26,-6.86565e-05,10,-0.000178889,-1.826,0.160531,0.367531,212.996,-0.0119834,
2,1,0,1,1,50451.1,-0.0091534,-0.00951693,15.4231,26,-7.90362e-06,10,-0.00014678,-1.81183,0.171098,0.344831,206.778,-0.00951693,
2,1,0,1,1,50451.1,-0.00675629,-0.00713102,15.9008,26,5.48168e-05,10,-0.000113389,-1.79858,0.184348,0.320046,198.131,-0.00713102,
2,1,0,1,1,50451.1,-0.00435919,-0.00478327,16.378,26,0.00011942,10,-7.83406e-05,-1.78574,0.199816,0.295272,187.356,-0.00478327,
2,1,0,1,1,50451.1,-0.00195376,-0.002356,16.8355,26,0.00018592,10,-3.96645e-05,-1.77377, , , ,-0.002356003,
2,1,0,0,1,50451.1,-7.54729e-05,-0.000439847,17.1237,26,0.000238598,10,-7.53182e-06,-1.7664, , , ,-0.000439847,