File: Figure_codes/Fig_3-5/rawdata_trumpetplot_data/after 10th/20221101_1-115_003_TrumpetPlot_ParaChange_from10_every3_10_CV_C01_16.csv
mode,ox/red,error,control changes,counter inc.,time/s,control/V,Ewe/V,<I>/mA,cycle number,(Q-Qo)/C,I Range,P/W,log(|I|),Tafel slope mV/dec,alpha_eff,dI/d(E-IR),E-IR/V,
2,1,0,0,0,32712.6,-2.44065e-05,-0.000172625,5.29797,17,0.0000000E+000,10,-9.14562e-07,-2.27589, , , ,-0.000172625,
2,1,0,1,0,32712.6,0.00179726,0.00143151,6.17155,17,5.10793e-05,10,8.8346e-06,-2.20961, , , ,0.00143151,
2,1,0,1,0,32712.6,0.00379485,0.00347305,6.83535,17,0.00011647,10,2.37395e-05,-2.16524,0.0544269,1.08402,284.71,0.00347305,
2,1,0,1,0,32712.6,0.00579244,0.00546768,7.32069,17,0.000187401,10,4.00271e-05,-2.13545,0.0758565,0.777785,220.487,0.00546768,
2,1,0,1,0,32712.6,0.00779002,0.00743844,7.70967,17,0.000262613,10,5.7348e-05,-2.11296,0.0948928,0.621754,186.521,0.00743844,
2,1,0,1,0,32712.7,0.00977853,0.00945779,8.06493,17,0.000340838,10,7.62764e-05,-2.0934,0.116375,0.506982,158.701,0.00945779,
2,1,0,1,0,32712.7,0.0117761,0.0114125,8.34036,17,0.000422899,10,9.51844e-05,-2.07882,0.142266,0.414716,134.837,0.0114125,
2,1,0,1,0,32712.7,0.0137737,0.0134462,8.60271,17,0.000507664,10,0.000115674,-2.06536,0.163822,0.360146,120.616,0.0134462,
2,1,0,1,0,32712.7,0.0157713,0.0154495,8.82728,17,0.000594828,10,0.000136377,-2.05417,0.186024,0.317163,109.164,0.0154495,
2,1,0,1,0,32712.7,0.017778,0.0174476,9.03952,17,0.000684254,10,0.000157718,-2.04385,0.220814,0.267193,93.9922,0.01744757,
2,1,0,1,0,32712.7,0.0197755,0.0194439,9.20273,17,0.000775501,10,0.000178937,-2.03608,0.242017,0.243784,87.6646,0.0194439,
2,1,0,1,0,32712.7,0.0217731,0.0214568,9.39098,17,0.00086855,10,0.0002015,-2.02729,0.25885,0.227931,83.3486,0.0214568,
2,1,0,1,0,32712.7,0.0237707,0.0234774,9.53892,17,0.000963191,10,0.000223949,-2.0205,0.286937,0.20562,76.5819,0.0234774,
2,1,0,1,0,32712.7,0.0257774,0.0254556,9.69722,17,0.00105942,10,0.000246848,-2.01335,0.300445,0.196376,74.2214,0.0254556,
2,1,0,1,0,32712.7,0.027775,0.0274207,9.83159,17,0.00115705,10,0.000269589,-2.00738,0.3291,0.179277,68.8035,0.0274207,
2,1,0,1,0,32712.8,0.0297726,0.0294457,9.97175,17,0.00125611,10,0.000293625,-2.00123,0.35318,0.167053,64.9467,0.0294457,
2,1,0,1,0,32712.8,0.0317701,0.0314481,10.0932,17,0.00135643,10,0.000317411,-1.99597,0.338683,0.174204,68.7179,0.0314481,
2,1,0,1,0,32712.8,0.0337587,0.0334171,10.2447,17,0.00145712,10,0.000342346,-1.9895,0.355774,0.165835,66.1731,0.0334171,
2,1,0,1,0,32712.8,0.0357562,0.035434,10.3569,17,0.0015601,10,0.000366987,-1.98477,0.396132,0.14894,60.2439,0.03543397,
2,1,0,1,0,32712.8,0.0377538,0.0374023,10.4847,17,0.00166437,10,0.000392154,-1.97944,0.381871,0.154502,63.2001,0.0374023,
2,1,0,1,0,32712.8,0.0397514,0.039389,10.6069,17,0.00176983,10,0.000417794,-1.97441,0.356425,0.165533,68.6168,0.039389,
2,1,0,1,0,32712.8,0.0417399,0.0414039,10.7593,17,0.00187563,10,0.000445478,-1.96822,0.370796,0.159117,66.686,0.04140389,
2,1,0,1,0,32712.8,0.0437375,0.0433603,10.8717,17,0.00198378,10,0.000471401,-1.9637,0.397784,0.148322,63.0022,0.0433603,
2,1,0,1,0,32712.8,0.0457351,0.0453767,11.0096,17,0.0020932,10,0.000499579,-1.95823,0.393092,0.150092,64.4371,0.0453767,
2,1,0,1,0,32712.8,0.0477327,0.0473748,11.1304,17,0.00220389,10,0.000527299,-1.95349,0.375045,0.157314,68.4358,0.0473748,
2,1,0,1,0,32712.9,0.0497393,0.0494032,11.2852,17,0.00231599,10,0.000557524,-1.94749,0.383908,0.153683,67.5669,0.0494032,
2,1,0,1,0,32712.9,0.0517369,0.0513866,11.4015,17,0.00242938,10,0.000585881,-1.94304,0.396035,0.148977,66.3799,0.0513866,
2,1,0,1,0,32712.9,0.0537345,0.0533925,11.55,17,0.00254418,10,0.000616682,-1.93742,0.390615,0.151044,68.0126,0.0533925,
2,1,0,1,0,32712.9,0.0557321,0.0554122,11.6752,17,0.00266032,10,0.000646952,-1.93273,0.397179,0.148548,67.7407,0.0554122,
2,1,0,1,0,32712.9,0.0577297,0.0573878,11.8206,17,0.00277784,10,0.000678359,-1.92736,0.376415,0.156742,72.2917,0.0573878,
2,1,0,1,0,32712.9,0.0597364,0.0593746,11.9617,17,0.0028968,10,0.000710221,-1.92221,0.373188,0.158097,73.8377,0.0593746,
2,1,0,1,0,32712.9,0.0617339,0.0613727,12.1149,17,0.00301723,10,0.000743522,-1.91668,0.398635,0.148005,69.8978,0.0613727,
2,1,0,1,0,32712.9,0.0637315,0.0633777,12.2415,17,0.00313903,10,0.000775839,-1.91217,0.413912,0.142542,68.1615,0.0633777,
2,1,0,1,0,32712.9,0.0657291,0.0654322,12.3916,17,0.00326225,10,0.000810808,-1.90687,0.382052,0.154429,74.6746,0.0654322,
2,1,0,1,0,32712.9,0.0677176,0.0673774,12.5402,17,0.00338571,10,0.000844924,-1.9017,0.399787,0.147579,72.1888,0.0673774,
2,1,0,1,0,32713,0.0697152,0.0693879,12.6771,17,0.00351187,10,0.000879639,-1.89698,0.424349,0.139037,68.7825,0.06938792,
2,1,0,1,0,32713,0.0717128,0.0713436,12.813,17,0.00363929,10,0.000914124,-1.89235,0.413777,0.142589,71.3326,0.0713436,
2,1,0,1,0,32713,0.0737104,0.0733676,12.961,17,0.00376817,10,0.000950918,-1.88736,0.431811,0.136634,69.0583,0.0733676,
2,1,0,1,0,32713,0.0756989,0.0753472,13.0895,17,0.00389712,10,0.000986255,-1.88308,0.428683,0.137631,70.3658,0.0753472,
2,1,0,1,0,32713,0.0776965,0.0773418,13.2407,17,0.0040288,10,0.00102406,-1.87809,0.428972,0.137538,71.0237,0.0773418,
2,1,0,1,0,32713,0.0796941,0.0793677,13.375,17,0.00416189,10,0.00106154,-1.87371,0.424203,0.139085,72.65,0.0793677,
2,1,0,1,0,32713,0.0816917,0.0813085,13.5288,17,0.00429644,10,0.00110001,-1.86874,0.452316,0.13044,68.7815,0.0813085,
2,1,0,1,0,32713,0.0836983,0.0833448,13.6486,17,0.00443229,10,0.00113754,-1.86491,0.48897,0.120662,64.3189,0.0833448,
2,1,0,1,0,32713,0.0856959,0.085355,13.7891,17,0.00456952,10,0.00117697,-1.86046,0.505309,0.11676,62.7676,0.085355,
2,1,0,1,0,32713,0.0876935,0.0873713,13.9013,17,0.00470798,10,0.00121458,-1.85694,0.525033,0.112374,61.012,0.0873713,
2,1,0,1,0,32713.1,0.0896911,0.089392,14.0354,17,0.00484771,10,0.00125465,-1.85278,0.491681,0.119996,65.7132,0.089392,
2,1,0,1,0,32713.1,0.0916978,0.0913623,14.1636,17,0.00498868,10,0.00129402,-1.84883,0.5049,0.116855,64.5913,0.0913623,
2,1,0,1,0,32713.1,0.0936953,0.093363,14.2919,17,0.00513099,10,0.00133434,-1.84491,0.587137,0.100488,55.9861,0.093363,
2,1,0,1,0,32713.1,0.0956929,0.0953863,14.3888,17,0.00527439,10,0.0013725,-1.84197,0.571411,0.103253,58.0569,0.0953863,
2,1,0,1,0,32713.1,0.0976905,0.097354,14.5236,17,0.00541902,10,0.00141393,-1.83793,0.507618,0.116229,65.8609,0.097354,
2,1,0,1,0,32713.1,0.099679,0.099363,14.6508,17,0.00556338,10,0.00145574,-1.83414,0.536079,0.110058,62.9184,0.099363,
2,1,0,1,0,32713.1,0.101677,0.101333,14.7739,17,0.00571058,10,0.00149709,-1.8305,0.547513,0.10776,62.1306,0.101333,
2,1,0,1,0,32713.1,0.103674,0.103326,14.897,17,0.00585895,10,0.00153924,-1.8269,0.488061,0.120887,70.3665,0.103326,
2,1,0,1,0,32713.1,0.105672,0.105356,15.057,17,0.00600876,10,0.00158634,-1.82226,0.470255,0.125464,73.6541,0.105356,
2,1,0,1,0,32713.1,0.107656,0.107286,15.1886,17,0.00615842,10,0.00162952,-1.81848,0.463512,0.127289,75.5423,0.107286,
2,1,0,1,0,32713.2,0.109658,0.109332,15.3574,17,0.00631118,10,0.00167906,-1.81368,0.441018,0.133781,80.1444,0.109332,
2,1,0,1,0,32713.2,0.111655,0.111332,15.5129,17,0.00646553,10,0.00172708,-1.80931,0.410153,0.143849,87.1897,0.111332,
2,1,0,1,0,32713.2,0.113653,0.113326,15.7056,17,0.00662165,10,0.00177985,-1.80395,0.398415,0.148087,90.6901,0.113326,
2,1,0,1,0,32713.2,0.115651,0.115298,15.8726,17,0.00677952,10,0.00183007,-1.79935,0.366029,0.16119,100.053,0.115298,
2,1,0,1,0,32713.2,0.117657,0.117325,16.1058,17,0.00693949,10,0.00188962,-1.79302,0.356937,0.165295,103.74,0.117325,
2,1,0,1,0,32713.2,0.119655,0.119339,16.2918,17,0.00710147,10,0.00194425,-1.78803,0.362692,0.162672,103.557,0.119339,
2,1,0,1,0,32713.2,0.121652,0.12132,16.5194,17,0.00726557,10,0.00200414,-1.782,0.352249,0.167495,107.903,0.12132,
2,1,0,1,0,32713.2,0.12365,0.123343,16.7239,17,0.00743178,10,0.00206277,-1.77666,0.33879,0.174149,113.808,0.123343,
2,1,0,1,0,32713.2,0.125657,0.125304,16.9729,17,0.00760037,10,0.00212677,-1.77025,0.34697,0.170043,112.465,0.125304,
2,1,0,1,0,32713.2,0.127654,0.12733,17.1722,17,0.00777111,10,0.00218654,-1.76517,0.361821,0.163064,109.388,0.12733,
2,1,0,1,0,32713.3,0.129652,0.129269,17.4066,17,0.00794406,10,0.00225013,-1.75929,0.364192,0.162003,109.965,0.1292689,
2,1,0,1,0,32713.3,0.131649,0.131359,17.6153,17,0.0081192,10,0.00231393,-1.75411,0.382122,0.154401,106.185,0.131359,
2,1,0,1,0,32713.3,0.133638,0.133338,17.8387,17,0.00829483,10,0.00237858,-1.74864,0.391707,0.150623,104.761,0.133338,
2,1,0,1,0,32713.3,0.135636,0.135312,18.0294,17,0.00847417,10,0.00243958,-1.74402,0.411046,0.143536,101.043,0.135312,
2,1,0,1,0,32713.3,0.137633,0.137292,18.2382,17,0.00865552,10,0.00250395,-1.73902,0.446178,0.132234,94.0084,0.137292,
2,1,0,1,0,32713.3,0.139631,0.139302,18.4045,17,0.00883874,10,0.00256377,-1.73508,0.477592,0.123536,88.7897,0.1393016,
2,1,0,1,0,32713.3,0.141619,0.141319,18.5957,17,0.00902188,10,0.00262793,-1.73059,0.507022,0.116366,84.3353,0.141319,
2,1,0,1,0,32713.3,0.143617,0.143248,18.7373,17,0.00920856,10,0.00268407,-1.72729,0.55474,0.106356,77.8241,0.143248,
2,1,0,1,0,32713.3,0.145614,0.14528,18.904,17,0.00939682,10,0.00274636,-1.72345,0.654249,0.0901798,66.4156,0.14528,
2,1,0,1,0,32713.3,0.147612,0.147287,19.0056,17,0.00958632,10,0.00279928,-1.72112,0.724614,0.0814227,60.4564,0.147287,
2,1,0,1,0,32713.4,0.149619,0.149304,19.1473,17,0.00977716,10,0.00285878,-1.71789,0.815733,0.0723276,53.9501,0.149304,
2,1,0,1,0,32713.4,0.151616,0.15127,19.2205,17,0.00996903,10,0.00290749,-1.71624,1.21447,0.0485808,36.4401,0.15127,
2,1,0,1,0,32713.4,0.153614,0.153296,19.2928,17,0.0101617,10,0.00295751,-1.71461,1.87639,0.0314434,23.6444,0.153296,
2,1,0,1,0,32713.4,0.155611,0.15529,19.3155,17,0.0103547,10,0.0029995,-1.71409,4.21861,0.0139856,10.5418,0.1552901,
2,1,0,1,0,32713.4,0.157618,0.1573,19.335,17,0.010548,10,0.0030414,-1.71366,-3.04105,-0.0194012,-14.6028,0.1573,
2,1,0,1,0,32713.4,0.159616,0.159322,19.2566,17,0.010741,10,0.003068,-1.71542,-1.06585,-0.055355,-41.5911,0.159322,
2,1,0,1,0,32713.4,0.161613,0.161276,19.1696,17,0.0109332,10,0.00309159,-1.71739,-0.65497,-0.0900804,-67.2279,0.1612757,
2,1,0,1,0,32713.4,0.163611,0.163289,18.9899,17,0.011124,10,0.00310084,-1.72148,-0.443573,-0.133011,-98.4868,0.163289,
2,1,0,1,0,32713.4,0.165618,0.165262,18.777,17,0.0113129,10,0.00310313,-1.72637,-0.34193,-0.17255,-126.193,0.165262,
2,1,0,1,0,32713.4,0.167597,0.167241,18.4912,17,0.0114974,10,0.00309248,-1.73303,-0.2766,-0.213305,-153.734,0.167241,
2,1,0,1,0,32713.5,0.169595,0.169267,18.1613,17,0.0116807,10,0.00307412,-1.74085,-0.221244,-0.266674,-188.499,0.169267,
2,1,0,1,0,32713.5,0.171592,0.171237,17.7379,17,0.0118601,10,0.00303739,-1.7511,-0.188896,-0.312341,-216.074,0.171237,
2,1,0,1,0,32713.5,0.173572,0.173264,17.2976,17,0.0120335,10,0.00299706,-1.76201,-0.171508,-0.344008,-231.778,0.173264,
2,1,0,1,0,32713.5,0.175578,0.17529,16.7985,17,0.012204,10,0.00294461,-1.77473,-0.15035,-0.392417,-257.046,0.17529,
2,1,0,1,0,32713.5,0.177576,0.17722,16.2809,17,0.0123693,10,0.0028853,-1.78832,-0.137247,-0.429883,-272.645,0.1772197,
2,1,0,1,0,32713.5,0.179573,0.179261,15.7158,17,0.0125292,10,0.00281723,-1.80366,-0.133729,-0.441191,-270.779,0.179261,
2,1,0,1,0,32713.5,0.181571,0.18127,15.1843,17,0.0126836,10,0.00275245,-1.81861,-0.132667,-0.444722,-263.35,0.18127,
2,1,0,1,0,32713.5,0.183578,0.183333,14.6435,17,0.0128327,10,0.00268464,-1.83435,-0.125243,-0.471082,-269.21,0.183333,
2,1,0,1,0,32713.5,0.185575,0.185242,14.1148,17,0.0129765,10,0.00261465,-1.85033,-0.122155,-0.482992,-266.126,0.185242,
2,1,0,1,0,32713.5,0.187573,0.187232,13.6059,17,0.013115,10,0.00254746,-1.86627,-0.130007,-0.453823,-241.299,0.187232,
2,1,0,1,0,32713.6,0.18957,0.189262,13.1448,17,0.0132487,10,0.00248782,-1.88125,-0.1348,-0.437684,-224.556,0.189262,
2,1,0,1,0,32713.6,0.191577,0.191279,12.697,17,0.0133778,10,0.00242868,-1.8963,-0.136373,-0.432637,-214.705,0.191279,
2,1,0,1,0,32713.6,0.193575,0.193211,12.2969,17,0.0135028,10,0.0023759,-1.91021,-0.144441,-0.408472,-196.154,0.193211,
2,1,0,1,0,32713.6,0.195572,0.195238,11.9205,17,0.0136238,10,0.00232733,-1.92371,-0.155882,-0.37849,-176.286,0.195238,
2,1,0,1,0,32713.6,0.19757,0.197283,11.5791,17,0.0137413,10,0.00228436,-1.93633,-0.165101,-0.357357,-161.686,0.197283,
2,1,0,1,0,32713.6,0.199558,0.199248,11.2722,17,0.0138544,10,0.00224596,-1.94799,-0.176342,-0.334578,-147.376,0.199248,
2,1,0,1,0,32713.6,0.201556,0.201218,10.9991,17,0.0139657,10,0.00221323,-1.95864,-0.182729,-0.322883,-138.552,0.201218,
2,1,0,1,0,32713.6,0.203554,0.203212,10.7229,17,0.0140742,10,0.00217902,-1.96969,-0.196154,-0.300784,-126.137,0.203212,
2,1,0,1,0,32713.6,0.205551,0.205209,10.4957,17,0.0141803,10,0.00215382,-1.97899,-0.2239,-0.26351,-108.045,0.205209,
2,1,0,1,0,32713.6,0.20754,0.207196,10.2924,17,0.0142831,10,0.00213255,-1.98748,-0.243345,-0.242454,-97.4482,0.207196,
2,1,0,1,0,32713.7,0.209537,0.209228,10.1041,17,0.0143851,10,0.00211406,-1.9955,-0.241951,-0.243851,-96.0993,0.209228,
2,1,0,1,0,32713.7,0.211535,0.211219,9.90589,17,0.0144851,10,0.00209231,-2.00411,-0.262419,-0.224831,-87.1358,0.211219,
2,1,0,1,0,32713.7,0.213532,0.213187,9.75913,17,0.0145834,10,0.00208052,-2.01059,-0.29293,-0.201414,-76.6507,0.213187,
2,1,0,1,0,32713.7,0.215539,0.21523,9.59839,17,0.01468,10,0.00206586,-2.0178,-0.30211,-0.195293,-73.2381,0.21523,
2,1,0,1,0,32713.7,0.217537,0.217261,9.4608,17,0.0147753,10,0.00205546,-2.02407,-0.323768,-0.182229,-67.2935,0.217261,
2,1,0,1,0,32713.7,0.219534,0.21926,9.32725,17,0.0148692,10,0.00204509,-2.03025,-0.346081,-0.17048,-62.1205,0.21926,
2,1,0,1,0,32713.7,0.221532,0.221236,9.21385,17,0.0149619,10,0.00203843,-2.03556,-0.354235,-0.166556,-59.8569,0.221236,
2,1,0,1,0,32713.7,0.223534,0.22321,9.0908,17,0.0150533,10,0.00202916,-2.0414,-0.395467,-0.149191,-53.033,0.22321,
2,1,0,1,0,32713.7,0.225536,0.225198,9.00371,17,0.0151438,10,0.00202762,-2.04558,-0.425458,-0.138674,-48.67,0.2251983,
2,1,0,1,0,32713.7,0.227534,0.227216,8.8958,17,0.0152333,10,0.00202127,-2.05081,-0.421856,-0.139858,-48.6102,0.227216,
2,1,0,1,0,32713.8,0.229531,0.229209,8.80874,17,0.0153219,10,0.00201904,-2.05509,-0.449758,-0.131182,-45.0801,0.229209,
2,1,0,1,0,32713.8,0.231529,0.231214,8.71557,17,0.0154095,10,0.00201517,-2.0597,-0.527194,-0.111913,-38.142,0.231214,
2,1,0,1,0,32713.8,0.233517,0.233175,8.65749,17,0.0154955,10,0.00201871,-2.06261,-0.540769,-0.109104,-36.7998,0.233175,
2,1,0,1,0,32713.8,0.235515,0.235172,8.56995,17,0.0155816,10,0.00201541,-2.06702,-0.523272,-0.112752,-37.7605,0.2351716,
2,1,0,1,0,32713.8,0.237512,0.237202,8.50541,17,0.015667,10,0.0020175,-2.0703,-0.575814,-0.102464,-33.9966,0.237202,
2,1,0,1,0,32713.8,0.23951,0.239179,8.4337,17,0.0157516,10,0.00201717,-2.07398,-0.668727,-0.0882273,-29.0842,0.239179,
2,1,0,1,0,32713.8,0.241499,0.241226,8.38839,17,0.0158349,10,0.00202349,-2.07632,-0.648565,-0.09097,-29.7318,0.241226,
2,1,0,1,0,32713.8,0.243496,0.243152,8.31557,17,0.0159184,10,0.00202195,-2.08011,-0.651612,-0.0905447,-29.4376,0.2431525,
2,1,0,1,0,32713.8,0.245494,0.245144,8.27305,17,0.0160013,10,0.00202809,-2.08233,-0.696879,-0.0846632,-27.2964,0.245144,
2,1,0,1,0,32713.8,0.247491,0.247123,8.2072,17,0.0160837,10,0.00202818,-2.08581,-0.764077,-0.0772173,-24.778,0.247123,
2,1,0,1,0,32713.9,0.249498,0.249241,8.17152,17,0.0161656,10,0.00203668,-2.0877,-0.784223,-0.0752337,-23.9545,0.249241,
2,1,0,1,0,32713.9,0.251496,0.251178,8.11006,17,0.0162469,10,0.00203707,-2.09098,-0.720221,-0.0819193,-25.9629,0.251178,
2,1,0,1,0,32713.9,0.253493,0.253134,8.07045,17,0.0163278,10,0.00204291,-2.0931,-0.764817,-0.0771426,-24.2707,0.253134,
2,1,0,1,0,32713.9,0.255491,0.255159,8.01342,17,0.0164083,10,0.0020447,-2.09618,-0.900344,-0.0655305,-20.5328,0.255159,
2,1,0,1,0,32713.9,0.257497,0.2572,7.98697,17,0.0164883,10,0.00205425,-2.09762,-1.05902,-0.0557119,-17.3468,0.2572,
2,1,0,1,0,32713.9,0.259495,0.259208,7.9432,17,0.0165679,10,0.00205894,-2.1,-0.867037,-0.0680478,-21.1007,0.259208,
2,1,0,1,0,32713.9,0.261493,0.261127,7.90411,17,0.0166472,10,0.00206397,-2.10215,-0.904496,-0.0652297,-20.119,0.261127,
2,1,0,1,0,32713.9,0.26349,0.263187,7.86313,17,0.016726,10,0.00206948,-2.1044,-1.28881,-0.0457787,-14.0708,0.263187,
2,1,0,1,0,32713.9,0.265479,0.265151,7.84749,17,0.0168037,10,0.00208077,-2.10527,-1.10793,-0.0532526,-16.2748,0.265151,
2,1,0,1,0,32713.9,0.267476,0.267145,7.79872,17,0.0168819,10,0.00208339,-2.10798,-0.937477,-0.0629349,-19.1799,0.267145,
2,1,0,1,0,32714,0.269474,0.269165,7.77051,17,0.0169597,10,0.00209154,-2.10955,-1.06744,-0.0552726,-16.7502,0.269165,
2,1,0,1,0,32714,0.271471,0.271157,7.73152,17,0.0170372,10,0.00209645,-2.11173,-1.4485,-0.0407319,-12.3133,0.271157,
2,1,0,1,0,32714,0.27346,0.273146,7.72149,17,0.0171136,10,0.00210909,-2.1123,-1.1344,-0.0520098,-15.6305,0.273146,
2,1,0,1,0,32714,0.275458,0.275111,7.66972,17,0.0171905,10,0.00211002,-2.11522,-0.985717,-0.0598549,-17.9524,0.275111,
2,1,0,1,0,32714,0.277455,0.277176,7.64912,17,0.0172671,10,0.00212016,-2.11639,-1.141,-0.0517092,-15.4158,0.2771765,
2,1,0,1,0,32714,0.279453,0.279093,7.60833,17,0.0173433,10,0.00212343,-2.11871,-1.13977,-0.0517649,-15.3911,0.279093,
2,1,0,1,0,32714,0.281455,0.281149,7.58798,17,0.0174193,10,0.00213335,-2.11987,-1.23569,-0.0477466,-14.1235,0.2811493,
2,1,0,1,0,32714,0.283457,0.283183,7.55057,17,0.017495,10,0.00213819,-2.12202,-1.29059,-0.0457154,-13.4899,0.283183,
2,1,0,1,0,32714,0.285455,0.285138,7.53417,17,0.0175705,10,0.00214828,-2.12296,-1.09717,-0.0537748,-15.78,0.285138,
2,1,0,1,0,32714,0.287452,0.287169,7.48767,17,0.0176456,10,0.00215022,-2.12565,-1.1083,-0.0532345,-15.5886,0.287169,
2,1,0,1,0,32714.1,0.28945,0.2891,7.47241,17,0.0177204,10,0.00216027,-2.12654,-1.70805,-0.0345423,-10.0668,0.2891,
2,1,0,1,0,32714.1,0.291456,0.291161,7.44749,17,0.017795,10,0.00216841,-2.12799,-1.30487,-0.0452151,-13.1386,0.291161,
2,1,0,1,0,32714.1,0.293454,0.293171,7.41892,17,0.0178694,10,0.00217501,-2.12966,-1.18917,-0.0496146,-14.3657,0.293171,
2,1,0,1,0,32714.1,0.295452,0.295103,7.39085,17,0.0179434,10,0.00218106,-2.13131,-1.48834,-0.0396414,-11.4425,0.295103,
2,1,0,1,0,32714.1,0.297449,0.29714,7.3735,17,0.0180173,10,0.00219096,-2.13233,-1.41275,-0.0417625,-12.0065,0.29714,
2,1,0,1,0,32714.1,0.299438,0.299138,7.3424,17,0.0180901,10,0.00219639,-2.13416,-0.055825,-1.05687,-290.135,0.299138,
2,1,0,1,0,32714.1,0.299746,0.299443,6.70542,17,0.0181209,10,0.00200789,-2.17357,0.00608765,9.69176,2059.54,0.299443,
2,1,0,1,0,32714.1,0.29774,0.29747,3.9067,17,0.0181721,10,0.00116212,-2.40819,0.00849545,6.9449,1101.99,0.29747,
2,1,0,1,0,32714.1,0.295742,0.295382,2.23087,17,0.0182021,10,0.000658959,-2.65153,0.00699236,8.43778,708.765,0.295382,
2,1,0,1,0,32714.1,0.293745,0.293402,1.0233,17,0.018218,10,0.000300239,-2.99,0.0032301,18.2657,529.897,0.2934016,
2,1,0,1,0,32714.1,0.291747,0.291423,0.132613,17,0.0182234,10,3.86464e-05,-3.87741,0.0160689,3.6717,406.889,0.291423,
2,0,0,1,0,32714.2,0.289745,0.289457,-0.581506,17,0.018221,10,-0.000168321,-3.23545,-0.00431898,-13.6606,313.987,0.2894575,
2,0,0,1,0,32714.2,0.287743,0.287406,-1.12839,17,0.0182122,10,-0.000324307,-2.94754,-0.00929551,-6.34715,247.449,0.287406,
2,0,0,1,0,32714.2,0.285745,0.285422,-1.58003,17,0.0181986,10,-0.000450977,-2.80133,-0.0168635,-3.49869,204.791,0.285422,
2,0,0,1,0,32714.2,0.283748,0.283419,-1.945,17,0.0181808,10,-0.00055125,-2.71108,-0.0257361,-2.2925,169.881,0.283419,
2,0,0,1,0,32714.2,0.28175,0.281433,-2.25772,17,0.0181597,10,-0.000635398,-2.64633,-0.0354972,-1.6621,143.898,0.281433,
2,0,0,1,0,32714.2,0.279761,0.279449,-2.51621,17,0.0181359,10,-0.000703153,-2.59925,-0.0459577,-1.28379,125.127,0.2794494,
2,0,0,1,0,32714.2,0.277764,0.277471,-2.75352,17,0.0181095,10,-0.00076402,-2.56011,-0.0580764,-1.0159,108.169,0.277471,
2,0,0,1,0,32714.2,0.275766,0.275421,-2.95194,17,0.018081,10,-0.000813028,-2.52989,-0.0740479,-0.796782,91.2156,0.275421,
2,0,0,1,0,32714.2,0.273769,0.273443,-3.12088,17,0.0180506,10,-0.000853383,-2.50572,-0.0871862,-0.676713,82.2183,0.273443,
2,0,0,1,0,32714.2,0.27178,0.271429,-3.28013,17,0.0180188,10,-0.000890324,-2.48411,-0.094483,-0.624451,79.8958,0.271429,
2,0,0,1,0,32714.3,0.269783,0.269435,-3.44113,17,0.0179852,10,-0.000927162,-2.4633,-0.11235,-0.525144,70.0335,0.269435,
2,0,0,1,0,32714.3,0.267785,0.267463,-3.55793,17,0.0179501,10,-0.000951615,-2.4488,-0.138542,-0.425864,59.1027,0.267463,
2,0,0,1,0,32714.3,0.265787,0.265502,-3.67358,17,0.017914,10,-0.000975342,-2.43491,-0.141357,-0.417382,59.8757,0.265502,
2,0,0,1,0,32714.3,0.263781,0.263482,-3.79627,17,0.0178765,10,-0.00100025,-2.42064,-0.156593,-0.376774,55.6582,0.263482,
2,0,0,1,0,32714.3,0.261783,0.261452,-3.89899,17,0.0178381,10,-0.0010194,-2.40905,-0.188853,-0.312412,47.4437,0.261452,
2,0,0,1,0,32714.3,0.259786,0.259446,-3.98776,17,0.0177986,10,-0.00103461,-2.39927,-0.193074,-0.305583,47.6116,0.259446,
2,0,0,1,0,32714.3,0.257788,0.257503,-4.08702,17,0.0177583,10,-0.00105242,-2.38859,-0.196374,-0.300447,47.8594,0.257503,
2,0,0,1,0,32714.3,0.255781,0.255492,-4.17698,17,0.0177169,10,-0.00106719,-2.37914,-0.239449,-0.246399,40.0786,0.255492,
2,0,0,1,0,32714.3,0.253784,0.253444,-4.24969,17,0.0176748,10,-0.00107706,-2.37164,-0.25695,-0.229617,38.1103,0.253444,
2,0,0,1,0,32714.3,0.251786,0.251489,-4.32954,17,0.0176318,10,-0.00108883,-2.36356,-0.253629,-0.232623,39.2934,0.251489,
2,0,0,1,0,32714.4,0.249789,0.249425,-4.4076,17,0.0175881,10,-0.00109937,-2.3558,-0.27916,-0.211348,36.3082,0.249425,
2,0,0,1,0,32714.4,0.2478,0.24748,-4.47512,17,0.0175441,10,-0.0011075,-2.3492,-0.281235,-0.209789,36.6747,0.24748,
2,0,0,1,0,32714.4,0.245802,0.245488,-4.55199,17,0.017499,10,-0.00111746,-2.3418,-0.297289,-0.19846,35.2036,0.2454883,
2,0,0,1,0,32714.4,0.243805,0.243479,-4.61595,17,0.0174531,10,-0.00112389,-2.33574,-0.339666,-0.1737,31.2821,0.243479,
2,0,0,1,0,32714.4,0.241807,0.241468,-4.67775,17,0.0174067,10,-0.00112953,-2.32996,-0.322459,-0.182969,33.435,0.241468,
2,0,0,1,0,32714.4,0.239819,0.239491,-4.74929,17,0.0173601,10,-0.00113741,-2.32337,-0.337169,-0.174986,32.384,0.239491,
2,0,0,1,0,32714.4,0.237821,0.237481,-4.80687,17,0.0173123,10,-0.00114154,-2.31814,-0.410762,-0.143636,26.9233,0.237481,
2,0,0,1,0,32714.4,0.235824,0.235495,-4.85688,17,0.0172639,10,-0.00114377,-2.31364,-0.436664,-0.135115,25.6172,0.235495,
2,0,0,1,0,32714.4,0.233826,0.23347,-4.90962,17,0.0172151,10,-0.00114625,-2.30895,-0.377084,-0.156464,30.0218,0.23347,
2,0,0,1,0,32714.4,0.231824,0.231505,-4.97667,17,0.0171656,10,-0.00115212,-2.30306,-0.362121,-0.162929,31.6194,0.231505,
2,0,0,1,0,32714.5,0.229822,0.229463,-5.03633,17,0.0171156,10,-0.00115565,-2.29789,-0.468661,-0.125891,24.6899,0.229463,
2,0,0,1,0,32714.5,0.227824,0.227553,-5.07425,17,0.017065,10,-0.00115466,-2.29463,-0.45413,-0.129919,25.7906,0.227553,
2,0,0,1,0,32714.5,0.225827,0.225553,-5.13716,17,0.017014,10,-0.0011587,-2.28928,-0.45473,-0.129747,25.9605,0.225553,
2,0,0,1,0,32714.5,0.223829,0.223486,-5.17982,17,0.0169623,10,-0.00115762,-2.28569,-0.450114,-0.131078,26.5524,0.223486,
2,0,0,1,0,32714.5,0.221822,0.22152,-5.24426,17,0.0169102,10,-0.00116171,-2.28032,-0.445803,-0.132346,27.0313,0.22152,
2,0,0,1,0,32714.5,0.219825,0.2195,-5.28758,17,0.0168574,10,-0.00116062,-2.27674,-0.492421,-0.119816,24.7535,0.2195,
2,0,0,1,0,32714.5,0.217827,0.217515,-5.34339,17,0.0168043,10,-0.00116227,-2.27218,-0.498803,-0.118283,24.6348,0.217515,
2,0,0,1,0,32714.5,0.21583,0.21551,-5.38587,17,0.0167506,10,-0.00116071,-2.26874,-0.472217,-0.124943,26.3107,0.21551,
2,0,0,1,0,32714.5,0.213841,0.213516,-5.44859,17,0.0166969,10,-0.00116336,-2.26372,-0.477608,-0.123532,26.2173,0.213516,
2,0,0,1,0,32714.5,0.211843,0.211515,-5.4906,17,0.0166422,10,-0.00116135,-2.26038,-0.547967,-0.107671,23.0907,0.211515,
2,0,0,1,0,32714.6,0.209846,0.209477,-5.54187,17,0.0165871,10,-0.00116089,-2.25634,-0.522037,-0.113019,24.4321,0.209477,
2,0,0,1,0,32714.6,0.207848,0.207525,-5.58808,17,0.0165314,10,-0.00115967,-2.25274,-0.421348,-0.140027,30.6163,0.207525,
2,0,0,1,0,32714.6,0.20586,0.205505,-5.66346,17,0.0164758,10,-0.00116387,-2.24692,-0.476138,-0.123914,27.2875,0.205505,
2,0,0,1,0,32714.6,0.203862,0.203516,-5.69749,17,0.0164189,10,-0.00115953,-2.24432,-0.621187,-0.0949795,21.1496,0.203516,
2,0,0,1,0,32714.6,0.201865,0.201502,-5.74812,17,0.0163617,10,-0.00115826,-2.24047,-0.579322,-0.101843,22.8256,0.201502,
2,0,0,1,0,32714.6,0.199867,0.199532,-5.78843,17,0.016304,10,-0.00115498,-2.23744,-0.501592,-0.117625,26.6303,0.199532,
2,0,0,1,0,32714.6,0.19786,0.19751,-5.85443,17,0.0162458,10,-0.00115631,-2.23252,-0.533077,-0.110678,25.2205,0.19751,
2,0,0,1,0,32714.6,0.195863,0.195521,-5.88958,17,0.0161871,10,-0.00115154,-2.22992,-0.530753,-0.111163,25.6188,0.195521,
2,0,0,1,0,32714.6,0.193865,0.193534,-5.95629,17,0.0161279,10,-0.00115275,-2.22502,-0.48652,-0.121269,28.1385,0.193534,
2,0,0,1,0,32714.6,0.191868,0.191536,-6.00171,17,0.016068,10,-0.00114954,-2.22172,-0.492488,-0.1198,28.1109,0.191536,
2,0,0,1,0,32714.7,0.189861,0.189523,-6.06905,17,0.0160077,10,-0.00115022,-2.21688,-0.480363,-0.122824,29.047,0.189523,
2,0,0,1,0,32714.7,0.187863,0.187526,-6.11819,17,0.0159468,10,-0.00114732,-2.21338,-0.530504,-0.111215,26.5704,0.187526,
2,0,0,1,0,32714.7,0.185866,0.18555,-6.17463,17,0.0158853,10,-0.0011457,-2.20939,-0.565299,-0.104369,25.1241,0.18555,
2,0,0,1,0,32714.7,0.183868,0.183541,-6.21831,17,0.0158233,10,-0.00114132,-2.20633,-0.444466,-0.132744,32.3163,0.183541,
2,0,0,1,0,32714.7,0.18188,0.181615,-6.30178,17,0.0157614,10,-0.0011445,-2.20054,-0.418164,-0.141093,34.6202,0.181615,
2,0,0,1,0,32714.7,0.179882,0.179544,-6.35669,17,0.0156981,10,-0.00114131,-2.19677,-0.525292,-0.112318,27.873,0.179544,
2,0,0,1,0,32714.7,0.177885,0.177518,-6.41599,17,0.0156342,10,-0.00113895,-2.19274,-0.455293,-0.129587,32.4764,0.177518,
2,0,0,1,0,32714.7,0.175887,0.175532,-6.48697,17,0.0155696,10,-0.00113867,-2.18796,-0.392357,-0.150373,38.091,0.175532,
2,0,0,1,0,32714.7,0.173908,0.173582,-6.5659,17,0.0155051,10,-0.00113972,-2.18271,-0.395184,-0.149298,38.2376,0.173582,
2,0,0,1,0,32714.7,0.171901,0.171563,-6.63876,17,0.015439,10,-0.00113896,-2.17791,-0.400706,-0.14724,38.1654,0.171563,
2,0,0,1,0,32714.8,0.169903,0.169594,-6.71809,17,0.0153723,10,-0.00113935,-2.17275,-0.381827,-0.15452,40.5186,0.1695943,
2,0,0,1,0,32714.8,0.167906,0.167586,-6.7999,17,0.0153047,10,-0.00113957,-2.1675,-0.351298,-0.167948,44.6208,0.167586,
2,0,0,1,0,32714.8,0.165908,0.165562,-6.89803,17,0.0152362,10,-0.00114205,-2.16128,-0.337374,-0.17488,47.0457,0.165562,
2,0,0,1,0,32714.8,0.163901,0.163605,-6.98717,17,0.0151667,10,-0.00114314,-2.1557,-0.313349,-0.188289,51.4271,0.163605,
2,0,0,1,0,32714.8,0.161904,0.161636,-7.09992,17,0.0150963,10,-0.0011476,-2.14875,-0.303205,-0.194588,53.8808,0.161636,
2,0,0,1,0,32714.8,0.159906,0.159581,-7.20399,17,0.0150247,10,-0.00114962,-2.14243,-0.30049,-0.196346,55.2652,0.159581,
2,0,0,1,0,32714.8,0.157909,0.157553,-7.32557,17,0.014952,10,-0.00115416,-2.13516,-0.253045,-0.23316,66.7539,0.157553,
2,0,0,1,0,32714.8,0.155902,0.155602,-7.46959,17,0.0148779,10,-0.00116229,-2.1267,-0.230251,-0.256242,74.7378,0.155602,
2,0,0,1,0,32714.8,0.153904,0.153566,-7.62352,17,0.0148025,10,-0.00117072,-2.11784,-0.231138,-0.255258,75.9109,0.153566,
2,0,0,1,0,32714.8,0.151907,0.151611,-7.77261,17,0.0147254,10,-0.00117841,-2.10943,-0.212077,-0.278201,84.5824,0.1516106,
2,0,0,1,0,32714.9,0.149909,0.149593,-7.95962,17,0.0146468,10,-0.0011907,-2.09911,-0.18373,-0.321123,99.8924,0.149593,
2,0,0,1,0,32714.9,0.147921,0.147611,-8.17215,17,0.0145668,10,-0.0012063,-2.08766,-0.176208,-0.334831,106.771,0.147611,
2,0,0,1,0,32714.9,0.145923,0.145602,-8.3857,17,0.0144841,10,-0.00122097,-2.07646,-0.165721,-0.35602,116.757,0.145602,
2,0,0,1,0,32714.9,0.143926,0.143616,-8.63857,17,0.0143989,10,-0.00124064,-2.06356,-0.14765,-0.399592,134.936,0.143616,
2,0,0,1,0,32714.9,0.141928,0.141605,-8.92507,17,0.0143111,10,-0.00126383,-2.04939,-0.139439,-0.423125,147.442,0.141605,
2,0,0,1,0,32714.9,0.139939,0.139637,-9.2253,17,0.0142213,10,-0.00128819,-2.03502,-0.132852,-0.444102,160.151,0.139637,
2,0,0,1,0,32714.9,0.137942,0.137623,-9.56274,17,0.0141274,10,-0.00131605,-2.01942,-0.127566,-0.462505,172.698,0.137623,
2,0,0,1,0,32714.9,0.135944,0.135623,-9.91843,17,0.01403,10,-0.00134517,-2.00356,-0.123401,-0.478117,185.325,0.135623,
2,0,0,1,0,32714.9,0.133947,0.133588,-10.3106,17,0.0139288,10,-0.00137737,-1.98672,-0.119695,-0.492918,198.387,0.133588,
2,0,0,1,0,32714.9,0.13194,0.131596,-10.7174,17,0.0138237,10,-0.00141037,-1.96991,-0.117822,-0.500756,209.56,0.131596,
2,0,0,1,0,32715,0.129942,0.129599,-11.1464,17,0.0137143,10,-0.00144456,-1.95287,-0.117365,-0.502706,218.637,0.129599,
2,0,0,1,0,32715,0.127945,0.127641,-11.582,17,0.0136006,10,-0.00147834,-1.93622,-0.11995,-0.491873,222.309,0.127641,
2,0,0,1,0,32715,0.125947,0.125641,-12.0265,17,0.0134825,10,-0.00151101,-1.91986,-0.12516,-0.471398,221.182,0.125641,
2,0,0,1,0,32715,0.123941,0.123608,-12.4742,17,0.0133599,10,-0.0015419,-1.90399,-0.12825,-0.460039,223.844,0.123608,
2,0,0,1,0,32715,0.121943,0.12165,-12.9196,17,0.013233,10,-0.00157168,-1.88875,-0.132295,-0.445974,224.686,0.12165,
2,0,0,1,0,32715,0.119945,0.11969,-13.3545,17,0.0131015,10,-0.0015984,-1.87437,-0.139491,-0.422965,220.469,0.11969,
2,0,0,1,0,32715,0.117948,0.117647,-13.8022,17,0.0129657,10,-0.00162379,-1.86005,-0.148972,-0.396047,213.031,0.117647,
2,0,0,1,0,32715,0.115946,0.115628,-14.2199,17,0.0128254,10,-0.00164421,-1.8471,-0.160119,-0.368475,204.305,0.115628,
2,0,0,1,0,32715,0.113962,0.113644,-14.62,17,0.0126826,10,-0.00166148,-1.83505,-0.168444,-0.350266,199.745,0.113644,
2,0,0,1,0,32715,0.111964,0.111664,-15.0116,17,0.0125343,10,-0.00167625,-1.82357,-0.182775,-0.322801,188.932,0.111664,
2,0,0,1,0,32715.1,0.109967,0.109619,-15.3805,17,0.0123823,10,-0.001686,-1.81303,-0.199277,-0.29607,177.559,0.109619,
2,0,0,1,0,32715.1,0.107969,0.107631,-15.7277,17,0.0122267,10,-0.00169278,-1.80334,-0.210959,-0.279675,171.533,0.107631,
2,0,0,1,0,32715.1,0.10598,0.105685,-16.0554,17,0.0120694,10,-0.00169681,-1.79438,-0.226926,-0.259997,162.819,0.105685,
2,0,0,1,0,32715.1,0.103983,0.103691,-16.3692,17,0.0119072,10,-0.00169733,-1.78597,-0.252979,-0.233221,148.836,0.103691,
2,0,0,1,0,32715.1,0.101985,0.101671,-16.6527,17,0.0117421,10,-0.00169311,-1.77851,-0.286363,-0.206032,133.762,0.101671,
2,0,0,1,0,32715.1,0.0999877,0.0996879,-16.9046,17,0.0115743,10,-0.00168519,-1.77199,-0.304857,-0.193533,127.676,0.0996879,
2,0,0,1,0,32715.1,0.0979811,0.0977158,-17.1578,17,0.0114039,10,-0.00167658,-1.76554,-0.332692,-0.177341,118.626,0.0977158,
2,0,0,1,0,32715.1,0.0959835,0.095703,-17.3773,17,0.0112311,10,-0.00166306,-1.76002,-0.394591,-0.149522,101.307,0.095703,
2,0,0,1,0,32715.1,0.0939859,0.093691,-17.5655,17,0.0110563,10,-0.00164573,-1.75534,-0.472605,-0.12484,85.5,0.093691,
2,0,0,1,0,32715.1,0.0919883,0.0916781,-17.7215,17,0.0108798,10,-0.00162467,-1.7515,-0.520772,-0.113293,78.3608,0.09167815,
2,0,0,1,0,32715.2,0.0899816,0.0896653,-17.881,17,0.0107017,10,-0.0016033,-1.74761,-0.667737,-0.0883582,61.5353,0.0896653,
2,0,0,1,0,32715.2,0.087984,0.0876577,-17.9689,17,0.0105224,10,-0.00157511,-1.74548,-1.04458,-0.0564819,39.5902,0.0876577,
2,0,0,1,0,32715.2,0.0859865,0.08565,-18.0399,17,0.0103423,10,-0.00154512,-1.74377,-1.41637,-0.0416557,29.3063,0.08565,
2,0,0,1,0,32715.2,0.0839889,0.0836875,-18.0852,17,0.0101617,10,-0.00151351,-1.74268,-2.73939,-0.0215376,15.1886,0.0836875,
2,0,0,1,0,32715.2,0.0820004,0.0817032,-18.0999,17,0.00998256,10,-0.00147882,-1.74232,-31.8553,-0.00185213,1.30744,0.0817032,
2,0,0,1,0,32715.2,0.0800028,0.0796505,-18.0905,17,0.00980156,10,-0.00144092,-1.74255,3.61089,0.0163395,-11.5269,0.0796505,
2,0,0,1,0,32715.2,0.0780052,0.0776408,-18.053,17,0.00962087,10,-0.00140165,-1.74345,1.80446,0.0326968,-23.0258,0.0776408,
2,0,0,1,0,32715.2,0.0760076,0.0756637,-17.9987,17,0.00944058,10,-0.00136185,-1.74476,1.34643,0.0438197,-30.769,0.0756637,
2,0,0,1,0,32715.2,0.0740191,0.0736805,-17.9312,17,0.00926287,10,-0.00132118,-1.74639,0.992924,0.0594205,-41.5486,0.0736805,
2,0,0,1,0,32715.2,0.0720215,0.0717189,-17.8348,17,0.00908402,10,-0.00127909,-1.74873,0.8308,0.0710159,-49.4225,0.0717189,
2,0,0,1,0,32715.3,0.0700239,0.0696835,-17.7336,17,0.00890621,10,-0.00123574,-1.7512,0.77408,0.0762195,-52.7349,0.0696835,
2,0,0,1,0,32715.3,0.0680263,0.0676897,-17.6223,17,0.00872942,10,-0.00119285,-1.75394,0.830172,0.0710696,-48.9145,0.0676897,
2,0,0,1,0,32715.3,0.0660197,0.0656812,-17.5379,17,0.00855376,10,-0.00115191,-1.75602,0.793796,0.0743264,-50.8223,0.0656812,
2,0,0,1,0,32715.3,0.0640221,0.0636918,-17.4191,17,0.00837894,10,-0.00110946,-1.75897,0.678063,0.0870126,-59.157,0.0636918,
2,0,0,1,0,32715.3,0.0620245,0.0617215,-17.3036,17,0.00820534,10,-0.001068,-1.76186,0.736865,0.080069,-54.0918,0.0617215,
2,0,0,1,0,32715.3,0.0600269,0.0596739,-17.2018,17,0.00803277,10,-0.0010265,-1.76443,0.813095,0.0725622,-48.7228,0.0596739,
2,0,0,1,0,32715.3,0.0580248,0.0576854,-17.107,17,0.00786126,10,-0.000986822,-1.76683,0.799434,0.0738022,-49.2624,0.0576854,
2,0,0,1,0,32715.3,0.0560227,0.0556864,-17.0054,17,0.00769062,10,-0.000946968,-1.76941,0.82864,0.071201,-47.2709,0.0556864,
2,0,0,1,0,32715.3,0.0540251,0.0536562,-16.9165,17,0.00752105,10,-0.000907676,-1.77169,0.848911,0.0695008,-45.8745,0.0536562,
2,0,0,1,0,32715.3,0.0520275,0.0516616,-16.8207,17,0.00735233,10,-0.000868986,-1.77416,0.784796,0.0751788,-49.3453,0.0516616,
2,0,0,1,0,32715.4,0.0500299,0.0496913,-16.7209,17,0.00718459,10,-0.000830881,-1.77674,0.878822,0.0671353,-43.8436,0.04969126,
2,0,0,1,0,32715.4,0.0480414,0.0476984,-16.647,17,0.00701932,10,-0.000794033,-1.77866,0.960302,0.061439,-39.902,0.04769836,
2,0,0,1,0,32715.4,0.0460438,0.0457085,-16.5619,17,0.00685332,10,-0.000757022,-1.78089,0.874139,0.067495,-43.6211,0.0457085,
2,0,0,1,0,32715.4,0.0440462,0.0437203,-16.4734,17,0.0066881,10,-0.000720223,-1.78322,0.841061,0.0701495,-45.0951,0.0437203,
2,0,0,1,0,32715.4,0.0420486,0.0417185,-16.382,17,0.00652394,10,-0.000683432,-1.78563,0.891979,0.0661451,-42.3058,0.0417185,
2,0,0,1,0,32715.4,0.0400601,0.0397103,-16.3038,17,0.0063621,10,-0.000647429,-1.78771,0.876018,0.0673502,-42.8337,0.0397103,
2,0,0,1,0,32715.4,0.0380625,0.0377131,-16.2104,17,0.00619956,10,-0.000611346,-1.79021,0.758483,0.0777869,-49.1974,0.0377131,
2,0,0,1,0,32715.4,0.036065,0.0357367,-16.1083,17,0.00603796,10,-0.000575658,-1.79295,0.759387,0.0776943,-48.8574,0.0357367,
2,0,0,1,0,32715.4,0.0340674,0.0337343,-16.016,17,0.00587737,10,-0.000540289,-1.79544,0.820792,0.0718818,-44.9356,0.0337343,
2,0,0,1,0,32715.4,0.0320607,0.0317249,-15.928,17,0.00571763,10,-0.000505315,-1.79784,0.714526,0.0825722,-51.2812,0.0317249,
2,0,0,1,0,32715.5,0.0300631,0.0297355,-15.811,17,0.00555899,10,-0.000470147,-1.80104,0.657983,0.0896679,-55.3538,0.02973547,
2,0,0,1,0,32715.5,0.0280655,0.0277521,-15.7081,17,0.00540134,10,-0.000435934,-1.80388,0.686382,0.0859579,-52.6831,0.02775212,
2,0,0,1,0,32715.5,0.0260679,0.0256985,-15.5983,17,0.00524483,10,-0.000400853,-1.80692,0.649317,0.0908647,-55.3067,0.0256985,
2,0,0,1,0,32715.5,0.0240613,0.0237143,-15.4848,17,0.00508937,10,-0.000367211,-1.81009,0.597433,0.0987558,-59.6599,0.0237143,
2,0,0,1,0,32715.5,0.0220637,0.0217249,-15.3612,17,0.00493518,10,-0.000333721,-1.81357,0.557463,0.105837,-63.4383,0.0217249,
2,0,0,1,0,32715.5,0.0200661,0.0197467,-15.2331,17,0.00478219,10,-0.000300804,-1.81721,0.530757,0.111162,-66.0665,0.0197467,
2,0,0,1,0,32715.5,0.0180685,0.0177226,-15.0968,17,0.00463059,10,-0.000267555,-1.82111,0.533602,0.110569,-65.169,0.0177226,
2,0,0,1,0,32715.5,0.01608,0.015743,-14.9722,17,0.00448178,10,-0.000235707,-1.82471,0.505435,0.116731,-68.1529,0.015743,
2,0,0,1,0,32715.5,0.0140824,0.0137221,-14.8242,17,0.00433286,10,-0.00020342,-1.82903,0.469432,0.125684,-72.7165,0.0137221,
2,0,0,1,0,32715.5,0.0120848,0.0117037,-14.6785,17,0.00418532,10,-0.000171792,-1.83332,0.443299,0.133093,-76.2142,0.0117037,
2,0,0,1,0,32715.6,0.0100872,0.0097663,-14.5227,17,0.0040394,10,-0.000141833,-1.83795,0.448919,0.131427,-74.532,0.0097663,
2,0,0,1,0,32715.6,0.00810328,0.00775989,-14.3845,17,0.00389636,10,-0.000111622,-1.8421,0.452848,0.130287,-73.1025,0.00775989,
2,0,0,1,0,32715.6,0.00610116,0.0057939,-14.2323,17,0.0037533,10,-8.24605e-05,-1.84672,0.420462,0.140322,-77.9256,0.0057939,
2,0,0,1,0,32715.6,0.00410357,0.00379667,-14.0757,17,0.00361178,10,-5.34407e-05,-1.85153,0.545792,0.1081,-59.527,0.00379667,
2,0,0,1,0,32715.6,0.00210598,0.00169533,-13.9883,17,0.00347171,10,-2.37148e-05,-1.85423,0.518172,0.113862,-61.9846,0.00169533,
2,0,0,1,0,32715.6,0.00010174,-0.00027934,-13.823,17,0.00333264,10,3.86133e-06,-1.8594,0.413813,0.142577,-76.9759,-0.00027934,
2,0,0,1,0,32715.6,-0.00189827,-0.00230346,-13.6805,17,0.00319509,10,3.15126e-05,-1.8639,0.466281,0.126533,-67.5912,-0.00230346,
2,0,0,1,0,32715.6,-0.00389586,-0.00427814,-13.5528,17,0.00305891,10,5.79805e-05,-1.86797,0.480305,0.122839,-64.9667,-0.00427814,
2,0,0,1,0,32715.6,-0.00589345,-0.00625801,-13.4236,17,0.00292408,10,8.4005e-05,-1.87213,0.499557,0.118105,-61.8934,-0.00625801,
2,0,0,1,0,32715.6,-0.00789103,-0.00829428,-13.3042,17,0.00279041,10,0.000110349,-1.87601,0.557252,0.105877,-55.0124,-0.00829428,
2,0,0,1,0,32715.7,-0.0098977,-0.0102447,-13.2043,17,0.00265787,10,0.000135273,-1.87929,0.629023,0.0937962,-48.3481,-0.0102447,
2,0,0,1,0,32715.7,-0.0118953,-0.0122723,-13.1119,17,0.00252625,10,0.000160912,-1.88234,0.64679,0.0912198,-46.6703,-0.0122723,
2,0,0,1,0,32715.7,-0.0138929,-0.0142938,-13.0153,17,0.00239563,10,0.000186038,-1.88555,0.699057,0.0843994,-42.9041,-0.0142938,
2,0,0,1,0,32715.7,-0.0158905,-0.0162867,-12.9396,17,0.00226585,10,0.000210743,-1.88808,0.883928,0.0667475,-33.731,-0.0162867,
2,0,0,1,0,32715.7,-0.017879,-0.01823,-12.8825,17,0.00213807,10,0.000234849,-1.89,0.968396,0.0609255,-30.622,-0.01823003,
2,0,0,1,0,32715.7,-0.0198766,-0.0202612,-12.8179,17,0.00200958,10,0.000259707,-1.89218,0.899141,0.0656182,-32.8229,-0.0202612,
2,0,0,1,0,32715.7,-0.0218741,-0.0222113,-12.7519,17,0.00188182,10,0.000283236,-1.89443,1.19066,0.0495522,-24.6935,-0.0222113,
2,0,0,1,0,32715.7,-0.0238717,-0.0242203,-12.7201,17,0.00175443,10,0.000308085,-1.89551,1.81591,0.0324906,-16.1282,-0.0242203,
2,0,0,1,0,32715.7,-0.0258602,-0.0262398,-12.6869,17,0.0016287,10,0.000332902,-1.89665,1.96964,0.0299547,-14.8355,-0.0262398,
2,0,0,1,0,32715.7,-0.0278578,-0.0282319,-12.6606,17,0.00150195,10,0.000357433,-1.89754,2.01852,0.0292294,-14.4396,-0.0282319,
2,0,0,1,0,32715.8,-0.0298554,-0.0302091,-12.6296,17,0.00137554,10,0.000381528,-1.89861,3.24721,0.0181694,-8.96496,-0.0302091,
2,0,0,1,0,32715.8,-0.031853,-0.0322098,-12.625,17,0.0012492,10,0.000406648,-1.89877,13.802,0.00427475,-2.10629,-0.0322098,
2,0,0,1,0,32715.8,-0.0338597,-0.0342235,-12.6211,17,0.00112301,10,0.000431939,-1.8989,21.5913,0.00273258,-1.34609,-0.0342235,
2,0,0,1,0,32715.8,-0.0358573,-0.036226,-12.6196,17,0.000996773,10,0.000457156,-1.89896,-15.2536,-0.00386793,1.90578,-0.036226,
2,0,0,1,0,32715.8,-0.0378549,-0.0382432,-12.6288,17,0.000870529,10,0.000482964,-1.89864,-6.81738,-0.00865435,4.26518,-0.0382432,
2,0,0,1,0,32715.8,-0.0398524,-0.0402421,-12.6367,17,0.000744147,10,0.000508528,-1.89837,-3.07173,-0.0192074,9.48077,-0.0402421,
2,0,0,1,0,32715.8,-0.0418591,-0.0422333,-12.6666,17,0.000617681,10,0.000534952,-1.89734,-2.0437,-0.0288693,14.2696,-0.0422333,
2,0,0,1,0,32715.8,-0.0438567,-0.0442435,-12.6938,17,0.000490863,10,0.000561618,-1.89641,-3.38182,-0.0174462,8.63608,-0.0442435,
2,0,0,1,0,32715.8,-0.0458543,-0.0462321,-12.7011,17,0.000363895,10,0.0005872,-1.89616,-2.42448,-0.0243351,12.0785,-0.0462321,
2,0,0,1,0,32715.8,-0.0478519,-0.0482432,-12.7421,17,0.000236636,10,0.00061472,-1.89476,-1.2945,-0.0455776,22.6736,-0.0482432,
2,0,0,1,0,32715.9,-0.0498585,-0.050276,-12.7928,17,0.000109047,10,0.000643172,-1.89303,-1.30488,-0.0452149,22.5626,-0.050276,
2,0,0,1,0,32715.9,-0.051838,-0.0521633,-12.8306,17,-1.78236e-05,10,0.000669284,-1.89175,-1.50101,-0.0393068,19.6838,-0.0521633,
2,0,0,1,0,32715.9,-0.0538356,-0.054208,-12.8702,17,-0.000146273,10,0.00069767,-1.89041,-1.31278,-0.0449427,22.5838,-0.054208,
2,0,0,1,0,32715.9,-0.0558331,-0.0561724,-12.9211,17,-0.000275241,10,0.000725809,-1.8887,-1.11899,-0.0527263,26.5921,-0.0561724,
2,0,0,1,0,32715.9,-0.0578126,-0.0581799,-12.9758,17,-0.000403398,10,0.000754933,-1.88686,-1.06921,-0.0551811,27.9461,-0.0581799,
2,0,0,1,0,32715.9,-0.0598192,-0.060165,-13.0327,17,-0.000533495,10,0.00078411,-1.88497,-0.999578,-0.0590249,30.0298,-0.060165,
2,0,0,1,0,32715.9,-0.0618168,-0.0622099,-13.0969,17,-0.000664095,10,0.000814755,-1.88283,-0.973154,-0.0606276,30.9847,-0.0622099,
2,0,0,1,0,32715.9,-0.0638144,-0.0642097,-13.158,17,-0.000795422,10,0.000844872,-1.88081,-0.968478,-0.0609204,31.2841,-0.0642097,
2,0,0,1,0,32715.9,-0.065812,-0.0661393,-13.2198,17,-0.000927312,10,0.000874348,-1.87878,-0.803954,-0.0733873,37.8989,-0.0661393,
2,0,0,1,0,32715.9,-0.0678187,-0.0681487,-13.3073,17,-0.00106003,10,0.000906873,-1.87591,-0.801248,-0.0736351,38.2137,-0.0681487,
2,0,0,1,0,32716,-0.0698163,-0.0702144,-13.3755,17,-0.00119347,10,0.000939155,-1.87369,-0.839083,-0.0703148,36.7208,-0.0702144,
2,0,0,1,0,32716,-0.0718138,-0.0721934,-13.4558,17,-0.0013277,10,0.000971421,-1.87109,-0.737483,-0.0800018,42.0187,-0.0721934,
2,0,0,1,0,32716,-0.0738114,-0.0741456,-13.5407,17,-0.00146269,10,0.00100398,-1.86836,-0.646981,-0.0911928,48.2289,-0.0741456,
2,0,0,1,0,32716,-0.0758181,-0.0761653,-13.6474,17,-0.00159869,10,0.00103946,-1.86495,-0.69396,-0.0850194,45.2308,-0.0761653,
2,0,0,1,0,32716,-0.0778157,-0.0781817,-13.7233,17,-0.00173556,10,0.00107291,-1.86254,-0.703922,-0.0838161,44.937,-0.0781817,
2,0,0,1,0,32716,-0.0798133,-0.0801928,-13.8283,17,-0.00187335,10,0.00110893,-1.85923,-0.624157,-0.0945275,51.005,-0.0801928,
2,0,0,1,0,32716,-0.0818109,-0.0822134,-13.9289,17,-0.00201211,10,0.00114514,-1.85608,-0.579613,-0.101792,55.373,-0.0822134,
2,0,0,1,0,32716,-0.0837994,-0.0841871,-14.0495,17,-0.00215061,10,0.00118279,-1.85234,-0.592262,-0.0996181,54.5713,-0.0841871,
2,0,0,1,0,32716,-0.0857969,-0.0861714,-14.1449,17,-0.0022915,10,0.00121888,-1.8494,-0.589932,-0.100011,55.2642,-0.0861714,
2,0,0,1,0,32716,-0.0877945,-0.0881564,-14.2689,17,-0.00243359,10,0.00125789,-1.84561,-0.565376,-0.104355,58.0843,-0.0881564,
2,0,0,1,0,32716.1,-0.0897921,-0.0902147,-14.3797,17,-0.0025768,10,0.00129726,-1.84225,-0.546452,-0.107969,60.6301,-0.0902147,
2,0,0,1,0,32716.1,-0.0917806,-0.0921232,-14.5094,17,-0.0027198,10,0.00133665,-1.83835,-0.517577,-0.113993,64.5312,-0.0921232,
2,0,0,1,0,32716.1,-0.0937782,-0.0941196,-14.6317,17,-0.00286547,10,0.00137713,-1.8347,-0.536517,-0.109969,62.8141,-0.0941196,
2,0,0,1,0,32716.1,-0.0957758,-0.0961689,-14.7635,17,-0.00301247,10,0.00141979,-1.83081,-0.550147,-0.107244,61.7573,-0.0961689,
2,0,0,1,0,32716.1,-0.0977734,-0.0981366,-14.8798,17,-0.00316066,10,0.00146025,-1.8274,-0.490084,-0.120387,70.0104,-0.0981366,
2,0,0,1,0,32716.1,-0.0997412,-0.100111,-15.0395,17,-0.00330727,10,0.00150561,-1.82277,0.0952337,0.619529,-351.336,-0.100111,
2,0,0,1,1,32716.1,-0.0996711,-0.100106,-14.1879,17,-0.00335131,10,0.00142029,-1.84808,-0.0140752,-4.19177,2095.76,-0.100106,
2,0,0,1,1,32716.1,-0.0976826,-0.0980946,-10.8143,17,-0.00347306,10,0.00106082,-1.966,-0.017886,-3.29868,1427.36,-0.09809459,
2,0,0,1,1,32716.1,-0.095685,-0.0961039,-8.47536,17,-0.00356881,10,0.000814516,-2.07184,-0.0187345,-3.14927,1048.17,-0.0961039,
2,0,0,1,1,32716.1,-0.0936874,-0.094064,-6.58952,17,-0.00364359,10,0.000619836,-2.18115,-0.0174417,-3.3827,867.292,-0.09406399,
2,0,0,1,1,32716.1,-0.0916898,-0.0920662,-4.97345,17,-0.00370104,10,0.000457887,-2.30334,-0.0149342,-3.95066,761.402,-0.0920662,
2,0,0,1,1,32716.2,-0.0897013,-0.0901234,-3.58913,17,-0.00374307,10,0.000323464,-2.44501,-0.0121211,-4.86754,663.481,-0.0901234,
2,0,0,1,1,32716.2,-0.0877037,-0.0880967,-2.33976,17,-0.00377247,10,0.000206125,-2.63083,-0.00867438,-6.80164,586.042,-0.0880967,
2,0,0,1,1,32716.2,-0.0857062,-0.086109,-1.23652,17,-0.00379008,10,0.000106475,-2.9078,-0.00408049,-14.4591,524.681,-0.086109,
2,0,0,1,1,32716.2,-0.0837086,-0.0841065,-0.246216,17,-0.00379728,10,2.07084e-05,-3.60868,-0.0149459,-3.94758,467.933,-0.0841065,
2,1,0,1,1,32716.2,-0.0817019,-0.0820521,0.661849,17,-0.00379493,10,-5.43061e-05,-3.17924,0.00512096,11.5213,433.225,-0.0820521,
2,1,0,1,1,32716.2,-0.0797043,-0.0801095,1.48541,17,-0.00378403,10,-0.000118995,-2.82815,0.00757998,7.78366,391.477,-0.0801095,
2,1,0,1,1,32716.2,-0.0777067,-0.0780628,2.22355,17,-0.00376528,10,-0.000173577,-2.65295,0.0135998,4.33831,358.713,-0.0780628,
2,1,0,1,1,32716.2,-0.0757091,-0.0761367,2.9105,17,-0.00373953,10,-0.000221596,-2.53603,0.019434,3.03592,335.776,-0.0761367,
2,1,0,1,1,32716.2,-0.0737025,-0.0741213,3.54702,17,-0.0037071,10,-0.00026291,-2.45014,0.0266432,2.21445,301.304,-0.0741213,
2,1,0,1,1,32716.2,-0.0717049,-0.0720772,4.13364,17,-0.00366864,10,-0.000297941,-2.38367,0.0339118,1.73981,276.605,-0.0720772,
2,1,0,1,1,32716.3,-0.0697073,-0.0701329,4.65023,17,-0.00362461,10,-0.000326134,-2.33253,0.0419675,1.40585,253.724,-0.0701329,
2,1,0,1,1,32716.3,-0.0677097,-0.068061,5.15264,17,-0.00357551,10,-0.000350694,-2.28797,0.049534,1.1911,237.808,-0.068061,
2,1,0,1,1,32716.3,-0.0657212,-0.0660907,5.6115,17,-0.00352213,10,-0.000370868,-2.25092,0.0580562,1.01626,221.216,-0.0660907,
2,1,0,1,1,32716.3,-0.0637236,-0.064116,6.02535,17,-0.0034639,10,-0.000386321,-2.22002,0.0681591,0.865622,202.824,-0.064116,
2,1,0,1,1,32716.3,-0.061726,-0.0621341,6.414,17,-0.0034016,10,-0.000398528,-2.19287,0.0792727,0.744266,185.726,-0.0621341,
2,1,0,1,1,32716.3,-0.0597284,-0.0600655,6.77763,17,-0.00333558,10,-0.000407102,-2.16892,0.0908194,0.649641,171.27,-0.0600655,
2,1,0,1,1,32716.3,-0.0577399,-0.0580792,7.10847,17,-0.00326682,10,-0.000412854,-2.14822,0.100448,0.587367,162.577,-0.0580792,
2,1,0,1,1,32716.3,-0.0557423,-0.0561358,7.41651,17,-0.0031942,10,-0.000416332,-2.1298,0.116501,0.506434,146.159,-0.0561358,
2,1,0,1,1,32716.3,-0.0537448,-0.0541065,7.68912,17,-0.00311861,10,-0.000416031,-2.11412,0.135955,0.433968,129.957,-0.05410647,
2,1,0,1,1,32716.3,-0.0517472,-0.0521396,7.93584,17,-0.00304043,10,-0.000413772,-2.10041,0.147354,0.400396,123.949,-0.0521396,
2,1,0,1,1,32716.4,-0.049745,-0.0501441,8.18025,17,-0.00295976,10,-0.000410191,-2.08723,0.157936,0.373569,119.156,-0.05014411,
2,1,0,1,1,32716.4,-0.0477429,-0.04812,8.4148,17,-0.00287674,10,-0.00040492,-2.07496,0.182713,0.322911,105.727,-0.04812,
2,1,0,1,1,32716.4,-0.0457453,-0.0461514,8.60239,17,-0.00279159,10,-0.000397012,-2.06538,0.212041,0.278248,93.3919,-0.0461514,
2,1,0,1,1,32716.4,-0.0437477,-0.0441186,8.7885,17,-0.00270464,10,-0.000387736,-2.05609,0.229622,0.256944,88.0162,-0.0441186,
2,1,0,1,1,32716.4,-0.0417501,-0.04215,8.95458,17,-0.00261586,10,-0.000377435,-2.04795,0.246503,0.239348,83.6424,-0.04215,
2,1,0,1,1,32716.4,-0.0397435,-0.0401285,9.12224,17,-0.00252542,10,-0.000366062,-2.0399,0.284401,0.207454,73.6936,-0.0401285,
2,1,0,1,1,32716.4,-0.0377459,-0.0381226,9.25137,17,-0.00243353,10,-0.000352686,-2.03379,0.323589,0.18233,65.8533,-0.0381226,
2,1,0,1,1,32716.4,-0.0357483,-0.0360906,9.38815,17,-0.00234033,10,-0.000338824,-2.02742,0.356079,0.165694,60.6069,-0.0360906,
2,1,0,1,1,32716.4,-0.0337507,-0.0341099,9.49457,17,-0.00224585,10,-0.000323859,-2.02252,0.398687,0.147986,54.8435,-0.0341099,
2,1,0,1,1,32716.4,-0.0317622,-0.0321423,9.60469,17,-0.0021513,10,-0.000308717,-2.01752,0.436962,0.135023,50.5558,-0.0321423,
2,1,0,1,1,32716.5,-0.0297646,-0.0301636,9.69408,17,-0.00205473,10,-0.000292408,-2.01349,0.484887,0.121678,46.0447,-0.0301636,
2,1,0,1,1,32716.5,-0.027767,-0.0281523,9.78841,17,-0.00195734,10,-0.000275566,-2.00929,0.570411,0.103434,39.4504,-0.0281523,
2,1,0,1,1,32716.5,-0.0257694,-0.0261568,9.85215,17,-0.00185913,10,-0.000257701,-2.00647,0.639358,0.0922801,35.5065,-0.0261568,
2,1,0,1,1,32716.5,-0.0237809,-0.0241628,9.93006,17,-0.00176126,10,-0.000239938,-2.00305,0.70167,0.0840851,32.5424,-0.02416279,
2,1,0,1,1,32716.5,-0.0217833,-0.0221812,9.98152,17,-0.00166165,10,-0.000221402,-2.0008,0.882268,0.0668731,26.0503,-0.0221812,
2,1,0,1,1,32716.5,-0.0197858,-0.020203,10.0332,17,-0.00156156,10,-0.000202701,-1.99856,1.00664,0.0586109,22.937,-0.020203,
2,1,0,1,1,32716.5,-0.0177882,-0.0181642,10.0737,17,-0.00146099,10,-0.00018298,-1.99681,1.03343,0.0570915,22.4559,-0.0181642,
2,1,0,1,1,32716.5,-0.0157815,-0.0161643,10.1239,17,-0.00136001,10,-0.000163646,-1.99465,1.23558,0.0477509,18.8435,-0.0161643,
2,1,0,1,1,32716.5,-0.0137839,-0.0141437,10.1494,17,-0.00125859,10,-0.00014355,-1.99356,1.64231,0.035925,14.2341,-0.01414368,
2,1,0,1,1,32716.5,-0.0117863,-0.012156,10.181,17,-0.00115698,10,-0.00012376,-1.99221,1.79495,0.03287,13.0534,-0.012156,
2,1,0,1,1,32716.6,-0.00978874,-0.0101249,10.2019,17,-0.00105502,10,-0.000103293,-1.99132,1.46422,0.0402945,16.061,-0.0101249,
2,1,0,1,1,32716.6,-0.00778207,-0.00813291,10.2456,17,-0.000952834,10,-8.33263e-05,-1.98946,2.41891,0.0243911,9.72945,-0.00813291,
2,1,0,1,1,32716.6,-0.00578449,-0.00619381,10.2401,17,-0.000850415,10,-6.34254e-05,-1.98969,9.36455,0.00630036,2.52045,-0.00619381,
2,1,0,1,1,32716.6,-0.0037869,-0.00415841,10.2556,17,-0.000747931,10,-4.26469e-05,-1.98904,3.22275,0.0183073,7.32693,-0.00415841,
2,1,0,1,1,32716.6,-0.00178931,-0.0021473,10.2698,17,-0.000645243,10,-2.20522e-05,-1.98844,9.94494,0.00593266,2.37557,-0.0021473,
2,1,0,1,1,32716.6,-2.55332e-05,-0.000306236,10.2647,17,-0.000555901,10,-3.14344e-06,-1.98865, , , ,-0.000306236,