File: Figure_codes/Fig_3-5/rawdata_trumpetplot_data/after 10th/20221101_1-115_003_TrumpetPlot_ParaChange_from10_every3_05_CV_C01_12.csv
mode,ox/red,error,control changes,counter inc.,time/s,control/V,Ewe/V,<I>/mA,cycle number,(Q-Qo)/C,I Range,P/W,log(|I|),Tafel slope mV/dec,alpha_eff,dI/d(E-IR),E-IR/V,
2,0,0,1,0,24761.6,2.44065e-05,-0.00042076,-0.73479,13,0.0000000E+000,10,3.0917e-07,-3.13384, , , ,-0.00042076,
2,1,0,1,0,24761.6,0.00129787,0.000934608,0.138809,13,-9.94762e-06,10,1.29732e-07,-3.85758, , , ,0.0009346084,
2,1,0,1,0,24761.7,0.00279606,0.00252584,0.474776,13,1.64703e-05,10,1.19921e-06,-3.32351,0.00424005,13.9149,169.465,0.00252584,
2,1,0,1,0,24761.8,0.00429425,0.00399711,0.590188,13,5.82558e-05,10,2.35904e-06,-3.22901,0.0175706,3.35789,69.018,0.00399711,
2,1,0,1,0,24761.9,0.00579244,0.00548881,0.655093,13,0.000106613,10,3.59568e-06,-3.1837,0.0358797,1.64438,40.8651,0.00548881,
2,1,0,1,0,24761.9,0.00729063,0.00698098,0.711453,13,0.000159306,10,4.96664e-06,-3.14785,0.0530539,1.11208,30.2826,0.00698098,
2,1,0,1,0,24762,0.00878882,0.00847086,0.750501,13,0.000215369,10,6.35739e-06,-3.12465,0.0706549,0.835045,24.175,0.00847086,
2,1,0,1,0,24762.1,0.010287,0.00997946,0.783589,13,0.000274071,10,7.8198e-06,-3.10591,0.0916211,0.643956,19.486,0.00997946,
2,1,0,1,0,24762.2,0.0117852,0.0114601,0.807026,13,0.000335013,10,9.24858e-06,-3.09311,0.109879,0.536955,16.8813,0.0114601,
2,1,0,1,0,24762.2,0.0132847,0.0129673,0.831377,13,0.000397878,10,1.07807e-05,-3.0802,0.118764,0.496784,16.1598,0.0129673,
2,1,0,1,0,24762.3,0.0147802,0.0144492,0.859433,13,0.00046252,10,1.24181e-05,-3.06579,0.125048,0.471818,15.766,0.0144492,
2,1,0,1,0,24762.4,0.0162798,0.0159551,0.87845,13,0.000529136,10,1.40158e-05,-3.05628,0.13748,0.429154,14.7293,0.0159551,
2,1,0,1,0,24762.5,0.017778,0.0174608,0.902022,13,0.000597247,10,1.57501e-05,-3.04478,0.154402,0.38212,13.4261,0.0174608,
2,1,0,1,0,24762.5,0.0192761,0.0189817,0.921421,13,0.000666768,10,1.74901e-05,-3.03554,0.163931,0.359907,12.9382,0.0189817,
2,1,0,1,0,24762.6,0.0207743,0.0204372,0.942758,13,0.000737894,10,1.92673e-05,-3.0256,0.153985,0.383154,14.0506,0.0204372,
2,1,0,1,0,24762.7,0.0222725,0.0219399,0.96338,13,0.000810644,10,2.11365e-05,-3.0162,0.17989,0.327978,12.3051,0.0219399,
2,1,0,1,0,24762.8,0.0237707,0.02345,0.981235,13,0.000884845,10,2.301e-05,-3.00823,0.192095,0.307139,11.7724,0.02345,
2,1,0,1,0,24762.8,0.0252689,0.0249908,0.999105,13,0.000960395,10,2.49685e-05,-3.00039,0.170753,0.345528,13.5263,0.0249908,
2,1,0,1,0,24762.9,0.0267671,0.026454,1.01982,13,0.00103747,10,2.69783e-05,-2.99148,0.163769,0.360263,14.3564,0.026454,
2,1,0,1,0,24763,0.0282653,0.0279844,1.04431,13,0.00111606,10,2.92244e-05,-2.98117,0.177293,0.332782,13.5239,0.0279844,
2,1,0,1,0,24763.1,0.0297644,0.0294488,1.06101,13,0.00119622,10,3.12453e-05,-2.97428,0.194103,0.303962,12.5653,0.0294488,
2,1,0,1,0,24763.1,0.0312599,0.030969,1.07402,13,0.00127762,10,3.32615e-05,-2.96899,0.189512,0.311326,13.0922,0.030969,
2,1,0,1,0,24763.2,0.0327599,0.0324467,1.09982,13,0.00136055,10,3.56855e-05,-2.95868,0.199497,0.295743,12.7022,0.0324467,
2,1,0,1,0,24763.3,0.034258,0.0339703,1.11797,13,0.00144495,10,3.79776e-05,-2.95157,0.176789,0.333731,14.5709,0.0339703,
2,1,0,1,0,24763.4,0.0357562,0.0354293,1.13943,13,0.0015309,10,4.03693e-05,-2.94331,0.221236,0.266683,11.8129,0.03542931,
2,1,0,1,0,24763.4,0.0372544,0.0369806,1.15777,13,0.00161839,10,4.28148e-05,-2.93638,0.215567,0.273696,12.3662,0.0369806,
2,1,0,1,0,24763.5,0.0387526,0.0384325,1.17627,13,0.00170704,10,4.52071e-05,-2.92949,0.201865,0.292275,13.442,0.0384325,
2,1,0,1,0,24763.6,0.0402508,0.0399415,1.19736,13,0.00179724,10,4.78242e-05,-2.92178,0.21581,0.273388,12.7879,0.0399415,
2,1,0,1,0,24763.7,0.041749,0.0414358,1.21946,13,0.00188915,10,5.05291e-05,-2.91383,0.213839,0.275908,13.0825,0.0414358,
2,1,0,1,0,24763.7,0.0432472,0.0429162,1.23662,13,0.00198248,10,5.30711e-05,-2.90776,0.244249,0.241557,11.6493,0.0429162,
2,1,0,1,0,24763.8,0.0447449,0.0444568,1.2546,13,0.00207699,10,5.57756e-05,-2.90149,0.235139,0.250916,12.2728,0.0444568,
2,1,0,1,0,24763.9,0.0462445,0.0459223,1.27292,13,0.00217309,10,5.84556e-05,-2.8952,0.207793,0.283936,14.0914,0.0459223,
2,1,0,1,0,24764,0.04774,0.0474273,1.29154,13,0.0022704,10,6.12544e-05,-2.88889,0.224852,0.262395,13.2286,0.0474273,
2,1,0,1,0,24764,0.0492399,0.0488701,1.30822,13,0.00236939,10,6.39327e-05,-2.88332,0.27728,0.212781,10.8696,0.0488701,
2,1,0,1,0,24764.1,0.0507381,0.0504386,1.32459,13,0.00246943,10,6.68104e-05,-2.87792,0.26456,0.223012,11.5624,0.0504386,
2,1,0,1,0,24764.2,0.0522363,0.0518782,1.34385,13,0.00257069,10,6.97166e-05,-2.87165,0.256311,0.230189,12.076,0.0518782,
2,1,0,1,0,24764.3,0.0537345,0.0533864,1.36473,13,0.00267347,10,7.2858e-05,-2.86495,0.252841,0.233348,12.3925,0.0533864,
2,1,0,1,0,24764.3,0.0552327,0.0549303,1.38155,13,0.00277766,10,7.58888e-05,-2.85963,0.293095,0.2013,10.8013,0.0549303,
2,1,0,1,0,24764.4,0.0567309,0.0564363,1.39046,13,0.00288295,10,7.84724e-05,-2.85684,0.319021,0.184941,10.074,0.0564363,
2,1,0,1,0,24764.5,0.0582291,0.0578706,1.40968,13,0.00298919,10,8.1579e-05,-2.85088,0.307127,0.192103,10.588,0.05787063,
2,1,0,1,0,24764.6,0.0597291,0.0593847,1.42705,13,0.00309698,10,8.4745e-05,-2.84556,0.293839,0.20079,11.1694,0.0593847,
2,1,0,1,0,24764.6,0.0612246,0.0609422,1.44332,13,0.00320568,10,8.7959e-05,-2.84064,0.336394,0.175389,9.8534,0.0609422,
2,1,0,1,0,24764.7,0.0627241,0.0624359,1.45678,13,0.00331582,10,9.09552e-05,-2.83661,0.324261,0.181952,10.3498,0.0624359,
2,1,0,1,0,24764.8,0.0642218,0.0639014,1.47179,13,0.0034267,10,9.40495e-05,-2.83215,0.325474,0.181274,10.4221,0.06390138,
2,1,0,1,0,24764.9,0.06572,0.0654197,1.4855,13,0.00353889,10,9.71808e-05,-2.82813,0.325917,0.181028,10.4899,0.0654197,
2,1,0,1,0,24764.9,0.0672182,0.0669183,1.50324,13,0.00365227,10,0.000100594,-2.82297,0.38984,0.151344,8.85409,0.0669183,
2,1,0,1,0,24765,0.0687164,0.0683952,1.5162,13,0.00376663,10,0.000103701,-2.81924,0.420861,0.140189,8.28612,0.0683952,
2,1,0,1,0,24765.1,0.0702146,0.0698866,1.52493,13,0.00388177,10,0.000106572,-2.81675,0.453717,0.130037,7.7485,0.06988661,
2,1,0,1,0,24765.2,0.0717128,0.0713647,1.53771,13,0.00399797,10,0.000109738,-2.81312,0.386478,0.152661,9.16396,0.0713647,
2,1,0,1,0,24765.2,0.073211,0.0728928,1.55266,13,0.00411518,10,0.000113177,-2.80892,0.442476,0.133341,8.07584,0.0728928,
2,1,0,1,0,24765.3,0.0747092,0.074397,1.56603,13,0.00423327,10,0.000116508,-2.8052,0.564731,0.104474,6.37998,0.074397,
2,1,0,1,0,24765.4,0.0762087,0.0758752,1.57172,13,0.00435213,10,0.000119255,-2.80362,0.456527,0.129237,7.94545,0.0758752,
2,1,0,1,0,24765.5,0.0777042,0.0773861,1.58203,13,0.00447149,10,0.000122427,-2.80078,0.44042,0.133963,8.28338,0.0773861,
2,1,0,1,0,24765.5,0.0792037,0.0789082,1.59744,13,0.00459218,10,0.000126051,-2.79658,0.403017,0.146396,9.11186,0.0789082,
2,1,0,1,0,24765.6,0.0807019,0.0803826,1.60805,13,0.00471367,10,0.000129259,-2.7937,0.526091,0.112148,7.03222,0.0803826,
2,1,0,1,0,24765.7,0.0822001,0.0819069,1.61757,13,0.00483594,10,0.00013249,-2.79114,0.577405,0.102181,6.45734,0.08190693,
2,1,0,1,0,24765.8,0.0836983,0.0833483,1.62808,13,0.00495885,10,0.000135698,-2.78832,0.535023,0.110276,7.02103,0.0833483,
2,1,0,1,0,24765.8,0.0851965,0.0848965,1.64054,13,0.00508272,10,0.000139276,-2.78501,0.463782,0.127215,8.14648,0.08489649,
2,1,0,1,0,24765.9,0.0866947,0.0863754,1.65389,13,0.00520749,10,0.000142855,-2.78149,0.505404,0.116738,7.53595,0.0863754,
2,1,0,1,0,24766,0.0881929,0.0879249,1.66852,13,0.00533322,10,0.000146705,-2.77767,0.433821,0.136001,8.85781,0.08792489,
2,1,0,1,0,24766.1,0.0896911,0.0893743,1.68113,13,0.00545987,10,0.00015025,-2.7744,0.389557,0.151454,9.93947,0.0893743,
2,1,0,1,0,24766.1,0.0911893,0.090843,1.69967,13,0.00558784,10,0.000154404,-2.76963,0.319636,0.184585,12.2331,0.090843,
2,1,0,1,0,24766.2,0.0926884,0.0923689,1.71962,13,0.00571741,10,0.000158839,-2.76457,0.293662,0.200911,13.4711,0.0923689,
2,1,0,1,0,24766.3,0.0941839,0.0938564,1.7391,13,0.00584804,10,0.000163226,-2.75967,0.295563,0.199619,13.5537,0.0938564,
2,1,0,1,0,24766.4,0.0956838,0.0953582,1.75566,13,0.00598041,10,0.000167416,-2.75556,0.265425,0.222285,15.2675,0.0953582,
2,1,0,1,0,24766.4,0.097182,0.0968684,1.78249,13,0.00611442,10,0.000172667,-2.74897,0.21259,0.277529,19.3133,0.0968684,
2,1,0,1,0,24766.5,0.0986802,0.0983285,1.81018,13,0.00625039,10,0.000177993,-2.74228,0.224358,0.262972,18.6179,0.0983285,
2,1,0,1,0,24766.6,0.100178,0.0998706,1.83997,13,0.00638848,10,0.000183759,-2.73519,0.208338,0.283193,20.3433,0.0998706,
2,1,0,1,0,24766.7,0.101677,0.101354,1.8654,13,0.00652888,10,0.000189066,-2.72923,0.208363,0.28316,20.6873,0.101354,
2,1,0,1,0,24766.7,0.103175,0.102856,1.90445,13,0.00667151,10,0.000195884,-2.72023,0.201273,0.293134,21.8163,0.102856,
2,1,0,1,0,24766.8,0.104673,0.104406,1.94199,13,0.00681677,10,0.000202755,-2.71175,0.201063,0.293441,22.1977,0.104406,
2,1,0,1,0,24766.9,0.106171,0.105898,1.97307,13,0.00696475,10,0.000208945,-2.70486,0.208512,0.282957,21.7548,0.105898,
2,1,0,1,0,24767,0.107669,0.10736,2.0044,13,0.00711517,10,0.000215192,-2.69802,0.205619,0.286938,22.4567,0.1073596,
2,1,0,1,0,24767,0.109168,0.108855,2.03518,13,0.00726803,10,0.000221539,-2.6914,0.217905,0.27076,21.5435,0.108855,
2,1,0,1,0,24767.1,0.110664,0.11033,2.06962,13,0.007423,10,0.000228341,-2.68411,0.221292,0.266616,21.5258,0.11033,
2,1,0,1,0,24767.2,0.112164,0.111828,2.10029,13,0.00758078,10,0.000234871,-2.67772,0.263163,0.224196,18.3472,0.111828,
2,1,0,1,0,24767.3,0.113662,0.113376,2.12944,13,0.0077406,10,0.000241426,-2.67174,0.278974,0.211489,17.5231,0.113376,
2,1,0,1,0,24767.3,0.11516,0.114826,2.15074,13,0.00790218,10,0.000246961,-2.66741,0.310412,0.19007,15.946,0.114826,
2,1,0,1,0,24767.4,0.116658,0.11631,2.17445,13,0.00806555,10,0.00025291,-2.66265,0.321641,0.183434,15.5526,0.11631,
2,1,0,1,0,24767.5,0.118157,0.117859,2.19698,13,0.00823085,10,0.000258934,-2.65817,0.373642,0.157905,13.5268,0.117859,
2,1,0,1,0,24767.6,0.119655,0.119361,2.21528,13,0.00839758,10,0.000264418,-2.65457,0.50043,0.117899,10.1935,0.119361,
2,1,0,1,0,24767.6,0.121153,0.120844,2.22879,13,0.00856548,10,0.000269336,-2.65193,0.487701,0.120976,10.5272,0.120844,
2,1,0,1,0,24767.7,0.122653,0.122339,2.24684,13,0.00873474,10,0.000274876,-2.64843,0.449104,0.131373,11.5213,0.122339,
2,1,0,1,0,24767.8,0.124149,0.123863,2.26232,13,0.00890474,10,0.000280217,-2.64545,0.452983,0.130248,11.4957,0.123863,
2,1,0,1,0,24767.9,0.125648,0.125347,2.27773,13,0.00907651,10,0.000285507,-2.6425,0.54697,0.107867,9.57826,0.125347,
2,1,0,1,0,24767.9,0.127146,0.126833,2.29017,13,0.00924904,10,0.000290469,-2.64013,0.568458,0.10379,9.28267,0.126833,
2,1,0,1,0,24768,0.128644,0.128296,2.303,13,0.00942238,10,0.000295465,-2.63771,0.579064,0.101889,9.17021,0.128296,
2,1,0,1,0,24768.1,0.130142,0.129812,2.31894,13,0.00959689,10,0.000301025,-2.63471,0.623933,0.0945614,8.54814,0.129812,
2,1,0,1,0,24768.2,0.13164,0.131339,2.33075,13,0.00977254,10,0.00030612,-2.6325,1.15414,0.0511201,4.63881,0.131339,
2,1,0,1,0,24768.2,0.133139,0.132825,2.33999,13,0.00994888,10,0.000310807,-2.63079,1.60908,0.0366669,3.34267,0.1328245,
2,1,0,1,0,24768.3,0.134637,0.134319,2.34139,13,0.0101255,10,0.000314493,-2.63053,5.57889,0.0105756,0.965589,0.134319,
2,1,0,1,0,24768.4,0.136135,0.1358,2.33981,13,0.0103023,10,0.000317746,-2.63082,-1.85172,-0.0318622,-2.90244,0.1358,
2,1,0,1,0,24768.5,0.137633,0.137336,2.33468,13,0.0104789,10,0.000320635,-2.63177,-0.56797,-0.103879,-9.41601,0.137336,
2,1,0,1,0,24768.5,0.139133,0.138783,2.31916,13,0.0106547,10,0.000321861,-2.63467,-0.338492,-0.174303,-15.6807,0.138783,
2,1,0,1,0,24768.6,0.140628,0.140286,2.28537,13,0.010828,10,0.000320604,-2.64104,-0.232575,-0.253681,-22.5232,0.140286,
2,1,0,1,0,24768.7,0.142128,0.141822,2.24485,13,0.0109993,10,0.000318369,-2.64881,-0.175535,-0.336116,-29.2948,0.141822,
2,1,0,1,0,24768.8,0.143626,0.143285,2.19525,13,0.0111672,10,0.000314547,-2.65852,-0.135812,-0.434425,-37.0312,0.143285,
2,1,0,1,0,24768.8,0.145124,0.144836,2.1313,13,0.0113307,10,0.000308689,-2.67136,-0.104858,-0.562666,-46.6812,0.144836,
2,1,0,1,0,24768.9,0.146622,0.146312,2.05484,13,0.0114889,10,0.000300648,-2.68722,-0.0918046,-0.642669,-51.4614,0.146312,
2,1,0,1,0,24769,0.14812,0.147793,1.97792,13,0.0116414,10,0.000292323,-2.70379,-0.0864998,-0.682082,-52.5495,0.147793,
2,1,0,1,0,24769.1,0.149619,0.149252,1.89676,13,0.011788,10,0.000283095,-2.72199,-0.0783938,-0.75261,-55.5755,0.149252,
2,1,0,1,0,24769.1,0.151117,0.150792,1.81394,13,0.0119282,10,0.000273528,-2.74138,-0.0721302,-0.817965,-57.6919,0.150792,
2,1,0,1,0,24769.2,0.152615,0.152325,1.72532,13,0.012062,10,0.000262809,-2.76313,-0.0705076,-0.836789,-56.3312,0.152325,
2,1,0,1,0,24769.3,0.154113,0.153782,1.64667,13,0.0121894,10,0.000253229,-2.78339,-0.0752983,-0.78355,-50.4762,0.153782,
2,1,0,1,0,24769.4,0.155613,0.155307,1.57146,13,0.0123113,10,0.000244059,-2.8037,-0.0760422,-0.775885,-47.6495,0.155307,
2,1,0,1,0,24769.4,0.157108,0.156805,1.50401,13,0.0124276,10,0.000235836,-2.82275,-0.0794378,-0.742719,-43.6586,0.156805,
2,1,0,1,0,24769.5,0.158608,0.158338,1.44134,13,0.0125393,10,0.000228219,-2.84123,-0.0855073,-0.69,-38.9862,0.158338,
2,1,0,1,0,24769.6,0.160106,0.159785,1.38442,13,0.0126463,10,0.000221209,-2.85873,-0.0927138,-0.636367,-34.5753,0.159785,
2,1,0,1,0,24769.7,0.161604,0.161274,1.33972,13,0.0127497,10,0.000216062,-2.87299,-0.104829,-0.562824,-29.4463,0.161274,
2,1,0,1,0,24769.7,0.163102,0.162793,1.29942,13,0.0128498,10,0.000211537,-2.88625,-0.11392,-0.517906,-26.2661,0.162793,
2,1,0,1,0,24769.8,0.164601,0.164297,1.26264,13,0.012947,10,0.000207448,-2.89872,-0.124169,-0.475159,-23.4369,0.164297,
2,1,0,1,0,24769.9,0.166099,0.165778,1.22425,13,0.0130414,10,0.000202954,-2.91213,-0.138954,-0.424602,-20.4015,0.165778,
2,1,0,1,0,24770,0.167597,0.167245,1.20352,13,0.0131338,10,0.000201283,-2.91955,-0.17378,-0.33951,-15.9389,0.167245,
2,1,0,1,0,24770,0.169095,0.168801,1.17877,13,0.0132243,10,0.000198978,-2.92857,-0.180533,-0.32681,-15.0533,0.168801,
2,1,0,1,0,24770.1,0.170593,0.170293,1.15801,13,0.0133131,10,0.000197202,-2.93629,-0.179013,-0.329584,-14.9196,0.170293,
2,1,0,1,0,24770.2,0.172092,0.171766,1.13375,13,0.0134004,10,0.000194739,-2.94548,-0.211856,-0.278491,-12.3944,0.171766,
2,1,0,1,0,24770.3,0.173588,0.173309,1.12031,13,0.0134861,10,0.000194161,-2.95066,-0.262646,-0.224637,-9.82562,0.173309,
2,1,0,1,0,24770.3,0.175088,0.174739,1.1055,13,0.0135709,10,0.000193174,-2.95644,-0.287527,-0.205198,-8.85638,0.174739,
2,1,0,1,0,24770.4,0.176586,0.176283,1.09119,13,0.0136545,10,0.000192359,-2.9621,-0.285364,-0.206754,-8.80885,0.176283,
2,1,0,1,0,24770.5,0.178084,0.177787,1.07635,13,0.0137372,10,0.000191361,-2.96805,-0.307495,-0.191873,-8.09936,0.177787,
2,1,0,1,0,24770.6,0.179582,0.179311,1.07015,13,0.0138189,10,0.000191889,-2.97056,-0.365771,-0.161303,-6.74236,0.179311,
2,1,0,1,0,24770.6,0.181081,0.180808,1.05826,13,0.0139,10,0.000191341,-2.97541,-0.455062,-0.129653,-5.37749,0.180808,
2,1,0,1,0,24770.7,0.182579,0.182299,1.05378,13,0.0139805,10,0.000192104,-2.97725,-0.369305,-0.15976,-6.56294,0.182299,
2,1,0,1,0,24770.8,0.184077,0.183794,1.04338,13,0.0140603,10,0.000191767,-2.98156,-0.505654,-0.11668,-4.76174,0.183794,
2,1,0,1,0,24770.9,0.185577,0.185256,1.0369,13,0.0141396,10,0.000192091,-2.98427,-0.485865,-0.121433,-4.91399,0.185256,
2,1,0,1,0,24770.9,0.187073,0.186775,1.03131,13,0.0142182,10,0.000192623,-2.98661,-0.796778,-0.0740482,-2.97799,0.186775,
2,1,0,1,0,24771,0.188572,0.188302,1.02779,13,0.0142966,10,0.000193535,-2.9881,-0.577266,-0.102206,-4.09478,0.1883021,
2,1,0,1,0,24771.1,0.19007,0.189787,1.02083,13,0.0143746,10,0.00019374,-2.99105,-0.66976,-0.0880912,-3.51071,0.189787,
2,1,0,1,0,24771.2,0.191568,0.191225,1.01229,13,0.014452,10,0.000193576,-2.99469,-0.706018,-0.0835673,-3.30957,0.1912251,
2,1,0,1,0,24771.2,0.193066,0.192739,1.00669,13,0.0145291,10,0.000194027,-2.99711,-1.10259,-0.0535102,-2.10734,0.192739,
2,1,0,1,0,24771.3,0.194564,0.194228,1.00536,13,0.0146059,10,0.000195269,-2.99768,-0.802465,-0.0735234,-2.88588,0.194228,
2,1,0,1,0,24771.4,0.196063,0.195756,1.00143,13,0.0146825,10,0.000196036,-2.99938,-0.644712,-0.0915137,-3.57353,0.195756,
2,1,0,1,0,24771.5,0.197561,0.197218,0.993259,13,0.0147586,10,0.000195888,-3.00294,-0.92428,-0.0638335,-2.48757,0.197218,
2,1,0,1,0,24771.5,0.199059,0.198741,0.993383,13,0.0148344,10,0.000197426,-3.00288,-0.854614,-0.069037,-2.67676,0.198741,
2,1,0,1,0,24771.6,0.200557,0.200234,0.990763,13,0.01491,10,0.000198384,-3.00403,-1.26337,-0.0467006,-1.80753,0.2002337,
2,1,0,1,0,24771.7,0.202057,0.201753,0.987381,13,0.0149855,10,0.000199207,-3.00552,-0.832526,-0.0708687,-2.7218,0.201753,
2,1,0,1,0,24771.8,0.203552,0.203209,0.978998,13,0.0150605,10,0.000198941,-3.00922,-1.14701,-0.051438,-1.97211,0.203209,
2,1,0,1,0,24771.8,0.205052,0.20475,0.978761,13,0.0151353,10,0.000200402,-3.00932,-11.1599,-0.00528678,-0.20322,0.20475,
2,1,0,1,0,24771.9,0.20655,0.206237,0.975416,13,0.0152099,10,0.000201167,-3.01081,-2.52858,-0.0233333,-0.890912,0.206237,
2,1,0,1,0,24772,0.208048,0.207726,0.975475,13,0.0152847,10,0.000202631,-3.01078,-0.819624,-0.0719842,-2.73468,0.2077255,
2,1,0,1,0,24772.1,0.209546,0.209241,0.972883,13,0.0153591,10,0.000203567,-3.01194,-0.790638,-0.0746233,-2.83793,0.209241,
2,1,0,1,0,24772.1,0.211044,0.210748,0.971601,13,0.015433,10,0.000204763,-3.01251,-1.37775,-0.0428236,-1.62284,0.210748,
2,1,0,1,0,24772.2,0.212543,0.212254,0.969843,13,0.0155069,10,0.000205853,-3.0133,-1.53979,-0.038317,-1.4441,0.212254,
2,1,0,1,0,24772.3,0.214041,0.213695,0.965766,13,0.0155808,10,0.000206379,-3.01513,-1.3572,-0.043472,-1.63909,0.213695,
2,1,0,1,0,24772.4,0.215539,0.215237,0.962724,13,0.0156543,10,0.000207214,-3.0165,-0.962241,-0.0613152,-2.30503,0.215237,
2,1,0,1,0,24772.4,0.217037,0.21674,0.960171,13,0.0157276,10,0.000208107,-3.01765,-1.99172,-0.0296227,-1.11208,0.21674,
2,1,0,1,0,24772.5,0.218536,0.218254,0.958186,13,0.0158009,10,0.000209128,-3.01855,50.549,0.00116718,0.0436418,0.218254,
2,1,0,1,0,24772.6,0.220032,0.219782,0.957726,13,0.0158739,10,0.000210491,-3.01876,-2.45944,-0.0239892,-0.894544,0.219782,
2,1,0,1,0,24772.7,0.221532,0.221194,0.95469,13,0.015947,10,0.000211172,-3.02014,-1.06892,-0.0551958,-2.0564,0.221194,
2,1,0,1,0,24772.7,0.22303,0.222742,0.948263,13,0.0160197,10,0.000211218,-3.02307,-1.12746,-0.0523299,-1.94584,0.222742,
2,1,0,1,0,24772.8,0.224528,0.224245,0.953582,13,0.0160923,10,0.000213836,-3.02064,-1.27438,-0.0462971,-1.71856,0.224245,
2,1,0,1,0,24772.9,0.226026,0.22578,0.951858,13,0.0161648,10,0.00021491,-3.02143,-2.03336,-0.029016,-1.07465,0.22578,
2,1,0,1,0,24773,0.227525,0.227201,0.94804,13,0.0162372,10,0.000215395,-3.02317,-0.886168,-0.0665788,-2.46054,0.227201,
2,1,0,1,0,24773,0.229023,0.228701,0.948655,13,0.0163094,10,0.000216959,-3.02289,-1.3551,-0.0435391,-1.61064,0.228701,
2,1,0,1,0,24773.1,0.230521,0.230183,0.943315,13,0.0163814,10,0.000217135,-3.02534,-1.94933,-0.0302669,-1.11746,0.2301825,
2,1,0,1,0,24773.2,0.232019,0.231699,0.943199,13,0.0164534,10,0.000218538,-3.0254,-1.35127,-0.0436626,-1.60583,0.231699,
2,1,0,1,0,24773.3,0.233517,0.233243,0.944924,13,0.0165253,10,0.000220397,-3.0246,-1.5967,-0.0369512,-1.35237,0.233243,
2,1,0,1,0,24773.3,0.235016,0.234684,0.939453,13,0.0165971,10,0.000220475,-3.02712,-1.51468,-0.0389521,-1.42853,0.2346842,
2,1,0,1,0,24773.4,0.236512,0.236187,0.937702,13,0.0166685,10,0.000221473,-3.02794,-49.818,-0.00118431,-0.0433467,0.236187,
2,1,0,1,0,24773.5,0.238012,0.237749,0.935329,13,0.0167401,10,0.000222373,-3.02904,-5.40359,-0.0109187,-0.398524,0.237749,
2,1,0,1,0,24773.6,0.23951,0.239227,0.936754,13,0.0168115,10,0.000224097,-3.02837,-3.29267,-0.0179186,-0.653981,0.239227,
2,1,0,1,0,24773.6,0.241008,0.240703,0.933546,13,0.0168828,10,0.000224707,-3.02986,-1.0196,-0.0578658,-2.10645,0.240703,
2,1,0,1,0,24773.7,0.242506,0.24218,0.929577,13,0.0169538,10,0.000225125,-3.03171,-1.27696,-0.0462035,-1.67956,0.24218,
2,1,0,1,0,24773.8,0.244005,0.243695,0.928613,13,0.0170248,10,0.000226299,-3.03217,-9.46998,-0.00623021,-0.225858,0.243695,
2,1,0,1,0,24773.9,0.245503,0.245162,0.929691,13,0.0170958,10,0.000227925,-3.03166,-1.66879,-0.0353549,-1.281,0.2451624,
2,1,0,1,0,24773.9,0.247001,0.246696,0.928529,13,0.0171666,10,0.000229064,-3.0322,-1.37808,-0.0428132,-1.54618,0.246696,
2,1,0,1,0,24774,0.248501,0.248131,0.923873,13,0.0172374,10,0.000229242,-3.03439,-1.70499,-0.0346043,-1.25024,0.248131,
2,1,0,1,0,24774.1,0.249997,0.249655,0.923519,13,0.0173078,10,0.000230561,-3.03455,-1.55077,-0.0380456,-1.3713,0.249655,
2,1,0,1,0,24774.2,0.251496,0.251202,0.924212,13,0.0173784,10,0.000232164,-3.03423,-6.77945,-0.00870277,-0.313635,0.251202,
2,1,0,1,0,24774.2,0.252994,0.25271,0.921153,13,0.0174488,10,0.000232784,-3.03567,-1.65424,-0.035666,-1.27964,0.25271,
2,1,0,1,0,24774.3,0.254492,0.254147,0.919293,13,0.017519,10,0.000233635,-3.03655,-1.33585,-0.0441667,-1.58742,0.254147,
2,1,0,1,0,24774.4,0.25599,0.255652,0.914939,13,0.0175891,10,0.000233906,-3.03861,-3.93705,-0.0149858,-0.536865,0.255652,
2,1,0,1,0,24774.5,0.257488,0.257193,0.915898,13,0.0176591,10,0.000235563,-3.03815,-2.06895,-0.0285168,-1.01943,0.257193,
2,1,0,1,0,24774.5,0.258987,0.258689,0.916351,13,0.0177291,10,0.00023705,-3.03794,-2.75044,-0.0214511,-0.765908,0.258689,
2,1,0,1,0,24774.6,0.260485,0.260213,0.916696,13,0.0177989,10,0.000238537,-3.03777,-1.01459,-0.0581514,-2.07212,0.260213,
2,1,0,1,0,24774.7,0.261983,0.261687,0.911153,13,0.0178685,10,0.000238437,-3.04041,-1.90106,-0.0310353,-1.10448,0.261687,
2,1,0,1,0,24774.8,0.263481,0.263169,0.911006,13,0.0179381,10,0.000239748,-3.04048,14.4898,0.00407184,0.144822,0.263169,
2,1,0,1,0,24774.8,0.264981,0.264697,0.907608,13,0.0180076,10,0.000240242,-3.0421,-6.07404,-0.00971347,-0.344777,0.264697,
2,1,0,1,0,24774.9,0.266476,0.266164,0.908794,13,0.0180769,10,0.000241889,-3.04153,-1.6312,-0.0361697,-1.28133,0.266164,
2,1,0,1,0,24775,0.267976,0.267668,0.902144,13,0.0181462,10,0.000241475,-3.04472,-1.98699,-0.0296932,-1.04985,0.267668,
2,1,0,1,0,24775.1,0.269474,0.269122,0.903355,13,0.0182153,10,0.000243113,-3.04414,-7.09938,-0.00831058,-0.293249,0.269122,
2,1,0,1,0,24775.1,0.270972,0.270683,0.905806,13,0.0182843,10,0.000245186,-3.04296,-2.12771,-0.0277293,-0.976596,0.270683,
2,1,0,1,0,24775.2,0.27247,0.272178,0.900881,13,0.0183532,10,0.0002452,-3.04533,-0.959483,-0.0614914,-2.15764,0.272178,
2,1,0,1,0,24775.3,0.273968,0.273698,0.89752,13,0.0184219,10,0.00024565,-3.04696,-0.806193,-0.0731835,-2.56858,0.273698,
2,1,0,1,0,24775.4,0.275467,0.275172,0.897227,13,0.0184905,10,0.000246891,-3.0471,-1.85335,-0.0318342,-1.11599,0.275172,
2,1,0,1,0,24775.4,0.276965,0.276653,0.897181,13,0.0185589,10,0.000248208,-3.04712,-1.84132,-0.0320421,-1.12152,0.276653,
2,1,0,1,0,24775.5,0.278463,0.278166,0.894036,13,0.0186273,10,0.00024869,-3.04865,-0.874898,-0.0674364,-2.34702,0.278166,
2,1,0,1,0,24775.6,0.279961,0.279654,0.892911,13,0.0186956,10,0.000249706,-3.04919,-1.16423,-0.0506774,-1.7654,0.279654,
2,1,0,1,0,24775.7,0.28146,0.281127,0.891157,13,0.0187637,10,0.000250528,-3.05005,-5.46338,-0.0107992,-0.375593,0.281127,
2,1,0,1,0,24775.7,0.282956,0.282654,0.889393,13,0.0188316,10,0.000251391,-3.05091,-4.26838,-0.0138226,-0.479362,0.282654,
2,1,0,1,0,24775.8,0.284456,0.28413,0.888491,13,0.0188996,10,0.000252447,-3.05135,-1.30433,-0.0452341,-1.56512,0.28413,
2,1,0,1,0,24775.9,0.285954,0.285586,0.887431,13,0.0189674,10,0.000253438,-3.05187,-1.64201,-0.0359316,-1.24314,0.285586,
2,1,0,1,0,24776,0.287452,0.28717,0.883596,13,0.0190348,10,0.000253742,-3.05375,-1.11093,-0.0531088,-1.82976,0.28717,
2,1,0,1,0,24776,0.28895,0.288627,0.883224,13,0.0191022,10,0.000254922,-3.05393,-2.87501,-0.0205217,-0.705004,0.288627,
2,1,0,1,0,24776.1,0.290449,0.290168,0.879568,13,0.0191696,10,0.000255222,-3.05573,-2.01623,-0.0292625,-1.00473,0.290168,
2,1,0,1,0,24776.2,0.291947,0.2916,0.878814,13,0.0192368,10,0.000256262,-3.0561,-1.17651,-0.0501484,-1.71795,0.2916,
2,1,0,1,0,24776.3,0.293445,0.293139,0.873193,13,0.0193038,10,0.000255967,-3.05889,-1.13248,-0.052098,-1.78392,0.293139,
2,1,0,1,0,24776.3,0.294943,0.294622,0.877529,13,0.0193707,10,0.000258539,-3.05674,-3.35181,-0.0176024,-0.601133,0.294622,
2,1,0,1,0,24776.4,0.296441,0.296124,0.874355,13,0.0194375,10,0.000258918,-3.05831,-28.6882,-0.0020566,-0.0700299,0.296124,
2,1,0,1,0,24776.5,0.29794,0.297644,0.871028,13,0.0195043,10,0.000259256,-3.05997,-1.32518,-0.0445221,-1.51333,0.297644,
2,1,0,1,0,24776.6,0.299436,0.299148,0.867813,13,0.0195708,10,0.000259605,-3.06157,-0.00285473,-20.6674,-380.106,0.299148,
2,1,0,1,0,24776.6,0.299739,0.299496,0.51732,13,0.0196039,10,0.000154935,-3.28624,0.000945632,62.3921,766.15,0.2994962,
2,1,0,1,0,24776.7,0.298239,0.297947,0.000115044,13,0.0196159,10,3.4277e-08,-6.93914,0.00458382,12.8714,262.035,0.297947,
2,0,0,1,0,24776.7,0.296741,0.296436,-0.103797,13,0.0196101,10,-3.07692e-05,-3.98381,-0.0113575,-5.19482,62.0261,0.296436,
2,0,0,1,0,24776.8,0.295243,0.294946,-0.157901,13,0.0195987,10,-4.65725e-05,-3.80161,-0.009874,-5.97529,30.2692,0.294946,
2,0,0,1,0,24776.9,0.293745,0.293418,-0.192361,13,0.0195842,10,-5.64422e-05,-3.71588,-0.0198432,-2.97331,21.0338,0.293418,
2,0,0,1,0,24777,0.292246,0.291879,-0.219465,13,0.0195676,10,-6.40574e-05,-3.65863,-0.0298457,-1.97684,16.4662,0.291879,
2,0,0,1,0,24777,0.290748,0.290442,-0.243996,13,0.0195488,10,-7.08666e-05,-3.61262,-0.0360991,-1.63439,15.0625,0.290442,
2,0,0,1,0,24777.1,0.28925,0.288938,-0.261556,13,0.0195286,10,-7.55733e-05,-3.58244,-0.0491931,-1.19936,12.1879,0.288938,
2,0,0,1,0,24777.2,0.287752,0.287427,-0.277888,13,0.019507,10,-7.98724e-05,-3.55613,-0.0576297,-1.02378,11.0422,0.287427,
2,0,0,1,0,24777.3,0.286254,0.285893,-0.293271,13,0.0194842,10,-8.38441e-05,-3.53273,-0.061651,-0.957,10.9508,0.285893,
2,0,0,1,0,24777.3,0.284754,0.28446,-0.309734,13,0.0194602,10,-8.8107e-05,-3.50901,-0.0669244,-0.881592,10.5804,0.28446,
2,0,0,1,0,24777.4,0.283259,0.282941,-0.326895,13,0.0194352,10,-9.24919e-05,-3.48559,-0.0740462,-0.7968,10.0255,0.282941,
2,0,0,1,0,24777.5,0.281759,0.281461,-0.337207,13,0.019409,10,-9.49108e-05,-3.4721,-0.0964178,-0.61192,8.01383,0.281461,
2,0,0,1,0,24777.6,0.280261,0.279958,-0.345091,13,0.019382,10,-9.66108e-05,-3.46207,-0.0895409,-0.658917,8.90533,0.279958,
2,0,0,1,0,24777.6,0.278763,0.278468,-0.359445,13,0.0193542,10,-0.000100094,-3.44437,-0.11397,-0.517679,7.25915,0.278468,
2,0,0,1,0,24777.7,0.277264,0.276973,-0.368561,13,0.0193255,10,-0.000102082,-3.43349,-0.121132,-0.487074,7.05055,0.276973,
2,0,0,1,0,24777.8,0.275766,0.275489,-0.379081,13,0.0192961,10,-0.000104433,-3.42127,-0.147138,-0.400983,5.92702,0.275489,
2,0,0,1,0,24777.9,0.274268,0.273972,-0.389378,13,0.0192658,10,-0.000106679,-3.40963,-0.147424,-0.400205,6.08017,0.273972,
2,0,0,1,0,24777.9,0.27277,0.272474,-0.399115,13,0.019235,10,-0.000108748,-3.3989,-0.144318,-0.40882,6.40298,0.272474,
2,0,0,1,0,24778,0.271272,0.270956,-0.410162,13,0.0192035,10,-0.000111136,-3.38704,-0.132617,-0.444889,7.0768,0.270956,
2,0,0,1,0,24778.1,0.269774,0.26948,-0.419964,13,0.0191711,10,-0.000113172,-3.37679,-0.159947,-0.368872,5.99239,0.26948,
2,0,0,1,0,24778.2,0.268274,0.26793,-0.425871,13,0.0191381,10,-0.000114104,-3.37072,-0.182958,-0.322478,5.35953,0.26793,
2,0,0,1,0,24778.2,0.266779,0.266479,-0.432142,13,0.0191047,10,-0.000115157,-3.36437,-0.182349,-0.323556,5.46029,0.266479,
2,0,0,1,0,24778.3,0.265279,0.264949,-0.441463,13,0.0190706,10,-0.000116965,-3.35511,-0.18447,-0.319835,5.49235,0.264949,
2,0,0,1,0,24778.4,0.263781,0.263465,-0.446212,13,0.0190359,10,-0.000117561,-3.35046,-0.220786,-0.267227,4.66065,0.263465,
2,0,0,1,0,24778.5,0.262283,0.261969,-0.456697,13,0.0190006,10,-0.00011964,-3.34037,-0.231939,-0.254377,4.52564,0.261969,
2,0,0,1,0,24778.5,0.260784,0.260505,-0.461748,13,0.0189649,10,-0.000120288,-3.33559,-0.203659,-0.289699,5.25101,0.260505,
2,0,0,1,0,24778.6,0.259286,0.259001,-0.471741,13,0.0189286,10,-0.000122182,-3.3263,-0.193249,-0.305306,5.59384,0.2590012,
2,0,0,1,0,24778.7,0.257788,0.257459,-0.478823,13,0.0188917,10,-0.000123277,-3.31983,-0.232576,-0.253681,4.723,0.257459,
2,0,0,1,0,24778.8,0.25629,0.255973,-0.485908,13,0.0188542,10,-0.000124379,-3.31345,-0.253646,-0.232608,4.38335,0.255973,
2,0,0,1,0,24778.8,0.25479,0.254498,-0.489402,13,0.0188163,10,-0.000124552,-3.31033,-0.26141,-0.225699,4.33148,0.254498,
2,0,0,1,0,24778.9,0.253294,0.252989,-0.497488,13,0.018778,10,-0.000125859,-3.30322,-0.246524,-0.239328,4.66714,0.2529887,
2,0,0,1,0,24779,0.251795,0.251504,-0.503144,13,0.0187391,10,-0.000126543,-3.29831,-0.24931,-0.236653,4.65701,0.251504,
2,0,0,1,0,24779.1,0.250297,0.249983,-0.509802,13,0.0186997,10,-0.000127442,-3.2926,-0.308361,-0.191334,3.80227,0.249983,
2,0,0,1,0,24779.1,0.248799,0.248482,-0.516015,13,0.0186599,10,-0.000128221,-3.28734,-0.305711,-0.192993,3.8904,0.2484822,
2,0,0,1,0,24779.2,0.247301,0.246958,-0.520873,13,0.0186198,10,-0.000128634,-3.28327,-0.28542,-0.206713,4.2324,0.246958,
2,0,0,1,0,24779.3,0.245802,0.245552,-0.52884,13,0.0185792,10,-0.000129857,-3.27668,-0.273538,-0.215692,4.43329,0.245552,
2,0,0,1,0,24779.4,0.244304,0.243979,-0.533621,13,0.018538,10,-0.000130192,-3.27277,-0.288621,-0.204421,4.2553,0.243979,
2,0,0,1,0,24779.4,0.242806,0.242497,-0.540479,13,0.0184963,10,-0.000131064,-3.26722,-0.427036,-0.138162,2.9152,0.242497,
2,0,0,1,0,24779.5,0.241308,0.240998,-0.544896,13,0.0184545,10,-0.000131319,-3.26369,-0.434274,-0.135859,2.89641,0.240998,
2,0,0,1,0,24779.6,0.23981,0.239467,-0.550001,13,0.0184122,10,-0.000131707,-3.25964,-0.242407,-0.243392,5.20885,0.239467,
2,0,0,1,0,24779.7,0.23831,0.238004,-0.55687,13,0.0183693,10,-0.000132537,-3.25425,-0.302979,-0.194733,4.22472,0.238004,
2,0,0,1,0,24779.7,0.236815,0.236504,-0.560544,13,0.0183261,10,-0.000132571,-3.25139,-0.350557,-0.168304,3.68222,0.236504,
2,0,0,1,0,24779.8,0.235315,0.234989,-0.563601,13,0.0182825,10,-0.00013244,-3.24903,-0.298601,-0.197588,4.37531,0.234989,
2,0,0,1,0,24779.9,0.233817,0.233501,-0.571048,13,0.0182385,10,-0.00013334,-3.24333,-0.360505,-0.163659,3.6516,0.233501,
2,0,0,1,0,24780,0.232319,0.231999,-0.576797,13,0.018194,10,-0.000133816,-3.23898,-0.361738,-0.163102,3.66655,0.231999,
2,0,0,1,0,24780,0.230821,0.230525,-0.582453,13,0.0181492,10,-0.00013427,-3.23474,-0.458011,-0.128818,2.92219,0.230525,
2,0,0,1,0,24780.1,0.229322,0.229015,-0.585635,13,0.0181039,10,-0.000134119,-3.23237,-0.360402,-0.163706,3.76021,0.229015,
2,0,0,1,0,24780.2,0.227824,0.227479,-0.590453,13,0.0180584,10,-0.000134315,-3.22881,-0.392542,-0.150303,3.48447,0.227479,
2,0,0,1,0,24780.3,0.226326,0.225991,-0.597993,13,0.0180123,10,-0.000135141,-3.2233,-0.430975,-0.136899,3.20018,0.225991,
2,0,0,1,0,24780.3,0.224828,0.224578,-0.605325,13,0.0179659,10,-0.000135943,-3.21801,-0.504591,-0.116926,2.74779,0.2245785,
2,0,0,1,0,24780.4,0.22333,0.222992,-0.611356,13,0.0179191,10,-0.000136328,-3.21371,-0.36376,-0.162195,3.854,0.222992,
2,0,0,1,0,24780.5,0.22183,0.221528,-0.613272,13,0.0178719,10,-0.000135857,-3.21235,-0.376555,-0.156684,3.75176,0.2215281,
2,0,0,1,0,24780.6,0.220335,0.220042,-0.618386,13,0.0178244,10,-0.000136071,-3.20874,-0.331896,-0.177766,4.29218,0.2200415,
2,0,0,1,0,24780.6,0.218835,0.218538,-0.625883,13,0.0177762,10,-0.000136779,-3.20351,-0.438827,-0.134449,3.27881,0.218538,
2,0,0,1,0,24780.7,0.217337,0.217026,-0.629369,13,0.0177279,10,-0.00013659,-3.20109,-0.646763,-0.0912236,2.24476,0.217026,
2,0,0,1,0,24780.8,0.215839,0.215547,-0.632374,13,0.0176792,10,-0.000136306,-3.19903,-0.336732,-0.175213,4.33981,0.2155472,
2,0,0,1,0,24780.9,0.21434,0.214015,-0.63961,13,0.0176301,10,-0.000136886,-3.19408,-0.356904,-0.165311,4.11829,0.214015,
2,0,0,1,0,24780.9,0.212842,0.212521,-0.644878,13,0.0175806,10,-0.00013705,-3.19052,-0.360767,-0.163541,4.12833,0.212521,
2,0,0,1,0,24781,0.211344,0.211041,-0.652473,13,0.0175307,10,-0.000137699,-3.18544,-0.653142,-0.0903326,2.29416,0.211041,
2,0,0,1,0,24781.1,0.209846,0.209525,-0.652997,13,0.0174804,10,-0.000136819,-3.18509,-0.493224,-0.119621,3.05646,0.209525,
2,0,0,1,0,24781.2,0.208348,0.20805,-0.662098,13,0.0174298,10,-0.000137749,-3.17908,-0.369046,-0.159872,4.13266,0.20805,
2,0,0,1,0,24781.2,0.20685,0.206527,-0.670452,13,0.0173787,10,-0.000138466,-3.17363,-0.417585,-0.141288,3.67313,0.206527,
2,0,0,1,0,24781.3,0.20535,0.205011,-0.672145,13,0.017327,10,-0.000137797,-3.17254,-0.444548,-0.132719,3.47386,0.205011,
2,0,0,1,0,24781.4,0.203855,0.203513,-0.675519,13,0.0172751,10,-0.000137477,-3.17036,-0.661293,-0.0892192,2.35981,0.203513,
2,0,0,1,0,24781.5,0.202355,0.202023,-0.680567,13,0.0172228,10,-0.00013749,-3.16713,-0.438301,-0.134611,3.5862,0.202023,
2,0,0,1,0,24781.5,0.200857,0.200522,-0.689902,13,0.0171701,10,-0.00013834,-3.16121,-0.361028,-0.163422,4.38961,0.200522,
2,0,0,1,0,24781.6,0.199359,0.199037,-0.696497,13,0.017117,10,-0.000138629,-3.15708,-0.440406,-0.133967,3.62446,0.199037,
2,0,0,1,0,24781.7,0.19786,0.197488,-0.699693,13,0.0170634,10,-0.000138181,-3.15509,-0.410024,-0.143894,3.92007,0.197488,
2,0,0,1,0,24781.8,0.196362,0.196011,-0.704523,13,0.0170094,10,-0.000138095,-3.1521,-0.441923,-0.133507,3.66802,0.196011,
2,0,0,1,0,24781.8,0.194864,0.194542,-0.714045,13,0.0169551,10,-0.000138912,-3.14627,-0.301812,-0.195486,5.4213,0.194542,
2,0,0,1,0,24781.9,0.193366,0.193018,-0.718851,13,0.0169001,10,-0.000138751,-3.14336,-0.359723,-0.164015,4.59271,0.193018,
2,0,0,1,0,24782,0.191866,0.191517,-0.725742,13,0.0168446,10,-0.000138992,-3.13922,-0.548181,-0.107629,3.04904,0.191517,
2,0,0,1,0,24782.1,0.19037,0.190032,-0.730365,13,0.0167889,10,-0.000138793,-3.13646,-0.409455,-0.144094,4.11144,0.190032,
2,0,0,1,0,24782.1,0.188871,0.188523,-0.737238,13,0.0167326,10,-0.000138986,-3.13239,-0.280321,-0.210473,6.04892,0.188523,
2,0,0,1,0,24782.2,0.187373,0.187056,-0.743512,13,0.0166757,10,-0.000139078,-3.12871,-0.323955,-0.182124,5.28704,0.187056,
2,0,0,1,0,24782.3,0.185875,0.185567,-0.749856,13,0.0166183,10,-0.000139149,-3.12502,-0.395254,-0.149271,4.367,0.185567,
2,0,0,1,0,24782.4,0.184377,0.184046,-0.755111,13,0.0165604,10,-0.000138975,-3.12199,-0.406751,-0.145052,4.28879,0.184046,
2,0,0,1,0,24782.4,0.182878,0.182561,-0.764715,13,0.0165022,10,-0.000139607,-3.1165,-0.341579,-0.172727,5.17881,0.182561,
2,0,0,1,0,24782.5,0.18138,0.181053,-0.772628,13,0.0164432,10,-0.000139886,-3.11203,-0.343498,-0.171762,5.18422,0.181053,
2,0,0,1,0,24782.6,0.179882,0.179541,-0.780238,13,0.0163836,10,-0.000140085,-3.10777,-0.41364,-0.142636,4.33618,0.179541,
2,0,0,1,0,24782.7,0.178384,0.17806,-0.78726,13,0.0163234,10,-0.000140179,-3.10388,-0.349392,-0.168865,5.20772,0.17806,
2,0,0,1,0,24782.7,0.176886,0.176515,-0.79597,13,0.0162628,10,-0.000140501,-3.0991,-0.277601,-0.212536,6.64011,0.176515,
2,0,0,1,0,24782.8,0.175386,0.175033,-0.806459,13,0.0162013,10,-0.000141157,-3.09342,-0.263971,-0.223509,7.03722,0.175033,
2,0,0,1,0,24782.9,0.173891,0.173524,-0.816111,13,0.0161392,10,-0.000141615,-3.08825,-0.279273,-0.211263,6.72725,0.173524,
2,0,0,1,0,24783,0.172391,0.172023,-0.827283,13,0.0160761,10,-0.000142312,-3.08235,-0.296081,-0.19927,6.4229,0.172023,
2,0,0,1,0,24783,0.170893,0.170557,-0.83772,13,0.0160125,10,-0.000142879,-3.0769,-0.233043,-0.253172,8.28684,0.170557,
2,0,0,1,0,24783.1,0.169395,0.16907,-0.848957,13,0.015948,10,-0.000143533,-3.07111,-0.226767,-0.260179,8.61155,0.16907,
2,0,0,1,0,24783.2,0.167897,0.167558,-0.863249,13,0.0158825,10,-0.000144645,-3.06386,-0.226624,-0.260343,8.76106,0.167558,
2,0,0,1,0,24783.3,0.166398,0.166028,-0.875234,13,0.015816,10,-0.000145313,-3.05788,-0.273548,-0.215685,7.3815,0.166028,
2,0,0,1,0,24783.3,0.1649,0.164571,-0.885415,13,0.0157487,10,-0.000145714,-3.05285,-0.229983,-0.25654,8.9185,0.164571,
2,0,0,1,0,24783.4,0.163402,0.163122,-0.900776,13,0.0156804,10,-0.000146936,-3.04538,-0.201912,-0.292207,10.3024,0.163122,
2,0,0,1,0,24783.5,0.161904,0.161593,-0.918787,13,0.0156108,10,-0.000148469,-3.03679,-0.19216,-0.307037,11.0327,0.161593,
2,0,0,1,0,24783.6,0.160406,0.160102,-0.938807,13,0.0155399,10,-0.000150305,-3.02742,-0.185864,-0.317437,11.5849,0.160102,
2,0,0,1,0,24783.6,0.158906,0.158584,-0.952156,13,0.0154674,10,-0.000150996,-3.02129,-0.160065,-0.3686,13.7722,0.158584,
2,0,0,1,0,24783.7,0.157411,0.157095,-0.97881,13,0.0153939,10,-0.000153766,-3.0093,-0.146103,-0.403824,15.4813,0.1570946,
2,0,0,1,0,24783.8,0.155911,0.155565,-1.0018,13,0.0153182,10,-0.000155845,-2.99922,-0.138213,-0.426878,16.7105,0.155565,
2,0,0,1,0,24783.9,0.154413,0.154054,-1.02829,13,0.0152406,10,-0.000158412,-2.98789,-0.141619,-0.416611,16.7537,0.154054,
2,0,0,1,0,24783.9,0.152915,0.152595,-1.05828,13,0.0151611,10,-0.000161489,-2.9754,-0.119414,-0.494079,20.4807,0.152595,
2,0,0,1,0,24784,0.151417,0.151106,-1.0894,13,0.0150794,10,-0.000164615,-2.96281,-0.110285,-0.534977,22.8205,0.151106,
2,0,0,1,0,24784.1,0.149918,0.149592,-1.12682,13,0.014995,10,-0.000168563,-2.94815,-0.0971303,-0.607432,26.7091,0.149592,
2,0,0,1,0,24784.2,0.14842,0.148105,-1.16672,13,0.0149077,10,-0.000172798,-2.93303,-0.0943936,-0.625042,28.5723,0.148105,
2,0,0,1,0,24784.2,0.146922,0.146616,-1.21292,13,0.0148172,10,-0.000177834,-2.91617,-0.08913,-0.661955,31.3857,0.146616,
2,0,0,1,0,24784.3,0.145424,0.145097,-1.25917,13,0.0147234,10,-0.000182701,-2.89992,-0.0827553,-0.712945,35.1801,0.145097,
2,0,0,1,0,24784.4,0.143926,0.143587,-1.31367,13,0.0146256,10,-0.000188626,-2.88152,-0.0758269,-0.778088,39.9336,0.143587,
2,0,0,1,0,24784.5,0.142426,0.142067,-1.37653,13,0.0145232,10,-0.00019556,-2.86121,-0.0756958,-0.779436,41.8836,0.142067,
2,0,0,1,0,24784.5,0.140931,0.140594,-1.43838,13,0.0144165,10,-0.000202227,-2.84213,-0.078479,-0.751794,42.2133,0.140594,
2,0,0,1,0,24784.6,0.139431,0.139055,-1.49958,13,0.0143048,10,-0.000208525,-2.82403,-0.0770344,-0.765891,45.0232,0.139055,
2,0,0,1,0,24784.7,0.137933,0.13761,-1.5723,13,0.0141882,10,-0.000216365,-2.80346,-0.0783088,-0.753427,46.2348,0.13761,
2,0,0,1,0,24784.8,0.136435,0.136123,-1.64717,13,0.0140662,10,-0.000224217,-2.78326,-0.0786308,-0.750342,48.1377,0.136123,
2,0,0,1,0,24784.8,0.134936,0.134625,-1.72153,13,0.0139387,10,-0.000231762,-2.76408,-0.0819396,-0.720042,48.1851,0.134625,
2,0,0,1,0,24784.9,0.133438,0.133137,-1.78924,13,0.0138058,10,-0.000238213,-2.74733,-0.0885908,-0.665983,46.4516,0.1331366,
2,0,0,1,0,24785,0.13194,0.131627,-1.85858,13,0.0136677,10,-0.000244639,-2.73082,-0.0922178,-0.639789,46.4187,0.131627,
2,0,0,1,0,24785.1,0.130442,0.130167,-1.92895,13,0.0135244,10,-0.000251086,-2.71468,-0.0998819,-0.590698,44.386,0.130167,
2,0,0,1,0,24785.1,0.128942,0.128605,-1.99423,13,0.0133758,10,-0.000256469,-2.70022,-0.108769,-0.542433,42.0459,0.128605,
2,0,0,1,0,24785.2,0.127446,0.127111,-2.05517,13,0.0132229,10,-0.000261234,-2.68715,-0.122146,-0.483027,38.6299,0.127111,
2,0,0,1,0,24785.3,0.125947,0.125609,-2.10519,13,0.0130655,10,-0.000264429,-2.67671,-0.132691,-0.444642,36.5214,0.125609,
2,0,0,1,0,24785.4,0.124449,0.124095,-2.15662,13,0.0129043,10,-0.000267624,-2.66623,-0.145695,-0.404957,34.0147,0.124095,
2,0,0,1,0,24785.4,0.122951,0.12265,-2.20729,13,0.0127394,10,-0.000270723,-2.65614,-0.172974,-0.341092,29.2892,0.12265,
2,0,0,1,0,24785.5,0.121453,0.121166,-2.24853,13,0.0125711,10,-0.000272444,-2.6481,-0.214747,-0.274742,24.0127,0.121166,
2,0,0,1,0,24785.6,0.119955,0.119688,-2.27396,13,0.0124002,10,-0.000272166,-2.64322,-0.257824,-0.228838,20.3243,0.119688,
2,0,0,1,0,24785.7,0.118456,0.118152,-2.30826,13,0.0122269,10,-0.000272725,-2.63671,-0.270857,-0.217827,19.585,0.118152,
2,0,0,1,0,24785.7,0.116958,0.116601,-2.33887,13,0.0120514,10,-0.000272715,-2.63099,-0.375882,-0.156964,14.2739,0.116601,
2,0,0,1,0,24785.8,0.11546,0.115138,-2.35664,13,0.0118742,10,-0.00027134,-2.62771,-0.613345,-0.0961938,8.80789,0.115138,
2,0,0,1,0,24785.9,0.113962,0.113638,-2.3619,13,0.011696,10,-0.000268401,-2.62674,-1.00214,-0.0588742,5.42532,0.1136378,
2,0,0,1,0,24786,0.112462,0.112122,-2.37382,13,0.0115171,10,-0.000266159,-2.62455,-1.69351,-0.0348389,3.2198,0.112122,
2,0,0,1,0,24786,0.110967,0.110654,-2.37943,13,0.0113381,10,-0.000263293,-2.62353,-3.09292,-0.0190758,1.76682,0.110654,
2,0,0,1,0,24786.1,0.109467,0.109158,-2.37664,13,0.0111584,10,-0.000259429,-2.62404,1.53317,0.0384823,-3.55737,0.109158,
2,0,0,1,0,24786.2,0.107969,0.107691,-2.36939,13,0.0109792,10,-0.000255162,-2.62536,1.21861,0.0484157,-4.47301,0.107691,
2,0,0,1,0,24786.3,0.106471,0.10617,-2.35779,13,0.0108009,10,-0.000250328,-2.62749,0.879587,0.0670769,-6.18288,0.1061704,
2,0,0,1,0,24786.3,0.104973,0.104643,-2.34935,13,0.0106232,10,-0.000245842,-2.62905,0.710074,0.0830899,-7.60996,0.104643,
2,0,0,1,0,24786.4,0.103474,0.103171,-2.33968,13,0.0104461,10,-0.000241387,-2.63084,0.581151,0.101523,-9.24988,0.103171,
2,0,0,1,0,24786.5,0.101976,0.10166,-2.32089,13,0.0102703,10,-0.000235943,-2.63434,0.412424,0.143057,-12.932,0.10166,
2,0,0,1,0,24786.6,0.100478,0.100213,-2.29911,13,0.0100959,10,-0.0002304,-2.63844,0.409732,0.143996,-12.9266,0.100213,
2,0,0,1,0,24786.6,0.0989799,0.0986669,-2.28111,13,0.00992305,10,-0.00022507,-2.64185,0.432044,0.13656,-12.1472,0.0986669,
2,0,0,1,0,24786.7,0.0974817,0.0971667,-2.26186,13,0.00975154,10,-0.000219777,-2.64553,0.406184,0.145254,-12.8148,0.0971667,
2,0,0,1,0,24786.8,0.0959821,0.0956703,-2.2404,13,0.00958124,10,-0.000214339,-2.64967,0.355305,0.166054,-14.5049,0.0956703,
2,0,0,1,0,24786.9,0.0944866,0.0941607,-2.21519,13,0.00941312,10,-0.000208584,-2.65459,0.359862,0.163952,-14.2174,0.0941607,
2,0,0,1,0,24786.9,0.0929871,0.0926631,-2.1976,13,0.00924623,10,-0.000203636,-2.65805,0.419473,0.140653,-12.0747,0.0926631,
2,0,0,1,0,24787,0.0914889,0.0911699,-2.18284,13,0.00908075,10,-0.000199009,-2.66098,0.394197,0.149671,-12.7301,0.0911699,
2,0,0,1,0,24787.1,0.0899907,0.0896663,-2.16497,13,0.0089165,10,-0.000194125,-2.66455,0.405997,0.145321,-12.2446,0.0896663,
2,0,0,1,0,24787.2,0.0884925,0.0881549,-2.14218,13,0.00875371,10,-0.000188844,-2.66914,0.424586,0.138959,-11.6428,0.0881549,
2,0,0,1,0,24787.2,0.0869943,0.0867054,-2.12754,13,0.00859251,10,-0.000184469,-2.67212,0.411863,0.143251,-11.9076,0.0867054,
2,0,0,1,0,24787.3,0.0854961,0.0851348,-2.11276,13,0.00843235,10,-0.000179869,-2.67515,0.498277,0.118408,-9.75939,0.0851348,
2,0,0,1,0,24787.4,0.083998,0.0836759,-2.09975,13,0.00827324,10,-0.000175698,-2.67783,0.45596,0.129397,-10.5853,0.0836759,
2,0,0,1,0,24787.5,0.0824998,0.0822031,-2.08361,13,0.0081152,10,-0.000171279,-2.68118,0.508214,0.116093,-9.44772,0.08220309,
2,0,0,1,0,24787.5,0.081002,0.0806913,-2.0707,13,0.00795845,10,-0.000167088,-2.68388,0.577126,0.102231,-8.26377,0.0806913,
2,0,0,1,0,24787.6,0.0795025,0.0791506,-2.05651,13,0.00780237,10,-0.000162774,-2.68687,0.650572,0.0906894,-7.28176,0.0791506,
2,0,0,1,0,24787.7,0.078007,0.0776932,-2.04754,13,0.00764745,10,-0.00015908,-2.68877,0.656103,0.0899249,-7.17324,0.0776932,
2,0,0,1,0,24787.8,0.076507,0.0762139,-2.03379,13,0.00749302,10,-0.000155003,-2.69169,0.56977,0.103551,-8.21404,0.0762139,
2,0,0,1,0,24787.8,0.0750088,0.0747019,-2.01799,13,0.00733998,10,-0.000150748,-2.69508,0.574194,0.102753,-8.0992,0.0747019,
2,0,0,1,0,24787.9,0.0735106,0.0731842,-2.00794,13,0.0071878,10,-0.000146949,-2.69725,0.753692,0.0782813,-6.12913,0.0731842,
2,0,0,1,0,24788,0.0720124,0.0716785,-1.99468,13,0.00703639,10,-0.000142975,-2.70013,0.627873,0.093968,-7.32774,0.0716785,
2,0,0,1,0,24788.1,0.0705142,0.0701949,-1.98519,13,0.00688585,10,-0.00013935,-2.7022,0.539918,0.109276,-8.46905,0.0701949,
2,0,0,1,0,24788.1,0.0690161,0.0686915,-1.97313,13,0.00673624,10,-0.000135537,-2.70484,0.548416,0.107582,-8.29083,0.0686915,
2,0,0,1,0,24788.2,0.0675179,0.0671918,-1.96161,13,0.00658756,10,-0.000131804,-2.70739,0.683249,0.0863521,-6.61415,0.0671918,
2,0,0,1,0,24788.3,0.0660179,0.0656992,-1.95636,13,0.00643941,10,-0.000128531,-2.70855,0.651129,0.0906119,-6.89455,0.06569916,
2,0,0,1,0,24788.4,0.0645224,0.0642097,-1.94108,13,0.00629231,10,-0.000124636,-2.71196,0.550128,0.107248,-8.11114,0.0642097,
2,0,0,1,0,24788.4,0.0630229,0.0627121,-1.92571,13,0.00614584,10,-0.000120766,-2.71541,0.581452,0.10147,-7.64027,0.0627121,
2,0,0,1,0,24788.5,0.0615251,0.0612049,-1.91374,13,0.00600062,10,-0.000117131,-2.71812,0.632692,0.0932523,-6.97572,0.0612049,
2,0,0,1,0,24788.6,0.0600269,0.0596809,-1.90162,13,0.0058561,10,-0.000113491,-2.72088,0.619663,0.0952131,-7.07536,0.0596809,
2,0,0,1,0,24788.7,0.0585287,0.0581846,-1.89554,13,0.00571244,10,-0.000110291,-2.72227,0.477877,0.123463,-9.11509,0.0581846,
2,0,0,1,0,24788.7,0.0570305,0.056668,-1.88233,13,0.00556966,10,-0.000106668,-2.7253,0.513302,0.114942,-8.4426,0.056668,
2,0,0,1,0,24788.8,0.0555323,0.05517,-1.86823,13,0.00542801,10,-0.00010307,-2.72857,0.543337,0.108588,-7.93116,0.05517,
2,0,0,1,0,24788.9,0.0540342,0.0537097,-1.85825,13,0.00528707,10,-9.98058e-05,-2.7309,0.596662,0.0988834,-7.16784,0.0537097,
2,0,0,1,0,24789,0.052536,0.0522314,-1.84955,13,0.00514683,10,-9.66045e-05,-2.73293,0.587665,0.100397,-7.23508,0.0522314,
2,0,0,1,0,24789,0.0510378,0.0507,-1.83573,13,0.00500752,10,-9.30713e-05,-2.73619,0.450363,0.131005,-9.38122,0.0507,
2,0,0,1,0,24789.1,0.0495382,0.0492267,-1.82056,13,0.00486912,10,-8.962e-05,-2.7398,0.501439,0.117661,-8.36751,0.0492267,
2,0,0,1,0,24789.2,0.0480427,0.0477066,-1.80579,13,0.00473202,10,-8.6148e-05,-2.74333,0.567939,0.103884,-7.32361,0.04770663,
2,0,0,1,0,24789.3,0.0465432,0.046228,-1.79503,13,0.00459547,10,-8.29804e-05,-2.74593,0.503178,0.117255,-8.21504,0.046228,
2,0,0,1,0,24789.3,0.045045,0.0446825,-1.78286,13,0.00446008,10,-7.96627e-05,-2.74888,0.439328,0.134296,-9.33829,0.0446825,
2,0,0,1,0,24789.4,0.0435468,0.0432123,-1.76413,13,0.00432577,10,-7.62321e-05,-2.75347,0.437781,0.134771,-9.29163,0.0432123,
2,0,0,1,0,24789.5,0.0420486,0.0417176,-1.75342,13,0.00419255,10,-7.31486e-05,-2.75611,0.514599,0.114652,-7.85313,0.0417176,
2,0,0,1,0,24789.6,0.0405504,0.040234,-1.74491,13,0.00406022,10,-7.02049e-05,-2.75823,0.465951,0.126623,-8.60375,0.040234,
2,0,0,1,0,24789.6,0.0390523,0.038731,-1.72981,13,0.00392878,10,-6.69974e-05,-2.762,0.380823,0.154928,-10.433,0.038731,
2,0,0,1,0,24789.7,0.0375541,0.0372216,-1.71107,13,0.00379843,10,-6.36889e-05,-2.76673,0.379917,0.155297,-10.3756,0.0372216,
2,0,0,1,0,24789.8,0.0360559,0.035772,-1.69923,13,0.00366935,10,-6.0785e-05,-2.76975,0.420206,0.140407,-9.3158,0.035772,
2,0,0,1,0,24789.9,0.0345577,0.0342398,-1.68507,13,0.00354125,10,-5.76964e-05,-2.77338,0.450502,0.130965,-8.62159,0.0342398,
2,0,0,1,0,24789.9,0.0330582,0.0327539,-1.67258,13,0.00341403,10,-5.47836e-05,-2.77661,0.382933,0.154074,-10.0334,0.0327539,
2,0,0,1,0,24790,0.0315626,0.0312524,-1.65725,13,0.00328813,10,-5.17931e-05,-2.78061,0.395655,0.14912,-9.63032,0.0312524,
2,0,0,1,0,24790.1,0.0300631,0.0297455,-1.64128,13,0.00316322,10,-4.88206e-05,-2.78482,0.412135,0.143157,-9.17941,0.0297455,
2,0,0,1,0,24790.2,0.0285649,0.0282453,-1.62969,13,0.00303941,10,-4.6031e-05,-2.7879,0.453208,0.130183,-8.25964,0.0282453,
2,0,0,1,0,24790.2,0.0270667,0.026716,-1.61519,13,0.00291654,10,-4.31516e-05,-2.79178,0.429199,0.137465,-8.66515,0.026716,
2,0,0,1,0,24790.3,0.0255685,0.0252613,-1.60212,13,0.00279467,10,-4.04717e-05,-2.7953,0.38956,0.151453,-9.46866,0.0252613,
2,0,0,1,0,24790.4,0.0240704,0.0237461,-1.58398,13,0.00267388,10,-3.76134e-05,-2.80025,0.43205,0.136558,-8.4739,0.0237461,
2,0,0,1,0,24790.5,0.0225722,0.0222603,-1.57671,13,0.00255405,10,-3.5098e-05,-2.80225,0.50597,0.116608,-7.17347,0.0222603,
2,0,0,1,0,24790.5,0.021074,0.020727,-1.56649,13,0.00243506,10,-3.24685e-05,-2.80507,0.466804,0.126391,-7.719,0.020727,
2,0,0,1,0,24790.6,0.0195758,0.0192734,-1.55245,13,0.00231689,10,-2.99209e-05,-2.80898,0.448586,0.131524,-7.96813,0.0192734,
2,0,0,1,0,24790.7,0.018078,0.0177539,-1.53794,13,0.00219963,10,-2.73045e-05,-2.81306,0.463211,0.127372,-7.66414,0.0177539,
2,0,0,1,0,24790.8,0.0165785,0.0162928,-1.53236,13,0.00208312,10,-2.49665e-05,-2.81464,0.598223,0.0986255,-5.90286,0.0162928,
2,0,0,1,0,24790.8,0.015083,0.0147696,-1.52212,13,0.00196755,10,-2.24811e-05,-2.81755,0.644945,0.0914807,-5.43596,0.0147696,
2,0,0,1,0,24790.9,0.013583,0.0132764,-1.5149,13,0.00185217,10,-2.01123e-05,-2.81962,0.550723,0.107132,-6.32084,0.0132764,
2,0,0,1,0,24791,0.0120848,0.011764,-1.50449,13,0.00173768,10,-1.76989e-05,-2.82261,0.548254,0.107614,-6.33005,0.011764,
2,0,0,1,0,24791.1,0.0105866,0.0102671,-1.49609,13,0.001624,10,-1.53605e-05,-2.82504,0.807912,0.0730278,-4.27636,0.0102671,
2,0,0,1,0,24791.1,0.00908845,0.00877249,-1.49157,13,0.00151072,10,-1.30848e-05,-2.82636,0.954711,0.0617988,-3.59826,0.008772485,
2,0,0,1,0,24791.2,0.00759027,0.00727475,-1.48677,13,0.00139776,10,-1.08159e-05,-2.82776,0.959319,0.061502,-3.56457,0.007274752,
2,0,0,1,0,24791.3,0.00609208,0.00576767,-1.48227,13,0.00128524,10,-8.54922e-06,-2.82907,0.866097,0.0681217,-3.93896,0.00576767,
2,0,0,1,0,24791.4,0.00459389,0.00425862,-1.47625,13,0.00117325,10,-6.28676e-06,-2.83084,1.45427,0.0405701,-2.34121,0.004258615,
2,0,0,1,0,24791.4,0.00309391,0.00276069,-1.4752,13,0.00106128,10,-4.07256e-06,-2.83115,-1.13783,-0.051853,2.99281,0.00276069,
2,0,0,1,0,24791.5,0.0015984,0.0012026,-1.49123,13,0.000948678,10,-1.79336e-06,-2.82645, , , ,0.0012026,
2,0,0,1,0,24791.6,0.000199195,-0.000199717,-1.47252,13,0.000843633,10,2.94087e-07,-2.83194, , , ,-0.000199717,