File: Figure_codes/Fig_3-5/rawdata_trumpetplot_data/after 10th/20221101_1-115_003_TrumpetPlot_ParaChange_from10_every3_13_CV_C01_10.csv
mode,ox/red,error,control changes,counter inc.,time/s,control/V,Ewe/V,<I>/mA,cycle number,(Q-Qo)/C,I Range,P/W,log(|I|),Tafel slope mV/dec,alpha_eff,dI/d(E-IR),E-IR/V,
2,1,0,1,0,20899.2,2.44065e-05,-0.000306236,21.1244,11,0.0000000E+000,10,-6.46904e-06,-1.67522, , , ,-0.000306236,
2,1,0,1,0,20899.2,0.00266289,0.00226525,22.4167,11,6.80036e-05,10,5.07795e-05,-1.64943, , , ,0.00226525,
2,1,0,1,0,20899.2,0.00586735,0.0055419,23.5262,11,0.000160069,10,0.00013038,-1.62845, , , ,0.0055419,
2,1,0,1,0,20899.2,0.00906349,0.00870828,24.4614,11,0.000256164,10,0.000213017,-1.61152,0.195596,0.301643,284.892,0.00870828,
2,1,0,1,0,20899.2,0.0122624,0.0119171,25.2997,11,0.000355803,10,0.000301498,-1.59688,0.225938,0.261134,256.036,0.01191707,
2,1,0,1,0,20899.2,0.0154641,0.015111,26.0764,11,0.000458669,10,0.000394041,-1.58375,0.25338,0.232852,235.737,0.015111,
2,1,0,1,0,20899.2,0.0186602,0.0182922,26.7908,11,0.000564505,10,0.000490063,-1.57201,0.279274,0.211262,219.984,0.0182922,
2,1,0,1,0,20899.2,0.0218675,0.0215084,27.4789,11,0.000673118,10,0.000591028,-1.561,0.304564,0.19372,206.972,0.0215084,
2,1,0,1,0,20899.2,0.0250636,0.0247024,28.1123,11,0.000784377,10,0.00069444,-1.5511,0.329453,0.179085,195.881,0.0247024,
2,1,0,1,0,20899.2,0.0282597,0.0278772,28.7186,11,0.00089811,10,0.000800597,-1.54184,0.356485,0.165505,185.032,0.0278772,
2,1,0,1,0,20899.2,0.031467,0.0311019,29.2999,11,0.00101424,10,0.000911285,-1.53313,0.376097,0.156874,179.02,0.0311019,
2,1,0,1,0,20899.2,0.0346631,0.0343065,29.8469,11,0.0011326,10,0.00102394,-1.5251,0.398077,0.148212,172.449,0.0343065,
2,1,0,1,0,20899.2,0.0378704,0.0374739,30.3986,11,0.00125315,10,0.00113916,-1.51715,0.419508,0.140641,166.617,0.0374739,
2,1,0,1,0,20899.2,0.0410665,0.0407336,30.9357,11,0.00137587,10,0.00126012,-1.50954,0.432494,0.136418,164.448,0.0407336,
2,1,0,1,0,20899.2,0.0442626,0.0439276,31.4369,11,0.00150068,10,0.00138095,-1.50256,0.454006,0.129954,159.294,0.0439276,
2,1,0,1,0,20899.2,0.0474671,0.0471173,31.9536,11,0.00162751,10,0.00150557,-1.49548,0.463327,0.12734,158.711,0.0471173,
2,1,0,1,0,20899.2,0.0506632,0.0502911,32.4403,11,0.00175636,10,0.00163146,-1.48891,0.473108,0.124707,157.866,0.0502911,
2,1,0,1,0,20899.2,0.0538621,0.0534723,32.9575,11,0.00188719,10,0.00176231,-1.48205,0.481843,0.122446,157.455,0.0534723,
2,1,0,1,0,20899.2,0.0570638,0.0567245,33.4571,11,0.0020201,10,0.00189784,-1.47551,0.48763,0.120993,157.913,0.0567245,
2,1,0,1,0,20899.2,0.06026,0.0598952,33.9656,11,0.002155,10,0.00203437,-1.46896,0.497759,0.118531,157.067,0.0598952,
2,1,0,1,0,20899.2,0.0634672,0.0631082,34.4643,11,0.00229191,10,0.00217498,-1.46263,0.501363,0.117679,158.253,0.0631082,
2,1,0,1,0,20899.2,0.0666633,0.0662862,34.9701,11,0.00243084,10,0.00231804,-1.4563,0.500518,0.117878,160.939,0.0662862,
2,1,0,1,0,20899.2,0.0698595,0.0694961,35.4782,11,0.00257181,10,0.0024656,-1.45004,0.501229,0.117711,163.062,0.0694961,
2,1,0,1,0,20899.3,0.0730667,0.0726731,36.0221,11,0.00271487,10,0.00261783,-1.44343,0.502313,0.117457,165.102,0.0726731,
2,1,0,1,0,20899.3,0.0762629,0.0758808,36.547,11,0.00286007,10,0.00277322,-1.43715,0.505891,0.116626,166.28,0.0758808,
2,1,0,1,0,20899.3,0.0794701,0.0790959,37.085,11,0.00300736,10,0.00293328,-1.4308,0.512971,0.115016,166.438,0.0790959,
2,1,0,1,0,20899.3,0.0826662,0.0823026,37.6077,11,0.0031568,10,0.00309521,-1.42472,0.510612,0.115548,169.659,0.0823026,
2,1,0,1,0,20899.3,0.0858624,0.0854976,38.1565,11,0.00330837,10,0.00326229,-1.41843,0.512326,0.115161,171.55,0.08549761,
2,1,0,1,0,20899.3,0.0890668,0.0886884,38.72,11,0.0034622,10,0.00343401,-1.41207,0.511984,0.115238,174.098,0.0886884,
2,1,0,1,0,20899.3,0.092263,0.0918664,39.2758,11,0.00361824,10,0.00360813,-1.40587,0.517219,0.114072,174.807,0.0918664,
2,1,0,1,0,20899.3,0.0954674,0.0950985,39.8355,11,0.00377651,10,0.00378829,-1.39973,0.521591,0.113116,175.845,0.09509854,
2,1,0,1,0,20899.3,0.0986636,0.0983148,40.3971,11,0.00393705,10,0.00397163,-1.39365,0.519217,0.113633,179.207,0.0983148,
2,1,0,1,0,20899.3,0.10186,0.101469,40.9674,11,0.00409985,10,0.00415694,-1.38756,0.520406,0.113373,181.334,0.101469,
2,1,0,1,0,20899.3,0.105067,0.104644,41.5657,11,0.00426498,10,0.00434961,-1.38126,0.521588,0.113116,183.475,0.104644,
2,1,0,1,0,20899.3,0.108263,0.107879,42.1529,11,0.00443251,10,0.00454739,-1.37517,0.525587,0.112255,184.607,0.107879,
2,1,0,1,0,20899.3,0.111465,0.111126,42.7475,11,0.00460235,10,0.00475034,-1.36909,0.532879,0.110719,184.664,0.111126,
2,1,0,1,0,20899.3,0.114666,0.114274,43.3312,11,0.00477461,10,0.00495163,-1.3632,0.537648,0.109737,185.564,0.114274,
2,1,0,1,0,20899.3,0.117863,0.117439,43.9285,11,0.00494917,10,0.00515892,-1.35725,0.54708,0.107845,184.807,0.117439,
2,1,0,1,0,20899.3,0.12107,0.120668,44.5262,11,0.00512613,10,0.00537289,-1.35138,0.550951,0.107088,186.03,0.120668,
2,1,0,1,0,20899.3,0.124266,0.123808,45.0913,11,0.00530541,10,0.00558267,-1.34591,0.541242,0.109009,192.064,0.123808,
2,1,0,1,0,20899.3,0.127462,0.127086,45.7146,11,0.00548703,10,0.00580967,-1.33994,0.53324,0.110644,197.689,0.1270857,
2,1,0,1,0,20899.3,0.130667,0.130237,46.3865,11,0.00567131,10,0.00604125,-1.33361,0.518834,0.113716,205.963,0.130237,
2,1,0,1,0,20899.3,0.133863,0.133486,47.0602,11,0.00585826,10,0.00628189,-1.32735,0.512622,0.115095,211.367,0.133486,
2,1,0,1,0,20899.3,0.137067,0.136726,47.7519,11,0.00604794,10,0.00652892,-1.32101,0.516675,0.114192,212.761,0.136726,
2,1,0,1,0,20899.3,0.140263,0.139905,48.4242,11,0.00624038,10,0.00677478,-1.31494,0.515136,0.114533,216.484,0.139905,
2,1,0,1,0,20899.3,0.143459,0.143096,49.1223,11,0.00643554,10,0.00702919,-1.30872,0.516225,0.114291,219.184,0.143096,
2,1,0,1,0,20899.3,0.146667,0.146281,49.8301,11,0.00663353,10,0.00728921,-1.30251,0.512757,0.115064,223.82,0.146281,
2,1,0,1,0,20899.3,0.149863,0.14951,50.554,11,0.00683437,10,0.00755834,-1.29624,0.514267,0.114726,226.364,0.14951,
2,1,0,1,0,20899.4,0.153064,0.152697,51.2872,11,0.00703813,10,0.00783138,-1.28999,0.521386,0.11316,226.412,0.152697,
2,1,0,1,0,20899.4,0.156266,0.155894,52.0193,11,0.00724481,10,0.00810949,-1.28384,0.529381,0.111451,226.128,0.155894,
2,1,0,1,0,20899.4,0.159462,0.1591,52.7325,11,0.00745438,10,0.00838977,-1.27792,0.544302,0.108396,222.952,0.1591,
2,1,0,1,0,20899.4,0.16267,0.162316,53.4497,11,0.00766679,10,0.00867572,-1.27205,0.559802,0.105394,219.702,0.162316,
2,1,0,1,0,20899.4,0.165866,0.165513,54.1446,11,0.00788205,10,0.00896162,-1.26644,0.579789,0.101761,214.843,0.165513,
2,1,0,1,0,20899.4,0.169062,0.168699,54.8327,11,0.00810007,10,0.00925023,-1.26096,0.607475,0.0971233,207.591,0.168699,
2,1,0,1,0,20899.4,0.172266,0.171914,55.4855,11,0.0083208,10,0.00953876,-1.25582,0.639712,0.092229,199.447,0.171914,
2,1,0,1,0,20899.4,0.175462,0.175113,56.1062,11,0.00854405,10,0.00982491,-1.25099,0.680838,0.086658,189.524,0.175113,
2,1,0,1,0,20899.4,0.178667,0.178312,56.6973,11,0.00876973,10,0.0101098,-1.24644,0.730585,0.0807572,178.443,0.178312,
2,1,0,1,0,20899.4,0.181863,0.181524,57.2633,11,0.00899772,10,0.0103946,-1.24212,0.794772,0.0742351,165.605,0.181524,
2,1,0,1,0,20899.4,0.185059,0.184693,57.7658,11,0.00922786,10,0.010669,-1.23833,0.890656,0.0662433,149.022,0.184693,
2,1,0,1,0,20899.4,0.188266,0.187931,58.229,11,0.00945993,10,0.010943,-1.23486,1.04404,0.0565112,128.09,0.187931,
2,1,0,1,0,20899.4,0.191463,0.191073,58.599,11,0.00969365,10,0.0111967,-1.23211,1.28596,0.0458801,104.627,0.191073,
2,1,0,1,0,20899.4,0.194664,0.194314,58.9016,11,0.00992869,10,0.0114454,-1.22987,1.76922,0.033348,76.4178,0.194314,
2,1,0,1,0,20899.4,0.197866,0.197491,59.1049,11,0.0101648,10,0.0116727,-1.22838,2.90529,0.0203078,46.6801,0.197491,
2,1,0,1,0,20899.4,0.201062,0.200726,59.2068,11,0.0104014,10,0.0118843,-1.22763,10.3322,0.00571029,13.1453,0.200726,
2,1,0,1,0,20899.4,0.204269,0.203937,59.1995,11,0.0106383,10,0.0120729,-1.22768,-5.5812,-0.0105712,-24.3197,0.203937,
2,1,0,1,0,20899.4,0.207465,0.207123,59.07,11,0.0108748,10,0.0122348,-1.22863,-2.17032,-0.0271849,-62.3914,0.207123,
2,1,0,1,0,20899.4,0.210662,0.210373,58.7916,11,0.0111106,10,0.0123682,-1.23068,-1.30693,-0.045144,-103.133,0.210373,
2,1,0,1,0,20899.4,0.213866,0.213495,58.4101,11,0.011345,10,0.0124703,-1.23351,-0.941325,-0.0626776,-142.252,0.213495,
2,1,0,1,0,20899.4,0.217062,0.216725,57.8806,11,0.0115775,10,0.0125442,-1.23747,-0.726644,-0.0811951,-182.577,0.216725,
2,1,0,1,0,20899.4,0.220267,0.219927,57.2485,11,0.0118077,10,0.0125905,-1.24224,-0.592956,-0.0995014,-221.247,0.219927,
2,1,0,1,0,20899.4,0.223463,0.223152,56.4584,11,0.0120351,10,0.0125988,-1.24827,-0.503676,-0.117139,-256.995,0.223152,
2,1,0,1,0,20899.4,0.226659,0.22636,55.5637,11,0.0122591,10,0.0125774,-1.25521,-0.438119,-0.134667,-290.953,0.22636,
2,1,0,1,0,20899.4,0.229866,0.229554,54.5836,11,0.0124793,10,0.0125299,-1.26294,-0.391114,-0.150851,-320.181,0.229554,
2,1,0,1,0,20899.5,0.233062,0.232763,53.5141,11,0.0126954,10,0.0124561,-1.27153,-0.357995,-0.164807,-343.043,0.232763,
2,1,0,1,0,20899.5,0.236264,0.235941,52.3638,11,0.0129071,10,0.0123547,-1.28097,-0.329571,-0.17902,-364.818,0.235941,
2,1,0,1,0,20899.5,0.239466,0.239179,51.1662,11,0.0131141,10,0.0122379,-1.29102,-0.312856,-0.188585,-375.864,0.239179,
2,1,0,1,0,20899.5,0.242662,0.242339,49.9193,11,0.0133161,10,0.0120974,-1.30173,-0.298764,-0.19748,-384.27,0.242339,
2,1,0,1,0,20899.5,0.245869,0.24557,48.7002,11,0.0135132,10,0.0119593,-1.31247,-0.288935,-0.204198,-387.676,0.24557,
2,1,0,1,0,20899.5,0.249065,0.248763,47.4365,11,0.0137054,10,0.0118005,-1.32389,-0.284726,-0.207216,-383.472,0.2487631,
2,1,0,1,0,20899.5,0.252261,0.25196,46.2113,11,0.0138926,10,0.0116434,-1.33525,-0.278823,-0.211604,-381.721,0.25196,
2,1,0,1,0,20899.5,0.255466,0.255162,45.0023,11,0.0140749,10,0.0114828,-1.34677,-0.281468,-0.209616,-368.406,0.255162,
2,1,0,1,0,20899.5,0.258662,0.258325,43.8315,11,0.0142524,10,0.0113228,-1.35821,-0.282336,-0.208971,-357.893,0.258325,
2,1,0,1,0,20899.5,0.261866,0.261582,42.7139,11,0.0144254,10,0.0111732,-1.36943,-0.286241,-0.20612,-344.01,0.261582,
2,1,0,1,0,20899.5,0.265063,0.264746,41.6355,11,0.0145939,10,0.0110228,-1.38054,-0.29385,-0.200783,-326.754,0.264746,
2,1,0,1,0,20899.5,0.268259,0.26795,40.6029,11,0.0147583,10,0.0108795,-1.39144,-0.298834,-0.197434,-313.449,0.26795,
2,1,0,1,0,20899.5,0.271466,0.271159,39.6379,11,0.0149187,10,0.0107482,-1.40189,-0.310727,-0.189877,-294.33,0.2711589,
2,1,0,1,0,20899.5,0.274662,0.27435,38.7119,11,0.0150753,10,0.0106206,-1.41216,-0.321367,-0.183591,-277.97,0.27435,
2,1,0,1,0,20899.5,0.277869,0.277566,37.8621,11,0.0152284,10,0.0105092,-1.4218,-0.332371,-0.177513,-262.781,0.277566,
2,1,0,1,0,20899.5,0.281065,0.280757,37.0431,11,0.0153781,10,0.0104001,-1.43129,-0.347498,-0.169785,-245.902,0.280757,
2,1,0,1,0,20899.5,0.284262,0.283956,36.2751,11,0.0155246,10,0.0103005,-1.44039,-0.358758,-0.164456,-233.292,0.283956,
2,1,0,1,0,20899.5,0.287469,0.287191,35.5542,11,0.0156682,10,0.0102108,-1.44911,-0.374177,-0.157679,-219.222,0.287191,
2,1,0,1,0,20899.5,0.290665,0.290367,34.8757,11,0.015809,10,0.0101267,-1.45748,-0.3942,-0.14967,-204.165,0.2903671,
2,1,0,1,0,20899.5,0.293861,0.293532,34.2423,11,0.0159472,10,0.0100512,-1.46544,-0.411984,-0.14321,-192.114,0.293532,
2,1,0,1,0,20899.5,0.297066,0.296751,33.6628,11,0.0160829,10,0.00998947,-1.47285,-0.42355,-0.139299,-184.807,0.296751,
2,1,0,1,0,20899.5,0.299638,0.299346,33.2191,11,0.0161899,10,0.009944,-1.47861,-0.112087,-0.526376,-666.4,0.299346,
2,1,0,1,0,20899.5,0.300012,0.299823,33.1282,11,0.0162065,10,0.00993259,-1.4798,0.00890255,6.62732,7484.76,0.299823,
2,1,0,1,0,20899.5,0.298983,0.298846,30.7013,11,0.016247,10,0.00917495,-1.51284,0.0317416,1.85876,1890.93,0.2988461,
2,1,0,1,0,20899.5,0.295787,0.29555,24.6784,11,0.0163566,10,0.0072937,-1.60768,0.0342457,1.72284,1588.63,0.29555,
2,1,0,1,0,20899.5,0.292579,0.292367,20.0231,11,0.0164453,10,0.00585408,-1.69847,0.0340092,1.73483,1385.26,0.292367,
2,1,0,1,0,20899.5,0.289383,0.289132,16.1439,11,0.0165171,10,0.00466771,-1.79199,0.0322061,1.83195,1154.94,0.2891317,
2,1,0,1,0,20899.6,0.286187,0.285922,12.7978,11,0.0165745,10,0.00365916,-1.89287,0.0292171,2.01936,993.218,0.285922,
2,1,0,1,0,20899.6,0.282983,0.282723,9.86313,11,0.0166194,10,0.00278853,-2.00599,0.0251062,2.35001,871.121,0.282723,
2,1,0,1,0,20899.6,0.279786,0.279548,7.29077,11,0.0166534,10,0.00203812,-2.13723,0.0201581,2.92686,768.074,0.279548,
2,1,0,1,0,20899.6,0.276582,0.276325,4.98787,11,0.0166777,10,0.00137827,-2.30208,0.0135903,4.34134,682.537,0.276325,
2,1,0,1,0,20899.6,0.273386,0.273121,2.96547,11,0.0166933,10,0.00080993,-2.52791,0.0112945,5.22377,608.161,0.273121,
2,1,0,1,0,20899.6,0.27019,0.269925,1.12801,11,0.0167013,10,0.000304477,-2.94769,0.0327796,1.7999,546.869,0.269925,
2,0,0,1,0,20899.6,0.266982,0.266688,-0.529917,11,0.0167022,10,-0.000141323,-3.27579,-0.221821,-0.26598,495.545,0.266688,
2,0,0,1,0,20899.6,0.263786,0.2635,-2.02604,11,0.0166969,10,-0.000533861,-2.69335,-0.0209054,-2.82223,449.077,0.2635,
2,0,0,1,0,20899.6,0.260585,0.2603,-3.38757,11,0.0166859,10,-0.000881786,-2.47011,-0.0123796,-4.76589,406.822,0.2603,
2,0,0,1,0,20899.6,0.257383,0.257113,-4.6255,11,0.0166698,10,-0.00118928,-2.33484,-0.024368,-2.42121,372.706,0.257113,
2,0,0,1,0,20899.6,0.254187,0.253877,-5.74163,11,0.0166489,10,-0.00145767,-2.24096,-0.0354892,-1.66248,342.12,0.253877,
2,0,0,1,0,20899.6,0.25098,0.250678,-6.80465,11,0.0166237,10,-0.00170578,-2.16719,-0.0472864,-1.24771,312.941,0.250678,
2,0,0,1,0,20899.6,0.247783,0.247536,-7.75443,11,0.0165944,10,-0.0019195,-2.11045,-0.0591994,-0.996632,289.537,0.247536,
2,0,0,1,0,20899.6,0.244587,0.244272,-8.64381,11,0.0165615,10,-0.00211144,-2.06329,-0.072418,-0.814714,266.91,0.244272,
2,0,0,1,0,20899.6,0.241383,0.241057,-9.45359,11,0.0165252,10,-0.00227885,-2.0244,-0.0865447,-0.681729,246.136,0.241057,
2,0,0,1,0,20899.6,0.238187,0.237902,-10.2146,11,0.0164858,10,-0.00243009,-1.99078,-0.100271,-0.588405,230.735,0.237902,
2,0,0,1,0,20899.6,0.234982,0.234637,-10.9293,11,0.0164434,10,-0.00256442,-1.96141,-0.114807,-0.513906,216.099,0.234637,
2,0,0,1,0,20899.6,0.231786,0.231476,-11.5963,11,0.0163983,10,-0.00268426,-1.93568,-0.130738,-0.451285,201.814,0.231476,
2,0,0,1,0,20899.6,0.22859,0.228286,-12.2135,11,0.0163506,10,-0.00278817,-1.91316,-0.146901,-0.401632,189.608,0.228286,
2,0,0,1,0,20899.6,0.225383,0.225092,-12.8,11,0.0163005,10,-0.00288118,-1.89279,-0.162732,-0.36256,179.856,0.225092,
2,0,0,1,0,20899.6,0.222187,0.221901,-13.3442,11,0.0162481,10,-0.0029611,-1.87471,-0.180552,-0.326777,169.183,0.2219009,
2,0,0,1,0,20899.6,0.218979,0.218695,-13.895,11,0.0161936,10,-0.00303878,-1.85714,-0.198741,-0.296869,159.919,0.218695,
2,0,0,1,0,20899.6,0.215783,0.215495,-14.3775,11,0.016137,10,-0.00309827,-1.84232,-0.215562,-0.273704,152.8,0.215495,
2,0,0,1,0,20899.6,0.212587,0.21223,-14.8569,11,0.0160785,10,-0.00315307,-1.82807,-0.236227,-0.24976,144.287,0.21223,
2,0,0,1,0,20899.6,0.20938,0.209034,-15.3103,11,0.0160181,10,-0.00320037,-1.81502,-0.250785,-0.235261,140.076,0.209034,
2,0,0,1,0,20899.7,0.206184,0.205846,-15.749,11,0.0159559,10,-0.00324187,-1.80275,-0.26735,-0.220685,135.252,0.205846,
2,0,0,1,0,20899.7,0.202988,0.202697,-16.1702,11,0.015892,10,-0.00327764,-1.79129,-0.285961,-0.206322,129.829,0.202697,
2,0,0,1,0,20899.7,0.199783,0.19947,-16.5827,11,0.0158265,10,-0.00330774,-1.78035,-0.301763,-0.195517,126.236,0.1994701,
2,0,0,1,0,20899.7,0.196587,0.196287,-16.9653,11,0.0157593,10,-0.00333006,-1.77044,-0.323063,-0.182627,120.683,0.196287,
2,0,0,1,0,20899.7,0.193382,0.193046,-17.3648,11,0.0156907,10,-0.00335221,-1.76033,-0.336834,-0.175161,118.471,0.193046,
2,0,0,1,0,20899.7,0.190186,0.18987,-17.7181,11,0.0156204,10,-0.00336414,-1.75158,-0.348266,-0.169411,117.07,0.18987,
2,0,0,1,0,20899.7,0.18699,0.186657,-18.1006,11,0.0155488,10,-0.00337861,-1.74231,-0.36244,-0.162786,114.933,0.186657,
2,0,0,1,0,20899.7,0.183783,0.183435,-18.4699,11,0.0154756,10,-0.00338801,-1.73354,-0.366596,-0.16094,115.884,0.183435,
2,0,0,1,0,20899.7,0.180587,0.180233,-18.8374,11,0.0154009,10,-0.00339513,-1.72498,-0.379038,-0.155657,114.364,0.180233,
2,0,0,1,0,20899.7,0.17738,0.177068,-19.2017,11,0.0153248,10,-0.0034,-1.71666,-0.38224,-0.154353,115.651,0.177068,
2,0,0,1,0,20899.7,0.174183,0.173806,-19.5703,11,0.0152472,10,-0.00340144,-1.7084,-0.382366,-0.154302,117.905,0.173806,
2,0,0,1,0,20899.7,0.170987,0.170669,-19.9462,11,0.0151682,10,-0.0034042,-1.70014,-0.384483,-0.153453,119.531,0.170669,
2,0,0,1,0,20899.7,0.16778,0.167488,-20.3401,11,0.0150876,10,-0.00340673,-1.69165,-0.378582,-0.155845,123.774,0.167488,
2,0,0,1,0,20899.7,0.164584,0.164229,-20.7364,11,0.0150054,10,-0.00340551,-1.68327,-0.373992,-0.157757,127.765,0.164229,
2,0,0,1,0,20899.7,0.161382,0.161035,-21.1511,11,0.0149216,10,-0.00340606,-1.67467,-0.366077,-0.161168,133.237,0.1610346,
2,0,0,1,0,20899.7,0.158183,0.157888,-21.5791,11,0.0148361,10,-0.0034071,-1.66597,-0.352369,-0.167438,141.33,0.157888,
2,0,0,1,0,20899.7,0.154987,0.154669,-22.0481,11,0.0147488,10,-0.00341016,-1.65663,-0.336541,-0.175313,151.224,0.154669,
2,0,0,1,0,20899.7,0.151783,0.151433,-22.5449,11,0.0146596,10,-0.00341403,-1.64695,-0.322989,-0.182669,161.08,0.151433,
2,0,0,1,0,20899.7,0.148587,0.148264,-23.0823,11,0.0145683,10,-0.00342228,-1.63672,-0.305438,-0.193165,174.49,0.148264,
2,0,0,1,0,20899.7,0.145385,0.14508,-23.6424,11,0.0144748,10,-0.00343003,-1.62631,-0.28908,-0.204096,188.996,0.14508,
2,0,0,1,0,20899.7,0.142183,0.141878,-24.28,11,0.0143789,10,-0.0034448,-1.61475,-0.273238,-0.215929,205.407,0.141878,
2,0,0,1,0,20899.7,0.138987,0.1387,-24.9512,11,0.0142804,10,-0.00346074,-1.60291,-0.257536,-0.229094,223.962,0.1387,
2,0,0,1,0,20899.7,0.13578,0.135449,-25.7146,11,0.014179,10,-0.00348302,-1.58982,-0.244711,-0.241101,242.803,0.135449,
2,0,0,1,0,20899.7,0.132584,0.13227,-26.5113,11,0.0140745,10,-0.00350664,-1.57657,-0.231406,-0.254963,264.791,0.13227,
2,0,0,1,0,20899.7,0.129388,0.129065,-27.391,11,0.0139666,10,-0.00353523,-1.56239,-0.220997,-0.266972,286.48,0.129065,
2,0,0,1,0,20899.8,0.12618,0.125892,-28.3428,11,0.013855,10,-0.00356812,-1.54756,-0.211733,-0.278653,309.232,0.125892,
2,0,0,1,0,20899.8,0.122984,0.122734,-29.3573,11,0.0137396,10,-0.00360313,-1.53228,-0.204588,-0.288384,331.565,0.122734,
2,0,0,1,0,20899.8,0.119783,0.119532,-30.4501,11,0.0136199,10,-0.00363978,-1.51641,-0.200588,-0.294135,350.368,0.119532,
2,0,0,1,0,20899.8,0.116584,0.116278,-31.6308,11,0.0134956,10,-0.00367797,-1.49989,-0.199636,-0.295538,364.968,0.116278,
2,0,0,1,0,20899.8,0.113387,0.113141,-32.8101,11,0.0133666,10,-0.00371218,-1.48399,-0.199958,-0.295062,377.854,0.113141,
2,0,0,1,0,20899.8,0.110183,0.109891,-34.0444,11,0.0132328,10,-0.00374118,-1.46795,-0.203287,-0.29023,385.513,0.1098912,
2,0,0,1,0,20899.8,0.106987,0.10671,-35.2951,11,0.013094,10,-0.00376634,-1.45229,-0.208656,-0.282763,388.968,0.10671,
2,0,0,1,0,20899.8,0.103785,0.103494,-36.5593,11,0.0129502,10,-0.00378366,-1.437,-0.21517,-0.274202,390.481,0.103494,
2,0,0,1,0,20899.8,0.100583,0.100306,-37.8026,11,0.0128013,10,-0.00379183,-1.42248,-0.223977,-0.26342,387.836,0.100306,
2,0,0,1,0,20899.8,0.0973873,0.0970762,-39.0484,11,0.0126475,10,-0.00379067,-1.4084,-0.235542,-0.250486,380.519,0.0970762,
2,0,0,1,0,20899.8,0.0941801,0.093896,-40.2648,11,0.0124887,10,-0.00378071,-1.39507,-0.247357,-0.238522,373.589,0.093896,
2,0,0,1,0,20899.8,0.0909839,0.0907975,-41.3905,11,0.0123253,10,-0.00375815,-1.3831,-0.257925,-0.228749,369.201,0.0907975,
2,0,0,1,0,20899.8,0.0877878,0.0875792,-42.5572,11,0.0121572,10,-0.00372713,-1.37103,-0.274549,-0.214898,356.428,0.0875792,
2,0,0,1,0,20899.8,0.0845806,0.0843333,-43.7531,11,0.0119845,10,-0.00368985,-1.35899,-0.287345,-0.205328,349.36,0.0843333,
2,0,0,1,0,20899.8,0.0813844,0.081133,-44.814,11,0.0118072,10,-0.00363589,-1.34859,-0.306057,-0.192774,336.164,0.081133,
2,0,0,1,0,20899.8,0.0781828,0.0779422,-45.8816,11,0.0116257,10,-0.00357611,-1.33836,-0.330783,-0.178365,318.528,0.0779422,
2,0,0,1,0,20899.8,0.0749839,0.0747271,-46.8777,11,0.0114401,10,-0.00350303,-1.32903,-0.35424,-0.166554,303.747,0.0747271,
2,0,0,1,0,20899.8,0.0717877,0.0715501,-47.8249,11,0.0112506,10,-0.00342188,-1.32035,-0.384386,-0.153492,285.637,0.0715501,
2,0,0,1,0,20899.8,0.0685832,0.0683402,-48.6997,11,0.0110574,10,-0.00332815,-1.31247,-0.416425,-0.141682,268.55,0.0683402,
2,0,0,1,0,20899.8,0.0653871,0.0651643,-49.5314,11,0.0108609,10,-0.00322768,-1.30512,-0.454856,-0.129712,250.103,0.06516432,
2,0,0,1,0,20899.8,0.0621854,0.0619916,-50.2978,11,0.0106611,10,-0.00311804,-1.29845,-0.497411,-0.118614,232.257,0.0619916,
2,0,0,1,0,20899.8,0.0589837,0.0587711,-51.021,11,0.0104584,10,-0.00299856,-1.29225,-0.545702,-0.108118,214.771,0.05877113,
2,0,0,1,0,20899.8,0.0557876,0.0555284,-51.6754,11,0.0102529,10,-0.00286945,-1.28672,-0.611382,-0.0965027,194.103,0.0555284,
2,0,0,1,0,20899.8,0.0525804,0.0523069,-52.2928,11,0.0100449,10,-0.00273528,-1.28156,-0.69302,-0.0851347,173.201,0.0523069,
2,0,0,1,0,20899.8,0.0493842,0.0491066,-52.7988,11,0.0098346,10,-0.00259277,-1.27738,-0.78821,-0.0748532,153.827,0.0491066,
2,0,0,1,0,20899.9,0.0461881,0.0458851,-53.2529,11,0.00962244,10,-0.00244351,-1.27366,-0.919253,-0.0641825,133.107,0.0458851,
2,0,0,1,0,20899.9,0.0429808,0.0426816,-53.6515,11,0.00940856,10,-0.00228993,-1.27042,-1.07478,-0.0548948,114.685,0.0426816,
2,0,0,1,0,20899.9,0.0397847,0.0395141,-53.9956,11,0.00919324,10,-0.00213359,-1.26764,-1.2671,-0.0465632,97.9115,0.0395141,
2,0,0,1,0,20899.9,0.036583,0.0362672,-54.2713,11,0.00897667,10,-0.00196827,-1.26543,-1.55033,-0.0380563,80.448,0.03626718,
2,0,0,1,0,20899.9,0.0333841,0.0330255,-54.512,11,0.00875907,10,-0.00180029,-1.26351,-1.87138,-0.0315275,66.9642,0.0330255,
2,0,0,1,0,20899.9,0.030188,0.029857,-54.6833,11,0.00854065,10,-0.00163268,-1.26215,-2.33857,-0.0252291,53.7748,0.029857,
2,0,0,1,0,20899.9,0.0269835,0.0266907,-54.8544,11,0.00832154,10,-0.0014641,-1.26079,-2.98334,-0.0197765,42.2808,0.0266907,
2,0,0,1,0,20899.9,0.0237874,0.0234532,-54.9604,11,0.00810188,10,-0.001289,-1.25995,-3.8985,-0.015134,32.4199,0.0234532,
2,0,0,1,0,20899.9,0.0205857,0.0202741,-55.0511,11,0.00788184,10,-0.00111611,-1.25923,-6.03208,-0.00978103,20.9904,0.0202741,
2,0,0,1,0,20899.9,0.017384,0.0170929,-55.0971,11,0.00766151,10,-0.000941769,-1.25887,-9.26556,-0.00636767,13.68,0.0170929,
2,0,0,1,0,20899.9,0.0141879,0.0138884,-55.1231,11,0.00744104,10,-0.000765569,-1.25867,-24.6343,-0.00239504,5.14875,0.0138884,
2,0,0,1,0,20899.9,0.0109806,0.010652,-55.1355,11,0.0072205,10,-0.000587303,-1.25857,62.5635,0.000943042,-2.02731,0.010652,
2,0,0,1,0,20899.9,0.00778448,0.00748139,-55.117,11,0.00699998,10,-0.000412351,-1.25871,30.5709,0.00192994,-4.14982,0.00748139,
2,0,0,1,0,20899.9,0.00458834,0.00426518,-55.0711,11,0.00677959,10,-0.000234888,-1.25908,9.03949,0.00652692,-14.0215,0.00426518,
2,0,0,1,0,20899.9,0.0013811,0.00101397,-55.0697,11,0.00655934,10,-5.5839e-05,-1.25909,6.29813,0.00936786,-20.1034,0.00101397,
2,0,0,1,0,20899.9,-0.00181504,-0.00217998,-54.9556,11,0.00633931,10,0.000119802,-1.25999,4.44403,0.0132762,-28.4391,-0.00217998,
2,0,0,1,0,20899.9,-0.0050195,-0.00536544,-54.8587,11,0.00611972,10,0.000294341,-1.26075,3.13532,0.0188179,-40.2542,-0.00536544,
2,0,0,1,0,20899.9,-0.00821564,-0.00860074,-54.7052,11,0.0059006,10,0.000470505,-1.26197,2.68518,0.0219725,-46.8679,-0.00860074,
2,0,0,1,0,20899.9,-0.0114118,-0.0117555,-54.5556,11,0.0056821,10,0.000641326,-1.26316,2.1948,0.0268817,-57.1684,-0.01175545,
2,0,0,1,0,20899.9,-0.0146162,-0.0149674,-54.3562,11,0.00546428,10,0.000813573,-1.26475,1.96177,0.0300749,-63.73,-0.0149674,
2,0,0,1,0,20899.9,-0.0178124,-0.0181518,-54.1277,11,0.00524731,10,0.000982517,-1.26658,1.69358,0.0348374,-73.5318,-0.0181518,
2,0,0,1,0,20899.9,-0.0210196,-0.0213797,-53.8908,11,0.00503129,10,0.00115217,-1.26849,1.49812,0.0393827,-82.7275,-0.0213797,
2,0,0,1,0,20899.9,-0.0242158,-0.0245556,-53.6144,11,0.0048163,10,0.00131654,-1.27072,1.36912,0.0430935,-90.0571,-0.0245556,
2,0,0,1,0,20899.9,-0.0274119,-0.0277782,-53.2964,11,0.00460249,10,0.00148048,-1.2733,1.21812,0.0484352,-100.646,-0.0277782,
2,0,0,1,0,20899.9,-0.0306191,-0.0309817,-52.9723,11,0.00438997,10,0.00164117,-1.27595,1.14116,0.0517019,-106.797,-0.0309817,
2,0,0,1,0,20900,-0.0338153,-0.0341799,-52.6025,11,0.00417884,10,0.00179795,-1.27899,1.07651,0.0548065,-112.449,-0.0341799,
2,0,0,1,0,20900,-0.037017,-0.0373494,-52.2481,11,0.00396919,10,0.00195144,-1.28193,1.02577,0.0575176,-117.213,-0.0373494,
2,0,0,1,0,20900,-0.0402187,-0.04059,-51.8557,11,0.00376102,10,0.00210483,-1.2852,0.996679,0.0591966,-119.743,-0.04059,
2,0,0,1,0,20900,-0.0434148,-0.0438073,-51.469,11,0.00355442,10,0.00225472,-1.28845,0.960803,0.061407,-123.306,-0.0438073,
2,0,0,1,0,20900,-0.0466193,-0.0470034,-51.067,11,0.0033494,10,0.00240032,-1.29186,0.946183,0.0623558,-124.254,-0.0470034,
2,0,0,1,0,20900,-0.0498154,-0.0501973,-50.6639,11,0.003146,10,0.00254319,-1.2953,0.955633,0.0617392,-122.131,-0.0501973,
2,0,0,1,0,20900,-0.0530115,-0.053352,-50.27,11,0.00294417,10,0.00268201,-1.29869,0.974176,0.060564,-118.9,-0.053352,
2,0,0,1,0,20900,-0.056216,-0.0565354,-49.9145,11,0.00274383,10,0.00282193,-1.30177,1.01564,0.0580917,-113.217,-0.0565354,
2,0,0,1,0,20900,-0.0594121,-0.0597707,-49.5489,11,0.00254493,10,0.00296157,-1.30497,1.0581,0.0557605,-107.886,-0.0597707,
2,0,0,1,0,20900,-0.0626194,-0.0629487,-49.2202,11,0.00234746,10,0.00309835,-1.30786,1.10487,0.0534001,-102.647,-0.0629487,
2,0,0,1,0,20900,-0.0658155,-0.0661533,-48.8889,11,0.00215126,10,0.00323416,-1.31079,1.19938,0.0491923,-93.9665,-0.0661533,
2,0,0,1,0,20900,-0.0690117,-0.0693493,-48.5992,11,0.00195631,10,0.00337032,-1.31337,1.30291,0.0452833,-86.005,-0.0693493,
2,0,0,1,0,20900,-0.0722189,-0.0725624,-48.3469,11,0.00176244,10,0.00350817,-1.31563,1.45382,0.0405827,-76.6491,-0.0725624,
2,0,0,1,0,20900,-0.075415,-0.0757956,-48.1153,11,0.00156955,10,0.00364692,-1.31772,1.63419,0.0361035,-67.8582,-0.0757956,
2,0,0,1,0,20900,-0.0786167,-0.0789916,-47.9049,11,0.00137755,10,0.00378408,-1.31962,1.82549,0.0323202,-60.4914,-0.0789916,
2,0,0,1,0,20900,-0.0818184,-0.0822428,-47.7242,11,0.00118631,10,0.00392497,-1.32126,2.15486,0.0273799,-51.0641,-0.0822428,
2,0,0,1,0,20900,-0.0850146,-0.0854028,-47.5702,11,0.00099574,10,0.00406263,-1.32267,2.55275,0.0231123,-42.9626,-0.0854028,
2,0,0,1,0,20900,-0.088219,-0.0885798,-47.4625,11,0.0008057,10,0.00420422,-1.32365,3.17175,0.0186017,-34.4869,-0.0885798,
2,0,0,1,0,20900,-0.0914152,-0.0917547,-47.3566,11,0.000616081,10,0.00434519,-1.32462,4.19781,0.0140549,-26.0022,-0.0917547,
2,0,0,1,0,20900,-0.0946141,-0.094955,-47.2858,11,0.000426813,10,0.00449002,-1.32527,5.9275,0.00995361,-18.3916,-0.094955,
2,0,0,1,0,20900,-0.0978158,-0.0981468,-47.2388,11,0.000237747,10,0.00463634,-1.3257,11.2331,0.00525233,-9.69451,-0.0981468,
2,0,0,1,0,20900,-0.101012,-0.101333,-47.2279,11,4.8831e-05,10,0.00478576,-1.3258,65.9815,0.00089419,-1.64978,-0.101333,
2,0,0,1,0,20900,-0.104219,-0.10457,-47.2323,11,-0.000140085,10,0.00493907,-1.32576,-20.9937,-0.00281037,5.1848,-0.10457,
2,0,0,1,0,20900,-0.107415,-0.107785,-47.2647,11,-0.00032909,10,0.00509441,-1.32546,-8.49909,-0.00694192,12.8174,-0.107785,
2,0,0,1,0,20900,-0.110611,-0.110974,-47.3053,11,-0.000518229,10,0.00524964,-1.32509,-5.6117,-0.0105137,19.4313,-0.1109735,
2,0,0,1,0,20900.1,-0.113819,-0.114194,-47.3927,11,-0.000707639,10,0.00541196,-1.32429,-4.0217,-0.0146704,27.1608,-0.114194,
2,0,0,1,0,20900.1,-0.117015,-0.117383,-47.4813,11,-0.000897397,10,0.00557348,-1.32348,-3.18389,-0.0185308,34.3702,-0.117383,
2,0,0,1,0,20900.1,-0.120216,-0.120642,-47.6139,11,-0.00108758,10,0.00574425,-1.32227,-2.7749,-0.021262,39.5351,-0.120642,
2,0,0,1,0,20900.1,-0.123418,-0.123785,-47.7457,11,-0.0012783,10,0.00591021,-1.32107,-2.40212,-0.0245616,45.7934,-0.123785,
2,0,0,1,0,20900.1,-0.126614,-0.126962,-47.8975,11,-0.00146958,10,0.00608118,-1.31969,-2.18187,-0.027041,50.5866,-0.1269623,
2,0,0,1,0,20900.1,-0.129819,-0.130147,-48.0658,11,-0.00166152,10,0.00625561,-1.31816,-2.00188,-0.0294723,55.3244,-0.130147,
2,0,0,1,0,20900.1,-0.133015,-0.133352,-48.2568,11,-0.00185417,10,0.00643516,-1.31644,-1.82723,-0.0322892,60.8472,-0.133352,
2,0,0,1,0,20900.1,-0.136214,-0.136602,-48.4548,11,-0.00204762,10,0.00661904,-1.31466,-1.74589,-0.0337937,63.9302,-0.136602,
2,0,0,1,0,20900.1,-0.139416,-0.139756,-48.676,11,-0.00224191,10,0.00680277,-1.31269,-1.63055,-0.0361841,68.7653,-0.139756,
2,0,0,1,0,20900.1,-0.142612,-0.142945,-48.884,11,-0.00243705,10,0.00698771,-1.31083,-1.57743,-0.0374027,71.3939,-0.142945,
2,0,0,1,0,20900.1,-0.145819,-0.146147,-49.1367,11,-0.00263311,10,0.00718119,-1.30859,-1.54201,-0.0382618,73.3834,-0.146147,
2,0,0,1,0,20900.1,-0.149015,-0.149385,-49.3673,11,-0.00283014,10,0.00737472,-1.30656,-1.49167,-0.0395531,76.2127,-0.1493846,
2,0,0,1,0,20900.1,-0.152211,-0.152545,-49.6145,11,-0.00302814,10,0.00756842,-1.30439,-1.50164,-0.0392903,76.0903,-0.152545,
2,0,0,1,0,20900.1,-0.155418,-0.1558,-49.8637,11,-0.00322715,10,0.00776877,-1.30222,-1.47684,-0.0399502,77.7425,-0.1558,
2,0,0,1,0,20900.1,-0.158615,-0.158963,-50.1119,11,-0.00342712,10,0.00796594,-1.30006,-1.44786,-0.0407499,79.7137,-0.158963,
2,0,0,1,0,20900.1,-0.161816,-0.162171,-50.3614,11,-0.00362809,10,0.00816716,-1.2979,-1.47676,-0.0399522,78.5268,-0.162171,
2,0,0,1,0,20900.1,-0.165018,-0.165363,-50.6363,11,-0.00383011,10,0.00837335,-1.29554,-1.46243,-0.0403437,79.7017,-0.165363,
2,0,0,1,0,20900.1,-0.168214,-0.168563,-50.866,11,-0.00403314,10,0.00857413,-1.29357,-1.50508,-0.0392007,77.8043,-0.168563,
2,0,0,1,0,20900.1,-0.171419,-0.171774,-51.1329,11,-0.00423716,10,0.0087833,-1.2913,-1.54265,-0.0382459,76.3045,-0.171774,
2,0,0,1,0,20900.1,-0.174615,-0.17494,-51.3549,11,-0.00444215,10,0.00898405,-1.28942,-1.51976,-0.0388218,77.8156,-0.17494,
2,0,0,1,0,20900.1,-0.177814,-0.178117,-51.6095,11,-0.00464811,10,0.00919255,-1.28727,-1.58209,-0.0372925,75.116,-0.178117,
2,0,0,1,0,20900.1,-0.181015,-0.181307,-51.8577,11,-0.00485509,10,0.00940216,-1.28519,-1.57054,-0.0375667,76.0031,-0.181307,
2,0,0,1,0,20900.1,-0.184211,-0.184558,-52.0932,11,-0.00506303,10,0.00961423,-1.28322,-1.61544,-0.0365226,74.2381,-0.1845583,
2,0,0,1,0,20900.1,-0.187419,-0.187744,-52.328,11,-0.0052719,10,0.00982426,-1.28127,-1.68628,-0.0349882,71.4351,-0.187744,
2,0,0,1,0,20900.1,-0.190615,-0.190928,-52.5605,11,-0.00548171,10,0.0100353,-1.27934,-1.64805,-0.0357999,73.4357,-0.190928,
2,0,0,1,0,20900.2,-0.193811,-0.194149,-52.775,11,-0.00569242,10,0.0102462,-1.27757,-1.71919,-0.0343185,70.6634,-0.194149,
2,0,0,1,0,20900.2,-0.197018,-0.197332,-53.0312,11,-0.00590408,10,0.0104648,-1.27547,-1.98476,-0.0297265,61.3174,-0.197332,
2,0,0,1,0,20900.2,-0.199647,-0.199998,-53.1939,11,-0.00607938,10,0.0106387,-1.27414,0.271578,0.217249,-437.594,-0.199998,
2,0,0,1,0,20900.2,-0.200134,-0.200513,-53.1483,11,-0.0061113,10,0.0106569,-1.27451,-0.0147797,-3.99197,7570.49,-0.200513,
2,0,0,1,1,20900.2,-0.198935,-0.199425,-50.466,11,-0.0061882,10,0.0100642,-1.297,-0.0546862,-1.07888,1939.41,-0.199425,
2,0,0,1,1,20900.2,-0.195739,-0.196193,-44.4095,11,-0.00637687,10,0.00871284,-1.35252,-0.0612101,-0.963893,1644.12,-0.1961931,
2,0,0,1,1,20900.2,-0.192535,-0.192986,-39.5959,11,-0.00654416,10,0.00764147,-1.40235,-0.0640183,-0.921611,1453.29,-0.192986,
2,0,0,1,1,20900.2,-0.189339,-0.189751,-35.4542,11,-0.00669371,10,0.00672748,-1.45033,-0.0664188,-0.888303,1242.41,-0.1897511,
2,0,0,1,1,20900.2,-0.186137,-0.186568,-31.7804,11,-0.00682771,10,0.00592919,-1.49784,-0.0665155,-0.887012,1106.54,-0.186568,
2,0,0,1,1,20900.2,-0.182935,-0.183345,-28.4471,11,-0.00694774,10,0.00521564,-1.54596,-0.0650871,-0.906477,1008.49,-0.183345,
2,0,0,1,1,20900.2,-0.179739,-0.180143,-25.3839,11,-0.00705503,10,0.00457272,-1.59544,-0.0631095,-0.934883,925.691,-0.180143,
2,0,0,1,1,20900.2,-0.176532,-0.176938,-22.5326,11,-0.00715052,10,0.00398687,-1.64719,-0.0601846,-0.980318,860.099,-0.176938,
2,0,0,1,1,20900.2,-0.173336,-0.173721,-19.8881,11,-0.00723505,10,0.00345499,-1.70141,-0.0563819,-1.04643,807.576,-0.173721,
2,0,0,1,1,20900.2,-0.17014,-0.170517,-17.414,11,-0.00730938,10,0.00296939,-1.7591,-0.0523323,-1.12741,758.01,-0.170517,
2,0,0,1,1,20900.2,-0.166932,-0.167358,-15.0596,11,-0.00737403,10,0.00252035,-1.82219,-0.0475077,-1.24191,718.642,-0.1673585,
2,0,0,1,1,20900.2,-0.163736,-0.164137,-12.8291,11,-0.00742957,10,0.00210573,-1.8918,-0.0423625,-1.39274,682.389,-0.164137,
2,0,0,1,1,20900.2,-0.160532,-0.160946,-10.7077,11,-0.00747641,10,0.00172336,-1.9703,-0.0368262,-1.60212,648.632,-0.160946,
2,0,0,1,1,20900.2,-0.157336,-0.157742,-8.69593,11,-0.00751499,10,0.00137171,-2.06068,-0.0307713,-1.91737,617.728,-0.157742,
2,0,0,1,1,20900.2,-0.154139,-0.154591,-6.77833,11,-0.00754572,10,0.00104787,-2.16888,-0.0240203,-2.45626,592.782,-0.1545912,
2,0,0,1,1,20900.2,-0.150935,-0.15134,-4.92405,11,-0.00756892,10,0.000745206,-2.30768,-0.016399,-3.59778,567.482,-0.15134,
2,0,0,1,1,20900.2,-0.147739,-0.148212,-3.15895,11,-0.00758488,10,0.000468194,-2.50046,-0.00819389,-7.20049,542.733,-0.148212,
2,0,0,1,1,20900.2,-0.144532,-0.144967,-1.44651,11,-0.0075939,10,0.000209696,-2.83968,-0.028529,-2.06807,523.247,-0.144967,
2,0,0,1,1,20900.2,-0.141335,-0.141762,0.184276,11,-0.00759624,10,-2.61234e-05,-3.73453,0.745031,0.0791913,500.653,-0.141762,
2,1,0,1,1,20900.2,-0.138139,-0.138572,1.75697,11,-0.0075922,10,-0.000243466,-2.75524,0.0247493,2.38391,484.805,-0.138572,
2,1,0,1,1,20900.2,-0.134932,-0.135336,3.28719,11,-0.00758193,10,-0.000444877,-2.48317,0.00834647,7.06885,471.061,-0.135336,
2,1,0,1,1,20900.2,-0.131736,-0.132169,4.75805,11,-0.00756568,10,-0.000628866,-2.32257,0.0201734,2.92465,454.174,-0.1321689,
2,1,0,1,1,20900.2,-0.12854,-0.129028,6.18298,11,-0.00754363,10,-0.000797777,-2.2088,0.0294332,2.00454,440.671,-0.129028,
2,1,0,1,1,20900.3,-0.125333,-0.125778,7.56758,11,-0.00751597,10,-0.000951834,-2.12104,0.0384608,1.53403,427.518,-0.125778,
2,1,0,1,1,20900.3,-0.122136,-0.122614,8.89374,11,-0.00748291,10,-0.00109049,-2.05092,0.0477098,1.23664,413.136,-0.122614,
2,1,0,1,1,20900.3,-0.118932,-0.119413,10.2113,11,-0.00744458,10,-0.00121937,-1.99092,0.0566717,1.04108,403.078,-0.119413,
2,1,0,1,1,20900.3,-0.115736,-0.116206,11.4804,11,-0.00740107,10,-0.00133408,-1.94004,0.0657936,0.896744,392.692,-0.116206,
2,1,0,1,1,20900.3,-0.11254,-0.113002,12.7172,11,-0.00735254,10,-0.00143707,-1.89561,0.0757535,0.778842,379.599,-0.113002,
2,1,0,1,1,20900.3,-0.109335,-0.109809,13.9219,11,-0.00729911,10,-0.00152876,-1.8563,0.0853148,0.691557,370.137,-0.109809,
2,1,0,1,1,20900.3,-0.106139,-0.106583,15.0815,11,-0.00724098,10,-0.00160744,-1.82155,0.0956348,0.61693,358.848,-0.106583,
2,1,0,1,1,20900.3,-0.102932,-0.103399,16.2205,11,-0.00717826,10,-0.00167719,-1.78993,0.106101,0.556071,348.466,-0.103399,
2,1,0,1,1,20900.3,-0.0997357,-0.100151,17.3288,11,-0.00711105,10,-0.0017355,-1.76123,0.116266,0.507459,340.113,-0.100151,
2,1,0,1,1,20900.3,-0.0965395,-0.0969581,18.4001,11,-0.00703946,10,-0.00178404,-1.73518,0.127404,0.463095,329.888,-0.0969581,
2,1,0,1,1,20900.3,-0.0933323,-0.0937376,19.4505,11,-0.00696363,10,-0.00182325,-1.71107,0.138584,0.425736,320.907,-0.0937376,
2,1,0,1,1,20900.3,-0.0901361,-0.0905829,20.4484,11,-0.00688373,10,-0.00185228,-1.68934,0.15002,0.393281,312.123,-0.0905829,
2,1,0,1,1,20900.3,-0.0869345,-0.0873222,21.4457,11,-0.00679985,10,-0.00187268,-1.66866,0.161696,0.364883,303.802,-0.0873222,
2,1,0,1,1,20900.3,-0.0837328,-0.0841346,22.4026,11,-0.00671205,10,-0.00188483,-1.6497,0.173143,0.340758,296.506,-0.0841346,
2,1,0,1,1,20900.3,-0.0805366,-0.0809502,23.3354,11,-0.00662048,10,-0.001889,-1.63199,0.185917,0.317346,287.789,-0.0809502,
2,1,0,1,1,20900.3,-0.0773322,-0.0777573,24.2513,11,-0.00652521,10,-0.00188572,-1.61527,0.199138,0.296276,279.234,-0.0777573,
2,1,0,1,1,20900.3,-0.074136,-0.0745368,25.1251,11,-0.00642638,10,-0.00187275,-1.59989,0.211617,0.278805,272.486,-0.0745368,
2,1,0,1,1,20900.3,-0.0709371,-0.0713058,25.9848,11,-0.00632406,10,-0.00185287,-1.58528,0.225121,0.262082,264.975,-0.0713058,
2,1,0,1,1,20900.3,-0.0677354,-0.0681214,26.831,11,-0.00621834,10,-0.00182777,-1.57136,0.237784,0.248125,259.002,-0.0681214,
2,1,0,1,1,20900.3,-0.0645393,-0.0649879,27.6349,11,-0.00610931,10,-0.00179593,-1.55854,0.253143,0.23307,250.647,-0.0649879,
2,1,0,1,1,20900.3,-0.061332,-0.0617515,28.4366,11,-0.0059971,10,-0.001756,-1.54612,0.269169,0.219194,242.542,-0.0617515,
2,1,0,1,1,20900.3,-0.0581359,-0.0585236,29.1886,11,-0.00588176,10,-0.00170823,-1.53479,0.284902,0.207089,235.366,-0.05852364,
2,1,0,1,1,20900.3,-0.0549398,-0.0553403,29.931,11,-0.00576345,10,-0.00165639,-1.52388,0.300933,0.196057,228.588,-0.0553403,
2,1,0,1,1,20900.3,-0.0517325,-0.0521273,30.6618,11,-0.00564216,10,-0.00159832,-1.5134,0.316033,0.18669,222.889,-0.0521273,
2,1,0,1,1,20900.3,-0.0485364,-0.0489577,31.3611,11,-0.00551804,10,-0.00153537,-1.50361,0.334665,0.176296,215.278,-0.0489577,
2,1,0,1,1,20900.4,-0.0453347,-0.0457351,32.039,11,-0.00539117,10,-0.00146531,-1.49432,0.355202,0.166103,207.228,-0.0457351,
2,1,0,1,1,20900.4,-0.042133,-0.0425348,32.6877,11,-0.00526166,10,-0.00139037,-1.48562,0.373692,0.157884,201.062,-0.0425348,
2,1,0,1,1,20900.4,-0.0389369,-0.0393494,33.3098,11,-0.0051296,10,-0.00131072,-1.47743,0.396341,0.148862,193.237,-0.0393494,
2,1,0,1,1,20900.4,-0.0357324,-0.0361586,33.9345,11,-0.00499507,10,-0.00122702,-1.46936,0.417109,0.14145,186.964,-0.0361586,
2,1,0,1,1,20900.4,-0.0325363,-0.0329222,34.515,11,-0.0048581,10,-0.00113631,-1.46199,0.444132,0.132843,178.574,-0.0329222,
2,1,0,1,1,20900.4,-0.0293374,-0.0297569,35.0767,11,-0.00471887,10,-0.00104378,-1.45498,0.472561,0.124852,170.629,-0.0297569,
2,1,0,1,1,20900.4,-0.0261357,-0.0265015,35.6041,11,-0.00457743,10,-0.00094356,-1.4485,0.496648,0.118796,164.877,-0.0265015,
2,1,0,1,1,20900.4,-0.0229395,-0.0233202,36.1251,11,-0.00443392,10,-0.000842446,-1.44219,0.526523,0.112056,157.78,-0.0233202,
2,1,0,1,1,20900.4,-0.0197323,-0.0200881,36.631,11,-0.00428835,10,-0.000735849,-1.43615,0.551764,0.10693,152.6,-0.0200881,
2,1,0,1,1,20900.4,-0.0165361,-0.0169324,37.1002,11,-0.00414083,10,-0.000628194,-1.43062,0.586498,0.100597,145.446,-0.0169324,
2,1,0,1,1,20900.4,-0.01334,-0.013766,37.5475,11,-0.00399147,10,-0.000516878,-1.42542,0.628633,0.0938544,137.355,-0.013766,
2,1,0,1,1,20900.4,-0.0101328,-0.010537,37.9844,11,-0.00384034,10,-0.000400243,-1.4204,0.666652,0.0885019,131.015,-0.010537,
2,1,0,1,1,20900.4,-0.00693663,-0.00734098,38.3819,11,-0.00368755,10,-0.000281761,-1.41587,0.707545,0.0833869,124.732,-0.007340976,
2,1,0,1,1,20900.4,-0.00373494,-0.00414173,38.776,11,-0.00353321,10,-0.000160599,-1.41144, , , ,-0.00414173,
2,1,0,1,1,20900.4,-0.000774628,-0.00116517,39.1192,11,-0.00338907,10,-4.55804e-05,-1.40761, , , ,-0.00116517,
2,1,0,0,1,20900.4,-0.000125413,-0.000458935,39.2093,11,-0.00335775,10,-1.79945e-05,-1.40661, , , ,-0.000458935,