File: Figure_codes/Fig_3-5/rawdata_trumpetplot_data/after 10th/20221101_1-115_003_TrumpetPlot_ParaChange_from10_every3_12_CV_C01_17.csv
mode,ox/red,error,control changes,counter inc.,time/s,control/V,Ewe/V,<I>/mA,cycle number,(Q-Qo)/C,I Range,P/W,log(|I|),Tafel slope mV/dec,alpha_eff,dI/d(E-IR),E-IR/V,
2,1,0,1,0,34688.7,2.44065e-05,-0.000363498,15.8129,18,0.0000000E+000,10,-5.74794e-06,-1.80099, , , ,-0.000363498,
2,1,0,1,0,34688.7,0.00200257,0.0016184,16.7541,18,5.08974e-05,10,2.71148e-05,-1.77588, , , ,0.0016184,
2,1,0,1,0,34688.7,0.004408,0.00408385,17.5679,18,0.000119696,10,7.17448e-05,-1.75528, , , ,0.00408385,
2,1,0,1,0,34688.7,0.0068051,0.0065143,18.2071,18,0.000191338,10,0.000118606,-1.73976,0.15552,0.379374,266.622,0.0065143,
2,1,0,1,0,34688.8,0.00920221,0.00886098,18.795,18,0.000265426,10,0.000166542,-1.72596,0.182545,0.323207,235.53,0.00886098,
2,1,0,1,0,34688.8,0.0115993,0.0112533,19.3229,18,0.000341739,10,0.000217446,-1.71393,0.204187,0.288951,216.788,0.0112533,
2,1,0,1,0,34688.8,0.0140075,0.0136551,19.8223,18,0.000420085,10,0.000270674,-1.70285,0.228475,0.258234,198.876,0.0136551,
2,1,0,1,0,34688.8,0.0164046,0.0160696,20.2785,18,0.000500328,10,0.000325868,-1.69296,0.247877,0.238021,187.757,0.0160696,
2,1,0,1,0,34688.8,0.0188017,0.0184545,20.7029,18,0.00058235,10,0.000382061,-1.68397,0.26956,0.218875,176.469,0.0184545,
2,1,0,1,0,34688.8,0.0212099,0.0208701,21.1286,18,0.000666059,10,0.000440955,-1.67513,0.293126,0.201279,165.487,0.02087008,
2,1,0,1,0,34688.8,0.023607,0.0232687,21.5188,18,0.000751394,10,0.000500714,-1.66718,0.310707,0.189889,159.025,0.0232687,
2,1,0,1,0,34688.8,0.0260041,0.0257204,21.8756,18,0.000838224,10,0.000562649,-1.66004,0.332082,0.177667,151.498,0.0257204,
2,1,0,1,0,34688.8,0.0284012,0.0280734,22.2325,18,0.00092647,10,0.000624143,-1.65301,0.35156,0.167824,145.465,0.0280734,
2,1,0,1,0,34688.8,0.0308067,0.0304911,22.5861,18,0.00101617,10,0.000688677,-1.64616,0.360724,0.16356,143.968,0.0304911,
2,1,0,1,0,34688.8,0.0332038,0.0328686,22.9152,18,0.0011072,10,0.00075319,-1.63988,0.381734,0.154558,138.053,0.0328686,
2,1,0,1,0,34688.8,0.0356009,0.0352428,23.2465,18,0.00119956,10,0.000819274,-1.63364,0.402672,0.146521,132.754,0.0352428,
2,1,0,1,0,34688.8,0.0380091,0.0376489,23.5545,18,0.00129318,10,0.000886799,-1.62793,0.417322,0.141378,129.849,0.0376489,
2,1,0,1,0,34688.8,0.0404062,0.0400634,23.8569,18,0.00138803,10,0.000955789,-1.62239,0.434431,0.13581,126.395,0.0400634,
2,1,0,1,0,34688.8,0.0428033,0.0424843,24.1638,18,0.0014841,10,0.00102658,-1.61683,0.443284,0.133098,125.46,0.0424843,
2,1,0,1,0,34688.8,0.0452032,0.0448278,24.458,18,0.00158137,10,0.0010964,-1.61158,0.453837,0.130003,124.035,0.0448278,
2,1,0,1,0,34688.8,0.0476058,0.0472721,24.7618,18,0.00167986,10,0.00117054,-1.60622,0.46486,0.12692,122.571,0.0472721,
2,1,0,1,0,34688.8,0.0500029,0.0496591,25.0471,18,0.00177952,10,0.00124381,-1.60124,0.469387,0.125696,122.856,0.0496591,
2,1,0,1,0,34688.8,0.0524,0.0520481,25.336,18,0.00188032,10,0.00131869,-1.59626,0.481225,0.122604,121.242,0.0520481,
2,1,0,1,0,34688.8,0.0548082,0.05445,25.6402,18,0.00198228,10,0.00139611,-1.59108,0.479971,0.122924,122.964,0.05445,
2,1,0,1,0,34688.8,0.0572053,0.0568635,25.9247,18,0.00208546,10,0.00147417,-1.58629,0.487774,0.120958,122.358,0.0568635,
2,1,0,1,0,34688.8,0.0596024,0.059242,26.2254,18,0.00218979,10,0.00155365,-1.58128,0.497551,0.118581,121.337,0.059242,
2,1,0,1,0,34688.8,0.0620051,0.061665,26.5127,18,0.0022953,10,0.00163491,-1.57655,0.493199,0.119627,123.774,0.06166498,
2,1,0,1,0,34688.8,0.0644077,0.0640615,26.8064,18,0.00240196,10,0.00171726,-1.57176,0.501646,0.117613,123.069,0.0640615,
2,1,0,1,0,34688.8,0.0668048,0.0664188,27.1074,18,0.00250981,10,0.00180044,-1.56691,0.497549,0.118581,125.464,0.0664188,
2,1,0,1,0,34688.9,0.0692019,0.0688471,27.4075,18,0.00261888,10,0.00188693,-1.56213,0.501617,0.11762,125.806,0.0688471,
2,1,0,1,0,34688.9,0.0716074,0.0712648,27.7172,18,0.00272915,10,0.00197526,-1.55725,0.507041,0.116361,125.825,0.0712648,
2,1,0,1,0,34688.9,0.0740045,0.0736751,28.0159,18,0.00284066,10,0.00206407,-1.5526,0.507787,0.11619,127.021,0.0736751,
2,1,0,1,0,34688.9,0.0764016,0.0760239,28.3159,18,0.00295335,10,0.00215269,-1.54797,0.503201,0.117249,129.648,0.0760239,
2,1,0,1,0,34688.9,0.0788042,0.07843,28.6248,18,0.00306726,10,0.00224504,-1.54326,0.508584,0.116008,129.635,0.07843,
2,1,0,1,0,34688.9,0.0812069,0.080835,28.9579,18,0.00318246,10,0.00234081,-1.53823,0.507369,0.116286,131.344,0.080835,
2,1,0,1,0,34688.9,0.083604,0.0832697,29.2597,18,0.00329892,10,0.00243644,-1.53373,0.50864,0.115995,132.444,0.0832697,
2,1,0,1,0,34688.9,0.0860011,0.0856164,29.5758,18,0.00341662,10,0.00253218,-1.52906,0.521057,0.113231,130.714,0.08561638,
2,1,0,1,0,34688.9,0.0884065,0.0880436,29.898,18,0.00353562,10,0.00263233,-1.52436,0.509156,0.115878,135.221,0.0880436,
2,1,0,1,0,34688.9,0.0908036,0.0904137,30.21,18,0.00365586,10,0.0027314,-1.51985,0.516898,0.114143,134.609,0.0904137,
2,1,0,1,0,34688.9,0.0932007,0.0928176,30.5507,18,0.00377742,10,0.00283565,-1.51498,0.516657,0.114196,136.136,0.0928176,
2,1,0,1,0,34688.9,0.0956034,0.0952247,30.8692,18,0.0039003,10,0.00293951,-1.51047,0.514472,0.114681,138.158,0.0952247,
2,1,0,1,0,34688.9,0.098006,0.0976372,31.204,18,0.00402448,10,0.00304667,-1.50579,0.527042,0.111946,136.315,0.0976372,
2,1,0,1,0,34688.9,0.100403,0.100022,31.5375,18,0.00414999,10,0.00315444,-1.50117,0.520361,0.113383,139.547,0.100022,
2,1,0,1,0,34688.9,0.1028,0.102429,31.8609,18,0.00427682,10,0.00326349,-1.49674,0.526921,0.111971,139.259,0.102429,
2,1,0,1,0,34688.9,0.105208,0.104852,32.2127,18,0.00440502,10,0.00337757,-1.49197,0.536424,0.109988,138.192,0.104852,
2,1,0,1,0,34688.9,0.107606,0.107237,32.5409,18,0.00453457,10,0.00348959,-1.48757,0.541752,0.108906,138.224,0.107237,
2,1,0,1,0,34688.9,0.110003,0.109591,32.8598,18,0.0046654,10,0.00360115,-1.48333,0.560053,0.105347,135.077,0.109591,
2,1,0,1,0,34688.9,0.112408,0.112051,33.1909,18,0.00479753,10,0.00371909,-1.47898,0.563811,0.104645,135.533,0.112051,
2,1,0,1,0,34688.9,0.114805,0.114417,33.5047,18,0.00493097,10,0.00383351,-1.47489,0.54553,0.108152,141.548,0.114417,
2,1,0,1,0,34688.9,0.117202,0.116827,33.8407,18,0.00506567,10,0.00395352,-1.47056,0.535914,0.110092,145.581,0.116827,
2,1,0,1,0,34688.9,0.119599,0.119205,34.2206,18,0.00520187,10,0.00407926,-1.46571,0.52014,0.113431,151.516,0.119205,
2,1,0,1,0,34688.9,0.122008,0.121627,34.5849,18,0.00533953,10,0.00420645,-1.46111,0.513834,0.114823,154.965,0.121627,
2,1,0,1,0,34688.9,0.124405,0.124015,34.9589,18,0.00547864,10,0.00433542,-1.45644,0.51645,0.114241,155.907,0.124015,
2,1,0,1,0,34688.9,0.126802,0.126455,35.3326,18,0.00561926,10,0.00446798,-1.45182,0.514655,0.11464,158.126,0.126455,
2,1,0,1,0,34689,0.129207,0.12887,35.7276,18,0.0057614,10,0.00460422,-1.447,0.517935,0.113914,158.8,0.12887,
2,1,0,1,0,34689,0.131604,0.131284,36.112,18,0.00590512,10,0.00474092,-1.44235,0.510938,0.115474,162.72,0.131284,
2,1,0,1,0,34689,0.134001,0.133669,36.4919,18,0.00605038,10,0.00487783,-1.4378,0.507578,0.116238,165.658,0.133669,
2,1,0,1,0,34689,0.136399,0.136045,36.8932,18,0.00619718,10,0.00501913,-1.43305,0.502116,0.117503,169.299,0.136045,
2,1,0,1,0,34689,0.138807,0.138476,37.3187,18,0.00634568,10,0.00516773,-1.42807,0.49151,0.120038,174.847,0.138476,
2,1,0,1,0,34689,0.141204,0.140881,37.7367,18,0.00649583,10,0.00531636,-1.42324,0.493164,0.119636,176.189,0.140881,
2,1,0,1,0,34689,0.143601,0.143245,38.1664,18,0.00664768,10,0.00546715,-1.41832,0.498025,0.118468,176.421,0.143245,
2,1,0,1,0,34689,0.146009,0.145682,38.5911,18,0.00680124,10,0.00562203,-1.41351,0.501986,0.117533,176.955,0.145682,
2,1,0,1,0,34689,0.148406,0.148061,39.0097,18,0.00695646,10,0.0057758,-1.40883,0.512485,0.115125,175.237,0.148061,
2,1,0,1,0,34689,0.150803,0.150459,39.4317,18,0.00711338,10,0.00593286,-1.40415,0.517761,0.113952,175.318,0.150459,
2,1,0,1,0,34689,0.153206,0.152856,39.8505,18,0.00727198,10,0.00609137,-1.39957,0.532955,0.110704,172.083,0.152856,
2,1,0,1,0,34689,0.155606,0.155231,40.2652,18,0.00743227,10,0.00625041,-1.39507,0.545628,0.108132,169.804,0.155231,
2,1,0,1,0,34689,0.158003,0.157663,40.6621,18,0.00759418,10,0.00641089,-1.39081,0.564321,0.10455,165.831,0.157663,
2,1,0,1,0,34689,0.1604,0.160011,41.0537,18,0.00775765,10,0.00656905,-1.38665,0.584006,0.101026,161.808,0.160011,
2,1,0,1,0,34689,0.162808,0.162466,41.4442,18,0.00792268,10,0.00673328,-1.38254,0.609825,0.096749,156.356,0.162466,
2,1,0,1,0,34689,0.165205,0.164861,41.8233,18,0.00808925,10,0.00689502,-1.37858,0.635029,0.0929092,151.489,0.164861,
2,1,0,1,0,34689,0.167602,0.167286,42.1667,18,0.00825726,10,0.00705389,-1.37503,0.67519,0.0873828,143.671,0.167286,
2,1,0,1,0,34689,0.170008,0.169643,42.5128,18,0.00842665,10,0.00721199,-1.37148,0.732446,0.080552,133.481,0.169643,
2,1,0,1,0,34689,0.172405,0.17205,42.8211,18,0.00859736,10,0.00736738,-1.36834,0.779896,0.0756511,126.275,0.17205,
2,1,0,1,0,34689,0.174802,0.174447,43.1029,18,0.00876926,10,0.00751915,-1.36549,0.861772,0.0684636,115.061,0.174447,
2,1,0,1,0,34689,0.177199,0.176882,43.3785,18,0.00894227,10,0.0076729,-1.36273,0.977812,0.0603388,101.987,0.176882,
2,1,0,1,0,34689,0.179607,0.17925,43.6182,18,0.00911628,10,0.00781857,-1.36033,1.14713,0.0514328,87.3587,0.17925,
2,1,0,1,0,34689,0.182005,0.181669,43.8021,18,0.00929115,10,0.00795749,-1.3585,1.43982,0.0409774,69.9064,0.181669,
2,1,0,1,0,34689,0.184402,0.184057,43.9424,18,0.00946666,10,0.00808792,-1.35712,1.98891,0.0296645,50.7794,0.184057,
2,1,0,1,0,34689,0.18681,0.18647,44.0487,18,0.00964265,10,0.00821375,-1.35607,3.37774,0.0174673,29.9574,0.18647,
2,1,0,1,0,34689.1,0.189207,0.188863,44.1063,18,0.00981899,10,0.00833004,-1.3555,11.0423,0.00534307,9.17223,0.188863,
2,1,0,1,0,34689.1,0.191604,0.191257,44.0894,18,0.0099954,10,0.00843241,-1.35567,-7.83664,-0.00752873,-12.9243,0.191257,
2,1,0,1,0,34689.1,0.194001,0.193689,44.0308,18,0.0101717,10,0.00852827,-1.35624,-2.66945,-0.0221019,-37.887,0.193689,
2,1,0,1,0,34689.1,0.196407,0.196077,43.9246,18,0.0103476,10,0.00861259,-1.35729,-1.70068,-0.0346919,-59.3055,0.196077,
2,1,0,1,0,34689.1,0.198804,0.1985,43.7412,18,0.0105229,10,0.00868262,-1.35911,-1.22112,-0.0483163,-82.2788,0.1985,
2,1,0,1,0,34689.1,0.201201,0.200896,43.5177,18,0.0106974,10,0.00874255,-1.36133,-0.919312,-0.0641784,-108.712,0.200896,
2,1,0,1,0,34689.1,0.203609,0.20329,43.2408,18,0.0108709,10,0.00879042,-1.36411,-0.760309,-0.0776001,-130.568,0.20329,
2,1,0,1,0,34689.1,0.206006,0.205629,42.8861,18,0.0110431,10,0.00881863,-1.36768,-0.639624,-0.0922417,-153.994,0.205629,
2,1,0,1,0,34689.1,0.208403,0.208071,42.4915,18,0.0112139,10,0.00884125,-1.3717,-0.556553,-0.10601,-175.399,0.208071,
2,1,0,1,0,34689.1,0.210803,0.21046,42.045,18,0.0113829,10,0.00884879,-1.37629,-0.501715,-0.117597,-192.51,0.21046,
2,1,0,1,0,34689.1,0.213206,0.212868,41.5608,18,0.0115501,10,0.00884697,-1.38132,-0.446434,-0.132158,-213.794,0.212868,
2,1,0,1,0,34689.1,0.215603,0.21532,41.0205,18,0.0117152,10,0.00883254,-1.387,-0.410956,-0.143568,-229.329,0.21532,
2,1,0,1,0,34689.1,0.218,0.217723,40.428,18,0.011878,10,0.0088021,-1.39332,-0.37746,-0.156308,-246.222,0.217723,
2,1,0,1,0,34689.1,0.220408,0.220099,39.8344,18,0.0120385,10,0.00876753,-1.39974,-0.352681,-0.16729,-259.611,0.220099,
2,1,0,1,0,34689.1,0.222805,0.222504,39.1882,18,0.0121965,10,0.00871954,-1.40684,-0.335429,-0.175894,-268.606,0.222504,
2,1,0,1,0,34689.1,0.225202,0.224901,38.5332,18,0.0123519,10,0.00866616,-1.41416,-0.317373,-0.185901,-279.205,0.224901,
2,1,0,1,0,34689.1,0.227605,0.227289,37.8585,18,0.0125046,10,0.00860482,-1.42184,-0.307786,-0.191692,-282.882,0.227289,
2,1,0,1,0,34689.1,0.230008,0.229664,37.1639,18,0.0126546,10,0.00853521,-1.42988,-0.297957,-0.198015,-287.017,0.229664,
2,1,0,1,0,34689.1,0.232405,0.232114,36.4699,18,0.0128018,10,0.00846515,-1.43807,-0.295363,-0.199754,-284.304,0.232114,
2,1,0,1,0,34689.1,0.234802,0.234489,35.7813,18,0.0129462,10,0.00839031,-1.44634,-0.291039,-0.202722,-283.09,0.234489,
2,1,0,1,0,34689.1,0.237207,0.236943,35.1139,18,0.0130879,10,0.00831998,-1.45452,-0.286074,-0.206241,-282.54,0.236943,
2,1,0,1,0,34689.1,0.239604,0.239306,34.4342,18,0.0132269,10,0.00824033,-1.46301,-0.285911,-0.206358,-277.336,0.239306,
2,1,0,1,0,34689.1,0.242001,0.241668,33.7704,18,0.0133633,10,0.00816122,-1.47146,-0.285486,-0.206665,-272.563,0.241668,
2,1,0,1,0,34689.1,0.244404,0.244062,33.1262,18,0.013497,10,0.00808487,-1.47983,-0.287765,-0.205028,-265.281,0.244062,
2,1,0,1,0,34689.1,0.246807,0.246507,32.5071,18,0.0136282,10,0.00801322,-1.48802,-0.293419,-0.201078,-255.27,0.246507,
2,1,0,1,0,34689.2,0.249204,0.248842,31.9047,18,0.0137569,10,0.00793923,-1.49614,-0.298137,-0.197896,-246.588,0.248842,
2,1,0,1,0,34689.2,0.251601,0.251273,31.3185,18,0.0138833,10,0.00786949,-1.5042,-0.302096,-0.195302,-238.928,0.251273,
2,1,0,1,0,34689.2,0.254006,0.253662,30.759,18,0.0140074,10,0.0078024,-1.51203,-0.311168,-0.189608,-227.853,0.253662,
2,1,0,1,0,34689.2,0.256404,0.2561,30.215,18,0.0141293,10,0.00773806,-1.51978,-0.320363,-0.184166,-217.471,0.2561,
2,1,0,1,0,34689.2,0.258801,0.258496,29.7051,18,0.0142491,10,0.00767862,-1.52717,-0.327747,-0.180017,-208.965,0.258496,
2,1,0,1,0,34689.2,0.261203,0.260922,29.2202,18,0.0143669,10,0.00762418,-1.53432,-0.336526,-0.175321,-200.103,0.260922,
2,1,0,1,0,34689.2,0.263606,0.263271,28.7512,18,0.0144828,10,0.00756935,-1.54134,-0.34175,-0.172641,-193.83,0.263271,
2,1,0,1,0,34689.2,0.266003,0.265687,28.2966,18,0.0145969,10,0.00751803,-1.54827,-0.355994,-0.165733,-183.25,0.265687,
2,1,0,1,0,34689.2,0.2684,0.268059,27.8513,18,0.0147091,10,0.0074658,-1.55515,-0.369749,-0.159568,-173.797,0.268059,
2,1,0,1,0,34689.2,0.270808,0.270521,27.4612,18,0.0148197,10,0.00742882,-1.56128,-0.381605,-0.15461,-165.89,0.270521,
2,1,0,1,0,34689.2,0.273205,0.272875,27.0821,18,0.0149287,10,0.00739001,-1.56732,-0.40069,-0.147246,-155.704,0.272875,
2,1,0,1,0,34689.2,0.275603,0.275286,26.7042,18,0.0150363,10,0.0073513,-1.57342,-0.404819,-0.145744,-152.028,0.275286,
2,1,0,1,0,34689.2,0.278008,0.277681,26.3531,18,0.0151423,10,0.00731777,-1.57917,-0.415919,-0.141855,-146.023,0.277681,
2,1,0,1,0,34689.2,0.280405,0.280077,26.0084,18,0.015247,10,0.00728434,-1.58489,-0.435162,-0.135582,-137.786,0.280077,
2,1,0,1,0,34689.2,0.282802,0.282456,25.6829,18,0.0153504,10,0.0072543,-1.59036,-0.453255,-0.13017,-130.659,0.282456,
2,1,0,1,0,34689.2,0.285199,0.284848,25.3868,18,0.0154525,10,0.00723136,-1.59539,-0.470712,-0.125342,-124.277,0.284848,
2,1,0,1,0,34689.2,0.287608,0.287299,25.0964,18,0.0155534,10,0.00721019,-1.60039,-0.485046,-0.121638,-119.188,0.287299,
2,1,0,1,0,34689.2,0.290005,0.289702,24.8122,18,0.0156532,10,0.00718814,-1.60534,-0.498355,-0.118389,-114.731,0.289702,
2,1,0,1,0,34689.2,0.292402,0.292041,24.5405,18,0.0157519,10,0.00716684,-1.61012,-0.521205,-0.113199,-108.545,0.292041,
2,1,0,1,0,34689.2,0.294807,0.294454,24.2846,18,0.0158495,10,0.0071507,-1.61467,-0.539212,-0.109419,-103.85,0.294454,
2,1,0,1,0,34689.2,0.297204,0.296934,24.0506,18,0.0159462,10,0.00714145,-1.61887,-0.549904,-0.107291,-101.129,0.296934,
2,1,0,1,0,34689.2,0.299421,0.299132,23.8328,18,0.0160347,10,0.00712918,-1.62282,-0.113291,-0.520781,-471.231,0.299132,
2,1,0,0,0,34689.2,0.300012,0.299689,23.7671,18,0.0160585,10,0.00712273,-1.62402,0.00268404,21.9818,18025.6,0.2996892,
2,1,0,1,0,34689.2,0.299243,0.299048,22.12,18,0.0160877,10,0.00661492,-1.65522,0.0255339,2.31065,1735.8,0.299048,
2,1,0,1,0,34689.2,0.296846,0.296612,18.2403,18,0.0161676,10,0.00541028,-1.73897,0.0296245,1.99159,1378.3,0.296612,
2,1,0,1,0,34689.2,0.294449,0.294213,15.2939,18,0.0162343,10,0.00449967,-1.81548,0.0304751,1.93601,1186.74,0.294213,
2,1,0,1,0,34689.3,0.292041,0.291746,12.8184,18,0.0162901,10,0.00373971,-1.89217,0.0303417,1.94452,981.237,0.2917456,
2,1,0,1,0,34689.3,0.289644,0.289401,10.6721,18,0.0163368,10,0.0030885,-1.97175,0.0288188,2.04728,851.371,0.289401,
2,1,0,1,0,34689.3,0.287247,0.286957,8.76639,18,0.0163754,10,0.00251558,-2.05718,0.0263688,2.23749,757.404,0.286957,
2,1,0,1,0,34689.3,0.284841,0.284549,7.06586,18,0.0164069,10,0.00201058,-2.15084,0.023582,2.50191,675.922,0.284549,
2,1,0,1,0,34689.3,0.282444,0.282131,5.53617,18,0.0164319,10,0.00156192,-2.25679,0.0199829,2.95253,612.889,0.2821309,
2,1,0,1,0,34689.3,0.280047,0.279788,4.17467,18,0.0164511,10,0.00116802,-2.37938,0.0159131,3.70763,553.295,0.279788,
2,1,0,1,0,34689.3,0.27765,0.27742,2.92112,18,0.0164652,10,0.000810376,-2.53445,0.010905,5.41036,500.113,0.27742,
2,1,0,1,0,34689.3,0.275242,0.274973,1.76778,18,0.0164744,10,0.000486093,-2.75257,0.00783243,7.53278,458.444,0.274973,
2,1,0,1,0,34689.3,0.272845,0.272514,0.72667,18,0.0164793,10,0.000198028,-3.13866,0.0236887,2.49064,418.068,0.272514,
2,0,0,1,0,34689.3,0.270448,0.270147,-0.245293,18,0.0164801,10,-6.62651e-05,-3.61032,-0.23535,-0.250691,384.569,0.270147,
2,0,0,1,0,34689.3,0.268039,0.267713,-1.13704,18,0.0164772,10,-0.000304401,-2.94422,-0.0168319,-3.50525,357.164,0.267713,
2,0,0,1,0,34689.3,0.265642,0.265325,-1.94279,18,0.016471,10,-0.00051547,-2.71157,-0.00837867,-7.04169,331.118,0.2653245,
2,0,0,1,0,34689.3,0.263245,0.262905,-2.70546,18,0.0164616,10,-0.000711279,-2.56776,-0.017254,-3.4195,307.51,0.262905,
2,0,0,1,0,34689.3,0.260843,0.260559,-3.42012,18,0.0164493,10,-0.000891142,-2.46596,-0.0250285,-2.35731,286.971,0.260559,
2,0,0,1,0,34689.3,0.258443,0.258134,-4.08258,18,0.0164342,10,-0.00105385,-2.38907,-0.0330241,-1.78657,267.993,0.258134,
2,0,0,1,0,34689.3,0.256046,0.255732,-4.69554,18,0.0164165,10,-0.0012008,-2.32831,-0.0417587,-1.41288,248.765,0.255732,
2,0,0,1,0,34689.3,0.253649,0.25336,-5.26337,18,0.0163966,10,-0.00133353,-2.27874,-0.0506269,-1.16539,232.936,0.25336,
2,0,0,1,0,34689.3,0.25124,0.250938,-5.81351,18,0.0163744,10,-0.00145883,-2.23556,-0.0597601,-0.987281,218.947,0.250938,
2,0,0,1,0,34689.3,0.248843,0.248514,-6.32343,18,0.01635,10,-0.00157146,-2.19905,-0.0691465,-0.85326,206.741,0.248514,
2,0,0,1,0,34689.3,0.246446,0.246126,-6.79879,18,0.0163237,10,-0.00167336,-2.16757,-0.0796713,-0.740542,193.706,0.246126,
2,0,0,1,0,34689.3,0.244041,0.243701,-7.26034,18,0.0162956,10,-0.00176935,-2.13904,-0.0900502,-0.65519,183.183,0.243701,
2,0,0,1,0,34689.3,0.241644,0.241315,-7.67757,18,0.0162656,10,-0.00185271,-2.11478,-0.100598,-0.586495,174.052,0.2413148,
2,0,0,1,0,34689.3,0.239247,0.238947,-8.07594,18,0.0162341,10,-0.00192972,-2.09281,-0.111621,-0.528576,165.546,0.238947,
2,0,0,1,0,34689.3,0.236849,0.23652,-8.47078,18,0.0162009,10,-0.0020035,-2.07208,-0.123145,-0.479112,157.256,0.23652,
2,0,0,1,0,34689.3,0.234441,0.234149,-8.84165,18,0.0161663,10,-0.00207026,-2.05347,-0.133962,-0.440423,150.91,0.234149,
2,0,0,1,0,34689.4,0.232044,0.23171,-9.18804,18,0.0161302,10,-0.00212896,-2.03678,-0.147016,-0.401317,143.17,0.23171,
2,0,0,1,0,34689.4,0.229647,0.229356,-9.52337,18,0.0160927,10,-0.00218424,-2.02121,-0.159523,-0.369853,136.894,0.229356,
2,0,0,1,0,34689.4,0.227239,0.226914,-9.84595,18,0.016054,10,-0.00223419,-2.00674,-0.172266,-0.342493,131.03,0.226914,
2,0,0,1,0,34689.4,0.224842,0.224542,-10.1567,18,0.0160139,10,-0.00228061,-1.99325,-0.186654,-0.316092,124.752,0.224542,
2,0,0,1,0,34689.4,0.222445,0.222119,-10.4447,18,0.0159727,10,-0.00231996,-1.98111,-0.198609,-0.297066,120.748,0.222119,
2,0,0,1,0,34689.4,0.220047,0.219715,-10.726,18,0.0159303,10,-0.00235667,-1.96956,-0.214295,-0.275321,114.958,0.219715,
2,0,0,1,0,34689.4,0.217642,0.217309,-11.0058,18,0.0158868,10,-0.00239165,-1.95838,-0.224586,-0.262705,112.542,0.217309,
2,0,0,1,0,34689.4,0.215245,0.214945,-11.26,18,0.0158423,10,-0.00242028,-1.94846,-0.234903,-0.251167,110.233,0.214945,
2,0,0,1,0,34689.4,0.212848,0.212501,-11.5271,18,0.0157967,10,-0.00244952,-1.93828,-0.251977,-0.234148,105.091,0.212501,
2,0,0,1,0,34689.4,0.21044,0.210137,-11.7819,18,0.01575,10,-0.00247581,-1.92879,-0.26243,-0.224822,103.083,0.210137,
2,0,0,1,0,34689.4,0.208043,0.207758,-12.0095,18,0.0157024,10,-0.00249507,-1.92048,-0.278003,-0.212228,99.3528,0.207758,
2,0,0,1,0,34689.4,0.205645,0.205331,-12.251,18,0.0156539,10,-0.00251552,-1.91183,-0.293487,-0.201031,96.0108,0.205331,
2,0,0,1,0,34689.4,0.203246,0.202948,-12.4762,18,0.0156044,10,-0.00253203,-1.90392,-0.302283,-0.195181,94.9298,0.202948,
2,0,0,1,0,34689.4,0.200843,0.200525,-12.7047,18,0.015554,10,-0.00254761,-1.89604,-0.320699,-0.183973,91.0697,0.200525,
2,0,0,1,0,34689.4,0.198446,0.198098,-12.9265,18,0.0155027,10,-0.00256072,-1.88852,-0.327743,-0.180019,90.7,0.198098,
2,0,0,1,0,34689.4,0.196049,0.195712,-13.127,18,0.0154506,10,-0.00256912,-1.88183,-0.339059,-0.174011,89.1649,0.195712,
2,0,0,1,0,34689.4,0.19364,0.193274,-13.3537,18,0.0153976,10,-0.00258092,-1.8744,-0.351738,-0.167738,87.331,0.193274,
2,0,0,1,0,34689.4,0.191243,0.190888,-13.564,18,0.0153438,10,-0.0025892,-1.86761,-0.35258,-0.167338,88.4717,0.190888,
2,0,0,1,0,34689.4,0.188846,0.188517,-13.7632,18,0.0152891,10,-0.0025946,-1.86128,-0.368469,-0.160122,85.9864,0.188517,
2,0,0,1,0,34689.4,0.186444,0.186115,-13.9761,18,0.0152336,10,-0.00260116,-1.85462,-0.378221,-0.155993,85.0232,0.186115,
2,0,0,1,0,34689.4,0.184041,0.18373,-14.1743,18,0.0151773,10,-0.00260425,-1.8485,-0.381673,-0.154583,85.4734,0.1837305,
2,0,0,1,0,34689.4,0.181644,0.181342,-14.3756,18,0.0151202,10,-0.0026069,-1.84237,-0.38845,-0.151886,85.2531,0.181342,
2,0,0,1,0,34689.4,0.179247,0.178955,-14.5805,18,0.0150622,10,-0.00260926,-1.83623,-0.390278,-0.151174,86.0505,0.1789555,
2,0,0,1,0,34689.4,0.176841,0.176492,-14.7965,18,0.0150035,10,-0.00261146,-1.82984,-0.395902,-0.149027,86.0037,0.176492,
2,0,0,1,0,34689.4,0.174444,0.174089,-15.0039,18,0.0149438,10,-0.00261202,-1.8238,-0.393926,-0.149774,87.6649,0.174089,
2,0,0,1,0,34689.5,0.172047,0.171678,-15.2068,18,0.0148834,10,-0.00261067,-1.81796,-0.394827,-0.149433,88.7423,0.1716779,
2,0,0,1,0,34689.5,0.169644,0.169347,-15.4228,18,0.0148221,10,-0.00261181,-1.81184,-0.392152,-0.150452,90.6225,0.169347,
2,0,0,1,0,34689.5,0.167242,0.166932,-15.6449,18,0.01476,10,-0.00261163,-1.80563,-0.383237,-0.153952,94.028,0.166932,
2,0,0,1,0,34689.5,0.164845,0.164511,-15.872,18,0.0146969,10,-0.00261111,-1.79937,-0.380759,-0.154954,96.0444,0.164511,
2,0,0,1,0,34689.5,0.162448,0.162164,-16.1014,18,0.014633,10,-0.00261106,-1.79314,-0.378276,-0.155971,98.0645,0.162164,
2,0,0,1,0,34689.5,0.160042,0.15969,-16.3503,18,0.014568,10,-0.00261098,-1.78647,-0.366681,-0.160903,102.732,0.15969,
2,0,0,1,0,34689.5,0.157645,0.157345,-16.585,18,0.0145021,10,-0.00260957,-1.78029,-0.354309,-0.166521,108.009,0.157345,
2,0,0,1,0,34689.5,0.155248,0.154915,-16.8577,18,0.0144352,10,-0.00261152,-1.7732,-0.342334,-0.172346,113.601,0.154915,
2,0,0,1,0,34689.5,0.152845,0.152462,-17.1492,18,0.0143672,10,-0.00261461,-1.76576,-0.325614,-0.181196,121.362,0.1524623,
2,0,0,1,0,34689.5,0.150443,0.150095,-17.4403,18,0.014298,10,-0.00261771,-1.75845,-0.314541,-0.187575,127.85,0.150095,
2,0,0,1,0,34689.5,0.148046,0.147727,-17.7523,18,0.0142276,10,-0.00262249,-1.75074,-0.296701,-0.198853,138.117,0.147727,
2,0,0,1,0,34689.5,0.145648,0.145306,-18.0863,18,0.0141558,10,-0.00262804,-1.74265,-0.28043,-0.210391,148.979,0.1453056,
2,0,0,1,0,34689.5,0.14324,0.142963,-18.4612,18,0.0140827,10,-0.00263927,-1.73374,-0.264955,-0.222679,160.846,0.142963,
2,0,0,1,0,34689.5,0.140843,0.140522,-18.8665,18,0.014008,10,-0.00265116,-1.72431,-0.250047,-0.235956,174.106,0.140522,
2,0,0,1,0,34689.5,0.138446,0.138194,-19.2855,18,0.0139317,10,-0.00266515,-1.71477,-0.240678,-0.245141,184.998,0.1381945,
2,0,0,1,0,34689.5,0.136041,0.13574,-19.7518,18,0.0138536,10,-0.0026811,-1.70439,-0.230736,-0.255703,197.594,0.13574,
2,0,0,1,0,34689.5,0.133644,0.133348,-20.2399,18,0.0137736,10,-0.00269896,-1.69379,-0.21971,-0.268536,212.708,0.133348,
2,0,0,1,0,34689.5,0.131246,0.130916,-20.7646,18,0.0136915,10,-0.00271842,-1.68268,-0.209773,-0.281256,228.657,0.130916,
2,0,0,1,0,34689.5,0.128849,0.128527,-21.3419,18,0.0136072,10,-0.00274301,-1.67077,-0.201459,-0.292863,244.521,0.128527,
2,0,0,1,0,34689.5,0.126441,0.126127,-21.9498,18,0.0135206,10,-0.00276846,-1.65857,-0.192794,-0.306026,262.673,0.126127,
2,0,0,1,0,34689.5,0.124044,0.123735,-22.5906,18,0.0134314,10,-0.00279525,-1.64607,-0.189344,-0.311602,275.267,0.123735,
2,0,0,1,0,34689.5,0.121647,0.121379,-23.2698,18,0.0133397,10,-0.00282446,-1.63321,-0.1862,-0.316864,288.198,0.121379,
2,0,0,1,0,34689.5,0.119241,0.118942,-23.9803,18,0.0132451,10,-0.00285226,-1.62014,-0.185218,-0.318543,298.284,0.118942,
2,0,0,1,0,34689.5,0.116844,0.11653,-24.7155,18,0.0131476,10,-0.00288011,-1.60703,-0.187505,-0.314659,303.381,0.1165304,
2,0,0,1,0,34689.5,0.114447,0.114136,-25.4538,18,0.0130472,10,-0.0029052,-1.59425,-0.18948,-0.311378,309.159,0.114136,
2,0,0,1,0,34689.6,0.11205,0.111727,-26.198,18,0.0129439,10,-0.00292702,-1.58173,-0.192854,-0.30593,312.597,0.111727,
2,0,0,1,0,34689.6,0.109642,0.109306,-26.9594,18,0.0128374,10,-0.00294682,-1.56929,-0.196944,-0.299577,314.854,0.109306,
2,0,0,1,0,34689.6,0.107245,0.106968,-27.7048,18,0.012728,10,-0.00296352,-1.55744,-0.202056,-0.291998,315.49,0.106968,
2,0,0,1,0,34689.6,0.104848,0.104581,-28.4624,18,0.0126156,10,-0.00297661,-1.54573,-0.209446,-0.281696,312.559,0.104581,
2,0,0,1,0,34689.6,0.10244,0.102126,-29.227,18,0.0125002,10,-0.00298483,-1.53422,-0.217949,-0.270705,308.033,0.102126,
2,0,0,1,0,34689.6,0.100042,0.099723,-29.9546,18,0.0123817,10,-0.00298716,-1.52354,-0.229805,-0.256739,299.309,0.099723,
2,0,0,1,0,34689.6,0.0976454,0.0973795,-30.6583,18,0.0122604,10,-0.00298549,-1.51345,-0.238736,-0.247135,295.238,0.0973795,
2,0,0,1,0,34689.6,0.0952427,0.0950084,-31.3274,18,0.0121364,10,-0.00297637,-1.50408,-0.246617,-0.239238,292.528,0.0950084,
2,0,0,1,0,34689.6,0.0928428,0.0926066,-32.0374,18,0.0120096,10,-0.00296688,-1.49434,-0.258935,-0.227856,284.581,0.0926066,
2,0,0,1,0,34689.6,0.0904457,0.0901708,-32.7489,18,0.01188,10,-0.00295299,-1.4848,-0.26696,-0.221007,281.717,0.0901708,
2,0,0,1,0,34689.6,0.0880486,0.0877976,-33.3851,18,0.0117476,10,-0.00293113,-1.47645,-0.284304,-0.207524,269.895,0.0877976,
2,0,0,1,0,34689.6,0.0856404,0.0854011,-34.034,18,0.0116127,10,-0.00290654,-1.46809,-0.302115,-0.19529,258.936,0.0854011,
2,0,0,1,0,34689.6,0.0832433,0.0829442,-34.6453,18,0.0114753,10,-0.00287362,-1.46036,-0.319087,-0.184902,249.497,0.0829442,
2,0,0,1,0,34689.6,0.0808462,0.0805901,-35.2297,18,0.0113355,10,-0.00283916,-1.45309,-0.344877,-0.171075,234.709,0.0805901,
2,0,0,1,0,34689.6,0.0784408,0.078149,-35.7924,18,0.0111934,10,-0.00279714,-1.44621,-0.366131,-0.161145,224.552,0.078149,
2,0,0,1,0,34689.6,0.0760437,0.0757514,-36.2988,18,0.0110491,10,-0.00274969,-1.44011,-0.39708,-0.148585,210.074,0.0757514,
2,0,0,1,0,34689.6,0.0736466,0.0734037,-36.7876,18,0.0109029,10,-0.00270035,-1.4343,-0.423704,-0.139248,199.625,0.0734037,
2,0,0,1,0,34689.6,0.0712495,0.071004,-37.2434,18,0.0107548,10,-0.00264443,-1.42895,-0.455052,-0.129655,188.18,0.071004,
2,0,0,1,0,34689.6,0.0688413,0.0686382,-37.691,18,0.0106048,10,-0.00258704,-1.42376,-0.497298,-0.118641,174.178,0.0686382,
2,0,0,1,0,34689.6,0.0664442,0.0662099,-38.0944,18,0.0104532,10,-0.00252222,-1.41914,-0.538547,-0.109554,162.558,0.0662099,
2,0,0,1,0,34689.6,0.0640471,0.0637985,-38.4606,18,0.0103001,10,-0.00245373,-1.41498,-0.595563,-0.099066,148.485,0.06379851,
2,0,0,1,0,34689.6,0.0616389,0.0613808,-38.8078,18,0.0101455,10,-0.00238205,-1.41108,-0.65656,-0.0898623,135.894,0.0613808,
2,0,0,1,0,34689.6,0.0592417,0.0589514,-39.1293,18,0.0099896,10,-0.00230673,-1.4075,-0.722525,-0.0816581,124.468,0.0589514,
2,0,0,1,0,34689.6,0.0568446,0.0565241,-39.4106,18,0.00983247,10,-0.00222765,-1.40439,-0.81125,-0.0727272,111.681,0.0565241,
2,0,0,1,0,34689.6,0.0544475,0.0541732,-39.6587,18,0.00967431,10,-0.00214844,-1.40166,-0.932546,-0.0632676,97.7703,0.0541732,
2,0,0,1,0,34689.7,0.0520421,0.0516706,-39.8922,18,0.00951515,10,-0.00206126,-1.39911,-1.06138,-0.0555879,86.3933,0.0516706,
2,0,0,1,0,34689.7,0.049645,0.0493484,-40.0682,18,0.0093552,10,-0.0019773,-1.3972,-1.18379,-0.0498401,77.8677,0.0493484,
2,0,0,1,0,34689.7,0.0472479,0.0469391,-40.2387,18,0.00919457,10,-0.00188877,-1.39536,-1.39608,-0.0422613,66.3141,0.0469391,
2,0,0,1,0,34689.7,0.0448397,0.0445362,-40.4091,18,0.00903326,10,-0.00179967,-1.39352,-1.60592,-0.0367392,57.8489,0.0445362,
2,0,0,1,0,34689.7,0.0424426,0.0421567,-40.5231,18,0.00887139,10,-0.00170832,-1.3923,-1.88025,-0.0313787,49.5686,0.0421567,
2,0,0,1,0,34689.7,0.0400455,0.0397188,-40.6253,18,0.00870908,10,-0.00161359,-1.3912,-2.3394,-0.0252201,39.9623,0.03971881,
2,0,0,1,0,34689.7,0.0376456,0.0373085,-40.716,18,0.00854639,10,-0.00151905,-1.39023,-2.73029,-0.0216094,34.3146,0.0373085,
2,0,0,1,0,34689.7,0.035243,0.0348993,-40.7942,18,0.00838336,10,-0.00142369,-1.3894,-3.4281,-0.0172107,27.3754,0.0348993,
2,0,0,1,0,34689.7,0.0328459,0.0325059,-40.8543,18,0.00822006,10,-0.00132801,-1.38876,-4.34146,-0.0135899,21.6497,0.0325059,
2,0,0,1,0,34689.7,0.0304488,0.0301168,-40.8882,18,0.00805656,10,-0.00123142,-1.3884,-6.18235,-0.0095433,15.2207,0.0301168,
2,0,0,1,0,34689.7,0.0280406,0.0277002,-40.9241,18,0.00789293,10,-0.0011336,-1.38802,-11.8466,-0.00498035,7.94813,0.02770016,
2,0,0,1,0,34689.7,0.0256435,0.0253439,-40.9396,18,0.00772921,10,-0.00103757,-1.38786,-15.1713,-0.00388891,6.21019,0.0253439,
2,0,0,1,0,34689.7,0.0232463,0.0229389,-40.9303,18,0.00756548,10,-0.000938898,-1.38795,-115.741,-0.000509758,0.814231,0.0229389,
2,0,0,1,0,34689.7,0.0208437,0.0205467,-40.9476,18,0.00740172,10,-0.000841336,-1.38777,19.1674,0.00307814,-4.91525,0.0205467,
2,0,0,1,0,34689.7,0.018441,0.0181088,-40.9319,18,0.00723795,10,-0.000741226,-1.38794,12.3079,0.00479368,-7.65046,0.0181088,
2,0,0,1,0,34689.7,0.0160439,0.0157473,-40.8925,18,0.0070743,10,-0.000643944,-1.38836,6.96521,0.00847067,-13.5152,0.0157473,
2,0,0,1,0,34689.7,0.0136468,0.0133317,-40.8568,18,0.00691081,10,-0.000544689,-1.38874,5.44845,0.0108288,-17.2635,0.0133317,
2,0,0,1,0,34689.7,0.0112414,0.0109489,-40.8179,18,0.00674745,10,-0.000446912,-1.38915,4.60339,0.0128166,-20.4051,0.0109489,
2,0,0,1,0,34689.7,0.00884431,0.00857679,-40.7673,18,0.00658428,10,-0.000349653,-1.38969,3.6093,0.0163467,-25.9855,0.00857679,
2,0,0,1,0,34689.7,0.0064472,0.00614846,-40.6966,18,0.00642135,10,-0.000250221,-1.39044,3.67121,0.016071,-25.5233,0.00614846,
2,0,0,1,0,34689.7,0.00404455,0.00375194,-40.6079,18,0.00625876,10,-0.000152358,-1.39139,2.9168,0.0202276,-32.0599,0.00375194,
2,0,0,1,0,34689.7,0.0016419,0.00125786,-40.5705,18,0.00609645,10,-5.10322e-05,-1.39179,2.54384,0.0231933,-36.6755,0.00125786,
2,0,0,1,0,34689.7,-0.000755207,-0.00110578,-40.4569,18,0.00593441,10,4.47365e-05,-1.39301,2.28414,0.0258303,-40.7368,-0.001105783,
2,0,0,1,0,34689.7,-0.00315231,-0.00356699,-40.3403,18,0.00577283,10,0.000143893,-1.39426,1.71714,0.0343595,-54.0541,-0.00356699,
2,0,0,1,0,34689.7,-0.00555774,-0.00592745,-40.2136,18,0.00561172,10,0.000238364,-1.39563,1.59235,0.0370522,-58.0962,-0.00592745,
2,0,0,1,0,34689.8,-0.00795485,-0.00834306,-40.0516,18,0.00545117,10,0.000334153,-1.39738,1.45937,0.0404285,-63.1714,-0.00834306,
2,0,0,1,0,34689.8,-0.010352,-0.0107417,-39.8971,18,0.00529128,10,0.000428562,-1.39906,1.34218,0.0439583,-68.4227,-0.0107417,
2,0,0,1,0,34689.8,-0.0127546,-0.0131202,-39.7368,18,0.00513204,10,0.000521354,-1.40081,1.27075,0.0464293,-71.9475,-0.0131202,
2,0,0,1,0,34689.8,-0.0151573,-0.0155422,-39.5557,18,0.00497346,10,0.000614781,-1.40279,1.18247,0.0498956,-76.9673,-0.0155422,
2,0,0,1,0,34689.8,-0.0175544,-0.0179111,-39.3632,18,0.00481564,10,0.000705038,-1.40491,1.09972,0.05365,-82.3703,-0.0179111,
2,0,0,1,0,34689.8,-0.0199515,-0.0203607,-39.1567,18,0.00465861,10,0.000797257,-1.40719,1.05127,0.0561227,-85.7334,-0.0203607,
2,0,0,1,0,34689.8,-0.0223597,-0.0227169,-38.9463,18,0.00450242,10,0.000884739,-1.40953,1.0059,0.0586541,-89.128,-0.0227169,
2,0,0,1,0,34689.8,-0.0247568,-0.0251494,-38.732,18,0.00434709,10,0.000974089,-1.41193,0.991473,0.0595074,-89.9351,-0.0251494,
2,0,0,1,0,34689.8,-0.0271539,-0.0274601,-38.5121,18,0.00419262,10,0.00105754,-1.4144,0.968266,0.0609337,-91.5635,-0.0274601,
2,0,0,1,0,34689.8,-0.0295593,-0.0299202,-38.297,18,0.00403903,10,0.00114585,-1.41684,0.934687,0.0631227,-94.2954,-0.0299202,
2,0,0,1,0,34689.8,-0.0319564,-0.0323507,-38.0642,18,0.00388633,10,0.0012314,-1.41948,0.94328,0.0625477,-92.9109,-0.0323507,
2,0,0,1,0,34689.8,-0.0343535,-0.0347567,-37.8261,18,0.00373457,10,0.00131471,-1.42221,0.957043,0.0616482,-91.0804,-0.0347567,
2,0,0,1,0,34689.8,-0.0367506,-0.0371108,-37.6154,18,0.0035837,10,0.00139594,-1.42463,0.955589,0.061742,-90.6733,-0.0371108,
2,0,0,1,0,34689.8,-0.0391588,-0.0395551,-37.4194,18,0.00343364,10,0.00148013,-1.4269,0.987379,0.0597541,-87.2337,-0.03955508,
2,0,0,1,0,34689.8,-0.0415559,-0.0418901,-37.1992,18,0.00328444,10,0.00155828,-1.42947,0.996906,0.0591831,-85.9281,-0.0418901,
2,0,0,1,0,34689.8,-0.043953,-0.0443312,-36.9909,18,0.00313608,10,0.00163985,-1.43191,1.00724,0.0585758,-84.6154,-0.0443312,
2,0,0,1,0,34689.8,-0.0463585,-0.0466831,-36.7929,18,0.00298852,10,0.00171761,-1.43424,1.07987,0.0546364,-78.5112,-0.04668314,
2,0,0,1,0,34689.8,-0.0487556,-0.0491009,-36.6117,18,0.00284174,10,0.00179767,-1.43638,1.12107,0.0526282,-75.2361,-0.0491009,
2,0,0,1,0,34689.8,-0.0511527,-0.0515133,-36.4437,18,0.00269564,10,0.00187734,-1.43838,1.20816,0.0488345,-69.4829,-0.0515133,
2,0,0,1,0,34689.8,-0.0535498,-0.0538769,-36.2727,18,0.00255023,10,0.00195426,-1.44042,1.26652,0.0465844,-65.9849,-0.05387694,
2,0,0,1,0,34689.8,-0.055958,-0.0563063,-36.1242,18,0.00240544,10,0.00203402,-1.4422,1.33835,0.044084,-62.1849,-0.0563063,
2,0,0,1,0,34689.8,-0.0583551,-0.0586891,-35.979,18,0.00226126,10,0.00211158,-1.44395,1.5564,0.0379081,-53.2813,-0.0586891,
2,0,0,1,0,34689.8,-0.0607522,-0.0611163,-35.8465,18,0.00211763,10,0.00219081,-1.44555,1.6409,0.0359559,-50.3509,-0.0611163,
2,0,0,1,0,34689.8,-0.0631604,-0.0635415,-35.7578,18,0.00197442,10,0.0022721,-1.44663,1.82066,0.0324059,-45.2265,-0.0635415,
2,0,0,1,0,34689.8,-0.0655575,-0.06592,-35.6402,18,0.00183165,10,0.0023494,-1.44806,2.10929,0.0279715,-38.9268,-0.06591998,
2,0,0,1,0,34689.9,-0.0679546,-0.0683271,-35.5432,18,0.00168928,10,0.00242856,-1.44924,2.15569,0.0273695,-37.9995,-0.0683271,
2,0,0,1,0,34689.9,-0.0703573,-0.0707311,-35.4723,18,0.00154727,10,0.00250899,-1.45011,2.70047,0.0218481,-30.265,-0.0707311,
2,0,0,1,0,34689.9,-0.0727571,-0.073136,-35.3932,18,0.00140555,10,0.00258852,-1.45108,3.21217,0.0183676,-25.3908,-0.073136,
2,0,0,1,0,34689.9,-0.0751542,-0.0755241,-35.3495,18,0.00126407,10,0.00266974,-1.45162,3.89051,0.0151651,-20.9343,-0.0755241,
2,0,0,1,0,34689.9,-0.0775513,-0.0779503,-35.2988,18,0.00112278,10,0.00275155,-1.45224,5.00939,0.0117779,-16.2327,-0.0779503,
2,0,0,1,0,34689.9,-0.0799595,-0.0803776,-35.2703,18,0.000981647,10,0.00283494,-1.45259,6.13541,0.00961631,-13.2426,-0.0803776,
2,0,0,1,0,34689.9,-0.0823567,-0.0827465,-35.2372,18,0.000840652,10,0.00291575,-1.453,13.1774,0.00447737,-6.16287,-0.0827465,
2,0,0,1,0,34689.9,-0.0847538,-0.0851218,-35.2224,18,0.000699744,10,0.0029982,-1.45318,31.6236,0.0018657,-2.56722,-0.0851218,
2,0,0,1,0,34689.9,-0.0871592,-0.0875374,-35.2397,18,0.000558843,10,0.0030848,-1.45297,-53.7908,-0.00109684,1.50868,-0.0875374,
2,0,0,1,0,34689.9,-0.0895563,-0.0899424,-35.2458,18,0.000417869,10,0.00317009,-1.45289,-14.1731,-0.0041628,5.72674,-0.0899424,
2,0,0,1,0,34689.9,-0.0919534,-0.0923018,-35.2516,18,0.000276866,10,0.00325379,-1.45282,-9.2443,-0.00638231,8.78807,-0.0923018,
2,0,0,1,0,34689.9,-0.0943505,-0.0947164,-35.2774,18,0.000135812,10,0.00334134,-1.4525,-5.93943,-0.00993361,13.6894,-0.0947164,
2,0,0,1,0,34689.9,-0.0967587,-0.0971394,-35.3241,18,-5.40285e-06,10,0.00343136,-1.45193,-4.46727,-0.0132072,18.2072,-0.0971394,
2,0,0,1,0,34689.9,-0.0991558,-0.0995264,-35.377,18,-0.000146806,10,0.00352094,-1.45128,5.74729,0.0102657,-14.1173,-0.0995264,
2,0,0,1,0,34689.9,-0.0999548,-0.100267,-35.3966,18,-0.000192802,10,0.0035491,-1.45104,0.0218161,2.70442,-3492.78,-0.100267,
2,0,0,1,1,34689.9,-0.0999548,-0.100438,-35.1966,18,-0.000213946,10,0.00353509,-1.4535,-0.0307323,-1.91981,2327.79,-0.100438,
2,0,0,1,1,34689.9,-0.0979573,-0.0983896,-30.9574,18,-0.000314774,10,0.00304588,-1.50924,-0.0393315,-1.50007,1713.95,-0.09838964,
2,0,0,1,1,34689.9,-0.0955546,-0.0959814,-27.1251,18,-0.000430337,10,0.00260351,-1.56663,-0.0415857,-1.41876,1525.08,-0.0959814,
2,0,0,1,1,34689.9,-0.0931519,-0.0935627,-23.9065,18,-0.000531937,10,0.00223676,-1.62148,-0.0433409,-1.3613,1287.18,-0.0935627,
2,0,0,1,1,34689.9,-0.0907548,-0.0911884,-21.0897,18,-0.000621555,10,0.00192314,-1.67593,-0.0430491,-1.37053,1134.09,-0.0911884,
2,0,0,1,1,34689.9,-0.0883578,-0.0887527,-18.5529,18,-0.000700535,10,0.00164662,-1.73159,-0.0415332,-1.42055,1028.54,-0.0887527,
2,0,0,1,1,34689.9,-0.0859523,-0.0863593,-16.2127,18,-0.00076979,10,0.00140012,-1.79014,-0.0396085,-1.48958,939.057,-0.0863593,
2,0,0,1,1,34689.9,-0.0835552,-0.0839936,-14.0644,18,-0.000830073,10,0.00118132,-1.85188,-0.0366886,-1.60813,874.978,-0.0839936,
2,0,0,1,1,34689.9,-0.0811581,-0.0815674,-12.055,18,-0.000882067,10,0.000983294,-1.91883,-0.0335834,-1.75682,815.394,-0.0815674,
2,0,0,1,1,34689.9,-0.0787555,-0.0791676,-10.1662,18,-0.000926294,10,0.000804833,-1.99284,-0.0302593,-1.94981,758.607,-0.0791676,
2,0,0,1,1,34689.9,-0.0763528,-0.0767998,-8.41791,18,-0.000963263,10,0.000646494,-2.0748,-0.0260539,-2.26453,719.764,-0.0767998,
2,0,0,1,1,34689.9,-0.0739557,-0.0743629,-6.75851,18,-0.000993429,10,0.000502582,-2.17015,-0.0217713,-2.71,676.562,-0.0743629,
2,0,0,1,1,34690,-0.0715586,-0.0720258,-5.18733,18,-0.00101715,10,0.000373622,-2.28506,-0.0171517,-3.4399,632.421,-0.0720258,
2,0,0,1,1,34690,-0.0691532,-0.0696091,-3.69926,18,-0.00103476,10,0.000257503,-2.43188,-0.0114228,-5.16511,602.177,-0.0696091,
2,0,0,1,1,34690,-0.0667561,-0.0671172,-2.29445,18,-0.00104657,10,0.000153997,-2.63932,-0.0078701,-7.49673,569.719,-0.0671172,
2,0,0,1,1,34690,-0.0643589,-0.0647588,-0.975139,18,-0.00105294,10,6.31489e-05,-3.01093,-0.0250742,-2.35301,542.441,-0.0647588,
2,1,0,1,1,34690,-0.0619563,-0.0623793,0.308479,18,-0.00105413,10,-1.92427e-05,-3.51077,0.143108,0.412277,520.575,-0.0623793,
2,1,0,1,1,34690,-0.0595536,-0.0599743,1.52708,18,-0.00105031,10,-9.15856e-05,-2.81614,0.0162828,3.62346,496.259,-0.0599743,
2,1,0,1,1,34690,-0.0571565,-0.0575703,2.6754,18,-0.00104177,10,-0.000154024,-2.57261,0.00805663,7.32316,469.636,-0.0575703,
2,1,0,1,1,34690,-0.0547594,-0.0551876,3.77468,18,-0.00102874,10,-0.000208315,-2.42312,0.016487,3.57858,448.066,-0.0551876,
2,1,0,1,1,34690,-0.0523512,-0.052755,4.82837,18,-0.00101141,10,-0.000254721,-2.3162,0.0235962,2.50041,431.097,-0.052755,
2,1,0,1,1,34690,-0.0499541,-0.0503956,5.81895,18,-0.000990029,10,-0.00029325,-2.23516,0.0308755,1.9109,411.19,-0.0503956,
2,1,0,1,1,34690,-0.047557,-0.0480267,6.78964,18,-0.000964707,10,-0.000326084,-2.16815,0.0380586,1.55024,395.373,-0.0480267,
2,1,0,1,1,34690,-0.0451544,-0.0455952,7.71899,18,-0.000935589,10,-0.000351949,-2.11244,0.045559,1.29502,378.371,-0.0455952,
2,1,0,1,1,34690,-0.0427545,-0.0432082,8.60293,18,-0.000902839,10,-0.000371717,-2.06535,0.0535374,1.10203,361.342,-0.0432082,
2,1,0,1,1,34690,-0.0403574,-0.0408106,9.44564,18,-0.000866656,10,-0.000385482,-2.02477,0.061839,0.95409,345.655,-0.0408106,
2,1,0,1,1,34690,-0.0379603,-0.0384491,10.2504,18,-0.000827176,10,-0.00039412,-1.98926,0.0704396,0.837596,330.46,-0.0384491,
2,1,0,1,1,34690,-0.0355521,-0.035972,11.0453,18,-0.000784507,10,-0.000397321,-1.95682,0.079528,0.741877,315.435,-0.035972,
2,1,0,1,1,34690,-0.033155,-0.0335882,11.782,18,-0.000738766,10,-0.000395735,-1.92878,0.0889724,0.663127,301.48,-0.0335882,
2,1,0,1,1,34690,-0.0307579,-0.0311757,12.4848,18,-0.000690158,10,-0.000389223,-1.90362,0.0989346,0.596353,288.077,-0.0311757,
2,1,0,1,1,34690,-0.0283524,-0.0287654,13.1699,18,-0.000638784,10,-0.000378837,-1.88042,0.1088,0.54228,276.538,-0.0287654,
2,1,0,1,1,34690,-0.0259553,-0.0263636,13.8132,18,-0.000584725,10,-0.000364167,-1.8597,0.119138,0.495226,265.131,-0.0263636,
2,1,0,1,1,34690,-0.0235582,-0.0239703,14.4417,18,-0.000528153,10,-0.000346171,-1.84038,0.130712,0.451374,252.779,-0.0239703,
2,1,0,1,1,34690,-0.0211611,-0.0215759,15.03,18,-0.000469135,10,-0.000324286,-1.82304,0.142051,0.415342,242.241,-0.0215759,
2,1,0,1,1,34690,-0.0187529,-0.0191603,15.5978,18,-0.000407792,10,-0.000298859,-1.80694,0.156334,0.377398,228.544,-0.0191603,
2,1,0,1,1,34690,-0.0163558,-0.0167765,16.1356,18,-0.000344275,10,-0.000270699,-1.79221,0.167583,0.352064,220.757,-0.0167765,
2,1,0,1,1,34690,-0.0139587,-0.0143322,16.6444,18,-0.000278663,10,-0.000238551,-1.77873,0.180983,0.325997,211.092,-0.0143322,
2,1,0,1,1,34690.1,-0.0115505,-0.0119718,17.1502,18,-0.00021102,10,-0.000205318,-1.76573,0.196301,0.300559,200.388,-0.0119718,
2,1,0,1,1,34690.1,-0.0091534,-0.00954662,17.6272,18,-0.000141414,10,-0.00016828,-1.75382,0.209137,0.282112,193.27,-0.00954662,
2,1,0,1,1,34690.1,-0.00675629,-0.0071342,18.0678,18,-6.99765e-05,10,-0.000128899,-1.74309,0.225718,0.261389,183.808,-0.0071342,
2,1,0,1,1,34690.1,-0.00435919,-0.00474934,18.4965,18,3.19061e-06,10,-8.78461e-05,-1.73291,0.253198,0.233019,167.156,-0.00474934,
2,1,0,1,1,34690.1,-0.00195376,-0.00236979,18.9151,18,7.80657e-05,10,-4.48249e-05,-1.72319, , , ,-0.00236979,
2,1,0,0,1,34690.1,-7.54729e-05,-0.000401673,19.1558,18,0.000137144,10,-7.69438e-06,-1.7177, , , ,-0.000401673,