File: Figure_codes/Fig_3-5/rawdata_trumpetplot_data/after 10th/20221101_1-115_003_TrumpetPlot_ParaChange_from10_every3_09_CV_C01_2.csv
mode,ox/red,error,control changes,counter inc.,time/s,control/V,Ewe/V,<I>/mA,cycle number,(Q-Qo)/C,I Range,P/W,log(|I|),Tafel slope mV/dec,alpha_eff,dI/d(E-IR),E-IR/V,
2,0,0,0,0,5122.78,2.44065e-05,-0.000268062,-5.20609,3,0.0000000E+000,10,1.39555e-06,-2.28349, , , ,-0.000268062,
2,0,0,1,0,5122.8,0.00179726,0.00145934,-2.02056,3,-5.99336e-05,10,-2.94868e-06,-2.69453, , , ,0.00145934,
2,0,0,1,0,5122.82,0.00379485,0.00351206,0.0331287,3,-7.748e-05,10,1.1635e-07,-4.4798,-0.0189322,-3.11639,814.077,0.00351206,
2,1,0,1,0,5122.84,0.00579244,0.00546602,1.24119,3,-6.36245e-05,10,6.78436e-06,-2.90616,0.00221108,26.6839,504.655,0.00546602,
2,1,0,1,0,5122.86,0.00779002,0.0074623,2.02664,3,-3.03009e-05,10,1.51234e-05,-2.69322,0.0125799,4.69,335.022,0.0074623,
2,1,0,1,0,5122.88,0.00978761,0.00946734,2.58172,3,1.60252e-05,10,2.4442e-05,-2.58809,0.024395,2.41853,232.85,0.00946734,
2,1,0,1,0,5122.9,0.0117852,0.0115001,2.96685,3,7.1743e-05,10,3.41192e-05,-2.5277,0.040347,1.46231,165.649,0.0115001,
2,1,0,1,0,5122.92,0.0137828,0.0134956,3.249,3,0.000133941,10,4.38473e-05,-2.48825,0.0572988,1.02969,129.294,0.01349563,
2,1,0,1,0,5122.94,0.0157804,0.0154824,3.48174,3,0.000201347,10,5.39058e-05,-2.4582,0.0731439,0.806629,108.9,0.0154824,
2,1,0,1,0,5122.96,0.017778,0.01744,3.67855,3,0.00027271,10,6.41538e-05,-2.43432,0.09885,0.596864,85.0157,0.01744,
2,1,0,1,0,5122.98,0.0197755,0.0194969,3.82303,3,0.000347694,10,7.4537e-05,-2.41759,0.12118,0.48688,72.6302,0.0194969,
2,1,0,1,0,5123,0.0217731,0.0214512,3.96988,3,0.000425673,10,8.51588e-05,-2.40122,0.132939,0.443814,68.5552,0.0214512,
2,1,0,1,0,5123.02,0.0237707,0.0234803,4.09611,3,0.000506362,10,9.61779e-05,-2.38763,0.149255,0.395296,63.1932,0.0234803,
2,1,0,1,0,5123.04,0.0257683,0.025492,4.22523,3,0.000589156,10,0.00010771,-2.37415,0.157275,0.375138,61.7604,0.025492,
2,1,0,1,0,5123.06,0.0277659,0.0274819,4.34325,3,0.000674841,10,0.000119361,-2.36218,0.17302,0.341001,57.7338,0.02748186,
2,1,0,1,0,5123.08,0.0297635,0.0294405,4.45319,3,0.000762873,10,0.000131104,-2.35133,0.185344,0.318326,55.3173,0.0294405,
2,1,0,1,0,5123.1,0.0317611,0.0314724,4.564,3,0.000853094,10,0.00014364,-2.34065,0.177916,0.331617,59.1415,0.0314724,
2,1,0,1,0,5123.12,0.0337586,0.0334161,4.68831,3,0.000945188,10,0.000156665,-2.32898,0.180545,0.326789,59.7199,0.0334161,
2,1,0,1,0,5123.14,0.0357562,0.0354787,4.80326,3,0.0010401,10,0.000170414,-2.31846,0.205335,0.287336,53.7791,0.0354787,
2,1,0,1,0,5123.16,0.0377538,0.0374431,4.90488,3,0.00113728,10,0.000183654,-2.30937,0.205397,0.287248,55.061,0.0374431,
2,1,0,1,0,5123.18,0.0397514,0.0394435,5.02156,3,0.00123663,10,0.000198068,-2.29916,0.184302,0.320127,62.8408,0.0394435,
2,1,0,1,0,5123.2,0.041749,0.0414542,5.15695,3,0.00133789,10,0.000213777,-2.28761,0.197432,0.298837,59.9575,0.0414542,
2,1,0,1,0,5123.22,0.0437466,0.0434584,5.26228,3,0.00144215,10,0.00022869,-2.27883,0.212201,0.278039,57.1809,0.04345838,
2,1,0,1,0,5123.24,0.0457442,0.0454248,5.38399,3,0.00154854,10,0.000244567,-2.2689,0.212429,0.27774,58.2849,0.0454248,
2,1,0,1,0,5123.26,0.0477418,0.0474294,5.49373,3,0.00165731,10,0.000260564,-2.26013,0.207799,0.283928,61.0075,0.0474294,
2,1,0,1,0,5123.28,0.0497484,0.0494444,5.62921,3,0.00176843,10,0.000278333,-2.24955,0.215778,0.273429,59.8928,0.0494444,
2,1,0,1,0,5123.3,0.0517369,0.0514279,5.73321,3,0.00188138,10,0.000294847,-2.2416,0.231486,0.254875,57.1263,0.0514279,
2,1,0,1,0,5123.32,0.0537345,0.0534578,5.85848,3,0.00199725,10,0.000313181,-2.23221,0.228175,0.258574,59.0385,0.0534578,
2,1,0,1,0,5123.34,0.0557321,0.0554254,5.96922,3,0.00211551,10,0.000330846,-2.22408,0.247699,0.238193,55.4753,0.0554254,
2,1,0,1,0,5123.36,0.0577206,0.0574199,6.07828,3,0.00223534,10,0.000349014,-2.21622,0.240253,0.245574,58.3188,0.0574199,
2,1,0,1,0,5123.38,0.0597273,0.0594223,6.20232,3,0.00235823,10,0.000368556,-2.20745,0.245912,0.239924,57.9959,0.0594223,
2,1,0,1,0,5123.4,0.0617249,0.0614304,6.31087,3,0.00248334,10,0.000387679,-2.19991,0.277044,0.212962,52.4116,0.0614304,
2,1,0,1,0,5123.42,0.0637224,0.0634051,6.41106,3,0.00261062,10,0.000406493,-2.19307,0.274963,0.214575,53.7393,0.0634051,
2,1,0,1,0,5123.44,0.06572,0.0654118,6.52483,3,0.00274004,10,0.000426801,-2.18543,0.246025,0.239813,61.1317,0.0654118,
2,1,0,1,0,5123.46,0.0677176,0.0673782,6.65394,3,0.00287131,10,0.000448331,-2.17692,0.277302,0.212765,55.0944,0.0673782,
2,1,0,1,0,5123.48,0.0697152,0.0694351,6.74649,3,0.00300537,10,0.000468443,-2.17092,0.314044,0.187872,49.5149,0.0694351,
2,1,0,1,0,5123.5,0.0717128,0.0714077,6.85346,3,0.00314136,10,0.00048939,-2.16409,0.298115,0.19791,52.9169,0.0714077,
2,1,0,1,0,5123.52,0.0737104,0.0734106,6.95687,3,0.00327946,10,0.000510708,-2.15759,0.308932,0.19098,51.8554,0.0734106,
2,1,0,1,0,5123.54,0.075708,0.0754331,7.0622,3,0.00341905,10,0.000532724,-2.15106,0.310318,0.190128,52.3854,0.0754331,
2,1,0,1,0,5123.56,0.0777056,0.0773653,7.16403,3,0.00356127,10,0.000554247,-2.14484,0.32988,0.178853,49.9779,0.0773653,
2,1,0,1,0,5123.58,0.0797031,0.0793681,7.25887,3,0.00370551,10,0.000576123,-2.13913,0.338726,0.174182,49.3812,0.0793681,
2,1,0,1,0,5123.6,0.0817007,0.081446,7.36555,3,0.00385172,10,0.000599895,-2.1328,0.350244,0.168454,48.3641,0.081446,
2,1,0,1,0,5123.62,0.0836983,0.0834282,7.45523,3,0.00399909,10,0.000621976,-2.12754,0.372694,0.158307,46.0647,0.0834282,
2,1,0,1,0,5123.64,0.0856959,0.0853883,7.54715,3,0.00414911,10,0.000644438,-2.12222,0.385483,0.153055,45.0681,0.08538834,
2,1,0,1,0,5123.66,0.0876935,0.0874282,7.6355,3,0.00430096,10,0.000667558,-2.11716,0.402742,0.146496,43.6455,0.08742819,
2,1,0,1,0,5123.68,0.0896911,0.089383,7.72149,3,0.00445454,10,0.00069017,-2.1123,0.356884,0.16532,49.899,0.089383,
2,1,0,1,0,5123.7,0.0916887,0.0913927,7.83333,3,0.00460929,10,0.000715909,-2.10605,0.331228,0.178125,54.4228,0.0913927,
2,1,0,1,0,5123.72,0.0936862,0.0933427,7.93699,3,0.00476703,10,0.00074086,-2.10034,0.362323,0.162838,50.4181,0.0933427,
2,1,0,1,0,5123.74,0.0956838,0.0953846,8.03459,3,0.00492674,10,0.000766375,-2.09504,0.348202,0.169442,53.1907,0.0953846,
2,1,0,1,0,5123.76,0.0976814,0.0973696,8.15119,3,0.00508864,10,0.000793678,-2.08878,0.299541,0.196968,62.7231,0.0973696,
2,1,0,1,0,5123.78,0.099679,0.0993906,8.28586,3,0.00525212,10,0.000823536,-2.08166,0.305485,0.193136,62.3746,0.0993906,
2,1,0,1,0,5123.8,0.101677,0.101368,8.40057,3,0.00541908,10,0.000851547,-2.07569,0.298819,0.197444,64.8352,0.101368,
2,1,0,1,0,5123.82,0.103674,0.103364,8.5435,3,0.00558853,10,0.000883095,-2.06836,0.255925,0.230536,76.9772,0.103364,
2,1,0,1,0,5123.84,0.105672,0.105425,8.71289,3,0.00576111,10,0.000918557,-2.05984,0.229853,0.256685,87.3315,0.105425,
2,1,0,1,0,5123.86,0.107667,0.107383,8.89442,3,0.00593626,10,0.000955107,-2.05088,0.225112,0.262091,90.9336,0.107383,
2,1,0,1,0,5123.88,0.109667,0.10935,9.06976,3,0.00611588,10,0.000991774,-2.0424,0.226582,0.260391,92.2297,0.10935,
2,1,0,1,0,5123.9,0.111665,0.111341,9.25947,3,0.00629914,10,0.00103096,-2.03341,0.227461,0.259385,93.6975,0.111341,
2,1,0,1,0,5123.92,0.113662,0.11335,9.4446,3,0.00648622,10,0.00107055,-2.02482,0.233273,0.252923,93.2375,0.11335,
2,1,0,1,0,5123.94,0.11566,0.115364,9.63461,3,0.00667701,10,0.00111149,-2.01617,0.221098,0.26685,100.449,0.115364,
2,1,0,1,0,5123.96,0.117657,0.117373,9.84872,3,0.006871,10,0.00115598,-2.00662,0.220296,0.267821,102.807,0.117373,
2,1,0,1,0,5123.98,0.119655,0.119307,10.0399,3,0.00706993,10,0.00119784,-1.99827,0.251054,0.235009,92.0131,0.119307,
2,1,0,1,0,5124,0.121652,0.121388,10.2182,3,0.00727256,10,0.00124036,-1.99063,0.266252,0.221594,88.362,0.121388,
2,1,0,1,0,5124.02,0.12365,0.123348,10.3971,3,0.00747879,10,0.00128246,-1.98309,0.255571,0.230855,93.7101,0.123348,
2,1,0,1,0,5124.04,0.125648,0.125318,10.5864,3,0.00768775,10,0.00132666,-1.97525,0.290489,0.203106,83.7442,0.125318,
2,1,0,1,0,5124.06,0.127645,0.12738,10.7347,3,0.00790098,10,0.00136739,-1.96921,0.328784,0.179449,75.1952,0.1273801,
2,1,0,1,0,5124.08,0.129643,0.129344,10.8892,3,0.00811727,10,0.00140845,-1.96301,0.330729,0.178394,75.7752,0.129344,
2,1,0,1,0,5124.1,0.13164,0.131336,11.0344,3,0.00833664,10,0.00144921,-1.95725,0.355133,0.166135,71.5252,0.131336,
2,1,0,1,0,5124.12,0.133638,0.133341,11.1751,3,0.00855784,10,0.0014901,-1.95175,0.368,0.160326,69.9127,0.133341,
2,1,0,1,0,5124.14,0.135636,0.13533,11.3137,3,0.00878278,10,0.00153108,-1.9464,0.402163,0.146707,64.7337,0.13533,
2,1,0,1,0,5124.16,0.137633,0.137409,11.4384,3,0.0090103,10,0.00157173,-1.94164,0.448329,0.1316,58.7064,0.137409,
2,1,0,1,0,5124.18,0.139631,0.139325,11.5482,3,0.00924024,10,0.00160895,-1.93749,0.462698,0.127513,57.4803,0.139325,
2,1,0,1,0,5124.2,0.141628,0.141324,11.6634,3,0.00947123,10,0.00164832,-1.93318,0.529885,0.111345,50.6271,0.141324,
2,1,0,1,0,5124.22,0.143626,0.143383,11.7536,3,0.00970548,10,0.00168527,-1.92983,0.710913,0.0829919,38.0242,0.143383,
2,1,0,1,0,5124.24,0.145624,0.145351,11.8165,3,0.00994128,10,0.00171755,-1.92751,1.32029,0.0446872,20.569,0.145351,
2,1,0,1,0,5124.26,0.147621,0.147329,11.8348,3,0.0101778,10,0.00174362,-1.92684,22.2138,0.00265601,1.2251,0.147329,
2,1,0,1,0,5124.28,0.149619,0.149328,11.8214,3,0.0104133,10,0.00176526,-1.92733,-1.07411,-0.0549294,-25.2625,0.149328,
2,1,0,1,0,5124.3,0.151616,0.151313,11.7342,3,0.010649,10,0.00177554,-1.93055,-0.424662,-0.138934,-63.4117,0.151313,
2,1,0,1,0,5124.32,0.153614,0.153303,11.5693,3,0.0108822,10,0.00177361,-1.93669,-0.265732,-0.222028,-99.9458,0.153303,
2,1,0,1,0,5124.34,0.155611,0.155289,11.3368,3,0.0111114,10,0.00176048,-1.94551,-0.19312,-0.305509,-134.678,0.155289,
2,1,0,1,0,5124.36,0.157609,0.157336,11.0262,3,0.011334,10,0.00173481,-1.95758,-0.139274,-0.423626,-181.311,0.157336,
2,1,0,1,0,5124.38,0.159607,0.159327,10.6048,3,0.0115504,10,0.00168963,-1.9745,-0.108031,-0.54614,-225.304,0.159327,
2,1,0,1,0,5124.4,0.161604,0.161323,10.1279,3,0.0117578,10,0.00163386,-1.99448,-0.0923207,-0.639077,-251.69,0.161323,
2,1,0,1,0,5124.42,0.163602,0.16334,9.59474,3,0.011955,10,0.0015672,-2.01797,-0.0809262,-0.729059,-272.423,0.16334,
2,1,0,1,0,5124.44,0.165606,0.16531,9.0417,3,0.0121412,10,0.00149468,-2.04375,-0.0754041,-0.782451,-275.912,0.16531,
2,1,0,1,0,5124.46,0.167597,0.167314,8.49831,3,0.0123156,10,0.00142188,-2.07067,-0.0748404,-0.788344,-261.727,0.167314,
2,1,0,1,0,5124.48,0.169595,0.169315,7.99354,3,0.0124804,10,0.00135342,-2.09726,-0.0753459,-0.783055,-244.55,0.169315,
2,1,0,1,0,5124.5,0.171592,0.17129,7.52588,3,0.0126355,10,0.00128911,-2.12344,-0.078575,-0.750875,-221.205,0.17129,
2,1,0,1,0,5124.52,0.173581,0.173262,7.12038,3,0.0127811,10,0.00123369,-2.1475,-0.0886221,-0.665749,-185.733,0.173262,
2,1,0,1,0,5124.54,0.175587,0.175285,6.78397,3,0.0129201,10,0.00118912,-2.16852,-0.0991705,-0.594935,-157.826,0.1752845,
2,1,0,1,0,5124.56,0.177585,0.177292,6.48441,3,0.0130527,10,0.00114963,-2.18813,-0.103873,-0.568003,-143.978,0.177292,
2,1,0,1,0,5124.58,0.179582,0.17924,6.21447,3,0.0131795,10,0.00111388,-2.2066,-0.118702,-0.497042,-121.055,0.17924,
2,1,0,1,0,5124.6,0.18158,0.181269,6.00296,3,0.0133016,10,0.00108815,-2.22163,-0.143266,-0.411823,-96.6691,0.181269,
2,1,0,1,0,5124.62,0.183578,0.183328,5.81926,3,0.0134193,10,0.00106683,-2.23513,-0.148823,-0.396444,-90.053,0.183328,
2,1,0,1,0,5124.64,0.185575,0.185282,5.64158,3,0.0135338,10,0.00104528,-2.2486,-0.156957,-0.3759,-82.9414,0.1852818,
2,1,0,1,0,5124.66,0.187573,0.187281,5.49137,3,0.0136451,10,0.00102843,-2.26032,-0.177508,-0.332379,-71.3176,0.187281,
2,1,0,1,0,5124.68,0.18957,0.189276,5.35672,3,0.0137536,10,0.0010139,-2.2711,-0.196347,-0.300488,-62.913,0.189276,
2,1,0,1,0,5124.7,0.191568,0.191276,5.24008,3,0.0138591,10,0.0010023,-2.28066,-0.212944,-0.277068,-56.6994,0.191276,
2,1,0,1,0,5124.72,0.193566,0.193239,5.13204,3,0.0139628,10,0.000991709,-2.28971,-0.22775,-0.259056,-51.9238,0.193239,
2,1,0,1,0,5124.74,0.195563,0.195265,5.03294,3,0.0140645,10,0.000982758,-2.29818,-0.240778,-0.245039,-48.1446,0.195265,
2,1,0,1,0,5124.76,0.197561,0.197268,4.93806,3,0.0141643,10,0.00097412,-2.30644,-0.272605,-0.21643,-41.8026,0.197268,
2,1,0,1,0,5124.78,0.199558,0.199256,4.8661,3,0.0142619,10,0.000969601,-2.31282,-0.302139,-0.195274,-37.0665,0.199256,
2,1,0,1,0,5124.8,0.201556,0.201256,4.79024,3,0.0143585,10,0.000964063,-2.31964,-0.297826,-0.198102,-37.0459,0.201256,
2,1,0,1,0,5124.82,0.203553,0.203253,4.71802,3,0.0144536,10,0.000958954,-2.32624,-0.314119,-0.187827,-34.6058,0.203253,
2,1,0,1,0,5124.84,0.205551,0.205241,4.65232,3,0.0145473,10,0.000954848,-2.33233,-0.419272,-0.14072,-25.6282,0.205241,
2,1,0,1,0,5124.86,0.207549,0.207254,4.6155,3,0.0146395,10,0.00095658,-2.33578,-0.430039,-0.137197,-24.6455,0.207254,
2,1,0,1,0,5124.88,0.209546,0.209239,4.5538,3,0.0147312,10,0.000952831,-2.34163,-0.34284,-0.172092,-30.5854,0.209239,
2,1,0,1,0,5124.9,0.211544,0.21126,4.49297,3,0.0148217,10,0.000949184,-2.34747,-0.401597,-0.146913,-25.8127,0.21126,
2,1,0,1,0,5124.92,0.213541,0.213235,4.45065,3,0.0149112,10,0.000949033,-2.35158,-0.582369,-0.10131,-17.6261,0.213235,
2,1,0,1,0,5124.94,0.215539,0.215219,4.42319,3,0.0149994,10,0.000951954,-2.35426,-0.506548,-0.116475,-20.0477,0.215219,
2,1,0,1,0,5124.96,0.217537,0.217247,4.37021,3,0.0150873,10,0.000949416,-2.3595,-0.477483,-0.123565,-21.124,0.217247,
2,1,0,1,0,5124.98,0.219534,0.219251,4.33801,3,0.0151744,10,0.000951114,-2.36271,-0.606241,-0.0973211,-16.4723,0.219251,
2,1,0,1,0,5125,0.221532,0.221276,4.30384,3,0.0152609,10,0.000952338,-2.36614,-0.628558,-0.0938657,-15.7752,0.221276,
2,1,0,1,0,5125.02,0.223525,0.223262,4.27474,3,0.0153462,10,0.000954386,-2.36909,-0.669639,-0.0881072,-14.6982,0.223262,
2,1,0,1,0,5125.04,0.225527,0.225256,4.24535,3,0.0154314,10,0.000956289,-2.37209,-0.647911,-0.0910619,-15.0844,0.225256,
2,1,0,1,0,5125.06,0.227525,0.227259,4.21444,3,0.015516,10,0.000957771,-2.37526,-0.609042,-0.0968734,-15.9305,0.227259,
2,1,0,1,0,5125.08,0.229522,0.229223,4.18216,3,0.0156001,10,0.000958645,-2.3786,-0.716533,-0.082341,-13.4576,0.229223,
2,1,0,1,0,5125.1,0.23152,0.231207,4.16131,3,0.0156836,10,0.000962125,-2.38077,-1.12934,-0.0522428,-8.49226,0.231207,
2,1,0,1,0,5125.11,0.233517,0.233216,4.14824,3,0.0157664,10,0.000967437,-2.38214,-0.958428,-0.0615591,-9.9496,0.233216,
2,1,0,1,0,5125.13,0.235515,0.235199,4.1216,3,0.0158492,10,0.000969395,-2.38493,-0.792327,-0.0744642,-11.9851,0.235199,
2,1,0,1,0,5125.15,0.237512,0.237233,4.1001,3,0.0159314,10,0.000972679,-2.38721,-0.922805,-0.0639355,-10.2329,0.237233,
2,1,0,1,0,5125.17,0.23951,0.239213,4.08052,3,0.0160133,10,0.000976113,-2.38928,-1.30705,-0.0451399,-7.19767,0.239213,
2,1,0,1,0,5125.19,0.241508,0.241224,4.07137,3,0.0160945,10,0.000982113,-2.39026,-1.03043,-0.0572575,-9.07748,0.241224,
2,1,0,1,0,5125.21,0.243505,0.243228,4.04408,3,0.0161757,10,0.000983631,-2.39318,-1.03197,-0.0571721,-9.04379,0.243228,
2,1,0,1,0,5125.23,0.245503,0.245227,4.03517,3,0.0162565,10,0.000989533,-2.39414,-1.17828,-0.0500731,-7.87225,0.245227,
2,1,0,1,0,5125.25,0.2475,0.24721,4.01273,3,0.0163371,10,0.000991987,-2.39656,-1.20827,-0.04883,-7.66084,0.24721,
2,1,0,1,0,5125.27,0.249498,0.249181,4.00488,3,0.016417,10,0.00099794,-2.39741,-1.6933,-0.0348433,-5.44172,0.249181,
2,1,0,1,0,5125.29,0.251496,0.251228,3.99086,3,0.0164969,10,0.00100262,-2.39893,-1.19282,-0.0494625,-7.70098,0.251228,
2,1,0,1,0,5125.31,0.253493,0.2532,3.97393,3,0.0165766,10,0.0010062,-2.40078,-1.02127,-0.0577713,-8.95782,0.2532,
2,1,0,1,0,5125.33,0.255491,0.255194,3.95533,3,0.0166559,10,0.00100938,-2.40282,-1.66666,-0.0354002,-5.4749,0.255194,
2,1,0,1,0,5125.35,0.257488,0.257245,3.95178,3,0.0167346,10,0.00101658,-2.40321,-2.53793,-0.0232473,-3.58202,0.257245,
2,1,0,1,0,5125.37,0.259486,0.259208,3.94095,3,0.0168136,10,0.00102153,-2.4044,-1.00082,-0.0589518,-9.0513,0.259208,
2,1,0,1,0,5125.39,0.261484,0.261136,3.91656,3,0.0168922,10,0.00102276,-2.4071,-1.24617,-0.0473451,-7.25504,0.2611362,
2,1,0,1,0,5125.41,0.263481,0.263199,3.91199,3,0.0169706,10,0.00102963,-2.4076,-4.18408,-0.0141011,-2.15296,0.263199,
2,1,0,1,0,5125.43,0.265479,0.265196,3.90782,3,0.0170484,10,0.00103634,-2.40807,-1.43046,-0.0412456,-6.27685,0.265196,
2,1,0,1,0,5125.45,0.267476,0.2672,3.88688,3,0.0171263,10,0.00103858,-2.4104,-1.08869,-0.0541937,-8.23046,0.2672,
2,1,0,1,0,5125.47,0.269474,0.269168,3.87513,3,0.0172039,10,0.00104306,-2.41171,-2.21414,-0.0266469,-4.03371,0.2691685,
2,1,0,1,0,5125.49,0.271471,0.271221,3.87066,3,0.0172814,10,0.00104981,-2.41221,-3.18988,-0.018496,-2.79319,0.271221,
2,1,0,1,0,5125.51,0.273469,0.273172,3.86394,3,0.0173583,10,0.00105552,-2.41297,-1.21257,-0.0486571,-7.32279,0.273172,
2,1,0,1,0,5125.53,0.275467,0.27515,3.84189,3,0.0174353,10,0.0010571,-2.41545,-1.04316,-0.0565588,-8.49138,0.27515,
2,1,0,1,0,5125.55,0.277464,0.277173,3.82997,3,0.0175121,10,0.00106156,-2.4168,-1.52592,-0.0386652,-5.77965,0.277173,
2,1,0,1,0,5125.57,0.279462,0.279202,3.81848,3,0.0175887,10,0.00106612,-2.41811,-1.69123,-0.0348859,-5.20025,0.279202,
2,1,0,1,0,5125.59,0.281464,0.281181,3.80913,3,0.0176649,10,0.00107105,-2.41917,-1.81896,-0.0324361,-4.82167,0.281181,
2,1,0,1,0,5125.61,0.283457,0.283152,3.79943,3,0.0177407,10,0.00107582,-2.42028,-1.40189,-0.042086,-6.23627,0.283152,
2,1,0,1,0,5125.63,0.285455,0.285114,3.7846,3,0.0178167,10,0.00107904,-2.42198,-1.26231,-0.0467395,-6.90542,0.285114,
2,1,0,1,0,5125.65,0.287452,0.287133,3.77194,3,0.0178923,10,0.00108305,-2.42344,-1.63996,-0.0359766,-5.29874,0.287133,
2,1,0,1,0,5125.67,0.28945,0.289153,3.7632,3,0.0179677,10,0.00108814,-2.42444,-2.03506,-0.0289917,-4.258,0.289153,
2,1,0,1,0,5125.69,0.291447,0.29119,3.75466,3,0.0180427,10,0.00109332,-2.42543,-1.13087,-0.0521722,-7.63156,0.29119,
2,1,0,1,0,5125.71,0.293445,0.293107,3.73302,3,0.0181177,10,0.00109418,-2.42794,-1.21723,-0.0484707,-7.07568,0.293107,
2,1,0,1,0,5125.73,0.295442,0.295198,3.7263,3,0.0181924,10,0.0011,-2.42872,-3.22569,-0.0182907,-2.66085,0.295198,
2,1,0,1,0,5125.75,0.29744,0.29719,3.72216,3,0.018267,10,0.00110619,-2.4292,-2.4118,-0.0244631,-3.55087,0.29719,
2,1,0,1,0,5125.77,0.299438,0.299146,3.71228,3,0.0183411,10,0.00111052,-2.43036,-0.0248018,-2.37886,-311.106,0.299146,
2,1,0,1,0,5125.78,0.299737,0.299494,3.0054,3,0.018371,10,0.0009001,-2.5221,0.00168841,34.9442,2023.38,0.299494,
2,1,0,1,0,5125.8,0.29774,0.297508,0.39752,3,0.0184,10,0.000118265,-3.40064,0.00568637,10.3757,881.093,0.297508,
2,0,0,1,0,5125.82,0.295742,0.295426,-0.578796,3,0.0183967,10,-0.000170991,-3.23747,-0.00996653,-5.91981,346.762,0.295426,
2,0,0,1,0,5125.84,0.293745,0.293401,-1.0268,3,0.0183801,10,-0.000301265,-2.98851,-0.0116619,-5.0592,174.012,0.293401,
2,0,0,1,0,5125.86,0.291747,0.291428,-1.27442,3,0.0183569,10,-0.000371403,-2.89469,-0.0263709,-2.23732,106.961,0.291428,
2,0,0,1,0,5125.88,0.289754,0.28947,-1.44718,3,0.0183297,10,-0.000418916,-2.83948,-0.0452008,-1.30529,72.0242,0.28947,
2,0,0,1,0,5125.9,0.287752,0.28742,-1.56313,3,0.0182995,10,-0.000449276,-2.806,-0.0686151,-0.859869,51.9784,0.28742,
2,0,0,1,0,5125.92,0.285754,0.285466,-1.6553,3,0.0182673,10,-0.000472533,-2.78112,-0.0862684,-0.683912,44.0235,0.285466,
2,0,0,1,0,5125.94,0.283757,0.283431,-1.73874,3,0.0182333,10,-0.000492812,-2.75977,-0.100558,-0.586725,39.6977,0.283431,
2,0,0,1,0,5125.96,0.281759,0.281457,-1.81448,3,0.0181976,10,-0.000510697,-2.74125,-0.113823,-0.518349,36.6269,0.281457,
2,0,0,1,0,5125.98,0.279761,0.279456,-1.88434,3,0.0181605,10,-0.00052659,-2.72484,-0.127652,-0.462195,33.9421,0.279456,
2,0,0,1,0,5126,0.277764,0.277448,-1.95055,3,0.0181222,10,-0.000541176,-2.70984,-0.152823,-0.386068,29.2617,0.277448,
2,0,0,1,0,5126.02,0.275766,0.275468,-2.00103,3,0.0180826,10,-0.000551219,-2.69875,-0.184481,-0.319815,24.96,0.275468,
2,0,0,1,0,5126.04,0.273769,0.273471,-2.04982,3,0.0180419,10,-0.000560566,-2.68828,-0.171032,-0.344965,27.6801,0.273471,
2,0,0,1,0,5126.06,0.271771,0.271458,-2.11202,3,0.0180004,10,-0.000573326,-2.6753,-0.17427,-0.338556,27.812,0.271458,
2,0,0,1,0,5126.08,0.269774,0.269472,-2.16103,3,0.0179576,10,-0.000582336,-2.66534,-0.216247,-0.272837,22.9752,0.269472,
2,0,0,1,0,5126.1,0.267776,0.267453,-2.20405,3,0.0179139,10,-0.000589478,-2.65678,-0.252755,-0.233428,20.0483,0.267453,
2,0,0,1,0,5126.12,0.265778,0.26549,-2.24086,3,0.0178695,10,-0.000594925,-2.64959,-0.242378,-0.243422,21.3395,0.26549,
2,0,0,1,0,5126.14,0.263781,0.263471,-2.28902,3,0.0178243,10,-0.000603089,-2.64035,-0.23798,-0.24792,22.1069,0.263471,
2,0,0,1,0,5126.16,0.261783,0.261487,-2.32936,3,0.0177781,10,-0.000609097,-2.63276,-0.311679,-0.189297,17.1633,0.261487,
2,0,0,1,0,5126.18,0.259786,0.259464,-2.35779,3,0.0177312,10,-0.000611762,-2.62749,-0.308534,-0.191227,17.6457,0.259464,
2,0,0,1,0,5126.2,0.257788,0.257492,-2.39986,3,0.0176836,10,-0.000617944,-2.61981,-0.284767,-0.207187,19.3763,0.257492,
2,0,0,1,0,5126.22,0.25579,0.255465,-2.43527,3,0.0176354,10,-0.000622127,-2.61345,-0.335437,-0.17589,16.7011,0.255465,
2,0,0,1,0,5126.24,0.253793,0.253505,-2.46644,3,0.0175863,10,-0.000625255,-2.60793,-0.374237,-0.157654,15.1707,0.253505,
2,0,0,1,0,5126.26,0.251795,0.25144,-2.49634,3,0.0175366,10,-0.000627679,-2.6027,-0.356904,-0.165311,16.1208,0.25144,
2,0,0,1,0,5126.28,0.249798,0.249479,-2.53133,3,0.0174863,10,-0.000631516,-2.59665,-0.331746,-0.177847,17.5675,0.249479,
2,0,0,1,0,5126.3,0.2478,0.247471,-2.56606,3,0.0174355,10,-0.000635026,-2.59073,-0.375555,-0.157101,15.7125,0.2474708,
2,0,0,1,0,5126.32,0.245802,0.245468,-2.59437,3,0.0173838,10,-0.000636834,-2.58597,-0.393747,-0.149842,15.1822,0.245468,
2,0,0,1,0,5126.34,0.243805,0.243488,-2.62654,3,0.0173315,10,-0.000639529,-2.58062,-0.432625,-0.136377,13.9553,0.243488,
2,0,0,1,0,5126.36,0.241807,0.24149,-2.64988,3,0.0172787,10,-0.000639919,-2.57677,-0.381677,-0.154581,16.0405,0.24149,
2,0,0,1,0,5126.38,0.23981,0.23944,-2.69147,3,0.0172256,10,-0.000644444,-2.57001,-0.383542,-0.153829,16.1004,0.23944,
2,0,0,1,0,5126.4,0.237812,0.237504,-2.71405,3,0.0171714,10,-0.000644599,-2.56638,-0.514772,-0.114614,12.1452,0.237504,
2,0,0,1,0,5126.42,0.235815,0.235518,-2.73909,3,0.0171168,10,-0.000645107,-2.56239,-0.50465,-0.116913,12.4976,0.235518,
2,0,0,1,0,5126.44,0.233817,0.233489,-2.76423,3,0.0170618,10,-0.000645418,-2.55843,-0.409736,-0.143995,15.5677,0.233489,
2,0,0,1,0,5126.46,0.231815,0.231506,-2.80155,3,0.0170061,10,-0.000648577,-2.5526,-0.373912,-0.157791,17.2333,0.231506,
2,0,0,1,0,5126.48,0.229822,0.229498,-2.83301,3,0.0169499,10,-0.00065017,-2.54775,-0.560599,-0.105245,11.6015,0.229498,
2,0,0,1,0,5126.5,0.227824,0.227529,-2.84769,3,0.0168931,10,-0.000647933,-2.54551,-0.55353,-0.106589,11.8827,0.227529,
2,0,0,1,0,5126.52,0.225827,0.225527,-2.8802,3,0.0168357,10,-0.000649562,-2.54058,-0.461395,-0.127873,14.3551,0.225527,
2,0,0,1,0,5126.54,0.223829,0.223503,-2.90549,3,0.0167778,10,-0.000649386,-2.53678,-0.476877,-0.123722,14.0423,0.223503,
2,0,0,1,0,5126.56,0.221831,0.221521,-2.93645,3,0.0167195,10,-0.000650485,-2.53218,-0.478884,-0.123203,14.1041,0.221521,
2,0,0,1,0,5126.58,0.219834,0.219545,-2.96131,3,0.0166604,10,-0.000650142,-2.52852,-0.482722,-0.122224,14.1417,0.219545,
2,0,0,1,0,5126.6,0.217836,0.21751,-2.99317,3,0.0166007,10,-0.000651045,-2.52387,-0.51937,-0.113599,13.2464,0.21751,
2,0,0,1,0,5126.62,0.215839,0.215528,-3.01453,3,0.0165405,10,-0.000649714,-2.52078,-0.476172,-0.123905,14.6132,0.2155275,
2,0,0,1,0,5126.64,0.213841,0.213553,-3.05099,3,0.01648,10,-0.000651549,-2.51556,-0.431311,-0.136792,16.2668,0.213553,
2,0,0,1,0,5126.66,0.211843,0.211517,-3.07976,3,0.0164186,10,-0.000651423,-2.51148,-0.547893,-0.107685,12.9317,0.211517,
2,0,0,1,0,5126.68,0.209846,0.209509,-3.1033,3,0.0163566,10,-0.000650167,-2.50818,-0.508865,-0.115944,14.0621,0.2095086,
2,0,0,1,0,5126.7,0.207848,0.207533,-3.1358,3,0.0162942,10,-0.00065078,-2.50365,-0.319113,-0.184887,22.7178,0.207533,
2,0,0,1,0,5126.72,0.205851,0.205515,-3.19401,3,0.0162311,10,-0.000656419,-2.49566,-0.420846,-0.140194,17.3475,0.205515,
2,0,0,1,0,5126.74,0.203853,0.203503,-3.20569,3,0.0161672,10,-0.00065237,-2.49408,-0.917594,-0.0642986,8.05492,0.203503,
2,0,0,1,0,5126.76,0.201856,0.201556,-3.2259,3,0.0161028,10,-0.000650202,-2.49135,-0.487701,-0.120976,15.2774,0.201556,
2,0,0,1,0,5126.78,0.199858,0.199544,-3.26618,3,0.0160377,10,-0.000651747,-2.48596,-0.354111,-0.166614,21.2535,0.199544,
2,0,0,1,0,5126.8,0.19786,0.197527,-3.31155,3,0.0159722,10,-0.000654119,-2.47997,-0.400416,-0.147347,19.0009,0.197527,
2,0,0,1,0,5126.82,0.195863,0.195524,-3.34256,3,0.0159057,10,-0.000653552,-2.47592,-0.469395,-0.125694,16.4046,0.195524,
2,0,0,1,0,5126.84,0.193865,0.193537,-3.377,3,0.0158385,10,-0.000653574,-2.47147,-0.449766,-0.131179,17.2886,0.193537,
2,0,0,1,0,5126.86,0.191868,0.191526,-3.41168,3,0.0157705,10,-0.000653427,-2.46703,-0.371553,-0.158793,21.1872,0.191526,
2,0,0,1,0,5126.88,0.18987,0.189572,-3.46101,3,0.0157021,10,-0.00065611,-2.4608,-0.368135,-0.160267,21.6086,0.189572,
2,0,0,1,0,5126.9,0.187872,0.187523,-3.4982,3,0.0156324,10,-0.000655991,-2.45616,-0.38426,-0.153542,20.9891,0.187523,
2,0,0,1,0,5126.92,0.185875,0.185584,-3.54471,3,0.0155619,10,-0.000657842,-2.45042,-0.375187,-0.157255,21.7333,0.185584,
2,0,0,1,0,5126.94,0.183877,0.183544,-3.58466,3,0.0154905,10,-0.000657943,-2.44555,-0.321592,-0.183463,25.7492,0.1835441,
2,0,0,1,0,5126.96,0.18188,0.181559,-3.64834,3,0.0154185,10,-0.00066239,-2.4379,-0.286349,-0.206042,29.2906,0.181559,
2,0,0,1,0,5126.98,0.179882,0.179569,-3.7011,3,0.0153448,10,-0.000664602,-2.43167,-0.327444,-0.180183,26.0173,0.179569,
2,0,0,1,0,5127,0.177885,0.177582,-3.75183,3,0.0152702,10,-0.000666256,-2.42576,-0.298362,-0.197746,29.0102,0.177582,
2,0,0,1,0,5127.02,0.175887,0.175553,-3.81761,3,0.0151944,10,-0.000670191,-2.41821,-0.246186,-0.239657,35.7632,0.175553,
2,0,0,1,0,5127.04,0.173896,0.173537,-3.89648,3,0.0151176,10,-0.000676183,-2.40933,-0.243396,-0.242403,36.8119,0.173537,
2,0,0,1,0,5127.06,0.171892,0.171527,-3.96579,3,0.0150388,10,-0.000680241,-2.40167,-0.239338,-0.246514,38.209,0.171527,
2,0,0,1,0,5127.08,0.169894,0.169582,-4.04759,3,0.0149586,10,-0.000686399,-2.3928,-0.209778,-0.28125,44.4939,0.169582,
2,0,0,1,0,5127.1,0.167897,0.16755,-4.14276,3,0.0148766,10,-0.000694119,-2.38271,-0.192177,-0.307008,49.6731,0.1675498,
2,0,0,1,0,5127.12,0.165899,0.165597,-4.24556,3,0.0147926,10,-0.000703051,-2.37207,-0.188094,-0.313674,51.9638,0.165597,
2,0,0,1,0,5127.14,0.163901,0.16359,-4.34854,3,0.0147069,10,-0.000711377,-2.36166,-0.177073,-0.333197,56.6664,0.16359,
2,0,0,1,0,5127.16,0.161904,0.161603,-4.47188,3,0.0146186,10,-0.000722669,-2.34951,-0.154652,-0.381502,66.6882,0.161603,
2,0,0,1,0,5127.18,0.159906,0.159636,-4.61219,3,0.0145276,10,-0.000736273,-2.33609,-0.148675,-0.39684,71.4468,0.159636,
2,0,0,1,0,5127.2,0.157909,0.157605,-4.7575,3,0.0144339,10,-0.000749806,-2.32262,-0.138676,-0.425452,79.2092,0.157605,
2,0,0,1,0,5127.22,0.155911,0.155595,-4.93233,3,0.0143373,10,-0.000767444,-2.30695,-0.12245,-0.481828,92.9387,0.155595,
2,0,0,1,0,5127.24,0.153913,0.153574,-5.13211,3,0.0142365,10,-0.000788161,-2.2897,-0.118227,-0.499038,99.8888,0.153574,
2,0,0,1,0,5127.26,0.151916,0.151608,-5.33051,3,0.0141318,10,-0.00080815,-2.27323,-0.110731,-0.532824,111.264,0.151608,
2,0,0,1,0,5127.28,0.149918,0.149591,-5.5753,3,0.0140226,10,-0.000834015,-2.25373,-0.0988912,-0.596615,130.1,0.149591,
2,0,0,1,0,5127.3,0.147921,0.147595,-5.85263,3,0.0139088,10,-0.00086382,-2.23265,-0.0965126,-0.611319,139.584,0.147595,
2,0,0,1,0,5127.32,0.145923,0.145582,-6.13494,3,0.0137887,10,-0.000893136,-2.21219,-0.0931926,-0.633097,151.956,0.145582,
2,0,0,1,0,5127.34,0.143926,0.143615,-6.4575,3,0.0136627,10,-0.000927391,-2.18994,-0.0870289,-0.677936,171.138,0.143615,
2,0,0,1,0,5127.36,0.141928,0.141616,-6.81361,3,0.0135299,10,-0.000964918,-2.16662,-0.0856427,-0.688908,183.3,0.141616,
2,0,0,1,0,5127.38,0.13993,0.139613,-7.19101,3,0.0133904,10,-0.00100396,-2.14321,-0.0883259,-0.667981,187.307,0.1396129,
2,0,0,1,0,5127.4,0.137933,0.13758,-7.5696,3,0.0132428,10,-0.00104143,-2.12093,-0.0895922,-0.65854,194.637,0.13758,
2,0,0,1,0,5127.42,0.135935,0.135617,-7.96873,3,0.0130873,10,-0.0010807,-2.09861,-0.0894422,-0.659644,205.089,0.135617,
2,0,0,1,0,5127.44,0.133938,0.133643,-8.37707,3,0.0129236,10,-0.00111954,-2.07691,-0.0947575,-0.622642,203.295,0.133643,
2,0,0,1,0,5127.46,0.13194,0.131644,-8.77655,3,0.012753,10,-0.00115538,-2.05668,-0.101122,-0.583452,199.777,0.131644,
2,0,0,1,0,5127.48,0.129942,0.129612,-9.18236,3,0.0125733,10,-0.00119014,-2.03705,-0.10733,-0.549708,196.665,0.129612,
2,0,0,1,0,5127.5,0.127945,0.127614,-9.56901,3,0.0123856,10,-0.00122114,-2.01913,-0.117815,-0.500786,186.629,0.127614,
2,0,0,1,0,5127.52,0.125947,0.12563,-9.92548,3,0.0121905,10,-0.00124694,-2.00325,-0.12725,-0.463654,179.502,0.12563,
2,0,0,1,0,5127.54,0.12395,0.123656,-10.2794,3,0.0119894,10,-0.00127112,-1.98803,-0.141057,-0.41827,167.404,0.123656,
2,0,0,1,0,5127.56,0.121952,0.121647,-10.5922,3,0.0117804,10,-0.00128852,-1.97501,-0.16788,-0.351441,144.945,0.121647,
2,0,0,1,0,5127.58,0.119955,0.11964,-10.8616,3,0.0115656,10,-0.00129948,-1.96411,-0.187693,-0.314344,133.15,0.11964,
2,0,0,1,0,5127.6,0.117957,0.11769,-11.1192,3,0.0113457,10,-0.00130861,-1.95393,-0.209172,-0.282064,122.242,0.11769,
2,0,0,1,0,5127.62,0.115955,0.115632,-11.3515,3,0.0111208,10,-0.0013126,-1.94495,-0.254173,-0.232125,102.587,0.1156323,
2,0,0,1,0,5127.64,0.113962,0.11367,-11.5316,3,0.0108928,10,-0.00131079,-1.93811,-0.308505,-0.191245,85.9926,0.11367,
2,0,0,1,0,5127.66,0.111964,0.111659,-11.6931,3,0.0106604,10,-0.00130565,-1.93207,-0.370917,-0.159065,72.4872,0.111659,
2,0,0,1,0,5127.68,0.109967,0.109647,-11.8231,3,0.010425,10,-0.00129638,-1.92727,-0.481173,-0.122617,56.4935,0.1096475,
2,0,0,1,0,5127.7,0.107969,0.107669,-11.9185,3,0.0101875,10,-0.00128326,-1.92378,-0.674402,-0.0874849,40.6424,0.107669,
2,0,0,1,0,5127.72,0.105971,0.105673,-11.9847,3,0.00994951,10,-0.00126646,-1.92137,-1.14616,-0.0514764,24.04,0.105673,
2,0,0,1,0,5127.74,0.103974,0.103686,-12.0143,3,0.00970941,10,-0.00124572,-1.9203,-4.03519,-0.0146214,6.84665,0.103686,
2,0,0,1,0,5127.76,0.101976,0.101633,-12.0123,3,0.00946901,10,-0.00122085,-1.92037,2.75732,0.0213976,-10.0162,0.101633,
2,0,0,1,0,5127.78,0.0999786,0.0996966,-11.9743,3,0.00922909,10,-0.0011938,-1.92175,1.20575,0.0489321,-22.853,0.0996966,
2,0,0,1,0,5127.8,0.0979811,0.0976731,-11.9218,3,0.00899112,10,-0.00116444,-1.92366,0.766579,0.0769653,-35.75,0.0976731,
2,0,0,1,0,5127.82,0.0959835,0.095654,-11.8298,3,0.00875343,10,-0.00113157,-1.92702,0.49939,0.118144,-54.4673,0.095654,
2,0,0,1,0,5127.84,0.0939859,0.0936892,-11.7048,3,0.00851802,10,-0.00109662,-1.93164,0.394044,0.149729,-68.3312,0.0936892,
2,0,0,1,0,5127.86,0.0919883,0.0916826,-11.5584,3,0.00828524,10,-0.00105971,-1.9371,0.368607,0.160062,-72.2053,0.0916826,
2,0,0,1,0,5127.88,0.0899907,0.0896644,-11.4142,3,0.00805643,10,-0.00102345,-1.94255,0.311411,0.18946,-84.2046,0.0896644,
2,0,0,1,0,5127.9,0.0879931,0.0876585,-11.2196,3,0.00782992,10,-0.000983493,-1.95002,0.271902,0.21699,-95.037,0.0876585,
2,0,0,1,0,5127.92,0.0859955,0.0856531,-11.033,3,0.00760726,10,-0.000945008,-1.95731,0.26986,0.218632,-94.1271,0.0856531,
2,0,0,1,0,5127.94,0.083998,0.0836858,-10.8457,3,0.00738839,10,-0.000907627,-1.96474,0.264734,0.222865,-94.324,0.0836858,
2,0,0,1,0,5127.96,0.0820004,0.0816829,-10.6585,3,0.00717431,10,-0.000870617,-1.9723,0.267116,0.220878,-91.9034,0.08168292,
2,0,0,1,0,5127.98,0.0800028,0.0796999,-10.4793,3,0.00696287,10,-0.000835202,-1.97967,0.277212,0.212833,-87.0731,0.0796999,
2,0,0,1,0,5128,0.0780052,0.0776717,-10.3092,3,0.00675498,10,-0.000800735,-1.98677,0.296938,0.198695,-79.9997,0.0776717,
2,0,0,1,0,5128.02,0.0760076,0.0756534,-10.1556,3,0.00655033,10,-0.000768307,-1.99329,0.323597,0.182326,-72.3234,0.0756534,
2,0,0,1,0,5128.04,0.07401,0.0736766,-10.0203,3,0.00634975,10,-0.000738261,-1.99912,0.331936,0.177745,-69.4849,0.0736766,
2,0,0,1,0,5128.06,0.0720124,0.0716759,-9.87925,3,0.0061507,10,-0.000708104,-2.00528,0.36714,0.160702,-62.0613,0.0716759,
2,0,0,1,0,5128.08,0.0700148,0.0696709,-9.77169,3,0.00595413,10,-0.000680802,-2.01003,0.392755,0.150221,-57.2537,0.0696709,
2,0,0,1,0,5128.1,0.0680173,0.0677292,-9.65328,3,0.00575995,10,-0.000653809,-2.01533,0.446878,0.132027,-49.8335,0.0677292,
2,0,0,1,0,5128.12,0.0660106,0.0656647,-9.57205,3,0.00556777,10,-0.000628546,-2.019,0.498002,0.118474,-44.2207,0.0656647,
2,0,0,1,0,5128.14,0.0640221,0.0637052,-9.47533,3,0.00537819,10,-0.000603628,-2.02341,0.444014,0.132879,-49.1349,0.0637052,
2,0,0,1,0,5128.16,0.0620245,0.0617209,-9.37827,3,0.00518961,10,-0.000578835,-2.02788,0.469844,0.125573,-45.9838,0.0617209,
2,0,0,1,0,5128.18,0.0600269,0.0597035,-9.29132,3,0.00500277,10,-0.000554724,-2.03192,0.537886,0.109689,-39.8033,0.0597035,
2,0,0,1,0,5128.2,0.0580361,0.0577032,-9.21835,3,0.00481851,10,-0.000531928,-2.03535,0.547048,0.107852,-38.7773,0.05770316,
2,0,0,1,0,5128.22,0.0560317,0.0556599,-9.13452,3,0.00463478,10,-0.000508427,-2.03931,0.532074,0.110887,-39.5477,0.0556599,
2,0,0,1,0,5128.24,0.0540342,0.0536792,-9.05921,3,0.00445273,10,-0.000486291,-2.04291,0.531134,0.111083,-39.2621,0.0536792,
2,0,0,1,0,5128.26,0.0520366,0.051698,-8.97897,3,0.00427221,10,-0.000464195,-2.04677,0.489699,0.120482,-42.2018,0.051698,
2,0,0,1,0,5128.28,0.050039,0.0497112,-8.89176,3,0.00409333,10,-0.00044202,-2.05101,0.507691,0.116212,-40.3596,0.0497112,
2,0,0,1,0,5128.3,0.0480414,0.0477365,-8.81909,3,0.0039169,10,-0.000420993,-2.05458,0.544632,0.10833,-37.2753,0.04773654,
2,0,0,1,0,5128.32,0.0460438,0.0456988,-8.74219,3,0.00374118,10,-0.000399507,-2.05838,0.474932,0.124228,-42.3432,0.0456988,
2,0,0,1,0,5128.34,0.0440462,0.0437178,-8.64892,3,0.00356716,10,-0.000378112,-2.06304,0.432211,0.136507,-46.0838,0.0437178,
2,0,0,1,0,5128.36,0.0420486,0.0417224,-8.55894,3,0.00339508,10,-0.000357099,-2.06758,0.470044,0.12552,-41.9536,0.0417224,
2,0,0,1,0,5128.38,0.040051,0.0396977,-8.48026,3,0.00322538,10,-0.000336647,-2.07159,0.439285,0.134309,-44.3983,0.0396977,
2,0,0,1,0,5128.4,0.0380535,0.0377422,-8.38223,3,0.00305668,10,-0.000316363,-2.07664,0.355371,0.166023,-54.2516,0.03774216,
2,0,0,1,0,5128.42,0.0360559,0.0357592,-8.26659,3,0.00289012,10,-0.000295607,-2.08267,0.358689,0.164488,-53.124,0.0357592,
2,0,0,1,0,5128.44,0.0340583,0.0337403,-8.16963,3,0.00272561,10,-0.000275646,-2.0878,0.382464,0.154263,-49.1694,0.0337403,
2,0,0,1,0,5128.46,0.0320607,0.0317302,-8.06849,3,0.00256394,10,-0.000256014,-2.09321,0.32179,0.183349,-57.6326,0.03173016,
2,0,0,1,0,5128.48,0.0300631,0.029755,-7.93995,3,0.00240377,10,-0.000236254,-2.10018,0.298019,0.197974,-61.3933,0.029755,
2,0,0,1,0,5128.5,0.0280655,0.0277608,-7.8248,3,0.00224603,10,-0.000217223,-2.10653,0.314245,0.187752,-57.3346,0.02776083,
2,0,0,1,0,5128.52,0.0260679,0.0257554,-7.71064,3,0.00209061,10,-0.000198591,-2.11291,0.302042,0.195337,-58.7514,0.0257554,
2,0,0,1,0,5128.54,0.0240704,0.0237616,-7.58983,3,0.00193828,10,-0.000180346,-2.11977,0.302043,0.195336,-57.8879,0.0237616,
2,0,0,1,0,5128.56,0.0220728,0.0217283,-7.47752,3,0.00178754,10,-0.000162474,-2.12624,0.30496,0.193468,-56.4452,0.0217283,
2,0,0,1,0,5128.58,0.0200752,0.0197393,-7.3628,3,0.00163908,10,-0.000145337,-2.13296,0.292363,0.201804,-57.9832,0.01973935,
2,0,0,1,0,5128.6,0.0180776,0.0177721,-7.24812,3,0.00149288,10,-0.000128814,-2.13977,0.32152,0.183503,-51.9887,0.0177721,
2,0,0,1,0,5128.62,0.01608,0.0157806,-7.15699,3,0.00134953,10,-0.000112942,-2.14527,0.357687,0.164949,-46.0558,0.0157806,
2,0,0,1,0,5128.64,0.0140824,0.0137192,-7.06146,3,0.00120722,10,-9.68776e-05,-2.15111,0.338364,0.174369,-48.0453,0.0137192,
2,0,0,1,0,5128.66,0.0120848,0.0117711,-6.96435,3,0.00106679,10,-8.19777e-05,-2.15712,0.352707,0.167277,-45.5121,0.0117711,
2,0,0,1,0,5128.68,0.0100872,0.00978266,-6.8823,3,0.000928164,10,-6.73272e-05,-2.16227,0.467971,0.126076,-33.9327,0.00978266,
2,0,0,1,0,5128.7,0.00809193,0.00777854,-6.82887,3,0.000791646,10,-5.31187e-05,-2.16565,0.560068,0.105344,-28.0626,0.00777854,
2,0,0,1,0,5128.72,0.00609208,0.00576527,-6.76956,3,0.000655569,10,-3.90283e-05,-2.16944,0.504732,0.116894,-30.8696,0.00576527,
2,0,0,1,0,5128.74,0.00409449,0.00376197,-6.70488,3,0.000520803,10,-2.52235e-05,-2.17361,1.24193,0.0475069,-12.5039,0.00376197,
2,0,0,1,0,5128.76,0.0020969,0.0016988,-6.71872,3,0.00038694,10,-1.14138e-05,-2.17271,1.32041,0.0446831,-11.651,0.0016988,
2,0,0,1,0,5128.78,9.14991e-05,-0.000293222,-6.65763,3,0.000253147,10,1.95217e-06,-2.17668,0.587478,0.100429,-26.1306,-0.0002932222,
2,0,0,1,0,5128.8,-0.00189827,-0.00225439,-6.61542,3,0.000120976,10,1.49137e-05,-2.17944,0.840435,0.0702017,-18.1402,-0.00225439,
2,0,0,1,0,5128.82,-0.00389586,-0.00431499,-6.58468,3,-1.1159e-05,10,2.84128e-05,-2.18147,1.2998,0.0453915,-11.6778,-0.00431499,
2,0,0,1,0,5128.84,-0.00589345,-0.00624571,-6.56881,3,-0.000142802,10,4.10269e-05,-2.18251,1.6206,0.0364063,-9.32956,-0.00624571,
2,0,0,1,0,5128.86,-0.00789103,-0.00825279,-6.54794,3,-0.000274078,10,5.40388e-05,-2.1839,9.99065,0.00590552,-1.51324,-0.00825279,
2,0,0,1,0,5128.88,-0.00988862,-0.0102477,-6.56275,3,-0.000404671,10,6.72531e-05,-2.18291,-3.9017,-0.0151216,3.86883,-0.0102477,
2,0,0,1,0,5128.9,-0.0118862,-0.0122636,-6.56346,3,-0.000536006,10,8.04915e-05,-2.18287,18.428,0.00320165,-0.819815,-0.0122636,
2,0,0,1,0,5128.92,-0.0138838,-0.0142239,-6.55949,3,-0.000667382,10,9.33018e-05,-2.18313,-3.70294,-0.0159333,4.08638,-0.0142239,
2,0,0,1,0,5128.94,-0.0158814,-0.0162416,-6.57971,3,-0.000798868,10,0.000106865,-2.18179,-1.25703,-0.0469361,12.0593,-0.01624155,
2,0,0,1,0,5128.96,-0.017879,-0.0181994,-6.60743,3,-0.000930242,10,0.000120251,-2.17997,-1.24259,-0.0474816,12.2377,-0.0181994,
2,0,0,1,0,5128.98,-0.0198766,-0.0202255,-6.62847,3,-0.00106268,10,0.000134064,-2.17859,-1.33357,-0.0442423,11.4489,-0.0202255,
2,0,0,1,0,5129,-0.0218741,-0.0222753,-6.6541,3,-0.00119547,10,0.000148222,-2.17691,-1.12768,-0.05232,13.5903,-0.0222753,
2,0,0,1,0,5129.02,-0.0238717,-0.0242509,-6.68317,3,-0.00132885,10,0.000162073,-2.17502,-0.869726,-0.0678374,17.7099,-0.0242509,
2,0,0,1,0,5129.04,-0.0258693,-0.0262624,-6.72471,3,-0.00146235,10,0.000176607,-2.17233,-0.888532,-0.0664017,17.4094,-0.0262624,
2,0,0,1,0,5129.06,-0.0278669,-0.0282627,-6.75302,3,-0.00159717,10,0.000190858,-2.1705,-0.901071,-0.0654777,17.2714,-0.0282627,
2,0,0,1,0,5129.08,-0.0298645,-0.0302182,-6.79303,3,-0.00173268,10,0.000205273,-2.16794,-0.797552,-0.0739764,19.6086,-0.0302182,
2,0,0,1,0,5129.1,-0.0318621,-0.0322328,-6.83087,3,-0.001869,10,0.000220178,-2.16552,-0.691053,-0.085377,22.787,-0.0322328,
2,0,0,1,0,5129.12,-0.0338597,-0.0342493,-6.88489,3,-0.00200552,10,0.000235803,-2.1621,-0.665157,-0.0887009,23.8118,-0.0342493,
2,0,0,1,0,5129.14,-0.0358573,-0.036251,-6.92655,3,-0.00214372,10,0.000251094,-2.15948,-0.659519,-0.0894591,24.2046,-0.03625099,
2,0,0,1,0,5129.16,-0.0378548,-0.0382195,-6.98098,3,-0.00228293,10,0.000266809,-2.15608,-0.663685,-0.0888977,24.1969,-0.0382195,
2,0,0,1,0,5129.18,-0.0398524,-0.0402133,-7.02242,3,-0.0024231,10,0.000282394,-2.15351,-0.568553,-0.103772,28.5024,-0.0402133,
2,0,0,1,0,5129.2,-0.04185,-0.0422172,-7.09493,3,-0.00256362,10,0.000299528,-2.14905,-0.522023,-0.113022,31.2487,-0.0422172,
2,0,0,1,0,5129.22,-0.0438476,-0.0441945,-7.14683,3,-0.00270612,10,0.000315851,-2.14589,-0.628869,-0.0938192,26.1676,-0.0441945,
2,0,0,1,0,5129.24,-0.0458452,-0.0461874,-7.19882,3,-0.00284975,10,0.000332495,-2.14274,-0.586956,-0.100519,28.2595,-0.0461874,
2,0,0,1,0,5129.26,-0.0478428,-0.0482289,-7.26084,3,-0.00299445,10,0.000350182,-2.13901,-0.45748,-0.128967,36.6032,-0.0482289,
2,0,0,1,0,5129.28,-0.0498495,-0.0502187,-7.34638,3,-0.00314055,10,0.000368926,-2.13393,-0.465461,-0.126756,36.2718,-0.0502187,
2,0,0,1,0,5129.3,-0.051838,-0.0521794,-7.40413,3,-0.00328739,10,0.000386343,-2.13053,-0.536429,-0.109987,31.8028,-0.0521794,
2,0,0,1,0,5129.32,-0.0538355,-0.0541698,-7.47203,3,-0.00343617,10,0.000404759,-2.12656,-0.494833,-0.119232,34.7762,-0.0541698,
2,0,0,1,0,5129.34,-0.0558331,-0.0561827,-7.54335,3,-0.00358641,10,0.000423806,-2.12244,-0.473949,-0.124486,36.6589,-0.0561827,
2,0,0,1,0,5129.36,-0.0578216,-0.0581981,-7.61971,3,-0.00373737,10,0.000443452,-2.11806,-0.442435,-0.133353,39.6671,-0.0581981,
2,0,0,1,0,5129.38,-0.0598283,-0.0601576,-7.70102,3,-0.00389074,10,0.000463275,-2.11345,-0.410316,-0.143792,43.241,-0.0601576,
2,0,0,1,0,5129.4,-0.0618259,-0.0621795,-7.79187,3,-0.00404574,10,0.000484495,-2.10836,-0.419637,-0.140598,42.7236,-0.0621795,
2,0,0,1,0,5129.42,-0.0638235,-0.0641598,-7.87201,3,-0.00420246,10,0.000505067,-2.10391,-0.436559,-0.135148,41.5346,-0.0641598,
2,0,0,1,0,5129.44,-0.0658211,-0.0661848,-7.95823,3,-0.00436089,10,0.000526714,-2.09918,-0.382598,-0.154209,47.9502,-0.0661848,
2,0,0,1,0,5129.46,-0.0678187,-0.068155,-8.06358,3,-0.00452051,10,0.000549574,-2.09347,-0.363099,-0.16249,51.1107,-0.068155,
2,0,0,1,0,5129.48,-0.0698162,-0.0701741,-8.16212,3,-0.00468286,10,0.00057277,-2.0882,-0.398247,-0.148149,47.1638,-0.0701741,
2,0,0,1,0,5129.5,-0.0718138,-0.0721443,-8.25173,3,-0.00484716,10,0.000595315,-2.08345,-0.375216,-0.157243,50.7094,-0.0721443,
2,0,0,1,0,5129.52,-0.0738114,-0.0741816,-8.36534,3,-0.00501354,10,0.000620555,-2.07752,-0.32849,-0.17961,58.6635,-0.0741816,
2,0,0,1,0,5129.54,-0.075809,-0.0761619,-8.48742,3,-0.00518145,10,0.000646418,-2.07122,-0.341777,-0.172627,57.1242,-0.0761619,
2,0,0,1,0,5129.56,-0.0778066,-0.0781808,-8.59379,3,-0.00535244,10,0.000671869,-2.06582,-0.347863,-0.169607,56.932,-0.07818079,
2,0,0,1,0,5129.58,-0.0798042,-0.0801698,-8.7156,3,-0.0055257,10,0.000698727,-2.0597,-0.32229,-0.183065,62.2732,-0.0801698,
2,0,0,1,0,5129.6,-0.0818018,-0.082134,-8.83997,3,-0.00570138,10,0.000726062,-2.05355,-0.316848,-0.186209,64.2694,-0.082134,
2,0,0,1,0,5129.62,-0.0837994,-0.0841793,-8.97328,3,-0.00587876,10,0.000755364,-2.04705,-0.333286,-0.177025,61.9338,-0.0841793,
2,0,0,1,0,5129.64,-0.0857969,-0.0861764,-9.09033,3,-0.0060595,10,0.000783371,-2.04142,-0.324133,-0.182024,64.6502,-0.0861764,
2,0,0,1,0,5129.66,-0.0877945,-0.0881415,-9.22944,3,-0.00624284,10,0.000813497,-2.03482,-0.309722,-0.190493,68.5862,-0.0881415,
2,0,0,1,0,5129.68,-0.0897921,-0.0901395,-9.36214,3,-0.00642883,10,0.000843898,-2.02862,-0.323461,-0.182402,66.6475,-0.0901395,
2,0,0,1,0,5129.7,-0.0917897,-0.0921518,-9.49672,3,-0.00661645,10,0.00087514,-2.02243,-0.334283,-0.176497,65.3785,-0.0921518,
2,0,0,1,0,5129.72,-0.0937873,-0.0941139,-9.62198,3,-0.00680768,10,0.000905563,-2.01674,-0.35845,-0.164597,61.7874,-0.0941139,
2,0,0,1,0,5129.74,-0.0957849,-0.0961146,-9.74157,3,-0.00700142,10,0.000936308,-2.01137,-0.363922,-0.162123,61.6586,-0.0961146,
2,0,0,1,0,5129.76,-0.0977825,-0.0981249,-9.86929,3,-0.00719755,10,0.000968423,-2.00571,-0.358981,-0.164354,63.2919,-0.0981249,
2,0,0,1,0,5129.78,-0.0997501,-0.100109,-9.99439,3,-0.00739211,10,0.00100053,-2.00024,0.00712308,8.28294,-2737.66,-0.100109,
2,0,0,1,1,5129.79,-0.0987313,-0.099097,-7.20787,3,-0.00752391,10,0.000714278,-2.14219,-0.00854016,-6.90854,1842.75,-0.099097,
2,0,0,1,1,5129.81,-0.0967337,-0.0970859,-4.42345,3,-0.00763779,10,0.000429455,-2.35424,-0.00868803,-6.79096,1177.11,-0.0970859,
2,0,0,1,1,5129.83,-0.0947361,-0.0950922,-2.49369,3,-0.00770556,10,0.000237131,-2.60316,-0.0064108,-9.20322,845.705,-0.0950922,
2,0,0,1,1,5129.85,-0.0927386,-0.0931092,-1.06036,3,-0.00774016,10,9.87292e-05,-2.97455,-0.00212336,-27.7861,628.273,-0.0931092,
2,0,0,1,1,5129.87,-0.090741,-0.0910723,0.0318912,3,-0.00774969,10,-2.90441e-06,-4.49633,-0.0510766,-1.15513,483.014,-0.0910723,
2,1,0,1,1,5129.89,-0.0887434,-0.089083,0.884354,3,-0.00773998,10,-7.87809e-05,-3.05337,0.00235174,25.0878,387.334,-0.089083,
2,1,0,1,1,5129.91,-0.0867458,-0.0870897,1.57449,3,-0.00771492,10,-0.000137122,-2.80286,0.0103174,5.71847,316.488,-0.0870897,
2,1,0,1,1,5129.93,-0.0847482,-0.0851386,2.13272,3,-0.00767747,10,-0.000181577,-2.67107,0.0180725,3.26463,260.475,-0.0851386,
2,1,0,1,1,5129.95,-0.0827529,-0.0831539,2.59966,3,-0.00763019,10,-0.000216172,-2.58508,0.0273475,2.15742,213.687,-0.0831539,
2,1,0,1,1,5129.97,-0.080753,-0.0811198,2.99148,3,-0.00757394,10,-0.000242668,-2.52411,0.0378555,1.55856,179.177,-0.0811198,
2,1,0,1,1,5129.99,-0.0787554,-0.0791265,3.32128,3,-0.00751056,10,-0.000262801,-2.47869,0.049983,1.1804,151.313,-0.0791265,
2,1,0,1,1,5130.01,-0.0767579,-0.0771227,3.59629,3,-0.00744115,10,-0.000277356,-2.44415,0.0629131,0.937802,130.847,-0.0771227,
2,1,0,1,1,5130.03,-0.0747603,-0.0751502,3.84156,3,-0.00736656,10,-0.000288694,-2.41549,0.0754038,0.782454,116.823,-0.0751502,
2,1,0,1,1,5130.05,-0.0727627,-0.0731144,4.06455,3,-0.00728759,10,-0.000297178,-2.39099,0.095826,0.615699,96.9229,-0.0731144,
2,1,0,1,1,5130.07,-0.0707651,-0.0711223,4.23196,3,-0.0072044,10,-0.000300987,-2.37346,0.117102,0.503833,83.1317,-0.0711223,
2,1,0,1,1,5130.09,-0.0687675,-0.0691347,4.39539,3,-0.00711793,10,-0.000303874,-2.357,0.136221,0.433121,74.0299,-0.0691347,
2,1,0,1,1,5130.11,-0.0667699,-0.0670878,4.53063,3,-0.00702846,10,-0.00030395,-2.34384,0.159088,0.370863,65.5031,-0.0670878,
2,1,0,1,1,5130.13,-0.0647723,-0.0651177,4.65852,3,-0.0069367,10,-0.000303352,-2.33175,0.185853,0.317454,57.5527,-0.0651177,
2,1,0,1,1,5130.15,-0.0627748,-0.0630671,4.76204,3,-0.00684229,10,-0.000300328,-2.32221,0.212259,0.277962,51.6544,-0.0630671,
2,1,0,1,1,5130.17,-0.0607772,-0.0610955,4.86629,3,-0.00674575,10,-0.000297308,-2.3128,0.23305,0.253164,47.9822,-0.0610955,
2,1,0,1,1,5130.19,-0.0587796,-0.0591082,4.95199,3,-0.00664737,10,-0.000292703,-2.30522,0.278105,0.21215,40.9603,-0.0591082,
2,1,0,1,1,5130.21,-0.056782,-0.0571251,5.02892,3,-0.00654793,10,-0.000287277,-2.29853,0.338232,0.174436,34.1692,-0.0571251,
2,1,0,1,1,5130.23,-0.0547844,-0.055157,5.087,3,-0.00644657,10,-0.000280584,-2.29354,0.39279,0.150207,29.8294,-0.055157,
2,1,0,1,1,5130.25,-0.0527868,-0.0531151,5.14853,3,-0.00634405,10,-0.000273465,-2.28832,0.439253,0.134319,26.9511,-0.0531151,
2,1,0,1,1,5130.27,-0.0507892,-0.0511117,5.19603,3,-0.00624048,10,-0.000265578,-2.28433,0.461005,0.127981,25.9746,-0.0511117,
2,1,0,1,1,5130.29,-0.0487916,-0.0491056,5.25268,3,-0.0061364,10,-0.000257936,-2.27962,0.520058,0.113449,23.2114,-0.0491056,
2,1,0,1,1,5130.31,-0.046794,-0.0470971,5.28921,3,-0.00603087,10,-0.000249106,-2.27661,0.856918,0.0688514,14.1891,-0.0470971,
2,1,0,1,1,5130.33,-0.0447965,-0.0451701,5.30852,3,-0.00592476,10,-0.000239786,-2.27503,0.9447,0.0624537,12.9539,-0.0451701,
2,1,0,1,1,5130.35,-0.0427989,-0.0431551,5.34028,3,-0.00581812,10,-0.00023046,-2.27244,0.797461,0.0739848,15.4164,-0.0431551,
2,1,0,1,1,5130.37,-0.0408013,-0.0411809,5.37002,3,-0.00571141,10,-0.000221142,-2.27002,1.52455,0.0386999,8.0903,-0.0411809,
2,1,0,1,1,5130.39,-0.0388037,-0.0391116,5.37299,3,-0.00560373,10,-0.000210146,-2.26978,2.31711,0.0254628,5.34692,-0.0391116,
2,1,0,1,1,5130.41,-0.0368061,-0.0372012,5.3913,3,-0.00549582,10,-0.000200563,-2.26831,1.40157,0.0420958,8.85616,-0.0372012,
2,1,0,1,1,5130.43,-0.0348085,-0.0351132,5.4084,3,-0.00538757,10,-0.000189906,-2.26693,1.52855,0.0385986,8.14611,-0.0351132,
2,1,0,1,1,5130.45,-0.0328109,-0.0331633,5.42419,3,-0.00527964,10,-0.000179884,-2.26567,2.60331,0.0226634,4.792,-0.0331633,
2,1,0,1,1,5130.47,-0.0308134,-0.0311622,5.42733,3,-0.00517099,10,-0.000169128,-2.26541,-577.03,-0.000102248,-0.0216446,-0.0311622,
2,1,0,1,1,5130.49,-0.0288158,-0.0291546,5.4241,3,-0.00506229,10,-0.000158137,-2.26567,23.2246,0.00254041,0.538196,-0.0291546,
2,1,0,1,1,5130.51,-0.0268182,-0.0271335,5.4295,3,-0.00495355,10,-0.000147321,-2.26524,8.75523,0.00673883,1.42726,-0.0271335,
2,1,0,1,1,5130.53,-0.0248138,-0.0251592,5.4298,3,-0.00484488,10,-0.00013661,-2.26522,16.8387,0.00350383,0.742651,-0.0251592,
2,1,0,1,1,5130.55,-0.022823,-0.0231608,5.43245,3,-0.00473663,10,-0.00012582,-2.265,31.275,0.00188649,0.399822,-0.0231608,
2,1,0,1,1,5130.57,-0.0208254,-0.0211674,5.4314,3,-0.00462785,10,-0.000114969,-2.26509,-3.0147,-0.0195707,-4.14287,-0.0211674,
2,1,0,1,1,5130.59,-0.0188278,-0.0191492,5.41583,3,-0.00451925,10,-0.000103709,-2.26633,-3.33905,-0.0176697,-3.7403,-0.01914916,
2,1,0,1,1,5130.61,-0.0168393,-0.0171755,5.41647,3,-0.00441127,10,-9.30307e-05,-2.26628,40.0271,0.001474,0.311585,-0.0171755,
2,1,0,1,1,5130.63,-0.0148327,-0.0151996,5.41706,3,-0.00430271,10,-8.23369e-05,-2.26624,-6.13754,-0.00961297,-2.03054,-0.0151996,
2,1,0,1,1,5130.65,-0.0128351,-0.0131819,5.40836,3,-0.00419433,10,-7.12927e-05,-2.26693,-3.3271,-0.0177332,-3.74374,-0.0131819,
2,1,0,1,1,5130.67,-0.0108375,-0.011153,5.40191,3,-0.00408609,10,-6.02478e-05,-2.26745,-3.41961,-0.0172535,-3.63681,-0.011153,
2,1,0,1,1,5130.69,-0.00883989,-0.00918141,5.39381,3,-0.0039779,10,-4.95228e-05,-2.2681,-5.94739,-0.00992032,-2.08981,-0.00918141,
2,1,0,1,1,5130.71,-0.0068423,-0.00721709,5.39369,3,-0.00387022,10,-3.89267e-05,-2.26811,-23.0228,-0.00256268,-0.539345,-0.00721709,
2,1,0,1,1,5130.73,-0.00484471,-0.00518429,5.39166,3,-0.00376217,10,-2.79519e-05,-2.26828,-8.41734,-0.00700934,-1.47464,-0.00518429,
2,1,0,1,1,5130.75,-0.00284713,-0.00317141,5.38772,3,-0.00365421,10,-1.70867e-05,-2.26859,-4.98426,-0.0118373,-2.48849,-0.00317141,
2,1,0,1,1,5130.77,-0.000849538,-0.00117554,5.38168,3,-0.00354628,10,-6.32638e-06,-2.26908, , , ,-0.00117554,
2,1,0,1,1,5130.78,-2.55332e-05,-0.000363498,5.40801,3,-0.00350259,10,-1.9658e-06,-2.26696, , , ,-0.000363498,