File: Figure_codes/Fig_3-5/rawdata_trumpetplot_data/after 10th/20221101_1-115_003_TrumpetPlot_ParaChange_from10_every3_08_CV_C01_24.csv
mode,ox/red,error,control changes,counter inc.,time/s,control/V,Ewe/V,<I>/mA,cycle number,(Q-Qo)/C,I Range,P/W,log(|I|),Tafel slope mV/dec,alpha_eff,dI/d(E-IR),E-IR/V,
2,0,0,0,0,48458.1,2.44065e-05,-0.000363498,-3.97156,25,0.0000000E+000,10,1.44365e-06,-2.40104, , , ,-0.000363498,
2,0,0,1,0,48458.2,0.0012943,0.000916716,-2.4714,25,-4.8755e-05,10,-2.26557e-06,-2.60706, , , ,0.000916716,
2,0,0,1,0,48458.2,0.00279784,0.00244506,-1.32282,25,-8.35549e-05,10,-3.23439e-06,-2.8785,-0.00407111,-14.4924,652.087,0.00244506,
2,0,0,1,0,48458.2,0.00429425,0.00392786,-0.519729,25,-0.000100205,10,-2.04142e-06,-3.28422,-0.00508334,-11.6065,485.696,0.00392786,
2,1,0,1,0,48458.2,0.00579065,0.00543087,0.100524,25,-0.000103685,10,5.45935e-07,-3.99773,-0.178495,-0.330542,377.877,0.005430866,
2,1,0,1,0,48458.2,0.0072942,0.00696262,0.596845,25,-9.67473e-05,10,4.15561e-06,-3.22414,0.00368348,16.0175,303.494,0.00696262,
2,1,0,1,0,48458.3,0.00878347,0.00843337,0.995898,25,-8.16e-05,10,8.39878e-06,-3.00179,0.00783271,7.53251,246.841,0.008433369,
2,1,0,1,0,48458.3,0.010287,0.00997706,1.32642,25,-5.94886e-05,10,1.32338e-05,-2.87732,0.0138531,4.25897,204.847,0.00997706,
2,1,0,1,0,48458.3,0.0117905,0.0114366,1.60012,25,-3.16621e-05,10,1.82998e-05,-2.79585,0.0202298,2.91649,174.859,0.0114366,
2,1,0,1,0,48458.3,0.013278,0.0129363,1.83049,25,5.35447e-07,10,2.36797e-05,-2.73743,0.0278117,2.12141,148.27,0.0129363,
2,1,0,1,0,48458.3,0.0147816,0.014435,2.02679,25,3.71271e-05,10,2.92567e-05,-2.69319,0.0364105,1.62041,126.48,0.014435,
2,1,0,1,0,48458.4,0.0162851,0.0159827,2.20778,25,7.7317e-05,10,3.52864e-05,-2.65604,0.0459474,1.28408,109.189,0.0159827,
2,1,0,1,0,48458.4,0.0177744,0.0174555,2.35646,25,0.000120086,10,4.11333e-05,-2.62774,0.0561562,1.05064,95.9003,0.0174555,
2,1,0,1,0,48458.4,0.0192779,0.018945,2.49055,25,0.000165931,10,4.71835e-05,-2.6037,0.0673512,0.876005,84.6539,0.018945,
2,1,0,1,0,48458.4,0.0207743,0.0204664,2.61125,25,0.000213908,10,5.34427e-05,-2.58315,0.0790724,0.746152,75.7233,0.0204664,
2,1,0,1,0,48458.4,0.0222707,0.0219499,2.7221,25,0.000264031,10,5.97499e-05,-2.5651,0.0887895,0.664493,70.3751,0.0219499,
2,1,0,1,0,48458.4,0.0237743,0.0234401,2.82587,25,0.000316461,10,6.62386e-05,-2.54885,0.0999712,0.59017,64.8525,0.0234401,
2,1,0,1,0,48458.5,0.0252636,0.0249507,2.91891,25,0.0003701,10,7.28288e-05,-2.53478,0.113492,0.519862,59.1047,0.0249507,
2,1,0,1,0,48458.5,0.0267671,0.0264013,3.00465,25,0.000425973,10,7.93267e-05,-2.52221,0.121701,0.484794,56.7767,0.0264013,
2,1,0,1,0,48458.5,0.0282706,0.0279358,3.08864,25,0.000483485,10,8.62838e-05,-2.51023,0.135364,0.435862,52.4535,0.0279358,
2,1,0,1,0,48458.5,0.0297581,0.0294516,3.17174,25,0.000541904,10,9.34127e-05,-2.4987,0.141548,0.41682,51.4402,0.0294516,
2,1,0,1,0,48458.5,0.0312617,0.0309544,3.24307,25,0.00060239,10,0.000100387,-2.48904,0.148026,0.39858,50.3888,0.0309544,
2,1,0,1,0,48458.6,0.0327652,0.0324142,3.31711,25,0.000664257,10,0.000107521,-2.47924,0.152874,0.385939,49.9016,0.0324142,
2,1,0,1,0,48458.6,0.0342545,0.033931,3.39319,25,0.000726858,10,0.000115134,-2.46939,0.157542,0.374503,49.4491,0.033931,
2,1,0,1,0,48458.6,0.035758,0.0354518,3.46044,25,0.000791505,10,0.000122679,-2.46087,0.170121,0.346812,46.7355,0.0354518,
2,1,0,1,0,48458.6,0.0372544,0.0369035,3.52394,25,0.00085705,10,0.000130046,-2.45297,0.181917,0.324324,44.599,0.0369035,
2,1,0,1,0,48458.6,0.0387508,0.0384223,3.5891,25,0.000923783,10,0.000137901,-2.44501,0.178179,0.331127,46.4681,0.0384223,
2,1,0,1,0,48458.7,0.0402544,0.0398705,3.65836,25,0.000992175,10,0.000145861,-2.43671,0.185344,0.318327,45.4548,0.0398705,
2,1,0,1,0,48458.7,0.0417437,0.0413965,3.7245,25,0.00106116,10,0.000154181,-2.42893,0.193394,0.305077,44.301,0.0413965,
2,1,0,1,0,48458.7,0.0432472,0.0429262,3.79509,25,0.00113208,10,0.000162909,-2.42078,0.212207,0.27803,41.1384,0.0429262,
2,1,0,1,0,48458.7,0.0447507,0.0444167,3.85349,25,0.00120418,10,0.000171159,-2.41415,0.218972,0.269441,40.5322,0.0444167,
2,1,0,1,0,48458.7,0.0462382,0.0459014,3.91693,25,0.00127669,10,0.000179793,-2.40705,0.214087,0.275589,42.1448,0.0459014,
2,1,0,1,0,48458.7,0.0477418,0.0474131,3.97932,25,0.00135116,10,0.000188672,-2.40019,0.227423,0.259428,40.2997,0.0474131,
2,1,0,1,0,48458.8,0.0492453,0.0489234,4.04409,25,0.00142686,10,0.000197851,-2.39318,0.241477,0.24433,38.5528,0.0489234,
2,1,0,1,0,48458.8,0.0507346,0.0504316,4.1018,25,0.00150287,10,0.00020686,-2.38703,0.239575,0.246269,39.4405,0.0504316,
2,1,0,1,0,48458.8,0.0522381,0.0518734,4.16644,25,0.00158079,10,0.000216127,-2.38023,0.241958,0.243844,39.6519,0.0518734,
2,1,0,1,0,48458.8,0.0537345,0.0533722,4.2359,25,0.00165949,10,0.00022608,-2.37305,0.237036,0.248908,41.0611,0.0533722,
2,1,0,1,0,48458.8,0.0552309,0.0549011,4.2911,25,0.00173935,10,0.000235586,-2.36743,0.254789,0.231564,38.7216,0.0549011,
2,1,0,1,0,48458.9,0.0567345,0.0563916,4.34576,25,0.00182076,10,0.000245064,-2.36193,0.25273,0.23345,39.5873,0.0563916,
2,1,0,1,0,48458.9,0.0582237,0.0578647,4.40619,25,0.00190232,10,0.000254963,-2.35594,0.251368,0.234716,40.3701,0.0578647,
2,1,0,1,0,48458.9,0.0597273,0.0593853,4.46284,25,0.00198587,10,0.000265027,-2.35039,0.250158,0.235851,41.0537,0.0593853,
2,1,0,1,0,48458.9,0.0612308,0.0608836,4.51721,25,0.00207053,10,0.000275024,-2.34513,0.269613,0.218832,38.5908,0.0608836,
2,1,0,1,0,48458.9,0.0627183,0.0623786,4.576,25,0.00215535,10,0.000285444,-2.33951,0.272198,0.216754,38.6877,0.0623786,
2,1,0,1,0,48459,0.0642218,0.0638871,4.62669,25,0.00224211,10,0.000295586,-2.33473,0.280164,0.210591,38.0791,0.0638871,
2,1,0,1,0,48459,0.0657254,0.0653998,4.68301,25,0.00232993,10,0.000306268,-2.32947,0.281802,0.209367,38.2919,0.0653998,
2,1,0,1,0,48459,0.0672147,0.0669183,4.74547,25,0.00241788,10,0.000317558,-2.32372,0.296107,0.199253,36.8806,0.0669183,
2,1,0,1,0,48459,0.0687182,0.0683819,4.79459,25,0.00250783,10,0.000327863,-2.31925,0.348951,0.169078,31.6222,0.0683819,
2,1,0,1,0,48459,0.0702146,0.0699028,4.84454,25,0.00259822,10,0.000338647,-2.31475,0.333132,0.177107,33.5136,0.0699028,
2,1,0,1,0,48459,0.071711,0.0713687,4.89684,25,0.00268952,10,0.000349481,-2.31008,0.339861,0.1736,33.1651,0.0713687,
2,1,0,1,0,48459.1,0.0732145,0.0729209,4.94838,25,0.00278229,10,0.00036084,-2.30554,0.3664,0.161026,31.0845,0.0729209,
2,1,0,1,0,48459.1,0.0747038,0.0743473,4.99604,25,0.00287499,10,0.000371443,-2.30137,0.379703,0.155385,30.272,0.0743473,
2,1,0,1,0,48459.1,0.0762074,0.0758706,5.04865,25,0.00296956,10,0.000383044,-2.29682,0.385295,0.15313,30.1108,0.0758706,
2,1,0,1,0,48459.1,0.0777109,0.0773761,5.08853,25,0.003065,10,0.000393731,-2.29341,0.357618,0.16498,32.7564,0.0773761,
2,1,0,1,0,48459.1,0.0791984,0.0789372,5.1411,25,0.00316024,10,0.000405824,-2.28894,0.397349,0.148484,29.7546,0.0789372,
2,1,0,1,0,48459.2,0.0807019,0.0803987,5.18227,25,0.00325743,10,0.000416648,-2.28548,0.394759,0.149458,30.1669,0.0803987,
2,1,0,1,0,48459.2,0.0822055,0.0818517,5.2188,25,0.00335543,10,0.000427168,-2.28243,0.442954,0.133197,27.1265,0.0818517,
2,1,0,1,0,48459.2,0.0836947,0.0833637,5.25806,25,0.00345309,10,0.000438331,-2.27917,0.444017,0.132878,27.2915,0.0833637,
2,1,0,1,0,48459.2,0.0851983,0.0848815,5.30038,25,0.00355256,10,0.000449904,-2.27569,0.443484,0.133037,27.5201,0.0848815,
2,1,0,1,0,48459.2,0.0866947,0.0863278,5.3361,25,0.00365229,10,0.000460653,-2.27278,0.480521,0.122783,25.5736,0.0863278,
2,1,0,1,0,48459.2,0.0881911,0.0878993,5.37728,25,0.00375274,10,0.000472659,-2.26944,0.482138,0.122372,25.6946,0.08789932,
2,1,0,1,0,48459.3,0.0896946,0.0893588,5.4103,25,0.00385439,10,0.000483458,-2.26678,0.51735,0.114043,24.1275,0.0893588,
2,1,0,1,0,48459.3,0.0911839,0.0908804,5.45653,25,0.00395569,10,0.000495891,-2.26308,0.474191,0.124423,26.4905,0.0908804,
2,1,0,1,0,48459.3,0.0926857,0.0923654,5.49438,25,0.00405887,10,0.00050749,-2.26008,0.463568,0.127274,27.296,0.0923654,
2,1,0,1,0,48459.3,0.0941892,0.0938399,5.5335,25,0.00416283,10,0.000519263,-2.257,0.509618,0.115773,25.0217,0.0938399,
2,1,0,1,0,48459.3,0.0956785,0.0953676,5.57329,25,0.00426641,10,0.000531512,-2.25389,0.481548,0.122522,26.6883,0.0953676,
2,1,0,1,0,48459.4,0.097182,0.0968438,5.62499,25,0.0043719,10,0.000544745,-2.24988,0.432337,0.136468,29.9676,0.0968438,
2,1,0,1,0,48459.4,0.0986856,0.0983765,5.67871,25,0.00447833,10,0.000558651,-2.24575,0.391257,0.150796,33.4167,0.09837655,
2,1,0,1,0,48459.4,0.100175,0.0998575,5.72667,25,0.00458456,10,0.000571852,-2.2421,0.380393,0.155103,34.6936,0.0998575,
2,1,0,1,0,48459.4,0.101678,0.101407,5.78777,25,0.00469296,10,0.00058692,-2.23749,0.336953,0.175099,39.5491,0.101407,
2,1,0,1,0,48459.4,0.103175,0.102879,5.85107,25,0.00480188,10,0.000601953,-2.23276,0.300529,0.196321,44.8277,0.102879,
2,1,0,1,0,48459.5,0.104671,0.104355,5.91658,25,0.00491204,10,0.000617425,-2.22793,0.27813,0.212131,48.9785,0.104355,
2,1,0,1,0,48459.5,0.106175,0.105874,5.98653,25,0.00502413,10,0.000633821,-2.22282,0.277832,0.212359,49.58,0.105874,
2,1,0,1,0,48459.5,0.107662,0.10736,6.05408,25,0.00513636,10,0.000649964,-2.21795,0.266837,0.221109,52.3203,0.10736,
2,1,0,1,0,48459.5,0.109166,0.108873,6.13347,25,0.00525116,10,0.000667771,-2.21229,0.258388,0.228338,54.7447,0.108873,
2,1,0,1,0,48459.5,0.110669,0.110371,6.21373,25,0.00536755,10,0.000685813,-2.20665,0.24224,0.24356,59.1479,0.110371,
2,1,0,1,0,48459.5,0.112159,0.111825,6.29921,25,0.00548425,10,0.000704411,-2.20071,0.250426,0.235598,57.983,0.111825,
2,1,0,1,0,48459.6,0.113662,0.113315,6.39043,25,0.0056039,10,0.000724134,-2.19447,0.243395,0.242404,60.5076,0.113315,
2,1,0,1,0,48459.6,0.115166,0.114857,6.4821,25,0.00572519,10,0.000744518,-2.18828,0.248605,0.237325,60.0718,0.114857,
2,1,0,1,0,48459.6,0.116655,0.116262,6.5796,25,0.00584691,10,0.000764958,-2.1818,0.253441,0.232796,59.7646,0.116262,
2,1,0,1,0,48459.6,0.118158,0.117782,6.67103,25,0.00597171,10,0.000785726,-2.17581,0.266937,0.221026,57.5275,0.117782,
2,1,0,1,0,48459.6,0.119655,0.119321,6.7627,25,0.00609755,10,0.00080693,-2.16988,0.286174,0.206169,54.3596,0.119321,
2,1,0,1,0,48459.7,0.121151,0.120817,6.84415,25,0.00622494,10,0.00082689,-2.16468,0.288629,0.204415,54.5724,0.1208171,
2,1,0,1,0,48459.7,0.122655,0.122305,6.92667,25,0.00635458,10,0.000847168,-2.15948,0.2976,0.198253,53.5466,0.122305,
2,1,0,1,0,48459.7,0.124142,0.123805,7.01089,25,0.00648436,10,0.000867981,-2.15423,0.308962,0.190962,52.1679,0.123805,
2,1,0,1,0,48459.7,0.125646,0.125327,7.08201,25,0.006617,10,0.000887568,-2.14984,0.332453,0.177469,48.9841,0.125327,
2,1,0,1,0,48459.7,0.127149,0.12683,7.14864,25,0.00675099,10,0.000906664,-2.14578,0.359999,0.163889,45.6969,0.12683,
2,1,0,1,0,48459.8,0.128639,0.128322,7.21243,25,0.00688472,10,0.000925515,-2.14192,0.391094,0.150859,42.4517,0.128322,
2,1,0,1,0,48459.8,0.130142,0.129836,7.27754,25,0.00702111,10,0.000944885,-2.13802,0.396394,0.148842,42.2259,0.129836,
2,1,0,1,0,48459.8,0.131646,0.131332,7.32947,25,0.00715865,10,0.000962598,-2.13493,0.446995,0.131992,37.7275,0.1313325,
2,1,0,1,0,48459.8,0.133135,0.132773,7.38005,25,0.00729571,10,0.000979868,-2.13194,0.527242,0.111903,32.2104,0.132773,
2,1,0,1,0,48459.8,0.134639,0.134311,7.42027,25,0.0074351,10,0.000996623,-2.12958,0.559973,0.105362,30.533,0.134311,
2,1,0,1,0,48459.8,0.136135,0.135789,7.468,25,0.0075746,10,0.00101407,-2.1268,0.596784,0.0988633,28.8063,0.135789,
2,1,0,1,0,48459.9,0.137631,0.137318,7.51105,25,0.00771492,10,0.00103141,-2.1243,0.737491,0.0800009,23.4295,0.137318,
2,1,0,1,0,48459.9,0.139135,0.138806,7.54164,25,0.00785665,10,0.00104683,-2.12253,0.914361,0.0645259,18.9787,0.138806,
2,1,0,1,0,48459.9,0.140622,0.140336,7.5676,25,0.0079974,10,0.00106201,-2.12104,1.16446,0.0506671,14.9605,0.140336,
2,1,0,1,0,48459.9,0.142126,0.141814,7.59016,25,0.00814012,10,0.00107639,-2.11975,1.69926,0.0347209,10.2746,0.141814,
2,1,0,1,0,48459.9,0.143629,0.14334,7.60575,25,0.00828323,10,0.00109021,-2.11886,4.72792,0.0124791,3.69926,0.14334,
2,1,0,1,0,48460,0.145119,0.144815,7.61102,25,0.00842496,10,0.00110219,-2.11856,-2.44838,-0.0240976,-7.13922,0.144815,
2,1,0,1,0,48460,0.146622,0.146287,7.58902,25,0.00856803,10,0.00111017,-2.11981,-1.06636,-0.0553285,-16.3638,0.146287,
2,1,0,1,0,48460,0.148126,0.147834,7.56439,25,0.00871069,10,0.00111827,-2.12123,-0.69431,-0.0849764,-25.0169,0.147834,
2,1,0,1,0,48460,0.149615,0.149254,7.51598,25,0.0088511,10,0.00112179,-2.12401,-0.447538,-0.131832,-38.577,0.149254,
2,1,0,1,0,48460,0.151119,0.150784,7.45172,25,0.00899196,10,0.0011236,-2.12774,-0.325124,-0.181469,-52.5547,0.150784,
2,1,0,1,0,48460.1,0.152615,0.152283,7.36151,25,0.0091306,10,0.00112103,-2.13303,-0.253534,-0.232711,-66.606,0.152283,
2,1,0,1,0,48460.1,0.154111,0.15374,7.24309,25,0.00926726,10,0.00111355,-2.14008,-0.20329,-0.290226,-81.7601,0.15374,
2,1,0,1,0,48460.1,0.155615,0.155285,7.10139,25,0.00940231,10,0.00110274,-2.14866,-0.173024,-0.340992,-94.2537,0.155285,
2,1,0,1,0,48460.1,0.157103,0.156787,6.94251,25,0.00953325,10,0.00108849,-2.15848,-0.145661,-0.40505,-109.479,0.1567868,
2,1,0,1,0,48460.1,0.158606,0.158281,6.77061,25,0.00966244,10,0.00107166,-2.16937,-0.12807,-0.460687,-121.404,0.158281,
2,1,0,1,0,48460.1,0.16011,0.159778,6.56827,25,0.00978807,10,0.00104947,-2.18255,-0.113224,-0.52109,-133.491,0.1597784,
2,1,0,1,0,48460.2,0.161599,0.161278,6.36596,25,0.00990866,10,0.00102669,-2.19614,-0.106505,-0.553964,-137.471,0.161278,
2,1,0,1,0,48460.2,0.163102,0.162797,6.16007,25,0.0100266,10,0.00100284,-2.21041,-0.0991189,-0.595245,-142.945,0.162797,
2,1,0,1,0,48460.2,0.164606,0.164268,5.94367,25,0.0101406,10,0.000976353,-2.22595,-0.0949989,-0.62106,-143.957,0.164268,
2,1,0,1,0,48460.2,0.166095,0.165765,5.72814,25,0.0102494,10,0.000949523,-2.24199,-0.0946083,-0.623624,-139.69,0.165765,
2,1,0,1,0,48460.2,0.167599,0.167279,5.53019,25,0.0103555,10,0.000925085,-2.25726,-0.0966691,-0.610329,-131.846,0.167279,
2,1,0,1,0,48460.3,0.169095,0.168754,5.34525,25,0.0104573,10,0.000902035,-2.27203,-0.0996959,-0.5918,-123.518,0.1687544,
2,1,0,1,0,48460.3,0.170592,0.170298,5.16331,25,0.0105557,10,0.000879299,-2.28707,-0.100271,-0.588405,-118.61,0.170298,
2,1,0,1,0,48460.3,0.172095,0.171751,4.98727,25,0.0106512,10,0.000856568,-2.30214,-0.104742,-0.563288,-109.811,0.171751,
2,1,0,1,0,48460.3,0.173583,0.173256,4.8373,25,0.0107427,10,0.00083809,-2.3154,-0.111747,-0.527979,-99.6683,0.173256,
2,1,0,1,0,48460.3,0.175086,0.174792,4.69152,25,0.0108324,10,0.000820042,-2.32869,-0.115286,-0.511773,-93.752,0.174792,
2,1,0,1,0,48460.4,0.17659,0.176299,4.55483,25,0.0109194,10,0.000803014,-2.34153,-0.125204,-0.47123,-83.8721,0.1762995,
2,1,0,1,0,48460.4,0.178079,0.177757,4.43643,25,0.0110032,10,0.000788606,-2.35297,-0.137748,-0.42832,-74.2602,0.177757,
2,1,0,1,0,48460.4,0.179582,0.179245,4.32516,25,0.0110857,10,0.000775264,-2.364,-0.148275,-0.39791,-67.2735,0.179245,
2,1,0,1,0,48460.4,0.181086,0.180773,4.22215,25,0.0111662,10,0.000763249,-2.37447,-0.158703,-0.371764,-61.395,0.180773,
2,1,0,1,0,48460.4,0.182575,0.182255,4.13163,25,0.0112441,10,0.000753012,-2.38388,-0.164315,-0.359066,-58.0038,0.182255,
2,1,0,1,0,48460.4,0.184079,0.18375,4.05172,25,0.0113213,10,0.000744505,-2.39236,-0.174495,-0.338118,-53.5276,0.18375,
2,1,0,1,0,48460.5,0.185582,0.185264,3.96932,25,0.011397,10,0.000735372,-2.40128,-0.19326,-0.305288,-47.4361,0.185264,
2,1,0,1,0,48460.5,0.18707,0.186774,3.90685,25,0.0114705,10,0.000729697,-2.40817,-0.204002,-0.289213,-44.1692,0.186774,
2,1,0,1,0,48460.5,0.188573,0.188255,3.84221,25,0.0115435,10,0.000723315,-2.41542,-0.211139,-0.279437,-41.975,0.188255,
2,1,0,1,0,48460.5,0.19007,0.189773,3.78402,25,0.0116151,10,0.000718106,-2.42205,-0.221923,-0.265858,-39.3094,0.189773,
2,1,0,1,0,48460.5,0.191566,0.19123,3.73419,25,0.0116856,10,0.000714089,-2.4278,-0.238801,-0.247068,-36.0761,0.19123,
2,1,0,1,0,48460.6,0.19307,0.192734,3.68903,25,0.0117556,10,0.000711002,-2.43309,-0.287769,-0.205026,-29.5171,0.192734,
2,1,0,1,0,48460.6,0.194559,0.194267,3.6482,25,0.011824,10,0.000708726,-2.43792,-0.30046,-0.196366,-27.9719,0.194267,
2,1,0,1,0,48460.6,0.196063,0.195718,3.60988,25,0.0118924,10,0.000706518,-2.44251,-0.301089,-0.195955,-27.5644,0.195718,
2,1,0,1,0,48460.6,0.197566,0.197273,3.56404,25,0.01196,10,0.000703091,-2.44806,-0.351033,-0.168076,-23.3999,0.1972734,
2,1,0,1,0,48460.6,0.199055,0.198735,3.53073,25,0.0120261,10,0.000701679,-2.45213,-0.380751,-0.154957,-21.3734,0.198735,
2,1,0,1,0,48460.7,0.200559,0.200218,3.5042,25,0.0120924,10,0.000701603,-2.45541,-0.466542,-0.126462,-17.2643,0.200218,
2,1,0,1,0,48460.7,0.202062,0.201755,3.47229,25,0.0121581,10,0.00070055,-2.45938,-0.461597,-0.127817,-17.3214,0.2017545,
2,1,0,1,0,48460.7,0.20355,0.203199,3.44229,25,0.0122226,10,0.000699468,-2.46315,-0.541544,-0.108948,-14.6555,0.203199,
2,1,0,1,0,48460.7,0.205053,0.204738,3.41466,25,0.0122873,10,0.000699112,-2.46665,-0.624718,-0.0944426,-12.6327,0.204738,
2,1,0,1,0,48460.7,0.20655,0.206202,3.39079,25,0.0123513,10,0.000699188,-2.4697,-0.650074,-0.0907588,-12.0345,0.206202,
2,1,0,1,0,48460.7,0.208046,0.207723,3.37432,25,0.0124149,10,0.000700924,-2.47181,-0.56691,-0.104073,-13.7095,0.207723,
2,1,0,1,0,48460.8,0.20955,0.209222,3.35798,25,0.0124784,10,0.000702564,-2.47392,-0.551283,-0.107023,-14.0124,0.209222,
2,1,0,1,0,48460.8,0.211039,0.210734,3.33769,25,0.0125408,10,0.000703367,-2.47655,-0.569131,-0.103667,-13.503,0.210734,
2,1,0,1,0,48460.8,0.212543,0.21221,3.31495,25,0.0126036,10,0.000703465,-2.47952,-0.572107,-0.103128,-13.3533,0.21221,
2,1,0,1,0,48460.8,0.214046,0.213719,3.30117,25,0.012666,10,0.000705523,-2.48133,-0.665039,-0.0887167,-11.4298,0.213719,
2,1,0,1,0,48460.8,0.215535,0.215216,3.2885,25,0.0127275,10,0.000707738,-2.483,-0.641353,-0.091993,-11.7957,0.215216,
2,1,0,1,0,48460.9,0.217039,0.216695,3.26763,25,0.0127893,10,0.00070808,-2.48577,-0.722132,-0.0817025,-10.4354,0.216695,
2,1,0,1,0,48460.9,0.218543,0.218214,3.26041,25,0.0128508,10,0.000711466,-2.48673,-0.828151,-0.071243,-9.05455,0.218214,
2,1,0,1,0,48460.9,0.22003,0.219718,3.25291,25,0.0129115,10,0.000714725,-2.48773,-0.921645,-0.064016,-8.10956,0.2197184,
2,1,0,1,0,48460.9,0.221534,0.221214,3.23457,25,0.0129726,10,0.000715533,-2.49018,-0.837453,-0.0704517,-8.88101,0.221214,
2,1,0,1,0,48460.9,0.22303,0.222737,3.22018,25,0.0130332,10,0.000717253,-2.49212,-1.02316,-0.0576646,-7.24725,0.222737,
2,1,0,1,0,48461,0.224526,0.224208,3.2091,25,0.0130935,10,0.000719506,-2.49362,-1.01608,-0.0580665,-7.27175,0.224208,
2,1,0,1,0,48461,0.22603,0.225696,3.19819,25,0.0131539,10,0.000721819,-2.4951,-1.33362,-0.0442403,-5.51884,0.225696,
2,1,0,1,0,48461,0.227519,0.227224,3.18636,25,0.0132135,10,0.00072402,-2.4967,-1.11508,-0.052911,-6.58377,0.227224,
2,1,0,1,0,48461,0.229023,0.228704,3.17891,25,0.0132735,10,0.000727028,-2.49772,-1.37616,-0.0428728,-5.31815,0.228704,
2,1,0,1,0,48461,0.230526,0.230152,3.1613,25,0.0133334,10,0.000727579,-2.50013,-1.73755,-0.0339558,-4.20271,0.230152,
2,1,0,1,0,48461,0.232016,0.231708,3.15826,25,0.0133924,10,0.000731795,-2.50055,-1.52297,-0.03874,-4.77913,0.231708,
2,1,0,1,0,48461.1,0.233519,0.233174,3.14956,25,0.013452,10,0.000734394,-2.50175,-1.20675,-0.0488915,-6.0095,0.233174,
2,1,0,1,0,48461.1,0.235023,0.234726,3.14512,25,0.0135114,10,0.000738244,-2.50236,-1.184,-0.0498311,-6.11672,0.234726,
2,1,0,1,0,48461.1,0.23651,0.236205,3.13131,25,0.01357,10,0.000739632,-2.50427,-0.938765,-0.0628486,-7.7009,0.236205,
2,1,0,1,0,48461.1,0.238014,0.237718,3.12822,25,0.0136291,10,0.000743634,-2.5047,-1.08692,-0.0542818,-6.62424,0.2377177,
2,1,0,1,0,48461.1,0.23951,0.239209,3.12118,25,0.0136878,10,0.000746614,-2.50568,-1.64011,-0.0359732,-4.3846,0.239209,
2,1,0,1,0,48461.2,0.241006,0.24071,3.11419,25,0.0137463,10,0.000749616,-2.50665,-1.04406,-0.0565104,-6.87093,0.24071,
2,1,0,1,0,48461.2,0.24251,0.242181,3.10556,25,0.013805,10,0.00075211,-2.50786,-1.32789,-0.0444315,-5.3868,0.242181,
2,1,0,1,0,48461.2,0.243999,0.243644,3.10629,25,0.0138629,10,0.000756827,-2.50776,-1.65258,-0.0357016,-4.32244,0.243644,
2,1,0,1,0,48461.2,0.245503,0.245184,3.10314,25,0.0139214,10,0.000760841,-2.5082,-3.06621,-0.019242,-2.32519,0.245184,
2,1,0,1,0,48461.2,0.247006,0.246663,3.09705,25,0.0139798,10,0.000763928,-2.50905,-1.54133,-0.0382785,-4.61597,0.246663,
2,1,0,1,0,48461.3,0.248496,0.248145,3.08201,25,0.0140375,10,0.000764785,-2.51117,-1.7324,-0.0340568,-4.09898,0.248145,
2,1,0,1,0,48461.3,0.249999,0.249674,3.08094,25,0.0140956,10,0.000769229,-2.51132,-3.34885,-0.017618,-2.11706,0.249674,
2,1,0,1,0,48461.3,0.251503,0.251174,3.07088,25,0.0141536,10,0.000771324,-2.51274,-26.1765,-0.00225393,-0.270262,0.251174,
2,1,0,1,0,48461.3,0.25299,0.25266,3.06945,25,0.0142109,10,0.000775527,-2.51294,-2.37448,-0.0248475,-2.97141,0.25266,
2,1,0,1,0,48461.3,0.254494,0.254158,3.06195,25,0.0142688,10,0.000778219,-2.514,-2.66637,-0.0221275,-2.64533,0.254158,
2,1,0,1,0,48461.3,0.25599,0.255685,3.05036,25,0.0143262,10,0.000779931,-2.51565,-2.20508,-0.0267564,-3.1938,0.255685,
2,1,0,1,0,48461.4,0.257487,0.25719,3.04679,25,0.0143835,10,0.000783604,-2.51616,-1.74316,-0.0338465,-4.03151,0.25719,
2,1,0,1,0,48461.4,0.25899,0.258661,3.04574,25,0.0144411,10,0.000787814,-2.51631,-2.11227,-0.0279321,-3.31968,0.258661,
2,1,0,1,0,48461.4,0.260479,0.260204,3.04395,25,0.0144979,10,0.00079205,-2.51656,-1.3649,-0.0432267,-5.13303,0.260204,
2,1,0,1,0,48461.4,0.261983,0.261695,3.03541,25,0.0145553,10,0.000794352,-2.51778,-1.24046,-0.0475629,-5.63536,0.261695,
2,1,0,1,0,48461.4,0.263486,0.2632,3.03398,25,0.0146125,10,0.000798544,-2.51799,-2.13295,-0.0276613,-3.27316,0.2632,
2,1,0,1,0,48461.5,0.264974,0.264644,3.03135,25,0.0146691,10,0.000802227,-2.51836,-3.22707,-0.0182829,-2.16061,0.264644,
2,1,0,1,0,48461.5,0.266477,0.266216,3.02581,25,0.0147261,10,0.000805519,-2.51916,-1.60347,-0.0367952,-4.34187,0.266216,
2,1,0,1,0,48461.5,0.267981,0.267665,3.01665,25,0.0147831,10,0.000807452,-2.52047,-2.10336,-0.0280504,-3.30409,0.267665,
2,1,0,1,0,48461.5,0.26947,0.269179,3.01441,25,0.0148394,10,0.000811418,-2.5208,-3.44354,-0.0171335,-2.01496,0.2691794,
2,1,0,1,0,48461.5,0.270974,0.27066,3.01458,25,0.0148962,10,0.000815925,-2.52077,-8.3301,-0.00708274,-0.83189,0.27066,
2,1,0,1,0,48461.6,0.27247,0.272208,3.00911,25,0.0149527,10,0.000819104,-2.52156,-2.77259,-0.0212798,-2.49376,0.272208,
2,1,0,1,0,48461.6,0.273967,0.273632,3.00115,25,0.0150091,10,0.000821211,-2.52271,-2.41996,-0.0243805,-2.85562,0.2736322,
2,1,0,1,0,48461.6,0.27547,0.275153,2.99069,25,0.0150656,10,0.000822898,-2.52423,-2.01541,-0.0292744,-3.42192,0.275153,
2,1,0,1,0,48461.6,0.276959,0.276631,2.99417,25,0.0151215,10,0.000828281,-2.52372,-2.98163,-0.0197879,-2.31027,0.2766313,
2,1,0,1,0,48461.6,0.278463,0.278163,2.98152,25,0.0151779,10,0.000829347,-2.52556,-3.01361,-0.0195779,-2.28021,0.278163,
2,1,0,1,0,48461.6,0.279967,0.27969,2.97934,25,0.0152342,10,0.00083329,-2.52588,-1.40944,-0.0418607,-4.8706,0.27969,
2,1,0,1,0,48461.7,0.281454,0.281109,2.97619,25,0.0152898,10,0.000836635,-2.52634,-1.7464,-0.0337838,-3.9236,0.281109,
2,1,0,1,0,48461.7,0.282958,0.282646,2.96936,25,0.0153458,10,0.000839277,-2.52734,-2.56327,-0.0230175,-2.66728,0.282646,
2,1,0,1,0,48461.7,0.284461,0.284167,2.96475,25,0.0154019,10,0.000842484,-2.52801,-2.13801,-0.0275957,-3.19403,0.284167,
2,1,0,1,0,48461.7,0.28595,0.28564,2.96238,25,0.0154572,10,0.000846174,-2.52836,-1.34755,-0.0437831,-5.0578,0.28564,
2,1,0,1,0,48461.7,0.287454,0.287133,2.95223,25,0.0155131,10,0.000847683,-2.52985,-1.26563,-0.0466173,-5.37447,0.287133,
2,1,0,1,0,48461.8,0.28895,0.288607,2.95125,25,0.0155685,10,0.000851751,-2.52999,-2.52448,-0.0233712,-2.69088,0.288607,
2,1,0,1,0,48461.8,0.290447,0.29013,2.94827,25,0.0156238,10,0.00085538,-2.53043,-2.09361,-0.028181,-3.24126,0.29013,
2,1,0,1,0,48461.8,0.29195,0.291631,2.94376,25,0.0156794,10,0.000858491,-2.5311,-1.47944,-0.0398798,-4.57932,0.291631,
2,1,0,1,0,48461.8,0.29344,0.293129,2.93486,25,0.0157343,10,0.000860293,-2.53241,-2.87032,-0.0205552,-2.35679,0.293129,
2,1,0,1,0,48461.8,0.294943,0.294588,2.93217,25,0.0157896,10,0.000863781,-2.53281,-2.86563,-0.0205888,-2.35491,0.294588,
2,1,0,1,0,48461.9,0.296447,0.296161,2.932,25,0.0158448,10,0.000868344,-2.53284,-9.63937,-0.00612073,-0.698655,0.296161,
2,1,0,1,0,48461.9,0.297934,0.297652,2.92143,25,0.0158995,10,0.000869568,-2.5344,-9.41911,-0.00626386,-0.71401,0.297652,
2,1,0,1,0,48461.9,0.299438,0.299114,2.91232,25,0.0159546,10,0.000871116,-2.53576,-0.0342548,-1.72239,-182.573,0.299114,
2,1,0,1,0,48461.9,0.300012,0.299689,2.92685,25,0.0159751,10,0.000877144,-2.5336,0.00181857,32.443,2504.16,0.2996892,
2,1,0,1,0,48461.9,0.298737,0.298423,1.58395,25,0.0160088,10,0.000472687,-2.80026,0.00466464,12.6483,699.102,0.298423,
2,1,0,1,0,48461.9,0.29724,0.296954,0.75166,25,0.0160298,10,0.000223208,-3.12398,0.00291438,20.2444,472.888,0.296954,
2,1,0,1,0,48462,0.295744,0.295413,0.215658,25,0.0160383,10,6.37081e-05,-3.66624,0.00675573,8.73333,303.402,0.295413,
2,0,0,1,0,48462,0.29424,0.293902,-0.152054,25,0.0160385,10,-4.4689e-05,-3.818,-0.0326768,-1.80556,214.269,0.293902,
2,0,0,1,0,48462,0.292751,0.292409,-0.417137,25,0.0160329,10,-0.000121975,-3.37972,-0.00341855,-17.2588,158.093,0.292409,
2,0,0,1,0,48462,0.291248,0.29091,-0.622263,25,0.0160229,10,-0.000181023,-3.20603,-0.0101959,-5.78664,122.044,0.29091,
2,0,0,1,0,48462,0.289744,0.289433,-0.780096,25,0.0160095,10,-0.000225786,-3.10785,-0.0177199,-3.32959,94.6921,0.289433,
2,0,0,1,0,48462,0.288257,0.287935,-0.901033,25,0.0159937,10,-0.000259439,-3.04526,-0.0257821,-2.28841,77.7326,0.287935,
2,0,0,1,0,48462.1,0.286753,0.286393,-1.00167,25,0.0159756,10,-0.000286872,-2.99927,-0.0340954,-1.73044,66.5545,0.286393,
2,0,0,1,0,48462.1,0.285249,0.284929,-1.08666,25,0.0159557,10,-0.000309622,-2.96391,-0.0445922,-1.3231,55.5779,0.284929,
2,0,0,1,0,48462.1,0.28376,0.283428,-1.16477,25,0.0159345,10,-0.000330128,-2.93376,-0.0550191,-1.07235,48.4279,0.283428,
2,0,0,1,0,48462.1,0.282257,0.281916,-1.22901,25,0.0159118,10,-0.000346477,-2.91044,-0.0664643,-0.887694,42.3155,0.281916,
2,0,0,1,0,48462.1,0.28076,0.280393,-1.28846,25,0.015888,10,-0.000361276,-2.88993,-0.079754,-0.739775,37.0456,0.280393,
2,0,0,1,0,48462.2,0.279264,0.278934,-1.33881,25,0.0158632,10,-0.00037344,-2.87328,-0.0915966,-0.644129,33.602,0.278934,
2,0,0,1,0,48462.2,0.27776,0.27743,-1.38529,25,0.0158373,10,-0.00038432,-2.85846,-0.10256,-0.575274,31.0478,0.27743,
2,0,0,1,0,48462.2,0.276271,0.275918,-1.43292,25,0.0158108,10,-0.000395368,-2.84378,-0.124208,-0.47501,26.5176,0.275918,
2,0,0,1,0,48462.2,0.274767,0.274437,-1.47007,25,0.0157833,10,-0.00040344,-2.83266,-0.141131,-0.41805,23.9684,0.274437,
2,0,0,1,0,48462.2,0.273264,0.272912,-1.50884,25,0.0157551,10,-0.000411781,-2.82136,-0.148344,-0.397725,23.3876,0.272912,
2,0,0,1,0,48462.3,0.271776,0.271486,-1.54306,25,0.0157265,10,-0.000418918,-2.81162,-0.153195,-0.38513,23.2128,0.271486,
2,0,0,1,0,48462.3,0.270273,0.269979,-1.58272,25,0.0156969,10,-0.000427302,-2.8006,-0.17181,-0.343403,21.1641,0.269979,
2,0,0,1,0,48462.3,0.268769,0.268419,-1.61498,25,0.0156667,10,-0.000433492,-2.79183,-0.194804,-0.302869,19.0148,0.268419,
2,0,0,1,0,48462.3,0.26728,0.26694,-1.64131,25,0.0156363,10,-0.00043813,-2.78481,-0.202817,-0.290903,18.6321,0.2669397,
2,0,0,1,0,48462.3,0.265777,0.265458,-1.67186,25,0.015605,10,-0.000443809,-2.7768,-0.193542,-0.304843,19.848,0.265458,
2,0,0,1,0,48462.3,0.26428,0.263927,-1.6993,25,0.0155733,10,-0.000448491,-2.76973,-0.190739,-0.309323,20.4719,0.263927,
2,0,0,1,0,48462.4,0.262784,0.262451,-1.72326,25,0.0155411,10,-0.00045227,-2.76365,-0.233432,-0.252751,16.9867,0.262451,
2,0,0,1,0,48462.4,0.26128,0.26093,-1.7471,25,0.0155082,10,-0.000455872,-2.75768,-0.212102,-0.278168,18.9908,0.2609303,
2,0,0,1,0,48462.4,0.259791,0.259495,-1.77066,25,0.0154753,10,-0.000459476,-2.75187,-0.218877,-0.269557,18.7012,0.259495,
2,0,0,1,0,48462.4,0.258287,0.257973,-1.79687,25,0.0154416,10,-0.000463545,-2.74548,-0.224853,-0.262393,18.3754,0.2579731,
2,0,0,1,0,48462.4,0.256786,0.256451,-1.81245,25,0.0154073,10,-0.000464804,-2.74173,-0.263198,-0.224166,15.9105,0.256451,
2,0,0,1,0,48462.5,0.255296,0.254973,-1.84452,25,0.015373,10,-0.000470303,-2.73412,-0.308364,-0.191332,13.7617,0.254973,
2,0,0,1,0,48462.5,0.253793,0.253469,-1.85758,25,0.015338,10,-0.000470838,-2.73105,-0.357541,-0.165016,11.9968,0.253469,
2,0,0,1,0,48462.5,0.252289,0.251971,-1.88344,25,0.0153026,10,-0.000474573,-2.72505,-0.326946,-0.180458,13.2501,0.251971,
2,0,0,1,0,48462.5,0.2508,0.250499,-1.89964,25,0.0152671,10,-0.000475859,-2.72133,-0.371362,-0.158875,11.7974,0.250499,
2,0,0,1,0,48462.5,0.249296,0.24896,-1.9252,25,0.0152309,10,-0.000479298,-2.71552,-0.398466,-0.148068,11.127,0.24896,
2,0,0,1,0,48462.6,0.2478,0.247456,-1.94229,25,0.0151946,10,-0.000480632,-2.71169,-0.397745,-0.148336,11.2566,0.247456,
2,0,0,1,0,48462.6,0.246304,0.245969,-1.96428,25,0.0151579,10,-0.000483154,-2.7068,-0.35774,-0.164924,12.6309,0.245969,
2,0,0,1,0,48462.6,0.2448,0.244444,-1.99217,25,0.0151206,10,-0.000486976,-2.70067,-0.388445,-0.151888,11.7317,0.244444,
2,0,0,1,0,48462.6,0.243313,0.242944,-2.00759,25,0.0150833,10,-0.000487732,-2.69732,-0.41059,-0.143696,11.2095,0.2429439,
2,0,0,1,0,48462.6,0.241809,0.241495,-2.01684,25,0.0150453,10,-0.000487057,-2.69533,-0.362415,-0.162797,12.8323,0.2414953,
2,0,0,1,0,48462.6,0.240306,0.239955,-2.0341,25,0.015007,10,-0.000488092,-2.69163,-0.393543,-0.14992,11.934,0.2399547,
2,0,0,1,0,48462.7,0.238816,0.23846,-2.05458,25,0.0149688,10,-0.000489936,-2.68728,-0.354631,-0.16637,13.318,0.23846,
2,0,0,1,0,48462.7,0.237313,0.236984,-2.07319,25,0.0149298,10,-0.000491314,-2.68336,-0.372206,-0.158514,12.7867,0.236984,
2,0,0,1,0,48462.7,0.235809,0.235489,-2.08883,25,0.0148905,10,-0.000491897,-2.6801,-0.420114,-0.140438,11.4468,0.235489,
2,0,0,1,0,48462.7,0.23432,0.233948,-2.09785,25,0.0148514,10,-0.000490787,-2.67823,-0.39586,-0.149043,12.2519,0.233948,
2,0,0,1,0,48462.7,0.232816,0.232483,-2.11716,25,0.0148115,10,-0.000492203,-2.67425,-0.381106,-0.154812,12.8143,0.2324827,
2,0,0,1,0,48462.8,0.23132,0.23099,-2.13435,25,0.0147714,10,-0.000493014,-2.67073,-0.453128,-0.130206,10.8509,0.23099,
2,0,0,1,0,48462.8,0.229824,0.229465,-2.14807,25,0.0147311,10,-0.000492907,-2.66795,-0.564225,-0.104568,8.78168,0.229465,
2,0,0,1,0,48462.8,0.22832,0.227991,-2.16404,25,0.0146903,10,-0.000493382,-2.66473,-0.577724,-0.102125,8.65203,0.2279907,
2,0,0,1,0,48462.8,0.226833,0.226523,-2.18395,25,0.0146496,10,-0.000494715,-2.66076,-0.499191,-0.118191,10.0681,0.226523,
2,0,0,1,0,48462.8,0.225329,0.22499,-2.20422,25,0.0146082,10,-0.000495926,-2.65675,-0.480054,-0.122903,10.5628,0.22499,
2,0,0,1,0,48462.8,0.223825,0.223511,-2.21932,25,0.0145665,10,-0.000496043,-2.65378,-0.583641,-0.10109,8.73487,0.223511,
2,0,0,1,0,48462.9,0.222336,0.222024,-2.23202,25,0.0145249,10,-0.000495563,-2.6513,-0.631915,-0.093367,8.12702,0.222024,
2,0,0,1,0,48462.9,0.220833,0.220509,-2.2478,25,0.0144826,10,-0.00049566,-2.64824,-0.513897,-0.114809,10.0756,0.220509,
2,0,0,1,0,48462.9,0.219329,0.218987,-2.26593,25,0.01444,10,-0.000496211,-2.64475,-0.457572,-0.128942,11.3872,0.218987,
2,0,0,1,0,48462.9,0.21784,0.217512,-2.28432,25,0.0143976,10,-0.000496867,-2.64124,-0.483949,-0.121914,10.8391,0.2175121,
2,0,0,1,0,48462.9,0.216336,0.216021,-2.29184,25,0.0143544,10,-0.000495085,-2.63982,-0.508538,-0.116019,10.3806,0.216021,
2,0,0,1,0,48463,0.21484,0.214514,-2.31004,25,0.0143112,10,-0.000495537,-2.63638,-0.462844,-0.127473,11.4953,0.214514,
2,0,0,1,0,48463,0.213343,0.212984,-2.32385,25,0.0142677,10,-0.000494941,-2.63379,-0.41957,-0.14062,12.75,0.212984,
2,0,0,1,0,48463,0.21184,0.211521,-2.33524,25,0.0142237,10,-0.000493951,-2.63167,-0.531281,-0.111052,10.1308,0.2115207,
2,0,0,1,0,48463,0.210352,0.210018,-2.35267,25,0.0141798,10,-0.000494104,-2.62844,-0.538647,-0.109534,10.0587,0.210018,
2,0,0,1,0,48463,0.208849,0.208491,-2.36223,25,0.0141353,10,-0.000492503,-2.62668,-0.454858,-0.129711,12.0125,0.208491,
2,0,0,1,0,48463.1,0.207345,0.206977,-2.38062,25,0.0140904,10,-0.000492733,-2.62331,-0.452704,-0.130328,12.1272,0.206977,
2,0,0,1,0,48463.1,0.205856,0.205476,-2.40335,25,0.0140457,10,-0.00049383,-2.61918,-0.515113,-0.114538,10.7217,0.205476,
2,0,0,1,0,48463.1,0.204353,0.204034,-2.41678,25,0.0140001,10,-0.000493105,-2.61676,-0.715112,-0.0825045,7.78512,0.204034,
2,0,0,1,0,48463.1,0.202849,0.202518,-2.42474,25,0.0139544,10,-0.000491053,-2.61533,-0.646943,-0.0911981,8.6605,0.202518,
2,0,0,1,0,48463.1,0.20136,0.201015,-2.44352,25,0.0139088,10,-0.000491183,-2.61198,-0.554983,-0.106309,10.1413,0.201015,
2,0,0,1,0,48463.1,0.199856,0.199533,-2.46446,25,0.0138625,10,-0.000491741,-2.60828,-0.609254,-0.0968397,9.31483,0.199533,
2,0,0,1,0,48463.2,0.19836,0.198024,-2.48098,25,0.0138161,10,-0.000491293,-2.60538,-0.667694,-0.0883638,8.55244,0.198024,
2,0,0,1,0,48463.2,0.196863,0.19656,-2.49627,25,0.0137694,10,-0.000490667,-2.60271,-0.55406,-0.106487,10.3696,0.19656,
2,0,0,1,0,48463.2,0.19536,0.194971,-2.51394,25,0.0137222,10,-0.000490144,-2.59965,-0.460317,-0.128173,12.5711,0.194971,
2,0,0,1,0,48463.2,0.193872,0.193549,-2.52887,25,0.0136752,10,-0.000489459,-2.59707,-0.449187,-0.131348,12.9394,0.193549,
2,0,0,1,0,48463.2,0.192369,0.192005,-2.55052,25,0.0136273,10,-0.000489713,-2.59337,-0.435458,-0.135489,13.4414,0.192005,
2,0,0,1,0,48463.3,0.190865,0.190499,-2.55899,25,0.0135791,10,-0.000487485,-2.59193,-0.500902,-0.117787,11.7732,0.190499,
2,0,0,1,0,48463.3,0.189376,0.18905,-2.57486,25,0.0135311,10,-0.000486776,-2.58925,-0.481399,-0.122559,12.3489,0.1890495,
2,0,0,1,0,48463.3,0.187872,0.187599,-2.59144,25,0.0134823,10,-0.00048615,-2.58646,-0.483429,-0.122045,12.3616,0.187599,
2,0,0,1,0,48463.3,0.186369,0.186043,-2.60891,25,0.0134331,10,-0.000485369,-2.58354,-0.504607,-0.116923,11.9279,0.186043,
2,0,0,1,0,48463.3,0.18488,0.184536,-2.63206,25,0.0133842,10,-0.00048571,-2.5797,-0.481317,-0.12258,12.5839,0.184536,
2,0,0,1,0,48463.4,0.183376,0.183068,-2.64705,25,0.0133343,10,-0.00048459,-2.57724,-0.527103,-0.111933,11.5764,0.183068,
2,0,0,1,0,48463.4,0.18188,0.181582,-2.66741,25,0.0132844,10,-0.000484353,-2.57391,-0.477185,-0.123642,12.8834,0.181582,
2,0,0,1,0,48463.4,0.180383,0.180053,-2.68786,25,0.0132341,10,-0.000483958,-2.57059,-0.466664,-0.126429,13.2774,0.180053,
2,0,0,1,0,48463.4,0.17888,0.178513,-2.7113,25,0.0131831,10,-0.000484003,-2.56682,-0.530645,-0.111185,11.7632,0.178513,
2,0,0,1,0,48463.4,0.177392,0.17706,-2.73267,25,0.0131323,10,-0.000483845,-2.56341,-0.491573,-0.120023,12.7918,0.17706,
2,0,0,1,0,48463.4,0.175889,0.17554,-2.75282,25,0.0130805,10,-0.000483229,-2.56022,-0.431536,-0.136721,14.6798,0.17554,
2,0,0,1,0,48463.5,0.174385,0.174039,-2.77655,25,0.0130284,10,-0.000483229,-2.55649,-0.425918,-0.138524,15.0202,0.174039,
2,0,0,1,0,48463.5,0.172896,0.172547,-2.80607,25,0.0129763,10,-0.000484178,-2.5519,-0.455471,-0.129536,14.1394,0.1725468,
2,0,0,1,0,48463.5,0.171392,0.171058,-2.82488,25,0.0129232,10,-0.000483219,-2.549,-0.368154,-0.160259,17.677,0.171058,
2,0,0,1,0,48463.5,0.169889,0.169544,-2.84723,25,0.0128698,10,-0.000482731,-2.54558,-0.338253,-0.174426,19.4197,0.169544,
2,0,0,1,0,48463.5,0.1684,0.168061,-2.8822,25,0.0128163,10,-0.000484386,-2.54028,-0.322511,-0.182939,20.5427,0.168061,
2,0,0,1,0,48463.6,0.166896,0.166565,-2.9132,25,0.0127617,10,-0.000485237,-2.53563,-0.318829,-0.185052,20.975,0.166565,
2,0,0,1,0,48463.6,0.165392,0.16505,-2.93959,25,0.0127065,10,-0.000485179,-2.53171,-0.291911,-0.202117,23.1862,0.16505,
2,0,0,1,0,48463.6,0.163905,0.163563,-2.96387,25,0.0126515,10,-0.00048478,-2.52814,-0.297679,-0.1982,22.9992,0.163563,
2,0,0,1,0,48463.6,0.162401,0.162039,-3.00094,25,0.0125952,10,-0.00048627,-2.52274,-0.266653,-0.221262,25.9482,0.162039,
2,0,0,1,0,48463.6,0.160905,0.16055,-3.03938,25,0.0125384,10,-0.000487973,-2.51721,-0.279502,-0.21109,25.0402,0.16055,
2,0,0,1,0,48463.7,0.159409,0.159081,-3.07602,25,0.012481,10,-0.000489336,-2.51201,-0.273023,-0.216099,25.9741,0.159081,
2,0,0,1,0,48463.7,0.157905,0.157584,-3.11547,25,0.0124226,10,-0.00049095,-2.50648,-0.25996,-0.226958,27.6655,0.1575844,
2,0,0,1,0,48463.7,0.156416,0.156056,-3.15867,25,0.012364,10,-0.000492929,-2.5005,-0.230943,-0.255474,31.5823,0.1560557,
2,0,0,1,0,48463.7,0.154912,0.154552,-3.21503,25,0.0123038,10,-0.000496888,-2.49281,-0.214948,-0.274485,34.4984,0.154552,
2,0,0,1,0,48463.7,0.153409,0.153012,-3.271,25,0.0122426,10,-0.000500503,-2.48532,-0.223,-0.264574,33.8024,0.153012,
2,0,0,1,0,48463.7,0.151919,0.151561,-3.327,25,0.012181,10,-0.000504244,-2.47795,-0.195663,-0.301539,39.1732,0.151561,
2,0,0,1,0,48463.8,0.150416,0.150035,-3.39398,25,0.0121177,10,-0.000509215,-2.46929,-0.178002,-0.331457,43.9161,0.150035,
2,0,0,1,0,48463.8,0.148912,0.148551,-3.46336,25,0.0120532,10,-0.000514486,-2.4605,-0.162711,-0.362606,49.0269,0.148551,
2,0,0,1,0,48463.8,0.147425,0.14709,-3.5402,25,0.0119879,10,-0.000520729,-2.45097,-0.149283,-0.395222,54.5753,0.14709,
2,0,0,1,0,48463.8,0.145921,0.145576,-3.61504,25,0.0119204,10,-0.000526262,-2.44189,-0.143908,-0.409985,58.0009,0.145576,
2,0,0,1,0,48463.8,0.144425,0.144082,-3.71356,25,0.0118517,10,-0.000535059,-2.43021,-0.130351,-0.452626,65.7401,0.144082,
2,0,0,1,0,48463.9,0.142929,0.14261,-3.81438,25,0.0117812,10,-0.000543967,-2.41858,-0.120115,-0.491196,73.2213,0.14261,
2,0,0,1,0,48463.9,0.141425,0.14109,-3.92369,25,0.0117082,10,-0.000553595,-2.4063,-0.115178,-0.51225,78.5321,0.14109,
2,0,0,1,0,48463.9,0.139936,0.139589,-4.04752,25,0.0116339,10,-0.000564989,-2.39281,-0.111242,-0.530375,83.8718,0.139589,
2,0,0,1,0,48463.9,0.138432,0.138073,-4.1738,25,0.0115564,10,-0.000576288,-2.37947,-0.105769,-0.557817,91.0559,0.138073,
2,0,0,1,0,48463.9,0.136929,0.136592,-4.31083,25,0.0114764,10,-0.000588826,-2.36544,-0.10378,-0.568508,95.7932,0.136592,
2,0,0,1,0,48464,0.135439,0.135084,-4.45986,25,0.0113946,10,-0.000602454,-2.35068,-0.10657,-0.553628,96.3379,0.135084,
2,0,0,1,0,48464,0.133936,0.133579,-4.60948,25,0.0113091,10,-0.000615732,-2.33635,-0.10484,-0.56276,101.407,0.133579,
2,0,0,1,0,48464,0.132432,0.132125,-4.76875,25,0.0112207,10,-0.00063007,-2.3216,-0.102712,-0.574421,106.952,0.132125,
2,0,0,1,0,48464,0.130945,0.130644,-4.93763,25,0.0111303,10,-0.00064507,-2.30648,-0.101636,-0.5805,111.771,0.130644,
2,0,0,1,0,48464,0.129441,0.129103,-5.10353,25,0.0110357,10,-0.000658882,-2.29213,-0.107243,-0.55015,109.596,0.129103,
2,0,0,1,0,48464,0.127945,0.127622,-5.27638,25,0.0109384,10,-0.000673383,-2.27766,-0.109729,-0.537686,110.503,0.127622,
2,0,0,1,0,48464.1,0.126448,0.126127,-5.43496,25,0.010838,10,-0.000685496,-2.2648,-0.117433,-0.502416,106.545,0.126127,
2,0,0,1,0,48464.1,0.124945,0.124629,-5.60242,25,0.0107341,10,-0.000698223,-2.25162,-0.120189,-0.490892,107.224,0.124629,
2,0,0,1,0,48464.1,0.123456,0.123123,-5.76636,25,0.0106282,10,-0.000709969,-2.2391,-0.12332,-0.47843,107.53,0.123123,
2,0,0,1,0,48464.1,0.121952,0.121592,-5.92449,25,0.0105182,10,-0.00072037,-2.22735,-0.13242,-0.445553,102.741,0.121592,
2,0,0,1,0,48464.1,0.120449,0.120141,-6.07473,25,0.0104052,10,-0.000729821,-2.21647,-0.138315,-0.426564,100.968,0.120141,
2,0,0,1,0,48464.2,0.118959,0.118625,-6.22227,25,0.0102907,10,-0.000738116,-2.20605,-0.145318,-0.406007,98.522,0.1186248,
2,0,0,1,0,48464.2,0.117456,0.117162,-6.36515,25,0.0101723,10,-0.000745751,-2.19619,-0.150746,-0.391388,97.0737,0.117162,
2,0,0,1,0,48464.2,0.115952,0.115636,-6.50035,25,0.0100511,10,-0.000751672,-2.18706,-0.165242,-0.357052,90.431,0.115636,
2,0,0,1,0,48464.2,0.114465,0.114141,-6.62932,25,0.00992868,10,-0.000756674,-2.17853,-0.179814,-0.328117,84.8257,0.114141,
2,0,0,1,0,48464.2,0.112961,0.112638,-6.74952,25,0.00980268,10,-0.000760249,-2.17073,-0.194459,-0.303406,79.9185,0.1126375,
2,0,0,1,0,48464.3,0.111465,0.111133,-6.86595,25,0.00967507,10,-0.000763031,-2.1633,-0.209378,-0.281787,75.4765,0.111133,
2,0,0,1,0,48464.3,0.109968,0.109647,-6.98354,25,0.00954534,10,-0.000765721,-2.15592,-0.226425,-0.260572,70.9205,0.1096466,
2,0,0,1,0,48464.3,0.108465,0.108134,-7.08457,25,0.00941288,10,-0.00076608,-2.14969,-0.255447,-0.230967,63.7713,0.108134,
2,0,0,1,0,48464.3,0.106976,0.10662,-7.17634,25,0.00928004,10,-0.000765143,-2.1441,-0.283966,-0.207771,58.1285,0.10662,
2,0,0,1,0,48464.3,0.105472,0.105097,-7.26535,25,0.00914411,10,-0.000763569,-2.13874,-0.3052,-0.193316,54.7686,0.105097,
2,0,0,1,0,48464.3,0.103968,0.103618,-7.3484,25,0.00900659,10,-0.000761427,-2.13381,-0.341451,-0.172792,49.4653,0.103618,
2,0,0,1,0,48464.4,0.102479,0.102165,-7.41775,25,0.00886913,10,-0.000757835,-2.12973,-0.428087,-0.137823,39.7947,0.102165,
2,0,0,1,0,48464.4,0.100976,0.100654,-7.47085,25,0.00872902,10,-0.000751971,-2.12663,-0.490599,-0.120261,35.0044,0.100654,
2,0,0,1,0,48464.4,0.0994721,0.099137,-7.51674,25,0.00858801,10,-0.000745186,-2.12397,-0.586855,-0.100536,29.4553,0.099137,
2,0,0,1,0,48464.4,0.0979846,0.0976495,-7.55366,25,0.00844772,10,-0.000737611,-2.12184,-0.728417,-0.0809975,23.8349,0.09764953,
2,0,0,1,0,48464.4,0.0964811,0.0961331,-7.58046,25,0.00830529,10,-0.000728733,-2.1203,-1.12736,-0.0523349,15.4503,0.0961331,
2,0,0,1,0,48464.5,0.0949847,0.0946469,-7.59379,25,0.00816323,10,-0.000718728,-2.11954,-2.01421,-0.0292918,8.66791,0.0946469,
2,0,0,1,0,48464.5,0.0934883,0.0930907,-7.59466,25,0.00802106,10,-0.000706993,-2.11949,-6.22663,-0.00947543,2.80716,0.0930907,
2,0,0,1,0,48464.5,0.0919847,0.0916599,-7.58834,25,0.00787804,10,-0.000695546,-2.11985,6.09688,0.00967708,-2.86573,0.0916599,
2,0,0,1,0,48464.5,0.0904955,0.090169,-7.58465,25,0.00773663,10,-0.000683901,-2.12006,1.64722,0.035818,-10.5928,0.090169,
2,0,0,1,0,48464.5,0.0889919,0.0886594,-7.56224,25,0.00759402,10,-0.000670464,-2.12135,1.13312,0.0520688,-15.361,0.0886594,
2,0,0,1,0,48464.6,0.0874884,0.087111,-7.53578,25,0.00745187,10,-0.000656449,-2.12287,0.831853,0.070926,-20.8524,0.087111,
2,0,0,1,0,48464.6,0.0860009,0.0856859,-7.50448,25,0.00731177,10,-0.000643028,-2.12468,0.712312,0.0828289,-24.2405,0.0856859,
2,0,0,1,0,48464.6,0.0844973,0.0841712,-7.47062,25,0.00717082,10,-0.00062881,-2.12664,0.629525,0.0937215,-27.3078,0.0841712,
2,0,0,1,0,48464.6,0.0829938,0.0826912,-7.43074,25,0.00703057,10,-0.000614457,-2.12897,0.578599,0.10197,-29.5466,0.0826912,
2,0,0,1,0,48464.6,0.0815045,0.0812102,-7.38348,25,0.00689263,10,-0.000599614,-2.13174,0.57183,0.103177,-29.7418,0.0812102,
2,0,0,1,0,48464.6,0.080001,0.0796792,-7.3483,25,0.00675402,10,-0.000585506,-2.13381,0.576487,0.102344,-29.3308,0.0796792,
2,0,0,1,0,48464.7,0.0785046,0.0782331,-7.30253,25,0.00661688,10,-0.0005713,-2.13653,0.662676,0.089033,-25.3714,0.07823313,
2,0,0,1,0,48464.7,0.0770082,0.0766549,-7.2682,25,0.00648053,10,-0.000557143,-2.13857,0.600573,0.0982395,-27.8357,0.0766549,
2,0,0,1,0,48464.7,0.0755046,0.0751865,-7.2219,25,0.00634422,10,-0.000542989,-2.14135,0.639646,0.0922385,-26.0037,0.0751865,
2,0,0,1,0,48464.7,0.0740154,0.0736697,-7.18466,25,0.00621012,10,-0.000529292,-2.14359,0.668159,0.0883024,-24.7543,0.0736697,
2,0,0,1,0,48464.7,0.0725118,0.0721779,-7.14852,25,0.00607527,10,-0.000515965,-2.14578,0.741685,0.0795486,-22.1843,0.07217785,
2,0,0,1,0,48464.8,0.0710083,0.0706597,-7.11033,25,0.00594108,10,-0.000502414,-2.14811,0.783458,0.0753072,-20.8928,0.0706597,
2,0,0,1,0,48464.8,0.0695208,0.0691876,-7.07076,25,0.00580896,10,-0.000489209,-2.15053,0.748708,0.0788024,-21.7647,0.0691876,
2,0,0,1,0,48464.8,0.0680173,0.0676654,-7.03482,25,0.0056761,10,-0.000476014,-2.15275,0.853872,0.069097,-19.0054,0.0676654,
2,0,0,1,0,48464.8,0.0665137,0.0662049,-7.00545,25,0.0055438,10,-0.000463795,-2.15456,0.89818,0.0656884,-17.9773,0.0662049,
2,0,0,1,0,48464.8,0.0650244,0.0646943,-6.97916,25,0.00541343,10,-0.000451512,-2.1562,0.800089,0.0737418,-20.0944,0.0646943,
2,0,0,1,0,48464.9,0.0635209,0.0631928,-6.95638,25,0.0052822,10,-0.000439593,-2.15762,0.71916,0.0820402,-22.2568,0.0631928,
2,0,0,1,0,48464.9,0.0620245,0.06169,-6.91784,25,0.00515228,10,-0.000426762,-2.16003,0.729291,0.0809005,-21.8583,0.06169,
2,0,0,1,0,48464.9,0.0605281,0.0601539,-6.89482,25,0.00502292,10,-0.00041475,-2.16148,0.73789,0.0799577,-21.5034,0.0601539,
2,0,0,1,0,48464.9,0.0590246,0.058662,-6.86626,25,0.00489339,10,-0.000402788,-2.16328,0.718262,0.0821428,-22.009,0.058662,
2,0,0,1,0,48464.9,0.0575353,0.0571704,-6.83914,25,0.00476581,10,-0.000390997,-2.165,0.690737,0.085416,-22.7837,0.0571704,
2,0,0,1,0,48464.9,0.0560317,0.0557075,-6.80586,25,0.00463748,10,-0.000379138,-2.16712,0.74514,0.0791798,-21.0232,0.0557075,
2,0,0,1,0,48465,0.0545282,0.0542123,-6.77519,25,0.00450971,10,-0.000367298,-2.16908,0.895637,0.0658749,-17.4085,0.0542123,
2,0,0,1,0,48465,0.0530407,0.0526853,-6.74568,25,0.00438384,10,-0.000355398,-2.17097,0.792851,0.074415,-19.5775,0.0526853,
2,0,0,1,0,48465,0.0515372,0.0512022,-6.71615,25,0.00425715,10,-0.000343882,-2.17288,0.716811,0.082309,-21.545,0.0512022,
2,0,0,1,0,48465,0.0500336,0.049738,-6.67688,25,0.00413106,10,-0.000332095,-2.17543,0.695853,0.084788,-22.0952,0.049738,
2,0,0,1,0,48465,0.0485444,0.0482349,-6.64337,25,0.00400702,10,-0.000320442,-2.17761,0.755181,0.078127,-20.2692,0.04823485,
2,0,0,1,0,48465.1,0.0470408,0.0467283,-6.61144,25,0.00388224,10,-0.000308941,-2.1797,0.721102,0.0818192,-21.1043,0.0467283,
2,0,0,1,0,48465.1,0.0455444,0.0452035,-6.57531,25,0.00375872,10,-0.000297227,-2.18208,0.668611,0.0882427,-22.6328,0.0452035,
2,0,0,1,0,48465.1,0.044048,0.0437023,-6.53961,25,0.0036359,10,-0.000285796,-2.18445,0.620081,0.0951488,-24.2793,0.0437023,
2,0,0,1,0,48465.1,0.0425445,0.0422339,-6.49397,25,0.00351315,10,-0.000274266,-2.18749,0.602252,0.0979656,-24.8762,0.04223394,
2,0,0,1,0,48465.1,0.0410552,0.0407359,-6.46598,25,0.00339237,10,-0.000263398,-2.18937,0.618802,0.0953455,-24.0611,0.0407359,
2,0,0,1,0,48465.2,0.0395516,0.039211,-6.43086,25,0.00327093,10,-0.000252161,-2.19173,0.59401,0.099325,-24.9107,0.039211,
2,0,0,1,0,48465.2,0.0380481,0.0376745,-6.38717,25,0.00315023,10,-0.000240633,-2.19469,0.516079,0.114324,-28.4964,0.0376745,
2,0,0,1,0,48465.2,0.0365606,0.0362,-6.34357,25,0.0030316,10,-0.000229637,-2.19767,0.503896,0.117088,-29.0125,0.0362,
2,0,0,1,0,48465.2,0.0350571,0.0347384,-6.30613,25,0.00291247,10,-0.000219065,-2.20024,0.49859,0.118334,-29.1122,0.0347384,
2,0,0,1,0,48465.2,0.0335535,0.0332193,-6.26845,25,0.00279409,10,-0.000208233,-2.20284,0.488636,0.120744,-29.5165,0.0332193,
2,0,0,1,0,48465.2,0.0320643,0.0317346,-6.22495,25,0.00267776,10,-0.000197546,-2.20586,0.461338,0.127889,-31.0449,0.0317346,
2,0,0,1,0,48465.3,0.0305607,0.0302243,-6.17789,25,0.00256104,10,-0.000186722,-2.20916,0.440799,0.133848,-32.2584,0.0302243,
2,0,0,1,0,48465.3,0.0290643,0.0286917,-6.13061,25,0.00244583,10,-0.000175897,-2.2125,0.469338,0.125709,-30.0546,0.0286917,
2,0,0,1,0,48465.3,0.0275679,0.027187,-6.08628,25,0.00233149,10,-0.000165468,-2.21565,0.466019,0.126604,-30.0561,0.027187,
2,0,0,1,0,48465.3,0.0260644,0.02572,-6.0379,25,0.00221738,10,-0.000155295,-2.21911,0.428461,0.137702,-32.4127,0.02572,
2,0,0,1,0,48465.3,0.0245751,0.0242186,-5.98545,25,0.00210538,10,-0.000144959,-2.2229,0.42931,0.13743,-32.1015,0.0242186,
2,0,0,1,0,48465.4,0.0230716,0.0226994,-5.93361,25,0.00199317,10,-0.00013469,-2.22668,0.433117,0.136222,-31.5544,0.0226994,
2,0,0,1,0,48465.4,0.021568,0.0212082,-5.88413,25,0.00188188,10,-0.000124792,-2.23032,0.453665,0.130052,-29.8793,0.0212082,
2,0,0,1,0,48465.4,0.0200805,0.0197464,-5.83407,25,0.00177262,10,-0.000115202,-2.23403,0.429198,0.137466,-31.3076,0.0197464,
2,0,0,1,0,48465.4,0.018577,0.0182166,-5.78686,25,0.0016631,10,-0.000105417,-2.23756,0.409629,0.144033,-32.5506,0.0182166,
2,0,0,1,0,48465.4,0.0170735,0.016722,-5.73969,25,0.00155453,10,-9.59793e-05,-2.24111,0.428575,0.137666,-30.8702,0.016722,
2,0,0,1,0,48465.5,0.0155842,0.0152227,-5.69406,25,0.00144797,10,-8.66787e-05,-2.24458,0.42519,0.138761,-30.8551,0.0152227,
2,0,0,1,0,48465.5,0.0140806,0.0137233,-5.65073,25,0.00134104,10,-7.75466e-05,-2.2479,0.423316,0.139376,-30.7544,0.0137233,
2,0,0,1,0,48465.5,0.0125842,0.0122463,-5.61404,25,0.00123551,10,-6.87512e-05,-2.25072,0.411002,0.143551,-31.4384,0.0122463,
2,0,0,1,0,48465.5,0.0110878,0.0107774,-5.5683,25,0.00113083,10,-6.00115e-05,-2.25428,0.432808,0.136319,-29.6456,0.01077736,
2,0,0,1,0,48465.5,0.00958429,0.00923913,-5.52788,25,0.00102634,10,-5.10727e-05,-2.25744,0.479917,0.122938,-26.5328,0.00923913,
2,0,0,1,0,48465.5,0.0080968,0.00776293,-5.49497,25,0.000923679,10,-4.2657e-05,-2.26003,0.509478,0.115805,-24.8191,0.00776293,
2,0,0,1,0,48465.6,0.00659326,0.00626082,-5.46048,25,0.000820579,10,-3.41871e-05,-2.26277,0.532908,0.110713,-23.5815,0.00626082,
2,0,0,1,0,48465.6,0.00508972,0.00474202,-5.42312,25,0.000718157,10,-2.57165e-05,-2.26575,0.566249,0.104194,-22.0557,0.00474202,
2,0,0,1,0,48465.6,0.00360044,0.00326514,-5.39706,25,0.000617421,10,-1.76221e-05,-2.26784,1.05859,0.0557348,-11.7645,0.00326514,
2,0,0,1,0,48465.6,0.0020969,0.00171327,-5.40135,25,0.000516039,10,-9.25397e-06,-2.2675,1.07731,0.0547658,-11.4921,0.00171327,
2,0,0,1,0,48465.6,0.000593362,0.00018424,-5.35995,25,0.000414734,10,-9.87516e-07,-2.27084, , , ,0.0001842397,
2,0,0,1,0,48465.6,0.000199195,-0.000205073,-5.35429,25,0.000388438,10,1.09802e-06,-2.2713, , , ,-0.000205073,