File: Figure_codes/Fig_3-5/rawdata_trumpetplot_data/after 10th/20221101_1-115_003_TrumpetPlot_ParaChange_from10_every3_11_CV_C01_28.csv
mode,ox/red,error,control changes,counter inc.,time/s,control/V,Ewe/V,<I>/mA,cycle number,(Q-Qo)/C,I Range,P/W,log(|I|),Tafel slope mV/dec,alpha_eff,dI/d(E-IR),E-IR/V,
2,1,0,1,0,56358.2,2.44065e-05,-0.000497109,9.0283,29,0.0000000E+000,10,-4.48805e-06,-2.04439, , , ,-0.000497109,
2,1,0,1,0,56358.2,0.00214129,0.00172762,9.98952,29,4.90378e-05,10,1.72581e-05,-2.00046, , , ,0.00172762,
2,1,0,1,0,56358.2,0.0045495,0.00419943,10.7329,29,0.000111387,10,4.50719e-05,-1.96928,0.0870054,0.678119,279.425,0.00419943,
2,1,0,1,0,56358.2,0.0069466,0.00656202,11.295,29,0.000177555,10,7.4118e-05,-1.94711,0.112235,0.525682,230.149,0.00656202,
2,1,0,1,0,56358.2,0.0093437,0.00897974,11.8071,29,0.00024695,10,0.000106025,-1.92786,0.130952,0.450545,206.777,0.00897974,
2,1,0,1,0,56358.2,0.0117408,0.0113678,12.2767,29,0.000319263,10,0.000139558,-1.91092,0.151887,0.388446,185.393,0.0113678,
2,1,0,1,0,56358.2,0.0141462,0.0137813,12.7114,29,0.000394291,10,0.000175179,-1.89581,0.168616,0.349907,172.958,0.0137813,
2,1,0,1,0,56358.2,0.0165433,0.0161979,13.0982,29,0.000471751,10,0.000212164,-1.88279,0.190728,0.309341,157.77,0.0161979,
2,1,0,1,0,56358.2,0.0189404,0.0185711,13.4612,29,0.000551466,10,0.000249989,-1.87092,0.206901,0.285161,149.61,0.0185711,
2,1,0,1,0,56358.2,0.0213486,0.0209655,13.8189,29,0.000633353,10,0.000289719,-1.85953,0.227536,0.259299,139.446,0.0209655,
2,1,0,1,0,56358.2,0.0237457,0.0233896,14.1348,29,0.000717256,10,0.000330606,-1.84971,0.249273,0.236689,130.402,0.0233896,
2,1,0,1,0,56358.2,0.0261429,0.0257829,14.435,29,0.00080298,10,0.000372176,-1.84058,0.263184,0.224178,126.269,0.0257829,
2,1,0,1,0,56358.2,0.02854,0.0281466,14.7332,29,0.000890542,10,0.000414688,-1.8317,0.280033,0.210689,120.961,0.0281466,
2,1,0,1,0,56358.2,0.0309482,0.0305622,15.019,29,0.000979876,10,0.000459013,-1.82336,0.305636,0.19304,113.008,0.0305622,
2,1,0,1,0,56358.3,0.0333453,0.0329651,15.2778,29,0.00107078,10,0.000503635,-1.81594,0.325133,0.181464,108.216,0.0329651,
2,1,0,1,0,56358.3,0.0357424,0.0353701,15.543,29,0.00116328,10,0.000549756,-1.80847,0.33706,0.175043,106.105,0.0353701,
2,1,0,1,0,56358.3,0.0381478,0.0377528,15.7965,29,0.00125735,10,0.000596362,-1.80144,0.352014,0.167607,103.267,0.0377528,
2,1,0,1,0,56358.3,0.0405449,0.0401472,16.0341,29,0.00135286,10,0.000643725,-1.79495,0.374767,0.157431,98.5085,0.0401472,
2,1,0,1,0,56358.3,0.042942,0.0425989,16.2756,29,0.00144981,10,0.000693324,-1.78846,0.373448,0.157987,100.326,0.04259887,
2,1,0,1,0,56358.3,0.0453391,0.0449742,16.5061,29,0.00154819,10,0.00074235,-1.78235,0.388764,0.151763,97.7087,0.0449742,
2,1,0,1,0,56358.3,0.0477473,0.0473898,16.7395,29,0.00164797,10,0.000793284,-1.77626,0.410854,0.143603,93.7495,0.0473898,
2,1,0,1,0,56358.3,0.0501444,0.0497905,16.9567,29,0.00174908,10,0.000844282,-1.77066,0.422761,0.139559,92.3666,0.0497905,
2,1,0,1,0,56358.3,0.0525415,0.0521712,17.1863,29,0.00185153,10,0.000896628,-1.76482,0.428369,0.137732,92.3457,0.0521712,
2,1,0,1,0,56358.3,0.0549469,0.0546207,17.4134,29,0.00195535,10,0.000951133,-1.75912,0.444987,0.132588,90.0343,0.0546207,
2,1,0,1,0,56358.3,0.057344,0.0569557,17.622,29,0.00206047,10,0.00100367,-1.75395,0.448838,0.131451,90.456,0.0569557,
2,1,0,1,0,56358.3,0.0597412,0.0593597,17.8448,29,0.00216689,10,0.00105926,-1.74849,0.448222,0.131631,91.6772,0.0593597,
2,1,0,1,0,56358.3,0.0621438,0.061789,18.0742,29,0.00227468,10,0.00111679,-1.74294,0.4622,0.12765,89.9828,0.061789,
2,1,0,1,0,56358.3,0.0645465,0.0641813,18.2815,29,0.00238376,10,0.00117333,-1.73799,0.457121,0.129069,92.1272,0.06418132,
2,1,0,1,0,56358.3,0.0669436,0.0665428,18.5097,29,0.00249415,10,0.00123169,-1.7326,0.467521,0.126198,91.1219,0.0665428,
2,1,0,1,0,56358.3,0.0693407,0.0689977,18.7256,29,0.0026059,10,0.00129202,-1.72757,0.466252,0.126541,92.464,0.0689977,
2,1,0,1,0,56358.4,0.0717489,0.0713454,18.9481,29,0.00271894,10,0.00135186,-1.72243,0.481107,0.122634,90.6756,0.0713454,
2,1,0,1,0,56358.4,0.074146,0.0737844,19.164,29,0.0028333,10,0.001414,-1.71751,0.483094,0.122129,91.3623,0.0737844,
2,1,0,1,0,56358.4,0.0765431,0.0761385,19.3884,29,0.00294898,10,0.0014762,-1.71246,0.489981,0.120413,91.1114,0.0761385,
2,1,0,1,0,56358.4,0.0789485,0.0785594,19.6136,29,0.003066,10,0.00154083,-1.70744,0.500394,0.117907,90.2135,0.0785594,
2,1,0,1,0,56358.4,0.0813456,0.081011,19.8291,29,0.00318435,10,0.00160637,-1.7027,0.488794,0.120705,93.4324,0.081011,
2,1,0,1,0,56358.4,0.0837427,0.0833429,20.0531,29,0.00330401,10,0.00167129,-1.69782,0.484542,0.121765,95.3063,0.0833429,
2,1,0,1,0,56358.4,0.0861398,0.0857563,20.2838,29,0.00342506,10,0.00173946,-1.69285,0.494216,0.119381,94.4767,0.0857563,
2,1,0,1,0,56358.4,0.088548,0.0881783,20.5064,29,0.00354746,10,0.00180822,-1.68811,0.496111,0.118925,95.2064,0.0881783,
2,1,0,1,0,56358.4,0.0909451,0.0905674,20.7376,29,0.0036712,10,0.00187815,-1.68324,0.511586,0.115328,93.3321,0.0905674,
2,1,0,1,0,56358.4,0.0933422,0.0929968,20.9739,29,0.00379638,10,0.0019505,-1.67832,0.511675,0.115307,94.307,0.0929968,
2,1,0,1,0,56358.4,0.0957476,0.0953498,21.1899,29,0.00392287,10,0.00202045,-1.67387,0.527164,0.11192,92.5638,0.0953498,
2,1,0,1,0,56358.4,0.0981447,0.0977633,21.4037,29,0.00405068,10,0.0020925,-1.66951,0.530174,0.111284,92.9707,0.0977633,
2,1,0,1,0,56358.4,0.100542,0.100163,21.6393,29,0.00417985,10,0.00216745,-1.66476,0.537146,0.10984,92.7244,0.100163,
2,1,0,1,0,56358.4,0.102939,0.102581,21.8428,29,0.00431031,10,0.00224065,-1.66069,0.558831,0.105578,90.0216,0.102581,
2,1,0,1,0,56358.4,0.105347,0.10496,22.0734,29,0.0044421,10,0.00231683,-1.65613,0.55819,0.105699,91.0181,0.10496,
2,1,0,1,0,56358.4,0.107744,0.107359,22.2783,29,0.00457516,10,0.00239177,-1.65212,0.541137,0.10903,94.8688,0.107359,
2,1,0,1,0,56358.4,0.110141,0.109755,22.5194,29,0.00470959,10,0.00247163,-1.64744,0.5218,0.11307,99.3826,0.109755,
2,1,0,1,0,56358.5,0.11255,0.112142,22.7631,29,0.00484544,10,0.0025527,-1.64277,0.531159,0.111078,98.6583,0.112142,
2,1,0,1,0,56358.5,0.114947,0.11457,22.9996,29,0.00498272,10,0.00263506,-1.63828,0.517193,0.114077,102.405,0.11457,
2,1,0,1,0,56358.5,0.117344,0.116977,23.2413,29,0.00512147,10,0.0027187,-1.63374,0.52404,0.112587,102.09,0.116977,
2,1,0,1,0,56358.5,0.119744,0.119383,23.4846,29,0.00526169,10,0.00280366,-1.62922,0.534192,0.110447,101.257,0.119383,
2,1,0,1,0,56358.5,0.122146,0.121838,23.7287,29,0.00540336,10,0.00289105,-1.62473,0.513833,0.114823,106.391,0.121838,
2,1,0,1,0,56358.5,0.124543,0.124163,23.9942,29,0.00554657,10,0.0029792,-1.61989,0.513649,0.114864,107.54,0.124163,
2,1,0,1,0,56358.5,0.126941,0.126562,24.2515,29,0.00569136,10,0.00306932,-1.61526,0.497785,0.118525,112.219,0.126562,
2,1,0,1,0,56358.5,0.129349,0.128977,24.5282,29,0.0058377,10,0.00316358,-1.61033,0.494775,0.119246,114.185,0.128977,
2,1,0,1,0,56358.5,0.131746,0.131359,24.8139,29,0.00598573,10,0.00325953,-1.6053,0.49202,0.119914,116.084,0.131359,
2,1,0,1,0,56358.5,0.134143,0.13377,25.0922,29,0.00613546,10,0.0033566,-1.60046,0.483354,0.122064,119.538,0.1337705,
2,1,0,1,0,56358.5,0.13654,0.136174,25.3636,29,0.00628685,10,0.00345388,-1.59579,0.491389,0.120068,118.884,0.136174,
2,1,0,1,0,56358.5,0.138945,0.138568,25.6599,29,0.00643998,10,0.00355563,-1.59075,0.493975,0.119439,119.583,0.138568,
2,1,0,1,0,56358.5,0.141343,0.140939,25.9479,29,0.00659481,10,0.00365707,-1.5859,0.503011,0.117294,118.74,0.140939,
2,1,0,1,0,56358.5,0.14374,0.143382,26.2302,29,0.00675138,10,0.00376094,-1.5812,0.508552,0.116016,118.735,0.143382,
2,1,0,1,0,56358.5,0.146148,0.145763,26.5071,29,0.00690964,10,0.00386374,-1.57664,0.522711,0.112873,116.792,0.145763,
2,1,0,1,0,56358.5,0.148545,0.148198,26.7985,29,0.00706959,10,0.0039715,-1.57189,0.541062,0.109045,114.009,0.1481984,
2,1,0,1,0,56358.5,0.150942,0.150536,27.0621,29,0.00723121,10,0.00407381,-1.56764,0.557473,0.105835,111.75,0.150536,
2,1,0,1,0,56358.6,0.153345,0.152981,27.3282,29,0.00739441,10,0.00418069,-1.56339,0.569725,0.103559,110.454,0.152981,
2,1,0,1,0,56358.6,0.155747,0.155373,27.5953,29,0.0075592,10,0.00428757,-1.55916,0.593396,0.0994278,107.008,0.155373,
2,1,0,1,0,56358.6,0.158144,0.157745,27.8545,29,0.00772558,10,0.00439392,-1.5551,0.627861,0.0939699,102.055,0.157745,
2,1,0,1,0,56358.6,0.160542,0.160158,28.0715,29,0.00789334,10,0.00449586,-1.55173,0.674833,0.0874291,95.7878,0.160158,
2,1,0,1,0,56358.6,0.162947,0.162545,28.3052,29,0.00806251,10,0.00460086,-1.54813,0.717031,0.0822838,90.8147,0.162545,
2,1,0,1,0,56358.6,0.165344,0.164953,28.5113,29,0.00823301,10,0.00470302,-1.54498,0.808477,0.0729767,81.1262,0.1649528,
2,1,0,1,0,56358.6,0.167741,0.167358,28.6875,29,0.00840464,10,0.00480108,-1.54231,0.919752,0.0641477,71.8011,0.167358,
2,1,0,1,0,56358.6,0.170149,0.169817,28.8611,29,0.0085773,10,0.0049011,-1.53969,1.07868,0.0546965,61.538,0.1698169,
2,1,0,1,0,56358.6,0.172547,0.17219,28.9929,29,0.00875089,10,0.00499229,-1.53771,1.42758,0.0413286,46.6983,0.17219,
2,1,0,1,0,56358.6,0.174944,0.174536,29.0778,29,0.00892514,10,0.00507511,-1.53644,2.15999,0.0273149,30.9679,0.174536,
2,1,0,1,0,56358.6,0.177341,0.176975,29.1395,29,0.00909982,10,0.00515695,-1.53552,3.91623,0.0150655,17.1179,0.176975,
2,1,0,1,0,56358.6,0.179746,0.179406,29.1743,29,0.00927476,10,0.00523404,-1.535,26.9727,0.0021874,2.48683,0.179406,
2,1,0,1,0,56358.6,0.182143,0.181805,29.1616,29,0.00944978,10,0.00530171,-1.53519,-4.25023,-0.0138816,-15.7726,0.181805,
2,1,0,1,0,56358.6,0.18454,0.184202,29.0882,29,0.00962455,10,0.00535812,-1.53628,-2.1181,-0.0278551,-31.5988,0.184202,
2,1,0,1,0,56358.6,0.186949,0.186601,29.0094,29,0.00979883,10,0.00541318,-1.53746,-1.37818,-0.0428102,-48.3987,0.186601,
2,1,0,1,0,56358.6,0.189346,0.18896,28.8697,29,0.00997247,10,0.00545524,-1.53956,-1.0265,-0.0574768,-64.6497,0.1889604,
2,1,0,1,0,56358.7,0.191743,0.191348,28.6785,29,0.0101451,10,0.00548758,-1.54244,-0.805646,-0.0732332,-81.9013,0.191348,
2,1,0,1,0,56358.7,0.19414,0.193741,28.4571,29,0.0103165,10,0.0055133,-1.54581,-0.670868,-0.0879457,-97.5856,0.193741,
2,1,0,1,0,56358.7,0.196548,0.196193,28.2183,29,0.0104866,10,0.00553625,-1.54947,-0.57564,-0.102495,-112.694,0.196193,
2,1,0,1,0,56358.7,0.198945,0.19857,27.9175,29,0.010655,10,0.00554358,-1.55412,-0.492791,-0.119726,-130.294,0.19857,
2,1,0,1,0,56358.7,0.201342,0.201008,27.5906,29,0.0108215,10,0.00554593,-1.55924,-0.445989,-0.13229,-142.317,0.201008,
2,1,0,1,0,56358.7,0.203748,0.203375,27.2369,29,0.0109859,10,0.0055393,-1.56484,-0.409181,-0.14419,-153.119,0.203375,
2,1,0,1,0,56358.7,0.206145,0.20578,26.8595,29,0.0111482,10,0.00552713,-1.5709,-0.378544,-0.15586,-163.229,0.20578,
2,1,0,1,0,56358.7,0.208542,0.208207,26.4549,29,0.0113081,10,0.0055081,-1.57749,-0.360691,-0.163575,-168.783,0.2082068,
2,1,0,1,0,56358.7,0.210939,0.210596,26.0278,29,0.0114655,10,0.00548135,-1.58456,-0.336318,-0.175429,-178.157,0.210596,
2,1,0,1,0,56358.7,0.213347,0.212986,25.6053,29,0.0116204,10,0.00545358,-1.59167,-0.319148,-0.184867,-184.558,0.212986,
2,1,0,1,0,56358.7,0.215744,0.21543,25.1549,29,0.0117727,10,0.00541913,-1.59938,-0.30897,-0.190957,-187.386,0.21543,
2,1,0,1,0,56358.7,0.218141,0.217793,24.6939,29,0.0119222,10,0.00537816,-1.60741,-0.30593,-0.192855,-185.91,0.217793,
2,1,0,1,0,56358.7,0.220547,0.220205,24.2637,29,0.012069,10,0.005343,-1.61504,-0.298029,-0.197967,-187.319,0.220205,
2,1,0,1,0,56358.7,0.222944,0.222573,23.8038,29,0.0122131,10,0.00529809,-1.62335,-0.294721,-0.200189,-185.988,0.222573,
2,1,0,1,0,56358.7,0.225341,0.224971,23.3537,29,0.0123546,10,0.00525391,-1.63164,-0.29256,-0.201668,-183.955,0.224971,
2,1,0,1,0,56358.7,0.227744,0.227392,22.9302,29,0.0124934,10,0.00521414,-1.63959,-0.295529,-0.199642,-178.665,0.227392,
2,1,0,1,0,56358.7,0.230146,0.2298,22.5051,29,0.0126296,10,0.00517168,-1.64772,-0.297588,-0.198261,-174.128,0.2298,
2,1,0,1,0,56358.8,0.232543,0.232201,22.0885,29,0.0127634,10,0.00512897,-1.65583,-0.298857,-0.197419,-170.248,0.232201,
2,1,0,1,0,56358.8,0.234941,0.234606,21.687,29,0.0128946,10,0.00508788,-1.6638,-0.308421,-0.191297,-162.014,0.234606,
2,1,0,1,0,56358.8,0.237349,0.236998,21.3133,29,0.0130236,10,0.00505121,-1.67135,-0.315112,-0.187235,-155.717,0.236998,
2,1,0,1,0,56358.8,0.239746,0.239378,20.9362,29,0.0131503,10,0.00501167,-1.6791,-0.313184,-0.188388,-153.986,0.2393785,
2,1,0,1,0,56358.8,0.242143,0.241763,20.572,29,0.0132748,10,0.00497355,-1.68672,-0.3292,-0.179222,-144.062,0.241763,
2,1,0,1,0,56358.8,0.244548,0.244235,20.2413,29,0.0133972,10,0.00494364,-1.69376,-0.335725,-0.175739,-138.859,0.244235,
2,1,0,1,0,56358.8,0.246946,0.246582,19.9141,29,0.0135176,10,0.00491046,-1.70084,-0.344485,-0.17127,-133.129,0.246582,
2,1,0,1,0,56358.8,0.249343,0.249021,19.5863,29,0.0136361,10,0.0048774,-1.70805,-0.351752,-0.167732,-128.39,0.249021,
2,1,0,1,0,56358.8,0.25174,0.251435,19.3012,29,0.0137527,10,0.00485301,-1.71441,-0.37181,-0.158683,-119.572,0.251435,
2,1,0,1,0,56358.8,0.254148,0.253807,19.0247,29,0.0138677,10,0.0048286,-1.72068,-0.381055,-0.154833,-114.927,0.253807,
2,1,0,1,0,56358.8,0.256545,0.256149,18.7421,29,0.0139809,10,0.00480077,-1.72718,-0.386006,-0.152848,-111.895,0.256149,
2,1,0,1,0,56358.8,0.258942,0.258652,18.4852,29,0.0140926,10,0.00478123,-1.73318,-0.40688,-0.145006,-104.649,0.258652,
2,1,0,1,0,56358.8,0.261348,0.260996,18.2437,29,0.0142027,10,0.00476152,-1.73889,-0.422533,-0.139634,-99.4284,0.260996,
2,1,0,1,0,56358.8,0.263745,0.263394,18.0038,29,0.0143114,10,0.00474209,-1.74464,-0.426205,-0.138431,-97.3035,0.263394,
2,1,0,1,0,56358.8,0.266142,0.265801,17.774,29,0.0144187,10,0.00472434,-1.75022,-0.446969,-0.132,-91.6404,0.265801,
2,1,0,1,0,56358.8,0.268539,0.268204,17.563,29,0.0145247,10,0.00471045,-1.7554,-0.457448,-0.128976,-88.4343,0.268204,
2,1,0,1,0,56358.8,0.270947,0.270569,17.3631,29,0.0146295,10,0.00469791,-1.76037,-0.474229,-0.124413,-84.2922,0.270569,
2,1,0,1,0,56358.9,0.273344,0.272993,17.1599,29,0.014733,10,0.00468455,-1.76548,-0.483373,-0.122059,-81.7985,0.272993,
2,1,0,1,0,56358.9,0.275741,0.275378,16.9728,29,0.0148354,10,0.00467395,-1.77025,-0.517425,-0.114026,-75.5722,0.275378,
2,1,0,1,0,56358.9,0.278149,0.2778,16.8057,29,0.0149367,10,0.00466862,-1.77454,-0.541605,-0.108936,-71.4081,0.2778002,
2,1,0,1,0,56358.9,0.280547,0.280145,16.6199,29,0.0150369,10,0.00465599,-1.77937,-0.541966,-0.108863,-70.6546,0.280145,
2,1,0,1,0,56358.9,0.282944,0.282597,16.4595,29,0.0151361,10,0.00465142,-1.78358,-0.559326,-0.105484,-67.7984,0.282597,
2,1,0,1,0,56358.9,0.285344,0.285004,16.3031,29,0.0152344,10,0.00464644,-1.78773,-0.578217,-0.102038,-64.9099,0.285004,
2,1,0,1,0,56358.9,0.287746,0.287382,16.1474,29,0.0153317,10,0.00464047,-1.7919,-0.599975,-0.0983374,-61.9889,0.287382,
2,1,0,1,0,56358.9,0.290143,0.289759,16.0014,29,0.0154282,10,0.00463655,-1.79584,-0.620536,-0.0950791,-59.3764,0.289759,
2,1,0,1,0,56358.9,0.29254,0.292231,15.8606,29,0.0155237,10,0.00463496,-1.79968,-0.643868,-0.0916336,-56.7443,0.292231,
2,1,0,1,0,56358.9,0.294949,0.294558,15.729,29,0.0156185,10,0.00463311,-1.8033,-0.661862,-0.0891425,-54.7244,0.294558,
2,1,0,1,0,56358.9,0.297346,0.296961,15.5968,29,0.0157125,10,0.00463165,-1.80696,-0.762407,-0.0773865,-47.2017,0.296961,
2,1,0,1,0,56358.9,0.299621,0.29925,15.4749,29,0.015801,10,0.00463085,-1.81037,-0.0973912,-0.605804,-356.943,0.29925,
2,1,0,1,0,56358.9,0.299962,0.299746,15.3638,29,0.0158196,10,0.00460525,-1.8135,0.0146629,4.02375,2125.79,0.299746,
2,1,0,1,0,56358.9,0.297903,0.297622,12.5489,29,0.0158895,10,0.00373485,-1.90139,0.0259457,2.27398,1095.8,0.297622,
2,1,0,1,0,56358.9,0.295506,0.295197,10.3145,29,0.0159576,10,0.0030448,-1.98655,0.028165,2.0948,857.131,0.295197,
2,1,0,1,0,56358.9,0.293101,0.292788,8.51587,29,0.0160137,10,0.00249334,-2.06977,0.0282847,2.08593,697.632,0.292788,
2,1,0,1,0,56358.9,0.290704,0.290343,6.9866,29,0.01606,10,0.00202851,-2.15573,0.0268662,2.19607,598.23,0.290343,
2,1,0,1,0,56359,0.288307,0.28795,5.64397,29,0.0160977,10,0.00162518,-2.24842,0.0246397,2.39451,524.862,0.2879504,
2,1,0,1,0,56359,0.28591,0.285596,4.4688,29,0.0161278,10,0.00127627,-2.34981,0.0217705,2.71009,466.485,0.285596,
2,1,0,1,0,56359,0.283501,0.283162,3.41352,29,0.0161513,10,0.000966577,-2.4668,0.0183718,3.21144,417.954,0.283162,
2,1,0,1,0,56359,0.281104,0.280724,2.47272,29,0.0161688,10,0.000694151,-2.60683,0.0144229,4.09073,375.718,0.280724,
2,1,0,1,0,56359,0.278707,0.278374,1.62227,29,0.016181,10,0.000451599,-2.78988,0.00961857,6.13397,340.428,0.278374,
2,1,0,1,0,56359,0.276302,0.275938,0.847127,29,0.0161883,10,0.000233755,-3.07205,0.0045824,12.8753,305.639,0.275938,
2,1,0,1,0,56359,0.273905,0.273557,0.146079,29,0.0161911,10,3.9961e-05,-3.83541,0.0339433,1.73819,281.81,0.273557,
2,0,0,1,0,56359,0.271508,0.271188,-0.497267,29,0.01619,10,-0.000134853,-3.30341,-0.0118245,-4.98964,260.66,0.271188,
2,0,0,1,0,56359,0.269105,0.268768,-1.09546,29,0.0161851,10,-0.000294423,-2.96041,-0.0080671,-7.31366,237.285,0.268768,
2,0,0,1,0,56359,0.266702,0.266369,-1.6364,29,0.0161768,10,-0.000435886,-2.78611,-0.0157443,-3.74738,219.11,0.266369,
2,0,0,1,0,56359,0.264305,0.26391,-2.14798,29,0.0161654,10,-0.000566874,-2.66797,-0.0231554,-2.548,202.963,0.26391,
2,0,0,1,0,56359,0.261908,0.261598,-2.61384,29,0.0161511,10,-0.000683776,-2.58272,-0.0311748,-1.89256,187.463,0.261598,
2,0,0,1,0,56359,0.2595,0.259177,-3.04885,29,0.016134,10,-0.000790193,-2.51586,-0.0391682,-1.50633,175.843,0.259177,
2,0,0,1,0,56359,0.257103,0.256734,-3.45969,29,0.0161145,10,-0.000888221,-2.46096,-0.0482057,-1.22392,162.546,0.256734,
2,0,0,1,0,56359,0.254706,0.254382,-3.83265,29,0.0160925,10,-0.000974959,-2.4165,-0.0567305,-1.04,153.995,0.254382,
2,0,0,1,0,56359,0.2523,0.251926,-4.19237,29,0.0160684,10,-0.00105617,-2.37754,-0.0668932,-0.882003,143.136,0.251926,
2,0,0,1,0,56359,0.249903,0.24958,-4.52172,29,0.0160422,10,-0.00112853,-2.3447,-0.0762852,-0.773413,135.538,0.24958,
2,0,0,1,0,56359.1,0.247506,0.247141,-4.83444,29,0.0160141,10,-0.00119479,-2.31565,-0.086848,-0.679348,127.535,0.247141,
2,0,0,1,0,56359.1,0.245109,0.24477,-5.13203,29,0.0159841,10,-0.00125617,-2.28971,-0.0966747,-0.610294,121.76,0.2447696,
2,0,0,1,0,56359.1,0.242701,0.242356,-5.41878,29,0.0159525,10,-0.00131327,-2.2661,-0.108784,-0.542362,114.25,0.242356,
2,0,0,1,0,56359.1,0.240304,0.239954,-5.68276,29,0.0159191,10,-0.0013636,-2.24544,-0.121912,-0.483957,106.987,0.239954,
2,0,0,1,0,56359.1,0.237906,0.237512,-5.94364,29,0.0158842,10,-0.00141169,-2.22595,-0.132671,-0.444708,102.73,0.237512,
2,0,0,1,0,56359.1,0.235501,0.235135,-6.17636,29,0.0158479,10,-0.00145228,-2.20927,-0.14533,-0.405972,97.6929,0.235135,
2,0,0,1,0,56359.1,0.233104,0.232756,-6.40445,29,0.0158101,10,-0.00149068,-2.19352,-0.156054,-0.378075,94.3341,0.232756,
2,0,0,1,0,56359.1,0.230707,0.230287,-6.63074,29,0.0157709,10,-0.00152697,-2.17844,-0.166903,-0.353499,91.235,0.230287,
2,0,0,1,0,56359.1,0.22831,0.227949,-6.8331,29,0.0157305,10,-0.0015576,-2.16538,-0.183886,-0.320852,85.5389,0.227949,
2,0,0,1,0,56359.1,0.225902,0.225572,-7.03953,29,0.0156889,10,-0.00158792,-2.15246,-0.194944,-0.302652,83.005,0.225572,
2,0,0,1,0,56359.1,0.223504,0.223182,-7.23779,29,0.015646,10,-0.00161534,-2.14039,-0.213511,-0.276333,77.8542,0.223182,
2,0,0,1,0,56359.1,0.221107,0.220767,-7.41457,29,0.015602,10,-0.0016369,-2.12991,-0.222522,-0.265142,76.7399,0.220767,
2,0,0,1,0,56359.1,0.218699,0.21836,-7.60347,29,0.0155569,10,-0.0016603,-2.11899,-0.237444,-0.24848,73.6144,0.21836,
2,0,0,1,0,56359.1,0.216302,0.215955,-7.77796,29,0.0155108,10,-0.00167969,-2.10913,-0.257349,-0.229261,69.5082,0.2159552,
2,0,0,1,0,56359.1,0.213905,0.213562,-7.94463,29,0.0154636,10,-0.00169667,-2.09993,-0.26733,-0.220701,68.3903,0.213562,
2,0,0,1,0,56359.1,0.211505,0.211135,-8.10371,29,0.0154155,10,-0.00171097,-2.09132,-0.278926,-0.211526,66.8934,0.211135,
2,0,0,1,0,56359.1,0.209102,0.208783,-8.26382,29,0.0153663,10,-0.00172534,-2.08282,-0.283904,-0.207817,67.0056,0.2087826,
2,0,0,1,0,56359.2,0.206705,0.206377,-8.43,29,0.0153162,10,-0.00173975,-2.07417,-0.303561,-0.19436,63.8147,0.206377,
2,0,0,1,0,56359.2,0.204308,0.203966,-8.57021,29,0.0152652,10,-0.00174803,-2.06701,-0.308856,-0.191028,63.8814,0.203966,
2,0,0,1,0,56359.2,0.2019,0.201599,-8.72621,29,0.0152133,10,-0.0017592,-2.05917,-0.330623,-0.178451,60.7347,0.201599,
2,0,0,1,0,56359.2,0.199503,0.199129,-8.87049,29,0.0151605,10,-0.00176637,-2.05205,-0.345753,-0.170642,58.9984,0.199129,
2,0,0,1,0,56359.2,0.197106,0.196772,-9.00363,29,0.0151069,10,-0.00177167,-2.04558,-0.358478,-0.164585,57.8641,0.196772,
2,0,0,1,0,56359.2,0.194709,0.194338,-9.14377,29,0.0150524,10,-0.00177698,-2.03887,-0.365534,-0.161408,57.6426,0.194338,
2,0,0,1,0,56359.2,0.192303,0.191959,-9.29362,29,0.0149971,10,-0.001784,-2.03181,-0.36599,-0.161206,58.3749,0.191959,
2,0,0,1,0,56359.2,0.189906,0.189544,-9.42415,29,0.0149409,10,-0.00178629,-2.02576,-0.397311,-0.148498,54.5919,0.189544,
2,0,0,1,0,56359.2,0.187509,0.187157,-9.54726,29,0.014884,10,-0.00178683,-2.02012,-0.391275,-0.150789,56.2281,0.187157,
2,0,0,1,0,56359.2,0.185101,0.184751,-9.69563,29,0.0148262,10,-0.00179127,-2.01342,-0.385187,-0.153172,57.9123,0.1847506,
2,0,0,1,0,56359.2,0.182704,0.18238,-9.82291,29,0.0147677,10,-0.0017915,-2.00776,-0.419892,-0.140512,53.8818,0.18238,
2,0,0,1,0,56359.2,0.180307,0.179933,-9.95262,29,0.0147083,10,-0.00179081,-2.00206,-0.413295,-0.142755,55.4801,0.179933,
2,0,0,1,0,56359.2,0.177904,0.177518,-10.0871,29,0.0146482,10,-0.00179063,-1.99623,-0.408239,-0.144523,56.9296,0.177518,
2,0,0,1,0,56359.2,0.175501,0.175145,-10.2304,29,0.0145872,10,-0.0017918,-1.99011,-0.414523,-0.142332,56.7908,0.175145,
2,0,0,1,0,56359.2,0.173104,0.172716,-10.3616,29,0.0145254,10,-0.00178962,-1.98457,-0.422264,-0.139723,56.5227,0.172716,
2,0,0,1,0,56359.2,0.170707,0.170343,-10.4904,29,0.0144629,10,-0.00178696,-1.97921,-0.412439,-0.143052,58.6589,0.170343,
2,0,0,1,0,56359.3,0.168302,0.167959,-10.6503,29,0.0143994,10,-0.00178882,-1.97264,-0.409687,-0.144012,59.78,0.167959,
2,0,0,1,0,56359.3,0.165905,0.165535,-10.7923,29,0.0143351,10,-0.00178651,-1.96688,-0.41723,-0.141409,59.5261,0.165535,
2,0,0,1,0,56359.3,0.163507,0.163152,-10.9274,29,0.0142699,10,-0.00178283,-1.96148,-0.399487,-0.14769,63.0773,0.163152,
2,0,0,1,0,56359.3,0.161099,0.160776,-11.0929,29,0.0142039,10,-0.00178347,-1.95496,-0.3797,-0.155386,67.25,0.160776,
2,0,0,1,0,56359.3,0.158702,0.158375,-11.2482,29,0.0141368,10,-0.00178144,-1.94892,-0.373474,-0.157976,69.3578,0.158375,
2,0,0,1,0,56359.3,0.156305,0.155917,-11.4098,29,0.0140688,10,-0.00177898,-1.94272,-0.366954,-0.160783,71.7208,0.155917,
2,0,0,1,0,56359.3,0.153908,0.153552,-11.5887,29,0.0139998,10,-0.00177947,-1.93597,-0.34962,-0.168755,76.3733,0.153552,
2,0,0,1,0,56359.3,0.151503,0.151193,-11.7722,29,0.0139297,10,-0.00177987,-1.92914,-0.33577,-0.175716,80.7927,0.151193,
2,0,0,1,0,56359.3,0.149105,0.148718,-11.9751,29,0.0138584,10,-0.00178091,-1.92172,-0.328602,-0.179548,83.963,0.148718,
2,0,0,1,0,56359.3,0.146708,0.146314,-12.1837,29,0.0137859,10,-0.00178264,-1.91422,-0.30378,-0.19422,92.5104,0.146314,
2,0,0,1,0,56359.3,0.1443,0.143944,-12.4268,29,0.0137121,10,-0.00178876,-1.90564,-0.282207,-0.209067,101.437,0.143944,
2,0,0,1,0,56359.3,0.141903,0.141518,-12.6811,29,0.0136368,10,-0.00179461,-1.89684,-0.269106,-0.219244,108.557,0.141518,
2,0,0,1,0,56359.3,0.139506,0.13917,-12.9406,29,0.0135599,10,-0.00180095,-1.88804,-0.249381,-0.236586,119.764,0.1391701,
2,0,0,1,0,56359.3,0.137109,0.136717,-13.2382,29,0.0134814,10,-0.00180989,-1.87817,-0.230799,-0.255633,132.38,0.136717,
2,0,0,1,0,56359.3,0.134701,0.134363,-13.5787,29,0.0134009,10,-0.00182448,-1.86714,-0.21505,-0.274355,145.445,0.134363,
2,0,0,1,0,56359.3,0.132303,0.131951,-13.9221,29,0.0133184,10,-0.00183703,-1.8563,-0.206477,-0.285746,155.612,0.131951,
2,0,0,1,0,56359.3,0.129906,0.129537,-14.3159,29,0.0132337,10,-0.00185445,-1.84418,-0.194583,-0.303212,169.66,0.129537,
2,0,0,1,0,56359.4,0.127501,0.127149,-14.7479,29,0.0131464,10,-0.00187518,-1.83127,-0.187549,-0.314585,181.089,0.127149,
2,0,0,1,0,56359.4,0.125104,0.124766,-15.1861,29,0.0130566,10,-0.0018947,-1.81855,-0.183947,-0.320745,190.292,0.124766,
2,0,0,1,0,56359.4,0.122707,0.122352,-15.6554,29,0.012964,10,-0.00191547,-1.80534,-0.177456,-0.332477,203.388,0.122352,
2,0,0,1,0,56359.4,0.12031,0.120023,-16.1467,29,0.0128686,10,-0.00193798,-1.79192,-0.176955,-0.333418,210.247,0.1200234,
2,0,0,1,0,56359.4,0.117901,0.117579,-16.6656,29,0.0127701,10,-0.00195953,-1.77818,-0.179814,-0.328116,213.331,0.117579,
2,0,0,1,0,56359.4,0.115504,0.11516,-17.1801,29,0.0126685,10,-0.00197847,-1.76497,-0.183473,-0.321574,215.596,0.11516,
2,0,0,1,0,56359.4,0.113107,0.112783,-17.708,29,0.0125638,10,-0.00199717,-1.75183,-0.184418,-0.319925,221.074,0.112783,
2,0,0,1,0,56359.4,0.110702,0.110365,-18.2412,29,0.0124559,10,-0.0020132,-1.73895,-0.190539,-0.309647,220.224,0.1103652,
2,0,0,1,0,56359.4,0.108305,0.107946,-18.7717,29,0.0123448,10,-0.00202633,-1.7265,-0.196797,-0.299801,219.465,0.107946,
2,0,0,1,0,56359.4,0.105908,0.105597,-19.2942,29,0.0122306,10,-0.0020374,-1.71457,-0.203739,-0.289586,217.911,0.105597,
2,0,0,1,0,56359.4,0.103505,0.103145,-19.8261,29,0.0121132,10,-0.00204496,-1.70276,-0.213871,-0.275867,212.996,0.1031449,
2,0,0,1,0,56359.4,0.101102,0.100784,-20.2939,29,0.0119927,10,-0.00204531,-1.69263,-0.224608,-0.26268,208.161,0.100784,
2,0,0,1,0,56359.4,0.0987052,0.0984166,-20.809,29,0.0118694,10,-0.00204795,-1.68175,-0.229586,-0.256984,208.708,0.0984166,
2,0,0,1,0,56359.4,0.0963081,0.0960041,-21.3206,29,0.011743,10,-0.00204686,-1.6712,-0.238845,-0.247022,205.242,0.0960041,
2,0,0,1,0,56359.4,0.0938999,0.0936023,-21.809,29,0.0116135,10,-0.00204137,-1.66136,-0.254741,-0.231608,196.822,0.0936023,
2,0,0,1,0,56359.4,0.0915028,0.0911655,-22.2614,29,0.0114813,10,-0.00202947,-1.65245,-0.274186,-0.215182,186.83,0.09116549,
2,0,0,1,0,56359.4,0.0891057,0.0887329,-22.7097,29,0.0113463,10,-0.0020151,-1.64379,-0.283998,-0.207748,183.936,0.0887329,
2,0,0,1,0,56359.5,0.0867002,0.0863735,-23.1441,29,0.0112087,10,-0.00199904,-1.63556,-0.306128,-0.19273,173.794,0.0863735,
2,0,0,1,0,56359.5,0.0843031,0.0839706,-23.5382,29,0.0110686,10,-0.00197651,-1.62823,-0.331192,-0.178145,163.44,0.0839706,
2,0,0,1,0,56359.5,0.081906,0.0815943,-23.906,29,0.0109262,10,-0.00195059,-1.62149,-0.354689,-0.166343,155.144,0.0815943,
2,0,0,1,0,56359.5,0.0795089,0.0792412,-24.2754,29,0.0107816,10,-0.00192361,-1.61483,-0.385769,-0.152941,144.766,0.0792412,
2,0,0,1,0,56359.5,0.0771007,0.0768192,-24.6149,29,0.0106349,10,-0.0018909,-1.6088,-0.422614,-0.139607,133.934,0.0768192,
2,0,0,1,0,56359.5,0.0747036,0.0743941,-24.9174,29,0.0104863,10,-0.0018537,-1.6035,-0.467348,-0.126244,122.696,0.0743941,
2,0,0,1,0,56359.5,0.0723065,0.0719965,-25.213,29,0.0103359,10,-0.00181525,-1.59838,-0.505,-0.116832,114.826,0.0719965,
2,0,0,1,0,56359.5,0.0699011,0.0695693,-25.4894,29,0.0101838,10,-0.00177328,-1.59364,-0.556706,-0.10598,105.257,0.0695693,
2,0,0,1,0,56359.5,0.067504,0.0671918,-25.7106,29,0.0100302,10,-0.00172754,-1.58989,-0.618819,-0.0953429,95.6245,0.0671918,
2,0,0,1,0,56359.5,0.0651069,0.0647932,-25.9378,29,0.00987518,10,-0.00168059,-1.58607,-0.67511,-0.0873931,88.3946,0.0647932,
2,0,0,1,0,56359.5,0.0627098,0.0623648,-26.1319,29,0.00971892,10,-0.00162971,-1.58283,-0.784191,-0.0752368,76.661,0.06236485,
2,0,0,1,0,56359.5,0.0603016,0.0599726,-26.3051,29,0.00956156,10,-0.00157759,-1.57996,-0.905759,-0.0651387,66.83,0.0599726,
2,0,0,1,0,56359.5,0.0579045,0.0575517,-26.4538,29,0.00940327,10,-0.00152246,-1.57751,-1.06021,-0.0556492,57.4229,0.0575517,
2,0,0,1,0,56359.5,0.0555074,0.0551594,-26.5841,29,0.00924412,10,-0.00146636,-1.57538,-1.17401,-0.0502551,52.1155,0.0551594,
2,0,0,1,0,56359.5,0.0530992,0.0527639,-26.7072,29,0.00908423,10,-0.00140918,-1.57337,-1.41554,-0.0416803,43.3988,0.0527639,
2,0,0,1,0,56359.5,0.0507021,0.050361,-26.7923,29,0.00892372,10,-0.00134929,-1.57199,-1.73464,-0.0340129,35.5506,0.050361,
2,0,0,1,0,56359.6,0.048305,0.0479507,-26.8739,29,0.00876272,10,-0.00128862,-1.57067,-2.00844,-0.0293761,30.8014,0.0479507,
2,0,0,1,0,56359.6,0.0459051,0.0455818,-26.947,29,0.00860128,10,-0.00122829,-1.56949,-2.54935,-0.0231432,24.318,0.0455818,
2,0,0,1,0,56359.6,0.0435024,0.0431545,-26.9861,29,0.00843944,10,-0.00116457,-1.56886,-3.10865,-0.0189793,19.9866,0.0431545,
2,0,0,1,0,56359.6,0.0411053,0.0407866,-27.0281,29,0.00827739,10,-0.00110239,-1.56818,-3.98156,-0.0148183,15.6319,0.0407866,
2,0,0,1,0,56359.6,0.0387082,0.0383063,-27.0695,29,0.00811507,10,-0.00103694,-1.56752,-5.1585,-0.0114374,12.0757,0.0383063,
2,0,0,1,0,56359.6,0.0363,0.0359491,-27.0894,29,0.00795259,10,-0.000973838,-1.5672,-8.23943,-0.00716069,7.56844,0.0359491,
2,0,0,1,0,56359.6,0.0339029,0.0335663,-27.0983,29,0.00779004,10,-0.00090959,-1.56706,-17.2723,-0.00341588,3.61152,0.03356633,
2,0,0,1,0,56359.6,0.0315058,0.0311666,-27.1104,29,0.00762741,10,-0.000844941,-1.56686,-44.3031,-0.00133174,1.4083,0.0311666,
2,0,0,1,0,56359.6,0.0291087,0.0287786,-27.0975,29,0.00746479,10,-0.000779827,-1.56707,18.9459,0.00311413,-3.29287,0.0287786,
2,0,0,1,0,56359.6,0.0267033,0.0263397,-27.0894,29,0.0073022,10,-0.000713526,-1.5672,9.43143,0.00625568,-6.61307,0.0263397,
2,0,0,1,0,56359.6,0.0243062,0.02394,-27.0656,29,0.00713971,10,-0.00064795,-1.56758,5.75618,0.0102499,-10.8274,0.02394,
2,0,0,1,0,56359.6,0.0219091,0.0215869,-27.0486,29,0.00697736,10,-0.000583895,-1.56786,5.16155,0.0114307,-12.0638,0.0215869,
2,0,0,1,0,56359.6,0.0195009,0.0191119,-27.0191,29,0.00681516,10,-0.000516387,-1.56833,4.20868,0.0140186,-14.7749,0.0191119,
2,0,0,1,0,56359.6,0.0171038,0.0167207,-26.975,29,0.0066532,10,-0.000451041,-1.56904,3.5141,0.0167895,-17.6777,0.01672071,
2,0,0,1,0,56359.6,0.0147067,0.014304,-26.9371,29,0.00649148,10,-0.000385309,-1.56965,3.07883,0.0191631,-20.1323,0.014304,
2,0,0,1,0,56359.6,0.012304,0.0119658,-26.8787,29,0.00633003,10,-0.000321627,-1.57059,2.69821,0.0218663,-22.932,0.0119658,
2,0,0,1,0,56359.6,0.00990136,0.00956403,-26.8157,29,0.00616896,10,-0.000256466,-1.57161,2.30424,0.025605,-26.7923,0.00956403,
2,0,0,1,0,56359.7,0.00750426,0.00713251,-26.7493,29,0.00600827,10,-0.00019079,-1.57269,1.88891,0.031235,-32.5914,0.00713251,
2,0,0,1,0,56359.7,0.00510715,0.00476039,-26.6629,29,0.00584802,10,-0.000126926,-1.57409,2.08803,0.0282563,-29.4189,0.00476039,
2,0,0,1,0,56359.7,0.00270173,0.00234054,-26.5694,29,0.00568832,10,-6.21866e-05,-1.57562,1.73197,0.0340652,-35.3486,0.00234054,
2,0,0,1,0,56359.7,0.000304623,-0.000113242,-26.5146,29,0.00552898,10,3.00257e-06,-1.57651,1.52879,0.0385925,-39.8773,-0.000113242,
2,0,0,1,0,56359.7,-0.00209248,-0.00252037,-26.3924,29,0.00537028,10,6.65186e-05,-1.57852,1.24302,0.047465,-48.8825,-0.00252037,
2,0,0,1,0,56359.7,-0.00450068,-0.00486705,-26.2823,29,0.00521229,10,0.000127917,-1.58034,1.23456,0.0477902,-48.9957,-0.00486705,
2,0,0,1,0,56359.7,-0.00689779,-0.00729326,-26.1574,29,0.00505502,10,0.000190773,-1.58241,1.1415,0.0516865,-52.7351,-0.00729326,
2,0,0,1,0,56359.7,-0.00929489,-0.00969296,-26.0216,29,0.00489851,10,0.000252226,-1.58467,1.07659,0.0548025,-55.64,-0.00969296,
2,0,0,1,0,56359.7,-0.011692,-0.0121319,-25.8829,29,0.00474281,10,0.000314009,-1.58699,1.03925,0.0567715,-57.3347,-0.0121319,
2,0,0,1,0,56359.7,-0.0140974,-0.0145305,-25.7387,29,0.00458794,10,0.000373997,-1.58941,1.00046,0.0589729,-59.2422,-0.0145305,
2,0,0,1,0,56359.7,-0.0164945,-0.0168634,-25.5951,29,0.00443395,10,0.000431621,-1.59184,0.943294,0.0625468,-62.478,-0.0168634,
2,0,0,1,0,56359.7,-0.0188916,-0.0193257,-25.4458,29,0.00428081,10,0.000491758,-1.59438,0.953764,0.0618602,-61.4365,-0.0193257,
2,0,0,1,0,56359.7,-0.0212998,-0.0217063,-25.3032,29,0.0041286,10,0.000549239,-1.59682,0.941508,0.0626654,-61.8772,-0.0217063,
2,0,0,1,0,56359.7,-0.0236969,-0.0240636,-25.1548,29,0.00397724,10,0.000605314,-1.59938,0.943311,0.0625456,-61.3841,-0.0240636,
2,0,0,1,0,56359.7,-0.026094,-0.0265301,-25.0098,29,0.00382677,10,0.000663512,-1.60189,0.949036,0.0621684,-60.6823,-0.0265301,
2,0,0,1,0,56359.7,-0.0284912,-0.028881,-24.8596,29,0.00367721,10,0.000717969,-1.60451,0.982615,0.0600439,-58.2806,-0.028881,
2,0,0,1,0,56359.7,-0.0308994,-0.0312977,-24.729,29,0.00352846,10,0.000773959,-1.60679,1.01746,0.0579878,-55.9511,-0.0312977,
2,0,0,1,0,56359.8,-0.0332965,-0.0336772,-24.59,29,0.00338052,10,0.000828123,-1.60924,1.05312,0.0560239,-53.7882,-0.0336772,
2,0,0,1,0,56359.8,-0.0356936,-0.0360907,-24.4587,29,0.00323339,10,0.000882733,-1.61157,1.10733,0.0532812,-50.8923,-0.0360907,
2,0,0,1,0,56359.8,-0.038099,-0.0385191,-24.3517,29,0.00308695,10,0.000938004,-1.61347,1.16883,0.0504778,-47.9681,-0.0385191,
2,0,0,1,0,56359.8,-0.0404961,-0.0408774,-24.2299,29,0.00294122,10,0.000990456,-1.61565,1.16612,0.0505953,-47.857,-0.0408774,
2,0,0,1,0,56359.8,-0.0428932,-0.0432835,-24.1206,29,0.00279617,10,0.00104402,-1.61761,1.30725,0.045133,-42.5046,-0.0432835,
2,0,0,1,0,56359.8,-0.0452903,-0.0457436,-24.0195,29,0.00265175,10,0.00109874,-1.61944,1.40268,0.0420624,-39.4555,-0.0457436,
2,0,0,1,0,56359.8,-0.0476985,-0.0480691,-23.9393,29,0.00250788,10,0.00115074,-1.62089,1.55559,0.0379276,-35.4396,-0.0480691,
2,0,0,1,0,56359.8,-0.0500956,-0.0504826,-23.8651,29,0.00236449,10,0.00120477,-1.62224,1.6077,0.0366984,-34.1694,-0.0504826,
2,0,0,1,0,56359.8,-0.0524927,-0.0528748,-23.779,29,0.00222159,10,0.00125731,-1.62381,1.94575,0.0303225,-28.1626,-0.0528748,
2,0,0,1,0,56359.8,-0.0548981,-0.0552714,-23.7248,29,0.00207912,10,0.0013113,-1.6248,2.27846,0.0258947,-23.9789,-0.0552714,
2,0,0,1,0,56359.8,-0.0572953,-0.0576891,-23.6692,29,0.00193694,10,0.00136546,-1.62582,2.36628,0.0249337,-23.0302,-0.0576891,
2,0,0,1,0,56359.8,-0.0596924,-0.0601047,-23.6079,29,0.00179512,10,0.00141895,-1.62694,3.13494,0.0188201,-17.356,-0.0601047,
2,0,0,1,0,56359.8,-0.062095,-0.0625023,-23.584,29,0.00165358,10,0.00147406,-1.62738,4.26006,0.0138496,-12.7466,-0.0625023,
2,0,0,1,0,56359.8,-0.0644977,-0.0649423,-23.5553,29,0.00151216,10,0.00152973,-1.62791,4.84102,0.0121875,-11.2012,-0.0649423,
2,0,0,1,0,56359.8,-0.0668948,-0.0673176,-23.5252,29,0.00137094,10,0.00158366,-1.62847,5.31902,0.0110923,-10.1879,-0.0673176,
2,0,0,1,0,56359.8,-0.0692919,-0.0696887,-23.5052,29,0.00122987,10,0.00163805,-1.62884,16.7375,0.00352501,-3.23519,-0.06968867,
2,0,0,1,0,56359.9,-0.0717001,-0.0720831,-23.5055,29,0.00108884,10,0.00169435,-1.62883,82.6001,0.000714285,-0.65526,-0.0720831,
2,0,0,1,0,56359.9,-0.0740972,-0.0745008,-23.5048,29,0.000947809,10,0.00175113,-1.62884,82.4253,0.0007158,-0.65679,-0.0745008,
2,0,0,1,0,56359.9,-0.0764943,-0.076892,-23.5073,29,0.000806792,10,0.00180752,-1.6288,-12.37,-0.0047696,4.37797,-0.076892,
2,0,0,1,0,56359.9,-0.0788997,-0.0792949,-23.5305,29,0.00066572,10,0.00186585,-1.62837,-6.09242,-0.00968417,8.89299,-0.07929489,
2,0,0,1,0,56359.9,-0.0812968,-0.0816946,-23.5483,29,0.000524478,10,0.00192377,-1.62804,-6.02911,-0.00978586,8.9903,-0.0816946,
2,0,0,1,0,56359.9,-0.0836939,-0.0840646,-23.5663,29,0.000383115,10,0.00198109,-1.62771,-4.52839,-0.0130289,11.9907,-0.0840646,
2,0,0,1,0,56359.9,-0.086091,-0.0864887,-23.5959,29,0.000241635,10,0.00204078,-1.62716,-3.36741,-0.0175209,16.1471,-0.0864887,
2,0,0,1,0,56359.9,-0.0884992,-0.0889064,-23.6572,29,9.9841e-05,10,0.00210327,-1.62604,-2.91413,-0.0202462,18.6837,-0.0889064,
2,0,0,1,0,56359.9,-0.0908963,-0.0912764,-23.6854,29,-4.2198e-05,10,0.00216192,-1.62552,-3.03043,-0.0194692,18.011,-0.09127643,
2,0,0,1,0,56359.9,-0.0932934,-0.0937016,-23.7392,29,-0.000184487,10,0.0022244,-1.62453,-2.29207,-0.0257409,23.8678,-0.0937016,
2,0,0,1,0,56359.9,-0.0956989,-0.0960875,-23.8202,29,-0.000327157,10,0.00228883,-1.62305,-2.10518,-0.0280262,26.0415,-0.0960875,
2,0,0,1,0,56359.9,-0.098096,-0.0984946,-23.8713,29,-0.000470234,10,0.0023512,-1.62212,-2.83313,-0.0208251,19.3743,-0.0984946,
2,0,0,0,0,56359.9,-0.0999548,-0.100343,-23.9175,29,-0.000582559,10,0.00239995,-1.62128,0.0300648,1.96243,-1733.49,-0.100343,
2,0,0,1,1,56359.9,-0.0994554,-0.0999474,-22.757,29,-0.000621965,10,0.0022745,-1.64288,-0.0295511,-1.99654,1642.87,-0.0999474,
2,0,0,1,1,56359.9,-0.0970583,-0.0975053,-19.3808,29,-0.000747375,10,0.00188973,-1.71263,-0.0358689,-1.64488,1264.25,-0.0975053,
2,0,0,1,1,56359.9,-0.0946501,-0.0950716,-16.8404,29,-0.000855572,10,0.00160104,-1.77365,-0.0396815,-1.48684,986.115,-0.0950716,
2,0,0,1,1,56359.9,-0.0922531,-0.0926804,-14.68,29,-0.000949788,10,0.00136055,-1.83327,-0.0398275,-1.48139,852.734,-0.0926804,
2,0,0,1,1,56359.9,-0.0898559,-0.0902372,-12.786,29,-0.00103189,10,0.00115377,-1.89327,-0.0387759,-1.52156,759.273,-0.0902372,
2,0,0,1,1,56360,-0.0874588,-0.0878853,-11.0601,29,-0.00110319,10,0.000972019,-1.95624,-0.0369852,-1.59523,687.038,-0.0878853,
2,0,0,1,1,56360,-0.0850534,-0.0855025,-9.47401,29,-0.00116456,10,0.000810052,-2.02347,-0.0342626,-1.722,634.369,-0.08550252,
2,0,0,1,1,56360,-0.0826563,-0.083071,-8.01545,29,-0.00121683,10,0.000665851,-2.09607,-0.0313736,-1.88056,584.23,-0.083071,
2,0,0,1,1,56360,-0.0802592,-0.0806724,-6.66275,29,-0.00126068,10,0.0005375,-2.17635,-0.0277323,-2.12749,546.578,-0.0806724,
2,0,0,1,1,56360,-0.077851,-0.0782801,-5.38362,29,-0.00129667,10,0.00042143,-2.26893,-0.0236231,-2.49756,515.67,-0.0782801,
2,0,0,1,1,56360,-0.0754539,-0.0758867,-4.19752,29,-0.00132527,10,0.000318536,-2.37701,-0.0194955,-3.02634,480.587,-0.0758867,
2,0,0,1,1,56360,-0.0730568,-0.0734743,-3.07864,29,-0.00134695,10,0.000226201,-2.51164,-0.0146147,-4.03702,455.558,-0.0734743,
2,0,0,1,1,56360,-0.0706597,-0.0710725,-2.03063,29,-0.00136213,10,0.000144322,-2.69237,-0.0091658,-6.43697,430.715,-0.0710725,
2,0,0,1,1,56360,-0.0682542,-0.0687057,-1.01726,29,-0.00137111,10,6.98914e-05,-2.99257,-0.00627909,-9.39627,406.707,-0.0687057,
2,0,0,1,1,56360,-0.0658571,-0.0662593,-0.0726807,29,-0.00137424,10,4.81577e-06,-4.13858,-0.0747786,-0.788995,383.219,-0.0662593,
2,1,0,1,1,56360,-0.06346,-0.0638861,0.813276,29,-0.00137191,10,-5.19571e-05,-3.08976,0.00890957,6.62209,366.179,-0.0638861,
2,1,0,1,1,56360,-0.0610518,-0.0614705,1.68291,29,-0.0013643,10,-0.000103449,-2.77394,0.00887211,6.65006,348.821,-0.0614705,
2,1,0,1,1,56360,-0.0586547,-0.0590867,2.4965,29,-0.00135164,10,-0.00014751,-2.60267,0.0159778,3.69263,331.391,-0.0590867,
2,1,0,1,1,56360,-0.0562576,-0.0567284,3.25338,29,-0.00133431,10,-0.000184559,-2.48767,0.023157,2.54783,311.311,-0.05672837,
2,1,0,1,1,56360,-0.053855,-0.0542661,3.99319,29,-0.00131248,10,-0.000216695,-2.39868,0.0299242,1.97165,298.922,-0.0542661,
2,1,0,1,1,56360,-0.0514523,-0.0518897,4.6919,29,-0.00128631,10,-0.000243462,-2.32865,0.036844,1.60135,287.808,-0.0518897,
2,1,0,1,1,56360,-0.0490552,-0.0494826,5.36882,29,-0.00125605,10,-0.000265663,-2.27012,0.0444052,1.32867,274.613,-0.0494826,
2,1,0,1,1,56360.1,-0.0466581,-0.047084,6.0033,29,-0.00122183,10,-0.000282659,-2.22161,0.0519651,1.13538,263.577,-0.04708397,
2,1,0,1,1,56360.1,-0.0442527,-0.0446684,6.62102,29,-0.00118386,10,-0.00029575,-2.17907,0.0615397,0.95873,245.642,-0.0446684,
2,1,0,1,1,56360.1,-0.0418556,-0.0422877,7.20123,29,-0.00114227,10,-0.000304524,-2.14259,0.0708899,0.832276,232.211,-0.0422877,
2,1,0,1,1,56360.1,-0.0394585,-0.0399209,7.75327,29,-0.00109733,10,-0.000309518,-2.11052,0.0782616,0.753882,227.181,-0.0399209,
2,1,0,1,1,56360.1,-0.0370558,-0.0375,8.29146,29,-0.00104915,10,-0.00031093,-2.08137,0.0882547,0.668519,215.212,-0.0375,
2,1,0,1,1,56360.1,-0.0346532,-0.0350992,8.80594,29,-0.000997795,10,-0.000309082,-2.05522,0.0978496,0.602966,205.996,-0.0350992,
2,1,0,1,1,56360.1,-0.0322561,-0.032673,9.27614,29,-0.000943495,10,-0.00030308,-2.03263,0.108746,0.542548,195.812,-0.032673,
2,1,0,1,1,56360.1,-0.0298589,-0.0303083,9.73348,29,-0.000886407,10,-0.000295006,-2.01173,0.118375,0.498415,188.891,-0.03030833,
2,1,0,1,1,56360.1,-0.0274535,-0.0278715,10.1838,29,-0.000826575,10,-0.000283837,-1.99209,0.133507,0.441925,174.902,-0.0278715,
2,1,0,1,1,56360.1,-0.0250564,-0.0254506,10.5901,29,-0.000764209,10,-0.000269525,-1.9751,0.145605,0.405205,167.159,-0.0254506,
2,1,0,1,1,56360.1,-0.0226593,-0.0230711,10.9807,29,-0.000699449,10,-0.000253336,-1.95937,0.155582,0.379222,162.207,-0.0230711,
2,1,0,1,1,56360.1,-0.0202511,-0.0206714,11.3718,29,-0.000632349,10,-0.00023507,-1.94417,0.170307,0.346434,153.296,-0.0206714,
2,1,0,1,1,56360.1,-0.017854,-0.0182854,11.723,29,-0.000563032,10,-0.00021436,-1.93096,0.188094,0.313672,143.171,-0.0182854,
2,1,0,1,1,56360.1,-0.0154569,-0.0158274,12.0616,29,-0.000491635,10,-0.000190903,-1.9186,0.199458,0.295802,139.07,-0.0158274,
2,1,0,1,1,56360.1,-0.0130598,-0.0135104,12.385,29,-0.00041828,10,-0.000167326,-1.9071,0.213525,0.276315,133.394,-0.0135104,
2,1,0,1,1,56360.1,-0.0106516,-0.0110588,12.7094,29,-0.000342959,10,-0.00014055,-1.89587,0.231488,0.254873,126.083,-0.0110588,
2,1,0,1,1,56360.2,-0.00825449,-0.00868875,12.9884,29,-0.000265843,10,-0.000112853,-1.88645,0.253177,0.233038,118.017,-0.00868875,
2,1,0,1,1,56360.2,-0.00585738,-0.00627421,13.264,29,-0.000187066,10,-8.32208e-05,-1.87733,0.269904,0.218596,113.109,-0.00627421,
2,1,0,1,1,56360.2,-0.00345195,-0.00383951,13.5452,29,-0.000106616,10,-5.2007e-05,-1.86821,0.28691,0.205639,108.376,-0.00383951,
2,1,0,1,1,56360.2,-0.00105485,-0.00145572,13.786,29,-2.4591e-05,10,-2.00685e-05,-1.86056, , , ,-0.00145572,
2,1,0,0,1,56360.2,-7.54729e-05,-0.000458935,13.8755,29,9.9784e-06,10,-6.36795e-06,-1.85775, , , ,-0.000458935,