File: Figure_codes/Fig_3-5/rawdata_trumpetplot_data/after 10th/20221101_1-115_003_TrumpetPlot_ParaChange_from10_every3_11_CV_C01_7.csv
mode,ox/red,error,control changes,counter inc.,time/s,control/V,Ewe/V,<I>/mA,cycle number,(Q-Qo)/C,I Range,P/W,log(|I|),Tafel slope mV/dec,alpha_eff,dI/d(E-IR),E-IR/V,
2,1,0,1,0,14985.4,2.44065e-05,-0.000344411,10.0708,8,0.0000000E+000,10,-3.46848e-06,-1.99694, , , ,-0.000344411,
2,1,0,1,0,14985.4,0.00214129,0.00170854,11.4268,8,5.54171e-05,10,1.95232e-05,-1.94207, , , ,0.00170854,
2,1,0,1,0,14985.4,0.0045495,0.00419837,12.5846,8,0.000127758,10,5.28348e-05,-1.90016,0.0663289,0.889507,426.661,0.00419837,
2,1,0,1,0,14985.5,0.0069466,0.00658535,13.4494,8,0.000206008,10,8.85689e-05,-1.8713,0.0894207,0.659802,342.369,0.00658535,
2,1,0,1,0,14985.5,0.0093437,0.00900095,14.2019,8,0.000289063,10,0.000127831,-1.84765,0.110688,0.53303,293.301,0.00900095,
2,1,0,1,0,14985.5,0.0117408,0.0113879,14.8563,8,0.000376313,10,0.000169182,-1.82809,0.130505,0.452089,260.63,0.0113879,
2,1,0,1,0,14985.5,0.0141462,0.0138131,15.4418,8,0.000467318,10,0.000213299,-1.8113,0.15438,0.382174,229.196,0.0138131,
2,1,0,1,0,14985.5,0.0165433,0.0162202,15.9554,8,0.000561603,10,0.0002588,-1.79709,0.178981,0.329643,204.647,0.0162202,
2,1,0,1,0,14985.5,0.0189404,0.0186093,16.4211,8,0.000658795,10,0.000305585,-1.7846,0.198658,0.296993,190.043,0.0186093,
2,1,0,1,0,14985.5,0.0213486,0.0210175,16.8664,8,0.000758721,10,0.000354488,-1.77298,0.223707,0.263738,173.115,0.0210175,
2,1,0,1,0,14985.5,0.0237457,0.0234267,17.2582,8,0.000861173,10,0.000404303,-1.763,0.251323,0.234758,157.786,0.0234267,
2,1,0,1,0,14985.5,0.0261429,0.0257957,17.6104,8,0.000965829,10,0.000454272,-1.75423,0.266976,0.220993,151.919,0.0257957,
2,1,0,1,0,14985.5,0.02854,0.0282039,17.9768,8,0.00107264,10,0.000507014,-1.74529,0.28787,0.204953,143.544,0.0282039,
2,1,0,1,0,14985.5,0.0309482,0.030612,18.3125,8,0.0011816,10,0.000560581,-1.73725,0.313836,0.187996,134.151,0.030612,
2,1,0,1,0,14985.5,0.0333453,0.0329969,18.6152,8,0.0012924,10,0.000614245,-1.73013,0.331586,0.177933,129.287,0.0329969,
2,1,0,1,0,14985.5,0.0357424,0.035403,18.9347,8,0.00140505,10,0.000670346,-1.72274,0.34178,0.172625,127.464,0.035403,
2,1,0,1,0,14985.5,0.0381478,0.0377793,19.2327,8,0.00151958,10,0.000726599,-1.71596,0.355036,0.16618,124.648,0.0377793,
2,1,0,1,0,14985.5,0.0405449,0.0402055,19.5214,8,0.00163587,10,0.000784869,-1.70949,0.372195,0.158519,120.787,0.0402055,
2,1,0,1,0,14985.5,0.042942,0.0426127,19.8126,8,0.00175391,10,0.000844266,-1.70306,0.361584,0.163171,126.192,0.0426127,
2,1,0,1,0,14985.5,0.0453391,0.0449848,20.1029,8,0.0018737,10,0.000904324,-1.69674,0.378234,0.155988,122.376,0.0449848,
2,1,0,1,0,14985.6,0.0477473,0.047428,20.4002,8,0.00199529,10,0.000967538,-1.69037,0.393088,0.150094,119.412,0.047428,
2,1,0,1,0,14985.6,0.0501444,0.0498054,20.6774,8,0.00211857,10,0.00102985,-1.6845,0.393475,0.149946,121.064,0.0498054,
2,1,0,1,0,14985.6,0.0525415,0.0521796,20.9744,8,0.00224354,10,0.00109444,-1.67831,0.393486,0.149942,122.767,0.0521796,
2,1,0,1,0,14985.6,0.0549469,0.0545815,21.2865,8,0.00237036,10,0.00116185,-1.6719,0.400872,0.147179,122.126,0.0545815,
2,1,0,1,0,14985.6,0.057344,0.0569812,21.5572,8,0.00249893,10,0.00122836,-1.66641,0.409649,0.144026,121.276,0.0569812,
2,1,0,1,0,14985.6,0.0597411,0.0594169,21.8638,8,0.00262921,10,0.00129908,-1.66027,0.399102,0.147832,126.189,0.05941692,
2,1,0,1,0,14985.6,0.0621438,0.0617721,22.175,8,0.00276135,10,0.0013698,-1.65414,0.404061,0.146017,126.285,0.0617721,
2,1,0,1,0,14985.6,0.0645465,0.0641887,22.4664,8,0.00289531,10,0.00144209,-1.64847,0.39797,0.148252,130.069,0.0641887,
2,1,0,1,0,14985.6,0.0669436,0.066615,22.7887,8,0.00303109,10,0.00151807,-1.64228,0.402777,0.146483,130.237,0.066615,
2,1,0,1,0,14985.6,0.0693407,0.0690072,23.0976,8,0.00316881,10,0.0015939,-1.63643,0.405331,0.14556,131.161,0.0690072,
2,1,0,1,0,14985.6,0.0717489,0.0713783,23.4117,8,0.00330838,10,0.00167109,-1.63057,0.424866,0.138867,126.835,0.0713783,
2,1,0,1,0,14985.6,0.074146,0.0737801,23.7171,8,0.00344977,10,0.00174985,-1.62494,0.431626,0.136692,126.526,0.0737801,
2,1,0,1,0,14985.6,0.0765431,0.0762095,24.0247,8,0.003593,10,0.00183091,-1.61934,0.43754,0.134845,126.382,0.0762095,
2,1,0,1,0,14985.6,0.0789485,0.0786113,24.3351,8,0.00373808,10,0.00191301,-1.61377,0.444574,0.132711,125.966,0.0786113,
2,1,0,1,0,14985.6,0.0813456,0.0809941,24.6167,8,0.00388495,10,0.00199381,-1.60877,0.439076,0.134373,129.194,0.0809941,
2,1,0,1,0,14985.6,0.0837427,0.083363,24.9475,8,0.00403368,10,0.0020797,-1.60297,0.428835,0.137582,133.979,0.083363,
2,1,0,1,0,14985.6,0.0861398,0.0857882,25.2727,8,0.00418437,10,0.0021681,-1.59735,0.441831,0.133535,131.641,0.0857882,
2,1,0,1,0,14985.7,0.088548,0.0881985,25.5952,8,0.00433705,10,0.00225745,-1.59184,0.446991,0.131994,131.804,0.0881985,
2,1,0,1,0,14985.7,0.0909451,0.0905918,25.9011,8,0.00449155,10,0.00234642,-1.58668,0.468357,0.125972,127.36,0.0905918,
2,1,0,1,0,14985.7,0.0933422,0.0930286,26.2171,8,0.00464796,10,0.00243894,-1.58141,0.475972,0.123957,126.749,0.0930286,
2,1,0,1,0,14985.7,0.0957477,0.0953785,26.512,8,0.00480617,10,0.00252867,-1.57656,0.492253,0.119857,124.008,0.0953785,
2,1,0,1,0,14985.7,0.0981447,0.0978248,26.8066,8,0.00496615,10,0.00262235,-1.57176,0.494054,0.11942,124.927,0.0978248,
2,1,0,1,0,14985.7,0.100542,0.10021,27.1145,8,0.00512794,10,0.00271714,-1.5668,0.501184,0.117721,124.541,0.1002097,
2,1,0,1,0,14985.7,0.102939,0.102573,27.4015,8,0.00529152,10,0.00281066,-1.56223,0.506576,0.116468,124.57,0.102573,
2,1,0,1,0,14985.7,0.105347,0.105011,27.7115,8,0.00545691,10,0.00291002,-1.55734,0.501326,0.117688,127.282,0.1050112,
2,1,0,1,0,14985.7,0.107744,0.107407,28.017,8,0.00562411,10,0.00300921,-1.55258,0.503962,0.117072,128.021,0.107407,
2,1,0,1,0,14985.7,0.110141,0.109785,28.3329,8,0.00579319,10,0.00311053,-1.54771,0.48531,0.121572,134.438,0.109785,
2,1,0,1,0,14985.7,0.11255,0.112223,28.6554,8,0.00596418,10,0.00321579,-1.54279,0.477703,0.123508,138.157,0.112223,
2,1,0,1,0,14985.7,0.114947,0.114594,28.9816,8,0.00613711,10,0.00332112,-1.53788,0.467583,0.126181,142.849,0.114594,
2,1,0,1,0,14985.7,0.117344,0.117002,29.3445,8,0.00631212,10,0.00343337,-1.53247,0.450979,0.130826,149.862,0.117002,
2,1,0,1,0,14985.7,0.119744,0.119406,29.7082,8,0.00648931,10,0.00354734,-1.52712,0.438006,0.134701,156.222,0.119406,
2,1,0,1,0,14985.7,0.122146,0.121812,30.0817,8,0.00666874,10,0.00366432,-1.5217,0.425046,0.138808,163.084,0.1218123,
2,1,0,1,0,14985.7,0.124543,0.124191,30.4917,8,0.00685051,10,0.00378679,-1.51582,0.412494,0.143032,170.222,0.1241908,
2,1,0,1,0,14985.8,0.126941,0.126581,30.9056,8,0.00703476,10,0.00391207,-1.50996,0.403829,0.146101,176.271,0.126581,
2,1,0,1,0,14985.8,0.129349,0.128977,31.3395,8,0.00722149,10,0.00404209,-1.50391,0.397764,0.148329,181.504,0.128977,
2,1,0,1,0,14985.8,0.131746,0.131387,31.7903,8,0.00741089,10,0.00417683,-1.49771,0.386995,0.152457,189.087,0.1313867,
2,1,0,1,0,14985.8,0.134143,0.133778,32.2422,8,0.00760301,10,0.00431329,-1.49158,0.390206,0.151202,190.222,0.133778,
2,1,0,1,0,14985.8,0.13654,0.136208,32.687,8,0.00779783,10,0.00445224,-1.48563,0.393727,0.14985,191.172,0.136208,
2,1,0,1,0,14985.8,0.138945,0.138589,33.1446,8,0.00799541,10,0.00459347,-1.47959,0.400044,0.147484,190.775,0.138589,
2,1,0,1,0,14985.8,0.141343,0.140999,33.6084,8,0.00819573,10,0.00473876,-1.47355,0.409835,0.143961,188.761,0.140999,
2,1,0,1,0,14985.8,0.14374,0.143398,34.0528,8,0.00839878,10,0.0048831,-1.46785,0.42515,0.138774,184.371,0.143398,
2,1,0,1,0,14985.8,0.146148,0.145785,34.4929,8,0.00860449,10,0.00502855,-1.46227,0.440665,0.133888,180.165,0.145785,
2,1,0,1,0,14985.8,0.148545,0.148221,34.9138,8,0.00881278,10,0.00517494,-1.457,0.469449,0.125679,171.191,0.148221,
2,1,0,1,0,14985.8,0.150942,0.150617,35.3297,8,0.00902359,10,0.00532125,-1.45186,0.493734,0.119498,164.639,0.150617,
2,1,0,1,0,14985.8,0.153345,0.152995,35.7084,8,0.00923673,10,0.00546319,-1.44723,0.525051,0.11237,156.547,0.152995,
2,1,0,1,0,14985.8,0.155747,0.155403,36.083,8,0.00945211,10,0.0056074,-1.4427,0.558249,0.105688,148.701,0.155403,
2,1,0,1,0,14985.8,0.158144,0.157786,36.4297,8,0.00966968,10,0.00574808,-1.43854,0.619418,0.0952507,135.237,0.157786,
2,1,0,1,0,14985.8,0.160542,0.1602,36.7161,8,0.00988913,10,0.00588192,-1.43514,0.716239,0.0823747,117.946,0.1602,
2,1,0,1,0,14985.8,0.162947,0.162638,36.9872,8,0.0101103,10,0.00601553,-1.43195,0.830206,0.0710667,102.454,0.162638,
2,1,0,1,0,14985.8,0.165344,0.165014,37.2099,8,0.010333,10,0.00614017,-1.42934,1.10751,0.0532725,77.2531,0.1650143,
2,1,0,1,0,14985.9,0.167741,0.167435,37.3637,8,0.0105567,10,0.00625599,-1.42755,1.64997,0.0357581,52.0742,0.167435,
2,1,0,1,0,14985.9,0.170149,0.169835,37.4689,8,0.0107813,10,0.00636353,-1.42633,3.99159,0.0147811,21.5678,0.169835,
2,1,0,1,0,14985.9,0.172547,0.172191,37.4673,8,0.0110061,10,0.00645154,-1.42635,-4.94476,-0.0119318,-17.4067,0.172191,
2,1,0,1,0,14985.9,0.174944,0.174591,37.3818,8,0.0112307,10,0.00652652,-1.42734,-1.34594,-0.0438355,-63.7712,0.174591,
2,1,0,1,0,14985.9,0.177341,0.176992,37.1698,8,0.0114544,10,0.00657875,-1.42981,-0.773926,-0.0762347,-110.283,0.1769916,
2,1,0,1,0,14985.9,0.179746,0.179449,36.8503,8,0.0116765,10,0.00661273,-1.43356,-0.526023,-0.112162,-160.802,0.179449,
2,1,0,1,0,14985.9,0.182143,0.181793,36.4065,8,0.0118963,10,0.00661845,-1.43882,-0.389327,-0.151544,-214.507,0.181793,
2,1,0,1,0,14985.9,0.18454,0.184176,35.8017,8,0.0121129,10,0.0065938,-1.4461,-0.303005,-0.194716,-271.264,0.184176,
2,1,0,1,0,14985.9,0.186949,0.186656,35.0963,8,0.0123256,10,0.00655095,-1.45474,-0.249629,-0.236351,-322.706,0.186656,
2,1,0,1,0,14985.9,0.189346,0.18902,34.274,8,0.0125337,10,0.00647846,-1.46504,-0.214454,-0.275118,-366.732,0.1890198,
2,1,0,1,0,14985.9,0.191743,0.191454,33.3275,8,0.0127365,10,0.00638069,-1.4772,-0.187468,-0.314721,-408.38,0.191454,
2,1,0,1,0,14985.9,0.19414,0.193818,32.3103,8,0.0129333,10,0.00626232,-1.49066,-0.170958,-0.345114,-434.25,0.193818,
2,1,0,1,0,14985.9,0.196548,0.196228,31.2398,8,0.0131239,10,0.00613014,-1.50529,-0.157423,-0.374788,-455.968,0.196228,
2,1,0,1,0,14985.9,0.198945,0.198641,30.1183,8,0.0133078,10,0.00598273,-1.52117,-0.148886,-0.396277,-465.29,0.198641,
2,1,0,1,0,14985.9,0.201342,0.201051,28.9898,8,0.013485,10,0.00582843,-1.53775,-0.14238,-0.414383,-468.588,0.201051,
2,1,0,1,0,14985.9,0.203748,0.203424,27.8742,8,0.0136555,10,0.0056703,-1.5548,-0.141461,-0.417075,-453.903,0.203424,
2,1,0,1,0,14985.9,0.206145,0.205851,26.8,8,0.0138194,10,0.00551679,-1.57187,-0.140865,-0.418842,-438.376,0.205851,
2,1,0,1,0,14986,0.208542,0.208226,25.7767,8,0.013977,10,0.00536739,-1.58877,-0.145252,-0.406189,-409.089,0.208226,
2,1,0,1,0,14986,0.210939,0.210631,24.7974,8,0.0141286,10,0.0052231,-1.60559,-0.146795,-0.401921,-389.76,0.210631,
2,1,0,1,0,14986,0.213347,0.213026,23.9112,8,0.0142747,10,0.00509371,-1.6214,-0.153225,-0.385054,-359.812,0.213026,
2,1,0,1,0,14986,0.215744,0.21544,23.0808,8,0.0144155,10,0.00497253,-1.63675,-0.160355,-0.367935,-332.095,0.21544,
2,1,0,1,0,14986,0.218141,0.217807,22.3136,8,0.0145516,10,0.00486006,-1.65143,-0.172619,-0.341792,-298.497,0.217807,
2,1,0,1,0,14986,0.220547,0.220226,21.6499,8,0.0146833,10,0.00476787,-1.66454,-0.183276,-0.321919,-272.277,0.2202265,
2,1,0,1,0,14986,0.222944,0.222672,21.0143,8,0.0148112,10,0.00467929,-1.67749,-0.196006,-0.301011,-247.348,0.222672,
2,1,0,1,0,14986,0.225341,0.225015,20.4432,8,0.0149355,10,0.00460003,-1.68945,-0.210333,-0.280507,-224.422,0.225015,
2,1,0,1,0,14986,0.227744,0.227434,19.9498,8,0.0150566,10,0.00453727,-1.70006,-0.228122,-0.258634,-201.648,0.227434,
2,1,0,1,0,14986,0.230146,0.229847,19.4871,8,0.0151749,10,0.00447905,-1.71025,-0.247126,-0.238745,-181.884,0.229847,
2,1,0,1,0,14986,0.232543,0.232253,19.0714,8,0.0152905,10,0.00442938,-1.71962,-0.26802,-0.220133,-164.134,0.232253,
2,1,0,1,0,14986,0.234941,0.234619,18.701,8,0.0154038,10,0.00438761,-1.72814,-0.296338,-0.199097,-145.548,0.234619,
2,1,0,1,0,14986,0.237349,0.23699,18.375,8,0.0155149,10,0.00435469,-1.73577,-0.318642,-0.185161,-132.845,0.23699,
2,1,0,1,0,14986,0.239746,0.239422,18.053,8,0.0156242,10,0.00432229,-1.74345,-0.333508,-0.176907,-124.832,0.239422,
2,1,0,1,0,14986,0.242143,0.241777,17.7702,8,0.0157316,10,0.00429642,-1.75031,-0.373377,-0.158017,-109.808,0.241777,
2,1,0,1,0,14986,0.244548,0.244214,17.5332,8,0.0158375,10,0.00428185,-1.75614,-0.396353,-0.148857,-101.901,0.244214,
2,1,0,1,0,14986.1,0.246946,0.246636,17.2971,8,0.015942,10,0.00426609,-1.76203,-0.417356,-0.141366,-95.4509,0.246636,
2,1,0,1,0,14986.1,0.249343,0.24905,17.0682,8,0.016045,10,0.00425083,-1.76781,-0.4532,-0.130185,-86.8842,0.24905,
2,1,0,1,0,14986.1,0.25174,0.251427,16.8745,8,0.0161468,10,0.0042427,-1.77277,-0.491357,-0.120076,-79.122,0.251427,
2,1,0,1,0,14986.1,0.254148,0.253803,16.7039,8,0.0162475,10,0.00423949,-1.77718,-0.528357,-0.111667,-72.7668,0.253803,
2,1,0,1,0,14986.1,0.256545,0.256227,16.5165,8,0.0163471,10,0.00423197,-1.78208,-0.548537,-0.107559,-69.4154,0.256227,
2,1,0,1,0,14986.1,0.258942,0.258651,16.36,8,0.0164458,10,0.00423154,-1.78622,-0.613315,-0.0961985,-61.4783,0.258651,
2,1,0,1,0,14986.1,0.261348,0.261019,16.2269,8,0.0165435,10,0.00423554,-1.78976,-0.621232,-0.0949726,-60.1241,0.261019,
2,1,0,1,0,14986.1,0.263745,0.263459,16.0711,8,0.0166404,10,0.00423407,-1.79395,-0.647292,-0.091149,-57.2136,0.263459,
2,1,0,1,0,14986.1,0.266142,0.265829,15.9382,8,0.0167364,10,0.00423685,-1.79756,-0.704695,-0.0837242,-52.1403,0.265829,
2,1,0,1,0,14986.1,0.268539,0.268231,15.818,8,0.0168317,10,0.00424287,-1.80085,-0.752093,-0.0784477,-48.4543,0.268231,
2,1,0,1,0,14986.1,0.270947,0.270602,15.7146,8,0.0169263,10,0.0042524,-1.8037,-0.749532,-0.0787158,-48.2336,0.2706022,
2,1,0,1,0,14986.1,0.273344,0.273006,15.5911,8,0.0170202,10,0.00425645,-1.80712,-0.746945,-0.0789884,-48.0913,0.273006,
2,1,0,1,0,14986.1,0.275741,0.275403,15.4828,8,0.0171134,10,0.004264,-1.81015,-0.84745,-0.0696206,-42.0952,0.275403,
2,1,0,1,0,14986.1,0.278149,0.277854,15.3982,8,0.017206,10,0.00427844,-1.81253,-0.848435,-0.0695398,-41.7432,0.277854,
2,1,0,1,0,14986.1,0.280547,0.280211,15.2787,8,0.017298,10,0.00428124,-1.81591,-0.854224,-0.0690685,-41.2251,0.280211,
2,1,0,1,0,14986.1,0.282944,0.282663,15.1865,8,0.0173894,10,0.00429266,-1.81854,-0.930042,-0.063438,-37.6325,0.282663,
2,1,0,1,0,14986.1,0.285344,0.28505,15.1084,8,0.0174803,10,0.00430666,-1.82078,-0.930741,-0.0633903,-37.3533,0.28505,
2,1,0,1,0,14986.2,0.287746,0.287413,15.0084,8,0.0175707,10,0.00431362,-1.82366,-0.914646,-0.0645058,-37.8031,0.287413,
2,1,0,1,0,14986.2,0.290143,0.289825,14.9173,8,0.0176604,10,0.00432341,-1.82631,-0.902379,-0.0653827,-38.096,0.2898252,
2,1,0,1,0,14986.2,0.29254,0.292234,14.8447,8,0.0177497,10,0.00433813,-1.82843,-1.03754,-0.056865,-32.9472,0.292234,
2,1,0,1,0,14986.2,0.294949,0.294598,14.7713,8,0.0178385,10,0.00435159,-1.83058,-1.0539,-0.0559827,-32.2618,0.2945981,
2,1,0,1,0,14986.2,0.297346,0.297061,14.6903,8,0.0179269,10,0.00436392,-1.83297,-1.13124,-0.0521554,-29.9282,0.297061,
2,1,0,1,0,14986.2,0.299621,0.29928,14.6048,8,0.0180104,10,0.00437092,-1.83551,-0.0696602,-0.846968,-462.379,0.29928,
2,1,0,1,0,14986.2,0.299962,0.299632,14.4753,8,0.0180279,10,0.00433726,-1.83937,0.00816638,7.22474,3220.35,0.299632,
2,1,0,1,0,14986.2,0.297903,0.297669,10.0144,8,0.0180886,10,0.00298099,-1.99937,0.0127147,4.64029,1697.28,0.297669,
2,1,0,1,0,14986.2,0.295506,0.29524,6.51244,8,0.0181373,10,0.00192273,-2.18626,0.0116011,5.08573,1286.71,0.29524,
2,1,0,1,0,14986.2,0.293101,0.292812,3.91464,8,0.018168,10,0.00114625,-2.40731,0.00852837,6.91809,968.849,0.292812,
2,1,0,1,0,14986.2,0.290704,0.29039,1.90799,8,0.018185,10,0.000554063,-2.71942,0.00433696,13.604,754.998,0.29039,
2,1,0,1,0,14986.2,0.288307,0.287958,0.301023,8,0.0181913,10,8.6682e-05,-3.5214,0.0242069,2.43732,608.765,0.287958,
2,0,0,1,0,14986.2,0.28591,0.285609,-0.983938,8,0.018189,10,-0.000281021,-3.00703,-0.0137261,-4.29838,489.772,0.285609,
2,0,0,1,0,14986.2,0.283501,0.283222,-2.04742,8,0.0181797,10,-0.000579874,-2.68879,-0.00865323,-6.81826,408.075,0.283222,
2,0,0,1,0,14986.2,0.281104,0.280774,-2.93338,8,0.0181646,10,-0.000823614,-2.53263,-0.0181111,-3.25767,338.166,0.280774,
2,0,0,1,0,14986.2,0.278707,0.278391,-3.6699,8,0.0181447,10,-0.00102167,-2.43535,-0.0279277,-2.1126,287.855,0.278391,
2,0,0,1,0,14986.2,0.276302,0.275972,-4.30077,8,0.0181207,10,-0.00118689,-2.36645,-0.0389236,-1.51579,246.422,0.275972,
2,0,0,1,0,14986.2,0.273905,0.273624,-4.83603,8,0.0180932,10,-0.00132326,-2.31551,-0.0514342,-1.1471,212.666,0.273624,
2,0,0,1,0,14986.3,0.271508,0.271229,-5.30857,8,0.0180627,10,-0.00143984,-2.27502,-0.0653003,-0.903518,184.808,0.271229,
2,0,0,1,0,14986.3,0.269105,0.268761,-5.73478,8,0.0180295,10,-0.00154129,-2.24148,-0.0802277,-0.735407,162.43,0.268761,
2,0,0,1,0,14986.3,0.266702,0.266342,-6.08498,8,0.0179939,10,-0.00162069,-2.21574,-0.096792,-0.609555,143.927,0.266342,
2,0,0,1,0,14986.3,0.264305,0.263981,-6.41731,8,0.0179564,10,-0.00169405,-2.19265,-0.111817,-0.527646,131.369,0.263981,
2,0,0,1,0,14986.3,0.261908,0.261574,-6.72317,8,0.0179169,10,-0.00175861,-2.17243,-0.130418,-0.452391,117.972,0.261574,
2,0,0,1,0,14986.3,0.2595,0.259208,-6.98659,8,0.0178758,10,-0.00181098,-2.15573,-0.14947,-0.394729,107.244,0.259208,
2,0,0,1,0,14986.3,0.257103,0.256794,-7.23447,8,0.0178331,10,-0.00185777,-2.14059,-0.168433,-0.350287,98.5772,0.256794,
2,0,0,1,0,14986.3,0.254706,0.254384,-7.46069,8,0.017789,10,-0.00189788,-2.12722,-0.183383,-0.321731,93.4416,0.254384,
2,0,0,1,0,14986.3,0.2523,0.25198,-7.678,8,0.0177436,10,-0.0019347,-2.11475,-0.206942,-0.285104,85.2696,0.25198,
2,0,0,1,0,14986.3,0.249903,0.249589,-7.86976,8,0.0176969,10,-0.00196421,-2.10404,-0.22344,-0.264053,80.9953,0.249589,
2,0,0,1,0,14986.3,0.247506,0.247182,-8.05675,8,0.0176491,10,-0.00199148,-2.09384,-0.240053,-0.245779,77.2481,0.247182,
2,0,0,1,0,14986.3,0.245109,0.244836,-8.23834,8,0.0176001,10,-0.00201705,-2.08416,-0.261999,-0.225191,72.2984,0.244836,
2,0,0,1,0,14986.3,0.242701,0.242372,-8.4123,8,0.0175502,10,-0.00203891,-2.07509,-0.283786,-0.207903,68.151,0.242372,
2,0,0,1,0,14986.3,0.240304,0.239997,-8.57247,8,0.0174992,10,-0.00205736,-2.06689,-0.299315,-0.197117,65.913,0.2399967,
2,0,0,1,0,14986.3,0.237906,0.237628,-8.72975,8,0.0174473,10,-0.00207443,-2.059,-0.315813,-0.18682,63.5262,0.237628,
2,0,0,1,0,14986.3,0.235501,0.235152,-8.86897,8,0.0173945,10,-0.00208555,-2.05213,-0.338284,-0.17441,60.3569,0.235152,
2,0,0,1,0,14986.4,0.233104,0.232737,-9.01108,8,0.0173409,10,-0.00209721,-2.04522,-0.341311,-0.172863,60.7876,0.2327372,
2,0,0,1,0,14986.4,0.230707,0.230413,-9.15401,8,0.0172863,10,-0.0021092,-2.03839,-0.356445,-0.165523,59.0858,0.230413,
2,0,0,1,0,14986.4,0.22831,0.227984,-9.28613,8,0.017231,10,-0.00211709,-2.03217,-0.385726,-0.152958,55.4501,0.227984,
2,0,0,1,0,14986.4,0.225902,0.225593,-9.41875,8,0.0171748,10,-0.00212481,-2.02601,-0.401088,-0.1471,54.0444,0.225593,
2,0,0,1,0,14986.4,0.223504,0.223181,-9.55758,8,0.0171179,10,-0.00213307,-2.01965,-0.422103,-0.139776,52.0372,0.223181,
2,0,0,1,0,14986.4,0.221107,0.220801,-9.67143,8,0.0170602,10,-0.00213546,-2.01451,-0.432023,-0.136567,51.5808,0.220801,
2,0,0,1,0,14986.4,0.218699,0.218402,-9.80902,8,0.0170018,10,-0.00214231,-2.00837,-0.434516,-0.135783,51.926,0.218402,
2,0,0,1,0,14986.4,0.216302,0.215998,-9.9251,8,0.0169426,10,-0.0021438,-2.00327,-0.44983,-0.131161,50.8114,0.215998,
2,0,0,1,0,14986.4,0.213905,0.213543,-10.0565,8,0.0168826,10,-0.00214749,-1.99755,-0.454246,-0.129886,50.9502,0.213543,
2,0,0,1,0,14986.4,0.211505,0.211188,-10.1616,8,0.016822,10,-0.002146,-1.99304,-0.470711,-0.125342,49.7187,0.211188,
2,0,0,1,0,14986.4,0.209102,0.208811,-10.2809,8,0.0167606,10,-0.00214677,-1.98797,-0.455725,-0.129464,52.0059,0.208811,
2,0,0,1,0,14986.4,0.206705,0.206398,-10.4212,8,0.0166985,10,-0.00215092,-1.98208,-0.481728,-0.122476,49.7203,0.206398,
2,0,0,1,0,14986.4,0.204308,0.203955,-10.5332,8,0.0166356,10,-0.00214829,-1.97744,-0.47307,-0.124717,51.229,0.203955,
2,0,0,1,0,14986.4,0.2019,0.201558,-10.6489,8,0.0165721,10,-0.00214636,-1.9727,-0.49349,-0.119557,49.722,0.201558,
2,0,0,1,0,14986.4,0.199503,0.199182,-10.7797,8,0.0165078,10,-0.00214711,-1.96739,-0.493233,-0.119619,50.2598,0.199182,
2,0,0,1,0,14986.4,0.197106,0.196771,-10.891,8,0.0164428,10,-0.00214303,-1.96293,-0.490342,-0.120324,51.1742,0.196771,
2,0,0,1,0,14986.4,0.194709,0.194382,-11.0046,8,0.0163771,10,-0.0021391,-1.95842,-0.481714,-0.122479,52.7053,0.194382,
2,0,0,1,0,14986.5,0.192303,0.191986,-11.1515,8,0.0163106,10,-0.00214092,-1.95267,-0.465413,-0.126769,55.1264,0.191986,
2,0,0,1,0,14986.5,0.189906,0.189604,-11.2707,8,0.0162433,10,-0.00213696,-1.94805,-0.493328,-0.119596,52.625,0.189604,
2,0,0,1,0,14986.5,0.187509,0.187201,-11.3982,8,0.0161752,10,-0.00213376,-1.94316,-0.472329,-0.124913,55.6104,0.187201,
2,0,0,1,0,14986.5,0.185101,0.18476,-11.5394,8,0.0161064,10,-0.00213202,-1.93782,-0.458293,-0.128739,58.0015,0.18476,
2,0,0,1,0,14986.5,0.182704,0.182376,-11.6824,8,0.0160367,10,-0.00213059,-1.93247,-0.456556,-0.129228,58.9524,0.182376,
2,0,0,1,0,14986.5,0.180307,0.18,-11.8278,8,0.0159662,10,-0.00212901,-1.9271,-0.435885,-0.135357,62.5218,0.18,
2,0,0,1,0,14986.5,0.177904,0.177608,-11.9806,8,0.0158947,10,-0.00212785,-1.92152,-0.42439,-0.139023,65.0662,0.1776077,
2,0,0,1,0,14986.5,0.175501,0.175154,-12.1455,8,0.0158224,10,-0.00212732,-1.91559,-0.396212,-0.14891,70.5724,0.175154,
2,0,0,1,0,14986.5,0.173104,0.172774,-12.3151,8,0.015749,10,-0.00212774,-1.90956,-0.394579,-0.149526,71.8887,0.172774,
2,0,0,1,0,14986.5,0.170707,0.170401,-12.479,8,0.0156746,10,-0.00212643,-1.90382,-0.369055,-0.159868,78.0143,0.170401,
2,0,0,1,0,14986.5,0.168302,0.167998,-12.6906,8,0.0155991,10,-0.002132,-1.89652,-0.346261,-0.170392,84.3968,0.1679983,
2,0,0,1,0,14986.5,0.165905,0.165588,-12.8953,8,0.0155223,10,-0.00213531,-1.88957,-0.343518,-0.171752,86.4521,0.165588,
2,0,0,1,0,14986.5,0.163507,0.16319,-13.0999,8,0.0154443,10,-0.00213778,-1.88273,-0.313268,-0.188337,96.5396,0.16319,
2,0,0,1,0,14986.5,0.161099,0.160775,-13.3638,8,0.0153649,10,-0.00214856,-1.87407,-0.291317,-0.202529,105.613,0.1607748,
2,0,0,1,0,14986.5,0.158702,0.158356,-13.6133,8,0.0152839,10,-0.00215575,-1.86604,-0.2714,-0.217391,115.597,0.158356,
2,0,0,1,0,14986.5,0.156305,0.155978,-13.8946,8,0.0152014,10,-0.00216725,-1.85715,-0.259456,-0.227399,123.604,0.155978,
2,0,0,1,0,14986.5,0.153908,0.153584,-14.2021,8,0.0151171,10,-0.00218121,-1.84765,-0.242876,-0.242922,134.923,0.153584,
2,0,0,1,0,14986.6,0.151503,0.151154,-14.563,8,0.0150308,10,-0.00220125,-1.83675,-0.222254,-0.265462,151.051,0.151154,
2,0,0,1,0,14986.6,0.149105,0.148791,-14.9354,8,0.0149423,10,-0.00222226,-1.82578,-0.20985,-0.281153,164.037,0.148791,
2,0,0,1,0,14986.6,0.146708,0.1464,-15.3409,8,0.0148514,10,-0.0022459,-1.81415,-0.193036,-0.305642,183.464,0.1464,
2,0,0,1,0,14986.6,0.1443,0.144011,-15.8036,8,0.014758,10,-0.00227588,-1.80125,-0.180731,-0.326452,201.816,0.144011,
2,0,0,1,0,14986.6,0.141903,0.141609,-16.3213,8,0.0146616,10,-0.00231124,-1.78725,-0.173318,-0.340415,216.926,0.141609,
2,0,0,1,0,14986.6,0.139506,0.139203,-16.8435,8,0.014562,10,-0.00234466,-1.77357,-0.162402,-0.363296,239.584,0.139203,
2,0,0,1,0,14986.6,0.137109,0.136805,-17.4407,8,0.0144592,10,-0.00238598,-1.75844,-0.153137,-0.385277,263.166,0.136805,
2,0,0,1,0,14986.6,0.134701,0.134374,-18.1314,8,0.0143524,10,-0.00243639,-1.74157,-0.145783,-0.404711,286.467,0.134374,
2,0,0,1,0,14986.6,0.132303,0.132008,-18.8215,8,0.0142414,10,-0.00248459,-1.72535,-0.143478,-0.411211,302.568,0.132008,
2,0,0,1,0,14986.6,0.129906,0.129605,-19.576,8,0.0141262,10,-0.00253715,-1.70828,-0.141758,-0.416203,318.403,0.129605,
2,0,0,1,0,14986.6,0.127501,0.127194,-20.3829,8,0.0140063,10,-0.00259259,-1.69073,-0.139434,-0.423139,336.512,0.127194,
2,0,0,1,0,14986.6,0.125104,0.124785,-21.1987,8,0.0138814,10,-0.00264528,-1.67369,-0.141513,-0.416922,344.902,0.1247846,
2,0,0,1,0,14986.6,0.122707,0.122433,-22.0389,8,0.0137517,10,-0.00269828,-1.65681,-0.142614,-0.413705,355.869,0.122433,
2,0,0,1,0,14986.6,0.12031,0.120036,-22.8916,8,0.0136168,10,-0.00274781,-1.64032,-0.145068,-0.406705,363.489,0.120036,
2,0,0,1,0,14986.6,0.117901,0.117607,-23.7827,8,0.0134767,10,-0.002797,-1.62374,-0.15164,-0.38908,360.635,0.117607,
2,0,0,1,0,14986.6,0.115504,0.115195,-24.6439,8,0.0133313,10,-0.00283887,-1.60829,-0.16165,-0.364986,350.143,0.115195,
2,0,0,1,0,14986.7,0.113107,0.112822,-25.4514,8,0.0131808,10,-0.00287149,-1.59429,-0.168772,-0.349584,347.224,0.112822,
2,0,0,1,0,14986.7,0.110702,0.11043,-26.3015,8,0.0130256,10,-0.00290447,-1.58002,-0.173977,-0.339125,347.812,0.11043,
2,0,0,1,0,14986.7,0.108305,0.108065,-27.126,8,0.0128652,10,-0.00293138,-1.56661,-0.183964,-0.320716,338.881,0.108065,
2,0,0,1,0,14986.7,0.105908,0.105681,-27.9173,8,0.0127,10,-0.00295034,-1.55413,-0.19522,-0.302223,328.921,0.105681,
2,0,0,1,0,14986.7,0.103505,0.103231,-28.6966,8,0.0125301,10,-0.00296237,-1.54217,-0.213681,-0.276112,308.693,0.103231,
2,0,0,1,0,14986.7,0.101102,0.100793,-29.4281,8,0.0123556,10,-0.00296614,-1.53124,-0.228177,-0.258571,296.356,0.100793,
2,0,0,1,0,14986.7,0.0987052,0.0984134,-30.1061,8,0.0121769,10,-0.00296284,-1.52135,-0.249898,-0.236096,277.107,0.0984134,
2,0,0,1,0,14986.7,0.0963081,0.0960211,-30.7576,8,0.0119943,10,-0.00295338,-1.51205,-0.267342,-0.220691,264.587,0.0960211,
2,0,0,1,0,14986.7,0.0938999,0.0936532,-31.3793,8,0.0118078,10,-0.00293877,-1.50336,-0.289152,-0.204045,249.443,0.0936532,
2,0,0,1,0,14986.7,0.0915028,0.0912037,-31.9444,8,0.0116177,10,-0.00291344,-1.49561,-0.323846,-0.182186,226.815,0.09120366,
2,0,0,1,0,14986.7,0.0891057,0.0888368,-32.4698,8,0.0114244,10,-0.00288452,-1.48852,-0.35005,-0.168548,213.36,0.0888368,
2,0,0,1,0,14986.7,0.0867002,0.0864371,-32.9641,8,0.0112281,10,-0.00284932,-1.48196,-0.392477,-0.150327,193.14,0.0864371,
2,0,0,1,0,14986.7,0.0843031,0.083995,-33.4129,8,0.0110289,10,-0.00280652,-1.47609,-0.443854,-0.132927,173.002,0.083995,
2,0,0,1,0,14986.7,0.081906,0.0815794,-33.7902,8,0.0108272,10,-0.00275658,-1.47121,-0.515745,-0.114398,150.708,0.0815794,
2,0,0,1,0,14986.7,0.0795089,0.0791914,-34.131,8,0.0106233,10,-0.00270288,-1.46685,-0.618852,-0.0953379,126.841,0.0791914,
2,0,0,1,0,14986.7,0.0771007,0.0767843,-34.4291,8,0.0104176,10,-0.00264361,-1.46307,-0.770685,-0.0765553,102.649,0.0767843,
2,0,0,1,0,14986.7,0.0747036,0.0743835,-34.6232,8,0.0102104,10,-0.00257539,-1.46063,-1.03558,-0.0569728,76.9131,0.07438349,
2,0,0,1,0,14986.8,0.0723065,0.0719986,-34.792,8,0.0100021,10,-0.00250497,-1.45852,-1.36826,-0.0431204,58.4743,0.0719986,
2,0,0,1,0,14986.8,0.0699011,0.0696117,-34.9199,8,0.00979297,10,-0.00243084,-1.45693,-2.36586,-0.0249381,33.9128,0.0696117,
2,0,0,1,0,14986.8,0.067504,0.0671844,-34.9487,8,0.00958334,10,-0.00234801,-1.45657,-7.47553,-0.00789241,10.7524,0.0671844,
2,0,0,1,0,14986.8,0.0651069,0.0648218,-34.9543,8,0.00937361,10,-0.0022658,-1.4565,9.13574,0.00645815,-8.80054,0.06482181,
2,0,0,1,0,14986.8,0.0627098,0.0623871,-34.8984,8,0.00916401,10,-0.00217721,-1.4572,2.85016,0.0207006,-28.1724,0.0623871,
2,0,0,1,0,14986.8,0.0603016,0.0599789,-34.8139,8,0.00895481,10,-0.0020881,-1.45825,1.76211,0.0334826,-45.456,0.0599789,
2,0,0,1,0,14986.8,0.0579045,0.0575676,-34.6917,8,0.00874628,10,-0.00199712,-1.45977,1.38006,0.0427519,-57.852,0.0575676,
2,0,0,1,0,14986.8,0.0555074,0.0551933,-34.5435,8,0.0085386,10,-0.00190657,-1.46163,1.24839,0.0472607,-63.6849,0.0551933,
2,0,0,1,0,14986.8,0.0530992,0.0527809,-34.3827,8,0.00833184,10,-0.00181475,-1.46366,1.07207,0.0550337,-73.7818,0.0527809,
2,0,0,1,0,14986.8,0.0507021,0.0503982,-34.1917,8,0.00812613,10,-0.0017232,-1.46608,0.993972,0.0593578,-79.1868,0.0503982,
2,0,0,1,0,14986.8,0.048305,0.0479921,-33.9909,8,0.00792164,10,-0.0016313,-1.46864,0.964065,0.0611992,-81.1988,0.0479921,
2,0,0,1,0,14986.8,0.0459051,0.0456285,-33.7926,8,0.0077183,10,-0.0015419,-1.47118,0.912742,0.0646404,-85.2259,0.0456285,
2,0,0,1,0,14986.8,0.0435024,0.0431641,-33.5793,8,0.00751614,10,-0.00144942,-1.47393,0.924679,0.0638059,-83.6452,0.0431641,
2,0,0,1,0,14986.8,0.0411053,0.0407792,-33.3783,8,0.00731528,10,-0.00136114,-1.47654,0.910136,0.0648255,-84.4811,0.0407792,
2,0,0,1,0,14986.8,0.0387082,0.0383774,-33.1925,8,0.00711557,10,-0.00127384,-1.47896,0.93121,0.0633584,-82.048,0.0383774,
2,0,0,1,0,14986.8,0.0363,0.0359851,-32.9878,8,0.00691706,10,-0.00118707,-1.48165,0.909171,0.0648943,-83.5422,0.0359851,
2,0,0,1,0,14986.8,0.0339029,0.0335483,-32.7886,8,0.00671977,10,-0.0011,-1.48428,0.906434,0.0650902,-83.2863,0.0335483,
2,0,0,1,0,14986.9,0.0315058,0.0312027,-32.5913,8,0.00652367,10,-0.00101693,-1.4869,0.937746,0.0629168,-80.0274,0.0312027,
2,0,0,1,0,14986.9,0.0291087,0.0287871,-32.387,8,0.00632876,10,-0.000932327,-1.48963,0.900758,0.0655004,-82.7997,0.0287871,
2,0,0,1,0,14986.9,0.0267033,0.0263725,-32.1955,8,0.00613499,10,-0.000849078,-1.4922,0.887257,0.0664971,-83.5316,0.02637253,
2,0,0,1,0,14986.9,0.0243062,0.0239781,-31.983,8,0.00594246,10,-0.000766893,-1.49508,0.835589,0.0706089,-88.1498,0.0239781,
2,0,0,1,0,14986.9,0.0219091,0.021553,-31.7789,8,0.00575118,10,-0.000684929,-1.49786,0.832558,0.0708659,-87.8824,0.021553,
2,0,0,1,0,14986.9,0.0195009,0.0191851,-31.5681,8,0.00556113,10,-0.000605638,-1.50075,0.793084,0.0743931,-91.6249,0.0191851,
2,0,0,1,0,14986.9,0.0171038,0.0167684,-31.3444,8,0.00537243,10,-0.000525596,-1.50384,0.772079,0.0764171,-93.4897,0.0167684,
2,0,0,1,0,14986.9,0.0147067,0.0143634,-31.1224,8,0.00518505,10,-0.000447024,-1.50693,0.738983,0.0798394,-96.9096,0.0143634,
2,0,0,1,0,14986.9,0.012304,0.0120019,-30.8829,8,0.00499905,10,-0.000370654,-1.51028,0.682862,0.0864011,-104.075,0.0120019,
2,0,0,1,0,14986.9,0.00990136,0.00957993,-30.6203,8,0.00481459,10,-0.000293341,-1.51399,0.655967,0.0899436,-107.47,0.00957993,
2,0,0,1,0,14986.9,0.00750426,0.0071516,-30.3678,8,0.00463166,10,-0.000217179,-1.51759,0.612889,0.0962654,-113.98,0.0071516,
2,0,0,1,0,14986.9,0.00510715,0.00478371,-30.0709,8,0.00445035,10,-0.000143851,-1.52185,0.627399,0.0940391,-110.445,0.00478371,
2,0,0,1,0,14986.9,0.00270173,0.00236599,-29.7776,8,0.00427082,10,-7.04535e-05,-1.52611,0.576767,0.102294,-118.947,0.00236599,
2,0,0,1,0,14986.9,0.000304623,-8.35508e-05,-29.53,8,0.00409279,10,2.46725e-06,-1.52974,0.542677,0.10872,-125.065,-8.35508e-05,
2,0,0,1,0,14986.9,-0.00209248,-0.00245462,-29.1789,8,0.0039167,10,7.16232e-05,-1.53493,0.485711,0.121471,-138.355,-0.00245462,
2,0,0,1,0,14986.9,-0.00450068,-0.00485538,-28.8513,8,0.00374266,10,0.000140084,-1.53983,0.469185,0.12575,-141.495,-0.00485538,
2,0,0,1,0,14987,-0.00689779,-0.00727735,-28.4998,8,0.00357064,10,0.000207403,-1.54516,0.457624,0.128927,-143.361,-0.00727735,
2,0,0,1,0,14987,-0.00929489,-0.00966221,-28.1577,8,0.00340072,10,0.000272065,-1.5504,0.453077,0.130221,-143.084,-0.00966221,
2,0,0,1,0,14987,-0.011692,-0.0120661,-27.8132,8,0.00323286,10,0.000335598,-1.55575,0.450128,0.131074,-142.27,-0.0120661,
2,0,0,1,0,14987,-0.0140974,-0.0144415,-27.467,8,0.00306703,10,0.000396663,-1.56119,0.456633,0.129207,-138.585,-0.0144415,
2,0,0,1,0,14987,-0.0164945,-0.0168539,-27.1491,8,0.00290323,10,0.000457567,-1.56625,0.461738,0.127778,-135.422,-0.0168539,
2,0,0,1,0,14987,-0.0188916,-0.019278,-26.8334,8,0.00274132,10,0.000517294,-1.57132,0.48012,0.122886,-128.717,-0.019278,
2,0,0,1,0,14987,-0.0212998,-0.0216713,-26.5288,8,0.0025813,10,0.000574914,-1.57628,0.509241,0.115859,-120.057,-0.0216713,
2,0,0,1,0,14987,-0.0236969,-0.0240562,-26.2615,8,0.002423,10,0.000631751,-1.58068,0.552687,0.106751,-109.425,-0.0240562,
2,0,0,1,0,14987,-0.026094,-0.0264771,-26.0045,8,0.00226626,10,0.000688524,-1.58495,0.592327,0.0996072,-101.12,-0.02647708,
2,0,0,1,0,14987,-0.0284912,-0.0288641,-25.7446,8,0.00211105,10,0.000743092,-1.58931,0.644853,0.0914938,-92.0747,-0.0288641,
2,0,0,1,0,14987,-0.0308994,-0.0312457,-25.5471,8,0.00195717,10,0.000798238,-1.59266,0.712845,0.0827669,-82.5701,-0.0312457,
2,0,0,1,0,14987,-0.0332965,-0.0336486,-25.3639,8,0.00180445,10,0.00085346,-1.59578,0.797857,0.0739481,-73.2545,-0.03364861,
2,0,0,1,0,14987,-0.0356936,-0.0360207,-25.1962,8,0.00165281,10,0.000907585,-1.59867,0.89875,0.0656467,-64.6123,-0.0360207,
2,0,0,1,0,14987,-0.038099,-0.0384713,-25.0589,8,0.00150206,10,0.00096405,-1.60104,1.08657,0.0542995,-53.1451,-0.0384713,
2,0,0,1,0,14987,-0.0404961,-0.0408244,-24.9421,8,0.00135209,10,0.00101824,-1.60307,1.22045,0.0483427,-47.0904,-0.0408244,
2,0,0,1,0,14987,-0.0428932,-0.0432368,-24.84,8,0.00120275,10,0.001074,-1.60485,1.59253,0.0370479,-35.9394,-0.0432368,
2,0,0,1,0,14987,-0.0452903,-0.0456694,-24.7535,8,0.00105399,10,0.00113048,-1.60636,1.97723,0.0298397,-28.857,-0.0456694,
2,0,0,1,0,14987.1,-0.0476985,-0.0480723,-24.712,8,0.000905605,10,0.00118796,-1.60709,3.19411,0.0184715,-17.82,-0.0480723,
2,0,0,1,0,14987.1,-0.0500956,-0.0504518,-24.6797,8,0.000757473,10,0.00124514,-1.60766,3.65517,0.0161415,-15.5403,-0.0504518,
2,0,0,1,0,14987.1,-0.0524927,-0.0528558,-24.6282,8,0.000609559,10,0.00130174,-1.60857,7.14739,0.00825477,-7.94443,-0.0528558,
2,0,0,1,0,14987.1,-0.0548981,-0.0552618,-24.6265,8,0.000461816,10,0.00136091,-1.6086,-187.366,-0.000314891,0.302879,-0.0552618,
2,0,0,1,0,14987.1,-0.0572953,-0.0576414,-24.6475,8,0.000313995,10,0.00142071,-1.60823,-14.7909,-0.00398895,3.83546,-0.0576414,
2,0,0,1,0,14987.1,-0.0596924,-0.0600591,-24.6467,8,0.000166111,10,0.00148026,-1.60824,-5.39514,-0.0109358,10.5298,-0.0600591,
2,0,0,1,0,14987.1,-0.062095,-0.0624493,-24.6857,8,1.81408e-05,10,0.00154161,-1.60755,-3.59722,-0.0164015,15.8105,-0.0624493,
2,0,0,1,0,14987.1,-0.0644977,-0.064849,-24.7429,8,-0.00013016,10,0.00160455,-1.60655,-2.57933,-0.0228741,22.0827,-0.064849,
2,0,0,1,0,14987.1,-0.0668948,-0.0672211,-24.7912,8,-0.000278748,10,0.00166649,-1.6057,-2.51291,-0.0234788,22.7239,-0.0672211,
2,0,0,1,0,14987.1,-0.0692919,-0.0696568,-24.8457,8,-0.000427654,10,0.00173067,-1.60475,-1.97644,-0.0298516,28.9697,-0.0696568,
2,0,0,1,0,14987.1,-0.0717001,-0.0720459,-24.932,8,-0.000577003,10,0.00179625,-1.60324,-1.50559,-0.0391872,38.1469,-0.0720459,
2,0,0,1,0,14987.1,-0.0740972,-0.0744637,-25.0277,8,-0.000726882,10,0.00186365,-1.60158,-1.53512,-0.0384335,37.5463,-0.07446368,
2,0,0,1,0,14987.1,-0.0764943,-0.076875,-25.1072,8,-0.000877323,10,0.00193012,-1.6002,-1.37109,-0.0430314,42.2098,-0.076875,
2,0,0,1,0,14987.1,-0.0788997,-0.0792885,-25.2297,8,-0.00102831,10,0.00200043,-1.59809,-1.22497,-0.0481643,47.4445,-0.07928852,
2,0,0,1,0,14987.1,-0.0812968,-0.0816501,-25.3472,8,-0.00118006,10,0.0020696,-1.59607,-1.15165,-0.0512309,50.6521,-0.0816501,
2,0,0,1,0,14987.1,-0.0836939,-0.0840519,-25.4639,8,-0.00133253,10,0.00214029,-1.59408,-1.11277,-0.0530206,52.7162,-0.0840519,
2,0,0,1,0,14987.1,-0.086091,-0.0864643,-25.5897,8,-0.00148568,10,0.0022126,-1.59193,-1.00628,-0.058632,58.6192,-0.0864643,
2,0,0,1,0,14987.2,-0.0884992,-0.0888884,-25.7674,8,-0.00163977,10,0.00229042,-1.58893,-0.942267,-0.0626149,62.9033,-0.0888884,
2,0,0,1,0,14987.2,-0.0908963,-0.091252,-25.8992,8,-0.00179476,10,0.00236336,-1.58671,-0.978867,-0.0602737,60.9434,-0.091252,
2,0,0,1,0,14987.2,-0.0932934,-0.0936549,-26.051,8,-0.00195061,10,0.0024398,-1.58418,-0.860047,-0.0686009,69.8063,-0.0936549,
2,0,0,1,0,14987.2,-0.0956989,-0.096043,-26.241,8,-0.00210747,10,0.00252026,-1.58102,-0.801564,-0.0736061,75.3731,-0.096043,
2,0,0,1,0,14987.2,-0.098096,-0.0984755,-26.4107,8,-0.00226542,10,0.00260081,-1.57822,-0.934904,-0.0631081,64.8732,-0.0984755,
2,0,0,0,0,14987.2,-0.0999548,-0.100247,-26.5431,8,-0.00238989,10,0.00266087,-1.57605,0.0251468,2.34622,-2255.79,-0.100247,
2,0,0,1,1,14987.2,-0.0994555,-0.0999262,-24.9495,8,-0.00243331,10,0.00249311,-1.60294,-0.0204969,-2.87848,2494.52,-0.0999262,
2,0,0,1,1,14987.2,-0.0970583,-0.0974936,-19.7793,8,-0.0025661,10,0.00192835,-1.70379,-0.0236369,-2.4961,1944.26,-0.0974936,
2,0,0,1,1,14987.2,-0.0946501,-0.0950843,-15.8243,8,-0.00267222,10,0.00150464,-1.80068,-0.0240198,-2.4563,1523.92,-0.0950843,
2,0,0,1,1,14987.2,-0.092253,-0.0926539,-12.4967,8,-0.00275663,10,0.00115787,-1.90321,-0.0220287,-2.67832,1300.03,-0.0926539,
2,0,0,1,1,14987.2,-0.0898559,-0.0902383,-9.60948,8,-0.00282248,10,0.000867143,-2.0173,-0.0190763,-3.09285,1139.51,-0.0902383,
2,0,0,1,1,14987.2,-0.0874588,-0.0878853,-7.06953,8,-0.00287213,10,0.000621307,-2.15061,-0.015482,-3.81088,1009.69,-0.0878853,
2,0,0,1,1,14987.2,-0.0850534,-0.0854792,-4.77706,8,-0.00290727,10,0.000408339,-2.32084,-0.0110376,-5.34537,908.313,-0.0854792,
2,0,0,1,1,14987.2,-0.0826563,-0.0831346,-2.71444,8,-0.00292943,10,0.000225664,-2.56632,-0.00498774,-11.829,814.09,-0.0831346,
2,0,0,1,1,14987.2,-0.0802592,-0.0806681,-0.854894,8,-0.00293985,10,6.89627e-05,-3.06809,-0.0163609,-3.60616,740.871,-0.0806681,
2,1,0,1,1,14987.2,-0.077851,-0.0782536,0.839354,8,-0.00293967,10,-6.56824e-05,-3.07606,0.0212918,2.77103,677.945,-0.0782536,
2,1,0,1,1,14987.2,-0.0754539,-0.0758772,2.40975,8,-0.00292975,10,-0.000182845,-2.61803,0.00552657,10.6757,620.629,-0.0758772,
2,1,0,1,1,14987.3,-0.0730568,-0.0734489,3.81786,8,-0.00291087,10,-0.000280417,-2.41818,0.0136368,4.32654,571.987,-0.0734489,
2,1,0,1,1,14987.3,-0.0706597,-0.0711223,5.10532,8,-0.0028839,10,-0.000363103,-2.29198,0.0212474,2.77681,524.746,-0.0711223,
2,1,0,1,1,14987.3,-0.0682542,-0.068712,6.31891,8,-0.00284945,10,-0.000434185,-2.19936,0.0289642,2.037,486.197,-0.068712,
2,1,0,1,1,14987.3,-0.0658571,-0.0662869,7.44401,8,-0.00280801,10,-0.00049344,-2.12819,0.0373038,1.58161,448.375,-0.0662869,
2,1,0,1,1,14987.3,-0.06346,-0.0638766,8.46149,8,-0.00276014,10,-0.000540491,-2.07255,0.0463926,1.27175,413.785,-0.0638766,
2,1,0,1,1,14987.3,-0.0610518,-0.0614832,9.43773,8,-0.00270631,10,-0.000580262,-2.02513,0.0559684,1.05417,382.892,-0.0614832,
2,1,0,1,1,14987.3,-0.0586547,-0.0590867,10.3238,8,-0.00264691,10,-0.000609999,-1.98616,0.0667121,0.884397,352.411,-0.0590867,
2,1,0,1,1,14987.3,-0.0562576,-0.0566541,11.1222,8,-0.00258247,10,-0.000630118,-1.95381,0.0783491,0.75304,324.645,-0.05665414,
2,1,0,1,1,14987.3,-0.053855,-0.05423,11.8798,8,-0.00251337,10,-0.000644242,-1.92519,0.0898651,0.65654,302.447,-0.05423,
2,1,0,1,1,14987.3,-0.0514523,-0.0518304,12.578,8,-0.00243987,10,-0.000651922,-1.90039,0.103126,0.572116,279.254,-0.0518304,
2,1,0,1,1,14987.3,-0.0490552,-0.0494868,13.2235,8,-0.00236237,10,-0.000654391,-1.87865,0.118631,0.49734,255.451,-0.0494868,
2,1,0,1,1,14987.3,-0.0466581,-0.047014,13.8087,8,-0.00228119,10,-0.000649201,-1.85985,0.135023,0.436964,234.585,-0.047014,
2,1,0,1,1,14987.3,-0.0442527,-0.0446546,14.3496,8,-0.00219664,10,-0.000640775,-1.84316,0.152626,0.386567,215.806,-0.0446546,
2,1,0,1,1,14987.3,-0.0418556,-0.0422581,14.8488,8,-0.00210896,10,-0.000627482,-1.82831,0.171838,0.343346,198.245,-0.0422581,
2,1,0,1,1,14987.3,-0.0394585,-0.0398732,15.3004,8,-0.00201842,10,-0.000610074,-1.8153,0.190834,0.309169,184.31,-0.0398732,
2,1,0,1,1,14987.3,-0.0370558,-0.0374693,15.7218,8,-0.00192532,10,-0.000589084,-1.8035,0.212737,0.277337,169.878,-0.03746926,
2,1,0,1,1,14987.3,-0.0346532,-0.0349953,16.1347,8,-0.00182968,10,-0.00056464,-1.79224,0.237327,0.248603,155.922,-0.0349953,
2,1,0,1,1,14987.4,-0.0322561,-0.0326274,16.466,8,-0.00173182,10,-0.000537243,-1.78341,0.273696,0.215568,138.316,-0.0326274,
2,1,0,1,1,14987.4,-0.0298589,-0.0302224,16.7842,8,-0.00163202,10,-0.000507261,-1.7751,0.300411,0.196398,128.586,-0.0302224,
2,1,0,1,1,14987.4,-0.0274535,-0.0278079,17.1014,8,-0.00153031,10,-0.000475554,-1.76697,0.333727,0.176791,117.701,-0.02780789,
2,1,0,1,1,14987.4,-0.0250564,-0.02544,17.3598,8,-0.00142689,10,-0.000441634,-1.76045,0.381114,0.154809,104.75,-0.02544,
2,1,0,1,1,14987.4,-0.0226593,-0.0230456,17.5986,8,-0.00132199,10,-0.000405571,-1.75452,0.417172,0.141429,97.0498,-0.0230456,
2,1,0,1,1,14987.4,-0.0202511,-0.0206427,17.833,8,-0.00121569,10,-0.000368122,-1.74877,0.457082,0.12908,89.691,-0.02064272,
2,1,0,1,1,14987.4,-0.017854,-0.0182441,18.0221,8,-0.0011081,10,-0.000328796,-1.7442,0.52375,0.112649,79.1273,-0.01824408,
2,1,0,1,1,14987.4,-0.0154569,-0.015803,18.2006,8,-0.000999384,10,-0.000287624,-1.73991,0.59522,0.0991231,70.3439,-0.015803,
2,1,0,1,1,14987.4,-0.0130598,-0.0134415,18.3419,8,-0.00088971,10,-0.000246543,-1.73656,0.631278,0.0934612,66.9578,-0.0134415,
2,1,0,1,1,14987.4,-0.0106516,-0.0110174,18.5251,8,-0.000779045,10,-0.000204099,-1.73224,0.724355,0.0814518,58.775,-0.0110174,
2,1,0,1,1,14987.4,-0.00825448,-0.00863467,18.6444,8,-0.0006675,10,-0.000160988,-1.72945,0.916202,0.0643963,46.8204,-0.00863467,
2,1,0,1,1,14987.4,-0.00585738,-0.00623179,18.7494,8,-0.000555331,10,-0.000116843,-1.72701,0.928532,0.0635412,46.516,-0.00623179,
2,1,0,1,1,14987.4,-0.00345195,-0.00381724,18.8663,8,-0.0004425,10,-7.20174e-05,-1.72431,1.02903,0.0573357,42.1559,-0.00381724,
2,1,0,1,1,14987.4,-0.00105485,-0.00145466,18.9572,8,-0.000328975,10,-2.75762e-05,-1.72223, , , ,-0.00145466,
2,1,0,0,1,14987.4,-7.54729e-05,-0.000363498,18.972,8,-0.000281556,10,-6.8963e-06,-1.72189, , , ,-0.000363498,