File: Figure_codes/Fig_3-5/rawdata_trumpetplot_data/after 10th/20221101_1-115_003_TrumpetPlot_ParaChange_from10_every3_09_CV_C01_20.csv
mode,ox/red,error,control changes,counter inc.,time/s,control/V,Ewe/V,<I>/mA,cycle number,(Q-Qo)/C,I Range,P/W,log(|I|),Tafel slope mV/dec,alpha_eff,dI/d(E-IR),E-IR/V,
2,0,0,0,0,40585.1,2.44065e-05,-0.000344411,-5.33521,21,0.0000000E+000,10,1.8375e-06,-2.27285, , , ,-0.000344411,
2,0,0,1,0,40585.1,0.00179726,0.00143444,-3.19269,21,-7.25797e-05,10,-4.57974e-06,-2.49584, , , ,0.00143444,
2,0,0,1,0,40585.2,0.00379485,0.00349048,-1.6686,21,-0.000119804,10,-5.82422e-06,-2.77765,-0.00557088,-10.5908,639.76,0.00349048,
2,0,0,1,0,40585.2,0.00579244,0.00549216,-0.59673,21,-0.000141642,10,-3.27733e-06,-3.22422,-0.00467261,-12.6268,475.927,0.00549216,
2,1,0,1,0,40585.2,0.00779002,0.00748595,0.232953,21,-0.00014469,10,1.74388e-06,-3.63273,0.0230608,2.55846,374.868,0.00748595,
2,1,0,1,0,40585.2,0.00978761,0.00944652,0.885631,21,-0.000133049,10,8.36613e-06,-3.05275,0.00511611,11.5322,292.876,0.00944652,
2,1,0,1,0,40585.2,0.0117852,0.0114706,1.39997,21,-0.000109812,10,1.60586e-05,-2.85388,0.0128227,4.60123,233.252,0.01147064,
2,1,0,1,0,40585.3,0.0137828,0.0134709,1.82433,21,-7.72834e-05,10,2.45753e-05,-2.7389,0.0205918,2.86522,197.288,0.0134709,
2,1,0,1,0,40585.3,0.0157804,0.0154599,2.187,21,-3.69061e-05,10,3.38108e-05,-2.66015,0.0293442,2.01062,167.993,0.0154599,
2,1,0,1,0,40585.3,0.017778,0.0174462,2.49215,21,9.93337e-06,10,4.34786e-05,-2.60343,0.0402361,1.46634,140.526,0.0174462,
2,1,0,1,0,40585.3,0.0197755,0.019433,2.74532,21,6.24974e-05,10,5.33497e-05,-2.56141,0.0524169,1.12559,119.773,0.019433,
2,1,0,1,0,40585.3,0.0217731,0.0214794,2.97523,21,0.000119913,10,6.39062e-05,-2.52648,0.0636862,0.926418,106.817,0.0214794,
2,1,0,1,0,40585.4,0.0237707,0.0234446,3.17383,21,0.00018158,10,7.44093e-05,-2.49842,0.0757951,0.778414,96.0293,0.02344461,
2,1,0,1,0,40585.4,0.0257683,0.0254282,3.35443,21,0.000246754,10,8.52971e-05,-2.47438,0.0880359,0.670181,87.4919,0.0254282,
2,1,0,1,0,40585.4,0.0277659,0.0274294,3.52247,21,0.000315715,10,9.66191e-05,-2.45315,0.101349,0.582147,79.8067,0.0274294,
2,1,0,1,0,40585.4,0.0297635,0.0294565,3.67591,21,0.000387882,10,0.00010828,-2.43464,0.115508,0.510787,73.0845,0.0294565,
2,1,0,1,0,40585.4,0.0317611,0.0314169,3.81389,21,0.000462916,10,0.000119821,-2.41863,0.124091,0.475458,70.7795,0.0314169,
2,1,0,1,0,40585.5,0.0337587,0.0334198,3.95643,21,0.000540355,10,0.000132223,-2.4027,0.137841,0.428029,65.907,0.0334198,
2,1,0,1,0,40585.5,0.0357562,0.0354538,4.07996,21,0.000620879,10,0.00014465,-2.38934,0.15371,0.383839,61.0722,0.0354538,
2,1,0,1,0,40585.5,0.0377538,0.0374049,4.19981,21,0.000703895,10,0.000157093,-2.37677,0.159944,0.368878,60.448,0.0374049,
2,1,0,1,0,40585.5,0.0397514,0.0394269,4.32012,21,0.00078924,10,0.000170329,-2.3645,0.163543,0.360761,60.8487,0.0394269,
2,1,0,1,0,40585.5,0.041749,0.0414542,4.4462,21,0.000876598,10,0.000184314,-2.35201,0.178703,0.330157,57.1337,0.0414542,
2,1,0,1,0,40585.6,0.0437466,0.0434523,4.55011,21,0.000966741,10,0.000197713,-2.34198,0.196266,0.300612,53.4074,0.0434523,
2,1,0,1,0,40585.6,0.0457442,0.0454586,4.66007,21,0.00105901,10,0.00021184,-2.33161,0.193667,0.304647,55.3939,0.0454586,
2,1,0,1,0,40585.6,0.0477418,0.0474186,4.76981,21,0.00115349,10,0.000226178,-2.3215,0.195956,0.301088,56.057,0.0474186,
2,1,0,1,0,40585.6,0.0497484,0.0494331,4.88287,21,0.00125018,10,0.000241375,-2.31133,0.209861,0.281138,53.4987,0.0494331,
2,1,0,1,0,40585.6,0.0517369,0.0514158,4.98366,21,0.00134851,10,0.000256239,-2.30245,0.219927,0.268271,52.2119,0.0514158,
2,1,0,1,0,40585.7,0.0537345,0.053447,5.09244,21,0.00144937,10,0.000272175,-2.29307,0.227518,0.259321,51.4795,0.053447,
2,1,0,1,0,40585.7,0.0557321,0.0554453,5.1911,21,0.00155234,10,0.000287822,-2.28474,0.247549,0.238336,48.257,0.0554453,
2,1,0,1,0,40585.7,0.0577206,0.0574355,5.28491,21,0.00165672,10,0.000303542,-2.27696,0.244983,0.240833,49.7186,0.0574355,
2,1,0,1,0,40585.7,0.0597273,0.059441,5.38976,21,0.0017637,10,0.000320372,-2.26843,0.244663,0.241148,50.6819,0.059441,
2,1,0,1,0,40585.7,0.0617249,0.0614195,5.48683,21,0.00187262,10,0.000336999,-2.26068,0.273262,0.21591,46.1853,0.0614195,
2,1,0,1,0,40585.8,0.0637224,0.0634181,5.57344,21,0.00198336,10,0.000353457,-2.25388,0.27837,0.211948,46.1478,0.0634181,
2,1,0,1,0,40585.8,0.06572,0.065437,5.67223,21,0.00209594,10,0.000371173,-2.24625,0.261681,0.225465,49.9044,0.065437,
2,1,0,1,0,40585.8,0.0677176,0.0673695,5.77063,21,0.00221003,10,0.000388765,-2.23878,0.292221,0.201902,45.4019,0.0673695,
2,1,0,1,0,40585.8,0.0697152,0.0694098,5.8526,21,0.00232645,10,0.000406228,-2.23265,0.321066,0.183763,41.9913,0.0694098,
2,1,0,1,0,40585.8,0.0717128,0.0714144,5.94048,21,0.00244451,10,0.000424236,-2.22618,0.314318,0.187708,43.5071,0.0714144,
2,1,0,1,0,40585.9,0.0737104,0.0734011,6.02625,21,0.00256431,10,0.000442333,-2.21995,0.314643,0.187514,44.1081,0.0734011,
2,1,0,1,0,40585.9,0.075708,0.0753685,6.11489,21,0.00268529,10,0.00046087,-2.21361,0.348609,0.169244,40.3343,0.0753685,
2,1,0,1,0,40585.9,0.0777056,0.0774013,6.18759,21,0.00280843,10,0.000478928,-2.20848,0.373658,0.157898,38.1529,0.0774013,
2,1,0,1,0,40585.9,0.0797031,0.0793933,6.26845,21,0.00293316,10,0.000497673,-2.20284,0.366172,0.161127,39.4036,0.07939329,
2,1,0,1,0,40585.9,0.0817007,0.0814087,6.3455,21,0.00305944,10,0.000516579,-2.19753,0.385057,0.153224,37.9335,0.0814087,
2,1,0,1,0,40586,0.0836983,0.0833688,6.41925,21,0.00318657,10,0.000535166,-2.19252,0.416389,0.141694,35.4754,0.0833688,
2,1,0,1,0,40586,0.0856959,0.0853531,6.48543,21,0.00331575,10,0.000553551,-2.18806,0.442694,0.133275,33.7408,0.0853531,
2,1,0,1,0,40586,0.0876935,0.0873979,6.5552,21,0.00344633,10,0.000572911,-2.18341,0.44391,0.13291,33.9926,0.0873979,
2,1,0,1,0,40586,0.0896911,0.0893643,6.62178,21,0.00357819,10,0.000591751,-2.17903,0.435975,0.135329,34.9813,0.08936432,
2,1,0,1,0,40586,0.0916887,0.0913112,6.69209,21,0.00371076,10,0.000611063,-2.17444,0.432221,0.136504,35.6567,0.0913112,
2,1,0,1,0,40586.1,0.0936862,0.0933826,6.76506,21,0.0038455,10,0.000631739,-2.16973,0.481484,0.122538,32.3184,0.09338256,
2,1,0,1,0,40586.1,0.0956838,0.095401,6.82427,21,0.00398153,10,0.000651042,-2.16594,0.45541,0.129554,34.5512,0.095401,
2,1,0,1,0,40586.1,0.0976814,0.0973636,6.90261,21,0.00411896,10,0.000672063,-2.16099,0.38787,0.152113,40.9973,0.0973636,
2,1,0,1,0,40586.1,0.099679,0.099403,6.98834,21,0.00425722,10,0.000694662,-2.15563,0.390101,0.151243,41.2263,0.099403,
2,1,0,1,0,40586.1,0.101677,0.101352,7.06705,21,0.00439793,10,0.000716263,-2.15076,0.377031,0.156486,43.2062,0.1013524,
2,1,0,1,0,40586.2,0.103674,0.103417,7.16177,21,0.00454031,10,0.00074065,-2.14498,0.336256,0.175461,49.0572,0.103417,
2,1,0,1,0,40586.2,0.105672,0.105324,7.26188,21,0.00468467,10,0.000764849,-2.13895,0.30055,0.196307,55.695,0.105324,
2,1,0,1,0,40586.2,0.107667,0.107313,7.37874,21,0.00483044,10,0.000791834,-2.13202,0.291538,0.202375,58.2766,0.107313,
2,1,0,1,0,40586.2,0.109667,0.109351,7.49656,21,0.00497928,10,0.000819755,-2.12514,0.278883,0.211558,61.945,0.109351,
2,1,0,1,0,40586.2,0.111665,0.111335,7.62787,21,0.00513064,10,0.000849246,-2.1176,0.267577,0.220497,65.6266,0.111335,
2,1,0,1,0,40586.3,0.113662,0.113327,7.75748,21,0.00528461,10,0.000879129,-2.11028,0.274103,0.215248,65.1655,0.113327,
2,1,0,1,0,40586.3,0.11566,0.115332,7.88837,21,0.00544117,10,0.000909782,-2.10301,0.259585,0.227286,70.0376,0.1153321,
2,1,0,1,0,40586.3,0.117657,0.117299,8.03569,21,0.00559982,10,0.000942579,-2.09498,0.264254,0.22327,69.9515,0.117299,
2,1,0,1,0,40586.3,0.119655,0.119346,8.16912,21,0.00576201,10,0.000974947,-2.08782,0.283289,0.208268,66.4105,0.119346,
2,1,0,1,0,40586.3,0.121652,0.121382,8.30688,21,0.00592694,10,0.00100831,-2.08056,0.278732,0.211673,68.6053,0.121382,
2,1,0,1,0,40586.4,0.12365,0.123323,8.442,21,0.00609463,10,0.00104109,-2.07355,0.280881,0.210053,69.222,0.123323,
2,1,0,1,0,40586.4,0.125648,0.125368,8.58274,21,0.0062643,10,0.001076,-2.06637,0.305078,0.193393,64.6838,0.1253677,
2,1,0,1,0,40586.4,0.127645,0.127307,8.69968,21,0.00643724,10,0.00110753,-2.0605,0.345272,0.17088,58,0.1273068,
2,1,0,1,0,40586.4,0.129643,0.129327,8.81241,21,0.00661248,10,0.00113969,-2.05491,0.38173,0.15456,53.1256,0.129327,
2,1,0,1,0,40586.4,0.13164,0.131376,8.91585,21,0.00678993,10,0.00117133,-2.04984,0.409941,0.143923,50.058,0.131376,
2,1,0,1,0,40586.5,0.133638,0.133325,9.01252,21,0.00696861,10,0.00120159,-2.04515,0.435177,0.135577,47.6713,0.133325,
2,1,0,1,0,40586.5,0.135636,0.135324,9.10405,21,0.00714991,10,0.00123199,-2.04077,0.480498,0.122789,43.5997,0.135324,
2,1,0,1,0,40586.5,0.137633,0.137272,9.18462,21,0.00733291,10,0.00126079,-2.03694,0.556941,0.105936,37.9497,0.137272,
2,1,0,1,0,40586.5,0.139631,0.139292,9.25464,21,0.00751746,10,0.00128909,-2.03364,0.606716,0.0972448,35.1237,0.139292,
2,1,0,1,0,40586.5,0.141628,0.141283,9.32549,21,0.00770241,10,0.00131753,-2.03033,0.722354,0.0816774,29.6897,0.141283,
2,1,0,1,0,40586.6,0.143626,0.143305,9.3738,21,0.0078895,10,0.00134332,-2.02808,1.04668,0.0563688,20.6064,0.143305,
2,1,0,1,0,40586.6,0.145624,0.145315,9.40858,21,0.00807747,10,0.00136721,-2.02648,1.83743,0.0321101,11.7765,0.145315,
2,1,0,1,0,40586.6,0.147621,0.147332,9.42122,21,0.00826587,10,0.00138804,-2.02589,38.4981,0.00153254,0.562797,0.147332,
2,1,0,1,0,40586.6,0.149619,0.149299,9.41082,21,0.00845338,10,0.00140503,-2.02637,-1.70046,-0.0346964,-12.723,0.149299,
2,1,0,1,0,40586.6,0.151616,0.151301,9.37071,21,0.00864135,10,0.0014178,-2.02823,-0.656552,-0.0898633,-32.7731,0.151301,
2,1,0,1,0,40586.7,0.153614,0.153317,9.27916,21,0.00882795,10,0.00142265,-2.03249,-0.389787,-0.151365,-54.7069,0.1533168,
2,1,0,1,0,40586.7,0.155611,0.1553,9.15195,21,0.00901243,10,0.0014213,-2.03849,-0.286985,-0.205585,-73.2806,0.1553,
2,1,0,1,0,40586.7,0.157609,0.157273,8.98921,21,0.00919307,10,0.00141376,-2.04628,-0.211793,-0.278574,-97.3795,0.157273,
2,1,0,1,0,40586.7,0.159607,0.159275,8.76489,21,0.00937078,10,0.00139602,-2.05725,-0.167156,-0.352964,-120.456,0.159275,
2,1,0,1,0,40586.7,0.161604,0.1613,8.50419,21,0.00954364,10,0.00137173,-2.07037,-0.141772,-0.416162,-137.836,0.1613,
2,1,0,1,0,40586.8,0.163602,0.163269,8.21437,21,0.00971099,10,0.00134115,-2.08543,-0.12414,-0.475269,-152.081,0.163269,
2,1,0,1,0,40586.8,0.165606,0.165262,7.90159,21,0.00987225,10,0.00130584,-2.10229,-0.114801,-0.513933,-158.327,0.165262,
2,1,0,1,0,40586.8,0.167597,0.167265,7.58169,21,0.0100264,10,0.00126815,-2.12023,-0.109827,-0.537207,-158.877,0.167265,
2,1,0,1,0,40586.8,0.169595,0.169279,7.26341,21,0.0101749,10,0.00122954,-2.13886,-0.105384,-0.559856,-158.595,0.169279,
2,1,0,1,0,40586.8,0.171592,0.171281,6.94473,21,0.010317,10,0.0011895,-2.15834,-0.10484,-0.562762,-152.763,0.171281,
2,1,0,1,0,40586.9,0.173581,0.173252,6.65649,21,0.0104524,10,0.00115325,-2.17675,-0.109289,-0.539853,-140.363,0.173252,
2,1,0,1,0,40586.9,0.175587,0.175252,6.38734,21,0.0105829,10,0.00111939,-2.19468,-0.114992,-0.513078,-128.051,0.175252,
2,1,0,1,0,40586.9,0.177585,0.177283,6.14027,21,0.0107082,10,0.00108857,-2.21181,-0.120691,-0.488853,-117.261,0.177283,
2,1,0,1,0,40586.9,0.179582,0.179311,5.91136,21,0.0108287,10,0.00105997,-2.22831,-0.128228,-0.460117,-106.391,0.179311,
2,1,0,1,0,40586.9,0.18158,0.181286,5.71442,21,0.010945,10,0.00103595,-2.24303,-0.137784,-0.428205,-95.5909,0.181286,
2,1,0,1,0,40587,0.183578,0.18327,5.53294,21,0.0110569,10,0.00101402,-2.25704,-0.145865,-0.404483,-87.437,0.18327,
2,1,0,1,0,40587,0.185575,0.185257,5.3672,21,0.011166,10,0.000994312,-2.27025,-0.158466,-0.372319,-78.1083,0.185257,
2,1,0,1,0,40587,0.187573,0.187263,5.22106,21,0.0112719,10,0.00097771,-2.28224,-0.177685,-0.332049,-67.7645,0.187263,
2,1,0,1,0,40587,0.18957,0.189294,5.09363,21,0.0113751,10,0.000964196,-2.29297,-0.19064,-0.309484,-61.5495,0.189294,
2,1,0,1,0,40587,0.191568,0.191297,4.97278,21,0.0114754,10,0.000951276,-2.3034,-0.201076,-0.293421,-57.0284,0.191297,
2,1,0,1,0,40587.1,0.193566,0.193247,4.86822,21,0.0115739,10,0.000940768,-2.31263,-0.229278,-0.257329,-48.9564,0.193247,
2,1,0,1,0,40587.1,0.195563,0.195273,4.77812,21,0.0116704,10,0.000933036,-2.32074,-0.239907,-0.245928,-45.8364,0.195273,
2,1,0,1,0,40587.1,0.197561,0.197257,4.68439,21,0.0117652,10,0.000924031,-2.32935,-0.257212,-0.229382,-42.0275,0.197257,
2,1,0,1,0,40587.1,0.199558,0.199218,4.61231,21,0.0118578,10,0.000918855,-2.33608,-0.293275,-0.201177,-36.2111,0.199218,
2,1,0,1,0,40587.1,0.201556,0.201229,4.54058,21,0.0119494,10,0.000913696,-2.34289,-0.307383,-0.191943,-34.0384,0.201229,
2,1,0,1,0,40587.2,0.203553,0.203214,4.47628,21,0.0120397,10,0.000909645,-2.34908,-0.337471,-0.17483,-30.5592,0.203214,
2,1,0,1,0,40587.2,0.205551,0.205253,4.41762,21,0.0121287,10,0.000906728,-2.35481,-0.420154,-0.140425,-24.2632,0.205253,
2,1,0,1,0,40587.2,0.207549,0.207235,4.37872,21,0.0122163,10,0.000907425,-2.35865,-0.434106,-0.135911,-23.1873,0.207235,
2,1,0,1,0,40587.2,0.209546,0.209217,4.3257,21,0.0123033,10,0.000905009,-2.36394,-0.386465,-0.152666,-25.7768,0.209217,
2,1,0,1,0,40587.2,0.211544,0.211281,4.27445,21,0.0123894,10,0.000903107,-2.36912,-0.420861,-0.140189,-23.4095,0.211281,
2,1,0,1,0,40587.3,0.213541,0.213214,4.23213,21,0.0124745,10,0.000902349,-2.37344,-0.550695,-0.107137,-17.7256,0.213214,
2,1,0,1,0,40587.3,0.215539,0.215233,4.20438,21,0.0125585,10,0.000904923,-2.3763,-0.543871,-0.108482,-17.7664,0.215233,
2,1,0,1,0,40587.3,0.217537,0.217223,4.1609,21,0.0126422,10,0.000903844,-2.38081,-0.525738,-0.112223,-18.2539,0.217223,
2,1,0,1,0,40587.3,0.219534,0.219227,4.13149,21,0.0127252,10,0.000905732,-2.38389,-0.639787,-0.0922181,-14.8678,0.219227,
2,1,0,1,0,40587.3,0.221532,0.221221,4.10146,21,0.0128076,10,0.000907329,-2.38706,-0.670344,-0.0880145,-14.0948,0.221221,
2,1,0,1,0,40587.4,0.223525,0.223207,4.07539,21,0.012889,10,0.000909654,-2.38983,-0.717169,-0.0822679,-13.0837,0.2232067,
2,1,0,1,0,40587.4,0.225527,0.225246,4.04881,21,0.0129704,10,0.000911975,-2.39267,-0.693969,-0.0850182,-13.4327,0.225246,
2,1,0,1,0,40587.4,0.227525,0.227209,4.02162,21,0.0130512,10,0.00091375,-2.3956,-0.733776,-0.0804061,-12.6256,0.227209,
2,1,0,1,0,40587.4,0.229522,0.22925,3.99824,21,0.0131315,10,0.000916599,-2.39813,-0.875949,-0.0673555,-10.5163,0.22925,
2,1,0,1,0,40587.4,0.23152,0.2312,3.97965,21,0.0132114,10,0.000920097,-2.40015,-1.015,-0.0581281,-9.02938,0.2312,
2,1,0,1,0,40587.5,0.233517,0.233234,3.96227,21,0.0132906,10,0.000924137,-2.40206,-0.951397,-0.0620141,-9.58477,0.233234,
2,1,0,1,0,40587.5,0.235515,0.235233,3.94101,21,0.0133697,10,0.000927052,-2.40439,-0.907999,-0.0649781,-9.99738,0.2352325,
2,1,0,1,0,40587.5,0.237512,0.237212,3.92251,21,0.0134484,10,0.000930464,-2.40644,-0.987891,-0.0597232,-9.1432,0.237212,
2,1,0,1,0,40587.5,0.23951,0.239218,3.90456,21,0.0135268,10,0.000934042,-2.40843,-1.31376,-0.0449094,-6.8509,0.239218,
2,1,0,1,0,40587.5,0.241508,0.2412,3.89518,21,0.0136046,10,0.000939518,-2.40947,-1.37751,-0.042831,-6.50512,0.2412,
2,1,0,1,0,40587.6,0.243505,0.243185,3.87876,21,0.0136824,10,0.000943255,-2.41131,-1.24475,-0.0473992,-7.17889,0.243185,
2,1,0,1,0,40587.6,0.245503,0.245198,3.86648,21,0.0137599,10,0.000948053,-2.41268,-1.47559,-0.0399841,-6.03358,0.245198,
2,1,0,1,0,40587.6,0.2475,0.247226,3.85438,21,0.0138371,10,0.000952903,-2.41405,-1.50477,-0.0392086,-5.89846,0.247226,
2,1,0,1,0,40587.6,0.249498,0.24918,3.84299,21,0.0139138,10,0.000957597,-2.41533,-1.48617,-0.0396992,-5.95348,0.24918,
2,1,0,1,0,40587.6,0.251496,0.25118,3.83084,21,0.0139906,10,0.000962229,-2.41671,-1.30722,-0.045134,-6.74533,0.25118,
2,1,0,1,0,40587.7,0.253493,0.253192,3.81593,21,0.014067,10,0.000966164,-2.4184,-1.00917,-0.0584638,-8.70066,0.253192,
2,1,0,1,0,40587.7,0.255491,0.255205,3.79582,21,0.0141433,10,0.000968711,-2.42069,-1.89127,-0.0311959,-4.63441,0.255205,
2,1,0,1,0,40587.7,0.257488,0.257229,3.79722,21,0.0142189,10,0.000976756,-2.42053,-3.14922,-0.0187348,-2.77134,0.257229,
2,1,0,1,0,40587.7,0.259486,0.259156,3.78487,21,0.0142948,10,0.000980871,-2.42195,-1.1881,-0.0496593,-7.33105,0.2591559,
2,1,0,1,0,40587.7,0.261484,0.261185,3.76822,21,0.0143704,10,0.000984202,-2.42386,-1.35683,-0.0434837,-6.40133,0.261185,
2,1,0,1,0,40587.8,0.263481,0.263149,3.7593,21,0.0144458,10,0.000989259,-2.42489,-3.36346,-0.0175414,-2.57615,0.2631495,
2,1,0,1,0,40587.8,0.265479,0.265179,3.75793,21,0.0145206,10,0.000996526,-2.42505,-2.01594,-0.0292667,-4.28397,0.265179,
2,1,0,1,0,40587.8,0.267476,0.267176,3.74205,21,0.0145957,10,0.000999788,-2.42689,-1.26237,-0.0467375,-6.8297,0.267176,
2,1,0,1,0,40587.8,0.269474,0.269161,3.73073,21,0.0146705,10,0.00100417,-2.42821,-2.24564,-0.0262732,-3.82916,0.269161,
2,1,0,1,0,40587.8,0.271471,0.271139,3.72688,21,0.0147451,10,0.0010105,-2.42865,-4.80629,-0.0122756,-1.78562,0.271139,
2,1,0,1,0,40587.9,0.273469,0.273121,3.72366,21,0.0148193,10,0.00101701,-2.42903,-1.38982,-0.0424516,-6.15404,0.273121,
2,1,0,1,0,40587.9,0.275467,0.275153,3.70218,21,0.0148936,10,0.00101867,-2.43154,-1.23649,-0.0477156,-6.90811,0.275153,
2,1,0,1,0,40587.9,0.277464,0.277168,3.69571,21,0.0149677,10,0.00102433,-2.4323,-1.93043,-0.0305632,-4.40539,0.277168,
2,1,0,1,0,40587.9,0.279462,0.279148,3.68458,21,0.0150415,10,0.00102854,-2.43361,-2.08173,-0.0283418,-4.07883,0.279148,
2,1,0,1,0,40587.9,0.281464,0.281139,3.67951,21,0.0151152,10,0.00103445,-2.43421,-1.81836,-0.0324468,-4.65397,0.281139,
2,1,0,1,0,40588,0.283457,0.283146,3.66597,21,0.0151884,10,0.00103801,-2.43581,-1.74263,-0.0338569,-4.84906,0.2831462,
2,1,0,1,0,40588,0.285455,0.285126,3.66018,21,0.0152619,10,0.00104361,-2.4365,-1.86813,-0.0315824,-4.5075,0.285126,
2,1,0,1,0,40588,0.287452,0.287116,3.64808,21,0.015335,10,0.00104742,-2.43794,-1.69131,-0.0348842,-4.96943,0.287116,
2,1,0,1,0,40588,0.28945,0.289145,3.6402,21,0.0154079,10,0.00105255,-2.43887,-2.59119,-0.0227695,-3.23599,0.289145,
2,1,0,1,0,40588,0.291447,0.291123,3.63511,21,0.0154805,10,0.00105826,-2.43948,-1.82316,-0.0323615,-4.58585,0.291123,
2,1,0,1,0,40588.1,0.293445,0.293151,3.62183,21,0.0155531,10,0.00106175,-2.44107,-1.42997,-0.0412595,-5.83444,0.293151,
2,1,0,1,0,40588.1,0.295443,0.295146,3.61164,21,0.0156255,10,0.00106596,-2.4423,-2.54335,-0.0231977,-3.27304,0.295146,
2,1,0,1,0,40588.1,0.29744,0.297155,3.60873,21,0.0156978,10,0.00107235,-2.44265,-2.71461,-0.0217343,-3.05832,0.297155,
2,1,0,1,0,40588.1,0.299438,0.299106,3.59953,21,0.0157696,10,0.00107664,-2.44375,-0.0362039,-1.62966,-214.115,0.299106,
2,1,0,1,0,40588.1,0.299737,0.299365,3.13549,21,0.0157991,10,0.000938655,-2.5037,0.00416987,14.1491,1291.21,0.299365,
2,1,0,1,0,40588.1,0.29774,0.297413,1.41302,21,0.015842,10,0.00042025,-2.84985,0.00484432,12.1792,671.777,0.297413,
2,1,0,1,0,40588.2,0.295742,0.29541,0.478448,21,0.0158601,10,0.000141338,-3.32017,0.00372952,15.8197,384.137,0.29541,
2,0,0,1,0,40588.2,0.293745,0.293421,-0.12021,21,0.0158633,10,-3.52723e-05,-3.92006,-0.102256,-0.576985,249.827,0.293421,
2,0,0,1,0,40588.2,0.291747,0.291399,-0.523676,21,0.0158566,10,-0.000152598,-3.28094,-0.00470185,-12.5483,180.06,0.291399,
2,0,0,1,0,40588.2,0.289754,0.289473,-0.831142,21,0.015843,10,-0.000240593,-3.08033,-0.0130832,-4.50959,133.083,0.289473,
2,0,0,1,0,40588.2,0.287752,0.287451,-1.04901,21,0.0158242,10,-0.000301539,-2.97922,-0.023986,-2.45977,97.4194,0.287451,
2,0,0,1,0,40588.3,0.285754,0.285443,-1.22375,21,0.0158014,10,-0.00034931,-2.91231,-0.035095,-1.68115,78.7217,0.285443,
2,0,0,1,0,40588.3,0.283757,0.283444,-1.36448,21,0.0157755,10,-0.000386754,-2.86503,-0.0471131,-1.25231,66.0656,0.283444,
2,0,0,1,0,40588.3,0.281759,0.281437,-1.48842,21,0.0157469,10,-0.000418895,-2.82728,-0.060627,-0.973164,55.9845,0.281437,
2,0,0,1,0,40588.3,0.279761,0.279427,-1.58937,21,0.0157163,10,-0.000444114,-2.79877,-0.0762116,-0.77416,47.785,0.279427,
2,0,0,1,0,40588.3,0.277764,0.277457,-1.6786,21,0.0156836,10,-0.000465739,-2.77505,-0.0910878,-0.647726,42.2674,0.277457,
2,0,0,1,0,40588.4,0.275766,0.275448,-1.75755,21,0.0156492,10,-0.000484113,-2.75509,-0.110842,-0.532291,36.3577,0.275448,
2,0,0,1,0,40588.4,0.273769,0.273464,-1.82377,21,0.0156134,10,-0.000498736,-2.73903,-0.125522,-0.470039,33.4557,0.273464,
2,0,0,1,0,40588.4,0.271771,0.271439,-1.89165,21,0.0155764,10,-0.000513469,-2.72316,-0.130767,-0.451185,33.2677,0.271439,
2,0,0,1,0,40588.4,0.269774,0.269477,-1.95641,21,0.015538,10,-0.000527208,-2.70854,-0.159651,-0.369556,28.0867,0.269477,
2,0,0,1,0,40588.4,0.267776,0.267431,-2.00424,21,0.0154984,10,-0.000535997,-2.69805,-0.189178,-0.311875,24.4066,0.267431,
2,0,0,1,0,40588.5,0.265778,0.265444,-2.05485,21,0.0154579,10,-0.000545446,-2.68722,-0.182859,-0.322653,25.8863,0.265444,
2,0,0,1,0,40588.5,0.263781,0.263417,-2.10813,21,0.0154165,10,-0.000555319,-2.6761,-0.202246,-0.291723,23.9325,0.263417,
2,0,0,1,0,40588.5,0.261783,0.261465,-2.15008,21,0.0153739,10,-0.00056217,-2.66755,-0.239539,-0.246307,20.6523,0.261465,
2,0,0,1,0,40588.5,0.259786,0.259487,-2.18931,21,0.0153306,10,-0.000568096,-2.65969,-0.230336,-0.256148,21.9263,0.259487,
2,0,0,1,0,40588.5,0.257788,0.25749,-2.23723,21,0.0152864,10,-0.000576064,-2.65029,-0.233519,-0.252656,22.0257,0.25749,
2,0,0,1,0,40588.6,0.25579,0.255423,-2.27881,21,0.0152415,10,-0.000582061,-2.64229,-0.300696,-0.196211,17.4015,0.255423,
2,0,0,1,0,40588.6,0.253793,0.253418,-2.30809,21,0.0151957,10,-0.000584912,-2.63675,-0.311821,-0.189211,17.0743,0.253418,
2,0,0,1,0,40588.6,0.251795,0.251488,-2.346,21,0.0151491,10,-0.000589991,-2.62967,-0.2909,-0.202819,18.5557,0.251488,
2,0,0,1,0,40588.6,0.249798,0.2495,-2.38079,21,0.0151019,10,-0.000594007,-2.62328,-0.33102,-0.178237,16.5482,0.2495,
2,0,0,1,0,40588.6,0.2478,0.247484,-2.41226,21,0.0150543,10,-0.000596996,-2.61758,-0.340277,-0.173388,16.3316,0.247484,
2,0,0,1,0,40588.7,0.245802,0.245477,-2.44649,21,0.0150058,10,-0.000600557,-2.61146,-0.329876,-0.178855,17.0761,0.245477,
2,0,0,1,0,40588.7,0.243805,0.243469,-2.48082,21,0.0149565,10,-0.000604003,-2.6054,-0.396842,-0.148674,14.3617,0.243469,
2,0,0,1,0,40588.7,0.241807,0.241466,-2.50409,21,0.0149067,10,-0.000604654,-2.60135,-0.394275,-0.149642,14.6579,0.241466,
2,0,0,1,0,40588.7,0.23981,0.239486,-2.53921,21,0.0148566,10,-0.000608104,-2.5953,-0.36321,-0.16244,16.0755,0.239486,
2,0,0,1,0,40588.7,0.237812,0.23751,-2.56768,21,0.0148056,10,-0.000609851,-2.59046,-0.427155,-0.138123,13.8368,0.23751,
2,0,0,1,0,40588.8,0.235815,0.235471,-2.59476,21,0.014754,10,-0.000610991,-2.5859,-0.463475,-0.127299,12.884,0.235471,
2,0,0,1,0,40588.8,0.233817,0.233511,-2.61921,21,0.014702,10,-0.000611615,-2.58183,-0.422543,-0.139631,14.2946,0.233511,
2,0,0,1,0,40588.8,0.231815,0.231482,-2.65178,21,0.0146494,10,-0.00061384,-2.57646,-0.399939,-0.147523,15.2555,0.231482,
2,0,0,1,0,40588.8,0.229822,0.229493,-2.68051,21,0.0145963,10,-0.000615158,-2.57178,-0.513763,-0.114839,11.9907,0.229493,
2,0,0,1,0,40588.8,0.227824,0.22753,-2.69917,21,0.0145426,10,-0.000614142,-2.56877,-0.516253,-0.114285,12.0631,0.22753,
2,0,0,1,0,40588.9,0.225827,0.225483,-2.72888,21,0.0144884,10,-0.000615316,-2.56402,-0.490926,-0.120181,12.7799,0.225483,
2,0,0,1,0,40588.9,0.223829,0.223515,-2.75049,21,0.0144337,10,-0.000614774,-2.56059,-0.502215,-0.11748,12.6268,0.223515,
2,0,0,1,0,40588.9,0.221831,0.221491,-2.77929,21,0.0143787,10,-0.000615587,-2.55607,-0.458759,-0.128608,13.9454,0.221491,
2,0,0,1,0,40588.9,0.219834,0.219493,-2.80656,21,0.0143229,10,-0.000616022,-2.55183,-0.458911,-0.128565,14.084,0.219493,
2,0,0,1,0,40588.9,0.217836,0.217547,-2.83483,21,0.0142666,10,-0.00061671,-2.54747,-0.61394,-0.0961005,10.6045,0.217547,
2,0,0,1,0,40589,0.215839,0.215536,-2.84853,21,0.0142098,10,-0.000613961,-2.54538,-0.545765,-0.108105,12.0626,0.215536,
2,0,0,1,0,40589,0.213841,0.21351,-2.88353,21,0.0141528,10,-0.000615663,-2.54008,-0.474607,-0.124313,13.9541,0.21351,
2,0,0,1,0,40589,0.211843,0.211556,-2.90407,21,0.0140949,10,-0.000614373,-2.53699,-0.634794,-0.0929435,10.536,0.211556,
2,0,0,1,0,40589,0.209846,0.20949,-2.92589,21,0.0140366,10,-0.000612944,-2.53374,-0.578961,-0.101907,11.6435,0.20949,
2,0,0,1,0,40589,0.207848,0.207498,-2.95132,21,0.0139779,10,-0.000612392,-2.52998,-0.41662,-0.141616,16.3478,0.207498,
2,0,0,1,0,40589.1,0.205851,0.205559,-2.99015,21,0.0139188,10,-0.000614652,-2.52431,-0.478862,-0.123209,14.3283,0.205559,
2,0,0,1,0,40589.1,0.203853,0.203507,-3.0085,21,0.0138589,10,-0.000612251,-2.52165,-0.682933,-0.086392,10.1504,0.203507,
2,0,0,1,0,40589.1,0.201856,0.201533,-3.03101,21,0.0137986,10,-0.00061085,-2.51841,-0.616067,-0.0957687,11.328,0.201533,
2,0,0,1,0,40589.1,0.199858,0.199551,-3.05331,21,0.0137379,10,-0.000609292,-2.51523,-0.534907,-0.1103,13.1595,0.199551,
2,0,0,1,0,40589.1,0.19786,0.197565,-3.08323,21,0.0136768,10,-0.000609139,-2.51099,-0.546318,-0.107996,12.9783,0.197565,
2,0,0,1,0,40589.2,0.195863,0.19554,-3.10537,21,0.013615,10,-0.000607224,-2.50789,-0.51978,-0.11351,13.7805,0.19554,
2,0,0,1,0,40589.2,0.193865,0.193555,-3.1385,21,0.0135526,10,-0.000607471,-2.50328,-0.48837,-0.12081,14.7801,0.193555,
2,0,0,1,0,40589.2,0.191868,0.191545,-3.16442,21,0.0134897,10,-0.000606128,-2.49971,-0.506146,-0.116567,14.408,0.191545,
2,0,0,1,0,40589.2,0.18987,0.189571,-3.1959,21,0.0134265,10,-0.000605849,-2.49541,-0.533526,-0.110585,13.7759,0.189571,
2,0,0,1,0,40589.2,0.187872,0.187533,-3.21969,21,0.0133624,10,-0.000603797,-2.49219,-0.572733,-0.103015,12.9524,0.187533,
2,0,0,1,0,40589.3,0.185875,0.185573,-3.24767,21,0.0132978,10,-0.000602682,-2.48843,-0.559888,-0.105378,13.3507,0.185573,
2,0,0,1,0,40589.3,0.183877,0.183535,-3.27306,21,0.0132327,10,-0.000600722,-2.48505,-0.451259,-0.130745,16.7417,0.183535,
2,0,0,1,0,40589.3,0.18188,0.181576,-3.3146,21,0.0131672,10,-0.000601851,-2.47957,-0.429287,-0.137437,17.7448,0.181576,
2,0,0,1,0,40589.3,0.179882,0.179551,-3.34376,21,0.0131007,10,-0.000600375,-2.47577,-0.579256,-0.101855,13.2819,0.179551,
2,0,0,1,0,40589.3,0.177885,0.177545,-3.36813,21,0.0130335,10,-0.000597996,-2.47261,-0.473219,-0.124678,16.429,0.177545,
2,0,0,1,0,40589.4,0.175887,0.17556,-3.40932,21,0.0129658,10,-0.000598542,-2.46733,-0.389227,-0.151582,20.1637,0.17556,
2,0,0,1,0,40589.4,0.173896,0.17353,-3.44909,21,0.0128976,10,-0.000598522,-2.4623,-0.393137,-0.150075,20.2042,0.17353,
2,0,0,1,0,40589.4,0.171892,0.171556,-3.49022,21,0.0128283,10,-0.000598769,-2.45715,-0.399549,-0.147666,20.106,0.1715564,
2,0,0,1,0,40589.4,0.169894,0.169563,-3.52886,21,0.0127582,10,-0.000598364,-2.45237,-0.3755,-0.157124,21.6657,0.169563,
2,0,0,1,0,40589.4,0.167897,0.167573,-3.57652,21,0.0126872,10,-0.000599328,-2.44654,-0.366683,-0.160902,22.4453,0.167573,
2,0,0,1,0,40589.5,0.165899,0.165489,-3.62029,21,0.0126153,10,-0.00059912,-2.44126,-0.346302,-0.170371,24.1049,0.165489,
2,0,0,1,0,40589.5,0.163901,0.163507,-3.67454,21,0.0125427,10,-0.000600812,-2.4348,-0.293482,-0.201034,28.8442,0.163507,
2,0,0,1,0,40589.5,0.161904,0.161578,-3.73311,21,0.0124687,10,-0.000603188,-2.42793,-0.294332,-0.200454,29.1976,0.161578,
2,0,0,1,0,40589.5,0.159906,0.159534,-3.79054,21,0.0123936,10,-0.000604719,-2.4213,-0.290727,-0.20294,30.0403,0.159534,
2,0,0,1,0,40589.5,0.157909,0.157575,-3.85335,21,0.0123172,10,-0.000607193,-2.41416,-0.247139,-0.238732,35.9786,0.157575,
2,0,0,1,0,40589.6,0.155911,0.155558,-3.93359,21,0.0122398,10,-0.0006119,-2.40521,-0.221795,-0.266011,40.8443,0.155558,
2,0,0,1,0,40589.6,0.153913,0.153584,-4.01638,21,0.0121603,10,-0.000616851,-2.39617,-0.225691,-0.261419,40.9592,0.153584,
2,0,0,1,0,40589.6,0.151916,0.151572,-4.09686,21,0.0120792,10,-0.000620968,-2.38755,-0.200355,-0.294477,47.2254,0.151572,
2,0,0,1,0,40589.6,0.149918,0.149622,-4.2035,21,0.0119963,10,-0.000628934,-2.37639,-0.172605,-0.341821,56.1256,0.149622,
2,0,0,1,0,40589.6,0.147921,0.147603,-4.3196,21,0.0119115,10,-0.000637586,-2.36456,-0.168892,-0.349336,58.9303,0.147603,
2,0,0,1,0,40589.7,0.145923,0.145546,-4.44366,21,0.0118239,10,-0.000646758,-2.35226,-0.149749,-0.393992,68.5042,0.145546,
2,0,0,1,0,40589.7,0.143926,0.143603,-4.59359,21,0.0117335,10,-0.000659655,-2.33785,-0.129933,-0.454082,81.5412,0.1436034,
2,0,0,1,0,40589.7,0.141928,0.141635,-4.76259,21,0.01164,10,-0.000674549,-2.32216,-0.125245,-0.471077,87.6305,0.141635,
2,0,0,1,0,40589.7,0.13993,0.139608,-4.9437,21,0.0115435,10,-0.00069018,-2.30595,-0.119433,-0.494,95.4587,0.139608,
2,0,0,1,0,40589.7,0.137933,0.137628,-5.14506,21,0.0114428,10,-0.000708106,-2.28861,-0.111435,-0.529458,106.467,0.137628,
2,0,0,1,0,40589.8,0.135935,0.135631,-5.36713,21,0.0113378,10,-0.000727949,-2.27026,-0.108872,-0.541919,113.543,0.135631,
2,0,0,1,0,40589.8,0.133938,0.133635,-5.5985,21,0.0112282,10,-0.000748154,-2.25193,-0.106061,-0.556286,121.734,0.133635,
2,0,0,1,0,40589.8,0.13194,0.131628,-5.8544,21,0.0111143,10,-0.000770605,-2.23252,-0.105234,-0.560657,128.015,0.1316282,
2,0,0,1,0,40589.8,0.129942,0.129638,-6.11018,21,0.0109947,10,-0.00079211,-2.21395,-0.109151,-0.540536,128.875,0.129638,
2,0,0,1,0,40589.8,0.127945,0.127619,-6.37114,21,0.0108699,10,-0.000813076,-2.19578,-0.113006,-0.522094,129.722,0.127619,
2,0,0,1,0,40589.9,0.125947,0.125631,-6.62988,21,0.01074,10,-0.000832921,-2.17849,-0.116634,-0.505856,130.857,0.125631,
2,0,0,1,0,40589.9,0.12395,0.123635,-6.89241,21,0.0106055,10,-0.000852144,-2.16163,-0.122157,-0.482985,129.793,0.123635,
2,0,0,1,0,40589.9,0.121952,0.121638,-7.14816,21,0.010465,10,-0.00086949,-2.14581,-0.133443,-0.442135,123.144,0.1216383,
2,0,0,1,0,40589.9,0.119955,0.119622,-7.3866,21,0.0103196,10,-0.0008836,-2.13156,-0.14075,-0.419184,120.838,0.119622,
2,0,0,1,0,40589.9,0.117957,0.117652,-7.6299,21,0.0101695,10,-0.00089767,-2.11748,-0.147526,-0.399929,118.944,0.117652,
2,0,0,1,0,40590,0.115955,0.115644,-7.85976,21,0.0100146,10,-0.000908934,-2.10459,-0.16601,-0.355401,108.825,0.115644,
2,0,0,1,0,40590,0.113962,0.113644,-8.066,21,0.00985613,10,-0.000916655,-2.09334,-0.181877,-0.324395,102.078,0.113644,
2,0,0,1,0,40590,0.111964,0.111628,-8.26966,21,0.00969276,10,-0.000923129,-2.08251,-0.192159,-0.307037,98.9933,0.111628,
2,0,0,1,0,40590,0.109967,0.109666,-8.45985,21,0.00952549,10,-0.000927755,-2.07264,-0.21309,-0.276879,91.317,0.109666,
2,0,0,1,0,40590,0.107969,0.107632,-8.63459,21,0.00935457,10,-0.000929359,-2.06376,-0.23528,-0.250765,84.4342,0.107632,
2,0,0,1,0,40590.1,0.105971,0.105667,-8.79744,21,0.00918114,10,-0.000929603,-2.05564,-0.263721,-0.223721,76.7196,0.105667,
2,0,0,1,0,40590.1,0.103974,0.103638,-8.94101,21,0.0090038,10,-0.000926629,-2.04861,-0.307178,-0.192071,66.9525,0.103638,
2,0,0,1,0,40590.1,0.101976,0.101633,-9.06758,21,0.00882374,10,-0.000921562,-2.04251,-0.361912,-0.163023,57.606,0.101633,
2,0,0,1,0,40590.1,0.0999787,0.0996888,-9.16852,21,0.00864147,10,-0.000913998,-2.0377,-0.431864,-0.136617,48.862,0.0996888,
2,0,0,1,0,40590.1,0.0979811,0.0976565,-9.26186,21,0.00845809,10,-0.000904481,-2.0333,-0.527669,-0.111812,40.3587,0.0976565,
2,0,0,1,0,40590.2,0.0959835,0.0957009,-9.32946,21,0.00827221,10,-0.000892838,-2.03014,-0.782467,-0.0754025,27.4158,0.09570089,
2,0,0,1,0,40590.2,0.0939859,0.0936639,-9.37132,21,0.00808525,10,-0.000877755,-2.0282,-1.21615,-0.0485137,17.7316,0.0936639,
2,0,0,1,0,40590.2,0.0919883,0.0916581,-9.40115,21,0.00789758,10,-0.000861691,-2.02682,-1.8771,-0.0314315,11.5241,0.0916581,
2,0,0,1,0,40590.2,0.0899907,0.0896254,-9.41786,21,0.0077103,10,-0.00084408,-2.02605,28.3721,0.0020795,-0.762841,0.0896254,
2,0,0,1,0,40590.2,0.0879931,0.0876581,-9.39809,21,0.00752215,10,-0.000823819,-2.02696,1.88155,0.0313572,-11.4973,0.0876581,
2,0,0,1,0,40590.3,0.0859955,0.0856505,-9.37216,21,0.00733443,10,-0.00080273,-2.02816,1.2522,0.0471171,-17.2177,0.0856505,
2,0,0,1,0,40590.3,0.083998,0.0836311,-9.32876,21,0.0071474,10,-0.000780175,-2.03018,0.988252,0.0597014,-21.7361,0.0836311,
2,0,0,1,0,40590.3,0.0820004,0.0816813,-9.28589,21,0.00696215,10,-0.000758483,-2.03218,0.842344,0.0700426,-25.3625,0.0816813,
2,0,0,1,0,40590.3,0.0800028,0.0796543,-9.2279,21,0.00677713,10,-0.000735041,-2.0349,0.692675,0.085177,-30.6654,0.0796543,
2,0,0,1,0,40590.3,0.0780052,0.0777132,-9.1642,21,0.00659328,10,-0.000712179,-2.03791,0.643655,0.091664,-32.7784,0.0777132,
2,0,0,1,0,40590.4,0.0760076,0.0756882,-9.0979,21,0.00641074,10,-0.000688604,-2.04106,0.680619,0.0866858,-30.7935,0.0756882,
2,0,0,1,0,40590.4,0.07401,0.0736957,-9.04049,21,0.00623045,10,-0.000666246,-2.04381,0.665583,0.0886441,-31.2596,0.0736957,
2,0,0,1,0,40590.4,0.0720124,0.0717289,-8.97413,21,0.00605041,10,-0.000643704,-2.04701,0.659875,0.0894109,-31.3283,0.07172887,
2,0,0,1,0,40590.4,0.0700148,0.0697195,-8.91592,21,0.00587161,10,-0.000621614,-2.04983,0.67117,0.0879063,-30.5772,0.0697195,
2,0,0,1,0,40590.4,0.0680173,0.0677266,-8.85175,21,0.0056941,10,-0.000599499,-2.05297,0.820369,0.0719189,-24.8835,0.0677266,
2,0,0,1,0,40590.5,0.0660106,0.0656778,-8.81535,21,0.00551765,10,-0.000578972,-2.05476,0.836187,0.0705584,-24.2411,0.0656778,
2,0,0,1,0,40590.5,0.0640221,0.0637263,-8.75478,21,0.00534294,10,-0.00055791,-2.05775,0.714876,0.0825318,-28.2126,0.0637263,
2,0,0,1,0,40590.5,0.0620245,0.0616956,-8.703,21,0.00516849,10,-0.000536937,-2.06033,0.760605,0.0775698,-26.3427,0.0616956,
2,0,0,1,0,40590.5,0.0600269,0.0597039,-8.64882,21,0.004995,10,-0.000516368,-2.06304,0.890726,0.0662381,-22.3825,0.0597039,
2,0,0,1,0,40590.5,0.0580361,0.0577144,-8.6139,21,0.00482333,10,-0.000497146,-2.0648,0.873128,0.0675731,-22.6877,0.0577144,
2,0,0,1,0,40590.6,0.0560317,0.055676,-8.55743,21,0.00465165,10,-0.000476444,-2.06766,0.7561,0.078032,-26.0725,0.055676,
2,0,0,1,0,40590.6,0.0540342,0.0536987,-8.5092,21,0.004481,10,-0.000456933,-2.07011,0.825437,0.0714773,-23.7393,0.05369873,
2,0,0,1,0,40590.6,0.0520366,0.0516998,-8.46304,21,0.00431126,10,-0.000437537,-2.07247,0.810518,0.0727929,-24.0362,0.0516998,
2,0,0,1,0,40590.6,0.050039,0.0496826,-8.41266,21,0.00414253,10,-0.000417963,-2.07507,0.793453,0.0743585,-24.4174,0.0496826,
2,0,0,1,0,40590.6,0.0480414,0.0476934,-8.36522,21,0.00397559,10,-0.000398965,-2.07752,0.798919,0.0738498,-24.1076,0.04769339,
2,0,0,1,0,40590.7,0.0460438,0.0456959,-8.31655,21,0.00380882,10,-0.000380032,-2.08006,0.73366,0.0804187,-26.0903,0.0456959,
2,0,0,1,0,40590.7,0.0440462,0.0437012,-8.26106,21,0.00364311,10,-0.000361018,-2.08296,0.692438,0.0852062,-27.4714,0.0437012,
2,0,0,1,0,40590.7,0.0420486,0.0416796,-8.20622,21,0.00347855,10,-0.000342032,-2.08586,0.71337,0.0827061,-26.4922,0.0416796,
2,0,0,1,0,40590.7,0.0400511,0.0396743,-8.15438,21,0.00331576,10,-0.000323519,-2.08861,0.709062,0.0832085,-26.4776,0.0396743,
2,0,0,1,0,40590.7,0.0380535,0.0377101,-8.10112,21,0.0031533,10,-0.000305494,-2.09146,0.601469,0.0980932,-30.981,0.0377101,
2,0,0,1,0,40590.8,0.0360559,0.0357011,-8.03128,21,0.00299209,10,-0.000286726,-2.09522,0.554077,0.106483,-33.3898,0.0357011,
2,0,0,1,0,40590.8,0.0340583,0.0337412,-7.9686,21,0.00283215,10,-0.00026887,-2.09862,0.593816,0.0993574,-30.9055,0.0337412,
2,0,0,1,0,40590.8,0.0320607,0.0317621,-7.90955,21,0.00267417,10,-0.000251224,-2.10185,0.550896,0.107098,-33.0293,0.0317621,
2,0,0,1,0,40590.8,0.0300631,0.0297376,-7.83636,21,0.00251677,10,-0.000233035,-2.10589,0.49935,0.118153,-36.1368,0.0297376,
2,0,0,1,0,40590.8,0.0280655,0.0277488,-7.76452,21,0.00236079,10,-0.000215456,-2.10989,0.509005,0.115912,-35.1292,0.0277488,
2,0,0,1,0,40590.9,0.0260679,0.0257206,-7.69525,21,0.0022062,10,-0.000197926,-2.11378,0.502858,0.117329,-35.2317,0.0257206,
2,0,0,1,0,40590.9,0.0240704,0.0237694,-7.62432,21,0.00205383,10,-0.000181225,-2.1178,0.458509,0.128678,-38.2594,0.0237694,
2,0,0,1,0,40590.9,0.0220728,0.0217227,-7.54229,21,0.00190225,10,-0.000163839,-2.1225,0.430484,0.137055,-40.3436,0.0217227,
2,0,0,1,0,40590.9,0.0200752,0.0197281,-7.46128,21,0.00175223,10,-0.000147197,-2.12719,0.418445,0.140998,-41.0545,0.0197281,
2,0,0,1,0,40590.9,0.0180776,0.017766,-7.37985,21,0.00160381,10,-0.00013111,-2.13195,0.449862,0.131151,-37.8024,0.017766,
2,0,0,1,0,40591,0.01608,0.0157354,-7.31034,21,0.00145773,10,-0.000115031,-2.13606,0.475408,0.124104,-35.3975,0.0157354,
2,0,0,1,0,40591,0.0140824,0.0137433,-7.23746,21,0.00131228,10,-9.94663e-05,-2.14041,0.456647,0.129203,-36.4907,0.0137433,
2,0,0,1,0,40591,0.0120848,0.0117184,-7.16376,21,0.00116837,10,-8.39475e-05,-2.14486,0.420507,0.140307,-39.2023,0.0117184,
2,0,0,1,0,40591,0.0100872,0.00976938,-7.08167,21,0.00102604,10,-6.91835e-05,-2.14986,0.454871,0.129707,-35.8998,0.00976938,
2,0,0,1,0,40591,0.00809193,0.00773083,-7.02061,21,0.000885822,10,-5.42751e-05,-2.15363,0.503315,0.117223,-32.1014,0.00773083,
2,0,0,1,0,40591.1,0.00609208,0.00574922,-6.95262,21,0.000746147,10,-3.99721e-05,-2.15785,0.478215,0.123376,-33.4822,0.00574922,
2,0,0,1,0,40591.1,0.00409449,0.00375155,-6.88737,21,0.000607851,10,-2.58383e-05,-2.16195,0.746937,0.0789893,-21.3009,0.00375155,
2,0,0,1,0,40591.1,0.0020969,0.00173958,-6.86721,21,0.000470687,10,-1.1946e-05,-2.16322,0.701519,0.0841032,-22.4574,0.00173958,
2,0,0,1,0,40591.1,9.14991e-05,-0.000278473,-6.79687,21,0.000334128,10,1.89274e-06,-2.16769,0.530445,0.111227,-29.5509,-0.0002784729,
2,0,0,1,0,40591.1,-0.00189827,-0.00228053,-6.74841,21,0.000199394,10,1.53899e-05,-2.1708,0.634872,0.0929322,-24.4751,-0.00228053,
2,0,0,1,0,40591.2,-0.00389586,-0.00423823,-6.69995,21,6.50095e-05,10,2.83959e-05,-2.17393,0.722466,0.0816647,-21.3712,-0.00423823,
2,0,0,1,0,40591.2,-0.00589345,-0.00628762,-6.66277,21,-6.85531e-05,10,4.1893e-05,-2.17634,0.814213,0.0724626,-18.8408,-0.00628762,
2,0,0,1,0,40591.2,-0.00789103,-0.00823121,-6.62472,21,-0.000201383,10,5.45295e-05,-2.17883,1.08211,0.0545233,-14.1181,-0.00823121,
2,0,0,1,0,40591.2,-0.00988862,-0.0102408,-6.60696,21,-0.000333038,10,6.76603e-05,-2.18,1.39988,0.0421464,-10.8609,-0.0102408,
2,0,0,1,0,40591.2,-0.0118862,-0.0122315,-6.58128,21,-0.000464899,10,8.04987e-05,-2.18169,1.37328,0.0429628,-11.041,-0.0122315,
2,0,0,1,0,40591.3,-0.0138838,-0.0142261,-6.56296,21,-0.000596357,10,9.33653e-05,-2.1829,1.94138,0.0303907,-7.78727,-0.0142261,
2,0,0,1,0,40591.3,-0.0158814,-0.016229,-6.55015,21,-0.000727452,10,0.000106302,-2.18375,9.65017,0.00611388,-1.56521,-0.01622897,
2,0,0,1,0,40591.3,-0.017879,-0.0182516,-6.55666,21,-0.000857831,10,0.00011967,-2.18332,31.8999,0.00184954,-0.472732,-0.0182516,
2,0,0,1,0,40591.3,-0.0198766,-0.0202488,-6.54825,21,-0.000988804,10,0.000132594,-2.18388,8.33525,0.00707838,-1.81026,-0.0202488,
2,0,0,1,0,40591.3,-0.0218741,-0.0222463,-6.54943,21,-0.0011197,10,0.0001457,-2.1838,-6.20457,-0.00950913,2.43193,-0.0222463,
2,0,0,1,0,40591.4,-0.0238717,-0.0242372,-6.55795,21,-0.00125073,10,0.000158946,-2.18323,-2.1212,-0.0278145,7.12508,-0.0242372,
2,0,0,1,0,40591.4,-0.0258693,-0.0262828,-6.57819,21,-0.00138139,10,0.000172893,-2.18189,-2.08818,-0.0282542,7.24735,-0.0262828,
2,0,0,1,0,40591.4,-0.0278669,-0.0282631,-6.58712,21,-0.00151291,10,0.000186172,-2.1813,-2.53932,-0.0232346,5.97573,-0.0282631,
2,0,0,1,0,40591.4,-0.0298645,-0.0302729,-6.60203,21,-0.00164474,10,0.000199863,-2.18032,-1.53116,-0.0385329,9.93553,-0.0302729,
2,0,0,1,0,40591.4,-0.0318621,-0.0322437,-6.62667,21,-0.00177703,10,0.000213668,-2.1787,-1.17365,-0.0502706,13.0031,-0.0322437,
2,0,0,1,0,40591.5,-0.0338597,-0.0342381,-6.65359,21,-0.0019091,10,0.000227806,-2.17694,-1.06235,-0.0555372,14.4262,-0.0342381,
2,0,0,1,0,40591.5,-0.0358573,-0.0362946,-6.68511,21,-0.00204244,10,0.000242633,-2.17489,-0.971005,-0.0607618,15.8528,-0.0362946,
2,0,0,1,0,40591.5,-0.0378548,-0.0382245,-6.71679,21,-0.00217645,10,0.000256745,-2.17284,-0.943616,-0.0625254,16.391,-0.0382245,
2,0,0,1,0,40591.5,-0.0398524,-0.0402124,-6.74933,21,-0.00231104,10,0.000271407,-2.17074,-0.851825,-0.069263,18.254,-0.0402124,
2,0,0,1,0,40591.5,-0.04185,-0.0421934,-6.78924,21,-0.00244562,10,0.000286461,-2.16818,-0.816173,-0.0722886,19.1493,-0.0421934,
2,0,0,1,0,40591.6,-0.0438476,-0.044221,-6.82609,21,-0.0025817,10,0.000301856,-2.16583,-0.878949,-0.0671256,17.8799,-0.044221,
2,0,0,1,0,40591.6,-0.0458452,-0.0462199,-6.86123,21,-0.00271855,10,0.000317126,-2.1636,-0.836312,-0.0705478,18.8981,-0.04621993,
2,0,0,1,0,40591.6,-0.0478428,-0.0482306,-6.90186,21,-0.00285621,10,0.000332881,-2.16103,-0.612554,-0.096318,25.9871,-0.0482306,
2,0,0,1,0,40591.6,-0.0498495,-0.0502391,-6.96568,21,-0.00299485,10,0.000349949,-2.15704,-0.579476,-0.101816,27.6427,-0.0502391,
2,0,0,1,0,40591.6,-0.051838,-0.0522043,-7.01171,21,-0.00313387,10,0.000366041,-2.15418,-0.698422,-0.0844762,23.1154,-0.0522043,
2,0,0,1,0,40591.7,-0.0538355,-0.0542022,-7.05729,21,-0.00327448,10,0.00038252,-2.15136,-0.629555,-0.093717,25.8335,-0.0542022,
2,0,0,1,0,40591.7,-0.0558331,-0.0561997,-7.11492,21,-0.00341617,10,0.000399857,-2.14783,-0.565594,-0.104315,28.966,-0.0561997,
2,0,0,1,0,40591.7,-0.0578217,-0.0582016,-7.17313,21,-0.00355823,10,0.000417488,-2.14429,-0.568183,-0.10384,29.0684,-0.0582016,
2,0,0,1,0,40591.7,-0.0598283,-0.0601988,-7.23117,21,-0.0037022,10,0.000435308,-2.14079,-0.541659,-0.108925,30.7535,-0.0601988,
2,0,0,1,0,40591.7,-0.0618259,-0.0621999,-7.29609,21,-0.00384737,10,0.000453817,-2.13691,-0.531718,-0.110961,31.5876,-0.0621999,
2,0,0,1,0,40591.8,-0.0638235,-0.0642071,-7.35778,21,-0.00399385,10,0.000472422,-2.13325,-0.544871,-0.108282,31.0961,-0.0642071,
2,0,0,1,0,40591.8,-0.0658211,-0.0662191,-7.42108,21,-0.00414159,10,0.000491417,-2.12953,-0.50162,-0.117619,34.0864,-0.0662191,
2,0,0,1,0,40591.8,-0.0678187,-0.0682077,-7.49415,21,-0.00429007,10,0.000511159,-2.12528,-0.464876,-0.126916,37.1214,-0.0682077,
2,0,0,1,0,40591.8,-0.0698162,-0.0701912,-7.56852,21,-0.00444069,10,0.000531243,-2.12099,-0.484262,-0.121835,35.9718,-0.07019116,
2,0,0,1,0,40591.8,-0.0718138,-0.0721766,-7.63692,21,-0.00459274,10,0.000551207,-2.11708,-0.450575,-0.130944,39.0726,-0.07217665,
2,0,0,1,0,40591.9,-0.0738114,-0.0741609,-7.72363,21,-0.00474635,10,0.000572792,-2.11218,-0.407815,-0.144673,43.6083,-0.0741609,
2,0,0,1,0,40591.9,-0.075809,-0.0761649,-7.81084,21,-0.00490093,10,0.000594912,-2.1073,-0.436238,-0.135247,41.2051,-0.0761649,
2,0,0,1,0,40591.9,-0.0778066,-0.0781994,-7.89004,21,-0.00505794,10,0.000616997,-2.10292,-0.431996,-0.136575,42.0836,-0.0781994,
2,0,0,1,0,40591.9,-0.0798042,-0.0802006,-7.98067,21,-0.00521663,10,0.000640055,-2.09796,-0.40106,-0.14711,45.824,-0.0802006,
2,0,0,1,0,40591.9,-0.0818018,-0.0822082,-8.07374,21,-0.00537715,10,0.000663728,-2.09293,-0.388498,-0.151867,47.8637,-0.0822082,
2,0,0,1,0,40592,-0.0837994,-0.0841863,-8.17145,21,-0.00553879,10,0.000687924,-2.0877,-0.39686,-0.148667,47.3878,-0.0841863,
2,0,0,1,0,40592,-0.085797,-0.0861801,-8.26196,21,-0.00570306,10,0.000712016,-2.08292,-0.391633,-0.150651,48.6107,-0.0861801,
2,0,0,1,0,40592,-0.0877945,-0.0881706,-8.36513,21,-0.00586932,10,0.000737558,-2.07753,-0.371499,-0.158816,51.8461,-0.0881706,
2,0,0,1,0,40592,-0.0897921,-0.0901656,-8.46859,21,-0.0060376,10,0.000763576,-2.07219,-0.387873,-0.152112,50.2572,-0.09016563,
2,0,0,1,0,40592,-0.0917897,-0.0921965,-8.56746,21,-0.00620702,10,0.00078989,-2.06715,-0.391122,-0.150848,50.4527,-0.0921965,
2,0,0,1,0,40592.1,-0.0937873,-0.094202,-8.67224,21,-0.00637935,10,0.000816942,-2.06187,-0.389968,-0.151294,51.1822,-0.094202,
2,0,0,1,0,40592.1,-0.0957849,-0.0961515,-8.76988,21,-0.00655375,10,0.000843237,-2.05701,-0.404169,-0.145978,49.963,-0.0961515,
2,0,0,1,0,40592.1,-0.0977825,-0.0981275,-8.86837,21,-0.00673012,10,0.00087023,-2.05216,-0.395532,-0.149166,51.6466,-0.0981275,
2,0,0,1,0,40592.1,-0.0997501,-0.100111,-8.97435,21,-0.00690492,10,0.000898427,-2.047,0.0109803,5.37325,-1675.91,-0.100111,
2,0,0,1,1,40592.1,-0.0987313,-0.0991378,-7.17515,21,-0.00702805,10,0.000711329,-2.14417,-0.0135571,-4.35197,1197.21,-0.0991378,
2,0,0,1,1,40592.2,-0.0967337,-0.0971423,-5.42079,21,-0.00715269,10,0.000526588,-2.26594,-0.0165046,-3.57475,765.174,-0.0971423,
2,0,0,1,1,40592.2,-0.0947362,-0.0950969,-4.08318,21,-0.00724704,10,0.000388298,-2.389,-0.0156996,-3.75805,599.631,-0.0950969,
2,0,0,1,1,40592.2,-0.0927386,-0.0930962,-2.99464,21,-0.00731731,10,0.00027879,-2.52366,-0.0137442,-4.29271,497.411,-0.0930962,
2,0,0,1,1,40592.2,-0.090741,-0.0910673,-2.07879,21,-0.00736745,10,0.00018931,-2.68219,-0.0109683,-5.37914,426.025,-0.0910673,
2,0,0,1,1,40592.2,-0.0887434,-0.0891133,-1.29782,21,-0.00740095,10,0.000115653,-2.88678,-0.00745946,-7.90942,370.172,-0.0891133,
2,0,0,1,1,40592.3,-0.0867458,-0.0871038,-0.6116,21,-0.0074198,10,5.32727e-05,-3.21353,-0.0020407,-28.9116,321.625,-0.0871038,
2,0,0,1,1,40592.3,-0.0847482,-0.0851228,-0.0143801,21,-0.00742581,10,1.22407e-06,-4.84224,-0.0524022,-1.12591,283.031,-0.0851228,
2,1,0,1,1,40592.3,-0.0827529,-0.0831283,0.513574,21,-0.00742069,10,-4.26926e-05,-3.2894,0.00218683,26.9796,249.122,-0.0831283,
2,1,0,1,1,40592.3,-0.080753,-0.0811077,0.985886,21,-0.00740548,10,-7.99629e-05,-3.00617,0.00908348,6.49531,224.763,-0.0811077,
2,1,0,1,1,40592.3,-0.0787555,-0.0791512,1.40748,21,-0.0073814,10,-0.000111404,-2.85156,0.0154929,3.80819,199.722,-0.0791512,
2,1,0,1,1,40592.4,-0.0767579,-0.0771345,1.77942,21,-0.0073494,10,-0.000137255,-2.74972,0.0225211,2.61977,177.989,-0.07713446,
2,1,0,1,1,40592.4,-0.0747603,-0.0751303,2.12316,21,-0.00731022,10,-0.000159514,-2.67302,0.0294553,2.00304,163.506,-0.0751303,
2,1,0,1,1,40592.4,-0.0727627,-0.0731045,2.43835,21,-0.00726461,10,-0.000178254,-2.6129,0.0371648,1.58753,149.082,-0.0731045,
2,1,0,1,1,40592.4,-0.0707651,-0.0711708,2.71344,21,-0.00721297,10,-0.000193118,-2.56648,0.0462976,1.27436,134.001,-0.0711708,
2,1,0,1,1,40592.4,-0.0687675,-0.0691546,2.96763,21,-0.00715602,10,-0.000205226,-2.52759,0.056632,1.04181,119.986,-0.0691546,
2,1,0,1,1,40592.5,-0.0667699,-0.0670978,3.20216,21,-0.00709424,10,-0.000214858,-2.49456,0.0666994,0.884566,109.952,-0.0670978,
2,1,0,1,1,40592.5,-0.0647723,-0.0651068,3.41269,21,-0.00702827,10,-0.00022219,-2.4669,0.0773032,0.763228,101.23,-0.0651068,
2,1,0,1,1,40592.5,-0.0627748,-0.0631404,3.60276,21,-0.00695805,10,-0.00022748,-2.44336,0.0893774,0.660122,92.5757,-0.0631404,
2,1,0,1,1,40592.5,-0.0607772,-0.0611345,3.78044,21,-0.00688415,10,-0.000231115,-2.42246,0.103773,0.568546,83.5881,-0.06113451,
2,1,0,1,1,40592.5,-0.0587796,-0.0591477,3.9365,21,-0.00680691,10,-0.000232835,-2.40489,0.121305,0.486379,74.5604,-0.0591477,
2,1,0,1,1,40592.6,-0.056782,-0.0571259,4.07932,21,-0.00672711,10,-0.000233035,-2.38941,0.138167,0.427021,67.848,-0.0571259,
2,1,0,1,1,40592.6,-0.0547844,-0.0551317,4.20898,21,-0.00664417,10,-0.000232048,-2.37582,0.157716,0.374089,61.3215,-0.0551317,
2,1,0,1,1,40592.6,-0.0527868,-0.0531437,4.32352,21,-0.00655873,10,-0.000229768,-2.36416,0.180475,0.326914,55.0905,-0.0531437,
2,1,0,1,1,40592.6,-0.0507892,-0.0511412,4.42882,21,-0.00647111,10,-0.000226495,-2.35371,0.191713,0.307752,53.1869,-0.0511412,
2,1,0,1,1,40592.6,-0.0487916,-0.0491707,4.53483,21,-0.00638186,10,-0.000222981,-2.34344,0.218518,0.270001,47.6715,-0.0491707,
2,1,0,1,1,40592.7,-0.0467941,-0.0471166,4.62068,21,-0.00629027,10,-0.000217711,-2.33529,0.27166,0.217183,39.0953,-0.0471166,
2,1,0,1,1,40592.7,-0.0447965,-0.0451758,4.69101,21,-0.00619709,10,-0.00021192,-2.32873,0.296142,0.199229,36.4863,-0.0451758,
2,1,0,1,1,40592.7,-0.0427989,-0.0431534,4.76528,21,-0.00610245,10,-0.000205638,-2.32191,0.298032,0.197965,36.8072,-0.0431534,
2,1,0,1,1,40592.7,-0.0408013,-0.0411842,4.83793,21,-0.00600688,10,-0.000199246,-2.31534,0.379901,0.155304,29.2348,-0.0411842,
2,1,0,1,1,40592.7,-0.0388037,-0.0391597,4.88203,21,-0.00590962,10,-0.000191179,-2.3114,0.445668,0.132386,25.2554,-0.0391597,
2,1,0,1,1,40592.8,-0.0368061,-0.0371879,4.93886,21,-0.00581137,10,-0.000183666,-2.30637,0.459246,0.128471,24.7272,-0.03718793,
2,1,0,1,1,40592.8,-0.0348085,-0.0351219,4.98188,21,-0.00571216,10,-0.000174973,-2.30261,0.561796,0.10502,20.4108,-0.0351219,
2,1,0,1,1,40592.8,-0.0328109,-0.0331516,5.02124,21,-0.00561263,10,-0.000166462,-2.29919,0.638435,0.0924135,18.0975,-0.0331516,
2,1,0,1,1,40592.8,-0.0308134,-0.0311357,5.05402,21,-0.00551186,10,-0.000157361,-2.29636,0.78788,0.0748845,14.7608,-0.03113574,
2,1,0,1,1,40592.8,-0.0288158,-0.0291468,5.08036,21,-0.00541048,10,-0.000148076,-2.29411,0.858145,0.0687529,13.6329,-0.0291468,
2,1,0,1,1,40592.9,-0.0268182,-0.0271951,5.10774,21,-0.00530857,10,-0.000138905,-2.29177,0.976489,0.0604206,12.0361,-0.0271951,
2,1,0,1,1,40592.9,-0.0248138,-0.0251571,5.12838,21,-0.00520627,10,-0.000129015,-2.29002,1.26776,0.0465387,9.31099,-0.02515707,
2,1,0,1,1,40592.9,-0.022823,-0.0231683,5.14523,21,-0.00510401,10,-0.000119206,-2.28859,1.45677,0.0405005,8.13145,-0.0231683,
2,1,0,1,1,40592.9,-0.0208254,-0.0211844,5.16068,21,-0.00500091,10,-0.000109326,-2.28729,2.29916,0.0256615,5.16306,-0.0211844,
2,1,0,1,1,40592.9,-0.0188278,-0.019233,5.16555,21,-0.00489763,10,-9.9349e-05,-2.28688,3.586,0.0164529,3.31791,-0.019233,
2,1,0,1,1,40593,-0.0168393,-0.017225,5.17382,21,-0.00479467,10,-8.91189e-05,-2.28619,1.98847,0.0296711,5.99564,-0.017225,
2,1,0,1,1,40593,-0.0148327,-0.0151714,5.1899,21,-0.00469093,10,-7.87379e-05,-2.28484,2.9073,0.0202938,4.10422,-0.0151714,
2,1,0,1,1,40593,-0.0128351,-0.0131976,5.19035,21,-0.00458712,10,-6.84999e-05,-2.2848,9.54954,0.00617831,1.25199,-0.0131976,
2,1,0,1,1,40593,-0.0108375,-0.0112168,5.19486,21,-0.00448327,10,-5.82697e-05,-2.28443,8.04558,0.00733322,1.48628,-0.0112168,
2,1,0,1,1,40593,-0.00883989,-0.00922436,5.19625,21,-0.00437933,10,-4.79321e-05,-2.28431,8.41384,0.00701225,1.42243,-0.00922436,
2,1,0,1,1,40593.1,-0.0068423,-0.0072341,5.20052,21,-0.0042758,10,-3.76211e-05,-2.28395,14.8984,0.00396015,0.803342,-0.0072341,
2,1,0,1,1,40593.1,-0.00484471,-0.00518305,5.1995,21,-0.0041718,10,-2.69492e-05,-2.28404,64.0504,0.00092115,0.18697,-0.00518305,
2,1,0,1,1,40593.1,-0.00284713,-0.00320295,5.20127,21,-0.00406776,10,-1.66594e-05,-2.28389,-26.1352,-0.00225749,-0.45801,-0.00320295,
2,1,0,1,1,40593.1,-0.000849538,-0.00119919,5.19767,21,-0.00396374,10,-6.233e-06,-2.28419, , , ,-0.00119919,
2,1,0,1,1,40593.1,-2.55332e-05,-0.000382585,5.22101,21,-0.00392163,10,-1.99748e-06,-2.28225, , , ,-0.000382585,