File: Figure_codes/Fig_3-5/rawdata_trumpetplot_data/after 10th/20221101_1-115_003_TrumpetPlot_ParaChange_from10_every3_05_CV_C01_3.csv
mode,ox/red,error,control changes,counter inc.,time/s,control/V,Ewe/V,<I>/mA,cycle number,(Q-Qo)/C,I Range,P/W,log(|I|),Tafel slope mV/dec,alpha_eff,dI/d(E-IR),E-IR/V,
2,0,0,1,0,7030.41,2.44065e-05,-0.000306236,-0.727794,4,0.0000000E+000,10,2.22877e-07,-3.13799, , , ,-0.000306236,
2,1,0,1,0,7030.47,0.00129787,0.000962733,0.298725,4,-2.32866e-06,10,2.87592e-07,-3.52473, , , ,0.000962733,
2,1,0,1,0,7030.55,0.00279606,0.00249721,0.597755,4,3.48412e-05,10,1.49272e-06,-3.22348,0.00415682,14.1935,153.744,0.00249721,
2,1,0,1,0,7030.62,0.00429425,0.00401392,0.674519,4,8.42438e-05,10,2.70746e-06,-3.17101,0.0298734,1.975,48.7688,0.004013916,
2,1,0,1,0,7030.7,0.00579244,0.00548557,0.718486,4,0.000138149,10,3.94131e-06,-3.14358,0.0536878,1.09895,30.5363,0.00548557,
2,1,0,1,0,7030.77,0.00729063,0.0069999,0.76523,4,0.00019523,10,5.35654e-06,-3.11621,0.0719134,0.820431,24.2811,0.0069999,
2,1,0,1,0,7030.85,0.00878882,0.00847171,0.797274,4,0.000255143,10,6.75428e-06,-3.09839,0.0884667,0.666918,20.6023,0.00847171,
2,1,0,1,0,7030.92,0.010287,0.0100187,0.826151,4,0.000317387,10,8.27692e-06,-3.08294,0.117858,0.500603,16.0172,0.01001865,
2,1,0,1,0,7031,0.0117852,0.0114844,0.850579,4,0.000381579,10,9.76843e-06,-3.07029,0.121205,0.486778,16.1291,0.0114844,
2,1,0,1,0,7031.07,0.0132847,0.0129693,0.871231,4,0.000447434,10,1.12993e-05,-3.05987,0.122974,0.479777,16.4085,0.0129693,
2,1,0,1,0,7031.15,0.0147802,0.0144486,0.89532,4,0.000514952,10,1.29361e-05,-3.04802,0.127634,0.46226,16.1374,0.0144486,
2,1,0,1,0,7031.22,0.0162798,0.0159913,0.917571,4,0.00058455,10,1.46731e-05,-3.03736,0.15585,0.378568,13.482,0.0159913,
2,1,0,1,0,7031.3,0.017778,0.0174675,0.937954,4,0.000655415,10,1.63837e-05,-3.02782,0.169243,0.34861,12.7527,0.0174675,
2,1,0,1,0,7031.37,0.0192761,0.0189612,0.953667,4,0.000727455,10,1.80827e-05,-3.0206,0.171891,0.343241,12.768,0.0189612,
2,1,0,1,0,7031.45,0.0207743,0.0204543,0.974711,4,0.000801158,10,1.99371e-05,-3.01112,0.167451,0.352341,13.3543,0.0204543,
2,1,0,1,0,7031.52,0.0222725,0.0219496,0.996369,4,0.000876423,10,2.18699e-05,-3.00158,0.18038,0.327087,12.6698,0.0219496,
2,1,0,1,0,7031.6,0.0237707,0.0234461,1.01238,4,0.000953021,10,2.37364e-05,-2.99465,0.188478,0.313033,12.3937,0.0234461,
2,1,0,1,0,7031.67,0.0252689,0.024975,1.02859,4,0.00103087,10,2.56891e-05,-2.98776,0.172507,0.342015,13.7992,0.024975,
2,1,0,1,0,7031.75,0.0267671,0.0264839,1.05265,4,0.00111022,10,2.78784e-05,-2.97771,0.171797,0.343428,14.0829,0.02648391,
2,1,0,1,0,7031.82,0.0282653,0.0279802,1.07267,4,0.0011912,10,3.00137e-05,-2.96953,0.187653,0.314411,13.1188,0.0279802,
2,1,0,1,0,7031.9,0.0297644,0.02948,1.08909,4,0.00127375,10,3.21063e-05,-2.96294,0.199967,0.295049,12.5515,0.02948,
2,1,0,1,0,7031.97,0.0312599,0.0309758,1.10399,4,0.00135729,10,3.41969e-05,-2.95704,0.190138,0.310301,13.4715,0.0309758,
2,1,0,1,0,7032.05,0.0327599,0.0324468,1.1285,4,0.00144253,10,3.66163e-05,-2.9475,0.18835,0.313246,13.79,0.0324468,
2,1,0,1,0,7032.12,0.034258,0.0339511,1.1498,4,0.00152937,10,3.9037e-05,-2.93938,0.196072,0.30091,13.4805,0.0339511,
2,1,0,1,0,7032.2,0.0357562,0.0354733,1.17272,4,0.00161767,10,4.16001e-05,-2.93081,0.227849,0.258944,11.7869,0.0354733,
2,1,0,1,0,7032.27,0.0372544,0.0369573,1.19073,4,0.00170754,10,4.40063e-05,-2.92419,0.209244,0.281968,13.0848,0.0369573,
2,1,0,1,0,7032.34,0.0387526,0.0384194,1.2099,4,0.0017986,10,4.64836e-05,-2.91725,0.197677,0.298467,14.1201,0.0384194,
2,1,0,1,0,7032.42,0.0402508,0.0399338,1.23189,4,0.0018915,10,4.91939e-05,-2.90943,0.193515,0.304886,14.6397,0.0399338,
2,1,0,1,0,7032.49,0.041749,0.041448,1.25711,4,0.00198613,10,5.21045e-05,-2.90063,0.222985,0.264592,12.9111,0.041448,
2,1,0,1,0,7032.57,0.0432472,0.0429986,1.27541,4,0.00208222,10,5.4841e-05,-2.89435,0.21984,0.268377,13.3109,0.0429986,
2,1,0,1,0,7032.64,0.0447449,0.0443852,1.29149,4,0.0021795,10,5.73229e-05,-2.88891,0.223567,0.263902,13.3002,0.0443852,
2,1,0,1,0,7032.72,0.0462445,0.0459284,1.31264,4,0.00227857,10,6.02876e-05,-2.88185,0.204424,0.288615,14.7515,0.0459284,
2,1,0,1,0,7032.79,0.04774,0.0474058,1.33132,4,0.00237888,10,6.31124e-05,-2.87572,0.224472,0.262839,13.6778,0.0474058,
2,1,0,1,0,7032.87,0.0492399,0.0489243,1.34946,4,0.00248098,10,6.60212e-05,-2.86984,0.24584,0.239993,12.652,0.0489243,
2,1,0,1,0,7032.94,0.0507381,0.0504121,1.36522,4,0.00258429,10,6.88236e-05,-2.8648,0.260131,0.226808,12.1218,0.0504121,
2,1,0,1,0,7033.02,0.0522363,0.0519329,1.39005,4,0.00268904,10,7.21893e-05,-2.85697,0.225372,0.261789,14.1869,0.0519329,
2,1,0,1,0,7033.09,0.0537345,0.053436,1.41507,4,0.00279538,10,7.56155e-05,-2.84922,0.261235,0.22585,12.41,0.053436,
2,1,0,1,0,7033.17,0.0552327,0.0549088,1.42998,4,0.0029033,10,7.85182e-05,-2.84467,0.302742,0.194886,10.8485,0.0549088,
2,1,0,1,0,7033.24,0.0567309,0.0564312,1.44082,4,0.00301238,10,8.13071e-05,-2.84139,0.305496,0.193129,10.9068,0.0564312,
2,1,0,1,0,7033.32,0.0582291,0.0578896,1.46515,4,0.00312264,10,8.48172e-05,-2.83412,0.299402,0.197059,11.2699,0.0578896,
2,1,0,1,0,7033.39,0.0597291,0.0594325,1.48527,4,0.00323455,10,8.82734e-05,-2.82819,0.264216,0.223302,12.9277,0.0594325,
2,1,0,1,0,7033.47,0.0612246,0.0609175,1.50171,4,0.00334758,10,9.14807e-05,-2.82341,0.304592,0.193702,11.3326,0.0609175,
2,1,0,1,0,7033.54,0.0627241,0.0624473,1.51827,4,0.00346235,10,9.48118e-05,-2.81865,0.307079,0.192133,11.3762,0.0624473,
2,1,0,1,0,7033.62,0.0642219,0.0639197,1.53223,4,0.00357802,10,9.794e-05,-2.81467,0.304587,0.193705,11.6219,0.0639197,
2,1,0,1,0,7033.69,0.06572,0.0654209,1.55264,4,0.00369502,10,0.000101575,-2.80893,0.328153,0.179794,10.8876,0.0654209,
2,1,0,1,0,7033.77,0.0672182,0.0668968,1.57225,4,0.0038135,10,0.000105179,-2.80348,0.329398,0.179115,10.9595,0.0668968,
2,1,0,1,0,7033.84,0.0687164,0.0684035,1.58476,4,0.00393311,10,0.000108403,-2.80004,0.374771,0.15743,9.73656,0.0684035,
2,1,0,1,0,7033.92,0.0702146,0.0699072,1.60053,4,0.00405385,10,0.000111888,-2.79574,0.328925,0.179372,11.206,0.0699072,
2,1,0,1,0,7033.99,0.0717128,0.0713793,1.61883,4,0.00417582,10,0.000115551,-2.7908,0.324684,0.181715,11.4692,0.0713793,
2,1,0,1,0,7034.07,0.073211,0.0729122,1.63382,4,0.0042991,10,0.000119126,-2.7868,0.370935,0.159058,10.1392,0.0729122,
2,1,0,1,0,7034.14,0.0747092,0.0744069,1.64873,4,0.00442352,10,0.000122677,-2.78285,0.454941,0.129687,8.33672,0.0744069,
2,1,0,1,0,7034.22,0.0762087,0.0758693,1.65914,4,0.00454907,10,0.000125878,-2.78012,0.389907,0.151318,9.81995,0.0758693,
2,1,0,1,0,7034.29,0.0777042,0.0773819,1.67898,4,0.00467525,10,0.000129922,-2.77496,0.33354,0.17689,11.577,0.0773819,
2,1,0,1,0,7034.37,0.0792037,0.0788777,1.69484,4,0.00480301,10,0.000133685,-2.77087,0.389797,0.151361,9.98945,0.0788777,
2,1,0,1,0,7034.44,0.0807019,0.0803685,1.70816,4,0.00493186,10,0.000137282,-2.76747,0.463398,0.12732,8.45436,0.0803685,
2,1,0,1,0,7034.52,0.0822001,0.0819407,1.71666,4,0.00506173,10,0.000140664,-2.76532,0.413906,0.142544,9.57711,0.0819407,
2,1,0,1,0,7034.59,0.0836983,0.0833905,1.73376,4,0.00519236,10,0.000144579,-2.76101,0.383588,0.153811,10.4273,0.0833905,
2,1,0,1,0,7034.67,0.0851965,0.0848899,1.75034,4,0.00532436,10,0.000148587,-2.75688,0.350954,0.168113,11.5005,0.0848899,
2,1,0,1,0,7034.74,0.0866947,0.0863704,1.7668,4,0.00545755,10,0.000152599,-2.75281,0.467948,0.126082,8.68564,0.0863704,
2,1,0,1,0,7034.82,0.0881929,0.0878957,1.78405,4,0.00559209,10,0.000156811,-2.74859,0.359091,0.164304,11.4388,0.0878957,
2,1,0,1,0,7034.89,0.0896911,0.0893523,1.80217,4,0.00572754,10,0.000161028,-2.7442,0.321498,0.183516,12.9379,0.0893523,
2,1,0,1,0,7034.97,0.0911893,0.090862,1.82251,4,0.00586452,10,0.000165597,-2.73933,0.273507,0.215717,15.3248,0.090862,
2,1,0,1,0,7035.04,0.0926884,0.0923689,1.84554,4,0.0060036,10,0.00017047,-2.73388,0.253355,0.232875,16.7707,0.0923689,
2,1,0,1,0,7035.12,0.0941839,0.0938729,1.86829,4,0.00614399,10,0.000175382,-2.72856,0.269961,0.21855,15.948,0.09387289,
2,1,0,1,0,7035.19,0.0956838,0.0953955,1.89177,4,0.0062864,10,0.000180466,-2.72313,0.24923,0.236729,17.5165,0.09539552,
2,1,0,1,0,7035.27,0.097182,0.0968948,1.91933,4,0.00643061,10,0.000185973,-2.71685,0.215131,0.274252,20.5688,0.0968948,
2,1,0,1,0,7035.34,0.0986802,0.0983668,1.95146,4,0.00657716,10,0.000191959,-2.70964,0.205009,0.287793,21.9333,0.0983668,
2,1,0,1,0,7035.42,0.100178,0.0998718,1.98781,4,0.00672618,10,0.000198526,-2.70162,0.215887,0.273291,21.1642,0.09987177,
2,1,0,1,0,7035.49,0.101677,0.101354,2.0118,4,0.00687745,10,0.000203904,-2.69642,0.206939,0.285108,22.467,0.101354,
2,1,0,1,0,7035.57,0.103175,0.102881,2.05267,4,0.00703114,10,0.00021118,-2.68768,0.189136,0.311945,25.0324,0.102881,
2,1,0,1,0,7035.64,0.104673,0.104371,2.09225,4,0.00718779,10,0.00021837,-2.67939,0.188951,0.312251,25.4563,0.104371,
2,1,0,1,0,7035.72,0.106171,0.105899,2.13346,4,0.00734749,10,0.00022593,-2.67092,0.203916,0.289335,23.9878,0.105899,
2,1,0,1,0,7035.79,0.107669,0.107391,2.16645,4,0.00750981,10,0.000232656,-2.66425,0.196706,0.29994,25.3465,0.107391,
2,1,0,1,0,7035.87,0.109168,0.108872,2.2019,4,0.00767491,10,0.000239725,-2.6572,0.212134,0.278126,23.9367,0.108872,
2,1,0,1,0,7035.94,0.110664,0.11031,2.23759,4,0.00784246,10,0.00024683,-2.65022,0.211089,0.279503,24.4072,0.11031,
2,1,0,1,0,7036.02,0.112164,0.111842,2.27468,4,0.00801325,10,0.000254406,-2.64308,0.240615,0.245205,21.7094,0.111842,
2,1,0,1,0,7036.09,0.113662,0.113374,2.3065,4,0.00818634,10,0.000261496,-2.63705,0.25825,0.22846,20.5218,0.113374,
2,1,0,1,0,7036.17,0.11516,0.114818,2.33252,4,0.00836135,10,0.000267815,-2.63218,0.268712,0.219566,20.0146,0.114818,
2,1,0,1,0,7036.24,0.116658,0.116327,2.36543,4,0.0085388,10,0.000275163,-2.62609,0.266915,0.221044,20.3696,0.116327,
2,1,0,1,0,7036.32,0.118157,0.117862,2.39452,4,0.00871861,10,0.000282223,-2.62078,0.321973,0.183245,17.0814,0.117862,
2,1,0,1,0,7036.39,0.119655,0.119354,2.41929,4,0.00890028,10,0.000288754,-2.61631,0.377973,0.156096,14.7246,0.119354,
2,1,0,1,0,7036.46,0.121153,0.120847,2.43641,4,0.00908347,10,0.000294433,-2.61325,0.389248,0.151574,14.4471,0.120847,
2,1,0,1,0,7036.54,0.122653,0.122351,2.46246,4,0.00926864,10,0.000301284,-2.60863,0.351629,0.16779,16.1082,0.122351,
2,1,0,1,0,7036.61,0.124149,0.123842,2.4857,4,0.00945522,10,0.000307833,-2.60455,0.336369,0.175403,17.0204,0.123842,
2,1,0,1,0,7036.69,0.125648,0.125305,2.50987,4,0.00964395,10,0.0003145,-2.60035,0.400003,0.147499,14.4398,0.125305,
2,1,0,1,0,7036.76,0.127146,0.126861,2.52621,4,0.00983411,10,0.000320479,-2.59753,0.390222,0.151196,14.9239,0.126861,
2,1,0,1,0,7036.84,0.128644,0.128324,2.55346,4,0.0100258,10,0.00032767,-2.59287,0.408514,0.144426,14.3934,0.128324,
2,1,0,1,0,7036.91,0.130142,0.129792,2.57794,4,0.0102194,10,0.000334595,-2.58873,0.40295,0.14642,14.7074,0.129792,
2,1,0,1,0,7036.99,0.13164,0.131356,2.59567,4,0.0104147,10,0.000340957,-2.58575,0.578436,0.101999,10.3226,0.131356,
2,1,0,1,0,7037.06,0.133139,0.132814,2.61539,4,0.0106114,10,0.000347361,-2.58246,0.662564,0.089048,9.08181,0.132814,
2,1,0,1,0,7037.14,0.134637,0.13432,2.62459,4,0.010809,10,0.000352535,-2.58094,0.948603,0.0621967,6.36668,0.13432,
2,1,0,1,0,7037.21,0.136135,0.135776,2.63496,4,0.0110074,10,0.000357765,-2.57923,2.49715,0.0236269,2.42279,0.135776,
2,1,0,1,0,7037.29,0.137633,0.137298,2.6377,4,0.0112063,10,0.000362152,-2.57877,-1.65413,-0.0356682,-3.65151,0.137298,
2,1,0,1,0,7037.36,0.139133,0.138841,2.62534,4,0.011405,10,0.000364505,-2.58081,-0.502839,-0.117334,-11.9603,0.138841,
2,1,0,1,0,7037.44,0.140628,0.140327,2.59926,4,0.0116017,10,0.000364745,-2.58515,-0.321446,-0.183545,-18.5523,0.140327,
2,1,0,1,0,7037.51,0.142128,0.141815,2.56748,4,0.0117969,10,0.000364107,-2.59049,-0.23676,-0.249198,-24.8336,0.141815,
2,1,0,1,0,7037.59,0.143626,0.143326,2.52528,4,0.011989,10,0.00036194,-2.59769,-0.163197,-0.361527,-35.3599,0.143326,
2,1,0,1,0,7037.66,0.145124,0.144802,2.45633,4,0.012177,10,0.000355682,-2.60971,-0.121518,-0.485523,-46.3608,0.144802,
2,1,0,1,0,7037.74,0.146622,0.146312,2.3793,4,0.0123598,10,0.000348121,-2.62355,-0.105591,-0.558758,-51.7782,0.146312,
2,1,0,1,0,7037.81,0.14812,0.147796,2.2999,4,0.0125365,10,0.000339917,-2.63829,-0.0938359,-0.628757,-56.2355,0.147796,
2,1,0,1,0,7037.89,0.149619,0.149348,2.21322,4,0.0127068,10,0.000330541,-2.65497,-0.0845654,-0.697684,-60.0458,0.149348,
2,1,0,1,0,7037.96,0.151117,0.15082,2.11921,4,0.0128704,10,0.000319619,-2.67383,-0.0761499,-0.774788,-63.8358,0.1508199,
2,1,0,1,0,7038.04,0.152615,0.152339,2.02008,4,0.0130269,10,0.000307738,-2.69463,-0.0738281,-0.799154,-62.976,0.152339,
2,1,0,1,0,7038.11,0.154113,0.153803,1.93301,4,0.0131762,10,0.000297302,-2.71377,-0.0752665,-0.783881,-59.1823,0.1538028,
2,1,0,1,0,7038.19,0.155613,0.155332,1.84681,4,0.013319,10,0.00028687,-2.73358,-0.0752168,-0.784399,-56.5549,0.155332,
2,1,0,1,0,7038.26,0.157108,0.156796,1.76027,4,0.0134553,10,0.000276005,-2.75442,-0.0752304,-0.784258,-53.9267,0.156796,
2,1,0,1,0,7038.34,0.158608,0.158285,1.68188,4,0.0135861,10,0.000266216,-2.7742,-0.0805904,-0.732097,-48.2766,0.158285,
2,1,0,1,0,7038.41,0.160106,0.159755,1.61602,4,0.013711,10,0.000258167,-2.79155,-0.0856009,-0.689245,-43.6884,0.159755,
2,1,0,1,0,7038.49,0.161604,0.161259,1.5564,4,0.0138312,10,0.000250984,-2.80788,-0.0933562,-0.631988,-38.465,0.161259,
2,1,0,1,0,7038.56,0.163102,0.162786,1.50349,4,0.0139472,10,0.000244748,-2.8229,-0.0998603,-0.590825,-34.6716,0.162786,
2,1,0,1,0,7038.64,0.164601,0.164299,1.45192,4,0.0140592,10,0.000238548,-2.83806,-0.10022,-0.588704,-33.3971,0.164299,
2,1,0,1,0,7038.71,0.166099,0.16577,1.4068,4,0.0141675,10,0.000233204,-2.85177,-0.11518,-0.51224,-28.2252,0.16577,
2,1,0,1,0,7038.79,0.167597,0.167283,1.36788,4,0.0142727,10,0.000228822,-2.86395,-0.126033,-0.468132,-24.9995,0.167283,
2,1,0,1,0,7038.86,0.169095,0.168802,1.3326,4,0.0143752,10,0.000224946,-2.8753,-0.134738,-0.437885,-22.7916,0.168802,
2,1,0,1,0,7038.94,0.170593,0.170319,1.30004,4,0.0144751,10,0.000221422,-2.88604,-0.132502,-0.445277,-22.597,0.170319,
2,1,0,1,0,7039.01,0.172092,0.171789,1.2657,4,0.0145726,10,0.000217433,-2.89767,-0.156951,-0.375913,-18.6321,0.171789,
2,1,0,1,0,7039.09,0.173588,0.17326,1.24016,4,0.0146677,10,0.00021487,-2.90652,-0.167028,-0.353235,-17.1108,0.17326,
2,1,0,1,0,7039.16,0.175088,0.174773,1.2138,4,0.0147612,10,0.000212139,-2.91585,-0.184507,-0.319772,-15.1925,0.174773,
2,1,0,1,0,7039.24,0.176586,0.176277,1.1948,4,0.0148529,10,0.000210616,-2.9227,-0.185704,-0.31771,-14.7822,0.176277,
2,1,0,1,0,7039.31,0.178084,0.177745,1.17274,4,0.0149431,10,0.000208449,-2.9308,-0.211544,-0.278902,-12.8061,0.177745,
2,1,0,1,0,7039.39,0.179582,0.179203,1.15643,4,0.0150317,10,0.000207235,-2.93688,-0.228388,-0.258333,-11.7085,0.179203,
2,1,0,1,0,7039.46,0.181081,0.180775,1.14004,4,0.0151192,10,0.000206091,-2.94308,-0.25772,-0.22893,-10.2032,0.180775,
2,1,0,1,0,7039.54,0.182579,0.182274,1.12586,4,0.0152056,10,0.000205215,-2.94852,-0.256308,-0.230192,-10.1164,0.182274,
2,1,0,1,0,7039.61,0.184077,0.183797,1.11387,4,0.0152909,10,0.000204726,-2.95317,-0.286928,-0.205627,-8.93974,0.183797,
2,1,0,1,0,7039.69,0.185577,0.185264,1.10178,4,0.0153751,10,0.000204121,-2.9579,-0.372618,-0.158339,-6.80707,0.185264,
2,1,0,1,0,7039.76,0.187073,0.186784,1.08975,4,0.0154585,10,0.000203549,-2.96267,-0.455408,-0.129554,-5.50036,0.186784,
2,1,0,1,0,7039.84,0.188572,0.188275,1.08197,4,0.0155413,10,0.000203708,-2.96579,-0.388875,-0.15172,-6.40104,0.188275,
2,1,0,1,0,7039.91,0.19007,0.189791,1.07261,4,0.0156233,10,0.000203571,-2.96956,-0.442393,-0.133366,-5.58405,0.189791,
2,1,0,1,0,7039.99,0.191568,0.19127,1.05955,4,0.0157044,10,0.000202661,-2.97488,-0.48084,-0.122702,-5.09542,0.19127,
2,1,0,1,0,7040.06,0.193066,0.192764,1.0548,4,0.015785,10,0.000203329,-2.97683,-0.855898,-0.0689334,-2.83668,0.192764,
2,1,0,1,0,7040.14,0.194564,0.194237,1.0488,4,0.0158653,10,0.000203716,-2.97931,-0.508201,-0.116096,-4.74791,0.194237,
2,1,0,1,0,7040.21,0.196063,0.19575,1.04387,4,0.015945,10,0.000204338,-2.98135,-0.368472,-0.160121,-6.51448,0.19575,
2,1,0,1,0,7040.29,0.197561,0.197203,1.02965,4,0.016024,10,0.000203049,-2.98731,-0.484311,-0.121823,-4.91765,0.197203,
2,1,0,1,0,7040.36,0.199059,0.198729,1.0293,4,0.0161026,10,0.000204551,-2.98746,-0.743232,-0.079383,-3.18437,0.198729,
2,1,0,1,0,7040.44,0.200557,0.200278,1.0257,4,0.0161809,10,0.000205425,-2.98898,-0.53964,-0.109332,-4.36162,0.200278,
2,1,0,1,0,7040.51,0.202057,0.201744,1.02245,4,0.0162589,10,0.000206273,-2.99036,-0.738213,-0.0799227,-3.17216,0.201744,
2,1,0,1,0,7040.58,0.203552,0.203215,1.01159,4,0.0163363,10,0.000205569,-2.995,-0.650915,-0.0906417,-3.58978,0.203215,
2,1,0,1,0,7040.66,0.205052,0.204696,1.00579,4,0.0164134,10,0.00020588,-2.99749,-4.40927,-0.0133809,-0.529932,0.204696,
2,1,0,1,0,7040.73,0.20655,0.206249,1.00164,4,0.0164902,10,0.000206588,-2.99929,-1.11535,-0.0528982,-2.07664,0.206249,
2,1,0,1,0,7040.81,0.208048,0.207788,1.00238,4,0.016567,10,0.000208283,-2.99897,-0.786931,-0.0749748,-2.92334,0.2077882,
2,1,0,1,0,7040.88,0.209546,0.209226,0.995845,4,0.0166433,10,0.000208356,-3.00181,-0.684883,-0.0861461,-3.356,0.2092257,
2,1,0,1,0,7040.96,0.211044,0.210724,0.991271,4,0.016719,10,0.000208885,-3.00381,-0.789417,-0.0747387,-2.89169,0.210724,
2,1,0,1,0,7041.03,0.212543,0.212228,0.988783,4,0.0167947,10,0.000209847,-3.0049,-1.23048,-0.0479488,-1.84995,0.212228,
2,1,0,1,0,7041.11,0.214041,0.213696,0.985106,4,0.0168701,10,0.000210514,-3.00652,-1.07918,-0.0546711,-2.10433,0.213696,
2,1,0,1,0,7041.18,0.215539,0.215276,0.982867,4,0.0169452,10,0.000211588,-3.00751,-1.13929,-0.0517868,-1.98652,0.215276,
2,1,0,1,0,7041.26,0.217037,0.216727,0.97671,4,0.01702,10,0.000211679,-3.01023,-1.00021,-0.0589878,-2.25594,0.216727,
2,1,0,1,0,7041.33,0.218536,0.218229,0.975526,4,0.0170948,10,0.000212888,-3.01076,-6.60365,-0.00893445,-0.339895,0.218229,
2,1,0,1,0,7041.41,0.220032,0.219739,0.976661,4,0.0171692,10,0.000214611,-3.01026,-1.32762,-0.0444406,-1.69166,0.219739,
2,1,0,1,0,7041.48,0.221532,0.221238,0.968993,4,0.0172436,10,0.000214378,-3.01368,-0.907083,-0.0650436,-2.46509,0.2212377,
2,1,0,1,0,7041.56,0.22303,0.222694,0.962788,4,0.0173175,10,0.000214407,-3.01647,-2.13996,-0.0275707,-1.03997,0.2226941,
2,1,0,1,0,7041.63,0.224528,0.224214,0.964238,4,0.0173912,10,0.000216196,-3.01582,-1.02576,-0.0575183,-2.16232,0.224214,
2,1,0,1,0,7041.71,0.226026,0.225749,0.961138,4,0.0174648,10,0.000216976,-3.01721,-0.982448,-0.0600541,-2.25593,0.225749,
2,1,0,1,0,7041.78,0.227525,0.227269,0.957613,4,0.0175382,10,0.000217636,-3.01881,-0.916758,-0.0643572,-2.40808,0.227269,
2,1,0,1,0,7041.86,0.229023,0.228739,0.95711,4,0.0176114,10,0.000218928,-3.01904,-0.925918,-0.0637205,-2.38106,0.228739,
2,1,0,1,0,7041.93,0.230521,0.230236,0.9539,4,0.0176844,10,0.000219622,-3.0205,-1.10068,-0.0536033,-2.0012,0.230236,
2,1,0,1,0,7042.01,0.232019,0.231751,0.954557,4,0.0177571,10,0.00022122,-3.0202,-1.65503,-0.035649,-1.32541,0.231751,
2,1,0,1,0,7042.08,0.233517,0.233185,0.951208,4,0.0178299,10,0.000221807,-3.02172,-1.12284,-0.0525452,-1.94943,0.233185,
2,1,0,1,0,7042.16,0.235016,0.234679,0.948041,4,0.0179025,10,0.000222485,-3.02317,-1.50366,-0.0392375,-1.45254,0.234679,
2,1,0,1,0,7042.23,0.236512,0.236212,0.94425,4,0.0179746,10,0.000223043,-3.02491,-2.37915,-0.0247987,-0.91573,0.236212,
2,1,0,1,0,7042.31,0.238012,0.237739,0.942031,4,0.0180468,10,0.000223958,-3.02593,-4.14317,-0.0142403,-0.523516,0.237739,
2,1,0,1,0,7042.38,0.23951,0.23923,0.942327,4,0.0181188,10,0.000225433,-3.0258,-1.91602,-0.030793,-1.1304,0.23923,
2,1,0,1,0,7042.46,0.241008,0.240717,0.937359,4,0.0181907,10,0.000225638,-3.02809,-0.876968,-0.0672772,-2.4684,0.240717,
2,1,0,1,0,7042.53,0.242506,0.242191,0.935562,4,0.0182623,10,0.000226584,-3.02893,-2.65096,-0.0222561,-0.816698,0.242191,
2,1,0,1,0,7042.61,0.244005,0.24369,0.93546,4,0.0183338,10,0.000227962,-3.02897,-1.98361,-0.0297437,-1.08485,0.24369,
2,1,0,1,0,7042.68,0.245503,0.245206,0.937505,4,0.0184052,10,0.000229882,-3.02803,-3.76094,-0.0156876,-0.571232,0.245206,
2,1,0,1,0,7042.76,0.247001,0.246706,0.933208,4,0.0184765,10,0.000230228,-3.03002,-1.10042,-0.0536158,-1.94631,0.246706,
2,1,0,1,0,7042.83,0.248501,0.248219,0.92704,4,0.0185477,10,0.000230109,-3.0329,-2.41574,-0.0244231,-0.88562,0.248219,
2,1,0,1,0,7042.91,0.249997,0.249668,0.926509,4,0.0186184,10,0.00023132,-3.03315,-1.44397,-0.0408595,-1.48077,0.249668,
2,1,0,1,0,7042.98,0.251496,0.25122,0.926992,4,0.0186893,10,0.000232879,-3.03292,-3.37037,-0.0175055,-0.632175,0.25122,
2,1,0,1,0,7043.06,0.252994,0.252721,0.921533,4,0.0187601,10,0.000232891,-3.03549,-1.08392,-0.0544318,-1.95894,0.252721,
2,1,0,1,0,7043.13,0.254492,0.254162,0.921794,4,0.0188306,10,0.000234284,-3.03537,-2.11331,-0.0279183,-1.0059,0.254162,
2,1,0,1,0,7043.21,0.25599,0.255643,0.918959,4,0.0189008,10,0.000234926,-3.0367,-1.36106,-0.0433485,-1.55968,0.255643,
2,1,0,1,0,7043.28,0.257488,0.257203,0.916709,4,0.0189711,10,0.00023578,-3.03777,-2.84213,-0.0207591,-0.742443,0.257203,
2,1,0,1,0,7043.36,0.258987,0.258679,0.917464,4,0.0190413,10,0.000237328,-3.03741,-1.10775,-0.0532609,-1.90311,0.258679,
2,1,0,1,0,7043.43,0.260485,0.260155,0.916876,4,0.0191113,10,0.00023853,-3.03769,-1.0945,-0.053906,-1.92693,0.260155,
2,1,0,1,0,7043.51,0.261983,0.26168,0.913497,4,0.0191811,10,0.000239044,-3.03929,-3.22822,-0.0182763,-0.650523,0.26168,
2,1,0,1,0,7043.58,0.263481,0.263176,0.911984,4,0.0192508,10,0.000240013,-3.04001,-4.22643,-0.0139598,-0.495241,0.263176,
2,1,0,1,0,7043.66,0.264981,0.264666,0.911363,4,0.0193205,10,0.000241207,-3.04031,-2.38911,-0.0246954,-0.877309,0.264666,
2,1,0,1,0,7043.73,0.266476,0.266165,0.905588,4,0.0193899,10,0.000241036,-3.04307,-1.26659,-0.0465816,-1.65359,0.266165,
2,1,0,1,0,7043.81,0.267976,0.26771,0.903208,4,0.0194593,10,0.000241797,-3.04421,-2.22002,-0.0265763,-0.942401,0.26771,
2,1,0,1,0,7043.88,0.269474,0.269189,0.902302,4,0.0195284,10,0.00024289,-3.04465,-3.83551,-0.0153826,-0.541872,0.269189,
2,1,0,1,0,7043.96,0.270972,0.270668,0.907598,4,0.0195975,10,0.000245657,-3.04211,15.5642,0.00379075,0.133027,0.270668,
2,1,0,1,0,7044.03,0.27247,0.272195,0.903743,4,0.0196665,10,0.000245994,-3.04396,-1.451,-0.0406616,-1.42533,0.272195,
2,1,0,1,0,7044.11,0.273968,0.273658,0.89573,4,0.0197353,10,0.000245124,-3.04782,-0.962214,-0.0613169,-2.15035,0.273658,
2,1,0,1,0,7044.18,0.275467,0.275117,0.896866,4,0.0198038,10,0.000246744,-3.04727,-1.0521,-0.0560782,-1.96427,0.275117,
2,1,0,1,0,7044.26,0.276965,0.276684,0.894181,4,0.0198723,10,0.000247406,-3.04857,-1.57582,-0.0374409,-1.30665,0.276684,
2,1,0,1,0,7044.33,0.278463,0.278188,0.894169,4,0.0199407,10,0.000248747,-3.04858,-0.94531,-0.0624134,-2.17269,0.278188,
2,1,0,1,0,7044.41,0.279961,0.279637,0.893794,4,0.0200089,10,0.000249938,-3.04876,-1.46054,-0.0403961,-1.40694,0.279637,
2,1,0,1,0,7044.48,0.28146,0.281097,0.890724,4,0.020077,10,0.000250379,-3.05026,-2.36795,-0.0249161,-0.864471,0.281097,
2,1,0,1,0,7044.56,0.282956,0.282638,0.886213,4,0.0201448,10,0.000250478,-3.05246,-56.3878,-0.00104633,-0.0361597,0.2826381,
2,1,0,1,0,7044.63,0.284456,0.28415,0.885541,4,0.0202128,10,0.000251626,-3.05279,-1.55602,-0.0379173,-1.31085,0.28415,
2,1,0,1,0,7044.7,0.285954,0.285629,0.884431,4,0.0202805,10,0.000252619,-3.05334,-1.56973,-0.0375861,-1.29992,0.285629,
2,1,0,1,0,7044.78,0.287452,0.287113,0.880114,4,0.0203479,10,0.000252692,-3.05546,-1.36124,-0.0433427,-1.49005,0.287113,
2,1,0,1,0,7044.85,0.28895,0.288646,0.878785,4,0.0204153,10,0.000253658,-3.05612,-9.52243,-0.0061959,-0.212507,0.288646,
2,1,0,1,0,7044.93,0.290449,0.290154,0.876335,4,0.0204826,10,0.000254272,-3.05733,-1.89477,-0.0311383,-1.06735,0.290154,
2,1,0,1,0,7045,0.291947,0.291648,0.875402,4,0.0205496,10,0.000255309,-3.05779,-0.882417,-0.0668618,-2.28642,0.291648,
2,1,0,1,0,7045.08,0.293445,0.293164,0.871219,4,0.0206165,10,0.00025541,-3.05987,-1.93542,-0.0304844,-1.03966,0.293164,
2,1,0,1,0,7045.15,0.294943,0.294652,0.871818,4,0.0206832,10,0.000256883,-3.05957,-2.10686,-0.0280038,-0.95192,0.294652,
2,1,0,1,0,7045.23,0.296441,0.296143,0.874646,4,0.0207499,10,0.00025902,-3.05817,-1.86789,-0.0315864,-1.07116,0.296143,
2,1,0,1,0,7045.3,0.29794,0.297688,0.867928,4,0.0208166,10,0.000258372,-3.06152,-1.29229,-0.0456554,-1.54505,0.297688,
2,1,0,1,0,7045.38,0.299436,0.29913,0.86306,4,0.0208829,10,0.000258167,-3.06396,-0.00187439,-31.4769,-429.179,0.29913,
2,1,0,1,0,7045.42,0.299739,0.299424,0.424668,4,0.0209148,10,0.000127156,-3.37195,0.00135956,43.3964,805.04,0.299424,
2,0,0,1,0,7045.5,0.298239,0.297946,-0.0783003,4,0.020919,10,-2.33292e-05,-4.10624,0.00528496,11.1638,279.371,0.297946,
2,0,0,1,0,7045.57,0.296741,0.296449,-0.152938,4,0.0209085,10,-4.53384e-05,-3.81548,-0.00437314,-13.4914,45.6408,0.296449,
2,0,0,1,0,7045.65,0.295243,0.294948,-0.19334,4,0.0208938,10,-5.70252e-05,-3.71368,-0.0164433,-3.58809,24.9328,0.294948,
2,0,0,1,0,7045.72,0.293745,0.293374,-0.225615,4,0.0208765,10,-6.61895e-05,-3.64663,-0.0260113,-2.26825,19.1657,0.293374,
2,0,0,1,0,7045.8,0.292246,0.29193,-0.252203,4,0.0208573,10,-7.36256e-05,-3.59825,-0.0371638,-1.58756,15.2834,0.29193,
2,0,0,1,0,7045.87,0.290748,0.290448,-0.273142,4,0.0208363,10,-7.93335e-05,-3.56361,-0.0447214,-1.31928,13.7911,0.290448,
2,0,0,1,0,7045.95,0.28925,0.288931,-0.289085,4,0.0208137,10,-8.35257e-05,-3.53897,-0.054684,-1.07893,12.137,0.2889314,
2,0,0,1,0,7046.02,0.287752,0.287471,-0.30894,4,0.0207899,10,-8.88113e-05,-3.51013,-0.0676241,-0.872469,10.379,0.287471,
2,0,0,1,0,7046.1,0.286254,0.285944,-0.319848,4,0.020765,10,-9.14586e-05,-3.49506,-0.0707141,-0.834345,10.4691,0.285944,
2,0,0,1,0,7046.17,0.284754,0.284454,-0.338685,4,0.0207389,10,-9.63405e-05,-3.4702,-0.0748482,-0.788262,10.2719,0.2844542,
2,0,0,1,0,7046.25,0.283259,0.282978,-0.350594,4,0.0207117,10,-9.92105e-05,-3.4552,-0.0914479,-0.645176,8.76563,0.282978,
2,0,0,1,0,7046.32,0.281759,0.281431,-0.361416,4,0.0206836,10,-0.000101714,-3.44199,-0.11522,-0.512062,7.18673,0.281431,
2,0,0,1,0,7046.4,0.280261,0.279938,-0.371241,4,0.0206547,10,-0.000103924,-3.43034,-0.106203,-0.555538,8.02187,0.279938,
2,0,0,1,0,7046.47,0.278763,0.278455,-0.384178,4,0.0206251,10,-0.000106976,-3.41547,-0.111669,-0.528346,7.87278,0.278455,
2,0,0,1,0,7046.55,0.277264,0.276958,-0.392345,4,0.0205946,10,-0.000108663,-3.40633,-0.138727,-0.425296,6.50717,0.2769579,
2,0,0,1,0,7046.62,0.275766,0.275438,-0.400734,4,0.0205633,10,-0.000110377,-3.39714,-0.190664,-0.309444,4.85314,0.275438,
2,0,0,1,0,7046.7,0.274268,0.273958,-0.411106,4,0.0205314,10,-0.000112626,-3.38605,-0.187032,-0.315454,5.069,0.273958,
2,0,0,1,0,7046.77,0.27277,0.27249,-0.421857,4,0.020499,10,-0.000114952,-3.37483,-0.153325,-0.384802,6.33377,0.27249,
2,0,0,1,0,7046.85,0.271272,0.270963,-0.430395,4,0.0204657,10,-0.000116621,-3.36613,-0.157187,-0.375348,6.25435,0.270963,
2,0,0,1,0,7046.92,0.269774,0.269498,-0.439268,4,0.0204317,10,-0.000118382,-3.35727,-0.179747,-0.328238,5.57113,0.269498,
2,0,0,1,0,7047,0.268274,0.267942,-0.447315,4,0.0203972,10,-0.000119854,-3.34939,-0.192229,-0.306926,5.33561,0.2679418,
2,0,0,1,0,7047.07,0.266779,0.266533,-0.452126,4,0.0203623,10,-0.000120507,-3.34474,-0.170873,-0.345285,6.10299,0.266533,
2,0,0,1,0,7047.14,0.265279,0.264947,-0.459928,4,0.0203265,10,-0.000121857,-3.33731,-0.171365,-0.344295,6.15466,0.264947,
2,0,0,1,0,7047.22,0.263781,0.2635,-0.469019,4,0.0202902,10,-0.000123586,-3.32881,-0.213561,-0.276268,5.0668,0.2635,
2,0,0,1,0,7047.29,0.262283,0.261941,-0.475885,4,0.0202535,10,-0.000124653,-3.3225,-0.280328,-0.210468,3.89391,0.261941,
2,0,0,1,0,7047.37,0.260784,0.260555,-0.47899,4,0.0202163,10,-0.000124803,-3.31967,-0.212482,-0.277671,5.21566,0.260555,
2,0,0,1,0,7047.44,0.259286,0.258992,-0.489597,4,0.0201785,10,-0.000126802,-3.31016,-0.187072,-0.315387,5.99736,0.258992,
2,0,0,1,0,7047.52,0.257788,0.257496,-0.499855,4,0.0201401,10,-0.000128711,-3.30116,-0.282853,-0.208589,4.03589,0.257496,
2,0,0,1,0,7047.59,0.25629,0.25597,-0.505563,4,0.0201013,10,-0.000129409,-3.29622,-0.335206,-0.176011,3.44182,0.25597,
2,0,0,1,0,7047.67,0.25479,0.254474,-0.505971,4,0.020062,10,-0.000128756,-3.29587,-0.240091,-0.24574,4.87447,0.254474,
2,0,0,1,0,7047.74,0.253294,0.252925,-0.515418,4,0.0200224,10,-0.000130362,-3.28784,-0.297037,-0.198628,3.99374,0.252925,
2,0,0,1,0,7047.82,0.251795,0.251493,-0.522873,4,0.0199821,10,-0.000131499,-3.2816,-0.278044,-0.212197,4.32497,0.251493,
2,0,0,1,0,7047.89,0.250297,0.249987,-0.525583,4,0.0199414,10,-0.000131389,-3.27936,-0.380823,-0.154927,3.18447,0.2499871,
2,0,0,1,0,7047.97,0.248799,0.248483,-0.532682,4,0.0199003,10,-0.000132362,-3.27353,-0.32999,-0.178794,3.70902,0.2484832,
2,0,0,1,0,7048.04,0.247301,0.24697,-0.537318,4,0.0198588,10,-0.000132701,-3.26977,-0.287273,-0.20538,4.31987,0.24697,
2,0,0,1,0,7048.12,0.245802,0.245454,-0.544897,4,0.0198169,10,-0.000133747,-3.26369,-0.279524,-0.211073,4.47518,0.245454,
2,0,0,1,0,7048.19,0.244304,0.244016,-0.549864,4,0.0197743,10,-0.000134175,-3.25974,-0.366918,-0.160799,3.44583,0.244016,
2,0,0,1,0,7048.27,0.242806,0.242498,-0.553567,4,0.0197315,10,-0.000134239,-3.25683,-0.373258,-0.158067,3.42598,0.2424981,
2,0,0,1,0,7048.34,0.241308,0.241,-0.559329,4,0.0196883,10,-0.000134798,-3.25233,-0.312291,-0.188926,4.14519,0.241,
2,0,0,1,0,7048.42,0.23981,0.239511,-0.563987,4,0.0196446,10,-0.000135081,-3.24873,-0.263866,-0.223598,4.93632,0.239511,
2,0,0,1,0,7048.49,0.23831,0.238007,-0.571858,4,0.0196004,10,-0.000136106,-3.24271,-0.311186,-0.189597,4.2397,0.238007,
2,0,0,1,0,7048.57,0.236815,0.236493,-0.575754,4,0.019556,10,-0.000136162,-3.23976,-0.381916,-0.154484,3.48645,0.236493,
2,0,0,1,0,7048.64,0.235315,0.23502,-0.577702,4,0.019511,10,-0.000135771,-3.2383,-0.318051,-0.185505,4.21537,0.23502,
2,0,0,1,0,7048.72,0.233817,0.23344,-0.589899,4,0.0194657,10,-0.000137706,-3.22922,-0.313034,-0.188478,4.33156,0.23344,
2,0,0,1,0,7048.79,0.232319,0.231996,-0.595779,4,0.0194199,10,-0.000138218,-3.22492,-0.417834,-0.141205,3.28287,0.231996,
2,0,0,1,0,7048.87,0.230821,0.230507,-0.597528,4,0.0193736,10,-0.000137734,-3.22364,-0.579829,-0.101754,2.36784,0.230507,
2,0,0,1,0,7048.94,0.229322,0.229008,-0.602094,4,0.019327,10,-0.000137884,-3.22034,-0.40001,-0.147496,3.47489,0.229008,
2,0,0,1,0,7049.02,0.227824,0.227538,-0.610226,4,0.0192801,10,-0.00013885,-3.21451,-0.318614,-0.185177,4.42532,0.227538,
2,0,0,1,0,7049.09,0.226326,0.226059,-0.614801,4,0.0192328,10,-0.000138981,-3.21127,-0.500995,-0.117766,2.83651,0.226059,
2,0,0,1,0,7049.17,0.224828,0.224527,-0.61999,4,0.019185,10,-0.000139205,-3.20762,-0.475487,-0.124083,3.0031,0.224527,
2,0,0,1,0,7049.24,0.22333,0.223057,-0.626994,4,0.0191368,10,-0.000139855,-3.20274,-0.37903,-0.15566,3.80995,0.223057,
2,0,0,1,0,7049.32,0.22183,0.221474,-0.632952,4,0.0190883,10,-0.000140182,-3.19863,-0.391821,-0.150579,3.70749,0.221474,
2,0,0,1,0,7049.39,0.220335,0.220063,-0.635861,4,0.0190394,10,-0.00013993,-3.19664,-0.326123,-0.180914,4.49207,0.220063,
2,0,0,1,0,7049.47,0.218835,0.218542,-0.643007,4,0.0189899,10,-0.000140524,-3.19178,-0.357072,-0.165233,4.14835,0.218542,
2,0,0,1,0,7049.54,0.217337,0.217057,-0.64961,4,0.01894,10,-0.000141002,-3.18735,-0.539,-0.109462,2.7762,0.217057,
2,0,0,1,0,7049.62,0.215839,0.21554,-0.6483,4,0.0188899,10,-0.000139734,-3.18822,-0.374226,-0.157659,4.03388,0.21554,
2,0,0,1,0,7049.69,0.21434,0.213997,-0.660641,4,0.0188394,10,-0.000141375,-3.18003,-0.322653,-0.182859,4.69608,0.213997,
2,0,0,1,0,7049.77,0.212842,0.212533,-0.664059,4,0.0187883,10,-0.000141135,-3.17779,-0.408434,-0.144454,3.74247,0.212533,
2,0,0,1,0,7049.84,0.211344,0.211036,-0.668115,4,0.0187369,10,-0.000140996,-3.17515,-0.668938,-0.0881995,2.30514,0.211036,
2,0,0,1,0,7049.92,0.209846,0.209521,-0.674149,4,0.018685,10,-0.000141249,-3.17124,-0.453997,-0.129957,3.43189,0.209521,
2,0,0,1,0,7049.99,0.208348,0.207981,-0.684016,4,0.0186328,10,-0.000142262,-3.16493,-0.306981,-0.192194,5.11826,0.207981,
2,0,0,1,0,7050.07,0.20685,0.206538,-0.694305,4,0.01858,10,-0.0001434,-3.15845,-0.490176,-0.120365,3.23246,0.2065379,
2,0,0,1,0,7050.14,0.20535,0.205085,-0.693962,4,0.0185264,10,-0.000142321,-3.15866,-0.455487,-0.129532,3.49552,0.205085,
2,0,0,1,0,7050.22,0.203855,0.203564,-0.697219,4,0.0184728,10,-0.000141929,-3.15663,-0.362266,-0.162864,4.46669,0.203564,
2,0,0,1,0,7050.29,0.202355,0.202029,-0.704914,4,0.0184188,10,-0.000142413,-3.15186,-0.367512,-0.160539,4.43206,0.202029,
2,0,0,1,0,7050.37,0.200857,0.200539,-0.712678,4,0.0183641,10,-0.00014292,-3.14711,-0.321979,-0.183242,5.0886,0.200539,
2,0,0,1,0,7050.44,0.199359,0.199045,-0.718953,4,0.018309,10,-0.000143104,-3.1433,-0.387957,-0.152079,4.25996,0.199045,
2,0,0,1,0,7050.52,0.19786,0.197532,-0.72814,4,0.0182534,10,-0.000143831,-3.13779,-0.400333,-0.147377,4.17063,0.197532,
2,0,0,1,0,7050.59,0.196362,0.196056,-0.733704,4,0.0181975,10,-0.000143847,-3.13448,-0.293027,-0.201346,5.75515,0.196056,
2,0,0,1,0,7050.67,0.194864,0.194556,-0.740552,4,0.0181408,10,-0.000144079,-3.13044,-0.29056,-0.203056,5.84509,0.194556,
2,0,0,1,0,7050.74,0.193366,0.193043,-0.750044,4,0.0180835,10,-0.000144791,-3.12491,-0.339226,-0.173925,5.07667,0.1930431,
2,0,0,1,0,7050.82,0.191866,0.191529,-0.756698,4,0.0180257,10,-0.00014493,-3.12108,-0.439559,-0.134225,3.97025,0.191529,
2,0,0,1,0,7050.89,0.19037,0.190019,-0.762161,4,0.0179675,10,-0.000144825,-3.11795,-0.345846,-0.170596,5.09745,0.190019,
2,0,0,1,0,7050.97,0.188871,0.188541,-0.770295,4,0.0179086,10,-0.000145232,-3.11334,-0.268185,-0.219997,6.61677,0.1885408,
2,0,0,1,0,7051.04,0.187373,0.18709,-0.779838,4,0.017849,10,-0.0001459,-3.108,-0.309698,-0.190508,5.79114,0.18709,
2,0,0,1,0,7051.12,0.185875,0.185548,-0.788646,4,0.0177888,10,-0.000146332,-3.10312,-0.357057,-0.16524,5.0875,0.185548,
2,0,0,1,0,7051.19,0.184377,0.184058,-0.793693,4,0.017728,10,-0.000146086,-3.10035,-0.307161,-0.192082,5.97679,0.184058,
2,0,0,1,0,7051.26,0.182878,0.182589,-0.804627,4,0.0176666,10,-0.000146916,-3.09441,-0.278825,-0.211603,6.67612,0.182589,
2,0,0,1,0,7051.34,0.18138,0.181068,-0.820578,4,0.0176041,10,-0.00014858,-3.08588,-0.259439,-0.227414,7.27213,0.181068,
2,0,0,1,0,7051.41,0.179882,0.179584,-0.831777,4,0.0175409,10,-0.000149374,-3.07999,-0.36069,-0.163575,5.29523,0.179584,
2,0,0,1,0,7051.49,0.178384,0.178061,-0.841771,4,0.0174768,10,-0.000149887,-3.07481,-0.261661,-0.225482,7.41413,0.178061,
2,0,0,1,0,7051.56,0.176886,0.176545,-0.852054,4,0.0174122,10,-0.000150426,-3.06953,-0.214335,-0.27527,9.17864,0.176545,
2,0,0,1,0,7051.64,0.175386,0.175064,-0.866948,4,0.0173463,10,-0.000151771,-3.06201,-0.211919,-0.278409,9.39614,0.175064,
2,0,0,1,0,7051.71,0.173891,0.173554,-0.884138,4,0.0172795,10,-0.000153446,-3.05348,-0.191224,-0.308538,10.5978,0.173554,
2,0,0,1,0,7051.79,0.172391,0.172101,-0.895305,4,0.0172116,10,-0.000154083,-3.04803,-0.205146,-0.2876,10.0562,0.172101,
2,0,0,1,0,7051.86,0.170893,0.170576,-0.907096,4,0.0171427,10,-0.000154729,-3.04235,-0.186791,-0.31586,11.2204,0.170576,
2,0,0,1,0,7051.94,0.169395,0.169108,-0.926799,4,0.0170724,10,-0.000156729,-3.03301,-0.162204,-0.363738,13.1404,0.169108,
2,0,0,1,0,7052.01,0.167897,0.167576,-0.947272,4,0.0170007,10,-0.00015874,-3.02353,-0.153411,-0.384588,14.2121,0.167576,
2,0,0,1,0,7052.09,0.166398,0.166031,-0.967523,4,0.0169276,10,-0.000160639,-3.01434,-0.163088,-0.361768,13.6688,0.166031,
2,0,0,1,0,7052.16,0.1649,0.16458,-0.982731,4,0.0168531,10,-0.000161738,-3.00757,-0.147466,-0.400093,15.4755,0.1645804,
2,0,0,1,0,7052.24,0.163402,0.163131,-1.01187,4,0.0167768,10,-0.000165069,-2.99487,-0.132968,-0.443717,17.5406,0.163131,
2,0,0,1,0,7052.31,0.161904,0.161595,-1.04087,4,0.0166984,10,-0.0001682,-2.9826,-0.127651,-0.462197,18.7791,0.161595,
2,0,0,1,0,7052.39,0.160406,0.160074,-1.06932,4,0.0166181,10,-0.00017117,-2.97089,-0.130662,-0.451548,18.8442,0.160074,
2,0,0,1,0,7052.46,0.158906,0.158577,-1.09472,4,0.0165354,10,-0.000173598,-2.9607,-0.108443,-0.544062,23.3654,0.158577,
2,0,0,1,0,7052.54,0.157411,0.157106,-1.13359,4,0.0164506,10,-0.000178093,-2.94555,-0.104567,-0.564233,25.0905,0.157106,
2,0,0,1,0,7052.61,0.155911,0.15558,-1.17243,4,0.0163626,10,-0.000182406,-2.93091,-0.0962648,-0.612893,28.138,0.15558,
2,0,0,1,0,7052.69,0.154413,0.154076,-1.21667,4,0.0162715,10,-0.00018746,-2.91483,-0.0960835,-0.614049,29.1536,0.154076,
2,0,0,1,0,7052.76,0.152915,0.152621,-1.26073,4,0.0161772,10,-0.000192414,-2.89938,-0.0892594,-0.660995,32.6648,0.152621,
2,0,0,1,0,7052.84,0.151417,0.151121,-1.31466,4,0.0160793,10,-0.000198673,-2.88119,-0.0848737,-0.695151,35.772,0.151121,
2,0,0,1,0,7052.91,0.149918,0.149577,-1.37417,4,0.0159773,10,-0.000205543,-2.86196,-0.0773563,-0.762704,40.9174,0.149577,
2,0,0,1,0,7052.99,0.14842,0.148122,-1.43349,4,0.0158706,10,-0.00021233,-2.84361,-0.0707495,-0.833928,47.0367,0.148122,
2,0,0,1,0,7053.06,0.146922,0.146607,-1.50412,4,0.0157591,10,-0.000220514,-2.82272,-0.059867,-0.985517,58.6353,0.1466068,
2,0,0,1,0,7053.14,0.145424,0.14508,-1.62166,4,0.01564,10,-0.000235271,-2.79004,-0.0618569,-0.953814,59.4595,0.14508,
2,0,0,1,0,7053.21,0.143926,0.143621,-1.69261,4,0.0155144,10,-0.000243093,-2.77144,-0.0768287,-0.767942,51.0256,0.143621,
2,0,0,1,0,7053.29,0.142426,0.142117,-1.7762,4,0.0153828,10,-0.000252428,-2.75051,-0.0750187,-0.786471,54.4761,0.142117,
2,0,0,1,0,7053.36,0.140931,0.140628,-1.85681,4,0.0152453,10,-0.000261119,-2.73123,-0.0766918,-0.769313,55.794,0.140628,
2,0,0,1,0,7053.44,0.139431,0.139104,-1.93842,4,0.0151013,10,-0.000269643,-2.71255,-0.0780474,-0.755951,57.4101,0.139104,
2,0,0,1,0,7053.51,0.137933,0.137606,-2.03155,4,0.014951,10,-0.000279554,-2.69217,-0.0801854,-0.735795,58.2909,0.137606,
2,0,0,1,0,7053.59,0.136435,0.136115,-2.12196,4,0.0147939,10,-0.000288831,-2.67326,-0.0844663,-0.698503,57.6584,0.136115,
2,0,0,1,0,7053.66,0.134936,0.134585,-2.20562,4,0.0146301,10,-0.000296843,-2.65647,-0.0940743,-0.627164,53.8186,0.134585,
2,0,0,1,0,7053.74,0.133438,0.133118,-2.28875,4,0.0144602,10,-0.000304673,-2.6404,-0.102983,-0.572908,51.0411,0.133118,
2,0,0,1,0,7053.81,0.13194,0.131634,-2.3628,4,0.0142846,10,-0.000311024,-2.62657,-0.111876,-0.527369,48.555,0.131634,
2,0,0,1,0,7053.89,0.130442,0.130136,-2.43364,4,0.0141035,10,-0.000316704,-2.61374,-0.126321,-0.467063,44.2112,0.130136,
2,0,0,1,0,7053.96,0.128942,0.128602,-2.49739,4,0.0139171,10,-0.000321169,-2.60251,-0.149364,-0.395008,38.2808,0.128602,
2,0,0,1,0,7054.04,0.127446,0.127087,-2.55286,4,0.0137267,10,-0.000324435,-2.59297,-0.173461,-0.340135,33.7299,0.127087,
2,0,0,1,0,7054.11,0.125947,0.125621,-2.59589,4,0.0135326,10,-0.000326098,-2.58571,-0.215461,-0.273831,27.6573,0.125621,
2,0,0,1,0,7054.19,0.124449,0.124145,-2.63249,4,0.0133353,10,-0.000326811,-2.57963,-0.228813,-0.257852,26.414,0.124145,
2,0,0,1,0,7054.26,0.122951,0.122664,-2.66367,4,0.0131353,10,-0.000326737,-2.57452,-0.316604,-0.186353,19.3182,0.122664,
2,0,0,1,0,7054.34,0.121453,0.121111,-2.6901,4,0.0129331,10,-0.000325802,-2.57023,-0.498782,-0.118288,12.3794,0.121111,
2,0,0,1,0,7054.41,0.119955,0.119642,-2.6994,4,0.0127298,10,-0.000322961,-2.56873,-0.784432,-0.0752136,7.92881,0.119642,
2,0,0,1,0,7054.49,0.118456,0.118167,-2.71179,4,0.0125255,10,-0.000320445,-2.56674,-1.21252,-0.048659,5.14197,0.118167,
2,0,0,1,0,7054.56,0.116958,0.116648,-2.71929,4,0.0123205,10,-0.000317199,-2.56555,-15.5013,-0.00380614,0.402924,0.116648,
2,0,0,1,0,7054.64,0.11546,0.115114,-2.71836,4,0.0121155,10,-0.000312921,-2.56569,1.25631,0.046963,-4.96427,0.115114,
2,0,0,1,0,7054.71,0.113962,0.113657,-2.70451,4,0.0119109,10,-0.000307387,-2.56791,0.892597,0.0660993,-6.97162,0.1136575,
2,0,0,1,0,7054.79,0.112462,0.11212,-2.69453,4,0.0117071,10,-0.000302111,-2.56952,0.697144,0.084631,-8.89172,0.11212,
2,0,0,1,0,7054.86,0.110967,0.110666,-2.67831,4,0.0115046,10,-0.000296397,-2.57214,0.59952,0.098412,-10.2781,0.110666,
2,0,0,1,0,7054.94,0.109467,0.109192,-2.66149,4,0.0113028,10,-0.000290615,-2.57487,0.403546,0.146204,-15.153,0.109192,
2,0,0,1,0,7055.01,0.107969,0.107676,-2.64156,4,0.0111028,10,-0.000284432,-2.57814,0.384871,0.153298,-15.7746,0.107676,
2,0,0,1,0,7055.09,0.106471,0.106186,-2.60855,4,0.0109049,10,-0.000276992,-2.5836,0.379422,0.1555,-15.868,0.106186,
2,0,0,1,0,7055.16,0.104973,0.10467,-2.58596,4,0.0107087,10,-0.000270672,-2.58738,0.349545,0.168791,-17.033,0.10467,
2,0,0,1,0,7055.24,0.103474,0.10315,-2.56453,4,0.0105142,10,-0.000264531,-2.59099,0.285379,0.206742,-20.6202,0.10315,
2,0,0,1,0,7055.31,0.101976,0.101655,-2.53235,4,0.0103221,10,-0.000257426,-2.59648,0.25561,0.23082,-22.7648,0.101655,
2,0,0,1,0,7055.38,0.100478,0.100173,-2.49271,4,0.0101327,10,-0.000249701,-2.60333,0.273233,0.215933,-21.0309,0.100173,
2,0,0,1,0,7055.46,0.0989799,0.0986816,-2.46407,4,0.00994564,10,-0.000243158,-2.60835,0.28969,0.203666,-19.5604,0.0986816,
2,0,0,1,0,7055.53,0.0974817,0.0971377,-2.43545,4,0.00976075,10,-0.000236574,-2.61342,0.266999,0.220974,-20.9777,0.0971377,
2,0,0,1,0,7055.61,0.0959821,0.0956622,-2.40256,4,0.00957805,10,-0.000229834,-2.61933,0.252824,0.233364,-21.8707,0.0956622,
2,0,0,1,0,7055.68,0.0944866,0.0941804,-2.36197,4,0.00939843,10,-0.000222452,-2.62673,0.276153,0.21365,-19.7723,0.0941804,
2,0,0,1,0,7055.76,0.0929871,0.0926436,-2.33647,4,0.00922058,10,-0.000216459,-2.63144,0.309793,0.19045,-17.3893,0.0926436,
2,0,0,1,0,7055.83,0.0914889,0.0912112,-2.31573,4,0.00904487,10,-0.00021122,-2.63531,0.286579,0.205877,-18.591,0.0912112,
2,0,0,1,0,7055.91,0.0899907,0.0896763,-2.28406,4,0.00887113,10,-0.000204826,-2.64129,0.271655,0.217188,-19.3397,0.0896763,
2,0,0,1,0,7055.98,0.0884925,0.0881827,-2.25345,4,0.00869957,10,-0.000198716,-2.64715,0.288766,0.204318,-18.0082,0.0881827,
2,0,0,1,0,7056.06,0.0869943,0.0866789,-2.23179,4,0.00853013,10,-0.000193449,-2.65135,0.323264,0.182513,-15.9205,0.08667893,
2,0,0,1,0,7056.13,0.0854961,0.0851913,-2.21063,4,0.00836231,10,-0.000188326,-2.65548,0.345795,0.170621,-14.7337,0.0851913,
2,0,0,1,0,7056.21,0.083998,0.0836794,-2.18893,4,0.00819605,10,-0.000183169,-2.65977,0.324036,0.182079,-15.5506,0.0836794,
2,0,0,1,0,7056.28,0.0824998,0.0821638,-2.16781,4,0.00803137,10,-0.000178116,-2.66398,0.351871,0.167675,-14.2033,0.0821638,
2,0,0,1,0,7056.36,0.081002,0.0807123,-2.14718,4,0.0078684,10,-0.000173304,-2.66813,0.406302,0.145212,-12.1852,0.0807123,
2,0,0,1,0,7056.43,0.0795025,0.0792168,-2.13268,4,0.00770647,10,-0.000168944,-2.67108,0.514774,0.114613,-9.54646,0.0792168,
2,0,0,1,0,7056.51,0.078007,0.077668,-2.11849,4,0.00754614,10,-0.000164539,-2.67397,0.49953,0.118111,-9.7519,0.077668,
2,0,0,1,0,7056.58,0.076507,0.0761809,-2.09993,4,0.00738645,10,-0.000159974,-2.6778,0.454006,0.129954,-10.6405,0.0761809,
2,0,0,1,0,7056.66,0.0750088,0.0746806,-2.08071,4,0.00722849,10,-0.000155389,-2.68179,0.452539,0.130375,-10.6067,0.0746806,
2,0,0,1,0,7056.73,0.0735106,0.073183,-2.06759,4,0.00707162,10,-0.000151312,-2.68454,0.532007,0.110901,-8.94766,0.073183,
2,0,0,1,0,7056.81,0.0720124,0.0717174,-2.05542,4,0.00691572,10,-0.000147409,-2.6871,0.514449,0.114686,-9.19791,0.0717174,
2,0,0,1,0,7056.88,0.0705142,0.0702458,-2.03986,4,0.00676083,10,-0.000143292,-2.6904,0.439724,0.134175,-10.6768,0.0702458,
2,0,0,1,0,7056.96,0.0690161,0.068725,-2.02071,4,0.00660715,10,-0.000138873,-2.6945,0.473707,0.12455,-9.84198,0.06872499,
2,0,0,1,0,7057.03,0.0675179,0.067199,-2.01068,4,0.00645465,10,-0.000135116,-2.69666,0.577029,0.102248,-8.03169,0.067199,
2,0,0,1,0,7057.11,0.0660179,0.0657014,-2.00403,4,0.00630283,10,-0.000131667,-2.6981,0.582032,0.101369,-7.90283,0.0657014,
2,0,0,1,0,7057.18,0.0645224,0.0642423,-1.98603,4,0.00615218,10,-0.000127587,-2.70201,0.442521,0.133327,-10.3094,0.0642423,
2,0,0,1,0,7057.26,0.0630229,0.0627035,-1.96728,4,0.00600231,10,-0.000123356,-2.70613,0.503096,0.117274,-9.01761,0.06270355,
2,0,0,1,0,7057.33,0.0615251,0.0612163,-1.95514,4,0.00585402,10,-0.000119686,-2.70882,0.433952,0.13596,-10.3927,0.0612163,
2,0,0,1,0,7057.41,0.0600269,0.0597343,-1.94187,4,0.00570661,10,-0.000115996,-2.71178,0.443751,0.132957,-10.0774,0.0597343,
2,0,0,1,0,7057.48,0.0585287,0.0582262,-1.92416,4,0.00556023,10,-0.000112037,-2.71576,0.435148,0.135586,-10.1877,0.0582262,
2,0,0,1,0,7057.56,0.0570305,0.0567031,-1.91322,4,0.00541489,10,-0.000108485,-2.71824,0.445817,0.132341,-9.87562,0.0567031,
2,0,0,1,0,7057.63,0.0555323,0.0552397,-1.89587,4,0.00527084,10,-0.000104727,-2.72219,0.444818,0.132639,-9.82915,0.0552397,
2,0,0,1,0,7057.71,0.0540342,0.0536833,-1.88245,4,0.00512785,10,-0.000101056,-2.72528,0.447427,0.131865,-9.69883,0.0536833,
2,0,0,1,0,7057.78,0.052536,0.0522065,-1.87217,4,0.00498571,10,-9.77396e-05,-2.72765,0.470793,0.125321,-9.134,0.05220652,
2,0,0,1,0,7057.86,0.0510378,0.0506908,-1.85588,4,0.00484469,10,-9.40758e-05,-2.73145,0.371256,0.15892,-11.495,0.0506908,
2,0,0,1,0,7057.93,0.0495382,0.0492122,-1.83624,4,0.00470502,10,-9.03654e-05,-2.73607,0.3937,0.14986,-10.7623,0.0492122,
2,0,0,1,0,7058.01,0.0480427,0.0477315,-1.81992,4,0.00456689,10,-8.68677e-05,-2.73995,0.507934,0.116157,-8.24776,0.0477315,
2,0,0,1,0,7058.08,0.0465432,0.0462795,-1.8023,4,0.0044294,10,-8.34095e-05,-2.74417,0.404278,0.145939,-10.275,0.0462795,
2,0,0,1,0,7058.16,0.045045,0.044708,-1.78715,4,0.0042933,10,-7.98998e-05,-2.74784,0.347692,0.16969,-11.8279,0.044708,
2,0,0,1,0,7058.23,0.0435468,0.0432526,-1.76717,4,0.00415863,10,-7.64349e-05,-2.75272,0.352222,0.167508,-11.5732,0.0432526,
2,0,0,1,0,7058.31,0.0420486,0.0417856,-1.75552,4,0.0040254,10,-7.33556e-05,-2.75559,0.368576,0.160076,-10.9592,0.0417856,
2,0,0,1,0,7058.38,0.0405504,0.0402353,-1.7412,4,0.00389326,10,-7.00579e-05,-2.75915,0.344005,0.171509,-11.6113,0.0402353,
2,0,0,1,0,7058.46,0.0390523,0.0387171,-1.71969,4,0.00376214,10,-6.65816e-05,-2.76455,0.304469,0.19378,-12.9677,0.03871711,
2,0,0,1,0,7058.53,0.0375541,0.0372403,-1.70126,4,0.00363252,10,-6.33554e-05,-2.76923,0.318054,0.185503,-12.3388,0.0372403,
2,0,0,1,0,7058.61,0.0360559,0.0357254,-1.68511,4,0.00350446,10,-6.02011e-05,-2.77337,0.329877,0.178855,-11.7818,0.0357254,
2,0,0,1,0,7058.68,0.0345577,0.0342887,-1.66756,4,0.0033774,10,-5.71783e-05,-2.77792,0.38074,0.154962,-10.0926,0.0342887,
2,0,0,1,0,7058.76,0.0330582,0.0327428,-1.65094,4,0.00325135,10,-5.40565e-05,-2.78227,0.314145,0.187811,-12.092,0.0327428,
2,0,0,1,0,7058.83,0.0315626,0.0312581,-1.63648,4,0.00312694,10,-5.11533e-05,-2.78609,0.334697,0.176279,-11.2536,0.03125805,
2,0,0,1,0,7058.91,0.0300631,0.0297304,-1.61965,4,0.00300375,10,-4.81527e-05,-2.79058,0.37714,0.156441,-9.88373,0.0297304,
2,0,0,1,0,7058.98,0.0285649,0.0282718,-1.60197,4,0.0028817,10,-4.52904e-05,-2.79535,0.435057,0.135615,-8.47183,0.0282718,
2,0,0,1,0,7059.06,0.0270667,0.0267574,-1.58947,4,0.0027606,10,-4.25301e-05,-2.79875,0.395202,0.149291,-9.25754,0.0267574,
2,0,0,1,0,7059.13,0.0255685,0.025259,-1.57734,4,0.00264056,10,-3.98421e-05,-2.80207,0.340636,0.173205,-10.6549,0.025259,
2,0,0,1,0,7059.21,0.0240704,0.0237811,-1.55503,4,0.00252178,10,-3.69804e-05,-2.80826,0.386892,0.152497,-9.30632,0.0237811,
2,0,0,1,0,7059.28,0.0225722,0.0222551,-1.54752,4,0.00240391,10,-3.44402e-05,-2.81036,0.493391,0.119581,-7.22549,0.0222551,
2,0,0,1,0,7059.36,0.021074,0.0207911,-1.53879,4,0.00228692,10,-3.19933e-05,-2.81282,0.457982,0.128826,-7.73589,0.02079113,
2,0,0,1,0,7059.43,0.0195758,0.0192955,-1.52499,4,0.00217076,10,-2.94255e-05,-2.81673,0.466547,0.126461,-7.52658,0.01929551,
2,0,0,1,0,7059.5,0.018078,0.0177696,-1.50953,4,0.00205554,10,-2.68237e-05,-2.82116,0.53845,0.109574,-6.47468,0.0177696,
2,0,0,1,0,7059.58,0.0165785,0.0162751,-1.50234,4,0.00194101,10,-2.44508e-05,-2.82323,0.631837,0.0933785,-5.4908,0.0162751,
2,0,0,1,0,7059.65,0.015083,0.014766,-1.50132,4,0.00182722,10,-2.21685e-05,-2.82353,0.746474,0.0790383,-4.61605,0.014766,
2,0,0,1,0,7059.73,0.013583,0.0132657,-1.49132,4,0.00171363,10,-1.97834e-05,-2.82643,0.578512,0.101986,-5.92892,0.0132657,
2,0,0,1,0,7059.8,0.0120848,0.0117303,-1.48237,4,0.00160089,10,-1.73887e-05,-2.82904,0.723284,0.0815723,-4.72413,0.0117303,
2,0,0,1,0,7059.88,0.0105866,0.0102544,-1.47475,4,0.0014888,10,-1.51227e-05,-2.83128,1.11905,0.0527232,-3.04268,0.0102544,
2,0,0,1,0,7059.95,0.00908846,0.00880669,-1.47096,4,0.00137696,10,-1.29543e-05,-2.8324,0.58841,0.10027,-5.74316,0.00880669,
2,0,0,1,0,7060.03,0.00759027,0.00727177,-1.46467,4,0.00126539,10,-1.06508e-05,-2.83426,0.96243,0.0613032,-3.51074,0.00727177,
2,0,0,1,0,7060.1,0.00609208,0.00575855,-1.46278,4,0.0011546,10,-8.42349e-06,-2.83482,1.1583,0.0509368,-2.9139,0.00575855,
2,0,0,1,0,7060.18,0.00459389,0.00428852,-1.45977,4,0.00104381,10,-6.26028e-06,-2.83571,6.18828,0.00953416,-0.542922,0.00428852,
2,0,0,1,0,7060.25,0.00309391,0.00280738,-1.46412,4,0.000932757,10,-4.11034e-06,-2.83442,-0.809298,-0.0729027,4.17116,0.00280738,
2,0,0,1,0,7060.33,0.0015984,0.00125134,-1.48327,4,0.000820744,10,-1.85607e-06,-2.82878, , , ,0.00125134,
2,0,0,1,0,7060.4,0.000199195,-0.000133373,-1.46643,4,0.000716341,10,1.95582e-07,-2.83374, , , ,-0.000133373,