File: Figure_codes/Fig_3-5/rawdata_trumpetplot_data/after 10th/20221101_1-115_003_TrumpetPlot_ParaChange_from10_every3_09_CV_C01_12.csv
mode,ox/red,error,control changes,counter inc.,time/s,control/V,Ewe/V,<I>/mA,cycle number,(Q-Qo)/C,I Range,P/W,log(|I|),Tafel slope mV/dec,alpha_eff,dI/d(E-IR),E-IR/V,
2,0,0,0,0,24824.1,2.44065e-05,-0.000306236,-5.31867,13,0.0000000E+000,10,1.62877e-06,-2.2742, , , ,-0.000306236,
2,0,0,1,0,24824.1,0.00179726,0.00141951,-2.67044,13,-6.69883e-05,10,-3.79071e-06,-2.57342, , , ,0.00141951,
2,0,0,1,0,24824.1,0.00379485,0.00343737,-0.909332,13,-0.000100952,10,-3.12571e-06,-3.04128,-0.00391372,-15.0752,722.039,0.00343737,
2,1,0,1,0,24824.1,0.00579244,0.00546104,0.2477,13,-0.000106631,10,1.3527e-06,-3.60607,0.0511107,1.15436,496.258,0.00546104,
2,1,0,1,0,24824.2,0.00779002,0.00746687,1.09034,13,-9.26622e-05,10,8.14141e-06,-2.96244,0.00476867,12.3724,365.492,0.00746687,
2,1,0,1,0,24824.2,0.00978761,0.00946257,1.71023,13,-6.43404e-05,10,1.61831e-05,-2.76695,0.0131776,4.47728,275.467,0.00946257,
2,1,0,1,0,24824.2,0.0117852,0.0114563,2.1893,13,-2.50623e-05,10,2.50813e-05,-2.65969,0.0225112,2.62092,215.954,0.0114563,
2,1,0,1,0,24824.2,0.0137828,0.0134466,2.5706,13,2.26805e-05,10,3.45658e-05,-2.58997,0.0336322,1.75427,172.582,0.0134466,
2,1,0,1,0,24824.2,0.0157804,0.0154824,2.88414,13,7.73529e-05,10,4.46535e-05,-2.53998,0.0459758,1.28329,142.596,0.0154824,
2,1,0,1,0,24824.3,0.017778,0.0174607,3.14299,13,0.00013748,10,5.4879e-05,-2.50266,0.0606028,0.973553,118.296,0.0174607,
2,1,0,1,0,24824.3,0.0197755,0.0194603,3.35471,13,0.000202497,10,6.52838e-05,-2.47435,0.0748742,0.787988,102.801,0.0194603,
2,1,0,1,0,24824.3,0.0217731,0.0214292,3.55096,13,0.000271644,10,7.60943e-05,-2.44965,0.088933,0.663421,91.5187,0.0214292,
2,1,0,1,0,24824.3,0.0237707,0.0234637,3.72109,13,0.000344416,10,8.73105e-05,-2.42933,0.104685,0.563597,81.6903,0.0234637,
2,1,0,1,0,24824.3,0.0257683,0.0254803,3.88189,13,0.00042011,10,9.89117e-05,-2.41096,0.116458,0.506622,76.5106,0.0254803,
2,1,0,1,0,24824.4,0.0277659,0.0273986,4.02215,13,0.000499157,10,0.000110201,-2.39554,0.131015,0.450329,70.6743,0.0273986,
2,1,0,1,0,24824.4,0.0297635,0.0294726,4.16404,13,0.000581034,10,0.000122725,-2.38048,0.147709,0.399434,64.7087,0.0294726,
2,1,0,1,0,24824.4,0.0317611,0.0314234,4.28259,13,0.000665509,10,0.000134574,-2.36829,0.153955,0.38323,64.1566,0.03142339,
2,1,0,1,0,24824.4,0.0337586,0.033426,4.41768,13,0.000752086,10,0.000147666,-2.35481,0.163709,0.360396,61.9906,0.033426,
2,1,0,1,0,24824.4,0.0357562,0.0354887,4.5346,13,0.00084166,10,0.000160927,-2.34346,0.185307,0.31839,56.287,0.0354887,
2,1,0,1,0,24824.5,0.0377538,0.0374456,4.64393,13,0.000933559,10,0.000173895,-2.33311,0.187453,0.314745,57.0793,0.0374456,
2,1,0,1,0,24824.5,0.0397514,0.0394531,4.76088,13,0.00102773,10,0.000187831,-2.32231,0.174189,0.338713,63.0177,0.0394531,
2,1,0,1,0,24824.5,0.041749,0.0413935,4.89272,13,0.00112381,10,0.000202527,-2.31045,0.194418,0.303469,57.7437,0.0413935,
2,1,0,1,0,24824.5,0.0437466,0.0434571,4.99209,13,0.00122276,10,0.000216942,-2.30172,0.219376,0.268945,52.4544,0.0434571,
2,1,0,1,0,24824.5,0.0457442,0.0454179,5.10382,13,0.00132376,10,0.000231804,-2.2921,0.214575,0.274962,54.7398,0.0454179,
2,1,0,1,0,24824.6,0.0477418,0.0474702,5.21177,13,0.00142699,10,0.000247404,-2.28301,0.213199,0.276737,56.3379,0.0474702,
2,1,0,1,0,24824.6,0.0497484,0.0494431,5.33059,13,0.00153242,10,0.000263561,-2.27322,0.223725,0.263717,54.7465,0.0494431,
2,1,0,1,0,24824.6,0.0517369,0.0514258,5.42832,13,0.00163947,10,0.000279156,-2.26533,0.237769,0.24814,52.6312,0.0514258,
2,1,0,1,0,24824.6,0.0537345,0.0534283,5.54033,13,0.00174917,10,0.000296011,-2.25646,0.245178,0.240641,51.9481,0.0534283,
2,1,0,1,0,24824.6,0.0557321,0.0554196,5.63579,13,0.00186096,10,0.000312333,-2.24904,0.262062,0.225137,49.5399,0.0554196,
2,1,0,1,0,24824.7,0.0577206,0.0574038,5.73728,13,0.00197411,10,0.000329342,-2.24129,0.256359,0.230146,51.5314,0.0574038,
2,1,0,1,0,24824.7,0.0597273,0.0593811,5.83994,13,0.00209003,10,0.000346782,-2.23359,0.271832,0.217045,49.4394,0.0593811,
2,1,0,1,0,24824.7,0.0617249,0.0614443,5.93704,13,0.00220789,10,0.000364797,-2.22643,0.291695,0.202266,46.8414,0.0614443,
2,1,0,1,0,24824.7,0.0637224,0.0634159,6.02893,13,0.00232759,10,0.00038233,-2.21976,0.29888,0.197404,46.4518,0.0634159,
2,1,0,1,0,24824.7,0.06572,0.0654474,6.12299,13,0.00244916,10,0.000400734,-2.21304,0.288647,0.204402,48.8642,0.0654474,
2,1,0,1,0,24824.8,0.0677176,0.0673898,6.22312,13,0.00257223,10,0.000419375,-2.20599,0.298384,0.197732,47.9711,0.0673898,
2,1,0,1,0,24824.8,0.0697152,0.0693616,6.31076,13,0.00269772,10,0.000437725,-2.19992,0.329983,0.178797,44.0395,0.0693616,
2,1,0,1,0,24824.8,0.0717128,0.0714131,6.4003,13,0.00282487,10,0.000457065,-2.1938,0.343492,0.171765,42.8871,0.0714131,
2,1,0,1,0,24824.8,0.0737104,0.0734368,6.48553,13,0.00295377,10,0.000476277,-2.18805,0.346581,0.170234,43.0913,0.0734368,
2,1,0,1,0,24824.8,0.075708,0.0754097,6.57252,13,0.00308385,10,0.000495631,-2.18227,0.366763,0.160867,41.2262,0.0754097,
2,1,0,1,0,24824.9,0.0777056,0.0773878,6.64842,13,0.00321609,10,0.000514507,-2.17728,0.376044,0.156897,40.7421,0.0773878,
2,1,0,1,0,24824.9,0.0797031,0.0794132,6.73563,13,0.00334997,10,0.000534898,-2.17162,0.39151,0.150699,39.5685,0.0794132,
2,1,0,1,0,24824.9,0.0817007,0.0814191,6.80793,13,0.00348539,10,0.000554296,-2.16698,0.424607,0.138952,36.9219,0.0814191,
2,1,0,1,0,24824.9,0.0836983,0.0833788,6.88204,13,0.00362161,10,0.000573816,-2.16228,0.437423,0.134881,36.2109,0.0833788,
2,1,0,1,0,24824.9,0.0856959,0.0853572,6.95053,13,0.00375997,10,0.000593278,-2.15798,0.457161,0.129057,35.0167,0.0853572,
2,1,0,1,0,24825,0.0876935,0.0874054,7.02304,13,0.00389973,10,0.000613852,-2.15347,0.486008,0.121397,33.2447,0.0874054,
2,1,0,1,0,24825,0.0896911,0.0893664,7.08382,13,0.00404081,10,0.000633055,-2.14973,0.441671,0.133584,36.9969,0.0893664,
2,1,0,1,0,24825,0.0916887,0.091394,7.17061,13,0.00418268,10,0.000655351,-2.14444,0.40698,0.14497,40.5373,0.091394,
2,1,0,1,0,24825,0.0936863,0.0933834,7.24666,13,0.00432688,10,0.000676718,-2.13986,0.467898,0.126096,35.6323,0.0933834,
2,1,0,1,0,24825,0.0956838,0.0953394,7.31119,13,0.00447253,10,0.000697045,-2.13601,0.420505,0.140308,40.1176,0.0953394,
2,1,0,1,0,24825.1,0.0976814,0.0973731,7.40671,13,0.00461977,10,0.000721215,-2.13037,0.344424,0.171301,49.5412,0.0973731,
2,1,0,1,0,24825.1,0.099679,0.099364,7.51057,13,0.00476812,10,0.000746281,-2.12433,0.344804,0.171112,50.1273,0.099364,
2,1,0,1,0,24825.1,0.101677,0.101367,7.60693,13,0.00491932,10,0.000771095,-2.11879,0.326562,0.18067,53.7139,0.101367,
2,1,0,1,0,24825.1,0.103674,0.10338,7.72628,13,0.00507271,10,0.000798741,-2.11203,0.279146,0.211359,63.7813,0.1033798,
2,1,0,1,0,24825.1,0.105672,0.10532,7.85904,13,0.0052286,10,0.000827715,-2.10463,0.266325,0.221534,67.9677,0.10532,
2,1,0,1,0,24825.2,0.107667,0.107378,7.99802,13,0.00538635,10,0.000858811,-2.09702,0.267649,0.220438,68.7998,0.107378,
2,1,0,1,0,24825.2,0.109667,0.109359,8.13693,13,0.00554773,10,0.000889847,-2.08954,0.255443,0.230972,73.3936,0.109359,
2,1,0,1,0,24825.2,0.111665,0.111327,8.28788,13,0.00571197,10,0.000922667,-2.08156,0.243807,0.241995,78.3048,0.111327,
2,1,0,1,0,24825.2,0.113662,0.113324,8.44744,13,0.00587942,10,0.000957301,-2.07328,0.237538,0.248382,81.8972,0.113324,
2,1,0,1,0,24825.2,0.11566,0.115278,8.61142,13,0.00605005,10,0.000992707,-2.06493,0.236369,0.24961,83.9255,0.115278,
2,1,0,1,0,24825.3,0.117657,0.11735,8.78529,13,0.00622331,10,0.00103095,-2.05624,0.253085,0.233123,79.8166,0.11735,
2,1,0,1,0,24825.3,0.119655,0.11935,8.93642,13,0.0064006,10,0.00106656,-2.04884,0.280269,0.210512,73.3909,0.11935,
2,1,0,1,0,24825.3,0.121652,0.121401,9.08257,13,0.00658085,10,0.00110263,-2.04179,0.291673,0.202281,71.6691,0.121401,
2,1,0,1,0,24825.3,0.12365,0.123334,9.222,13,0.00676398,10,0.00113739,-2.03518,0.291495,0.202405,72.8659,0.123334,
2,1,0,1,0,24825.3,0.125648,0.125314,9.36774,13,0.00694912,10,0.00117391,-2.02837,0.333573,0.176873,64.5349,0.125314,
2,1,0,1,0,24825.4,0.127645,0.127291,9.47735,13,0.00713761,10,0.00120638,-2.02331,0.377676,0.156219,57.8126,0.127291,
2,1,0,1,0,24825.4,0.129643,0.129303,9.59834,13,0.00732838,10,0.0012411,-2.0178,0.403821,0.146104,54.6659,0.129303,
2,1,0,1,0,24825.4,0.13164,0.131324,9.69782,13,0.0075214,10,0.00127356,-2.01333,0.452568,0.130367,49.3398,0.131324,
2,1,0,1,0,24825.4,0.133638,0.133341,9.79759,13,0.00771552,10,0.00130643,-2.00888,0.499219,0.118184,45.1458,0.133341,
2,1,0,1,0,24825.4,0.135636,0.13533,9.87868,13,0.00791233,10,0.00133688,-2.0053,0.549119,0.107445,41.4276,0.13533,
2,1,0,1,0,24825.5,0.137633,0.137313,9.96212,13,0.00811076,10,0.00136793,-2.00165,0.615813,0.0958082,37.211,0.137313,
2,1,0,1,0,24825.5,0.139631,0.139273,10.0254,13,0.00831073,10,0.00139627,-1.9989,0.690541,0.0854403,33.4434,0.139273,
2,1,0,1,0,24825.5,0.141628,0.141358,10.0974,13,0.00851094,10,0.00142735,-1.99579,0.843364,0.0699579,27.5245,0.141358,
2,1,0,1,0,24825.5,0.143626,0.143346,10.1375,13,0.00871326,10,0.00145317,-1.99407,1.77896,0.0331654,13.1028,0.143346,
2,1,0,1,0,24825.5,0.145623,0.145284,10.1488,13,0.00891617,10,0.00147447,-1.99358,-7.05233,-0.00836602,-3.30775,0.145284,
2,1,0,1,0,24825.6,0.147621,0.147323,10.1244,13,0.00911893,10,0.00149155,-1.99463,-1.31034,-0.0450266,-17.7719,0.147323,
2,1,0,1,0,24825.6,0.149619,0.149258,10.0782,13,0.00932003,10,0.00150426,-1.99662,-0.572168,-0.103117,-40.4173,0.149258,
2,1,0,1,0,24825.6,0.151616,0.151325,9.96261,13,0.00952053,10,0.00150759,-2.00163,-0.322297,-0.183061,-70.9695,0.151325,
2,1,0,1,0,24825.6,0.153614,0.153311,9.79064,13,0.00971816,10,0.00150101,-2.00919,-0.223173,-0.264369,-100.72,0.153311,
2,1,0,1,0,24825.6,0.155611,0.155281,9.56416,13,0.00991178,10,0.00148513,-2.01935,-0.177431,-0.332525,-123.814,0.155281,
2,1,0,1,0,24825.7,0.157609,0.157312,9.29519,13,0.0100994,10,0.00146225,-2.03174,-0.1363,-0.432869,-156.234,0.157312,
2,1,0,1,0,24825.7,0.159607,0.159281,8.93923,13,0.0102818,10,0.00142385,-2.0487,-0.112998,-0.522131,-181.895,0.159281,
2,1,0,1,0,24825.7,0.161604,0.161313,8.56752,13,0.0104569,10,0.00138205,-2.06715,-0.100382,-0.587756,-195.984,0.1613126,
2,1,0,1,0,24825.7,0.163602,0.163254,8.16055,13,0.0106242,10,0.00133224,-2.08828,-0.0922638,-0.639471,-203.564,0.163254,
2,1,0,1,0,24825.7,0.165606,0.165283,7.75934,13,0.0107834,10,0.00128248,-2.11018,-0.0895472,-0.65887,-199.409,0.165283,
2,1,0,1,0,24825.8,0.167597,0.167253,7.36308,13,0.0109337,10,0.0012315,-2.13294,-0.0881211,-0.669533,-192.505,0.167253,
2,1,0,1,0,24825.8,0.169595,0.169286,6.98864,13,0.0110772,10,0.00118308,-2.15561,-0.0905541,-0.651544,-177.967,0.169286,
2,1,0,1,0,24825.8,0.171592,0.171277,6.647,13,0.0112135,10,0.00113848,-2.17737,-0.0929153,-0.634987,-164.967,0.1712767,
2,1,0,1,0,24825.8,0.173581,0.173244,6.33576,13,0.0113425,10,0.00109763,-2.1982,-0.101046,-0.58389,-144.756,0.173244,
2,1,0,1,0,24825.8,0.175587,0.175285,6.06672,13,0.0114665,10,0.00106341,-2.21705,-0.110757,-0.532699,-126.341,0.175285,
2,1,0,1,0,24825.9,0.177585,0.177281,5.82567,13,0.0115854,10,0.00103278,-2.23465,-0.118147,-0.499376,-113.744,0.177281,
2,1,0,1,0,24825.9,0.179582,0.179285,5.61178,13,0.0116997,10,0.00100611,-2.2509,-0.131817,-0.44759,-98.2608,0.179285,
2,1,0,1,0,24825.9,0.18158,0.181315,5.42933,13,0.01181,10,0.000984419,-2.26525,-0.144043,-0.409599,-86.9193,0.181315,
2,1,0,1,0,24825.9,0.183578,0.183255,5.26673,13,0.0119165,10,0.000965154,-2.27846,-0.156664,-0.376602,-77.5259,0.183255,
2,1,0,1,0,24825.9,0.185575,0.185265,5.1231,13,0.0120204,10,0.000949131,-2.29047,-0.171206,-0.344613,-68.973,0.185265,
2,1,0,1,0,24826,0.187573,0.18723,4.99255,13,0.0121216,10,0.000934755,-2.30168,-0.195034,-0.302511,-59.0944,0.18723,
2,1,0,1,0,24826,0.18957,0.189217,4.88957,13,0.0122204,10,0.000925188,-2.31073,-0.223476,-0.26401,-50.3884,0.1892167,
2,1,0,1,0,24826,0.191568,0.191256,4.78967,13,0.0123168,10,0.000916055,-2.31969,-0.236393,-0.249585,-46.7108,0.191256,
2,1,0,1,0,24826,0.193566,0.193217,4.70269,13,0.0124117,10,0.000908642,-2.32765,-0.256559,-0.229967,-42.2324,0.193217,
2,1,0,1,0,24826,0.195563,0.195213,4.62257,13,0.012505,10,0.000902386,-2.33512,-0.278758,-0.211653,-38.21,0.195213,
2,1,0,1,0,24826.1,0.197561,0.197219,4.5498,13,0.0125968,10,0.000897306,-2.34201,-0.335666,-0.17577,-31.2746,0.197219,
2,1,0,1,0,24826.1,0.199558,0.19925,4.49632,13,0.0126868,10,0.000895891,-2.34714,-0.352385,-0.167431,-29.347,0.19925,
2,1,0,1,0,24826.1,0.201556,0.201193,4.43318,13,0.0127761,10,0.000891923,-2.35329,-0.351465,-0.167869,-29.0726,0.201193,
2,1,0,1,0,24826.1,0.203553,0.20327,4.37945,13,0.0128642,10,0.00089021,-2.35858,-0.40585,-0.145374,-24.864,0.20327,
2,1,0,1,0,24826.1,0.205551,0.205255,4.33217,13,0.0129513,10,0.0008892,-2.36329,-0.551147,-0.107049,-18.1458,0.205255,
2,1,0,1,0,24826.2,0.207549,0.207235,4.3075,13,0.0130372,10,0.000892664,-2.36578,-0.553059,-0.106679,-17.8867,0.207235,
2,1,0,1,0,24826.2,0.209546,0.209264,4.26047,13,0.0131229,10,0.000891562,-2.37054,-0.443585,-0.133007,-22.1266,0.209264,
2,1,0,1,0,24826.2,0.211544,0.211278,4.21805,13,0.0132076,10,0.000891179,-2.37489,-0.536994,-0.109871,-18.1146,0.211278,
2,1,0,1,0,24826.2,0.213541,0.213217,4.18886,13,0.0132916,10,0.000893136,-2.3779,-0.66859,-0.0882454,-14.4292,0.213217,
2,1,0,1,0,24826.2,0.215539,0.215194,4.16154,13,0.0133746,10,0.000895538,-2.38075,-0.628407,-0.0938882,-15.2363,0.215194,
2,1,0,1,0,24826.3,0.217537,0.217233,4.12767,13,0.0134575,10,0.000896666,-2.3843,-0.62097,-0.0950127,-15.3168,0.217233,
2,1,0,1,0,24826.3,0.219534,0.219211,4.10001,13,0.0135398,10,0.000898767,-2.38721,-0.732959,-0.0804956,-12.8862,0.219211,
2,1,0,1,0,24826.3,0.221532,0.221217,4.07633,13,0.0136216,10,0.000901753,-2.38973,-0.844109,-0.0698962,-11.123,0.221217,
2,1,0,1,0,24826.3,0.223525,0.223231,4.0553,13,0.0137025,10,0.000905268,-2.39198,-0.849378,-0.0694626,-10.9906,0.223231,
2,1,0,1,0,24826.3,0.225527,0.225233,4.0322,13,0.0137834,10,0.000908182,-2.39446,-0.917514,-0.0643042,-10.1264,0.225233,
2,1,0,1,0,24826.4,0.227525,0.227217,4.01493,13,0.013864,10,0.000912261,-2.39632,-0.825466,-0.0714747,-11.185,0.2272172,
2,1,0,1,0,24826.4,0.229522,0.229236,3.98742,13,0.0139441,10,0.000914059,-2.39931,-0.966637,-0.0610364,-9.51833,0.229236,
2,1,0,1,0,24826.4,0.23152,0.231221,3.97682,13,0.0140237,10,0.000919525,-2.40046,-1.97133,-0.0299291,-4.64669,0.231221,
2,1,0,1,0,24826.4,0.233517,0.233202,3.96899,13,0.0141029,10,0.000925577,-2.40132,-1.20753,-0.0488601,-7.55443,0.233202,
2,1,0,1,0,24826.4,0.235515,0.235214,3.94665,13,0.0141821,10,0.000928309,-2.40377,-0.873379,-0.0675537,-10.4087,0.235214,
2,1,0,1,0,24826.5,0.237512,0.237219,3.92718,13,0.0142608,10,0.000931602,-2.40592,-1.20917,-0.0487939,-7.48688,0.237219,
2,1,0,1,0,24826.5,0.23951,0.239225,3.91662,13,0.0143393,10,0.000936956,-2.40709,-2.18334,-0.0270228,-4.13301,0.239225,
2,1,0,1,0,24826.5,0.241508,0.241185,3.91079,13,0.0144172,10,0.000943224,-2.40774,-1.47437,-0.0400172,-6.09772,0.241185,
2,1,0,1,0,24826.5,0.243505,0.243221,3.89226,13,0.0144952,10,0.00094668,-2.4098,-1.48927,-0.0396167,-6.0277,0.243221,
2,1,0,1,0,24826.5,0.245503,0.245221,3.88646,13,0.014573,10,0.000953042,-2.41045,-1.57533,-0.0374524,-5.67264,0.245221,
2,1,0,1,0,24826.6,0.2475,0.247193,3.86973,13,0.0146505,10,0.000956569,-2.41232,-1.4695,-0.0401497,-6.07114,0.2471929,
2,1,0,1,0,24826.6,0.249498,0.249132,3.86272,13,0.0147275,10,0.000962326,-2.41311,-1.833,-0.0321877,-4.84887,0.249132,
2,1,0,1,0,24826.6,0.251496,0.251199,3.8503,13,0.0148046,10,0.000967192,-2.41451,-1.60402,-0.0367827,-5.52879,0.251199,
2,1,0,1,0,24826.6,0.253493,0.253207,3.84019,13,0.0148815,10,0.000972362,-2.41565,-1.34211,-0.0439607,-6.58317,0.253207,
2,1,0,1,0,24826.6,0.255491,0.255195,3.824,13,0.0149582,10,0.000975864,-2.41748,-2.21864,-0.0265929,-3.97733,0.2551949,
2,1,0,1,0,24826.7,0.257488,0.257157,3.82447,13,0.0150343,10,0.000983492,-2.41743,-2.62949,-0.0224378,-3.34275,0.257157,
2,1,0,1,0,24826.7,0.259486,0.259179,3.81068,13,0.0151106,10,0.000987649,-2.419,-1.07917,-0.0546714,-8.12515,0.259179,
2,1,0,1,0,24826.7,0.261484,0.261185,3.79175,13,0.0151868,10,0.000990349,-2.42116,-1.67538,-0.0352159,-5.22303,0.261185,
2,1,0,1,0,24826.7,0.263481,0.263143,3.78998,13,0.0152626,10,0.000997304,-2.42136,-6.02871,-0.0097865,-1.4471,0.263143,
2,1,0,1,0,24826.7,0.265479,0.265186,3.78596,13,0.015338,10,0.00100398,-2.42182,-2.07027,-0.0284987,-4.20581,0.265186,
2,1,0,1,0,24826.8,0.267476,0.267183,3.77298,13,0.0154137,10,0.00100808,-2.42332,-1.44933,-0.0407083,-5.99579,0.267183,
2,1,0,1,0,24826.8,0.269474,0.269179,3.76202,13,0.015489,10,0.00101266,-2.42458,-2.20399,-0.0267697,-3.93358,0.269179,
2,1,0,1,0,24826.8,0.271471,0.271166,3.75732,13,0.0155642,10,0.00101886,-2.42512,-5.22082,-0.0113009,-1.65773,0.271166,
2,1,0,1,0,24826.8,0.273469,0.273197,3.75536,13,0.0156389,10,0.00102595,-2.42535,-1.69795,-0.0347477,-5.08138,0.273197,
2,1,0,1,0,24826.8,0.275467,0.275196,3.73684,13,0.0157138,10,0.00102836,-2.4275,-1.30142,-0.045335,-6.62081,0.275196,
2,1,0,1,0,24826.9,0.277464,0.2772,3.72885,13,0.0157885,10,0.00103364,-2.42842,-2.48734,-0.0237201,-3.45297,0.2772,
2,1,0,1,0,24826.9,0.279462,0.279133,3.72324,13,0.015863,10,0.00103928,-2.42908,-2.00103,-0.0294849,-4.28107,0.279133,
2,1,0,1,0,24826.9,0.281464,0.281147,3.71195,13,0.0159373,10,0.00104361,-2.4304,-2.31774,-0.0254559,-3.69155,0.281147,
2,1,0,1,0,24826.9,0.283457,0.28314,3.70845,13,0.0160112,10,0.00105001,-2.43081,-2.12533,-0.0277604,-4.01273,0.28314,
2,1,0,1,0,24826.9,0.285455,0.285197,3.6957,13,0.0160852,10,0.001054,-2.4323,-1.16031,-0.0508486,-7.33053,0.285197,
2,1,0,1,0,24827,0.287452,0.287088,3.67951,13,0.016159,10,0.00105634,-2.43421,-1.4474,-0.0407628,-5.86092,0.287088,
2,1,0,1,0,24827,0.28945,0.289135,3.67262,13,0.0162326,10,0.00106188,-2.43502,-3.22052,-0.01832,-2.62694,0.289135,
2,1,0,1,0,24827,0.291447,0.291144,3.66886,13,0.0163057,10,0.00106817,-2.43547,-1.57088,-0.0375586,-5.36756,0.291144,
2,1,0,1,0,24827,0.293445,0.293134,3.65116,13,0.016379,10,0.00107028,-2.43757,-1.66021,-0.0355376,-5.07436,0.293134,
2,1,0,1,0,24827,0.295442,0.295135,3.6486,13,0.016452,10,0.00107683,-2.43787,-2.62938,-0.0224388,-3.19173,0.2951355,
2,1,0,1,0,24827.1,0.29744,0.297167,3.63828,13,0.0165249,10,0.00108118,-2.4391,-2.0215,-0.0291862,-4.14648,0.297167,
2,1,0,1,0,24827.1,0.299438,0.299132,3.63203,13,0.0165974,10,0.00108646,-2.43985,-0.0285478,-2.06671,-268.478,0.299132,
2,1,0,1,0,24827.1,0.299737,0.299407,3.03707,13,0.0166268,10,0.00090932,-2.51754,0.00284686,20.7246,1619.03,0.299407,
2,1,0,1,0,24827.1,0.29774,0.297477,0.952229,13,0.0166632,10,0.000283266,-3.02126,0.00179692,32.8339,771.402,0.297477,
2,1,0,1,0,24827.1,0.295742,0.295445,-0.0189567,13,0.0166715,10,-5.60068e-06,-4.72224,0.0185584,3.17915,370.554,0.295445,
2,0,0,1,0,24827.1,0.293745,0.293365,-0.571668,13,0.0166651,10,-0.000167707,-3.24286,-0.0023786,-24.8045,223.512,0.293365,
2,0,0,1,0,24827.2,0.291747,0.291442,-0.91375,13,0.01665,10,-0.000266305,-3.03917,-0.0126745,-4.65503,151.006,0.291442,
2,0,0,1,0,24827.2,0.289754,0.289472,-1.15944,13,0.0166294,10,-0.000335626,-2.93575,-0.0249486,-2.36486,102.304,0.289472,
2,0,0,1,0,24827.2,0.287752,0.287382,-1.32906,13,0.0166044,10,-0.000381948,-2.87646,-0.0404132,-1.45992,74.2744,0.287382,
2,0,0,1,0,24827.2,0.285754,0.285436,-1.45925,13,0.0165765,10,-0.000416523,-2.83587,-0.0533443,-1.10602,62.4725,0.285436,
2,0,0,1,0,24827.2,0.283757,0.283487,-1.57237,13,0.0165462,10,-0.000445748,-2.80344,-0.0686601,-0.859305,52.3869,0.283487,
2,0,0,1,0,24827.3,0.281759,0.281419,-1.66969,13,0.0165138,10,-0.000469882,-2.77736,-0.0877129,-0.672649,43.538,0.281419,
2,0,0,1,0,24827.3,0.279761,0.27946,-1.74773,13,0.0164797,10,-0.000488419,-2.75753,-0.108243,-0.545072,37.0618,0.27946,
2,0,0,1,0,24827.3,0.277764,0.277447,-1.81687,13,0.0164441,10,-0.000504087,-2.74068,-0.128037,-0.460804,32.604,0.2774474,
2,0,0,1,0,24827.3,0.275766,0.275408,-1.87982,13,0.0164071,10,-0.000517718,-2.72588,-0.145767,-0.404755,29.6269,0.275408,
2,0,0,1,0,24827.3,0.273769,0.273444,-1.93549,13,0.0163689,10,-0.000529248,-2.71321,-0.148471,-0.397384,30.0636,0.273444,
2,0,0,1,0,24827.4,0.271771,0.271464,-1.9984,13,0.0163297,10,-0.000542493,-2.69932,-0.156612,-0.376727,29.3125,0.271464,
2,0,0,1,0,24827.4,0.269774,0.269432,-2.05309,13,0.0162892,10,-0.000553167,-2.68759,-0.191364,-0.308312,24.6392,0.269432,
2,0,0,1,0,24827.4,0.267776,0.267427,-2.09786,13,0.0162477,10,-0.000561026,-2.67822,-0.229375,-0.257221,21.0277,0.267427,
2,0,0,1,0,24827.4,0.265778,0.265448,-2.13686,13,0.0162055,10,-0.000567226,-2.67022,-0.221633,-0.266205,22.253,0.265448,
2,0,0,1,0,24827.4,0.263781,0.263438,-2.18664,13,0.0161624,10,-0.000576044,-2.66022,-0.223212,-0.264322,22.5022,0.263438,
2,0,0,1,0,24827.5,0.261783,0.261466,-2.22646,13,0.0161183,10,-0.000582145,-2.65238,-0.277878,-0.212323,18.4197,0.261466,
2,0,0,1,0,24827.5,0.259786,0.259479,-2.25957,13,0.0160735,10,-0.000586309,-2.64598,-0.256047,-0.230426,20.3835,0.259479,
2,0,0,1,0,24827.5,0.257788,0.257501,-2.30729,13,0.0160279,10,-0.000594129,-2.6369,-0.252529,-0.233637,20.9824,0.257501,
2,0,0,1,0,24827.5,0.25579,0.255488,-2.3433,13,0.0159817,10,-0.000598685,-2.63017,-0.344196,-0.171414,15.6468,0.255488,
2,0,0,1,0,24827.5,0.253793,0.253439,-2.37084,13,0.0159346,10,-0.000600864,-2.6251,-0.372756,-0.15828,14.6542,0.253439,
2,0,0,1,0,24827.6,0.251795,0.251513,-2.40156,13,0.0158869,10,-0.000604022,-2.61951,-0.335937,-0.175628,16.4745,0.251513,
2,0,0,1,0,24827.6,0.249798,0.249449,-2.43658,13,0.0158385,10,-0.000607802,-2.61322,-0.320627,-0.184015,17.5021,0.2494487,
2,0,0,1,0,24827.6,0.2478,0.247431,-2.473,13,0.0157897,10,-0.000611896,-2.60678,-0.348115,-0.169484,16.3311,0.247431,
2,0,0,1,0,24827.6,0.245802,0.24546,-2.50172,13,0.0157401,10,-0.000614072,-2.60176,-0.364276,-0.161965,15.8288,0.24546,
2,0,0,1,0,24827.6,0.243805,0.243477,-2.53559,13,0.0156897,10,-0.000617357,-2.59592,-0.444402,-0.132763,13.0956,0.243477,
2,0,0,1,0,24827.7,0.241807,0.241514,-2.55339,13,0.0156388,10,-0.000616681,-2.59288,-0.410371,-0.143772,14.3883,0.241514,
2,0,0,1,0,24827.7,0.23981,0.23947,-2.59323,13,0.0155877,10,-0.000621002,-2.58616,-0.353348,-0.166974,16.8586,0.23947,
2,0,0,1,0,24827.7,0.237812,0.237502,-2.62104,13,0.0155356,10,-0.000622501,-2.58153,-0.479797,-0.122969,12.5665,0.237502,
2,0,0,1,0,24827.7,0.235815,0.235432,-2.64398,13,0.0154831,10,-0.000622478,-2.57774,-0.499343,-0.118155,12.1979,0.235432,
2,0,0,1,0,24827.7,0.233817,0.233516,-2.66965,13,0.01543,10,-0.000623407,-2.57355,-0.396975,-0.148624,15.5118,0.233516,
2,0,0,1,0,24827.8,0.231815,0.231507,-2.70486,13,0.0153764,10,-0.000626194,-2.56786,-0.403957,-0.146055,15.3932,0.231507,
2,0,0,1,0,24827.8,0.229822,0.229488,-2.73165,13,0.0153223,10,-0.000626883,-2.56357,-0.547717,-0.10772,11.4673,0.229488,
2,0,0,1,0,24827.8,0.227824,0.227505,-2.75075,13,0.0152676,10,-0.00062581,-2.56055,-0.529066,-0.111517,11.9923,0.227505,
2,0,0,1,0,24827.8,0.225827,0.225504,-2.77944,13,0.0152124,10,-0.000626774,-2.55604,-0.529644,-0.111396,12.0634,0.225504,
2,0,0,1,0,24827.8,0.223829,0.223501,-2.79905,13,0.0151567,10,-0.000625592,-2.55299,-0.552181,-0.106849,11.6869,0.223501,
2,0,0,1,0,24827.9,0.221831,0.221525,-2.82594,13,0.0151006,10,-0.000626016,-2.54884,-0.496557,-0.118818,13.0992,0.221525,
2,0,0,1,0,24827.9,0.219834,0.219547,-2.85085,13,0.0150438,10,-0.000625896,-2.54503,-0.467082,-0.126316,14.0702,0.219547,
2,0,0,1,0,24827.9,0.217836,0.217502,-2.88254,13,0.0149865,10,-0.000626959,-2.54022,-0.524866,-0.11241,12.6183,0.217502,
2,0,0,1,0,24827.9,0.215839,0.215503,-2.90188,13,0.0149287,10,-0.000625363,-2.53732,-0.527391,-0.111871,12.6948,0.2155028,
2,0,0,1,0,24827.9,0.213841,0.213534,-2.93292,13,0.0148706,10,-0.000626277,-2.5327,-0.517785,-0.113947,13.0198,0.213534,
2,0,0,1,0,24828,0.211843,0.211512,-2.95384,13,0.0148117,10,-0.000624773,-2.52961,-0.612136,-0.0963839,11.1156,0.211512,
2,0,0,1,0,24828,0.209846,0.209541,-2.9773,13,0.0147524,10,-0.000623866,-2.52618,-0.56931,-0.103634,12.0426,0.209541,
2,0,0,1,0,24828,0.207848,0.20757,-3.00132,13,0.0146926,10,-0.000622982,-2.52269,-0.40621,-0.145245,17.0697,0.20757,
2,0,0,1,0,24828,0.205851,0.205537,-3.04564,13,0.0146324,10,-0.000625993,-2.51632,-0.43006,-0.13719,16.2447,0.205537,
2,0,0,1,0,24828,0.203853,0.203522,-3.06707,13,0.0145714,10,-0.000624216,-2.51328,-0.648996,-0.0909097,10.8827,0.203522,
2,0,0,1,0,24828.1,0.201856,0.201537,-3.08917,13,0.01451,10,-0.000622583,-2.51016,-0.693069,-0.0851286,10.2579,0.201537,
2,0,0,1,0,24828.1,0.199858,0.199515,-3.10817,13,0.014448,10,-0.000620127,-2.50749,-0.481215,-0.122606,14.9245,0.199515,
2,0,0,1,0,24828.1,0.19786,0.19752,-3.14913,13,0.0143857,10,-0.000622016,-2.50181,-0.501697,-0.117601,14.3951,0.19752,
2,0,0,1,0,24828.1,0.195863,0.195574,-3.16491,13,0.0143227,10,-0.000618973,-2.49964,-0.555989,-0.106117,13.1512,0.1955736,
2,0,0,1,0,24828.1,0.193865,0.193496,-3.20205,13,0.014259,10,-0.000619583,-2.49457,-0.474498,-0.124342,15.5104,0.193496,
2,0,0,1,0,24828.2,0.191868,0.191518,-3.22781,13,0.0141947,10,-0.000618184,-2.49109,-0.490544,-0.120275,15.17,0.191518,
2,0,0,1,0,24828.2,0.18987,0.189557,-3.2618,13,0.0141302,10,-0.000618298,-2.48654,-0.475614,-0.12405,15.777,0.189557,
2,0,0,1,0,24828.2,0.187872,0.187572,-3.29006,13,0.0140647,10,-0.000617125,-2.4828,-0.4809,-0.122687,15.7682,0.187572,
2,0,0,1,0,24828.2,0.185875,0.185559,-3.32484,13,0.0139986,10,-0.000616955,-2.47823,-0.467176,-0.126291,16.3782,0.185559,
2,0,0,1,0,24828.2,0.183877,0.183537,-3.35616,13,0.0139318,10,-0.000615979,-2.47416,-0.406597,-0.145107,19.0454,0.183537,
2,0,0,1,0,24828.3,0.18188,0.181527,-3.40164,13,0.0138647,10,-0.000617489,-2.46831,-0.397137,-0.148563,19.6853,0.181527,
2,0,0,1,0,24828.3,0.179882,0.179555,-3.43454,13,0.0137965,10,-0.000616689,-2.46413,-0.508579,-0.11601,15.5404,0.179555,
2,0,0,1,0,24828.3,0.177885,0.177548,-3.46347,13,0.0137275,10,-0.000614933,-2.46049,-0.45083,-0.13087,17.7209,0.177548,
2,0,0,1,0,24828.3,0.175887,0.175582,-3.50494,13,0.0136579,10,-0.000615406,-2.45532,-0.343238,-0.171892,23.5464,0.175582,
2,0,0,1,0,24828.3,0.173896,0.17358,-3.55691,13,0.0135876,10,-0.000617408,-2.44893,-0.338536,-0.17428,24.1634,0.17358,
2,0,0,1,0,24828.4,0.171892,0.171619,-3.6007,13,0.013516,10,-0.000617949,-2.44361,-0.35765,-0.164966,23.1994,0.171619,
2,0,0,1,0,24828.4,0.169894,0.169549,-3.65042,13,0.0134436,10,-0.000618925,-2.43766,-0.327262,-0.180284,25.6973,0.169549,
2,0,0,1,0,24828.4,0.167897,0.167584,-3.70439,13,0.0133702,10,-0.000620797,-2.43128,-0.30469,-0.193639,28.0081,0.167584,
2,0,0,1,0,24828.4,0.165899,0.165548,-3.76249,13,0.0132955,10,-0.000622872,-2.42452,-0.295513,-0.199653,29.3298,0.1655478,
2,0,0,1,0,24828.4,0.163901,0.163486,-3.82458,13,0.01322,10,-0.000625267,-2.41742,-0.267768,-0.22034,32.918,0.163486,
2,0,0,1,0,24828.5,0.161904,0.161542,-3.89435,13,0.0131428,10,-0.000629101,-2.40957,-0.237798,-0.24811,37.7436,0.161542,
2,0,0,1,0,24828.5,0.159906,0.159574,-3.97224,13,0.0130641,10,-0.000633867,-2.40096,-0.220819,-0.267187,41.4606,0.159574,
2,0,0,1,0,24828.5,0.157909,0.157572,-4.05897,13,0.0129839,10,-0.000639578,-2.39158,-0.200732,-0.293925,46.6214,0.1575716,
2,0,0,1,0,24828.5,0.155911,0.155595,-4.15777,13,0.0129021,10,-0.000646926,-2.38114,-0.179744,-0.328245,53.3298,0.155595,
2,0,0,1,0,24828.5,0.153913,0.153636,-4.26883,13,0.0128179,10,-0.000655848,-2.36969,-0.177644,-0.332125,55.3211,0.153636,
2,0,0,1,0,24828.6,0.151916,0.151574,-4.38019,13,0.0127314,10,-0.000663923,-2.35851,-0.162863,-0.362267,62.1028,0.151574,
2,0,0,1,0,24828.6,0.149918,0.149613,-4.51867,13,0.0126425,10,-0.000676054,-2.34499,-0.139525,-0.422863,74.711,0.149613,
2,0,0,1,0,24828.6,0.147921,0.147598,-4.67727,13,0.012551,10,-0.000690355,-2.33001,-0.133701,-0.441284,80.5804,0.147598,
2,0,0,1,0,24828.6,0.145923,0.145589,-4.84297,13,0.0124558,10,-0.000705082,-2.31489,-0.123055,-0.479461,90.8684,0.1455889,
2,0,0,1,0,24828.6,0.143926,0.14361,-5.03962,13,0.0123571,10,-0.00072374,-2.2976,-0.110695,-0.532997,105.078,0.14361,
2,0,0,1,0,24828.7,0.141928,0.141563,-5.26598,13,0.0122541,10,-0.000745469,-2.27852,-0.103496,-0.570072,117.287,0.141563,
2,0,0,1,0,24828.7,0.13993,0.139591,-5.51098,13,0.0121469,10,-0.000769284,-2.25877,-0.0990694,-0.595542,128.218,0.139591,
2,0,0,1,0,24828.7,0.137933,0.137593,-5.77507,13,0.0120341,10,-0.000794607,-2.23844,-0.0977603,-0.603517,136.147,0.137593,
2,0,0,1,0,24828.7,0.135935,0.135571,-6.05836,13,0.0119158,10,-0.000821336,-2.21765,-0.0969709,-0.60843,143.866,0.135571,
2,0,0,1,0,24828.7,0.133938,0.133585,-6.35161,13,0.0117918,10,-0.000848481,-2.19712,-0.0944853,-0.624436,154.98,0.133585,
2,0,0,1,0,24828.8,0.13194,0.131621,-6.67053,13,0.0116623,10,-0.00087798,-2.17584,-0.0952404,-0.619485,161.252,0.131621,
2,0,0,1,0,24828.8,0.129942,0.129574,-6.99839,13,0.0115257,10,-0.000906811,-2.155,-0.10085,-0.58503,159.494,0.129574,
2,0,0,1,0,24828.8,0.127945,0.127609,-7.31036,13,0.0113826,10,-0.000932869,-2.13606,-0.107783,-0.547395,156.006,0.127609,
2,0,0,1,0,24828.8,0.125947,0.125619,-7.61549,13,0.0112333,10,-0.000956648,-2.1183,-0.11301,-0.522079,155.189,0.125619,
2,0,0,1,0,24828.8,0.12395,0.123608,-7.93132,13,0.0110787,10,-0.000980373,-2.10065,-0.120548,-0.489433,151.161,0.123608,
2,0,0,1,0,24828.9,0.121952,0.121621,-8.21971,13,0.0109171,10,-0.000999693,-2.08514,-0.136019,-0.433762,138.86,0.121621,
2,0,0,1,0,24828.9,0.119955,0.119653,-8.48045,13,0.0107501,10,-0.00101471,-2.07158,-0.14861,-0.397012,131.381,0.119653,
2,0,0,1,0,24828.9,0.117957,0.117627,-8.74451,13,0.0105778,10,-0.00102859,-2.05826,-0.159792,-0.36923,125.827,0.117627,
2,0,0,1,0,24828.9,0.115955,0.115616,-8.98847,13,0.0104005,10,-0.00103921,-2.04631,-0.180694,-0.326519,114.324,0.115616,
2,0,0,1,0,24828.9,0.113962,0.113621,-9.20249,13,0.0102194,10,-0.0010456,-2.03609,-0.203168,-0.290401,104.186,0.113621,
2,0,0,1,0,24829,0.111964,0.111664,-9.40018,13,0.0100333,10,-0.00104966,-2.02686,-0.224303,-0.263037,96.4116,0.111664,
2,0,0,1,0,24829,0.109967,0.109667,-9.58366,13,0.00984338,10,-0.00105102,-2.01847,-0.25627,-0.230226,85.9916,0.109667,
2,0,0,1,0,24829,0.107969,0.107677,-9.74301,13,0.00965006,10,-0.0010491,-2.01131,-0.298106,-0.197916,75.1881,0.107677,
2,0,0,1,0,24829,0.105971,0.10564,-9.88647,13,0.00945471,10,-0.00104441,-2.00496,-0.350581,-0.168292,64.8401,0.10564,
2,0,0,1,0,24829,0.103974,0.103674,-10.0026,13,0.00925582,10,-0.00103701,-1.99989,-0.440436,-0.133958,52.2333,0.103674,
2,0,0,1,0,24829.1,0.101976,0.101618,-10.0965,13,0.00905481,10,-0.00102599,-1.99583,-0.612056,-0.0963964,37.9165,0.1016183,
2,0,0,1,0,24829.1,0.0999786,0.099651,-10.1551,13,0.00885236,10,-0.00101197,-1.99331,-0.818331,-0.0720979,28.5681,0.099651,
2,0,0,1,0,24829.1,0.0979811,0.0976573,-10.2097,13,0.00864969,10,-0.000997052,-1.99099,-1.36478,-0.0432306,17.1904,0.0976573,
2,0,0,1,0,24829.1,0.0959835,0.0957092,-10.2229,13,0.00844541,10,-0.000978425,-1.99043,-38.063,-0.00155006,0.6177,0.0957092,
2,0,0,1,0,24829.1,0.0939859,0.0936494,-10.2122,13,0.00824111,10,-0.000956364,-1.99088,2.21294,0.0266614,-10.6148,0.0936494,
2,0,0,1,0,24829.2,0.0919883,0.0916764,-10.1801,13,0.00803721,10,-0.000933273,-1.99225,1.29026,0.0457271,-18.1595,0.0916764,
2,0,0,1,0,24829.2,0.0899907,0.0896423,-10.1394,13,0.00783496,10,-0.00090892,-1.99399,0.755922,0.0780504,-30.8205,0.0896423,
2,0,0,1,0,24829.2,0.0879931,0.0876655,-10.0565,13,0.00763299,10,-0.000881605,-1.99755,0.548429,0.10758,-42.2159,0.0876655,
2,0,0,1,0,24829.2,0.0859955,0.0856531,-9.97099,13,0.00743274,10,-0.000854046,-2.00126,0.488764,0.120713,-46.9336,0.0856531,
2,0,0,1,0,24829.2,0.083998,0.0836723,-9.86905,13,0.00723436,10,-0.000825767,-2.00572,0.439827,0.134144,-51.6615,0.0836723,
2,0,0,1,0,24829.3,0.0820004,0.0816829,-9.76589,13,0.00703902,10,-0.000797706,-2.01029,0.41486,0.142217,-54.1714,0.0816829,
2,0,0,1,0,24829.3,0.0800028,0.0796659,-9.65202,13,0.00684488,10,-0.000768937,-2.01538,0.411499,0.143378,-54.0359,0.0796659,
2,0,0,1,0,24829.3,0.0780052,0.0776621,-9.54862,13,0.00665287,10,-0.000741566,-2.02006,0.434796,0.135696,-50.5733,0.0776621,
2,0,0,1,0,24829.3,0.0760076,0.0756347,-9.44815,13,0.00646298,10,-0.000714608,-2.02465,0.452222,0.130467,-48.1215,0.0756347,
2,0,0,1,0,24829.3,0.07401,0.0736163,-9.35393,13,0.00627609,10,-0.000688602,-2.02901,0.464394,0.127047,-46.3888,0.0736163,
2,0,0,1,0,24829.4,0.0720124,0.0716686,-9.26417,13,0.00608999,10,-0.00066395,-2.03319,0.491767,0.119976,-43.3955,0.0716686,
2,0,0,1,0,24829.4,0.0700148,0.06967,-9.18268,13,0.00590559,10,-0.000639758,-2.03703,0.514821,0.114603,-41.0684,0.06967,
2,0,0,1,0,24829.4,0.0680173,0.0676902,-9.10078,13,0.00572286,10,-0.000616033,-2.04092,0.632763,0.0932419,-33.176,0.0676902,
2,0,0,1,0,24829.4,0.0660106,0.0657168,-9.05153,13,0.00554154,10,-0.000594837,-2.04328,0.689487,0.0855709,-30.19,0.0657168,
2,0,0,1,0,24829.4,0.0640221,0.0636803,-8.97972,13,0.00536226,10,-0.000571831,-2.04674,0.614852,0.0959581,-33.6431,0.0636803,
2,0,0,1,0,24829.5,0.0620245,0.0616889,-8.91602,13,0.00518347,10,-0.00055002,-2.04983,0.638389,0.0924202,-32.1572,0.0616889,
2,0,0,1,0,24829.5,0.0600269,0.0596985,-8.85168,13,0.00500591,10,-0.000528432,-2.05297,0.692167,0.0852395,-29.4643,0.0596985,
2,0,0,1,0,24829.5,0.0580361,0.0576988,-8.79845,13,0.00483034,10,-0.00050766,-2.05559,0.709492,0.0831581,-28.5429,0.05769882,
2,0,0,1,0,24829.5,0.0560317,0.0557268,-8.73831,13,0.00465494,10,-0.000486958,-2.05857,0.690726,0.0854174,-29.1386,0.0557268,
2,0,0,1,0,24829.5,0.0540342,0.0537616,-8.68373,13,0.00448074,10,-0.000466851,-2.06129,0.729311,0.0808983,-27.4143,0.0537616,
2,0,0,1,0,24829.6,0.0520366,0.0517067,-8.6281,13,0.00430763,10,-0.000446131,-2.06408,0.670187,0.0880351,-29.6281,0.0517067,
2,0,0,1,0,24829.6,0.050039,0.0497073,-8.56361,13,0.00413568,10,-0.000425674,-2.06734,0.671315,0.0878873,-29.3941,0.0497073,
2,0,0,1,0,24829.6,0.0480414,0.0477486,-8.51176,13,0.00396569,10,-0.000406424,-2.06998,0.728701,0.080966,-26.8904,0.0477486,
2,0,0,1,0,24829.6,0.0460438,0.0457299,-8.45665,13,0.00379599,10,-0.000386722,-2.0728,0.686374,0.085959,-28.3616,0.0457299,
2,0,0,1,0,24829.6,0.0440462,0.0437041,-8.39705,13,0.00362753,10,-0.000366986,-2.07587,0.600121,0.0983135,-32.198,0.0437041,
2,0,0,1,0,24829.7,0.0420486,0.0417074,-8.32714,13,0.0034604,10,-0.000347304,-2.0795,0.625701,0.0942942,-30.6761,0.0417074,
2,0,0,1,0,24829.7,0.040051,0.0397246,-8.27498,13,0.00329517,10,-0.00032872,-2.08223,0.674239,0.0875061,-28.2449,0.0397246,
2,0,0,1,0,24829.7,0.0380535,0.0377148,-8.21437,13,0.00313033,10,-0.000309803,-2.08543,0.544513,0.108354,-34.6984,0.0377148,
2,0,0,1,0,24829.7,0.0360559,0.0357284,-8.13632,13,0.00296691,10,-0.000290698,-2.08957,0.520386,0.113377,-36.0292,0.0357284,
2,0,0,1,0,24829.7,0.0340583,0.0337442,-8.07131,13,0.00280489,10,-0.00027236,-2.09306,0.543531,0.10855,-34.1764,0.0337442,
2,0,0,1,0,24829.8,0.0320607,0.0317078,-7.9989,13,0.00264501,10,-0.000253627,-2.09697,0.473189,0.124686,-38.8937,0.0317078,
2,0,0,1,0,24829.8,0.0300631,0.0297194,-7.91477,13,0.0024859,10,-0.000235222,-2.10156,0.437284,0.134924,-41.6882,0.0297194,
2,0,0,1,0,24829.8,0.0280655,0.0277924,-7.83568,13,0.0023284,10,-0.000217772,-2.10592,0.461823,0.127755,-39.0679,0.0277924,
2,0,0,1,0,24829.8,0.0260679,0.0256874,-7.75725,13,0.00217249,10,-0.000199263,-2.11029,0.448664,0.131502,-39.7994,0.0256874,
2,0,0,1,0,24829.8,0.0240704,0.023752,-7.67487,13,0.002019,10,-0.000182294,-2.11493,0.41392,0.14254,-42.6851,0.023752,
2,0,0,1,0,24829.9,0.0220728,0.0217643,-7.58979,13,0.00186643,10,-0.000165187,-2.11977,0.410559,0.143707,-42.5629,0.0217643,
2,0,0,1,0,24829.9,0.0200752,0.0197372,-7.50399,13,0.00171565,10,-0.000148108,-2.12471,0.375277,0.157217,-45.993,0.0197372,
2,0,0,1,0,24829.9,0.0180776,0.0177018,-7.40294,13,0.00156663,10,-0.000131045,-2.1306,0.392769,0.150216,-43.4827,0.0177018,
2,0,0,1,0,24829.9,0.01608,0.0157586,-7.33099,13,0.00142012,10,-0.000115527,-2.13484,0.43621,0.135256,-38.67,0.0157586,
2,0,0,1,0,24829.9,0.0140824,0.013725,-7.24916,13,0.00127439,10,-9.94948e-05,-2.13971,0.397303,0.148501,-41.9988,0.013725,
2,0,0,1,0,24830,0.0120848,0.0117619,-7.16314,13,0.00113034,10,-8.42523e-05,-2.1449,0.388217,0.151977,-42.4951,0.0117619,
2,0,0,1,0,24830,0.0100872,0.00976523,-7.08089,13,0.000988023,10,-6.91465e-05,-2.14991,0.44713,0.131953,-36.5084,0.00976523,
2,0,0,1,0,24830,0.00809193,0.00773733,-7.0162,13,0.000847863,10,-5.42867e-05,-2.1539,0.500622,0.117853,-32.2708,0.007737332,
2,0,0,1,0,24830,0.00609208,0.00577134,-6.952,13,0.000708266,10,-4.01224e-05,-2.15789,0.437746,0.134781,-36.5236,0.00577134,
2,0,0,1,0,24830,0.00409449,0.00377064,-6.87133,13,0.00057016,10,-2.59093e-05,-2.16296,0.807466,0.0730681,-19.7109,0.00377064,
2,0,0,1,0,24830.1,0.0020969,0.00173784,-6.8725,13,0.000433156,10,-1.19433e-05,-2.16289,0.842308,0.0700456,-18.6801,0.001737842,
2,0,0,1,0,24830.1,9.14991e-05,-0.000285414,-6.79556,13,0.000296644,10,1.93955e-06,-2.16777,0.480254,0.122852,-32.6388,-0.000285414,
2,0,0,1,0,24830.1,-0.00189827,-0.00223074,-6.74297,13,0.000161973,10,1.50418e-05,-2.17115,0.666577,0.0885119,-23.3142,-0.00223074,
2,0,0,1,0,24830.1,-0.00389586,-0.0042486,-6.70316,13,2.76241e-05,10,2.8479e-05,-2.17372,0.785995,0.0750641,-19.6374,-0.0042486,
2,0,0,1,0,24830.1,-0.00589345,-0.00626314,-6.66378,13,-0.000105953,10,4.17362e-05,-2.17628,0.777498,0.0758844,-19.7329,-0.00626314,
2,0,0,1,0,24830.2,-0.00789103,-0.00830424,-6.62313,13,-0.000238817,10,5.50001e-05,-2.17894,1.34026,0.0440213,-11.4094,-0.00830424,
2,0,0,1,0,24830.2,-0.00988862,-0.0102468,-6.61833,13,-0.000370611,10,6.78169e-05,-2.17925,2.74727,0.0214759,-5.54186,-0.0102468,
2,0,0,1,0,24830.2,-0.0118862,-0.012277,-6.60111,13,-0.00050278,10,8.10421e-05,-2.18038,1.67148,0.0352982,-9.09206,-0.012277,
2,0,0,1,0,24830.2,-0.0138838,-0.014266,-6.58179,13,-0.000634624,10,9.38959e-05,-2.18166,3.06996,0.0192185,-4.94368,-0.014266,
2,0,0,1,0,24830.2,-0.0158814,-0.0162697,-6.58138,13,-0.000766222,10,0.000107077,-2.18168,-4.32935,-0.0136279,3.50427,-0.0162697,
2,0,0,1,0,24830.3,-0.017879,-0.0182554,-6.59577,13,-0.000897321,10,0.000120408,-2.18073,-3.87786,-0.0152146,3.91252,-0.0182554,
2,0,0,1,0,24830.3,-0.0198766,-0.0202699,-6.59703,13,-0.00102916,10,0.000133721,-2.18065,-12.7379,-0.00463185,1.19272,-0.0202699,
2,0,0,1,0,24830.3,-0.0218741,-0.0222434,-6.60052,13,-0.00116103,10,0.000146818,-2.18042,-2.8277,-0.020865,5.38071,-0.0222434,
2,0,0,1,0,24830.3,-0.0238717,-0.0242824,-6.61862,13,-0.00129323,10,0.000160716,-2.17923,-1.26507,-0.0466377,12.0573,-0.0242824,
2,0,0,1,0,24830.3,-0.0258693,-0.0262199,-6.64847,13,-0.00142521,10,0.000174322,-2.17728,-1.4102,-0.0418381,10.8417,-0.0262199,
2,0,0,1,0,24830.4,-0.0278669,-0.0282093,-6.66119,13,-0.00155822,10,0.000187908,-2.17645,-1.34145,-0.0439823,11.4512,-0.0282093,
2,0,0,1,0,24830.4,-0.0298645,-0.0302126,-6.69419,13,-0.00169169,10,0.000202249,-2.1743,-1.11342,-0.0529897,13.833,-0.0302126,
2,0,0,1,0,24830.4,-0.0318621,-0.0322372,-6.71691,13,-0.00182577,10,0.000216534,-2.17283,-0.992273,-0.0594595,15.6061,-0.0322372,
2,0,0,1,0,24830.4,-0.0338597,-0.0342041,-6.75648,13,-0.0019598,10,0.000231099,-2.17028,-0.822819,-0.0717047,18.901,-0.0342041,
2,0,0,1,0,24830.4,-0.0358573,-0.0361917,-6.79165,13,-0.00209524,10,0.000245801,-2.16802,-0.854661,-0.0690332,18.302,-0.0361917,
2,0,0,1,0,24830.5,-0.0378548,-0.0382278,-6.83013,13,-0.00223148,10,0.0002611,-2.16557,-0.867817,-0.0679867,18.1167,-0.0382278,
2,0,0,1,0,24830.5,-0.0398524,-0.0402095,-6.86444,13,-0.00236847,10,0.000276016,-2.16339,-0.647736,-0.0910865,24.4522,-0.0402095,
2,0,0,1,0,24830.5,-0.04185,-0.042202,-6.92731,13,-0.00250562,10,0.000292346,-2.15944,-0.637179,-0.0925956,24.9893,-0.042202,
2,0,0,1,0,24830.5,-0.0438476,-0.0442765,-6.96607,13,-0.0026445,10,0.000308433,-2.15701,-0.773158,-0.0763104,20.7553,-0.0442765,
2,0,0,1,0,24830.5,-0.0458452,-0.0462447,-7.01121,13,-0.0027843,10,0.000324231,-2.15421,-0.663052,-0.0889825,24.3562,-0.0462447,
2,0,0,1,0,24830.6,-0.0478428,-0.0481894,-7.06138,13,-0.00292501,10,0.000340284,-2.15111,-0.524292,-0.112533,31.0612,-0.0481894,
2,0,0,1,0,24830.6,-0.0498495,-0.0502053,-7.13423,13,-0.00306687,10,0.000358176,-2.14665,-0.544928,-0.108271,30.0922,-0.0502053,
2,0,0,1,0,24830.6,-0.051838,-0.0522034,-7.18217,13,-0.00320929,10,0.000374934,-2.14374,-0.644591,-0.0915309,25.6685,-0.0522034,
2,0,0,1,0,24830.6,-0.0538355,-0.0542259,-7.23743,13,-0.00335341,10,0.000392456,-2.14042,-0.565089,-0.104408,29.5034,-0.0542259,
2,0,0,1,0,24830.6,-0.0558331,-0.0561736,-7.2993,13,-0.00349877,10,0.000410028,-2.13672,-0.496165,-0.118912,33.9018,-0.0561736,
2,0,0,1,0,24830.7,-0.0578216,-0.0582363,-7.37339,13,-0.0036447,10,0.000429399,-2.13233,-0.501351,-0.117682,33.8341,-0.0582363,
2,0,0,1,0,24830.7,-0.0598283,-0.060178,-7.43479,13,-0.00379275,10,0.00044741,-2.12873,-0.482549,-0.122267,35.5187,-0.060178,
2,0,0,1,0,24830.7,-0.0618259,-0.0622012,-7.51422,13,-0.00394215,10,0.000467394,-2.12412,-0.479815,-0.122964,36.0249,-0.0622012,
2,0,0,1,0,24830.7,-0.0638235,-0.0641946,-7.57948,13,-0.00409306,10,0.000486562,-2.12036,-0.479954,-0.122928,36.397,-0.06419456,
2,0,0,1,0,24830.7,-0.0658211,-0.0661927,-7.6595,13,-0.00424538,10,0.000507003,-2.1158,-0.425561,-0.138641,41.4558,-0.0661927,
2,0,0,1,0,24830.8,-0.0678187,-0.0681804,-7.74472,13,-0.00439865,10,0.000528038,-2.11099,-0.424532,-0.138977,41.9973,-0.0681804,
2,0,0,1,0,24830.8,-0.0698162,-0.0701891,-7.82734,13,-0.00455431,10,0.000549394,-2.10639,-0.451997,-0.130532,39.8555,-0.0701891,
2,0,0,1,0,24830.8,-0.0718138,-0.0721538,-7.90308,13,-0.00471164,10,0.000570238,-2.1022,-0.419241,-0.14073,43.4698,-0.0721538,
2,0,0,1,0,24830.8,-0.0738114,-0.0742244,-8.00275,13,-0.00487069,10,0.000593999,-2.09676,-0.364384,-0.161917,50.5872,-0.0742244,
2,0,0,1,0,24830.8,-0.075809,-0.0762178,-8.10867,13,-0.005031,10,0.000618025,-2.09105,-0.381781,-0.154539,48.8488,-0.07621783,
2,0,0,1,0,24830.9,-0.0778066,-0.0781973,-8.19683,13,-0.00519401,10,0.000640969,-2.08635,-0.396625,-0.148755,47.6185,-0.0781973,
2,0,0,1,0,24830.9,-0.0798042,-0.0801693,-8.29683,13,-0.00535887,10,0.000665152,-2.08109,-0.368961,-0.159909,51.8035,-0.0801693,
2,0,0,1,0,24830.9,-0.0818018,-0.0822312,-8.4058,13,-0.00552582,10,0.000691219,-2.07542,-0.359958,-0.163908,53.7599,-0.0822312,
2,0,0,1,0,24830.9,-0.0837994,-0.0841797,-8.51243,13,-0.00569412,10,0.000716574,-2.06995,-0.36208,-0.162947,54.1264,-0.0841797,
2,0,0,1,0,24830.9,-0.085797,-0.0861473,-8.61776,13,-0.00586538,10,0.000742397,-2.06461,-0.361577,-0.163174,54.9022,-0.0861473,
2,0,0,1,0,24831,-0.0877945,-0.0881644,-8.7312,13,-0.00603883,10,0.00076978,-2.05893,-0.362688,-0.162674,55.4153,-0.0881644,
2,0,0,1,0,24831,-0.0897921,-0.0901665,-8.84048,13,-0.00621452,10,0.000797115,-2.05352,-0.359497,-0.164118,56.6414,-0.0901665,
2,0,0,1,0,24831,-0.0917897,-0.0921393,-8.95634,13,-0.00639153,10,0.000825231,-2.04787,-0.367528,-0.160532,56.0879,-0.0921393,
2,0,0,1,0,24831,-0.0937873,-0.0941773,-9.06544,13,-0.00657174,10,0.000853758,-2.04261,-0.38276,-0.154144,54.5342,-0.0941773,
2,0,0,1,0,24831,-0.0957849,-0.0961493,-9.17503,13,-0.00675415,10,0.000882173,-2.03739,-0.393385,-0.14998,53.6854,-0.09614934,
2,0,0,1,0,24831.1,-0.0977825,-0.0981583,-9.27916,13,-0.00693866,10,0.000910827,-2.03249,-0.384181,-0.153573,55.6513,-0.09815827,
2,0,0,1,0,24831.1,-0.0997501,-0.100128,-9.39645,13,-0.00712157,10,0.00094085,-2.02704,0.00829698,7.11102,-2261.96,-0.100128,
2,0,0,1,1,24831.1,-0.0987313,-0.0991139,-7.11746,13,-0.00724754,10,0.000705439,-2.14768,-0.0109523,-5.38699,1461.16,-0.0991139,
2,0,0,1,1,24831.1,-0.0967337,-0.0970989,-4.97029,13,-0.0073667,10,0.000482609,-2.30362,-0.0124545,-4.73726,931.105,-0.0970989,
2,0,0,1,1,24831.1,-0.0947361,-0.0951286,-3.40668,13,-0.0074496,10,0.000324073,-2.46767,-0.0112014,-5.26722,695.348,-0.0951286,
2,0,0,1,1,24831.2,-0.0927386,-0.0930797,-2.17555,13,-0.00750487,10,0.000202499,-2.66243,-0.008771,-6.72671,549.994,-0.0930797,
2,0,0,1,1,24831.2,-0.090741,-0.0910673,-1.17299,13,-0.00753782,10,0.000106821,-2.93071,-0.00504528,-11.6941,457.85,-0.0910673,
2,0,0,1,1,24831.2,-0.0887434,-0.0891013,-0.354014,13,-0.0075528,10,3.15431e-05,-3.45098,-0.00755632,-7.80803,388.44,-0.0891013,
2,1,0,1,1,24831.2,-0.0867458,-0.0871361,0.354034,13,-0.00755248,10,-3.08492e-05,-3.45095,0.00931293,6.33528,326.21,-0.0871361,
2,1,0,1,1,24831.2,-0.0847482,-0.0850909,0.95422,13,-0.00753916,10,-8.11955e-05,-3.02035,0.00652104,9.04763,276.526,-0.0850909,
2,1,0,1,1,24831.3,-0.0827529,-0.0831088,1.4677,13,-0.00751498,10,-0.000121979,-2.83336,0.0131581,4.48393,241.469,-0.08310879,
2,1,0,1,1,24831.3,-0.080753,-0.0811059,1.91647,13,-0.00748099,10,-0.000155437,-2.7175,0.0200729,2.93928,213.161,-0.0811059,
2,1,0,1,1,24831.3,-0.0787555,-0.0791451,2.3126,13,-0.00743857,10,-0.000183031,-2.6359,0.0277802,2.12382,187.829,-0.0791451,
2,1,0,1,1,24831.3,-0.0767579,-0.0771692,2.6559,13,-0.00738876,10,-0.000204954,-2.57579,0.0373247,1.58072,161.95,-0.0771692,
2,1,0,1,1,24831.3,-0.0747603,-0.0751181,2.96477,13,-0.00733246,10,-0.000222708,-2.52801,0.0461962,1.27716,146.599,-0.0751181,
2,1,0,1,1,24831.4,-0.0727627,-0.0731426,3.24619,13,-0.00727051,10,-0.000237435,-2.48863,0.057748,1.02168,128.202,-0.0731426,
2,1,0,1,1,24831.4,-0.0707651,-0.0711032,3.47949,13,-0.00720316,10,-0.000247403,-2.45848,0.0712666,0.827877,111.998,-0.0711032,
2,1,0,1,1,24831.4,-0.0687675,-0.0691231,3.69637,13,-0.00713134,10,-0.000255504,-2.43222,0.0820954,0.718676,103.257,-0.0691231,
2,1,0,1,1,24831.4,-0.0667699,-0.0671169,3.89111,13,-0.00705537,10,-0.000261159,-2.40993,0.0971581,0.607258,91.9014,-0.0671169,
2,1,0,1,1,24831.4,-0.0647723,-0.0651112,4.06507,13,-0.00697607,10,-0.000264681,-2.39093,0.111338,0.529916,83.8219,-0.0651112,
2,1,0,1,1,24831.5,-0.0627748,-0.063199,4.21952,13,-0.00689319,10,-0.000266669,-2.37474,0.131172,0.449791,73.8863,-0.063199,
2,1,0,1,1,24831.5,-0.0607772,-0.061167,4.35649,13,-0.00680738,10,-0.000266473,-2.36086,0.156874,0.376098,63.8027,-0.061167,
2,1,0,1,1,24831.5,-0.0587796,-0.0591676,4.47673,13,-0.00671896,10,-0.000264877,-2.34904,0.176396,0.334475,58.3822,-0.0591676,
2,1,0,1,1,24831.5,-0.056782,-0.057157,4.5906,13,-0.0066287,10,-0.000262385,-2.33813,0.203537,0.289874,51.8244,-0.057157,
2,1,0,1,1,24831.5,-0.0547844,-0.0551122,4.6869,13,-0.00653587,10,-0.000258305,-2.32911,0.235818,0.250193,45.7138,-0.0551122,
2,1,0,1,1,24831.6,-0.0527868,-0.0531429,4.7741,13,-0.00644121,10,-0.000253709,-2.32111,0.266066,0.22175,41.2699,-0.0531429,
2,1,0,1,1,24831.6,-0.0507892,-0.0511213,4.8516,13,-0.00634497,10,-0.00024802,-2.31411,0.285974,0.206312,39.0677,-0.0511213,
2,1,0,1,1,24831.6,-0.0487916,-0.0491286,4.93093,13,-0.00624767,10,-0.00024225,-2.30707,0.331077,0.178206,34.2109,-0.0491286,
2,1,0,1,1,24831.6,-0.046794,-0.0471622,4.98705,13,-0.0061485,10,-0.0002352,-2.30216,0.441259,0.133708,25.9995,-0.0471622,
2,1,0,1,1,24831.6,-0.0447965,-0.0451519,5.03432,13,-0.00604829,10,-0.000227309,-2.29806,0.476713,0.123764,24.3214,-0.0451519,
2,1,0,1,1,24831.7,-0.0427989,-0.0431768,5.08398,13,-0.00594713,10,-0.00021951,-2.2938,0.484303,0.121825,24.1623,-0.0431768,
2,1,0,1,1,24831.7,-0.0408013,-0.041188,5.1301,13,-0.00584552,10,-0.000211298,-2.28987,0.637929,0.0924868,18.4834,-0.041188,
2,1,0,1,1,24831.7,-0.0388037,-0.039183,5.1578,13,-0.00574266,10,-0.000202098,-2.28754,0.821637,0.0718079,14.4579,-0.039183,
2,1,0,1,1,24831.7,-0.0368061,-0.037178,5.18808,13,-0.00563921,10,-0.000192882,-2.28499,0.863046,0.0683625,13.8352,-0.037178,
2,1,0,1,1,24831.7,-0.0348085,-0.0351464,5.21364,13,-0.00553516,10,-0.000183241,-2.28286,0.988395,0.0596927,12.1428,-0.0351464,
2,1,0,1,1,24831.8,-0.0328109,-0.0331763,5.23667,13,-0.00543115,10,-0.000173734,-2.28095,1.18558,0.0497645,10.1651,-0.0331763,
2,1,0,1,1,24831.8,-0.0308134,-0.0311514,5.25425,13,-0.00532625,10,-0.000163677,-2.27949,1.6746,0.0352324,7.22039,-0.03115136,
2,1,0,1,1,24831.8,-0.0288158,-0.0291593,5.26567,13,-0.00522107,10,-0.000153543,-2.27855,2.48291,0.0237625,4.88163,-0.0291593,
2,1,0,1,1,24831.8,-0.0268182,-0.0271864,5.27361,13,-0.00511564,10,-0.00014337,-2.27789,2.01639,0.0292601,6.0266,-0.0271864,
2,1,0,1,1,24831.8,-0.0248138,-0.0252161,5.28944,13,-0.00501012,10,-0.000133379,-2.27659,2.36698,0.0249262,5.14007,-0.0252161,
2,1,0,1,1,24831.9,-0.022823,-0.0232077,5.29406,13,-0.00490484,10,-0.000122863,-2.27621,16.8385,0.00350388,0.723506,-0.0232077,
2,1,0,1,1,24831.9,-0.0208254,-0.0211778,5.29236,13,-0.00479895,10,-0.000112081,-2.27635,-14.7676,-0.00399523,-0.825197,-0.02117781,
2,1,0,1,1,24831.9,-0.0188278,-0.0191782,5.29073,13,-0.00469313,10,-0.000101467,-2.27648,30.3403,0.00194461,0.401708,-0.0191782,
2,1,0,1,1,24831.9,-0.0168393,-0.0171877,5.29396,13,-0.00458783,10,-9.09909e-05,-2.27622,5.64713,0.0104478,2.15904,-0.0171877,
2,1,0,1,1,24831.9,-0.0148327,-0.0151527,5.29942,13,-0.00448181,10,-8.03006e-05,-2.27577,-13.7439,-0.00429281,-0.886626,-0.0151527,
2,1,0,1,1,24832,-0.0128351,-0.013185,5.29041,13,-0.00437593,10,-6.9754e-05,-2.27651,-4.59647,-0.0128359,-2.6521,-0.013185,
2,1,0,1,1,24832,-0.0108375,-0.0112012,5.28894,13,-0.00427011,10,-5.92425e-05,-2.27663,68.0007,0.000867638,0.179152,-0.0112012,
2,1,0,1,1,24832,-0.00883989,-0.00918878,5.29113,13,-0.00416428,10,-4.8619e-05,-2.27645,145.158,0.000406454,0.0838993,-0.00918878,
2,1,0,1,1,24832,-0.0068423,-0.00718846,5.28928,13,-0.00405891,10,-3.80218e-05,-2.2766,-119.799,-0.000492492,-0.101694,-0.00718846,
2,1,0,1,1,24832,-0.00484471,-0.00517558,5.29072,13,-0.00395314,10,-2.73825e-05,-2.27649,-13.4378,-0.00439059,-0.906013,-0.00517558,
2,1,0,1,1,24832.1,-0.00284713,-0.00319797,5.28567,13,-0.00384739,10,-1.69034e-05,-2.2769,-15.5508,-0.00379402,-0.783161,-0.00319797,
2,1,0,1,1,24832.1,-0.000849538,-0.00121164,5.28762,13,-0.00374163,10,-6.40668e-06,-2.27674, , , ,-0.00121164,
2,1,0,1,1,24832.1,-2.55332e-05,-0.000363498,5.30306,13,-0.00369883,10,-1.92765e-06,-2.27547, , , ,-0.000363498,