File: Figure_codes/Fig_3-5/rawdata_trumpetplot_data/after 10th/20221101_1-115_003_TrumpetPlot_ParaChange_from10_every3_07_CV_C01_7.csv
mode,ox/red,error,control changes,counter inc.,time/s,control/V,Ewe/V,<I>/mA,cycle number,(Q-Qo)/C,I Range,P/W,log(|I|),Tafel slope mV/dec,alpha_eff,dI/d(E-IR),E-IR/V,
2,0,0,0,0,14955.9,2.44065e-05,-0.000344411,-2.72939,8,0.0000000E+000,10,9.4003e-07,-2.56394, , , ,-0.000344411,
2,0,0,1,0,14956,0.0013005,0.00087994,-0.899656,8,-3.48018e-05,10,-7.91643e-07,-3.04592, , , ,0.00087994,
2,1,0,1,0,14956,0.00279471,0.00248335,0.263252,8,-4.10304e-05,10,6.53746e-07,-3.57963,-0.0293481,-2.01035,628.927,0.00248335,
2,1,0,1,0,14956,0.00429425,0.00397603,0.910126,8,-2.52354e-05,10,3.61869e-06,-3.0409,0.00268802,21.9492,368.53,0.00397603,
2,1,0,1,0,14956,0.00579379,0.00546948,1.32417,8,3.50228e-06,10,7.24252e-06,-2.87806,0.0108362,5.44469,242.331,0.00546948,
2,1,0,1,0,14956.1,0.007288,0.00697281,1.60817,8,4.06174e-05,10,1.12135e-05,-2.79367,0.0206281,2.86018,168.903,0.00697281,
2,1,0,1,0,14956.1,0.00878882,0.00844781,1.80979,8,8.39472e-05,10,1.52888e-05,-2.74237,0.0332702,1.77336,121.658,0.00844781,
2,1,0,1,0,14956.1,0.0102896,0.00999288,1.97142,8,0.000131723,10,1.97002e-05,-2.70522,0.050094,1.17779,88.6458,0.009992878,
2,1,0,1,0,14956.1,0.0117838,0.0114562,2.08922,8,0.000182675,10,2.39345e-05,-2.68002,0.0647695,0.910922,73.215,0.0114562,
2,1,0,1,0,14956.2,0.0132834,0.0129264,2.18959,8,0.000236447,10,2.83035e-05,-2.65964,0.0755061,0.781394,66.3082,0.0129264,
2,1,0,1,0,14956.2,0.0147816,0.0144692,2.26936,8,0.000292601,10,3.28358e-05,-2.6441,0.0912177,0.646805,57.1699,0.0144692,
2,1,0,1,0,14956.2,0.0162811,0.0159531,2.34803,8,0.00035093,10,3.74582e-05,-2.6293,0.112864,0.522753,47.8071,0.0159531,
2,1,0,1,0,14956.2,0.0177753,0.0174638,2.42714,8,0.000410866,10,4.23871e-05,-2.6149,0.129079,0.457085,43.0627,0.0174638,
2,1,0,1,0,14956.3,0.0192761,0.0189428,2.48083,8,0.000472563,10,4.69939e-05,-2.6054,0.139909,0.421703,40.8372,0.01894282,
2,1,0,1,0,14956.3,0.020777,0.0204412,2.54295,8,0.000535856,10,5.1981e-05,-2.59466,0.138882,0.42482,42.1863,0.0204412,
2,1,0,1,0,14956.3,0.0222712,0.0219728,2.60458,8,0.0006004,10,5.72299e-05,-2.58426,0.16296,0.362053,36.7748,0.0219728,
2,1,0,1,0,14956.3,0.0237707,0.0234637,2.66416,8,0.000666735,10,6.25111e-05,-2.57444,0.167838,0.35153,36.51,0.0234637,
2,1,0,1,0,14956.4,0.0252703,0.0249927,2.71467,8,0.000734392,10,6.78469e-05,-2.56628,0.163503,0.360849,38.3359,0.02499271,
2,1,0,1,0,14956.4,0.0267645,0.0264914,2.76865,8,0.000803196,10,7.33452e-05,-2.55773,0.161586,0.36513,39.5621,0.0264914,
2,1,0,1,0,14956.4,0.0282653,0.0279764,2.83232,8,0.000873702,10,7.92381e-05,-2.54786,0.172954,0.341131,37.7213,0.0279764,
2,1,0,1,0,14956.4,0.0297648,0.0294647,2.89285,8,0.000945656,10,8.52369e-05,-2.53867,0.191438,0.308193,34.6319,0.0294647,
2,1,0,1,0,14956.5,0.031259,0.0309725,2.93945,8,0.00101866,10,9.10421e-05,-2.53173,0.1799,0.32796,37.6263,0.0309725,
2,1,0,1,0,14956.5,0.0327585,0.0324347,2.98964,8,0.00109318,10,9.69683e-05,-2.52438,0.188462,0.31306,36.635,0.0324347,
2,1,0,1,0,14956.5,0.034258,0.033973,3.04587,8,0.00116913,10,0.000103478,-2.51629,0.205571,0.287006,34.1275,0.033973,
2,1,0,1,0,14956.5,0.0357576,0.0354644,3.11167,8,0.00124651,10,0.000110354,-2.50701,0.211369,0.279133,33.7595,0.0354644,
2,1,0,1,0,14956.6,0.0372518,0.0369301,3.15695,8,0.00132491,10,0.000116587,-2.50073,0.196741,0.299887,36.9518,0.0369301,
2,1,0,1,0,14956.6,0.0387526,0.0384252,3.20701,8,0.00140484,10,0.00012323,-2.4939,0.200297,0.294563,36.9583,0.0384252,
2,1,0,1,0,14956.6,0.0402534,0.0399238,3.26452,8,0.00148618,10,0.000130332,-2.48618,0.20609,0.286282,36.4573,0.0399238,
2,1,0,1,0,14956.6,0.0417476,0.0414599,3.32641,8,0.00156866,10,0.000137913,-2.47802,0.225453,0.261695,33.8467,0.0414599,
2,1,0,1,0,14956.7,0.0432472,0.0429366,3.37815,8,0.0016528,10,0.000145046,-2.47132,0.220396,0.267699,35.2405,0.04293659,
2,1,0,1,0,14956.7,0.0447467,0.0444561,3.4194,8,0.00173816,10,0.000152013,-2.46605,0.225083,0.262125,35.0372,0.0444561,
2,1,0,1,0,14956.7,0.0462463,0.0459475,3.47342,8,0.00182484,10,0.000159595,-2.45924,0.22694,0.259981,35.2561,0.0459475,
2,1,0,1,0,14956.7,0.0477391,0.0474148,3.52988,8,0.00191248,10,0.000167369,-2.45224,0.241548,0.244258,33.6493,0.0474148,
2,1,0,1,0,14956.8,0.0492399,0.0489616,3.57921,8,0.00200182,10,0.000175244,-2.44621,0.246982,0.238883,33.3396,0.0489616,
2,1,0,1,0,14956.8,0.0507408,0.0504286,3.62546,8,0.00209236,10,0.000182827,-2.44064,0.250453,0.235573,33.3677,0.0504286,
2,1,0,1,0,14956.8,0.052235,0.0519257,3.67643,8,0.0021837,10,0.000190901,-2.43457,0.257601,0.229037,32.9179,0.0519257,
2,1,0,1,0,14956.8,0.0537345,0.0534204,3.73394,8,0.00227674,10,0.000199468,-2.42783,0.269702,0.21876,31.8403,0.0534204,
2,1,0,1,0,14956.9,0.0552341,0.0549515,3.78279,8,0.00237115,10,0.00020787,-2.42219,0.263523,0.223889,33.0059,0.0549515,
2,1,0,1,0,14956.9,0.0567283,0.0563956,3.81896,8,0.00246631,10,0.000215373,-2.41805,0.275924,0.213827,31.9512,0.05639565,
2,1,0,1,0,14956.9,0.0582291,0.0578877,3.86903,8,0.00256292,10,0.00022397,-2.4124,0.296853,0.198752,30.0715,0.0578877,
2,1,0,1,0,14956.9,0.0597299,0.0594408,3.92632,8,0.00266073,10,0.000233384,-2.40601,0.285916,0.206354,31.5499,0.0594408,
2,1,0,1,0,14957,0.0612228,0.060923,3.9671,8,0.00275942,10,0.000241688,-2.40153,0.300555,0.196304,30.3188,0.060923,
2,1,0,1,0,14957,0.0627223,0.0624219,4.01069,8,0.00285964,10,0.000250355,-2.39678,0.300821,0.19613,30.7226,0.06242191,
2,1,0,1,0,14957,0.0642218,0.063927,4.04929,8,0.00296081,10,0.000258859,-2.39262,0.332266,0.177569,28.1516,0.063927,
2,1,0,1,0,14957,0.0657214,0.0653882,4.10015,8,0.0030632,10,0.000268101,-2.3872,0.326391,0.180765,28.8933,0.0653882,
2,1,0,1,0,14957.1,0.0672156,0.0669437,4.14859,8,0.00316634,10,0.000277722,-2.3821,0.326416,0.180751,29.2231,0.0669437,
2,1,0,1,0,14957.1,0.0687164,0.0684375,4.18824,8,0.00327096,10,0.000286633,-2.37797,0.362759,0.162643,26.5608,0.0684375,
2,1,0,1,0,14957.1,0.0702172,0.0699135,4.22131,8,0.00337651,10,0.000295127,-2.37455,0.382668,0.154181,25.4273,0.0699135,
2,1,0,1,0,14957.1,0.0717114,0.0714208,4.2699,8,0.00348262,10,0.000304959,-2.36958,0.365145,0.16158,26.8767,0.0714208,
2,1,0,1,0,14957.2,0.073211,0.0728913,4.31082,8,0.00359025,10,0.000314222,-2.36544,0.355567,0.165932,27.8662,0.0728913,
2,1,0,1,0,14957.2,0.0747105,0.0744082,4.33928,8,0.00369886,10,0.000322878,-2.36258,0.394798,0.149444,25.3415,0.0744082,
2,1,0,1,0,14957.2,0.0762101,0.0759128,4.3698,8,0.0038083,10,0.000331724,-2.35954,0.469574,0.125646,21.4943,0.0759128,
2,1,0,1,0,14957.2,0.0777042,0.077406,4.41095,8,0.00391813,10,0.000341434,-2.35547,0.439387,0.134278,23.132,0.077406,
2,1,0,1,0,14957.3,0.0792037,0.0788798,4.45881,8,0.00402939,10,0.00035171,-2.35078,0.414237,0.142431,24.7042,0.0788798,
2,1,0,1,0,14957.3,0.0807046,0.0803939,4.48205,8,0.00414157,10,0.00036033,-2.34852,0.433706,0.136037,23.7926,0.08039394,
2,1,0,1,0,14957.3,0.0821988,0.0818807,4.51183,8,0.00425408,10,0.000369432,-2.34565,0.531098,0.111091,19.5885,0.0818807,
2,1,0,1,0,14957.3,0.0836983,0.0833947,4.54944,8,0.00436781,10,0.000379399,-2.34204,0.508481,0.116032,20.6244,0.0833947,
2,1,0,1,0,14957.4,0.0851979,0.0848485,4.5918,8,0.00448244,10,0.000389608,-2.33802,0.418478,0.140987,25.2465,0.0848485,
2,1,0,1,0,14957.4,0.0866921,0.0863843,4.61782,8,0.0045976,10,0.000398907,-2.33556,0.415853,0.141877,25.6077,0.0863843,
2,1,0,1,0,14957.4,0.0881929,0.0878887,4.65927,8,0.00471411,10,0.000409498,-2.33168,0.472585,0.124845,22.726,0.0878887,
2,1,0,1,0,14957.4,0.0896937,0.0894152,4.70173,8,0.00483146,10,0.000420406,-2.32774,0.44304,0.133171,24.4148,0.0894152,
2,1,0,1,0,14957.5,0.0911879,0.0908886,4.74882,8,0.00494932,10,0.000431614,-2.32341,0.346979,0.170039,31.4362,0.0908886,
2,1,0,1,0,14957.5,0.0926861,0.0923593,4.785,8,0.00506879,10,0.00044194,-2.32012,0.32094,0.183835,34.3201,0.0923593,
2,1,0,1,0,14957.5,0.0941856,0.0938866,4.82191,8,0.00518937,10,0.000452713,-2.31678,0.350322,0.168417,31.7837,0.0938866,
2,1,0,1,0,14957.5,0.0956852,0.0953826,4.87935,8,0.00531114,10,0.000465405,-2.31164,0.331386,0.17804,33.963,0.0953826,
2,1,0,1,0,14957.6,0.0971794,0.0968831,4.93888,8,0.00543377,10,0.000478494,-2.30637,0.282749,0.208665,40.219,0.0968831,
2,1,0,1,0,14957.6,0.0986802,0.0983405,4.99838,8,0.00555846,10,0.000491543,-2.30117,0.251625,0.234476,45.789,0.0983405,
2,1,0,1,0,14957.6,0.100181,0.099853,5.06902,8,0.00568477,10,0.000506156,-2.29508,0.261983,0.225206,44.5939,0.099853,
2,1,0,1,0,14957.6,0.101675,0.101362,5.13388,8,0.00581224,10,0.00052038,-2.28955,0.254362,0.231953,46.5735,0.1013621,
2,1,0,1,0,14957.7,0.103175,0.102868,5.22077,8,0.00594209,10,0.000537052,-2.28227,0.220197,0.267942,54.5895,0.102868,
2,1,0,1,0,14957.7,0.104674,0.104378,5.30222,8,0.00607398,10,0.000553433,-2.27554,0.206625,0.285541,59.1248,0.104378,
2,1,0,1,0,14957.7,0.106169,0.105861,5.38569,8,0.00620751,10,0.000570136,-2.26876,0.212743,0.27733,58.2994,0.105861,
2,1,0,1,0,14957.7,0.107668,0.107346,5.47794,8,0.00634375,10,0.000588035,-2.26138,0.220671,0.267367,57.1596,0.107346,
2,1,0,1,0,14957.7,0.109169,0.108891,5.56808,8,0.00648211,10,0.000606313,-2.25429,0.211879,0.278461,60.5001,0.1088908,
2,1,0,1,0,14957.8,0.110663,0.110328,5.65945,8,0.00662223,10,0.000624396,-2.24723,0.203704,0.289636,63.8896,0.110328,
2,1,0,1,0,14957.8,0.112163,0.111841,5.74441,8,0.00676525,10,0.000642461,-2.24075,0.21877,0.269689,60.466,0.111841,
2,1,0,1,0,14957.8,0.113662,0.113354,5.84074,8,0.00691051,10,0.00066207,-2.23353,0.253268,0.232955,53.0426,0.113354,
2,1,0,1,0,14957.8,0.115162,0.11486,5.92595,8,0.00705792,10,0.000680654,-2.22724,0.245172,0.240647,55.5819,0.11486,
2,1,0,1,0,14957.9,0.116656,0.116323,6.00387,8,0.0072068,10,0.000698387,-2.22157,0.239588,0.246256,57.683,0.116323,
2,1,0,1,0,14957.9,0.118157,0.117849,6.07951,8,0.00735837,10,0.000716463,-2.21613,0.28724,0.205403,48.7065,0.117849,
2,1,0,1,0,14957.9,0.119657,0.119388,6.15667,8,0.00751183,10,0.000735032,-2.21065,0.340013,0.173523,41.6372,0.119388,
2,1,0,1,0,14957.9,0.121152,0.120857,6.2207,8,0.00766625,10,0.000751816,-2.20616,0.334293,0.176492,42.8209,0.1208572,
2,1,0,1,0,14958,0.122651,0.122363,6.27748,8,0.00782286,10,0.000768133,-2.20221,0.33716,0.174991,42.8652,0.122363,
2,1,0,1,0,14958,0.124151,0.123845,6.32895,8,0.00798099,10,0.000783806,-2.19867,0.403167,0.146341,36.1754,0.123845,
2,1,0,1,0,14958,0.125649,0.125332,6.38491,8,0.00814045,10,0.000800231,-2.19485,0.471247,0.1252,31.1901,0.125332,
2,1,0,1,0,14958,0.127143,0.126822,6.42943,8,0.00830048,10,0.000815392,-2.19183,0.493852,0.119469,29.9706,0.126822,
2,1,0,1,0,14958.1,0.128644,0.128307,6.47646,8,0.00846229,10,0.000830976,-2.18866,0.46544,0.126762,32.0514,0.128307,
2,1,0,1,0,14958.1,0.130145,0.129806,6.51967,8,0.00862523,10,0.00084629,-2.18577,0.506678,0.116445,29.6643,0.129806,
2,1,0,1,0,14958.1,0.131639,0.131344,6.57387,8,0.00878875,10,0.000863439,-2.18218,0.592751,0.0995359,25.4928,0.131344,
2,1,0,1,0,14958.1,0.133139,0.132813,6.6213,8,0.00895406,10,0.000879391,-2.17906,0.602242,0.0979672,25.2743,0.132813,
2,1,0,1,0,14958.2,0.134638,0.134319,6.64764,8,0.00912018,10,0.000892906,-2.17733,0.588819,0.100201,26.0033,0.134319,
2,1,0,1,0,14958.2,0.136132,0.135774,6.68356,8,0.00928662,10,0.000907451,-2.17499,0.654363,0.090164,23.5131,0.135774,
2,1,0,1,0,14958.2,0.137633,0.137312,6.71659,8,0.00945463,10,0.000922267,-2.17285,1.12378,0.0525013,13.7381,0.137312,
2,1,0,1,0,14958.2,0.139133,0.138865,6.74847,8,0.00962329,10,0.000937126,-2.17079,1.88662,0.0312729,8.21034,0.1388649,
2,1,0,1,0,14958.3,0.140627,0.14031,6.7496,8,0.00979154,10,0.000947034,-2.17072,5.54879,0.010633,2.79293,0.14031,
2,1,0,1,0,14958.3,0.142126,0.141822,6.73717,8,0.00996054,10,0.000955481,-2.17152,-1.88619,-0.0312799,-8.20584,0.141822,
2,1,0,1,0,14958.3,0.143626,0.143285,6.71543,8,0.0101292,10,0.000962221,-2.17293,-0.587163,-0.100483,-26.2439,0.143285,
2,1,0,1,0,14958.3,0.145125,0.144841,6.67043,8,0.010297,10,0.000966151,-2.17585,-0.343147,-0.171938,-44.5487,0.144841,
2,1,0,1,0,14958.4,0.14662,0.146314,6.57928,8,0.0104624,10,0.000962638,-2.18182,-0.248459,-0.237464,-60.7838,0.146314,
2,1,0,1,0,14958.4,0.14812,0.147798,6.4696,8,0.0106261,10,0.000956193,-2.18912,-0.18007,-0.32765,-82.444,0.147798,
2,1,0,1,0,14958.4,0.149621,0.14926,6.34016,8,0.0107867,10,0.000946335,-2.1979,-0.140409,-0.420202,-103.371,0.14926,
2,1,0,1,0,14958.4,0.151116,0.150794,6.17461,8,0.0109428,10,0.000931093,-2.20939,-0.116428,-0.506751,-121.355,0.150794,
2,1,0,1,0,14958.5,0.152615,0.152331,5.97055,8,0.0110951,10,0.000909497,-2.22399,-0.102374,-0.576315,-133.833,0.152331,
2,1,0,1,0,14958.5,0.154115,0.153788,5.75156,8,0.0112421,10,0.00088452,-2.24021,-0.0886987,-0.665174,-149.125,0.153788,
2,1,0,1,0,14958.5,0.155614,0.155267,5.52376,8,0.0113835,10,0.000857659,-2.25777,-0.0805671,-0.732309,-157.675,0.155267,
2,1,0,1,0,14958.5,0.157107,0.1568,5.29497,8,0.0115186,10,0.00083025,-2.27614,-0.0779571,-0.756826,-155.855,0.1568,
2,1,0,1,0,14958.6,0.158608,0.158316,5.05611,8,0.0116483,10,0.000800461,-2.29618,-0.074564,-0.791267,-156.074,0.158316,
2,1,0,1,0,14958.6,0.160109,0.159778,4.81747,8,0.0117719,10,0.000769725,-2.31718,-0.0749539,-0.787151,-148.261,0.159778,
2,1,0,1,0,14958.6,0.161603,0.161267,4.60381,8,0.0118896,10,0.000742442,-2.33688,-0.0753385,-0.783132,-140.945,0.161267,
2,1,0,1,0,14958.6,0.163102,0.162817,4.40909,8,0.0120025,10,0.000717872,-2.35565,-0.078034,-0.75608,-130.17,0.162817,
2,1,0,1,0,14958.7,0.164602,0.164269,4.2258,8,0.0121107,10,0.000694168,-2.37409,-0.0855446,-0.689699,-113.819,0.164269,
2,1,0,1,0,14958.7,0.166096,0.165788,4.04923,8,0.0122141,10,0.000671315,-2.39263,-0.0917925,-0.642754,-102.13,0.165788,
2,1,0,1,0,14958.7,0.167597,0.167272,3.91185,8,0.012314,10,0.000654342,-2.40762,-0.0982122,-0.60074,-92.0239,0.167272,
2,1,0,1,0,14958.7,0.169098,0.168803,3.79375,8,0.0124106,10,0.000640398,-2.42093,-0.107505,-0.54881,-81.2105,0.168803,
2,1,0,1,0,14958.8,0.170592,0.170307,3.67058,8,0.0125038,10,0.000625125,-2.43527,-0.117148,-0.503636,-72.2143,0.170307,
2,1,0,1,0,14958.8,0.17209,0.171786,3.55179,8,0.0125945,10,0.000610148,-2.44955,-0.126576,-0.466123,-65.0085,0.171786,
2,1,0,1,0,14958.8,0.17359,0.173309,3.46859,8,0.0126828,10,0.000601138,-2.45985,-0.13316,-0.443078,-60.1436,0.173309,
2,1,0,1,0,14958.8,0.175089,0.174723,3.39141,8,0.0127689,10,0.000592558,-2.46962,-0.147287,-0.400579,-53.0193,0.1747229,
2,1,0,1,0,14958.9,0.176583,0.17625,3.31178,8,0.0128527,10,0.000583703,-2.47994,-0.164138,-0.359453,-46.5011,0.17625,
2,1,0,1,0,14958.9,0.178084,0.177753,3.23441,8,0.012935,10,0.000574926,-2.49021,-0.174146,-0.338796,-42.9672,0.177753,
2,1,0,1,0,14958.9,0.179585,0.179269,3.17934,8,0.0130157,10,0.000569958,-2.49766,-0.18008,-0.327632,-40.7651,0.179269,
2,1,0,1,0,14958.9,0.181079,0.180739,3.1314,8,0.0130946,10,0.000565965,-2.50426,-0.206736,-0.285389,-34.8899,0.180739,
2,1,0,1,0,14959,0.182579,0.182236,3.07858,8,0.0131726,10,0.000561029,-2.51165,-0.224694,-0.262579,-31.5046,0.182236,
2,1,0,1,0,14959,0.184078,0.183784,3.02666,8,0.0132494,10,0.000556254,-2.51904,-0.245261,-0.24056,-28.4933,0.183784,
2,1,0,1,0,14959,0.185578,0.185275,2.98191,8,0.0133249,10,0.000552475,-2.5255,-0.25303,-0.233174,-27.2516,0.185275,
2,1,0,1,0,14959,0.187072,0.186758,2.95739,8,0.0133992,10,0.000552316,-2.52909,-0.291524,-0.202385,-23.3103,0.186758,
2,1,0,1,0,14959.1,0.188573,0.188245,2.91718,8,0.013473,10,0.000549145,-2.53504,-0.323785,-0.18222,-20.7358,0.1882448,
2,1,0,1,0,14959.1,0.190072,0.18974,2.88073,8,0.0135459,10,0.00054659,-2.5405,-0.330248,-0.178653,-20.1212,0.18974,
2,1,0,1,0,14959.1,0.191567,0.191257,2.85127,8,0.0136177,10,0.000545326,-2.54496,-0.319874,-0.184448,-20.5637,0.191257,
2,1,0,1,0,14959.1,0.193066,0.192771,2.82867,8,0.0136891,10,0.000545285,-2.54842,-0.367713,-0.160451,-17.6962,0.192771,
2,1,0,1,0,14959.2,0.194566,0.194223,2.80528,8,0.0137599,10,0.000544848,-2.55202,-0.431774,-0.136646,-14.9519,0.194223,
2,1,0,1,0,14959.2,0.19606,0.195732,2.77685,8,0.0138299,10,0.000543519,-2.55645,-0.409717,-0.144002,-15.6355,0.1957323,
2,1,0,1,0,14959.2,0.197561,0.197186,2.74897,8,0.0138995,10,0.000542059,-2.56083,-0.40066,-0.147257,-15.8612,0.197186,
2,1,0,1,0,14959.2,0.199062,0.198767,2.74277,8,0.0139685,10,0.000545173,-2.56181,-0.424193,-0.139088,-14.8564,0.198767,
2,1,0,1,0,14959.3,0.200556,0.20022,2.72601,8,0.0140369,10,0.000545801,-2.56447,-0.711585,-0.0829135,-8.79761,0.20022,
2,1,0,1,0,14959.3,0.202055,0.201745,2.70461,8,0.0141051,10,0.000545642,-2.56789,-0.579215,-0.101862,-10.7368,0.201745,
2,1,0,1,0,14959.3,0.203553,0.203318,2.67691,8,0.0141728,10,0.000544263,-2.57237,-0.480865,-0.122696,-12.8687,0.203318,
2,1,0,1,0,14959.3,0.205053,0.204757,2.66836,8,0.0142401,10,0.000546367,-2.57376,-0.803103,-0.073465,-7.67934,0.204757,
2,1,0,1,0,14959.4,0.206547,0.206244,2.65969,8,0.0143068,10,0.000548544,-2.57517,-1.10908,-0.0531975,-5.51606,0.206244,
2,1,0,1,0,14959.4,0.208048,0.207768,2.64905,8,0.0143737,10,0.000550388,-2.57691,-0.754314,-0.0782168,-8.07556,0.207768,
2,1,0,1,0,14959.4,0.209549,0.209238,2.63555,8,0.0144401,10,0.000551457,-2.57913,-0.55817,-0.105703,-10.8674,0.2092381,
2,1,0,1,0,14959.4,0.211043,0.210753,2.6232,8,0.0145059,10,0.000552847,-2.58117,-0.684128,-0.0862412,-8.80914,0.210753,
2,1,0,1,0,14959.5,0.212543,0.212246,2.60946,8,0.0145717,10,0.000553846,-2.58345,-1.12847,-0.0522832,-5.31534,0.212246,
2,1,0,1,0,14959.5,0.214042,0.213746,2.59606,8,0.0146372,10,0.000554896,-2.58569,-1.13647,-0.0519151,-5.27627,0.213746,
2,1,0,1,0,14959.5,0.215536,0.215273,2.59099,8,0.0147023,10,0.00055777,-2.58653,-0.738263,-0.0799173,-8.08693,0.2152732,
2,1,0,1,0,14959.5,0.217036,0.216732,2.57741,8,0.0147673,10,0.000558608,-2.58882,-0.767812,-0.0768417,-7.74468,0.216732,
2,1,0,1,0,14959.6,0.218537,0.218234,2.5755,8,0.0148321,10,0.000562061,-2.58914,-3.51502,-0.0167851,-1.68466,0.218234,
2,1,0,1,0,14959.6,0.220031,0.219786,2.56366,8,0.0148965,10,0.000563457,-2.59114,-1.87496,-0.0314673,-3.15028,0.219786,
2,1,0,1,0,14959.6,0.22153,0.221244,2.55334,8,0.0149609,10,0.000564911,-2.59289,-0.741468,-0.0795718,-7.93898,0.221244,
2,1,0,1,0,14959.6,0.22303,0.222745,2.54445,8,0.0150251,10,0.000566763,-2.59441,-0.919091,-0.0641938,-6.3821,0.222745,
2,1,0,1,0,14959.7,0.224529,0.224264,2.54026,8,0.0150891,10,0.000569689,-2.59512,-1.76282,-0.0334691,-3.31763,0.224264,
2,1,0,1,0,14959.7,0.226024,0.225718,2.53278,8,0.0151527,10,0.000571696,-2.5964,-2.2411,-0.0263264,-2.60756,0.225718,
2,1,0,1,0,14959.7,0.227525,0.227232,2.52704,8,0.0152163,10,0.000574224,-2.59739,-0.880956,-0.0669727,-6.59222,0.227232,
2,1,0,1,0,14959.7,0.229025,0.228743,2.52359,8,0.0152799,10,0.000577253,-2.59798,-0.775429,-0.0760869,-7.47531,0.228743,
2,1,0,1,0,14959.8,0.23052,0.230209,2.51366,8,0.0153429,10,0.000578668,-2.59969,-1.32852,-0.0444105,-4.35834,0.230209,
2,1,0,1,0,14959.8,0.232019,0.231714,2.50846,8,0.0154061,10,0.000581246,-2.60059,-22.5254,-0.00261927,-0.256941,0.231714,
2,1,0,1,0,14959.8,0.233519,0.233169,2.5053,8,0.0154692,10,0.000584158,-2.60114,-1.16731,-0.0505435,-4.94314,0.233169,
2,1,0,1,0,14959.8,0.235018,0.234687,2.50229,8,0.0155322,10,0.000587257,-2.60166,-0.954593,-0.0618064,-6.031,0.234687,
2,1,0,1,0,14959.9,0.236511,0.23624,2.49327,8,0.0155947,10,0.00058901,-2.60323,-3.49154,-0.016898,-1.64179,0.23624,
2,1,0,1,0,14959.9,0.238012,0.237681,2.48508,8,0.0156573,10,0.000590656,-2.60466,-5.45397,-0.0108178,-1.04982,0.237681,
2,1,0,1,0,14959.9,0.239513,0.239197,2.48155,8,0.0157199,10,0.000593579,-2.60528,-1.92038,-0.0307231,-2.97993,0.239197,
2,1,0,1,0,14959.9,0.241007,0.240692,2.47599,8,0.0157821,10,0.000595953,-2.60625,-1.00006,-0.0589966,-5.70471,0.2406923,
2,1,0,1,0,14960,0.242506,0.24223,2.47279,8,0.0158444,10,0.000598983,-2.60681,-1.89559,-0.031125,-3.00512,0.24223,
2,1,0,1,0,14960,0.244006,0.243699,2.46545,8,0.0159065,10,0.000600826,-2.6081,8.63727,0.00683086,0.659346,0.243699,
2,1,0,1,0,14960,0.2455,0.245187,2.46299,8,0.0159684,10,0.000603892,-2.60854,-1.77533,-0.0332333,-3.20062,0.245187,
2,1,0,1,0,14960,0.247001,0.24667,2.4643,8,0.0160304,10,0.00060787,-2.60831,-0.8942,-0.0659807,-6.32132,0.24667,
2,1,0,1,0,14960.1,0.248502,0.248169,2.45426,8,0.0160923,10,0.000609072,-2.61008,-1.82216,-0.0323791,-3.09764,0.248169,
2,1,0,1,0,14960.1,0.249995,0.249662,2.44607,8,0.0161537,10,0.000610691,-2.61153,-2.75902,-0.0213844,-2.04765,0.249662,
2,1,0,1,0,14960.1,0.251494,0.251184,2.44441,8,0.0162153,10,0.000613995,-2.61183,-2.7766,-0.021249,-2.03024,0.251184,
2,1,0,1,0,14960.1,0.252994,0.25271,2.44233,8,0.0162768,10,0.000617202,-2.6122,-1.10725,-0.053285,-5.06711,0.25271,
2,1,0,1,0,14960.2,0.254493,0.254219,2.4394,8,0.0163383,10,0.000620143,-2.61272,-1.07169,-0.0550534,-5.22964,0.254219,
2,1,0,1,0,14960.2,0.255988,0.255671,2.42719,8,0.0163993,10,0.000620564,-2.6149,-4.40181,-0.0134036,-1.27518,0.2556715,
2,1,0,1,0,14960.2,0.257488,0.257172,2.42688,8,0.0164604,10,0.000624124,-2.61495,-3.43004,-0.017201,-1.63196,0.2571716,
2,1,0,1,0,14960.2,0.258989,0.258723,2.43141,8,0.0165216,10,0.000629062,-2.61414,-0.97347,-0.0606079,-5.7322,0.258723,
2,1,0,1,0,14960.3,0.260483,0.260168,2.42918,8,0.0165824,10,0.000631996,-2.61454,-1.52902,-0.0385869,-3.63983,0.260168,
2,1,0,1,0,14960.3,0.261983,0.261692,2.41524,8,0.0166432,10,0.000632047,-2.61704,-5.32443,-0.011081,-1.04723,0.261692,
2,1,0,1,0,14960.3,0.263482,0.263196,2.41034,8,0.016704,10,0.000634391,-2.61792,-4.5041,-0.0130992,-1.23546,0.263196,
2,1,0,1,0,14960.3,0.264982,0.264668,2.40911,8,0.0167647,10,0.000637613,-2.61814,-1.42234,-0.0414809,-3.90076,0.264668,
2,1,0,1,0,14960.4,0.266476,0.266146,2.40731,8,0.0168251,10,0.000640697,-2.61847,-1.9636,-0.0300468,-2.81916,0.266146,
2,1,0,1,0,14960.4,0.267976,0.267685,2.39801,8,0.0168855,10,0.000641911,-2.62015,20.5665,0.00286875,0.2687,0.2676847,
2,1,0,1,0,14960.4,0.269477,0.269181,2.39255,8,0.0169459,10,0.000644027,-2.62114,-10.7577,-0.00548443,-0.513469,0.269181,
2,1,0,1,0,14960.4,0.270971,0.270706,2.39757,8,0.0170059,10,0.000649036,-2.62023,-1.46041,-0.0403997,-3.77095,0.270706,
2,1,0,1,0,14960.5,0.27247,0.272207,2.39454,8,0.0170662,10,0.000651811,-2.62078,-2.17868,-0.0270806,-2.51947,0.272207,
2,1,0,1,0,14960.5,0.27397,0.273654,2.38171,8,0.0171263,10,0.000651766,-2.62311,-3.29245,-0.0179198,-1.66781,0.273654,
2,1,0,1,0,14960.5,0.275464,0.275155,2.37677,8,0.017186,10,0.000653979,-2.62401,-1.14928,-0.0513363,-4.7828,0.275155,
2,1,0,1,0,14960.5,0.276965,0.27669,2.37767,8,0.0172458,10,0.000657877,-2.62385,-0.882192,-0.0668788,-6.19996,0.27669,
2,1,0,1,0,14960.6,0.278466,0.278156,2.376,8,0.0173056,10,0.000660899,-2.62415,-1.51428,-0.0389625,-3.59434,0.2781561,
2,1,0,1,0,14960.6,0.27996,0.279641,2.37097,8,0.017365,10,0.000663019,-2.62507,-3.10081,-0.0190273,-1.75818,0.279641,
2,1,0,1,0,14960.6,0.281458,0.281154,2.3535,8,0.0174245,10,0.000661696,-2.62829,-2.49984,-0.0236015,-2.17691,0.281154,
2,1,0,1,0,14960.6,0.282958,0.282653,2.35847,8,0.0174839,10,0.000666628,-2.62737,-1.7791,-0.0331628,-3.05154,0.282653,
2,1,0,1,0,14960.7,0.284457,0.284159,2.35928,8,0.0175433,10,0.000670409,-2.62722,-1.90031,-0.0310475,-2.85394,0.284159,
2,1,0,1,0,14960.7,0.285951,0.285683,2.34847,8,0.0176023,10,0.000670918,-2.62922,-2.01271,-0.0293137,-2.68663,0.2856833,
2,1,0,1,0,14960.7,0.287452,0.287135,2.33666,8,0.0176614,10,0.000670936,-2.6314,-1.90103,-0.0310358,-2.84248,0.287135,
2,1,0,1,0,14960.7,0.288953,0.288616,2.3428,8,0.0177204,10,0.000676169,-2.63027,-1.5956,-0.0369766,-3.37349,0.288616,
2,1,0,1,0,14960.8,0.290447,0.290157,2.34338,8,0.017779,10,0.000679949,-2.63016,-2.02722,-0.0291039,-2.65324,0.290157,
2,1,0,1,0,14960.8,0.291947,0.291624,2.33399,8,0.0178378,10,0.000680649,-2.6319,-2.89278,-0.0203956,-1.85668,0.291624,
2,1,0,1,0,14960.8,0.293446,0.293139,2.3195,8,0.0178965,10,0.000679935,-2.63461,-1.48204,-0.03981,-3.61957,0.293139,
2,1,0,1,0,14960.8,0.29494,0.294627,2.31935,8,0.0179547,10,0.000683343,-2.63463,-1.89644,-0.0311109,-2.82143,0.294627,
2,1,0,1,0,14960.9,0.29644,0.296082,2.3216,8,0.0180131,10,0.000687383,-2.63421,-1.75499,-0.0336183,-3.03754,0.296082,
2,1,0,1,0,14960.9,0.297941,0.297633,2.31832,8,0.0180715,10,0.000690008,-2.63483,-5.28311,-0.0111677,-1.00773,0.297633,
2,1,0,1,0,14960.9,0.29944,0.299144,2.30444,8,0.0181297,10,0.00068936,-2.63743,-0.00512758,-11.5064,-718.346,0.299144,
2,1,0,1,0,14960.9,0.299736,0.299412,1.74802,8,0.0181592,10,0.000523379,-2.75745,0.000715126,82.5029,1929.39,0.299412,
2,1,0,1,0,14961,0.298238,0.297956,0.276458,8,0.0181807,10,8.23722e-05,-3.55837,0.00466775,12.6399,700.767,0.297956,
2,0,0,1,0,14961,0.296744,0.296458,-0.245983,8,0.0181798,10,-7.29236e-05,-3.6091,0.0833803,0.707601,287.386,0.296458,
2,0,0,1,0,14961,0.295243,0.2949,-0.488507,8,0.0181697,10,-0.000144061,-3.31113,-0.00530798,-11.1153,136.495,0.2949,
2,0,0,1,0,14961,0.293742,0.293452,-0.630389,8,0.0181551,10,-0.000184989,-3.20039,-0.0167597,-3.52035,78.9298,0.293452,
2,0,0,1,0,14961.1,0.292248,0.291911,-0.731425,8,0.0181378,10,-0.000213511,-3.13583,-0.0293377,-2.01107,54.6489,0.2919113,
2,0,0,1,0,14961.1,0.290748,0.290416,-0.797577,8,0.0181183,10,-0.000231629,-3.09823,-0.0382868,-1.541,46.6885,0.290416,
2,0,0,1,0,14961.1,0.289249,0.288984,-0.84567,8,0.0180972,10,-0.000244386,-3.0728,-0.0515783,-1.14389,37.6989,0.288984,
2,0,0,1,0,14961.1,0.287754,0.28742,-0.897329,8,0.0180749,10,-0.000257911,-3.04705,-0.0734275,-0.803513,28.1261,0.28742,
2,0,0,1,0,14961.2,0.286254,0.285947,-0.947371,8,0.0180514,10,-0.000270898,-3.02348,-0.083714,-0.704781,25.8595,0.285947,
2,0,0,1,0,14961.2,0.284754,0.284454,-0.986901,8,0.0180269,10,-0.000280728,-3.00573,-0.0789096,-0.747691,28.5654,0.284454,
2,0,0,1,0,14961.2,0.28326,0.282938,-1.02312,8,0.0180014,10,-0.000289481,-2.99007,-0.0930884,-0.633806,25.1523,0.282938,
2,0,0,1,0,14961.2,0.28176,0.281412,-1.05347,8,0.017975,10,-0.000296459,-2.97738,-0.122658,-0.481014,19.7399,0.281412,
2,0,0,1,0,14961.3,0.280261,0.279959,-1.08458,8,0.0179478,10,-0.000303638,-2.96474,-0.128858,-0.457867,19.3378,0.279959,
2,0,0,1,0,14961.3,0.278761,0.278462,-1.11517,8,0.0179198,10,-0.000310533,-2.95266,-0.120672,-0.488929,21.2487,0.278462,
2,0,0,1,0,14961.3,0.277267,0.276947,-1.14086,8,0.0178913,10,-0.000315958,-2.94277,-0.138751,-0.425222,18.967,0.276947,
2,0,0,1,0,14961.3,0.275766,0.275426,-1.1704,8,0.0178619,10,-0.000322358,-2.93167,-0.191749,-0.307695,14.0187,0.275426,
2,0,0,1,0,14961.4,0.274265,0.27396,-1.20241,8,0.0178318,10,-0.000329412,-2.91995,-0.19432,-0.303623,14.1156,0.27396,
2,0,0,1,0,14961.4,0.272771,0.27247,-1.22125,8,0.0178014,10,-0.000332753,-2.9132,-0.153841,-0.383513,18.193,0.27247,
2,0,0,1,0,14961.4,0.271272,0.270932,-1.23995,8,0.0177702,10,-0.000335941,-2.9066,-0.158285,-0.372744,18.062,0.270932,
2,0,0,1,0,14961.4,0.269772,0.269445,-1.26469,8,0.0177384,10,-0.000340765,-2.89801,-0.20218,-0.291819,14.4077,0.269445,
2,0,0,1,0,14961.5,0.268273,0.267977,-1.29324,8,0.017706,10,-0.000346559,-2.88832,-0.232755,-0.253486,12.7063,0.267977,
2,0,0,1,0,14961.5,0.26678,0.266487,-1.30572,8,0.0176733,10,-0.000347957,-2.88415,-0.206362,-0.285905,14.5022,0.266487,
2,0,0,1,0,14961.5,0.265279,0.26496,-1.32452,8,0.01764,10,-0.000350945,-2.87794,-0.199637,-0.295536,15.2828,0.26496,
2,0,0,1,0,14961.5,0.263778,0.263465,-1.34075,8,0.0176062,10,-0.000353242,-2.87265,-0.239341,-0.24651,12.9156,0.263465,
2,0,0,1,0,14961.6,0.262284,0.261951,-1.36568,8,0.017572,10,-0.000357741,-2.86465,-0.310325,-0.190123,10.1039,0.261951,
2,0,0,1,0,14961.6,0.260784,0.260467,-1.37524,8,0.0175372,10,-0.000358203,-2.86162,-0.272115,-0.21682,11.6681,0.260467,
2,0,0,1,0,14961.6,0.259285,0.259005,-1.39554,8,0.0175021,10,-0.000361452,-2.85526,-0.241966,-0.243836,13.351,0.259005,
2,0,0,1,0,14961.6,0.257791,0.257476,-1.41651,8,0.0174666,10,-0.000364717,-2.84878,-0.311269,-0.189547,10.4895,0.257476,
2,0,0,1,0,14961.7,0.25629,0.255905,-1.43837,8,0.0174304,10,-0.000368085,-2.84213,-0.41579,-0.141899,7.92633,0.255905,
2,0,0,1,0,14961.7,0.254789,0.254481,-1.45012,8,0.0173939,10,-0.000369027,-2.8386,-0.29212,-0.201972,11.4092,0.254481,
2,0,0,1,0,14961.7,0.253296,0.252985,-1.46089,8,0.0173572,10,-0.000369584,-2.83538,-0.271457,-0.217346,12.4508,0.252985,
2,0,0,1,0,14961.7,0.251797,0.251435,-1.47978,8,0.0173199,10,-0.000372069,-2.8298,-0.316469,-0.186432,10.8116,0.251435,
2,0,0,1,0,14961.8,0.250297,0.249959,-1.49784,8,0.0172822,10,-0.000374398,-2.82453,-0.429475,-0.137377,8.00952,0.249959,
2,0,0,1,0,14961.8,0.248797,0.248481,-1.51636,8,0.0172441,10,-0.000376787,-2.8192,-0.327281,-0.180273,10.6149,0.248481,
2,0,0,1,0,14961.8,0.247303,0.246983,-1.52161,8,0.0172059,10,-0.000375812,-2.8177,-0.280766,-0.210139,12.5489,0.246983,
2,0,0,1,0,14961.8,0.245802,0.245489,-1.5412,8,0.0171672,10,-0.000378349,-2.81214,-0.335872,-0.175662,10.5715,0.245489,
2,0,0,1,0,14961.9,0.244302,0.243969,-1.56336,8,0.0171279,10,-0.000381411,-2.80594,-0.45961,-0.12837,7.77028,0.243969,
2,0,0,1,0,14961.9,0.242807,0.242428,-1.57332,8,0.0170885,10,-0.000381418,-2.80318,-0.402524,-0.146575,8.9756,0.242428,
2,0,0,1,0,14961.9,0.241308,0.240984,-1.58071,8,0.0170487,10,-0.000380926,-2.80115,-0.370082,-0.159424,9.86986,0.240984,
2,0,0,1,0,14961.9,0.239808,0.239485,-1.59447,8,0.0170084,10,-0.000381851,-2.79738,-0.365926,-0.161235,10.045,0.239485,
2,0,0,1,0,14962,0.238309,0.237955,-1.61554,8,0.0169678,10,-0.000384425,-2.79168,-0.457936,-0.128839,8.108,0.237955,
2,0,0,1,0,14962,0.236815,0.236464,-1.63162,8,0.0169271,10,-0.000385821,-2.78738,-0.473969,-0.124481,7.89163,0.236464,
2,0,0,1,0,14962,0.235315,0.235048,-1.63025,8,0.0168858,10,-0.000383186,-2.78775,-0.359715,-0.164019,10.4982,0.235048,
2,0,0,1,0,14962,0.233814,0.23348,-1.64682,8,0.0168443,10,-0.0003845,-2.78335,-0.434534,-0.135778,8.75687,0.23348,
2,0,0,1,0,14962.1,0.23232,0.232022,-1.66911,8,0.0168025,10,-0.00038727,-2.77752,-0.5212,-0.1132,7.33211,0.232022,
2,0,0,1,0,14962.1,0.230821,0.230479,-1.68526,8,0.0167602,10,-0.000388416,-2.77333,-0.52549,-0.112276,7.34219,0.230479,
2,0,0,1,0,14962.1,0.229321,0.228992,-1.69424,8,0.0167176,10,-0.000387966,-2.77103,-0.417164,-0.141431,9.34777,0.228992,
2,0,0,1,0,14962.1,0.227827,0.227491,-1.6993,8,0.0166749,10,-0.000386577,-2.76973,-0.492415,-0.119818,7.99731,0.227491,
2,0,0,1,0,14962.2,0.226326,0.225986,-1.72219,8,0.0166317,10,-0.000389192,-2.76392,-0.637229,-0.0925884,6.20766,0.225986,
2,0,0,1,0,14962.2,0.224825,0.224534,-1.73152,8,0.0165881,10,-0.000388785,-2.76157,-0.480943,-0.122676,8.27209,0.224534,
2,0,0,1,0,14962.2,0.223331,0.223002,-1.74729,8,0.0165444,10,-0.000389651,-2.75763,-0.404412,-0.145891,9.90833,0.223002,
2,0,0,1,0,14962.2,0.221831,0.22152,-1.75275,8,0.0165002,10,-0.000388268,-2.75628,-0.499671,-0.118078,8.10067,0.22152,
2,0,0,1,0,14962.3,0.220333,0.220015,-1.76618,8,0.0164558,10,-0.000388584,-2.75297,-0.417293,-0.141388,9.75671,0.220015,
2,0,0,1,0,14962.3,0.218834,0.218511,-1.78881,8,0.0164109,10,-0.000390874,-2.74744,-0.435177,-0.135577,9.42425,0.218511,
2,0,0,1,0,14962.3,0.217339,0.217034,-1.79491,8,0.0163658,10,-0.000389558,-2.74596,-0.513561,-0.114884,8.06707,0.2170345,
2,0,0,1,0,14962.3,0.215839,0.21553,-1.79704,8,0.0163203,10,-0.000387316,-2.74544,-0.548181,-0.107629,7.62326,0.21553,
2,0,0,1,0,14962.4,0.214338,0.213968,-1.82193,8,0.0162745,10,-0.000389835,-2.73947,-0.455005,-0.129669,9.19984,0.213968,
2,0,0,1,0,14962.4,0.212844,0.212523,-1.84152,8,0.0162285,10,-0.000391366,-2.73482,-0.418568,-0.140957,10.0845,0.212523,
2,0,0,1,0,14962.4,0.211344,0.211015,-1.84785,8,0.016182,10,-0.000389925,-2.73333,-0.510045,-0.115676,8.34312,0.211015,
2,0,0,1,0,14962.4,0.209845,0.209572,-1.85174,8,0.0161352,10,-0.000388073,-2.73242,-0.532589,-0.11078,8.05154,0.209572,
2,0,0,1,0,14962.5,0.20835,0.208013,-1.87191,8,0.0160884,10,-0.000389381,-2.72771,-0.441403,-0.133665,9.7968,0.208013,
2,0,0,1,0,14962.5,0.206851,0.206489,-1.8935,8,0.0160409,10,-0.000390987,-2.72274,-0.46156,-0.127827,9.413,0.206489,
2,0,0,1,0,14962.5,0.20535,0.205008,-1.90836,8,0.0159929,10,-0.000391229,-2.71934,-0.42931,-0.13743,10.1744,0.205008,
2,0,0,1,0,14962.5,0.203856,0.203551,-1.90969,8,0.0159449,10,-0.000388719,-2.71904,-0.549534,-0.107364,8.04483,0.203551,
2,0,0,1,0,14962.6,0.202356,0.201985,-1.92591,8,0.0158965,10,-0.000389004,-2.71537,-0.594405,-0.099259,7.49081,0.201985,
2,0,0,1,0,14962.6,0.200857,0.200561,-1.94534,8,0.0158476,10,-0.000390159,-2.711,-0.404168,-0.145979,11.0623,0.200561,
2,0,0,1,0,14962.6,0.199357,0.199001,-1.95659,8,0.0157984,10,-0.000389363,-2.7085,-0.381152,-0.154794,11.8207,0.199001,
2,0,0,1,0,14962.6,0.197863,0.197534,-1.97132,8,0.015749,10,-0.000389402,-2.70524,-0.539561,-0.109348,8.42069,0.197534,
2,0,0,1,0,14962.7,0.196362,0.196058,-1.98417,8,0.0156992,10,-0.000389011,-2.70242,-0.589833,-0.100028,7.7509,0.196058,
2,0,0,1,0,14962.7,0.194861,0.194492,-2.00515,8,0.0156489,10,-0.000389986,-2.69785,-0.398413,-0.148088,11.5613,0.194492,
2,0,0,1,0,14962.7,0.193367,0.192991,-2.02659,8,0.0155984,10,-0.000391114,-2.69323,-0.359348,-0.164186,12.9317,0.192991,
2,0,0,1,0,14962.7,0.191868,0.191541,-2.03121,8,0.0155472,10,-0.00038906,-2.69224,-0.433633,-0.13606,10.8173,0.191541,
2,0,0,1,0,14962.8,0.190368,0.190063,-2.04433,8,0.0154957,10,-0.000388552,-2.68945,-0.458337,-0.128726,10.3225,0.190063,
2,0,0,1,0,14962.8,0.18887,0.188549,-2.07203,8,0.0154438,10,-0.000390678,-2.6836,-0.382408,-0.154285,12.4458,0.188549,
2,0,0,1,0,14962.8,0.187376,0.187039,-2.08742,8,0.0153916,10,-0.000390429,-2.68039,-0.340683,-0.173182,14.0839,0.187039,
2,0,0,1,0,14962.8,0.185875,0.185521,-2.10162,8,0.0153388,10,-0.000389894,-2.67745,-0.487762,-0.120961,9.93668,0.185521,
2,0,0,1,0,14962.9,0.184374,0.184031,-2.11342,8,0.0152856,10,-0.000388934,-2.67501,-0.445335,-0.132485,10.962,0.184031,
2,0,0,1,0,14962.9,0.18288,0.182544,-2.14527,8,0.0152321,10,-0.000391605,-2.66852,-0.334245,-0.176517,14.7666,0.182544,
2,0,0,1,0,14962.9,0.18138,0.181035,-2.16295,8,0.0151779,10,-0.00039157,-2.66495,-0.319258,-0.184804,15.6133,0.181035,
2,0,0,1,0,14962.9,0.179881,0.179538,-2.1801,8,0.015123,10,-0.000391412,-2.66152,-0.404793,-0.145753,12.4229,0.179538,
2,0,0,1,0,14963,0.178387,0.178086,-2.21059,8,0.0150678,10,-0.000393676,-2.65549,-0.389924,-0.151311,13.0456,0.178086,
2,0,0,1,0,14963,0.176886,0.176555,-2.23611,8,0.015012,10,-0.000394797,-2.65051,-0.337321,-0.174907,15.2325,0.176555,
2,0,0,1,0,14963,0.175385,0.175051,-2.25777,8,0.0149555,10,-0.000395224,-2.64632,-0.259066,-0.227741,20.0369,0.175051,
2,0,0,1,0,14963,0.173892,0.173553,-2.27832,8,0.0148986,10,-0.00039541,-2.64239,-0.27293,-0.216173,19.2592,0.173553,
2,0,0,1,0,14963.1,0.172392,0.172047,-2.31091,8,0.0148407,10,-0.000397584,-2.63622,-0.287049,-0.20554,18.5339,0.172047,
2,0,0,1,0,14963.1,0.170893,0.17055,-2.33983,8,0.0147822,10,-0.000399059,-2.63082,-0.283156,-0.208366,19.0226,0.17055,
2,0,0,1,0,14963.1,0.169393,0.169075,-2.36778,8,0.014723,10,-0.000400333,-2.62566,-0.227562,-0.25927,23.9544,0.169075,
2,0,0,1,0,14963.1,0.167899,0.167557,-2.4,8,0.0146631,10,-0.000402137,-2.61979,-0.228282,-0.258452,24.2915,0.167557,
2,0,0,1,0,14963.2,0.166398,0.166085,-2.44248,8,0.014602,10,-0.00040566,-2.61217,-0.256859,-0.229698,21.8642,0.166085,
2,0,0,1,0,14963.2,0.164898,0.164542,-2.47696,8,0.0145402,10,-0.000407565,-2.60608,-0.215304,-0.274032,26.4993,0.164542,
2,0,0,1,0,14963.2,0.163403,0.163069,-2.52322,8,0.0144775,10,-0.000411458,-2.59805,-0.187905,-0.313988,30.8453,0.163069,
2,0,0,1,0,14963.2,0.161904,0.161584,-2.56099,8,0.0144135,10,-0.000413814,-2.59159,-0.179324,-0.329014,33.0106,0.161584,
2,0,0,1,0,14963.3,0.160404,0.1601,-2.61461,8,0.0143483,10,-0.000418598,-2.58259,-0.197076,-0.299376,30.5956,0.1601,
2,0,0,1,0,14963.3,0.158905,0.158573,-2.66655,8,0.0142818,10,-0.000422844,-2.57405,-0.172289,-0.342448,35.7143,0.158573,
2,0,0,1,0,14963.3,0.157411,0.157095,-2.72641,8,0.0142143,10,-0.000428304,-2.56441,-0.148493,-0.397325,42.3866,0.157095,
2,0,0,1,0,14963.3,0.155911,0.155583,-2.78531,8,0.0141449,10,-0.000433347,-2.55513,-0.132461,-0.445416,48.6155,0.1555834,
2,0,0,1,0,14963.4,0.15441,0.154098,-2.8605,8,0.0140737,10,-0.000440797,-2.54356,-0.140711,-0.4193,46.8718,0.154098,
2,0,0,1,0,14963.4,0.152916,0.152581,-2.94393,8,0.0140009,10,-0.000449187,-2.53107,-0.130721,-0.451343,51.8713,0.152581,
2,0,0,1,0,14963.4,0.151417,0.151087,-3.02314,8,0.013926,10,-0.000456757,-2.51954,-0.116132,-0.508044,60.1154,0.151087,
2,0,0,1,0,14963.4,0.149917,0.149575,-3.11525,8,0.0138489,10,-0.000465965,-2.50651,-0.103862,-0.568061,69.3125,0.149575,
2,0,0,1,0,14963.5,0.148423,0.14812,-3.22052,8,0.0137694,10,-0.000477023,-2.49207,-0.103347,-0.570893,72.0118,0.14812,
2,0,0,1,0,14963.5,0.146922,0.146572,-3.34459,8,0.0136869,10,-0.000490224,-2.47566,-0.100215,-0.588734,76.8051,0.146572,
2,0,0,1,0,14963.5,0.145421,0.145077,-3.46647,8,0.0136015,10,-0.000502906,-2.46011,-0.0896147,-0.658374,89.0644,0.145077,
2,0,0,1,0,14963.5,0.143927,0.1436,-3.59655,8,0.0135131,10,-0.000516464,-2.44411,-0.0846581,-0.696921,98.1679,0.1436,
2,0,0,1,0,14963.6,0.142429,0.142092,-3.75126,8,0.0134208,10,-0.000533024,-2.42582,-0.0853769,-0.691053,101.399,0.142092,
2,0,0,1,0,14963.6,0.140929,0.140581,-3.91506,8,0.0133245,10,-0.000550383,-2.40726,-0.0840415,-0.702034,107.242,0.140581,
2,0,0,1,0,14963.6,0.13943,0.139079,-4.07891,8,0.0132241,10,-0.000567289,-2.38946,-0.0815316,-0.723646,115.33,0.139079,
2,0,0,1,0,14963.6,0.137935,0.137628,-4.25312,8,0.0131199,10,-0.000585349,-2.37129,-0.0794446,-0.742656,123.527,0.137628,
2,0,0,1,0,14963.7,0.136435,0.136102,-4.43705,8,0.0130107,10,-0.000603889,-2.35291,-0.0830317,-0.710572,123.231,0.136102,
2,0,0,1,0,14963.7,0.134934,0.134621,-4.63443,8,0.0128968,10,-0.00062389,-2.334,-0.085082,-0.693449,125.113,0.134621,
2,0,0,1,0,14963.7,0.13344,0.133125,-4.82486,8,0.0127786,10,-0.000642311,-2.31652,-0.0877343,-0.672485,126.355,0.133125,
2,0,0,1,0,14963.7,0.13194,0.131636,-5.00479,8,0.0126553,10,-0.000658813,-2.30061,-0.0907583,-0.650079,127.089,0.131636,
2,0,0,1,0,14963.8,0.13044,0.130116,-5.18419,8,0.0125273,10,-0.000674545,-2.28532,-0.0968467,-0.60921,123.42,0.130116,
2,0,0,1,0,14963.8,0.128941,0.128589,-5.38533,8,0.0123946,10,-0.000692494,-2.26879,-0.104443,-0.564902,118.325,0.128589,
2,0,0,1,0,14963.8,0.127447,0.127165,-5.56814,8,0.0122578,10,-0.000708072,-2.25429,-0.109968,-0.536519,116.081,0.1271649,
2,0,0,1,0,14963.8,0.125946,0.125639,-5.72572,8,0.0121163,10,-0.000719373,-2.24217,-0.121442,-0.485828,108.357,0.1256389,
2,0,0,1,0,14963.9,0.124446,0.124073,-5.8822,8,0.0119708,10,-0.000729821,-2.23046,-0.130257,-0.452951,103.826,0.124073,
2,0,0,1,0,14963.9,0.122952,0.122636,-6.03127,8,0.0118219,10,-0.000739649,-2.21959,-0.148265,-0.397937,93.4397,0.122636,
2,0,0,1,0,14963.9,0.121453,0.121129,-6.16988,8,0.0116689,10,-0.000747352,-2.20972,-0.16469,-0.358248,85.988,0.121129,
2,0,0,1,0,14963.9,0.119953,0.119628,-6.27972,8,0.0115127,10,-0.000751228,-2.20206,-0.182947,-0.322497,79.0446,0.119628,
2,0,0,1,0,14964,0.118459,0.118156,-6.39036,8,0.0113544,10,-0.000755062,-2.19447,-0.210913,-0.279736,69.8094,0.118156,
2,0,0,1,0,14964,0.116958,0.116592,-6.50531,8,0.0111926,10,-0.000758468,-2.18673,-0.241367,-0.244441,61.8889,0.116592,
2,0,0,1,0,14964,0.115457,0.115154,-6.59609,8,0.0110284,10,-0.000759565,-2.18071,-0.27621,-0.213605,54.777,0.115154,
2,0,0,1,0,14964,0.113963,0.113659,-6.65884,8,0.0108629,10,-0.000756837,-2.1766,-0.31346,-0.188222,48.8879,0.113659,
2,0,0,1,0,14964.1,0.112464,0.112183,-6.72398,8,0.0106951,10,-0.000754317,-2.17237,-0.402186,-0.146698,38.4805,0.112183,
2,0,0,1,0,14964.1,0.110965,0.110655,-6.77979,8,0.0105258,10,-0.000750215,-2.16878,-0.506947,-0.116383,30.7417,0.110655,
2,0,0,1,0,14964.1,0.109466,0.109161,-6.8207,8,0.0103553,10,-0.000744553,-2.16617,-0.691578,-0.0853121,22.6516,0.109161,
2,0,0,1,0,14964.1,0.107972,0.10765,-6.84497,8,0.0101846,10,-0.000736862,-2.16463,-1.01696,-0.0580159,15.4844,0.10765,
2,0,0,1,0,14964.2,0.106471,0.106138,-6.86051,8,0.0100128,10,-0.000728164,-2.16364,-1.71109,-0.0344809,9.23391,0.106138,
2,0,0,1,0,14964.2,0.10497,0.104656,-6.87728,8,0.00984065,10,-0.00071975,-2.16258,51.2404,0.00115143,-0.308225,0.104656,
2,0,0,1,0,14964.2,0.103476,0.103147,-6.879,8,0.009669,10,-0.000709548,-2.16247,2.78029,0.0212208,-5.67777,0.103147,
2,0,0,1,0,14964.2,0.101976,0.10167,-6.85364,8,0.00949696,10,-0.000696808,-2.16408,1.06573,0.0553609,-14.781,0.10167,
2,0,0,1,0,14964.3,0.100477,0.100143,-6.81614,8,0.00932559,10,-0.000682586,-2.16646,0.638559,0.0923956,-24.5883,0.100143,
2,0,0,1,0,14964.3,0.0989825,0.0986592,-6.78816,8,0.00915574,10,-0.000669715,-2.16825,0.564802,0.104461,-27.6345,0.09865924,
2,0,0,1,0,14964.3,0.0974817,0.0971486,-6.74595,8,0.00898622,10,-0.000655359,-2.17096,0.491331,0.120082,-31.5553,0.0971486,
2,0,0,1,0,14964.3,0.0959822,0.0956522,-6.69219,8,0.00881783,10,-0.000640123,-2.17443,0.417694,0.141252,-36.8077,0.09565223,
2,0,0,1,0,14964.4,0.094488,0.0941365,-6.61547,8,0.00865165,10,-0.000622757,-2.17944,0.337391,0.174871,-45.1924,0.0941365,
2,0,0,1,0,14964.4,0.0929884,0.0926459,-6.55639,8,0.00848649,10,-0.000607423,-2.18334,0.319442,0.184697,-47.2402,0.0926459,
2,0,0,1,0,14964.4,0.0914889,0.0911571,-6.49627,8,0.00832298,10,-0.000592181,-2.18734,0.317357,0.185911,-47.0483,0.0911571,
2,0,0,1,0,14964.4,0.0899894,0.0896481,-6.41204,8,0.00816124,10,-0.000574827,-2.193,0.300913,0.19607,-49.0354,0.08964815,
2,0,0,1,0,14964.5,0.0884951,0.0881547,-6.32773,8,0.00800209,10,-0.000557819,-2.19875,0.280262,0.210517,-52.0775,0.0881547,
2,0,0,1,0,14964.5,0.0869943,0.0866629,-6.26081,8,0.00784427,10,-0.00054258,-2.20337,0.278714,0.211687,-51.7233,0.0866629,
2,0,0,1,0,14964.5,0.0854935,0.0851859,-6.18966,8,0.00768823,10,-0.000527271,-2.20833,0.299615,0.196919,-47.5505,0.0851859,
2,0,0,1,0,14964.5,0.0839993,0.0836731,-6.11655,8,0.00753459,10,-0.00051179,-2.21349,0.304086,0.194024,-46.3233,0.08367306,
2,0,0,1,0,14964.6,0.0824998,0.0821613,-6.04481,8,0.00738205,10,-0.000496649,-2.21862,0.3236,0.182324,-43.0972,0.0821613,
2,0,0,1,0,14964.6,0.0810002,0.0807016,-5.98592,8,0.00723128,10,-0.000483074,-2.22287,0.337601,0.174763,-40.8837,0.0807016,
2,0,0,1,0,14964.6,0.0795007,0.0791726,-5.93683,8,0.00708186,10,-0.000470034,-2.22645,0.425076,0.138799,-32.1273,0.0791726,
2,0,0,1,0,14964.6,0.0780078,0.0776941,-5.88037,8,0.00693433,10,-0.00045687,-2.2306,0.447896,0.131727,-30.2465,0.0776941,
2,0,0,1,0,14964.7,0.076507,0.0761603,-5.83366,8,0.00678745,10,-0.000444293,-2.23406,0.455597,0.1295,-29.501,0.0761603,
2,0,0,1,0,14964.7,0.0750062,0.0747062,-5.78806,8,0.00664174,10,-0.000432403,-2.23747,0.462382,0.1276,-28.8417,0.0747062,
2,0,0,1,0,14964.7,0.073512,0.0731949,-5.75289,8,0.00649765,10,-0.000421082,-2.24011,0.554811,0.106343,-23.866,0.0731949,
2,0,0,1,0,14964.7,0.0720124,0.0716537,-5.71267,8,0.00635387,10,-0.000409334,-2.24316,0.620586,0.0950714,-21.221,0.0716537,
2,0,0,1,0,14964.8,0.0705129,0.0701899,-5.67343,8,0.00621095,10,-0.000398217,-2.24615,0.545,0.108257,-24.0124,0.0701899,
2,0,0,1,0,14964.8,0.0690187,0.0686856,-5.64159,8,0.00606951,10,-0.000387496,-2.2486,0.522623,0.112892,-24.8953,0.0686856,
2,0,0,1,0,14964.8,0.0675179,0.0671516,-5.61934,8,0.00592837,10,-0.000377348,-2.25031,0.637325,0.0925745,-20.2905,0.0671516,
2,0,0,1,0,14964.8,0.066017,0.0656683,-5.59531,8,0.00578787,10,-0.000367434,-2.25218,0.893471,0.0660346,-14.3937,0.0656683,
2,0,0,1,0,14964.9,0.0645242,0.0641952,-5.55482,8,0.00564862,10,-0.000356593,-2.25533,0.662723,0.0890266,-19.3034,0.0641952,
2,0,0,1,0,14964.9,0.0630246,0.0626775,-5.52707,8,0.00550957,10,-0.000346423,-2.25751,0.56344,0.104714,-22.5846,0.0626775,
2,0,0,1,0,14964.9,0.0615251,0.0611879,-5.49883,8,0.00537137,10,-0.000336462,-2.25973,0.648922,0.09092,-19.5022,0.0611879,
2,0,0,1,0,14964.9,0.0600256,0.0597141,-5.4621,8,0.00523391,10,-0.000326164,-2.26264,0.754264,0.078222,-16.6937,0.0597141,
2,0,0,1,0,14965,0.0585314,0.0582059,-5.43702,8,0.00509769,10,-0.000316467,-2.26464,0.649281,0.0908697,-19.293,0.0582059,
2,0,0,1,0,14965,0.0570305,0.0567046,-5.41273,8,0.0049616,10,-0.000306927,-2.26658,0.542738,0.108708,-22.9402,0.0567046,
2,0,0,1,0,14965,0.0555297,0.0551803,-5.38239,8,0.00482637,10,-0.000297002,-2.26902,0.593371,0.0994318,-20.8553,0.0551803,
2,0,0,1,0,14965,0.0540355,0.0537026,-5.3505,8,0.00469239,10,-0.000287336,-2.27161,0.74435,0.0792637,-16.5314,0.0537026,
2,0,0,1,0,14965.1,0.052536,0.0521901,-5.31898,8,0.00455854,10,-0.000277598,-2.27417,0.635414,0.0928529,-19.2866,0.0521901,
2,0,0,1,0,14965.1,0.0510364,0.0506636,-5.29201,8,0.00442546,10,-0.000268112,-2.27638,0.498222,0.118421,-24.4416,0.0506636,
2,0,0,1,0,14965.1,0.0495369,0.0491998,-5.25846,8,0.00429321,10,-0.000258715,-2.27914,0.543291,0.108597,-22.2688,0.0491998,
2,0,0,1,0,14965.1,0.0480427,0.0477074,-5.22455,8,0.00416231,10,-0.00024925,-2.28195,0.62913,0.0937804,-19.1197,0.0477074,
2,0,0,1,0,14965.2,0.0465432,0.0462324,-5.18646,8,0.00403168,10,-0.000239782,-2.28513,0.581081,0.101535,-20.5811,0.04623241,
2,0,0,1,0,14965.2,0.0450424,0.0447172,-5.15637,8,0.00390183,10,-0.000230579,-2.28766,0.493009,0.119673,-24.0833,0.0447172,
2,0,0,1,0,14965.2,0.0435482,0.0432103,-5.12181,8,0.00377337,10,-0.000221315,-2.29058,0.470258,0.125463,-25.0669,0.0432103,
2,0,0,1,0,14965.2,0.0420486,0.0417191,-5.09119,8,0.00364528,10,-0.0002124,-2.29318,0.576463,0.102348,-20.3382,0.0417191,
2,0,0,1,0,14965.3,0.0405491,0.0401963,-5.0542,8,0.00351805,10,-0.00020316,-2.29635,0.540317,0.109195,-21.5473,0.0401963,
2,0,0,1,0,14965.3,0.0390549,0.0387409,-5.02448,8,0.00339206,10,-0.000194653,-2.29891,0.409344,0.144133,-28.2128,0.0387409,
2,0,0,1,0,14965.3,0.0375541,0.0371885,-4.98524,8,0.00326653,10,-0.000185394,-2.30231,0.425626,0.138619,-26.9289,0.0371885,
2,0,0,1,0,14965.3,0.0360532,0.0356713,-4.94332,8,0.00314211,10,-0.000176335,-2.30598,0.447883,0.131731,-25.4149,0.03567135,
2,0,0,1,0,14965.4,0.034559,0.0342416,-4.89778,8,0.00301913,10,-0.000167708,-2.31,0.45177,0.130598,-24.9958,0.03424155,
2,0,0,1,0,14965.4,0.0330595,0.0327125,-4.86544,8,0.00289661,10,-0.000159161,-2.31288,0.380702,0.154977,-29.3976,0.0327125,
2,0,0,1,0,14965.4,0.0315613,0.0312178,-4.82245,8,0.00277511,10,-0.000150546,-2.31673,0.388628,0.151816,-28.5622,0.0312178,
2,0,0,1,0,14965.4,0.0300618,0.029706,-4.78017,8,0.00265474,10,-0.000142,-2.32056,0.417006,0.141485,-26.3687,0.02970599,
2,0,0,1,0,14965.5,0.0285676,0.0281751,-4.73208,8,0.00253583,10,-0.000133327,-2.32495,0.413047,0.142841,-26.4096,0.0281751,
2,0,0,1,0,14965.5,0.0270667,0.0267131,-4.69601,8,0.0024175,10,-0.000125445,-2.32827,0.356384,0.165552,-30.3273,0.0267131,
2,0,0,1,0,14965.5,0.0255659,0.0252148,-4.65702,8,0.00230022,10,-0.000117426,-2.33189,0.328987,0.179338,-32.5138,0.0252148,
2,0,0,1,0,14965.5,0.0240717,0.0237409,-4.60348,8,0.00218454,10,-0.000109291,-2.33691,0.394983,0.149373,-26.8589,0.0237409,
2,0,0,1,0,14965.6,0.0225722,0.0222519,-4.55711,8,0.00206957,10,-0.000101404,-2.34131,0.407047,0.144947,-25.8435,0.0222519,
2,0,0,1,0,14965.6,0.0210726,0.0207396,-4.51893,8,0.00195556,10,-9.37208e-05,-2.34496,0.386739,0.152558,-26.9403,0.0207396,
2,0,0,1,0,14965.6,0.0195784,0.0192414,-4.48781,8,0.00184296,10,-8.63519e-05,-2.34797,0.370827,0.159104,-27.8072,0.0192414,
2,0,0,1,0,14965.6,0.0180789,0.0177298,-4.43957,8,0.00173094,10,-7.87126e-05,-2.35266,0.395208,0.149289,-25.8832,0.0177298,
2,0,0,1,0,14965.7,0.0165781,0.0162367,-4.40472,8,0.00161999,10,-7.15181e-05,-2.35608,0.463979,0.127161,-21.8862,0.0162367,
2,0,0,1,0,14965.7,0.0150839,0.0147418,-4.37433,8,0.00151032,10,-6.44855e-05,-2.35909,0.428142,0.137805,-23.5035,0.01474179,
2,0,0,1,0,14965.7,0.0135844,0.013244,-4.34456,8,0.00140094,10,-5.75391e-05,-2.36205,0.434013,0.135941,-22.9837,0.013244,
2,0,0,1,0,14965.7,0.0120848,0.0117606,-4.3059,8,0.00129246,10,-5.06398e-05,-2.36594,0.50593,0.116617,-19.6109,0.0117606,
2,0,0,1,0,14965.8,0.0105853,0.0102625,-4.26377,8,0.00118487,10,-4.37568e-05,-2.37021,0.512068,0.115219,-19.2349,0.0102625,
2,0,0,1,0,14965.8,0.00909108,0.00879666,-4.24483,8,0.0010784,10,-3.73403e-05,-2.37214,0.49807,0.118457,-19.6366,0.00879666,
2,0,0,1,0,14965.8,0.00759027,0.00730307,-4.22286,8,0.000972142,10,-3.08399e-05,-2.37439,0.522923,0.112827,-18.57,0.00730307,
2,0,0,1,0,14965.8,0.00608945,0.00575675,-4.20291,8,0.000866492,10,-2.41951e-05,-2.37645,0.669966,0.0880642,-14.4208,0.00575675,
2,0,0,1,0,14965.9,0.00459524,0.00426879,-4.1688,8,0.000761943,10,-1.77957e-05,-2.37999,0.699583,0.084336,-13.7453,0.00426879,
2,0,0,1,0,14965.9,0.0030957,0.00279571,-4.15508,8,0.000657462,10,-1.16164e-05,-2.38142,2.29606,0.0256962,-4.18081,0.00279571,
2,0,0,1,0,14965.9,0.00159616,0.00123184,-4.17372,8,0.000552821,10,-5.14135e-06,-2.37948, , , ,0.00123184,
2,0,0,1,0,14965.9,0.000199195,-0.000197438,-4.1437,8,0.000455498,10,8.18126e-07,-2.38261, , , ,-0.000197438,