File: Figure_codes/Fig_3-5/rawdata_trumpetplot_data/after 10th/20221101_1-115_003_TrumpetPlot_ParaChange_from10_every3_02_CV_C01_19.csv
mode,ox/red,error,control changes,counter inc.,time/s,control/V,Ewe/V,<I>/mA,cycle number,(Q-Qo)/C,I Range,P/W,log(|I|),Tafel slope mV/dec,alpha_eff,dI/d(E-IR),E-IR/V,
2,0,0,1,0,37772.5,2.44065e-05,-0.000382585,-0.384972,20,0.0000000E+000,10,1.47285e-07,-3.41457, , , ,-0.000382585,
2,0,0,1,0,37773.8,0.00129791,0.000904781,-0.176946,20,-0.000262641,10,-1.60097e-07,-3.75216, , , ,0.0009047807,
2,0,0,1,0,37775.3,0.00279612,0.00250815,-0.141526,20,-0.00048093,10,-3.54968e-07,-3.84916,-0.0177358,-3.3266,19.928,0.00250815,
2,0,0,1,0,37776.8,0.00429431,0.00398528,-0.121924,20,-0.000661196,10,-4.859e-07,-3.91391,-0.0247127,-2.38744,11.5207,0.00398528,
2,0,0,1,0,37778.3,0.00579242,0.00548144,-0.107019,20,-0.000815697,10,-5.86616e-07,-3.97054,-0.0272933,-2.16171,9.1537,0.00548144,
2,0,0,1,0,37779.8,0.00729061,0.00696388,-0.0944823,20,-0.000949895,10,-6.57963e-07,-4.02465,-0.0295626,-1.99577,7.48162,0.00696388,
2,0,0,1,0,37781.3,0.00878882,0.00845907,-0.0849062,20,-0.00106806,10,-7.18228e-07,-4.07106,-0.0327946,-1.79907,6.04936,0.008459066,
2,0,0,1,0,37782.8,0.010287,0.00997334,-0.0770353,20,-0.00117337,10,-7.68299e-07,-4.11331,-0.0358263,-1.64683,4.99201,0.00997334,
2,0,0,1,0,37784.3,0.0117852,0.0114675,-0.070489,20,-0.00126736,10,-8.08331e-07,-4.15188,-0.036777,-1.60426,4.43026,0.0114675,
2,0,0,1,0,37785.8,0.0132834,0.0129075,-0.0638206,20,-0.00135205,10,-8.23766e-07,-4.19504,-0.037565,-1.57061,3.90251,0.0129075,
2,0,0,1,0,37787.3,0.0147815,0.0144344,-0.0579612,20,-0.00142769,10,-8.36634e-07,-4.23686,-0.0379658,-1.55403,3.55782,0.0144344,
2,0,0,1,0,37788.8,0.0162797,0.0159338,-0.0537577,20,-0.00149545,10,-8.56566e-07,-4.26956,-0.0440424,-1.33962,2.81194,0.0159338,
2,0,0,1,0,37790.3,0.0177779,0.0174884,-0.0491123,20,-0.0015567,10,-8.58897e-07,-4.30881,-0.0390956,-1.50912,2.89154,0.0174884,
2,0,0,1,0,37791.8,0.0192761,0.018939,-0.0451062,20,-0.00161177,10,-8.54265e-07,-4.34576,-0.0392137,-1.50457,2.646,0.018939,
2,0,0,1,0,37793.3,0.0207743,0.0203929,-0.0406753,20,-0.00166048,10,-8.29487e-07,-4.39067,-0.0395185,-1.49297,2.40547,0.0203929,
2,0,0,1,0,37794.8,0.0222725,0.0219802,-0.0377391,20,-0.00170367,10,-8.29515e-07,-4.42321,-0.0379367,-1.55522,2.29675,0.0219802,
2,0,0,1,0,37796.3,0.0237707,0.0234723,-0.0340051,20,-0.00174199,10,-7.98176e-07,-4.46846,-0.0352609,-1.67324,2.26141,0.0234723,
2,0,0,1,0,37797.8,0.0252689,0.0249389,-0.0312566,20,-0.0017757,10,-7.79503e-07,-4.50506,-0.032509,-1.81488,2.18851,0.0249389,
2,0,0,1,0,37799.3,0.0267671,0.026433,-0.0282792,20,-0.00180448,10,-7.47503e-07,-4.54853,-0.0292876,-2.0145,2.21217,0.026433,
2,0,0,1,0,37800.7,0.0282653,0.0279313,-0.0251555,20,-0.00182821,10,-7.02626e-07,-4.59937,-0.0289729,-2.03639,1.97665,0.0279313,
2,0,0,1,0,37802.2,0.0297635,0.0294021,-0.022136,20,-0.00184778,10,-6.50845e-07,-4.6549,-0.0292129,-2.01966,1.7555,0.0294021,
2,0,0,1,0,37803.7,0.0312617,0.0309334,-0.019801,20,-0.00186314,10,-6.12512e-07,-4.70331,-0.0271965,-2.16939,1.67515,0.0309334,
2,0,0,1,0,37805.2,0.0327599,0.0324286,-0.0170586,20,-0.00187504,10,-5.53187e-07,-4.76806,-0.0213981,-2.75726,1.82182,0.0324286,
2,0,0,1,0,37806.7,0.0342581,0.0339248,-0.014394,20,-0.00188254,10,-4.88313e-07,-4.84182,-0.0179899,-3.27963,1.8391,0.0339248,
2,0,0,1,0,37808.2,0.0357563,0.035402,-0.0117968,20,-0.0018859,10,-4.17629e-07,-4.92824,-0.0164914,-3.57763,1.6298,0.035402,
2,0,0,1,0,37809.7,0.0372544,0.0369383,-0.00943824,20,-0.00188569,10,-3.48633e-07,-5.02511,-0.0130533,-4.51994,1.56049,0.0369383,
2,0,0,1,0,37811.2,0.0387526,0.03839,-0.00710547,20,-0.00188221,10,-2.72779e-07,-5.14841,-0.0074018,-7.97103,1.78762,0.03839,
2,0,0,1,0,37812.7,0.0402508,0.0398991,-0.00466019,20,-0.00187449,10,-1.85937e-07,-5.3316,-0.00543056,-10.8644,1.56485,0.0398991,
2,0,0,1,0,37814.2,0.041749,0.0414589,-0.00220937,20,-0.00186282,10,-9.15979e-08,-5.65573,-0.00209252,-28.1957,1.33387,0.04145892,
2,0,0,1,0,37815.7,0.0432472,0.0429032,-3.82806e-05,20,-0.00184817,10,-1.64236e-09,-7.41702,-0.040729,-1.4486,1.31472,0.0429032,
2,0,0,1,0,37817.2,0.0447454,0.0443708,0.00208899,20,-0.0018306,10,9.26903e-08,-5.68006,0.00600612,9.82332,1.3105,0.0443708,
2,0,0,1,0,37818.7,0.0462435,0.045902,0.00422458,20,-0.00180957,10,1.93916e-07,-5.37422,0.00459574,12.838,1.36532,0.045902,
2,0,0,1,0,37820.2,0.0477417,0.0473717,0.00579327,20,-0.00178567,10,2.74437e-07,-5.23708,0.0105223,5.60716,1.21172,0.04737173,
2,0,0,1,0,37821.7,0.0492399,0.0489263,0.00746283,20,-0.00175885,10,3.65128e-07,-5.1271,0.0125221,4.71166,1.38971,0.0489263,
2,1,0,1,0,37823.2,0.0507381,0.0504331,0.00962548,20,-0.00172952,10,4.85443e-07,-5.01658,0.0156202,3.77716,1.397,0.0504331,
2,1,0,1,0,37824.7,0.0522363,0.051923,0.0118395,20,-0.00169636,10,6.14744e-07,-4.92667,0.0157597,3.74374,1.60709,0.05192301,
2,1,0,1,0,37826.2,0.0537345,0.0533832,0.0142364,20,-0.00166016,10,7.59983e-07,-4.8466,0.0221501,2.66364,1.41718,0.0533832,
2,1,0,1,0,37827.7,0.0552327,0.0549038,0.0158118,20,-0.00162109,10,8.68131e-07,-4.80102,0.027368,2.1558,1.29909,0.0549038,
2,1,0,1,0,37829.2,0.0567309,0.056381,0.0171357,20,-0.00157918,10,9.66126e-07,-4.7661,0.0356918,1.65304,1.11505,0.056381,
2,1,0,1,0,37830.7,0.0582291,0.0578815,0.0195617,20,-0.00153457,10,1.13226e-06,-4.70859,0.0359427,1.6415,1.24933,0.0578815,
2,1,0,1,0,37832.2,0.0597273,0.0593756,0.0215043,20,-0.00148689,10,1.27683e-06,-4.66747,0.04351,1.35601,1.11858,0.0593756,
2,1,0,1,0,37833.7,0.0612255,0.0609015,0.0228224,20,-0.00143668,10,1.38992e-06,-4.64164,0.0606269,0.973165,0.859845,0.0609015,
2,1,0,1,0,37835.2,0.0627237,0.0624317,0.0244497,20,-0.00138432,10,1.52644e-06,-4.61173,0.0492469,1.19804,1.14577,0.0624317,
2,1,0,1,0,37836.7,0.0642219,0.063894,0.0258978,20,-0.00132953,10,1.65471e-06,-4.58674,0.0459819,1.28311,1.3228,0.063894,
2,1,0,1,0,37838.2,0.0657201,0.0654083,0.0278126,20,-0.00127201,10,1.81917e-06,-4.55576,0.0630287,0.936082,1.01116,0.06540826,
2,1,0,1,0,37839.7,0.0672183,0.0668451,0.0294764,20,-0.00121169,10,1.97035e-06,-4.53053,0.072534,0.813411,0.919689,0.0668451,
2,1,0,1,0,37841.2,0.0687164,0.0684314,0.0311604,20,-0.00114946,10,2.13235e-06,-4.5064,0.0707711,0.833673,1.00506,0.0684314,
2,1,0,1,0,37842.7,0.0702146,0.0699075,0.0323159,20,-0.00108553,10,2.25913e-06,-4.49058,0.0675389,0.87357,1.10368,0.0699075,
2,1,0,1,0,37844.2,0.0717128,0.0714006,0.0346074,20,-0.00101837,10,2.47099e-06,-4.46083,0.0598727,0.985423,1.31213,0.0714006,
2,1,0,1,0,37845.7,0.073211,0.0728597,0.0358711,20,-0.000948512,10,2.61356e-06,-4.44525,0.0784342,0.752223,1.05707,0.0728597,
2,1,0,1,0,37847.2,0.0747092,0.074392,0.0374834,20,-0.000876356,10,2.78846e-06,-4.42616,0.121235,0.48666,0.711459,0.074392,
2,1,0,1,0,37848.7,0.0762074,0.0758808,0.0379025,20,-0.000802533,10,2.87607e-06,-4.42133,0.0961936,0.613346,0.92643,0.0758808,
2,1,0,1,0,37850.2,0.0777055,0.0774183,0.0397633,20,-0.000726776,10,3.07841e-06,-4.40052,0.0925889,0.637225,0.988729,0.0774183,
2,1,0,1,0,37851.7,0.0792037,0.0788753,0.0415932,20,-0.000648954,10,3.28068e-06,-4.38098,0.112178,0.525951,0.847057,0.0788753,
2,1,0,1,0,37853.2,0.0807019,0.0803663,0.0425332,20,-0.00056892,10,3.41824e-06,-4.37127,0.104851,0.562705,0.925968,0.0803663,
2,1,0,1,0,37854.7,0.0822001,0.0818794,0.0435882,20,-0.000486865,10,3.56898e-06,-4.36063,0.101587,0.580782,0.998132,0.0818794,
2,1,0,1,0,37856.2,0.0836983,0.0833747,0.0454352,20,-0.000402699,10,3.78814e-06,-4.34261,0.0962646,0.612894,1.09123,0.0833747,
2,1,0,1,0,37857.7,0.0851965,0.0848592,0.0470586,20,-0.000316035,10,3.99336e-06,-4.32736,0.0925938,0.637192,1.18126,0.08485923,
2,1,0,1,0,37859.2,0.0866947,0.0863661,0.0491013,20,-0.000226451,10,4.24069e-06,-4.30891,0.0945611,0.623935,1.1876,0.08636611,
2,1,0,1,0,37860.7,0.0881929,0.0878273,0.0503402,20,-0.000134178,10,4.42124e-06,-4.29809,0.088757,0.664736,1.33442,0.08782731,
2,1,0,1,0,37862.2,0.0896911,0.0893405,0.0529594,20,-3.92792e-05,10,4.73142e-06,-4.27606,0.079437,0.742727,1.54279,0.0893405,
2,1,0,1,0,37863.7,0.0911893,0.0908453,0.0553803,20,5.91908e-05,10,5.03104e-06,-4.25664,0.0971498,0.607309,1.29438,0.0908453,
2,1,0,1,0,37865.2,0.0926875,0.0923617,0.0569765,20,0.000160844,10,5.26244e-06,-4.2443,0.0950488,0.620734,1.3732,0.0923617,
2,1,0,1,0,37866.7,0.0941857,0.0938558,0.0588957,20,0.00026509,10,5.5277e-06,-4.22992,0.0922018,0.639901,1.45907,0.0938558,
2,1,0,1,0,37868.2,0.0956839,0.0953722,0.0602045,20,0.000371675,10,5.74183e-06,-4.22037,0.112913,0.522524,1.23757,0.0953722,
2,1,0,1,0,37869.7,0.0971821,0.0968493,0.0628735,20,0.000481611,10,6.08926e-06,-4.20153,0.0967081,0.610083,1.48402,0.0968493,
2,1,0,1,0,37871.2,0.0986803,0.0983371,0.0645051,20,0.000594545,10,6.34324e-06,-4.19041,0.100529,0.586895,1.48641,0.0983371,
2,1,0,1,0,37872.7,0.100178,0.099881,0.0672216,20,0.00071105,10,6.71416e-06,-4.17249,0.09872,0.59765,1.56817,0.099881,
2,1,0,1,0,37874.2,0.101677,0.101341,0.0689292,20,0.000830766,10,6.98537e-06,-4.1616,0.10793,0.546652,1.48356,0.101341,
2,1,0,1,0,37875.7,0.103175,0.102882,0.0715175,20,0.00095396,10,7.35786e-06,-4.14559,0.105299,0.56031,1.559,0.102882,
2,1,0,1,0,37877.2,0.104673,0.104343,0.0740744,20,0.0010809,10,7.72915e-06,-4.13033,0.128551,0.458964,1.31173,0.104343,
2,1,0,1,0,37878.7,0.106171,0.105884,0.0752284,20,0.0012107,10,7.96547e-06,-4.12362,0.182893,0.322593,0.944753,0.105884,
2,1,0,1,0,37880.2,0.107669,0.107342,0.0764199,20,0.00134263,10,8.20307e-06,-4.11679,0.143327,0.411645,1.2409,0.107342,
2,1,0,1,0,37881.7,0.109167,0.108839,0.0785382,20,0.00147698,10,8.54803e-06,-4.10492,0.14756,0.399836,1.23447,0.108839,
2,1,0,1,0,37883.1,0.110666,0.110346,0.0809565,20,0.00161474,10,8.93323e-06,-4.09175,0.153659,0.383966,1.21196,0.110346,
2,1,0,1,0,37884.6,0.112164,0.111827,0.0827294,20,0.00175536,10,9.25142e-06,-4.08234,0.181482,0.3251,1.04559,0.111827,
2,1,0,1,0,37886.1,0.113662,0.113368,0.084563,20,0.00189865,10,9.58675e-06,-4.07282,0.169626,0.347823,1.15015,0.113368,
2,1,0,1,0,37887.6,0.11516,0.114824,0.0864293,20,0.00204405,10,9.92418e-06,-4.06334,0.170771,0.345491,1.16335,0.114824,
2,1,0,1,0,37889.1,0.116658,0.116356,0.0884151,20,0.00219266,10,1.02877e-05,-4.05347,0.182465,0.323349,1.10817,0.116356,
2,1,0,1,0,37890.6,0.118157,0.117853,0.0898876,20,0.00234397,10,1.05935e-05,-4.0463,0.204892,0.287957,1.00634,0.117853,
2,1,0,1,0,37892.1,0.119655,0.119343,0.0915331,20,0.00249731,10,1.09238e-05,-4.03842,0.263993,0.22349,0.793866,0.119343,
2,1,0,1,0,37893.6,0.121153,0.120799,0.092428,20,0.0026524,10,1.11652e-05,-4.0342,0.197947,0.298059,1.08063,0.120799,
2,1,0,1,0,37895.1,0.122651,0.12233,0.0938998,20,0.00281021,10,1.14867e-05,-4.02734,0.144366,0.408685,1.49688,0.12233,
2,1,0,1,0,37896.6,0.124149,0.123838,0.0954811,20,0.00297049,10,1.18242e-05,-4.02008,0.249167,0.236789,0.882862,0.123838,
2,1,0,1,0,37898.1,0.125648,0.125336,0.0970816,20,0.00313315,10,1.21678e-05,-4.01286,0.345675,0.170681,0.644142,0.125336,
2,1,0,1,0,37899.6,0.127146,0.126859,0.0970201,20,0.00329707,10,1.23079e-05,-4.01314,0.401592,0.146915,0.560145,0.126859,
2,1,0,1,0,37901.1,0.128644,0.128265,0.0986322,20,0.00346189,10,1.26511e-05,-4.00598,0.888848,0.0663781,0.255098,0.128265,
2,1,0,1,0,37902.6,0.130142,0.129797,0.0991601,20,0.00362799,10,1.28707e-05,-4.00366,1.74036,0.0339011,0.130033,0.129797,
2,1,0,1,0,37904.1,0.13164,0.131279,0.0994505,20,0.00379475,10,1.30557e-05,-4.00239,-0.551326,-0.107015,-0.409515,0.131279,
2,1,0,1,0,37905.6,0.133139,0.132801,0.0978041,20,0.00396043,10,1.29885e-05,-4.00964,-0.234548,-0.251548,-0.962118,0.132801,
2,1,0,1,0,37907.1,0.134637,0.134318,0.0971606,20,0.00412403,10,1.30504e-05,-4.01251,-0.188906,-0.312325,-1.1748,0.134318,
2,1,0,1,0,37908.6,0.136135,0.135829,0.0946108,20,0.00428551,10,1.28509e-05,-4.02406,-0.149523,-0.394587,-1.45335,0.135829,
2,1,0,1,0,37910.1,0.137633,0.137343,0.0917229,20,0.0044431,10,1.25975e-05,-4.03752,-0.0985495,-0.598684,-2.13769,0.137343,
2,1,0,1,0,37911.6,0.139131,0.138818,0.0889373,20,0.00459605,10,1.23461e-05,-4.05092,-0.0909797,-0.648497,-2.23247,0.138818,
2,1,0,1,0,37913.1,0.14063,0.140352,0.0850259,20,0.00474348,10,1.19336e-05,-4.07045,-0.0751569,-0.785025,-2.5884,0.140352,
2,1,0,1,0,37914.6,0.142128,0.141782,0.0810668,20,0.00488483,10,1.14938e-05,-4.09116,-0.0687006,-0.858799,-2.71382,0.141782,
2,1,0,1,0,37916.1,0.143626,0.14332,0.076724,20,0.00502027,10,1.09961e-05,-4.11507,-0.0705679,-0.836075,-2.50648,0.14332,
2,1,0,1,0,37917.6,0.145124,0.144817,0.0729905,20,0.00514941,10,1.05702e-05,-4.13673,-0.0680146,-0.867461,-2.49489,0.1448167,
2,1,0,1,0,37919.1,0.146622,0.146275,0.0689541,20,0.0052725,10,1.00863e-05,-4.16144,-0.0724102,-0.814803,-2.21925,0.146275,
2,1,0,1,0,37920.6,0.14812,0.14776,0.0659642,20,0.00539053,10,9.7469e-06,-4.18069,-0.0838385,-0.703734,-1.81307,0.14776,
2,1,0,1,0,37922.1,0.149619,0.149312,0.0635954,20,0.00550432,10,9.49554e-06,-4.19657,-0.0889742,-0.663114,-1.6384,0.149312,
2,1,0,1,0,37923.6,0.151117,0.150794,0.0608112,20,0.0056137,10,9.16999e-06,-4.21602,-0.0920436,-0.641001,-1.52519,0.150794,
2,1,0,1,0,37925.1,0.152615,0.152301,0.0583596,20,0.00571943,10,8.88823e-06,-4.23389,-0.101908,-0.578952,-1.32885,0.152301,
2,1,0,1,0,37926.6,0.154113,0.153773,0.0569388,20,0.00582218,10,8.75565e-06,-4.24459,-0.123608,-0.477315,-1.06416,0.153773,
2,1,0,1,0,37928.1,0.155611,0.155244,0.0557306,20,0.00592287,10,8.65183e-06,-4.25391,-0.151631,-0.389104,-0.848325,0.1552438,
2,1,0,1,0,37929.6,0.15711,0.156765,0.0544709,20,0.00602157,10,8.53915e-06,-4.26384,-0.178448,-0.330629,-0.703232,0.156765,
2,1,0,1,0,37931.1,0.158608,0.158283,0.0532824,20,0.00611853,10,8.43369e-06,-4.27342,-0.229749,-0.256802,-0.539757,0.158283,
2,1,0,1,0,37932.6,0.160106,0.159813,0.0528349,20,0.00621396,10,8.44371e-06,-4.27708,-0.361886,-0.163035,-0.337333,0.159813,
2,1,0,1,0,37934.1,0.161604,0.161314,0.0524701,20,0.00630912,10,8.46414e-06,-4.28009,-0.358316,-0.164659,-0.33616,0.161314,
2,1,0,1,0,37935.6,0.163102,0.162796,0.0517367,20,0.00640299,10,8.42253e-06,-4.2862,-0.37179,-0.158692,-0.32249,0.162796,
2,1,0,1,0,37937.1,0.164601,0.164275,0.0519516,20,0.006496,10,8.53435e-06,-4.2844,-0.550727,-0.107131,-0.214907,0.164275,
2,1,0,1,0,37938.6,0.166099,0.165739,0.0511534,20,0.00658859,10,8.47809e-06,-4.29113,-1.26687,-0.0465715,-0.0928911,0.165739,
2,1,0,1,0,37940.1,0.167597,0.167288,0.0508457,20,0.00668087,10,8.50587e-06,-4.29375,-1.87258,-0.0315073,-0.0626077,0.167288,
2,1,0,1,0,37941.6,0.169095,0.168787,0.0509108,20,0.00677325,10,8.5931e-06,-4.29319,11.4377,0.00515839,0.0102774,0.168787,
2,1,0,1,0,37943.1,0.170593,0.170275,0.0505283,20,0.00686527,10,8.60371e-06,-4.29647,-0.556013,-0.106113,-0.211709,0.170275,
2,1,0,1,0,37944.6,0.172091,0.17175,0.0505634,20,0.00695661,10,8.68427e-06,-4.29616,-0.456278,-0.129307,-0.257437,0.17175,
2,1,0,1,0,37946.1,0.17359,0.173286,0.0504403,20,0.00704763,10,8.74062e-06,-4.29722,24.7969,0.00237933,0.00470481,0.173286,
2,1,0,1,0,37947.6,0.175088,0.174727,0.0506185,20,0.00713861,10,8.84439e-06,-4.29569,8.12363,0.00726277,0.0142459,0.1747265,
2,1,0,1,0,37949.1,0.176586,0.176268,0.0509418,20,0.00723017,10,8.97942e-06,-4.29293,0.921595,0.0640194,0.126412,0.176268,
2,1,0,1,0,37950.6,0.178084,0.177758,0.0502765,20,0.00732134,10,8.93707e-06,-4.29863,1.59563,0.036976,0.0732059,0.177758,
2,1,0,1,0,37952.1,0.179582,0.179276,0.0507021,20,0.00741262,10,9.08965e-06,-4.29497,3.29844,0.0178872,0.0353612,0.179276,
2,1,0,1,0,37953.6,0.181081,0.180734,0.0510683,20,0.00750413,10,9.22976e-06,-4.29185,1.18219,0.0499073,0.0987472,0.180734,
2,1,0,1,0,37955.1,0.182579,0.182275,0.0504035,20,0.00759542,10,9.18727e-06,-4.29754,-1.40473,-0.0420011,-0.0834705,0.182275,
2,1,0,1,0,37956.6,0.184077,0.183728,0.051339,20,0.007687,10,9.43243e-06,-4.28955,1.07637,0.0548137,0.108851,0.183728,
2,1,0,1,0,37958.1,0.185575,0.185254,0.0510107,20,0.00777856,10,9.44996e-06,-4.29234,14.5991,0.00404135,0.00806092,0.185254,
2,1,0,1,0,37959.6,0.187073,0.186776,0.0511422,20,0.00787003,10,9.55214e-06,-4.29122,2.5983,0.0227071,0.0453082,0.186776,
2,1,0,1,0,37961.1,0.188572,0.18823,0.0511549,20,0.00796187,10,9.62887e-06,-4.29111,0.903215,0.0653222,0.129602,0.18823,
2,1,0,1,0,37962.6,0.19007,0.189732,0.0515184,20,0.0080539,10,9.77471e-06,-4.28804,-22.2133,-0.00265607,-0.00529722,0.189732,
2,1,0,1,0,37964.1,0.191568,0.191209,0.0518607,20,0.00814601,10,9.91621e-06,-4.28516,0.408194,0.144539,0.290164,0.191209,
2,1,0,1,0,37965.5,0.193066,0.192723,0.0515459,20,0.00823836,10,9.93408e-06,-4.28781,0.669462,0.0881305,0.178024,0.1927228,
2,1,0,1,0,37967,0.194564,0.194222,0.051761,20,0.00833126,10,1.00531e-05,-4.286,1.79006,0.0329598,0.0668658,0.194222,
2,1,0,1,0,37968.5,0.196063,0.19576,0.0519961,20,0.00842421,10,1.01787e-05,-4.28403,-168.673,-0.00034979,-0.000709044,0.19576,
2,1,0,1,0,37970,0.197561,0.197226,0.0517316,20,0.00851687,10,1.02028e-05,-4.28624,-12.1517,-0.00485528,-0.00983195,0.197226,
2,1,0,1,0,37971.5,0.199059,0.198736,0.0521564,20,0.00860965,10,1.03654e-05,-4.28269,-16.1507,-0.00365309,-0.0073861,0.198736,
2,1,0,1,0,37973,0.200557,0.20023,0.0524561,20,0.00870259,10,1.05033e-05,-4.2802,0.69818,0.0845054,0.171668,0.2002304,
2,1,0,1,0,37974.5,0.202055,0.201745,0.0525175,20,0.00879576,10,1.05951e-05,-4.2797,1.21986,0.0483663,0.0988023,0.201745,
2,1,0,1,0,37976,0.203554,0.203217,0.0521953,20,0.00888915,10,1.0607e-05,-4.28237,1.20716,0.0488749,0.100019,0.203217,
2,1,0,1,0,37977.5,0.205052,0.204698,0.0521765,20,0.00898266,10,1.06804e-05,-4.28253,0.391672,0.150636,0.311366,0.2046978,
2,1,0,1,0,37979,0.20655,0.20619,0.0531137,20,0.00907666,10,1.09515e-05,-4.27479,8.15286,0.00723672,0.0149011,0.20619,
2,1,0,1,0,37980.5,0.208048,0.207737,0.0522925,20,0.00917119,10,1.08631e-05,-4.28156,-0.830132,-0.071073,-0.14668,0.207737,
2,1,0,1,0,37982,0.209546,0.209204,0.053107,20,0.00926537,10,1.11102e-05,-4.27485,5.17776,0.0113949,0.0236241,0.209204,
2,1,0,1,0,37983.5,0.211044,0.210702,0.052973,20,0.00935946,10,1.11615e-05,-4.27595,-2.41996,-0.0243806,-0.0502519,0.210702,
2,1,0,1,0,37985,0.212543,0.2122,0.053019,20,0.00945378,10,1.12506e-05,-4.27557,2.72866,0.0216223,0.0448055,0.2122,
2,1,0,1,0,37986.5,0.214041,0.213718,0.0532134,20,0.00954792,10,1.13726e-05,-4.27398,0.717364,0.0822455,0.170767,0.2137177,
2,1,0,1,0,37988,0.215539,0.215214,0.0531697,20,0.00964253,10,1.14429e-05,-4.27434,1.19562,0.0493466,0.102508,0.215214,
2,1,0,1,0,37989.5,0.217037,0.2167,0.0536236,20,0.00973718,10,1.16202e-05,-4.27064,0.903011,0.0653369,0.136377,0.2167,
2,1,0,1,0,37991,0.218535,0.218212,0.0535721,20,0.00983201,10,1.16901e-05,-4.27106,1.45191,0.0406361,0.0847588,0.218212,
2,1,0,1,0,37992.5,0.220034,0.219692,0.053052,20,0.009927,10,1.16551e-05,-4.2753,0.588134,0.100317,0.210684,0.2196921,
2,1,0,1,0,37994,0.221532,0.221245,0.0539433,20,0.0100223,10,1.19347e-05,-4.26806,0.712642,0.0827905,0.174601,0.221245,
2,1,0,1,0,37995.5,0.22303,0.222692,0.0538751,20,0.0101178,10,1.19976e-05,-4.26861,0.605472,0.0974446,0.206187,0.222692,
2,1,0,1,0,37997,0.224528,0.224182,0.0543864,20,0.0102135,10,1.21925e-05,-4.26451,2.39058,0.0246802,0.0521574,0.224182,
2,1,0,1,0,37998.5,0.226026,0.225704,0.0542557,20,0.0103097,10,1.22457e-05,-4.26555,-12.699,-0.00464603,-0.00984074,0.2257036,
2,1,0,1,0,38000,0.227525,0.227208,0.0549105,20,0.010406,10,1.24761e-05,-4.26034,1.10633,0.0533294,0.113514,0.2272082,
2,1,0,1,0,38001.5,0.229023,0.228752,0.0546542,20,0.0105022,10,1.25023e-05,-4.26238,0.930772,0.0633882,0.135194,0.228752,
2,1,0,1,0,38003,0.230521,0.230157,0.054448,20,0.0105985,10,1.25316e-05,-4.26402,0.490541,0.120275,0.259111,0.230157,
2,1,0,1,0,38004.5,0.232019,0.231677,0.0551509,20,0.0106953,10,1.27772e-05,-4.25845,0.416968,0.141498,0.305034,0.231677,
2,1,0,1,0,38006,0.233517,0.233183,0.0554249,20,0.0107926,10,1.29241e-05,-4.2563,2.78745,0.0211663,0.0455587,0.233183,
2,1,0,1,0,38007.5,0.235016,0.234723,0.0556898,20,0.0108902,10,1.30717e-05,-4.25422,0.378955,0.155691,0.337078,0.234723,
2,1,0,1,0,38009,0.236514,0.236226,0.0563259,20,0.0109879,10,1.33056e-05,-4.24929,0.532758,0.110744,0.24105,0.2362259,
2,1,0,1,0,38010.5,0.238012,0.237705,0.0558583,20,0.0110864,10,1.32778e-05,-4.25291,1.60037,0.0368664,0.0806594,0.2377051,
2,1,0,1,0,38012,0.23951,0.239195,0.0564984,20,0.0111851,10,1.35141e-05,-4.24796,0.955246,0.0617642,0.136177,0.239195,
2,1,0,1,0,38013.5,0.241008,0.240694,0.0566471,20,0.0112843,10,1.36346e-05,-4.24682,0.705018,0.0836858,0.184287,0.240694,
2,1,0,1,0,38015,0.242506,0.242173,0.0564436,20,0.0113833,10,1.36691e-05,-4.24839,4.21644,0.0139929,0.0309713,0.242173,
2,1,0,1,0,38016.5,0.244005,0.243659,0.0569694,20,0.0114827,10,1.38811e-05,-4.24436,0.829201,0.0711528,0.157502,0.243659,
2,1,0,1,0,38018,0.245503,0.245222,0.0568833,20,0.0115823,10,1.3949e-05,-4.24502,1.10816,0.0532414,0.118144,0.245222,
2,1,0,1,0,38019.5,0.247001,0.246684,0.0573655,20,0.0116819,10,1.41511e-05,-4.24135,2.60824,0.0226206,0.0503026,0.246684,
2,1,0,1,0,38021,0.248499,0.248178,0.0569497,20,0.0117818,10,1.41336e-05,-4.24451,0.975426,0.0604864,0.134711,0.248178,
2,1,0,1,0,38022.5,0.249997,0.249702,0.057595,20,0.0118817,10,1.43816e-05,-4.23962,0.652604,0.0904071,0.202776,0.249702,
2,1,0,1,0,38024,0.251496,0.251188,0.0576914,20,0.0119821,10,1.44914e-05,-4.23889,0.924288,0.0638329,0.143907,0.251188,
2,1,0,1,0,38025.5,0.252994,0.252668,0.0577597,20,0.0120829,10,1.4594e-05,-4.23837,0.750359,0.0786291,0.178227,0.252668,
2,1,0,1,0,38027,0.254492,0.254157,0.0585467,20,0.0121841,10,1.48801e-05,-4.2325,0.923607,0.06388,0.145528,0.254157,
2,1,0,1,0,38028.5,0.25599,0.255667,0.0588347,20,0.0122859,10,1.50421e-05,-4.23037,0.604613,0.0975831,0.22329,0.255667,
2,1,0,1,0,38030,0.257488,0.257167,0.0589437,20,0.0123878,10,1.51584e-05,-4.22956,6.71904,0.00878101,0.0201163,0.257167,
2,1,0,1,0,38031.5,0.258987,0.258659,0.0589278,20,0.0124903,10,1.52422e-05,-4.22968,0.768046,0.0768183,0.175904,0.258659,
2,1,0,1,0,38033,0.260485,0.260172,0.059029,20,0.0125928,10,1.53577e-05,-4.22893,0.582205,0.101339,0.234092,0.260172,
2,1,0,1,0,38034.5,0.261983,0.261673,0.0597391,20,0.0126954,10,1.56321e-05,-4.22374,0.737375,0.0800135,0.185661,0.261673,
2,1,0,1,0,38036,0.263481,0.263161,0.0593927,20,0.0127985,10,1.56299e-05,-4.22627,0.591023,0.099827,0.231988,0.2631613,
2,1,0,1,0,38037.5,0.264979,0.264689,0.059511,20,0.0129018,10,1.57519e-05,-4.2254,1.38883,0.0424817,0.0993682,0.264689,
2,1,0,1,0,38039,0.266477,0.266203,0.0605095,20,0.0130056,10,1.61078e-05,-4.21818,2.07422,0.0284444,0.0664425,0.266203,
2,1,0,1,0,38040.5,0.267976,0.267687,0.0597145,20,0.0131092,10,1.59848e-05,-4.22392,0.865948,0.0681334,0.16075,0.267687,
2,1,0,1,0,38042,0.269474,0.269166,0.0604769,20,0.0132132,10,1.62783e-05,-4.21841,0.573823,0.102819,0.241281,0.269166,
2,1,0,1,0,38043.5,0.270972,0.270696,0.0610791,20,0.0133181,10,1.65339e-05,-4.21411,0.923174,0.0639099,0.151085,0.270696,
2,1,0,1,0,38045,0.27247,0.272114,0.0609443,20,0.0134227,10,1.65838e-05,-4.21507,-2.05252,-0.0287452,-0.0682849,0.272114,
2,1,0,1,0,38046.5,0.273968,0.273644,0.0605347,20,0.0135275,10,1.6565e-05,-4.218,2.32148,0.0254148,0.0603348,0.273644,
2,1,0,1,0,38047.9,0.275467,0.275168,0.0610678,20,0.0136322,10,1.68039e-05,-4.21419,1.49511,0.0394619,0.0942239,0.275168,
2,1,0,1,0,38049.4,0.276965,0.276646,0.0610126,20,0.0137374,10,1.68789e-05,-4.21458,1.50889,0.0391016,0.0933535,0.276646,
2,1,0,1,0,38050.9,0.278463,0.278144,0.0618442,20,0.0138433,10,1.72016e-05,-4.2087,1.27614,0.0462333,0.110459,0.278144,
2,1,0,1,0,38052.4,0.279961,0.279665,0.0617072,20,0.0139493,10,1.72574e-05,-4.20966,1.32687,0.0444655,0.10779,0.279665,
2,1,0,1,0,38053.9,0.281459,0.281134,0.0623428,20,0.0140553,10,1.75267e-05,-4.20521,1.28059,0.0460725,0.11175,0.281134,
2,1,0,1,0,38055.4,0.282958,0.282637,0.0625808,20,0.0141619,10,1.76876e-05,-4.20356,0.716017,0.0824003,0.199481,0.282637,
2,1,0,1,0,38056.9,0.284456,0.284135,0.0621476,20,0.0142687,10,1.76583e-05,-4.20658,1.40632,0.0419535,0.102007,0.2841351,
2,1,0,1,0,38058.4,0.285954,0.285641,0.062199,20,0.0143757,10,1.77666e-05,-4.20622,1.29182,0.045672,0.110639,0.2856409,
2,1,0,1,0,38059.9,0.287452,0.287125,0.0620538,20,0.0144822,10,1.78172e-05,-4.20723,-1.87372,-0.0314882,-0.0764896,0.287125,
2,1,0,1,0,38061.4,0.28895,0.288631,0.0621959,20,0.0145887,10,1.79517e-05,-4.20624,0.45453,0.129804,0.316541,0.288631,
2,1,0,1,0,38062.9,0.290448,0.290114,0.0628594,20,0.0146957,10,1.82364e-05,-4.20163,0.725717,0.0812989,0.197659,0.290114,
2,1,0,1,0,38064.4,0.291947,0.29167,0.0629596,20,0.0148031,10,1.83634e-05,-4.20094,2.1028,0.0280578,0.0687366,0.29167,
2,1,0,1,0,38065.9,0.293445,0.293118,0.062456,20,0.0149102,10,1.8307e-05,-4.20443,1.13687,0.051897,0.127748,0.293118,
2,1,0,1,0,38067.4,0.294943,0.294616,0.0633641,20,0.0150178,10,1.86681e-05,-4.19816,0.473344,0.124645,0.307009,0.2946161,
2,1,0,1,0,38068.9,0.296441,0.296077,0.0639904,20,0.015126,10,1.89461e-05,-4.19388,5.13037,0.0115001,0.0283938,0.296077,
2,1,0,1,0,38070.4,0.297939,0.297631,0.0637647,20,0.0152347,10,1.89784e-05,-4.19542,1.46582,0.0402504,0.0999554,0.297631,
2,1,0,1,0,38071.9,0.299438,0.299115,0.0637584,20,0.0153431,10,1.90711e-05,-4.19546,-0.00446174,-13.2236,-21.3426,0.299115,
2,1,0,1,0,38072.8,0.299737,0.299436,0.0321985,20,0.015392,10,9.64138e-06,-4.49216,0.00216989,27.1904,38.1732,0.299436,
2,1,0,1,0,38074.3,0.298239,0.297914,0.0197245,20,0.0154146,10,5.87619e-06,-4.70499,0.00579493,10.1813,12.9863,0.297914,
2,1,0,1,0,38075.8,0.296741,0.296405,0.0145443,20,0.0154269,10,4.31101e-06,-4.83731,0.0133419,4.42217,2.66008,0.296405,
2,1,0,1,0,38077.3,0.295243,0.294937,0.0117759,20,0.0154334,10,3.47316e-06,-4.92901,0.0145078,4.06678,1.91484,0.294937,
2,1,0,1,0,38078.8,0.293745,0.293427,0.00920472,20,0.015436,10,2.70092e-06,-5.03599,0.0135919,4.34082,1.57742,0.293427,
2,1,0,1,0,38080.3,0.292246,0.291914,0.0068261,20,0.0154351,10,1.99264e-06,-5.16583,0.0113171,5.21335,1.39719,0.291914,
2,1,0,1,0,38081.8,0.290748,0.29042,0.00487626,20,0.0154309,10,1.41616e-06,-5.31191,0.00883847,6.67536,1.22412,0.29042,
2,1,0,1,0,38083.3,0.28925,0.288971,0.00314978,20,0.0154236,10,9.10193e-07,-5.50172,0.00592315,9.96092,1.08709,0.288971,
2,1,0,1,0,38084.8,0.287752,0.287416,0.00148609,20,0.0154141,10,4.27125e-07,-5.82796,0.00286319,20.6064,1.00767,0.287416,
2,1,0,1,0,38086.3,0.286254,0.286003,0.000489104,20,0.0154025,10,1.39885e-07,-6.3106,0.0204801,2.88084,0.863157,0.286003,
2,0,0,1,0,38087.8,0.284755,0.2845,-0.00078,20,0.0153893,10,-2.2191e-07,-6.10791,-0.00985322,-5.98789,0.776988,0.2845,
2,0,0,1,0,38089.3,0.283257,0.282957,-0.00187853,20,0.015374,10,-5.31544e-07,-5.72618,-0.00254826,-23.1531,0.859986,0.282957,
2,1,0,1,0,38090.7,0.281759,0.281499,-0.00336057,20,0.0153568,10,-9.45996e-07,-5.47359,-0.00881071,-6.6964,0.705867,0.281499,
2,1,0,1,0,38092.2,0.280261,0.279962,-0.00414429,20,0.015338,10,-1.16024e-06,-5.38255,-0.0127273,-4.63572,0.700616,0.279962,
2,0,0,1,0,38093.7,0.278763,0.278445,-0.00541384,20,0.0153175,10,-1.50746e-06,-5.26649,-0.0178332,-3.30844,0.656405,0.278445,
2,1,0,1,0,38095.2,0.277264,0.276958,-0.00634316,20,0.0152954,10,-1.75679e-06,-5.19769,-0.0247976,-2.37927,0.562937,0.2769582,
2,0,0,1,0,38096.7,0.275766,0.275442,-0.00699941,20,0.015272,10,-1.92793e-06,-5.15494,-0.0254077,-2.32213,0.635969,0.275442,
2,1,0,1,0,38098.2,0.274268,0.273954,-0.00812742,20,0.0152472,10,-2.22654e-06,-5.09005,-0.0339224,-1.73926,0.528098,0.273954,
2,0,0,1,0,38099.7,0.27277,0.272465,-0.00890761,20,0.0152211,10,-2.42702e-06,-5.05024,-0.0352768,-1.67249,0.592884,0.272465,
2,0,0,1,0,38101.2,0.271272,0.270962,-0.00962368,20,0.0151938,10,-2.60765e-06,-5.01666,-0.0403009,-1.46399,0.550324,0.270962,
2,0,0,1,0,38102.7,0.269774,0.269442,-0.0104332,20,0.0151649,10,-2.81115e-06,-4.98158,-0.0464936,-1.26899,0.51527,0.269442,
2,0,0,1,0,38104.2,0.268275,0.26795,-0.0113512,20,0.015135,10,-3.04156e-06,-4.94496,-0.0380502,-1.55059,0.666754,0.26795,
2,0,0,1,0,38105.7,0.266777,0.26645,-0.0123797,20,0.0151039,10,-3.29855e-06,-4.90729,-0.0459164,-1.28494,0.596593,0.26645,
2,0,0,1,0,38107.2,0.265279,0.264943,-0.0129619,20,0.0150717,10,-3.43416e-06,-4.88733,-0.0784471,-0.752099,0.37939,0.264943,
2,0,0,1,0,38108.7,0.263781,0.263444,-0.0135724,20,0.0150381,10,-3.57558e-06,-4.86734,-0.0607258,-0.971581,0.517116,0.263444,
2,0,0,1,0,38110.2,0.262283,0.261975,-0.0138648,20,0.0150037,10,-3.63222e-06,-4.85809,-0.0730502,-0.807663,0.452086,0.261975,
2,0,0,1,0,38111.7,0.260784,0.26046,-0.0147665,20,0.0149682,10,-3.84609e-06,-4.83072,-0.0664312,-0.888137,0.519435,0.26046,
2,0,0,1,0,38113.2,0.259286,0.258993,-0.0156846,20,0.0149315,10,-4.06219e-06,-4.80453,-0.076622,-0.770014,0.476625,0.258993,
2,0,0,1,0,38114.7,0.257788,0.257457,-0.016902,20,0.0148937,10,-4.35155e-06,-4.77206,-0.0806496,-0.73156,0.470819,0.257457,
2,0,0,1,0,38116.2,0.25629,0.255984,-0.0171264,20,0.0148546,10,-4.3841e-06,-4.76633,-0.0879487,-0.670846,0.442137,0.255984,
2,0,0,1,0,38117.7,0.254792,0.254454,-0.0175064,20,0.0148147,10,-4.45457e-06,-4.7568,-0.0957073,-0.616463,0.432787,0.254454,
2,0,0,1,0,38119.2,0.253293,0.253024,-0.0181139,20,0.0147739,10,-4.58324e-06,-4.74199,-0.0749989,-0.786678,0.569318,0.2530238,
2,0,0,1,0,38120.7,0.251795,0.25146,-0.0192683,20,0.0147318,10,-4.84519e-06,-4.71516,-0.136651,-0.431758,0.327959,0.25146,
2,0,0,1,0,38122.2,0.250297,0.250032,-0.0195246,20,0.0146887,10,-4.88179e-06,-4.70942,-0.133386,-0.442324,0.340588,0.2500324,
2,0,0,1,0,38123.7,0.248799,0.248494,-0.0201558,20,0.0146448,10,-5.00858e-06,-4.6956,-0.110699,-0.532975,0.424313,0.248494,
2,0,0,1,0,38125.2,0.247301,0.246979,-0.0209614,20,0.0145999,10,-5.17704e-06,-4.67858,-0.117701,-0.501269,0.418545,0.2469795,
2,0,0,1,0,38126.7,0.245802,0.245507,-0.0220296,20,0.0145538,10,-5.40841e-06,-4.65699,-0.111341,-0.529904,0.451971,0.245507,
2,0,0,1,0,38128.2,0.244304,0.243973,-0.0225134,20,0.0145065,10,-5.49266e-06,-4.64756,-0.102129,-0.577703,0.50251,0.243973,
2,0,0,1,0,38129.7,0.242806,0.242464,-0.0229485,20,0.0144583,10,-5.5642e-06,-4.63925,-0.141221,-0.417783,0.374442,0.242464,
2,0,0,1,0,38131.2,0.241308,0.240979,-0.0235039,20,0.0144094,10,-5.66393e-06,-4.62886,-0.223987,-0.263408,0.243184,0.240979,
2,0,0,1,0,38132.7,0.23981,0.239512,-0.0239678,20,0.0143596,10,-5.74058e-06,-4.62037,-0.118194,-0.499178,0.473331,0.239512,
2,0,0,1,0,38134.2,0.238312,0.237973,-0.0245651,20,0.0143089,10,-5.84585e-06,-4.60968,-0.155089,-0.380426,0.363782,0.237973,
2,0,0,1,0,38135.7,0.236813,0.236512,-0.025276,20,0.0142575,10,-5.97809e-06,-4.59729,-0.411417,-0.143407,0.141107,0.236512,
2,0,0,1,0,38137.2,0.235315,0.234967,-0.0254654,20,0.0142054,10,-5.98354e-06,-4.59405,-0.195477,-0.301826,0.300325,0.2349672,
2,0,0,1,0,38138.7,0.233817,0.233474,-0.0261323,20,0.0141525,10,-6.10121e-06,-4.58282,-0.162498,-0.363081,0.372363,0.233474,
2,0,0,1,0,38140.2,0.232319,0.232049,-0.0270062,20,0.0140987,10,-6.26677e-06,-4.56854,-0.149336,-0.395081,0.412234,0.232049,
2,0,0,1,0,38141.7,0.230821,0.230484,-0.0276759,20,0.0140436,10,-6.37885e-06,-4.5579,-0.13776,-0.428281,0.456466,0.230484,
2,0,0,1,0,38143.2,0.229322,0.228988,-0.0279201,20,0.0139879,10,-6.39335e-06,-4.55408,-0.177875,-0.331693,0.362141,0.228988,
2,0,0,1,0,38144.7,0.227824,0.227501,-0.0283579,20,0.0139314,10,-6.45144e-06,-4.54733,-0.135784,-0.434512,0.48685,0.227501,
2,0,0,1,0,38146.2,0.226326,0.226012,-0.0286772,20,0.0138739,10,-6.48138e-06,-4.54246,-0.205461,-0.287159,0.323518,0.226012,
2,0,0,1,0,38147.7,0.224828,0.224506,-0.0296245,20,0.0138153,10,-6.65089e-06,-4.52835,-0.263198,-0.224166,0.259733,0.224506,
2,0,0,1,0,38149.2,0.22333,0.223047,-0.0301869,20,0.0137561,10,-6.73311e-06,-4.52018,-0.17591,-0.335399,0.396243,0.223047,
2,0,0,1,0,38150.7,0.221831,0.221499,-0.0307314,20,0.0136961,10,-6.80698e-06,-4.51242,-0.173234,-0.340581,0.408821,0.221499,
2,0,0,1,0,38152.2,0.220333,0.220051,-0.0315265,20,0.0136349,10,-6.93742e-06,-4.50132,-0.212042,-0.278247,0.342572,0.220051,
2,0,0,1,0,38153.7,0.218835,0.218527,-0.0321572,20,0.0135728,10,-7.0272e-06,-4.49272,-0.200608,-0.294105,0.364347,0.218527,
2,0,0,1,0,38155.2,0.217337,0.217022,-0.0324099,20,0.0135098,10,-7.03367e-06,-4.48932,-0.261075,-0.225989,0.283311,0.217022,
2,0,0,1,0,38156.7,0.215839,0.215517,-0.0332698,20,0.0134465,10,-7.17022e-06,-4.47795,-0.229079,-0.257554,0.332203,0.215517,
2,0,0,1,0,38158.2,0.21434,0.214012,-0.0333125,20,0.0133822,10,-7.12928e-06,-4.47739,-0.132522,-0.445209,0.581,0.214012,
2,0,0,1,0,38159.7,0.212842,0.212515,-0.034034,20,0.0133169,10,-7.23274e-06,-4.46809,-0.184576,-0.319651,0.427648,0.212515,
2,0,0,1,0,38161.2,0.211344,0.211025,-0.0347629,20,0.0132505,10,-7.33586e-06,-4.45888,-0.220894,-0.267097,0.360227,0.2110254,
2,0,0,1,0,38162.7,0.209846,0.209519,-0.0351222,20,0.0131833,10,-7.35876e-06,-4.45442,-0.184684,-0.319465,0.439627,0.2095186,
2,0,0,1,0,38164.2,0.208348,0.208084,-0.0358298,20,0.0131155,10,-7.4556e-06,-4.44576,-0.342311,-0.172358,0.241149,0.208084,
2,0,0,1,0,38165.7,0.20685,0.20653,-0.0365111,20,0.0130468,10,-7.54065e-06,-4.43758,-0.248406,-0.237515,0.335899,0.20653,
2,0,0,1,0,38167.2,0.205351,0.205074,-0.0364762,20,0.0129771,10,-7.48034e-06,-4.43799,-0.211046,-0.27956,0.400557,0.2050744,
2,0,0,1,0,38168.7,0.203853,0.203575,-0.0372802,20,0.012907,10,-7.58932e-06,-4.42852,-0.276333,-0.21351,0.313113,0.203575,
2,0,0,1,0,38170.2,0.202355,0.202003,-0.0378239,20,0.0128358,10,-7.64056e-06,-4.42223,-0.210235,-0.280638,0.415573,0.2020034,
2,0,0,1,0,38171.7,0.200857,0.200546,-0.0383013,20,0.0127637,10,-7.68118e-06,-4.41679,-0.189455,-0.311419,0.470802,0.200546,
2,0,0,1,0,38173.1,0.199359,0.199045,-0.0393699,20,0.0126904,10,-7.83637e-06,-4.40484,-0.210119,-0.280793,0.431664,0.199045,
2,0,0,1,0,38174.6,0.19786,0.197553,-0.0400561,20,0.012616,10,-7.91321e-06,-4.39733,-0.237984,-0.247916,0.385718,0.197553,
2,0,0,1,0,38176.1,0.196362,0.195998,-0.0403895,20,0.0125408,10,-7.91627e-06,-4.39373,-0.2451,-0.240719,0.380153,0.1959983,
2,0,0,1,0,38177.6,0.194864,0.194517,-0.0413093,20,0.0124645,10,-8.03535e-06,-4.38395,-0.180184,-0.327444,0.526713,0.1945169,
2,0,0,1,0,38179.1,0.193366,0.193009,-0.0416235,20,0.0123872,10,-8.03371e-06,-4.38066,-0.197941,-0.298069,0.488125,0.193009,
2,0,0,1,0,38180.6,0.191868,0.191553,-0.0423459,20,0.012309,10,-8.11149e-06,-4.37319,-0.298414,-0.197712,0.329492,0.191553,
2,0,0,1,0,38182.1,0.190369,0.190105,-0.0427152,20,0.0122299,10,-8.12035e-06,-4.36942,-0.240698,-0.24512,0.411095,0.190105,
2,0,0,1,0,38183.6,0.188871,0.18859,-0.04325,20,0.0121498,10,-8.15652e-06,-4.36401,-0.258117,-0.228578,0.389439,0.18859,
2,0,0,1,0,38185.1,0.187373,0.187072,-0.0443306,20,0.0120688,10,-8.293e-06,-4.3533,-0.261941,-0.225242,0.389311,0.187072,
2,0,0,1,0,38186.6,0.185875,0.185546,-0.0450226,20,0.0119866,10,-8.35376e-06,-4.34657,-0.235953,-0.25005,0.436433,0.185546,
2,0,0,1,0,38188.1,0.184377,0.184073,-0.0455327,20,0.0119038,10,-8.38134e-06,-4.34168,-0.323372,-0.182453,0.323516,0.184073,
2,0,0,1,0,38189.6,0.182878,0.182555,-0.0456807,20,0.0118199,10,-8.33922e-06,-4.34027,-0.230771,-0.255665,0.458291,0.1825545,
2,0,0,1,0,38191.1,0.18138,0.181055,-0.0472563,20,0.0117346,10,-8.55598e-06,-4.32554,-0.251528,-0.234567,0.42815,0.181055,
2,0,0,1,0,38192.6,0.179882,0.179526,-0.0473112,20,0.0116484,10,-8.49359e-06,-4.32504,-0.234116,-0.252011,0.469584,0.179526,
2,0,0,1,0,38194.1,0.178384,0.178028,-0.0485312,20,0.0115608,10,-8.63989e-06,-4.31398,-0.21782,-0.270866,0.51249,0.1780277,
2,0,0,1,0,38195.6,0.176886,0.176535,-0.0492047,20,0.0114721,10,-8.68633e-06,-4.30799,-0.186508,-0.316341,0.61096,0.176535,
2,0,0,1,0,38197.1,0.175388,0.175077,-0.0502741,20,0.0113821,10,-8.80182e-06,-4.29866,-0.161342,-0.365682,0.719641,0.175077,
2,0,0,1,0,38198.6,0.173889,0.173575,-0.0514085,20,0.0112901,10,-8.92323e-06,-4.28896,-0.198547,-0.297159,0.59073,0.173575,
2,0,0,1,0,38200.1,0.172391,0.172068,-0.0525611,20,0.0111969,10,-9.0441e-06,-4.27934,-0.225895,-0.261184,0.530475,0.172068,
2,0,0,1,0,38201.6,0.170893,0.170583,-0.0530504,20,0.0111025,10,-9.04948e-06,-4.27531,-0.17089,-0.345252,0.713509,0.170583,
2,0,0,1,0,38203.1,0.169395,0.16905,-0.0541445,20,0.0110064,10,-9.15314e-06,-4.26645,-0.138772,-0.425157,0.897704,0.16905,
2,0,0,1,0,38204.6,0.167897,0.1676,-0.0551594,20,0.0109086,10,-9.2447e-06,-4.25838,-0.179937,-0.327893,0.70845,0.1675996,
2,0,0,1,0,38206.1,0.166398,0.16605,-0.0567026,20,0.0108089,10,-9.41548e-06,-4.2464,-0.186873,-0.315722,0.693895,0.16605,
2,0,0,1,0,38207.6,0.1649,0.16458,-0.0571615,20,0.0107078,10,-9.40762e-06,-4.2429,-0.150059,-0.393179,0.885969,0.16458,
2,0,0,1,0,38209.1,0.163402,0.163066,-0.0588124,20,0.0106047,10,-9.59033e-06,-4.23053,-0.144901,-0.407176,0.93379,0.163066,
2,0,0,1,0,38210.6,0.161904,0.161519,-0.0600322,20,0.0104997,10,-9.69635e-06,-4.22162,-0.143096,-0.412311,0.964646,0.1615192,
2,0,0,1,0,38212.1,0.160406,0.16007,-0.061775,20,0.0103921,10,-9.88829e-06,-4.20919,-0.133747,-0.441131,1.0595,0.16007,
2,0,0,1,0,38213.6,0.158907,0.158587,-0.0633471,20,0.0102823,10,-1.0046e-05,-4.19827,-0.150321,-0.392494,0.96948,0.158587,
2,0,0,1,0,38215.1,0.157409,0.157076,-0.0648932,20,0.01017,10,-1.01932e-05,-4.1878,-0.143703,-0.410568,1.03817,0.157076,
2,0,0,1,0,38216.6,0.155911,0.155567,-0.0667415,20,0.010055,10,-1.03828e-05,-4.1756,-0.121629,-0.485083,1.26348,0.155567,
2,0,0,1,0,38218.1,0.154413,0.154057,-0.0681183,20,0.0099375,10,-1.04941e-05,-4.16674,-0.138868,-0.424863,1.12869,0.154057,
2,0,0,1,0,38219.6,0.152915,0.152575,-0.0697935,20,0.00981692,10,-1.06487e-05,-4.15619,-0.113544,-0.519624,1.42586,0.152575,
2,0,0,1,0,38221.1,0.151417,0.151089,-0.0728025,20,0.00969348,10,-1.09997e-05,-4.13785,-0.123695,-0.476982,1.35545,0.151089,
2,0,0,1,0,38222.6,0.149918,0.149592,-0.0748954,20,0.00956604,10,-1.12037e-05,-4.12554,-0.101091,-0.583632,1.70149,0.149592,
2,0,0,1,0,38224.1,0.14842,0.148118,-0.0776664,20,0.00943468,10,-1.15038e-05,-4.10977,-0.0960611,-0.614192,1.86097,0.1481178,
2,0,0,1,0,38225.6,0.146922,0.14658,-0.0804451,20,0.00929915,10,-1.17917e-05,-4.0945,-0.0899773,-0.655721,2.05975,0.14658,
2,0,0,1,0,38227.1,0.145424,0.145088,-0.0842783,20,0.00915892,10,-1.22278e-05,-4.07428,-0.0812935,-0.725765,2.38249,0.145088,
2,0,0,1,0,38228.6,0.143926,0.143593,-0.0877633,20,0.00901285,10,-1.26022e-05,-4.05669,-0.0721875,-0.817316,2.79806,0.143593,
2,0,0,1,0,38230.1,0.142427,0.142079,-0.0931796,20,0.00886037,10,-1.32388e-05,-4.03068,-0.0717446,-0.822361,2.9602,0.142079,
2,0,0,1,0,38231.6,0.140929,0.140558,-0.0972992,20,0.00870141,10,-1.36762e-05,-4.01189,-0.0761127,-0.775167,2.9183,0.140558,
2,0,0,1,0,38233.1,0.139431,0.1391,-0.100111,20,0.00853588,10,-1.39254e-05,-3.99952,-0.0690827,-0.854049,3.35413,0.1391,
2,0,0,1,0,38234.6,0.137933,0.137608,-0.10535,20,0.00836348,10,-1.4497e-05,-3.97737,-0.0724391,-0.814477,3.34858,0.1376081,
2,0,0,1,0,38236.1,0.136435,0.136111,-0.111182,20,0.00818238,10,-1.5133e-05,-3.95397,-0.083102,-0.709971,3.0445,0.136111,
2,0,0,1,0,38237.6,0.134936,0.134608,-0.114902,20,0.00799453,10,-1.54668e-05,-3.93967,-0.105738,-0.557984,2.5128,0.134608,
2,0,0,1,0,38239.1,0.133438,0.133094,-0.118939,20,0.00780049,10,-1.58301e-05,-3.92467,-0.098955,-0.59623,2.78337,0.133094,
2,0,0,1,0,38240.6,0.13194,0.131587,-0.123219,20,0.00760012,10,-1.6214e-05,-3.90932,-0.0975448,-0.60485,2.91904,0.1315871,
2,0,0,1,0,38242.1,0.130442,0.130044,-0.127201,20,0.00739338,10,-1.65418e-05,-3.89551,-0.117079,-0.503933,2.49611,0.130044,
2,0,0,1,0,38243.6,0.128944,0.128586,-0.130984,20,0.00718046,10,-1.68427e-05,-3.88278,-0.131198,-0.4497,2.28695,0.1285861,
2,0,0,1,0,38245.1,0.127445,0.127135,-0.133682,20,0.00696293,10,-1.69957e-05,-3.87393,-0.170064,-0.346927,1.81335,0.127135,
2,0,0,1,0,38246.6,0.125947,0.125644,-0.136871,20,0.00674159,10,-1.7197e-05,-3.86369,-0.221471,-0.266401,1.41729,0.125644,
2,0,0,1,0,38248.1,0.124449,0.124134,-0.139006,20,0.00651626,10,-1.72553e-05,-3.85697,-0.255948,-0.230516,1.24313,0.124134,
2,0,0,1,0,38249.6,0.122951,0.122587,-0.140807,20,0.00628813,10,-1.72612e-05,-3.85137,-0.339851,-0.173605,0.94768,0.122587,
2,0,0,1,0,38251.1,0.121453,0.121119,-0.141195,20,0.006058,10,-1.71014e-05,-3.85018,-0.764911,-0.0771332,0.424761,0.121119,
2,0,0,1,0,38252.6,0.119955,0.119585,-0.141656,20,0.00582729,10,-1.694e-05,-3.84877,-1.00324,-0.0588095,0.326274,0.119585,
2,0,0,1,0,38254.1,0.118456,0.118087,-0.142386,20,0.00559544,10,-1.6814e-05,-3.84653,-0.985786,-0.0598507,0.331539,0.118087,
2,0,0,1,0,38255.5,0.116958,0.116617,-0.142703,20,0.00536282,10,-1.66416e-05,-3.84557,-8.08256,-0.00729967,0.040616,0.116617,
2,0,0,1,0,38257,0.11546,0.115121,-0.142061,20,0.00513078,10,-1.63542e-05,-3.84753,1.35481,0.0435486,-0.242265,0.115121,
2,0,0,1,0,38258.5,0.113962,0.113622,-0.141445,20,0.004899,10,-1.60712e-05,-3.84941,5.04331,0.0116987,-0.0647943,0.113622,
2,0,0,1,0,38260,0.112464,0.112118,-0.141719,20,0.00466767,10,-1.58893e-05,-3.84857,1.24342,0.0474496,-0.262673,0.112118,
2,0,0,1,0,38261.5,0.110965,0.110607,-0.142356,20,0.00443614,10,-1.57456e-05,-3.84662,1.9396,0.0304187,-0.168318,0.110607,
2,0,0,1,0,38263,0.109467,0.109127,-0.141354,20,0.00420503,10,-1.54255e-05,-3.84969,0.964664,0.0611612,-0.337628,0.109127,
2,0,0,1,0,38264.5,0.107969,0.107609,-0.140853,20,0.00397448,10,-1.51571e-05,-3.85123,1.24004,0.047579,-0.263134,0.107609,
2,0,0,1,0,38266,0.106471,0.106166,-0.141236,20,0.00374463,10,-1.49945e-05,-3.85005,2.7765,0.0212498,-0.117314,0.106166,
2,0,0,1,0,38267.5,0.104973,0.104669,-0.140903,20,0.00351447,10,-1.47481e-05,-3.85108,1.39813,0.0421992,-0.231499,0.104669,
2,0,0,1,0,38269,0.103474,0.103114,-0.14046,20,0.00328505,10,-1.44834e-05,-3.85245,0.603253,0.0978031,-0.534663,0.103114,
2,0,0,1,0,38270.5,0.101976,0.101666,-0.139951,20,0.00305684,10,-1.42283e-05,-3.85402,0.703863,0.0838231,-0.456289,0.101666,
2,0,0,1,0,38272,0.100478,0.100152,-0.139127,20,0.00283004,10,-1.39339e-05,-3.85659,0.664445,0.0887959,-0.481605,0.100152,
2,0,0,1,0,38273.5,0.0989798,0.0986689,-0.138625,20,0.00260387,10,-1.3678e-05,-3.85816,0.849556,0.0694481,-0.374188,0.0986689,
2,0,0,1,0,38275,0.0974816,0.0971207,-0.138104,20,0.00237834,10,-1.34127e-05,-3.8598,0.710011,0.0830972,-0.445637,0.0971207,
2,0,0,1,0,38276.5,0.0959834,0.0956435,-0.136507,20,0.00215424,10,-1.3056e-05,-3.86484,0.519139,0.11365,-0.607101,0.0956435,
2,0,0,1,0,38278,0.0944852,0.0941229,-0.135836,20,0.0019318,10,-1.27853e-05,-3.86699,0.513902,0.114808,-0.609158,0.0941229,
2,0,0,1,0,38279.5,0.0929871,0.0926565,-0.134918,20,0.0017102,10,-1.2501e-05,-3.86993,0.623818,0.0945789,-0.498245,0.0926565,
2,0,0,1,0,38281,0.0914889,0.0911474,-0.134493,20,0.00148987,10,-1.22587e-05,-3.8713,0.441222,0.133719,-0.69949,0.09114743,
2,0,0,1,0,38282.5,0.0899907,0.0896672,-0.13312,20,0.00127125,10,-1.19365e-05,-3.87576,0.419505,0.140642,-0.730646,0.0896672,
2,0,0,1,0,38284,0.0884925,0.0882356,-0.131796,20,0.00105479,10,-1.16291e-05,-3.8801,0.402469,0.146595,-0.754499,0.0882356,
2,0,0,1,0,38285.5,0.0869943,0.0866694,-0.130653,20,0.000839835,10,-1.13237e-05,-3.88388,0.566651,0.10412,-0.531661,0.0866694,
2,0,0,1,0,38287,0.0854961,0.0851328,-0.129933,20,0.000626277,10,-1.10616e-05,-3.88628,0.726349,0.0812282,-0.412234,0.0851328,
2,0,0,1,0,38288.5,0.083998,0.0836717,-0.12848,20,0.000414173,10,-1.07501e-05,-3.89117,0.34317,0.171926,-0.862816,0.0836717,
2,0,0,1,0,38290,0.0824998,0.0821924,-0.12779,20,0.000203465,10,-1.05033e-05,-3.8935,0.408329,0.144491,-0.722594,0.0821924,
2,0,0,1,0,38291.5,0.0810016,0.0806919,-0.126807,20,-5.40728e-06,10,-1.02323e-05,-3.89686,0.490929,0.12018,-0.597614,0.0806919,
2,0,0,1,0,38293,0.0795034,0.0792126,-0.125759,20,-0.000213217,10,-9.96169e-06,-3.90046,0.611163,0.0965373,-0.477031,0.0792126,
2,0,0,1,0,38294.5,0.0780052,0.0776612,-0.12567,20,-0.000419962,10,-9.75967e-06,-3.90077,0.461362,0.127882,-0.624828,0.0776612,
2,0,0,1,0,38296,0.076507,0.0761841,-0.124793,20,-0.000625694,10,-9.5072e-06,-3.90381,0.590461,0.099922,-0.485228,0.0761841,
2,0,0,1,0,38297.5,0.0750088,0.0746868,-0.124083,20,-0.000829271,10,-9.26734e-06,-3.90629,0.45958,0.128378,-0.620356,0.07468681,
2,0,0,1,0,38299,0.0735106,0.0731481,-0.123149,20,-0.00103224,10,-9.00812e-06,-3.90957,0.917272,0.0643212,-0.308622,0.0731481,
2,0,0,1,0,38300.5,0.0720124,0.0716964,-0.122019,20,-0.00123439,10,-8.74835e-06,-3.91357,0.575696,0.102485,-0.48954,0.0716964,
2,0,0,1,0,38302,0.0705142,0.0701896,-0.121888,20,-0.00143532,10,-8.55528e-06,-3.91404,0.541844,0.108887,-0.518283,0.0701896,
2,0,0,1,0,38303.5,0.069016,0.0687071,-0.120786,20,-0.00163506,10,-8.29882e-06,-3.91798,0.840588,0.0701889,-0.332156,0.0687071,
2,0,0,1,0,38305,0.0675178,0.0672321,-0.120413,20,-0.00183402,10,-8.09561e-06,-3.91933,0.60738,0.0971386,-0.455468,0.0672321,
2,0,0,1,0,38306.5,0.0660196,0.0656881,-0.120592,20,-0.00203217,10,-7.92144e-06,-3.91868,0.577467,0.10217,-0.477121,0.0656881,
2,0,0,1,0,38308,0.0645214,0.0641781,-0.119252,20,-0.00222924,10,-7.65335e-06,-3.92354,0.662163,0.0891019,-0.413504,0.0641781,
2,0,0,1,0,38309.5,0.0630233,0.0627095,-0.118445,20,-0.00242495,10,-7.4276e-06,-3.92648,0.888019,0.06644,-0.308111,0.0627095,
2,0,0,1,0,38311,0.0615251,0.061244,-0.118064,20,-0.00261981,10,-7.23069e-06,-3.92788,0.90623,0.0651048,-0.299216,0.061244,
2,0,0,1,0,38312.5,0.0600269,0.0597245,-0.117283,20,-0.0028143,10,-7.00464e-06,-3.93077,0.786726,0.0749944,-0.343393,0.0597245,
2,0,0,1,0,38314,0.0585287,0.0581794,-0.116736,20,-0.00300768,10,-6.79165e-06,-3.93279,0.504875,0.116861,-0.530913,0.0581794,
2,0,0,1,0,38315.5,0.0570305,0.0566874,-0.115924,20,-0.00320001,10,-6.57143e-06,-3.93583,0.655296,0.0900357,-0.408967,0.0566874,
2,0,0,1,0,38317,0.0555323,0.0551965,-0.11534,20,-0.00339118,10,-6.36635e-06,-3.93802,0.726627,0.0811971,-0.367305,0.0551965,
2,0,0,1,0,38318.5,0.0540342,0.0537067,-0.115524,20,-0.0035817,10,-6.20439e-06,-3.93733,0.737241,0.0800281,-0.359451,0.0537067,
2,0,0,1,0,38320,0.052536,0.0521787,-0.115008,20,-0.00377195,10,-6.00095e-06,-3.93927,1.02648,0.0574782,-0.256472,0.0521787,
2,0,0,1,0,38321.5,0.0510378,0.0506941,-0.114494,20,-0.00396123,10,-5.80416e-06,-3.94122,0.700873,0.0841808,-0.374509,0.0506941,
2,0,0,1,0,38323,0.0495396,0.0492042,-0.113294,20,-0.00414942,10,-5.57455e-06,-3.94579,0.919092,0.0641938,-0.284063,0.0492042,
2,0,0,1,0,38324.5,0.0480414,0.0477006,-0.11289,20,-0.00433678,10,-5.38491e-06,-3.94734,1.06033,0.055643,-0.245157,0.04770055,
2,0,0,1,0,38326,0.0465432,0.0462159,-0.112564,20,-0.00452359,10,-5.20225e-06,-3.9486,1.12155,0.0526057,-0.231513,0.0462159,
2,0,0,1,0,38327.5,0.045045,0.0446837,-0.1123,20,-0.00470966,10,-5.018e-06,-3.94962,0.621488,0.0949335,-0.415182,0.0446837,
2,0,0,1,0,38329,0.0435468,0.0432224,-0.111268,20,-0.00489471,10,-4.80927e-06,-3.95363,0.931722,0.0633236,-0.275575,0.0432224,
2,0,0,1,0,38330.5,0.0420486,0.0417092,-0.111157,20,-0.00507909,10,-4.63629e-06,-3.95406,0.977525,0.0603565,-0.260992,0.0417092,
2,0,0,1,0,38332,0.0405504,0.0402596,-0.111088,20,-0.00526293,10,-4.47237e-06,-3.95433,1.06093,0.0556115,-0.239402,0.0402596,
2,0,0,1,0,38333.5,0.0390522,0.0387019,-0.110064,20,-0.00544573,10,-4.25967e-06,-3.95836,0.713309,0.0827132,-0.354296,0.0387019,
2,0,0,1,0,38335,0.037554,0.0371961,-0.108624,20,-0.00562758,10,-4.04039e-06,-3.96407,1.19672,0.0493014,-0.210225,0.0371961,
2,0,0,1,0,38336.5,0.0360558,0.0357359,-0.108983,20,-0.00580828,10,-3.89459e-06,-3.96264,0.886435,0.0665587,-0.283371,0.03573586,
2,0,0,1,0,38338,0.0345576,0.0342332,-0.108485,20,-0.00598868,10,-3.71379e-06,-3.96463,0.901398,0.0654539,-0.277645,0.0342332,
2,0,0,1,0,38339.4,0.0330594,0.0327529,-0.108434,20,-0.00616875,10,-3.55153e-06,-3.96483,0.670575,0.0879842,-0.37065,0.03275292,
2,0,0,1,0,38340.9,0.0315613,0.0311561,-0.107832,20,-0.00634813,10,-3.35961e-06,-3.96725,0.606698,0.0972478,-0.408567,0.0311561,
2,0,0,1,0,38342.4,0.0300631,0.0297362,-0.10746,20,-0.00652617,10,-3.19546e-06,-3.96875,0.917186,0.0643272,-0.26874,0.0297362,
2,0,0,1,0,38343.9,0.0285649,0.0282452,-0.107122,20,-0.00670409,10,-3.02569e-06,-3.97012,0.973442,0.0606096,-0.251831,0.0282452,
2,0,0,1,0,38345.4,0.0270667,0.0267257,-0.10633,20,-0.00688146,10,-2.84174e-06,-3.97334,0.61563,0.0958367,-0.397607,0.0267257,
2,0,0,1,0,38346.9,0.0255685,0.0252379,-0.105956,20,-0.00705769,10,-2.67411e-06,-3.97487,0.660286,0.0893552,-0.369729,0.0252379,
2,0,0,1,0,38348.4,0.0240703,0.0236981,-0.105567,20,-0.00723281,10,-2.50173e-06,-3.97647,2.01949,0.0292153,-0.12088,0.0236981,
2,0,0,1,0,38349.9,0.0225722,0.022254,-0.104923,20,-0.00740782,10,-2.33494e-06,-3.97913,6.64135,0.00888374,-0.0365739,0.022254,
2,0,0,1,0,38351.4,0.021074,0.0207556,-0.105278,20,-0.00758259,10,-2.18511e-06,-3.97766,-17.58,-0.00335608,0.0138262,0.0207556,
2,0,0,1,0,38352.9,0.0195758,0.0192424,-0.105158,20,-0.00775742,10,-2.02351e-06,-3.97816,1.55419,0.0379618,-0.155829,0.0192424,
2,0,0,1,0,38354.4,0.0180776,0.0177536,-0.104233,20,-0.00793161,10,-1.85051e-06,-3.982,1.85178,0.0318612,-0.130837,0.0177536,
2,0,0,1,0,38355.9,0.0165794,0.0162563,-0.105007,20,-0.00810558,10,-1.70702e-06,-3.97878,-4.81831,-0.012245,0.0501524,0.0162563,
2,0,0,1,0,38357.4,0.0150812,0.0147473,-0.105844,20,-0.00828008,10,-1.56092e-06,-3.97533,-3.42131,-0.0172449,0.0708434,0.0147473,
2,0,0,1,0,38358.9,0.013583,0.0132256,-0.105367,20,-0.00845477,10,-1.39354e-06,-3.9773,2.46859,0.0239003,-0.0979159,0.0132256,
2,0,0,1,0,38360.4,0.0120848,0.0117506,-0.10544,20,-0.00862952,10,-1.23898e-06,-3.97699,-1.63931,-0.0359907,0.148157,0.0117506,
2,0,0,1,0,38361.9,0.0105866,0.0102533,-0.105571,20,-0.008804,10,-1.08246e-06,-3.97645,-0.704428,-0.0837559,0.346628,0.0102533,
2,0,0,1,0,38363.4,0.00908843,0.00871359,-0.105688,20,-0.00897944,10,-9.20924e-07,-3.97597,-0.86942,-0.0678613,0.2809,0.00871359,
2,0,0,1,0,38364.9,0.00759024,0.00724383,-0.106851,20,-0.00915563,10,-7.74013e-07,-3.97122,-1.4741,-0.0400245,0.165848,0.00724383,
2,0,0,1,0,38366.4,0.00609203,0.00576241,-0.107005,20,-0.0093322,10,-6.16606e-07,-3.9706,-0.793768,-0.074329,0.31035,0.00576241,
2,0,0,1,0,38367.9,0.00459384,0.00428952,-0.107509,20,-0.00950921,10,-4.6116e-07,-3.96856,-0.510004,-0.115685,0.484831,0.00428952,
2,0,0,1,0,38369.4,0.00309563,0.00274977,-0.108328,20,-0.00968728,10,-2.97877e-07,-3.96526,-0.385649,-0.152989,0.645884,0.00274977,
2,0,0,1,0,38370.9,0.00159744,0.00121432,-0.109519,20,-0.00986908,10,-1.32992e-07,-3.96051, , , ,0.00121432,
2,0,0,1,0,38372.3,0.000199235,-0.000199285,-0.111066,20,-0.0100383,10,2.21338e-08,-3.95442, , , ,-0.000199285,