File: Figure_codes/Fig_3-5/rawdata_trumpetplot_data/after 10th/20221101_1-115_003_TrumpetPlot_ParaChange_from10_every3_07_CV_C01_22.csv
mode,ox/red,error,control changes,counter inc.,time/s,control/V,Ewe/V,<I>/mA,cycle number,(Q-Qo)/C,I Range,P/W,log(|I|),Tafel slope mV/dec,alpha_eff,dI/d(E-IR),E-IR/V,
2,0,0,0,0,44507.9,2.44065e-05,-0.000439847,-2.71985,23,0.0000000E+000,10,1.19632e-06,-2.56546, , , ,-0.000439847,
2,0,0,1,0,44507.9,0.0013005,0.000957545,-1.30611,23,-3.95482e-05,10,-1.25065e-06,-2.88402, , , ,0.000957545,
2,0,0,1,0,44507.9,0.00279471,0.00243873,-0.330772,23,-5.8706e-05,10,-8.06663e-07,-3.48047,-0.006801,-8.67519,545.054,0.00243873,
2,1,0,1,0,44508,0.00429425,0.00399176,0.284829,23,-5.84171e-05,10,1.13697e-06,-3.54542,0.0282022,2.09204,366.074,0.00399176,
2,1,0,1,0,44508,0.00579379,0.00548135,0.718693,23,-4.50446e-05,10,3.93941e-06,-3.14346,0.00381354,15.4712,263.52,0.00548135,
2,1,0,1,0,44508,0.007288,0.00698487,1.05657,23,-2.22113e-05,10,7.38002e-06,-2.9761,0.0108382,5.44371,199.67,0.00698487,
2,1,0,1,0,44508,0.00878882,0.00841391,1.3189,23,8.04954e-06,10,1.10971e-05,-2.87979,0.018616,3.16931,153.473,0.00841391,
2,1,0,1,0,44508.1,0.0102896,0.00994516,1.52596,23,4.4076e-05,10,1.5176e-05,-2.81646,0.0274733,2.14754,122.899,0.00994516,
2,1,0,1,0,44508.1,0.0117838,0.0114606,1.67903,23,8.44091e-05,10,1.92427e-05,-2.77494,0.0376589,1.5667,101.002,0.0114606,
2,1,0,1,0,44508.1,0.0132834,0.0129589,1.81472,23,0.00012857,10,2.35169e-05,-2.74119,0.0493461,1.19564,83.9014,0.0129589,
2,1,0,1,0,44508.1,0.0147816,0.0144501,1.93445,23,0.000175898,10,2.79529e-05,-2.71344,0.0623075,0.946917,70.8216,0.0144501,
2,1,0,1,0,44508.2,0.0162811,0.0159515,2.03338,23,0.000225991,10,3.24354e-05,-2.69178,0.0734117,0.803687,63.3194,0.0159515,
2,1,0,1,0,44508.2,0.0177753,0.017458,2.11676,23,0.00027813,10,3.69544e-05,-2.67433,0.0909566,0.648661,53.465,0.017458,
2,1,0,1,0,44508.2,0.0192761,0.0189062,2.19421,23,0.000332438,10,4.1484e-05,-2.65872,0.105812,0.557593,47.6256,0.0189062,
2,1,0,1,0,44508.2,0.020777,0.0204854,2.27372,23,0.000388636,10,4.65779e-05,-2.64326,0.116418,0.506792,44.6337,0.0204854,
2,1,0,1,0,44508.3,0.0222712,0.0219207,2.33679,23,0.000446359,10,5.12241e-05,-2.63138,0.120356,0.490212,44.5166,0.0219207,
2,1,0,1,0,44508.3,0.0237707,0.0234959,2.39086,23,0.000505896,10,5.61754e-05,-2.62145,0.137752,0.428305,40.0467,0.0234959,
2,1,0,1,0,44508.3,0.0252703,0.0249687,2.44623,23,0.000566889,10,6.10792e-05,-2.6115,0.155645,0.379068,36.3411,0.0249687,
2,1,0,1,0,44508.3,0.0267645,0.0264474,2.51182,23,0.000629067,10,6.64311e-05,-2.60001,0.158799,0.371538,36.3046,0.0264474,
2,1,0,1,0,44508.4,0.0282653,0.0279407,2.56742,23,0.000692909,10,7.17356e-05,-2.5905,0.158309,0.372689,37.2599,0.0279407,
2,1,0,1,0,44508.4,0.0297648,0.0294511,2.61359,23,0.000758135,10,7.69731e-05,-2.58276,0.167935,0.351326,35.8478,0.0294511,
2,1,0,1,0,44508.4,0.031259,0.0309621,2.6614,23,0.000824369,10,8.24025e-05,-2.57489,0.19503,0.302518,31.4812,0.0309621,
2,1,0,1,0,44508.4,0.0327585,0.0324626,2.72246,23,0.000892113,10,8.83779e-05,-2.56504,0.188897,0.312339,33.1245,0.03246256,
2,1,0,1,0,44508.5,0.034258,0.0339274,2.7744,23,0.000961173,10,9.4128e-05,-2.55683,0.176477,0.334322,36.1209,0.0339274,
2,1,0,1,0,44508.5,0.0357576,0.0354239,2.81794,23,0.00103153,10,9.98224e-05,-2.55007,0.193074,0.305582,33.6627,0.0354239,
2,1,0,1,0,44508.5,0.0372518,0.0369256,2.86954,23,0.00110285,10,0.00010596,-2.54219,0.216835,0.272096,30.5006,0.03692558,
2,1,0,1,0,44508.5,0.0387526,0.0384327,2.92241,23,0.00117562,10,0.000112316,-2.53426,0.204811,0.288071,32.8576,0.0384327,
2,1,0,1,0,44508.6,0.0402534,0.0399708,2.97154,23,0.00124967,10,0.000118775,-2.52702,0.195834,0.301275,34.9231,0.0399708,
2,1,0,1,0,44508.6,0.0417476,0.041414,3.02261,23,0.00132471,10,0.000125178,-2.51962,0.201965,0.292129,34.4245,0.041414,
2,1,0,1,0,44508.6,0.0432472,0.042943,3.0711,23,0.00140126,10,0.000131882,-2.51271,0.222092,0.265656,31.8118,0.042943,
2,1,0,1,0,44508.6,0.0447467,0.0443859,3.12063,23,0.00147899,10,0.000138512,-2.50576,0.228186,0.258561,31.4441,0.04438594,
2,1,0,1,0,44508.7,0.0462463,0.0459181,3.1673,23,0.00155796,10,0.000145436,-2.49931,0.211909,0.278421,34.396,0.0459181,
2,1,0,1,0,44508.7,0.0477391,0.0474138,3.21638,23,0.00163785,10,0.000152501,-2.49263,0.227612,0.259213,32.5507,0.0474138,
2,1,0,1,0,44508.7,0.0492399,0.0489039,3.26131,23,0.00171927,10,0.000159491,-2.48661,0.249323,0.236641,30.1332,0.0489039,
2,1,0,1,0,44508.7,0.0507408,0.0504387,3.30781,23,0.00180186,10,0.000166841,-2.48046,0.258845,0.227936,29.4165,0.05043865,
2,1,0,1,0,44508.8,0.052235,0.0519107,3.36217,23,0.00188526,10,0.000174533,-2.47338,0.233782,0.252372,33.074,0.0519107,
2,1,0,1,0,44508.8,0.0537345,0.0534259,3.40541,23,0.00197019,10,0.000181937,-2.46783,0.229118,0.257509,34.225,0.0534259,
2,1,0,1,0,44508.8,0.0552341,0.0549384,3.45281,23,0.00205638,10,0.000189692,-2.46183,0.267021,0.220956,29.7525,0.0549384,
2,1,0,1,0,44508.8,0.0567283,0.0564147,3.49368,23,0.00214334,10,0.000197095,-2.45672,0.284366,0.207479,28.3031,0.0564147,
2,1,0,1,0,44508.9,0.0582291,0.057937,3.54368,23,0.00223167,10,0.00020531,-2.45055,0.257664,0.22898,31.6433,0.057937,
2,1,0,1,0,44508.9,0.0597299,0.0593818,3.58667,23,0.00232118,10,0.000212983,-2.44531,0.265306,0.222385,31.1108,0.0593818,
2,1,0,1,0,44508.9,0.0612228,0.0609352,3.62872,23,0.00241144,10,0.000221117,-2.44025,0.301895,0.195432,27.6735,0.0609352,
2,1,0,1,0,44508.9,0.0627223,0.0624304,3.67773,23,0.00250312,10,0.000229602,-2.43442,0.302421,0.195092,27.9439,0.0624304,
2,1,0,1,0,44509,0.0642219,0.0639241,3.71427,23,0.00259585,10,0.000237431,-2.43013,0.287304,0.205358,29.7537,0.0639241,
2,1,0,1,0,44509,0.0657214,0.0654137,3.75416,23,0.00268967,10,0.000245574,-2.42549,0.280072,0.21066,30.8995,0.0654137,
2,1,0,1,0,44509,0.0672156,0.0669085,3.79524,23,0.00278417,10,0.000253934,-2.42076,0.325312,0.181364,26.8868,0.0669085,
2,1,0,1,0,44509,0.0687164,0.0684561,3.84342,23,0.00288011,10,0.000263105,-2.41528,0.372263,0.15849,23.7278,0.0684561,
2,1,0,1,0,44509.1,0.0702172,0.0699085,3.87777,23,0.00297696,10,0.000271089,-2.41142,0.35145,0.167876,25.3836,0.06990847,
2,1,0,1,0,44509.1,0.0717114,0.0714425,3.91291,23,0.00307434,10,0.000279548,-2.4075,0.332244,0.177581,27.1141,0.0714425,
2,1,0,1,0,44509.1,0.073211,0.0728813,3.94783,23,0.00317304,10,0.000287723,-2.40364,0.37062,0.159193,24.5553,0.0728813,
2,1,0,1,0,44509.1,0.0747105,0.0743752,3.9874,23,0.00327269,10,0.000296564,-2.39931,0.431135,0.136848,21.2636,0.07437522,
2,1,0,1,0,44509.2,0.0762101,0.0758782,4.01947,23,0.00337318,10,0.000304991,-2.39583,0.402129,0.146719,23.018,0.0758782,
2,1,0,1,0,44509.2,0.0777042,0.0773661,4.05048,23,0.00347406,10,0.00031337,-2.39249,0.37922,0.155583,24.6145,0.0773661,
2,1,0,1,0,44509.2,0.0792037,0.0788624,4.0857,23,0.0035762,10,0.000322208,-2.38873,0.453476,0.130106,20.7451,0.0788624,
2,1,0,1,0,44509.2,0.0807046,0.0803658,4.11951,23,0.0036792,10,0.000331068,-2.38515,0.502355,0.117447,18.8463,0.0803658,
2,1,0,1,0,44509.3,0.0821988,0.0818412,4.14783,23,0.00378253,10,0.000339464,-2.38218,0.515394,0.114476,18.5034,0.0818412,
2,1,0,1,0,44509.3,0.0836983,0.0833787,4.17484,23,0.00388693,10,0.000348093,-2.37936,0.473676,0.124558,20.3209,0.0833787,
2,1,0,1,0,44509.3,0.0851979,0.0848761,4.20337,23,0.00399212,10,0.000356765,-2.3764,0.512524,0.115117,18.9102,0.0848761,
2,1,0,1,0,44509.3,0.0866921,0.0863371,4.23828,23,0.00409766,10,0.000365921,-2.37281,0.651592,0.0905475,14.9617,0.0863371,
2,1,0,1,0,44509.4,0.0881929,0.0878875,4.27136,23,0.00420439,10,0.000375399,-2.36943,0.551785,0.106926,17.8007,0.0878875,
2,1,0,1,0,44509.4,0.0896937,0.0893795,4.29265,23,0.00431173,10,0.000383675,-2.36727,0.473885,0.124503,20.8833,0.0893795,
2,1,0,1,0,44509.4,0.0911879,0.0908287,4.32622,23,0.00441941,10,0.000392945,-2.36389,0.434894,0.135665,22.909,0.0908287,
2,1,0,1,0,44509.4,0.0926861,0.0923655,4.36522,23,0.00452841,10,0.000403196,-2.35999,0.461242,0.127915,21.7579,0.0923655,
2,1,0,1,0,44509.5,0.0941856,0.0938358,4.39708,23,0.00463827,10,0.000412604,-2.35684,0.434338,0.135839,23.3059,0.0938358,
2,1,0,1,0,44509.5,0.0956852,0.095362,4.42424,23,0.00474895,10,0.000421904,-2.35416,0.39072,0.151003,26.1498,0.095362,
2,1,0,1,0,44509.5,0.0971794,0.0968316,4.46562,23,0.00486013,10,0.000432414,-2.35012,0.345368,0.170832,29.8399,0.0968316,
2,1,0,1,0,44509.5,0.0986802,0.0983538,4.51732,23,0.0049729,10,0.000444296,-2.34512,0.344371,0.171327,30.231,0.09835384,
2,1,0,1,0,44509.6,0.100181,0.0998944,4.57061,23,0.00508688,10,0.000456578,-2.34003,0.314801,0.18742,33.4019,0.09989439,
2,1,0,1,0,44509.6,0.101675,0.101352,4.61687,23,0.0052017,10,0.000467928,-2.33565,0.273128,0.216016,39.0007,0.101352,
2,1,0,1,0,44509.6,0.103175,0.102876,4.6705,23,0.00531829,10,0.000480483,-2.33064,0.274589,0.214866,39.3133,0.102876,
2,1,0,1,0,44509.6,0.104674,0.104342,4.74321,23,0.00543645,10,0.000494918,-2.32393,0.258942,0.22785,42.1956,0.1043423,
2,1,0,1,0,44509.7,0.106169,0.105852,4.81562,23,0.00555585,10,0.000509743,-2.31735,0.244352,0.241455,45.3099,0.105852,
2,1,0,1,0,44509.7,0.107668,0.107332,4.88161,23,0.00567741,10,0.000523954,-2.31144,0.233768,0.252387,48.0691,0.107332,
2,1,0,1,0,44509.7,0.109169,0.108828,4.94588,23,0.00580066,10,0.000538251,-2.30576,0.232326,0.253954,49.1129,0.108828,
2,1,0,1,0,44509.7,0.110663,0.110325,5.02626,23,0.00592523,10,0.000554524,-2.29876,0.228114,0.258642,50.7495,0.1103254,
2,1,0,1,0,44509.8,0.112163,0.111857,5.11293,23,0.00605235,10,0.000571918,-2.29133,0.221815,0.265988,52.9746,0.111857,
2,1,0,1,0,44509.8,0.113662,0.113352,5.19089,23,0.00618147,10,0.000588396,-2.28476,0.223138,0.26441,53.521,0.113352,
2,1,0,1,0,44509.8,0.115162,0.11479,5.25135,23,0.00631247,10,0.000602803,-2.27973,0.239684,0.246158,50.5655,0.11479,
2,1,0,1,0,44509.8,0.116656,0.11634,5.33808,23,0.00644487,10,0.000621033,-2.27261,0.24579,0.240042,49.9727,0.11634,
2,1,0,1,0,44509.9,0.118157,0.117849,5.42073,23,0.00657974,10,0.000638827,-2.26594,0.267115,0.220879,46.6118,0.117849,
2,1,0,1,0,44509.9,0.119657,0.119322,5.48446,23,0.0067164,10,0.000654415,-2.26087,0.286245,0.206117,44.091,0.119322,
2,1,0,1,0,44509.9,0.121152,0.120816,5.53839,23,0.00685403,10,0.000669128,-2.25662,0.312579,0.188752,40.8601,0.120816,
2,1,0,1,0,44509.9,0.122651,0.122325,5.60657,23,0.0069938,10,0.000685823,-2.2513,0.330056,0.178758,39.0487,0.122325,
2,1,0,1,0,44510,0.124151,0.123871,5.66355,23,0.00713508,10,0.000701552,-2.24691,0.350162,0.168494,37.1772,0.123871,
2,1,0,1,0,44510,0.125649,0.125333,5.71371,23,0.00727768,10,0.000716114,-2.24308,0.409132,0.144208,32.1141,0.125333,
2,1,0,1,0,44510,0.127143,0.126801,5.74836,23,0.0074209,10,0.0007289,-2.24046,0.460451,0.128135,28.7779,0.126801,
2,1,0,1,0,44510,0.128644,0.128308,5.7967,23,0.00756572,10,0.000743764,-2.23682,0.546496,0.107961,24.4241,0.128308,
2,1,0,1,0,44510.1,0.130145,0.129805,5.84475,23,0.00771157,10,0.000758678,-2.23323,0.605599,0.0974243,22.1647,0.129805,
2,1,0,1,0,44510.1,0.131639,0.131327,5.8751,23,0.00785781,10,0.000771557,-2.23098,0.624982,0.0944027,21.6012,0.131327,
2,1,0,1,0,44510.1,0.133139,0.132808,5.90147,23,0.00800544,10,0.00078376,-2.22904,0.752554,0.0783997,18.0603,0.132808,
2,1,0,1,0,44510.1,0.134638,0.134291,5.92555,23,0.00815368,10,0.000795745,-2.22727,0.961979,0.0613319,14.1903,0.134291,
2,1,0,1,0,44510.2,0.136132,0.135802,5.9551,23,0.00830195,10,0.000808717,-2.22511,1.00121,0.0589285,13.6729,0.135802,
2,1,0,1,0,44510.2,0.137633,0.137315,5.97522,23,0.00845141,10,0.000820487,-2.22365,1.00646,0.0586215,13.65,0.137315,
2,1,0,1,0,44510.2,0.139133,0.138785,5.98451,23,0.00860126,10,0.00083056,-2.22297,2.19247,0.0269103,6.27605,0.138785,
2,1,0,1,0,44510.2,0.140627,0.140327,5.98392,23,0.00875073,10,0.000839705,-2.22301,-686.017,-8.60037e-05,-0.0200683,0.140327,
2,1,0,1,0,44510.3,0.142126,0.141813,5.98798,23,0.00890082,10,0.00084917,-2.22272,-2.75006,-0.0214541,-4.99976,0.1418125,
2,1,0,1,0,44510.3,0.143626,0.143301,5.97284,23,0.00905074,10,0.000855915,-2.22382,-1.04436,-0.0564938,-13.1342,0.143301,
2,1,0,1,0,44510.3,0.145125,0.14481,5.93881,23,0.00920006,10,0.00086,-2.2263,-0.481202,-0.12261,-28.3643,0.14481,
2,1,0,1,0,44510.3,0.14662,0.146251,5.88458,23,0.00934775,10,0.000860626,-2.23028,-0.329344,-0.179144,-41.062,0.146251,
2,1,0,1,0,44510.4,0.14812,0.147786,5.82406,23,0.00949452,10,0.000860717,-2.23477,-0.245312,-0.24051,-54.4148,0.147786,
2,1,0,1,0,44510.4,0.149621,0.14927,5.72862,23,0.00963932,10,0.000855109,-2.24195,-0.196277,-0.300595,-66.9687,0.14927,
2,1,0,1,0,44510.4,0.151116,0.150804,5.61615,23,0.00978102,10,0.000846938,-2.25056,-0.158131,-0.373107,-81.5015,0.150804,
2,1,0,1,0,44510.4,0.152615,0.15229,5.47821,23,0.00992022,10,0.000834275,-2.26136,-0.132575,-0.44503,-95.0079,0.1522899,
2,1,0,1,0,44510.5,0.154115,0.153736,5.33949,23,0.0100558,10,0.000820869,-2.2725,-0.114873,-0.513612,-106.636,0.153736,
2,1,0,1,0,44510.5,0.155614,0.155301,5.17328,23,0.0101876,10,0.000803416,-2.28623,-0.105736,-0.557992,-112.293,0.155301,
2,1,0,1,0,44510.5,0.157107,0.156811,4.99355,23,0.0103146,10,0.000783046,-2.30159,-0.094016,-0.627553,-122.161,0.156811,
2,1,0,1,0,44510.5,0.158608,0.158265,4.81242,23,0.0104376,10,0.00076164,-2.31764,-0.0904824,-0.65206,-122.323,0.158265,
2,1,0,1,0,44510.6,0.160109,0.159764,4.62818,23,0.010556,10,0.000739415,-2.33459,-0.0880773,-0.669866,-120.971,0.159764,
2,1,0,1,0,44510.6,0.161603,0.161274,4.45282,23,0.0106693,10,0.000718125,-2.35136,-0.0896738,-0.65794,-114.224,0.161274,
2,1,0,1,0,44510.6,0.163102,0.162766,4.27845,23,0.0107788,10,0.000696386,-2.36871,-0.0896933,-0.657797,-110.014,0.162766,
2,1,0,1,0,44510.6,0.164602,0.164277,4.12122,23,0.0108842,10,0.000677022,-2.38497,-0.0909569,-0.648659,-104.47,0.164277,
2,1,0,1,0,44510.7,0.166096,0.165796,3.9696,23,0.0109852,10,0.000658142,-2.40125,-0.0949886,-0.621127,-96.3654,0.165796,
2,1,0,1,0,44510.7,0.167597,0.167277,3.83607,23,0.011083,10,0.000641688,-2.41611,-0.102603,-0.575031,-86.1575,0.167277,
2,1,0,1,0,44510.7,0.169098,0.168757,3.70967,23,0.0111777,10,0.000626034,-2.43067,-0.106191,-0.5556,-80.5518,0.168757,
2,1,0,1,0,44510.7,0.170592,0.170242,3.5925,23,0.0112689,10,0.000611594,-2.4446,-0.111694,-0.528229,-74.2494,0.170242,
2,1,0,1,0,44510.8,0.17209,0.171763,3.48689,23,0.0113578,10,0.00059892,-2.45756,-0.120967,-0.487737,-66.5542,0.171763,
2,1,0,1,0,44510.8,0.17359,0.17325,3.39705,23,0.0114443,10,0.000588538,-2.4689,-0.134734,-0.437901,-58.1417,0.17325,
2,1,0,1,0,44510.8,0.175089,0.174725,3.3084,23,0.0115285,10,0.000578061,-2.48038,-0.146984,-0.401403,-52,0.174725,
2,1,0,1,0,44510.8,0.176583,0.17628,3.2364,23,0.0116104,10,0.000570514,-2.48994,-0.152782,-0.38617,-48.8027,0.17628,
2,1,0,1,0,44510.9,0.178084,0.177767,3.16521,23,0.0116908,10,0.00056267,-2.4996,-0.158834,-0.371456,-45.9452,0.177767,
2,1,0,1,0,44510.9,0.179585,0.179274,3.10528,23,0.0117695,10,0.000556695,-2.5079,-0.183804,-0.320994,-38.9159,0.179274,
2,1,0,1,0,44510.9,0.181079,0.18081,3.04759,23,0.0118464,10,0.000551036,-2.51604,-0.205099,-0.287666,-34.256,0.18081,
2,1,0,1,0,44510.9,0.182579,0.182272,2.99558,23,0.0119223,10,0.000546009,-2.52352,-0.198126,-0.297791,-34.8318,0.182272,
2,1,0,1,0,44511,0.184078,0.183762,2.95374,23,0.0119971,10,0.000542785,-2.52963,-0.226106,-0.260939,-30.0929,0.183762,
2,1,0,1,0,44511,0.185578,0.185238,2.90871,23,0.0120706,10,0.000538805,-2.5363,-0.244224,-0.241581,-27.4381,0.185238,
2,1,0,1,0,44511,0.187072,0.186787,2.86737,23,0.0121429,10,0.000535586,-2.54252,-0.290183,-0.20332,-22.779,0.186787,
2,1,0,1,0,44511,0.188573,0.188235,2.83074,23,0.0122145,10,0.000532845,-2.5481,-0.273788,-0.215495,-23.8632,0.188235,
2,1,0,1,0,44511.1,0.190072,0.189737,2.80303,23,0.0122854,10,0.000531839,-2.55237,-0.278431,-0.211901,-23.1686,0.189737,
2,1,0,1,0,44511.1,0.191567,0.191213,2.77097,23,0.0123551,10,0.000529846,-2.55737,-0.368929,-0.159922,-17.3053,0.191213,
2,1,0,1,0,44511.1,0.193066,0.192761,2.74084,23,0.0124244,10,0.000528329,-2.56212,-0.426615,-0.138298,-14.8377,0.192761,
2,1,0,1,0,44511.1,0.194566,0.194204,2.71751,23,0.0124932,10,0.000527752,-2.56583,-0.362248,-0.162872,-17.3091,0.194204,
2,1,0,1,0,44511.2,0.19606,0.195744,2.69882,23,0.0125611,10,0.000528279,-2.56883,-0.355225,-0.166092,-17.4826,0.195744,
2,1,0,1,0,44511.2,0.197561,0.197257,2.67514,23,0.0126286,10,0.000527691,-2.57265,-0.419977,-0.140484,-14.68,0.197257,
2,1,0,1,0,44511.2,0.199062,0.198744,2.6519,23,0.0126956,10,0.000527049,-2.57644,-0.488169,-0.12086,-12.5426,0.198744,
2,1,0,1,0,44511.2,0.200556,0.20025,2.63681,23,0.0127619,10,0.000528022,-2.57892,-0.482531,-0.122272,-12.6008,0.20025,
2,1,0,1,0,44511.3,0.202055,0.201741,2.62899,23,0.0128281,10,0.000530375,-2.58021,-0.511615,-0.115321,-11.7981,0.201741,
2,1,0,1,0,44511.3,0.203553,0.203215,2.61412,23,0.0128939,10,0.000531229,-2.58267,-0.629876,-0.0936692,-9.52937,0.203215,
2,1,0,1,0,44511.3,0.205053,0.204752,2.58649,23,0.0129593,10,0.00052959,-2.58729,-0.971675,-0.0607199,-6.16536,0.204752,
2,1,0,1,0,44511.3,0.206547,0.206208,2.57673,23,0.0130241,10,0.000531343,-2.58893,-0.674787,-0.087435,-8.81381,0.206208,
2,1,0,1,0,44511.4,0.208048,0.20774,2.57804,23,0.013089,10,0.000535561,-2.58871,-0.687698,-0.0857934,-8.59483,0.20774,
2,1,0,1,0,44511.4,0.209549,0.209259,2.56218,23,0.0131535,10,0.00053616,-2.59139,-0.687157,-0.085861,-8.57234,0.209259,
2,1,0,1,0,44511.4,0.211043,0.210749,2.54364,23,0.0132174,10,0.00053607,-2.59454,-1.06045,-0.0556369,-5.53902,0.210749,
2,1,0,1,0,44511.4,0.212543,0.212215,2.53636,23,0.0132813,10,0.000538254,-2.59579,-0.913943,-0.0645555,-6.39871,0.212215,
2,1,0,1,0,44511.5,0.214042,0.213716,2.52742,23,0.013345,10,0.000540151,-2.59732,-0.784785,-0.0751798,-7.41321,0.213716,
2,1,0,1,0,44511.5,0.215536,0.215233,2.52213,23,0.0134083,10,0.000542845,-2.59823,-1.03394,-0.0570633,-5.60298,0.215233,
2,1,0,1,0,44511.5,0.217036,0.2167,2.50298,23,0.0134715,10,0.000542395,-2.60154,-1.55055,-0.038051,-3.72882,0.2167,
2,1,0,1,0,44511.5,0.218537,0.218216,2.49716,23,0.0135345,10,0.000544919,-2.60255,-1.19343,-0.0494375,-4.83657,0.218216,
2,1,0,1,0,44511.6,0.220031,0.219709,2.49756,23,0.0135971,10,0.000548738,-2.60248,-1.05217,-0.0560748,-5.4575,0.219709,
2,1,0,1,0,44511.6,0.22153,0.221174,2.49016,23,0.0136598,10,0.000550759,-2.60377,-1.19982,-0.0491742,-4.7699,0.221174,
2,1,0,1,0,44511.6,0.22303,0.222695,2.47362,23,0.0137223,10,0.000550862,-2.60667,-1.73086,-0.0340871,-3.30159,0.222695,
2,1,0,1,0,44511.6,0.22453,0.22419,2.47064,23,0.0137846,10,0.000553894,-2.60719,-1.02604,-0.0575028,-5.56035,0.22419,
2,1,0,1,0,44511.7,0.226024,0.225721,2.46694,23,0.0138465,10,0.000556842,-2.60784,-0.97874,-0.0602816,-5.80516,0.225721,
2,1,0,1,0,44511.7,0.227525,0.227185,2.46668,23,0.0139085,10,0.000560393,-2.60789,-0.962797,-0.0612798,-5.87721,0.227185,
2,1,0,1,0,44511.7,0.229025,0.228707,2.45505,23,0.0139704,10,0.000561489,-2.60994,-1.98591,-0.0297093,-2.84818,0.228707,
2,1,0,1,0,44511.7,0.23052,0.230176,2.4475,23,0.0140317,10,0.000563355,-2.61128,-1.59747,-0.0369333,-3.53384,0.230176,
2,1,0,1,0,44511.8,0.232019,0.231688,2.44619,23,0.0140933,10,0.000566752,-2.61151,-1.41771,-0.0416163,-3.96473,0.231688,
2,1,0,1,0,44511.8,0.233519,0.233211,2.44666,23,0.0141548,10,0.00057059,-2.61143,-2.81265,-0.0209767,-1.99533,0.233211,
2,1,0,1,0,44511.8,0.235018,0.234701,2.43663,23,0.0142161,10,0.00057188,-2.61321,-1.94019,-0.0304094,-2.88916,0.234701,
2,1,0,1,0,44511.8,0.236511,0.236198,2.42393,23,0.0142771,10,0.000572529,-2.61548,-1.6969,-0.0347693,-3.30062,0.2361982,
2,1,0,1,0,44511.9,0.238012,0.237643,2.42442,23,0.0143381,10,0.000576146,-2.61539,-1.49492,-0.0394671,-3.7277,0.237643,
2,1,0,1,0,44511.9,0.239513,0.2392,2.42485,23,0.0143991,10,0.000580026,-2.61531,-2.00938,-0.0293622,-2.77252,0.2392,
2,1,0,1,0,44511.9,0.241007,0.240687,2.41515,23,0.0144597,10,0.000581296,-2.61706,-2.91622,-0.0202317,-1.90678,0.240687,
2,1,0,1,0,44511.9,0.242506,0.242191,2.40651,23,0.0145205,10,0.000582835,-2.61861,-1.50214,-0.0392772,-3.70333,0.242191,
2,1,0,1,0,44512,0.244006,0.243695,2.40725,23,0.0145811,10,0.000586636,-2.61848,-2.11553,-0.027889,-2.62443,0.243695,
2,1,0,1,0,44512,0.2455,0.245199,2.4125,23,0.0146414,10,0.000591544,-2.61753,-2.90863,-0.0202845,-1.90288,0.245199,
2,1,0,1,0,44512,0.247001,0.246691,2.40568,23,0.014702,10,0.00059346,-2.61876,-2.2159,-0.0266257,-2.49696,0.246691,
2,1,0,1,0,44512,0.248502,0.248175,2.38962,23,0.0147623,10,0.000593044,-2.62167,-2.15414,-0.0273892,-2.5641,0.248175,
2,1,0,1,0,44512.1,0.249995,0.249719,2.39101,23,0.0148223,10,0.000597081,-2.62142,-1.39771,-0.0422119,-3.94211,0.2497188,
2,1,0,1,0,44512.1,0.251494,0.251184,2.39337,23,0.0148825,10,0.000601178,-2.62099,-3.60591,-0.016362,-1.52573,0.2511844,
2,1,0,1,0,44512.1,0.252994,0.252654,2.38808,23,0.0149426,10,0.000603359,-2.62195,-2.34465,-0.0251637,-2.34436,0.252654,
2,1,0,1,0,44512.1,0.254493,0.254189,2.38191,23,0.0150026,10,0.000605455,-2.62307,-1.63102,-0.0361738,-3.36789,0.254189,
2,1,0,1,0,44512.2,0.255988,0.255658,2.37607,23,0.0150622,10,0.000607462,-2.62414,-2.1481,-0.0274662,-2.55227,0.255658,
2,1,0,1,0,44512.2,0.257488,0.257164,2.37818,23,0.0151221,10,0.000611583,-2.62376,-5.01955,-0.011754,-1.0887,0.257164,
2,1,0,1,0,44512.2,0.258989,0.258694,2.37661,23,0.0151818,10,0.000614813,-2.62404,-5.29016,-0.0111528,-1.03185,0.258694,
2,1,0,1,0,44512.2,0.260483,0.260181,2.36709,23,0.0152413,10,0.000615872,-2.62579,-2.09658,-0.0281411,-2.6014,0.260181,
2,1,0,1,0,44512.3,0.261983,0.261667,2.36342,23,0.0153009,10,0.000618428,-2.62646,-1.53111,-0.0385342,-3.5584,0.261667,
2,1,0,1,0,44512.3,0.263482,0.263145,2.36661,23,0.0153603,10,0.000622763,-2.62587,-4.67889,-0.0126098,-1.16093,0.263145,
2,1,0,1,0,44512.3,0.264982,0.264657,2.35443,23,0.0154197,10,0.000623114,-2.62812,-8.27622,-0.00712886,-0.656326,0.264657,
2,1,0,1,0,44512.3,0.266476,0.266222,2.35491,23,0.0154788,10,0.00062693,-2.62803,-2.0724,-0.0284694,-2.62052,0.2662223,
2,1,0,1,0,44512.4,0.267976,0.267666,2.34566,23,0.015538,10,0.000627854,-2.62974,-1.65795,-0.0355861,-3.26582,0.2676664,
2,1,0,1,0,44512.4,0.269477,0.26914,2.34955,23,0.0155971,10,0.000632357,-2.62902,-5.21582,-0.0113117,-1.03498,0.26914,
2,1,0,1,0,44512.4,0.270971,0.270589,2.34421,23,0.0156559,10,0.000634316,-2.63,-105.926,-0.000556993,-0.0509914,0.2705887,
2,1,0,1,0,44512.4,0.27247,0.272209,2.34139,23,0.015715,10,0.000637345,-2.63053,-1.22869,-0.0480188,-4.38899,0.272209,
2,1,0,1,0,44512.5,0.27397,0.273652,2.3336,23,0.0157739,10,0.000638594,-2.63197,-0.952257,-0.061958,-5.64789,0.273652,
2,1,0,1,0,44512.5,0.275464,0.275122,2.33305,23,0.0158324,10,0.000641873,-2.63208,-1.96839,-0.0299737,-2.7308,0.275122,
2,1,0,1,0,44512.5,0.276965,0.276654,2.32906,23,0.0158911,10,0.000644344,-2.63282,-5.75976,-0.0102435,-0.931669,0.276654,
2,1,0,1,0,44512.5,0.278466,0.278139,2.32291,23,0.0159497,10,0.000646092,-2.63397,-1.34922,-0.0437291,-3.96507,0.278139,
2,1,0,1,0,44512.6,0.27996,0.279636,2.32469,23,0.016008,10,0.000650066,-2.63364,-1.70166,-0.034672,-3.14254,0.279636,
2,1,0,1,0,44512.6,0.281458,0.281117,2.32129,23,0.0160664,10,0.000652553,-2.63427,-1.81915,-0.0324328,-2.9373,0.2811169,
2,1,0,1,0,44512.6,0.282958,0.28265,2.315,23,0.0161247,10,0.000654333,-2.63545,83.9352,0.000702923,0.063552,0.28265,
2,1,0,1,0,44512.6,0.284457,0.284171,2.30628,23,0.016183,10,0.000655379,-2.63709,-3.30562,-0.0178484,-1.61146,0.284171,
2,1,0,1,0,44512.7,0.285951,0.28564,2.30733,23,0.0162409,10,0.000659065,-2.63689,-1.20335,-0.0490298,-4.4204,0.28564,
2,1,0,1,0,44512.7,0.287452,0.287122,2.30492,23,0.0162989,10,0.000661793,-2.63734,-1.4106,-0.0418262,-3.75871,0.287122,
2,1,0,1,0,44512.7,0.288953,0.288603,2.30098,23,0.0163569,10,0.000664071,-2.63809,15.8594,0.00372019,0.333907,0.288603,
2,1,0,1,0,44512.7,0.290447,0.290123,2.29449,23,0.0164145,10,0.000665685,-2.63931,-2.83142,-0.0208376,-1.86755,0.290123,
2,1,0,1,0,44512.8,0.291947,0.291619,2.29247,23,0.0164723,10,0.000668529,-2.6397,-1.07181,-0.055047,-4.92519,0.2916193,
2,1,0,1,0,44512.8,0.293446,0.29312,2.28588,23,0.0165299,10,0.000670037,-2.64095,-2.65995,-0.0221809,-1.98078,0.29312,
2,1,0,1,0,44512.8,0.29494,0.294581,2.28971,23,0.0165872,10,0.000674505,-2.64022,-6.74381,-0.00874877,-0.781106,0.294581,
2,1,0,1,0,44512.8,0.29644,0.296133,2.27885,23,0.0166447,10,0.000674842,-2.64228,-2.84409,-0.0207448,-1.84784,0.2961328,
2,1,0,1,0,44512.9,0.297941,0.29763,2.27879,23,0.0167021,10,0.000678236,-2.6423,-1.81728,-0.0324661,-2.88453,0.29763,
2,1,0,1,0,44512.9,0.29944,0.299158,2.27837,23,0.0167594,10,0.000681594,-2.64238,-0.00829016,-7.11687,-495.423,0.299158,
2,1,0,1,0,44512.9,0.299736,0.2994,1.86016,23,0.016789,10,0.00055693,-2.73045,0.00184695,31.9445,1443.42,0.2994,
2,1,0,1,0,44512.9,0.298238,0.297952,0.721066,23,0.0168187,10,0.000214843,-3.14203,0.00171595,34.3833,634.994,0.297952,
2,1,0,1,0,44512.9,0.296744,0.296456,0.160906,23,0.0168285,10,4.77015e-05,-3.79343,0.00688413,8.57043,312.442,0.296456,
2,0,0,1,0,44513,0.295243,0.294943,-0.175797,23,0.0168274,10,-5.18503e-05,-3.75499,-0.0269287,-2.19097,185.68,0.294943,
2,0,0,1,0,44513,0.293742,0.293418,-0.391488,23,0.0168197,10,-0.00011487,-3.40728,-0.00463811,-12.7207,124.096,0.2934182,
2,0,0,1,0,44513,0.292248,0.291906,-0.533241,23,0.0168077,10,-0.000155656,-3.27308,-0.0124409,-4.74243,88.6555,0.291906,
2,0,0,1,0,44513,0.290748,0.290434,-0.639621,23,0.0167925,10,-0.000185768,-3.19408,-0.0211322,-2.79195,66.9131,0.290434,
2,0,0,1,0,44513.1,0.289249,0.288916,-0.734012,23,0.0167748,10,-0.000212068,-3.1343,-0.0316453,-1.86441,51.9224,0.288916,
2,0,0,1,0,44513.1,0.287754,0.287448,-0.803243,23,0.0167552,10,-0.000230891,-3.09515,-0.0411768,-1.43285,43.9595,0.287448,
2,0,0,1,0,44513.1,0.286254,0.285972,-0.855364,23,0.016734,10,-0.00024461,-3.06785,-0.0526051,-1.12156,37.2563,0.285972,
2,0,0,1,0,44513.1,0.284754,0.284481,-0.905297,23,0.0167115,10,-0.00025754,-3.04321,-0.0664844,-0.887426,31.2814,0.284481,
2,0,0,1,0,44513.2,0.28326,0.282933,-0.960474,23,0.0166879,10,-0.000271749,-3.01751,-0.0795027,-0.742113,27.4506,0.282933,
2,0,0,1,0,44513.2,0.28176,0.281453,-0.999418,23,0.0166631,10,-0.000281289,-3.00025,-0.0860177,-0.685905,26.3765,0.281453,
2,0,0,1,0,44513.2,0.280261,0.279948,-1.02791,23,0.0166373,10,-0.00028776,-2.98805,-0.0977161,-0.60379,24.1806,0.279948,
2,0,0,1,0,44513.2,0.278761,0.27846,-1.0578,23,0.0166108,10,-0.000294555,-2.9756,-0.12038,-0.490117,20.3408,0.27846,
2,0,0,1,0,44513.3,0.277267,0.276987,-1.09678,23,0.0165835,10,-0.000303793,-2.95988,-0.129886,-0.454244,19.3521,0.276987,
2,0,0,1,0,44513.3,0.275766,0.27545,-1.1264,23,0.0165553,10,-0.000310266,-2.94831,-0.132502,-0.445278,19.4172,0.27545,
2,0,0,1,0,44513.3,0.274265,0.273964,-1.1467,23,0.0165264,10,-0.000314155,-2.94055,-0.145541,-0.405385,18.1898,0.273964,
2,0,0,1,0,44513.3,0.272771,0.272419,-1.17443,23,0.016497,10,-0.000319937,-2.93017,-0.163724,-0.360363,16.5573,0.272419,
2,0,0,1,0,44513.4,0.271272,0.270952,-1.20429,23,0.0164669,10,-0.000326305,-2.91927,-0.172666,-0.3417,15.999,0.270952,
2,0,0,1,0,44513.4,0.269772,0.269491,-1.23105,23,0.016436,10,-0.000331755,-2.90973,-0.170871,-0.345289,16.5018,0.269491,
2,0,0,1,0,44513.4,0.268273,0.267922,-1.2463,23,0.0164046,10,-0.000333911,-2.90438,-0.207633,-0.284156,13.853,0.267922,
2,0,0,1,0,44513.4,0.26678,0.266471,-1.26663,23,0.0163729,10,-0.00033752,-2.89735,-0.217,-0.271889,13.5109,0.266471,
2,0,0,1,0,44513.5,0.265279,0.264943,-1.28989,23,0.0163405,10,-0.000341747,-2.88945,-0.209711,-0.281339,14.1366,0.264943,
2,0,0,1,0,44513.5,0.263778,0.263466,-1.31467,23,0.0163075,10,-0.000346371,-2.88118,-0.235074,-0.250985,12.7904,0.263466,
2,0,0,1,0,44513.5,0.262284,0.261951,-1.32894,23,0.0162742,10,-0.000348117,-2.8765,-0.223156,-0.264389,13.695,0.261951,
2,0,0,1,0,44513.5,0.260784,0.260461,-1.3428,23,0.0162403,10,-0.000349747,-2.87199,-0.302712,-0.194905,10.2545,0.260461,
2,0,0,1,0,44513.6,0.259285,0.258945,-1.36863,23,0.016206,10,-0.000354399,-2.86372,-0.294192,-0.20055,10.695,0.258945,
2,0,0,1,0,44513.6,0.257791,0.257489,-1.38786,23,0.0161714,10,-0.00035736,-2.85765,-0.250515,-0.235515,12.7003,0.257489,
2,0,0,1,0,44513.6,0.25629,0.255983,-1.39831,23,0.0161362,10,-0.000357943,-2.8544,-0.268989,-0.21934,11.9599,0.255983,
2,0,0,1,0,44513.6,0.254789,0.254464,-1.41377,23,0.0161005,10,-0.000359755,-2.84962,-0.315281,-0.187135,10.34,0.254464,
2,0,0,1,0,44513.7,0.253296,0.252928,-1.42617,23,0.0160647,10,-0.000360719,-2.84583,-0.327704,-0.180041,10.057,0.252928,
2,0,0,1,0,44513.7,0.251797,0.251463,-1.45066,23,0.0160283,10,-0.000364787,-2.83843,-0.289238,-0.203984,11.5206,0.251463,
2,0,0,1,0,44513.7,0.250297,0.249926,-1.46358,23,0.0159914,10,-0.000365786,-2.83458,-0.275843,-0.21389,12.1872,0.249926,
2,0,0,1,0,44513.7,0.248797,0.248482,-1.47476,23,0.0159542,10,-0.000366451,-2.83128,-0.362834,-0.162609,9.38463,0.248482,
2,0,0,1,0,44513.8,0.247303,0.246958,-1.49484,23,0.0159168,10,-0.000369161,-2.82541,-0.406753,-0.145051,8.45885,0.2469579,
2,0,0,1,0,44513.8,0.245802,0.245502,-1.50884,23,0.0158789,10,-0.000370423,-2.82136,-0.339329,-0.173873,10.2068,0.245502,
2,0,0,1,0,44513.8,0.244302,0.244005,-1.52565,23,0.0158406,10,-0.000372267,-2.81655,-0.316986,-0.186128,11.0452,0.2440054,
2,0,0,1,0,44513.8,0.242807,0.242484,-1.53187,23,0.015802,10,-0.000371454,-2.81478,-0.474585,-0.124319,7.45745,0.242484,
2,0,0,1,0,44513.9,0.241308,0.240969,-1.5481,23,0.015763,10,-0.000373043,-2.8102,-0.496646,-0.118797,7.18369,0.240969,
2,0,0,1,0,44513.9,0.239808,0.239484,-1.56868,23,0.0157237,10,-0.000375674,-2.80447,-0.339537,-0.173766,10.5801,0.239484,
2,0,0,1,0,44513.9,0.238309,0.237982,-1.57367,23,0.015684,10,-0.000374506,-2.80309,-0.328029,-0.179862,11.0718,0.237982,
2,0,0,1,0,44513.9,0.236815,0.236495,-1.58514,23,0.0156442,10,-0.000374879,-2.79993,-0.440025,-0.134083,8.33159,0.236495,
2,0,0,1,0,44514,0.235315,0.235002,-1.59603,23,0.0156038,10,-0.000375071,-2.79696,-0.492606,-0.119771,7.47492,0.235002,
2,0,0,1,0,44514,0.233814,0.233478,-1.61468,23,0.0155632,10,-0.000376992,-2.79191,-0.4329,-0.13629,8.5836,0.233478,
2,0,0,1,0,44514,0.23232,0.232008,-1.63032,23,0.0155224,10,-0.000378247,-2.78773,-0.331712,-0.177865,11.3003,0.232008,
2,0,0,1,0,44514,0.230821,0.230488,-1.63715,23,0.0154811,10,-0.000377343,-2.78591,-0.473222,-0.124677,7.97173,0.230488,
2,0,0,1,0,44514.1,0.229321,0.228993,-1.64894,23,0.0154394,10,-0.000377596,-2.7828,-0.526591,-0.112041,7.23863,0.228993,
2,0,0,1,0,44514.1,0.227827,0.227488,-1.66804,23,0.0153977,10,-0.000379458,-2.77779,-0.507944,-0.116155,7.54308,0.227488,
2,0,0,1,0,44514.1,0.226326,0.225983,-1.67838,23,0.0153555,10,-0.000379285,-2.77511,-0.380234,-0.155168,10.174,0.225983,
2,0,0,1,0,44514.1,0.224825,0.224498,-1.69073,23,0.0153129,10,-0.000379567,-2.77192,-0.502358,-0.117446,7.75873,0.224498,
2,0,0,1,0,44514.2,0.223331,0.223007,-1.70535,23,0.0152701,10,-0.000380305,-2.76819,-0.580496,-0.101637,6.75948,0.223007,
2,0,0,1,0,44514.2,0.221831,0.221488,-1.71682,23,0.015227,10,-0.000380255,-2.76528,-0.431197,-0.136828,9.15923,0.221488,
2,0,0,1,0,44514.2,0.220333,0.220006,-1.7256,23,0.0151836,10,-0.000379641,-2.76306,-0.337098,-0.175023,11.789,0.220006,
2,0,0,1,0,44514.2,0.218834,0.218502,-1.73599,23,0.0151398,10,-0.000379317,-2.76045,-0.418277,-0.141055,9.59562,0.218502,
2,0,0,1,0,44514.3,0.217339,0.216999,-1.75317,23,0.0150958,10,-0.000380437,-2.75618,-0.938754,-0.0628493,4.30091,0.216999,
2,0,0,1,0,44514.3,0.215839,0.215559,-1.76678,23,0.0150514,10,-0.000380844,-2.75282,-0.536128,-0.110048,7.56991,0.215559,
2,0,0,1,0,44514.3,0.214338,0.214046,-1.77901,23,0.0150068,10,-0.000380791,-2.74982,-0.403704,-0.146147,10.1197,0.214046,
2,0,0,1,0,44514.3,0.212844,0.212538,-1.7843,23,0.0149619,10,-0.000379232,-2.74853,-0.450646,-0.130923,9.14555,0.212538,
2,0,0,1,0,44514.4,0.211344,0.211005,-1.79952,23,0.0149166,10,-0.000379707,-2.74484,-0.781741,-0.0754725,5.30932,0.2110053,
2,0,0,1,0,44514.4,0.209845,0.20951,-1.81173,23,0.014871,10,-0.000379576,-2.74191,-0.618749,-0.0953536,6.7451,0.20951,
2,0,0,1,0,44514.4,0.20835,0.207986,-1.82842,23,0.0148252,10,-0.000380285,-2.73792,-0.416745,-0.141573,10.1205,0.207986,
2,0,0,1,0,44514.4,0.206851,0.206458,-1.84063,23,0.014779,10,-0.000380013,-2.73503,-0.380664,-0.154992,11.1321,0.206458,
2,0,0,1,0,44514.5,0.20535,0.205001,-1.85197,23,0.0147323,10,-0.000379655,-2.73237,-0.593095,-0.0994781,7.17593,0.205001,
2,0,0,1,0,44514.5,0.203856,0.203497,-1.86674,23,0.0146856,10,-0.000379875,-2.72892,-0.718845,-0.0820761,5.96125,0.203497,
2,0,0,1,0,44514.5,0.202356,0.202044,-1.8767,23,0.0146385,10,-0.000379175,-2.72661,-0.493931,-0.11945,8.74151,0.202044,
2,0,0,1,0,44514.5,0.200857,0.20051,-1.88301,23,0.014591,10,-0.000377563,-2.72515,-0.468171,-0.126022,9.28801,0.20051,
2,0,0,1,0,44514.6,0.199357,0.199034,-1.89858,23,0.0145432,10,-0.000377883,-2.72157,-0.510953,-0.115471,8.57949,0.199034,
2,0,0,1,0,44514.6,0.197863,0.197531,-1.91507,23,0.0144953,10,-0.000378284,-2.71782,-0.788034,-0.0748699,5.58423,0.197531,
2,0,0,1,0,44514.6,0.196362,0.196009,-1.92276,23,0.0144469,10,-0.000376878,-2.71608,-0.433779,-0.136014,10.2139,0.196009,
2,0,0,1,0,44514.6,0.194861,0.194533,-1.93943,23,0.0143982,10,-0.000377283,-2.71233,-0.424036,-0.139139,10.5274,0.194533,
2,0,0,1,0,44514.7,0.193367,0.19303,-1.95842,23,0.0143493,10,-0.000378034,-2.70809,-0.555919,-0.106131,8.09182,0.19303,
2,0,0,1,0,44514.7,0.191868,0.191527,-1.9706,23,0.0142998,10,-0.000377423,-2.7054,-0.612476,-0.0963302,7.39532,0.191527,
2,0,0,1,0,44514.7,0.190368,0.190026,-1.98241,23,0.01425,10,-0.000376709,-2.70281,-0.417317,-0.141379,10.9287,0.190026,
2,0,0,1,0,44514.7,0.18887,0.188528,-1.98686,23,0.0141999,10,-0.000374579,-2.70183,-0.410236,-0.14382,11.1991,0.1885282,
2,0,0,1,0,44514.8,0.187376,0.187069,-2.00929,23,0.0141496,10,-0.000375876,-2.69696,-0.445299,-0.132495,10.3896,0.1870687,
2,0,0,1,0,44514.8,0.185875,0.185555,-2.0257,23,0.0140988,10,-0.00037588,-2.69342,-0.518242,-0.113846,8.99159,0.185555,
2,0,0,1,0,44514.8,0.184374,0.184068,-2.03817,23,0.0140475,10,-0.000375163,-2.69076,-0.420499,-0.14031,11.1544,0.184068,
2,0,0,1,0,44514.8,0.18288,0.182523,-2.05249,23,0.0139961,10,-0.000374628,-2.68772,-0.386932,-0.152482,12.2555,0.182523,
2,0,0,1,0,44514.9,0.18138,0.181074,-2.07081,23,0.0139441,10,-0.00037497,-2.68386,-0.467468,-0.126212,10.2161,0.1810741,
2,0,0,1,0,44514.9,0.179881,0.179564,-2.09207,23,0.0138916,10,-0.000375661,-2.67942,-0.492548,-0.119785,9.75567,0.1795641,
2,0,0,1,0,44514.9,0.178387,0.178046,-2.10789,23,0.0138389,10,-0.000375301,-2.67615,-0.450976,-0.130827,10.7493,0.178046,
2,0,0,1,0,44514.9,0.176886,0.176544,-2.12057,23,0.0137857,10,-0.000374374,-2.67355,-0.384499,-0.153446,12.7259,0.176544,
2,0,0,1,0,44515,0.175385,0.175006,-2.14159,23,0.0137319,10,-0.000374791,-2.66926,-0.398136,-0.14819,12.3927,0.175006,
2,0,0,1,0,44515,0.173892,0.173525,-2.16914,23,0.0136779,10,-0.0003764,-2.66371,-0.412565,-0.143008,12.0509,0.1735248,
2,0,0,1,0,44515,0.172393,0.172068,-2.1853,23,0.0136231,10,-0.00037602,-2.66049,-0.312631,-0.188721,16.0338,0.172068,
2,0,0,1,0,44515,0.170893,0.170537,-2.20032,23,0.0135679,10,-0.000375235,-2.65751,-0.350221,-0.168465,14.4974,0.170537,
2,0,0,1,0,44515.1,0.169393,0.169076,-2.22332,23,0.0135121,10,-0.00037591,-2.653,-0.312136,-0.18902,16.4429,0.169076,
2,0,0,1,0,44515.1,0.167899,0.167606,-2.25137,23,0.0134559,10,-0.000377344,-2.64755,-0.346441,-0.170303,14.9557,0.167606,
2,0,0,1,0,44515.1,0.166398,0.166062,-2.27858,23,0.0133989,10,-0.000378386,-2.64234,-0.310387,-0.190085,16.881,0.166062,
2,0,0,1,0,44515.1,0.164898,0.164571,-2.29874,23,0.0133412,10,-0.000378306,-2.63851,-0.290205,-0.203305,18.2947,0.164571,
2,0,0,1,0,44515.2,0.163403,0.163081,-2.32947,23,0.0132831,10,-0.000379892,-2.63274,-0.273594,-0.215648,19.6203,0.163081,
2,0,0,1,0,44515.2,0.161904,0.161594,-2.36606,23,0.0132241,10,-0.000382341,-2.62597,-0.272175,-0.216772,19.9763,0.1615942,
2,0,0,1,0,44515.2,0.160404,0.160056,-2.39613,23,0.0131642,10,-0.000383515,-2.62049,-0.238737,-0.247133,23.0616,0.160056,
2,0,0,1,0,44515.2,0.158905,0.15856,-2.42264,23,0.0131035,10,-0.000384133,-2.61571,-0.212761,-0.277306,26.3284,0.15856,
2,0,0,1,0,44515.3,0.157411,0.157062,-2.46126,23,0.0130422,10,-0.000386572,-2.60884,-0.219484,-0.268812,25.9451,0.1570624,
2,0,0,1,0,44515.3,0.155911,0.155613,-2.51096,23,0.0129796,10,-0.000390737,-2.60016,-0.203851,-0.289427,28.3422,0.155613,
2,0,0,1,0,44515.3,0.15441,0.154085,-2.5604,23,0.0129158,10,-0.00039452,-2.59169,-0.185123,-0.318707,31.7535,0.154085,
2,0,0,1,0,44515.3,0.152916,0.152548,-2.60616,23,0.0128511,10,-0.000397563,-2.584,-0.169842,-0.347382,35.3598,0.152548,
2,0,0,1,0,44515.4,0.151417,0.151097,-2.65432,23,0.012785,10,-0.00040106,-2.57605,-0.157229,-0.37525,39.0478,0.151097,
2,0,0,1,0,44515.4,0.149917,0.149616,-2.72162,23,0.0127173,10,-0.0004072,-2.56517,-0.148237,-0.398012,42.271,0.149616,
2,0,0,1,0,44515.4,0.148423,0.148124,-2.79304,23,0.0126483,10,-0.000413718,-2.55392,-0.135034,-0.436928,47.5479,0.148124,
2,0,0,1,0,44515.4,0.146922,0.146582,-2.8534,23,0.0125773,10,-0.000418257,-2.54464,-0.127684,-0.46208,51.6057,0.146582,
2,0,0,1,0,44515.5,0.145421,0.145079,-2.92628,23,0.0125045,10,-0.000424541,-2.53368,-0.122327,-0.482315,55.5161,0.145079,
2,0,0,1,0,44515.5,0.143927,0.143562,-3.02769,23,0.0124299,10,-0.00043466,-2.51889,-0.109575,-0.538442,63.7261,0.143562,
2,0,0,1,0,44515.5,0.142429,0.142104,-3.13506,23,0.0123525,10,-0.000445503,-2.50375,-0.1016,-0.58071,70.9294,0.142104,
2,0,0,1,0,44515.5,0.140929,0.1406,-3.23156,23,0.0122724,10,-0.000454357,-2.49059,-0.0973409,-0.606117,76.7162,0.1405997,
2,0,0,1,0,44515.6,0.13943,0.139115,-3.34922,23,0.0121896,10,-0.000465925,-2.47506,-0.097752,-0.603568,79.1148,0.139115,
2,0,0,1,0,44515.6,0.137935,0.137583,-3.47283,23,0.0121042,10,-0.000477804,-2.45932,-0.097791,-0.603327,81.9259,0.1375833,
2,0,0,1,0,44515.6,0.136435,0.136087,-3.60695,23,0.0120152,10,-0.000490858,-2.44286,-0.0935044,-0.630987,88.7954,0.136087,
2,0,0,1,0,44515.6,0.134934,0.134639,-3.74439,23,0.0119228,10,-0.00050414,-2.42662,-0.0918828,-0.642123,93.7357,0.134639,
2,0,0,1,0,44515.7,0.13344,0.133134,-3.87836,23,0.0118274,10,-0.000516343,-2.41135,-0.0969795,-0.608376,92.2396,0.133134,
2,0,0,1,0,44515.7,0.13194,0.131615,-4.02673,23,0.0117281,10,-0.000529977,-2.39505,-0.0994507,-0.593259,93.229,0.131615,
2,0,0,1,0,44515.7,0.13044,0.130111,-4.17717,23,0.0116252,10,-0.000543497,-2.37912,-0.0988858,-0.596648,97.0227,0.1301112,
2,0,0,1,0,44515.7,0.128941,0.128572,-4.31853,23,0.0115186,10,-0.000555243,-2.36466,-0.104187,-0.566288,95.2557,0.128572,
2,0,0,1,0,44515.8,0.127447,0.127102,-4.45569,23,0.0114089,10,-0.000566329,-2.35109,-0.112306,-0.52535,91.3585,0.127102,
2,0,0,1,0,44515.8,0.125946,0.125612,-4.59726,23,0.0112952,10,-0.000577473,-2.3375,-0.116283,-0.507382,90.8876,0.125612,
2,0,0,1,0,44515.8,0.124446,0.124122,-4.73715,23,0.0111782,10,-0.000587985,-2.32448,-0.120151,-0.49105,90.5149,0.124122,
2,0,0,1,0,44515.8,0.122952,0.12266,-4.86451,23,0.0110582,10,-0.000596681,-2.31296,-0.128861,-0.457858,86.7641,0.12266,
2,0,0,1,0,44515.9,0.121453,0.121174,-4.98075,23,0.0109346,10,-0.000603536,-2.3027,-0.139536,-0.422831,82.2328,0.121174,
2,0,0,1,0,44515.9,0.119953,0.119623,-5.10133,23,0.0108079,10,-0.000610238,-2.29232,-0.153414,-0.384581,76.6015,0.119623,
2,0,0,1,0,44515.9,0.118459,0.118133,-5.22974,23,0.0106788,10,-0.000617802,-2.28152,-0.158505,-0.372227,75.7597,0.118133,
2,0,0,1,0,44515.9,0.116958,0.116616,-5.33741,23,0.0105464,10,-0.000622429,-2.27267,-0.171832,-0.343358,71.3483,0.116616,
2,0,0,1,0,44516,0.115457,0.115114,-5.42868,23,0.0104112,10,-0.000624918,-2.26531,-0.192195,-0.30698,65.0008,0.115114,
2,0,0,1,0,44516,0.113963,0.113645,-5.52265,23,0.0102742,10,-0.000627619,-2.25785,-0.220445,-0.267641,57.6798,0.113645,
2,0,0,1,0,44516,0.112464,0.112123,-5.62073,23,0.0101345,10,-0.000630215,-2.25021,-0.231441,-0.254924,55.7894,0.112123,
2,0,0,1,0,44516,0.110965,0.110652,-5.69706,23,0.00999259,10,-0.000630393,-2.24435,-0.24344,-0.242359,53.8161,0.110652,
2,0,0,1,0,44516.1,0.109466,0.109118,-5.76454,23,0.00984878,10,-0.000629013,-2.23924,-0.294884,-0.200079,44.9877,0.109118,
2,0,0,1,0,44516.1,0.107972,0.107659,-5.82822,23,0.00970389,10,-0.000627463,-2.23446,-0.383958,-0.153663,34.9183,0.107659,
2,0,0,1,0,44516.1,0.106471,0.106147,-5.88073,23,0.00955711,10,-0.000624221,-2.23057,-0.423061,-0.13946,31.9817,0.106147,
2,0,0,1,0,44516.1,0.10497,0.104636,-5.92374,23,0.00940912,10,-0.000619839,-2.2274,-0.481843,-0.122447,28.2665,0.104636,
2,0,0,1,0,44516.2,0.103476,0.103136,-5.95683,23,0.00926063,10,-0.000614366,-2.22498,-0.673175,-0.0876444,20.3532,0.103136,
2,0,0,1,0,44516.2,0.101976,0.101653,-5.98648,23,0.00911079,10,-0.000608541,-2.22283,-1.2397,-0.047592,11.1063,0.101653,
2,0,0,1,0,44516.2,0.100477,0.100161,-6.00018,23,0.00896056,10,-0.000600987,-2.22184,-2.37026,-0.0248918,5.82259,0.1001614,
2,0,0,1,0,44516.2,0.0989825,0.098666,-6.00549,23,0.00881067,10,-0.000592538,-2.22145,-4.36604,-0.0135134,3.16141,0.09866602,
2,0,0,1,0,44516.3,0.0974817,0.0971506,-5.99891,23,0.00866013,10,-0.000582798,-2.22193,5.24886,0.0112405,-2.63008,0.0971506,
2,0,0,1,0,44516.3,0.0959822,0.0956522,-5.99302,23,0.0085098,10,-0.000573245,-2.22235,1.09595,0.0538344,-12.569,0.0956522,
2,0,0,1,0,44516.3,0.094488,0.0941218,-5.96607,23,0.00836048,10,-0.000561537,-2.22431,0.875668,0.0673771,-15.6721,0.0941218,
2,0,0,1,0,44516.3,0.0929884,0.092618,-5.942,23,0.00821117,10,-0.000550336,-2.22607,0.885722,0.0666123,-15.4308,0.092618,
2,0,0,1,0,44516.4,0.0914889,0.0911463,-5.90797,23,0.00806254,10,-0.00053849,-2.22856,0.677062,0.0871411,-20.1027,0.0911463,
2,0,0,1,0,44516.4,0.0899894,0.08966,-5.87507,23,0.00791467,10,-0.000526759,-2.23099,0.517227,0.11407,-26.1486,0.08966,
2,0,0,1,0,44516.4,0.0884952,0.0881497,-5.84066,23,0.00776833,10,-0.000514852,-2.23354,0.452719,0.130324,-29.6877,0.0881497,
2,0,0,1,0,44516.4,0.0869943,0.086639,-5.79913,23,0.00762244,10,-0.000502431,-2.23664,0.526028,0.112161,-25.3845,0.086639,
2,0,0,1,0,44516.5,0.0854935,0.0851708,-5.75554,23,0.00747757,10,-0.000490204,-2.23991,0.536856,0.109899,-24.7061,0.0851708,
2,0,0,1,0,44516.5,0.0839993,0.0836679,-5.7159,23,0.00733424,10,-0.000478237,-2.24292,0.437195,0.134951,-30.106,0.0836679,
2,0,0,1,0,44516.5,0.0824998,0.0821584,-5.68167,23,0.00719133,10,-0.000466797,-2.24552,0.488849,0.120692,-26.754,0.0821584,
2,0,0,1,0,44516.5,0.0810002,0.0807176,-5.639,23,0.00704949,10,-0.000455167,-2.2488,0.557666,0.105798,-23.2898,0.0807176,
2,0,0,1,0,44516.6,0.0795007,0.0791602,-5.59848,23,0.00690855,10,-0.000443177,-2.25193,0.593396,0.0994277,-21.7596,0.0791602,
2,0,0,1,0,44516.6,0.0780078,0.0776579,-5.56495,23,0.00676901,10,-0.000432162,-2.25454,0.547708,0.107722,-23.433,0.0776579,
2,0,0,1,0,44516.6,0.076507,0.0761646,-5.54616,23,0.00662969,10,-0.000422421,-2.25601,0.594137,0.0993038,-21.452,0.0761646,
2,0,0,1,0,44516.6,0.0750062,0.074668,-5.50874,23,0.00649121,10,-0.000411326,-2.25895,0.668863,0.0882094,-18.9657,0.07466799,
2,0,0,1,0,44516.7,0.073512,0.0731642,-5.47502,23,0.00635404,10,-0.000400575,-2.26161,0.773528,0.0762739,-16.3167,0.0731642,
2,0,0,1,0,44516.7,0.0720124,0.0716403,-5.45162,23,0.00621694,10,-0.000390556,-2.26347,0.669012,0.0881898,-18.7647,0.0716403,
2,0,0,1,0,44516.7,0.0705129,0.0701484,-5.42949,23,0.00608046,10,-0.00038087,-2.26524,0.670979,0.0879312,-18.6252,0.0701484,
2,0,0,1,0,44516.7,0.0690187,0.0687107,-5.40093,23,0.00594523,10,-0.000371102,-2.26753,0.757365,0.0779017,-16.4324,0.0687107,
2,0,0,1,0,44516.8,0.0675179,0.0672074,-5.37461,23,0.0058101,10,-0.000361214,-2.26965,0.935949,0.0630376,-13.2336,0.0672074,
2,0,0,1,0,44516.8,0.066017,0.0656736,-5.36004,23,0.0056755,10,-0.000352013,-2.27083,0.764888,0.0771355,-16.1161,0.0656736,
2,0,0,1,0,44516.8,0.0645242,0.0642195,-5.33698,23,0.00554197,10,-0.000342738,-2.2727,0.712963,0.0827533,-17.2018,0.0642195,
2,0,0,1,0,44516.8,0.0630246,0.062718,-5.30961,23,0.00540851,10,-0.000333008,-2.27494,0.835286,0.0706345,-14.6244,0.062718,
2,0,0,1,0,44516.9,0.0615251,0.061199,-5.27834,23,0.00527573,10,-0.00032303,-2.2775,0.844156,0.0698923,-14.4181,0.061199,
2,0,0,1,0,44516.9,0.0600256,0.0596862,-5.25484,23,0.00514354,10,-0.000313641,-2.27944,0.706429,0.0835186,-17.1478,0.0596862,
2,0,0,1,0,44516.9,0.0585314,0.0582157,-5.23264,23,0.00501248,10,-0.000304622,-2.28128,0.620404,0.0950994,-19.4041,0.0582157,
2,0,0,1,0,44516.9,0.0570305,0.056699,-5.21315,23,0.00488149,10,-0.00029558,-2.2829,0.72852,0.0809861,-16.4486,0.056699,
2,0,0,1,0,44517,0.0555297,0.0552145,-5.17565,23,0.00475127,10,-0.000285771,-2.28604,0.706055,0.0835629,-16.8953,0.0552145,
2,0,0,1,0,44517,0.0540355,0.0537147,-5.14927,23,0.00462223,10,-0.000276592,-2.28825,0.707268,0.0834195,-16.7734,0.0537147,
2,0,0,1,0,44517,0.052536,0.0521924,-5.13473,23,0.00449325,10,-0.000267994,-2.28948,0.642794,0.0917868,-18.3591,0.0521924,
2,0,0,1,0,44517,0.0510364,0.050701,-5.10215,23,0.0043649,10,-0.000258684,-2.29225,0.649983,0.0907717,-18.061,0.050701,
2,0,0,1,0,44517.1,0.0495369,0.0492106,-5.0651,23,0.00423733,10,-0.000249257,-2.29541,0.631459,0.0934344,-18.5019,0.0492106,
2,0,0,1,0,44517.1,0.0480427,0.0477059,-5.03947,23,0.00411099,10,-0.000240412,-2.29762,0.629749,0.0936881,-18.4342,0.0477059,
2,0,0,1,0,44517.1,0.0465432,0.0462332,-5.01169,23,0.00398486,10,-0.000231706,-2.30002,0.588002,0.10034,-19.6195,0.0462332,
2,0,0,1,0,44517.1,0.0450424,0.0447338,-4.98706,23,0.00385945,10,-0.00022309,-2.30216,0.600631,0.09823,-19.0862,0.0447338,
2,0,0,1,0,44517.2,0.0435482,0.0432118,-4.94558,23,0.00373531,10,-0.000213708,-2.30578,0.583894,0.101046,-19.5255,0.04321181,
2,0,0,1,0,44517.2,0.0420486,0.0417194,-4.91336,23,0.00361154,10,-0.000204982,-2.30862,0.5104,0.115596,-22.2121,0.0417194,
2,0,0,1,0,44517.2,0.0405491,0.0402633,-4.89326,23,0.00348851,10,-0.000197019,-2.3104,0.500582,0.117863,-22.4712,0.0402633,
2,0,0,1,0,44517.2,0.0390549,0.0387223,-4.85901,23,0.00336667,10,-0.000188152,-2.31345,0.500828,0.117805,-22.3181,0.0387223,
2,0,0,1,0,44517.3,0.0375541,0.037179,-4.82344,23,0.00324521,10,-0.000179331,-2.31664,0.515954,0.114351,-21.5333,0.037179,
2,0,0,1,0,44517.3,0.0360532,0.0357251,-4.78748,23,0.00312468,10,-0.000171033,-2.31989,0.471023,0.125259,-23.4195,0.0357251,
2,0,0,1,0,44517.3,0.034559,0.0342343,-4.75755,23,0.00300544,10,-0.000162872,-2.32262,0.443809,0.13294,-24.641,0.03423433,
2,0,0,1,0,44517.3,0.0330595,0.0326901,-4.72293,23,0.00288659,10,-0.000154393,-2.32579,0.451811,0.130586,-24.0138,0.0326901,
2,0,0,1,0,44517.4,0.0315613,0.0312203,-4.68035,23,0.00276869,10,-0.000146122,-2.32972,0.469945,0.125547,-22.9329,0.0312203,
2,0,0,1,0,44517.4,0.0300618,0.0297328,-4.63623,23,0.00265179,10,-0.000137848,-2.33383,0.414942,0.142188,-25.7509,0.0297328,
2,0,0,1,0,44517.4,0.0285676,0.0282479,-4.60233,23,0.00253623,10,-0.000130006,-2.33702,0.421941,0.13983,-25.1174,0.0282479,
2,0,0,1,0,44517.4,0.0270667,0.0267121,-4.5675,23,0.00242111,10,-0.000122008,-2.34032,0.446079,0.132264,-23.5796,0.0267121,
2,0,0,1,0,44517.5,0.0255659,0.0252092,-4.53105,23,0.00230693,10,-0.000114224,-2.3438,0.399339,0.147744,-26.1328,0.0252092,
2,0,0,1,0,44517.5,0.0240717,0.0238031,-4.48225,23,0.0021942,10,-0.000106691,-2.3485,0.409504,0.144077,-25.2805,0.0238031,
2,0,0,1,0,44517.5,0.0225722,0.0222003,-4.45203,23,0.002082,10,-9.88364e-05,-2.35144,0.404201,0.145967,-25.3893,0.02220029,
2,0,0,1,0,44517.5,0.0210726,0.0207458,-4.42258,23,0.00197061,10,-9.175e-05,-2.35432,0.451875,0.130567,-22.5149,0.0207458,
2,0,0,1,0,44517.6,0.0195784,0.0192261,-4.38531,23,0.00186053,10,-8.43125e-05,-2.358,0.475508,0.124078,-21.24,0.0192261,
2,0,0,1,0,44517.6,0.0180789,0.0177589,-4.34363,23,0.00175091,10,-7.71381e-05,-2.36215,0.422142,0.139763,-23.7327,0.0177589,
2,0,0,1,0,44517.6,0.0165781,0.0162251,-4.31955,23,0.00164216,10,-7.00853e-05,-2.36456,0.456772,0.129167,-21.7718,0.0162251,
2,0,0,1,0,44517.6,0.0150839,0.0147663,-4.29257,23,0.00153463,10,-6.33853e-05,-2.36728,0.494881,0.119221,-19.9368,0.0147663,
2,0,0,1,0,44517.7,0.0135844,0.0132272,-4.25768,23,0.0014273,10,-5.63171e-05,-2.37083,0.508167,0.116104,-19.2807,0.0132272,
2,0,0,1,0,44517.7,0.0120848,0.0117626,-4.22103,23,0.00132074,10,-4.96503e-05,-2.37458,0.477529,0.123553,-20.4106,0.0117626,
2,0,0,1,0,44517.7,0.0105853,0.0102447,-4.19727,23,0.00121501,10,-4.29996e-05,-2.37703,0.476943,0.123705,-20.2965,0.0102447,
2,0,0,1,0,44517.7,0.00909108,0.00873764,-4.18113,23,0.0011103,10,-3.65332e-05,-2.37871,0.629215,0.0937676,-15.285,0.00873764,
2,0,0,1,0,44517.8,0.00759027,0.00729102,-4.15444,23,0.00100573,10,-3.02901e-05,-2.38149,0.705557,0.0836219,-13.5506,0.00729102,
2,0,0,1,0,44517.8,0.00608945,0.00575424,-4.13305,23,0.000901713,10,-2.37826e-05,-2.38373,0.615658,0.0958324,-15.4534,0.00575424,
2,0,0,1,0,44517.8,0.00459524,0.00421978,-4.10956,23,0.000798713,10,-1.73414e-05,-2.3862,0.661283,0.0892205,-14.3115,0.00421978,
2,0,0,1,0,44517.8,0.0030957,0.00278952,-4.09346,23,0.000695748,10,-1.14188e-05,-2.38791,1.88197,0.0313502,-5.01673,0.00278952,
2,0,0,1,0,44517.9,0.00159616,0.00126176,-4.10109,23,0.000592768,10,-5.17459e-06,-2.3871, , , ,0.00126176,
2,0,0,1,0,44517.9,0.000199195,-0.000197438,-4.0766,23,0.000497042,10,8.04877e-07,-2.3897, , , ,-0.000197438,