File: Figure_codes/Fig_3-5/rawdata_trumpetplot_data/after 10th/20221101_1-115_003_TrumpetPlot_ParaChange_from10_every3_14_CV_C01_25.csv
mode,ox/red,error,control changes,counter inc.,time/s,control/V,Ewe/V,<I>/mA,cycle number,(Q-Qo)/C,I Range,P/W,log(|I|),Tafel slope mV/dec,alpha_eff,dI/d(E-IR),E-IR/V,
2,1,0,1,0,50452.4,2.44065e-05,-0.000229887,32.0717,26,0.0000000E+000,10,-7.37287e-06,-1.49388, , , ,-0.000229887,
2,1,0,1,0,50452.4,0.00332042,0.0029227,33.3987,26,0.000102069,10,9.76145e-05,-1.47627, , , ,0.0029227,
2,1,0,1,0,50452.4,0.0073156,0.00692786,34.4518,26,0.000237915,10,0.000238677,-1.46279, , , ,0.00692786,
2,1,0,1,0,50452.4,0.0113108,0.0109224,35.3738,26,0.000377688,10,0.000386367,-1.45132,0.358949,0.164369,225.622,0.0109224,
2,1,0,1,0,50452.4,0.0153059,0.0148968,36.2183,26,0.000520965,10,0.000539538,-1.44107,0.397671,0.148364,209.043,0.0148968,
2,1,0,1,0,50452.4,0.0193011,0.0189158,37.0071,26,0.000667522,10,0.000700017,-1.43172,0.43509,0.135604,195.388,0.0189158,
2,1,0,1,0,50452.4,0.0233462,0.022975,37.8063,26,0.000817269,10,0.000868599,-1.42244,0.469215,0.125742,184.931,0.022975,
2,1,0,1,0,50452.4,0.0273414,0.0269759,38.5105,26,0.000969974,10,0.00103886,-1.41442,0.500186,0.117956,176.795,0.0269759,
2,1,0,1,0,50452.4,0.0313366,0.0309673,39.1903,26,0.00112546,10,0.00121362,-1.40682,0.540921,0.109073,166.52,0.0309673,
2,1,0,1,0,50452.4,0.0353317,0.0349247,39.8374,26,0.00128359,10,0.00139131,-1.39971,0.572406,0.103074,160.001,0.0349247,
2,1,0,1,0,50452.4,0.0393269,0.0389182,40.4612,26,0.00144425,10,0.00157468,-1.39296,0.605793,0.097393,153.581,0.0389182,
2,1,0,1,0,50452.4,0.0433221,0.042953,41.0668,26,0.00160737,10,0.00176395,-1.38651,0.634804,0.0929421,148.769,0.042953,
2,1,0,1,0,50452.4,0.0473173,0.0469614,41.6467,26,0.00177287,10,0.00195578,-1.38042,0.665964,0.0885934,143.84,0.0469614,
2,1,0,1,0,50452.4,0.0513124,0.0509029,42.2145,26,0.00194067,10,0.00214884,-1.37454,0.697389,0.0846013,139.237,0.0509029,
2,1,0,1,0,50452.4,0.0553076,0.0549293,42.7642,26,0.00211068,10,0.00234901,-1.36892,0.708063,0.0833259,139.018,0.0549293,
2,1,0,1,0,50452.4,0.0593028,0.0589556,43.295,26,0.00228286,10,0.00255249,-1.36356,0.740462,0.0796799,134.606,0.0589556,
2,1,0,1,0,50452.4,0.0633479,0.0629608,43.8709,26,0.0024572,10,0.00276214,-1.35782,0.76479,0.0771453,131.905,0.0629608,
2,1,0,1,0,50452.4,0.0673431,0.066966,44.3766,26,0.00263374,10,0.00297172,-1.35285,0.78758,0.074913,129.585,0.066966,
2,1,0,1,0,50452.4,0.0713383,0.0709361,44.8756,26,0.00281229,10,0.0031833,-1.34799,0.831121,0.0709885,124.274,0.0709361,
2,1,0,1,0,50452.4,0.0753334,0.0749561,45.3684,26,0.00299283,10,0.00340064,-1.34325,0.846562,0.0696936,123.357,0.0749561,
2,1,0,1,0,50452.4,0.0793286,0.0789443,45.8572,26,0.00317533,10,0.00362016,-1.33859,0.859612,0.0686356,122.813,0.0789443,
2,1,0,1,0,50452.5,0.0833238,0.0829113,46.3436,26,0.00335978,10,0.00384241,-1.33401,0.870616,0.0677681,122.559,0.0829113,
2,1,0,1,0,50452.5,0.0873189,0.0869037,46.8366,26,0.00354619,10,0.00407028,-1.32941,0.879798,0.0670608,122.562,0.0869037,
2,1,0,1,0,50452.5,0.0913141,0.0909205,47.325,26,0.00373454,10,0.00430282,-1.32491,0.881909,0.0669003,123.566,0.09092053,
2,1,0,1,0,50452.5,0.0953093,0.094931,47.8166,26,0.00392488,10,0.00453927,-1.32042,0.883445,0.066784,124.658,0.094931,
2,1,0,1,0,50452.5,0.0993044,0.098934,48.3235,26,0.00411722,10,0.00478084,-1.31584,0.877621,0.0672272,126.816,0.098934,
2,1,0,1,0,50452.5,0.103319,0.102923,48.8336,26,0.00431156,10,0.00502611,-1.31128,0.883015,0.0668165,127.33,0.102923,
2,1,0,1,0,50452.5,0.107345,0.106971,49.3605,26,0.00450804,10,0.00528013,-1.30662,0.906103,0.065114,125.333,0.106971,
2,1,0,1,0,50452.5,0.11134,0.110953,49.8566,26,0.00470651,10,0.00553172,-1.30228,0.923656,0.0638766,124.19,0.110953,
2,1,0,1,0,50452.5,0.115335,0.114955,50.3314,26,0.00490694,10,0.00578583,-1.29816,0.911259,0.0647456,127.269,0.114955,
2,1,0,1,0,50452.5,0.11933,0.118872,50.8142,26,0.00510926,10,0.00604038,-1.29401,0.897982,0.0657029,130.498,0.118872,
2,1,0,1,0,50452.5,0.123325,0.122902,51.3881,26,0.00531372,10,0.00631571,-1.28914,0.871944,0.0676649,135.76,0.122902,
2,1,0,1,0,50452.5,0.127321,0.126945,51.9435,26,0.00552043,10,0.00659395,-1.28447,0.855901,0.0689332,139.694,0.126945,
2,1,0,1,0,50452.5,0.131316,0.130954,52.5035,26,0.00572938,10,0.00687554,-1.27981,0.869877,0.0678257,138.955,0.130954,
2,1,0,1,0,50452.5,0.135311,0.134907,53.0543,26,0.00594055,10,0.00715741,-1.27528,0.864849,0.06822,141.279,0.134907,
2,1,0,1,0,50452.5,0.139306,0.138947,53.6176,26,0.00615394,10,0.00745003,-1.27069,0.848087,0.0695683,145.698,0.1389474,
2,1,0,1,0,50452.5,0.143301,0.142926,54.2014,26,0.00636961,10,0.00774679,-1.26599,0.834572,0.0706949,149.664,0.142926,
2,1,0,1,0,50452.5,0.147346,0.146994,54.8404,26,0.00658778,10,0.0080612,-1.2609,0.825349,0.0714849,152.98,0.146994,
2,1,0,1,0,50452.5,0.151342,0.150945,55.4545,26,0.00680843,10,0.00837057,-1.25606,0.816331,0.0722746,156.389,0.150945,
2,1,0,1,0,50452.5,0.155337,0.15498,56.0702,26,0.00703153,10,0.00868974,-1.25127,0.821597,0.0718113,157.183,0.15498,
2,1,0,1,0,50452.5,0.159332,0.15894,56.7058,26,0.00725715,10,0.00901284,-1.24637,0.826791,0.0713603,157.934,0.1589403,
2,1,0,1,0,50452.5,0.163327,0.162952,57.3488,26,0.00748531,10,0.00934508,-1.24148,0.826125,0.0714178,159.806,0.1629518,
2,1,0,1,0,50452.5,0.167322,0.166957,57.9834,26,0.00771604,10,0.00968073,-1.2367,0.846382,0.0697085,157.671,0.166957,
2,1,0,1,0,50452.5,0.171317,0.17093,58.6192,26,0.00794931,10,0.0100198,-1.23196,0.871488,0.0677003,154.764,0.17093,
2,1,0,1,0,50452.5,0.175313,0.17492,59.2253,26,0.00818505,10,0.0103597,-1.22749,0.901061,0.0654784,151.237,0.17492,
2,1,0,1,0,50452.5,0.179308,0.178914,59.8192,26,0.00842322,10,0.0107025,-1.22316,0.931849,0.063315,147.755,0.178914,
2,1,0,1,0,50452.6,0.183303,0.182931,60.3993,26,0.00866372,10,0.0110489,-1.21897,0.985203,0.0598861,141.048,0.182931,
2,1,0,1,0,50452.6,0.187348,0.186966,60.9885,26,0.0089065,10,0.0114028,-1.21475,1.05229,0.0560683,133.223,0.186966,
2,1,0,1,0,50452.6,0.191343,0.190968,61.4888,26,0.00915152,10,0.0117424,-1.2112,1.14652,0.0514602,123.275,0.190968,
2,1,0,1,0,50452.6,0.195338,0.194986,61.9603,26,0.00939846,10,0.0120814,-1.20789,1.30053,0.0453661,109.524,0.194986,
2,1,0,1,0,50452.6,0.199334,0.198958,62.375,26,0.00964718,10,0.01241,-1.20499,1.46199,0.040356,98.072,0.198958,
2,1,0,1,0,50452.6,0.203329,0.20297,62.7414,26,0.00989746,10,0.0127347,-1.20245,1.73077,0.0340888,83.311,0.2029705,
2,1,0,1,0,50452.6,0.207324,0.206948,63.0561,26,0.0101491,10,0.0130493,-1.20027,2.14387,0.0275203,67.571,0.206948,
2,1,0,1,0,50452.6,0.211319,0.210929,63.2885,26,0.0104018,10,0.0133494,-1.19868,2.87677,0.0205091,50.5413,0.210929,
2,1,0,1,0,50452.6,0.215314,0.214941,63.455,26,0.0106554,10,0.0136391,-1.19753,4.52239,0.0130462,32.2364,0.214941,
2,1,0,1,0,50452.6,0.219309,0.218958,63.5495,26,0.0109094,10,0.0139147,-1.19689,9.22027,0.00639895,15.8367,0.218958,
2,1,0,1,0,50452.6,0.223305,0.222959,63.5722,26,0.0111637,10,0.014174,-1.19673,-188.352,-0.000313244,-0.775656,0.222959,
2,1,0,1,0,50452.6,0.227314,0.226942,63.5421,26,0.0114179,10,0.0144204,-1.19694,-7.60891,-0.00775407,-19.1846,0.226942,
2,1,0,1,0,50452.6,0.231345,0.231024,63.4425,26,0.0116719,10,0.0146567,-1.19762,-3.93813,-0.0149817,-36.9965,0.231024,
2,1,0,1,0,50452.6,0.23534,0.234992,63.2419,26,0.0119253,10,0.0148613,-1.199,-2.56154,-0.023033,-56.7093,0.2349916,
2,1,0,1,0,50452.6,0.239335,0.23897,62.9798,26,0.0121777,10,0.0150503,-1.2008,-1.90203,-0.0310195,-76.067,0.23897,
2,1,0,1,0,50452.6,0.24333,0.242954,62.6341,26,0.0124289,10,0.0152172,-1.20319,-1.54255,-0.0382483,-93.2842,0.242954,
2,1,0,1,0,50452.6,0.247326,0.246961,62.2302,26,0.0126786,10,0.0153685,-1.206,-1.27792,-0.0461689,-111.858,0.246961,
2,1,0,1,0,50452.6,0.251321,0.250981,61.7503,26,0.0129265,10,0.0154982,-1.20936,-1.10713,-0.0532907,-128.119,0.250981,
2,1,0,1,0,50452.6,0.255316,0.254975,61.1896,26,0.0131724,10,0.0156018,-1.21332,-0.969095,-0.0608815,-145.084,0.254975,
2,1,0,1,0,50452.6,0.259311,0.258968,60.5823,26,0.0134159,10,0.0156889,-1.21765,-0.862427,-0.0684116,-161.402,0.258968,
2,1,0,1,0,50452.6,0.263306,0.262965,59.9083,26,0.0136568,10,0.0157538,-1.22251,-0.801365,-0.0736243,-171.827,0.262965,
2,1,0,1,0,50452.6,0.267302,0.266945,59.1738,26,0.0138949,10,0.0157961,-1.22787,-0.728809,-0.080954,-186.634,0.266945,
2,1,0,1,0,50452.6,0.271347,0.271018,58.433,26,0.0141301,10,0.0158364,-1.23334,-0.676474,-0.0872169,-198.446,0.271018,
2,1,0,1,0,50452.6,0.275342,0.275006,57.5892,26,0.0143621,10,0.0158374,-1.23966,-0.636124,-0.0927493,-208.079,0.275006,
2,1,0,1,0,50452.6,0.279337,0.279016,56.723,26,0.0145906,10,0.0158266,-1.24624,-0.590618,-0.0998953,-220.875,0.279016,
2,1,0,1,0,50452.7,0.283332,0.283022,55.8285,26,0.0148156,10,0.0158007,-1.25314,-0.567442,-0.103975,-226.293,0.283022,
2,1,0,1,0,50452.7,0.287327,0.286953,54.9134,26,0.015037,10,0.0157575,-1.26032,-0.546511,-0.107958,-231.147,0.286953,
2,1,0,1,0,50452.7,0.291322,0.29094,53.9835,26,0.0152547,10,0.0157059,-1.26774,-0.536872,-0.109896,-231.549,0.29094,
2,1,0,1,0,50452.7,0.295318,0.294941,53.0422,26,0.0154687,10,0.0156443,-1.27538,-0.528025,-0.111737,-232.945,0.294941,
2,1,0,1,0,50452.7,0.299013,0.298741,52.1887,26,0.0156633,10,0.0155909,-1.28242,-0.188997,-0.312174,-628.248,0.298741,
2,1,0,0,0,50452.7,0.300012,0.29967,51.9509,26,0.0157154,10,0.0155681,-1.28441,0.00440479,13.3945,24968.5,0.29967,
2,1,0,1,0,50452.7,0.298714,0.298516,49.2235,26,0.0157801,10,0.014694,-1.30783,0.0589063,1.00159,1744.3,0.2985163,
2,1,0,1,0,50452.7,0.294718,0.294532,42.8485,26,0.015963,10,0.0126203,-1.36806,0.0689682,0.855466,1403.28,0.294532,
2,1,0,1,0,50452.7,0.290723,0.290508,37.8279,26,0.0161236,10,0.0109893,-1.42219,0.072339,0.815605,1227.15,0.290508,
2,1,0,1,0,50452.7,0.286728,0.286496,33.4634,26,0.0162657,10,0.00958711,-1.47543,0.073966,0.797664,1049.84,0.286496,
2,1,0,1,0,50452.7,0.282733,0.282483,29.5481,26,0.0163912,10,0.00834684,-1.52947,0.0724573,0.814273,942.121,0.282483,
2,1,0,1,0,50452.7,0.278738,0.278481,25.9971,26,0.0165018,10,0.00723971,-1.58507,0.0698407,0.84478,857.158,0.278481,
2,1,0,1,0,50452.7,0.274742,0.274493,22.7395,26,0.0165989,10,0.00624182,-1.64322,0.066299,0.889907,786.648,0.2744928,
2,1,0,1,0,50452.7,0.270747,0.270481,19.7366,26,0.0166835,10,0.00533838,-1.70473,0.0620999,0.950083,726.561,0.270481,
2,1,0,1,0,50452.7,0.266702,0.266429,16.9197,26,0.0167564,10,0.00450791,-1.77161,0.0575337,1.02549,671.066,0.266429,
2,1,0,1,0,50452.7,0.262707,0.262439,14.3417,26,0.0168186,10,0.00376384,-1.8434,0.0520998,1.13244,624.771,0.262439,
2,1,0,1,0,50452.7,0.258712,0.258409,11.9459,26,0.016871,10,0.00308692,-1.92278,0.0462163,1.27661,580.723,0.258409,
2,1,0,1,0,50452.7,0.254717,0.254435,9.71147,26,0.016914,10,0.00247094,-2.01272,0.0396561,1.48779,542.062,0.254435,
2,1,0,1,0,50452.7,0.250722,0.25041,7.61677,26,0.0169484,10,0.00190731,-2.11823,0.0322284,1.83068,508.732,0.25041,
2,1,0,1,0,50452.7,0.246726,0.246417,5.65701,26,0.0169747,10,0.00139399,-2.24741,0.0239076,2.46783,477.405,0.246417,
2,1,0,1,0,50452.7,0.242731,0.242419,3.81132,26,0.0169935,10,0.000923935,-2.41892,0.0131789,4.47685,447.322,0.242419,
2,1,0,1,0,50452.7,0.238736,0.23846,2.08492,26,0.0170051,10,0.000497169,-2.68091,0.0221545,2.66312,421.779,0.23846,
2,1,0,1,0,50452.7,0.234741,0.234425,0.466533,26,0.01701,10,0.000109367,-3.33112,0.0929674,0.634631,398.036,0.234425,
2,0,0,1,0,50452.7,0.230746,0.230453,-1.07645,26,0.0170086,10,-0.00024807,-2.96801,-0.0585643,-1.00744,374.098,0.230453,
2,0,0,1,0,50452.7,0.226701,0.226403,-2.56335,26,0.0170012,10,-0.00058035,-2.59119,-0.0152792,-3.86147,354.613,0.226403,
2,0,0,1,0,50452.7,0.222705,0.222413,-3.91831,26,0.0169881,10,-0.000871482,-2.4069,-0.0206506,-2.85706,333.927,0.222413,
2,0,0,1,0,50452.7,0.21871,0.21841,-5.2127,26,0.0169697,10,-0.00113851,-2.28294,-0.0339172,-1.73953,314.436,0.21841,
2,0,0,1,0,50452.8,0.214715,0.214426,-6.4283,26,0.0169463,10,-0.00137839,-2.1919,-0.0460602,-1.28093,299.881,0.214426,
2,0,0,1,0,50452.8,0.21072,0.210408,-7.5928,26,0.0169181,10,-0.00159759,-2.1196,-0.0587009,-1.0051,284.451,0.2104082,
2,0,0,1,0,50452.8,0.206725,0.206433,-8.71049,26,0.0168854,10,-0.00179813,-2.05996,-0.0713418,-0.827005,271.787,0.206433,
2,0,0,1,0,50452.8,0.20273,0.202412,-9.76344,26,0.0168483,10,-0.00197623,-2.0104,-0.0844011,-0.699043,259.669,0.202412,
2,0,0,1,0,50452.8,0.198734,0.198385,-10.788,26,0.0168071,10,-0.00214018,-1.96706,-0.0983154,-0.60011,247.494,0.1983853,
2,0,0,1,0,50452.8,0.194739,0.19442,-11.7443,26,0.0167619,10,-0.00228334,-1.93017,-0.111257,-0.530306,239.485,0.19442,
2,0,0,1,0,50452.8,0.190744,0.190429,-12.6713,26,0.016713,10,-0.00241298,-1.89718,-0.125145,-0.471455,230.766,0.190429,
2,0,0,1,0,50452.8,0.186735,0.186433,-13.59,26,0.0166604,10,-0.00253363,-1.86678,-0.139049,-0.424311,222.737,0.186433,
2,0,0,1,0,50452.8,0.182704,0.182401,-14.4767,26,0.0166041,10,-0.00264056,-1.83933,-0.15364,-0.384016,214.725,0.182401,
2,0,0,1,0,50452.8,0.178709,0.17839,-15.3148,26,0.0165444,10,-0.00273202,-1.81489,-0.169363,-0.348364,206.488,0.17839,
2,0,0,1,0,50452.8,0.174713,0.174359,-16.122,26,0.0164815,10,-0.00281101,-1.79258,-0.183077,-0.322269,201.677,0.174359,
2,0,0,1,0,50452.8,0.170718,0.170373,-16.9064,26,0.0164153,10,-0.00288038,-1.77195,-0.196155,-0.300782,197.77,0.170373,
2,0,0,1,0,50452.8,0.166723,0.16641,-17.7017,26,0.016346,10,-0.00294573,-1.75199,-0.206031,-0.286365,197.193,0.16641,
2,0,0,1,0,50452.8,0.162728,0.162387,-18.4799,26,0.0162736,10,-0.00300088,-1.7333,-0.216234,-0.272853,196.24,0.162387,
2,0,0,1,0,50452.8,0.158733,0.158446,-19.2599,26,0.016198,10,-0.00305165,-1.71535,-0.226729,-0.260222,195.219,0.158446,
2,0,0,1,0,50452.8,0.154737,0.154405,-20.0398,26,0.0161194,10,-0.00309425,-1.69811,-0.232403,-0.253869,198.378,0.154405,
2,0,0,1,0,50452.8,0.150742,0.150393,-20.8284,26,0.0160375,10,-0.00313245,-1.68134,-0.234878,-0.251195,204.501,0.150393,
2,0,0,1,0,50452.8,0.146747,0.146412,-21.649,26,0.0159525,10,-0.00316966,-1.66456,-0.237276,-0.248656,210.448,0.146412,
2,0,0,1,0,50452.8,0.142702,0.142371,-22.5472,26,0.015864,10,-0.00321007,-1.64691,-0.236155,-0.249836,219.764,0.142371,
2,0,0,1,0,50452.8,0.138707,0.138342,-23.4203,26,0.015772,10,-0.00324001,-1.63041,-0.235629,-0.250393,229.023,0.1383419,
2,0,0,1,0,50452.8,0.134712,0.13441,-24.341,26,0.0156764,10,-0.00327167,-1.61366,-0.234807,-0.251271,239.398,0.13441,
2,0,0,1,0,50452.8,0.130717,0.130384,-25.3198,26,0.015577,10,-0.00330128,-1.59654,-0.22877,-0.257901,255.698,0.130384,
2,0,0,1,0,50452.8,0.126721,0.126368,-26.3784,26,0.0154735,10,-0.00333338,-1.57875,-0.224223,-0.263131,271.618,0.126368,
2,0,0,1,0,50452.8,0.122726,0.122396,-27.4977,26,0.0153657,10,-0.0033656,-1.5607,-0.220238,-0.267892,288.083,0.122396,
2,0,0,1,0,50452.8,0.118731,0.118447,-28.6769,26,0.0152533,10,-0.00339668,-1.54247,-0.218549,-0.269963,302.632,0.118447,
2,0,0,1,0,50452.9,0.114736,0.114424,-29.9173,26,0.015136,10,-0.00342327,-1.52408,-0.21841,-0.270134,315.652,0.114424,
2,0,0,1,0,50452.9,0.110741,0.110419,-31.2049,26,0.0150136,10,-0.00344562,-1.50578,-0.219022,-0.269379,328.375,0.110419,
2,0,0,1,0,50452.9,0.106745,0.106469,-32.5249,26,0.014886,10,-0.0034629,-1.48778,-0.223647,-0.263809,334.877,0.106469,
2,0,0,1,0,50452.9,0.102703,0.102415,-33.9412,26,0.014753,10,-0.0034761,-1.46927,-0.231534,-0.254822,336.434,0.102415,
2,0,0,1,0,50452.9,0.0987052,0.0984038,-35.2822,26,0.0146144,10,-0.00347191,-1.45244,-0.240481,-0.245342,336.642,0.0984038,
2,0,0,1,0,50452.9,0.09471,0.0943891,-36.598,26,0.0144705,10,-0.00345445,-1.43654,-0.253604,-0.232646,331.658,0.0943891,
2,0,0,1,0,50452.9,0.0907148,0.0904105,-37.931,26,0.0143213,10,-0.00342936,-1.42101,-0.264659,-0.222928,329.286,0.0904105,
2,0,0,1,0,50452.9,0.0867197,0.0864265,-39.244,26,0.0141669,10,-0.00339172,-1.40623,-0.278232,-0.212053,323.83,0.0864265,
2,0,0,1,0,50452.9,0.0827245,0.08245,-40.5356,26,0.0140072,10,-0.00334216,-1.39216,-0.296119,-0.199245,314.063,0.08245,
2,0,0,1,0,50452.9,0.0787293,0.0783992,-41.776,26,0.0138424,10,-0.00327521,-1.37907,-0.315417,-0.187054,303.874,0.0783992,
2,0,0,1,0,50452.9,0.0747341,0.0744238,-42.9518,26,0.0136728,10,-0.00319664,-1.36702,-0.339159,-0.173959,290.715,0.07442379,
2,0,0,1,0,50452.9,0.070739,0.0704388,-44.1022,26,0.0134986,10,-0.00310651,-1.35554,-0.365872,-0.161258,276.52,0.0704388,
2,0,0,1,0,50452.9,0.0667438,0.0664379,-45.1906,26,0.0133199,10,-0.00300237,-1.34495,-0.390101,-0.151243,265.826,0.0664379,
2,0,0,1,0,50452.9,0.0627403,0.0624974,-46.1732,26,0.013137,10,-0.0028857,-1.33561,-0.42021,-0.140406,252.55,0.0624974,
2,0,0,1,0,50452.9,0.0587035,0.0584944,-47.1862,26,0.0129502,10,-0.00276013,-1.32618,-0.456028,-0.129378,237.628,0.0584944,
2,0,0,1,0,50452.9,0.0547083,0.0544712,-48.1349,26,0.0127594,10,-0.00262196,-1.31754,-0.488781,-0.120709,225.935,0.0544712,
2,0,0,1,0,50452.9,0.0507132,0.0504692,-48.9852,26,0.0125651,10,-0.00247224,-1.30994,-0.535668,-0.110143,209.969,0.0504692,
2,0,0,1,0,50452.9,0.046718,0.0464768,-49.7928,26,0.0123674,10,-0.00231421,-1.30283,-0.589118,-0.10015,194.163,0.04647677,
2,0,0,1,0,50452.9,0.0427228,0.0424949,-50.5456,26,0.0121666,10,-0.00214793,-1.29632,-0.641766,-0.0919338,180.906,0.0424949,
2,0,0,1,0,50452.9,0.0387276,0.0384198,-51.2514,26,0.011963,10,-0.00196907,-1.29029,-0.699121,-0.0843917,168.39,0.0384198,
2,0,0,1,0,50452.9,0.0347325,0.034439,-51.8851,26,0.0117566,10,-0.00178687,-1.28496,-0.758434,-0.0777918,157.24,0.034439,
2,0,0,1,0,50452.9,0.0307373,0.0304858,-52.4855,26,0.0115478,10,-0.00160007,-1.27996,-0.818853,-0.072052,147.393,0.0304858,
2,0,0,1,0,50452.9,0.0267421,0.0265072,-53.0595,26,0.0113367,10,-0.00140646,-1.27524,-0.86096,-0.0685282,141.782,0.0265072,
2,0,0,1,0,50452.9,0.022747,0.0224914,-53.5992,26,0.0111233,10,-0.00120552,-1.27084,-0.936674,-0.0629888,131.611,0.0224914,
2,0,0,1,0,50452.9,0.0187018,0.0184046,-54.1585,26,0.0109077,10,-0.000996768,-1.26633,-1.03056,-0.0572506,120.712,0.0184046,
2,0,0,1,0,50453,0.0147067,0.0143815,-54.605,26,0.0106901,10,-0.0007853,-1.26277,-1.14704,-0.0514368,109.352,0.0143815,
2,0,0,1,0,50453,0.0107115,0.0103858,-55.0056,26,0.0104709,10,-0.000571279,-1.25959,-1.32237,-0.0446168,95.6279,0.0103858,
2,0,0,1,0,50453,0.00671632,0.00640402,-55.3584,26,0.0102501,10,-0.000354516,-1.25682,-1.46504,-0.0402719,86.9119,0.00640402,
2,0,0,1,0,50453,0.00272115,0.00242749,-55.6864,26,0.010028,10,-0.000135178,-1.25425,-1.67588,-0.0352054,76.4143,0.00242749,
2,0,0,1,0,50453,-0.00127403,-0.00164235,-55.9977,26,0.00980455,10,9.19678e-05,-1.25183,-1.94216,-0.0303786,66.2576,-0.00164235,
2,0,0,1,0,50453,-0.0052692,-0.00565811,-56.2316,26,0.00958006,10,0.000318165,-1.25002,-2.30441,-0.0256031,56.0916,-0.00565811,
2,0,0,1,0,50453,-0.00926438,-0.0095795,-56.4174,26,0.00935472,10,0.00054045,-1.24859,-2.9193,-0.0202103,44.4479,-0.0095795,
2,0,0,1,0,50453,-0.0132596,-0.0136451,-56.5879,26,0.00912868,10,0.000772148,-1.24728,-3.4179,-0.017262,38.0875,-0.0136451,
2,0,0,1,0,50453,-0.0172547,-0.0176492,-56.7092,26,0.00890208,10,0.00100087,-1.24635,-4.44425,-0.0132756,29.3521,-0.0176492,
2,0,0,1,0,50453,-0.0212915,-0.0216819,-56.8419,26,0.008675,10,0.00123244,-1.24533,-6.95027,-0.00848888,18.797,-0.0216819,
2,0,0,1,0,50453,-0.025295,-0.0256447,-56.8889,26,0.00844752,10,0.0014589,-1.24497,-13.1511,-0.0044863,9.94293,-0.02564466,
2,0,0,1,0,50453,-0.0292902,-0.0296424,-56.8886,26,0.00821996,10,0.00168632,-1.24497,120.924,0.00048791,-1.08219,-0.0296424,
2,0,0,1,0,50453,-0.0332854,-0.0336624,-56.8684,26,0.00799245,10,0.00191433,-1.24513,14.8929,0.00396161,-8.78469,-0.0336624,
2,0,0,1,0,50453,-0.0372805,-0.0376824,-56.8246,26,0.00776506,10,0.00214129,-1.24546,8.60593,0.00685574,-15.1884,-0.0376824,
2,0,0,1,0,50453,-0.0412757,-0.0416536,-56.7483,26,0.00753792,10,0.00236377,-1.24605,6.23456,0.00946337,-20.9411,-0.0416536,
2,0,0,1,0,50453,-0.0452709,-0.0456577,-56.6454,26,0.00731113,10,0.0025863,-1.24684,4.84245,0.0121839,-26.9179,-0.0456577,
2,0,0,1,0,50453,-0.0492661,-0.0496332,-56.5339,26,0.0070848,10,0.00280596,-1.24769,4.19246,0.0140729,-31.0306,-0.0496332,
2,0,0,1,0,50453,-0.0532612,-0.053633,-56.3952,26,0.00685895,10,0.00302465,-1.24876,3.83194,0.0153969,-33.8748,-0.053633,
2,0,0,1,0,50453,-0.0572564,-0.0576732,-56.2512,26,0.00663367,10,0.00324419,-1.24987,3.73222,0.0158083,-34.706,-0.0576732,
2,0,0,1,0,50453,-0.0612544,-0.0616423,-56.1039,26,0.00640898,10,0.00345837,-1.25101,3.51986,0.016762,-36.6989,-0.0616423,
2,0,0,1,0,50453,-0.0652967,-0.0657217,-55.9756,26,0.00618475,10,0.00367881,-1.252,3.35309,0.0175957,-38.4166,-0.0657217,
2,0,0,1,0,50453,-0.0692919,-0.0696961,-55.8057,26,0.0059612,10,0.00388944,-1.25332,3.2333,0.0182476,-39.7274,-0.0696961,
2,0,0,1,0,50453,-0.0732871,-0.0736747,-55.6365,26,0.00573834,10,0.004099,-1.25464,3.05031,0.0193423,-42.0013,-0.0736747,
2,0,0,1,0,50453,-0.0772822,-0.0776513,-55.4679,26,0.00551614,10,0.00430715,-1.25596,3.06211,0.0192678,-41.7132,-0.0776513,
2,0,0,1,0,50453,-0.0812774,-0.0816405,-55.307,26,0.00529462,10,0.00451529,-1.25722,3.19657,0.0184573,-39.8469,-0.0816405,
2,0,0,1,0,50453.1,-0.0852726,-0.0856393,-55.1407,26,0.00507373,10,0.00472221,-1.25853,3.33263,0.0177037,-38.1129,-0.0856393,
2,0,0,1,0,50453.1,-0.0892678,-0.0896561,-54.9997,26,0.00485346,10,0.00493106,-1.25964,3.48418,0.0169337,-36.3581,-0.0896561,
2,0,0,1,0,50453.1,-0.0932629,-0.0936496,-54.8582,26,0.00463377,10,0.00513745,-1.26076,3.89029,0.015166,-32.4826,-0.0936496,
2,0,0,1,0,50453.1,-0.0972581,-0.0976452,-54.7251,26,0.00441459,10,0.00534364,-1.26181,4.54753,0.0129741,-27.7359,-0.0976452,
2,0,0,1,0,50453.1,-0.101253,-0.101637,-54.621,26,0.00419592,10,0.0055515,-1.26264,4.88494,0.0120779,-25.7609,-0.101637,
2,0,0,1,0,50453.1,-0.105298,-0.105659,-54.5558,26,0.00397759,10,0.0057643,-1.26316,5.64472,0.0104523,-22.2507,-0.105659,
2,0,0,1,0,50453.1,-0.109294,-0.109646,-54.4461,26,0.00375961,10,0.00596979,-1.26403,6.35479,0.00928433,-19.7338,-0.109646,
2,0,0,1,0,50453.1,-0.113289,-0.113641,-54.3691,26,0.003542,10,0.00617859,-1.26465,6.6738,0.00884054,-18.771,-0.113641,
2,0,0,1,0,50453.1,-0.117284,-0.117714,-54.3038,26,0.00332466,10,0.00639234,-1.26517,8.52179,0.00692343,-14.6796,-0.117714,
2,0,0,1,0,50453.1,-0.121279,-0.121627,-54.2561,26,0.00310755,10,0.00659903,-1.26555,10.7401,0.00549342,-11.6362,-0.121627,
2,0,0,1,0,50453.1,-0.125274,-0.125632,-54.2114,26,0.00289064,10,0.00681066,-1.26591,16.1673,0.00364935,-7.72532,-0.1256315,
2,0,0,1,0,50453.1,-0.129269,-0.129681,-54.1825,26,0.00267386,10,0.00702645,-1.26614,30.13,0.00195818,-4.14381,-0.129681,
2,0,0,1,0,50453.1,-0.133265,-0.133636,-54.1808,26,0.00245713,10,0.00724053,-1.26615,-744.822,-7.92136e-05,0.167596,-0.1336365,
2,0,0,1,0,50453.1,-0.13726,-0.137633,-54.1898,26,0.0022404,10,0.00745831,-1.26608,-18.6215,-0.00316839,6.70643,-0.137633,
2,0,0,1,0,50453.1,-0.141255,-0.14167,-54.2141,26,0.00202358,10,0.00768052,-1.26589,-13.8239,-0.00426797,9.0367,-0.14167,
2,0,0,1,0,50453.1,-0.145286,-0.145693,-54.2899,26,0.00180663,10,0.00790967,-1.26528,-10.5798,-0.00557666,11.8144,-0.145693,
2,0,0,1,0,50453.1,-0.149295,-0.149649,-54.3255,26,0.00158939,10,0.00812973,-1.265,-8.80974,-0.00669714,14.1995,-0.149649,
2,0,0,1,0,50453.1,-0.15329,-0.153653,-54.379,26,0.00137198,10,0.00835549,-1.26457,-9.24177,-0.00638406,13.5532,-0.153653,
2,0,0,1,0,50453.1,-0.157286,-0.157669,-54.4413,26,0.00115435,10,0.00858368,-1.26407,-7.62706,-0.00773561,16.4403,-0.157669,
2,0,0,1,0,50453.1,-0.161281,-0.161655,-54.5062,26,0.000936447,10,0.00881118,-1.26355,-6.9161,-0.00853081,18.1526,-0.161655,
2,0,0,1,0,50453.1,-0.165276,-0.165646,-54.5885,26,0.000718243,10,0.00904236,-1.2629,-6.35245,-0.00928775,19.7905,-0.165646,
2,0,0,1,0,50453.1,-0.169271,-0.169583,-54.6682,26,0.000499724,10,0.00927081,-1.26227,-5.70515,-0.0103415,22.0697,-0.169583,
2,0,0,1,0,50453.1,-0.173266,-0.173584,-54.7563,26,0.000280871,10,0.00950482,-1.26157,-5.62757,-0.0104841,22.4087,-0.173584,
2,0,0,1,0,50453.1,-0.177261,-0.177635,-54.8589,26,6.16313e-05,10,0.00974485,-1.26075,-5.34675,-0.0110347,23.6241,-0.177635,
2,0,0,1,0,50453.1,-0.181257,-0.181627,-54.9466,26,-0.000157984,10,0.0099798,-1.26006,-4.83079,-0.0122133,26.1994,-0.181627,
2,0,0,1,0,50453.2,-0.185252,-0.185549,-55.0454,26,-0.000377983,10,0.0102136,-1.25928,-5.02863,-0.0117328,25.2119,-0.185549,
2,0,0,1,0,50453.2,-0.189297,-0.189618,-55.1763,26,-0.000598486,10,0.0104624,-1.25825,-4.92181,-0.0119875,25.8023,-0.189618,
2,0,0,1,0,50453.2,-0.193292,-0.193638,-55.2623,26,-0.000819379,10,0.0107009,-1.25757,-5.15921,-0.0114359,24.6483,-0.193638,
2,0,0,1,0,50453.2,-0.197287,-0.197642,-55.3598,26,-0.00104063,10,0.0109414,-1.25681,15.1422,0.00389639,-8.38336,-0.197642,
2,0,0,0,0,50453.2,-0.199984,-0.200341,-55.41,26,-0.00119018,10,0.0111009,-1.25641,0.0654201,0.901863,-1828.21,-0.200341,
2,0,0,0,1,50453.2,-0.199984,-0.200551,-55.0847,26,-0.00122327,10,0.0110473,-1.25897,-0.0420053,-1.40458,2691.01,-0.200551,
2,0,0,1,1,50453.2,-0.196688,-0.197195,-48.7582,26,-0.00138157,10,0.00961488,-1.31195,-0.072807,-0.810362,1475.46,-0.197195,
2,0,0,1,1,50453.2,-0.192693,-0.193166,-43.3149,26,-0.0015648,10,0.00836694,-1.36336,-0.0783884,-0.752662,1300.78,-0.193166,
2,0,0,1,1,50453.2,-0.188698,-0.189133,-38.8723,26,-0.00172855,10,0.00735203,-1.41036,-0.0853527,-0.691249,1066.87,-0.1891329,
2,0,0,1,1,50453.2,-0.184653,-0.185108,-34.9957,26,-0.00187577,10,0.00647798,-1.45598,-0.0882012,-0.668925,923.496,-0.185108,
2,0,0,1,1,50453.2,-0.180657,-0.18109,-31.5758,26,-0.00200848,10,0.00571805,-1.50065,-0.0884856,-0.666775,826.782,-0.18109,
2,0,0,1,1,50453.2,-0.176662,-0.177091,-28.47,26,-0.0021282,10,0.00504177,-1.54561,-0.0872917,-0.675894,752.615,-0.177091,
2,0,0,1,1,50453.2,-0.172667,-0.173073,-25.5943,26,-0.00223597,10,0.00442969,-1.59186,-0.0846246,-0.697197,696.395,-0.173073,
2,0,0,1,1,50453.2,-0.168672,-0.169059,-22.9176,26,-0.00233268,10,0.00387444,-1.63983,-0.0807685,-0.730483,651.921,-0.169059,
2,0,0,1,1,50453.2,-0.164677,-0.16507,-20.4199,26,-0.00241907,10,0.00337071,-1.68995,-0.0761943,-0.774336,613.709,-0.16507,
2,0,0,1,1,50453.2,-0.160682,-0.161113,-18.0534,26,-0.00249573,10,0.00290863,-1.74344,-0.071012,-0.830845,580.232,-0.161113,
2,0,0,1,1,50453.2,-0.156686,-0.157122,-15.8053,26,-0.00256321,10,0.00248336,-1.8012,-0.0649014,-0.909072,553.585,-0.157122,
2,0,0,1,1,50453.2,-0.152691,-0.153113,-13.665,26,-0.00262192,10,0.00209229,-1.86439,-0.0584573,-1.00928,527.793,-0.153113,
2,0,0,1,1,50453.2,-0.148696,-0.149159,-11.6115,26,-0.00267224,10,0.00173196,-1.93511,-0.0516448,-1.14242,503.542,-0.149159,
2,0,0,1,1,50453.2,-0.14467,-0.145141,-9.62358,26,-0.00271453,10,0.00139678,-2.01666,-0.0440737,-1.33867,483.329,-0.145141,
2,0,0,1,1,50453.2,-0.140656,-0.141096,-7.73556,26,-0.00274902,10,0.00109146,-2.11151,-0.0359216,-1.64246,465.17,-0.141096,
2,0,0,1,1,50453.2,-0.136661,-0.137066,-5.90898,26,-0.00277612,10,0.00080992,-2.22849,-0.0270608,-2.18028,446.574,-0.137066,
2,0,0,1,1,50453.2,-0.132665,-0.133133,-4.15675,26,-0.00279606,10,0.0005534,-2.38125,-0.0163458,-3.60949,432.934,-0.133133,
2,0,0,1,1,50453.2,-0.12867,-0.129091,-2.45593,26,-0.00280911,10,0.000317037,-2.60978,-0.0181024,-3.25924,420.752,-0.129091,
2,0,0,1,1,50453.2,-0.124675,-0.125108,-0.813446,26,-0.00281548,10,0.000101768,-3.08967,-0.0641982,-0.919029,406.819,-0.125108,
2,1,0,1,1,50453.2,-0.12068,-0.121164,0.781757,26,-0.00281537,10,-9.47209e-05,-3.10693,0.0811035,0.727466,396.19,-0.121164,
2,1,0,1,1,50453.3,-0.116685,-0.117155,2.3435,26,-0.00280896,10,-0.000274552,-2.63014,0.0195554,3.01708,384.977,-0.1171546,
2,1,0,1,1,50453.3,-0.112689,-0.113143,3.86231,26,-0.00279639,10,-0.000436993,-2.41315,0.0170755,3.45525,374.365,-0.113143,
2,1,0,1,1,50453.3,-0.108694,-0.109132,5.33698,26,-0.00277783,10,-0.000582433,-2.2727,0.0293247,2.01196,367.734,-0.109132,
2,1,0,1,1,50453.3,-0.104699,-0.105147,6.77812,26,-0.00275345,10,-0.000712696,-2.16889,0.0404468,1.45871,358.84,-0.105147,
2,1,0,1,1,50453.3,-0.100654,-0.10117,8.22156,26,-0.00272325,10,-0.000831776,-2.08505,0.0511532,1.1534,351.786,-0.10117,
2,1,0,1,1,50453.3,-0.0966588,-0.0971415,9.6043,26,-0.00268743,10,-0.000932976,-2.01753,0.0618918,0.953276,344.401,-0.0971415,
2,1,0,1,1,50453.3,-0.0926636,-0.0931406,10.9624,26,-0.00264616,10,-0.00102104,-1.9601,0.0734628,0.803127,334.67,-0.0931406,
2,1,0,1,1,50453.3,-0.0886685,-0.0891779,12.2778,26,-0.00259953,10,-0.0010949,-1.91088,0.0846215,0.697222,327.395,-0.0891779,
2,1,0,1,1,50453.3,-0.0846733,-0.08516,13.5796,26,-0.00254767,10,-0.00115644,-1.86711,0.0962086,0.613251,319.656,-0.08516,
2,1,0,1,1,50453.3,-0.0806781,-0.0811559,14.8379,26,-0.00249072,10,-0.00120418,-1.82863,0.107684,0.547898,313.2,-0.0811559,
2,1,0,1,1,50453.3,-0.076683,-0.0771454,16.0753,26,-0.00242876,10,-0.00124014,-1.79384,0.119466,0.493865,306.588,-0.0771454,
2,1,0,1,1,50453.3,-0.0726878,-0.0731307,17.3037,26,-0.00236187,10,-0.00126543,-1.76186,0.131988,0.447012,298.731,-0.0731307,
2,1,0,1,1,50453.3,-0.0686926,-0.0691574,18.4858,26,-0.00229016,10,-0.00127843,-1.73316,0.142837,0.413058,295.737,-0.0691574,
2,1,0,1,1,50453.3,-0.0646974,-0.0651045,19.633,26,-0.00221378,10,-0.00127819,-1.70701,0.156619,0.376711,286.888,-0.0651045,
2,1,0,1,1,50453.3,-0.0606523,-0.0611015,20.8201,26,-0.00213279,10,-0.00127214,-1.68152,0.169734,0.347602,280.209,-0.0611015,
2,1,0,1,1,50453.3,-0.0566571,-0.0570942,21.9044,26,-0.00204725,10,-0.00125061,-1.65947,0.182269,0.323697,274.968,-0.0570942,
2,1,0,1,1,50453.3,-0.052662,-0.053088,22.9886,26,-0.00195733,10,-0.00122042,-1.63849,0.19853,0.297185,265.335,-0.053088,
2,1,0,1,1,50453.3,-0.0486668,-0.0490468,24.0483,26,-0.00186316,10,-0.00117949,-1.61892,0.21192,0.278407,259.976,-0.0490468,
2,1,0,1,1,50453.3,-0.0446716,-0.045101,25.0656,26,-0.00176483,10,-0.00113048,-1.60092,0.226933,0.259989,253.292,-0.045101,
2,1,0,1,1,50453.3,-0.0406764,-0.0410693,26.0705,26,-0.00166246,10,-0.0010707,-1.58385,0.240233,0.245595,249.02,-0.0410693,
2,1,0,1,1,50453.3,-0.0366813,-0.037061,27.0481,26,-0.00155614,10,-0.00100243,-1.56786,0.255739,0.230704,242.741,-0.037061,
2,1,0,1,1,50453.3,-0.0326861,-0.0331216,28.014,26,-0.0014459,10,-0.000927869,-1.55262,0.271396,0.217395,236.848,-0.03312159,
2,1,0,1,1,50453.3,-0.0286909,-0.0291058,28.9483,26,-0.00133188,10,-0.000842564,-1.53838,0.285022,0.207001,233.184,-0.0291058,
2,1,0,1,1,50453.3,-0.0246957,-0.025124,29.8471,26,-0.0012142,10,-0.000749879,-1.5251,0.304806,0.193566,224.977,-0.025124,
2,1,0,1,1,50453.3,-0.0206756,-0.0211422,30.7602,26,-0.00109291,10,-0.000650337,-1.51201,0.322373,0.183018,219.064,-0.0211422,
2,1,0,1,1,50453.4,-0.0166554,-0.0170861,31.6216,26,-0.000968035,10,-0.000540291,-1.50002,0.339948,0.173556,213.564,-0.0170861,
2,1,0,1,1,50453.4,-0.0126603,-0.013081,32.4588,26,-0.000839777,10,-0.000424592,-1.48867,0.364402,0.161909,204.564,-0.01308096,
2,1,0,1,1,50453.4,-0.0086651,-0.00907262,33.2751,26,-0.000708229,10,-0.000301892,-1.47788,0.383006,0.154045,199.352,-0.00907262,
2,1,0,1,1,50453.4,-0.00466992,-0.00509397,34.043,26,-0.000573504,10,-0.000173414,-1.46797, , , ,-0.00509397,
2,1,0,1,1,50453.4,-0.000974387,-0.00141012,34.7467,26,-0.000446208,10,-4.8997e-05,-1.45909, , , ,-0.00141012,
2,1,0,0,1,50453.4,-0.000175352,-0.000573459,34.8983,26,-0.00041837,10,-2.00127e-05,-1.4572, , , ,-0.000573459,