File: Figure_codes/Fig_3-5/rawdata_trumpetplot_data/after 10th/20221101_1-115_003_TrumpetPlot_ParaChange_from10_every3_07_CV_C01_24.csv
mode,ox/red,error,control changes,counter inc.,time/s,control/V,Ewe/V,<I>/mA,cycle number,(Q-Qo)/C,I Range,P/W,log(|I|),Tafel slope mV/dec,alpha_eff,dI/d(E-IR),E-IR/V,
2,0,0,0,0,48448.1,2.44065e-05,-0.000268062,-2.70013,25,0.0000000E+000,10,7.23801e-07,-2.56862, , , ,-0.000268062,
2,0,0,1,0,48448.2,0.0013005,0.000930923,-1.39429,25,-4.0761e-05,10,-1.29798e-06,-2.85565, , , ,0.000930923,
2,0,0,1,0,48448.2,0.00279471,0.0024622,-0.46941,25,-6.28265e-05,10,-1.15578e-06,-3.32845,-0.0053185,-11.0934,523.124,0.0024622,
2,1,0,1,0,48448.2,0.00429425,0.00395849,0.143987,25,-6.59955e-05,10,5.69971e-07,-3.84168,-0.301928,-0.195411,359.217,0.00395849,
2,1,0,1,0,48448.2,0.00579379,0.00546278,0.591809,25,-5.60801e-05,10,3.23292e-06,-3.22782,0.00266294,22.156,268.611,0.00546278,
2,1,0,1,0,48448.3,0.007288,0.0069708,0.932635,25,-3.65584e-05,10,6.50121e-06,-3.03029,0.00880187,6.70312,208.291,0.0069708,
2,1,0,1,0,48448.3,0.00878882,0.0085121,1.19972,25,-9.39261e-06,10,1.02121e-05,-2.92092,0.0161736,3.64792,159.685,0.0085121,
2,1,0,1,0,48448.3,0.0102896,0.00993009,1.41521,25,2.37691e-05,10,1.40531e-05,-2.84918,0.0248897,2.37046,125.59,0.00993009,
2,1,0,1,0,48448.3,0.0117838,0.0114276,1.58658,25,6.15327e-05,10,1.81307e-05,-2.79954,0.0336698,1.75231,105.711,0.0114276,
2,1,0,1,0,48448.4,0.0132834,0.0129489,1.72767,25,0.000103287,10,2.23714e-05,-2.76254,0.0438482,1.34555,89.4484,0.0129489,
2,1,0,1,0,48448.4,0.0147816,0.0144594,1.84174,25,0.000148379,10,2.66303e-05,-2.73477,0.0544886,1.0828,77.4369,0.0144594,
2,1,0,1,0,48448.4,0.0162811,0.0159448,1.9523,25,0.000196361,10,3.1129e-05,-2.70945,0.0683059,0.863761,65.3788,0.0159448,
2,1,0,1,0,48448.4,0.0177753,0.0174367,2.04667,25,0.000246577,10,3.56871e-05,-2.68895,0.0807113,0.731,58.0268,0.0174367,
2,1,0,1,0,48448.5,0.0192761,0.0189561,2.12754,25,0.00029908,10,4.03299e-05,-2.67212,0.0924173,0.638409,52.7792,0.01895613,
2,1,0,1,0,48448.5,0.020777,0.020457,2.19742,25,0.000353566,10,4.49526e-05,-2.65809,0.102235,0.5771,49.3633,0.020457,
2,1,0,1,0,48448.5,0.0222712,0.0219387,2.26948,25,0.000409628,10,4.97895e-05,-2.64407,0.120828,0.488297,43.1602,0.0219387,
2,1,0,1,0,48448.5,0.0237707,0.0234874,2.33638,25,0.000467564,10,5.48755e-05,-2.63146,0.136506,0.432214,39.2409,0.0234874,
2,1,0,1,0,48448.6,0.0252703,0.0249187,2.39181,25,0.000527023,10,5.96008e-05,-2.62127,0.139793,0.422052,39.3567,0.0249187,
2,1,0,1,0,48448.6,0.0267645,0.0264256,2.44324,25,0.00058765,10,6.45638e-05,-2.61203,0.14559,0.405246,38.7115,0.0264256,
2,1,0,1,0,48448.6,0.0282653,0.0279206,2.5043,25,0.000649956,10,6.99216e-05,-2.60131,0.159823,0.369158,36.0604,0.0279206,
2,1,0,1,0,48448.6,0.0297648,0.0294157,2.5641,25,0.000713669,10,7.54249e-05,-2.59106,0.17273,0.341574,34.003,0.0294157,
2,1,0,1,0,48448.7,0.031259,0.0309379,2.60605,25,0.000778423,10,8.06258e-05,-2.58402,0.169331,0.34843,35.4786,0.0309379,
2,1,0,1,0,48448.7,0.0327585,0.0324079,2.66229,25,0.000844675,10,8.62792e-05,-2.57474,0.174227,0.338638,35.1923,0.0324079,
2,1,0,1,0,48448.7,0.034258,0.0339204,2.71154,25,0.000912227,10,9.19766e-05,-2.56678,0.191374,0.308296,32.6197,0.0339204,
2,1,0,1,0,48448.7,0.0357576,0.0354544,2.76862,25,0.000981109,10,9.81595e-05,-2.55774,0.191239,0.308515,33.2123,0.03545437,
2,1,0,1,0,48448.8,0.0372518,0.0368972,2.81326,25,0.00105096,10,0.000103802,-2.55079,0.186795,0.315854,34.6977,0.0368972,
2,1,0,1,0,48448.8,0.0387526,0.03843,2.85855,25,0.00112222,10,0.000109854,-2.54385,0.197511,0.298718,33.4026,0.03843,
2,1,0,1,0,48448.8,0.0402534,0.03992,2.91343,25,0.0011948,10,0.000116304,-2.5356,0.206905,0.285155,32.4158,0.03992,
2,1,0,1,0,48448.8,0.0417476,0.041463,2.96964,25,0.00126838,10,0.00012313,-2.5273,0.21699,0.271902,31.4098,0.041463,
2,1,0,1,0,48448.9,0.0432472,0.04295,3.01321,25,0.00134346,10,0.000129418,-2.52097,0.213668,0.276129,32.4353,0.04295,
2,1,0,1,0,48448.9,0.0447467,0.0444071,3.05038,25,0.00141964,10,0.000135459,-2.51565,0.215665,0.273572,32.6627,0.0444071,
2,1,0,1,0,48448.9,0.0462463,0.0459165,3.10391,25,0.00149705,10,0.000142521,-2.50809,0.226201,0.26083,31.6116,0.0459165,
2,1,0,1,0,48448.9,0.0477391,0.0473787,3.15855,25,0.00157538,10,0.000149648,-2.50051,0.231278,0.255104,31.3812,0.0473787,
2,1,0,1,0,48449,0.0492399,0.0489034,3.20457,25,0.00165525,10,0.000156714,-2.49423,0.23091,0.255511,31.8983,0.04890338,
2,1,0,1,0,48449,0.0507408,0.0503947,3.24642,25,0.00173626,10,0.000163602,-2.4886,0.238715,0.247157,31.3473,0.0503947,
2,1,0,1,0,48449,0.052235,0.0518927,3.29453,25,0.00181806,10,0.000170962,-2.48221,0.251147,0.234922,30.2028,0.0518927,
2,1,0,1,0,48449,0.0537345,0.0534341,3.35147,25,0.00190142,10,0.000179083,-2.47476,0.246682,0.239174,31.1775,0.0534341,
2,1,0,1,0,48449.1,0.0552341,0.0549472,3.3909,25,0.00198599,10,0.00018632,-2.46969,0.256501,0.230018,30.4032,0.0549472,
2,1,0,1,0,48449.1,0.0567283,0.0563833,3.42972,25,0.00207134,10,0.000193379,-2.46474,0.275359,0.214266,28.7161,0.0563833,
2,1,0,1,0,48449.1,0.0582291,0.0578661,3.47806,25,0.0021581,10,0.000201262,-2.45866,0.288289,0.204655,27.7746,0.0578661,
2,1,0,1,0,48449.1,0.0597299,0.0594187,3.52747,25,0.00224596,10,0.000209598,-2.45254,0.282958,0.208512,28.6434,0.05941873,
2,1,0,1,0,48449.2,0.0612228,0.0609003,3.56234,25,0.00233457,10,0.000216947,-2.44827,0.271275,0.217491,30.2375,0.0609003,
2,1,0,1,0,48449.2,0.0627223,0.0624137,3.6059,25,0.00242464,10,0.000225057,-2.44299,0.298759,0.197483,27.8088,0.0624137,
2,1,0,1,0,48449.2,0.0642218,0.0638731,3.64432,25,0.00251569,10,0.000232774,-2.43838,0.32145,0.183543,26.1687,0.06387306,
2,1,0,1,0,48449.2,0.0657214,0.0654132,3.69332,25,0.00260781,10,0.000241592,-2.43258,0.310083,0.190272,27.411,0.0654132,
2,1,0,1,0,48449.3,0.0672156,0.0669173,3.73717,25,0.00270069,10,0.000250081,-2.42746,0.303046,0.19469,28.331,0.0669173,
2,1,0,1,0,48449.3,0.0687164,0.0683825,3.77182,25,0.00279492,10,0.000257926,-2.42345,0.357603,0.164988,24.3007,0.0683825,
2,1,0,1,0,48449.3,0.0702172,0.069919,3.80826,25,0.00289007,10,0.00026627,-2.41927,0.364051,0.162065,24.1116,0.06991902,
2,1,0,1,0,48449.3,0.0717114,0.0713584,3.85103,25,0.00298578,10,0.000274803,-2.41442,0.349674,0.168729,25.3262,0.0713584,
2,1,0,1,0,48449.4,0.073211,0.0728954,3.88739,25,0.00308284,10,0.000283373,-2.41034,0.353053,0.167114,25.3314,0.07289543,
2,1,0,1,0,48449.4,0.0747105,0.0744002,3.91535,25,0.00318081,10,0.000291303,-2.40723,0.381388,0.154698,23.6752,0.0744002,
2,1,0,1,0,48449.4,0.0762101,0.0758702,3.9502,25,0.00327961,10,0.000299703,-2.40338,0.437707,0.134793,20.8188,0.0758702,
2,1,0,1,0,48449.4,0.0777042,0.0773945,3.98902,25,0.00337886,10,0.000308728,-2.39913,0.413663,0.142628,22.183,0.0773945,
2,1,0,1,0,48449.5,0.0792037,0.0788891,4.02211,25,0.00347932,10,0.000317301,-2.39555,0.396044,0.148973,23.3518,0.07888905,
2,1,0,1,0,48449.5,0.0807046,0.0803588,4.04943,25,0.00358062,10,0.000325407,-2.39261,0.450696,0.130909,20.6764,0.0803588,
2,1,0,1,0,48449.5,0.0821988,0.0818979,4.08041,25,0.00368227,10,0.000334177,-2.3893,0.509465,0.115808,18.4527,0.0818979,
2,1,0,1,0,48449.5,0.0836983,0.0833303,4.11167,25,0.00378504,10,0.000342626,-2.38598,0.533966,0.110494,17.7248,0.0833303,
2,1,0,1,0,48449.6,0.0851979,0.084881,4.13889,25,0.00388856,10,0.000351313,-2.38312,0.449995,0.131113,21.1771,0.084881,
2,1,0,1,0,48449.6,0.0866921,0.0864044,4.16393,25,0.0039924,10,0.000359782,-2.3805,0.526797,0.111998,18.2199,0.0864044,
2,1,0,1,0,48449.6,0.0881929,0.0878513,4.19765,25,0.00409735,10,0.000368769,-2.37699,0.584366,0.100964,16.5364,0.0878513,
2,1,0,1,0,48449.6,0.0896937,0.0893484,4.22741,25,0.00420293,10,0.000377712,-2.37393,0.49145,0.120053,19.7873,0.0893484,
2,1,0,1,0,48449.7,0.0911879,0.0908633,4.25482,25,0.00430885,10,0.000386607,-2.37112,0.401142,0.14708,24.4121,0.0908633,
2,1,0,1,0,48449.7,0.0926861,0.0923593,4.28488,25,0.00441604,10,0.000395748,-2.36806,0.405907,0.145354,24.3384,0.0923593,
2,1,0,1,0,48449.7,0.0941856,0.093826,4.32158,25,0.00452406,10,0.000405477,-2.36436,0.461731,0.12778,21.5751,0.093826,
2,1,0,1,0,48449.7,0.0956852,0.0953517,4.35437,25,0.00463291,10,0.000415196,-2.36107,0.410106,0.143865,24.4768,0.0953517,
2,1,0,1,0,48449.8,0.0971794,0.0968148,4.39588,25,0.00474224,10,0.000425586,-2.35695,0.345133,0.170948,29.3234,0.0968148,
2,1,0,1,0,48449.8,0.0986802,0.0983383,4.43561,25,0.00485307,10,0.00043619,-2.35305,0.339721,0.173672,30.091,0.0983383,
2,1,0,1,0,48449.8,0.100181,0.0998309,4.48359,25,0.00496495,10,0.0004476,-2.34837,0.339192,0.173943,30.4435,0.0998309,
2,1,0,1,0,48449.8,0.101675,0.101331,4.52852,25,0.00507753,10,0.00045888,-2.34404,0.328117,0.179814,31.8137,0.101331,
2,1,0,1,0,48449.9,0.103175,0.102849,4.5844,25,0.00519182,10,0.000471502,-2.33872,0.269781,0.218696,39.1575,0.1028491,
2,1,0,1,0,48449.9,0.104674,0.10434,4.64037,25,0.00530753,10,0.000484176,-2.33345,0.255315,0.231087,41.9348,0.10434,
2,1,0,1,0,48449.9,0.106169,0.10588,4.70724,25,0.00542437,10,0.000498402,-2.32723,0.261297,0.225796,41.5305,0.10588,
2,1,0,1,0,48449.9,0.107668,0.107375,4.7752,25,0.00554334,10,0.000512738,-2.32101,0.253879,0.232394,43.3423,0.107375,
2,1,0,1,0,48450,0.109169,0.108836,4.8481,25,0.00566398,10,0.000527647,-2.31443,0.230296,0.256192,48.4931,0.1088358,
2,1,0,1,0,48450,0.110663,0.110354,4.9132,25,0.00578595,10,0.000542193,-2.30864,0.221661,0.266173,51.1362,0.110354,
2,1,0,1,0,48450,0.112163,0.111804,4.99067,25,0.00591024,10,0.000557975,-2.30184,0.246564,0.239289,46.6303,0.111804,
2,1,0,1,0,48450,0.113662,0.113321,5.07226,25,0.00603641,10,0.000574795,-2.2948,0.251728,0.23438,46.3247,0.113321,
2,1,0,1,0,48450.1,0.115162,0.114823,5.142,25,0.00616438,10,0.000590419,-2.28887,0.239637,0.246205,49.3758,0.114823,
2,1,0,1,0,48450.1,0.116656,0.116329,5.20946,25,0.00629364,10,0.000606013,-2.28321,0.241453,0.244354,49.7126,0.116329,
2,1,0,1,0,48450.1,0.118157,0.117834,5.29065,25,0.0064253,10,0.000623417,-2.27649,0.273182,0.215974,44.5317,0.1178337,
2,1,0,1,0,48450.1,0.119657,0.119345,5.36216,25,0.00655876,10,0.000639945,-2.27066,0.292012,0.202047,42.1872,0.119345,
2,1,0,1,0,48450.2,0.121152,0.120856,5.42264,25,0.00669329,10,0.000655358,-2.26579,0.303638,0.194311,41.0596,0.120856,
2,1,0,1,0,48450.2,0.122651,0.122333,5.48086,25,0.00682992,10,0.00067049,-2.26115,0.303419,0.194451,41.5751,0.122333,
2,1,0,1,0,48450.2,0.124151,0.123842,5.53857,25,0.00696804,10,0.000685906,-2.2566,0.3625,0.162759,35.1651,0.1238418,
2,1,0,1,0,48450.2,0.125649,0.125311,5.59137,25,0.00710756,10,0.00070066,-2.25248,0.406688,0.145074,31.6019,0.125311,
2,1,0,1,0,48450.3,0.127143,0.12678,5.63307,25,0.00724775,10,0.00071416,-2.24925,0.429769,0.137283,30.1776,0.12678,
2,1,0,1,0,48450.3,0.128644,0.128293,5.67692,25,0.00738955,10,0.000728309,-2.24589,0.471886,0.12503,27.7149,0.128293,
2,1,0,1,0,48450.3,0.130145,0.129846,5.71787,25,0.00753242,10,0.000742444,-2.24277,0.520835,0.11328,25.2768,0.129846,
2,1,0,1,0,48450.3,0.131639,0.131325,5.7587,25,0.00767573,10,0.000756259,-2.23968,0.644733,0.0915108,20.5309,0.131325,
2,1,0,1,0,48450.4,0.133139,0.132824,5.79073,25,0.0078205,10,0.000769147,-2.23727,0.633705,0.0931033,21.0246,0.132824,
2,1,0,1,0,48450.4,0.134638,0.13431,5.81473,25,0.0079659,10,0.000780974,-2.23547,0.729998,0.0808222,18.3607,0.13431,
2,1,0,1,0,48450.4,0.136132,0.1358,5.83981,25,0.00811141,10,0.000793045,-2.2336,0.94289,0.0625736,14.2599,0.1358,
2,1,0,1,0,48450.4,0.137633,0.137324,5.86739,25,0.00825814,10,0.000805732,-2.23156,1.1771,0.0501231,11.4527,0.137324,
2,1,0,1,0,48450.5,0.139133,0.138807,5.88512,25,0.00840538,10,0.000816898,-2.23024,1.3353,0.044185,10.1296,0.1388074,
2,1,0,1,0,48450.5,0.140627,0.140296,5.88855,25,0.00855228,10,0.000826138,-2.22999,3.00815,0.0196134,4.50389,0.140296,
2,1,0,1,0,48450.5,0.142126,0.141851,5.88962,25,0.00869994,10,0.000835451,-2.22991,-6.34825,-0.00929391,-2.13345,0.141851,
2,1,0,1,0,48450.5,0.143626,0.143334,5.89176,25,0.00884757,10,0.000844488,-2.22975,-1.1867,-0.0497177,-11.3912,0.143334,
2,1,0,1,0,48450.6,0.145125,0.144792,5.86415,25,0.00899478,10,0.000849081,-2.2318,-0.649557,-0.0908312,-20.7204,0.144792,
2,1,0,1,0,48450.6,0.14662,0.146287,5.81307,25,0.0091406,10,0.000850376,-2.23559,-0.430304,-0.137113,-31.0601,0.146287,
2,1,0,1,0,48450.6,0.14812,0.147805,5.75963,25,0.00928572,10,0.000851303,-2.23961,-0.283609,-0.208033,-46.657,0.147805,
2,1,0,1,0,48450.6,0.149621,0.149335,5.69259,25,0.0094292,10,0.000850101,-2.24469,-0.21336,-0.276529,-61.1307,0.149335,
2,1,0,1,0,48450.7,0.151116,0.150769,5.59117,25,0.00956995,10,0.000842977,-2.2525,-0.181571,-0.324942,-70.5623,0.150769,
2,1,0,1,0,48450.7,0.152615,0.152329,5.46456,25,0.00970855,10,0.00083241,-2.26245,-0.146863,-0.401734,-85.4656,0.152329,
2,1,0,1,0,48450.7,0.154115,0.153792,5.32756,25,0.00984391,10,0.000819335,-2.27347,-0.123975,-0.475904,-98.8279,0.153792,
2,1,0,1,0,48450.7,0.155614,0.155266,5.17943,25,0.00997567,10,0.00080419,-2.28572,-0.111681,-0.528292,-106.511,0.155266,
2,1,0,1,0,48450.8,0.157107,0.156791,5.01788,25,0.010103,10,0.000786757,-2.29948,-0.101767,-0.579756,-113.099,0.156791,
2,1,0,1,0,48450.8,0.158608,0.15828,4.83738,25,0.0102266,10,0.00076566,-2.31539,-0.0937995,-0.629001,-118.633,0.15828,
2,1,0,1,0,48450.8,0.160109,0.159785,4.65488,25,0.0103456,10,0.000743781,-2.33209,-0.088843,-0.664093,-120.715,0.159785,
2,1,0,1,0,48450.8,0.161603,0.161317,4.48234,25,0.0104597,10,0.00072308,-2.34849,-0.087525,-0.674093,-117.873,0.161317,
2,1,0,1,0,48450.9,0.163102,0.162756,4.3168,25,0.01057,10,0.000702585,-2.36484,-0.0901919,-0.654161,-110.145,0.162756,
2,1,0,1,0,48450.9,0.164602,0.164271,4.1455,25,0.0106761,10,0.000680986,-2.38242,-0.0897381,-0.657469,-106.553,0.164271,
2,1,0,1,0,48450.9,0.166096,0.16576,3.98634,25,0.0107777,10,0.000660777,-2.39943,-0.0933215,-0.632223,-98.7404,0.16576,
2,1,0,1,0,48450.9,0.167597,0.167279,3.85259,25,0.010876,10,0.000644458,-2.41425,-0.0970991,-0.607626,-91.4856,0.1672789,
2,1,0,1,0,48451,0.169098,0.168833,3.72554,25,0.010971,10,0.000628995,-2.42881,-0.105686,-0.558255,-81.1755,0.168833,
2,1,0,1,0,48451,0.170592,0.170291,3.60375,25,0.0110626,10,0.000613687,-2.44325,-0.111943,-0.527054,-74.275,0.170291,
2,1,0,1,0,48451,0.17209,0.171747,3.48795,25,0.0111516,10,0.000599044,-2.45743,-0.113852,-0.518218,-70.8759,0.171747,
2,1,0,1,0,48451,0.17359,0.173262,3.39586,25,0.011238,10,0.000588374,-2.46905,-0.123334,-0.478375,-63.4763,0.173262,
2,1,0,1,0,48451.1,0.175089,0.174756,3.3097,25,0.0113222,10,0.000578392,-2.48021,-0.141523,-0.416893,-53.9291,0.174756,
2,1,0,1,0,48451.1,0.176583,0.176285,3.22587,25,0.0114039,10,0.000568672,-2.49135,-0.144207,-0.409135,-51.6536,0.176285,
2,1,0,1,0,48451.1,0.178084,0.177753,3.15122,25,0.0114841,10,0.000560138,-2.50152,-0.155064,-0.380489,-46.9612,0.177753,
2,1,0,1,0,48451.1,0.179585,0.179266,3.09641,25,0.0115625,10,0.00055508,-2.50914,-0.168662,-0.349812,-42.2879,0.179266,
2,1,0,1,0,48451.2,0.181079,0.180765,3.03617,25,0.0116391,10,0.000548835,-2.51767,-0.204096,-0.289079,-34.2653,0.180765,
2,1,0,1,0,48451.2,0.182579,0.18223,2.98076,25,0.0117147,10,0.000543184,-2.52567,-0.209053,-0.282225,-32.8655,0.18223,
2,1,0,1,0,48451.2,0.184078,0.183798,2.93323,25,0.011789,10,0.00053912,-2.53265,-0.213443,-0.27642,-31.7407,0.183798,
2,1,0,1,0,48451.2,0.185578,0.185243,2.89151,25,0.0118622,10,0.000535633,-2.53888,-0.238953,-0.24691,-27.9141,0.185243,
2,1,0,1,0,48451.3,0.187072,0.186715,2.8578,25,0.011934,10,0.000533593,-2.54397,-0.276988,-0.213006,-23.7086,0.186715,
2,1,0,1,0,48451.3,0.188573,0.188224,2.81642,25,0.0120053,10,0.000530119,-2.5503,-0.309882,-0.190395,-20.9577,0.188224,
2,1,0,1,0,48451.3,0.190072,0.189759,2.78526,25,0.0120757,10,0.000528529,-2.55513,-0.30385,-0.194175,-21.1305,0.189759,
2,1,0,1,0,48451.3,0.191567,0.191216,2.75468,25,0.012145,10,0.000526738,-2.55993,-0.309583,-0.190579,-20.5109,0.191216,
2,1,0,1,0,48451.4,0.193066,0.192712,2.73068,25,0.012214,10,0.000526235,-2.56373,-0.454804,-0.129726,-13.821,0.192712,
2,1,0,1,0,48451.4,0.194566,0.194248,2.70379,25,0.0122823,10,0.000525207,-2.56803,-0.448617,-0.131515,-13.9079,0.194248,
2,1,0,1,0,48451.4,0.19606,0.195731,2.68113,25,0.0123498,10,0.000524782,-2.57168,-0.39498,-0.149375,-15.6549,0.195731,
2,1,0,1,0,48451.4,0.197561,0.197265,2.65927,25,0.012417,10,0.000524579,-2.57524,-0.444169,-0.132832,-13.8128,0.197265,
2,1,0,1,0,48451.5,0.199062,0.198754,2.64402,25,0.0124837,10,0.00052551,-2.57774,-0.53265,-0.110767,-11.4247,0.198754,
2,1,0,1,0,48451.5,0.200556,0.200243,2.62868,25,0.0125496,10,0.000526375,-2.58026,-0.56861,-0.103762,-10.6395,0.200243,
2,1,0,1,0,48451.5,0.202055,0.201737,2.60783,25,0.0126154,10,0.000526096,-2.58372,-0.462294,-0.127624,-12.9937,0.201737,
2,1,0,1,0,48451.5,0.203554,0.203257,2.59425,25,0.0126809,10,0.000527299,-2.58599,-0.575656,-0.102492,-10.3804,0.203257,
2,1,0,1,0,48451.6,0.205053,0.204757,2.58255,25,0.0127459,10,0.000528794,-2.58795,-0.88655,-0.0665501,-6.71788,0.204757,
2,1,0,1,0,48451.6,0.206547,0.206216,2.56477,25,0.0128104,10,0.000528897,-2.59095,-1.04107,-0.0566725,-5.68973,0.206216,
2,1,0,1,0,48451.6,0.208048,0.207735,2.55839,25,0.0128749,10,0.000531466,-2.59203,-0.73666,-0.0800912,-7.98905,0.207735,
2,1,0,1,0,48451.6,0.209549,0.209221,2.54916,25,0.0129391,10,0.000533337,-2.5936,-0.632341,-0.0933042,-9.27281,0.209221,
2,1,0,1,0,48451.7,0.211043,0.210711,2.54261,25,0.0130027,10,0.000535757,-2.59472,-0.836881,-0.0704999,-6.97351,0.210711,
2,1,0,1,0,48451.7,0.212543,0.212178,2.5252,25,0.0130664,10,0.000535791,-2.5977,-1.28542,-0.0458992,-4.52406,0.212178,
2,1,0,1,0,48451.7,0.214042,0.213693,2.51385,25,0.0131297,10,0.000537193,-2.59966,-0.850986,-0.0693313,-6.81997,0.213693,
2,1,0,1,0,48451.7,0.215536,0.215187,2.50599,25,0.0131926,10,0.000539257,-2.60102,-0.901041,-0.0654798,-6.40447,0.2151868,
2,1,0,1,0,48451.8,0.217036,0.216698,2.49678,25,0.0132555,10,0.000541046,-2.60262,-1.07804,-0.054729,-5.33988,0.216698,
2,1,0,1,0,48451.8,0.218537,0.218227,2.48857,25,0.0133183,10,0.000543074,-2.60405,-2.22462,-0.0265214,-2.58031,0.218227,
2,1,0,1,0,48451.8,0.220031,0.219708,2.48466,25,0.0133805,10,0.0005459,-2.60473,-0.93058,-0.0634013,-6.14906,0.219708,
2,1,0,1,0,48451.8,0.22153,0.221215,2.48091,25,0.0134429,10,0.000548815,-2.60539,-0.970256,-0.0608087,-5.87088,0.2212147,
2,1,0,1,0,48451.9,0.22303,0.222692,2.46585,25,0.0135052,10,0.000549125,-2.60803,-1.32807,-0.0444252,-4.28088,0.222692,
2,1,0,1,0,48451.9,0.224529,0.224199,2.45725,25,0.0135671,10,0.000550912,-2.60955,-1.46207,-0.0403539,-3.88454,0.224199,
2,1,0,1,0,48451.9,0.226024,0.225689,2.45532,25,0.0136287,10,0.00055414,-2.60989,-1.346,-0.0438337,-4.20274,0.225689,
2,1,0,1,0,48451.9,0.227525,0.227212,2.45275,25,0.0136904,10,0.000557295,-2.61035,-0.93168,-0.0633265,-6.04806,0.227212,
2,1,0,1,0,48452,0.229025,0.228729,2.44747,25,0.013752,10,0.000559807,-2.61128,-1.40626,-0.0419552,-3.99954,0.228729,
2,1,0,1,0,48452,0.23052,0.230196,2.4366,25,0.0138131,10,0.000560894,-2.61322,-2.30687,-0.0255758,-2.43967,0.230196,
2,1,0,1,0,48452,0.232019,0.231718,2.42937,25,0.0138744,10,0.000562928,-2.61451,-1.94469,-0.0303391,-2.88536,0.2317179,
2,1,0,1,0,48452,0.233519,0.233132,2.43028,25,0.0139356,10,0.000566578,-2.61434,-1.33077,-0.0443354,-4.19924,0.233132,
2,1,0,1,0,48452.1,0.235018,0.234761,2.4284,25,0.0139967,10,0.000570092,-2.61468,-2.02535,-0.0291307,-2.75409,0.234761,
2,1,0,1,0,48452.1,0.236511,0.236205,2.41624,25,0.0140573,10,0.000570728,-2.61686,-1.84844,-0.0319189,-3.01747,0.236205,
2,1,0,1,0,48452.1,0.238012,0.237714,2.41324,25,0.014118,10,0.00057366,-2.6174,-1.80427,-0.0327001,-3.08017,0.237714,
2,1,0,1,0,48452.1,0.239513,0.239232,2.41417,25,0.0141787,10,0.000577547,-2.61723,-1.42084,-0.0415248,-3.90634,0.239232,
2,1,0,1,0,48452.2,0.241007,0.240687,2.4079,25,0.0142391,10,0.00057955,-2.61836,-2.30618,-0.0255835,-2.40087,0.240687,
2,1,0,1,0,48452.2,0.242506,0.242197,2.39285,25,0.0142995,10,0.000579542,-2.62108,-2.60502,-0.0226486,-2.12548,0.242197,
2,1,0,1,0,48452.2,0.244006,0.243676,2.39323,25,0.0143598,10,0.000583173,-2.62102,-2.35482,-0.025055,-2.34577,0.243676,
2,1,0,1,0,48452.2,0.2455,0.245179,2.39499,25,0.0144199,10,0.000587201,-2.6207,-2.02634,-0.0291165,-2.72073,0.245179,
2,1,0,1,0,48452.3,0.247001,0.246718,2.39357,25,0.0144801,10,0.000590536,-2.62095,-3.02838,-0.0194823,-1.81473,0.246718,
2,1,0,1,0,48452.3,0.248502,0.24819,2.38787,25,0.0145402,10,0.000592644,-2.62199,-3.3507,-0.0176083,-1.64221,0.24819,
2,1,0,1,0,48452.3,0.249995,0.249673,2.37463,25,0.0145999,10,0.000592881,-2.6244,-1.50533,-0.0391941,-3.65059,0.249673,
2,1,0,1,0,48452.3,0.251494,0.251194,2.37963,25,0.0146598,10,0.000597749,-2.62349,-2.0759,-0.0284213,-2.6391,0.251194,
2,1,0,1,0,48452.4,0.252994,0.252683,2.37907,25,0.0147196,10,0.00060115,-2.62359,-1.99023,-0.0296448,-2.74621,0.252683,
2,1,0,1,0,48452.4,0.254493,0.254177,2.36875,25,0.0147793,10,0.000602082,-2.62548,-1.93507,-0.0304898,-2.82455,0.254177,
2,1,0,1,0,48452.4,0.255988,0.255665,2.36439,25,0.0148387,10,0.000604492,-2.62628,-2.95762,-0.0199485,-1.84652,0.255665,
2,1,0,1,0,48452.4,0.257488,0.257216,2.36512,25,0.0148982,10,0.000608346,-2.62615,-2.02657,-0.0291132,-2.68433,0.257216,
2,1,0,1,0,48452.5,0.258989,0.258709,2.36954,25,0.0149577,10,0.000613023,-2.62534,-2.77167,-0.0212868,-1.95965,0.258709,
2,1,0,1,0,48452.5,0.260483,0.260202,2.35634,25,0.0150168,10,0.000613123,-2.62776,-2.04272,-0.028883,-2.65851,0.2602016,
2,1,0,1,0,48452.5,0.261983,0.26169,2.34853,25,0.0150761,10,0.000614586,-2.6292,-1.50752,-0.0391371,-3.59831,0.26169,
2,1,0,1,0,48452.5,0.263482,0.263159,2.3509,25,0.0151352,10,0.000618661,-2.62877,-4.56732,-0.0129179,-1.18498,0.263159,
2,1,0,1,0,48452.6,0.264982,0.264678,2.34986,25,0.0151943,10,0.000621956,-2.62896,-2.29835,-0.0256706,-2.35084,0.264678,
2,1,0,1,0,48452.6,0.266476,0.26618,2.34585,25,0.0152531,10,0.000624417,-2.6297,-3.09924,-0.0190369,-1.74264,0.26618,
2,1,0,1,0,48452.6,0.267976,0.267619,2.33742,25,0.015312,10,0.000625538,-2.63126,-2.28321,-0.0258408,-2.36067,0.267619,
2,1,0,1,0,48452.6,0.269477,0.269121,2.3368,25,0.0153709,10,0.000628882,-2.63138,-2.3511,-0.0250946,-2.28708,0.269121,
2,1,0,1,0,48452.7,0.270971,0.270636,2.34175,25,0.0154294,10,0.00063376,-2.63046,-3.20603,-0.0184028,-1.67431,0.270636,
2,1,0,1,0,48452.7,0.27247,0.272119,2.33328,25,0.0154882,10,0.000634929,-2.63203,-6.2064,-0.00950631,-0.864551,0.272119,
2,1,0,1,0,48452.7,0.27397,0.27365,2.32447,25,0.0155468,10,0.000636091,-2.63368,-1.01522,-0.0581156,-5.2852,0.27365,
2,1,0,1,0,48452.7,0.275464,0.27514,2.3231,25,0.015605,10,0.000639179,-2.63393,-1.39785,-0.0422076,-3.8293,0.27514,
2,1,0,1,0,48452.8,0.276965,0.276657,2.32188,25,0.0156634,10,0.000642363,-2.63416,-3.06948,-0.0192215,-1.73818,0.276657,
2,1,0,1,0,48452.8,0.278466,0.278141,2.31729,25,0.0157217,10,0.000644533,-2.63502,-2.36539,-0.024943,-2.25199,0.278141,
2,1,0,1,0,48452.8,0.27996,0.279649,2.3113,25,0.0157797,10,0.000646353,-2.63614,-2.37599,-0.0248317,-2.23962,0.279649,
2,1,0,1,0,48452.8,0.281458,0.281106,2.31019,25,0.0158378,10,0.000649409,-2.63635,-1.74711,-0.03377,-3.04439,0.281106,
2,1,0,1,0,48452.9,0.282958,0.282662,2.30784,25,0.0158959,10,0.000652338,-2.6368,-3.77445,-0.0156314,-1.40629,0.282662,
2,1,0,1,0,48452.9,0.284457,0.284186,2.30158,25,0.0159538,10,0.000654078,-2.63797,-11.4695,-0.00514407,-0.462587,0.284186,
2,1,0,1,0,48452.9,0.285951,0.285615,2.29232,25,0.0160115,10,0.000654722,-2.63972,-1.31494,-0.0448689,-4.03245,0.285615,
2,1,0,1,0,48452.9,0.287452,0.287142,2.29266,25,0.0160692,10,0.00065832,-2.63966,-1.18725,-0.0496949,-4.4526,0.287142,
2,1,0,1,0,48453,0.288953,0.288646,2.29346,25,0.0161269,10,0.000661997,-2.63951,-2.73452,-0.021576,-1.92705,0.288646,
2,1,0,1,0,48453,0.290447,0.290116,2.28662,25,0.0161843,10,0.000663385,-2.64081,-4.53513,-0.0130096,-1.16169,0.290116,
2,1,0,1,0,48453,0.291947,0.29161,2.27924,25,0.0162418,10,0.000664649,-2.64221,-1.34162,-0.0439766,-3.92003,0.29161,
2,1,0,1,0,48453,0.293446,0.293107,2.27547,25,0.0162992,10,0.000666955,-2.64293,-1.3653,-0.0432139,-3.84421,0.293107,
2,1,0,1,0,48453.1,0.29494,0.29464,2.27962,25,0.0163562,10,0.000671665,-2.64214,-5.66093,-0.0104223,-0.925752,0.29464,
2,1,0,1,0,48453.1,0.29644,0.296126,2.27488,25,0.0164134,10,0.000673651,-2.64304,-3.64298,-0.0161955,-1.43661,0.296126,
2,1,0,1,0,48453.1,0.297941,0.297655,2.26575,25,0.0164706,10,0.00067441,-2.64479,-2.44038,-0.0241766,-2.13954,0.297655,
2,1,0,1,0,48453.1,0.29944,0.299142,2.26709,25,0.0165276,10,0.000678183,-2.64453,-0.00902201,-6.53956,-463.408,0.299142,
2,1,0,1,0,48453.2,0.299736,0.299423,1.88722,25,0.0165572,10,0.000565077,-2.72418,0.00208517,28.295,1364.21,0.299423,
2,1,0,1,0,48453.2,0.298238,0.297915,0.800084,25,0.0165886,10,0.000238357,-3.09686,0.00284129,20.7652,575.45,0.297915,
2,1,0,1,0,48453.2,0.296744,0.296419,0.244963,25,0.0166006,10,7.26116e-05,-3.6109,0.00527375,11.1875,314.937,0.296419,
2,0,0,1,0,48453.2,0.295243,0.294935,-0.0994735,25,0.0166016,10,-2.93383e-05,-4.00229,0.151248,0.390089,194.503,0.294935,
2,0,0,1,0,48453.3,0.293742,0.293417,-0.326399,25,0.0165957,10,-9.57709e-05,-3.48625,-0.00134091,-44,129.622,0.293417,
2,0,0,1,0,48453.3,0.292248,0.291905,-0.477386,25,0.0165852,10,-0.000139351,-3.32113,-0.00988056,-5.97132,96.6271,0.291905,
2,0,0,1,0,48453.3,0.290748,0.290438,-0.595727,25,0.0165713,10,-0.000173022,-3.22495,-0.0177318,-3.32736,73.3135,0.290438,
2,0,0,1,0,48453.3,0.289249,0.28893,-0.689236,25,0.0165547,10,-0.000199141,-3.16163,-0.0277078,-2.12937,55.7536,0.28893,
2,0,0,1,0,48453.4,0.287754,0.287397,-0.769152,25,0.0165361,10,-0.000221052,-3.11399,-0.0375613,-1.57077,46.022,0.287397,
2,0,0,1,0,48453.4,0.286254,0.285906,-0.82514,25,0.0165158,10,-0.000235912,-3.08347,-0.0456909,-1.29129,41.1718,0.285906,
2,0,0,1,0,48453.4,0.284754,0.284414,-0.878567,25,0.016494,10,-0.000249877,-3.05623,-0.0586171,-1.00653,34.4217,0.284414,
2,0,0,1,0,48453.4,0.28326,0.282975,-0.930155,25,0.0164711,10,-0.000263211,-3.03144,-0.0740176,-0.797108,28.627,0.282975,
2,0,0,1,0,48453.5,0.28176,0.281415,-0.972369,25,0.0164469,10,-0.000273639,-3.01217,-0.0810811,-0.727667,27.2511,0.281415,
2,0,0,1,0,48453.5,0.280261,0.279918,-1.00617,25,0.0164218,10,-0.000281646,-2.99733,-0.0912053,-0.646892,25.2647,0.279918,
2,0,0,1,0,48453.5,0.278761,0.278471,-1.04012,25,0.0163958,10,-0.000289644,-2.98291,-0.105031,-0.561741,22.8438,0.278471,
2,0,0,1,0,48453.5,0.277267,0.276966,-1.07156,25,0.0163691,10,-0.000296784,-2.96999,-0.123605,-0.477329,20.0123,0.276966,
2,0,0,1,0,48453.6,0.275766,0.275495,-1.10693,25,0.0163414,10,-0.000304953,-2.95588,-0.145854,-0.404515,17.3505,0.2754952,
2,0,0,1,0,48453.6,0.274265,0.273916,-1.13183,25,0.016313,10,-0.000310027,-2.94622,-0.135849,-0.434306,19.1575,0.273916,
2,0,0,1,0,48453.6,0.272771,0.272448,-1.1538,25,0.0162841,10,-0.000314351,-2.93787,-0.159443,-0.370039,16.7466,0.272448,
2,0,0,1,0,48453.6,0.271272,0.270934,-1.18327,25,0.0162545,10,-0.000320589,-2.92691,-0.164427,-0.358821,16.588,0.270934,
2,0,0,1,0,48453.7,0.269772,0.269489,-1.21612,25,0.0162241,10,-0.00032773,-2.91503,-0.177205,-0.332948,15.6426,0.269489,
2,0,0,1,0,48453.7,0.268273,0.267915,-1.233,25,0.0161932,10,-0.000330338,-2.90904,-0.178493,-0.330545,15.8639,0.267915,
2,0,0,1,0,48453.7,0.26678,0.266463,-1.24711,25,0.0161619,10,-0.00033231,-2.90409,-0.202078,-0.291967,14.3042,0.266463,
2,0,0,1,0,48453.7,0.265279,0.264942,-1.26985,25,0.01613,10,-0.000336436,-2.89625,-0.213558,-0.276272,13.7162,0.264942,
2,0,0,1,0,48453.8,0.263778,0.263443,-1.2952,25,0.0160975,10,-0.00034121,-2.88766,-0.220923,-0.267062,13.4451,0.263443,
2,0,0,1,0,48453.8,0.262284,0.261914,-1.31602,25,0.0160646,10,-0.000344684,-2.88074,-0.243821,-0.241981,12.3776,0.261914,
2,0,0,1,0,48453.8,0.260784,0.260484,-1.32741,25,0.0160312,10,-0.000345769,-2.877,-0.257769,-0.228887,11.8924,0.260484,
2,0,0,1,0,48453.8,0.259285,0.258939,-1.34759,25,0.0159973,10,-0.000348944,-2.87044,-0.269587,-0.218854,11.5451,0.2589395,
2,0,0,1,0,48453.9,0.257791,0.257435,-1.37135,25,0.0159631,10,-0.000353034,-2.86285,-0.257316,-0.22929,12.2064,0.257435,
2,0,0,1,0,48453.9,0.25629,0.255924,-1.3859,25,0.0159283,10,-0.000354685,-2.85827,-0.260716,-0.2263,12.1949,0.2559244,
2,0,0,1,0,48453.9,0.254789,0.254454,-1.39794,25,0.0158931,10,-0.000355712,-2.85451,-0.354838,-0.166273,9.09172,0.254454,
2,0,0,1,0,48453.9,0.253296,0.25298,-1.41342,25,0.0158576,10,-0.000357567,-2.84973,-0.320489,-0.184093,10.1832,0.25298,
2,0,0,1,0,48454,0.251797,0.251481,-1.43409,25,0.0158216,10,-0.000360647,-2.84342,-0.323676,-0.182281,10.1773,0.251481,
2,0,0,1,0,48454,0.250297,0.249968,-1.44842,25,0.0157852,10,-0.000362059,-2.8391,-0.290908,-0.202814,11.4437,0.2499682,
2,0,0,1,0,48454,0.248797,0.248447,-1.45917,25,0.0157484,10,-0.000362525,-2.8359,-0.332,-0.177711,10.1527,0.248447,
2,0,0,1,0,48454,0.247303,0.246984,-1.47492,25,0.0157114,10,-0.000364281,-2.83123,-0.417619,-0.141277,8.15767,0.246984,
2,0,0,1,0,48454.1,0.245802,0.245496,-1.49255,25,0.0156739,10,-0.000366415,-2.82607,-0.324422,-0.181862,10.5805,0.245496,
2,0,0,1,0,48454.1,0.244302,0.243966,-1.51032,25,0.015636,10,-0.000368467,-2.82093,-0.360487,-0.163667,9.60525,0.243966,
2,0,0,1,0,48454.1,0.242807,0.242494,-1.51982,25,0.0155978,10,-0.000368547,-2.81821,-0.395982,-0.148997,8.84877,0.242494,
2,0,0,1,0,48454.1,0.241308,0.240973,-1.5313,25,0.0155593,10,-0.000369001,-2.81494,-0.409425,-0.144105,8.63244,0.240973,
2,0,0,1,0,48454.2,0.239808,0.239492,-1.55002,25,0.0155204,10,-0.000371217,-2.80966,-0.37455,-0.157522,9.50386,0.2394921,
2,0,0,1,0,48454.2,0.238309,0.237989,-1.56551,25,0.0154811,10,-0.000372574,-2.80534,-0.303666,-0.194293,11.8454,0.237989,
2,0,0,1,0,48454.2,0.236815,0.236511,-1.57214,25,0.0154416,10,-0.000371829,-2.80351,-0.39709,-0.148581,9.13209,0.236511,
2,0,0,1,0,48454.2,0.235315,0.235008,-1.58478,25,0.0154017,10,-0.000372437,-2.80003,-0.49698,-0.118717,7.35413,0.235008,
2,0,0,1,0,48454.3,0.233814,0.233498,-1.6022,25,0.0153614,10,-0.000374111,-2.79528,-0.476543,-0.123808,7.73594,0.233498,
2,0,0,1,0,48454.3,0.23232,0.23198,-1.61758,25,0.015321,10,-0.000375247,-2.79113,-0.374741,-0.157442,9.88911,0.23198,
2,0,0,1,0,48454.3,0.230821,0.230504,-1.62447,25,0.0152801,10,-0.000374448,-2.78929,-0.463339,-0.127337,8.07951,0.230504,
2,0,0,1,0,48454.3,0.229321,0.229002,-1.63606,25,0.0152389,10,-0.000374661,-2.7862,-0.549369,-0.107396,6.8687,0.229002,
2,0,0,1,0,48454.3,0.227827,0.227473,-1.65288,25,0.0151975,10,-0.000375984,-2.78176,-0.577783,-0.102115,6.58186,0.227473,
2,0,0,1,0,48454.4,0.226326,0.226044,-1.66347,25,0.0151557,10,-0.000376017,-2.77899,-0.422832,-0.139535,9.06118,0.226044,
2,0,0,1,0,48454.4,0.224825,0.224497,-1.67358,25,0.0151136,10,-0.000375714,-2.77635,-0.473543,-0.124593,8.14407,0.224497,
2,0,0,1,0,48454.4,0.223331,0.223003,-1.68927,25,0.0150712,10,-0.000376713,-2.7723,-0.570229,-0.103467,6.81315,0.223003,
2,0,0,1,0,48454.4,0.221831,0.221493,-1.70066,25,0.0150285,10,-0.000376683,-2.76938,-0.525173,-0.112344,7.44773,0.2214925,
2,0,0,1,0,48454.5,0.220333,0.22004,-1.71559,25,0.0149854,10,-0.000377499,-2.76559,-0.380672,-0.154989,10.3523,0.22004,
2,0,0,1,0,48454.5,0.218834,0.218528,-1.72432,25,0.014942,10,-0.000376812,-2.76338,-0.406413,-0.145173,9.7833,0.218528,
2,0,0,1,0,48454.5,0.21734,0.217014,-1.73849,25,0.0148985,10,-0.000377277,-2.75983,-0.707399,-0.0834041,5.66812,0.217014,
2,0,0,1,0,48454.5,0.215839,0.215501,-1.75103,25,0.0148545,10,-0.000377348,-2.75671,-0.659072,-0.0895198,6.1105,0.215501,
2,0,0,1,0,48454.6,0.214338,0.21403,-1.76066,25,0.0148102,10,-0.000376833,-2.75433,-0.401836,-0.146826,10.0853,0.21403,
2,0,0,1,0,48454.6,0.212844,0.212531,-1.77248,25,0.0147658,10,-0.000376706,-2.75142,-0.458192,-0.128767,8.91452,0.212531,
2,0,0,1,0,48454.6,0.211344,0.210996,-1.78028,25,0.0147209,10,-0.00037563,-2.74951,-0.565341,-0.104362,7.26369,0.210996,
2,0,0,1,0,48454.6,0.209845,0.209526,-1.7979,25,0.0146757,10,-0.000376706,-2.74523,-0.682442,-0.0864542,6.0597,0.209526,
2,0,0,1,0,48454.7,0.20835,0.208013,-1.81232,25,0.0146304,10,-0.000376987,-2.74177,-0.36704,-0.160745,11.3633,0.208013,
2,0,0,1,0,48454.7,0.206851,0.206547,-1.8235,25,0.0145846,10,-0.000376639,-2.73909,-0.409973,-0.143912,10.2592,0.206547,
2,0,0,1,0,48454.7,0.20535,0.205007,-1.83408,25,0.0145384,10,-0.000376,-2.73658,-0.608521,-0.0969564,6.93684,0.205007,
2,0,0,1,0,48454.7,0.203856,0.203472,-1.85119,25,0.0144921,10,-0.000376667,-2.73255,-0.819881,-0.0719617,5.18793,0.203472,
2,0,0,1,0,48454.8,0.202356,0.202073,-1.85737,25,0.0144454,10,-0.000375325,-2.7311,-0.486537,-0.121265,8.81332,0.2020732,
2,0,0,1,0,48454.8,0.200857,0.200499,-1.86796,25,0.0143983,10,-0.000374523,-2.72863,-0.429158,-0.137479,10.0496,0.200499,
2,0,0,1,0,48454.8,0.199357,0.199023,-1.88123,25,0.014351,10,-0.000374408,-2.72556,-0.701983,-0.0840477,6.1818,0.199023,
2,0,0,1,0,48454.8,0.197863,0.197536,-1.90022,25,0.0143035,10,-0.000375362,-2.7212,-0.646746,-0.0912259,6.73838,0.197536,
2,0,0,1,0,48454.9,0.196362,0.196028,-1.90903,25,0.0142556,10,-0.000374224,-2.71919,-0.47473,-0.124281,9.25596,0.196028,
2,0,0,1,0,48454.9,0.194861,0.194548,-1.92015,25,0.0142073,10,-0.000373561,-2.71666,-0.426313,-0.138396,10.3789,0.194548,
2,0,0,1,0,48454.9,0.193367,0.193033,-1.93582,25,0.0141589,10,-0.000373677,-2.71314,-0.550169,-0.10724,8.10265,0.193033,
2,0,0,1,0,48454.9,0.191868,0.191515,-1.94908,25,0.0141099,10,-0.000373278,-2.71017,-0.570077,-0.103495,7.86678,0.191515,
2,0,0,1,0,48455,0.190368,0.19004,-1.96191,25,0.0140606,10,-0.000372843,-2.70732,-0.440001,-0.134091,10.2667,0.19004,
2,0,0,1,0,48455,0.18887,0.188537,-1.9739,25,0.0140109,10,-0.000372155,-2.70467,-0.435512,-0.135473,10.4594,0.188537,
2,0,0,1,0,48455,0.187376,0.18704,-1.98837,25,0.0139611,10,-0.000371905,-2.7015,-0.54268,-0.10872,8.45396,0.18704,
2,0,0,1,0,48455,0.185875,0.185519,-2.00844,25,0.0139108,10,-0.000372604,-2.69714,-0.531999,-0.110902,8.66557,0.185519,
2,0,0,1,0,48455.1,0.184374,0.184049,-2.01708,25,0.01386,10,-0.000371241,-2.69528,-0.439959,-0.134103,10.5576,0.184049,
2,0,0,1,0,48455.1,0.18288,0.18256,-2.02966,25,0.0138092,10,-0.000370534,-2.69258,-0.389137,-0.151617,12.0504,0.18256,
2,0,0,1,0,48455.1,0.18138,0.181079,-2.05292,25,0.0137577,10,-0.00037174,-2.68763,-0.442298,-0.133394,10.6855,0.181079,
2,0,0,1,0,48455.1,0.179881,0.179533,-2.0697,25,0.0137057,10,-0.00037158,-2.68409,-0.507954,-0.116152,9.35908,0.179533,
2,0,0,1,0,48455.2,0.178387,0.178085,-2.08867,25,0.0136536,10,-0.000371961,-2.68013,-0.405608,-0.145461,11.8397,0.178085,
2,0,0,1,0,48455.2,0.176886,0.176554,-2.09466,25,0.0136009,10,-0.000369822,-2.67889,-0.413088,-0.142827,11.7205,0.176554,
2,0,0,1,0,48455.2,0.175385,0.175053,-2.11869,25,0.0135478,10,-0.000370883,-2.67393,-0.435041,-0.135619,11.2217,0.1750527,
2,0,0,1,0,48455.2,0.173892,0.173605,-2.14248,25,0.0134943,10,-0.000371945,-2.66908,-0.405255,-0.145587,12.1418,0.173605,
2,0,0,1,0,48455.3,0.172393,0.172038,-2.16631,25,0.0134402,10,-0.000372689,-2.66428,-0.372047,-0.158582,13.3449,0.172038,
2,0,0,1,0,48455.3,0.170893,0.170624,-2.17445,25,0.0133856,10,-0.000371013,-2.66265,-0.31719,-0.186008,15.8246,0.170624,
2,0,0,1,0,48455.3,0.169393,0.169046,-2.19755,25,0.0133304,10,-0.000371488,-2.65806,-0.344266,-0.171379,14.749,0.169046,
2,0,0,1,0,48455.3,0.167899,0.16757,-2.22672,25,0.0132749,10,-0.000373132,-2.65233,-0.345535,-0.17075,14.8299,0.16757,
2,0,0,1,0,48455.4,0.166398,0.166069,-2.24627,25,0.0132186,10,-0.000373035,-2.64854,-0.337528,-0.1748,15.3287,0.166069,
2,0,0,1,0,48455.4,0.164898,0.164572,-2.26832,25,0.0131617,10,-0.000373301,-2.6443,-0.304671,-0.193651,17.1975,0.164572,
2,0,0,1,0,48455.4,0.163403,0.163054,-2.29941,25,0.0131044,10,-0.000374928,-2.63838,-0.291235,-0.202585,18.1884,0.163054,
2,0,0,1,0,48455.4,0.161904,0.161575,-2.33234,25,0.0130461,10,-0.000376847,-2.63221,-0.268288,-0.219913,19.9875,0.161575,
2,0,0,1,0,48455.5,0.160404,0.160016,-2.36405,25,0.0129871,10,-0.000378286,-2.62634,-0.251972,-0.234153,21.5485,0.160016,
2,0,0,1,0,48455.5,0.158905,0.158569,-2.38873,25,0.0129272,10,-0.000378779,-2.62183,-0.232471,-0.253795,23.7078,0.1585691,
2,0,0,1,0,48455.5,0.157411,0.157101,-2.42304,25,0.0128669,10,-0.000380662,-2.61564,-0.232962,-0.25326,24.0707,0.157101,
2,0,0,1,0,48455.5,0.155911,0.155569,-2.47014,25,0.0128053,10,-0.000384276,-2.60728,-0.209072,-0.2822,27.2113,0.155569,
2,0,0,1,0,48455.6,0.15441,0.154005,-2.51542,25,0.0127426,10,-0.000387388,-2.59939,-0.191803,-0.307608,30.1227,0.154005,
2,0,0,1,0,48455.6,0.152916,0.152551,-2.55534,25,0.0126791,10,-0.00038982,-2.59255,-0.174769,-0.337589,33.7082,0.152551,
2,0,0,1,0,48455.6,0.151417,0.151061,-2.60676,25,0.0126141,10,-0.000393779,-2.5839,-0.174849,-0.337434,34.4021,0.151061,
2,0,0,1,0,48455.6,0.149917,0.149543,-2.66525,25,0.0125479,10,-0.00039857,-2.57426,-0.158495,-0.372252,38.718,0.149543,
2,0,0,1,0,48455.7,0.148423,0.148054,-2.72452,25,0.0124804,10,-0.000403377,-2.56471,-0.143016,-0.412541,43.9369,0.148054,
2,0,0,1,0,48455.7,0.146922,0.146588,-2.79278,25,0.0124109,10,-0.000409388,-2.55396,-0.12947,-0.455704,49.8041,0.146588,
2,0,0,1,0,48455.7,0.145421,0.145109,-2.86321,25,0.0123398,10,-0.000415479,-2.54315,-0.127079,-0.464278,52.0718,0.145109,
2,0,0,1,0,48455.7,0.143927,0.143604,-2.95378,25,0.012267,10,-0.000424174,-2.52962,-0.115839,-0.509326,58.7259,0.143604,
2,0,0,1,0,48455.8,0.142429,0.142142,-3.05015,25,0.0121916,10,-0.000433553,-2.51568,-0.105606,-0.558682,66.4333,0.142142,
2,0,0,1,0,48455.8,0.140929,0.140582,-3.14,25,0.0121138,10,-0.000441428,-2.50307,-0.102712,-0.574422,70.6029,0.140582,
2,0,0,1,0,48455.8,0.13943,0.139132,-3.24125,25,0.0120335,10,-0.000450962,-2.48929,-0.104351,-0.565402,71.8217,0.139132,
2,0,0,1,0,48455.8,0.137935,0.137603,-3.36219,25,0.0119508,10,-0.000462647,-2.47338,-0.0996626,-0.591998,77.851,0.137603,
2,0,0,1,0,48455.9,0.136435,0.136089,-3.49092,25,0.0118648,10,-0.000475076,-2.45706,-0.0958795,-0.615356,83.7037,0.136089,
2,0,0,1,0,48455.9,0.134934,0.134614,-3.61352,25,0.0117756,10,-0.000486429,-2.44207,-0.0966894,-0.610201,86.0087,0.134614,
2,0,0,1,0,48455.9,0.13344,0.133121,-3.74053,25,0.0116835,10,-0.000497941,-2.42707,-0.0983057,-0.600169,87.7592,0.133121,
2,0,0,1,0,48455.9,0.13194,0.131621,-3.87485,25,0.0115879,10,-0.000510013,-2.41175,-0.100038,-0.589775,89.3311,0.131621,
2,0,0,1,0,48456,0.13044,0.130126,-4.01924,25,0.0114888,10,-0.000523007,-2.39586,-0.0975349,-0.604912,94.7133,0.130126,
2,0,0,1,0,48456,0.128941,0.128597,-4.15644,25,0.0113861,10,-0.000534505,-2.38128,-0.101759,-0.579801,93.9726,0.128597,
2,0,0,1,0,48456,0.127447,0.12711,-4.29699,25,0.0112804,10,-0.000546192,-2.36684,-0.111896,-0.527274,88.2732,0.12711,
2,0,0,1,0,48456,0.125946,0.125584,-4.4319,25,0.0111709,10,-0.000556574,-2.35341,-0.115426,-0.511149,88.2098,0.125584,
2,0,0,1,0,48456.1,0.124446,0.124113,-4.56288,25,0.0110581,10,-0.000566314,-2.34076,-0.116803,-0.505123,89.7371,0.124113,
2,0,0,1,0,48456.1,0.122952,0.122679,-4.6856,25,0.0109425,10,-0.000574826,-2.32923,-0.128277,-0.459942,84.0493,0.122679,
2,0,0,1,0,48456.1,0.121453,0.121144,-4.81046,25,0.0108233,10,-0.000582759,-2.31781,-0.143019,-0.412532,77.3977,0.121144,
2,0,0,1,0,48456.1,0.119953,0.119634,-4.92529,25,0.0107012,10,-0.000589234,-2.30757,-0.15374,-0.383764,73.7166,0.119634,
2,0,0,1,0,48456.2,0.118459,0.118117,-5.04259,25,0.0105767,10,-0.000595615,-2.29735,-0.151353,-0.389817,76.5913,0.118117,
2,0,0,1,0,48456.2,0.116958,0.116661,-5.1518,25,0.0104489,10,-0.000601014,-2.28804,-0.162799,-0.36241,72.7682,0.116661,
2,0,0,1,0,48456.2,0.115457,0.115115,-5.25114,25,0.0103183,10,-0.000604485,-2.27975,-0.190716,-0.30936,63.3096,0.115115,
2,0,0,1,0,48456.2,0.113963,0.113664,-5.34693,25,0.0101859,10,-0.000607753,-2.2719,-0.205644,-0.286903,59.8003,0.113664,
2,0,0,1,0,48456.3,0.112464,0.112149,-5.44423,25,0.0100507,10,-0.000610567,-2.26406,-0.213516,-0.276326,58.5756,0.112149,
2,0,0,1,0,48456.3,0.110965,0.110642,-5.52028,25,0.00991327,10,-0.000610776,-2.25804,-0.228458,-0.258253,55.578,0.110642,
2,0,0,1,0,48456.3,0.109466,0.109116,-5.59119,25,0.00977386,10,-0.000610087,-2.2525,-0.273039,-0.216087,47.1277,0.109116,
2,0,0,1,0,48456.3,0.107972,0.10766,-5.6619,25,0.00963322,10,-0.00060956,-2.24704,-0.321381,-0.183583,40.5335,0.10766,
2,0,0,1,0,48456.4,0.106471,0.106145,-5.72346,25,0.00949049,10,-0.000607518,-2.24234,-0.341186,-0.172926,38.57,0.106145,
2,0,0,1,0,48456.4,0.10497,0.104639,-5.77505,25,0.00934632,10,-0.000604295,-2.23844,-0.41302,-0.14285,32.1524,0.104639,
2,0,0,1,0,48456.4,0.103476,0.103165,-5.8161,25,0.00920152,10,-0.000600017,-2.23537,-0.538864,-0.10949,24.8238,0.103165,
2,0,0,1,0,48456.4,0.101976,0.101667,-5.85737,25,0.00905518,10,-0.0005955,-2.2323,-0.830005,-0.0710839,16.2099,0.101667,
2,0,0,1,0,48456.5,0.100477,0.100142,-5.87197,25,0.0089082,10,-0.00058803,-2.23122,-1.04771,-0.0563134,12.8866,0.100142,
2,0,0,1,0,48456.5,0.0989825,0.0986504,-5.88432,25,0.00876133,10,-0.000580491,-2.2303,-1.68558,-0.0350027,8.03412,0.0986504,
2,0,0,1,0,48456.5,0.0974817,0.097086,-5.89343,25,0.00861364,10,-0.00057217,-2.22963,-15.6195,-0.00377733,0.868167,0.097086,
2,0,0,1,0,48456.5,0.0959822,0.0956281,-5.89065,25,0.0084659,10,-0.000563312,-2.22984,1.96211,0.0300697,-6.90222,0.0956281,
2,0,0,1,0,48456.6,0.094488,0.0941994,-5.87879,25,0.00831893,10,-0.000553779,-2.23071,1.63923,0.0359926,-8.24865,0.0941994,
2,0,0,1,0,48456.6,0.0929884,0.0926255,-5.85866,25,0.00817179,10,-0.000542662,-2.2322,1.23399,0.0478122,-10.9375,0.0926255,
2,0,0,1,0,48456.6,0.0914889,0.0911455,-5.83809,25,0.00802507,10,-0.000532116,-2.23373,0.826387,0.0713951,-16.2616,0.0911455,
2,0,0,1,0,48456.6,0.0899894,0.0896802,-5.81427,25,0.00787892,10,-0.000521425,-2.2355,0.614529,0.0960085,-21.7655,0.08968015,
2,0,0,1,0,48456.7,0.0884951,0.0881564,-5.77885,25,0.00773413,10,-0.000509443,-2.23816,0.599767,0.0983716,-22.1905,0.0881564,
2,0,0,1,0,48456.7,0.0869943,0.0866631,-5.7466,25,0.00758964,10,-0.000498018,-2.24059,0.555123,0.106283,-23.84,0.0866631,
2,0,0,1,0,48456.7,0.0854935,0.0851444,-5.70923,25,0.00744601,10,-0.000486109,-2.24342,0.520988,0.113246,-25.2549,0.0851444,
2,0,0,1,0,48456.7,0.0839993,0.0836565,-5.67802,25,0.00730384,10,-0.000475004,-2.2458,0.492367,0.119829,-26.5294,0.0836565,
2,0,0,1,0,48456.8,0.0824998,0.0821486,-5.64497,25,0.00716196,10,-0.000463727,-2.24834,0.554026,0.106493,-23.4346,0.0821486,
2,0,0,1,0,48456.8,0.0810002,0.0806756,-5.60038,25,0.00702106,10,-0.000451814,-2.25178,0.613555,0.0961609,-21.043,0.0806756,
2,0,0,1,0,48456.8,0.0795007,0.0791705,-5.56825,25,0.00688101,10,-0.000440842,-2.25428,0.601819,0.0980362,-21.3172,0.0791705,
2,0,0,1,0,48456.8,0.0780078,0.0776888,-5.53766,25,0.00674234,10,-0.000430214,-2.25667,0.599586,0.0984012,-21.2674,0.0776888,
2,0,0,1,0,48456.9,0.076507,0.0761812,-5.51193,25,0.00660386,10,-0.000419905,-2.2587,0.672211,0.0877701,-18.8608,0.0761812,
2,0,0,1,0,48456.9,0.0750062,0.0747077,-5.47438,25,0.00646617,10,-0.000408978,-2.26166,0.674728,0.0874427,-18.6967,0.0747077,
2,0,0,1,0,48456.9,0.073512,0.0731596,-5.44259,25,0.00632975,10,-0.000398177,-2.26419,0.702702,0.0839616,-17.857,0.0731596,
2,0,0,1,0,48456.9,0.0720124,0.0717038,-5.42496,25,0.00619342,10,-0.00038899,-2.2656,0.726728,0.0811859,-17.1871,0.0717038,
2,0,0,1,0,48457,0.0705129,0.0701874,-5.39873,25,0.00605772,10,-0.000378923,-2.26771,0.7338,0.0804034,-16.9347,0.0701874,
2,0,0,1,0,48457,0.0690187,0.0687343,-5.36526,25,0.00592321,10,-0.000368777,-2.27041,0.828439,0.0712183,-14.9381,0.0687343,
2,0,0,1,0,48457,0.0675179,0.0671609,-5.3477,25,0.00578884,10,-0.000359156,-2.27183,0.727519,0.0810976,-16.9481,0.06716089,
2,0,0,1,0,48457,0.066017,0.0656992,-5.33432,25,0.00565498,10,-0.00035046,-2.27292,0.823037,0.0716857,-14.8905,0.0656992,
2,0,0,1,0,48457.1,0.0645242,0.0642037,-5.30999,25,0.00552213,10,-0.000340921,-2.27491,0.800285,0.0737238,-15.2511,0.0642037,
2,0,0,1,0,48457.1,0.0630246,0.0627015,-5.27776,25,0.0053894,10,-0.000330923,-2.27755,0.766083,0.0770151,-15.8807,0.0627015,
2,0,0,1,0,48457.1,0.0615251,0.0611936,-5.25142,25,0.00525731,10,-0.000321354,-2.27972,0.716451,0.0823504,-16.8931,0.0611936,
2,0,0,1,0,48457.1,0.0600256,0.0597038,-5.23268,25,0.00512581,10,-0.000312411,-2.28128,0.656769,0.0898337,-18.335,0.0597038,
2,0,0,1,0,48457.2,0.0585314,0.0581783,-5.20674,25,0.00499541,10,-0.000302919,-2.28343,0.716753,0.0823156,-16.718,0.0581783,
2,0,0,1,0,48457.2,0.0570305,0.0566923,-5.17998,25,0.00486514,10,-0.000293665,-2.28567,0.701687,0.084083,-17.0016,0.0566923,
2,0,0,1,0,48457.2,0.0555297,0.0551668,-5.15151,25,0.00473555,10,-0.000284192,-2.28807,0.639529,0.0922554,-18.5601,0.0551668,
2,0,0,1,0,48457.2,0.0540355,0.0537168,-5.1306,25,0.00460715,10,-0.0002756,-2.28983,0.657404,0.089747,-17.9523,0.0537168,
2,0,0,1,0,48457.3,0.052536,0.0521756,-5.10917,25,0.0044788,10,-0.000266574,-2.29165,0.69455,0.0849471,-16.9127,0.0521756,
2,0,0,1,0,48457.3,0.0510364,0.0507077,-5.07257,25,0.00435114,10,-0.000257219,-2.29477,0.653916,0.0902256,-17.8691,0.0507077,
2,0,0,1,0,48457.3,0.0495369,0.0491849,-5.03952,25,0.00422422,10,-0.000247868,-2.29761,0.561422,0.10509,-20.7006,0.0491849,
2,0,0,1,0,48457.3,0.0480427,0.0476878,-5.01658,25,0.00409853,10,-0.00023923,-2.29959,0.5827,0.101253,-19.8289,0.0476878,
2,0,0,1,0,48457.4,0.0465432,0.0461877,-4.99002,25,0.00397303,10,-0.000230478,-2.3019,0.636857,0.0926425,-18.0231,0.0461877,
2,0,0,1,0,48457.4,0.0450424,0.0446904,-4.95842,25,0.00384827,10,-0.000221593,-2.30466,0.602891,0.0978618,-18.9414,0.0446904,
2,0,0,1,0,48457.4,0.0435482,0.0432348,-4.91898,25,0.00372481,10,-0.000212671,-2.30812,0.51779,0.113946,-21.9097,0.0432348,
2,0,0,1,0,48457.4,0.0420486,0.0417096,-4.89738,25,0.00360163,10,-0.000204268,-2.31004,0.524951,0.112391,-21.4774,0.0417096,
2,0,0,1,0,48457.5,0.0405491,0.0402406,-4.87212,25,0.00347917,10,-0.000196057,-2.31228,0.589357,0.100109,-19.0122,0.0402406,
2,0,0,1,0,48457.5,0.0390549,0.0387442,-4.83422,25,0.00335791,10,-0.000187298,-2.31567,0.509205,0.115867,-21.8589,0.0387442,
2,0,0,1,0,48457.5,0.0375541,0.0371981,-4.79774,25,0.00323699,10,-0.000178467,-2.31896,0.483506,0.122025,-22.8874,0.0371981,
2,0,0,1,0,48457.5,0.0360532,0.0357286,-4.77027,25,0.00311699,10,-0.000170435,-2.32146,0.440867,0.133827,-24.9144,0.0357286,
2,0,0,1,0,48457.6,0.034559,0.0342003,-4.73805,25,0.00299829,10,-0.000162043,-2.3244,0.464725,0.126957,-23.4199,0.0342003,
2,0,0,1,0,48457.6,0.0330595,0.0326983,-4.6982,25,0.00287998,10,-0.000153623,-2.32807,0.502235,0.117475,-21.5313,0.0326983,
2,0,0,1,0,48457.6,0.0315613,0.0311943,-4.65798,25,0.00276261,10,-0.000145302,-2.3318,0.40805,0.14459,-26.3035,0.0311943,
2,0,0,1,0,48457.6,0.0300618,0.0297336,-4.62399,25,0.00264618,10,-0.000137488,-2.33498,0.382889,0.154092,-27.7908,0.0297336,
2,0,0,1,0,48457.7,0.0285676,0.0282441,-4.58608,25,0.00253117,10,-0.00012953,-2.33856,0.448432,0.13157,-23.5297,0.0282441,
2,0,0,1,0,48457.7,0.0270667,0.026735,-4.54768,25,0.00241659,10,-0.000121582,-2.34221,0.455522,0.129522,-22.9824,0.026735,
2,0,0,1,0,48457.7,0.0255659,0.0252863,-4.50666,25,0.00230294,10,-0.000113957,-2.34615,0.390055,0.151261,-26.6257,0.0252863,
2,0,0,1,0,48457.7,0.0240717,0.0237415,-4.46993,25,0.00219072,10,-0.000106123,-2.3497,0.360581,0.163625,-28.5438,0.0237415,
2,0,0,1,0,48457.8,0.0225722,0.0222769,-4.43422,25,0.00207903,10,-9.87807e-05,-2.35318,0.448993,0.131405,-22.7321,0.0222769,
2,0,0,1,0,48457.8,0.0210726,0.0207497,-4.39646,25,0.00196825,10,-9.12251e-05,-2.3569,0.459916,0.128284,-22.02,0.0207497,
2,0,0,1,0,48457.8,0.0195784,0.0192605,-4.35769,25,0.00185878,10,-8.39314e-05,-2.36074,0.401661,0.14689,-25.0039,0.0192605,
2,0,0,1,0,48457.8,0.0180789,0.017771,-4.32588,25,0.00174978,10,-7.68751e-05,-2.36393,0.415326,0.142057,-23.9942,0.017771,
2,0,0,1,0,48457.9,0.0165781,0.0162889,-4.29537,25,0.00164167,10,-6.9967e-05,-2.367,0.484526,0.121768,-20.4116,0.0162889,
2,0,0,1,0,48457.9,0.0150839,0.0147831,-4.2621,25,0.00153473,10,-6.30069e-05,-2.37038,0.498224,0.118421,-19.6993,0.0147831,
2,0,0,1,0,48457.9,0.0135844,0.0132888,-4.22997,25,0.00142811,10,-5.62113e-05,-2.37366,0.427579,0.137986,-22.7906,0.0132888,
2,0,0,1,0,48457.9,0.0120848,0.0117577,-4.20231,25,0.00132231,10,-4.94096e-05,-2.37651,0.478171,0.123387,-20.2591,0.0117577,
2,0,0,1,0,48458,0.0105853,0.0102834,-4.17295,25,0.00121728,10,-4.29119e-05,-2.37956,0.511227,0.115409,-18.8072,0.0102834,
2,0,0,1,0,48458,0.00909108,0.00876325,-4.14245,25,0.00111329,10,-3.63013e-05,-2.38274,0.668199,0.088297,-14.303,0.00876325,
2,0,0,1,0,48458,0.00759027,0.00724656,-4.12198,25,0.00100951,10,-2.98702e-05,-2.38489,0.637956,0.0924829,-14.8882,0.00724656,
2,0,0,1,0,48458,0.00608945,0.00575223,-4.10214,25,0.000906266,10,-2.35964e-05,-2.38699,0.604062,0.097672,-15.6361,0.00575223,
2,0,0,1,0,48458.1,0.00459524,0.00425589,-4.0812,25,0.000804062,10,-1.73692e-05,-2.38921,0.713369,0.0827061,-13.1663,0.00425589,
2,0,0,1,0,48458.1,0.0030957,0.00278178,-4.06119,25,0.000701923,10,-1.12973e-05,-2.39135,2.94524,0.0200323,-3.18319,0.00278178,
2,0,0,1,0,48458.1,0.00159616,0.00122049,-4.06524,25,0.000599821,10,-4.96159e-06,-2.39091, , , ,0.00122049,
2,0,0,1,0,48458.1,0.000199195,-0.000176442,-4.04972,25,0.000504892,10,7.14543e-07,-2.39257, , , ,-0.000176442,