File: Figure_codes/Fig_3-5/rawdata_trumpetplot_data/after 10th/20221101_1-115_003_TrumpetPlot_ParaChange_from10_every3_09_CV_C01_16.csv
mode,ox/red,error,control changes,counter inc.,time/s,control/V,Ewe/V,<I>/mA,cycle number,(Q-Qo)/C,I Range,P/W,log(|I|),Tafel slope mV/dec,alpha_eff,dI/d(E-IR),E-IR/V,
2,0,0,0,0,32704.6,2.44065e-05,-0.000497109,-5.29259,17,0.0000000E+000,10,2.631e-06,-2.27633, , , ,-0.000497109,
2,0,0,1,0,32704.6,0.00179726,0.00137677,-2.64778,17,-6.6168e-05,10,-3.64538e-06,-2.57712, , , ,0.00137677,
2,0,0,1,0,32704.6,0.00379485,0.00343114,-0.916861,17,-9.99438e-05,10,-3.14588e-06,-3.0377,-0.00383507,-15.3843,704.107,0.00343114,
2,1,0,1,0,32704.7,0.00579244,0.00546104,0.227983,17,-0.000105841,10,1.24502e-06,-3.6421,0.062683,0.941245,490.259,0.00546104,
2,1,0,1,0,32704.7,0.00779002,0.0074706,1.06352,17,-9.21952e-05,10,7.94514e-06,-2.97325,0.00460207,12.8203,366.307,0.0074706,
2,1,0,1,0,32704.7,0.00978761,0.00947428,1.69806,17,-6.41172e-05,10,1.60879e-05,-2.77005,0.0127587,4.62431,280.464,0.00947428,
2,1,0,1,0,32704.7,0.0117852,0.0114381,2.17626,17,-2.49693e-05,10,2.48923e-05,-2.66229,0.0220967,2.67008,219.096,0.0114381,
2,1,0,1,0,32704.7,0.0137828,0.0134388,2.56667,17,2.28026e-05,10,3.4493e-05,-2.59063,0.0328165,1.79787,176.309,0.0134388,
2,1,0,1,0,32704.8,0.0157804,0.0154425,2.88228,17,7.75897e-05,10,4.45097e-05,-2.54026,0.0451466,1.30685,145.262,0.0154425,
2,1,0,1,0,32704.8,0.017778,0.0174508,3.14946,17,0.000137935,10,5.49605e-05,-2.50176,0.0599569,0.984041,119.683,0.0174508,
2,1,0,1,0,32704.8,0.0197755,0.0194583,3.36289,17,0.00020326,10,6.54361e-05,-2.47329,0.0759139,0.777196,101.593,0.0194583,
2,1,0,1,0,32704.8,0.0217731,0.0214687,3.55764,17,0.000272684,10,7.63778e-05,-2.44884,0.0898705,0.6565,90.7208,0.0214687,
2,1,0,1,0,32704.8,0.0237707,0.0234496,3.72499,17,0.000345755,10,8.73495e-05,-2.42887,0.102966,0.573007,83.2095,0.0234496,
2,1,0,1,0,32704.9,0.0257683,0.0254521,3.8891,17,0.00042174,10,9.89859e-05,-2.41015,0.119683,0.492968,74.5225,0.0254521,
2,1,0,1,0,32704.9,0.0277659,0.0274879,4.02594,17,0.000501102,10,0.000110665,-2.39513,0.135795,0.434477,68.2412,0.0274879,
2,1,0,1,0,32704.9,0.0297635,0.0294669,4.16308,17,0.000583186,10,0.000122673,-2.38059,0.150412,0.392256,63.5309,0.0294669,
2,1,0,1,0,32704.9,0.0317611,0.0314342,4.27665,17,0.000667817,10,0.000134433,-2.3689,0.155866,0.378531,63.3362,0.0314342,
2,1,0,1,0,32704.9,0.0337586,0.0334289,4.41402,17,0.000754488,10,0.000147556,-2.35517,0.164106,0.359524,61.7232,0.0334289,
2,1,0,1,0,32705,0.0357562,0.0354372,4.52373,17,0.00084404,10,0.000160308,-2.3445,0.19024,0.310134,54.7469,0.0354372,
2,1,0,1,0,32705,0.0377538,0.0374505,4.63419,17,0.000935882,10,0.000173553,-2.33403,0.18916,0.311905,56.4178,0.0374505,
2,1,0,1,0,32705,0.0397514,0.0394062,4.74765,17,0.00102989,10,0.000187087,-2.32352,0.179304,0.329051,61.0574,0.0394062,
2,1,0,1,0,32705,0.041749,0.0414277,4.87703,17,0.00112576,10,0.000202044,-2.31184,0.200642,0.294056,55.7711,0.0414277,
2,1,0,1,0,32705,0.0437466,0.0434579,4.97362,17,0.00122444,10,0.000216143,-2.30333,0.227976,0.2588,50.2714,0.0434579,
2,1,0,1,0,32705.1,0.0457442,0.0454439,5.07892,17,0.00132507,10,0.000230806,-2.29423,0.210968,0.279663,55.4655,0.0454439,
2,1,0,1,0,32705.1,0.0477418,0.0473895,5.19168,17,0.00142792,10,0.000246031,-2.28469,0.215803,0.273398,55.3697,0.0473895,
2,1,0,1,0,32705.1,0.0497484,0.0494613,5.30137,17,0.00153292,10,0.000262213,-2.27561,0.240742,0.245075,50.6212,0.0494613,
2,1,0,1,0,32705.1,0.0517369,0.0514025,5.39483,17,0.00163949,10,0.000277308,-2.26802,0.250213,0.235799,49.6787,0.05140255,
2,1,0,1,0,32705.1,0.0537345,0.0533909,5.49659,17,0.00174861,10,0.000293468,-2.25991,0.244781,0.241032,51.7173,0.0533909,
2,1,0,1,0,32705.2,0.0557321,0.0554138,5.60228,17,0.00185983,10,0.000310443,-2.25164,0.262058,0.225141,49.1619,0.05541379,
2,1,0,1,0,32705.2,0.0577206,0.0574238,5.69485,17,0.0019724,10,0.00032702,-2.24452,0.262531,0.224735,50.0007,0.0574238,
2,1,0,1,0,32705.2,0.0597273,0.0593802,5.8006,17,0.00208763,10,0.000344441,-2.23653,0.263935,0.22354,50.564,0.0593802,
2,1,0,1,0,32705.2,0.0617249,0.0614447,5.89816,17,0.00220478,10,0.000362411,-2.22928,0.301782,0.195506,44.9471,0.0614447,
2,1,0,1,0,32705.2,0.0637224,0.0634172,5.98205,17,0.00232377,10,0.000379365,-2.22315,0.307583,0.191818,44.8202,0.0634172,
2,1,0,1,0,32705.3,0.06572,0.0654357,6.07704,17,0.00244456,10,0.000397655,-2.21631,0.282262,0.209026,49.6049,0.0654357,
2,1,0,1,0,32705.3,0.0677176,0.0674205,6.18064,17,0.00256683,10,0.000416702,-2.20897,0.311994,0.189106,45.5124,0.0674205,
2,1,0,1,0,32705.3,0.0697152,0.0694002,6.25747,17,0.00269145,10,0.00043427,-2.2036,0.345169,0.170931,41.7822,0.0694002,
2,1,0,1,0,32705.3,0.0717128,0.0713978,6.34682,17,0.0028177,10,0.000453148,-2.19744,0.334832,0.176208,43.6312,0.0713978,
2,1,0,1,0,32705.3,0.0737104,0.0734152,6.43265,17,0.00294569,10,0.000472254,-2.19161,0.346795,0.170129,42.7055,0.0734152,
2,1,0,1,0,32705.4,0.075708,0.0754014,6.51779,17,0.00307478,10,0.000491451,-2.1859,0.364406,0.161907,41.1546,0.0754014,
2,1,0,1,0,32705.4,0.0777056,0.0773414,6.59423,17,0.00320606,10,0.000510007,-2.18084,0.388627,0.151816,39.0733,0.0773414,
2,1,0,1,0,32705.4,0.0797031,0.0793551,6.67228,17,0.00333891,10,0.000529479,-2.17573,0.41484,0.142224,37.0201,0.0793551,
2,1,0,1,0,32705.4,0.0817007,0.0814304,6.74561,17,0.00347328,10,0.000549298,-2.17098,0.426198,0.138433,36.4411,0.0814304,
2,1,0,1,0,32705.4,0.0836983,0.0833651,6.81841,17,0.00360841,10,0.000568417,-2.16632,0.429221,0.137458,36.5734,0.0833651,
2,1,0,1,0,32705.5,0.0856959,0.0853809,6.89009,17,0.00374567,10,0.000588282,-2.16178,0.462287,0.127626,34.3003,0.0853809,
2,1,0,1,0,32705.5,0.0876935,0.087344,6.95488,17,0.00388429,10,0.000607467,-2.15771,0.500856,0.117798,31.9636,0.087344,
2,1,0,1,0,32705.5,0.0896911,0.0893095,7.01567,17,0.00402414,10,0.000626566,-2.15393,0.442339,0.133382,36.5867,0.0893095,
2,1,0,1,0,32705.5,0.0916887,0.0913827,7.10265,17,0.00416476,10,0.000649059,-2.14858,0.424181,0.139092,38.5035,0.0913827,
2,1,0,1,0,32705.5,0.0936863,0.0933457,7.17107,17,0.00430767,10,0.000669389,-2.14442,0.486463,0.121284,33.9346,0.0933457,
2,1,0,1,0,32705.6,0.0956838,0.0953238,7.23639,17,0.00445195,10,0.0006898,-2.14048,0.439161,0.134347,37.9969,0.0953238,
2,1,0,1,0,32705.6,0.0976814,0.0973549,7.32341,17,0.00459769,10,0.00071297,-2.13529,0.355995,0.165733,47.4226,0.0973549,
2,1,0,1,0,32705.6,0.099679,0.0993677,7.42816,17,0.00474453,10,0.000738119,-2.12912,0.365313,0.161505,46.7443,0.09936773,
2,1,0,1,0,32705.6,0.101677,0.101339,7.50965,17,0.00489409,10,0.000761021,-2.12438,0.342043,0.172493,50.6832,0.101339,
2,1,0,1,0,32705.6,0.103674,0.103359,7.63047,17,0.00504572,10,0.000788682,-2.11745,0.28101,0.209957,62.5522,0.103359,
2,1,0,1,0,32705.7,0.105672,0.105335,7.75957,17,0.00519979,10,0.000817352,-2.11016,0.267743,0.220361,66.7568,0.105335,
2,1,0,1,0,32705.7,0.107667,0.107335,7.89589,17,0.00535563,10,0.000847509,-2.1026,0.270279,0.218293,67.2496,0.1073354,
2,1,0,1,0,32705.7,0.109667,0.10935,8.02958,17,0.00551504,10,0.000878031,-2.09531,0.261088,0.225977,70.8679,0.10935,
2,1,0,1,0,32705.7,0.111665,0.111303,8.17704,17,0.00567726,10,0.000910125,-2.0874,0.244398,0.24141,77.0864,0.111303,
2,1,0,1,0,32705.7,0.113662,0.113329,8.33633,17,0.00584252,10,0.000944746,-2.07903,0.245202,0.240618,78.2523,0.113329,
2,1,0,1,0,32705.8,0.11566,0.115316,8.4911,17,0.0060109,10,0.000979161,-2.07104,0.234969,0.251097,83.311,0.115316,
2,1,0,1,0,32705.8,0.117657,0.117321,8.66892,17,0.0061819,10,0.00101705,-2.06204,0.244114,0.24169,81.6188,0.117321,
2,1,0,1,0,32705.8,0.119655,0.119309,8.81697,17,0.00635696,10,0.00105194,-2.05468,0.284517,0.207369,71.3268,0.119309,
2,1,0,1,0,32705.8,0.121652,0.121396,8.95959,17,0.0065349,10,0.00108766,-2.04771,0.289882,0.203531,71.1686,0.121396,
2,1,0,1,0,32705.8,0.12365,0.123341,9.10398,17,0.00671576,10,0.0011229,-2.04077,0.28915,0.204046,72.4737,0.123341,
2,1,0,1,0,32705.9,0.125648,0.125318,9.24383,17,0.0068986,10,0.00115842,-2.03415,0.336546,0.17531,63.1471,0.125318,
2,1,0,1,0,32705.9,0.127645,0.127338,9.35635,17,0.00708483,10,0.00119142,-2.02889,0.374427,0.157574,57.5483,0.127338,
2,1,0,1,0,32705.9,0.129643,0.129303,9.47316,17,0.00727329,10,0.00122491,-2.02351,0.405231,0.145596,53.7682,0.129303,
2,1,0,1,0,32705.9,0.13164,0.131306,9.56971,17,0.00746397,10,0.00125656,-2.0191,0.451812,0.130585,48.7724,0.131306,
2,1,0,1,0,32705.9,0.133638,0.133292,9.66769,17,0.00765567,10,0.00128862,-2.01468,0.501694,0.117602,44.3347,0.133292,
2,1,0,1,0,32706,0.135636,0.135382,9.75042,17,0.00785,10,0.00132003,-2.01098,0.598864,0.0985199,37.4625,0.135382,
2,1,0,1,0,32706,0.137633,0.137342,9.81944,17,0.00804585,10,0.00134862,-2.00791,0.667087,0.0884442,33.8865,0.137342,
2,1,0,1,0,32706,0.139631,0.13934,9.88455,17,0.00824309,10,0.00137732,-2.00504,0.79727,0.0740026,28.5222,0.1393403,
2,1,0,1,0,32706,0.141628,0.141302,9.93237,17,0.00844043,10,0.00140346,-2.00295,1.00806,0.0585282,22.6815,0.141302,
2,1,0,1,0,32706,0.143626,0.143344,9.97535,17,0.00863972,10,0.0014299,-2.00107,1.86721,0.031598,12.2787,0.143344,
2,1,0,1,0,32706.1,0.145623,0.145321,9.98172,17,0.00883946,10,0.00145055,-2.00079,-3.0828,-0.0191385,-7.43972,0.145321,
2,1,0,1,0,32706.1,0.147621,0.147306,9.94587,17,0.00903884,10,0.00146509,-2.00236,-1.02771,-0.0574092,-22.2647,0.147306,
2,1,0,1,0,32706.1,0.149619,0.149299,9.89315,17,0.00923646,10,0.00147704,-2.00467,-0.55709,-0.105908,-40.7667,0.149299,
2,1,0,1,0,32706.1,0.151616,0.151354,9.78086,17,0.00943339,10,0.00148037,-2.00962,-0.314002,-0.187897,-71.4994,0.151354,
2,1,0,1,0,32706.1,0.153614,0.153274,9.6089,17,0.00962745,10,0.0014728,-2.01733,-0.22127,-0.266643,-99.7081,0.153274,
2,1,0,1,0,32706.2,0.155611,0.155324,9.385,17,0.00981754,10,0.00145772,-2.02757,-0.17926,-0.32913,-120.243,0.155324,
2,1,0,1,0,32706.2,0.157609,0.15736,9.11762,17,0.0100018,10,0.00143475,-2.04012,-0.136943,-0.430837,-152.697,0.1573602,
2,1,0,1,0,32706.2,0.159607,0.159257,8.78451,17,0.010181,10,0.00139899,-2.05628,-0.111837,-0.527555,-180.419,0.1592568,
2,1,0,1,0,32706.2,0.161604,0.16124,8.4176,17,0.0103532,10,0.00135726,-2.07481,-0.104555,-0.564298,-185.079,0.16124,
2,1,0,1,0,32706.2,0.163602,0.163309,8.03462,17,0.0105179,10,0.00131212,-2.09503,-0.0970555,-0.6079,-190.344,0.163309,
2,1,0,1,0,32706.3,0.165606,0.165319,7.64118,17,0.0106747,10,0.00126323,-2.11684,-0.0905237,-0.651763,-194.304,0.1653192,
2,1,0,1,0,32706.3,0.167597,0.167314,7.25634,17,0.010823,10,0.00121409,-2.13928,-0.0902075,-0.654047,-185.448,0.167314,
2,1,0,1,0,32706.3,0.169595,0.169306,6.90181,17,0.0109647,10,0.00116852,-2.16104,-0.0908747,-0.649246,-174.896,0.169306,
2,1,0,1,0,32706.3,0.171592,0.171293,6.56038,17,0.0110995,10,0.00112375,-2.18307,-0.0928139,-0.63568,-163.172,0.171293,
2,1,0,1,0,32706.3,0.173581,0.173221,6.26296,17,0.0112271,10,0.00108488,-2.20322,-0.102768,-0.574109,-140.605,0.173221,
2,1,0,1,0,32706.4,0.175587,0.175287,5.99883,17,0.0113499,10,0.00105152,-2.22193,-0.113549,-0.519598,-121.913,0.1752871,
2,1,0,1,0,32706.4,0.177585,0.177283,5.76779,17,0.0114677,10,0.00102253,-2.23899,-0.117969,-0.50013,-112.657,0.177283,
2,1,0,1,0,32706.4,0.179582,0.179266,5.55059,17,0.0115809,10,0.000995031,-2.25566,-0.130744,-0.451263,-98.106,0.179266,
2,1,0,1,0,32706.4,0.18158,0.181257,5.37795,17,0.0116903,10,0.00097479,-2.26938,-0.151693,-0.388944,-81.7302,0.181257,
2,1,0,1,0,32706.4,0.183578,0.183293,5.22142,17,0.0117959,10,0.000957052,-2.28221,-0.160532,-0.367529,-74.9653,0.1832934,
2,1,0,1,0,32706.5,0.185575,0.185261,5.07779,17,0.011899,10,0.000940715,-2.29432,-0.173726,-0.339615,-67.4091,0.185261,
2,1,0,1,0,32706.5,0.187573,0.187279,4.95276,17,0.0119993,10,0.000927547,-2.30515,-0.194547,-0.303269,-58.7011,0.187279,
2,1,0,1,0,32706.5,0.18957,0.189253,4.84342,17,0.0120974,10,0.000916634,-2.31485,-0.215422,-0.273882,-51.8326,0.189253,
2,1,0,1,0,32706.5,0.191568,0.191244,4.74723,17,0.012193,10,0.00090788,-2.32356,-0.234816,-0.251261,-46.5782,0.1912441,
2,1,0,1,0,32706.5,0.193566,0.193238,4.65781,17,0.0122872,10,0.000900067,-2.33182,-0.261484,-0.225635,-41.0691,0.193238,
2,1,0,1,0,32706.6,0.195563,0.195281,4.58144,17,0.0123798,10,0.000894668,-2.339,-0.274233,-0.215145,-38.4614,0.195281,
2,1,0,1,0,32706.6,0.197561,0.197227,4.50441,17,0.0124708,10,0.000888389,-2.34636,-0.323684,-0.182277,-32.1372,0.197227,
2,1,0,1,0,32706.6,0.199558,0.199232,4.45446,17,0.0125601,10,0.000887472,-2.3512,-0.366462,-0.160999,-27.9497,0.199232,
2,1,0,1,0,32706.6,0.201556,0.201228,4.39256,17,0.0126487,10,0.000883908,-2.35728,-0.35091,-0.168134,-28.8495,0.201228,
2,1,0,1,0,32706.6,0.203553,0.203226,4.33924,17,0.0127362,10,0.000881847,-2.36259,-0.379185,-0.155597,-26.3517,0.203226,
2,1,0,1,0,32706.7,0.205551,0.205236,4.28694,17,0.0128226,10,0.000879837,-2.36785,-0.528988,-0.111534,-18.724,0.205236,
2,1,0,1,0,32706.7,0.207549,0.207237,4.26414,17,0.0129079,10,0.000883688,-2.37017,-0.623202,-0.0946723,-15.7225,0.207237,
2,1,0,1,0,32706.7,0.209546,0.209247,4.22389,17,0.0129929,10,0.000883836,-2.37429,-0.447649,-0.1318,-21.7089,0.209247,
2,1,0,1,0,32706.7,0.211544,0.211246,4.1771,17,0.013077,10,0.000882398,-2.37912,-0.493703,-0.119505,-19.5157,0.211246,
2,1,0,1,0,32706.7,0.213541,0.21328,4.14517,17,0.0131603,10,0.000884084,-2.38246,-0.696273,-0.0847369,-13.7232,0.21328,
2,1,0,1,0,32706.8,0.215539,0.215226,4.12249,17,0.0132427,10,0.000887267,-2.38484,-0.659508,-0.0894606,-14.3726,0.215226,
2,1,0,1,0,32706.8,0.217537,0.217246,4.08817,17,0.0133249,10,0.00088814,-2.38847,-0.624115,-0.0945338,-15.0982,0.217246,
2,1,0,1,0,32706.8,0.219534,0.219207,4.06238,17,0.0134066,10,0.000890503,-2.39122,-0.796403,-0.0740831,-11.7521,0.219207,
2,1,0,1,0,32706.8,0.221532,0.221225,4.04141,17,0.0134878,10,0.000894061,-2.39347,-0.80993,-0.0728458,-11.4828,0.221225,
2,1,0,1,0,32706.8,0.223525,0.223262,4.01582,17,0.013568,10,0.00089658,-2.39623,-0.778829,-0.0757548,-11.8776,0.223262,
2,1,0,1,0,32706.9,0.225527,0.225246,3.99366,17,0.0136483,10,0.000899554,-2.39863,-0.927313,-0.0636247,-9.92229,0.225246,
2,1,0,1,0,32706.9,0.227525,0.227255,3.9762,17,0.0137282,10,0.000903612,-2.40053,-0.902139,-0.0654002,-10.1421,0.227255,
2,1,0,1,0,32706.9,0.229522,0.229191,3.95364,17,0.0138077,10,0.00090614,-2.403,-0.903918,-0.0652714,-10.078,0.229191,
2,1,0,1,0,32706.9,0.23152,0.231197,3.93647,17,0.0138868,10,0.000910101,-2.40489,-1.59683,-0.0369483,-5.68436,0.2311969,
2,1,0,1,0,32706.9,0.233517,0.233262,3.9305,17,0.0139653,10,0.000916835,-2.40555,-1.18867,-0.0496353,-7.59581,0.233262,
2,1,0,1,0,32707,0.235515,0.235212,3.90597,17,0.0140438,10,0.000918733,-2.40827,-0.955453,-0.0617508,-9.42702,0.235212,
2,1,0,1,0,32707,0.237512,0.23724,3.893,17,0.014122,10,0.000923575,-2.40972,-1.51466,-0.0389527,-5.91993,0.23724,
2,1,0,1,0,32707,0.23951,0.239196,3.88239,17,0.0141998,10,0.000928651,-2.4109,-2.08028,-0.0283616,-4.29951,0.239196,
2,1,0,1,0,32707,0.241508,0.241234,3.87583,17,0.0142772,10,0.00093498,-2.41164,-1.27324,-0.0463384,-6.99587,0.2412338,
2,1,0,1,0,32707,0.243505,0.243177,3.85454,17,0.0143546,10,0.000937335,-2.41403,-1.38049,-0.0427385,-6.44325,0.243177,
2,1,0,1,0,32707.1,0.245503,0.245218,3.85015,17,0.0144318,10,0.000944128,-2.41452,-1.73509,-0.034004,-5.10156,0.245218,
2,1,0,1,0,32707.1,0.2475,0.247216,3.83394,17,0.0145088,10,0.00094781,-2.41636,-1.38978,-0.0424528,-6.35792,0.2472159,
2,1,0,1,0,32707.1,0.249498,0.249203,3.82482,17,0.0145851,10,0.000953157,-2.41739,-1.8205,-0.0324087,-4.837,0.249203,
2,1,0,1,0,32707.1,0.251496,0.251203,3.81465,17,0.0146617,10,0.000958252,-2.41855,-1.56901,-0.0376033,-5.59681,0.251203,
2,1,0,1,0,32707.1,0.253493,0.253161,3.80267,17,0.014738,10,0.000962687,-2.41991,-1.29526,-0.0455507,-6.75744,0.253161,
2,1,0,1,0,32707.2,0.255491,0.255174,3.78782,17,0.0148141,10,0.000966552,-2.42161,-2.88562,-0.0204462,-3.02952,0.255174,
2,1,0,1,0,32707.2,0.257488,0.25715,3.79058,17,0.0148896,10,0.000974747,-2.42129,-3.38157,-0.0174475,-2.57568,0.25715,
2,1,0,1,0,32707.2,0.259486,0.259196,3.77746,17,0.0149655,10,0.000979102,-2.4228,-1.14581,-0.0514918,-7.58661,0.259196,
2,1,0,1,0,32707.2,0.261484,0.261186,3.75996,17,0.015041,10,0.000982049,-2.42482,-1.54856,-0.0381,-5.60017,0.261186,
2,1,0,1,0,32707.2,0.263481,0.263184,3.75513,17,0.0151164,10,0.000988288,-2.42538,-15.6795,-0.00376289,-0.552002,0.263184,
2,1,0,1,0,32707.3,0.265479,0.265187,3.75775,17,0.0151912,10,0.000996507,-2.42507,-2.05455,-0.0287167,-4.19898,0.265187,
2,1,0,1,0,32707.3,0.267476,0.267208,3.73823,17,0.0152663,10,0.000998884,-2.42733,-1.11975,-0.0526904,-7.69574,0.267208,
2,1,0,1,0,32707.3,0.269474,0.269161,3.72717,17,0.0153411,10,0.00100321,-2.42862,-2.64276,-0.0223251,-3.25148,0.2691614,
2,1,0,1,0,32707.3,0.271471,0.271131,3.72547,17,0.0154158,10,0.00101009,-2.42882,-8.49118,-0.00694839,-1.01016,0.271131,
2,1,0,1,0,32707.3,0.273469,0.273166,3.72312,17,0.01549,10,0.00101703,-2.42909,-1.84126,-0.0320432,-4.64718,0.273166,
2,1,0,1,0,32707.4,0.275467,0.275153,3.70678,17,0.0155644,10,0.00101993,-2.431,-1.44439,-0.0408478,-5.91644,0.275153,
2,1,0,1,0,32707.4,0.277464,0.277151,3.69954,17,0.0156386,10,0.00102533,-2.43185,-1.69788,-0.0347493,-5.01333,0.277151,
2,1,0,1,0,32707.4,0.279462,0.279161,3.68669,17,0.0157126,10,0.00102918,-2.43336,-1.44398,-0.0408594,-5.88052,0.279161,
2,1,0,1,0,32707.4,0.281464,0.281162,3.67596,17,0.0157864,10,0.00103354,-2.43463,-2.02244,-0.0291727,-4.18794,0.281162,
2,1,0,1,0,32707.4,0.283457,0.283109,3.67015,17,0.0158597,10,0.00103905,-2.43532,-2.94814,-0.0200126,-2.86656,0.283109,
2,1,0,1,0,32707.5,0.285455,0.285156,3.66451,17,0.0159332,10,0.00104496,-2.43598,-1.58157,-0.0373048,-5.32766,0.285156,
2,1,0,1,0,32707.5,0.287452,0.287146,3.64864,17,0.0160065,10,0.00104769,-2.43787,-1.5793,-0.0373583,-5.3273,0.287146,
2,1,0,1,0,32707.5,0.28945,0.289136,3.64331,17,0.0160795,10,0.00105341,-2.4385,-4.99134,-0.0118205,-1.68164,0.289136,
2,1,0,1,0,32707.5,0.291447,0.291116,3.64197,17,0.0161522,10,0.00106024,-2.43866,-1.62667,-0.0362705,-5.14275,0.291116,
2,1,0,1,0,32707.5,0.293445,0.293098,3.62293,17,0.016225,10,0.00106188,-2.44094,-1.31063,-0.0450165,-6.37575,0.293098,
2,1,0,1,0,32707.6,0.295442,0.295157,3.6162,17,0.0162976,10,0.00106735,-2.44175,-3.60694,-0.0163573,-2.30982,0.295157,
2,1,0,1,0,32707.6,0.29744,0.297122,3.61364,17,0.0163701,10,0.00107369,-2.44206,-2.71388,-0.0217401,-3.06294,0.297122,
2,1,0,1,0,32707.6,0.299438,0.299171,3.60391,17,0.0164421,10,0.00107819,-2.44323,-0.0298454,-1.97685,-255.239,0.299171,
2,1,0,1,0,32707.6,0.299737,0.299445,3.02072,17,0.0164713,10,0.00090454,-2.51989,0.00308723,19.111,1509.22,0.299445,
2,1,0,1,0,32707.6,0.29774,0.29744,0.990578,17,0.016508,10,0.000294637,-3.00411,0.0017872,33.0126,739.669,0.29744,
2,1,0,1,0,32707.6,0.295742,0.295383,0.0161149,17,0.016517,10,4.76007e-06,-4.79277,0.0157007,3.75779,384.418,0.295383,
2,0,0,1,0,32707.7,0.293745,0.293431,-0.550292,17,0.0165111,10,-0.000161473,-3.25941,-0.00225156,-26.2041,234.959,0.293431,
2,0,0,1,0,32707.7,0.291747,0.291438,-0.910853,17,0.0164962,10,-0.000265457,-3.04055,-0.0121834,-4.84264,155.484,0.291438,
2,0,0,1,0,32707.7,0.289754,0.289427,-1.17289,17,0.0164754,10,-0.000339467,-2.93074,-0.023402,-2.52115,109.977,0.289427,
2,0,0,1,0,32707.7,0.287752,0.28741,-1.35381,17,0.01645,10,-0.000389098,-2.86844,-0.0387006,-1.52452,78.9277,0.28741,
2,0,0,1,0,32707.7,0.285754,0.28537,-1.49313,17,0.0164215,10,-0.000426094,-2.8259,-0.0536243,-1.10025,63.3628,0.28537,
2,0,0,1,0,32707.8,0.283757,0.283453,-1.60457,17,0.0163905,10,-0.00045482,-2.79464,-0.0677126,-0.87133,54.3183,0.283453,
2,0,0,1,0,32707.8,0.281759,0.281445,-1.70631,17,0.0163573,10,-0.000480232,-2.76794,-0.0871636,-0.676888,44.7213,0.281445,
2,0,0,1,0,32707.8,0.279761,0.279431,-1.78444,17,0.0163224,10,-0.000498626,-2.7485,-0.105303,-0.56029,38.9876,0.279431,
2,0,0,1,0,32707.8,0.277764,0.277453,-1.86194,17,0.0162859,10,-0.000516602,-2.73003,-0.120195,-0.490869,35.5126,0.277453,
2,0,0,1,0,32707.8,0.275766,0.275477,-1.92485,17,0.016248,10,-0.000530253,-2.7156,-0.156544,-0.376892,28.2192,0.275477,
2,0,0,1,0,32707.9,0.273769,0.273404,-1.97621,17,0.0162089,10,-0.000540304,-2.70417,-0.15637,-0.377311,29.2048,0.273404,
2,0,0,1,0,32707.9,0.271771,0.271433,-2.04294,17,0.0161688,10,-0.000554522,-2.68974,-0.154978,-0.3807,30.2371,0.271433,
2,0,0,1,0,32707.9,0.269774,0.269468,-2.09521,17,0.0161274,10,-0.000564593,-2.67877,-0.209672,-0.281392,22.9291,0.269468,
2,0,0,1,0,32707.9,0.267776,0.267483,-2.13353,17,0.016085,10,-0.000570681,-2.6709,-0.236623,-0.249342,20.7926,0.267483,
2,0,0,1,0,32707.9,0.265778,0.265448,-2.1788,17,0.0160419,10,-0.000578358,-2.66178,-0.214892,-0.274557,23.3619,0.265448,
2,0,0,1,0,32708,0.263781,0.263451,-2.22772,17,0.0159979,10,-0.000586894,-2.65214,-0.229457,-0.257128,22.3134,0.263451,
2,0,0,1,0,32708,0.261783,0.261408,-2.26895,17,0.0159529,10,-0.000593122,-2.64417,-0.289983,-0.20346,17.9695,0.261408,
2,0,0,1,0,32708,0.259786,0.259498,-2.29874,17,0.0159072,10,-0.00059652,-2.63851,-0.267687,-0.220406,19.8501,0.259498,
2,0,0,1,0,32708,0.257788,0.257484,-2.34685,17,0.0158607,10,-0.000604275,-2.62952,-0.2695,-0.218924,19.9826,0.257484,
2,0,0,1,0,32708,0.25579,0.255465,-2.37934,17,0.0158137,10,-0.000607838,-2.62354,-0.341905,-0.172562,16.021,0.255465,
2,0,0,1,0,32708.1,0.253793,0.253462,-2.41128,17,0.0157658,10,-0.000611168,-2.61775,-0.354387,-0.166485,15.6621,0.253462,
2,0,0,1,0,32708.1,0.251795,0.251464,-2.442,17,0.0157173,10,-0.000614076,-2.61225,-0.343482,-0.17177,16.3833,0.251464,
2,0,0,1,0,32708.1,0.249798,0.249459,-2.47687,17,0.0156681,10,-0.000617876,-2.6061,-0.347967,-0.169556,16.3756,0.2494587,
2,0,0,1,0,32708.1,0.2478,0.247455,-2.50765,17,0.0156185,10,-0.000620531,-2.60073,-0.378444,-0.155901,15.2559,0.247455,
2,0,0,1,0,32708.1,0.245802,0.24544,-2.53818,17,0.015568,10,-0.00062297,-2.59548,-0.396887,-0.148657,14.7177,0.24544,
2,0,0,1,0,32708.2,0.243805,0.243474,-2.56624,17,0.0155169,10,-0.000624813,-2.5907,-0.459819,-0.128311,12.8364,0.243474,
2,0,0,1,0,32708.2,0.241807,0.2415,-2.58875,17,0.0154653,10,-0.000625183,-2.58691,-0.397738,-0.148339,15.0288,0.2415,
2,0,0,1,0,32708.2,0.23981,0.239497,-2.62602,17,0.0154134,10,-0.000628923,-2.5807,-0.364661,-0.161794,16.5562,0.239497,
2,0,0,1,0,32708.2,0.237812,0.237465,-2.65555,17,0.0153606,10,-0.000630601,-2.57585,-0.458883,-0.128573,13.3106,0.237465,
2,0,0,1,0,32708.2,0.235815,0.235478,-2.67951,17,0.0153073,10,-0.000630965,-2.57194,-0.511982,-0.115238,12.0506,0.235478,
2,0,0,1,0,32708.3,0.233817,0.233485,-2.70351,17,0.0152535,10,-0.00063123,-2.56807,-0.462262,-0.127633,13.4803,0.233485,
2,0,0,1,0,32708.3,0.231815,0.231495,-2.7332,17,0.0151992,10,-0.000632722,-2.56333,-0.448315,-0.131604,14.0287,0.231495,
2,0,0,1,0,32708.3,0.229822,0.229495,-2.75949,17,0.0151445,10,-0.000633289,-2.55917,-0.525696,-0.112232,12.0779,0.229495,
2,0,0,1,0,32708.3,0.227824,0.227464,-2.78189,17,0.0150891,10,-0.000632779,-2.55566,-0.539314,-0.109398,11.8832,0.227464,
2,0,0,1,0,32708.3,0.225827,0.225478,-2.80722,17,0.0150333,10,-0.000632967,-2.55172,-0.543103,-0.108635,11.8943,0.225478,
2,0,0,1,0,32708.4,0.223829,0.223487,-2.82919,17,0.0149769,10,-0.000632287,-2.54834,-0.512149,-0.115201,12.7351,0.223487,
2,0,0,1,0,32708.4,0.221831,0.221482,-2.85811,17,0.0149202,10,-0.000633021,-2.54392,-0.471852,-0.125039,13.9408,0.221482,
2,0,0,1,0,32708.4,0.219834,0.219515,-2.88456,17,0.0148628,10,-0.000633205,-2.53992,-0.499441,-0.118132,13.2969,0.219515,
2,0,0,1,0,32708.4,0.217836,0.217553,-2.91036,17,0.0148048,10,-0.000633157,-2.53605,-0.637332,-0.0925735,10.4975,0.217553,
2,0,0,1,0,32708.4,0.215839,0.215498,-2.92674,17,0.0147464,10,-0.000630705,-2.53362,-0.535391,-0.1102,12.6262,0.215498,
2,0,0,1,0,32708.5,0.213841,0.213508,-2.96143,17,0.0146877,10,-0.000632289,-2.5285,-0.473693,-0.124553,14.3649,0.213508,
2,0,0,1,0,32708.5,0.211843,0.211525,-2.98381,17,0.0146283,10,-0.000631149,-2.52523,-0.615855,-0.0958017,11.1554,0.211525,
2,0,0,1,0,32708.5,0.209846,0.209516,-3.00596,17,0.0145684,10,-0.000629798,-2.52202,-0.635255,-0.092876,10.8946,0.209516,
2,0,0,1,0,32708.5,0.207848,0.207497,-3.02769,17,0.0145081,10,-0.000628236,-2.51889,-0.440281,-0.134005,15.8858,0.207497,
2,0,0,1,0,32708.5,0.205851,0.205526,-3.06935,17,0.0144473,10,-0.000630831,-2.51295,-0.478606,-0.123275,14.7073,0.205526,
2,0,0,1,0,32708.6,0.203853,0.203498,-3.0865,17,0.0143858,10,-0.000628096,-2.51053,-0.677553,-0.0870781,10.5021,0.203498,
2,0,0,1,0,32708.6,0.201856,0.201522,-3.1114,17,0.0143239,10,-0.000627015,-2.50704,-0.590034,-0.0999943,12.139,0.201522,
2,0,0,1,0,32708.6,0.199858,0.199518,-3.13481,17,0.0142614,10,-0.000625452,-2.50379,-0.502512,-0.11741,14.3882,0.199518,
2,0,0,1,0,32708.6,0.19786,0.197527,-3.16888,17,0.0141986,10,-0.000625939,-2.49909,-0.539551,-0.10935,13.4935,0.197527,
2,0,0,1,0,32708.6,0.195863,0.195501,-3.18902,17,0.0141351,10,-0.000623456,-2.49634,-0.528693,-0.111596,13.9222,0.195501,
2,0,0,1,0,32708.7,0.193865,0.193524,-3.22461,17,0.014071,10,-0.000624039,-2.49152,-0.514917,-0.114581,14.3882,0.193524,
2,0,0,1,0,32708.7,0.191868,0.191519,-3.24631,17,0.0140063,10,-0.00062173,-2.48861,-0.506127,-0.116572,14.804,0.191519,
2,0,0,1,0,32708.7,0.18987,0.189536,-3.28364,17,0.0139413,10,-0.00062237,-2.48364,-0.506365,-0.116517,14.8959,0.189536,
2,0,0,1,0,32708.7,0.187872,0.187551,-3.30542,17,0.0138754,10,-0.000619934,-2.48077,-0.513644,-0.114865,14.8533,0.187551,
2,0,0,1,0,32708.7,0.185875,0.185522,-3.34327,17,0.0138089,10,-0.00062025,-2.47583,-0.513571,-0.114882,14.9526,0.185522,
2,0,0,1,0,32708.8,0.183877,0.183578,-3.36482,17,0.0137419,10,-0.000617708,-2.47304,-0.430548,-0.137035,18.0696,0.183578,
2,0,0,1,0,32708.8,0.18188,0.181582,-3.41447,17,0.0136745,10,-0.000620005,-2.46668,-0.404964,-0.145692,19.3547,0.181582,
2,0,0,1,0,32708.8,0.179882,0.179515,-3.44346,17,0.0136059,10,-0.000618153,-2.46301,-0.550631,-0.10715,14.3987,0.179515,
2,0,0,1,0,32708.8,0.177885,0.177573,-3.47219,17,0.0135367,10,-0.000616567,-2.4594,-0.445963,-0.132298,17.9626,0.177573,
2,0,0,1,0,32708.8,0.175887,0.175547,-3.51473,17,0.0134668,10,-0.000617002,-2.45411,-0.359061,-0.164318,22.5544,0.175547,
2,0,0,1,0,32708.9,0.173896,0.173574,-3.56237,17,0.0133964,10,-0.000618337,-2.44826,-0.363391,-0.162359,22.5516,0.173574,
2,0,0,1,0,32708.9,0.171892,0.171598,-3.60379,17,0.0133247,10,-0.000618404,-2.44324,-0.375816,-0.156992,22.0983,0.171598,
2,0,0,1,0,32708.9,0.169894,0.169539,-3.65155,17,0.0132522,10,-0.00061908,-2.43752,-0.327211,-0.180312,25.7207,0.169539,
2,0,0,1,0,32708.9,0.167897,0.167593,-3.70682,17,0.0131786,10,-0.000621235,-2.431,-0.296126,-0.19924,28.8357,0.167593,
2,0,0,1,0,32708.9,0.165899,0.165573,-3.76592,17,0.0131039,10,-0.000623533,-2.42413,-0.301328,-0.1958,28.7649,0.165573,
2,0,0,1,0,32709,0.163901,0.163573,-3.82243,17,0.0130284,10,-0.000625248,-2.41766,-0.284866,-0.207115,30.9408,0.163573,
2,0,0,1,0,32709,0.161904,0.161546,-3.8905,17,0.0129513,10,-0.000628495,-2.40999,-0.264718,-0.222879,33.8383,0.161546,
2,0,0,1,0,32709,0.159906,0.159542,-3.95884,17,0.0128728,10,-0.000631602,-2.40243,-0.243736,-0.242065,37.4523,0.159542,
2,0,0,1,0,32709,0.157909,0.157572,-4.03933,17,0.0127929,10,-0.000636487,-2.39369,-0.210431,-0.280377,44.2716,0.157572,
2,0,0,1,0,32709,0.155911,0.155579,-4.13432,17,0.0127115,10,-0.000643211,-2.3836,-0.187538,-0.314604,50.8269,0.155579,
2,0,0,1,0,32709.1,0.153913,0.153591,-4.24167,17,0.0126277,10,-0.000651484,-2.37246,-0.185278,-0.318441,52.6772,0.153591,
2,0,0,1,0,32709.1,0.151916,0.151583,-4.34478,17,0.0125419,10,-0.000658595,-2.36203,-0.170429,-0.346186,58.8819,0.151583,
2,0,0,1,0,32709.1,0.149918,0.149597,-4.47688,17,0.0124537,10,-0.000669727,-2.34902,-0.14741,-0.400244,70.0329,0.149597,
2,0,0,1,0,32709.1,0.147921,0.147581,-4.62506,17,0.0123631,10,-0.000682572,-2.33488,-0.137923,-0.427774,77.2924,0.147581,
2,0,0,1,0,32709.1,0.145923,0.145596,-4.78608,17,0.012269,10,-0.000696837,-2.32002,-0.12802,-0.460865,86.2469,0.145596,
2,0,0,1,0,32709.2,0.143926,0.143588,-4.96945,17,0.0121715,10,-0.000713553,-2.30369,-0.113524,-0.519715,101.123,0.143588,
2,0,0,1,0,32709.2,0.141928,0.141596,-5.19062,17,0.0120699,10,-0.000734971,-2.28478,-0.104313,-0.565604,114.665,0.141596,
2,0,0,1,0,32709.2,0.13993,0.139602,-5.42655,17,0.0119643,10,-0.000757555,-2.26548,-0.103904,-0.567831,120.28,0.139602,
2,0,0,1,0,32709.2,0.137933,0.137596,-5.67176,17,0.0118534,10,-0.00078041,-2.24628,-0.0997856,-0.591268,131.075,0.137596,
2,0,0,1,0,32709.2,0.135935,0.13567,-5.94188,17,0.0117374,10,-0.000806136,-2.22608,-0.0972953,-0.606402,140.83,0.13567,
2,0,0,1,0,32709.3,0.133938,0.13357,-6.23876,17,0.0116155,10,-0.000833309,-2.2049,-0.095379,-0.618585,150.658,0.13357,
2,0,0,1,0,32709.3,0.13194,0.131639,-6.54926,17,0.0114884,10,-0.000862135,-2.18381,-0.0957985,-0.615876,157.255,0.131639,
2,0,0,1,0,32709.3,0.129942,0.129644,-6.85603,17,0.0113544,10,-0.000888846,-2.16393,-0.104254,-0.565926,151.239,0.129644,
2,0,0,1,0,32709.3,0.127945,0.127634,-7.15492,17,0.0112143,10,-0.00091321,-2.1454,-0.110306,-0.534877,149.275,0.127634,
2,0,0,1,0,32709.3,0.125947,0.125636,-7.45437,17,0.0110682,10,-0.000936537,-2.12759,-0.112429,-0.524778,152.666,0.125636,
2,0,0,1,0,32709.4,0.12395,0.123659,-7.76183,17,0.0109169,10,-0.000959816,-2.11004,-0.122703,-0.480836,145.291,0.123659,
2,0,0,1,0,32709.4,0.121952,0.121621,-8.03779,17,0.010759,10,-0.00097756,-2.09486,-0.138844,-0.424939,133.068,0.121621,
2,0,0,1,0,32709.4,0.119955,0.119677,-8.29169,17,0.0105957,10,-0.000992321,-2.08136,-0.148551,-0.39717,128.513,0.119677,
2,0,0,1,0,32709.4,0.117957,0.117639,-8.54945,17,0.0104273,10,-0.00100575,-2.06806,-0.159427,-0.370075,123.338,0.117639,
2,0,0,1,0,32709.4,0.115955,0.115615,-8.79265,17,0.0102539,10,-0.00101656,-2.05588,-0.176283,-0.33469,114.628,0.115615,
2,0,0,1,0,32709.5,0.113962,0.113657,-9.00595,17,0.0100768,10,-0.00102359,-2.04547,-0.198636,-0.297026,104.289,0.113657,
2,0,0,1,0,32709.5,0.111964,0.111673,-9.20373,17,0.0098947,10,-0.00102781,-2.03604,-0.226064,-0.260988,93.6341,0.111673,
2,0,0,1,0,32709.5,0.109967,0.109637,-9.38231,17,0.00970883,10,-0.00102865,-2.02769,-0.254052,-0.232236,84.9671,0.109637,
2,0,0,1,0,32709.5,0.107969,0.107624,-9.54776,17,0.00951955,10,-0.00102757,-2.0201,-0.28827,-0.204669,76.155,0.107624,
2,0,0,1,0,32709.5,0.105971,0.105628,-9.68763,17,0.00932817,10,-0.00102328,-2.01378,-0.34634,-0.170353,64.3311,0.105628,
2,0,0,1,0,32709.6,0.103974,0.103611,-9.80595,17,0.00913322,10,-0.001016,-2.00851,-0.435847,-0.135369,51.729,0.103611,
2,0,0,1,0,32709.6,0.101976,0.101595,-9.89624,17,0.0089362,10,-0.00100541,-2.00453,-0.593728,-0.0993722,38.3228,0.1015953,
2,0,0,1,0,32709.6,0.0999786,0.0996506,-9.95771,17,0.00873769,10,-0.000992292,-2.00184,-0.728875,-0.0809466,31.4579,0.0996506,
2,0,0,1,0,32709.6,0.0979811,0.0976677,-10.0198,17,0.00853889,10,-0.00097861,-1.99914,-1.20369,-0.0490158,19.1216,0.0976677,
2,0,0,1,0,32709.6,0.0959835,0.0956428,-10.0343,17,0.00833838,10,-0.000959713,-1.99851,-12.3753,-0.00476755,1.865,0.0956428,
2,0,0,1,0,32709.7,0.0939859,0.0936569,-10.0273,17,0.00813784,10,-0.000939123,-1.99882,2.57769,0.0228887,-8.94755,0.09365689,
2,0,0,1,0,32709.7,0.0919883,0.0916722,-9.99882,17,0.00793761,10,-0.000916614,-2.00005,1.4458,0.0408079,-15.9192,0.0916722,
2,0,0,1,0,32709.7,0.0899907,0.0896939,-9.96418,17,0.00773898,10,-0.000893727,-2.00156,0.809969,0.0728423,-28.2635,0.0896939,
2,0,0,1,0,32709.7,0.0879931,0.0876672,-9.88563,17,0.00754054,10,-0.000866645,-2.005,0.58154,0.101455,-39.1382,0.0876672,
2,0,0,1,0,32709.7,0.0859955,0.0856439,-9.80567,17,0.0073437,10,-0.000839797,-2.00852,0.524762,0.112432,-42.9995,0.0856439,
2,0,0,1,0,32709.8,0.083998,0.0836788,-9.71413,17,0.00714861,10,-0.000812867,-2.0126,0.469613,0.125635,-47.6154,0.0836788,
2,0,0,1,0,32709.8,0.0820004,0.0816875,-9.61729,17,0.00695635,10,-0.000785612,-2.01695,0.429468,0.137379,-51.5283,0.0816875,
2,0,0,1,0,32709.8,0.0800028,0.0796841,-9.50829,17,0.00676512,10,-0.00075766,-2.0219,0.448453,0.131563,-48.8724,0.0796841,
2,0,0,1,0,32709.8,0.0780052,0.0776555,-9.42023,17,0.00657593,10,-0.000731533,-2.02594,0.449746,0.131185,-48.1818,0.0776555,
2,0,0,1,0,32709.8,0.0760076,0.0756588,-9.31434,17,0.00638867,10,-0.000704712,-2.03085,0.452167,0.130483,-47.4914,0.0756588,
2,0,0,1,0,32709.9,0.07401,0.0737027,-9.23251,17,0.00620425,10,-0.000680461,-2.03468,0.503068,0.11728,-42.2483,0.0737027,
2,0,0,1,0,32709.9,0.0720124,0.0716972,-9.14697,17,0.00602048,10,-0.000655812,-2.03872,0.54074,0.10911,-38.9771,0.0716972,
2,0,0,1,0,32709.9,0.0700148,0.0696549,-9.07474,17,0.00583837,10,-0.0006321,-2.04217,0.578341,0.102016,-36.1257,0.06965486,
2,0,0,1,0,32709.9,0.0680173,0.067652,-9.00083,17,0.00565778,10,-0.000608924,-2.04572,0.68134,0.0865941,-30.4618,0.067652,
2,0,0,1,0,32709.9,0.0660106,0.0656574,-8.95297,17,0.00547851,10,-0.000587828,-2.04803,0.663809,0.088881,-31.0092,0.06565737,
2,0,0,1,0,32710,0.0640221,0.0637114,-8.87864,17,0.00530118,10,-0.00056567,-2.05165,0.598313,0.0986106,-34.1945,0.0637114,
2,0,0,1,0,32710,0.0620245,0.0617055,-8.81783,17,0.00512426,10,-0.000544109,-2.05464,0.699437,0.0843536,-29.0366,0.0617055,
2,0,0,1,0,32710,0.0600269,0.0596947,-8.76201,17,0.00494854,10,-0.000523046,-2.0574,0.758418,0.0777935,-26.6088,0.0596947,
2,0,0,1,0,32710,0.0580361,0.057691,-8.71101,17,0.00477478,10,-0.000502547,-2.05993,0.744705,0.079226,-26.9249,0.057691,
2,0,0,1,0,32710,0.0560317,0.0556973,-8.65438,17,0.00460112,10,-0.000482025,-2.06276,0.725874,0.0812814,-27.4588,0.0556973,
2,0,0,1,0,32710.1,0.0540342,0.053707,-8.60162,17,0.0044287,10,-0.000461967,-2.06542,0.755916,0.078051,-26.2032,0.05370697,
2,0,0,1,0,32710.1,0.0520366,0.0517267,-8.55033,17,0.0042573,10,-0.00044228,-2.06802,0.64861,0.0909638,-30.3199,0.0517267,
2,0,0,1,0,32710.1,0.050039,0.0497012,-8.48016,17,0.00408706,10,-0.000421475,-2.0716,0.668874,0.0882079,-29.23,0.0497012,
2,0,0,1,0,32710.1,0.0480414,0.0476751,-8.43191,17,0.00391878,10,-0.000401992,-2.07407,0.731245,0.0806843,-26.5358,0.0476751,
2,0,0,1,0,32710.1,0.0460438,0.0457129,-8.37433,17,0.00375079,10,-0.000382815,-2.07705,0.628546,0.0938675,-30.6665,0.0457129,
2,0,0,1,0,32710.2,0.0440462,0.0437232,-8.31072,17,0.00358402,10,-0.000363371,-2.08036,0.611285,0.0965179,-31.3065,0.0437232,
2,0,0,1,0,32710.2,0.0420486,0.0416896,-8.24837,17,0.00341861,10,-0.000343871,-2.08363,0.666622,0.088506,-28.5073,0.0416896,
2,0,0,1,0,32710.2,0.040051,0.0396943,-8.19586,17,0.00325506,10,-0.000325329,-2.08641,0.63324,0.0931716,-29.7745,0.0396943,
2,0,0,1,0,32710.2,0.0380535,0.037668,-8.12863,17,0.00309195,10,-0.000306189,-2.08998,0.503941,0.117077,-37.1104,0.037668,
2,0,0,1,0,32710.2,0.0360559,0.0357219,-8.04845,17,0.00293035,10,-0.000287506,-2.09429,0.491519,0.120036,-37.7297,0.0357219,
2,0,0,1,0,32710.3,0.0340583,0.0337208,-7.97971,17,0.00277015,10,-0.000269082,-2.09801,0.535365,0.110205,-34.3199,0.0337208,
2,0,0,1,0,32710.3,0.0320607,0.0317206,-7.91112,17,0.00261207,10,-0.000250946,-2.10176,0.476202,0.123897,-38.2122,0.0317206,
2,0,0,1,0,32710.3,0.0300631,0.0297048,-7.82625,17,0.0024548,10,-0.000232477,-2.10645,0.448006,0.131695,-40.2437,0.0297048,
2,0,0,1,0,32710.3,0.0280655,0.0277073,-7.74961,17,0.00229911,10,-0.000214721,-2.11072,0.460629,0.128086,-38.7346,0.0277073,
2,0,0,1,0,32710.3,0.0260679,0.0257197,-7.67189,17,0.00214499,10,-0.000197319,-2.1151,0.418715,0.140907,-42.1584,0.0257197,
2,0,0,1,0,32710.4,0.0240704,0.0237702,-7.58363,17,0.00199332,10,-0.000180265,-2.12012,0.405053,0.14566,-43.1197,0.0237702,
2,0,0,1,0,32710.4,0.0220728,0.0217179,-7.49933,17,0.00184256,10,-0.00016287,-2.12498,0.408572,0.144405,-42.261,0.0217179,
2,0,0,1,0,32710.4,0.0200752,0.0197719,-7.41466,17,0.00169354,10,-0.000146602,-2.12991,0.385561,0.153024,-44.256,0.0197719,
2,0,0,1,0,32710.4,0.0180776,0.0177213,-7.32245,17,0.00154627,10,-0.000129763,-2.13534,0.40566,0.145442,-41.6133,0.0177213,
2,0,0,1,0,32710.4,0.01608,0.0157786,-7.24848,17,0.00140143,10,-0.000114371,-2.13975,0.447079,0.131968,-37.3273,0.01577856,
2,0,0,1,0,32710.5,0.0140824,0.0137254,-7.1733,17,0.00125732,10,-9.84566e-05,-2.14428,0.413458,0.142699,-39.9188,0.0137254,
2,0,0,1,0,32710.5,0.0120848,0.0117574,-7.08796,17,0.00111483,10,-8.33357e-05,-2.14948,0.402974,0.146411,-40.527,0.0117574,
2,0,0,1,0,32710.5,0.0100872,0.00975859,-7.01253,17,0.000973986,10,-6.84324e-05,-2.15412,0.490966,0.120171,-32.9304,0.00975859,
2,0,0,1,0,32710.5,0.00809193,0.00773647,-6.95555,17,0.000835221,10,-5.38114e-05,-2.15767,0.499111,0.11821,-32.0592,0.00773647,
2,0,0,1,0,32710.5,0.00609208,0.00581819,-6.88621,17,0.000696917,10,-4.00653e-05,-2.16202,0.454758,0.129739,-34.8683,0.00581819,
2,0,0,1,0,32710.6,0.00409449,0.00378626,-6.81781,17,0.000559988,10,-2.5814e-05,-2.16635,1.00004,0.0589979,-15.7812,0.00378626,
2,0,0,1,0,32710.6,0.0020969,0.00173611,-6.82179,17,0.000424063,10,-1.18434e-05,-2.1661,0.883404,0.0667871,-17.6766,0.00173611,
2,0,0,1,0,32710.6,9.14991e-05,-0.000284546,-6.74586,17,0.000288589,10,1.91951e-06,-2.17096,0.513659,0.114862,-30.3075,-0.000284546,
2,0,0,1,0,32710.6,-0.00189827,-0.00226518,-6.70052,17,0.000154864,10,1.51779e-05,-2.17389,0.708719,0.0832487,-21.7758,-0.002265177,
2,0,0,1,0,32710.6,-0.00389586,-0.00426437,-6.65919,17,2.14017e-05,10,2.83972e-05,-2.17658,0.899044,0.0656253,-17.0732,-0.00426437,
2,0,0,1,0,32710.7,-0.00589345,-0.00627393,-6.63208,17,-0.000111364,10,4.16092e-05,-2.17835,0.905033,0.065191,-16.8563,-0.00627393,
2,0,0,1,0,32710.7,-0.00789103,-0.00826731,-6.59172,17,-0.000243504,10,5.44958e-05,-2.181,1.30296,0.0452816,-11.6788,-0.00826731,
2,0,0,1,0,32710.7,-0.00988862,-0.0102854,-6.58523,17,-0.00037465,10,6.77319e-05,-2.18143,4.7103,0.0125257,-3.21914,-0.0102854,
2,0,0,1,0,32710.7,-0.0118862,-0.0122744,-6.57882,17,-0.000506188,10,8.07512e-05,-2.18185,2.454,0.0240424,-6.16728,-0.0122744,
2,0,0,1,0,32710.7,-0.0138838,-0.0143064,-6.56043,17,-0.000637485,10,9.38558e-05,-2.18307,3.07781,0.0191695,-4.91444,-0.0143064,
2,0,0,1,0,32710.8,-0.0158814,-0.0162658,-6.5592,17,-0.000768585,10,0.000106691,-2.18315,-5.23599,-0.0112682,2.88753,-0.0162658,
2,0,0,1,0,32710.8,-0.017879,-0.0182558,-6.57183,17,-0.000899219,10,0.000119974,-2.18231,-3.20285,-0.0184211,4.72227,-0.0182558,
2,0,0,1,0,32710.8,-0.0198766,-0.020238,-6.57796,17,-0.00103061,10,0.000133125,-2.18191,-3.96243,-0.0148899,3.82337,-0.020238,
2,0,0,1,0,32710.8,-0.0218741,-0.0222591,-6.58714,17,-0.00116211,10,0.000146624,-2.1813,-1.89597,-0.0311187,8.0084,-0.0222591,
2,0,0,1,0,32710.8,-0.0238717,-0.0242928,-6.61043,17,-0.00129393,10,0.000160586,-2.17977,-1.27322,-0.0463393,11.9564,-0.0242928,
2,0,0,1,0,32710.9,-0.0258693,-0.0263023,-6.63548,17,-0.00142562,10,0.000174528,-2.17813,-1.40142,-0.0421003,10.8967,-0.0263023,
2,0,0,1,0,32710.9,-0.0278669,-0.0282592,-6.65365,17,-0.00155834,10,0.000188027,-2.17694,-1.37139,-0.0430221,11.1781,-0.02825919,
2,0,0,1,0,32710.9,-0.0298645,-0.0302556,-6.67967,17,-0.00169155,10,0.000202097,-2.17524,-1.04726,-0.0563374,14.6929,-0.0302556,
2,0,0,1,0,32710.9,-0.0318621,-0.0322068,-6.71165,17,-0.00182539,10,0.000216161,-2.17317,-0.880392,-0.0670156,17.5616,-0.0322068,
2,0,0,1,0,32710.9,-0.0338597,-0.034246,-6.74975,17,-0.00195921,10,0.000231152,-2.17071,-0.917871,-0.0642792,16.9223,-0.03424599,
2,0,0,1,0,32711,-0.0358573,-0.0362327,-6.77978,17,-0.00209445,10,0.00024565,-2.16878,-0.838082,-0.0703988,18.646,-0.0362327,
2,0,0,1,0,32711,-0.0378548,-0.0382132,-6.82372,17,-0.00223045,10,0.000260757,-2.16598,-0.786697,-0.0749971,19.96,-0.0382132,
2,0,0,1,0,32711,-0.0398524,-0.0402187,-6.85934,17,-0.00236725,10,0.000275873,-2.16372,-0.657375,-0.089751,24.0708,-0.0402187,
2,0,0,1,0,32711,-0.04185,-0.0422411,-6.92068,17,-0.00250425,10,0.000292337,-2.15985,-0.631194,-0.0934737,25.207,-0.0422411,
2,0,0,1,0,32711,-0.0438476,-0.0442353,-6.96059,17,-0.00264299,10,0.000307904,-2.15735,-0.771372,-0.0764871,20.7811,-0.0442353,
2,0,0,1,0,32711.1,-0.0458452,-0.0462004,-7.00296,17,-0.00278263,10,0.000323539,-2.15472,-0.662297,-0.0890839,24.3685,-0.0462004,
2,0,0,1,0,32711.1,-0.0478428,-0.0482302,-7.05794,17,-0.00292317,10,0.000340406,-2.15132,-0.50128,-0.117699,32.4691,-0.0482302,
2,0,0,1,0,32711.1,-0.0498495,-0.0502586,-7.13472,17,-0.00306495,10,0.000358581,-2.14662,-0.512494,-0.115123,31.9937,-0.0502586,
2,0,0,1,0,32711.1,-0.051838,-0.052181,-7.18434,17,-0.00320727,10,0.000374886,-2.14361,-0.628035,-0.0939439,26.3491,-0.05218102,
2,0,0,1,0,32711.1,-0.0538355,-0.0542184,-7.23906,17,-0.00335133,10,0.00039249,-2.14032,-0.606821,-0.097228,27.4717,-0.0542184,
2,0,0,1,0,32711.2,-0.0558331,-0.0562342,-7.29569,17,-0.00349662,10,0.000410267,-2.13693,-0.519078,-0.113663,32.3963,-0.0562342,
2,0,0,1,0,32711.2,-0.0578216,-0.058189,-7.36769,17,-0.00364248,10,0.000428719,-2.13267,-0.475694,-0.124029,35.6559,-0.058189,
2,0,0,1,0,32711.2,-0.0598283,-0.0602018,-7.43716,17,-0.0037905,10,0.00044773,-2.12859,-0.463751,-0.127223,36.9494,-0.0602018,
2,0,0,1,0,32711.2,-0.0618259,-0.0622121,-7.51634,17,-0.00393988,10,0.000467607,-2.12399,-0.448264,-0.131619,38.5982,-0.06221208,
2,0,0,1,0,32711.2,-0.0638235,-0.0642102,-7.59187,17,-0.00409081,10,0.000487475,-2.11965,-0.481955,-0.122418,36.2549,-0.0642102,
2,0,0,1,0,32711.3,-0.0658211,-0.066207,-7.66118,17,-0.00424318,10,0.000507223,-2.1157,-0.452674,-0.130337,39.0112,-0.066207,
2,0,0,1,0,32711.3,-0.0678187,-0.0681957,-7.74735,17,-0.0043965,10,0.000528336,-2.11085,-0.417039,-0.141474,42.7743,-0.0681957,
2,0,0,1,0,32711.3,-0.0698162,-0.0702439,-7.83385,17,-0.00455224,10,0.00055028,-2.10602,-0.432797,-0.136323,41.6588,-0.0702439,
2,0,0,1,0,32711.3,-0.0718138,-0.0721895,-7.91373,17,-0.00470963,10,0.000571288,-2.10162,-0.400988,-0.147137,45.4974,-0.0721895,
2,0,0,1,0,32711.3,-0.0738114,-0.0741875,-8.01328,17,-0.00486879,10,0.000594485,-2.09619,-0.367843,-0.160394,50.1598,-0.0741875,
2,0,0,1,0,32711.4,-0.075809,-0.0761697,-8.11337,17,-0.00502922,10,0.000617993,-2.0908,-0.386914,-0.152488,48.2569,-0.0761697,
2,0,0,1,0,32711.4,-0.0778066,-0.0781639,-8.20517,17,-0.00519238,10,0.000641347,-2.08591,-0.38685,-0.152514,48.8749,-0.07816387,
2,0,0,1,0,32711.4,-0.0798042,-0.0801932,-8.31002,17,-0.00535747,10,0.000666407,-2.0804,-0.360591,-0.16362,53.0683,-0.0801932,
2,0,0,1,0,32711.4,-0.0818018,-0.0821562,-8.41703,17,-0.00552461,10,0.000691511,-2.07484,-0.354648,-0.166362,54.6568,-0.0821562,
2,0,0,1,0,32711.4,-0.0837994,-0.0841734,-8.52757,17,-0.00569315,10,0.000717795,-2.06917,-0.35757,-0.165003,54.9071,-0.0841734,
2,0,0,1,0,32711.5,-0.085797,-0.0861627,-8.63702,17,-0.00586464,10,0.000744188,-2.06364,-0.356907,-0.165309,55.7284,-0.0861627,
2,0,0,1,0,32711.5,-0.0877945,-0.0881552,-8.74947,17,-0.00603841,10,0.000771311,-2.05802,-0.36347,-0.162324,55.4205,-0.0881552,
2,0,0,1,0,32711.5,-0.0897921,-0.0901959,-8.86054,17,-0.00621443,10,0.000799184,-2.05254,-0.366672,-0.160907,55.648,-0.0901959,
2,0,0,1,0,32711.5,-0.0917897,-0.0922017,-8.97465,17,-0.00639179,10,0.000827478,-2.04698,-0.361637,-0.163147,57.1351,-0.0922017,
2,0,0,1,0,32711.5,-0.0937873,-0.0941651,-9.08732,17,-0.00657238,10,0.000855709,-2.04156,-0.374622,-0.157492,55.8425,-0.0941651,
2,0,0,1,0,32711.6,-0.0957849,-0.0961836,-9.19701,17,-0.00675521,10,0.000884601,-2.03635,-0.384922,-0.153278,55.0115,-0.0961836,
2,0,0,1,0,32711.6,-0.0977825,-0.0981409,-9.30604,17,-0.00694015,10,0.000913303,-2.03124,-0.363773,-0.162189,58.9414,-0.0981409,
2,0,0,1,0,32711.6,-0.0997501,-0.100096,-9.42762,17,-0.00712358,10,0.000943669,-2.0256,0.00820958,7.18672,-2295.03,-0.100096,
2,0,0,1,1,32711.6,-0.0987313,-0.0990788,-7.15355,17,-0.00724977,10,0.000708765,-2.14548,-0.0110526,-5.33813,1463.19,-0.0990788,
2,0,0,1,1,32711.6,-0.0967337,-0.0971163,-5.06746,17,-0.00737018,10,0.000492133,-2.29521,-0.0131502,-4.48661,899.616,-0.0971163,
2,0,0,1,1,32711.7,-0.0947362,-0.095064,-3.54173,17,-0.00745527,10,0.000336691,-2.45078,-0.0119575,-4.93416,679.296,-0.095064,
2,0,0,1,1,32711.7,-0.0927386,-0.0930962,-2.33665,17,-0.00751328,10,0.000217533,-2.63141,-0.00929307,-6.34882,560.013,-0.0930962,
2,0,0,1,1,32711.7,-0.090741,-0.0911196,-1.33282,17,-0.00754925,10,0.000121446,-2.87523,-0.00603077,-9.78317,458.531,-0.0911196,
2,0,0,1,1,32711.7,-0.0887434,-0.0891146,-0.510941,17,-0.00756732,10,4.55323e-05,-3.29163,-0.00484978,-12.1655,382.437,-0.0891146,
2,1,0,1,1,32711.7,-0.0867458,-0.0871141,0.199009,17,-0.00757005,10,-1.73365e-05,-3.70113,0.0200557,2.94181,330.142,-0.08711414,
2,1,0,1,1,32711.8,-0.0847482,-0.0851183,0.80841,17,-0.00755961,10,-6.88105e-05,-3.09237,0.00481425,12.2553,285.597,-0.0851183,
2,1,0,1,1,32711.8,-0.0827529,-0.0831331,1.33599,17,-0.00753807,10,-0.000111065,-2.8742,0.0115706,5.09914,246.49,-0.0831331,
2,1,0,1,1,32711.8,-0.080753,-0.0810968,1.79966,17,-0.00750642,10,-0.000145947,-2.74481,0.0183969,3.20706,217.194,-0.0810968,
2,1,0,1,1,32711.8,-0.0787555,-0.0791217,2.20723,17,-0.0074661,10,-0.00017464,-2.65615,0.0259277,2.27556,191.789,-0.0791217,
2,1,0,1,1,32711.8,-0.0767579,-0.0771084,2.56459,17,-0.00741812,10,-0.000197751,-2.59098,0.0343432,1.71795,169.826,-0.0771084,
2,1,0,1,1,32711.9,-0.0747603,-0.0751056,2.88928,17,-0.00736336,10,-0.000217001,-2.53921,0.042699,1.38177,154.303,-0.0751056,
2,1,0,1,1,32711.9,-0.0727627,-0.0731186,3.18023,17,-0.00730263,10,-0.000232534,-2.49754,0.0534954,1.1029,135.649,-0.0731186,
2,1,0,1,1,32711.9,-0.0707651,-0.071126,3.4291,17,-0.0072363,10,-0.000243898,-2.46482,0.0651744,0.905264,120.708,-0.071126,
2,1,0,1,1,32711.9,-0.0687675,-0.0691069,3.66448,17,-0.0071652,10,-0.000253241,-2.43599,0.0760868,0.775431,110.269,-0.0691069,
2,1,0,1,1,32711.9,-0.0667699,-0.0671538,3.86711,17,-0.00708971,10,-0.000259691,-2.41261,0.0911599,0.647215,97.3602,-0.0671538,
2,1,0,1,1,32712,-0.0647723,-0.0651368,4.05101,17,-0.00701061,10,-0.00026387,-2.39244,0.108363,0.544466,85.8421,-0.0651368,
2,1,0,1,1,32712,-0.0627748,-0.0630701,4.21766,17,-0.0069278,10,-0.000266009,-2.37493,0.122791,0.480493,78.8958,-0.0630701,
2,1,0,1,1,32712,-0.0607772,-0.0611245,4.36756,17,-0.00684181,10,-0.000266965,-2.35976,0.141878,0.415849,70.6817,-0.0611245,
2,1,0,1,1,32712,-0.0587796,-0.0591368,4.49568,17,-0.00675307,10,-0.00026586,-2.34721,0.169493,0.348098,60.9746,-0.0591368,
2,1,0,1,1,32712,-0.056782,-0.0571271,4.6113,17,-0.00666229,10,-0.00026343,-2.33618,0.190792,0.309238,55.5827,-0.0571271,
2,1,0,1,1,32712.1,-0.0547844,-0.0551508,4.71723,17,-0.0065688,10,-0.000260159,-2.32631,0.214964,0.274464,50.4601,-0.0551508,
2,1,0,1,1,32712.1,-0.0527868,-0.0531536,4.8118,17,-0.00647331,10,-0.000255765,-2.31769,0.255981,0.230486,43.2048,-0.0531536,
2,1,0,1,1,32712.1,-0.0507892,-0.0511507,4.89005,17,-0.00637614,10,-0.00025013,-2.31069,0.271455,0.217347,41.5134,-0.0511507,
2,1,0,1,1,32712.1,-0.0487916,-0.0491676,4.97727,17,-0.00627779,10,-0.000244721,-2.30301,0.303641,0.194308,37.6456,-0.0491676,
2,1,0,1,1,32712.1,-0.046794,-0.0471856,5.03932,17,-0.00617746,10,-0.000237783,-2.29763,0.407116,0.144922,28.4743,-0.0471856,
2,1,0,1,1,32712.2,-0.0447965,-0.0451333,5.09215,17,-0.00607601,10,-0.000229825,-2.2931,0.451221,0.130756,25.9844,-0.0451333,
2,1,0,1,1,32712.2,-0.0427989,-0.0431195,5.14498,17,-0.00597354,10,-0.000221849,-2.28862,0.446148,0.132243,26.551,-0.0431195,
2,1,0,1,1,32712.2,-0.0408013,-0.0411751,5.19724,17,-0.00587051,10,-0.000213997,-2.28423,0.595049,0.0991515,20.0613,-0.0411751,
2,1,0,1,1,32712.2,-0.0388037,-0.039183,5.22395,17,-0.00576617,10,-0.00020469,-2.282,0.776176,0.0760137,15.51,-0.039183,
2,1,0,1,1,32712.2,-0.0368061,-0.0371688,5.25938,17,-0.0056612,10,-0.000195485,-2.27907,0.776521,0.07598,15.5829,-0.0371688,
2,1,0,1,1,32712.3,-0.0348085,-0.0351688,5.2865,17,-0.00555557,10,-0.00018592,-2.27683,0.860791,0.0685416,14.144,-0.0351688,
2,1,0,1,1,32712.3,-0.0328109,-0.0331772,5.31584,17,-0.00545,10,-0.000176365,-2.27443,1.19363,0.0494291,10.2371,-0.0331772,
2,1,0,1,1,32712.3,-0.0308134,-0.0311982,5.32715,17,-0.00534348,10,-0.000166198,-2.27351,1.72523,0.0341983,7.11355,-0.0311982,
2,1,0,1,1,32712.3,-0.0288158,-0.0292248,5.34395,17,-0.00523666,10,-0.000156176,-2.27214,2.16591,0.0272402,5.67547,-0.0292248,
2,1,0,1,1,32712.3,-0.0268182,-0.0271625,5.35005,17,-0.00512959,10,-0.000145321,-2.27164,2.58466,0.022827,4.76934,-0.0271625,
2,1,0,1,1,32712.4,-0.0248138,-0.0251801,5.36325,17,-0.00502243,10,-0.000135047,-2.27057,2.99584,0.019694,4.11834,-0.0251801,
2,1,0,1,1,32712.4,-0.022823,-0.0231666,5.36651,17,-0.00491553,10,-0.000124324,-2.27031,9.62866,0.00612754,1.28318,-0.0231666,
2,1,0,1,1,32712.4,-0.0208254,-0.0211533,5.36841,17,-0.00480803,10,-0.00011356,-2.27015,162.458,0.000363171,0.0760641,-0.0211533,
2,1,0,1,1,32712.4,-0.0188278,-0.0191633,5.36682,17,-0.00470059,10,-0.000102846,-2.27028,336.019,0.000175585,0.0367878,-0.0191633,
2,1,0,1,1,32712.4,-0.0168393,-0.0172042,5.36856,17,-0.00459371,10,-9.23615e-05,-2.27014,13.5415,0.00435698,0.912878,-0.0172042,
2,1,0,1,1,32712.5,-0.0148327,-0.0151965,5.37044,17,-0.00448613,10,-8.1612e-05,-2.26999,-6.27381,-0.00940417,-1.96889,-0.01519652,
2,1,0,1,1,32712.5,-0.0128351,-0.0131919,5.36066,17,-0.0043787,10,-7.07173e-05,-2.27078,-5.13039,-0.0115001,-2.40815,-0.0131919,
2,1,0,1,1,32712.5,-0.0108375,-0.0111747,5.36075,17,-0.00427139,10,-5.9905e-05,-2.27077,-23.0756,-0.00255682,-0.534805,-0.0111747,
2,1,0,1,1,32712.5,-0.00883989,-0.00921828,5.35853,17,-0.00416406,10,-4.93965e-05,-2.27095,-5.3972,-0.0109316,-2.2851,-0.009218283,
2,1,0,1,1,32712.5,-0.0068423,-0.0072117,5.3517,17,-0.0040573,10,-3.85948e-05,-2.27151,-5.18739,-0.0113737,-2.37643,-0.0072117,
2,1,0,1,1,32712.6,-0.00484471,-0.00518346,5.34894,17,-0.00395015,10,-2.77261e-05,-2.27173,-13.4762,-0.00437809,-0.914095,-0.00518346,
2,1,0,1,1,32712.6,-0.00284713,-0.00320336,5.34803,17,-0.00384308,10,-1.71317e-05,-2.27181,-3.79847,-0.0155326,-3.23858,-0.00320336,
2,1,0,1,1,32712.6,-0.000849538,-0.00122367,5.33612,17,-0.00373611,10,-6.52966e-06,-2.27277, , , ,-0.00122367,
2,1,0,1,1,32712.6,-2.55332e-05,-0.000363498,5.35331,17,-0.00369289,10,-1.94592e-06,-2.27138, , , ,-0.000363498,