File: Figure_codes/Fig_3-5/rawdata_trumpetplot_data/after 10th/20221101_1-115_003_TrumpetPlot_ParaChange_from10_every3_14_CV_C01_6.csv
mode,ox/red,error,control changes,counter inc.,time/s,control/V,Ewe/V,<I>/mA,cycle number,(Q-Qo)/C,I Range,P/W,log(|I|),Tafel slope mV/dec,alpha_eff,dI/d(E-IR),E-IR/V,
2,1,0,1,0,13019.9,2.44065e-05,-0.000306236,41.4284,7,0.0000000E+000,10,-1.26869e-05,-1.3827, , , ,-0.000306236,
2,1,0,1,0,13019.9,0.00332042,0.00297042,42.714,7,0.000130929,10,0.000126879,-1.36943, , , ,0.00297042,
2,1,0,1,0,13019.9,0.0073156,0.00695437,43.759,7,0.000304046,10,0.000304316,-1.35893, , , ,0.00695437,
2,1,0,1,0,13019.9,0.0113108,0.0109489,44.6513,7,0.000480977,10,0.000488884,-1.35017,0.470831,0.12531,217.271,0.0109489,
2,1,0,1,0,13019.9,0.0153059,0.0149583,45.4473,7,0.000661296,10,0.000679815,-1.34249,0.530863,0.11114,196.569,0.0149583,
2,1,0,1,0,13019.9,0.0193011,0.0189507,46.1861,7,0.000844674,10,0.00087526,-1.33549,0.594172,0.0992979,178.522,0.0189507,
2,1,0,1,0,13019.9,0.0233462,0.0230153,46.9161,7,0.00103101,10,0.00107979,-1.32868,0.656464,0.0898754,163.974,0.0230153,
2,1,0,1,0,13019.9,0.0273414,0.0269717,47.5118,7,0.00121993,10,0.00128147,-1.3232,0.726513,0.0812099,150.17,0.0269717,
2,1,0,1,0,13019.9,0.0313366,0.0309821,48.0748,7,0.00141117,10,0.00148946,-1.31808,0.808469,0.0729775,136.699,0.0309821,
2,1,0,1,0,13019.9,0.0353317,0.0350117,48.5979,7,0.00160458,10,0.00170149,-1.31338,0.865003,0.0682078,129.205,0.0350117,
2,1,0,1,0,13019.9,0.0393269,0.03895,49.0944,7,0.00180003,10,0.00191223,-1.30897,0.928409,0.0635496,121.622,0.03895,
2,1,0,1,0,13019.9,0.0433221,0.0429679,49.5785,7,0.00199745,10,0.00213029,-1.30471,0.979144,0.0602567,116.45,0.0429679,
2,1,0,1,0,13019.9,0.0473173,0.0469306,50.0144,7,0.00219669,10,0.00234721,-1.3009,1.03388,0.0570667,111.311,0.0469306,
2,1,0,1,0,13019.9,0.0513124,0.0509305,50.4517,7,0.00239768,10,0.00256953,-1.29712,1.06992,0.0551445,108.554,0.0509305,
2,1,0,1,0,13019.9,0.0553076,0.0549452,50.8748,7,0.00260038,10,0.00279533,-1.2935,1.0486,0.0562655,111.785,0.0549452,
2,1,0,1,0,13019.9,0.0593028,0.058945,51.3129,7,0.00280478,10,0.00302464,-1.28977,1.05867,0.0557301,111.667,0.058945,
2,1,0,1,0,13020,0.0633479,0.0629926,51.8099,7,0.00301102,10,0.00326364,-1.28559,1.06658,0.0553171,111.756,0.06299261,
2,1,0,1,0,13020,0.0673431,0.0669691,52.2427,7,0.00321917,10,0.00349865,-1.28197,1.07171,0.0550521,112.165,0.0669691,
2,1,0,1,0,13020,0.0713382,0.0709923,52.6682,7,0.00342903,10,0.00373904,-1.27845,1.10123,0.0535764,110.154,0.0709923,
2,1,0,1,0,13020,0.0753334,0.0749635,53.1097,7,0.00364062,10,0.00398129,-1.27483,1.09791,0.0537386,111.411,0.0749635,
2,1,0,1,0,13020,0.0793286,0.0789167,53.564,7,0.003854,10,0.0042271,-1.27113,1.03124,0.0572127,119.715,0.0789167,
2,1,0,1,0,13020,0.0833238,0.0828487,54.0118,7,0.0040692,10,0.00447481,-1.26751,0.981524,0.0601106,126.952,0.0828487,
2,1,0,1,0,13020,0.0873189,0.0869154,54.5744,7,0.00428643,10,0.00474335,-1.26301,0.938794,0.0628466,133.998,0.0869154,
2,1,0,1,0,13020,0.0913141,0.0909184,55.1352,7,0.00450589,10,0.0050128,-1.25857,0.889881,0.066301,142.707,0.0909184,
2,1,0,1,0,13020,0.0953093,0.0949702,55.7152,7,0.00472767,10,0.00529128,-1.25403,0.874367,0.0674774,146.799,0.0949702,
2,1,0,1,0,13020,0.0993045,0.0989372,56.3078,7,0.00495177,10,0.00557093,-1.24943,0.847598,0.0696085,153.102,0.0989372,
2,1,0,1,0,13020,0.103319,0.102969,56.931,7,0.00517828,10,0.00586212,-1.24465,0.835909,0.0705819,156.907,0.102969,
2,1,0,1,0,13020,0.107345,0.10701,57.5988,7,0.00540745,10,0.00616366,-1.23959,0.824833,0.0715297,160.756,0.10701,
2,1,0,1,0,13020,0.11134,0.11098,58.2272,7,0.00563915,10,0.00646207,-1.23487,0.807179,0.0730941,166.172,0.11098,
2,1,0,1,0,13020,0.115335,0.114959,58.8833,7,0.00587346,10,0.00676916,-1.23001,0.801741,0.0735899,169.271,0.114959,
2,1,0,1,0,13020,0.11933,0.118993,59.5937,7,0.00611048,10,0.00709122,-1.2248,0.787269,0.0749426,174.353,0.118993,
2,1,0,1,0,13020,0.123325,0.122964,60.2994,7,0.00635033,10,0.00741464,-1.21969,0.767035,0.0769196,181.065,0.122964,
2,1,0,1,0,13020,0.127321,0.126996,61.0196,7,0.00659305,10,0.00774921,-1.21453,0.761916,0.0774363,184.503,0.126996,
2,1,0,1,0,13020,0.131316,0.130915,61.7724,7,0.00683871,10,0.00808692,-1.20921,0.750076,0.0786587,189.732,0.130915,
2,1,0,1,0,13020,0.135311,0.134919,62.5322,7,0.00708739,10,0.00843677,-1.2039,0.73057,0.0807589,197.23,0.134919,
2,1,0,1,0,13020,0.139306,0.138977,63.3376,7,0.00733922,10,0.00880247,-1.19834,0.712963,0.0827533,204.772,0.138977,
2,1,0,1,0,13020,0.143301,0.142928,64.1619,7,0.00759427,10,0.00917055,-1.19272,0.695057,0.0848851,212.754,0.142928,
2,1,0,1,0,13020,0.147346,0.146996,65.0654,7,0.00785286,10,0.00956434,-1.18665,0.682693,0.0864224,219.493,0.146996,
2,1,0,1,0,13020,0.151342,0.150945,65.9418,7,0.00811495,10,0.00995357,-1.18084,0.669972,0.0880634,226.706,0.150945,
2,1,0,1,0,13020,0.155337,0.154975,66.8491,7,0.00838061,10,0.01036,-1.1749,0.664441,0.0887964,231.837,0.154975,
2,1,0,1,0,13020,0.159332,0.158969,67.7985,7,0.00865002,10,0.0107779,-1.16878,0.659866,0.089412,236.657,0.158969,
2,1,0,1,0,13020.1,0.163327,0.162968,68.7682,7,0.00892324,10,0.011207,-1.16261,0.652895,0.0903668,242.518,0.162968,
2,1,0,1,0,13020.1,0.167322,0.166969,69.7339,7,0.00920035,10,0.0116434,-1.15656,0.657643,0.0897143,244.132,0.166969,
2,1,0,1,0,13020.1,0.171317,0.170931,70.7187,7,0.00948137,10,0.012088,-1.15047,0.670135,0.0880419,242.888,0.170931,
2,1,0,1,0,13020.1,0.175313,0.174914,71.6913,7,0.00976628,10,0.0125398,-1.14453,0.687483,0.0858203,239.922,0.174914,
2,1,0,1,0,13020.1,0.179308,0.178932,72.6458,7,0.0100551,10,0.0129987,-1.13879,0.706084,0.0835595,236.758,0.178932,
2,1,0,1,0,13020.1,0.183303,0.182946,73.5672,7,0.0103476,10,0.0134588,-1.13332,0.743921,0.0793095,227.501,0.182946,
2,1,0,1,0,13020.1,0.187348,0.186974,74.517,7,0.0106438,10,0.0139328,-1.12774,0.791775,0.0745162,216.283,0.186974,
2,1,0,1,0,13020.1,0.191343,0.190959,75.3415,7,0.0109437,10,0.0143872,-1.12297,0.851575,0.0692833,203.299,0.190959,
2,1,0,1,0,13020.1,0.195338,0.19502,76.1252,7,0.0112467,10,0.0148459,-1.11847,0.952452,0.0619454,183.665,0.19502,
2,1,0,1,0,13020.1,0.199334,0.198997,76.8304,7,0.0115527,10,0.015289,-1.11447,1.08358,0.0544491,162.851,0.198997,
2,1,0,1,0,13020.1,0.203329,0.202921,77.4458,7,0.0118613,10,0.0157153,-1.111,1.30371,0.0452554,136.362,0.202921,
2,1,0,1,0,13020.1,0.207324,0.206957,77.9467,7,0.0121722,10,0.0161316,-1.1082,1.71056,0.0344917,104.542,0.206957,
2,1,0,1,0,13020.1,0.211319,0.210968,78.3,7,0.0124848,10,0.0165188,-1.10624,2.71751,0.021711,66.0692,0.210968,
2,1,0,1,0,13020.1,0.215314,0.214982,78.5015,7,0.0127984,10,0.0168764,-1.10512,7.86488,0.0075017,22.8739,0.214982,
2,1,0,1,0,13020.1,0.219309,0.218972,78.5063,7,0.0131125,10,0.0171907,-1.1051,-7.2542,-0.00813322,-24.7902,0.218972,
2,1,0,1,0,13020.1,0.223305,0.22298,78.3132,7,0.0134262,10,0.0174623,-1.10616,-2.32376,-0.0253898,-77.17,0.22298,
2,1,0,1,0,13020.1,0.227314,0.227036,77.9017,7,0.0137386,10,0.0176865,-1.10845,-1.33217,-0.0442886,-133.824,0.227036,
2,1,0,1,0,13020.1,0.231345,0.231049,77.2615,7,0.014049,10,0.0178512,-1.11204,-0.914687,-0.0645029,-193.212,0.231049,
2,1,0,1,0,13020.1,0.23534,0.235063,76.353,7,0.0143562,10,0.0179477,-1.11717,-0.68876,-0.0856612,-253.596,0.235063,
2,1,0,1,0,13020.1,0.239335,0.239031,75.2121,7,0.0146593,10,0.017978,-1.12371,-0.555626,-0.106186,-309.794,0.239031,
2,1,0,1,0,13020.1,0.24333,0.243022,73.8478,7,0.0149573,10,0.0179466,-1.13166,-0.468178,-0.12602,-361.126,0.243022,
2,1,0,1,0,13020.1,0.247326,0.247055,72.303,7,0.0152495,10,0.0178628,-1.14084,-0.40933,-0.144138,-404.618,0.2470548,
2,1,0,1,0,13020.1,0.251321,0.251059,70.5763,7,0.0155351,10,0.0177188,-1.15134,-0.369571,-0.159644,-437.886,0.251059,
2,1,0,1,0,13020.1,0.255316,0.255019,68.7427,7,0.0158136,10,0.0175307,-1.16277,-0.339702,-0.173682,-464.462,0.255019,
2,1,0,1,0,13020.1,0.259311,0.259043,66.8326,7,0.0160846,10,0.0173125,-1.17501,-0.318881,-0.185022,-481.383,0.259043,
2,1,0,1,0,13020.2,0.263306,0.263046,64.8758,7,0.0163478,10,0.0170653,-1.18792,-0.310586,-0.189963,-480.405,0.263046,
2,1,0,1,0,13020.2,0.267302,0.267,62.9026,7,0.0166032,10,0.016795,-1.20133,-0.299352,-0.197092,-483.694,0.267,
2,1,0,1,0,13020.2,0.271347,0.271114,61.0107,7,0.0168508,10,0.0165409,-1.21459,-0.295047,-0.199968,-476.006,0.271114,
2,1,0,1,0,13020.2,0.275342,0.275043,59.0933,7,0.0170908,10,0.0162532,-1.22846,-0.295921,-0.199378,-460.128,0.275043,
2,1,0,1,0,13020.2,0.279337,0.279023,57.2706,7,0.0173234,10,0.0159798,-1.24207,-0.294262,-0.200501,-448.87,0.279023,
2,1,0,1,0,13020.2,0.283332,0.283046,55.5193,7,0.0175487,10,0.0157145,-1.25556,-0.301493,-0.195693,-424.876,0.283046,
2,1,0,1,0,13020.2,0.287327,0.287032,53.8657,7,0.0177673,10,0.0154612,-1.26869,-0.309277,-0.190767,-401.967,0.2870321,
2,1,0,1,0,13020.2,0.291322,0.291012,52.3085,7,0.0179795,10,0.0152224,-1.28143,-0.319182,-0.184847,-378.703,0.291012,
2,1,0,1,0,13020.2,0.295318,0.295022,50.8394,7,0.0181856,10,0.0149988,-1.2938,-0.324439,-0.181852,-365.697,0.295022,
2,1,0,1,0,13020.2,0.299013,0.29872,49.5834,7,0.0183714,10,0.0148116,-1.30466,-0.13409,-0.440002,-841.749,0.29872,
2,1,0,0,0,13020.2,0.300012,0.299632,49.258,7,0.0184208,10,0.0147593,-1.30752,0.00321945,18.3261,31183.1,0.299632,
2,1,0,1,0,13020.2,0.298714,0.298661,45.8703,7,0.0184813,10,0.0136996,-1.33847,0.0378405,1.55918,2376.16,0.298661,
2,1,0,1,0,13020.2,0.294718,0.294581,37.0827,7,0.0186456,10,0.0109239,-1.43083,0.0424846,1.38874,1913.51,0.294581,
2,1,0,1,0,13020.2,0.290723,0.290531,30.1251,7,0.018779,10,0.0087523,-1.52107,0.0427419,1.38038,1651.54,0.290531,
2,1,0,1,0,13020.2,0.286728,0.286576,24.2756,7,0.0188869,10,0.0069568,-1.61483,0.0404384,1.45901,1384.68,0.286576,
2,1,0,1,0,13020.2,0.282733,0.282541,19.2487,7,0.0189733,10,0.00543854,-1.7156,0.0368135,1.60267,1189.89,0.282541,
2,1,0,1,0,13020.2,0.278738,0.27855,14.8846,7,0.019041,10,0.00414609,-1.82726,0.0321308,1.83624,1032.87,0.27855,
2,1,0,1,0,13020.2,0.274742,0.274506,11.0561,7,0.0190924,10,0.00303495,-1.9564,0.0260031,2.26896,908.474,0.274506,
2,1,0,1,0,13020.2,0.270747,0.270499,7.67034,7,0.0191294,10,0.00207482,-2.11519,0.0183235,3.21991,803.236,0.270499,
2,1,0,1,0,13020.2,0.266702,0.26645,4.62982,7,0.0191535,10,0.00123361,-2.33444,0.011055,5.33694,713.227,0.2664496,
2,1,0,1,0,13020.2,0.262707,0.262478,1.97531,7,0.0191664,10,0.000518475,-2.70437,0.0333038,1.77157,634.739,0.262478,
2,1,0,1,0,13020.2,0.258712,0.258456,-0.390697,7,0.0191693,10,-0.000100978,-3.40816,1.0096,0.0584392,567.346,0.258456,
2,0,0,1,0,13020.2,0.254717,0.254435,-2.52617,7,0.0191632,10,-0.000642748,-2.59754,-0.0322543,-1.82921,510.286,0.254435,
2,0,0,1,0,13020.2,0.250722,0.250422,-4.46363,7,0.019149,10,-0.00111779,-2.35031,-0.0123172,-4.79007,462.033,0.250422,
2,0,0,1,0,13020.2,0.246726,0.246467,-6.19491,7,0.0191274,10,-0.00152684,-2.20796,-0.0284366,-2.07479,418.737,0.246467,
2,0,0,1,0,13020.2,0.242731,0.242451,-7.78587,7,0.0190992,10,-0.00188769,-2.10869,-0.0427328,-1.38067,381.068,0.242451,
2,0,0,1,0,13020.3,0.238736,0.238442,-9.22306,7,0.0190651,10,-0.00219917,-2.03512,-0.0573813,-1.02821,348.51,0.238442,
2,0,0,1,0,13020.3,0.234741,0.234475,-10.5403,7,0.0190254,10,-0.00247143,-1.97715,-0.0726082,-0.812581,321.957,0.2344752,
2,0,0,1,0,13020.3,0.230746,0.23048,-11.7668,7,0.0189806,10,-0.00271201,-1.92934,-0.0887435,-0.664837,296.676,0.23048,
2,0,0,1,0,13020.3,0.226701,0.226393,-12.9558,7,0.0189311,10,-0.0029331,-1.88754,-0.105901,-0.557124,274.225,0.226393,
2,0,0,1,0,13020.3,0.222705,0.222431,-13.9732,7,0.0188771,10,-0.00310806,-1.85471,-0.124693,-0.473163,252.981,0.222431,
2,0,0,1,0,13020.3,0.21871,0.218433,-14.9394,7,0.0188191,10,-0.00326325,-1.82567,-0.144937,-0.407074,234.257,0.218433,
2,0,0,1,0,13020.3,0.214715,0.214404,-15.8337,7,0.0187575,10,-0.0033948,-1.80042,-0.163377,-0.361127,220.89,0.214404,
2,0,0,1,0,13020.3,0.21072,0.210441,-16.6926,7,0.0186923,10,-0.00351281,-1.77748,-0.183645,-0.321272,207.428,0.210441,
2,0,0,1,0,13020.3,0.206725,0.20644,-17.5054,7,0.0186238,10,-0.00361382,-1.75683,-0.201751,-0.292439,198.203,0.20644,
2,0,0,1,0,13020.3,0.20273,0.202431,-18.2587,7,0.0185522,10,-0.00369613,-1.73853,-0.223333,-0.264179,187.135,0.202431,
2,0,0,1,0,13020.3,0.198734,0.198453,-18.9951,7,0.0184776,10,-0.00376964,-1.72136,-0.242727,-0.243071,179.327,0.198453,
2,0,0,1,0,13020.3,0.194739,0.194417,-19.6912,7,0.0184002,10,-0.00382831,-1.70573,-0.257802,-0.228858,175.275,0.194417,
2,0,0,1,0,13020.3,0.190744,0.19044,-20.3747,7,0.01832,10,-0.00388015,-1.69091,-0.274373,-0.215036,170.63,0.19044,
2,0,0,1,0,13020.3,0.186735,0.186472,-21.056,7,0.0182371,10,-0.00392634,-1.67662,-0.289064,-0.204107,167.289,0.186472,
2,0,0,1,0,13020.3,0.182704,0.182424,-21.7302,7,0.0181513,10,-0.00396411,-1.66294,-0.304046,-0.19405,164.053,0.182424,
2,0,0,1,0,13020.3,0.178709,0.178415,-22.3682,7,0.0180631,10,-0.00399082,-1.65037,-0.317415,-0.185877,161.993,0.178415,
2,0,0,1,0,13020.3,0.174713,0.174416,-23.0035,7,0.0179723,10,-0.00401217,-1.63821,-0.3275,-0.180153,161.703,0.174416,
2,0,0,1,0,13020.3,0.170718,0.170419,-23.6564,7,0.0178789,10,-0.0040315,-1.62605,-0.331114,-0.178186,164.524,0.170419,
2,0,0,1,0,13020.3,0.166723,0.166429,-24.3166,7,0.0177829,10,-0.00404699,-1.6141,-0.331897,-0.177766,168.786,0.166429,
2,0,0,1,0,13020.3,0.162728,0.162431,-24.9979,7,0.0176842,10,-0.00406044,-1.6021,-0.328261,-0.179735,175.597,0.162431,
2,0,0,1,0,13020.3,0.158733,0.158413,-25.7045,7,0.0175828,10,-0.00407193,-1.58999,-0.321168,-0.183705,184.73,0.158413,
2,0,0,1,0,13020.3,0.154737,0.154436,-26.463,7,0.0174784,10,-0.00408683,-1.57736,-0.310208,-0.190195,197.014,0.154436,
2,0,0,1,0,13020.3,0.150742,0.150427,-27.2726,7,0.0173708,10,-0.00410254,-1.56427,-0.292552,-0.201674,215.578,0.150427,
2,0,0,1,0,13020.3,0.146747,0.146439,-28.1486,7,0.0172599,10,-0.00412205,-1.55054,-0.28119,-0.209822,231.521,0.146439,
2,0,0,1,0,13020.3,0.142702,0.142441,-29.1477,7,0.0171452,10,-0.00415184,-1.5354,-0.268444,-0.219785,250.762,0.142441,
2,0,0,1,0,13020.4,0.138707,0.13845,-30.164,7,0.0170265,10,-0.00417621,-1.52051,-0.254783,-0.231569,273.73,0.13845,
2,0,0,1,0,13020.4,0.134712,0.134411,-31.2889,7,0.0169035,10,-0.00420557,-1.50461,-0.244755,-0.241058,295.93,0.134411,
2,0,0,1,0,13020.4,0.130717,0.130417,-32.5342,7,0.0167758,10,-0.00424303,-1.48766,-0.231688,-0.254653,324.884,0.130417,
2,0,0,1,0,13020.4,0.126721,0.126439,-33.8833,7,0.0166428,10,-0.00428417,-1.47001,-0.222024,-0.265738,352.896,0.126439,
2,0,0,1,0,13020.4,0.122726,0.122477,-35.3534,7,0.0165042,10,-0.00432998,-1.45157,-0.215069,-0.274331,379.842,0.122477,
2,0,0,1,0,13020.4,0.118731,0.11845,-36.9215,7,0.0163596,10,-0.00437335,-1.43272,-0.210586,-0.280171,404.791,0.11845,
2,0,0,1,0,13020.4,0.114736,0.11446,-38.5953,7,0.0162084,10,-0.00441764,-1.41347,-0.20916,-0.282081,425.48,0.11446,
2,0,0,1,0,13020.4,0.110741,0.110473,-40.346,7,0.0160503,10,-0.00445716,-1.3942,-0.209354,-0.28182,444.083,0.110473,
2,0,0,1,0,13020.4,0.106745,0.106517,-42.1441,7,0.0158852,10,-0.00448906,-1.37526,-0.212669,-0.277427,456.277,0.106517,
2,0,0,1,0,13020.4,0.102703,0.102418,-44.0408,7,0.0157127,10,-0.00451059,-1.35615,-0.219012,-0.269392,461.957,0.1024185,
2,0,0,1,0,13020.4,0.0987052,0.0984515,-45.8998,7,0.0155327,10,-0.00451891,-1.33819,-0.227542,-0.259293,463.04,0.09845154,
2,0,0,1,0,13020.4,0.09471,0.0944676,-47.74,7,0.0153452,10,-0.00450988,-1.32112,-0.239293,-0.24656,458.023,0.0944676,
2,0,0,1,0,13020.4,0.0907148,0.0904752,-49.5721,7,0.0151504,10,-0.00448505,-1.30476,-0.253144,-0.233069,449.323,0.0904752,
2,0,0,1,0,13020.4,0.0867197,0.0864721,-51.3446,7,0.0149484,10,-0.00443987,-1.28951,-0.268859,-0.219446,438.114,0.0864721,
2,0,0,1,0,13020.4,0.0827245,0.0824945,-53.0697,7,0.0147393,10,-0.00437796,-1.27515,-0.290075,-0.203396,419.393,0.0824945,
2,0,0,1,0,13020.4,0.0787293,0.0785106,-54.731,7,0.0145235,10,-0.00429696,-1.26177,-0.308578,-0.1912,406.797,0.0785106,
2,0,0,1,0,13020.4,0.0747341,0.074585,-56.2363,7,0.0143014,10,-0.00419439,-1.24998,-0.331672,-0.177886,389.575,0.074585,
2,0,0,1,0,13020.4,0.070739,0.0705639,-57.816,7,0.0140732,10,-0.00407972,-1.23795,-0.358041,-0.164786,370.745,0.0705639,
2,0,0,1,0,13020.4,0.0667438,0.066563,-59.2762,7,0.0138388,10,-0.0039456,-1.22712,-0.380173,-0.155193,357.757,0.066563,
2,0,0,1,0,13020.4,0.0627403,0.0624942,-60.669,7,0.0135987,10,-0.00379146,-1.21703,-0.419666,-0.140588,331.609,0.0624942,
2,0,0,1,0,13020.4,0.0587035,0.0584922,-61.9936,7,0.0133532,10,-0.00362615,-1.20765,-0.461607,-0.127814,307.819,0.0584922,
2,0,0,1,0,13020.4,0.0547083,0.0545104,-63.1394,7,0.0131028,10,-0.00344176,-1.1997,-0.51243,-0.115138,282.633,0.0545104,
2,0,0,1,0,13020.4,0.0507132,0.0505392,-64.2087,7,0.0128479,10,-0.00324505,-1.19241,-0.581014,-0.101547,253.635,0.0505392,
2,0,0,1,0,13020.4,0.046718,0.0465245,-65.1825,7,0.0125891,10,-0.00303258,-1.18587,-0.647298,-0.0911482,231.119,0.0465245,
2,0,0,1,0,13020.4,0.0427228,0.0425013,-66.0495,7,0.0123265,10,-0.00280719,-1.18013,-0.743576,-0.0793463,203.857,0.0425013,
2,0,0,1,0,13020.5,0.0387276,0.0385036,-66.8389,7,0.0120606,10,-0.00257354,-1.17497,-0.864956,-0.0682115,177.283,0.03850358,
2,0,0,1,0,13020.5,0.0347325,0.0344825,-67.4819,7,0.0117918,10,-0.00232695,-1.17081,-1.02077,-0.0577996,151.727,0.03448252,
2,0,0,1,0,13020.5,0.0307373,0.0304668,-68.0293,7,0.0115207,10,-0.00207263,-1.1673,-1.24604,-0.04735,125.356,0.03046676,
2,0,0,1,0,13020.5,0.0267421,0.0264107,-68.4909,7,0.0112476,10,-0.00180889,-1.16437,-1.47741,-0.0399347,106.505,0.0264107,
2,0,0,1,0,13020.5,0.022747,0.0225126,-68.8435,7,0.0109729,10,-0.00154985,-1.16214,-1.84276,-0.0320172,85.865,0.02251265,
2,0,0,1,0,13020.5,0.0187018,0.0183612,-69.1989,7,0.0106967,10,-0.00127057,-1.1599,-2.33768,-0.0252387,67.9966,0.0183612,
2,0,0,1,0,13020.5,0.0147067,0.0143772,-69.4108,7,0.0104195,10,-0.000997934,-1.15857,-3.00128,-0.0196583,53.1444,0.0143772,
2,0,0,1,0,13020.5,0.0107115,0.010424,-69.5779,7,0.0101415,10,-0.000725281,-1.15753,-4.4353,-0.0133024,36.0735,0.010424,
2,0,0,1,0,13020.5,0.00671632,0.00641038,-69.6992,7,0.00986291,10,-0.000446798,-1.15677,-6.20104,-0.00951453,25.8505,0.00641038,
2,0,0,1,0,13020.5,0.00272115,0.00243491,-69.7734,7,0.00958396,10,-0.000169892,-1.15631,-11.2676,-0.00523624,14.2419,0.00243491,
2,0,0,1,0,13020.5,-0.00127403,-0.00162644,-69.8245,7,0.00930471,10,0.000113566,-1.15599,-41.24,-0.00143065,3.89331,-0.00162644,
2,0,0,1,0,13020.5,-0.0052692,-0.0056263,-69.8065,7,0.00902543,10,0.000392752,-1.1561,28.293,0.00208532,-5.6747,-0.0056263,
2,0,0,1,0,13020.5,-0.00926438,-0.00959858,-69.7616,7,0.00874629,10,0.000669612,-1.15638,8.87253,0.00664974,-18.0832,-0.009598583,
2,0,0,1,0,13020.5,-0.0132596,-0.0136303,-69.6823,7,0.0084674,10,0.000949787,-1.15688,6.34871,0.00929323,-25.2444,-0.01363025,
2,0,0,1,0,13020.5,-0.0172547,-0.0176121,-69.5355,7,0.00818898,10,0.00122466,-1.15779,4.46955,0.0132004,-35.791,-0.0176121,
2,0,0,1,0,13020.5,-0.0212915,-0.0216543,-69.4019,7,0.00791116,10,0.00150285,-1.15863,3.29902,0.0178841,-48.3647,-0.0216543,
2,0,0,1,0,13020.5,-0.025295,-0.0256425,-69.1873,7,0.00763398,10,0.00177414,-1.15997,2.66796,0.0221143,-59.5993,-0.0256425,
2,0,0,1,0,13020.5,-0.0292902,-0.0296413,-68.9079,7,0.00735782,10,0.00204252,-1.16173,2.11659,0.027875,-74.8487,-0.0296413,
2,0,0,1,0,13020.5,-0.0332854,-0.0336465,-68.5798,7,0.00708286,10,0.00230747,-1.1638,1.77575,0.0332254,-88.7906,-0.03364649,
2,0,0,1,0,13020.5,-0.0372805,-0.0376209,-68.2068,7,0.00680932,10,0.002566,-1.16617,1.55867,0.0378528,-100.602,-0.0376209,
2,0,0,1,0,13020.5,-0.0412757,-0.0416282,-67.768,7,0.0065374,10,0.00282106,-1.16898,1.40112,0.0421092,-111.236,-0.0416282,
2,0,0,1,0,13020.5,-0.0452709,-0.0456397,-67.2984,7,0.0062673,10,0.00307148,-1.172,1.27452,0.0462921,-121.46,-0.0456397,
2,0,0,1,0,13020.5,-0.0492661,-0.0496353,-66.8013,7,0.00599915,10,0.0033157,-1.17522,1.19541,0.0493556,-128.543,-0.0496353,
2,0,0,1,0,13020.5,-0.0532612,-0.053632,-66.2621,7,0.00573306,10,0.00355377,-1.17873,1.13106,0.0521634,-134.804,-0.05363198,
2,0,0,1,0,13020.5,-0.0572564,-0.0576287,-65.7112,7,0.00546916,10,0.00378685,-1.18236,1.1264,0.0523793,-134.343,-0.0576287,
2,0,0,1,0,13020.6,-0.0612544,-0.0615882,-65.1485,7,0.0052075,10,0.00401238,-1.1861,1.11785,0.0527797,-134.262,-0.0615882,
2,0,0,1,0,13020.6,-0.0652967,-0.0656623,-64.6482,7,0.00494787,10,0.00424495,-1.18944,1.12167,0.0526003,-132.705,-0.0656623,
2,0,0,1,0,13020.6,-0.0692919,-0.069642,-64.1126,7,0.00469041,10,0.00446493,-1.19306,1.1598,0.050871,-127.306,-0.069642,
2,0,0,1,0,13020.6,-0.0732871,-0.0736069,-63.5908,7,0.00443506,10,0.00468072,-1.19661,1.17195,0.0503436,-125.043,-0.0736069,
2,0,0,1,0,13020.6,-0.0772822,-0.077611,-63.1087,7,0.00418171,10,0.00489793,-1.19991,1.2425,0.047485,-117.07,-0.07761097,
2,0,0,1,0,13020.6,-0.0812774,-0.0816543,-62.6485,7,0.00393026,10,0.00511552,-1.20309,1.37032,0.0430558,-105.427,-0.0816543,
2,0,0,1,0,13020.6,-0.0852726,-0.0856329,-62.2405,7,0.00368052,10,0.00532984,-1.20593,1.48929,0.0396162,-96.3753,-0.0856329,
2,0,0,1,0,13020.6,-0.0892678,-0.0896423,-61.9002,7,0.00343228,10,0.00554888,-1.20831,1.68049,0.0351087,-84.9081,-0.0896423,
2,0,0,1,0,13020.6,-0.0932629,-0.0936093,-61.5669,7,0.00318541,10,0.00576323,-1.21065,1.9222,0.0306939,-73.8483,-0.0936093,
2,0,0,1,0,13020.6,-0.0972581,-0.0976155,-61.2933,7,0.00293972,10,0.00598317,-1.21259,2.33819,0.0252332,-60.4788,-0.09761554,
2,0,0,1,0,13020.6,-0.101253,-0.101609,-61.0607,7,0.00269506,10,0.00620432,-1.21424,2.86052,0.0206256,-49.2413,-0.101609,
2,0,0,1,0,13020.6,-0.105298,-0.105678,-60.9304,7,0.00245111,10,0.006439,-1.21517,3.68441,0.0160134,-38.1141,-0.105678,
2,0,0,1,0,13020.6,-0.109294,-0.10958,-60.7804,7,0.00220771,10,0.00666033,-1.21624,4.80626,0.0122756,-29.141,-0.10958,
2,0,0,1,0,13020.6,-0.113289,-0.113654,-60.682,7,0.00196482,10,0.00689676,-1.21694,6.04025,0.0097678,-23.1566,-0.1136542,
2,0,0,1,0,13020.6,-0.117284,-0.117633,-60.5938,7,0.00172227,10,0.00712782,-1.21757,10.0881,0.00584847,-13.8477,-0.117633,
2,0,0,1,0,13020.6,-0.121279,-0.121622,-60.5612,7,0.00147999,10,0.00736558,-1.21781,26.8157,0.0022002,-5.207,-0.121622,
2,0,0,1,0,13020.6,-0.125274,-0.125582,-60.5589,7,0.00123777,10,0.00760508,-1.21782,-29.0241,-0.0020328,4.81017,-0.125582,
2,0,0,1,0,13020.6,-0.129269,-0.129615,-60.5989,7,0.00099545,10,0.00785455,-1.21754,-11.6913,-0.00504648,11.9462,-0.129615,
2,0,0,1,0,13020.6,-0.133265,-0.133617,-60.6707,7,0.000752918,10,0.00810666,-1.21702,-7.19761,-0.00819717,19.423,-0.133617,
2,0,0,1,0,13020.6,-0.13726,-0.137585,-60.7519,7,0.000510073,10,0.00835858,-1.21644,-4.87917,-0.0120922,28.7062,-0.137585,
2,0,0,1,0,13020.6,-0.141255,-0.141567,-60.8693,7,0.000266798,10,0.00861711,-1.2156,-4.00859,-0.0147184,35.0109,-0.141567,
2,0,0,1,0,13020.6,-0.145286,-0.14563,-61.0586,7,2.30019e-05,10,0.00889194,-1.21425,-3.37032,-0.0175058,41.7342,-0.14563,
2,0,0,1,0,13020.6,-0.149295,-0.149645,-61.2318,7,-0.000221622,10,0.00916306,-1.21302,-3.04026,-0.0194062,46.3826,-0.149645,
2,0,0,1,0,13020.6,-0.15329,-0.153661,-61.4228,7,-0.000466945,10,0.00943831,-1.21167,-2.99478,-0.019701,47.2358,-0.153661,
2,0,0,1,0,13020.6,-0.157286,-0.157671,-61.6163,7,-0.000713035,10,0.00971507,-1.2103,-2.74672,-0.0214801,51.6748,-0.157671,
2,0,0,1,0,13020.7,-0.161281,-0.161629,-61.8143,7,-0.000959909,10,0.00999099,-1.20891,-2.59278,-0.0227555,54.9358,-0.161629,
2,0,0,1,0,13020.7,-0.165276,-0.165564,-62.0544,7,-0.00120765,10,0.010274,-1.20723,-2.40851,-0.0244965,59.3559,-0.165564,
2,0,0,1,0,13020.7,-0.169271,-0.169593,-62.298,7,-0.00145638,10,0.0105653,-1.20553,-2.25968,-0.0261098,63.5028,-0.169593,
2,0,0,1,0,13020.7,-0.173266,-0.173553,-62.559,7,-0.00170613,10,0.0108573,-1.20371,-2.23005,-0.0264568,64.6056,-0.173553,
2,0,0,1,0,13020.7,-0.177261,-0.177589,-62.8278,7,-0.00195692,10,0.0111576,-1.20185,-2.14075,-0.0275604,67.5875,-0.177589,
2,0,0,1,0,13020.7,-0.181257,-0.181581,-63.0892,7,-0.00220877,10,0.0114558,-1.20005,-1.98458,-0.0297292,73.2631,-0.181581,
2,0,0,1,0,13020.7,-0.185252,-0.18559,-63.3793,7,-0.00246173,10,0.0117626,-1.19805,-1.93096,-0.0305547,75.6395,-0.18559,
2,0,0,1,0,13020.7,-0.189297,-0.189602,-63.7347,7,-0.00271606,10,0.0120842,-1.19562,-1.85201,-0.0318573,79.2242,-0.189602,
2,0,0,1,0,13020.7,-0.193292,-0.193609,-64.0395,7,-0.00297165,10,0.0123986,-1.19355,-1.85254,-0.0318481,79.5084,-0.193609,
2,0,0,1,0,13020.7,-0.197287,-0.197597,-64.358,7,-0.00322848,10,0.012717,-1.1914,-3.13801,-0.0188018,46.9569,-0.197597,
2,0,0,0,0,13020.7,-0.199984,-0.200456,-64.5612,7,-0.00340251,10,0.0129417,-1.19003,0.067128,0.878918,-2068.64,-0.200456,
2,0,0,0,1,13020.7,-0.199984,-0.200647,-64.2534,7,-0.0034411,10,0.0128922,-1.1921,-0.039075,-1.50992,3337.71,-0.200647,
2,0,0,1,1,13020.7,-0.196688,-0.197145,-56.7239,7,-0.00362578,10,0.0111828,-1.24623,-0.0659926,-0.89404,1860.81,-0.197145,
2,0,0,1,1,13020.7,-0.192693,-0.193166,-49.5671,7,-0.00383727,10,0.00957467,-1.30481,-0.0682775,-0.86412,1686.9,-0.193166,
2,0,0,1,1,13020.7,-0.188698,-0.18913,-43.4855,7,-0.00402254,10,0.00822439,-1.36166,-0.0690273,-0.854734,1465.24,-0.18913,
2,0,0,1,1,13020.7,-0.184653,-0.185121,-38.0636,7,-0.00418496,10,0.00704639,-1.41949,-0.0680776,-0.866658,1293.58,-0.1851214,
2,0,0,1,1,13020.7,-0.180657,-0.1811,-33.214,7,-0.00432691,10,0.00601507,-1.47868,-0.0656006,-0.899382,1166.23,-0.1811,
2,0,0,1,1,13020.7,-0.176662,-0.177108,-28.7952,7,-0.0044504,10,0.00509985,-1.54068,-0.0617817,-0.954975,1067.72,-0.177108,
2,0,0,1,1,13020.7,-0.172667,-0.173041,-24.7226,7,-0.00455693,10,0.00427803,-1.60691,-0.0571634,-1.03213,985.221,-0.173041,
2,0,0,1,1,13020.7,-0.168672,-0.169075,-20.9309,7,-0.0046478,10,0.0035389,-1.67921,-0.0513164,-1.14973,922.057,-0.169075,
2,0,0,1,1,13020.7,-0.164677,-0.165046,-17.3967,7,-0.00472406,10,0.00287125,-1.75953,-0.0448287,-1.31612,867.184,-0.165046,
2,0,0,1,1,13020.7,-0.160682,-0.161118,-14.0516,7,-0.00478656,10,0.00226397,-1.85227,-0.0379005,-1.55671,814.778,-0.161118,
2,0,0,1,1,13020.7,-0.156686,-0.15711,-10.9071,7,-0.00483614,10,0.0017136,-1.96229,-0.0300315,-1.96461,770.322,-0.15711,
2,0,0,1,1,13020.7,-0.152691,-0.153147,-7.9528,7,-0.00487351,10,0.00121795,-2.09948,-0.0209629,-2.8145,727.312,-0.153147,
2,0,0,1,1,13020.7,-0.148696,-0.149125,-5.13246,7,-0.00489936,10,0.000765377,-2.28967,-0.00842328,-7.0044,688.337,-0.149125,
2,0,0,1,1,13020.7,-0.14467,-0.145138,-2.4289,7,-0.00491423,10,0.000352524,-2.61459,-0.0327178,-1.8033,656.892,-0.145138,
2,0,0,1,1,13020.7,-0.140656,-0.141067,0.135867,7,-0.00491848,10,-1.91663e-05,-3.86689,-0.739271,-0.0798083,627.391,-0.141067,
2,1,0,1,1,13020.8,-0.136661,-0.137121,2.57452,7,-0.00491279,10,-0.000353021,-2.5893,0.0343597,1.71713,595.361,-0.137121,
2,1,0,1,1,13020.8,-0.132665,-0.13316,4.88349,7,-0.0048976,10,-0.000650288,-2.31127,0.00867927,6.79781,571.619,-0.13316,
2,1,0,1,1,13020.8,-0.12867,-0.129137,7.09716,7,-0.00487338,10,-0.000916508,-2.14892,0.0248147,2.37762,546.562,-0.1291372,
2,1,0,1,1,13020.8,-0.124675,-0.125168,9.22384,7,-0.00484051,10,-0.00115453,-2.03509,0.0367689,1.60462,525.547,-0.1251681,
2,1,0,1,1,13020.8,-0.12068,-0.121206,11.2728,7,-0.00479928,10,-0.00136634,-1.94797,0.0483157,1.22114,506.653,-0.121206,
2,1,0,1,1,13020.8,-0.116685,-0.117189,13.2775,7,-0.00474995,10,-0.00155597,-1.87689,0.0602439,0.979353,486.322,-0.117189,
2,1,0,1,1,13020.8,-0.112689,-0.113184,15.1797,7,-0.00469285,10,-0.0017181,-1.81874,0.072471,0.814119,467.522,-0.113184,
2,1,0,1,1,13020.8,-0.108694,-0.10915,17.014,7,-0.00462824,10,-0.00185707,-1.76919,0.0847527,0.696143,452.54,-0.10915,
2,1,0,1,1,13020.8,-0.104699,-0.105118,18.7945,7,-0.00455643,10,-0.00197564,-1.72597,0.0974881,0.605202,436.288,-0.105118,
2,1,0,1,1,13020.8,-0.100654,-0.101082,20.5663,7,-0.00447747,10,-0.00207888,-1.68684,0.110645,0.533237,420.596,-0.101082,
2,1,0,1,1,13020.8,-0.0966588,-0.0970737,22.2086,7,-0.00439173,10,-0.00215587,-1.65348,0.124288,0.474704,405.445,-0.0970737,
2,1,0,1,1,13020.8,-0.0926637,-0.0930516,23.7848,7,-0.00429958,10,-0.00221321,-1.6237,0.139413,0.423203,388.677,-0.0930516,
2,1,0,1,1,13020.8,-0.0886685,-0.0890803,25.2969,7,-0.00420126,10,-0.00225346,-1.59693,0.154213,0.382587,374.52,-0.0890803,
2,1,0,1,1,13020.8,-0.0846733,-0.0851155,26.7721,7,-0.00409695,10,-0.00227872,-1.57232,0.16883,0.349464,362.395,-0.0851155,
2,1,0,1,1,13020.8,-0.0806781,-0.081088,28.1955,7,-0.00398687,10,-0.00228632,-1.54982,0.184322,0.320093,349.799,-0.081088,
2,1,0,1,1,13020.8,-0.076683,-0.0770935,29.5679,7,-0.00387118,10,-0.00227949,-1.52918,0.200703,0.293967,337.105,-0.0770935,
2,1,0,1,1,13020.8,-0.0726878,-0.0730851,30.892,7,-0.00375012,10,-0.00225775,-1.51015,0.216727,0.272232,326.436,-0.0730851,
2,1,0,1,1,13020.8,-0.0686926,-0.0691351,32.1592,7,-0.00362388,10,-0.00222333,-1.49269,0.232316,0.253965,317.651,-0.0691351,
2,1,0,1,1,13020.8,-0.0646974,-0.0651395,33.4017,7,-0.00349261,10,-0.00217577,-1.47623,0.250371,0.23565,306.104,-0.0651395,
2,1,0,1,1,13020.8,-0.0606523,-0.0610474,34.6649,7,-0.00335639,10,-0.0021162,-1.46011,0.269557,0.218878,294.471,-0.0610474,
2,1,0,1,1,13020.8,-0.0566571,-0.0570624,35.7966,7,-0.00321535,10,-0.00204264,-1.44616,0.289728,0.203639,283.155,-0.0570624,
2,1,0,1,1,13020.8,-0.052662,-0.053053,36.8949,7,-0.00306984,10,-0.00195739,-1.43303,0.313445,0.188231,270.16,-0.053053,
2,1,0,1,1,13020.8,-0.0486668,-0.049068,37.9524,7,-0.00292004,10,-0.00186225,-1.42076,0.334074,0.176608,260.844,-0.049068,
2,1,0,1,1,13020.8,-0.0446716,-0.0451074,38.9713,7,-0.00276608,10,-0.00175789,-1.40926,0.35577,0.165837,251.547,-0.0451074,
2,1,0,1,1,13020.8,-0.0406764,-0.041063,39.97,7,-0.0026081,10,-0.00164129,-1.39827,0.381604,0.15461,240.429,-0.041063,
2,1,0,1,1,13020.9,-0.0366813,-0.0371045,40.9067,7,-0.00244624,10,-0.00151782,-1.38821,0.40669,0.145074,230.953,-0.03710448,
2,1,0,1,1,13020.9,-0.0326861,-0.033059,41.8015,7,-0.0022807,10,-0.00138192,-1.37881,0.436211,0.135256,220.155,-0.033059,
2,1,0,1,1,13020.9,-0.0286909,-0.0291026,42.6676,7,-0.00211166,10,-0.00124174,-1.3699,0.461378,0.127878,212.558,-0.0291026,
2,1,0,1,1,13020.9,-0.0246957,-0.0250583,43.4935,7,-0.00193925,10,-0.00108987,-1.36158,0.487565,0.12101,205.068,-0.0250583,
2,1,0,1,1,13020.9,-0.0206756,-0.0210414,44.321,7,-0.00176355,10,-0.000932578,-1.35339,0.524543,0.112479,194.05,-0.0210414,
2,1,0,1,1,13020.9,-0.0166554,-0.0170469,45.085,7,-0.00158461,10,-0.00076856,-1.34597,0.559774,0.1054,184.923,-0.0170469,
2,1,0,1,1,13020.9,-0.0126603,-0.0130619,45.7803,7,-0.00140278,10,-0.000597977,-1.33932,0.608366,0.0969811,172.927,-0.0130619,
2,1,0,1,1,13020.9,-0.0086651,-0.0090652,46.451,7,-0.00121823,10,-0.000421087,-1.33301,0.653658,0.0902612,163.28,-0.0090652,
2,1,0,1,1,13020.9,-0.00466992,-0.00505792,47.085,7,-0.00103108,10,-0.000238152,-1.32712, , , ,-0.00505792,
2,1,0,1,1,13020.9,-0.000974387,-0.00138308,47.6426,7,-0.000855782,10,-6.58936e-05,-1.322, , , ,-0.00138308,
2,1,0,0,1,13020.9,-0.000175352,-0.000573459,47.7665,7,-0.000817636,10,-2.73921e-05,-1.32088, , , ,-0.000573459,