File: Figure_codes/Fig_3-5/rawdata_trumpetplot_data/after 10th/20221101_1-115_003_TrumpetPlot_ParaChange_from10_every3_06_CV_C01_22.csv
mode,ox/red,error,control changes,counter inc.,time/s,control/V,Ewe/V,<I>/mA,cycle number,(Q-Qo)/C,I Range,P/W,log(|I|),Tafel slope mV/dec,alpha_eff,dI/d(E-IR),E-IR/V,
2,0,0,0,0,44492.9,2.44065e-05,-0.000306236,-1.41598,23,0.0000000E+000,10,4.33624e-07,-2.84894, , , ,-0.000306236,
2,0,0,1,0,44492.9,0.00129787,0.000923873,-0.332757,23,-2.38594e-05,10,-3.07425e-07,-3.47787, , , ,0.000923873,
2,1,0,1,0,44493,0.00279427,0.00248239,0.325342,23,-2.22279e-05,10,8.07624e-07,-3.48766,0.0502004,1.17529,354.698,0.00248239,
2,1,0,1,0,44493,0.00429425,0.00397133,0.692881,23,-1.94876e-06,10,2.75166e-06,-3.15934,0.00486182,12.1354,209.338,0.00397133,
2,1,0,1,0,44493,0.00579422,0.00548762,0.933159,23,2.94727e-05,10,5.12082e-06,-3.03004,0.0133336,4.42491,143.534,0.00548762,
2,1,0,1,0,44493.1,0.00729063,0.00693842,1.1016,23,6.82693e-05,10,7.64336e-06,-2.95798,0.0243361,2.42439,98.9854,0.00693842,
2,1,0,1,0,44493.1,0.00878703,0.00851739,1.22372,23,0.000112506,10,1.04229e-05,-2.91232,0.0374096,1.57713,73.3718,0.00851739,
2,1,0,1,0,44493.1,0.010287,0.00996307,1.32003,23,0.000160954,10,1.31516e-05,-2.87942,0.0514026,1.1478,58.1596,0.00996307,
2,1,0,1,0,44493.2,0.011787,0.0114509,1.38966,23,0.000212548,10,1.59128e-05,-2.85709,0.0697656,0.845688,45.6413,0.0114509,
2,1,0,1,0,44493.2,0.0132825,0.0129451,1.4556,23,0.0002665,10,1.88429e-05,-2.83696,0.0824771,0.71535,40.5409,0.0129451,
2,1,0,1,0,44493.3,0.014778,0.0144544,1.5139,23,0.000322712,10,2.18826e-05,-2.8199,0.0998505,0.590883,34.7364,0.0144544,
2,1,0,1,0,44493.3,0.0162815,0.0159667,1.56616,23,0.000381256,10,2.50065e-05,-2.80516,0.114589,0.514885,31.2358,0.0159667,
2,1,0,1,0,44493.3,0.017778,0.0174426,1.60902,23,0.000441176,10,2.80655e-05,-2.79344,0.132146,0.446476,27.9254,0.0174426,
2,1,0,1,0,44493.4,0.0192744,0.0189863,1.64363,23,0.000502542,10,3.12064e-05,-2.7842,0.141884,0.415834,26.655,0.01898627,
2,1,0,1,0,44493.4,0.0207743,0.020449,1.68905,23,0.000565576,10,3.45395e-05,-2.77236,0.146249,0.403422,26.4592,0.020449,
2,1,0,1,0,44493.4,0.0222743,0.0219424,1.71882,23,0.000630084,10,3.77152e-05,-2.76477,0.156603,0.37675,25.2885,0.0219424,
2,1,0,1,0,44493.5,0.0237707,0.0234452,1.75458,23,0.000695792,10,4.11364e-05,-2.75583,0.171034,0.344961,23.6442,0.0234452,
2,1,0,1,0,44493.5,0.0252671,0.0249298,1.78679,23,0.000762728,10,4.45443e-05,-2.74793,0.181462,0.325138,22.7848,0.0249298,
2,1,0,1,0,44493.6,0.0267671,0.0264602,1.82674,23,0.000831122,10,4.8336e-05,-2.73832,0.17923,0.329186,23.4498,0.02646021,
2,1,0,1,0,44493.6,0.0282671,0.0279237,1.865,23,0.000900883,10,5.20776e-05,-2.72932,0.182188,0.323841,23.5064,0.0279237,
2,1,0,1,0,44493.6,0.0297626,0.0294855,1.89396,23,0.00097177,10,5.58445e-05,-2.72263,0.193061,0.305603,22.5522,0.0294855,
2,1,0,1,0,44493.7,0.0312581,0.0309308,1.92393,23,0.00104386,10,5.95087e-05,-2.71581,0.20381,0.289485,21.7446,0.0309308,
2,1,0,1,0,44493.7,0.0327616,0.0324619,1.9608,23,0.00111755,10,6.36512e-05,-2.70757,0.195375,0.301984,23.1297,0.0324619,
2,1,0,1,0,44493.7,0.034258,0.0339402,1.99018,23,0.00119214,10,6.7547e-05,-2.70111,0.202513,0.291339,22.7019,0.0339402,
2,1,0,1,0,44493.8,0.0357545,0.0354503,2.0274,23,0.00126801,10,7.18719e-05,-2.69306,0.21179,0.278578,22.0441,0.0354503,
2,1,0,1,0,44493.8,0.0372544,0.0369279,2.06025,23,0.00134533,10,7.60807e-05,-2.68608,0.216816,0.272121,21.9225,0.0369279,
2,1,0,1,0,44493.9,0.0387544,0.038425,2.09377,23,0.00142383,10,8.0453e-05,-2.67907,0.217951,0.270703,22.1409,0.038425,
2,1,0,1,0,44493.9,0.0402508,0.0399235,2.13279,23,0.00150344,10,8.51486e-05,-2.67105,0.216744,0.272211,22.605,0.0399235,
2,1,0,1,0,44493.9,0.0417472,0.0414503,2.16924,23,0.00158443,10,8.99157e-05,-2.66369,0.224822,0.26243,22.1114,0.0414503,
2,1,0,1,0,44494,0.0432472,0.0429937,2.20276,23,0.00166689,10,9.47048e-05,-2.65703,0.233429,0.252754,21.6538,0.04299368,
2,1,0,1,0,44494,0.0447472,0.044422,2.22971,23,0.00175053,10,9.90481e-05,-2.65175,0.22573,0.261374,22.7689,0.044422,
2,1,0,1,0,44494,0.0462427,0.045891,2.26536,23,0.00183523,10,0.00010396,-2.64486,0.216531,0.272478,24.1016,0.045891,
2,1,0,1,0,44494.1,0.0477382,0.0474311,2.29854,23,0.0019212,10,0.000109022,-2.63855,0.245275,0.240546,21.5978,0.0474311,
2,1,0,1,0,44494.1,0.0492417,0.0489109,2.32748,23,0.00200889,10,0.000113839,-2.63311,0.257214,0.229381,20.8652,0.0489109,
2,1,0,1,0,44494.2,0.0507381,0.0504299,2.35652,23,0.00209729,10,0.000118839,-2.62773,0.250829,0.23522,21.6687,0.0504299,
2,1,0,1,0,44494.2,0.0522345,0.0519,2.39367,23,0.00218685,10,0.000124231,-2.62094,0.241041,0.244772,22.8636,0.0519,
2,1,0,1,0,44494.2,0.0537345,0.0533902,2.43415,23,0.00227793,10,0.00012996,-2.61365,0.275633,0.214053,20.2723,0.0533902,
2,1,0,1,0,44494.3,0.0552345,0.0549156,2.46324,23,0.0023703,10,0.00013527,-2.60849,0.294104,0.200609,19.2365,0.0549156,
2,1,0,1,0,44494.3,0.0567309,0.0563707,2.48857,23,0.0024635,10,0.000140282,-2.60405,0.290705,0.202955,19.732,0.0563707,
2,1,0,1,0,44494.3,0.0582273,0.0578704,2.51592,23,0.00255774,10,0.000145597,-2.5993,0.286052,0.206256,20.3071,0.0578704,
2,1,0,1,0,44494.4,0.0597308,0.0594391,2.54788,23,0.00265366,10,0.000151444,-2.59382,0.295413,0.199721,19.8872,0.0594391,
2,1,0,1,0,44494.4,0.0612264,0.0609018,2.57768,23,0.00275022,10,0.000156985,-2.58877,0.320539,0.184065,18.5137,0.0609018,
2,1,0,1,0,44494.5,0.0627219,0.0624266,2.61195,23,0.0028479,10,0.000163055,-2.58303,0.340721,0.173162,17.6205,0.0624266,
2,1,0,1,0,44494.5,0.0642218,0.0638973,2.63875,23,0.00294679,10,0.000168609,-2.5786,0.317232,0.185984,19.1263,0.0638973,
2,1,0,1,0,44494.5,0.0657218,0.0653988,2.6652,23,0.00304676,10,0.000174301,-2.57427,0.318918,0.185,19.2005,0.06539879,
2,1,0,1,0,44494.6,0.0672182,0.066943,2.69353,23,0.0031476,10,0.000180313,-2.56968,0.342299,0.172364,18.1003,0.066943,
2,1,0,1,0,44494.6,0.0687146,0.0684383,2.7221,23,0.00324943,10,0.000186296,-2.5651,0.392284,0.150401,15.9523,0.0684383,
2,1,0,1,0,44494.6,0.0702146,0.0698716,2.73937,23,0.00335246,10,0.000191404,-2.56235,0.37216,0.158534,16.9834,0.0698716,
2,1,0,1,0,44494.7,0.0717146,0.0714045,2.76668,23,0.00345633,10,0.000197553,-2.55804,0.380496,0.155061,16.7546,0.0714045,
2,1,0,1,0,44494.7,0.073211,0.0728841,2.78849,23,0.00356092,10,0.000203236,-2.55463,0.397494,0.14843,16.1645,0.0728841,
2,1,0,1,0,44494.8,0.0747074,0.0743933,2.81364,23,0.00366637,10,0.000209316,-2.55073,0.456198,0.12933,14.1926,0.0743933,
2,1,0,1,0,44494.8,0.0762109,0.0758644,2.83745,23,0.00377315,10,0.000215261,-2.54707,0.429564,0.137349,15.1895,0.0758644,
2,1,0,1,0,44494.8,0.0777065,0.0774091,2.85987,23,0.00388018,10,0.00022138,-2.54365,0.439464,0.134254,14.9401,0.0774091,
2,1,0,1,0,44494.9,0.079202,0.0788855,2.87977,23,0.00398805,10,0.000227172,-2.54064,0.48727,0.121083,13.5864,0.0788855,
2,1,0,1,0,44494.9,0.0807019,0.0803924,2.89937,23,0.004097,10,0.000233087,-2.5377,0.5257,0.112231,12.6724,0.0803924,
2,1,0,1,0,44494.9,0.0822019,0.0818931,2.91327,23,0.00420666,10,0.000238577,-2.53562,0.569478,0.103604,11.8008,0.0818931,
2,1,0,1,0,44495,0.0836983,0.0833497,2.93012,23,0.00431659,10,0.000244225,-2.53311,0.590043,0.0999927,11.4681,0.0833497,
2,1,0,1,0,44495,0.0851947,0.0848733,2.95254,23,0.00442727,10,0.000250592,-2.5298,0.517557,0.113997,13.1481,0.0848733,
2,1,0,1,0,44495.1,0.0866947,0.0863597,2.97439,23,0.004539,10,0.000256867,-2.5266,0.522839,0.112845,13.0781,0.0863597,
2,1,0,1,0,44495.1,0.0881947,0.087869,2.9952,23,0.00465146,10,0.000263186,-2.52357,0.489904,0.120432,14.0532,0.087869,
2,1,0,1,0,44495.1,0.0896911,0.089352,3.01625,23,0.00476429,10,0.000269508,-2.52053,0.442709,0.13327,15.6737,0.089352,
2,1,0,1,0,44495.2,0.0911875,0.0908681,3.03661,23,0.004878,10,0.000275931,-2.51761,0.420687,0.140247,16.6094,0.0908681,
2,1,0,1,0,44495.2,0.0926901,0.0923569,3.06495,23,0.00499333,10,0.000283069,-2.51358,0.359088,0.164305,19.6451,0.0923569,
2,1,0,1,0,44495.2,0.0941856,0.0938632,3.0849,23,0.00510903,10,0.000289559,-2.51076,0.380083,0.155229,18.734,0.0938632,
2,1,0,1,0,44495.3,0.0956821,0.0953325,3.10872,23,0.00522568,10,0.000296362,-2.50742,0.353608,0.166851,20.342,0.0953325,
2,1,0,1,0,44495.3,0.097182,0.0968845,3.14947,23,0.00534378,10,0.000305135,-2.50176,0.301391,0.195759,24.08,0.0968845,
2,1,0,1,0,44495.4,0.098682,0.0983747,3.1871,23,0.00546321,10,0.00031353,-2.4966,0.289613,0.20372,25.3522,0.0983747,
2,1,0,1,0,44495.4,0.100178,0.0998424,3.2283,23,0.00558377,10,0.000322321,-2.49103,0.276638,0.213275,26.8423,0.0998424,
2,1,0,1,0,44495.4,0.101675,0.10133,3.26601,23,0.00570588,10,0.000330944,-2.48598,0.255759,0.230686,29.441,0.1013298,
2,1,0,1,0,44495.5,0.103175,0.102844,3.31514,23,0.00582992,10,0.000340941,-2.4795,0.227017,0.259892,33.6918,0.102844,
2,1,0,1,0,44495.5,0.104675,0.104381,3.37337,23,0.00595594,10,0.000352117,-2.47194,0.216381,0.272668,35.8845,0.1043814,
2,1,0,1,0,44495.5,0.106171,0.105869,3.42444,23,0.00608367,10,0.000362542,-2.46541,0.225919,0.261156,34.9063,0.105869,
2,1,0,1,0,44495.6,0.107667,0.107344,3.47382,23,0.00621335,10,0.000372894,-2.45919,0.219649,0.26861,36.472,0.1073442,
2,1,0,1,0,44495.6,0.10917,0.108864,3.5313,23,0.00634567,10,0.00038443,-2.45207,0.212898,0.277127,38.2497,0.108864,
2,1,0,1,0,44495.7,0.110666,0.110313,3.58998,23,0.00647951,10,0.000396023,-2.44491,0.204484,0.288531,40.4054,0.110313,
2,1,0,1,0,44495.7,0.112162,0.11183,3.65148,23,0.00661556,10,0.000408346,-2.43753,0.220143,0.268007,38.1089,0.11183,
2,1,0,1,0,44495.7,0.113662,0.113342,3.71009,23,0.00675415,10,0.000420511,-2.43062,0.241959,0.243843,35.2266,0.113342,
2,1,0,1,0,44495.8,0.115162,0.114815,3.75793,23,0.00689468,10,0.000431465,-2.42505,0.246555,0.239297,35.0702,0.114815,
2,1,0,1,0,44495.8,0.116659,0.116316,3.80406,23,0.00703681,10,0.000442474,-2.41975,0.255848,0.230606,34.275,0.116316,
2,1,0,1,0,44495.8,0.118155,0.117845,3.85692,23,0.00718093,10,0.000454518,-2.41376,0.292122,0.201971,30.4238,0.117845,
2,1,0,1,0,44495.9,0.119655,0.119313,3.90283,23,0.0073272,10,0.000465659,-2.40862,0.344455,0.171285,26.0784,0.119313,
2,1,0,1,0,44495.9,0.121155,0.120825,3.93813,23,0.00747487,10,0.000475825,-2.40471,0.380315,0.155135,23.8398,0.120825,
2,1,0,1,0,44496,0.122651,0.122318,3.97743,23,0.00762351,10,0.000486509,-2.4004,0.374824,0.157407,24.3919,0.122318,
2,1,0,1,0,44496,0.124147,0.123847,4.01277,23,0.00777347,10,0.000496969,-2.39656,0.444438,0.132752,20.7344,0.123847,
2,1,0,1,0,44496,0.12565,0.125351,4.03787,23,0.00792542,10,0.000506149,-2.39385,0.536742,0.109922,17.2959,0.125351,
2,1,0,1,0,44496.1,0.127146,0.126869,4.05858,23,0.00807752,10,0.000514907,-2.39163,0.603445,0.0977719,15.4828,0.126869,
2,1,0,1,0,44496.1,0.128642,0.128307,4.07968,23,0.00823044,10,0.000523451,-2.38937,0.666081,0.0885778,14.1278,0.128307,
2,1,0,1,0,44496.1,0.130142,0.129826,4.10146,23,0.00838461,10,0.000532476,-2.38706,0.706412,0.0835206,13.385,0.129826,
2,1,0,1,0,44496.2,0.131642,0.131347,4.12128,23,0.00853956,10,0.000541316,-2.38497,0.930996,0.063373,10.1961,0.131347,
2,1,0,1,0,44496.2,0.133139,0.132856,4.13839,23,0.00869471,10,0.000549808,-2.38317,1.1766,0.0501444,8.09213,0.132856,
2,1,0,1,0,44496.3,0.134635,0.134312,4.15027,23,0.00885025,10,0.000557432,-2.38192,1.71622,0.0343779,5.56432,0.134312,
2,1,0,1,0,44496.3,0.136135,0.135778,4.16318,23,0.00900666,10,0.00056527,-2.38057,1.65894,0.0355648,5.76193,0.135778,
2,1,0,1,0,44496.3,0.137635,0.137317,4.16838,23,0.00916338,10,0.000572387,-2.38003,33.6625,0.00175269,0.284211,0.137317,
2,1,0,1,0,44496.4,0.13913,0.138816,4.16064,23,0.00931972,10,0.000577566,-2.38084,-1.8515,-0.031866,-5.16232,0.138816,
2,1,0,1,0,44496.4,0.140626,0.14032,4.14427,23,0.00947569,10,0.000581523,-2.38255,-0.722377,-0.0816748,-13.1959,0.14032,
2,1,0,1,0,44496.4,0.142129,0.141816,4.12097,23,0.00963179,10,0.000584418,-2.385,-0.502175,-0.117489,-18.8594,0.141816,
2,1,0,1,0,44496.5,0.143626,0.143326,4.08705,23,0.00978599,10,0.000585781,-2.38859,-0.321259,-0.183653,-29.2055,0.143326,
2,1,0,1,0,44496.5,0.145122,0.144783,4.03293,23,0.00993855,10,0.0005839,-2.39438,-0.216902,-0.272012,-42.6344,0.144783,
2,1,0,1,0,44496.6,0.146622,0.1463,3.96018,23,0.0100891,10,0.000579375,-2.40228,-0.172736,-0.341561,-52.6094,0.1463,
2,1,0,1,0,44496.6,0.148122,0.147787,3.87573,23,0.0102367,10,0.000572783,-2.41165,-0.142555,-0.413875,-62.3363,0.147787,
2,1,0,1,0,44496.6,0.149619,0.149305,3.77476,23,0.0103804,10,0.000563593,-2.42311,-0.120794,-0.488436,-71.6747,0.149305,
2,1,0,1,0,44496.7,0.151115,0.150821,3.65806,23,0.01052,10,0.000551712,-2.43675,-0.102157,-0.577542,-82.11,0.150821,
2,1,0,1,0,44496.7,0.152615,0.152292,3.52327,23,0.0106555,10,0.000536565,-2.45305,-0.0929531,-0.634729,-87.3076,0.152292,
2,1,0,1,0,44496.7,0.154115,0.153802,3.39278,23,0.0107858,10,0.000521815,-2.46944,-0.0874594,-0.674599,-89.3618,0.153802,
2,1,0,1,0,44496.8,0.155611,0.155252,3.25882,23,0.0109109,10,0.000505939,-2.48694,-0.0837921,-0.704124,-89.567,0.155252,
2,1,0,1,0,44496.8,0.157106,0.156811,3.1278,23,0.0110309,10,0.000490474,-2.50476,-0.0807429,-0.730714,-89.1534,0.156811,
2,1,0,1,0,44496.9,0.15861,0.158292,2.99832,23,0.0111466,10,0.000474612,-2.52312,-0.0820705,-0.718894,-84.1575,0.158292,
2,1,0,1,0,44496.9,0.160106,0.159804,2.8782,23,0.0112569,10,0.000459947,-2.54088,-0.0854927,-0.690118,-77.5076,0.159804,
2,1,0,1,0,44496.9,0.161602,0.161291,2.76285,23,0.0113629,10,0.000445622,-2.55864,-0.0890335,-0.662672,-71.5576,0.161291,
2,1,0,1,0,44497,0.163102,0.162752,2.66198,23,0.0114651,10,0.000433241,-2.5748,-0.0915346,-0.644565,-67.1196,0.162752,
2,1,0,1,0,44497,0.164602,0.164273,2.5627,23,0.0115637,10,0.000420984,-2.5913,-0.0997177,-0.59167,-59.4689,0.164273,
2,1,0,1,0,44497,0.166099,0.165796,2.48071,23,0.0116586,10,0.00041129,-2.60542,-0.106795,-0.552462,-53.701,0.165796,
2,1,0,1,0,44497.1,0.167595,0.167273,2.40783,23,0.0117506,10,0.000402764,-2.61837,-0.118295,-0.498755,-46.9765,0.167273,
2,1,0,1,0,44497.1,0.169095,0.16876,2.34454,23,0.0118402,10,0.000395665,-2.62994,-0.129931,-0.454087,-41.5773,0.16876,
2,1,0,1,0,44497.2,0.170595,0.170308,2.28316,23,0.0119275,10,0.00038884,-2.64146,-0.137247,-0.429883,-38.3042,0.170308,
2,1,0,1,0,44497.2,0.172091,0.171774,2.22298,23,0.0120123,10,0.000381851,-2.65306,-0.145552,-0.405353,-35.2548,0.171774,
2,1,0,1,0,44497.2,0.173586,0.17323,2.178,23,0.0120952,10,0.000377295,-2.66194,-0.172669,-0.341695,-29.0772,0.17323,
2,1,0,1,0,44497.3,0.17509,0.174768,2.13603,23,0.0121769,10,0.00037331,-2.67039,-0.179616,-0.328479,-27.4153,0.174768,
2,1,0,1,0,44497.3,0.176586,0.176312,2.0915,23,0.0122566,10,0.000368757,-2.67954,-0.197022,-0.299458,-24.5329,0.176312,
2,1,0,1,0,44497.3,0.178083,0.17775,2.05729,23,0.0123349,10,0.000365684,-2.6867,-0.212092,-0.278181,-22.4309,0.17775,
2,1,0,1,0,44497.4,0.179582,0.179279,2.02743,23,0.0124122,10,0.000363475,-2.69305,-0.246115,-0.239725,-19.0324,0.179279,
2,1,0,1,0,44497.4,0.181082,0.180775,2.00624,23,0.0124884,10,0.000362678,-2.69762,-0.281317,-0.209728,-16.4216,0.180775,
2,1,0,1,0,44497.5,0.182579,0.182259,1.98266,23,0.0125635,10,0.000361357,-2.70275,-0.278551,-0.21181,-16.3428,0.182259,
2,1,0,1,0,44497.5,0.184075,0.183796,1.96213,23,0.0126377,10,0.000360632,-2.70727,-0.309827,-0.190429,-14.5341,0.183796,
2,1,0,1,0,44497.5,0.185579,0.185269,1.93491,23,0.0127115,10,0.000358479,-2.71334,-0.357779,-0.164906,-12.4617,0.185269,
2,1,0,1,0,44497.6,0.187074,0.186793,1.91811,23,0.0127841,10,0.000358289,-2.71713,-0.398446,-0.148075,-11.0963,0.186793,
2,1,0,1,0,44497.6,0.18857,0.188277,1.89859,23,0.0128561,10,0.00035746,-2.72157,-0.45155,-0.130661,-9.71306,0.188277,
2,1,0,1,0,44497.6,0.19007,0.189712,1.88528,23,0.0129278,10,0.000357661,-2.72462,-0.523913,-0.112614,-8.29815,0.189712,
2,1,0,1,0,44497.7,0.19157,0.191276,1.87005,23,0.0129988,10,0.000357695,-2.72815,-0.523393,-0.112726,-8.24738,0.191276,
2,1,0,1,0,44497.7,0.193066,0.192749,1.85975,23,0.0130692,10,0.000358464,-2.73055,-0.649509,-0.0908378,-6.59041,0.192749,
2,1,0,1,0,44497.8,0.194563,0.194278,1.85352,23,0.0131392,10,0.000360097,-2.732,-0.564868,-0.104449,-7.53225,0.194278,
2,1,0,1,0,44497.8,0.196063,0.195715,1.8393,23,0.013209,10,0.000359979,-2.73535,-0.482683,-0.122234,-8.75822,0.195715,
2,1,0,1,0,44497.8,0.197563,0.19722,1.82473,23,0.0132784,10,0.000359874,-2.7388,-0.781402,-0.0755053,-5.39102,0.19722,
2,1,0,1,0,44497.9,0.199059,0.198754,1.81704,23,0.0133471,10,0.000361145,-2.74063,-0.698952,-0.0844121,-6.00826,0.198754,
2,1,0,1,0,44497.9,0.200555,0.200227,1.80961,23,0.0134156,10,0.000362333,-2.74241,-0.702535,-0.0839816,-5.93991,0.200227,
2,1,0,1,0,44497.9,0.202059,0.201764,1.80331,23,0.0134842,10,0.000363842,-2.74393,-0.726372,-0.0812255,-5.71871,0.201764,
2,1,0,1,0,44498,0.203554,0.203224,1.79478,23,0.0135521,10,0.000364741,-2.74599,-0.91784,-0.0642813,-4.50774,0.203224,
2,1,0,1,0,44498,0.20505,0.204717,1.79239,23,0.0136197,10,0.000366933,-2.74657,-1.68195,-0.0350783,-2.45318,0.204717,
2,1,0,1,0,44498,0.20655,0.206256,1.78478,23,0.0136872,10,0.000368122,-2.74842,-1.29632,-0.0455136,-3.16399,0.206256,
2,1,0,1,0,44498.1,0.20805,0.207727,1.78295,23,0.0137548,10,0.000370367,-2.74886,-0.880698,-0.0669923,-4.64318,0.2077266,
2,1,0,1,0,44498.1,0.209546,0.209195,1.77178,23,0.0138218,10,0.000370648,-2.75159,-0.85211,-0.0692399,-4.79213,0.209195,
2,1,0,1,0,44498.2,0.211043,0.210729,1.76455,23,0.0138885,10,0.000371844,-2.75337,-1.10829,-0.0532352,-3.67799,0.210729,
2,1,0,1,0,44498.2,0.212543,0.212216,1.76021,23,0.0139553,10,0.000373544,-2.75444,-1.69851,-0.0347363,-2.39043,0.212216,
2,1,0,1,0,44498.2,0.214043,0.213725,1.7563,23,0.0140219,10,0.000375364,-2.7554,-1.45681,-0.0404994,-2.7779,0.213725,
2,1,0,1,0,44498.3,0.215539,0.215188,1.75333,23,0.0140881,10,0.000377294,-2.75614,-1.49903,-0.0393588,-2.69481,0.215188,
2,1,0,1,0,44498.3,0.217035,0.216702,1.74819,23,0.0141541,10,0.000378835,-2.75741,-1.25787,-0.0469049,-3.19811,0.216702,
2,1,0,1,0,44498.3,0.218538,0.218245,1.74451,23,0.0142203,10,0.000380732,-2.75833,-1.97781,-0.029831,-2.02548,0.218245,
2,1,0,1,0,44498.4,0.220034,0.219725,1.74425,23,0.014286,10,0.000383255,-2.75839,-2.13493,-0.0276356,-1.87511,0.219725,
2,1,0,1,0,44498.4,0.22153,0.221249,1.73845,23,0.0143517,10,0.000384631,-2.75984,-1.32724,-0.0444532,-3.00645,0.221249,
2,1,0,1,0,44498.5,0.22303,0.222702,1.72688,23,0.0144173,10,0.000384579,-2.76274,-0.975395,-0.0604883,-4.08993,0.2227021,
2,1,0,1,0,44498.5,0.22453,0.224208,1.7223,23,0.0144827,10,0.000386155,-2.76389,-2.01404,-0.0292943,-1.97697,0.224208,
2,1,0,1,0,44498.5,0.226026,0.225736,1.7253,23,0.0145478,10,0.000389463,-2.76313,-2.10901,-0.0279752,-1.88364,0.225736,
2,1,0,1,0,44498.6,0.227523,0.22723,1.72441,23,0.0146129,10,0.000391837,-2.76336,-1.24377,-0.0474366,-3.18315,0.22723,
2,1,0,1,0,44498.6,0.229023,0.228682,1.71929,23,0.014678,10,0.00039317,-2.76465,-1.66002,-0.0355418,-2.38009,0.228682,
2,1,0,1,0,44498.6,0.230523,0.230225,1.71637,23,0.0147429,10,0.000395153,-2.76539,-2.57314,-0.0229292,-1.53453,0.230225,
2,1,0,1,0,44498.7,0.232019,0.231689,1.71182,23,0.0148076,10,0.00039661,-2.76654,-2.54269,-0.0232038,-1.54886,0.231689,
2,1,0,1,0,44498.7,0.233515,0.233215,1.70789,23,0.0148722,10,0.000398307,-2.76754,-1.20879,-0.0488091,-3.25547,0.2332155,
2,1,0,1,0,44498.8,0.235018,0.234747,1.70781,23,0.0149371,10,0.000400902,-2.76756,-2.59425,-0.0227426,-1.51704,0.234747,
2,1,0,1,0,44498.8,0.236514,0.23622,1.69967,23,0.0150014,10,0.000401495,-2.76964,-4.04956,-0.0145695,-0.970277,0.23622,
2,1,0,1,0,44498.8,0.23801,0.237696,1.70312,23,0.0150656,10,0.000404823,-2.76876,-8.75916,-0.0067358,-0.446793,0.237696,
2,1,0,1,0,44498.9,0.23951,0.23922,1.69653,23,0.01513,10,0.000405844,-2.77044,-2.08454,-0.0283036,-1.87398,0.23922,
2,1,0,1,0,44498.9,0.24101,0.240713,1.69834,23,0.0151942,10,0.000408812,-2.76998,-1.97034,-0.029944,-1.97764,0.240713,
2,1,0,1,0,44498.9,0.242506,0.242166,1.6943,23,0.0152582,10,0.000410302,-2.77101,-2.44789,-0.0241024,-1.59232,0.242166,
2,1,0,1,0,44499,0.244003,0.243705,1.69308,23,0.015322,10,0.000412612,-2.77132,-2.78052,-0.0212191,-1.40098,0.243705,
2,1,0,1,0,44499,0.245503,0.245194,1.69176,23,0.015386,10,0.00041481,-2.77166,-3.03914,-0.0194134,-1.28007,0.2451935,
2,1,0,1,0,44499.1,0.247003,0.246696,1.68475,23,0.01545,10,0.000415623,-2.77346,-1.19274,-0.0494658,-3.25762,0.246696,
2,1,0,1,0,44499.1,0.248499,0.248174,1.67979,23,0.0155136,10,0.000416882,-2.77474,-2.49675,-0.0236307,-1.55537,0.248174,
2,1,0,1,0,44499.1,0.249995,0.249703,1.68217,23,0.0155771,10,0.000420044,-2.77413,-2.25112,-0.0262092,-1.72184,0.249703,
2,1,0,1,0,44499.2,0.251498,0.251189,1.68132,23,0.0156409,10,0.000422329,-2.77435,-3.0822,-0.0191422,-1.25431,0.251189,
2,1,0,1,0,44499.2,0.252994,0.252674,1.6785,23,0.0157043,10,0.000424114,-2.77508,-1.99337,-0.0295981,-1.93253,0.252674,
2,1,0,1,0,44499.2,0.25449,0.254184,1.67595,23,0.0157676,10,0.000426,-2.77574,-1.84053,-0.032056,-2.09252,0.2541841,
2,1,0,1,0,44499.3,0.25599,0.25565,1.67073,23,0.0158309,10,0.000427121,-2.77709,-2.27742,-0.0259066,-1.6928,0.25565,
2,1,0,1,0,44499.3,0.25749,0.257145,1.66906,23,0.0158941,10,0.000429189,-2.77753,-2.86369,-0.0206028,-1.34213,0.257145,
2,1,0,1,0,44499.4,0.258987,0.258694,1.6679,23,0.0159572,10,0.000431475,-2.77783,-2.90315,-0.0203228,-1.32562,0.258694,
2,1,0,1,0,44499.4,0.260483,0.260201,1.6671,23,0.0160202,10,0.00043378,-2.77804,-2.00266,-0.0294607,-1.91679,0.260201,
2,1,0,1,0,44499.4,0.261983,0.261694,1.66285,23,0.0160832,10,0.000435159,-2.77915,-2.6008,-0.0226853,-1.47392,0.261694,
2,1,0,1,0,44499.5,0.263483,0.263204,1.66063,23,0.0161461,10,0.000437085,-2.77973,97.7721,0.000603444,0.0390974,0.263204,
2,1,0,1,0,44499.5,0.264978,0.264675,1.66113,23,0.0162088,10,0.00043966,-2.7796,-3.01152,-0.0195914,-1.26816,0.264675,
2,1,0,1,0,44499.5,0.266474,0.266154,1.6592,23,0.0162714,10,0.000441603,-2.7801,-1.57001,-0.0375793,-2.4284,0.266154,
2,1,0,1,0,44499.6,0.267977,0.267677,1.64846,23,0.0163343,10,0.000441255,-2.78292,-2.91606,-0.0202328,-1.30577,0.267677,
2,1,0,1,0,44499.6,0.269474,0.269138,1.65335,23,0.0163966,10,0.000444979,-2.78164,-43.7174,-0.00134958,-0.0870792,0.269138,
2,1,0,1,0,44499.7,0.27097,0.270682,1.64937,23,0.016459,10,0.000446454,-2.78268,-1.50451,-0.0392154,-2.52769,0.270682,
2,1,0,1,0,44499.7,0.27247,0.272162,1.65069,23,0.0165215,10,0.000449254,-2.78233,-1.98264,-0.0297583,-1.91359,0.272162,
2,1,0,1,0,44499.7,0.27397,0.273679,1.64496,23,0.0165838,10,0.000450191,-2.78385,-2.04673,-0.0288264,-1.85068,0.273679,
2,1,0,1,0,44499.8,0.275467,0.275179,1.64241,23,0.0166458,10,0.000451956,-2.78452,-2.79427,-0.0211146,-1.35384,0.2751793,
2,1,0,1,0,44499.8,0.276963,0.276631,1.6427,23,0.0167078,10,0.000454422,-2.78444,-2.40654,-0.0245166,-1.5669,0.276631,
2,1,0,1,0,44499.8,0.278463,0.278164,1.6383,23,0.0167698,10,0.000455714,-2.78561,-2.29538,-0.0257038,-1.63935,0.278164,
2,1,0,1,0,44499.9,0.279963,0.279681,1.63779,23,0.0168318,10,0.000458059,-2.78574,-2.93179,-0.0201242,-1.28444,0.279681,
2,1,0,1,0,44499.9,0.281459,0.281112,1.62676,23,0.0168934,10,0.000457302,-2.78868,-1.97627,-0.0298543,-1.90262,0.281112,
2,1,0,1,0,44500,0.282954,0.28262,1.62722,23,0.016955,10,0.000459884,-2.78855,-5.81634,-0.0101438,-0.645235,0.28262,
2,1,0,1,0,44500,0.284458,0.284128,1.62588,23,0.0170169,10,0.000461957,-2.78891,-4.12368,-0.0143076,-0.908558,0.284128,
2,1,0,1,0,44500,0.285954,0.285611,1.62336,23,0.0170783,10,0.000463648,-2.78959,-1.17575,-0.0501808,-3.17688,0.285611,
2,1,0,1,0,44500.1,0.28745,0.287131,1.62178,23,0.0171395,10,0.000465664,-2.79001,-1.86495,-0.0316362,-1.99936,0.287131,
2,1,0,1,0,44500.1,0.28895,0.288695,1.61733,23,0.0172008,10,0.000466914,-2.7912,-1.80486,-0.0326896,-2.05824,0.288695,
2,1,0,1,0,44500.1,0.29045,0.290111,1.61498,23,0.0172621,10,0.000468525,-2.79183,-4.20204,-0.0140408,-0.884063,0.290111,
2,1,0,1,0,44500.2,0.291947,0.291596,1.61216,23,0.0173231,10,0.0004701,-2.79259,-1.13641,-0.0519177,-3.26616,0.291596,
2,1,0,1,0,44500.2,0.293443,0.293095,1.60527,23,0.0173839,10,0.000470496,-2.79445,-1.65935,-0.0355562,-2.23483,0.293095,
2,1,0,1,0,44500.3,0.294943,0.294662,1.60451,23,0.0174448,10,0.00047279,-2.79466,-2.50377,-0.0235645,-1.48058,0.294662,
2,1,0,1,0,44500.3,0.296443,0.296137,1.60654,23,0.0175056,10,0.000475754,-2.79411,-4.7091,-0.0125289,-0.784944,0.2961365,
2,1,0,1,0,44500.3,0.297939,0.297627,1.60234,23,0.0175662,10,0.000476901,-2.79524,-1.50299,-0.0392552,-2.44965,0.297627,
2,1,0,1,0,44500.4,0.299434,0.299155,1.59886,23,0.0176267,10,0.000478309,-2.79619,-0.0170821,-3.45392,-186.425,0.299155,
2,1,0,0,0,44500.4,0.299962,0.299727,1.53266,23,0.0176504,10,0.000459381,-2.81455,0.00115866,50.9208,1575.95,0.299727,
2,1,0,1,0,44500.4,0.298689,0.298366,0.511259,23,0.0176786,10,0.000152542,-3.29136,0.00196027,30.0979,494.569,0.298366,
2,1,0,1,0,44500.5,0.297189,0.296886,0.0574191,23,0.0176874,10,1.70469e-05,-4.24094,0.00724885,8.13923,249.175,0.296886,
2,0,0,1,0,44500.5,0.295692,0.295389,-0.168608,23,0.0176842,10,-4.98049e-05,-3.77312,-0.0137619,-4.28721,124.701,0.2953887,
2,0,0,1,0,44500.5,0.294196,0.293869,-0.297464,23,0.0176747,10,-8.74154e-05,-3.52657,-0.00715719,-8.24346,73.9829,0.2938689,
2,0,0,1,0,44500.6,0.292696,0.292352,-0.381536,23,0.0176611,10,-0.000111543,-3.41846,-0.0165349,-3.56821,49.3308,0.292352,
2,0,0,1,0,44500.6,0.291196,0.290886,-0.444988,23,0.0176449,10,-0.000129441,-3.35165,-0.0260432,-2.26546,38.0157,0.290886,
2,0,0,1,0,44500.6,0.2897,0.289366,-0.500504,23,0.0176266,10,-0.000144829,-3.30059,-0.0373532,-1.57952,29.9448,0.289366,
2,0,0,1,0,44500.7,0.288205,0.287885,-0.539477,23,0.0176066,10,-0.000155308,-3.26803,-0.0480517,-1.22784,25.2542,0.287885,
2,0,0,1,0,44500.7,0.286701,0.286386,-0.574134,23,0.017585,10,-0.000164424,-3.24099,-0.0571092,-1.03311,22.8354,0.286386,
2,0,0,1,0,44500.8,0.285205,0.284854,-0.602791,23,0.0175623,10,-0.000171708,-3.21983,-0.0692349,-0.852171,19.9875,0.284854,
2,0,0,1,0,44500.8,0.283708,0.283391,-0.630219,23,0.0175385,10,-0.000178598,-3.20051,-0.0776087,-0.760224,18.7321,0.283391,
2,0,0,1,0,44500.8,0.282208,0.281857,-0.657531,23,0.0175135,10,-0.000185329,-3.18208,-0.0942816,-0.625785,16.0493,0.281857,
2,0,0,1,0,44500.9,0.280709,0.280392,-0.678857,23,0.0174877,10,-0.000190346,-3.16822,-0.109647,-0.538089,14.3465,0.280392,
2,0,0,1,0,44500.9,0.279212,0.278895,-0.703109,23,0.0174611,10,-0.000196093,-3.15298,-0.106874,-0.552049,15.1625,0.278895,
2,0,0,1,0,44500.9,0.277716,0.277423,-0.727869,23,0.0174338,10,-0.000201928,-3.13795,-0.113648,-0.519148,14.6239,0.2774229,
2,0,0,1,0,44501,0.276216,0.275917,-0.748101,23,0.0174055,10,-0.000206414,-3.12604,-0.135228,-0.4363,12.583,0.2759172,
2,0,0,1,0,44501,0.274716,0.274427,-0.766132,23,0.0173766,10,-0.000210248,-3.1157,-0.158966,-0.371149,11.0098,0.274427,
2,0,0,1,0,44501.1,0.27322,0.272909,-0.779253,23,0.0173471,10,-0.000212665,-3.10832,-0.15663,-0.376684,11.4653,0.2729089,
2,0,0,1,0,44501.1,0.271725,0.271381,-0.792779,23,0.0173169,10,-0.000215145,-3.10085,-0.138263,-0.426722,13.2842,0.271381,
2,0,0,1,0,44501.1,0.270221,0.269885,-0.813098,23,0.0172859,10,-0.000219443,-3.08986,-0.163654,-0.360516,11.4859,0.269885,
2,0,0,1,0,44501.2,0.268725,0.268415,-0.82862,23,0.0172545,10,-0.000222414,-3.08164,-0.217153,-0.271698,8.7955,0.268415,
2,0,0,1,0,44501.2,0.267228,0.266877,-0.841766,23,0.0172225,10,-0.000224648,-3.07481,-0.1823,-0.323642,10.6367,0.266877,
2,0,0,1,0,44501.2,0.265728,0.265407,-0.86015,23,0.01719,10,-0.00022829,-3.06543,-0.183453,-0.321608,10.7427,0.265407,
2,0,0,1,0,44501.3,0.264228,0.263914,-0.871374,23,0.0171569,10,-0.000229968,-3.0598,-0.229555,-0.257019,8.72778,0.263914,
2,0,0,1,0,44501.3,0.262732,0.262424,-0.887576,23,0.0171233,10,-0.000232921,-3.05179,-0.25874,-0.228028,7.86599,0.262424,
2,0,0,1,0,44501.4,0.261236,0.260917,-0.897628,23,0.0170893,10,-0.000234206,-3.0469,-0.276573,-0.213325,7.48078,0.260917,
2,0,0,1,0,44501.4,0.259736,0.259441,-0.910522,23,0.0170548,10,-0.000236227,-3.04071,-0.21382,-0.275933,9.85171,0.259441,
2,0,0,1,0,44501.4,0.258236,0.257912,-0.921892,23,0.0170198,10,-0.000237767,-3.03532,-0.262166,-0.225048,8.11739,0.257912,
2,0,0,1,0,44501.5,0.256741,0.256465,-0.934669,23,0.0169843,10,-0.00023971,-3.02934,-0.263705,-0.223734,8.16036,0.256465,
2,0,0,1,0,44501.5,0.255241,0.254905,-0.949047,23,0.0169484,10,-0.000241917,-3.02271,-0.309036,-0.190916,7.03482,0.2549054,
2,0,0,1,0,44501.5,0.253741,0.253356,-0.95663,23,0.016912,10,-0.000242368,-3.01926,-0.291139,-0.202652,7.56022,0.253356,
2,0,0,1,0,44501.6,0.252245,0.251909,-0.971097,23,0.0168754,10,-0.000244628,-3.01274,-0.285381,-0.206741,7.79338,0.251909,
2,0,0,1,0,44501.6,0.250748,0.250448,-0.982491,23,0.0168382,10,-0.000246063,-3.00767,-0.290006,-0.203444,7.79156,0.250448,
2,0,0,1,0,44501.7,0.249248,0.24893,-0.990882,23,0.0168006,10,-0.00024666,-3.00398,-0.328836,-0.179421,6.93235,0.24893,
2,0,0,1,0,44501.7,0.247748,0.247397,-0.997663,23,0.0167625,10,-0.000246819,-3.00102,-0.364212,-0.161994,6.36176,0.247397,
2,0,0,1,0,44501.7,0.246252,0.245949,-1.01073,23,0.0167242,10,-0.000248589,-2.99536,-0.270303,-0.218273,8.63608,0.245949,
2,0,0,1,0,44501.8,0.244756,0.244446,-1.02321,23,0.0166855,10,-0.00025012,-2.99003,-0.317955,-0.185561,7.4091,0.244446,
2,0,0,1,0,44501.8,0.243252,0.242932,-1.03476,23,0.0166461,10,-0.000251377,-2.98516,-0.398498,-0.148056,5.95568,0.242932,
2,0,0,1,0,44501.8,0.241756,0.241426,-1.04188,23,0.0166067,10,-0.000251536,-2.98218,-0.326832,-0.180521,7.32894,0.241426,
2,0,0,1,0,44501.9,0.240261,0.239969,-1.05307,23,0.0165669,10,-0.000252704,-2.97754,-0.370362,-0.159304,6.53604,0.239969,
2,0,0,1,0,44501.9,0.238761,0.238445,-1.06245,23,0.0165265,10,-0.000253336,-2.97369,-0.301008,-0.196008,8.10574,0.238445,
2,0,0,1,0,44502,0.237261,0.236931,-1.07096,23,0.0164858,10,-0.000253743,-2.97023,-0.472518,-0.124863,5.22191,0.236931,
2,0,0,1,0,44502,0.235765,0.235427,-1.07738,23,0.0164448,10,-0.000253645,-2.96763,-0.577895,-0.102095,4.32017,0.235427,
2,0,0,1,0,44502,0.234268,0.233917,-1.0878,23,0.0164036,10,-0.000254456,-2.96345,-0.477317,-0.123608,5.28544,0.233917,
2,0,0,1,0,44502.1,0.232768,0.232468,-1.09761,23,0.0163618,10,-0.000255159,-2.95955,-0.365565,-0.161394,6.93087,0.232468,
2,0,0,1,0,44502.1,0.231268,0.230977,-1.10963,23,0.0163197,10,-0.0002563,-2.95482,-0.4246,-0.138954,6.01077,0.230977,
2,0,0,1,0,44502.1,0.229772,0.229465,-1.12435,23,0.0162773,10,-0.000257998,-2.9491,-0.412559,-0.14301,6.23007,0.229465,
2,0,0,1,0,44502.2,0.228275,0.227985,-1.12916,23,0.0162347,10,-0.000257432,-2.94724,-0.509132,-0.115884,5.09146,0.227985,
2,0,0,1,0,44502.2,0.226772,0.226449,-1.13824,23,0.0161914,10,-0.000257753,-2.94377,-0.360581,-0.163625,7.25863,0.226449,
2,0,0,1,0,44502.3,0.225276,0.224951,-1.14761,23,0.0161481,10,-0.000258155,-2.94021,-0.460096,-0.128234,5.73564,0.224951,
2,0,0,1,0,44502.3,0.223781,0.223411,-1.15424,23,0.0161044,10,-0.000257869,-2.93771,-0.522294,-0.112963,5.09561,0.2234111,
2,0,0,1,0,44502.3,0.222281,0.221955,-1.15844,23,0.0160603,10,-0.000257122,-2.93613,-0.487353,-0.121062,5.50526,0.221955,
2,0,0,1,0,44502.4,0.220781,0.220448,-1.16766,23,0.0160158,10,-0.000257408,-2.93269,-0.424775,-0.138897,6.35271,0.220448,
2,0,0,1,0,44502.4,0.219284,0.218967,-1.18654,23,0.0159711,10,-0.000259814,-2.92572,-0.435121,-0.135594,6.24088,0.218967,
2,0,0,1,0,44502.4,0.217788,0.217455,-1.19255,23,0.015926,10,-0.000259327,-2.92352,-0.523489,-0.112705,5.22138,0.217455,
2,0,0,1,0,44502.5,0.216288,0.215931,-1.19682,23,0.0158805,10,-0.00025843,-2.92197,-0.478783,-0.123229,5.76515,0.215931,
2,0,0,1,0,44502.5,0.214788,0.214465,-1.20701,23,0.0158347,10,-0.000258861,-2.91829,-0.487583,-0.121005,5.70949,0.214465,
2,0,0,1,0,44502.6,0.213292,0.212952,-1.21683,23,0.0157887,10,-0.000259126,-2.91477,-0.471526,-0.125126,5.95586,0.212952,
2,0,0,1,0,44502.6,0.211796,0.211465,-1.22537,23,0.0157423,10,-0.000259124,-2.91173,-0.502877,-0.117325,5.61164,0.211465,
2,0,0,1,0,44502.6,0.210293,0.210005,-1.23347,23,0.0156953,10,-0.000259035,-2.90887,-0.453114,-0.13021,6.28814,0.210005,
2,0,0,1,0,44502.7,0.208797,0.20846,-1.2419,23,0.0156484,10,-0.000258886,-2.90591,-0.400056,-0.147479,7.17653,0.20846,
2,0,0,1,0,44502.7,0.207301,0.206992,-1.2536,23,0.0156011,10,-0.000259485,-2.90184,-0.370583,-0.159209,7.77543,0.206992,
2,0,0,1,0,44502.7,0.205801,0.205427,-1.26821,23,0.0155531,10,-0.000260525,-2.89681,-0.511998,-0.115235,5.65417,0.205427,
2,0,0,1,0,44502.8,0.204301,0.203984,-1.27468,23,0.0155048,10,-0.000260014,-2.8946,-0.756221,-0.0780195,3.86986,0.203984,
2,0,0,1,0,44502.8,0.202804,0.202501,-1.28067,23,0.0154565,10,-0.000259337,-2.89256,-0.541231,-0.109011,5.43885,0.202501,
2,0,0,1,0,44502.9,0.201308,0.200959,-1.28803,23,0.0154078,10,-0.000258841,-2.89008,-0.387896,-0.152103,7.65828,0.200959,
2,0,0,1,0,44502.9,0.199808,0.199463,-1.29693,23,0.0153585,10,-0.00025869,-2.88708,-0.504637,-0.116916,5.94012,0.199463,
2,0,0,1,0,44502.9,0.198308,0.198036,-1.30656,23,0.015309,10,-0.000258746,-2.88387,-0.607584,-0.0971059,4.96302,0.198036,
2,0,0,1,0,44503,0.196812,0.196443,-1.31346,23,0.0152592,10,-0.00025802,-2.88158,-0.561031,-0.105164,5.4062,0.1964431,
2,0,0,1,0,44503,0.195316,0.194959,-1.32983,23,0.0152091,10,-0.000259263,-2.8762,-0.457146,-0.129062,6.68172,0.194959,
2,0,0,1,0,44503,0.193813,0.193491,-1.34204,23,0.0151584,10,-0.000259673,-2.87223,-0.411279,-0.143455,7.46256,0.193491,
2,0,0,1,0,44503.1,0.192317,0.191948,-1.35013,23,0.0151074,10,-0.000259154,-2.86963,-0.487277,-0.121081,6.36067,0.191948,
2,0,0,1,0,44503.1,0.190821,0.190495,-1.3539,23,0.0150561,10,-0.000257911,-2.86841,-0.442036,-0.133473,7.08104,0.190495,
2,0,0,1,0,44503.2,0.189321,0.189023,-1.3639,23,0.0150044,10,-0.000257808,-2.86522,-0.459183,-0.128489,6.87098,0.189023,
2,0,0,1,0,44503.2,0.187821,0.187473,-1.37359,23,0.0149523,10,-0.000257511,-2.86214,-0.439589,-0.134216,7.23298,0.187473,
2,0,0,1,0,44503.2,0.186324,0.185987,-1.38983,23,0.0148999,10,-0.000258491,-2.85704,-0.549185,-0.107432,5.8198,0.185987,
2,0,0,1,0,44503.3,0.184828,0.184439,-1.40004,23,0.014847,10,-0.000258222,-2.85386,-0.467608,-0.126174,6.89295,0.184439,
2,0,0,1,0,44503.3,0.183328,0.182978,-1.41039,23,0.0147938,10,-0.00025807,-2.85066,-0.429802,-0.137273,7.55755,0.182978,
2,0,0,1,0,44503.3,0.181828,0.181468,-1.42736,23,0.01474,10,-0.000259019,-2.84547,-0.34704,-0.170009,9.41114,0.181468,
2,0,0,1,0,44503.4,0.180332,0.180009,-1.43986,23,0.0146859,10,-0.000259187,-2.84168,-0.372886,-0.158225,8.8438,0.180009,
2,0,0,1,0,44503.4,0.178836,0.178524,-1.44822,23,0.0146312,10,-0.000258542,-2.83916,-0.371715,-0.158724,8.9679,0.178524,
2,0,0,1,0,44503.5,0.177333,0.177009,-1.45366,23,0.0145759,10,-0.000257311,-2.83754,-0.360391,-0.163711,9.34975,0.177009,
2,0,0,1,0,44503.5,0.175837,0.175492,-1.4703,23,0.0145204,10,-0.000258026,-2.83259,-0.339474,-0.173798,10.0172,0.175492,
2,0,0,1,0,44503.5,0.174341,0.174024,-1.48727,23,0.0144644,10,-0.000258821,-2.82761,-0.339309,-0.173883,10.1017,0.174024,
2,0,0,1,0,44503.6,0.172841,0.172517,-1.5061,23,0.0144076,10,-0.000259828,-2.82215,-0.362178,-0.162903,9.53725,0.172517,
2,0,0,1,0,44503.6,0.171341,0.171048,-1.51316,23,0.0143503,10,-0.000258824,-2.82011,-0.367686,-0.160463,9.48789,0.171048,
2,0,0,1,0,44503.6,0.169844,0.169559,-1.53616,23,0.0142926,10,-0.000260469,-2.81356,-0.326674,-0.180608,10.8125,0.169559,
2,0,0,1,0,44503.7,0.168348,0.168061,-1.55527,23,0.0142341,10,-0.000261381,-2.80819,-0.278691,-0.211704,12.8155,0.168061,
2,0,0,1,0,44503.7,0.166848,0.166483,-1.5711,23,0.0141748,10,-0.000261562,-2.8038,-0.296346,-0.199091,12.2021,0.166483,
2,0,0,1,0,44503.8,0.165348,0.16501,-1.58645,23,0.0141148,10,-0.00026178,-2.79957,-0.313379,-0.18827,11.7176,0.16501,
2,0,0,1,0,44503.8,0.163852,0.163491,-1.60667,23,0.0140543,10,-0.000262676,-2.79407,-0.273057,-0.216072,13.6294,0.163491,
2,0,0,1,0,44503.8,0.162357,0.161984,-1.63234,23,0.013993,10,-0.000264412,-2.78719,-0.242978,-0.24282,15.4841,0.161984,
2,0,0,1,0,44503.9,0.160853,0.16057,-1.65944,23,0.0139305,10,-0.000266455,-2.78004,-0.242342,-0.243458,15.7167,0.16057,
2,0,0,1,0,44503.9,0.159357,0.15902,-1.68802,23,0.0138673,10,-0.000268428,-2.77262,-0.213332,-0.276564,18.1533,0.15902,
2,0,0,1,0,44503.9,0.15786,0.157545,-1.71534,23,0.0138032,10,-0.000270242,-2.76565,-0.202321,-0.291616,19.4901,0.157545,
2,0,0,1,0,44504,0.156361,0.155984,-1.74405,23,0.0137377,10,-0.000272044,-2.75844,-0.179149,-0.329334,22.4319,0.155984,
2,0,0,1,0,44504,0.154861,0.1545,-1.7761,23,0.013671,10,-0.000274408,-2.75053,-0.168719,-0.349693,24.2886,0.1545,
2,0,0,1,0,44504.1,0.153364,0.153054,-1.80898,23,0.0136031,10,-0.000276872,-2.74257,-0.166953,-0.353392,25.1222,0.153054,
2,0,0,1,0,44504.1,0.151868,0.151486,-1.85019,23,0.0135339,10,-0.000280279,-2.73278,-0.151895,-0.388427,28.176,0.151486,
2,0,0,1,0,44504.1,0.150368,0.150079,-1.9016,23,0.0134629,10,-0.000285391,-2.72088,-0.130311,-0.452762,33.6119,0.150079,
2,0,0,1,0,44504.2,0.148868,0.148534,-1.94947,23,0.0133901,10,-0.000289563,-2.71008,-0.124181,-0.475113,36.1591,0.148534,
2,0,0,1,0,44504.2,0.147372,0.147039,-2.00642,23,0.0133154,10,-0.000295023,-2.69758,-0.116092,-0.508219,39.7757,0.1470395,
2,0,0,1,0,44504.2,0.145877,0.145539,-2.06321,23,0.0132386,10,-0.000300277,-2.68546,-0.111988,-0.526842,42.5082,0.145539,
2,0,0,1,0,44504.3,0.144373,0.144042,-2.1294,23,0.013159,10,-0.000306723,-2.67174,-0.102676,-0.574626,48.0166,0.144042,
2,0,0,1,0,44504.3,0.142877,0.142536,-2.21286,23,0.0130771,10,-0.000315411,-2.65505,-0.097058,-0.607884,52.5831,0.142536,
2,0,0,1,0,44504.4,0.14138,0.141059,-2.2906,23,0.0129922,10,-0.00032311,-2.64005,-0.0943767,-0.625154,56.0137,0.1410587,
2,0,0,1,0,44504.4,0.13988,0.139568,-2.37902,23,0.0129038,10,-0.000332035,-2.6236,-0.0921598,-0.640192,59.5884,0.139568,
2,0,0,1,0,44504.4,0.13838,0.138049,-2.47374,23,0.0128121,10,-0.000341497,-2.60665,-0.0896329,-0.65824,63.6585,0.138049,
2,0,0,1,0,44504.5,0.136884,0.136545,-2.57689,23,0.012717,10,-0.000351861,-2.5889,-0.087098,-0.677398,68.0134,0.1365447,
2,0,0,1,0,44504.5,0.135388,0.135049,-2.67665,23,0.0126181,10,-0.000361478,-2.57241,-0.0869339,-0.678677,70.8277,0.135049,
2,0,0,1,0,44504.5,0.133888,0.133574,-2.78802,23,0.0125149,10,-0.000372407,-2.5547,-0.0906516,-0.650843,70.6261,0.1335742,
2,0,0,1,0,44504.6,0.132389,0.132042,-2.88983,23,0.0124079,10,-0.000381579,-2.53913,-0.0927143,-0.636364,71.7193,0.132042,
2,0,0,1,0,44504.6,0.130893,0.130565,-2.99288,23,0.0122971,10,-0.000390766,-2.52391,-0.09657,-0.610956,71.4299,0.130565,
2,0,0,1,0,44504.7,0.129393,0.129064,-3.10244,23,0.0121819,10,-0.000400413,-2.5083,-0.103423,-0.570475,69.0758,0.129064,
2,0,0,1,0,44504.7,0.127893,0.127552,-3.20947,23,0.0120628,10,-0.000409375,-2.49357,-0.110791,-0.532535,66.6178,0.1275522,
2,0,0,1,0,44504.7,0.126397,0.126074,-3.30425,23,0.0119402,10,-0.000416579,-2.48093,-0.116772,-0.505259,65.1372,0.126074,
2,0,0,1,0,44504.8,0.1249,0.12454,-3.40773,23,0.0118139,10,-0.000424397,-2.46754,-0.124144,-0.475256,63.0369,0.12454,
2,0,0,1,0,44504.8,0.1234,0.123061,-3.50165,23,0.0116838,10,-0.000430916,-2.45573,-0.130311,-0.452762,61.6879,0.123061,
2,0,0,1,0,44504.8,0.1219,0.121586,-3.58861,23,0.0115501,10,-0.000436325,-2.44507,-0.14628,-0.403335,56.3208,0.121586,
2,0,0,1,0,44504.9,0.120404,0.120068,-3.66694,23,0.0114136,10,-0.000440281,-2.4357,-0.159832,-0.369139,52.8273,0.120068,
2,0,0,1,0,44504.9,0.118908,0.118573,-3.74923,23,0.0112742,10,-0.000444557,-2.42606,-0.16745,-0.352345,51.5784,0.118573,
2,0,0,1,0,44505,0.117404,0.117039,-3.82027,23,0.0111311,10,-0.000447119,-2.41791,-0.181964,-0.32424,48.354,0.117039,
2,0,0,1,0,44505,0.115908,0.115551,-3.89678,23,0.010986,10,-0.000450278,-2.40929,-0.212917,-0.277103,42.0023,0.115551,
2,0,0,1,0,44505,0.114413,0.114077,-3.95361,23,0.0108386,10,-0.000451017,-2.40301,-0.252806,-0.233381,35.9431,0.114077,
2,0,0,1,0,44505.1,0.112913,0.112587,-4.00373,23,0.0106887,10,-0.000450767,-2.39754,-0.270087,-0.218448,34.057,0.112587,
2,0,0,1,0,44505.1,0.111413,0.111058,-4.05446,23,0.010537,10,-0.000450278,-2.39207,-0.329079,-0.179288,28.2557,0.111058,
2,0,0,1,0,44505.1,0.109917,0.109602,-4.09279,23,0.0103839,10,-0.000448576,-2.38798,-0.387225,-0.152366,24.2786,0.109602,
2,0,0,1,0,44505.2,0.10842,0.108123,-4.12037,23,0.0102297,10,-0.000445505,-2.38506,-0.541757,-0.108905,17.4956,0.108123,
2,0,0,1,0,44505.2,0.10692,0.106594,-4.14223,23,0.010074,10,-0.000441536,-2.38277,-0.714099,-0.0826216,13.3486,0.1065938,
2,0,0,1,0,44505.3,0.10542,0.105124,-4.15658,23,0.00991751,10,-0.000436957,-2.38126,-0.969082,-0.0608823,9.87399,0.105124,
2,0,0,1,0,44505.3,0.103924,0.103625,-4.17396,23,0.00976093,10,-0.000432526,-2.37945,-2.24913,-0.0262323,4.26346,0.1036249,
2,0,0,1,0,44505.3,0.102427,0.102086,-4.17883,23,0.00960414,10,-0.0004266,-2.37895,2.78459,0.021188,-3.44308,0.102086,
2,0,0,1,0,44505.4,0.100924,0.100612,-4.16767,23,0.00944665,10,-0.00041932,-2.38011,1.62805,0.0362397,-5.88323,0.1006125,
2,0,0,1,0,44505.4,0.0994284,0.0991019,-4.15537,23,0.00929041,10,-0.000411805,-2.38139,1.06024,0.055648,-9.0106,0.0991019,
2,0,0,1,0,44505.4,0.0979329,0.0976045,-4.13751,23,0.00913464,10,-0.00040384,-2.38326,0.862154,0.0684333,-11.0496,0.0976045,
2,0,0,1,0,44505.5,0.0964329,0.096067,-4.11606,23,0.00897908,10,-0.000395417,-2.38552,0.633592,0.0931198,-14.9456,0.096067,
2,0,0,1,0,44505.5,0.094933,0.094615,-4.08809,23,0.00882441,10,-0.000386794,-2.38848,0.59284,0.099521,-15.9044,0.094615,
2,0,0,1,0,44505.5,0.0934366,0.0930999,-4.06268,23,0.00867124,10,-0.000378235,-2.39119,0.499591,0.118097,-18.7515,0.0930999,
2,0,0,1,0,44505.6,0.0919402,0.0916273,-4.03618,23,0.00851903,10,-0.000369825,-2.39403,0.490753,0.120223,-18.9444,0.0916273,
2,0,0,1,0,44505.6,0.0904402,0.0900875,-4.01301,23,0.00836743,10,-0.000361522,-2.39653,0.446413,0.132165,-20.6662,0.0900875,
2,0,0,1,0,44505.7,0.0889402,0.0885895,-3.97849,23,0.00821693,10,-0.000352453,-2.40028,0.455782,0.129448,-20.0798,0.0885895,
2,0,0,1,0,44505.7,0.0874438,0.0871452,-3.94894,23,0.00806807,10,-0.000344131,-2.40352,0.494506,0.119311,-18.3898,0.0871452,
2,0,0,1,0,44505.7,0.0859483,0.085585,-3.9212,23,0.00792021,10,-0.000335596,-2.40658,0.514922,0.11458,-17.5367,0.085585,
2,0,0,1,0,44505.8,0.0844447,0.0841316,-3.89324,23,0.0077725,10,-0.000327545,-2.40969,0.518773,0.11373,-17.3074,0.0841316,
2,0,0,1,0,44505.8,0.0829492,0.0826343,-3.86763,23,0.00762658,10,-0.000319598,-2.41256,0.491426,0.120059,-18.1441,0.0826343,
2,0,0,1,0,44505.8,0.0814528,0.0811165,-3.84393,23,0.00748165,10,-0.000311806,-2.41522,0.558394,0.10566,-15.8764,0.0811165,
2,0,0,1,0,44505.9,0.0799528,0.0796457,-3.82084,23,0.00733723,10,-0.000304314,-2.41784,0.685856,0.0860239,-12.838,0.0796457,
2,0,0,1,0,44505.9,0.0784529,0.0781559,-3.80448,23,0.0071935,10,-0.000297343,-2.4197,0.6226,0.094764,-14.0631,0.0781559,
2,0,0,1,0,44506,0.0769565,0.0766134,-3.7854,23,0.00705084,10,-0.000290012,-2.42189,0.617589,0.0955328,-14.1044,0.0766134,
2,0,0,1,0,44506,0.0754601,0.0751296,-3.76345,23,0.00690895,10,-0.000282746,-2.42441,0.717347,0.0822475,-12.0873,0.0751296,
2,0,0,1,0,44506,0.0739601,0.0736189,-3.74555,23,0.0067674,10,-0.000275744,-2.42648,0.70324,0.0838974,-12.2766,0.0736189,
2,0,0,1,0,44506.1,0.0724601,0.072109,-3.72885,23,0.00662654,10,-0.000268884,-2.42843,0.734777,0.0802965,-11.6964,0.072109,
2,0,0,1,0,44506.1,0.0709637,0.0706984,-3.70822,23,0.00648667,10,-0.000262165,-2.43083,0.708862,0.083232,-12.0609,0.0706984,
2,0,0,1,0,44506.1,0.0694682,0.0691416,-3.69392,23,0.00634745,10,-0.000255404,-2.43251,0.777768,0.0758581,-10.9399,0.0691416,
2,0,0,1,0,44506.2,0.0679646,0.0676526,-3.67813,23,0.00620822,10,-0.000248835,-2.43437,0.76491,0.0771333,-11.0776,0.0676526,
2,0,0,1,0,44506.2,0.0664691,0.0661336,-3.66289,23,0.00607036,10,-0.00024224,-2.43618,0.693328,0.0850968,-12.1437,0.0661336,
2,0,0,1,0,44506.3,0.0649727,0.0646373,-3.64696,23,0.00593302,10,-0.00023573,-2.43807,0.685838,0.0860261,-12.2123,0.0646373,
2,0,0,1,0,44506.3,0.0634727,0.0631517,-3.62646,23,0.00579607,10,-0.000229017,-2.44052,0.614348,0.0960367,-13.5697,0.0631517,
2,0,0,1,0,44506.3,0.0619728,0.0616188,-3.60174,23,0.00565991,10,-0.000221935,-2.44349,0.593246,0.0994529,-13.9947,0.0616188,
2,0,0,1,0,44506.4,0.0604764,0.060151,-3.58278,23,0.00552482,10,-0.000215508,-2.44578,0.648871,0.0909271,-12.7257,0.060151,
2,0,0,1,0,44506.4,0.05898,0.0586414,-3.56458,23,0.0053904,10,-0.000209032,-2.44799,0.706116,0.0835556,-11.64,0.0586414,
2,0,0,1,0,44506.4,0.05748,0.0571211,-3.54902,23,0.00525632,10,-0.000202724,-2.44989,0.591687,0.0997149,-13.8053,0.0571211,
2,0,0,1,0,44506.5,0.05598,0.0556499,-3.52672,23,0.00512308,10,-0.000196262,-2.45263,0.564584,0.104502,-14.3839,0.0556499,
2,0,0,1,0,44506.5,0.0544836,0.0541458,-3.50875,23,0.00499093,10,-0.000189984,-2.45485,0.720637,0.081872,-11.1852,0.0541458,
2,0,0,1,0,44506.6,0.0529881,0.0526466,-3.49081,23,0.00485944,10,-0.000183779,-2.45707,0.616357,0.0957237,-13.0153,0.0526466,
2,0,0,1,0,44506.6,0.0514846,0.0511211,-3.4624,23,0.00472799,10,-0.000177002,-2.46062,0.531488,0.111009,-14.9967,0.0511211,
2,0,0,1,0,44506.6,0.049989,0.0497172,-3.43621,23,0.00459811,10,-0.000170839,-2.46392,0.509991,0.115688,-15.555,0.0497172,
2,0,0,1,0,44506.7,0.0484926,0.0481689,-3.42101,23,0.00446915,10,-0.000164786,-2.46585,0.507695,0.116212,-15.5312,0.0481689,
2,0,0,1,0,44506.7,0.0469927,0.0466173,-3.39723,23,0.00434058,10,-0.00015837,-2.46887,0.58299,0.101202,-13.4303,0.0466173,
2,0,0,1,0,44506.7,0.0454927,0.0451354,-3.37823,23,0.00421279,10,-0.000152478,-2.47131,0.494913,0.119213,-15.7068,0.0451354,
2,0,0,1,0,44506.8,0.0439963,0.0436808,-3.35583,23,0.00408617,10,-0.000146585,-2.4742,0.517788,0.113946,-14.9249,0.0436808,
2,0,0,1,0,44506.8,0.0424999,0.0421736,-3.33258,23,0.00396054,10,-0.000140547,-2.47722,0.571717,0.103198,-13.4202,0.0421736,
2,0,0,1,0,44506.9,0.0409999,0.0406672,-3.30968,23,0.00383535,10,-0.000134595,-2.48021,0.525512,0.112271,-14.4916,0.0406672,
2,0,0,1,0,44506.9,0.0394999,0.0391461,-3.28962,23,0.00371091,10,-0.000128776,-2.48285,0.458165,0.128775,-16.499,0.0391461,
2,0,0,1,0,44506.9,0.0380044,0.0376462,-3.25928,23,0.00358776,10,-0.000122699,-2.48688,0.411644,0.143328,-18.2372,0.0376462,
2,0,0,1,0,44507,0.0365089,0.0361816,-3.22908,23,0.00346569,10,-0.000116833,-2.49092,0.412882,0.142898,-18.0486,0.0361816,
2,0,0,1,0,44507,0.0350054,0.0346803,-3.207,23,0.00334392,10,-0.00011122,-2.4939,0.498122,0.118445,-14.8332,0.0346803,
2,0,0,1,0,44507,0.0335089,0.0331961,-3.18738,23,0.00322369,10,-0.000105809,-2.49657,0.427332,0.138066,-17.1504,0.0331961,
2,0,0,1,0,44507.1,0.0320125,0.0317003,-3.16145,23,0.00310437,10,-0.000100219,-2.50011,0.394897,0.149406,-18.3886,0.0317003,
2,0,0,1,0,44507.1,0.0305126,0.0301806,-3.12915,23,0.00298577,10,-9.44396e-05,-2.50457,0.398694,0.147983,-18.0746,0.0301806,
2,0,0,1,0,44507.2,0.0290126,0.0287038,-3.10402,23,0.00286823,10,-8.90971e-05,-2.50808,0.428466,0.137701,-16.6811,0.02870376,
2,0,0,1,0,44507.2,0.0275162,0.02718,-3.08339,23,0.00275189,10,-8.38066e-05,-2.51097,0.40635,0.145195,-17.4482,0.02718001,
2,0,0,1,0,44507.2,0.0260198,0.025674,-3.05516,23,0.00263644,10,-7.84382e-05,-2.51497,0.409492,0.144081,-17.1791,0.025674,
2,0,0,1,0,44507.3,0.0245198,0.0242407,-3.02136,23,0.00252166,10,-7.32401e-05,-2.5198,0.405678,0.145436,-17.2066,0.0242407,
2,0,0,1,0,44507.3,0.0230198,0.0226947,-3.00355,23,0.00240791,10,-6.81646e-05,-2.52237,0.439822,0.134145,-15.7472,0.0226947,
2,0,0,1,0,44507.3,0.0215243,0.0212582,-2.9836,23,0.00229527,10,-6.34258e-05,-2.52526,0.489666,0.12049,-14.0111,0.0212582,
2,0,0,1,0,44507.4,0.0200288,0.0196826,-2.95943,23,0.00218345,10,-5.82494e-05,-2.52879,0.464684,0.126968,-14.6496,0.0196826,
2,0,0,1,0,44507.4,0.0185253,0.018158,-2.94126,23,0.00207183,10,-5.34074e-05,-2.53147,0.495858,0.118986,-13.6462,0.018158,
2,0,0,1,0,44507.5,0.0170289,0.0167115,-2.91697,23,0.0019617,10,-4.87468e-05,-2.53507,0.460543,0.12811,-14.5941,0.0167115,
2,0,0,1,0,44507.5,0.0155325,0.0152293,-2.90043,23,0.00185228,10,-4.41716e-05,-2.53754,0.570345,0.103446,-11.7075,0.0152293,
2,0,0,1,0,44507.5,0.0140325,0.0137325,-2.87941,23,0.00174315,10,-3.95414e-05,-2.5407,0.597926,0.0986744,-11.1041,0.0137325,
2,0,0,1,0,44507.6,0.0125325,0.012184,-2.86078,23,0.00163475,10,-3.48558e-05,-2.54352,0.531582,0.11099,-12.422,0.012184,
2,0,0,1,0,44507.6,0.0110361,0.0107296,-2.84424,23,0.00152737,10,-3.05177e-05,-2.54603,0.596644,0.0988864,-10.9999,0.0107296,
2,0,0,1,0,44507.6,0.0095397,0.00921578,-2.83405,23,0.00142051,10,-2.6118e-05,-2.54759,0.76676,0.0769472,-8.49925,0.00921578,
2,0,0,1,0,44507.7,0.00803616,0.00766136,-2.82249,23,0.00131358,10,-2.16241e-05,-2.54937,0.81575,0.0723261,-7.95166,0.00766136,
2,0,0,1,0,44507.7,0.00654064,0.00620919,-2.80774,23,0.00120772,10,-1.74338e-05,-2.55164,0.703868,0.0838225,-9.17838,0.00620919,
2,0,0,1,0,44507.8,0.00504513,0.00470879,-2.79244,23,0.00110231,10,-1.3149e-05,-2.55402,0.92803,0.0635755,-6.94186,0.004708786,
2,0,0,1,0,44507.8,0.00354515,0.00321571,-2.78272,23,0.000997055,10,-8.94841e-06,-2.55553,-4.39225,-0.0134328,1.46771,0.00321571,
2,0,0,1,0,44507.8,0.00204518,0.00166913,-2.81168,23,0.000891757,10,-4.69307e-06,-2.55103,5.54141,0.0106471,-1.15882,0.00166913,
2,0,0,1,0,44507.9,0.000548773,0.000151519,-2.78261,23,0.000786454,10,-4.21617e-07,-2.55555, , , ,0.000151519,
2,0,0,1,0,44507.9,0.000177222,-0.000173388,-2.78656,23,0.00076039,10,4.83158e-07,-2.55493, , , ,-0.000173388,