File: Figure_codes/Fig_3-5/rawdata_trumpetplot_data/after 10th/20221101_1-115_003_TrumpetPlot_ParaChange_from10_every3_07_CV_C01_8.csv
mode,ox/red,error,control changes,counter inc.,time/s,control/V,Ewe/V,<I>/mA,cycle number,(Q-Qo)/C,I Range,P/W,log(|I|),Tafel slope mV/dec,alpha_eff,dI/d(E-IR),E-IR/V,
2,0,0,0,0,16926.1,2.44065e-05,-0.000382585,-2.73002,9,0.0000000E+000,10,1.04447e-06,-2.56383, , , ,-0.000382585,
2,0,0,1,0,16926.1,0.0013005,0.000933686,-0.867026,9,-3.43809e-05,10,-8.0953e-07,-3.06197, , , ,0.000933686,
2,1,0,1,0,16926.1,0.00279471,0.00248928,0.306497,9,-3.96877e-05,10,7.62958e-07,-3.51357,-0.0376241,-1.56815,626.895,0.00248928,
2,1,0,1,0,16926.1,0.00429425,0.00399176,0.964043,9,-2.26269e-05,10,3.84823e-06,-3.0159,0.00161827,36.4587,376.879,0.00399176,
2,1,0,1,0,16926.2,0.00579379,0.00546561,1.38326,9,7.60316e-06,10,7.56039e-06,-2.85909,0.0114045,5.17341,243.341,0.00546561,
2,1,0,1,0,16926.2,0.007288,0.0069379,1.68377,9,4.64425e-05,10,1.16818e-05,-2.77372,0.0211418,2.79067,172.023,0.0069379,
2,1,0,1,0,16926.2,0.00878882,0.00844027,1.89253,9,9.1671e-05,10,1.59735e-05,-2.72296,0.034297,1.72027,122.989,0.00844027,
2,1,0,1,0,16926.2,0.0102896,0.00996475,2.04642,9,0.0001414,10,2.0392e-05,-2.68901,0.0494684,1.19268,93.5047,0.00996475,
2,1,0,1,0,16926.3,0.0117838,0.0114461,2.17096,9,0.000194348,10,2.48491e-05,-2.66335,0.0667387,0.884045,74.0045,0.0114461,
2,1,0,1,0,16926.3,0.0132834,0.0129548,2.27354,9,0.000250202,10,2.94532e-05,-2.6433,0.0810702,0.727764,64.1345,0.0129548,
2,1,0,1,0,16926.3,0.0147816,0.014471,2.35033,9,0.000308449,10,3.40115e-05,-2.62887,0.0926508,0.636799,58.2423,0.014471,
2,1,0,1,0,16926.3,0.0162811,0.0160044,2.42758,9,0.000368812,10,3.8852e-05,-2.61483,0.117094,0.503869,47.6805,0.0160044,
2,1,0,1,0,16926.4,0.0177753,0.0174512,2.50284,9,0.000430735,10,4.36776e-05,-2.60157,0.140684,0.419379,40.8072,0.0174512,
2,1,0,1,0,16926.4,0.0192761,0.0190059,2.56851,9,0.000494441,10,4.88167e-05,-2.59032,0.144052,0.409575,40.9426,0.0190059,
2,1,0,1,0,16926.4,0.020777,0.0204552,2.62794,9,0.000559717,10,5.37551e-05,-2.58039,0.142968,0.412678,42.205,0.0204552,
2,1,0,1,0,16926.4,0.0222712,0.0219676,2.68045,9,0.000626277,10,5.88832e-05,-2.57179,0.155145,0.380289,39.8237,0.0219676,
2,1,0,1,0,16926.5,0.0237707,0.0234693,2.74172,9,0.000694587,10,6.43463e-05,-2.56198,0.176987,0.333358,35.6212,0.0234693,
2,1,0,1,0,16926.5,0.0252703,0.0249282,2.79919,9,0.000764221,10,6.97788e-05,-2.55297,0.174598,0.337919,36.9024,0.0249282,
2,1,0,1,0,16926.5,0.0267645,0.0263788,2.85138,9,0.000834938,10,7.5216e-05,-2.54495,0.161072,0.366296,40.7659,0.0263788,
2,1,0,1,0,16926.5,0.0282653,0.0279663,2.90554,9,0.000907367,10,8.12574e-05,-2.53677,0.181983,0.324206,36.7968,0.0279663,
2,1,0,1,0,16926.6,0.0297648,0.0294639,2.96256,9,0.000981205,10,8.72887e-05,-2.52833,0.199067,0.296382,34.1868,0.0294639,
2,1,0,1,0,16926.6,0.031259,0.0309353,3.01624,9,0.00105604,10,9.33084e-05,-2.52053,0.197812,0.298264,35.0288,0.0309353,
2,1,0,1,0,16926.6,0.0327585,0.0324391,3.06925,9,0.00113245,10,9.95636e-05,-2.51297,0.182935,0.322519,38.6303,0.0324391,
2,1,0,1,0,16926.6,0.034258,0.0339441,3.11707,9,0.00121024,10,0.000105806,-2.50625,0.199052,0.296404,36.1362,0.0339441,
2,1,0,1,0,16926.7,0.0357576,0.035433,3.17423,9,0.00128944,10,0.000112472,-2.49836,0.219871,0.268339,33.2603,0.035433,
2,1,0,1,0,16926.7,0.0372518,0.0369246,3.23827,9,0.00136971,10,0.000119572,-2.48969,0.217424,0.271359,34.1964,0.0369246,
2,1,0,1,0,16926.7,0.0387526,0.038427,3.2788,9,0.00145148,10,0.000125994,-2.48428,0.199817,0.295269,37.9139,0.038427,
2,1,0,1,0,16926.7,0.0402534,0.0399728,3.33254,9,0.00153461,10,0.000133211,-2.47722,0.212004,0.278297,36.2501,0.0399728,
2,1,0,1,0,16926.8,0.0417476,0.0414259,3.39552,9,0.00161889,10,0.000140662,-2.46909,0.235391,0.250647,33.1436,0.0414259,
2,1,0,1,0,16926.8,0.0432472,0.0429389,3.45064,9,0.00170482,10,0.000148167,-2.4621,0.235647,0.250375,33.5968,0.04293891,
2,1,0,1,0,16926.8,0.0447467,0.0444584,3.49206,9,0.00179198,10,0.000155251,-2.45692,0.218508,0.270013,36.8391,0.0444584,
2,1,0,1,0,16926.8,0.0462463,0.0459498,3.5411,9,0.0018804,10,0.000162713,-2.45086,0.231832,0.254495,35.2669,0.0459498,
2,1,0,1,0,16926.9,0.0477391,0.0474434,3.59906,9,0.00196982,10,0.000170752,-2.44381,0.248778,0.237159,33.2987,0.0474434,
2,1,0,1,0,16926.9,0.0492399,0.0489262,3.6593,9,0.00206094,10,0.000179036,-2.4366,0.246827,0.239033,34.0021,0.0489262,
2,1,0,1,0,16926.9,0.0507408,0.0504233,3.69553,9,0.00215327,10,0.000186341,-2.43232,0.255175,0.231214,33.3996,0.0504233,
2,1,0,1,0,16926.9,0.052235,0.0519247,3.74512,9,0.00224641,10,0.000194464,-2.42653,0.246554,0.239298,35.0305,0.0519247,
2,1,0,1,0,16927,0.0537345,0.0534271,3.80604,9,0.00234127,10,0.000203346,-2.41953,0.276872,0.213095,31.6082,0.0534271,
2,1,0,1,0,16927,0.0552341,0.05491,3.86011,9,0.00243747,10,0.000211959,-2.4134,0.303494,0.194402,29.1834,0.05491,
2,1,0,1,0,16927,0.0567283,0.0563904,3.89094,9,0.0025344,10,0.000219412,-2.40995,0.280842,0.210083,31.9414,0.0563904,
2,1,0,1,0,16927,0.0582291,0.0578712,3.9393,9,0.00263275,10,0.000227972,-2.40458,0.284772,0.207183,31.9326,0.0578712,
2,1,0,1,0,16927.1,0.0597299,0.0593954,3.99465,9,0.00273235,10,0.000237264,-2.39852,0.309159,0.19084,29.7076,0.0593954,
2,1,0,1,0,16927.1,0.0612228,0.0608805,4.04086,9,0.00283275,10,0.000246009,-2.39353,0.312231,0.188963,29.7133,0.0608805,
2,1,0,1,0,16927.1,0.0627223,0.0624155,4.08437,9,0.0029347,10,0.000254928,-2.38888,0.285173,0.206892,32.9341,0.0624155,
2,1,0,1,0,16927.1,0.0642218,0.063928,4.11964,9,0.00303766,10,0.00026336,-2.38514,0.305734,0.192978,31.091,0.063928,
2,1,0,1,0,16927.2,0.0657214,0.0654029,4.16585,9,0.00314178,10,0.000272459,-2.3803,0.337505,0.174812,28.4693,0.06540288,
2,1,0,1,0,16927.2,0.0672156,0.0669042,4.2203,9,0.00324665,10,0.000282356,-2.37466,0.331167,0.178158,29.2784,0.0669042,
2,1,0,1,0,16927.2,0.0687164,0.0684458,4.26088,9,0.00335304,10,0.00029164,-2.3705,0.33992,0.17357,28.8093,0.0684458,
2,1,0,1,0,16927.2,0.0702172,0.0699381,4.29236,9,0.00346035,10,0.0003002,-2.3673,0.363261,0.162418,27.2452,0.0699381,
2,1,0,1,0,16927.3,0.0717114,0.0714061,4.33835,9,0.00356821,10,0.000309785,-2.36268,0.390163,0.151219,25.5872,0.0714061,
2,1,0,1,0,16927.3,0.073211,0.0728877,4.37914,9,0.00367753,10,0.000319186,-2.35861,0.389883,0.151328,25.8264,0.0728877,
2,1,0,1,0,16927.3,0.0747105,0.074401,4.41748,9,0.00378786,10,0.000328665,-2.35483,0.375452,0.157144,27.0361,0.074401,
2,1,0,1,0,16927.3,0.0762101,0.0758901,4.43906,9,0.00389905,10,0.00033688,-2.35271,0.445916,0.132312,22.989,0.0758901,
2,1,0,1,0,16927.4,0.0777042,0.0773804,4.47785,9,0.00401061,10,0.000346498,-2.34893,0.470421,0.125419,21.9349,0.0773804,
2,1,0,1,0,16927.4,0.0792037,0.0788983,4.52155,9,0.00412353,10,0.000356743,-2.34471,0.428203,0.137785,24.2801,0.07889834,
2,1,0,1,0,16927.4,0.0807046,0.0804203,4.55412,9,0.00423735,10,0.000366244,-2.3416,0.453569,0.130079,23.0791,0.0804203,
2,1,0,1,0,16927.4,0.0821988,0.0818987,4.57934,9,0.00435156,10,0.000375042,-2.3392,0.463546,0.12728,22.7757,0.0818987,
2,1,0,1,0,16927.5,0.0836983,0.0833468,4.61176,9,0.00446692,10,0.000384375,-2.33613,0.48689,0.121177,21.8563,0.0833468,
2,1,0,1,0,16927.5,0.0851979,0.084906,4.65647,9,0.00458321,10,0.000395362,-2.33194,0.497172,0.118671,21.5361,0.084906,
2,1,0,1,0,16927.5,0.0866921,0.0863851,4.69165,9,0.00470003,10,0.000405289,-2.32867,0.468059,0.126053,23.0359,0.0863851,
2,1,0,1,0,16927.5,0.0881929,0.0878953,4.72284,9,0.00481811,10,0.000415115,-2.3258,0.481202,0.12261,22.6321,0.0878953,
2,1,0,1,0,16927.6,0.0896937,0.0894006,4.75442,9,0.00493696,10,0.000425048,-2.3229,0.498214,0.118423,22.0137,0.0894006,
2,1,0,1,0,16927.6,0.0911879,0.0908476,4.80401,9,0.00505631,10,0.000436433,-2.3184,0.379024,0.155663,29.1412,0.0908476,
2,1,0,1,0,16927.6,0.0926861,0.0924009,4.84535,9,0.00517721,10,0.000447714,-2.31468,0.333586,0.176866,33.4368,0.0924009,
2,1,0,1,0,16927.6,0.0941856,0.0939033,4.88719,9,0.00529934,10,0.000458923,-2.31094,0.328284,0.179722,34.3396,0.0939033,
2,1,0,1,0,16927.7,0.0956852,0.0953625,4.93191,9,0.00542263,10,0.000470319,-2.30698,0.340641,0.173203,33.4518,0.0953625,
2,1,0,1,0,16927.7,0.0971794,0.0968758,4.99766,9,0.00554677,10,0.000484152,-2.30123,0.287939,0.204905,39.9865,0.0968758,
2,1,0,1,0,16927.7,0.0986802,0.0983739,5.06206,9,0.00567295,10,0.000497975,-2.29567,0.259233,0.227595,44.9544,0.0983739,
2,1,0,1,0,16927.7,0.100181,0.09992,5.12745,9,0.00580073,10,0.000512335,-2.2901,0.261248,0.225839,45.2153,0.09992,
2,1,0,1,0,16927.8,0.101675,0.101325,5.19362,9,0.00592968,10,0.000526245,-2.28453,0.256155,0.230329,46.7792,0.1013252,
2,1,0,1,0,16927.8,0.103175,0.102874,5.2762,9,0.00606093,10,0.000542782,-2.27768,0.22695,0.259969,53.5691,0.102874,
2,1,0,1,0,16927.8,0.104674,0.10439,5.36457,9,0.00619428,10,0.000560006,-2.27047,0.211346,0.279164,58.3742,0.10439,
2,1,0,1,0,16927.8,0.106169,0.105858,5.44623,9,0.00632933,10,0.000576527,-2.2639,0.217855,0.270823,57.5513,0.105858,
2,1,0,1,0,16927.9,0.107668,0.107348,5.53009,9,0.00646702,10,0.000593644,-2.25727,0.21856,0.269948,58.3633,0.107348,
2,1,0,1,0,16927.9,0.109169,0.108886,5.62893,9,0.00660688,10,0.000612909,-2.24957,0.214076,0.275603,60.5235,0.108886,
2,1,0,1,0,16927.9,0.110663,0.110348,5.7208,9,0.00674855,10,0.000631276,-2.24254,0.210522,0.280256,62.4936,0.110348,
2,1,0,1,0,16927.9,0.112163,0.111896,5.80579,9,0.00689311,10,0.000649647,-2.23614,0.212558,0.277572,62.9169,0.111896,
2,1,0,1,0,16928,0.113662,0.113356,5.89968,9,0.00704,10,0.000668761,-2.22917,0.245056,0.240761,55.4104,0.113356,
2,1,0,1,0,16928,0.115162,0.114828,5.98091,9,0.00718895,10,0.000686778,-2.22323,0.259562,0.227306,53.0984,0.114828,
2,1,0,1,0,16928,0.116656,0.116341,6.07235,9,0.00733941,10,0.000706465,-2.21664,0.254005,0.232279,54.9514,0.116341,
2,1,0,1,0,16928,0.118157,0.117834,6.14736,9,0.00749263,10,0.000724368,-2.21131,0.267094,0.220896,52.9691,0.117834,
2,1,0,1,0,16928.1,0.119657,0.119366,6.21955,9,0.00764773,10,0.000742401,-2.20624,0.330678,0.178421,43.2931,0.119366,
2,1,0,1,0,16928.1,0.121152,0.120835,6.28512,9,0.00780384,10,0.000759463,-2.20169,0.357085,0.165227,40.4925,0.120835,
2,1,0,1,0,16928.1,0.122651,0.122331,6.34645,9,0.00796217,10,0.000776365,-2.19747,0.341772,0.17263,42.7075,0.122331,
2,1,0,1,0,16928.1,0.124151,0.123834,6.40335,9,0.00812198,10,0.000792953,-2.19359,0.379057,0.155649,38.8858,0.123834,
2,1,0,1,0,16928.2,0.125649,0.125314,6.4524,9,0.00828323,10,0.000808577,-2.19028,0.463906,0.127181,32.0289,0.125314,
2,1,0,1,0,16928.2,0.127143,0.126818,6.49889,9,0.00844503,10,0.000824173,-2.18716,0.534243,0.110437,28.0138,0.126818,
2,1,0,1,0,16928.2,0.128644,0.128351,6.5554,9,0.00860857,10,0.000841393,-2.1834,0.486625,0.121243,30.9872,0.128351,
2,1,0,1,0,16928.2,0.130145,0.129838,6.59282,9,0.00877329,10,0.000855996,-2.18093,0.482128,0.122374,31.485,0.129838,
2,1,0,1,0,16928.3,0.131639,0.131312,6.63424,9,0.00893847,10,0.000871153,-2.17821,0.634439,0.0929955,24.0724,0.131312,
2,1,0,1,0,16928.3,0.133139,0.132836,6.68089,9,0.00910535,10,0.000887464,-2.17517,0.683447,0.0863271,22.4858,0.132836,
2,1,0,1,0,16928.3,0.134638,0.134308,6.71359,9,0.00927307,10,0.000901691,-2.17305,0.652859,0.0903717,23.6849,0.134308,
2,1,0,1,0,16928.3,0.136132,0.135836,6.75051,9,0.00944107,10,0.000916964,-2.17066,0.640134,0.0921682,24.2538,0.135836,
2,1,0,1,0,16928.4,0.137633,0.137325,6.78016,9,0.00961063,10,0.000931083,-2.16876,0.942229,0.0626175,16.5489,0.137325,
2,1,0,1,0,16928.4,0.139133,0.138852,6.804,9,0.00978082,10,0.000944751,-2.16724,2.38146,0.0247747,6.56026,0.138852,
2,1,0,1,0,16928.4,0.140627,0.140334,6.80716,9,0.0099506,10,0.000955275,-2.16703,-30.3469,-0.00194419,-0.515099,0.140334,
2,1,0,1,0,16928.4,0.142126,0.141866,6.79536,9,0.010121,10,0.000964033,-2.16779,-1.5992,-0.0368934,-9.75785,0.141866,
2,1,0,1,0,16928.5,0.143626,0.143329,6.76749,9,0.010291,10,0.000969975,-2.16957,-0.620061,-0.095152,-25.0632,0.143329,
2,1,0,1,0,16928.5,0.145125,0.144815,6.71791,9,0.0104602,10,0.000972857,-2.17277,-0.307687,-0.191753,-50.0658,0.144815,
2,1,0,1,0,16928.5,0.14662,0.146324,6.63272,9,0.0106269,10,0.000970524,-2.17831,-0.227394,-0.259462,-66.9102,0.146324,
2,1,0,1,0,16928.5,0.14812,0.147836,6.51637,9,0.0107917,10,0.000963357,-2.18599,-0.181672,-0.324761,-82.3254,0.147836,
2,1,0,1,0,16928.6,0.149621,0.14932,6.37664,9,0.0109534,10,0.000952161,-2.19541,-0.141774,-0.416155,-103.131,0.14932,
2,1,0,1,0,16928.6,0.151116,0.150774,6.21423,9,0.0111106,10,0.000936946,-2.20661,-0.112396,-0.524928,-126.537,0.150774,
2,1,0,1,0,16928.6,0.152615,0.152303,6.00887,9,0.0112637,10,0.000915169,-2.22121,-0.098936,-0.596345,-139.197,0.152303,
2,1,0,1,0,16928.6,0.154115,0.153773,5.78075,9,0.0114116,10,0.000888921,-2.23802,-0.0891242,-0.661998,-149.1,0.1537725,
2,1,0,1,0,16928.7,0.155614,0.15527,5.54657,9,0.0115537,10,0.000861215,-2.25598,-0.0814203,-0.724635,-156.785,0.15527,
2,1,0,1,0,16928.7,0.157107,0.156812,5.31195,9,0.0116893,10,0.000832975,-2.27475,-0.0743132,-0.793937,-164.212,0.156812,
2,1,0,1,0,16928.7,0.158608,0.158324,5.07019,9,0.0118194,10,0.000802735,-2.29498,-0.0732738,-0.8052,-159.155,0.158324,
2,1,0,1,0,16928.7,0.160109,0.159791,4.82581,9,0.0119434,10,0.000771121,-2.31643,-0.0744506,-0.792472,-149.432,0.159791,
2,1,0,1,0,16928.8,0.161603,0.16129,4.6038,9,0.0120612,10,0.000742548,-2.33688,-0.0754996,-0.781461,-140.795,0.16129,
2,1,0,1,0,16928.8,0.163102,0.162811,4.40023,9,0.0121742,10,0.000716405,-2.35653,-0.0769466,-0.766766,-132.095,0.162811,
2,1,0,1,0,16928.8,0.164602,0.164343,4.22157,9,0.0122823,10,0.000693786,-2.37453,-0.0818806,-0.720561,-118.888,0.164343,
2,1,0,1,0,16928.8,0.166096,0.165776,4.0425,9,0.0123856,10,0.000670148,-2.39335,-0.089825,-0.656833,-104.214,0.165776,
2,1,0,1,0,16928.9,0.167597,0.167246,3.90004,9,0.0124853,10,0.000652268,-2.40893,-0.101482,-0.581385,-88.9384,0.167246,
2,1,0,1,0,16928.9,0.169098,0.168795,3.77795,9,0.0125817,10,0.000637697,-2.42274,-0.102708,-0.574443,-84.766,0.168795,
2,1,0,1,0,16928.9,0.170592,0.170325,3.66694,9,0.0126747,10,0.000624571,-2.4357,-0.114043,-0.517351,-73.9932,0.1703248,
2,1,0,1,0,16928.9,0.17209,0.171785,3.54441,9,0.0127652,10,0.000608877,-2.45046,-0.127677,-0.462105,-64.3063,0.171785,
2,1,0,1,0,16929,0.17359,0.173276,3.45501,9,0.0128532,10,0.000598668,-2.46155,-0.137115,-0.430295,-58.261,0.173276,
2,1,0,1,0,16929,0.175089,0.174759,3.38432,9,0.0129391,10,0.000591441,-2.47053,-0.144542,-0.408187,-53.873,0.174759,
2,1,0,1,0,16929,0.176583,0.176289,3.30702,9,0.0130227,10,0.000582989,-2.48056,-0.155254,-0.380021,-49.0121,0.176289,
2,1,0,1,0,16929,0.178084,0.177764,3.23103,9,0.0131048,10,0.000574361,-2.49066,-0.178765,-0.330041,-41.7678,0.177764,
2,1,0,1,0,16929.1,0.179585,0.179294,3.16703,9,0.0131853,10,0.000567829,-2.49935,-0.197508,-0.298723,-37.1216,0.179294,
2,1,0,1,0,16929.1,0.181079,0.180773,3.12061,9,0.013264,10,0.00056412,-2.50576,-0.201762,-0.292424,-35.6538,0.180773,
2,1,0,1,0,16929.1,0.182579,0.182325,3.08022,9,0.0133419,10,0.000561601,-2.51142,-0.21271,-0.277373,-33.2282,0.182325,
2,1,0,1,0,16929.1,0.184078,0.183808,3.02674,9,0.0134186,10,0.000556338,-2.51902,-0.26508,-0.222574,-26.3536,0.1838077,
2,1,0,1,0,16929.2,0.185578,0.185263,2.97828,9,0.0134941,10,0.000551765,-2.52603,-0.269239,-0.219136,-25.5966,0.185263,
2,1,0,1,0,16929.2,0.187072,0.186736,2.94839,9,0.0135684,10,0.000550569,-2.53042,-0.28422,-0.207586,-23.9141,0.186736,
2,1,0,1,0,16929.2,0.188573,0.188263,2.92302,9,0.0136422,10,0.000550297,-2.53417,-0.331901,-0.177764,-20.2195,0.188263,
2,1,0,1,0,16929.2,0.190072,0.189787,2.88903,9,0.0137151,10,0.000548301,-2.53925,-0.348273,-0.169407,-19.0711,0.1897871,
2,1,0,1,0,16929.3,0.191567,0.19125,2.84834,9,0.0137869,10,0.000544745,-2.54541,-0.363894,-0.162135,-18.0892,0.19125,
2,1,0,1,0,16929.3,0.193066,0.192725,2.82279,9,0.0138583,10,0.000544021,-2.54932,-0.389386,-0.151521,-16.7306,0.192725,
2,1,0,1,0,16929.3,0.194566,0.19423,2.81374,9,0.0139292,10,0.000546514,-2.55072,-0.438771,-0.134466,-14.7307,0.19423,
2,1,0,1,0,16929.3,0.19606,0.195746,2.78149,9,0.0139992,10,0.000544464,-2.55572,-0.437647,-0.134812,-14.6453,0.195746,
2,1,0,1,0,16929.4,0.197561,0.197268,2.75364,9,0.0140689,10,0.000543206,-2.56009,-0.448917,-0.131428,-14.2025,0.197268,
2,1,0,1,0,16929.4,0.199062,0.198761,2.74426,9,0.0141381,10,0.000545454,-2.56157,-0.445807,-0.132344,-14.1671,0.198761,
2,1,0,1,0,16929.4,0.200556,0.200245,2.73017,9,0.0142065,10,0.000546703,-2.56381,-0.534065,-0.110473,-11.7305,0.200245,
2,1,0,1,0,16929.4,0.202055,0.201725,2.70728,9,0.0142749,10,0.000546125,-2.56747,-0.695151,-0.0848736,-8.95683,0.201725,
2,1,0,1,0,16929.5,0.203553,0.203279,2.68175,9,0.0143428,10,0.000545144,-2.57158,-0.592361,-0.0996014,-10.4696,0.203279,
2,1,0,1,0,16929.5,0.205053,0.204759,2.66942,9,0.0144102,10,0.000546587,-2.57358,-0.853676,-0.0691129,-7.24848,0.204759,
2,1,0,1,0,16929.5,0.206547,0.206223,2.66662,9,0.0144771,10,0.000549919,-2.57404,-0.833562,-0.0707805,-7.35267,0.206223,
2,1,0,1,0,16929.5,0.208048,0.207733,2.65695,9,0.0145442,10,0.000551938,-2.57562,-1.12702,-0.0523503,-5.41185,0.207733,
2,1,0,1,0,16929.6,0.209549,0.209247,2.64028,9,0.0146108,10,0.00055247,-2.57835,-0.636437,-0.0927037,-9.56496,0.209247,
2,1,0,1,0,16929.6,0.211043,0.210746,2.62194,9,0.0146767,10,0.000552563,-2.58138,-0.621916,-0.0948682,-9.74685,0.210746,
2,1,0,1,0,16929.6,0.212543,0.212282,2.62314,9,0.0147427,10,0.000556846,-2.58118,-0.866856,-0.068062,-6.94879,0.212282,
2,1,0,1,0,16929.6,0.214042,0.213738,2.60863,9,0.0148084,10,0.000557564,-2.58359,-1.26937,-0.0464796,-4.73486,0.213738,
2,1,0,1,0,16929.7,0.215536,0.215186,2.59144,9,0.0148737,10,0.000557642,-2.58646,-1.11179,-0.0530674,-5.38404,0.215186,
2,1,0,1,0,16929.7,0.217036,0.216718,2.58239,9,0.0149389,10,0.000559651,-2.58798,-0.802026,-0.0735637,-7.44101,0.216718,
2,1,0,1,0,16929.7,0.218537,0.218216,2.58473,9,0.0150039,10,0.000564029,-2.58758,-1.33868,-0.0440733,-4.43054,0.218216,
2,1,0,1,0,16929.7,0.220031,0.219742,2.5747,9,0.0150685,10,0.00056577,-2.58927,-3.62089,-0.0162943,-1.63434,0.219742,
2,1,0,1,0,16929.8,0.22153,0.221242,2.56253,9,0.0151332,10,0.00056694,-2.59133,-1.09091,-0.0540831,-5.40735,0.221242,
2,1,0,1,0,16929.8,0.22303,0.222773,2.54787,9,0.0151976,10,0.000567596,-2.59382,-0.878883,-0.0671307,-6.70071,0.222773,
2,1,0,1,0,16929.8,0.224529,0.224219,2.55357,9,0.0152618,10,0.000572559,-2.59285,-0.818981,-0.0720408,-7.17568,0.2242189,
2,1,0,1,0,16929.8,0.226024,0.225738,2.54312,9,0.0153257,10,0.00057408,-2.59463,-4.23501,-0.0139315,-1.38263,0.225738,
2,1,0,1,0,16929.9,0.227525,0.227236,2.53421,9,0.0153896,10,0.000575864,-2.59616,-1.42389,-0.0414358,-4.09975,0.227236,
2,1,0,1,0,16929.9,0.229025,0.228721,2.52634,9,0.0154533,10,0.000577827,-2.59751,-0.835151,-0.0706459,-6.976,0.228721,
2,1,0,1,0,16929.9,0.23052,0.230216,2.52713,9,0.0155166,10,0.000581786,-2.59737,-1.2832,-0.0459789,-4.52701,0.230216,
2,1,0,1,0,16929.9,0.232019,0.231746,2.5258,9,0.01558,10,0.000585344,-2.5976,-4.54471,-0.0129821,-1.27541,0.231746,
2,1,0,1,0,16930,0.233519,0.233208,2.50919,9,0.0156434,10,0.000585162,-2.60047,-1.99961,-0.0295057,-2.89517,0.233208,
2,1,0,1,0,16930,0.235018,0.234709,2.50855,9,0.0157066,10,0.000588778,-2.60058,-1.0017,-0.0588997,-5.76343,0.234709,
2,1,0,1,0,16930,0.236511,0.23628,2.50367,9,0.0157693,10,0.000591567,-2.60142,-1.26568,-0.0466152,-4.54745,0.23628,
2,1,0,1,0,16930,0.238012,0.237739,2.49549,9,0.0158322,10,0.000593274,-2.60284,-6.28643,-0.00938529,-0.913117,0.237739,
2,1,0,1,0,16930.1,0.239513,0.239169,2.4868,9,0.015895,10,0.000594764,-2.60436,-2.00544,-0.0294199,-2.86122,0.239169,
2,1,0,1,0,16930.1,0.241007,0.240744,2.48782,9,0.0159574,10,0.000598926,-2.60418,-0.92206,-0.0639872,-6.20909,0.240744,
2,1,0,1,0,16930.1,0.242506,0.242195,2.47566,9,0.0160199,10,0.000599592,-2.60631,-1.05508,-0.0559197,-5.41271,0.242195,
2,1,0,1,0,16930.1,0.244006,0.243704,2.47488,9,0.0160822,10,0.000603139,-2.60645,-10.3728,-0.00568795,-0.550145,0.2437042,
2,1,0,1,0,16930.2,0.2455,0.245257,2.47665,9,0.0161443,10,0.000607417,-2.60614,-2.66111,-0.0221712,-2.14247,0.245257,
2,1,0,1,0,16930.2,0.247001,0.246714,2.47135,9,0.0162065,10,0.000609716,-2.60707,-0.840827,-0.070169,-6.7589,0.246714,
2,1,0,1,0,16930.2,0.248502,0.24817,2.46591,9,0.0162686,10,0.000611967,-2.60802,-1.3015,-0.0453324,-4.35226,0.24817,
2,1,0,1,0,16930.2,0.249995,0.249715,2.46306,9,0.0163302,10,0.000615063,-2.60853,-3.47923,-0.0169578,-1.62696,0.249715,
2,1,0,1,0,16930.3,0.251494,0.251177,2.4492,9,0.016392,10,0.000615183,-2.61098,-11.6232,-0.00507605,-0.485957,0.2511774,
2,1,0,1,0,16930.3,0.252994,0.252728,2.44806,9,0.0164538,10,0.000618693,-2.61118,-0.991019,-0.0595347,-5.68983,0.252728,
2,1,0,1,0,16930.3,0.254493,0.254169,2.44376,9,0.0165154,10,0.00062113,-2.61194,-1.44693,-0.0407761,-3.89455,0.254169,
2,1,0,1,0,16930.3,0.255988,0.255668,2.43645,9,0.0165766,10,0.000622924,-2.61324,-2.65838,-0.022194,-2.11295,0.255668,
2,1,0,1,0,16930.4,0.257488,0.257204,2.43435,9,0.016638,10,0.000626123,-2.61362,-8.7076,-0.00677569,-0.645111,0.257204,
2,1,0,1,0,16930.4,0.258989,0.258715,2.43382,9,0.0166993,10,0.000629666,-2.61371,-1.53891,-0.0383388,-3.64036,0.258715,
2,1,0,1,0,16930.4,0.260483,0.260199,2.43393,9,0.0167603,10,0.000633308,-2.61369,-1.29661,-0.0455033,-4.30926,0.260199,
2,1,0,1,0,16930.4,0.261983,0.261683,2.42278,9,0.0168213,10,0.000633999,-2.61569,-1.87695,-0.031434,-2.97078,0.261683,
2,1,0,1,0,16930.5,0.263482,0.263219,2.41992,9,0.0168823,10,0.000636971,-2.6162,-93.6079,-0.000630288,-0.0595658,0.263219,
2,1,0,1,0,16930.5,0.264982,0.264695,2.41072,9,0.0169431,10,0.000638105,-2.61785,-1.39472,-0.0423024,-3.9893,0.264695,
2,1,0,1,0,16930.5,0.266476,0.266167,2.41378,9,0.0170037,10,0.000642468,-2.6173,-1.24214,-0.0474988,-4.46415,0.266167,
2,1,0,1,0,16930.5,0.267976,0.267671,2.40589,9,0.0170643,10,0.000643987,-2.61872,-2.68752,-0.0219533,-2.06173,0.267671,
2,1,0,1,0,16930.6,0.269477,0.269191,2.40091,9,0.0171248,10,0.000646303,-2.61962,-17.9515,-0.00328662,-0.30851,0.269191,
2,1,0,1,0,16930.6,0.270971,0.270713,2.39981,9,0.017185,10,0.000649658,-2.61982,-2.19261,-0.0269086,-2.5161,0.270713,
2,1,0,1,0,16930.6,0.27247,0.272142,2.39821,9,0.0172454,10,0.000652655,-2.62011,-0.862381,-0.0684152,-6.38182,0.272142,
2,1,0,1,0,16930.6,0.27397,0.273669,2.38984,9,0.0173056,10,0.000654025,-2.62163,-1.58945,-0.0371197,-3.46288,0.273669,
2,1,0,1,0,16930.7,0.275464,0.275147,2.37926,9,0.0173654,10,0.000654646,-2.62356,-2.32947,-0.0253276,-2.36248,0.275147,
2,1,0,1,0,16930.7,0.276965,0.276672,2.37266,9,0.0174254,10,0.000656448,-2.62477,-2.3648,-0.0249493,-2.31813,0.2766723,
2,1,0,1,0,16930.7,0.278466,0.278149,2.37821,9,0.0174852,10,0.000661496,-2.62375,-1.10297,-0.0534918,-4.95242,0.278149,
2,1,0,1,0,16930.7,0.27996,0.27969,2.37994,9,0.0175448,10,0.000665647,-2.62343,-1.98797,-0.0296785,-2.74292,0.27969,
2,1,0,1,0,16930.8,0.281458,0.281149,2.36422,9,0.0176044,10,0.000664698,-2.62631,-9.23805,-0.00638663,-0.590065,0.281149,
2,1,0,1,0,16930.8,0.282958,0.282665,2.35653,9,0.0176639,10,0.000666108,-2.62773,-2.45601,-0.0240227,-2.21582,0.282665,
2,1,0,1,0,16930.8,0.284457,0.284147,2.35993,9,0.0177234,10,0.000670568,-2.6271,-1.43201,-0.0412009,-3.79109,0.284147,
2,1,0,1,0,16930.8,0.285951,0.285667,2.35986,9,0.0177825,10,0.000674135,-2.62711,-3.1693,-0.0186161,-1.70877,0.285667,
2,1,0,1,0,16930.9,0.287452,0.287165,2.34235,9,0.0178417,10,0.00067264,-2.63035,-2.4596,-0.0239876,-2.20132,0.287165,
2,1,0,1,0,16930.9,0.288953,0.288663,2.33721,9,0.0179007,10,0.000674665,-2.6313,-3.80133,-0.0155209,-1.42086,0.288663,
2,1,0,1,0,16930.9,0.290447,0.290151,2.34164,9,0.0179594,10,0.000679427,-2.63048,-1.4068,-0.0419392,-3.8268,0.290151,
2,1,0,1,0,16930.9,0.291947,0.291606,2.33938,9,0.0180183,10,0.000682176,-2.6309,-1.20335,-0.0490298,-4.461,0.291606,
2,1,0,1,0,16931,0.293446,0.293189,2.32351,9,0.0180771,10,0.000681228,-2.63385,-3.17494,-0.018583,-1.69,0.2931886,
2,1,0,1,0,16931,0.29494,0.294638,2.32091,9,0.0181354,10,0.00068383,-2.63434,-1.2241,-0.0481987,-4.3811,0.294638,
2,1,0,1,0,16931,0.29644,0.296169,2.32714,9,0.0181939,10,0.000689227,-2.63318,-1.28711,-0.0458392,-4.14686,0.296169,
2,1,0,1,0,16931,0.297941,0.297689,2.31992,9,0.0182523,10,0.000690614,-2.63453,-1.30629,-0.0451659,-4.07286,0.297689,
2,1,0,1,0,16931.1,0.29944,0.299154,2.30325,9,0.0183106,10,0.000689026,-2.63766,-0.00523991,-11.2597,-699.722,0.299154,
2,1,0,1,0,16931.1,0.299736,0.299449,1.74101,9,0.01834,10,0.000521342,-2.7592,0.000606104,97.343,1924.43,0.2994487,
2,1,0,1,0,16931.1,0.298238,0.297965,0.259672,9,0.0183611,10,7.7373e-05,-3.58558,0.00489479,12.0536,710.411,0.297965,
2,0,0,1,0,16931.1,0.296744,0.29645,-0.282709,9,0.0183595,10,-8.3809e-05,-3.54866,-0.660705,-0.0892985,295.474,0.29645,
2,0,0,1,0,16931.1,0.295243,0.294924,-0.537181,9,0.0183484,10,-0.000158428,-3.26988,-0.00577791,-10.2113,141.946,0.294924,
2,0,0,1,0,16931.2,0.293742,0.293408,-0.674614,9,0.0183326,10,-0.000197937,-3.17094,-0.0170367,-3.4631,83.8686,0.293408,
2,0,0,1,0,16931.2,0.292248,0.29194,-0.773003,9,0.0183141,10,-0.000225671,-3.11182,-0.0314222,-1.87766,54.7372,0.29194,
2,0,0,1,0,16931.2,0.290748,0.290476,-0.849147,9,0.0182934,10,-0.000246657,-3.07102,-0.042659,-1.38306,44.6226,0.290476,
2,0,0,1,0,16931.2,0.289249,0.288936,-0.903729,9,0.018271,10,-0.00026112,-3.04396,-0.0532891,-1.10717,38.6865,0.288936,
2,0,0,1,0,16931.3,0.287754,0.287388,-0.94694,9,0.0182475,10,-0.000272139,-3.02368,-0.0675436,-0.87351,32.3544,0.287388,
2,0,0,1,0,16931.3,0.286254,0.285947,-0.989429,9,0.0182227,10,-0.000282924,-3.00462,-0.0841563,-0.701076,27.0977,0.285947,
2,0,0,1,0,16931.3,0.284754,0.284441,-1.03757,9,0.0181969,10,-0.000295129,-2.98398,-0.0977981,-0.603284,24.2755,0.284441,
2,0,0,1,0,16931.3,0.28326,0.28296,-1.07802,9,0.0181702,10,-0.000305036,-2.96737,-0.0910934,-0.647687,26.9217,0.28296,
2,0,0,1,0,16931.4,0.28176,0.281423,-1.10458,9,0.0181425,10,-0.000310854,-2.9568,-0.113405,-0.520258,22.3672,0.281423,
2,0,0,1,0,16931.4,0.280261,0.279947,-1.12767,9,0.018114,10,-0.000315688,-2.94782,-0.141509,-0.416933,18.4637,0.279947,
2,0,0,1,0,16931.4,0.278761,0.278446,-1.16425,9,0.0180849,10,-0.000324182,-2.93395,-0.149487,-0.394684,17.9117,0.278446,
2,0,0,1,0,16931.4,0.277267,0.276962,-1.19326,9,0.0180551,10,-0.000330489,-2.92326,-0.147011,-0.40133,18.6627,0.2769624,
2,0,0,1,0,16931.5,0.275766,0.275402,-1.21323,9,0.0180245,10,-0.000334126,-2.91606,-0.177225,-0.33291,15.7791,0.275402,
2,0,0,1,0,16931.5,0.274265,0.273955,-1.24411,9,0.0179933,10,-0.000340831,-2.90514,-0.234781,-0.251298,12.1933,0.273955,
2,0,0,1,0,16931.5,0.272771,0.272398,-1.26586,9,0.0179617,10,-0.000344818,-2.89761,-0.200596,-0.294124,14.5174,0.272398,
2,0,0,1,0,16931.5,0.271272,0.270941,-1.29226,9,0.0179293,10,-0.000350125,-2.88865,-0.163949,-0.359867,18.0814,0.270941,
2,0,0,1,0,16931.6,0.269772,0.269452,-1.30647,9,0.0178963,10,-0.000352031,-2.8839,-0.201446,-0.292882,14.9953,0.269452,
2,0,0,1,0,16931.6,0.268273,0.267929,-1.3315,9,0.0178628,10,-0.000356746,-2.87566,-0.303558,-0.194362,10.0895,0.267929,
2,0,0,1,0,16931.6,0.26678,0.26644,-1.35243,9,0.017829,10,-0.00036034,-2.86889,-0.24862,-0.23731,12.5086,0.26644,
2,0,0,1,0,16931.6,0.265279,0.264968,-1.37456,9,0.0177945,10,-0.000364214,-2.86184,-0.198766,-0.296832,15.8513,0.264968,
2,0,0,1,0,16931.7,0.263778,0.263421,-1.3842,9,0.0177596,10,-0.000364627,-2.8588,-0.245948,-0.239888,13.0024,0.263421,
2,0,0,1,0,16931.7,0.262284,0.262001,-1.4019,9,0.0177243,10,-0.000367299,-2.85328,-0.343873,-0.171575,9.41264,0.262001,
2,0,0,1,0,16931.7,0.260784,0.260461,-1.42488,9,0.0176884,10,-0.000371125,-2.84622,-0.30749,-0.191876,10.6389,0.260461,
2,0,0,1,0,16931.7,0.259285,0.258995,-1.44357,9,0.0176522,10,-0.000373877,-2.84056,-0.241529,-0.244277,13.7797,0.258995,
2,0,0,1,0,16931.8,0.257791,0.257492,-1.45938,9,0.0176156,10,-0.000375779,-2.83583,-0.281935,-0.209268,11.9303,0.2574921,
2,0,0,1,0,16931.8,0.25629,0.255988,-1.47731,9,0.0175783,10,-0.000378173,-2.83053,-0.510669,-0.115535,6.65576,0.255988,
2,0,0,1,0,16931.8,0.254789,0.254453,-1.4939,9,0.0175407,10,-0.000380126,-2.82568,-0.359059,-0.164318,9.54849,0.254453,
2,0,0,1,0,16931.8,0.253296,0.252981,-1.50366,9,0.017503,10,-0.000380399,-2.82285,-0.302969,-0.194739,11.4477,0.252981,
2,0,0,1,0,16931.9,0.251797,0.251474,-1.51963,9,0.0174647,10,-0.000382147,-2.81826,-0.264706,-0.222889,13.2641,0.251474,
2,0,0,1,0,16931.9,0.250297,0.249971,-1.53369,9,0.017426,10,-0.000383378,-2.81426,-0.450635,-0.130926,7.8672,0.249971,
2,0,0,1,0,16931.9,0.248797,0.248458,-1.55436,9,0.0173868,10,-0.000386195,-2.80845,-0.422413,-0.139674,8.47133,0.248458,
2,0,0,1,0,16931.9,0.247303,0.246983,-1.56755,9,0.0173476,10,-0.000387158,-2.80478,-0.333067,-0.177141,10.8364,0.246983,
2,0,0,1,0,16932,0.245802,0.24546,-1.58193,9,0.0173077,10,-0.000388301,-2.80081,-0.314069,-0.187857,11.6092,0.24546,
2,0,0,1,0,16932,0.244302,0.243941,-1.59703,9,0.0172675,10,-0.000389581,-2.79669,-0.388739,-0.151773,9.45313,0.243941,
2,0,0,1,0,16932,0.242807,0.242463,-1.61588,9,0.017227,10,-0.000391791,-2.79159,-0.558224,-0.105692,6.63889,0.242463,
2,0,0,1,0,16932,0.241308,0.241012,-1.62397,9,0.0171862,10,-0.000391396,-2.78942,-0.355427,-0.165998,10.5076,0.241012,
2,0,0,1,0,16932.1,0.239808,0.239525,-1.6326,9,0.0171449,10,-0.000391049,-2.78712,-0.304964,-0.193465,12.3819,0.239525,
2,0,0,1,0,16932.1,0.238309,0.237999,-1.64589,9,0.0171034,10,-0.000391721,-2.7836,-0.428087,-0.137822,8.90986,0.237999,
2,0,0,1,0,16932.1,0.236815,0.236517,-1.66967,9,0.0170616,10,-0.000394906,-2.77737,-0.549338,-0.107402,6.96716,0.236517,
2,0,0,1,0,16932.1,0.235315,0.23499,-1.67656,9,0.0170193,10,-0.000393975,-2.77558,-0.388249,-0.151964,9.93302,0.2349899,
2,0,0,1,0,16932.2,0.233814,0.233493,-1.69302,9,0.0169768,10,-0.000395307,-2.77134,-0.323431,-0.182419,12.0516,0.233493,
2,0,0,1,0,16932.2,0.23232,0.232009,-1.70471,9,0.0169341,10,-0.000395508,-2.76835,-0.490459,-0.120295,8.00558,0.232009,
2,0,0,1,0,16932.2,0.230821,0.2305,-1.71907,9,0.0168908,10,-0.000396247,-2.76471,-0.741873,-0.0795284,5.32225,0.2305,
2,0,0,1,0,16932.2,0.229321,0.228971,-1.73357,9,0.0168472,10,-0.000396938,-2.76106,-0.482058,-0.122392,8.27246,0.2289706,
2,0,0,1,0,16932.3,0.227827,0.22752,-1.74039,9,0.0168036,10,-0.000395974,-2.75935,-0.439883,-0.134127,9.14803,0.22752,
2,0,0,1,0,16932.3,0.226326,0.225995,-1.7556,9,0.0167594,10,-0.000396757,-2.75557,-0.562159,-0.104953,7.2001,0.225995,
2,0,0,1,0,16932.3,0.224825,0.224541,-1.76944,9,0.0167148,10,-0.000397312,-2.75216,-0.612768,-0.0962844,6.63854,0.224541,
2,0,0,1,0,16932.3,0.223331,0.222977,-1.78833,9,0.0166702,10,-0.000398755,-2.74755,-0.429321,-0.137426,9.52983,0.222977,
2,0,0,1,0,16932.4,0.221831,0.221527,-1.79579,9,0.0166251,10,-0.000397817,-2.74574,-0.379923,-0.155295,10.8866,0.221527,
2,0,0,1,0,16932.4,0.220333,0.220011,-1.80194,9,0.0165796,10,-0.000396445,-2.74426,-0.462902,-0.127457,8.9949,0.220011,
2,0,0,1,0,16932.4,0.218834,0.218546,-1.82401,9,0.0165338,10,-0.00039863,-2.73897,-0.46056,-0.128105,9.09792,0.218546,
2,0,0,1,0,16932.4,0.217339,0.217015,-1.83853,9,0.0164877,10,-0.000398988,-2.73553,-0.454923,-0.129692,9.26755,0.217015,
2,0,0,1,0,16932.5,0.215839,0.215532,-1.8392,9,0.0164413,10,-0.000396406,-2.73537,-0.51498,-0.114568,8.26232,0.215532,
2,0,0,1,0,16932.5,0.214338,0.214044,-1.85552,9,0.0163946,10,-0.000397162,-2.73153,-0.50871,-0.11598,8.41945,0.214044,
2,0,0,1,0,16932.5,0.212844,0.212497,-1.87535,9,0.0163478,10,-0.000398507,-2.72692,-0.711336,-0.0829425,6.04794,0.212497,
2,0,0,1,0,16932.5,0.211344,0.211009,-1.89112,9,0.0163003,10,-0.000399044,-2.72328,-0.504327,-0.116988,8.57475,0.211009,
2,0,0,1,0,16932.6,0.209845,0.209538,-1.88787,9,0.0162526,10,-0.00039558,-2.72403,-0.431996,-0.136575,10.1209,0.209538,
2,0,0,1,0,16932.6,0.20835,0.207995,-1.90783,9,0.0162049,10,-0.000396819,-2.71946,-0.494281,-0.119365,8.91721,0.207995,
2,0,0,1,0,16932.6,0.206851,0.206547,-1.92904,9,0.0161565,10,-0.000398438,-2.71466,-0.486886,-0.121178,9.09961,0.206547,
2,0,0,1,0,16932.6,0.20535,0.205036,-1.94438,9,0.0161077,10,-0.000398667,-2.71122,-0.476119,-0.123919,9.3495,0.205036,
2,0,0,1,0,16932.7,0.203856,0.203524,-1.95428,9,0.0160587,10,-0.000397743,-2.70901,-0.428544,-0.137675,10.499,0.203524,
2,0,0,1,0,16932.7,0.202356,0.202045,-1.95852,9,0.0160094,10,-0.00039571,-2.70807,-0.590086,-0.0999855,7.67922,0.202045,
2,0,0,1,0,16932.7,0.200857,0.200534,-1.98166,9,0.0159597,10,-0.000397389,-2.70297,-0.473041,-0.124725,9.61712,0.2005336,
2,0,0,1,0,16932.7,0.199357,0.199039,-1.996,9,0.0159095,10,-0.000397281,-2.69984,-0.520322,-0.113391,8.81186,0.199039,
2,0,0,1,0,16932.8,0.197863,0.197526,-2.00326,9,0.0158593,10,-0.000395695,-2.69826,-0.479609,-0.123017,9.63197,0.197526,
2,0,0,1,0,16932.8,0.196362,0.196043,-2.01493,9,0.0158085,10,-0.000395014,-2.69574,-0.558736,-0.105595,8.3391,0.196043,
2,0,0,1,0,16932.8,0.194861,0.194538,-2.03661,9,0.0157574,10,-0.000396199,-2.69109,-0.458811,-0.128593,10.2053,0.194538,
2,0,0,1,0,16932.8,0.193367,0.193013,-2.06324,9,0.015706,10,-0.000398233,-2.68545,-0.37916,-0.155607,12.4371,0.193013,
2,0,0,1,0,16932.9,0.191868,0.191546,-2.07159,9,0.0156539,10,-0.000396804,-2.6837,-0.394468,-0.149569,12.0845,0.191546,
2,0,0,1,0,16932.9,0.190368,0.190059,-2.07498,9,0.0156016,10,-0.000394367,-2.68299,-0.459703,-0.128344,10.4589,0.190059,
2,0,0,1,0,16932.9,0.18887,0.188521,-2.10074,9,0.0155489,10,-0.000396035,-2.67763,-0.40123,-0.147048,12.0642,0.188521,
2,0,0,1,0,16932.9,0.187376,0.187069,-2.12244,9,0.0154959,10,-0.000397044,-2.67316,-0.357257,-0.165147,13.6407,0.187069,
2,0,0,1,0,16933,0.185875,0.185611,-2.13722,9,0.0154422,10,-0.000396691,-2.67015,-0.390081,-0.151251,12.6004,0.185611,
2,0,0,1,0,16933,0.184374,0.184048,-2.14389,9,0.0153881,10,-0.000394579,-2.6688,-0.434506,-0.135786,11.445,0.184048,
2,0,0,1,0,16933,0.18288,0.182576,-2.17583,9,0.0153337,10,-0.000397255,-2.66238,-0.43757,-0.134836,11.4601,0.1825763,
2,0,0,1,0,16933,0.18138,0.18105,-2.20206,9,0.0152786,10,-0.000398683,-2.65717,-0.35684,-0.16534,14.1677,0.18105,
2,0,0,1,0,16933.1,0.179881,0.179535,-2.21402,9,0.0152229,10,-0.000397493,-2.65482,-0.360564,-0.163633,14.1576,0.179535,
2,0,0,1,0,16933.1,0.178387,0.178106,-2.2356,9,0.015167,10,-0.000398173,-2.65061,-0.377854,-0.156145,13.6902,0.178106,
2,0,0,1,0,16933.1,0.176886,0.176571,-2.2619,9,0.0151104,10,-0.000399386,-2.64553,-0.405451,-0.145517,12.8759,0.176571,
2,0,0,1,0,16933.1,0.175385,0.175037,-2.29783,9,0.015053,10,-0.000402205,-2.63868,-0.277829,-0.212361,18.9333,0.175037,
2,0,0,1,0,16933.2,0.173892,0.173538,-2.31901,9,0.0149953,10,-0.000402436,-2.6347,-0.254356,-0.231958,20.9534,0.173538,
2,0,0,1,0,16933.2,0.172392,0.172072,-2.33374,9,0.0149366,10,-0.000401572,-2.63195,-0.296431,-0.199035,18.2018,0.1720721,
2,0,0,1,0,16933.2,0.170893,0.170537,-2.36666,9,0.0148773,10,-0.000403602,-2.62586,-0.315694,-0.18689,17.3063,0.170537,
2,0,0,1,0,16933.2,0.169393,0.169081,-2.40294,9,0.0148172,10,-0.000406291,-2.61926,-0.241302,-0.244506,22.8966,0.169081,
2,0,0,1,0,16933.3,0.167899,0.167583,-2.44065,9,0.0147565,10,-0.000409011,-2.61249,-0.220845,-0.267155,25.443,0.1675828,
2,0,0,1,0,16933.3,0.166398,0.166083,-2.46643,9,0.0146946,10,-0.000409633,-2.60793,-0.263722,-0.223721,21.6654,0.166083,
2,0,0,1,0,16933.3,0.164898,0.164595,-2.5067,9,0.0146319,10,-0.00041259,-2.6009,-0.246836,-0.239025,23.4236,0.164595,
2,0,0,1,0,16933.3,0.163403,0.163085,-2.55987,9,0.0145685,10,-0.000417476,-2.59178,-0.202589,-0.29123,29.0079,0.163085,
2,0,0,1,0,16933.4,0.161904,0.16155,-2.60234,9,0.0145037,10,-0.000420409,-2.58464,-0.171916,-0.343191,34.7866,0.16155,
2,0,0,1,0,16933.4,0.160404,0.160101,-2.64138,9,0.0144377,10,-0.000422886,-2.57817,-0.182433,-0.323407,33.4752,0.160101,
2,0,0,1,0,16933.4,0.158905,0.158586,-2.69536,9,0.0143704,10,-0.000427446,-2.56938,-0.176364,-0.334535,35.2844,0.158586,
2,0,0,1,0,16933.4,0.157411,0.157105,-2.76241,9,0.014302,10,-0.000433988,-2.55871,-0.149163,-0.395541,42.7038,0.157105,
2,0,0,1,0,16933.5,0.155911,0.155582,-2.82188,9,0.0142318,10,-0.000439034,-2.54946,-0.135673,-0.434869,47.9869,0.155582,
2,0,0,1,0,16933.5,0.15441,0.154062,-2.8918,9,0.0141598,10,-0.000445517,-2.53883,-0.140463,-0.42004,47.4716,0.154062,
2,0,0,1,0,16933.5,0.152916,0.152562,-2.97286,9,0.0140862,10,-0.000453545,-2.52683,-0.133408,-0.442251,51.4059,0.152562,
2,0,0,1,0,16933.5,0.151417,0.151076,-3.06044,9,0.0140105,10,-0.000462358,-2.51422,-0.120498,-0.489634,58.5266,0.151076,
2,0,0,1,0,16933.6,0.149917,0.149623,-3.15314,9,0.0139325,10,-0.000471784,-2.50126,-0.104007,-0.567269,69.9116,0.149623,
2,0,0,1,0,16933.6,0.148423,0.148096,-3.25504,9,0.0138522,10,-0.000482059,-2.48744,-0.100733,-0.585709,74.7007,0.148096,
2,0,0,1,0,16933.6,0.146922,0.146589,-3.37179,9,0.0137688,10,-0.000494268,-2.47214,-0.100874,-0.584887,77.1107,0.146589,
2,0,0,1,0,16933.6,0.145421,0.145088,-3.50398,9,0.0136825,10,-0.000508385,-2.45544,-0.0925493,-0.637498,87.1765,0.145088,
2,0,0,1,0,16933.7,0.143927,0.14361,-3.63716,9,0.0135933,10,-0.000522332,-2.43924,-0.084458,-0.698572,99.2249,0.14361,
2,0,0,1,0,16933.7,0.142429,0.142128,-3.78531,9,0.0135,10,-0.000537999,-2.4219,-0.0820011,-0.719503,106.541,0.142128,
2,0,0,1,0,16933.7,0.140929,0.140612,-3.94811,9,0.0134029,10,-0.00055515,-2.40361,-0.0853679,-0.691126,106.561,0.140612,
2,0,0,1,0,16933.7,0.13943,0.139075,-4.11294,9,0.0133016,10,-0.000572007,-2.38585,-0.083339,-0.707952,113.834,0.139075,
2,0,0,1,0,16933.8,0.137935,0.137612,-4.29777,9,0.0131964,10,-0.000591425,-2.36676,-0.0793975,-0.743097,124.636,0.137612,
2,0,0,1,0,16933.8,0.136435,0.136101,-4.47754,9,0.0130862,10,-0.000609397,-2.34896,-0.0808298,-0.729929,127.668,0.136101,
2,0,0,1,0,16933.8,0.134934,0.134626,-4.67336,9,0.0129713,10,-0.000629156,-2.33037,-0.086782,-0.679865,123.872,0.134626,
2,0,0,1,0,16933.8,0.13344,0.133116,-4.8717,9,0.012852,10,-0.000648503,-2.31232,-0.0879222,-0.671048,127.137,0.133116,
2,0,0,1,0,16933.9,0.13194,0.131644,-5.05214,9,0.0127276,10,-0.000665086,-2.29652,-0.0918934,-0.642048,126.62,0.131644,
2,0,0,1,0,16933.9,0.13044,0.130115,-5.229,9,0.0125985,10,-0.000680372,-2.28158,-0.0938982,-0.62834,128.46,0.130115,
2,0,0,1,0,16933.9,0.128941,0.128617,-5.42798,9,0.0124646,10,-0.000698133,-2.26536,-0.104218,-0.566118,119.658,0.1286175,
2,0,0,1,0,16933.9,0.127447,0.127133,-5.61276,9,0.0123267,10,-0.000713566,-2.25082,-0.112334,-0.525219,114.64,0.127133,
2,0,0,1,0,16934,0.125946,0.125625,-5.77742,9,0.012184,10,-0.000725789,-2.23827,-0.118482,-0.497964,111.955,0.1256251,
2,0,0,1,0,16934,0.124446,0.124145,-5.93573,9,0.0120371,10,-0.000736892,-2.22653,-0.129585,-0.455301,105.257,0.124145,
2,0,0,1,0,16934,0.122952,0.122652,-6.08166,9,0.011887,10,-0.000745929,-2.21598,-0.147862,-0.399022,94.5783,0.1226522,
2,0,0,1,0,16934,0.121453,0.12119,-6.22478,9,0.0117326,10,-0.000754379,-2.20588,-0.167699,-0.35182,85.1906,0.12119,
2,0,0,1,0,16934.1,0.119953,0.119653,-6.33846,9,0.0115751,10,-0.000758416,-2.19802,-0.181346,-0.325344,80.4487,0.119653,
2,0,0,1,0,16934.1,0.118459,0.118164,-6.45169,9,0.0114153,10,-0.000762357,-2.19033,-0.19934,-0.295977,74.5163,0.118164,
2,0,0,1,0,16934.1,0.116958,0.116596,-6.56269,9,0.011252,10,-0.000765183,-2.18292,-0.242627,-0.243172,62.1608,0.116596,
2,0,0,1,0,16934.1,0.115457,0.115137,-6.66105,9,0.0110863,10,-0.000766936,-2.17646,-0.292133,-0.201963,52.3007,0.115137,
2,0,0,1,0,16934.2,0.113963,0.11366,-6.72408,9,0.0109192,10,-0.000764259,-2.17237,-0.319801,-0.18449,48.3411,0.11366,
2,0,0,1,0,16934.2,0.112464,0.1121,-6.78705,9,0.0107498,10,-0.000760827,-2.16832,-0.390506,-0.151086,39.9897,0.1121,
2,0,0,1,0,16934.2,0.110965,0.110608,-6.84547,9,0.0105789,10,-0.000757166,-2.1646,-0.518637,-0.11376,30.3499,0.110608,
2,0,0,1,0,16934.2,0.109466,0.109148,-6.88877,9,0.0104067,10,-0.000751897,-2.16186,-0.693,-0.0851371,22.8416,0.109148,
2,0,0,1,0,16934.3,0.107972,0.107648,-6.9245,9,0.0102343,10,-0.000745409,-2.15961,-0.931684,-0.0633262,17.0721,0.107648,
2,0,0,1,0,16934.3,0.106471,0.106195,-6.92904,9,0.0100606,10,-0.000735831,-2.15933,-1.84343,-0.0320056,8.65815,0.1061952,
2,0,0,1,0,16934.3,0.10497,0.104646,-6.93601,9,0.0098867,10,-0.000725823,-2.15889,-21.6215,-0.00272876,0.738522,0.104646,
2,0,0,1,0,16934.3,0.103476,0.10314,-6.94894,9,0.00971332,10,-0.000716714,-2.15808,1.70312,0.0346422,-9.36352,0.10314,
2,0,0,1,0,16934.4,0.101976,0.101658,-6.9325,9,0.00953948,10,-0.000704742,-2.15911,0.933266,0.0632189,-17.0475,0.101658,
2,0,0,1,0,16934.4,0.100477,0.100159,-6.88492,9,0.00936635,10,-0.000689589,-2.1621,0.721831,0.0817365,-21.9737,0.100159,
2,0,0,1,0,16934.4,0.0989825,0.098661,-6.85293,9,0.00919479,10,-0.000676117,-2.16412,0.562125,0.104959,-28.0498,0.098661,
2,0,0,1,0,16934.4,0.0974817,0.0971513,-6.81264,9,0.00902352,10,-0.000661857,-2.16668,0.435932,0.135342,-35.914,0.0971513,
2,0,0,1,0,16934.5,0.0959822,0.0956557,-6.76007,9,0.0088535,10,-0.00064664,-2.17005,0.398021,0.148233,-38.995,0.0956557,
2,0,0,1,0,16934.5,0.094488,0.0941543,-6.68212,9,0.00868573,10,-0.000629151,-2.17509,0.337964,0.174575,-45.5301,0.0941543,
2,0,0,1,0,16934.5,0.0929884,0.092699,-6.61376,9,0.00851906,10,-0.000613089,-2.17955,0.332218,0.177594,-45.8524,0.092699,
2,0,0,1,0,16934.5,0.0914889,0.0911308,-6.55135,9,0.00835408,10,-0.00059703,-2.18367,0.307637,0.191784,-48.9474,0.0911308,
2,0,0,1,0,16934.6,0.0899894,0.0896466,-6.47597,9,0.00819086,10,-0.000580548,-2.1887,0.284756,0.207195,-52.2548,0.0896466,
2,0,0,1,0,16934.6,0.0884951,0.0881449,-6.38554,9,0.00803024,10,-0.000562852,-2.1948,0.282255,0.209031,-52.1533,0.0881449,
2,0,0,1,0,16934.6,0.0869943,0.086686,-6.31266,9,0.00787108,10,-0.000547219,-2.19979,0.270688,0.217963,-53.7502,0.086686,
2,0,0,1,0,16934.6,0.0854935,0.0851959,-6.24389,9,0.00771378,10,-0.000531954,-2.20454,0.290696,0.202961,-49.4195,0.0851959,
2,0,0,1,0,16934.7,0.0839993,0.0837112,-6.1748,9,0.00755881,10,-0.0005169,-2.20938,0.304847,0.19354,-46.5771,0.0837112,
2,0,0,1,0,16934.7,0.0824998,0.0821863,-6.10378,9,0.00740497,10,-0.000501647,-2.2144,0.335567,0.175822,-41.9116,0.0821863,
2,0,0,1,0,16934.7,0.0810002,0.080682,-6.03492,9,0.00725291,10,-0.000486909,-2.21933,0.334914,0.176164,-41.5734,0.080682,
2,0,0,1,0,16934.7,0.0795007,0.0791991,-5.98395,9,0.00710224,10,-0.000473924,-2.22301,0.3883,0.151944,-35.4774,0.0791991,
2,0,0,1,0,16934.8,0.0780078,0.0776896,-5.93321,9,0.00695341,10,-0.000460948,-2.22671,0.457794,0.128879,-29.8284,0.0776896,
2,0,0,1,0,16934.8,0.076507,0.076155,-5.88423,9,0.00680522,10,-0.000448114,-2.23031,0.447358,0.131885,-30.3035,0.076155,
2,0,0,1,0,16934.8,0.0750062,0.0747019,-5.83271,9,0.00665831,10,-0.000435714,-2.23413,0.437658,0.134808,-30.7326,0.0747019,
2,0,0,1,0,16934.8,0.073512,0.0732119,-5.79871,9,0.00651304,10,-0.000424535,-2.23667,0.510717,0.115524,-26.1303,0.0732119,
2,0,0,1,0,16934.9,0.0720124,0.071686,-5.76146,9,0.00636809,10,-0.000413016,-2.23947,0.592558,0.0995684,-22.3935,0.071686,
2,0,0,1,0,16934.9,0.0705129,0.0701445,-5.72718,9,0.00622399,10,-0.000401731,-2.24206,0.55387,0.106523,-23.8251,0.0701445,
2,0,0,1,0,16934.9,0.0690187,0.0687462,-5.68591,9,0.00608138,10,-0.000390884,-2.2452,0.548585,0.107549,-23.9154,0.0687462,
2,0,0,1,0,16934.9,0.0675179,0.0671757,-5.66134,9,0.00593907,10,-0.000380304,-2.24708,0.619879,0.0951799,-21.0361,0.0671757,
2,0,0,1,0,16935,0.066017,0.0656851,-5.64068,9,0.00579746,10,-0.000370509,-2.24867,0.769421,0.076681,-16.8276,0.0656851,
2,0,0,1,0,16935,0.0645242,0.0641821,-5.60474,9,0.00565708,10,-0.000359723,-2.25144,0.680481,0.0867034,-18.9437,0.0641821,
2,0,0,1,0,16935,0.0630246,0.0627038,-5.56488,9,0.00551692,10,-0.000348939,-2.25454,0.568657,0.103753,-22.5729,0.0627038,
2,0,0,1,0,16935,0.0615251,0.0612315,-5.54022,9,0.00537765,10,-0.000339236,-2.25647,0.55007,0.107259,-23.1954,0.0612315,
2,0,0,1,0,16935.1,0.0600256,0.0597064,-5.5107,9,0.00523909,10,-0.000329024,-2.25879,0.72022,0.0819194,-17.6102,0.0597064,
2,0,0,1,0,16935.1,0.0585314,0.0582074,-5.47671,9,0.00510183,10,-0.000318785,-2.26148,0.627082,0.0940866,-20.1168,0.0582074,
2,0,0,1,0,16935.1,0.0570305,0.0566752,-5.44311,9,0.00496476,10,-0.000308489,-2.26415,0.556036,0.106108,-22.5632,0.0566752,
2,0,0,1,0,16935.1,0.0555297,0.055213,-5.41526,9,0.00482855,10,-0.000298993,-2.26638,0.544401,0.108376,-22.9027,0.055213,
2,0,0,1,0,16935.2,0.0540355,0.053746,-5.38989,9,0.00469369,10,-0.000289685,-2.26842,0.664294,0.0888161,-18.6512,0.053746,
2,0,0,1,0,16935.2,0.052536,0.0522396,-5.35846,9,0.0045589,10,-0.000279924,-2.27096,0.710756,0.0830102,-17.3433,0.0522396,
2,0,0,1,0,16935.2,0.0510364,0.0507399,-5.3205,9,0.00442492,10,-0.000269962,-2.27405,0.521126,0.113216,-23.5346,0.0507399,
2,0,0,1,0,16935.2,0.0495369,0.049213,-5.28565,9,0.00429185,10,-0.000260123,-2.2769,0.494078,0.119414,-24.6454,0.049213,
2,0,0,1,0,16935.3,0.0480427,0.0477245,-5.26189,9,0.00416012,10,-0.000251121,-2.27886,0.625584,0.0943119,-19.3371,0.0477245,
2,0,0,1,0,16935.3,0.0465432,0.0462269,-5.22234,9,0.00402866,10,-0.000241413,-2.28213,0.623876,0.0945701,-19.2783,0.0462269,
2,0,0,1,0,16935.3,0.0450424,0.0446705,-5.18506,9,0.00389801,10,-0.000231619,-2.28525,0.491464,0.120049,-24.2989,0.0446705,
2,0,0,1,0,16935.3,0.0435482,0.043242,-5.14913,9,0.00376881,10,-0.000222658,-2.28827,0.456579,0.129222,-25.9702,0.043242,
2,0,0,1,0,16935.4,0.0420486,0.0417145,-5.11797,9,0.00364003,10,-0.000213493,-2.2909,0.492543,0.119786,-23.9178,0.0417145,
2,0,0,1,0,16935.4,0.0405491,0.0402241,-5.08826,9,0.0035121,10,-0.000204671,-2.29343,0.499088,0.118216,-23.4416,0.0402241,
2,0,0,1,0,16935.4,0.0390549,0.0386982,-5.04006,9,0.00338548,10,-0.000195041,-2.29756,0.409028,0.144244,-28.3762,0.0386982,
2,0,0,1,0,16935.4,0.0375541,0.0372152,-5.00322,9,0.00325942,10,-0.000186196,-2.30075,0.367999,0.160326,-31.3074,0.0372152,
2,0,0,1,0,16935.5,0.0360532,0.0357603,-4.9692,9,0.00313447,10,-0.0001777,-2.30371,0.408913,0.144285,-27.9451,0.03576025,
2,0,0,1,0,16935.5,0.034559,0.0342457,-4.92169,9,0.00301097,10,-0.000168547,-2.30789,0.483747,0.121965,-23.4166,0.0342457,
2,0,0,1,0,16935.5,0.0330595,0.0327151,-4.88092,9,0.00288797,10,-0.00015968,-2.3115,0.402315,0.146651,-27.9348,0.0327151,
2,0,0,1,0,16935.5,0.0315613,0.0312564,-4.84012,9,0.00276602,10,-0.000151285,-2.31514,0.351083,0.168052,-31.7211,0.0312564,
2,0,0,1,0,16935.6,0.0300618,0.0297411,-4.80218,9,0.00264525,10,-0.000142822,-2.31856,0.378993,0.155676,-29.1048,0.0297411,
2,0,0,1,0,16935.6,0.0285676,0.0282489,-4.7477,9,0.00252601,10,-0.000134117,-2.32352,0.43026,0.137126,-25.4039,0.0282489,
2,0,0,1,0,16935.6,0.0270667,0.0267548,-4.70499,9,0.00240734,10,-0.000125881,-2.32744,0.364852,0.161709,-29.7075,0.0267548,
2,0,0,1,0,16935.6,0.0255659,0.025266,-4.66507,9,0.00228973,10,-0.000117868,-2.33114,0.323684,0.182277,-33.1335,0.025266,
2,0,0,1,0,16935.7,0.0240717,0.0237804,-4.61725,9,0.00217379,10,-0.0001098,-2.33562,0.366907,0.160803,-28.9896,0.0237804,
2,0,0,1,0,16935.7,0.0225722,0.022222,-4.56677,9,0.00205854,10,-0.000101483,-2.34039,0.429577,0.137344,-24.5091,0.022222,
2,0,0,1,0,16935.7,0.0210726,0.020745,-4.52408,9,0.00194428,10,-9.38521e-05,-2.34447,0.376461,0.156723,-27.7237,0.020745,
2,0,0,1,0,16935.7,0.0195784,0.0192505,-4.49193,9,0.0018315,10,-8.64717e-05,-2.34757,0.352945,0.167165,-29.2967,0.0192505,
2,0,0,1,0,16935.8,0.0180789,0.0177348,-4.44705,9,0.00171934,10,-7.88675e-05,-2.35193,0.373895,0.157798,-27.3942,0.0177348,
2,0,0,1,0,16935.8,0.0165781,0.0162314,-4.41139,9,0.00160819,10,-7.16032e-05,-2.35542,0.483556,0.122013,-21.0256,0.0162314,
2,0,0,1,0,16935.8,0.0150839,0.0148083,-4.37548,9,0.00149833,10,-6.47936e-05,-2.35897,0.466789,0.126395,-21.6032,0.0148083,
2,0,0,1,0,16935.8,0.0135844,0.0132806,-4.34755,9,0.00138879,10,-5.7738e-05,-2.36176,0.399163,0.147809,-25.0478,0.01328058,
2,0,0,1,0,16935.9,0.0120848,0.0117211,-4.31048,9,0.00128014,10,-5.05235e-05,-2.36547,0.441323,0.133689,-22.5029,0.0117211,
2,0,0,1,0,16935.9,0.0105853,0.0102434,-4.27566,9,0.00117237,10,-4.37972e-05,-2.369,0.563712,0.104663,-17.4902,0.0102434,
2,0,0,1,0,16935.9,0.00909108,0.0087743,-4.24171,9,0.00106575,10,-3.72181e-05,-2.37246,0.529105,0.111509,-18.5199,0.0087743,
2,0,0,1,0,16935.9,0.00759027,0.00725083,-4.22588,9,0.000959352,10,-3.06411e-05,-2.37408,0.523691,0.112662,-18.5722,0.00725083,
2,0,0,1,0,16936,0.00608945,0.00575801,-4.20583,9,0.000853558,10,-2.42172e-05,-2.37615,0.579866,0.101748,-16.6752,0.00575801,
2,0,0,1,0,16936,0.00459524,0.00428865,-4.17999,9,0.00074885,10,-1.79265e-05,-2.37882,0.794028,0.0743047,-12.1271,0.00428865,
2,0,0,1,0,16936,0.0030957,0.00276166,-4.16145,9,0.000644205,10,-1.14925e-05,-2.38076,4.14241,0.0142429,-2.32185,0.00276166,
2,0,0,1,0,16936,0.00159616,0.00125196,-4.17963,9,0.000539364,10,-5.23273e-06,-2.37886, , , ,0.00125196,
2,0,0,1,0,16936.1,0.000199195,-0.000218435,-4.14901,9,0.000441865,10,9.06287e-07,-2.38206, , , ,-0.000218435,