File: Figure_codes/Fig_3-5/rawdata_trumpetplot_data/after 10th/20221101_1-115_003_TrumpetPlot_ParaChange_from10_every3_14_CV_C01_9.csv
mode,ox/red,error,control changes,counter inc.,time/s,control/V,Ewe/V,<I>/mA,cycle number,(Q-Qo)/C,I Range,P/W,log(|I|),Tafel slope mV/dec,alpha_eff,dI/d(E-IR),E-IR/V,
2,1,0,1,0,18930.3,2.44065e-05,-0.000287149,39.9922,10,0.0000000E+000,10,-1.14837e-05,-1.39802, , , ,-0.0002871489,
2,1,0,1,0,18930.3,0.00332042,0.00291952,41.3424,10,0.000126646,10,0.0001207,-1.3836, , , ,0.00291952,
2,1,0,1,0,18930.3,0.0073156,0.00696815,42.4219,10,0.00029434,10,0.000295602,-1.37241, , , ,0.00696815,
2,1,0,1,0,18930.3,0.0113108,0.0109563,43.3512,10,0.000466018,10,0.00047497,-1.363,0.441559,0.133617,224.844,0.01095634,
2,1,0,1,0,18930.3,0.0153059,0.0149148,44.1842,10,0.00064118,10,0.000659,-1.35473,0.494204,0.119384,205.223,0.0149148,
2,1,0,1,0,18930.3,0.0193011,0.0189338,44.9431,10,0.000819546,10,0.000850943,-1.34734,0.550678,0.107141,187.484,0.0189338,
2,1,0,1,0,18930.3,0.0233462,0.0230057,45.7132,10,0.00100101,10,0.00105167,-1.33996,0.606448,0.0972878,172.976,0.0230057,
2,1,0,1,0,18930.3,0.0273414,0.026995,46.3582,10,0.00118521,10,0.00125144,-1.33387,0.659991,0.0893951,161.275,0.026995,
2,1,0,1,0,18930.3,0.0313366,0.0309599,46.9596,10,0.00137192,10,0.00145386,-1.32828,0.729701,0.080855,147.946,0.03095985,
2,1,0,1,0,18930.3,0.0353317,0.0349989,47.534,10,0.00156096,10,0.00166364,-1.323,0.775373,0.0760924,140.978,0.0349989,
2,1,0,1,0,18930.3,0.0393269,0.0389776,48.0761,10,0.00175224,10,0.00187389,-1.31807,0.829656,0.0711138,133.262,0.0389776,
2,1,0,1,0,18930.3,0.0433221,0.0429361,48.6055,10,0.00194567,10,0.00208693,-1.31331,0.877776,0.0672153,127.33,0.0429361,
2,1,0,1,0,18930.3,0.0473173,0.0469391,49.089,10,0.00214111,10,0.0023042,-1.30902,0.922991,0.0639226,122.353,0.04693912,
2,1,0,1,0,18930.3,0.0513124,0.0509093,49.5599,10,0.00233847,10,0.00252306,-1.30487,0.972181,0.0606883,117.326,0.0509093,
2,1,0,1,0,18930.3,0.0553076,0.0549229,50.0271,10,0.0025377,10,0.00274763,-1.30079,0.967064,0.0610094,119.143,0.0549229,
2,1,0,1,0,18930.3,0.0593028,0.0589069,50.4793,10,0.00273875,10,0.00297358,-1.29689,0.983566,0.0599858,118.226,0.0589069,
2,1,0,1,0,18930.3,0.0633479,0.0629852,51.0008,10,0.00294172,10,0.0032123,-1.29242,0.998573,0.0590843,117.518,0.0629852,
2,1,0,1,0,18930.3,0.0673431,0.066931,51.4541,10,0.00314667,10,0.00344387,-1.28858,1.00068,0.0589602,118.325,0.066931,
2,1,0,1,0,18930.4,0.0713382,0.0709732,51.9133,10,0.00335345,10,0.00368445,-1.28472,1.03022,0.0572693,116.045,0.0709732,
2,1,0,1,0,18930.4,0.0753334,0.0749497,52.3776,10,0.00356207,10,0.00392569,-1.28085,1.02956,0.0573059,117.164,0.0749497,
2,1,0,1,0,18930.4,0.0793286,0.0789337,52.8516,10,0.00377257,10,0.00417177,-1.27694,1.01671,0.0580302,119.713,0.0789337,
2,1,0,1,0,18930.4,0.0833238,0.0829696,53.3332,10,0.00398499,10,0.00442504,-1.273,1.01727,0.0579983,120.716,0.0829696,
2,1,0,1,0,18930.4,0.0873189,0.0868761,53.8171,10,0.00419934,10,0.00467542,-1.26908,0.970226,0.0608105,127.835,0.0868761,
2,1,0,1,0,18930.4,0.0913141,0.0908505,54.2971,10,0.00441558,10,0.00493292,-1.26522,0.926994,0.0636466,135.136,0.0908505,
2,1,0,1,0,18930.4,0.0953093,0.0948907,54.8914,10,0.00463404,10,0.00520869,-1.2605,0.887401,0.0664863,142.594,0.0948907,
2,1,0,1,0,18930.4,0.0993045,0.0989245,55.4893,10,0.00485484,10,0.00548925,-1.25579,0.843293,0.0699639,151.573,0.0989245,
2,1,0,1,0,18930.4,0.103319,0.102943,56.1082,10,0.00507807,10,0.00577597,-1.25097,0.848724,0.0695161,152.215,0.102943,
2,1,0,1,0,18930.4,0.107345,0.106995,56.7441,10,0.00530388,10,0.00607135,-1.24608,0.847507,0.0696159,154.091,0.106995,
2,1,0,1,0,18930.4,0.11134,0.110965,57.3382,10,0.0055321,10,0.00636256,-1.24156,0.84394,0.0699102,156.483,0.110965,
2,1,0,1,0,18930.4,0.115335,0.11496,57.9602,10,0.00576277,10,0.0066631,-1.23687,0.838556,0.0703591,159.286,0.11496,
2,1,0,1,0,18930.4,0.11933,0.118981,58.6178,10,0.005996,10,0.0069744,-1.23197,0.816621,0.0722489,165.38,0.118981,
2,1,0,1,0,18930.4,0.123325,0.122991,59.2921,10,0.00623188,10,0.00729243,-1.227,0.801641,0.0735991,170.36,0.122991,
2,1,0,1,0,18930.4,0.127321,0.126982,59.987,10,0.0064705,10,0.00761726,-1.22194,0.790515,0.0746349,174.767,0.126982,
2,1,0,1,0,18930.4,0.131316,0.130935,60.6817,10,0.00671189,10,0.00794536,-1.21694,0.778342,0.0758021,179.601,0.130935,
2,1,0,1,0,18930.4,0.135311,0.134925,61.4043,10,0.00695612,10,0.00828499,-1.2118,0.764736,0.0771508,185.035,0.134925,
2,1,0,1,0,18930.4,0.139306,0.13891,62.1512,10,0.0072033,10,0.00863344,-1.20655,0.737372,0.0800139,194.32,0.13891,
2,1,0,1,0,18930.4,0.143301,0.142964,62.9443,10,0.00745355,10,0.00899879,-1.20104,0.722941,0.081611,200.66,0.142964,
2,1,0,1,0,18930.4,0.147346,0.146986,63.8008,10,0.00770715,10,0.00937785,-1.19517,0.710409,0.0830507,206.777,0.146986,
2,1,0,1,0,18930.4,0.151342,0.150977,64.6251,10,0.00796408,10,0.00975689,-1.1896,0.699694,0.0843226,212.688,0.150977,
2,1,0,1,0,18930.4,0.155337,0.154962,65.4702,10,0.00822433,10,0.0101454,-1.18396,0.698581,0.0844569,215.933,0.154962,
2,1,0,1,0,18930.4,0.159332,0.158957,66.3459,10,0.00848805,10,0.0105462,-1.17819,0.691748,0.0852912,220.942,0.158957,
2,1,0,1,0,18930.4,0.163327,0.162974,67.2531,10,0.00875533,10,0.0109605,-1.17229,0.690483,0.0854474,224.242,0.1629741,
2,1,0,1,0,18930.4,0.167322,0.166967,68.158,10,0.00902624,10,0.0113801,-1.16648,0.698338,0.0844863,224.62,0.166967,
2,1,0,1,0,18930.5,0.171317,0.170925,69.0499,10,0.00930077,10,0.0118024,-1.16084,0.717463,0.0822343,221.467,0.170925,
2,1,0,1,0,18930.5,0.175313,0.174927,69.933,10,0.00957882,10,0.0122332,-1.15532,0.738623,0.0798783,217.86,0.174927,
2,1,0,1,0,18930.5,0.179308,0.17895,70.7913,10,0.00986037,10,0.0126681,-1.15002,0.756345,0.0780068,215.424,0.17895,
2,1,0,1,0,18930.5,0.183303,0.182954,71.6411,10,0.0101454,10,0.013107,-1.14484,0.802714,0.0735006,205.298,0.182954,
2,1,0,1,0,18930.5,0.187348,0.186948,72.5016,10,0.0104337,10,0.013554,-1.13965,0.854203,0.0690702,195.012,0.186948,
2,1,0,1,0,18930.5,0.191343,0.190997,73.2322,10,0.0107252,10,0.0139872,-1.1353,0.930965,0.0633751,180.745,0.190997,
2,1,0,1,0,18930.5,0.195338,0.194999,73.9211,10,0.0110196,10,0.0144146,-1.13123,1.05965,0.0556789,160.315,0.194999,
2,1,0,1,0,18930.5,0.199334,0.198953,74.5327,10,0.0113166,10,0.0148285,-1.12765,1.21251,0.0486595,141.203,0.198953,
2,1,0,1,0,18930.5,0.203329,0.202948,75.0667,10,0.0116159,10,0.0152346,-1.12455,1.4924,0.0395336,115.468,0.202948,
2,1,0,1,0,18930.5,0.207324,0.206986,75.4899,10,0.011917,10,0.0156254,-1.12211,2.03393,0.0290078,85.1471,0.206986,
2,1,0,1,0,18930.5,0.211319,0.21097,75.7652,10,0.0122196,10,0.0159842,-1.12053,3.52187,0.0167525,49.3365,0.21097,
2,1,0,1,0,18930.5,0.215314,0.214973,75.8968,10,0.012523,10,0.0163158,-1.11978,15.8223,0.00372892,10.9987,0.214973,
2,1,0,1,0,18930.5,0.219309,0.218985,75.8579,10,0.0128266,10,0.0166117,-1.12,-5.94747,-0.00992018,-29.242,0.218985,
2,1,0,1,0,18930.5,0.223305,0.223002,75.666,10,0.0131296,10,0.0168736,-1.1211,-2.41471,-0.0244336,-71.8218,0.223002,
2,1,0,1,0,18930.5,0.227314,0.226982,75.2969,10,0.0134316,10,0.0170911,-1.12322,-1.4748,-0.0400054,-116.966,0.226982,
2,1,0,1,0,18930.5,0.231345,0.231018,74.7444,10,0.0137317,10,0.0172673,-1.12642,-1.04503,-0.0564578,-163.813,0.231018,
2,1,0,1,0,18930.5,0.23534,0.235017,73.9826,10,0.0140291,10,0.0173872,-1.13087,-0.810493,-0.0727952,-209.118,0.235017,
2,1,0,1,0,18930.5,0.239335,0.239016,73.0427,10,0.0143231,10,0.0174584,-1.13642,-0.659386,-0.0894772,-253.871,0.239016,
2,1,0,1,0,18930.5,0.24333,0.243015,71.9443,10,0.014613,10,0.0174835,-1.143,-0.56425,-0.104564,-292.265,0.243015,
2,1,0,1,0,18930.5,0.247326,0.246972,70.6942,10,0.0148982,10,0.0174595,-1.15062,-0.494963,-0.119201,-327.466,0.246972,
2,1,0,1,0,18930.5,0.251321,0.251012,69.3078,10,0.0151781,10,0.0173971,-1.15922,-0.445232,-0.132515,-357.112,0.251012,
2,1,0,1,0,18930.5,0.255316,0.255007,67.8062,10,0.0154522,10,0.017291,-1.16873,-0.41015,-0.14385,-379.544,0.255007,
2,1,0,1,0,18930.5,0.259311,0.258994,66.2379,10,0.0157201,10,0.0171552,-1.17889,-0.381054,-0.154834,-399.257,0.258994,
2,1,0,1,0,18930.5,0.263306,0.263001,64.6105,10,0.0159817,10,0.0169926,-1.1897,-0.366865,-0.160822,-404.865,0.263001,
2,1,0,1,0,18930.5,0.267302,0.266961,62.9402,10,0.0162366,10,0.0168026,-1.20107,-0.351224,-0.167984,-412.24,0.266961,
2,1,0,1,0,18930.6,0.271347,0.27104,61.3149,10,0.016485,10,0.0166188,-1.21243,-0.342241,-0.172393,-412.092,0.27104,
2,1,0,1,0,18930.6,0.275342,0.275001,59.6393,10,0.0167267,10,0.0164008,-1.22447,-0.338654,-0.174219,-405.377,0.275001,
2,1,0,1,0,18930.6,0.279337,0.27902,58.0094,10,0.0169619,10,0.0161858,-1.2365,-0.333115,-0.177116,-401.24,0.27902,
2,1,0,1,0,18930.6,0.283332,0.283044,56.4205,10,0.0171905,10,0.0159695,-1.24856,-0.334006,-0.176644,-389.345,0.283044,
2,1,0,1,0,18930.6,0.287327,0.287032,54.8982,10,0.017413,10,0.0157575,-1.26044,-0.339568,-0.17375,-372.757,0.287032,
2,1,0,1,0,18930.6,0.291322,0.290951,53.4289,10,0.0176295,10,0.0155452,-1.27222,-0.345633,-0.170701,-356.895,0.2909514,
2,1,0,1,0,18930.6,0.295318,0.29503,52.0415,10,0.0178403,10,0.0153538,-1.28365,-0.350744,-0.168214,-345.746,0.29503,
2,1,0,1,0,18930.6,0.299013,0.298732,50.8216,10,0.0180305,10,0.015182,-1.29395,-0.141048,-0.418298,-820.047,0.298732,
2,1,0,0,0,18930.6,0.300012,0.299766,50.4957,10,0.0180812,10,0.0151369,-1.29675,0.00359608,16.4068,28852.6,0.299766,
2,1,0,1,0,18930.6,0.298714,0.298587,47.1671,10,0.0181433,10,0.0140835,-1.32636,0.0411183,1.43488,2281.67,0.298587,
2,1,0,1,0,18930.6,0.294718,0.294568,38.7341,10,0.0183136,10,0.0114098,-1.41191,0.0471601,1.25106,1816.59,0.294568,
2,1,0,1,0,18930.6,0.290723,0.290525,32.0971,10,0.0184543,10,0.00932502,-1.49353,0.0473762,1.24535,1591.19,0.290525,
2,1,0,1,0,18930.6,0.286728,0.286546,26.482,10,0.0185706,10,0.00758832,-1.57705,0.0459523,1.28394,1334.11,0.286546,
2,1,0,1,0,18930.6,0.282733,0.282522,21.6044,10,0.0186662,10,0.00610372,-1.66546,0.0428301,1.37754,1156.92,0.2825222,
2,1,0,1,0,18930.6,0.278738,0.278538,17.348,10,0.0187435,10,0.00483208,-1.76075,0.0386984,1.52461,1015.67,0.278538,
2,1,0,1,0,18930.6,0.274742,0.27451,13.5687,10,0.0188048,10,0.00372474,-1.86746,0.0334614,1.76323,899.095,0.27451,
2,1,0,1,0,18930.6,0.270747,0.270522,10.206,10,0.018852,10,0.00276094,-1.99115,0.027197,2.16936,801.974,0.270522,
2,1,0,1,0,18930.6,0.266702,0.266437,7.14215,10,0.0188862,10,0.00190293,-2.14617,0.0193671,3.0464,720.141,0.266437,
2,1,0,1,0,18930.6,0.262707,0.262444,4.4412,10,0.018909,10,0.00116557,-2.3525,0.00927385,6.36198,648.063,0.262444,
2,1,0,1,0,18930.6,0.258712,0.258465,2.01407,10,0.0189216,10,0.000520566,-2.69593,0.0312961,1.88522,583.272,0.258465,
2,1,0,1,0,18930.6,0.254717,0.25448,-0.190135,10,0.018925,10,-4.83854e-05,-3.72094,0.371674,0.158741,530.522,0.25448,
2,0,0,1,0,18930.6,0.250722,0.250423,-2.19851,10,0.01892,10,-0.000550557,-2.65787,-0.035457,-1.66399,481.373,0.250423,
2,0,0,1,0,18930.6,0.246726,0.24649,-4.02322,10,0.0189073,10,-0.000991681,-2.39543,-0.0101418,-5.81753,439.475,0.24649,
2,0,0,1,0,18930.6,0.242731,0.242421,-5.70905,10,0.0188876,10,-0.00138399,-2.24344,-0.026813,-2.20042,404.192,0.242421,
2,0,0,1,0,18930.6,0.238736,0.238453,-7.23359,10,0.0188616,10,-0.00172487,-2.14065,-0.0407768,-1.4469,369.681,0.238453,
2,0,0,1,0,18930.6,0.234741,0.234485,-8.64049,10,0.0188296,10,-0.00202606,-2.06346,-0.0544497,-1.08357,344.963,0.234485,
2,0,0,1,0,18930.6,0.230746,0.230448,-9.95358,10,0.0187923,10,-0.00229378,-2.00202,-0.0693397,-0.850883,317.305,0.230448,
2,0,0,1,0,18930.7,0.226701,0.226439,-11.222,10,0.0187499,10,-0.00254111,-1.94993,-0.0846477,-0.697006,294.742,0.226439,
2,0,0,1,0,18930.7,0.222705,0.222399,-12.3275,10,0.0187026,10,-0.00274162,-1.90913,-0.100791,-0.585369,274.555,0.222399,
2,0,0,1,0,18930.7,0.21871,0.218426,-13.3737,10,0.0186511,10,-0.00292116,-1.87375,-0.11965,-0.493105,253.006,0.218426,
2,0,0,1,0,18930.7,0.214715,0.214435,-14.3501,10,0.0185955,10,-0.00307715,-1.84315,-0.135895,-0.434159,239.872,0.214435,
2,0,0,1,0,18930.7,0.21072,0.210399,-15.2805,10,0.0185362,10,-0.00321499,-1.81586,-0.154079,-0.382922,225.76,0.210399,
2,0,0,1,0,18930.7,0.206725,0.206426,-16.1589,10,0.0184732,10,-0.00333563,-1.79159,-0.17272,-0.341593,213.32,0.206426,
2,0,0,1,0,18930.7,0.202729,0.202436,-16.9836,10,0.0184068,10,-0.00343809,-1.76997,-0.190559,-0.309616,203.642,0.202436,
2,0,0,1,0,18930.7,0.198734,0.19838,-17.7748,10,0.0183372,10,-0.00352617,-1.75019,-0.209673,-0.281391,193.983,0.19838,
2,0,0,1,0,18930.7,0.194739,0.194441,-18.5302,10,0.0182645,10,-0.00360302,-1.73212,-0.225405,-0.261751,188.451,0.194441,
2,0,0,1,0,18930.7,0.190744,0.190441,-19.2599,10,0.0181889,10,-0.00366786,-1.71535,-0.240887,-0.244928,183.557,0.190441,
2,0,0,1,0,18930.7,0.186735,0.186461,-19.9941,10,0.0181103,10,-0.00372812,-1.6991,-0.258383,-0.228343,177.527,0.186461,
2,0,0,1,0,18930.7,0.182704,0.182413,-20.7056,10,0.0180288,10,-0.00377698,-1.68391,-0.274069,-0.215274,173.254,0.182413,
2,0,0,1,0,18930.7,0.178709,0.178388,-21.3799,10,0.0179445,10,-0.00381393,-1.66999,-0.29007,-0.203399,169.275,0.178388,
2,0,0,1,0,18930.7,0.174713,0.174355,-22.0467,10,0.0178576,10,-0.00384396,-1.65666,-0.29949,-0.197002,169.38,0.174355,
2,0,0,1,0,18930.7,0.170718,0.1704,-22.7128,10,0.017768,10,-0.00387026,-1.64373,-0.307062,-0.192144,170.306,0.1704,
2,0,0,1,0,18930.7,0.166723,0.166439,-23.4113,10,0.0176757,10,-0.00389656,-1.63058,-0.310356,-0.190104,173.625,0.166439,
2,0,0,1,0,18930.7,0.162728,0.162436,-24.0966,10,0.0175806,10,-0.00391417,-1.61804,-0.311174,-0.189605,178.419,0.162436,
2,0,0,1,0,18930.7,0.158733,0.158427,-24.8123,10,0.0174827,10,-0.00393094,-1.60533,-0.310947,-0.189743,184.054,0.158427,
2,0,0,1,0,18930.7,0.154737,0.154403,-25.567,10,0.0173819,10,-0.00394762,-1.59232,-0.30203,-0.195345,195.366,0.154403,
2,0,0,1,0,18930.7,0.150742,0.150434,-26.3572,10,0.017278,10,-0.00396501,-1.5791,-0.288878,-0.204239,210.965,0.150434,
2,0,0,1,0,18930.7,0.146747,0.146454,-27.219,10,0.0171708,10,-0.00398633,-1.56513,-0.278885,-0.211557,225.666,0.146454,
2,0,0,1,0,18930.7,0.142702,0.142396,-28.1943,10,0.0170598,10,-0.00401475,-1.54984,-0.266951,-0.221014,243.776,0.142396,
2,0,0,1,0,18930.7,0.138707,0.138407,-29.1768,10,0.016945,10,-0.00403827,-1.53496,-0.255991,-0.230476,263.349,0.1384066,
2,0,0,1,0,18930.7,0.134712,0.134436,-30.257,10,0.0168261,10,-0.00406764,-1.51917,-0.246143,-0.239698,284.458,0.134436,
2,0,0,1,0,18930.7,0.130717,0.130432,-31.4383,10,0.0167026,10,-0.00410057,-1.50254,-0.234197,-0.251925,310.587,0.130432,
2,0,0,1,0,18930.8,0.126721,0.126434,-32.7349,10,0.0165741,10,-0.00413879,-1.48499,-0.224983,-0.262242,336.442,0.126434,
2,0,0,1,0,18930.8,0.122726,0.122451,-34.1325,10,0.0164403,10,-0.00417955,-1.46683,-0.21775,-0.270953,362.187,0.122451,
2,0,0,1,0,18930.8,0.118731,0.118447,-35.6366,10,0.0163006,10,-0.00422103,-1.4481,-0.213955,-0.275758,384.499,0.118447,
2,0,0,1,0,18930.8,0.114736,0.11445,-37.2269,10,0.0161548,10,-0.00426062,-1.42914,-0.212465,-0.277692,403.945,0.11445,
2,0,0,1,0,18930.8,0.110741,0.110407,-38.8973,10,0.0160024,10,-0.00429451,-1.41008,-0.211704,-0.278691,423.343,0.110407,
2,0,0,1,0,18930.8,0.106745,0.106439,-40.6006,10,0.0158432,10,-0.00432146,-1.39147,-0.215967,-0.27319,432.792,0.106439,
2,0,0,1,0,18930.8,0.102703,0.102458,-42.4054,10,0.0156771,10,-0.00434476,-1.37258,-0.222098,-0.265649,438.599,0.102458,
2,0,0,1,0,18930.8,0.0987052,0.0984399,-44.1559,10,0.0155038,10,-0.00434671,-1.35501,-0.230355,-0.256126,440.07,0.0984399,
2,0,0,1,0,18930.8,0.09471,0.0944241,-45.9072,10,0.0153235,10,-0.00433474,-1.33812,-0.243447,-0.242353,432.943,0.0944241,
2,0,0,1,0,18930.8,0.0907148,0.0904476,-47.6377,10,0.0151362,10,-0.00430871,-1.32205,-0.256656,-0.22988,425.926,0.09044759,
2,0,0,1,0,18930.8,0.0867197,0.0864944,-49.3166,10,0.0149422,10,-0.00426561,-1.30701,-0.273277,-0.215898,414.06,0.0864944,
2,0,0,1,0,18930.8,0.0827245,0.0824712,-50.9574,10,0.0147414,10,-0.00420252,-1.29279,-0.2949,-0.200068,396.073,0.0824712,
2,0,0,1,0,18930.8,0.0787293,0.0784417,-52.5249,10,0.0145343,10,-0.00412014,-1.27964,-0.314747,-0.187452,382.591,0.0784417,
2,0,0,1,0,18930.8,0.0747342,0.0745203,-53.9461,10,0.0143212,10,-0.00402008,-1.26804,-0.337789,-0.174665,366.937,0.07452029,
2,0,0,1,0,18930.8,0.070739,0.0706042,-55.396,10,0.0141023,10,-0.00391119,-1.25652,-0.361942,-0.16301,351.622,0.0706042,
2,0,0,1,0,18930.8,0.0667438,0.066528,-56.8076,10,0.0138777,10,-0.00377929,-1.24559,-0.384919,-0.153279,338.671,0.066528,
2,0,0,1,0,18930.8,0.0627403,0.0625525,-58.1118,10,0.0136478,10,-0.00363504,-1.23574,-0.425463,-0.138673,313.289,0.0625525,
2,0,0,1,0,18930.8,0.0587035,0.0585028,-59.3707,10,0.0134126,10,-0.00347336,-1.22643,-0.468722,-0.125874,290.327,0.0585028,
2,0,0,1,0,18930.8,0.0547083,0.0544585,-60.4543,10,0.0131728,10,-0.00329225,-1.21857,-0.521978,-0.113032,265.637,0.0544585,
2,0,0,1,0,18930.8,0.0507132,0.0505265,-61.4533,10,0.0129288,10,-0.00310502,-1.21146,-0.589901,-0.100017,239.135,0.05052647,
2,0,0,1,0,18930.8,0.046718,0.0465065,-62.3743,10,0.0126811,10,-0.00290081,-1.20499,-0.652555,-0.0904138,219.44,0.0465065,
2,0,0,1,0,18930.8,0.0427228,0.0424992,-63.1977,10,0.0124298,10,-0.00268585,-1.1993,-0.73771,-0.0799772,196.703,0.0424992,
2,0,0,1,0,18930.8,0.0387276,0.038494,-63.9576,10,0.0121754,10,-0.00246198,-1.19411,-0.842377,-0.0700399,174.293,0.038494,
2,0,0,1,0,18930.8,0.0347325,0.0344592,-64.6137,10,0.0119182,10,-0.00222654,-1.18968,-0.966944,-0.061017,153.411,0.0344592,
2,0,0,1,0,18930.8,0.0307373,0.0304487,-65.173,10,0.0116586,10,-0.00198444,-1.18593,-1.13886,-0.0518063,131.435,0.0304487,
2,0,0,1,0,18930.9,0.0267421,0.0264192,-65.6646,10,0.0113968,10,-0.00173481,-1.18267,-1.3051,-0.0452074,115.626,0.0264192,
2,0,0,1,0,18930.9,0.022747,0.0224246,-66.0696,10,0.0111333,10,-0.00148159,-1.18,-1.54965,-0.0380732,98.0034,0.0224246,
2,0,0,1,0,18930.9,0.0187018,0.0184205,-66.4682,10,0.0108681,10,-0.00122438,-1.17739,-1.86817,-0.0315818,81.7364,0.0184205,
2,0,0,1,0,18930.9,0.0147067,0.0143931,-66.7465,10,0.0106017,10,-0.000960691,-1.17557,-2.22711,-0.0264918,68.8779,0.0143931,
2,0,0,1,0,18930.9,0.0107115,0.0104378,-66.9709,10,0.0103342,10,-0.000699029,-1.17411,-2.88818,-0.0204281,53.3302,0.0104378,
2,0,0,1,0,18930.9,0.00671632,0.00639765,-67.1736,10,0.0100658,10,-0.000429753,-1.1728,-3.58786,-0.0164443,43.0574,0.00639765,
2,0,0,1,0,18930.9,0.00272115,0.00245188,-67.3198,10,0.00979685,10,-0.00016506,-1.17186,-4.83597,-0.0122002,32.0098,0.00245188,
2,0,0,1,0,18930.9,-0.00127403,-0.00165719,-67.4376,10,0.00952725,10,0.000111757,-1.1711,-8.03899,-0.00733923,19.2845,-0.00165719,
2,0,0,1,0,18930.9,-0.0052692,-0.00565811,-67.4861,10,0.00925739,10,0.000381844,-1.17079,-16.7844,-0.00351518,9.24555,-0.00565811,
2,0,0,1,0,18930.9,-0.00926438,-0.00960176,-67.4821,10,0.00898745,10,0.000647947,-1.17081,54.3888,0.00108478,-2.85405,-0.00960176,
2,0,0,1,0,18930.9,-0.0132596,-0.0136271,-67.4685,10,0.00871754,10,0.000919398,-1.1709,14.1253,0.0041769,-10.9867,-0.0136271,
2,0,0,1,0,18930.9,-0.0172547,-0.0176269,-67.392,10,0.00844782,10,0.00118791,-1.17139,7.57003,0.00779389,-20.4762,-0.0176269,
2,0,0,1,0,18930.9,-0.0212915,-0.02163,-67.3106,10,0.00817844,10,0.00145593,-1.17192,4.5516,0.0129625,-33.9935,-0.02163,
2,0,0,1,0,18930.9,-0.025295,-0.0256245,-67.154,10,0.00790951,10,0.00172079,-1.17293,3.38805,0.0174142,-45.5521,-0.0256245,
2,0,0,1,0,18930.9,-0.0292902,-0.0296382,-66.9242,10,0.00764138,10,0.00198351,-1.17442,2.60168,0.0226777,-59.1517,-0.0296382,
2,0,0,1,0,18930.9,-0.0332854,-0.0336741,-66.661,10,0.00737422,10,0.00224475,-1.17613,2.12194,0.0278048,-72.2413,-0.0336741,
2,0,0,1,0,18930.9,-0.0372805,-0.0376686,-66.3619,10,0.00710819,10,0.00249976,-1.17808,1.84611,0.0319591,-82.6459,-0.0376686,
2,0,0,1,0,18930.9,-0.0412757,-0.0416473,-65.9965,10,0.00684351,10,0.00274857,-1.18048,1.64763,0.035809,-92.1275,-0.0416473,
2,0,0,1,0,18930.9,-0.0452709,-0.0456143,-65.6039,10,0.00658034,10,0.00299247,-1.18307,1.49012,0.0395941,-101.289,-0.04561425,
2,0,0,1,0,18930.9,-0.0492661,-0.0496491,-65.1893,10,0.00631879,10,0.00323659,-1.18582,1.41524,0.041689,-105.99,-0.04964909,
2,0,0,1,0,18930.9,-0.0532612,-0.0536479,-64.7434,10,0.00605895,10,0.00347335,-1.1888,1.3486,0.0437491,-110.496,-0.0536479,
2,0,0,1,0,18930.9,-0.0572564,-0.0576509,-64.3003,10,0.00580089,10,0.00370697,-1.19179,1.35046,0.0436889,-109.645,-0.05765092,
2,0,0,1,0,18930.9,-0.0612544,-0.0616062,-63.8368,10,0.00554467,10,0.00393275,-1.19493,1.33884,0.0440679,-109.826,-0.0616062,
2,0,0,1,0,18930.9,-0.0652967,-0.0656856,-63.431,10,0.00529009,10,0.0041665,-1.1977,1.33,0.0443611,-109.794,-0.0656856,
2,0,0,1,0,18930.9,-0.0692919,-0.0696865,-62.9819,10,0.00503732,10,0.00438899,-1.20078,1.3763,0.0428686,-105.374,-0.0696865,
2,0,0,1,0,18931,-0.0732871,-0.073644,-62.5443,10,0.0047863,10,0.00460601,-1.20381,1.36718,0.0431545,-105.408,-0.07364399,
2,0,0,1,0,18931,-0.0772822,-0.0777191,-62.1389,10,0.00453697,10,0.00482938,-1.20664,1.43698,0.0410583,-99.6426,-0.0777191,
2,0,0,1,0,18931,-0.0812774,-0.0816267,-61.7507,10,0.00428922,10,0.0050405,-1.20936,1.56306,0.0377465,-91.0602,-0.0816267,
2,0,0,1,0,18931,-0.0852726,-0.0856276,-61.3935,10,0.00404296,10,0.00525698,-1.21188,1.68651,0.0349836,-83.9257,-0.0856276,
2,0,0,1,0,18931,-0.0892678,-0.0896169,-61.0898,10,0.00379803,10,0.00547468,-1.21403,1.89231,0.0311787,-74.4126,-0.0896169,
2,0,0,1,0,18931,-0.0932629,-0.0935902,-60.8069,10,0.00355428,10,0.00569094,-1.21605,2.16086,0.0273039,-64.8642,-0.09359023,
2,0,0,1,0,18931,-0.0972581,-0.0976155,-60.5609,10,0.00331158,10,0.00591169,-1.21781,2.59157,0.0227661,-53.8938,-0.09761554,
2,0,0,1,0,18931,-0.101253,-0.101666,-60.3532,10,0.00306978,10,0.00613588,-1.2193,3.07891,0.0191626,-45.2032,-0.101666,
2,0,0,1,0,18931,-0.105298,-0.105615,-60.2276,10,0.00282865,10,0.00636096,-1.2202,3.8115,0.0154795,-36.4092,-0.105615,
2,0,0,1,0,18931,-0.109294,-0.109635,-60.0817,10,0.00258806,10,0.00658707,-1.22126,4.79167,0.012313,-28.8909,-0.109635,
2,0,0,1,0,18931,-0.113289,-0.113652,-59.977,10,0.00234797,10,0.00681651,-1.22202,5.92567,0.00995668,-23.3303,-0.113652,
2,0,0,1,0,18931,-0.117284,-0.117654,-59.8913,10,0.00210823,10,0.00704645,-1.22264,8.78469,0.00671623,-15.7153,-0.117654,
2,0,0,1,0,18931,-0.121279,-0.121667,-59.8531,10,0.00186874,10,0.00728213,-1.22291,16.7891,0.00351419,-8.21674,-0.121667,
2,0,0,1,0,18931,-0.125274,-0.125622,-59.8304,10,0.00162939,10,0.00751601,-1.22308,-252.154,-0.000233984,0.546947,-0.125622,
2,0,0,1,0,18931,-0.129269,-0.129602,-59.846,10,0.00139003,10,0.00775614,-1.22297,-20.3387,-0.00290087,6.7822,-0.129602,
2,0,0,1,0,18931,-0.133265,-0.133609,-59.9,10,0.00115054,10,0.00800317,-1.22257,-9.93628,-0.00593783,13.8905,-0.133609,
2,0,0,1,0,18931,-0.13726,-0.137609,-59.9613,10,0.000910826,10,0.0082512,-1.22213,-6.01973,-0.00980111,22.9618,-0.1376088,
2,0,0,1,0,18931,-0.141255,-0.14161,-60.0525,10,0.000670759,10,0.00850402,-1.22147,-5.09401,-0.0115822,27.1742,-0.1416097,
2,0,0,1,0,18931,-0.145286,-0.145621,-60.2138,10,0.000430282,10,0.00876841,-1.2203,-4.12802,-0.0142926,33.5959,-0.145621,
2,0,0,1,0,18931,-0.149295,-0.149633,-60.3354,10,0.000189144,10,0.00902816,-1.21943,-3.69837,-0.015953,37.5759,-0.149633,
2,0,0,1,0,18931,-0.15329,-0.153629,-60.4995,10,-5.25512e-05,10,0.0092945,-1.21825,-3.63376,-0.0162366,38.3499,-0.153629,
2,0,0,1,0,18931,-0.157286,-0.157667,-60.6559,10,-0.000294856,10,0.00956346,-1.21713,-3.2425,-0.0181958,43.09,-0.157667,
2,0,0,1,0,18931,-0.161281,-0.161659,-60.8288,10,-0.000537856,10,0.00983352,-1.21589,-3.12028,-0.0189086,44.9096,-0.161659,
2,0,0,1,0,18931,-0.165276,-0.165623,-61.0244,10,-0.00078157,10,0.010107,-1.2145,-2.86422,-0.020599,49.0765,-0.165623,
2,0,0,1,0,18931,-0.169271,-0.169624,-61.2178,10,-0.00102606,10,0.010384,-1.21312,-2.70368,-0.0218221,52.1576,-0.169624,
2,0,0,1,0,18931.1,-0.173266,-0.173641,-61.4398,10,-0.00127141,10,0.0106685,-1.21155,-2.65352,-0.0222346,53.3224,-0.173641,
2,0,0,1,0,18931.1,-0.177261,-0.177584,-61.6595,10,-0.00151761,10,0.0109497,-1.21,-2.53374,-0.0232857,56.0381,-0.177584,
2,0,0,1,0,18931.1,-0.181257,-0.18159,-61.8759,10,-0.00176471,10,0.0112361,-1.20848,-2.3626,-0.0249725,60.348,-0.18159,
2,0,0,1,0,18931.1,-0.185252,-0.185582,-62.112,10,-0.00201269,10,0.0115269,-1.20682,-2.30433,-0.025604,62.1079,-0.185582,
2,0,0,1,0,18931.1,-0.189297,-0.18963,-62.4047,10,-0.00226182,10,0.0118338,-1.20478,-2.2328,-0.0264242,64.3398,-0.18963,
2,0,0,1,0,18931.1,-0.193292,-0.193583,-62.6532,10,-0.00251197,10,0.0121286,-1.20306,-2.25824,-0.0261265,63.8112,-0.193583,
2,0,0,1,0,18931.1,-0.197287,-0.197613,-62.9068,10,-0.00276311,10,0.0124312,-1.2013,-4.58115,-0.0128789,31.4522,-0.197613,
2,0,0,0,0,18931.1,-0.199984,-0.20036,-63.0551,10,-0.00293318,10,0.0126337,-1.20028,0.0669215,0.88163,-2026.94,-0.20036,
2,0,0,0,1,18931.1,-0.199984,-0.200551,-62.7482,10,-0.00297087,10,0.0125842,-1.2024,-0.0393011,-1.50123,3242.44,-0.200551,
2,0,0,1,1,18931.1,-0.196688,-0.197202,-55.3195,10,-0.003151,10,0.0109091,-1.25712,-0.0660923,-0.892691,1817.89,-0.197202,
2,0,0,1,1,18931.1,-0.192693,-0.193142,-48.4109,10,-0.00335737,10,0.0093502,-1.31506,-0.0692682,-0.851762,1630.52,-0.193142,
2,0,0,1,1,18931.1,-0.188698,-0.189127,-42.6331,10,-0.00353866,10,0.00806306,-1.37025,-0.0716123,-0.82388,1388.52,-0.189127,
2,0,0,1,1,18931.1,-0.184653,-0.185072,-37.5081,10,-0.00369829,10,0.00694169,-1.42587,-0.0712773,-0.827753,1220.39,-0.185072,
2,0,0,1,1,18931.1,-0.180657,-0.181105,-32.9685,10,-0.00383868,10,0.00597074,-1.4819,-0.0692995,-0.851377,1097.74,-0.181105,
2,0,0,1,1,18931.1,-0.176662,-0.177096,-28.8285,10,-0.00396177,10,0.00510541,-1.54018,-0.0659144,-0.8951,1004.07,-0.177096,
2,0,0,1,1,18931.1,-0.172667,-0.173067,-25.0035,10,-0.00406897,10,0.00432728,-1.602,-0.0617723,-0.955121,925.444,-0.173067,
2,0,0,1,1,18931.1,-0.168672,-0.169091,-21.4627,10,-0.00416149,10,0.00362916,-1.66832,-0.0565582,-1.04317,862.532,-0.169091,
2,0,0,1,1,18931.1,-0.164677,-0.165093,-18.1511,10,-0.00424034,10,0.00299664,-1.7411,-0.0505589,-1.16695,809.266,-0.165093,
2,0,0,1,1,18931.1,-0.160681,-0.1611,-15.0312,10,-0.00430634,10,0.00242153,-1.82301,-0.0440737,-1.33867,760.057,-0.1611,
2,0,0,1,1,18931.1,-0.156686,-0.157105,-12.0867,10,-0.00436026,10,0.00189888,-1.91769,-0.0366378,-1.61036,720.012,-0.157105,
2,0,0,1,1,18931.1,-0.152691,-0.153098,-9.30709,10,-0.00440273,10,0.0014249,-2.03119,-0.0283516,-2.08101,683.709,-0.153098,
2,0,0,1,1,18931.1,-0.148696,-0.149125,-6.65353,10,-0.00443434,10,0.000992206,-2.17695,-0.0187992,-3.13844,648.296,-0.149125,
2,0,0,1,1,18931.1,-0.14467,-0.14512,-4.1053,10,-0.00445562,10,0.00059576,-2.38666,-0.0133873,-4.40716,620.798,-0.14512,
2,0,0,1,1,18931.1,-0.140656,-0.141081,-1.69778,10,-0.00446691,10,0.000239523,-2.77012,-0.0424333,-1.39042,590.696,-0.141081,
2,1,0,1,1,18931.1,-0.136661,-0.137142,0.598333,10,-0.00446885,10,-8.20567e-05,-3.22306,0.207389,0.28449,562.354,-0.137142,
2,1,0,1,1,18931.1,-0.132665,-0.133132,2.79353,10,-0.00446182,10,-0.000371907,-2.55385,0.0260822,2.26208,541.531,-0.133132,
2,1,0,1,1,18931.2,-0.12867,-0.129098,4.90455,10,-0.00444618,10,-0.000633168,-2.3094,0.0136153,4.33337,518.951,-0.129098,
2,1,0,1,1,18931.2,-0.124675,-0.125147,6.93081,10,-0.00442228,10,-0.000867369,-2.15922,0.0271994,2.16916,500.565,-0.125147,
2,1,0,1,1,18931.2,-0.12068,-0.121197,8.87318,10,-0.00439045,10,-0.0010754,-2.05192,0.0386661,1.52588,486.089,-0.121197,
2,1,0,1,1,18931.2,-0.116685,-0.117184,10.7763,10,-0.00435095,10,-0.00126281,-1.96753,0.0502984,1.173,467.329,-0.1171843,
2,1,0,1,1,18931.2,-0.112689,-0.11323,12.6178,10,-0.00430397,10,-0.00142871,-1.89902,0.0618444,0.954007,451.673,-0.11323,
2,1,0,1,1,18931.2,-0.108694,-0.109195,14.3855,10,-0.00424976,10,-0.00157083,-1.84208,0.0735169,0.802537,438.505,-0.109195,
2,1,0,1,1,18931.2,-0.104699,-0.105189,16.1035,10,-0.0041886,10,-0.00169391,-1.79308,0.0861566,0.6848,421.556,-0.105189,
2,1,0,1,1,18931.2,-0.100654,-0.10114,17.8116,10,-0.00412052,10,-0.00180147,-1.7493,0.0981571,0.601078,409.84,-0.10114,
2,1,0,1,1,18931.2,-0.0966588,-0.0971034,19.4161,10,-0.00404587,10,-0.00188537,-1.71184,0.111359,0.529817,395.151,-0.0971034,
2,1,0,1,1,18931.2,-0.0926636,-0.0931311,20.9692,10,-0.00396493,10,-0.00195288,-1.67842,0.125361,0.47064,380.537,-0.0931311,
2,1,0,1,1,18931.2,-0.0886685,-0.0890761,22.4705,10,-0.00387787,10,-0.00200159,-1.64839,0.138356,0.426436,370.146,-0.0890761,
2,1,0,1,1,18931.2,-0.0846733,-0.0850773,23.9242,10,-0.00378493,10,-0.00203541,-1.62116,0.152797,0.386133,357.334,-0.0850773,
2,1,0,1,1,18931.2,-0.0806781,-0.0811326,25.3276,10,-0.00368629,10,-0.00205489,-1.59641,0.16682,0.353675,347.029,-0.0811326,
2,1,0,1,1,18931.2,-0.076683,-0.0771359,26.6848,10,-0.00358211,10,-0.00205836,-1.57374,0.181283,0.325458,336.858,-0.0771359,
2,1,0,1,1,18931.2,-0.0726878,-0.0730936,28.0169,10,-0.00347254,10,-0.00204786,-1.55258,0.197016,0.299469,325.509,-0.07309363,
2,1,0,1,1,18931.2,-0.0686926,-0.0691213,29.2991,10,-0.00335777,10,-0.00202519,-1.53315,0.210611,0.280138,318.928,-0.0691213,
2,1,0,1,1,18931.2,-0.0646974,-0.0651268,30.5376,10,-0.00323795,10,-0.00198882,-1.51516,0.227254,0.259621,308.251,-0.0651268,
2,1,0,1,1,18931.2,-0.0606523,-0.0610729,31.8078,10,-0.00311317,10,-0.00194259,-1.49747,0.244365,0.241442,298.08,-0.0610729,
2,1,0,1,1,18931.2,-0.0566571,-0.0570486,32.9628,10,-0.0029835,10,-0.00188048,-1.48198,0.262077,0.225125,288.179,-0.0570486,
2,1,0,1,1,18931.2,-0.052662,-0.0530488,34.09,10,-0.00284928,10,-0.00180843,-1.46737,0.284025,0.207728,275.339,-0.0530488,
2,1,0,1,1,18931.2,-0.0486668,-0.0490457,35.1719,10,-0.00271065,10,-0.00172503,-1.4538,0.301794,0.195498,267.46,-0.0490457,
2,1,0,1,1,18931.2,-0.0446716,-0.0450703,36.2139,10,-0.00256775,10,-0.00163217,-1.44112,0.320392,0.18415,259.548,-0.0450703,
2,1,0,1,1,18931.2,-0.0406764,-0.0410768,37.2346,10,-0.00242073,10,-0.00152948,-1.42905,0.341432,0.172802,250.446,-0.0410768,
2,1,0,1,1,18931.2,-0.0366813,-0.0371448,38.2178,10,-0.00226971,10,-0.00141959,-1.41773,0.363196,0.162447,241.614,-0.0371448,
2,1,0,1,1,18931.2,-0.0326861,-0.0330686,39.1733,10,-0.00211481,10,-0.0012954,-1.40701,0.387819,0.152133,231.895,-0.0330686,
2,1,0,1,1,18931.3,-0.0286909,-0.0290995,40.0727,10,-0.00195622,10,-0.00116609,-1.39715,0.411896,0.14324,223.539,-0.0290995,
2,1,0,1,1,18931.3,-0.0246957,-0.0251028,40.9389,10,-0.0017941,10,-0.00102768,-1.38786,0.435543,0.135463,216.113,-0.0251028,
2,1,0,1,1,18931.3,-0.0206756,-0.0210701,41.8112,10,-0.00162854,10,-0.000880964,-1.37871,0.463896,0.127184,207.032,-0.0210701,
2,1,0,1,1,18931.3,-0.0166554,-0.0170607,42.6328,10,-0.00145951,10,-0.000727344,-1.37026,0.494221,0.11938,198.052,-0.0170607,
2,1,0,1,1,18931.3,-0.0126603,-0.0130672,43.3919,10,-0.00128737,10,-0.000567009,-1.36259,0.531157,0.111078,187.676,-0.0130672,
2,1,0,1,1,18931.3,-0.0086651,-0.00904399,44.1194,10,-0.00111227,10,-0.000399016,-1.35537,0.571072,0.103314,177.449,-0.00904399,
2,1,0,1,1,18931.3,-0.00466992,-0.00509715,44.8089,10,-0.000934332,10,-0.000228398,-1.34864, , , ,-0.005097155,
2,1,0,1,1,18931.3,-0.000974387,-0.00137672,45.4159,10,-0.000767375,10,-6.25248e-05,-1.34279, , , ,-0.00137672,
2,1,0,0,1,18931.3,-0.000175352,-0.000573459,45.5493,10,-0.000731006,10,-2.61206e-05,-1.34152, , , ,-0.000573459,