File: Figure_codes/Fig_3-5/rawdata_trumpetplot_data/after 10th/20221101_1-115_003_TrumpetPlot_ParaChange_from10_every3_12_CV_C01_9.csv
mode,ox/red,error,control changes,counter inc.,time/s,control/V,Ewe/V,<I>/mA,cycle number,(Q-Qo)/C,I Range,P/W,log(|I|),Tafel slope mV/dec,alpha_eff,dI/d(E-IR),E-IR/V,
2,1,0,1,0,18927.7,2.44065e-05,-0.000229887,17.546,10,0.0000000E+000,10,-4.0336e-06,-1.75582, , , ,-0.000229887,
2,1,0,1,0,18927.7,0.00200257,0.00159507,18.5284,10,5.63267e-05,10,2.95542e-05,-1.73216, , , ,0.00159507,
2,1,0,1,0,18927.7,0.004408,0.00404567,19.4285,10,0.000132423,10,7.86015e-05,-1.71156, , , ,0.00404567,
2,1,0,1,0,18927.7,0.0068051,0.00650369,20.1314,10,0.000211633,10,0.000130928,-1.69613,0.157423,0.374786,291.01,0.00650369,
2,1,0,1,0,18927.7,0.00920221,0.00887476,20.7635,10,0.000293514,10,0.000184272,-1.6827,0.18779,0.314181,252.861,0.00887476,
2,1,0,1,0,18927.7,0.0115993,0.0112183,21.3289,10,0.000377766,10,0.000239273,-1.67103,0.209051,0.282228,233.825,0.0112183,
2,1,0,1,0,18927.7,0.0140075,0.0136773,21.864,10,0.000464216,10,0.000299042,-1.66027,0.233461,0.252719,214.743,0.0136773,
2,1,0,1,0,18927.7,0.0164046,0.016059,22.3656,10,0.000552739,10,0.00035917,-1.65042,0.257061,0.229517,199.545,0.016059,
2,1,0,1,0,18927.7,0.0188017,0.0184258,22.8146,10,0.000643165,10,0.000420378,-1.64179,0.279784,0.210877,187.214,0.0184258,
2,1,0,1,0,18927.7,0.0212099,0.0208627,23.2534,10,0.000735348,10,0.000485127,-1.63351,0.308132,0.191476,173.3,0.0208627,
2,1,0,1,0,18927.7,0.023607,0.0232475,23.6557,10,0.000829221,10,0.000549936,-1.62606,0.326146,0.180901,166.681,0.0232475,
2,1,0,1,0,18927.7,0.0260041,0.0257002,24.0365,10,0.000924638,10,0.000617743,-1.61913,0.346858,0.170099,159.384,0.0257002,
2,1,0,1,0,18927.7,0.0284012,0.0280702,24.4221,10,0.00102159,10,0.000685534,-1.61222,0.369736,0.159573,151.829,0.0280702,
2,1,0,1,0,18927.7,0.0308067,0.0304509,24.7816,10,0.00112006,10,0.00075462,-1.60587,0.383404,0.153885,148.568,0.0304509,
2,1,0,1,0,18927.8,0.0332038,0.0328834,25.1187,10,0.0012199,10,0.000825989,-1.6,0.404819,0.145744,142.751,0.0328834,
2,1,0,1,0,18927.8,0.0356009,0.0352375,25.4534,10,0.00132107,10,0.000896915,-1.59425,0.421822,0.139869,138.884,0.0352375,
2,1,0,1,0,18927.8,0.0380091,0.037615,25.7846,10,0.00142358,10,0.000969888,-1.58864,0.431151,0.136843,137.64,0.03761496,
2,1,0,1,0,18927.8,0.0404062,0.0400571,26.1157,10,0.00152742,10,0.00104612,-1.5831,0.447258,0.131915,134.331,0.0400571,
2,1,0,1,0,18927.8,0.0428033,0.0424663,26.4377,10,0.00163256,10,0.00112271,-1.57778,0.458519,0.128675,132.683,0.04246632,
2,1,0,1,0,18927.8,0.0452032,0.0448342,26.7425,10,0.00173894,10,0.00119898,-1.5728,0.471856,0.125038,130.474,0.0448342,
2,1,0,1,0,18927.8,0.0476058,0.0472922,27.0686,10,0.00184662,10,0.00128014,-1.56753,0.477093,0.123666,130.601,0.0472922,
2,1,0,1,0,18927.8,0.0500029,0.0496612,27.3688,10,0.00195553,10,0.00135917,-1.56274,0.467256,0.126269,134.962,0.0496612,
2,1,0,1,0,18927.8,0.0524,0.0520778,27.693,10,0.0020657,10,0.00144219,-1.55763,0.480377,0.12282,132.768,0.0520778,
2,1,0,1,0,18927.8,0.0548082,0.0544659,28.0424,10,0.00217719,10,0.00152736,-1.55218,0.481009,0.122659,134.078,0.0544659,
2,1,0,1,0,18927.8,0.0572053,0.0568571,28.3385,10,0.00228998,10,0.00161125,-1.54762,0.480139,0.122881,135.902,0.0568571,
2,1,0,1,0,18927.8,0.0596024,0.0592833,28.6589,10,0.00240401,10,0.001699,-1.54274,0.491674,0.119998,134.318,0.0592833,
2,1,0,1,0,18927.8,0.0620051,0.0616512,28.994,10,0.00251936,10,0.00178752,-1.53769,0.479345,0.123085,139.316,0.0616512,
2,1,0,1,0,18927.8,0.0644077,0.0640467,29.3293,10,0.00263604,10,0.00187844,-1.5327,0.480266,0.122849,140.603,0.0640467,
2,1,0,1,0,18927.8,0.0668048,0.0664601,29.6764,10,0.00275406,10,0.0019723,-1.52759,0.479734,0.122985,142.4,0.06646014,
2,1,0,1,0,18927.8,0.0692019,0.0688535,30.0045,10,0.00287347,10,0.00206592,-1.52281,0.487104,0.121124,141.835,0.0688535,
2,1,0,1,0,18927.8,0.0716074,0.0711959,30.3532,10,0.00299421,10,0.00216102,-1.5178,0.493468,0.119562,141.614,0.0711959,
2,1,0,1,0,18927.8,0.0740045,0.0736433,30.6904,10,0.00311633,10,0.00226015,-1.513,0.485878,0.12143,145.476,0.0736433,
2,1,0,1,0,18927.8,0.0764016,0.0760356,31.0324,10,0.00323984,10,0.00235957,-1.50818,0.489458,0.120541,146.081,0.0760356,
2,1,0,1,0,18927.8,0.0788042,0.0784533,31.4011,10,0.00336475,10,0.00246352,-1.50306,0.489818,0.120453,147.584,0.0784533,
2,1,0,1,0,18927.8,0.0812069,0.0808392,31.7619,10,0.00349113,10,0.00256761,-1.49809,0.487179,0.121105,150.042,0.0808392,
2,1,0,1,0,18927.8,0.083604,0.0832612,32.1099,10,0.0036189,10,0.00267351,-1.49336,0.486887,0.121178,151.922,0.0832612,
2,1,0,1,0,18927.8,0.0860011,0.0856174,32.4701,10,0.00374809,10,0.00278001,-1.48852,0.489282,0.120585,152.913,0.0856174,
2,1,0,1,0,18927.8,0.0884065,0.0880468,32.8585,10,0.00387881,10,0.00289309,-1.48335,0.481506,0.122532,157.117,0.0880468,
2,1,0,1,0,18927.8,0.0908036,0.0904741,33.2352,10,0.00401104,10,0.00300692,-1.4784,0.488587,0.120756,156.554,0.0904741,
2,1,0,1,0,18927.9,0.0932007,0.0928261,33.6127,10,0.00414479,10,0.00312013,-1.4735,0.492924,0.119694,156.969,0.0928261,
2,1,0,1,0,18927.9,0.0956034,0.0952618,33.98,10,0.00428001,10,0.00323699,-1.46878,0.498556,0.118342,156.925,0.0952618,
2,1,0,1,0,18927.9,0.098006,0.0976043,34.3588,10,0.00441673,10,0.00335356,-1.46396,0.510883,0.115486,154.825,0.0976043,
2,1,0,1,0,18927.9,0.100403,0.100003,34.7305,10,0.00455495,10,0.00347315,-1.45929,0.516199,0.114297,154.849,0.100003,
2,1,0,1,0,18927.9,0.1028,0.102441,35.1013,10,0.00469464,10,0.0035958,-1.45468,0.527716,0.111803,153.09,0.102441,
2,1,0,1,0,18927.9,0.105208,0.104815,35.4593,10,0.00483582,10,0.00371666,-1.45027,0.520841,0.113278,156.825,0.104815,
2,1,0,1,0,18927.9,0.107606,0.107169,35.823,10,0.00497839,10,0.00383913,-1.44584,0.513638,0.114867,160.794,0.107169,
2,1,0,1,0,18927.9,0.110003,0.109546,36.227,10,0.00512254,10,0.0039685,-1.44097,0.508424,0.116045,164.138,0.109546,
2,1,0,1,0,18927.9,0.112408,0.11205,36.6464,10,0.00526832,10,0.00410624,-1.43597,0.509226,0.115862,165.583,0.11205,
2,1,0,1,0,18927.9,0.114805,0.114429,37.0372,10,0.00541574,10,0.00423812,-1.43136,0.522689,0.112878,163.059,0.114429,
2,1,0,1,0,18927.9,0.117202,0.116857,37.4272,10,0.0055647,10,0.00437363,-1.42681,0.526711,0.112016,163.625,0.116857,
2,1,0,1,0,18927.9,0.119599,0.119276,37.8136,10,0.00571523,10,0.00451025,-1.42235,0.522376,0.112946,166.762,0.1192758,
2,1,0,1,0,18927.9,0.122008,0.121682,38.2224,10,0.00586735,10,0.00465097,-1.41768,0.518042,0.11389,169.964,0.121682,
2,1,0,1,0,18927.9,0.124405,0.124034,38.639,10,0.00602111,10,0.00479254,-1.41297,0.506302,0.116531,175.766,0.124034,
2,1,0,1,0,18927.9,0.126802,0.126478,39.0624,10,0.00617655,10,0.00494054,-1.40824,0.506742,0.11643,177.527,0.126478,
2,1,0,1,0,18927.9,0.129207,0.128841,39.4948,10,0.00633371,10,0.00508853,-1.40346,0.502442,0.117427,181.033,0.128841,
2,1,0,1,0,18927.9,0.131604,0.131292,39.9285,10,0.0064926,10,0.00524231,-1.39872,0.488429,0.120796,188.361,0.131292,
2,1,0,1,0,18927.9,0.134001,0.133648,40.3794,10,0.00665326,10,0.00539661,-1.39384,0.480661,0.122748,193.632,0.1336475,
2,1,0,1,0,18927.9,0.136399,0.136032,40.8621,10,0.0068158,10,0.00555856,-1.38868,0.47401,0.12447,198.532,0.136032,
2,1,0,1,0,18927.9,0.138807,0.138474,41.3602,10,0.0069803,10,0.00572733,-1.38342,0.470842,0.125307,202.187,0.138474,
2,1,0,1,0,18927.9,0.141204,0.14085,41.826,10,0.00714671,10,0.00589118,-1.37855,0.471631,0.125098,204.252,0.14085,
2,1,0,1,0,18927.9,0.143601,0.143264,42.3238,10,0.00731505,10,0.00606349,-1.37342,0.473,0.124736,206.126,0.143264,
2,1,0,1,0,18927.9,0.146009,0.145647,42.8259,10,0.0074854,10,0.00623747,-1.36829,0.469793,0.125587,209.898,0.145647,
2,1,0,1,0,18927.9,0.148406,0.148083,43.3407,10,0.00765777,10,0.00641802,-1.3631,0.475004,0.124209,210.005,0.148083,
2,1,0,1,0,18927.9,0.150803,0.150445,43.8401,10,0.00783218,10,0.00659554,-1.35813,0.485746,0.121463,207.715,0.150445,
2,1,0,1,0,18928,0.153206,0.152848,44.3365,10,0.00800859,10,0.00677675,-1.35324,0.494666,0.119272,206.301,0.152848,
2,1,0,1,0,18928,0.155606,0.155282,44.8272,10,0.00818697,10,0.00696085,-1.34846,0.510233,0.115634,202.197,0.1552819,
2,1,0,1,0,18928,0.158003,0.157644,45.3133,10,0.00836731,10,0.00714339,-1.34377,0.520156,0.113427,200.509,0.1576445,
2,1,0,1,0,18928,0.1604,0.16006,45.7842,10,0.00854957,10,0.00732822,-1.33928,0.53829,0.109606,195.729,0.16006,
2,1,0,1,0,18928,0.162808,0.16248,46.2677,10,0.00873372,10,0.00751758,-1.33472,0.569609,0.10358,186.788,0.16248,
2,1,0,1,0,18928,0.165205,0.164847,46.6993,10,0.00891969,10,0.00769823,-1.33069,0.591432,0.0997578,181.625,0.164847,
2,1,0,1,0,18928,0.167602,0.167278,47.1128,10,0.00910734,10,0.00788095,-1.32686,0.633374,0.0931518,171.171,0.167278,
2,1,0,1,0,18928,0.170008,0.169672,47.5298,10,0.00929667,10,0.00806447,-1.32303,0.670384,0.0880092,163.069,0.169672,
2,1,0,1,0,18928,0.172405,0.172075,47.91,10,0.0094876,10,0.00824409,-1.31957,0.722473,0.0816639,152.472,0.172075,
2,1,0,1,0,18928,0.174802,0.174434,48.2627,10,0.00968,10,0.00841865,-1.31639,0.811033,0.0727467,136.8,0.174434,
2,1,0,1,0,18928,0.177199,0.176872,48.5755,10,0.00987373,10,0.00859164,-1.31358,0.922218,0.0639762,121.061,0.176872,
2,1,0,1,0,18928,0.179607,0.179292,48.8459,10,0.0100686,10,0.00875765,-1.31117,1.10485,0.0534007,101.599,0.179292,
2,1,0,1,0,18928,0.182005,0.181636,49.0676,10,0.0102644,10,0.00891244,-1.30921,1.38723,0.0425307,81.2742,0.181636,
2,1,0,1,0,18928,0.184402,0.184066,49.2413,10,0.0104611,10,0.00906362,-1.30767,2.02608,0.0291203,55.8158,0.184066,
2,1,0,1,0,18928,0.18681,0.186484,49.3568,10,0.0106583,10,0.00920427,-1.30665,4.35776,0.0135391,25.9927,0.186484,
2,1,0,1,0,18928,0.189207,0.188888,49.3815,10,0.0108558,10,0.00932759,-1.30644,-23.3156,-0.0025305,-4.86063,0.1888883,
2,1,0,1,0,18928,0.191604,0.191264,49.3178,10,0.0110532,10,0.0094327,-1.307,-3.03202,-0.019459,-37.3465,0.191264,
2,1,0,1,0,18928,0.194001,0.193669,49.1946,10,0.0112503,10,0.00952745,-1.30808,-1.53738,-0.0383771,-73.4332,0.193669,
2,1,0,1,0,18928,0.196407,0.196082,48.9983,10,0.0114467,10,0.0096077,-1.30982,-1.02268,-0.0576914,-109.851,0.1960821,
2,1,0,1,0,18928,0.198804,0.198455,48.679,10,0.011642,10,0.0096606,-1.31266,-0.759958,-0.0776359,-146.904,0.1984553,
2,1,0,1,0,18928,0.201201,0.200844,48.2653,10,0.0118359,10,0.00969382,-1.31636,-0.586563,-0.100586,-188.774,0.200844,
2,1,0,1,0,18928,0.203609,0.203281,47.7825,10,0.012028,10,0.00971328,-1.32073,-0.497296,-0.118642,-220.427,0.203281,
2,1,0,1,0,18928,0.206006,0.205661,47.1901,10,0.0122179,10,0.00970516,-1.32615,-0.422935,-0.139501,-256.011,0.205661,
2,1,0,1,0,18928,0.208403,0.208116,46.5496,10,0.0124053,10,0.0096877,-1.33208,-0.367519,-0.160536,-290.541,0.208116,
2,1,0,1,0,18928,0.210803,0.210461,45.8033,10,0.0125899,10,0.00963983,-1.3391,-0.329893,-0.178846,-318.544,0.2104612,
2,1,0,1,0,18928.1,0.213206,0.212882,44.993,10,0.0127715,10,0.0095782,-1.34686,-0.296286,-0.199132,-348.58,0.212882,
2,1,0,1,0,18928.1,0.215603,0.215298,44.1203,10,0.0129497,10,0.00949901,-1.35536,-0.276677,-0.213245,-366.338,0.215298,
2,1,0,1,0,18928.1,0.218,0.217726,43.1996,10,0.0131242,10,0.00940567,-1.36452,-0.258417,-0.228313,-384.216,0.217726,
2,1,0,1,0,18928.1,0.220408,0.220075,42.2815,10,0.0132951,10,0.00930509,-1.37385,-0.2449,-0.240915,-396.659,0.220075,
2,1,0,1,0,18928.1,0.222805,0.222494,41.3001,10,0.0134622,10,0.00918901,-1.38405,-0.234962,-0.251104,-404.133,0.222494,
2,1,0,1,0,18928.1,0.225202,0.224895,40.3133,10,0.0136253,10,0.00906628,-1.39455,-0.227968,-0.258808,-406.949,0.224895,
2,1,0,1,0,18928.1,0.227605,0.22728,39.3384,10,0.0137845,10,0.00894084,-1.40518,-0.223411,-0.264087,-405.358,0.2272803,
2,1,0,1,0,18928.1,0.230008,0.229705,38.3623,10,0.0139398,10,0.00881204,-1.41609,-0.223697,-0.26375,-395.059,0.229705,
2,1,0,1,0,18928.1,0.232405,0.232055,37.4242,10,0.0140913,10,0.00868448,-1.42685,-0.222815,-0.264794,-386.953,0.232055,
2,1,0,1,0,18928.1,0.234802,0.234523,36.5099,10,0.0142391,10,0.00856241,-1.43759,-0.223152,-0.264394,-376.921,0.234523,
2,1,0,1,0,18928.1,0.237207,0.23691,35.6122,10,0.0143832,10,0.00843688,-1.4484,-0.22656,-0.260416,-362.291,0.23691,
2,1,0,1,0,18928.1,0.239604,0.239277,34.7547,10,0.0145238,10,0.008316,-1.45899,-0.229361,-0.257236,-349.471,0.239277,
2,1,0,1,0,18928.1,0.242002,0.241707,33.9274,10,0.0146611,10,0.0082005,-1.46945,-0.236105,-0.249888,-331.556,0.241707,
2,1,0,1,0,18928.1,0.244404,0.244093,33.1654,10,0.0147952,10,0.00809544,-1.47931,-0.241461,-0.244346,-316.737,0.244093,
2,1,0,1,0,18928.1,0.246807,0.2465,32.4325,10,0.0149263,10,0.00799461,-1.48902,-0.250336,-0.235683,-298.716,0.2465,
2,1,0,1,0,18928.1,0.249204,0.248855,31.7208,10,0.0150546,10,0.0078939,-1.49866,-0.258377,-0.228349,-283.292,0.248855,
2,1,0,1,0,18928.1,0.251601,0.251283,31.0671,10,0.0151801,10,0.00780662,-1.5077,-0.269034,-0.219303,-266.482,0.2512826,
2,1,0,1,0,18928.1,0.254006,0.253676,30.4506,10,0.0153031,10,0.00772459,-1.5164,-0.281632,-0.209493,-249.417,0.253676,
2,1,0,1,0,18928.1,0.256404,0.256101,29.874,10,0.0154236,10,0.00765076,-1.52471,-0.295727,-0.199508,-233.013,0.256101,
2,1,0,1,0,18928.1,0.258801,0.258467,29.3235,10,0.015542,10,0.00757916,-1.53278,-0.306629,-0.192415,-220.57,0.258467,
2,1,0,1,0,18928.1,0.261203,0.260951,28.8141,10,0.0156582,10,0.00751909,-1.54039,-0.316752,-0.186265,-209.788,0.260951,
2,1,0,1,0,18928.1,0.263606,0.263333,28.3206,10,0.0157724,10,0.00745774,-1.5479,-0.335724,-0.17574,-194.6,0.263333,
2,1,0,1,0,18928.1,0.266003,0.265664,27.8678,10,0.0158847,10,0.00740348,-1.5549,-0.350657,-0.168255,-183.383,0.265664,
2,1,0,1,0,18928.1,0.2684,0.268127,27.4436,10,0.0159953,10,0.00735839,-1.56156,-0.367262,-0.160648,-172.361,0.2681272,
2,1,0,1,0,18928.1,0.270808,0.270525,27.0585,10,0.0161043,10,0.00732,-1.5677,-0.384357,-0.153503,-162.252,0.270525,
2,1,0,1,0,18928.2,0.273205,0.272859,26.6787,10,0.0162117,10,0.00727952,-1.57384,-0.401435,-0.146973,-153.19,0.272859,
2,1,0,1,0,18928.2,0.275603,0.275237,26.3145,10,0.0163177,10,0.00724274,-1.5798,-0.419258,-0.140725,-144.767,0.2752372,
2,1,0,1,0,18928.2,0.278008,0.277653,25.9844,10,0.0164222,10,0.00721465,-1.58529,-0.442013,-0.13348,-135.548,0.277653,
2,1,0,1,0,18928.2,0.280405,0.280099,25.6725,10,0.0165255,10,0.00719084,-1.59053,-0.466357,-0.126512,-126.878,0.280099,
2,1,0,1,0,18928.2,0.282802,0.282491,25.373,10,0.0166276,10,0.00716766,-1.59563,-0.483204,-0.122102,-121.025,0.282491,
2,1,0,1,0,18928.2,0.285199,0.284888,25.0901,10,0.0167285,10,0.00714786,-1.6005,-0.496498,-0.118832,-116.465,0.284888,
2,1,0,1,0,18928.2,0.287608,0.287281,24.8191,10,0.0168283,10,0.00713007,-1.60521,-0.526811,-0.111995,-108.612,0.2872813,
2,1,0,1,0,18928.2,0.290005,0.289639,24.5615,10,0.016927,10,0.00711395,-1.60975,-0.551578,-0.106966,-102.672,0.289639,
2,1,0,1,0,18928.2,0.292402,0.292064,24.3333,10,0.0170248,10,0.00710689,-1.6138,-0.577501,-0.102164,-97.0835,0.292064,
2,1,0,1,0,18928.2,0.294807,0.294474,24.1059,10,0.0171216,10,0.00709855,-1.61788,-0.600894,-0.098187,-92.4301,0.294474,
2,1,0,1,0,18928.2,0.297204,0.296903,23.885,10,0.0172176,10,0.00709153,-1.62188,-0.592652,-0.0995525,-93.1606,0.296903,
2,1,0,1,0,18928.2,0.299421,0.299112,23.6859,10,0.0173056,10,0.00708472,-1.62551,-0.10553,-0.559083,-500.625,0.299112,
2,1,0,0,0,18928.2,0.300012,0.299651,23.6265,10,0.0173292,10,0.00707971,-1.6266,0.00208437,28.3059,22569.7,0.299651,
2,1,0,1,0,18928.2,0.299243,0.299039,21.8205,10,0.0173581,10,0.00652518,-1.66114,0.0209574,2.81524,2015.99,0.2990391,
2,1,0,1,0,18928.2,0.296846,0.296613,17.3269,10,0.0174355,10,0.00513938,-1.76128,0.0238245,2.47644,1597.52,0.296613,
2,1,0,1,0,18928.2,0.294449,0.294248,13.881,10,0.0174974,10,0.00408445,-1.85758,0.0238536,2.47342,1368.85,0.294248,
2,1,0,1,0,18928.2,0.292041,0.291759,11.0194,10,0.0175467,10,0.00321502,-1.95784,0.0225105,2.621,1127.04,0.2917594,
2,1,0,1,0,18928.2,0.289644,0.289362,8.57375,10,0.0175856,10,0.00248092,-2.06683,0.0203136,2.90446,954.8,0.289362,
2,1,0,1,0,18928.2,0.287247,0.286976,6.46562,10,0.0176154,10,0.00185548,-2.18939,0.0170461,3.46119,833.456,0.286976,
2,1,0,1,0,18928.2,0.284841,0.284556,4.62696,10,0.0176373,10,0.00131663,-2.3347,0.0129968,4.53957,730.88,0.284556,
2,1,0,1,0,18928.2,0.282444,0.282147,3.00776,10,0.0176524,10,0.000848631,-2.52176,0.00702812,8.39484,643.837,0.282147,
2,1,0,1,0,18928.2,0.280047,0.279779,1.5698,10,0.0176613,10,0.000439197,-2.80416,0.0133619,4.41555,574.391,0.279779,
2,1,0,1,0,18928.2,0.27765,0.277364,0.277349,10,0.0176648,10,7.69267e-05,-3.55697,0.048184,1.22447,511.55,0.277364,
2,0,0,1,0,18928.2,0.275242,0.274959,-0.885282,10,0.0176635,10,-0.000243417,-3.05292,-0.037206,-1.58577,459.451,0.274959,
2,0,0,1,0,18928.2,0.272845,0.27255,-1.90141,10,0.0176577,10,-0.000518231,-2.72092,-0.00852103,-6.92405,415.326,0.27255,
2,0,0,1,0,18928.2,0.270448,0.27017,-2.84525,10,0.0176481,10,-0.0007687,-2.54588,-0.0136228,-4.33096,374.731,0.27017,
2,0,0,1,0,18928.2,0.268039,0.267769,-3.70796,10,0.0176349,10,-0.000992875,-2.43087,-0.0220049,-2.68122,342.822,0.267769,
2,0,0,1,0,18928.3,0.265642,0.265366,-4.48028,10,0.0176184,10,-0.00118891,-2.3487,-0.030892,-1.90988,310.466,0.265366,
2,0,0,1,0,18928.3,0.263245,0.262948,-5.1932,10,0.017599,10,-0.00136554,-2.28457,-0.0399926,-1.47527,285.125,0.262948,
2,0,0,1,0,18928.3,0.260843,0.260519,-5.84149,10,0.0175769,10,-0.00152182,-2.23348,-0.0500598,-1.17859,259.816,0.260519,
2,0,0,1,0,18928.3,0.258443,0.258159,-6.44784,10,0.0175522,10,-0.00166457,-2.19059,-0.0598166,-0.986349,241.91,0.258159,
2,0,0,1,0,18928.3,0.256046,0.255651,-7.00423,10,0.0175252,10,-0.00179064,-2.15464,-0.0696567,-0.847011,227.129,0.2556515,
2,0,0,1,0,18928.3,0.253649,0.253336,-7.51856,10,0.0174961,10,-0.00190472,-2.12387,-0.0818221,-0.721076,208.4,0.2533356,
2,0,0,1,0,18928.3,0.25124,0.25095,-8.01492,10,0.017465,10,-0.00201134,-2.0961,-0.0927817,-0.635902,196.059,0.25095,
2,0,0,1,0,18928.3,0.248843,0.248535,-8.45353,10,0.017432,10,-0.002101,-2.07296,-0.105126,-0.56123,183.279,0.248535,
2,0,0,1,0,18928.3,0.246446,0.246139,-8.86932,10,0.0173973,10,-0.00218308,-2.05211,-0.119203,-0.494952,170.09,0.246139,
2,0,0,1,0,18928.3,0.244041,0.243733,-9.27861,10,0.017361,10,-0.0022615,-2.03252,-0.131971,-0.447067,160.581,0.243733,
2,0,0,1,0,18928.3,0.241644,0.241358,-9.6463,10,0.017323,10,-0.00232822,-2.01564,-0.144124,-0.409369,153.117,0.241358,
2,0,0,1,0,18928.3,0.239247,0.238925,-9.99679,10,0.0172837,10,-0.00238848,-2.00014,-0.159316,-0.370333,143.798,0.238925,
2,0,0,1,0,18928.3,0.236849,0.23656,-10.336,10,0.017243,10,-0.00244508,-1.98565,-0.174112,-0.338862,136.079,0.23656,
2,0,0,1,0,18928.3,0.234441,0.234184,-10.6517,10,0.017201,10,-0.00249446,-1.97258,-0.186634,-0.316127,130.943,0.234184,
2,0,0,1,0,18928.3,0.232044,0.231696,-10.9612,10,0.0171577,10,-0.00253965,-1.96014,-0.201996,-0.292085,124.55,0.231696,
2,0,0,1,0,18928.3,0.229647,0.229316,-11.2549,10,0.0171132,10,-0.00258094,-1.94866,-0.218467,-0.270064,118.182,0.229316,
2,0,0,1,0,18928.3,0.227239,0.226905,-11.5385,10,0.0170677,10,-0.00261814,-1.93785,-0.233928,-0.252214,113.136,0.226905,
2,0,0,1,0,18928.3,0.224842,0.224521,-11.7937,10,0.017021,10,-0.00264792,-1.92835,-0.250873,-0.235178,107.97,0.224521,
2,0,0,1,0,18928.3,0.222445,0.222128,-12.0436,10,0.0169732,10,-0.00267523,-1.91924,-0.261693,-0.225455,105.914,0.222128,
2,0,0,1,0,18928.3,0.220047,0.219754,-12.2874,10,0.0169246,10,-0.00270021,-1.91054,-0.277018,-0.212982,102.024,0.219754,
2,0,0,1,0,18928.3,0.217642,0.217352,-12.5503,10,0.0168748,10,-0.00272783,-1.90135,-0.292243,-0.201887,98.5822,0.217352,
2,0,0,1,0,18928.3,0.215245,0.214973,-12.7678,10,0.0168242,10,-0.00274473,-1.89388,-0.300334,-0.196448,97.75,0.214973,
2,0,0,1,0,18928.3,0.212848,0.212505,-12.9923,10,0.0167726,10,-0.00276093,-1.88631,-0.327549,-0.180126,91.2794,0.212505,
2,0,0,1,0,18928.3,0.21044,0.210175,-13.2237,10,0.0167202,10,-0.0027793,-1.87865,-0.329904,-0.17884,92.1887,0.210175,
2,0,0,1,0,18928.3,0.208043,0.207724,-13.4291,10,0.0166669,10,-0.00278955,-1.87195,-0.339803,-0.17363,90.9557,0.2077243,
2,0,0,1,0,18928.4,0.205645,0.205305,-13.659,10,0.0166127,10,-0.00280427,-1.86458,-0.360581,-0.163625,87.1047,0.205305,
2,0,0,1,0,18928.4,0.203246,0.202937,-13.8626,10,0.0165576,10,-0.00281323,-1.85816,-0.366939,-0.16079,86.871,0.202937,
2,0,0,1,0,18928.4,0.200843,0.200507,-14.0658,10,0.0165017,10,-0.0028203,-1.85183,-0.386241,-0.152754,83.783,0.200507,
2,0,0,1,0,18928.4,0.198446,0.198081,-14.2668,10,0.016445,10,-0.00282599,-1.84567,-0.383714,-0.15376,85.6344,0.198081,
2,0,0,1,0,18928.4,0.196049,0.195788,-14.4564,10,0.0163876,10,-0.00283039,-1.83994,-0.393433,-0.149962,84.677,0.195788,
2,0,0,1,0,18928.4,0.19364,0.193317,-14.6864,10,0.0163293,10,-0.00283912,-1.83308,-0.400911,-0.147165,84.2246,0.193317,
2,0,0,1,0,18928.4,0.191243,0.190909,-14.8785,10,0.0162701,10,-0.00284046,-1.82744,-0.41028,-0.143804,83.3713,0.190909,
2,0,0,1,0,18928.4,0.188846,0.188548,-15.0697,10,0.0162102,10,-0.00284137,-1.82189,-0.428562,-0.13767,80.9814,0.188548,
2,0,0,1,0,18928.4,0.186444,0.186132,-15.2614,10,0.0161495,10,-0.00284065,-1.8164,-0.420885,-0.140181,83.5658,0.1861323,
2,0,0,1,0,18928.4,0.184041,0.1837,-15.4652,10,0.0160881,10,-0.00284095,-1.81064,-0.423796,-0.139218,84.0576,0.1837,
2,0,0,1,0,18928.4,0.181644,0.181341,-15.6781,10,0.0160258,10,-0.00284309,-1.80471,-0.41872,-0.140906,86.1813,0.181341,
2,0,0,1,0,18928.4,0.179247,0.178917,-15.8793,10,0.0159626,10,-0.00284108,-1.79917,-0.420956,-0.140157,86.8529,0.1789173,
2,0,0,1,0,18928.4,0.176841,0.176523,-16.0896,10,0.0158987,10,-0.00284018,-1.79346,-0.422071,-0.139787,87.8125,0.1765229,
2,0,0,1,0,18928.4,0.174444,0.174102,-16.2988,10,0.0158339,10,-0.00283765,-1.78785,-0.411963,-0.143217,91.1789,0.174102,
2,0,0,1,0,18928.4,0.172047,0.171733,-16.5218,10,0.0157682,10,-0.00283735,-1.78194,-0.397972,-0.148252,95.7229,0.171733,
2,0,0,1,0,18928.4,0.169644,0.169315,-16.7548,10,0.0157016,10,-0.00283684,-1.77586,-0.394821,-0.149435,97.7667,0.169315,
2,0,0,1,0,18928.4,0.167242,0.16693,-17.0078,10,0.0156341,10,-0.00283912,-1.76935,-0.383819,-0.153718,102.025,0.16693,
2,0,0,1,0,18928.4,0.164845,0.164497,-17.2378,10,0.0155655,10,-0.00283557,-1.76352,-0.372952,-0.158197,106.582,0.164497,
2,0,0,1,0,18928.4,0.162448,0.162137,-17.5008,10,0.0154961,10,-0.00283754,-1.75694,-0.362723,-0.162658,111.321,0.162137,
2,0,0,1,0,18928.4,0.160042,0.159679,-17.7818,10,0.0154255,10,-0.00283939,-1.75002,-0.341343,-0.172847,120.123,0.159679,
2,0,0,1,0,18928.4,0.157645,0.157339,-18.0755,10,0.0153537,10,-0.00284399,-1.74291,-0.327412,-0.180201,127.332,0.157339,
2,0,0,1,0,18928.4,0.155248,0.154911,-18.3893,10,0.0152808,10,-0.00284871,-1.73543,-0.314226,-0.187763,134.974,0.154911,
2,0,0,1,0,18928.4,0.152845,0.152527,-18.7246,10,0.0152065,10,-0.002856,-1.72759,-0.30069,-0.196216,143.649,0.152527,
2,0,0,1,0,18928.4,0.150443,0.150119,-19.0722,10,0.0151309,10,-0.0028631,-1.7196,-0.284189,-0.207608,154.92,0.1501188,
2,0,0,1,0,18928.4,0.148046,0.147707,-19.4591,10,0.0150538,10,-0.00287425,-1.71088,-0.266743,-0.221187,168.501,0.1477074,
2,0,0,1,0,18928.5,0.145648,0.145348,-19.8708,10,0.0149751,10,-0.00288818,-1.70178,-0.252493,-0.233669,181.758,0.145348,
2,0,0,1,0,18928.5,0.14324,0.142954,-20.3377,10,0.0148946,10,-0.00290735,-1.6917,-0.241037,-0.244776,194.658,0.142954,
2,0,0,1,0,18928.5,0.140843,0.140531,-20.815,10,0.0148123,10,-0.00292514,-1.68162,-0.228802,-0.257865,210.01,0.140531,
2,0,0,1,0,18928.5,0.138446,0.138131,-21.3232,10,0.014728,10,-0.0029454,-1.67115,-0.218555,-0.269955,225.523,0.138131,
2,0,0,1,0,18928.5,0.136041,0.135694,-21.8982,10,0.0146415,10,-0.00297146,-1.65959,-0.207521,-0.284309,243.709,0.135694,
2,0,0,1,0,18928.5,0.133644,0.133317,-22.511,10,0.0145526,10,-0.0030011,-1.6476,-0.197556,-0.29865,262.976,0.133317,
2,0,0,1,0,18928.5,0.131246,0.130928,-23.1553,10,0.0144612,10,-0.00303167,-1.63535,-0.189758,-0.310923,281.729,0.130928,
2,0,0,1,0,18928.5,0.128849,0.128526,-23.8492,10,0.0143672,10,-0.00306523,-1.62253,-0.183812,-0.320981,299.586,0.128526,
2,0,0,1,0,18928.5,0.126441,0.126144,-24.5887,10,0.0142702,10,-0.00310172,-1.60926,-0.177972,-0.331514,318.943,0.126144,
2,0,0,1,0,18928.5,0.124044,0.12375,-25.3772,10,0.0141702,10,-0.00314042,-1.59556,-0.175159,-0.336836,334.171,0.12375,
2,0,0,1,0,18928.5,0.121647,0.121346,-26.2114,10,0.014067,10,-0.00318064,-1.58151,-0.173353,-0.340345,348.357,0.121346,
2,0,0,1,0,18928.5,0.119241,0.118918,-27.0597,10,0.0139603,10,-0.00321789,-1.56768,-0.174278,-0.33854,357.514,0.118918,
2,0,0,1,0,18928.5,0.116844,0.116537,-27.9355,10,0.0138503,10,-0.00325551,-1.55384,-0.177101,-0.333142,362.975,0.116537,
2,0,0,1,0,18928.5,0.114447,0.114135,-28.8146,10,0.0137367,10,-0.00328875,-1.54039,-0.17827,-0.330958,372.019,0.114135,
2,0,0,1,0,18928.5,0.11205,0.111743,-29.697,10,0.0136196,10,-0.00331843,-1.52729,-0.182317,-0.323612,374.962,0.111743,
2,0,0,1,0,18928.5,0.109642,0.109353,-30.6184,10,0.0134988,10,-0.00334819,-1.51402,-0.187031,-0.315456,376.457,0.109353,
2,0,0,1,0,18928.5,0.107245,0.106991,-31.5148,10,0.0133745,10,-0.0033718,-1.50149,-0.193114,-0.305519,375.106,0.106991,
2,0,0,1,0,18928.5,0.104848,0.104578,-32.4125,10,0.0132465,10,-0.00338962,-1.48929,-0.206186,-0.286149,360.9,0.1045775,
2,0,0,1,0,18928.5,0.10244,0.102163,-33.2904,10,0.013115,10,-0.00340105,-1.47768,-0.212328,-0.277872,360.106,0.102163,
2,0,0,1,0,18928.5,0.100042,0.0997686,-34.0772,10,0.0129802,10,-0.00339983,-1.46754,-0.219555,-0.268726,357.545,0.0997686,
2,0,0,1,0,18928.5,0.0976454,0.0974304,-34.9577,10,0.012842,10,-0.00340594,-1.45646,-0.229516,-0.257062,350.464,0.0974304,
2,0,0,1,0,18928.5,0.0952427,0.0950211,-35.8294,10,0.0127003,10,-0.00340455,-1.44576,-0.236813,-0.249142,347.293,0.0950211,
2,0,0,1,0,18928.5,0.0928428,0.0926352,-36.6296,10,0.0125553,10,-0.00339319,-1.43617,-0.253392,-0.23284,331.982,0.0926352,
2,0,0,1,0,18928.5,0.0904457,0.0901708,-37.4104,10,0.0124072,10,-0.00337333,-1.42701,-0.268309,-0.219895,320.545,0.0901708,
2,0,0,1,0,18928.5,0.0880486,0.0877955,-38.1563,10,0.0122559,10,-0.00334995,-1.41843,-0.283786,-0.207903,309.141,0.0877955,
2,0,0,1,0,18928.6,0.0856404,0.0853905,-38.9164,10,0.0121017,10,-0.00332309,-1.40987,-0.300338,-0.196445,297.601,0.0853905,
2,0,0,1,0,18928.6,0.0832433,0.0829919,-39.6107,10,0.0119446,10,-0.00328737,-1.40219,-0.320621,-0.184018,283.715,0.0829919,
2,0,0,1,0,18928.6,0.0808462,0.0805964,-40.2598,10,0.0117848,10,-0.00324479,-1.39513,-0.347411,-0.169828,266.31,0.0805964,
2,0,0,1,0,18928.6,0.0784408,0.0781723,-40.8865,10,0.0116224,10,-0.00319619,-1.38842,-0.370657,-0.159177,253.531,0.0781723,
2,0,0,1,0,18928.6,0.0760437,0.075796,-41.4715,10,0.0114576,10,-0.00314337,-1.38225,-0.39703,-0.148603,240.115,0.075796,
2,0,0,1,0,18928.6,0.0736466,0.0734206,-42.0373,10,0.0112906,10,-0.00308641,-1.37636,-0.426331,-0.13839,226.662,0.0734206,
2,0,0,1,0,18928.6,0.0712495,0.0709891,-42.5666,10,0.0111213,10,-0.00302177,-1.37093,-0.464685,-0.126968,210.481,0.0709891,
2,0,0,1,0,18928.6,0.0688413,0.0685534,-43.0667,10,0.0109499,10,-0.00295237,-1.36586,-0.511434,-0.115362,193.422,0.0685534,
2,0,0,1,0,18928.6,0.0664442,0.0661643,-43.4988,10,0.0107768,10,-0.00287807,-1.36152,-0.563665,-0.104672,177.359,0.0661643,
2,0,0,1,0,18928.6,0.0640471,0.0637943,-43.8993,10,0.0106019,10,-0.00280052,-1.35754,-0.63901,-0.0923303,157.899,0.0637943,
2,0,0,1,0,18928.6,0.0616389,0.0613394,-44.2781,10,0.0104255,10,-0.00271599,-1.35381,-0.728339,-0.0810063,139.629,0.0613394,
2,0,0,1,0,18928.6,0.0592417,0.0589567,-44.5821,10,0.0102477,10,-0.00262841,-1.35084,-0.859736,-0.0686257,119.104,0.0589567,
2,0,0,1,0,18928.6,0.0568446,0.0565506,-44.8412,10,0.0100689,10,-0.0025358,-1.34832,-1.02418,-0.0576073,100.629,0.0565506,
2,0,0,1,0,18928.6,0.0544475,0.0541509,-45.0478,10,0.00988906,10,-0.00243938,-1.34633,-1.23531,-0.0477614,83.8482,0.0541509,
2,0,0,1,0,18928.6,0.0520421,0.0517417,-45.2439,10,0.00970843,10,-0.002341,-1.34444,-1.51323,-0.0389895,68.7353,0.0517417,
2,0,0,1,0,18928.6,0.049645,0.0493526,-45.3873,10,0.00952713,10,-0.00223998,-1.34307,-1.8453,-0.0319731,56.5512,0.0493526,
2,0,0,1,0,18928.6,0.0472479,0.046902,-45.5044,10,0.00934532,10,-0.00213425,-1.34195,-2.5859,-0.0228161,40.4598,0.046902,
2,0,0,1,0,18928.6,0.0448397,0.0444959,-45.5938,10,0.00916311,10,-0.00202874,-1.34109,-3.67718,-0.0160449,28.5071,0.0444959,
2,0,0,1,0,18928.6,0.0424426,0.0421323,-45.6327,10,0.00898067,10,-0.00192261,-1.34072,-6.00834,-0.00981969,17.4707,0.0421323,
2,0,0,1,0,18928.6,0.0400455,0.0396658,-45.6635,10,0.00879808,10,-0.00181128,-1.34043,-14.1957,-0.00415618,7.40117,0.0396658,
2,0,0,1,0,18928.6,0.0376456,0.0373435,-45.6714,10,0.00861541,10,-0.00170553,-1.34036,-258.209,-0.000228497,0.406948,0.0373435,
2,0,0,1,0,18928.6,0.035243,0.034948,-45.6645,10,0.00843272,10,-0.00159588,-1.34042,10.2925,0.00573236,-10.2048,0.034948,
2,0,0,1,0,18928.6,0.0328459,0.0325027,-45.6366,10,0.00825011,10,-0.00148332,-1.34069,7.27845,0.00810612,-14.4264,0.0325027,
2,0,0,1,0,18928.6,0.0304488,0.0301296,-45.5662,10,0.0080677,10,-0.00137289,-1.34136,5.23634,0.0112674,-20.0377,0.03012955,
2,0,0,1,0,18928.6,0.0280406,0.027698,-45.5322,10,0.00788552,10,-0.00126115,-1.34168,4.05064,0.0145656,-25.8717,0.027698,
2,0,0,1,0,18928.7,0.0256435,0.025327,-45.4717,10,0.00770351,10,-0.00115166,-1.34226,4.0058,0.0147287,-26.1198,0.025327,
2,0,0,1,0,18928.7,0.0232463,0.0229273,-45.3889,10,0.00752179,10,-0.00104064,-1.34305,3.16968,0.0186139,-32.9615,0.0229273,
2,0,0,1,0,18928.7,0.0208437,0.0205138,-45.315,10,0.0073404,10,-0.000929582,-1.34376,2.65844,0.0221935,-39.2215,0.0205138,
2,0,0,1,0,18928.7,0.018441,0.0181014,-45.2159,10,0.00715935,10,-0.000818469,-1.34471,2.61028,0.022603,-39.8693,0.0181014,
2,0,0,1,0,18928.7,0.0160439,0.0157133,-45.0947,10,0.00697875,10,-0.000708587,-1.34587,2.33371,0.0252817,-44.4994,0.0157133,
2,0,0,1,0,18928.7,0.0136468,0.0133147,-45.0056,10,0.00679855,10,-0.000599236,-1.34673,2.17856,0.0270821,-47.5485,0.0133147,
2,0,0,1,0,18928.7,0.0112414,0.0109033,-44.8873,10,0.00661877,10,-0.000489421,-1.34788,2.06723,0.0285407,-49.9614,0.01090332,
2,0,0,1,0,18928.7,0.00884431,0.00850892,-44.7598,10,0.00643947,10,-0.000380858,-1.34911,1.81153,0.0325692,-56.8575,0.00850892,
2,0,0,1,0,18928.7,0.0064472,0.00612089,-44.6154,10,0.00626074,10,-0.000273086,-1.35052,1.89366,0.0311565,-54.2624,0.00612089,
2,0,0,1,0,18928.7,0.00404455,0.00370316,-44.4592,10,0.00608263,10,-0.000164639,-1.35204,1.68501,0.0350146,-60.7638,0.00370316,
2,0,0,1,0,18928.7,0.0016419,0.00128331,-44.3653,10,0.00590505,10,-5.69346e-05,-1.35296,1.53702,0.0383859,-66.3557,0.00128331,
2,0,0,1,0,18928.7,-0.000755207,-0.00112381,-44.1745,10,0.00572799,10,4.96437e-05,-1.35483,1.41917,0.0415737,-71.5746,-0.00112381,
2,0,0,1,0,18928.7,-0.00315231,-0.00355108,-43.9736,10,0.00555171,10,0.000156154,-1.35681,1.17516,0.0502061,-86.1129,-0.00355108,
2,0,0,1,0,18928.7,-0.00555774,-0.00591579,-43.7707,10,0.00537623,10,0.000258938,-1.35882,1.10794,0.0532521,-90.8934,-0.00591579,
2,0,0,1,0,18928.7,-0.00795485,-0.00835791,-43.5351,10,0.00520163,10,0.000363862,-1.36116,1.04415,0.0565051,-95.9541,-0.00835791,
2,0,0,1,0,18928.7,-0.010352,-0.0107544,-43.2991,10,0.00502799,10,0.000465657,-1.36352,0.957805,0.0615992,-104.017,-0.0107544,
2,0,0,1,0,18928.7,-0.0127546,-0.0131319,-43.0543,10,0.00485531,10,0.000565383,-1.36598,0.890272,0.0662719,-111.221,-0.0131319,
2,0,0,1,0,18928.7,-0.0151573,-0.0155475,-42.7688,10,0.00468367,10,0.000664947,-1.36887,0.832429,0.0708769,-118.201,-0.0155475,
2,0,0,1,0,18928.7,-0.0175544,-0.0178963,-42.4742,10,0.00451321,10,0.00076013,-1.37187,0.793675,0.0743377,-123.186,-0.0178963,
2,0,0,1,0,18928.7,-0.0199515,-0.0203119,-42.1694,10,0.00434396,10,0.00085654,-1.375,0.762316,0.0773957,-127.335,-0.0203119,
2,0,0,1,0,18928.7,-0.0223597,-0.0227254,-41.8725,10,0.0041759,10,0.000951568,-1.37807,0.729717,0.0808533,-132.016,-0.0227254,
2,0,0,1,0,18928.7,-0.0247568,-0.0251145,-41.5506,10,0.00400908,10,0.00104352,-1.38142,0.716118,0.0823886,-133.517,-0.0251145,
2,0,0,1,0,18928.7,-0.0271539,-0.0274961,-41.2069,10,0.00384358,10,0.00113303,-1.38503,0.691845,0.0852793,-137.156,-0.0274961,
2,0,0,1,0,18928.7,-0.0295593,-0.0299202,-40.8865,10,0.00367943,10,0.00122333,-1.38842,0.683642,0.0863025,-137.716,-0.0299202,
2,0,0,1,0,18928.7,-0.0319564,-0.0323295,-40.5553,10,0.00351658,10,0.00131113,-1.39195,0.699149,0.0843883,-133.578,-0.0323295,
2,0,0,1,0,18928.8,-0.0343535,-0.0346846,-40.2327,10,0.00335504,10,0.00139545,-1.39542,0.703465,0.0838706,-131.744,-0.0346846,
2,0,0,1,0,18928.8,-0.0367506,-0.0371437,-39.9182,10,0.00319477,10,0.00148271,-1.39883,0.710062,0.0830914,-129.485,-0.0371437,
2,0,0,1,0,18928.8,-0.0391588,-0.0395466,-39.6183,10,0.00303569,10,0.00156677,-1.4021,0.727425,0.0811081,-125.428,-0.0395466,
2,0,0,1,0,18928.8,-0.0415559,-0.0419346,-39.3115,10,0.00287788,10,0.00164851,-1.40548,0.749759,0.0786919,-120.812,-0.0419346,
2,0,0,1,0,18928.8,-0.043953,-0.0443269,-39.0232,10,0.00272124,10,0.00172978,-1.40868,0.789311,0.0747487,-113.971,-0.0443269,
2,0,0,1,0,18928.8,-0.0463585,-0.0466937,-38.7644,10,0.00256568,10,0.00181006,-1.41157,0.837871,0.0704166,-106.621,-0.0466937,
2,0,0,1,0,18928.8,-0.0487556,-0.0491496,-38.5238,10,0.00241111,10,0.00189343,-1.41427,0.885829,0.0666043,-100.18,-0.04914964,
2,0,0,1,0,18928.8,-0.0511527,-0.0515356,-38.2879,10,0.0022575,10,0.00197319,-1.41694,0.96407,0.0611989,-91.5262,-0.0515356,
2,0,0,1,0,18928.8,-0.0535498,-0.0539278,-38.0614,10,0.00210483,10,0.00205257,-1.41952,1.02529,0.0575449,-85.5964,-0.0539278,
2,0,0,1,0,18928.8,-0.055958,-0.0563434,-37.8812,10,0.00195296,10,0.00213436,-1.42158,1.12154,0.0526061,-77.8403,-0.0563434,
2,0,0,1,0,18928.8,-0.0583551,-0.0586901,-37.7072,10,0.00180182,10,0.00221304,-1.42358,1.28588,0.0458829,-67.5742,-0.0586901,
2,0,0,1,0,18928.8,-0.0607522,-0.0610983,-37.5435,10,0.00165136,10,0.00229384,-1.42547,1.36699,0.0431605,-63.2948,-0.0610983,
2,0,0,1,0,18928.8,-0.0631604,-0.0635044,-37.4143,10,0.00150145,10,0.00237597,-1.42696,1.54701,0.038138,-55.7226,-0.0635044,
2,0,0,1,0,18928.8,-0.0655575,-0.0659422,-37.2737,10,0.00135209,10,0.00245791,-1.4286,1.84376,0.0319998,-46.6057,-0.06594225,
2,0,0,1,0,18928.8,-0.0679546,-0.0683409,-37.1695,10,0.00120322,10,0.00254019,-1.42981,2.08056,0.0283577,-41.1869,-0.06834089,
2,0,0,1,0,18928.8,-0.0703573,-0.0707226,-37.095,10,0.00105471,10,0.00262345,-1.43069,2.68724,0.0219556,-31.8074,-0.0707226,
2,0,0,1,0,18928.8,-0.0727571,-0.0731371,-37.0175,10,0.000906484,10,0.00270736,-1.43159,3.25029,0.0181522,-26.2427,-0.0731371,
2,0,0,1,0,18928.8,-0.0751542,-0.0755294,-36.9687,10,0.000758508,10,0.00279223,-1.43217,4.25417,0.0138687,-20.0256,-0.0755294,
2,0,0,1,0,18928.8,-0.0775513,-0.0779142,-36.9182,10,0.000610754,10,0.00287645,-1.43276,6.62726,0.00890262,-12.8401,-0.0779142,
2,0,0,1,0,18928.8,-0.0799596,-0.0803426,-36.9023,10,0.000463132,10,0.00296483,-1.43295,10.3525,0.00569908,-8.21372,-0.0803426,
2,0,0,1,0,18928.8,-0.0823567,-0.0826946,-36.8948,10,0.000315552,10,0.003051,-1.43303,510.951,0.000115471,-0.166367,-0.08269456,
2,0,0,1,0,18928.8,-0.0847538,-0.0851314,-36.8899,10,0.000167977,10,0.00314049,-1.43309,-20.3916,-0.00289335,4.16921,-0.0851314,
2,0,0,1,0,18928.8,-0.0871592,-0.0874844,-36.9166,10,2.03675e-05,10,0.00322963,-1.43278,-10.676,-0.0055264,7.96567,-0.0874844,
2,0,0,1,0,18928.8,-0.0895563,-0.0899202,-36.9422,10,-0.000127356,10,0.00332185,-1.43248,-5.53271,-0.0106639,15.3833,-0.0899202,
2,0,0,1,0,18928.8,-0.0919534,-0.0923114,-36.9714,10,-0.000275174,10,0.00341288,-1.43213,-4.11278,-0.0143455,20.724,-0.0923114,
2,0,0,1,0,18928.9,-0.0943505,-0.0946984,-37.0371,10,-0.000423203,10,0.00350735,-1.43136,-3.41231,-0.0172903,25.009,-0.0946984,
2,0,0,1,0,18928.9,-0.0967587,-0.0971214,-37.1163,10,-0.000571519,10,0.00360479,-1.43043,-2.79531,-0.0211068,30.555,-0.0971214,
2,0,0,1,0,18928.9,-0.0991558,-0.0995179,-37.1823,10,-0.000720121,10,0.0037003,-1.42966,20.4261,0.00288846,-4.17373,-0.0995179,
2,0,0,1,0,18928.9,-0.0999548,-0.100305,-37.2157,10,-0.000768471,10,0.00373291,-1.42927,0.0221078,2.66874,-3613.13,-0.100305,
2,0,0,1,1,18928.9,-0.0999548,-0.100515,-37.0128,10,-0.000790704,10,0.00372033,-1.43165,-0.0282379,-2.08939,2639.58,-0.100515,
2,0,0,1,1,18928.9,-0.0979573,-0.0984342,-32.3731,10,-0.000896483,10,0.00318662,-1.48982,-0.0362471,-1.62772,1923.73,-0.0984342,
2,0,0,1,1,18928.9,-0.0955546,-0.0960366,-27.9931,10,-0.00101655,10,0.00268836,-1.55295,-0.0379101,-1.55631,1715.72,-0.0960366,
2,0,0,1,1,18928.9,-0.0931519,-0.0935754,-24.2703,10,-0.00112057,10,0.0022711,-1.61493,-0.0378857,-1.55732,1488.95,-0.0935754,
2,0,0,1,1,18928.9,-0.0907548,-0.0911757,-20.9897,10,-0.00121066,10,0.00191375,-1.67799,-0.0367339,-1.60614,1316.6,-0.0911757,
2,0,0,1,1,18928.9,-0.0883578,-0.088793,-18.0179,10,-0.00128831,10,0.00159986,-1.7443,-0.0344793,-1.71117,1197.39,-0.088793,
2,0,0,1,1,18928.9,-0.0859523,-0.0863869,-15.2883,10,-0.00135459,10,0.00132071,-1.81564,-0.031839,-1.85307,1094.96,-0.0863869,
2,0,0,1,1,18928.9,-0.0835552,-0.0839989,-12.8035,10,-0.00141045,10,0.00107548,-1.89267,-0.0287665,-2.05099,1004.88,-0.0839989,
2,0,0,1,1,18928.9,-0.0811581,-0.0815907,-10.4945,10,-0.00145676,10,0.000856249,-1.97904,-0.0250548,-2.35484,932.695,-0.0815907,
2,0,0,1,1,18928.9,-0.0787555,-0.0791475,-8.32534,10,-0.00149415,10,0.000658929,-2.0796,-0.020842,-2.83083,870.979,-0.0791475,
2,0,0,1,1,18928.9,-0.0763528,-0.0767658,-6.31477,10,-0.0015232,10,0.000484758,-2.19964,-0.0160335,-3.67979,818.856,-0.07676582,
2,0,0,1,1,18928.9,-0.0739557,-0.0743757,-4.42187,10,-0.00154445,10,0.000328879,-2.35439,-0.0103928,-5.67702,765.12,-0.0743757,
2,0,0,1,1,18928.9,-0.0715586,-0.0720141,-2.65264,10,-0.0015584,10,0.000191027,-2.57632,-0.00917079,-6.43347,720.196,-0.0720141,
2,0,0,1,1,18928.9,-0.0691532,-0.0695699,-0.99733,10,-0.00156553,10,6.93841e-05,-3.00116,-0.0287358,-2.05319,675.63,-0.0695699,
2,1,0,1,1,18928.9,-0.0667561,-0.0672031,0.572291,10,-0.0015662,10,-3.84597e-05,-3.24238,0.0827569,0.712932,635.279,-0.0672031,
2,1,0,1,1,18928.9,-0.0643589,-0.0647938,2.05191,10,-0.00156077,10,-0.000132951,-2.68784,0.0140265,4.20633,605.483,-0.0647938,
2,1,0,1,1,18928.9,-0.0619563,-0.0623793,3.46818,10,-0.00154958,10,-0.000216343,-2.4599,0.00938952,6.2836,568.49,-0.0623793,
2,1,0,1,1,18928.9,-0.0595536,-0.0600082,4.79211,10,-0.00153288,10,-0.000287566,-2.31947,0.0174884,3.37367,540.546,-0.0600082,
2,1,0,1,1,18928.9,-0.0571565,-0.057599,6.03213,10,-0.00151111,10,-0.000347444,-2.21953,0.0250703,2.35338,510.635,-0.057599,
2,1,0,1,1,18928.9,-0.0547594,-0.0552459,7.21299,10,-0.00148449,10,-0.000398488,-2.14188,0.0325662,1.81169,484.658,-0.0552459,
2,1,0,1,1,18928.9,-0.0523512,-0.0528006,8.35937,10,-0.00145321,10,-0.00044138,-2.07783,0.0401595,1.46914,461.352,-0.0528006,
2,1,0,1,1,18928.9,-0.0499541,-0.0504221,9.43808,10,-0.0014175,10,-0.000475888,-2.02512,0.048274,1.22219,436.838,-0.0504221,
2,1,0,1,1,18928.9,-0.047557,-0.0479885,10.4659,10,-0.00137757,10,-0.000502245,-1.98022,0.0565656,1.04304,416.259,-0.0479885,
2,1,0,1,1,18929,-0.0451544,-0.0456026,11.4256,10,-0.00133368,10,-0.000521036,-1.94212,0.065813,0.896479,392.804,-0.0456026,
2,1,0,1,1,18929,-0.0427545,-0.0432103,12.3514,10,-0.00128602,10,-0.000533709,-1.90828,0.0746974,0.789853,375.251,-0.0432103,
2,1,0,1,1,18929,-0.0403574,-0.0407703,13.2294,10,-0.00123475,10,-0.000539365,-1.87846,0.0839573,0.702738,358.454,-0.0407703,
2,1,0,1,1,18929,-0.0379603,-0.0384183,14.0572,10,-0.00118008,10,-0.000540052,-1.8521,0.0951483,0.620085,336.669,-0.0384183,
2,1,0,1,1,18929,-0.0355521,-0.036007,14.8652,10,-0.00112213,10,-0.000535249,-1.82783,0.105579,0.558822,320.838,-0.036007,
2,1,0,1,1,18929,-0.033155,-0.0335648,15.5988,10,-0.00106112,10,-0.00052357,-1.80691,0.117585,0.501765,303.037,-0.0335648,
2,1,0,1,1,18929,-0.0307579,-0.0312001,16.2998,10,-0.000997244,10,-0.000508557,-1.78782,0.130756,0.451221,285.243,-0.0312001,
2,1,0,1,1,18929,-0.0283524,-0.0287559,16.9852,10,-0.000930616,10,-0.000488426,-1.76993,0.143361,0.411548,270.952,-0.0287559,
2,1,0,1,1,18929,-0.0259553,-0.0263901,17.6083,10,-0.000861346,10,-0.000464685,-1.75428,0.15759,0.374389,255.768,-0.0263901,
2,1,0,1,1,18929,-0.0235582,-0.0239353,18.2079,10,-0.000789633,10,-0.000435811,-1.73974,0.172912,0.341215,241.306,-0.0239353,
2,1,0,1,1,18929,-0.0211611,-0.0215504,18.7679,10,-0.000715611,10,-0.000404457,-1.72658,0.187567,0.314554,229.433,-0.0215504,
2,1,0,1,1,18929,-0.0187529,-0.0191391,19.3058,10,-0.000639383,10,-0.000369496,-1.71431,0.202594,0.291223,218.603,-0.0191391,
2,1,0,1,1,18929,-0.0163558,-0.0167765,19.814,10,-0.000561085,10,-0.000332409,-1.70303,0.219558,0.268722,207.099,-0.0167765,
2,1,0,1,1,18929,-0.0139587,-0.0143757,20.2977,10,-0.000480793,10,-0.000291793,-1.69255,0.23872,0.247151,195.122,-0.0143757,
2,1,0,1,1,18929,-0.0115505,-0.0119294,20.7604,10,-0.00039863,10,-0.000247659,-1.68276,0.259293,0.227542,183.694,-0.0119294,
2,1,0,1,1,18929,-0.0091534,-0.00952542,21.1817,10,-0.000314699,10,-0.000201764,-1.67404,0.279152,0.211355,174.253,-0.00952542,
2,1,0,1,1,18929,-0.00675629,-0.00714798,21.5827,10,-0.000229114,10,-0.000154273,-1.66589,0.29818,0.197867,166.382,-0.00714798,
2,1,0,1,1,18929,-0.00435919,-0.00474828,21.9753,10,-0.000141965,10,-0.000104345,-1.65807,0.332318,0.177541,151.483,-0.00474828,
2,1,0,1,1,18929,-0.00195376,-0.00236767,22.3513,10,-5.32533e-05,10,-5.29205e-05,-1.6507, , , ,-0.00236767,
2,1,0,0,1,18929,-7.54729e-05,-0.000439847,22.558,10,1.64216e-05,10,-9.92207e-06,-1.6467, , , ,-0.000439847,