File: Figure_codes/Fig_3-5/rawdata_trumpetplot_data/after 10th/20221101_1-115_003_TrumpetPlot_ParaChange_from10_every3_14_CV_C01_21.csv
mode,ox/red,error,control changes,counter inc.,time/s,control/V,Ewe/V,<I>/mA,cycle number,(Q-Qo)/C,I Range,P/W,log(|I|),Tafel slope mV/dec,alpha_eff,dI/d(E-IR),E-IR/V,
2,1,0,1,0,42571.8,2.44065e-05,-0.000248974,33.6434,22,0.0000000E+000,10,-8.37633e-06,-1.4731, , , ,-0.000248974,
2,1,0,1,0,42571.8,0.00332042,0.00298102,34.9965,22,0.000106995,10,0.000104325,-1.45598, , , ,0.00298102,
2,1,0,1,0,42571.9,0.0073156,0.00697664,36.0623,22,0.000249271,10,0.000251594,-1.44295, , , ,0.00697664,
2,1,0,1,0,42571.9,0.0113108,0.0109362,37.0016,22,0.000395515,10,0.000404657,-1.43178,0.368829,0.159966,229.722,0.0109362,
2,1,0,1,0,42571.9,0.0153059,0.0149286,37.8636,22,0.000545339,10,0.000565252,-1.42178,0.410957,0.143567,211.407,0.0149286,
2,1,0,1,0,42571.9,0.0193011,0.01892,38.6581,22,0.000698492,10,0.00073141,-1.41276,0.453427,0.13012,195.778,0.01892,
2,1,0,1,0,42571.9,0.0233462,0.0230036,39.4505,22,0.000854846,10,0.000907505,-1.40395,0.491277,0.120095,184.309,0.0230036,
2,1,0,1,0,42571.9,0.0273414,0.0270003,40.1466,22,0.00101411,10,0.00108397,-1.39635,0.526576,0.112045,175.115,0.0270003,
2,1,0,1,0,42571.9,0.0313366,0.0309768,40.8214,22,0.00117614,10,0.00126452,-1.38911,0.568198,0.103837,165.154,0.0309768,
2,1,0,1,0,42571.9,0.0353317,0.0349682,41.4683,22,0.00134079,10,0.00145007,-1.38228,0.601153,0.0981448,158.571,0.0349682,
2,1,0,1,0,42571.9,0.0393269,0.0389649,42.0866,22,0.00150797,10,0.0016399,-1.37586,0.638336,0.0924278,151.579,0.0389649,
2,1,0,1,0,42571.9,0.0433221,0.0429615,42.6776,22,0.00167757,10,0.00183349,-1.3698,0.675934,0.0872866,145.179,0.04296153,
2,1,0,1,0,42571.9,0.0473173,0.0469656,43.245,22,0.00184947,10,0.00203103,-1.36406,0.703427,0.083875,141.433,0.0469656,
2,1,0,1,0,42571.9,0.0513124,0.0509506,43.7886,22,0.00202361,10,0.00223106,-1.35864,0.734749,0.0802995,137.149,0.0509506,
2,1,0,1,0,42571.9,0.0553076,0.0549484,44.3472,22,0.00219995,10,0.00243681,-1.35313,0.749257,0.0787447,136.225,0.0549484,
2,1,0,1,0,42571.9,0.0593028,0.0589355,44.8684,22,0.00237843,10,0.00264434,-1.34806,0.778509,0.0757859,132.632,0.05893549,
2,1,0,1,0,42571.9,0.0633479,0.0629862,45.4274,22,0.00255904,10,0.0028613,-1.34268,0.812925,0.0725775,128.507,0.06298624,
2,1,0,1,0,42571.9,0.0673431,0.0669776,45.9143,22,0.00274175,10,0.00307523,-1.33805,0.83396,0.0707468,126.669,0.0669776,
2,1,0,1,0,42571.9,0.0713383,0.0709753,46.4068,22,0.00292644,10,0.00329374,-1.33342,0.872686,0.0676074,122.423,0.0709753,
2,1,0,1,0,42571.9,0.0753334,0.0749847,46.9013,22,0.0031131,10,0.00351689,-1.32881,0.886673,0.0665409,121.738,0.0749847,
2,1,0,1,0,42571.9,0.0793286,0.0789666,47.3838,22,0.00330171,10,0.00374173,-1.32437,0.896829,0.0657874,121.619,0.0789666,
2,1,0,1,0,42571.9,0.0833238,0.0829272,47.856,22,0.00349225,10,0.00396856,-1.32006,0.902488,0.0653749,122.122,0.0829272,
2,1,0,1,0,42571.9,0.0873189,0.086908,48.3445,22,0.00368471,10,0.00420152,-1.31565,0.899718,0.0655761,123.775,0.086908,
2,1,0,1,0,42571.9,0.0913141,0.0908792,48.8424,22,0.00387912,10,0.00443876,-1.3112,0.897421,0.0657439,125.353,0.09087918,
2,1,0,1,0,42571.9,0.0953093,0.094914,49.3577,22,0.00407559,10,0.00468473,-1.30665,0.896387,0.0658198,126.776,0.094914,
2,1,0,1,0,42571.9,0.0993045,0.098987,49.8691,22,0.00427409,10,0.0049364,-1.30217,0.88993,0.0662973,129.033,0.098987,
2,1,0,1,0,42571.9,0.103319,0.102935,50.3763,22,0.00447461,10,0.00518549,-1.29777,0.906924,0.0650551,127.896,0.102935,
2,1,0,1,0,42572,0.107345,0.106919,50.9121,22,0.0046773,10,0.00544346,-1.29318,0.921538,0.0640234,127.11,0.106919,
2,1,0,1,0,42572,0.11134,0.110928,51.4058,22,0.00488198,10,0.00570236,-1.28899,0.891561,0.066176,132.827,0.110928,
2,1,0,1,0,42572,0.115335,0.114867,51.8876,22,0.00508862,10,0.00596015,-1.28494,0.893002,0.0660693,134.024,0.114867,
2,1,0,1,0,42572,0.11933,0.11892,52.4995,22,0.00529746,10,0.00624322,-1.27984,0.866039,0.0681262,139.624,0.11892,
2,1,0,1,0,42572,0.123325,0.122933,53.0583,22,0.00550862,10,0.00652263,-1.27525,0.84389,0.0699143,144.733,0.122933,
2,1,0,1,0,42572,0.127321,0.126926,53.6394,22,0.00572208,10,0.00680822,-1.27052,0.857678,0.0687904,144.018,0.126926,
2,1,0,1,0,42572,0.131316,0.130966,54.2177,22,0.00593785,10,0.00710065,-1.26586,0.848869,0.0695043,147.098,0.130966,
2,1,0,1,0,42572,0.135311,0.134933,54.8057,22,0.00615594,10,0.00739508,-1.26117,0.844981,0.069824,149.404,0.1349327,
2,1,0,1,0,42572,0.139306,0.138969,55.4171,22,0.00637644,10,0.00770124,-1.25636,0.816452,0.0722639,156.41,0.138969,
2,1,0,1,0,42572,0.143301,0.142937,56.0315,22,0.00659938,10,0.00800896,-1.25157,0.803397,0.0734381,160.74,0.142937,
2,1,0,1,0,42572,0.147346,0.146973,56.7213,22,0.00682498,10,0.00833647,-1.24625,0.790542,0.0746324,165.22,0.146973,
2,1,0,1,0,42572,0.151342,0.150961,57.3821,22,0.00705323,10,0.00866244,-1.24122,0.780246,0.0756172,169.331,0.150961,
2,1,0,1,0,42572,0.155337,0.15492,58.0527,22,0.00728416,10,0.00899354,-1.23618,0.788293,0.0748453,169.609,0.15492,
2,1,0,1,0,42572,0.159332,0.158978,58.7479,22,0.00751783,10,0.00933966,-1.23101,0.790614,0.0746255,171.069,0.158978,
2,1,0,1,0,42572,0.163327,0.162953,59.4317,22,0.00775426,10,0.00968457,-1.22598,0.800375,0.0737154,170.931,0.162953,
2,1,0,1,0,42572,0.167322,0.16694,60.1156,22,0.00799343,10,0.0100357,-1.22101,0.811185,0.0727331,170.601,0.16694,
2,1,0,1,0,42572,0.171317,0.170987,60.7989,22,0.00823532,10,0.0103958,-1.2161,0.834537,0.0706978,167.648,0.170987,
2,1,0,1,0,42572,0.175313,0.174966,61.4755,22,0.00847994,10,0.0107561,-1.2113,0.867799,0.0679881,162.942,0.174966,
2,1,0,1,0,42572,0.179308,0.178935,62.1111,22,0.00872718,10,0.0111139,-1.20683,0.893,0.0660694,160.045,0.178935,
2,1,0,1,0,42572,0.183303,0.182937,62.7222,22,0.00897692,10,0.0114742,-1.20258,0.958441,0.0615583,150.574,0.182937,
2,1,0,1,0,42572,0.187348,0.186975,63.3578,22,0.00922908,10,0.0118464,-1.1982,1.01472,0.0581443,143.533,0.186975,
2,1,0,1,0,42572,0.191343,0.191013,63.8917,22,0.00948364,10,0.0122042,-1.19456,1.10452,0.0534167,132.962,0.191013,
2,1,0,1,0,42572,0.195338,0.19494,64.4083,22,0.0097403,10,0.0125558,-1.19106,1.26124,0.0467793,117.37,0.19494,
2,1,0,1,0,42572,0.199334,0.198943,64.8504,22,0.00999888,10,0.0129015,-1.18809,1.43142,0.0412177,104.106,0.198943,
2,1,0,1,0,42572,0.203329,0.202931,65.2306,22,0.0102591,10,0.0132373,-1.18555,1.74867,0.0337399,85.7106,0.202931,
2,1,0,1,0,42572.1,0.207324,0.206961,65.552,22,0.0105207,10,0.0135667,-1.18341,2.19621,0.0268644,68.5645,0.2069608,
2,1,0,1,0,42572.1,0.211319,0.210949,65.7805,22,0.0107834,10,0.0138763,-1.1819,3.08834,0.0191041,48.9265,0.210949,
2,1,0,1,0,42572.1,0.215314,0.214932,65.9467,22,0.0110469,10,0.014174,-1.18081,5.46228,0.0108014,27.7263,0.214932,
2,1,0,1,0,42572.1,0.219309,0.218991,66.0163,22,0.0113108,10,0.014457,-1.18035,19.4167,0.00303861,7.80817,0.218991,
2,1,0,1,0,42572.1,0.223305,0.222956,65.9954,22,0.0115749,10,0.0147141,-1.18049,-12.0221,-0.00490763,-12.6112,0.222956,
2,1,0,1,0,42572.1,0.227314,0.226992,65.9057,22,0.0118387,10,0.0149601,-1.18108,-4.42486,-0.0133337,-34.2106,0.226992,
2,1,0,1,0,42572.1,0.231345,0.231051,65.7434,22,0.012102,10,0.0151901,-1.18215,-2.74315,-0.0215081,-55.025,0.2310511,
2,1,0,1,0,42572.1,0.23534,0.234986,65.4691,22,0.0123645,10,0.0153843,-1.18396,-1.92197,-0.0306976,-78.2064,0.234986,
2,1,0,1,0,42572.1,0.239335,0.238988,65.1133,22,0.0126256,10,0.0155613,-1.18633,-1.48351,-0.0397704,-100.788,0.238988,
2,1,0,1,0,42572.1,0.24333,0.242967,64.6564,22,0.0128851,10,0.0157094,-1.18939,-1.2143,-0.0485876,-122.284,0.242967,
2,1,0,1,0,42572.1,0.247326,0.24701,64.1349,22,0.0131427,10,0.015842,-1.19291,-1.03139,-0.0572041,-142.798,0.24701,
2,1,0,1,0,42572.1,0.251321,0.250951,63.5169,22,0.0133979,10,0.0159396,-1.19711,-0.90294,-0.0653421,-161.559,0.250951,
2,1,0,1,0,42572.1,0.255316,0.254995,62.8275,22,0.0136506,10,0.0160207,-1.20185,-0.793686,-0.0743367,-181.819,0.254995,
2,1,0,1,0,42572.1,0.259311,0.258982,62.069,22,0.0139003,10,0.0160748,-1.20713,-0.718607,-0.0821033,-198.389,0.258982,
2,1,0,1,0,42572.1,0.263306,0.262981,61.2311,22,0.0141469,10,0.0161026,-1.21303,-0.666172,-0.0885657,-211.256,0.262981,
2,1,0,1,0,42572.1,0.267302,0.266968,60.3393,22,0.0143899,10,0.0161087,-1.2194,-0.614544,-0.0960061,-225.714,0.266968,
2,1,0,1,0,42572.1,0.271347,0.271018,59.4426,22,0.0146294,10,0.01611,-1.2259,-0.579604,-0.101794,-235.644,0.271018,
2,1,0,1,0,42572.1,0.275342,0.275013,58.4505,22,0.0148651,10,0.0160747,-1.23321,-0.548719,-0.107523,-244.853,0.275013,
2,1,0,1,0,42572.1,0.279337,0.279064,57.4412,22,0.0150969,10,0.0160298,-1.24078,-0.515636,-0.114422,-256.209,0.279064,
2,1,0,1,0,42572.1,0.283332,0.283038,56.4046,22,0.0153244,10,0.0159646,-1.24869,-0.501606,-0.117622,-258.699,0.283038,
2,1,0,1,0,42572.1,0.287327,0.28697,55.3557,22,0.0155479,10,0.0158854,-1.25684,-0.485577,-0.121505,-262.377,0.28697,
2,1,0,1,0,42572.1,0.291322,0.291008,54.3128,22,0.0157671,10,0.0158054,-1.2651,-0.479762,-0.122978,-260.803,0.291008,
2,1,0,1,0,42572.1,0.295318,0.294951,53.2728,22,0.0159821,10,0.0157129,-1.27349,-0.480775,-0.122718,-257.167,0.294951,
2,1,0,1,0,42572.1,0.299013,0.298673,52.3269,22,0.0161775,10,0.0156286,-1.28127,-0.175251,-0.33666,-679.3,0.298673,
2,1,0,0,0,42572.1,0.300012,0.299746,52.0699,22,0.0162297,10,0.0156078,-1.28341,0.00453568,13.008,24167.7,0.299746,
2,1,0,1,0,42572.1,0.298714,0.298569,49.1761,22,0.0162943,10,0.0146825,-1.30825,0.054335,1.08586,1874.25,0.298569,
2,1,0,1,0,42572.2,0.294718,0.2945,42.356,22,0.0164761,10,0.0124738,-1.37308,0.0641367,0.919909,1488.21,0.2945,
2,1,0,1,0,42572.2,0.290723,0.290501,37.0103,22,0.016634,10,0.0107515,-1.43168,0.0667279,0.884187,1303.09,0.290501,
2,1,0,1,0,42572.2,0.286728,0.286521,32.3876,22,0.0167722,10,0.00927974,-1.48962,0.0676419,0.87224,1111.54,0.286521,
2,1,0,1,0,42572.2,0.282733,0.282525,28.2694,22,0.016893,10,0.00798682,-1.54868,0.0658503,0.895971,991.533,0.282525,
2,1,0,1,0,42572.2,0.278738,0.278488,24.5591,22,0.0169982,10,0.00683942,-1.60979,0.0632035,0.933493,893.798,0.278488,
2,1,0,1,0,42572.2,0.274742,0.274525,21.1695,22,0.0170892,10,0.00581155,-1.67429,0.0595508,0.99075,814.071,0.274525,
2,1,0,1,0,42572.2,0.270747,0.270497,18.0656,22,0.0171673,10,0.00488669,-1.74315,0.0551088,1.07061,747.665,0.2704972,
2,1,0,1,0,42572.2,0.266702,0.266453,15.1852,22,0.0172334,10,0.00404613,-1.81858,0.0503913,1.17084,684.46,0.266453,
2,1,0,1,0,42572.2,0.262707,0.26244,12.5604,22,0.0172886,10,0.00329634,-1.901,0.044492,1.32608,634.972,0.2624402,
2,1,0,1,0,42572.2,0.258712,0.258399,10.1322,22,0.0173337,10,0.00261815,-1.9943,0.0380625,1.55008,588.522,0.258399,
2,1,0,1,0,42572.2,0.254717,0.254439,7.86934,22,0.0173694,10,0.00200227,-2.10406,0.0309557,1.90595,546.105,0.254439,
2,1,0,1,0,42572.2,0.250722,0.250451,5.76789,22,0.0173965,10,0.00144458,-2.23898,0.0225854,2.61231,509.451,0.250451,
2,1,0,1,0,42572.2,0.246726,0.246432,3.81839,22,0.0174154,10,0.000940974,-2.41812,0.0109218,5.40202,475.212,0.246432,
2,1,0,1,0,42572.2,0.242731,0.242405,1.984,22,0.0174268,10,0.000480931,-2.70246,0.0249903,2.36091,444.441,0.242405,
2,1,0,1,0,42572.2,0.238736,0.238449,0.270282,22,0.0174311,10,6.44483e-05,-3.56818,0.123875,0.476288,417.198,0.238449,
2,0,0,1,0,42572.2,0.234741,0.234491,-1.32545,22,0.0174288,10,-0.000310807,-2.87764,-0.0477074,-1.23671,392.087,0.234491,
2,0,0,1,0,42572.2,0.230746,0.230476,-2.83839,22,0.0174203,10,-0.000654183,-2.54693,-0.0121588,-4.85245,367.239,0.230476,
2,0,0,1,0,42572.2,0.226701,0.226377,-4.30038,22,0.0174059,10,-0.000973508,-2.36649,-0.0224895,-2.62345,345.283,0.226377,
2,0,0,1,0,42572.2,0.222705,0.222432,-5.61156,22,0.017386,10,-0.00124819,-2.25092,-0.0354481,-1.66441,324.906,0.222432,
2,0,0,1,0,42572.2,0.21871,0.218408,-6.87872,22,0.0173609,10,-0.00150237,-2.16249,-0.0484795,-1.21701,305.82,0.218408,
2,0,0,1,0,42572.2,0.214715,0.214415,-8.05668,22,0.0173309,10,-0.00172748,-2.09384,-0.0612196,-0.963743,289.757,0.214415,
2,0,0,1,0,42572.2,0.21072,0.210387,-9.19041,22,0.0172962,10,-0.00193354,-2.03667,-0.0745163,-0.791773,274.869,0.210387,
2,0,0,1,0,42572.2,0.206725,0.206386,-10.261,22,0.0172572,10,-0.00211773,-1.98881,-0.0876921,-0.672809,262.89,0.206386,
2,0,0,1,0,42572.2,0.20273,0.202424,-11.2721,22,0.017214,10,-0.00228174,-1.948,-0.102069,-0.57804,249.666,0.202424,
2,0,0,1,0,42572.2,0.198734,0.198425,-12.2605,22,0.0171669,10,-0.00243279,-1.91149,-0.11619,-0.50779,239.211,0.198425,
2,0,0,1,0,42572.3,0.194739,0.194393,-13.1836,22,0.0171159,10,-0.0025628,-1.87997,-0.129948,-0.454026,230.814,0.194393,
2,0,0,1,0,42572.3,0.190744,0.190414,-14.0817,22,0.0170613,10,-0.00268135,-1.85135,-0.145378,-0.405839,221.109,0.190414,
2,0,0,1,0,42572.3,0.186735,0.186475,-14.9535,22,0.0170031,10,-0.00278844,-1.82526,-0.158967,-0.371146,214.878,0.186475,
2,0,0,1,0,42572.3,0.182704,0.182372,-15.8099,22,0.0169414,10,-0.00288328,-1.80107,-0.174425,-0.338254,207.038,0.182372,
2,0,0,1,0,42572.3,0.178709,0.178407,-16.6186,22,0.0168765,10,-0.00296487,-1.77941,-0.189921,-0.310656,200.184,0.178407,
2,0,0,1,0,42572.3,0.174713,0.174375,-17.4025,22,0.0168084,10,-0.00303455,-1.75939,-0.203476,-0.28996,196.101,0.174375,
2,0,0,1,0,42572.3,0.170718,0.170386,-18.1741,22,0.0167372,10,-0.00309662,-1.74055,-0.216914,-0.271998,192.301,0.170386,
2,0,0,1,0,42572.3,0.166723,0.166396,-18.9428,22,0.0166629,10,-0.00315201,-1.72256,-0.226683,-0.260275,191.906,0.166396,
2,0,0,1,0,42572.3,0.162728,0.162383,-19.7,22,0.0165855,10,-0.00319895,-1.70553,-0.235376,-0.250662,192.469,0.162383,
2,0,0,1,0,42572.3,0.158733,0.158414,-20.4653,22,0.0165051,10,-0.003242,-1.68898,-0.241667,-0.244137,194.903,0.158414,
2,0,0,1,0,42572.3,0.154737,0.154375,-21.2558,22,0.0164216,10,-0.00328136,-1.67252,-0.246253,-0.239591,198.646,0.154375,
2,0,0,1,0,42572.3,0.150742,0.150466,-22.0477,22,0.0163349,10,-0.00331742,-1.65664,-0.245542,-0.240285,207.059,0.150466,
2,0,0,1,0,42572.3,0.146747,0.146437,-22.8676,22,0.016245,10,-0.00334867,-1.64078,-0.246277,-0.239568,214.337,0.146437,
2,0,0,1,0,42572.3,0.142702,0.142416,-23.7779,22,0.0161516,10,-0.00338636,-1.62383,-0.243536,-0.242264,225.093,0.142416,
2,0,0,1,0,42572.3,0.138707,0.138404,-24.6789,22,0.0160546,10,-0.00341567,-1.60767,-0.238859,-0.247008,238.361,0.138404,
2,0,0,1,0,42572.3,0.134712,0.134426,-25.6581,22,0.0159539,10,-0.00344911,-1.59078,-0.23643,-0.249546,250.57,0.134426,
2,0,0,1,0,42572.3,0.130717,0.130429,-26.6833,22,0.0158491,10,-0.00348028,-1.57376,-0.230484,-0.255984,267.359,0.130429,
2,0,0,1,0,42572.3,0.126721,0.126432,-27.7829,22,0.0157401,10,-0.00351266,-1.55622,-0.224625,-0.26266,285.756,0.126432,
2,0,0,1,0,42572.3,0.122726,0.122394,-28.9593,22,0.0156265,10,-0.00354446,-1.53821,-0.220033,-0.268142,303.976,0.122394,
2,0,0,1,0,42572.3,0.118731,0.118465,-30.2191,22,0.0155081,10,-0.0035799,-1.51972,-0.217449,-0.271328,320.636,0.1184646,
2,0,0,1,0,42572.3,0.114736,0.114427,-31.5477,22,0.0153844,10,-0.0036099,-1.50103,-0.21603,-0.27311,336.413,0.114427,
2,0,0,1,0,42572.3,0.110741,0.110404,-32.9221,22,0.0152553,10,-0.00363475,-1.48251,-0.217779,-0.270916,348.208,0.110404,
2,0,0,1,0,42572.3,0.106745,0.106468,-34.3171,22,0.0151207,10,-0.00365368,-1.46449,-0.222937,-0.264649,354.248,0.106468,
2,0,0,1,0,42572.3,0.102703,0.10242,-35.8062,22,0.0149804,10,-0.00366725,-1.44604,-0.229657,-0.256905,357.952,0.10242,
2,0,0,1,0,42572.3,0.0987052,0.0984579,-37.2046,22,0.0148343,10,-0.00366308,-1.4294,-0.23873,-0.247141,357.961,0.0984579,
2,0,0,1,0,42572.4,0.09471,0.0944485,-38.6336,22,0.0146824,10,-0.00364888,-1.41304,-0.252986,-0.233215,350.811,0.0944485,
2,0,0,1,0,42572.4,0.0907148,0.0904327,-40.0572,22,0.0145249,10,-0.00362248,-1.39732,-0.264846,-0.222771,347.032,0.0904327,
2,0,0,1,0,42572.4,0.0867197,0.0864244,-41.4174,22,0.0143618,10,-0.00357948,-1.38282,-0.280897,-0.210042,338.397,0.08642441,
2,0,0,1,0,42572.4,0.0827245,0.0824606,-42.7561,22,0.0141933,10,-0.0035257,-1.369,-0.298972,-0.197343,328.282,0.0824606,
2,0,0,1,0,42572.4,0.0787293,0.078448,-44.0481,22,0.0140196,10,-0.00345548,-1.35607,-0.317683,-0.18572,318.23,0.078448,
2,0,0,1,0,42572.4,0.0747342,0.074463,-45.2997,22,0.0138408,10,-0.00337316,-1.3439,-0.346201,-0.170421,299.965,0.074463,
2,0,0,1,0,42572.4,0.070739,0.0704801,-46.4914,22,0.013657,10,-0.00327672,-1.33263,-0.371965,-0.158617,286.566,0.0704801,
2,0,0,1,0,42572.4,0.0667438,0.0665482,-47.5293,22,0.0134689,10,-0.00316299,-1.32304,-0.398236,-0.148154,274.433,0.0665482,
2,0,0,1,0,42572.4,0.0627403,0.0625218,-48.612,22,0.0132765,10,-0.00303931,-1.31326,-0.43414,-0.135901,257.391,0.0625218,
2,0,0,1,0,42572.4,0.0587035,0.0584456,-49.6955,22,0.0130797,10,-0.00290448,-1.30368,-0.460325,-0.12817,247.567,0.0584456,
2,0,0,1,0,42572.4,0.0547083,0.0544139,-50.6267,22,0.0128789,10,-0.0027548,-1.29562,-0.505876,-0.116629,229.552,0.0544139,
2,0,0,1,0,42572.4,0.0507132,0.0504703,-51.5097,22,0.0126745,10,-0.00259971,-1.28811,-0.566787,-0.104096,208.579,0.0504703,
2,0,0,1,0,42572.4,0.046718,0.0464662,-52.2976,22,0.0124668,10,-0.00243007,-1.28152,-0.616846,-0.0956478,194.703,0.0464662,
2,0,0,1,0,42572.4,0.0427228,0.0424822,-53.0251,22,0.0122561,10,-0.00225262,-1.27552,-0.680847,-0.0866568,178.993,0.0424822,
2,0,0,1,0,42572.4,0.0387276,0.038511,-53.723,22,0.0120425,10,-0.00206893,-1.26984,-0.737717,-0.0799764,167.37,0.038511,
2,0,0,1,0,42572.4,0.0347325,0.0345005,-54.3681,22,0.0118263,10,-0.00187573,-1.26466,-0.795911,-0.0741289,157.003,0.0345005,
2,0,0,1,0,42572.4,0.0307373,0.0304943,-54.9708,22,0.0116075,10,-0.0016763,-1.25987,-0.870503,-0.0677769,145.159,0.03049433,
2,0,0,1,0,42572.4,0.0267421,0.0265072,-55.5332,22,0.0113864,10,-0.00147203,-1.25545,-0.934054,-0.0631655,136.725,0.0265072,
2,0,0,1,0,42572.4,0.022747,0.022484,-56.0495,22,0.0111632,10,-0.00126022,-1.25143,-1.03302,-0.0571139,124.752,0.022484,
2,0,0,1,0,42572.4,0.0187018,0.018376,-56.5728,22,0.0109379,10,-0.00103958,-1.24739,-1.16049,-0.0508407,111.964,0.018376,
2,0,0,1,0,42572.4,0.0147067,0.0144048,-56.978,22,0.0107108,10,-0.000820756,-1.24429,-1.31188,-0.0449736,99.7778,0.0144048,
2,0,0,1,0,42572.4,0.0107115,0.0104177,-57.3347,22,0.0104821,10,-0.000597293,-1.24158,-1.53944,-0.0383256,85.6377,0.0104177,
2,0,0,1,0,42572.4,0.00671632,0.00640826,-57.6535,22,0.0102521,10,-0.000369458,-1.23917,-1.71677,-0.0343669,77.2488,0.00640826,
2,0,0,1,0,42572.4,0.00272115,0.00238402,-57.9423,22,0.0100208,10,-0.000138135,-1.237,-1.97864,-0.0298185,67.3487,0.00238402,
2,0,0,1,0,42572.4,-0.00127403,-0.00163599,-58.2171,22,0.00978845,10,9.52424e-05,-1.23495,-2.33402,-0.0252783,57.3282,-0.00163599,
2,0,0,1,0,42572.5,-0.0052692,-0.00563372,-58.4157,22,0.00955516,10,0.000329098,-1.23347,-2.88892,-0.0204228,46.4785,-0.00563372,
2,0,0,1,0,42572.5,-0.00926438,-0.0095901,-58.5707,22,0.00932117,10,0.000561698,-1.23232,-3.93357,-0.0149991,34.238,-0.0095901,
2,0,0,1,0,42572.5,-0.0132596,-0.0136419,-58.6871,22,0.00908663,10,0.000800605,-1.23146,-4.99099,-0.0118213,27.0497,-0.0136419,
2,0,0,1,0,42572.5,-0.0172547,-0.0175781,-58.7629,22,0.00885173,10,0.00103294,-1.2309,-7.45236,-0.00791695,18.1419,-0.0175781,
2,0,0,1,0,42572.5,-0.0212915,-0.0216321,-58.8485,22,0.00861655,10,0.00127301,-1.23026,-16.6786,-0.00353747,8.11111,-0.0216321,
2,0,0,1,0,42572.5,-0.025295,-0.0256977,-58.8629,22,0.00838111,10,0.00151264,-1.23016,94.8675,0.00062192,-1.42599,-0.0256977,
2,0,0,1,0,42572.5,-0.0292902,-0.0296647,-58.8171,22,0.00814575,10,0.00174479,-1.2305,10.6074,0.00556215,-12.7523,-0.0296647,
2,0,0,1,0,42572.5,-0.0332854,-0.0336624,-58.74,22,0.00791064,10,0.00197733,-1.23107,6.24501,0.00944754,-21.6396,-0.0336624,
2,0,0,1,0,42572.5,-0.0372805,-0.0376368,-58.6444,22,0.00767588,10,0.00220719,-1.23177,4.94771,0.0119247,-27.2709,-0.0376368,
2,0,0,1,0,42572.5,-0.0412757,-0.0416218,-58.5183,22,0.00744157,10,0.00243564,-1.23271,4.1289,0.0142895,-32.6123,-0.0416218,
2,0,0,1,0,42572.5,-0.0452709,-0.0456588,-58.3809,22,0.00720777,10,0.0026656,-1.23373,3.46114,0.0170464,-38.8073,-0.0456588,
2,0,0,1,0,42572.5,-0.0492661,-0.0496385,-58.219,22,0.00697459,10,0.0028899,-1.23494,3.139,0.0187958,-42.6749,-0.0496385,
2,0,0,1,0,42572.5,-0.0532612,-0.053632,-58.0236,22,0.00674212,10,0.00311192,-1.2364,2.85121,0.020693,-46.8445,-0.053632,
2,0,0,1,0,42572.5,-0.0572564,-0.0576032,-57.8363,22,0.00651042,10,0.00333156,-1.2378,2.88344,0.0204617,-46.1953,-0.0576032,
2,0,0,1,0,42572.5,-0.0612544,-0.0616381,-57.6324,22,0.00627951,10,0.00355235,-1.23933,2.80871,0.0210061,-47.257,-0.0616381,
2,0,0,1,0,42572.5,-0.0652967,-0.0656358,-57.48,22,0.0060492,10,0.00377274,-1.24048,2.67563,0.0220509,-49.43,-0.0656358,
2,0,0,1,0,42572.5,-0.0692919,-0.0696452,-57.2669,22,0.00581974,10,0.00398836,-1.2421,2.67822,0.0220296,-49.2093,-0.0696452,
2,0,0,1,0,42572.5,-0.0732871,-0.0736694,-57.0421,22,0.00559114,10,0.00420226,-1.2438,2.54266,0.023204,-51.6764,-0.0736694,
2,0,0,1,0,42572.5,-0.0772822,-0.0776693,-56.8435,22,0.00536337,10,0.004415,-1.24532,2.61808,0.0225356,-50.0128,-0.0776693,
2,0,0,1,0,42572.5,-0.0812774,-0.0816819,-56.6508,22,0.00513642,10,0.00462734,-1.24679,2.82613,0.0208766,-46.1733,-0.0816819,
2,0,0,1,0,42572.5,-0.0852726,-0.0856626,-56.4658,22,0.00491019,10,0.00483701,-1.24821,2.88899,0.0204223,-45.0184,-0.0856626,
2,0,0,1,0,42572.5,-0.0892678,-0.0896773,-56.303,22,0.00468468,10,0.0050491,-1.24947,3.07929,0.0191603,-42.1099,-0.0896773,
2,0,0,1,0,42572.5,-0.0932629,-0.0936358,-56.1247,22,0.00445986,10,0.00525529,-1.25085,3.36248,0.0175466,-38.4562,-0.0936358,
2,0,0,1,0,42572.5,-0.0972581,-0.0976251,-55.9794,22,0.00423567,10,0.005465,-1.25197,4.06093,0.0145287,-31.7798,-0.0976251,
2,0,0,1,0,42572.5,-0.101253,-0.101651,-55.8509,22,0.00401204,10,0.00567733,-1.25297,4.70483,0.0125403,-27.3602,-0.101651,
2,0,0,1,0,42572.6,-0.105298,-0.105691,-55.7941,22,0.00378878,10,0.00589691,-1.25341,5.22889,0.0112835,-24.5644,-0.105691,
2,0,0,1,0,42572.6,-0.109294,-0.109703,-55.6851,22,0.00356585,10,0.00610883,-1.25426,6.07553,0.00971108,-21.103,-0.109703,
2,0,0,1,0,42572.6,-0.113289,-0.113606,-55.5868,22,0.00334334,10,0.00631503,-1.25503,6.34389,0.00930028,-20.1925,-0.113606,
2,0,0,1,0,42572.6,-0.117284,-0.117681,-55.5127,22,0.00312116,10,0.00653276,-1.25561,8.37743,0.00704274,-15.272,-0.117681,
2,0,0,1,0,42572.6,-0.121279,-0.12166,-55.4716,22,0.00289921,10,0.00674869,-1.25593,13.2138,0.00446504,-9.67287,-0.12166,
2,0,0,1,0,42572.6,-0.125274,-0.125612,-55.4422,22,0.0026774,10,0.00696422,-1.25616,22.9744,0.00256808,-5.55928,-0.125612,
2,0,0,1,0,42572.6,-0.129269,-0.129618,-55.432,22,0.00245565,10,0.00718496,-1.25624,68.2879,0.000863988,-1.86993,-0.129618,
2,0,0,1,0,42572.6,-0.133265,-0.133578,-55.4243,22,0.00223396,10,0.00740348,-1.2563,-49.2491,-0.00119799,2.5931,-0.133578,
2,0,0,1,0,42572.6,-0.13726,-0.137645,-55.4417,22,0.00201222,10,0.00763127,-1.25616,-13.7907,-0.00427826,9.26769,-0.137645,
2,0,0,1,0,42572.6,-0.141255,-0.141611,-55.4836,22,0.00179037,10,0.00785708,-1.25584,-9.55373,-0.0061756,13.384,-0.141611,
2,0,0,1,0,42572.6,-0.145286,-0.145631,-55.5804,22,0.00156829,10,0.00809421,-1.25508,-7.70253,-0.00765982,16.6134,-0.145631,
2,0,0,1,0,42572.6,-0.149295,-0.14968,-55.6398,22,0.00134583,10,0.00832819,-1.25461,-6.84079,-0.00862474,18.726,-0.14968,
2,0,0,1,0,42572.6,-0.15329,-0.153643,-55.7075,22,0.00112314,10,0.00855908,-1.25409,-7.0959,-0.00831467,18.0825,-0.153643,
2,0,0,1,0,42572.6,-0.157286,-0.157627,-55.7836,22,0.000900168,10,0.008793,-1.25349,-5.93154,-0.00994682,21.6658,-0.157627,
2,0,0,1,0,42572.6,-0.161281,-0.161641,-55.8699,22,0.000676865,10,0.00903085,-1.25282,-5.32181,-0.0110865,24.1863,-0.161641,
2,0,0,1,0,42572.6,-0.165276,-0.165577,-55.9842,22,0.000453152,10,0.0092697,-1.25193,-5.02645,-0.0117379,25.6477,-0.165577,
2,0,0,1,0,42572.6,-0.169271,-0.169582,-56.093,22,0.000228996,10,0.00951238,-1.25109,-4.76427,-0.0123838,27.1065,-0.169582,
2,0,0,1,0,42572.6,-0.173266,-0.173571,-56.1925,22,4.41736e-06,10,0.00975341,-1.25032,-4.74471,-0.0124349,27.2749,-0.173571,
2,0,0,1,0,42572.6,-0.177261,-0.177604,-56.3026,22,-0.000220577,10,0.00999957,-1.24947,-4.54366,-0.0129851,28.5419,-0.177604,
2,0,0,1,0,42572.6,-0.181257,-0.181617,-56.4217,22,-0.000446028,10,0.0102471,-1.24855,-4.03065,-0.0146378,32.2488,-0.181617,
2,0,0,1,0,42572.6,-0.185252,-0.1856,-56.5502,22,-0.000671978,10,0.0104957,-1.24757,-4.11449,-0.0143396,31.65,-0.1856,
2,0,0,1,0,42572.6,-0.189297,-0.189637,-56.7106,22,-0.000898559,10,0.0107544,-1.24634,-4.1321,-0.0142784,31.5811,-0.189637,
2,0,0,1,0,42572.6,-0.193292,-0.193598,-56.8088,22,-0.00112562,10,0.0109981,-1.24558,-4.29072,-0.0137506,30.4673,-0.193598,
2,0,0,1,0,42572.6,-0.197287,-0.197609,-56.9268,22,-0.0013531,10,0.0112492,-1.24468,25.7475,0.00229149,-5.06913,-0.197609,
2,0,0,0,0,42572.6,-0.199984,-0.200303,-56.9982,22,-0.0015069,10,0.0114169,-1.24414,0.0644743,0.915093,-1905.55,-0.200303,
2,0,0,0,1,42572.6,-0.199984,-0.200532,-56.6553,22,-0.00154093,10,0.0113612,-1.24676,-0.0409455,-1.44094,2832.04,-0.200532,
2,0,0,1,1,42572.6,-0.196688,-0.197146,-50.0477,22,-0.00170356,10,0.00986672,-1.30062,-0.0705355,-0.836458,1559.97,-0.197146,
2,0,0,1,1,42572.7,-0.192693,-0.193157,-44.3197,22,-0.00189134,10,0.00856067,-1.3534,-0.0760461,-0.775845,1370.74,-0.193157,
2,0,0,1,1,42572.7,-0.188698,-0.189167,-39.6258,22,-0.00205858,10,0.00749589,-1.40202,-0.0825064,-0.715096,1124.91,-0.189167,
2,0,0,1,1,42572.7,-0.184653,-0.185116,-35.5239,22,-0.00220835,10,0.00657604,-1.44948,-0.0849208,-0.694765,973.813,-0.1851161,
2,0,0,1,1,42572.7,-0.180657,-0.181034,-31.9221,22,-0.00234279,10,0.00577897,-1.49591,-0.0846653,-0.696862,873.542,-0.181034,
2,0,0,1,1,42572.7,-0.176662,-0.177062,-28.6463,22,-0.00246353,10,0.00507219,-1.54293,-0.0832627,-0.7086,793.504,-0.1770623,
2,0,0,1,1,42572.7,-0.172667,-0.173142,-25.6274,22,-0.0025717,10,0.00443718,-1.5913,-0.079904,-0.738386,737.542,-0.173142,
2,0,0,1,1,42572.7,-0.168672,-0.169082,-22.8005,22,-0.00266823,10,0.00385514,-1.64206,-0.075969,-0.776632,688.496,-0.169082,
2,0,0,1,1,42572.7,-0.164677,-0.16509,-20.1633,22,-0.00275386,10,0.00332877,-1.69544,-0.0715476,-0.824626,644.588,-0.16509,
2,0,0,1,1,42572.7,-0.160682,-0.161114,-17.6659,22,-0.00282922,10,0.00284621,-1.75287,-0.0660704,-0.892987,609.341,-0.161114,
2,0,0,1,1,42572.7,-0.156686,-0.157139,-15.3123,22,-0.00289491,10,0.00240617,-1.81496,-0.0598698,-0.985472,579.423,-0.157139,
2,0,0,1,1,42572.7,-0.152691,-0.153108,-13.0669,22,-0.00295142,10,0.00200064,-1.88383,-0.0530451,-1.11226,552.826,-0.1531077,
2,0,0,1,1,42572.7,-0.148696,-0.14912,-10.9095,22,-0.00299913,10,0.00162681,-1.9622,-0.0457889,-1.28852,528.552,-0.14912,
2,0,0,1,1,42572.7,-0.14467,-0.145114,-8.82095,22,-0.00303841,10,0.00128005,-2.05448,-0.0378853,-1.55733,507.703,-0.145114,
2,0,0,1,1,42572.7,-0.140656,-0.141103,-6.83617,22,-0.00306946,10,0.000964603,-2.16519,-0.0293698,-2.00886,487.082,-0.141103,
2,0,0,1,1,42572.7,-0.136661,-0.137097,-4.93801,22,-0.0030928,10,0.000676984,-2.30645,-0.0194928,-3.02676,467.807,-0.137097,
2,0,0,1,1,42572.7,-0.132665,-0.133102,-3.10765,22,-0.0031087,10,0.000413634,-2.50757,-0.012753,-4.62635,452.193,-0.133102,
2,0,0,1,1,42572.7,-0.12867,-0.129103,-1.33086,22,-0.00311739,10,0.000171818,-2.87587,-0.0417226,-1.4141,437.806,-0.129103,
2,1,0,1,1,42572.7,-0.124675,-0.125138,0.382824,22,-0.00311911,10,-4.7906e-05,-3.417,0.223306,0.264211,424.746,-0.125138,
2,1,0,1,1,42572.7,-0.12068,-0.121142,2.04714,22,-0.00311406,10,-0.000247994,-2.68885,0.0267542,2.20527,412.65,-0.121142,
2,1,0,1,1,42572.7,-0.116685,-0.117162,3.6628,22,-0.00310246,10,-0.000429142,-2.43619,0.0127751,4.61835,401.011,-0.117162,
2,1,0,1,1,42572.7,-0.112689,-0.113174,5.24243,22,-0.00308449,10,-0.000593305,-2.28047,0.0263237,2.24133,390.015,-0.113174,
2,1,0,1,1,42572.7,-0.108694,-0.109195,6.77622,22,-0.00306029,10,-0.00073993,-2.16901,0.0376101,1.56873,381.521,-0.109195,
2,1,0,1,1,42572.7,-0.104699,-0.105173,8.27517,22,-0.00303003,10,-0.000870324,-2.08222,0.0486725,1.21218,371.334,-0.105173,
2,1,0,1,1,42572.7,-0.100654,-0.101106,9.78836,22,-0.00299371,10,-0.000989665,-2.00929,0.0595393,0.990942,363.176,-0.1011064,
2,1,0,1,1,42572.7,-0.0966588,-0.0971203,11.2036,22,-0.00295157,10,-0.0010881,-1.95064,0.0704421,0.837568,355.476,-0.09712033,
2,1,0,1,1,42572.8,-0.0926637,-0.093147,12.6045,22,-0.0029038,10,-0.00117407,-1.89947,0.0822998,0.716892,345.399,-0.093147,
2,1,0,1,1,42572.8,-0.0886685,-0.0891546,13.9693,22,-0.00285052,10,-0.00124543,-1.85482,0.0934663,0.631243,338.241,-0.0891546,
2,1,0,1,1,42572.8,-0.0846733,-0.0851112,15.3131,22,-0.00279181,10,-0.00130331,-1.81494,0.105606,0.558679,328.986,-0.0851112,
2,1,0,1,1,42572.8,-0.0806781,-0.0811368,16.6099,22,-0.00272783,10,-0.00134767,-1.77963,0.1175,0.502127,321.693,-0.0811368,
2,1,0,1,1,42572.8,-0.076683,-0.0771126,17.8796,22,-0.00265871,10,-0.00137874,-1.74764,0.129844,0.454393,314.005,-0.07711257,
2,1,0,1,1,42572.8,-0.0726878,-0.0731042,19.1326,22,-0.00258454,10,-0.00139868,-1.71823,0.142344,0.41449,306.747,-0.0731042,
2,1,0,1,1,42572.8,-0.0686926,-0.0691086,20.338,22,-0.00250548,10,-0.00140553,-1.69169,0.153628,0.384045,302.917,-0.06910862,
2,1,0,1,1,42572.8,-0.0646974,-0.0651035,21.5281,22,-0.00242161,10,-0.00140155,-1.66699,0.167904,0.351391,293.479,-0.0651035,
2,1,0,1,1,42572.8,-0.0606523,-0.0610813,22.7358,22,-0.00233299,10,-0.00138873,-1.64329,0.180612,0.326667,287.635,-0.0610813,
2,1,0,1,1,42572.8,-0.0566571,-0.0570613,23.8409,22,-0.00223973,10,-0.00136039,-1.62268,0.19476,0.302937,280.209,-0.0570613,
2,1,0,1,1,42572.8,-0.052662,-0.0531018,24.9421,22,-0.00214205,10,-0.00132447,-1.60307,0.211586,0.278846,270.28,-0.0531018,
2,1,0,1,1,42572.8,-0.0486668,-0.0490892,26.0154,22,-0.00204004,10,-0.00127708,-1.58477,0.224625,0.26266,265.554,-0.0490892,
2,1,0,1,1,42572.8,-0.0446716,-0.0450745,27.0621,22,-0.00193376,10,-0.00121981,-1.56764,0.240769,0.245048,257.77,-0.0450745,
2,1,0,1,1,42572.8,-0.0406764,-0.0410736,28.0865,22,-0.00182335,10,-0.00115361,-1.5515,0.256767,0.22978,250.888,-0.0410736,
2,1,0,1,1,42572.8,-0.0366813,-0.0370854,29.0707,22,-0.00170895,10,-0.0010781,-1.53655,0.272048,0.216873,245.269,-0.0370854,
2,1,0,1,1,42572.8,-0.0326861,-0.0330675,30.0351,22,-0.00159062,10,-0.000993186,-1.52237,0.288527,0.204487,239.027,-0.03306751,
2,1,0,1,1,42572.8,-0.0286909,-0.0290889,30.9829,22,-0.00146848,10,-0.000901257,-1.50888,0.304133,0.193994,233.976,-0.02908886,
2,1,0,1,1,42572.8,-0.0246957,-0.0251314,31.8971,22,-0.00134262,10,-0.00080162,-1.49625,0.321992,0.183234,227.562,-0.0251314,
2,1,0,1,1,42572.8,-0.0206756,-0.0210892,32.8134,22,-0.00121312,10,-0.000692006,-1.48395,0.343265,0.171879,219.432,-0.0210892,
2,1,0,1,1,42572.8,-0.0166554,-0.0170564,33.6786,22,-0.00108001,10,-0.000574436,-1.47265,0.36346,0.162329,212.733,-0.0170564,
2,1,0,1,1,42572.8,-0.0126603,-0.0130364,34.5053,22,-0.000943538,10,-0.000449826,-1.46211,0.385291,0.153131,205.777,-0.0130364,
2,1,0,1,1,42572.8,-0.0086651,-0.00903975,35.3203,22,-0.000803804,10,-0.000319287,-1.45198,0.406711,0.145066,199.383,-0.00903975,
2,1,0,1,1,42572.8,-0.00466992,-0.0050961,36.1044,22,-0.000660871,10,-0.000183991,-1.44244, , , ,-0.0050961,
2,1,0,1,1,42572.8,-0.000974387,-0.00138785,36.8026,22,-0.000525964,10,-5.10766e-05,-1.43412, , , ,-0.00138785,
2,1,0,0,1,42572.8,-0.000175352,-0.000516197,36.9488,22,-0.000496483,10,-1.90729e-05,-1.4324, , , ,-0.000516197,