File: Figure_codes/Fig_3-5/rawdata_trumpetplot_data/after 10th/20221101_1-115_003_TrumpetPlot_ParaChange_from10_every3_12_CV_C01_24.csv
mode,ox/red,error,control changes,counter inc.,time/s,control/V,Ewe/V,<I>/mA,cycle number,(Q-Qo)/C,I Range,P/W,log(|I|),Tafel slope mV/dec,alpha_eff,dI/d(E-IR),E-IR/V,
2,1,0,1,0,48479.7,2.44065e-05,-0.000325324,14.972,25,0.0000000E+000,10,-4.87075e-06,-1.82472, , , ,-0.000325324,
2,1,0,1,0,48479.7,0.00200257,0.00156856,15.8442,25,4.81525e-05,10,2.48527e-05,-1.80013, , , ,0.00156856,
2,1,0,1,0,48479.7,0.004408,0.00406158,16.6132,25,0.000113205,10,6.74758e-05,-1.77955, , , ,0.00406158,
2,1,0,1,0,48479.7,0.0068051,0.00647824,17.2254,25,0.000180952,10,0.000111591,-1.76383,0.154662,0.381477,253.713,0.00647824,
2,1,0,1,0,48479.7,0.00920221,0.00884401,17.7856,25,0.000251048,10,0.000157296,-1.74993,0.180347,0.327148,225.661,0.00884401,
2,1,0,1,0,48479.7,0.0115993,0.0112395,18.2979,25,0.000323288,10,0.000205658,-1.7376,0.199108,0.296322,210.606,0.0112395,
2,1,0,1,0,48479.7,0.0140075,0.0136646,18.7802,25,0.000397497,10,0.000256625,-1.7263,0.220706,0.267325,195.14,0.0136646,
2,1,0,1,0,48479.7,0.0164046,0.0160166,19.2343,25,0.000473582,10,0.000308068,-1.71592,0.239564,0.246281,184.321,0.0160166,
2,1,0,1,0,48479.7,0.0188017,0.0184205,19.6544,25,0.000551409,10,0.000362044,-1.70654,0.256594,0.229935,175.998,0.0184205,
2,1,0,1,0,48479.7,0.0212099,0.0209284,20.0837,25,0.000630921,10,0.00042032,-1.69716,0.278462,0.211878,165.542,0.0209284,
2,1,0,1,0,48479.7,0.023607,0.0232634,20.4696,25,0.000712072,10,0.000476193,-1.68889,0.294862,0.200094,159.394,0.0232634,
2,1,0,1,0,48479.7,0.0260041,0.0256345,20.8264,25,0.000794707,10,0.000533875,-1.68138,0.313127,0.188422,152.988,0.0256345,
2,1,0,1,0,48479.7,0.0284012,0.0280416,21.1879,25,0.000878774,10,0.000594143,-1.67391,0.331238,0.17812,147.124,0.02804161,
2,1,0,1,0,48479.7,0.0308067,0.0304657,21.5428,25,0.000964284,10,0.000656317,-1.6667,0.346808,0.170123,142.796,0.0304657,
2,1,0,1,0,48479.7,0.0332038,0.0328156,21.8749,25,0.00105116,10,0.000717839,-1.66005,0.364362,0.161927,138.052,0.0328156,
2,1,0,1,0,48479.7,0.0356009,0.0352757,22.2032,25,0.00113936,10,0.000783232,-1.65359,0.382786,0.154133,133.407,0.0352757,
2,1,0,1,0,48479.7,0.0380091,0.0376637,22.5163,25,0.00122882,10,0.000848047,-1.6475,0.399794,0.147576,129.559,0.0376637,
2,1,0,1,0,48479.7,0.0404062,0.0400772,22.8251,25,0.00131953,10,0.000914765,-1.64159,0.411455,0.143393,127.648,0.0400772,
2,1,0,1,0,48479.7,0.0428033,0.042478,23.1268,25,0.00141145,10,0.000982379,-1.63588,0.421793,0.139879,126.188,0.04247798,
2,1,0,1,0,48479.7,0.0452032,0.0448671,23.4275,25,0.00150459,10,0.00105112,-1.63027,0.439881,0.134127,122.526,0.04486708,
2,1,0,1,0,48479.7,0.0476058,0.0472424,23.725,25,0.00159894,10,0.00112082,-1.62479,0.452666,0.130339,120.552,0.0472424,
2,1,0,1,0,48479.7,0.0500029,0.0496569,23.9988,25,0.00169443,10,0.00119171,-1.61981,0.460236,0.128195,120.067,0.0496569,
2,1,0,1,0,48479.7,0.0524,0.0520545,24.2813,25,0.00179101,10,0.00126395,-1.61473,0.471792,0.125055,118.543,0.0520545,
2,1,0,1,0,48479.7,0.0548082,0.0544585,24.5791,25,0.00188876,10,0.00133854,-1.60943,0.474844,0.124251,119.121,0.0544585,
2,1,0,1,0,48479.7,0.0572053,0.0568348,24.8621,25,0.00198768,10,0.00141303,-1.60446,0.482611,0.122252,118.542,0.0568348,
2,1,0,1,0,48479.8,0.0596024,0.0592441,25.1409,25,0.00208771,10,0.00148945,-1.59962,0.49606,0.118937,116.667,0.0592441,
2,1,0,1,0,48479.8,0.0620051,0.0616533,25.4191,25,0.00218887,10,0.00156717,-1.59484,0.500235,0.117945,117.001,0.0616533,
2,1,0,1,0,48479.8,0.0644077,0.0640456,25.6976,25,0.00229114,10,0.00164582,-1.59011,0.499647,0.118083,118.456,0.0640456,
2,1,0,1,0,48479.8,0.0668048,0.0664124,25.9827,25,0.00239452,10,0.00172557,-1.58532,0.501501,0.117647,119.322,0.0664124,
2,1,0,1,0,48479.8,0.0692019,0.068828,26.2761,25,0.00249907,10,0.00180853,-1.58044,0.509614,0.115774,118.669,0.068828,
2,1,0,1,0,48479.8,0.0716074,0.0712617,26.5656,25,0.00260478,10,0.00189311,-1.57568,0.518521,0.113785,117.876,0.0712617,
2,1,0,1,0,48479.8,0.0740045,0.0736624,26.8388,25,0.00271161,10,0.00197701,-1.57124,0.52072,0.113305,118.687,0.0736624,
2,1,0,1,0,48479.8,0.0764016,0.0760133,27.1144,25,0.00281955,10,0.00206106,-1.5668,0.523292,0.112748,119.402,0.0760133,
2,1,0,1,0,48479.8,0.0788042,0.0784056,27.4129,25,0.00292863,10,0.00214932,-1.56205,0.516955,0.11413,122.117,0.0784056,
2,1,0,1,0,48479.8,0.0812069,0.0808774,27.7137,25,0.00303893,10,0.00224142,-1.5573,0.522354,0.11295,122.1,0.0808774,
2,1,0,1,0,48479.8,0.083604,0.0831923,28.0026,25,0.00315038,10,0.0023296,-1.5528,0.526785,0.112,122.379,0.0831923,
2,1,0,1,0,48479.8,0.0860011,0.0856577,28.292,25,0.003263,10,0.00242343,-1.54834,0.532049,0.110892,122.454,0.0856577,
2,1,0,1,0,48479.8,0.0884065,0.0880352,28.5913,25,0.00337681,10,0.00251704,-1.54377,0.535891,0.110097,122.855,0.0880352,
2,1,0,1,0,48479.8,0.0908036,0.0904359,28.8842,25,0.00349177,10,0.00261217,-1.53934,0.531538,0.110999,125.141,0.09043593,
2,1,0,1,0,48479.8,0.0932007,0.0928643,29.1908,25,0.00360795,10,0.00271078,-1.53475,0.538312,0.109602,124.838,0.09286426,
2,1,0,1,0,48479.8,0.0956034,0.0952512,29.4925,25,0.00372536,10,0.0028092,-1.53029,0.540143,0.10923,125.686,0.09525124,
2,1,0,1,0,48479.8,0.098006,0.0976191,29.7878,25,0.00384395,10,0.00290786,-1.52596,0.548117,0.107641,125.128,0.0976191,
2,1,0,1,0,48479.8,0.100403,0.100038,30.0911,25,0.00396374,10,0.00301025,-1.52156,0.538614,0.10954,128.696,0.100038,
2,1,0,1,0,48479.8,0.1028,0.102442,30.3893,25,0.00408471,10,0.00311313,-1.51728,0.539218,0.109418,129.844,0.102442,
2,1,0,1,0,48479.8,0.105208,0.104821,30.7242,25,0.00420698,10,0.00322055,-1.51252,0.547834,0.107697,129.063,0.1048214,
2,1,0,1,0,48479.8,0.107606,0.107219,31.0343,25,0.00433053,10,0.00332746,-1.50816,0.544439,0.108368,131.166,0.107219,
2,1,0,1,0,48479.8,0.110003,0.109646,31.3311,25,0.00445529,10,0.00343534,-1.50402,0.566355,0.104175,127.386,0.109646,
2,1,0,1,0,48479.8,0.112408,0.112029,31.6468,25,0.00458127,10,0.00354535,-1.49967,0.569763,0.103552,127.894,0.112029,
2,1,0,1,0,48479.8,0.114805,0.114435,31.9488,25,0.0047085,10,0.00365606,-1.49555,0.564295,0.104555,130.366,0.114435,
2,1,0,1,0,48479.8,0.117202,0.116861,32.2675,25,0.00483696,10,0.00377081,-1.49124,0.579065,0.101888,128.266,0.116861,
2,1,0,1,0,48479.9,0.119599,0.119185,32.5746,25,0.00496668,10,0.00388239,-1.48712,0.567344,0.103993,132.213,0.119185,
2,1,0,1,0,48479.9,0.122008,0.121604,32.875,25,0.00509762,10,0.00399774,-1.48313,0.559298,0.105489,135.488,0.121604,
2,1,0,1,0,48479.9,0.124405,0.123991,33.2123,25,0.00522981,10,0.00411804,-1.4787,0.549473,0.107376,139.302,0.123991,
2,1,0,1,0,48479.9,0.126802,0.126408,33.5609,25,0.00536338,10,0.00424237,-1.47417,0.529308,0.111466,146.049,0.1264081,
2,1,0,1,0,48479.9,0.129207,0.128833,33.9187,25,0.00549836,10,0.00436986,-1.46956,0.533544,0.110581,146.363,0.128833,
2,1,0,1,0,48479.9,0.131604,0.131233,34.2812,25,0.00563481,10,0.00449882,-1.46494,0.533872,0.110513,147.79,0.131233,
2,1,0,1,0,48479.9,0.134001,0.133654,34.6265,25,0.00577266,10,0.00462796,-1.46059,0.531704,0.110964,149.987,0.133654,
2,1,0,1,0,48479.9,0.136399,0.136021,34.9816,25,0.0059119,10,0.00475822,-1.45616,0.535217,0.110236,150.574,0.136021,
2,1,0,1,0,48479.9,0.138807,0.138443,35.36,25,0.00605262,10,0.00489533,-1.45149,0.52601,0.112165,154.798,0.138443,
2,1,0,1,0,48479.9,0.141204,0.140841,35.728,25,0.00619483,10,0.00503197,-1.44699,0.527655,0.111816,155.915,0.140841,
2,1,0,1,0,48479.9,0.143601,0.143231,36.1091,25,0.00633852,10,0.00517196,-1.44238,0.533849,0.110518,155.724,0.143231,
2,1,0,1,0,48479.9,0.146009,0.145677,36.4871,25,0.00648374,10,0.00531532,-1.43786,0.536237,0.110026,156.62,0.145677,
2,1,0,1,0,48479.9,0.148406,0.148069,36.859,25,0.00663045,10,0.00545768,-1.43346,0.542628,0.10873,156.387,0.148069,
2,1,0,1,0,48479.9,0.150803,0.15044,37.2313,25,0.00677866,10,0.00560108,-1.42909,0.547768,0.10771,156.518,0.1504401,
2,1,0,1,0,48479.9,0.153206,0.152826,37.6096,25,0.00692838,10,0.00574772,-1.4247,0.55732,0.105864,155.336,0.152826,
2,1,0,1,0,48479.9,0.155606,0.15529,37.9918,25,0.00707962,10,0.00589976,-1.42031,0.573184,0.102934,152.484,0.1552904,
2,1,0,1,0,48479.9,0.158003,0.157643,38.3463,25,0.00723234,10,0.00604504,-1.41628,0.586213,0.100646,150.548,0.157643,
2,1,0,1,0,48479.9,0.1604,0.160033,38.694,25,0.00738645,10,0.0061923,-1.41236,0.607139,0.097177,146.731,0.160033,
2,1,0,1,0,48479.9,0.162808,0.162428,39.0551,25,0.00754198,10,0.00634364,-1.40832,0.630453,0.0935835,142.544,0.162428,
2,1,0,1,0,48479.9,0.165205,0.164862,39.3962,25,0.00769892,10,0.00649492,-1.40455,0.645379,0.0914192,140.445,0.1648616,
2,1,0,1,0,48479.9,0.167602,0.167276,39.7194,25,0.00785718,10,0.00664411,-1.401,0.68492,0.0861415,133.44,0.167276,
2,1,0,1,0,48479.9,0.170008,0.169637,40.0429,25,0.00801674,10,0.00679274,-1.39747,0.716822,0.0823077,128.506,0.169637,
2,1,0,1,0,48479.9,0.172405,0.172034,40.337,25,0.00817754,10,0.00693934,-1.3943,0.759774,0.0776547,122.139,0.1720342,
2,1,0,1,0,48479.9,0.174802,0.174394,40.6211,25,0.00833949,10,0.00708407,-1.39125,0.823282,0.0716644,113.512,0.174394,
2,1,0,1,0,48479.9,0.177199,0.17686,40.89,25,0.00850254,10,0.0072318,-1.38838,0.893488,0.0660334,105.25,0.17686,
2,1,0,1,0,48480,0.179607,0.179249,41.134,25,0.00866662,10,0.00737324,-1.3858,1.00648,0.05862,93.9667,0.1792492,
2,1,0,1,0,48480,0.182005,0.181651,41.3491,25,0.00883161,10,0.00751111,-1.38353,1.13425,0.0520165,83.8215,0.181651,
2,1,0,1,0,48480,0.184402,0.184063,41.5298,25,0.00899739,10,0.00764411,-1.38164,1.369,0.043097,69.7489,0.184063,
2,1,0,1,0,48480,0.18681,0.186448,41.6937,25,0.00916383,10,0.00777371,-1.37993,1.73366,0.034032,55.2707,0.186448,
2,1,0,1,0,48480,0.189207,0.188889,41.8064,25,0.00933084,10,0.00789678,-1.37876,2.37114,0.0248825,40.5171,0.188889,
2,1,0,1,0,48480,0.191604,0.191269,41.8807,25,0.00949823,10,0.00801048,-1.37799,3.97823,0.0148307,24.1995,0.191269,
2,1,0,1,0,48480,0.194001,0.19364,41.9178,25,0.00966584,10,0.00811696,-1.3776,13.1036,0.00450259,7.35248,0.19364,
2,1,0,1,0,48480,0.196407,0.196069,41.9265,25,0.00983356,10,0.0082205,-1.37751,-11.5631,-0.00510242,-8.33184,0.196069,
2,1,0,1,0,48480,0.198804,0.198449,41.8767,25,0.0100012,10,0.00831038,-1.37803,-4.07662,-0.0144728,-23.612,0.198449,
2,1,0,1,0,48480,0.201201,0.200837,41.801,25,0.0101685,10,0.00839519,-1.37881,-2.2431,-0.0263029,-42.8267,0.200837,
2,1,0,1,0,48480,0.203609,0.203276,41.6903,25,0.0103355,10,0.00847462,-1.37997,-1.65094,-0.0357372,-58.0156,0.203276,
2,1,0,1,0,48480,0.206006,0.205684,41.5147,25,0.0105019,10,0.00853892,-1.3818,-1.25772,-0.0469102,-75.8564,0.205684,
2,1,0,1,0,48480,0.208403,0.208076,41.3182,25,0.0106676,10,0.00859733,-1.38386,-1.02177,-0.0577429,-92.9354,0.208076,
2,1,0,1,0,48480,0.210803,0.210473,41.0701,25,0.0108323,10,0.00864413,-1.38647,-0.868754,-0.0679134,-108.646,0.210473,
2,1,0,1,0,48480,0.213206,0.21293,40.7931,25,0.010996,10,0.00868606,-1.38941,-0.738296,-0.0799137,-126.955,0.21293,
2,1,0,1,0,48480,0.215603,0.215271,40.4731,25,0.0111585,10,0.00871269,-1.39283,-0.663531,-0.0889183,-140.171,0.215271,
2,1,0,1,0,48480,0.218,0.217665,40.1009,25,0.0113197,10,0.00872854,-1.39685,-0.587763,-0.100381,-156.848,0.217665,
2,1,0,1,0,48480,0.220408,0.220083,39.7229,25,0.0114793,10,0.00874236,-1.40096,-0.538458,-0.109572,-169.551,0.220083,
2,1,0,1,0,48480,0.222805,0.222506,39.291,25,0.0116373,10,0.0087425,-1.40571,-0.500428,-0.117899,-180.488,0.222506,
2,1,0,1,0,48480,0.225202,0.22492,38.8372,25,0.0117935,10,0.00873525,-1.41075,-0.458771,-0.128604,-194.645,0.22492,
2,1,0,1,0,48480,0.227605,0.227289,38.3638,25,0.0119478,10,0.00871967,-1.41608,-0.431559,-0.136714,-204.369,0.227289,
2,1,0,1,0,48480,0.230008,0.22968,37.855,25,0.0121002,10,0.00869454,-1.42188,-0.405878,-0.145364,-214.476,0.22968,
2,1,0,1,0,48480,0.232405,0.232088,37.3328,25,0.0122505,10,0.0086645,-1.42791,-0.390187,-0.151209,-220.113,0.232088,
2,1,0,1,0,48480,0.234802,0.234452,36.7928,25,0.0123987,10,0.00862614,-1.43424,-0.376314,-0.156784,-224.957,0.234452,
2,1,0,1,0,48480,0.237207,0.236869,36.2552,25,0.0125448,10,0.00858772,-1.44063,-0.363728,-0.162209,-229.296,0.236869,
2,1,0,1,0,48480.1,0.239604,0.239277,35.6962,25,0.0126886,10,0.00854126,-1.44738,-0.355785,-0.165831,-230.862,0.239277,
2,1,0,1,0,48480.1,0.242002,0.24169,35.1311,25,0.0128302,10,0.00849084,-1.45431,-0.348127,-0.169478,-232.344,0.2416902,
2,1,0,1,0,48480.1,0.244404,0.244063,34.5738,25,0.0129696,10,0.00843821,-1.46125,-0.341748,-0.172642,-232.905,0.244063,
2,1,0,1,0,48480.1,0.246807,0.246471,34.0242,25,0.0131067,10,0.00838597,-1.46821,-0.338048,-0.174531,-231.664,0.2464705,
2,1,0,1,0,48480.1,0.249204,0.248865,33.463,25,0.0132416,10,0.00832777,-1.47543,-0.338509,-0.174294,-227.652,0.248865,
2,1,0,1,0,48480.1,0.251601,0.251255,32.9153,25,0.0133743,10,0.00827012,-1.4826,-0.335646,-0.17578,-225.869,0.251255,
2,1,0,1,0,48480.1,0.254006,0.253676,32.3855,25,0.0135049,10,0.00821543,-1.48965,-0.339643,-0.173712,-219.593,0.253676,
2,1,0,1,0,48480.1,0.256404,0.2561,31.8492,25,0.0136333,10,0.00815659,-1.4969,-0.340092,-0.173482,-215.766,0.2561,
2,1,0,1,0,48480.1,0.258801,0.258522,31.3424,25,0.0137596,10,0.0081027,-1.50387,-0.341917,-0.172556,-211.213,0.258522,
2,1,0,1,0,48480.1,0.261203,0.260852,30.8446,25,0.013884,10,0.00804587,-1.51082,-0.345083,-0.170973,-205.895,0.260852,
2,1,0,1,0,48480.1,0.263606,0.26325,30.3633,25,0.0140064,10,0.00799314,-1.51765,-0.349029,-0.169041,-200.38,0.26325,
2,1,0,1,0,48480.1,0.266003,0.265637,29.8855,25,0.0141268,10,0.00793872,-1.52454,-0.35822,-0.164703,-192.251,0.265637,
2,1,0,1,0,48480.1,0.2684,0.268088,29.4256,25,0.0142454,10,0.00788864,-1.53128,-0.364482,-0.161874,-186.105,0.268088,
2,1,0,1,0,48480.1,0.270808,0.270484,28.9927,25,0.0143622,10,0.00784208,-1.53771,-0.371158,-0.158962,-179.974,0.270484,
2,1,0,1,0,48480.1,0.273205,0.27287,28.573,25,0.0144773,10,0.00779671,-1.54404,-0.38191,-0.154487,-172.369,0.27287,
2,1,0,1,0,48480.1,0.275603,0.275268,28.1523,25,0.0145907,10,0.00774942,-1.55049,-0.385611,-0.153004,-168.253,0.275268,
2,1,0,1,0,48480.1,0.278008,0.277698,27.769,25,0.0147025,10,0.00771141,-1.55644,-0.392569,-0.150292,-162.971,0.277698,
2,1,0,1,0,48480.1,0.280405,0.280087,27.377,25,0.0148127,10,0.00766795,-1.56261,-0.407586,-0.144755,-154.8,0.280087,
2,1,0,1,0,48480.1,0.282802,0.282451,27.0116,25,0.0149214,10,0.00762945,-1.56845,-0.41481,-0.142234,-150.117,0.282451,
2,1,0,1,0,48480.1,0.285199,0.284881,26.6643,25,0.0150288,10,0.00759613,-1.57407,-0.427252,-0.138092,-143.801,0.284881,
2,1,0,1,0,48480.1,0.287607,0.28728,26.3306,25,0.0151347,10,0.00756427,-1.57954,-0.44198,-0.13349,-137.246,0.28728,
2,1,0,1,0,48480.1,0.290005,0.28966,26.0005,25,0.0152393,10,0.00753129,-1.58502,-0.449131,-0.131365,-133.404,0.2896598,
2,1,0,1,0,48480.1,0.292402,0.292093,25.6882,25,0.0153427,10,0.00750335,-1.59027,-0.463459,-0.127304,-127.732,0.292093,
2,1,0,1,0,48480.1,0.294807,0.294445,25.3883,25,0.0154448,10,0.00747546,-1.59537,-0.477771,-0.12349,-122.496,0.2944454,
2,1,0,1,0,48480.1,0.297204,0.296927,25.0985,25,0.0155457,10,0.0074524,-1.60035,-0.481732,-0.122475,-120.588,0.296927,
2,1,0,1,0,48480.1,0.299421,0.299113,24.8424,25,0.0156381,10,0.0074307,-1.60481,-0.122154,-0.482999,-458.509,0.299113,
2,1,0,0,0,48480.2,0.300012,0.29967,24.7745,25,0.0156629,10,0.00742419,-1.60599,0.00343882,17.157,14971.8,0.29967,
2,1,0,1,0,48480.2,0.299243,0.299021,23.2903,25,0.0156935,10,0.00696429,-1.63283,0.030677,1.92327,1558.2,0.299021,
2,1,0,1,0,48480.2,0.296846,0.296575,19.8279,25,0.0157791,10,0.00588047,-1.70272,0.0355975,1.65742,1254.93,0.296575,
2,1,0,1,0,48480.2,0.294449,0.294177,17.1507,25,0.0158526,10,0.00504536,-1.76572,0.0373255,1.58069,1083,0.294177,
2,1,0,1,0,48480.2,0.292041,0.291775,14.8671,25,0.0159164,10,0.00433784,-1.82777,0.0377437,1.56318,915.169,0.291775,
2,1,0,1,0,48480.2,0.289644,0.289381,12.85,25,0.0159715,10,0.00371853,-1.8911,0.0366859,1.60825,808.34,0.289381,
2,1,0,1,0,48480.2,0.287247,0.286961,11.0298,25,0.0160191,10,0.00316513,-1.95743,0.0348485,1.69304,726.995,0.286961,
2,1,0,1,0,48480.2,0.284841,0.284568,9.3831,25,0.0160597,10,0.00267013,-2.02765,0.0324391,1.81879,661.778,0.284568,
2,1,0,1,0,48480.2,0.282444,0.282156,7.87415,25,0.016094,10,0.00222174,-2.1038,0.0297538,1.98294,601.934,0.282156,
2,1,0,1,0,48480.2,0.280047,0.2798,6.50961,25,0.0161226,10,0.00182139,-2.18644,0.0265162,2.22506,551.421,0.2798,
2,1,0,1,0,48480.2,0.27765,0.27734,5.23857,25,0.0161459,10,0.00145287,-2.28079,0.0227549,2.59285,508.728,0.27734,
2,1,0,1,0,48480.2,0.275242,0.274903,4.05386,25,0.0161644,10,0.00111442,-2.39213,0.0184622,3.19572,471.894,0.274903,
2,1,0,1,0,48480.2,0.272845,0.27251,2.96667,25,0.0161783,10,0.000808446,-2.52773,0.0134508,4.38634,439.105,0.27251,
2,1,0,1,0,48480.2,0.270448,0.270141,1.95149,25,0.016188,10,0.000527177,-2.70963,0.00641259,9.20065,410.365,0.270141,
2,1,0,1,0,48480.2,0.268039,0.267701,1.00599,25,0.0161938,10,0.000269305,-2.9974,0.0152132,3.8782,384.013,0.267701,
2,1,0,1,0,48480.2,0.265642,0.265344,0.130955,25,0.016196,10,3.47482e-05,-3.88288,0.0785872,0.750759,356.063,0.265344,
2,0,0,1,0,48480.2,0.263245,0.262963,-0.699419,25,0.0161948,10,-0.000183921,-3.15526,-0.0280956,-2.09997,335.923,0.262963,
2,0,0,1,0,48480.2,0.260843,0.260525,-1.47234,25,0.0161903,10,-0.000383581,-2.83199,-0.00713344,-8.27091,314.765,0.260525,
2,0,0,1,0,48480.2,0.258443,0.258161,-2.19851,25,0.0161829,10,-0.000567571,-2.65787,-0.0136923,-4.30899,293.396,0.258161,
2,0,0,1,0,48480.2,0.256046,0.255764,-2.8844,25,0.0161726,10,-0.000737726,-2.53994,-0.0213523,-2.76317,278.389,0.255764,
2,0,0,1,0,48480.2,0.253649,0.253358,-3.51754,25,0.0161598,10,-0.000891195,-2.45376,-0.0289836,-2.03564,261.972,0.253358,
2,0,0,1,0,48480.2,0.25124,0.250931,-4.14336,25,0.0161444,10,-0.00103969,-2.38265,-0.0369327,-1.5975,246.378,0.250931,
2,0,0,1,0,48480.2,0.248843,0.248563,-4.71313,25,0.0161266,10,-0.00117151,-2.32669,-0.0446323,-1.32191,234.92,0.248563,
2,0,0,1,0,48480.2,0.246446,0.246143,-5.25482,25,0.0161066,10,-0.00129344,-2.27944,-0.0537796,-1.09707,219.526,0.246143,
2,0,0,1,0,48480.2,0.244041,0.243746,-5.77548,25,0.0160845,10,-0.00140775,-2.23841,-0.0621082,-0.949954,209.856,0.2437463,
2,0,0,1,0,48480.2,0.241644,0.241307,-6.2559,25,0.0160604,10,-0.00150959,-2.20371,-0.0710404,-0.830514,199.86,0.241307,
2,0,0,1,0,48480.3,0.239246,0.238966,-6.72706,25,0.0160344,10,-0.00160754,-2.17217,-0.080684,-0.731248,189.713,0.238966,
2,0,0,1,0,48480.3,0.236849,0.236524,-7.17726,25,0.0160065,10,-0.00169759,-2.14404,-0.0894035,-0.65993,182.667,0.2365239,
2,0,0,1,0,48480.3,0.234441,0.23411,-7.60354,25,0.0159769,10,-0.00178007,-2.11898,-0.100949,-0.584453,171.641,0.23411,
2,0,0,1,0,48480.3,0.232044,0.231756,-8.00057,25,0.0159457,10,-0.00185418,-2.09688,-0.110626,-0.53333,165.324,0.2317563,
2,0,0,1,0,48480.3,0.229647,0.229314,-8.38371,25,0.0159128,10,-0.0019225,-2.07656,-0.120845,-0.488229,158.935,0.229314,
2,0,0,1,0,48480.3,0.227239,0.226944,-8.76102,25,0.0158785,10,-0.00198826,-2.05745,-0.132495,-0.445301,151.312,0.226944,
2,0,0,1,0,48480.3,0.224842,0.224536,-9.12525,25,0.0158427,10,-0.00204895,-2.03976,-0.142834,-0.413068,146.124,0.224536,
2,0,0,1,0,48480.3,0.222445,0.222155,-9.4533,25,0.0158055,10,-0.0021001,-2.02442,-0.156186,-0.377754,138.821,0.222155,
2,0,0,1,0,48480.3,0.220047,0.219753,-9.7809,25,0.015767,10,-0.00214938,-2.00962,-0.16988,-0.347304,132.161,0.219753,
2,0,0,1,0,48480.3,0.217642,0.217273,-10.1035,25,0.0157272,10,-0.00219523,-1.99553,-0.179611,-0.328487,128.997,0.217273,
2,0,0,1,0,48480.3,0.215245,0.214862,-10.4038,25,0.0156862,10,-0.00223538,-1.98281,-0.190388,-0.309893,125.468,0.214862,
2,0,0,1,0,48480.3,0.212848,0.212515,-10.6969,25,0.0156439,10,-0.00227324,-1.97074,-0.20364,-0.289727,120.63,0.212515,
2,0,0,1,0,48480.3,0.21044,0.210106,-10.9912,25,0.0156005,10,-0.00230932,-1.95895,-0.213493,-0.276356,118.176,0.210106,
2,0,0,1,0,48480.3,0.208043,0.207735,-11.2542,25,0.015556,10,-0.00233788,-1.94869,-0.22776,-0.259045,113.555,0.207735,
2,0,0,1,0,48480.3,0.205645,0.205334,-11.5297,25,0.0155104,10,-0.00236745,-1.93818,-0.240203,-0.245625,110.348,0.205334,
2,0,0,1,0,48480.3,0.203246,0.20293,-11.7853,25,0.0154637,10,-0.00239159,-1.92866,-0.251354,-0.234728,107.773,0.2029302,
2,0,0,1,0,48480.3,0.200843,0.200532,-12.0477,25,0.015416,10,-0.00241595,-1.91909,-0.26895,-0.219371,102.883,0.200532,
2,0,0,1,0,48480.3,0.198446,0.19812,-12.2904,25,0.0153673,10,-0.00243497,-1.91044,-0.277081,-0.212934,101.96,0.19812,
2,0,0,1,0,48480.3,0.196049,0.195728,-12.5181,25,0.0153177,10,-0.00245013,-1.90246,-0.291424,-0.202454,98.9011,0.195728,
2,0,0,1,0,48480.3,0.19364,0.193306,-12.7666,25,0.0152671,10,-0.00246785,-1.89393,-0.304393,-0.193828,96.433,0.193306,
2,0,0,1,0,48480.3,0.191243,0.190915,-12.9989,25,0.0152156,10,-0.00248167,-1.88609,-0.309889,-0.190391,96.4232,0.190915,
2,0,0,1,0,48480.3,0.188846,0.188511,-13.217,25,0.0151631,10,-0.00249155,-1.87887,-0.329163,-0.179243,92.3722,0.188511,
2,0,0,1,0,48480.3,0.186444,0.186095,-13.4469,25,0.0151098,10,-0.0025024,-1.87138,-0.339619,-0.173724,91.0625,0.186095,
2,0,0,1,0,48480.3,0.184041,0.183707,-13.6532,25,0.0150556,10,-0.0025082,-1.86476,-0.343437,-0.171793,91.5245,0.183707,
2,0,0,1,0,48480.3,0.181644,0.181315,-13.8731,25,0.0150005,10,-0.00251539,-1.85783,-0.353498,-0.166903,90.3776,0.181315,
2,0,0,1,0,48480.4,0.179247,0.178922,-14.0947,25,0.0149445,10,-0.00252184,-1.85094,-0.357572,-0.165002,90.6992,0.178922,
2,0,0,1,0,48480.4,0.176841,0.176522,-14.3121,25,0.0148877,10,-0.0025264,-1.8443,-0.366931,-0.160793,89.7265,0.176522,
2,0,0,1,0,48480.4,0.174444,0.174091,-14.5254,25,0.01483,10,-0.00252874,-1.83787,-0.375866,-0.156971,88.94,0.1740914,
2,0,0,1,0,48480.4,0.172047,0.171736,-14.7325,25,0.0147715,10,-0.00253011,-1.83172,-0.374022,-0.157745,90.762,0.171736,
2,0,0,1,0,48480.4,0.169644,0.169302,-14.9503,25,0.0147121,10,-0.00253111,-1.82535,-0.382336,-0.154315,90.0607,0.169302,
2,0,0,1,0,48480.4,0.167242,0.166933,-15.1824,25,0.0146518,10,-0.00253444,-1.81866,-0.378038,-0.156069,92.409,0.1669326,
2,0,0,1,0,48480.4,0.164845,0.164475,-15.3915,25,0.0145906,10,-0.00253151,-1.81272,-0.377787,-0.156173,93.8372,0.164475,
2,0,0,1,0,48480.4,0.162448,0.162137,-15.6195,25,0.0145286,10,-0.00253251,-1.80633,-0.386977,-0.152464,92.9701,0.162137,
2,0,0,1,0,48480.4,0.160042,0.159709,-15.8504,25,0.0144656,10,-0.00253145,-1.79996,-0.371134,-0.158972,98.3741,0.1597091,
2,0,0,1,0,48480.4,0.157645,0.157326,-16.0755,25,0.0144018,10,-0.0025291,-1.79383,-0.364295,-0.161957,101.765,0.157326,
2,0,0,1,0,48480.4,0.155248,0.154935,-16.3299,25,0.0143369,10,-0.00253008,-1.78702,-0.358985,-0.164352,104.855,0.154935,
2,0,0,1,0,48480.4,0.152845,0.152591,-16.5911,25,0.0142711,10,-0.00253164,-1.78013,-0.345923,-0.170558,110.489,0.152591,
2,0,0,1,0,48480.4,0.150443,0.150131,-16.8547,25,0.0142042,10,-0.00253042,-1.77328,-0.340626,-0.173211,114.033,0.150131,
2,0,0,1,0,48480.4,0.148046,0.147749,-17.1337,25,0.0141362,10,-0.00253149,-1.76615,-0.327939,-0.179912,120.528,0.147749,
2,0,0,1,0,48480.4,0.145648,0.145375,-17.4201,25,0.014067,10,-0.00253244,-1.75895,-0.313249,-0.188349,128.377,0.145375,
2,0,0,1,0,48480.4,0.14324,0.142943,-17.7539,25,0.0139966,10,-0.00253779,-1.75071,-0.300742,-0.196182,136.149,0.142943,
2,0,0,1,0,48480.4,0.140843,0.140515,-18.0892,25,0.0139249,10,-0.0025418,-1.74258,-0.284154,-0.207634,146.834,0.140515,
2,0,0,1,0,48480.4,0.138446,0.1381,-18.4474,25,0.0138518,10,-0.00254759,-1.73407,-0.272673,-0.216376,156.174,0.1381,
2,0,0,1,0,48480.4,0.136041,0.135712,-18.8389,25,0.0137772,10,-0.00255667,-1.72494,-0.260458,-0.226524,166.898,0.135712,
2,0,0,1,0,48480.4,0.133644,0.133331,-19.2549,25,0.013701,10,-0.00256729,-1.71546,-0.247326,-0.238552,179.643,0.133331,
2,0,0,1,0,48480.4,0.131246,0.130918,-19.6909,25,0.0136231,10,-0.00257789,-1.70573,-0.236012,-0.249987,192.642,0.130918,
2,0,0,1,0,48480.4,0.128849,0.128512,-20.1698,25,0.0135433,10,-0.00259207,-1.6953,-0.228736,-0.257939,203.475,0.128512,
2,0,0,1,0,48480.4,0.126441,0.12615,-20.6809,25,0.0134616,10,-0.0026089,-1.68443,-0.219829,-0.26839,216.947,0.1261504,
2,0,0,1,0,48480.4,0.124044,0.123761,-21.2022,25,0.0133778,10,-0.00262402,-1.67362,-0.21262,-0.27749,230.146,0.123761,
2,0,0,1,0,48480.4,0.121647,0.121344,-21.768,25,0.0132918,10,-0.00264141,-1.66218,-0.207822,-0.283896,241.739,0.121344,
2,0,0,1,0,48480.5,0.119241,0.118946,-22.3714,25,0.0132035,10,-0.00266099,-1.65031,-0.203877,-0.289391,252.94,0.118946,
2,0,0,1,0,48480.5,0.116844,0.11657,-22.9969,25,0.0131127,10,-0.00268074,-1.63833,-0.203094,-0.290505,260.717,0.11657,
2,0,0,1,0,48480.5,0.114447,0.114149,-23.6336,25,0.0130193,10,-0.00269775,-1.62647,-0.203808,-0.289488,267.017,0.114149,
2,0,0,1,0,48480.5,0.11205,0.11175,-24.2692,25,0.0129235,10,-0.00271209,-1.61494,-0.206381,-0.285878,270.833,0.1117501,
2,0,0,1,0,48480.5,0.109642,0.109311,-24.9441,25,0.012825,10,-0.00272667,-1.60303,-0.208485,-0.282993,275.331,0.109311,
2,0,0,1,0,48480.5,0.107245,0.106961,-25.5992,25,0.0127238,10,-0.00273812,-1.59177,-0.210966,-0.279666,279.25,0.1069613,
2,0,0,1,0,48480.5,0.104848,0.104566,-26.2721,25,0.01262,10,-0.00274716,-1.58051,-0.218257,-0.270323,276.916,0.104566,
2,0,0,1,0,48480.5,0.10244,0.102158,-26.9479,25,0.0125135,10,-0.00275294,-1.56947,-0.22408,-0.263299,276.459,0.102158,
2,0,0,1,0,48480.5,0.100042,0.0997304,-27.5971,25,0.0124043,10,-0.00275227,-1.55914,-0.232097,-0.254204,273.512,0.0997304,
2,0,0,1,0,48480.5,0.0976454,0.0973636,-28.2526,25,0.0122926,10,-0.00275077,-1.54894,-0.241907,-0.243895,268.597,0.0973636,
2,0,0,1,0,48480.5,0.0952427,0.0949246,-28.9091,25,0.0121782,10,-0.00274419,-1.53897,-0.250882,-0.235171,264.729,0.0949246,
2,0,0,1,0,48480.5,0.0928428,0.0925504,-29.5284,25,0.0120612,10,-0.00273287,-1.52976,-0.260126,-0.226813,260.893,0.0925504,
2,0,0,1,0,48480.5,0.0904457,0.0901708,-30.1278,25,0.0119419,10,-0.00271665,-1.52103,-0.270596,-0.218037,256.322,0.0901708,
2,0,0,1,0,48480.5,0.0880486,0.0878719,-30.7289,25,0.0118201,10,-0.0027002,-1.51245,-0.281058,-0.209921,251.702,0.0878719,
2,0,0,1,0,48480.5,0.0856404,0.0853258,-31.3695,25,0.0116959,10,-0.00267663,-1.50349,-0.290225,-0.203291,248.319,0.08532583,
2,0,0,1,0,48480.5,0.0832433,0.0829304,-31.9498,25,0.0115692,10,-0.00264961,-1.49553,-0.305063,-0.193402,240.622,0.0829304,
2,0,0,1,0,48480.5,0.0808462,0.0806187,-32.4998,25,0.0114402,10,-0.00262009,-1.48812,-0.32628,-0.180826,229.025,0.08061868,
2,0,0,1,0,48480.5,0.0784408,0.0781914,-33.0582,25,0.0113091,10,-0.00258487,-1.48072,-0.3448,-0.171114,220.302,0.0781914,
2,0,0,1,0,48480.5,0.0760437,0.0757546,-33.5615,25,0.0111758,10,-0.00254244,-1.47416,-0.369754,-0.159566,208.622,0.0757546,
2,0,0,1,0,48480.5,0.0736466,0.0733941,-34.0506,25,0.0110405,10,-0.00249912,-1.46787,-0.39337,-0.149986,199.055,0.0733941,
2,0,0,1,0,48480.5,0.0712495,0.0709234,-34.5225,25,0.0109033,10,-0.00244845,-1.4619,-0.415242,-0.142086,191.126,0.0709234,
2,0,0,1,0,48480.5,0.0688413,0.0685767,-34.9721,25,0.0107643,10,-0.00239827,-1.45628,-0.44761,-0.131811,179.576,0.0685767,
2,0,0,1,0,48480.5,0.0664442,0.066194,-35.3888,25,0.0106235,10,-0.00234253,-1.45113,-0.476292,-0.123874,170.807,0.066194,
2,0,0,1,0,48480.5,0.0640471,0.0637593,-35.7808,25,0.0104811,10,-0.00228136,-1.44635,-0.51604,-0.114332,159.443,0.0637593,
2,0,0,1,0,48480.5,0.0616389,0.0613755,-36.1533,25,0.0103372,10,-0.00221893,-1.44185,-0.555591,-0.106193,149.647,0.06137548,
2,0,0,1,0,48480.6,0.0592417,0.0589599,-36.5054,25,0.0101919,10,-0.00215235,-1.43764,-0.592304,-0.099611,141.729,0.0589599,
2,0,0,1,0,48480.6,0.0568446,0.0565125,-36.8376,25,0.0100452,10,-0.00208178,-1.43371,-0.638125,-0.0924584,132.75,0.05651246,
2,0,0,1,0,48480.6,0.0544475,0.0541509,-37.1426,25,0.00989718,10,-0.00201131,-1.43013,-0.701944,-0.0840522,121.663,0.0541509,
2,0,0,1,0,48480.6,0.0520421,0.0517332,-37.4333,25,0.00974798,10,-0.00193655,-1.42674,-0.756001,-0.0780422,113.851,0.0517332,
2,0,0,1,0,48480.6,0.049645,0.0493165,-37.6786,25,0.00959772,10,-0.00185818,-1.4239,-0.82578,-0.0714476,104.973,0.0493165,
2,0,0,1,0,48480.6,0.0472479,0.0469327,-37.9283,25,0.00944648,10,-0.00178008,-1.42104,-0.921595,-0.0640194,94.6594,0.0469327,
2,0,0,1,0,48480.6,0.0448397,0.0445034,-38.1553,25,0.00929429,10,-0.00169804,-1.41844,-1.00958,-0.0584402,86.8821,0.0445034,
2,0,0,1,0,48480.6,0.0424426,0.0421132,-38.344,25,0.00914128,10,-0.00161479,-1.4163,-1.14701,-0.051438,76.8802,0.0421132,
2,0,0,1,0,48480.6,0.0400455,0.0397241,-38.512,25,0.00898755,10,-0.00152986,-1.4144,-1.28001,-0.0460932,69.2319,0.0397241,
2,0,0,1,0,48480.6,0.0376456,0.0373053,-38.6684,25,0.00883317,10,-0.00144254,-1.41264,-1.41125,-0.0418069,63.0564,0.0373053,
2,0,0,1,0,48480.6,0.035243,0.0349162,-38.8191,25,0.00867817,10,-0.00135542,-1.41095,-1.57081,-0.0375603,56.8536,0.0349162,
2,0,0,1,0,48480.6,0.0328459,0.0324709,-38.952,25,0.0085226,10,-0.00126481,-1.40947,-1.7424,-0.0338614,51.4264,0.0324709,
2,0,0,1,0,48480.6,0.0304488,0.0300956,-39.0595,25,0.00836654,10,-0.00117552,-1.40827,-2.06196,-0.0286135,43.5825,0.0300956,
2,0,0,1,0,48480.6,0.0280406,0.0276927,-39.1628,25,0.00821011,10,-0.00108452,-1.40713,-2.43194,-0.0242604,37.0469,0.0276927,
2,0,0,1,0,48480.6,0.0256435,0.0253111,-39.2377,25,0.00805329,10,-0.000993147,-1.4063,-2.70705,-0.0217949,33.3592,0.0253111,
2,0,0,1,0,48480.6,0.0232464,0.0229442,-39.3049,25,0.00789621,10,-0.000901821,-1.40555,-3.3916,-0.0173959,26.6745,0.0229442,
2,0,0,1,0,48480.6,0.0208437,0.0205148,-39.3791,25,0.00773885,10,-0.000807855,-1.40473,-4.23553,-0.0139298,21.3866,0.0205148,
2,0,0,1,0,48480.6,0.018441,0.0181204,-39.4181,25,0.00758124,10,-0.000714274,-1.4043,-5.41386,-0.010898,16.7512,0.0181204,
2,0,0,1,0,48480.6,0.0160439,0.015743,-39.4423,25,0.00742352,10,-0.000620941,-1.40404,-8.62181,-0.00684311,10.5303,0.015743,
2,0,0,1,0,48480.6,0.0136468,0.013321,-39.4661,25,0.00726569,10,-0.00052573,-1.40378,-13.4062,-0.00440094,6.77583,0.013321,
2,0,0,1,0,48480.6,0.0112414,0.0108811,-39.4805,25,0.0071078,10,-0.000429589,-1.40362,-26.9323,-0.00219068,3.37352,0.0108811,
2,0,0,1,0,48480.6,0.00884431,0.00854073,-39.483,25,0.00694987,10,-0.000337214,-1.40359,32.7711,0.00180037,-2.77206,0.00854073,
2,0,0,1,0,48480.6,0.0064472,0.00613785,-39.4747,25,0.00679196,10,-0.00024229,-1.40368,25.8883,0.00227903,-3.51002,0.00613785,
2,0,0,1,0,48480.6,0.00404455,0.00373497,-39.4395,25,0.00663415,10,-0.000147306,-1.40407,9.30916,0.00633784,-9.75431,0.00373497,
2,0,0,1,0,48480.6,0.0016419,0.00126741,-39.4468,25,0.00647642,10,-4.99951e-05,-1.40399,5.79275,0.0101851,-15.661,0.00126741,
2,0,0,1,0,48480.7,-0.000755208,-0.00112063,-39.3888,25,0.00631876,10,4.41402e-05,-1.40463,4.81368,0.0122567,-18.8222,-0.00112063,
2,0,0,1,0,48480.7,-0.00315231,-0.00347367,-39.3242,25,0.00616135,10,0.000136599,-1.40534,3.01057,0.0195976,-30.0603,-0.00347367,
2,0,0,1,0,48480.7,-0.00555774,-0.00588822,-39.2584,25,0.00600416,10,0.000231162,-1.40607,2.66027,0.0221782,-33.9514,-0.00588822,
2,0,0,1,0,48480.7,-0.00795485,-0.00827519,-39.1599,25,0.00584732,10,0.000324056,-1.40716,2.42686,0.0243112,-37.1401,-0.00827519,
2,0,0,1,0,48480.7,-0.010352,-0.0107258,-39.0627,25,0.00569088,10,0.000418978,-1.40824,2.09843,0.0281163,-42.8507,-0.0107258,
2,0,0,1,0,48480.7,-0.0127546,-0.0131276,-38.9656,25,0.00553484,10,0.000511526,-1.40932,1.97499,0.0298736,-45.4004,-0.0131276,
2,0,0,1,0,48480.7,-0.0151573,-0.0155337,-38.8451,25,0.00537922,10,0.000603407,-1.41066,1.74348,0.0338404,-51.265,-0.0155337,
2,0,0,1,0,48480.7,-0.0175544,-0.0178973,-38.7231,25,0.0052241,10,0.000693039,-1.41203,1.5874,0.0371677,-56.1292,-0.0178973,
2,0,0,1,0,48480.7,-0.0199515,-0.0202928,-38.5722,25,0.00506954,10,0.000782738,-1.41373,1.48848,0.0396377,-59.6461,-0.0202928,
2,0,0,1,0,48480.7,-0.0223597,-0.0227317,-38.4266,25,0.00491555,10,0.000873502,-1.41537,1.37195,0.0430045,-64.4686,-0.0227317,
2,0,0,1,0,48480.7,-0.0247568,-0.0251473,-38.2717,25,0.00476216,10,0.00096243,-1.41712,1.38165,0.0427026,-63.768,-0.0251473,
2,0,0,1,0,48480.7,-0.0271539,-0.027512,-38.1032,25,0.00460941,10,0.0010483,-1.41904,1.29388,0.0455994,-67.8018,-0.027512,
2,0,0,1,0,48480.7,-0.0295593,-0.0299478,-37.9565,25,0.00445731,10,0.00113671,-1.42071,1.21218,0.0486725,-72.043,-0.0299478,
2,0,0,1,0,48480.7,-0.0319564,-0.0323528,-37.7742,25,0.00430587,10,0.0012221,-1.4228,1.23203,0.0478884,-70.5749,-0.03235279,
2,0,0,1,0,48480.7,-0.0343535,-0.0346974,-37.5836,25,0.00415517,10,0.00130405,-1.425,1.17379,0.0502646,-73.7637,-0.0346974,
2,0,0,1,0,48480.7,-0.0367506,-0.037149,-37.4231,25,0.00400518,10,0.00139023,-1.42686,1.18085,0.0499639,-72.9745,-0.037149,
2,0,0,1,0,48480.7,-0.0391588,-0.0395169,-37.2507,25,0.00385584,10,0.00147203,-1.42887,1.20407,0.0490004,-71.2138,-0.0395169,
2,0,0,1,0,48480.7,-0.0415559,-0.0419198,-37.0761,25,0.00370721,10,0.00155422,-1.43091,1.16741,0.0505391,-73.1195,-0.0419198,
2,0,0,1,0,48480.7,-0.043953,-0.0443407,-36.8969,25,0.00355929,10,0.00163603,-1.43301,1.18424,0.0498208,-71.7577,-0.0443407,
2,0,0,1,0,48480.7,-0.0463585,-0.0467319,-36.7224,25,0.00341206,10,0.00171611,-1.43507,1.21576,0.0485294,-69.5837,-0.0467319,
2,0,0,1,0,48480.7,-0.0487556,-0.0491019,-36.5629,25,0.00326551,10,0.00179531,-1.43696,1.24463,0.0474035,-67.6577,-0.0491019,
2,0,0,1,0,48480.7,-0.0511527,-0.0515504,-36.406,25,0.00311957,10,0.00187674,-1.43883,1.31865,0.0447426,-63.589,-0.0515504,
2,0,0,1,0,48480.7,-0.0535498,-0.053931,-36.2481,25,0.00297428,10,0.00195489,-1.44072,1.33786,0.0441004,-62.4102,-0.053931,
2,0,0,1,0,48480.7,-0.055958,-0.0563297,-36.1121,25,0.00282956,10,0.00203418,-1.44235,1.39925,0.0421653,-59.4381,-0.0563297,
2,0,0,1,0,48480.7,-0.0583551,-0.0587241,-35.9624,25,0.00268543,10,0.00211186,-1.44415,1.54275,0.0382434,-53.7154,-0.0587241,
2,0,0,1,0,48480.8,-0.0607522,-0.0611513,-35.8353,25,0.00254186,10,0.00219138,-1.44569,1.56614,0.0376723,-52.7218,-0.0611513,
2,0,0,1,0,48480.8,-0.0631604,-0.0635266,-35.7326,25,0.00239873,10,0.00226997,-1.44694,1.69755,0.0347559,-48.4645,-0.0635266,
2,0,0,1,0,48480.8,-0.0655575,-0.0658903,-35.608,25,0.00225607,10,0.00234622,-1.44845,1.84201,0.0320303,-44.5277,-0.0658903,
2,0,0,1,0,48480.8,-0.0679546,-0.0682985,-35.4984,25,0.00211387,10,0.00242448,-1.44979,1.90446,0.03098,-42.9529,-0.0682985,
2,0,0,1,0,48480.8,-0.0703573,-0.0707597,-35.4075,25,0.00197208,10,0.00250542,-1.45091,2.20672,0.0267365,-36.9693,-0.0707597,
2,0,0,1,0,48480.8,-0.0727571,-0.0731244,-35.3204,25,0.00183063,10,0.00258278,-1.45197,2.5114,0.0234929,-32.4037,-0.0731244,
2,0,0,1,0,48480.8,-0.0751542,-0.0755008,-35.2527,25,0.00168951,10,0.00266161,-1.45281,2.81105,0.0209886,-28.8897,-0.0755008,
2,0,0,1,0,48480.8,-0.0775514,-0.0779153,-35.1867,25,0.00154864,10,0.00274158,-1.45362,3.3232,0.017754,-24.3913,-0.0779153,
2,0,0,1,0,48480.8,-0.0799596,-0.0803108,-35.1315,25,0.00140802,10,0.00282144,-1.4543,3.71075,0.0158998,-21.8096,-0.0803108,
2,0,0,1,0,48480.8,-0.0823567,-0.0827624,-35.0853,25,0.00126761,10,0.00290374,-1.45488,4.66527,0.0126466,-17.3255,-0.0827624,
2,0,0,1,0,48480.8,-0.0847538,-0.0851536,-35.0422,25,0.00112738,10,0.00298397,-1.45541,6.24793,0.00944313,-12.9243,-0.0851536,
2,0,0,1,0,48480.8,-0.0871592,-0.0875396,-35.02,25,0.000987274,10,0.00306563,-1.45568,7.85659,0.00750962,-10.2683,-0.0875396,
2,0,0,1,0,48480.8,-0.0895563,-0.0899318,-35.0072,25,0.000847217,10,0.00314826,-1.45584,11.6824,0.00505031,-6.90022,-0.0899318,
2,0,0,1,0,48480.8,-0.0919534,-0.0923358,-34.987,25,0.000707242,10,0.00323055,-1.45609,28.3482,0.00208126,-2.84339,-0.0923358,
2,0,0,1,0,48480.8,-0.0943505,-0.094745,-34.976,25,0.000567323,10,0.0033138,-1.45623,-495.713,-0.00011902,0.162612,-0.094745,
2,0,0,1,0,48480.8,-0.0967587,-0.0971214,-34.9927,25,0.000427379,10,0.00339854,-1.45602,-17.2718,-0.00341597,4.66674,-0.0971214,
2,0,0,1,0,48480.8,-0.0991558,-0.0994872,-35.0087,25,0.000287376,10,0.00348292,-1.45582,2.95192,0.019987,-27.2225,-0.0994872,
2,0,0,1,0,48480.8,-0.0999548,-0.100247,-35.0239,25,0.000241859,10,0.00351106,-1.45564,0.0248539,2.37387,-3053.68,-0.100247,
2,0,0,1,1,48480.8,-0.0999548,-0.100381,-34.8226,25,0.000220939,10,0.00349553,-1.45814,-0.033672,-1.7522,2128.96,-0.100381,
2,0,0,1,1,48480.8,-0.0979573,-0.0984257,-31.0099,25,0.000120434,10,0.00305217,-1.5085,-0.0436111,-1.35287,1559.04,-0.0984257,
2,0,0,1,1,48480.8,-0.0955546,-0.0959857,-27.5543,25,3.84291e-06,10,0.00264482,-1.55981,-0.046694,-1.26355,1379.21,-0.0959857,
2,0,0,1,1,48480.8,-0.0931519,-0.0935871,-24.6401,25,-0.000100148,10,0.00230599,-1.60836,-0.049388,-1.19462,1163.78,-0.0935871,
2,0,0,1,1,48480.8,-0.0907548,-0.0911418,-22.0796,25,-0.000193256,10,0.00201238,-1.65601,-0.0495082,-1.19172,1032.76,-0.0911418,
2,0,0,1,1,48480.8,-0.0883578,-0.0887558,-19.7563,25,-0.000276636,10,0.00175349,-1.70429,-0.0486811,-1.21197,935.922,-0.0887558,
2,0,0,1,1,48480.8,-0.0859523,-0.0863455,-17.5983,25,-0.000351097,10,0.00151953,-1.75453,-0.0465294,-1.26802,870.513,-0.0863455,
2,0,0,1,1,48480.8,-0.0835552,-0.0839469,-15.6177,25,-0.00041729,10,0.00131105,-1.80638,-0.0442494,-1.33335,809.859,-0.0839469,
2,0,0,1,1,48480.8,-0.0811581,-0.0815801,-13.7561,25,-0.000475821,10,0.00112222,-1.86151,-0.0416169,-1.41769,756.081,-0.0815801,
2,0,0,1,1,48480.9,-0.0787555,-0.079191,-12.0102,25,-0.000527151,10,0.000951096,-1.92045,-0.0384767,-1.53339,711.033,-0.079191,
2,0,0,1,1,48480.9,-0.0763528,-0.0767817,-10.3673,25,-0.000571713,10,0.000796018,-1.98434,-0.0349603,-1.68763,671.755,-0.0767817,
2,0,0,1,1,48480.9,-0.0739557,-0.0743513,-8.79483,25,-0.000609869,10,0.000653907,-2.05577,-0.0312391,-1.88866,633.436,-0.0743513,
2,0,0,1,1,48480.9,-0.0715586,-0.0719929,-7.31585,25,-0.000641923,10,0.000526689,-2.13574,-0.0270163,-2.18387,602.921,-0.0719929,
2,0,0,1,1,48480.9,-0.0691532,-0.0695391,-5.89633,25,-0.000668198,10,0.000410026,-2.22942,-0.0224428,-2.62891,574.78,-0.0695391,
2,0,0,1,1,48480.9,-0.066756,-0.0671585,-4.56526,25,-0.000688965,10,0.000306596,-2.34053,-0.0174879,-3.37377,546.287,-0.0671585,
2,0,0,1,1,48480.9,-0.0643589,-0.0647832,-3.29531,25,-0.000704524,10,0.000213481,-2.4821,-0.0116211,-5.07695,523.73,-0.0647832,
2,0,0,1,1,48480.9,-0.0619563,-0.0623761,-2.06229,25,-0.000715113,10,0.000128638,-2.68565,-0.00736189,-8.01424,498.729,-0.0623761,
2,0,0,1,1,48480.9,-0.0595536,-0.0599722,-0.885812,25,-0.000720862,10,5.31241e-05,-3.05266,-0.0238192,-2.47699,476.579,-0.0599722,
2,0,0,1,1,48480.9,-0.0571565,-0.0575512,0.226184,25,-0.000722061,10,-1.30171e-05,-3.64554,0.178918,0.32976,456.112,-0.0575512,
2,1,0,1,1,48480.9,-0.0547594,-0.0551452,1.29797,25,-0.000718897,10,-7.15767e-05,-2.88674,0.0167391,3.52468,437.851,-0.0551452,
2,1,0,1,1,48480.9,-0.0523512,-0.0527359,2.3347,25,-0.000711501,10,-0.000123123,-2.63177,0.00749996,7.86671,422.312,-0.0527359,
2,1,0,1,1,48480.9,-0.0499541,-0.050385,3.31193,25,-0.000700113,10,-0.000166872,-2.47992,0.0158704,3.71762,406.815,-0.050385,
2,1,0,1,1,48480.9,-0.047557,-0.0479843,4.26643,25,-0.000684841,10,-0.000204722,-2.36993,0.0230459,2.5601,389.918,-0.0479843,
2,1,0,1,1,48480.9,-0.0451544,-0.04561,5.17702,25,-0.00066585,10,-0.000236124,-2.28592,0.0299297,1.97129,376.064,-0.04561,
2,1,0,1,1,48480.9,-0.0427545,-0.0432029,6.05181,25,-0.000643283,10,-0.000261456,-2.21811,0.0370651,1.59179,361.572,-0.0432029,
2,1,0,1,1,48480.9,-0.0403574,-0.0408456,6.89936,25,-0.000617286,10,-0.000281808,-2.16119,0.0443096,1.33154,348.595,-0.0408456,
2,1,0,1,1,48480.9,-0.0379603,-0.0384544,7.71217,25,-0.000587982,10,-0.000296567,-2.11282,0.0519379,1.13597,334.599,-0.03845438,
2,1,0,1,1,48480.9,-0.0355521,-0.0360345,8.51499,25,-0.000555425,10,-0.000306834,-2.06982,0.0603213,0.978095,318.619,-0.0360345,
2,1,0,1,1,48480.9,-0.033155,-0.0335818,9.27102,25,-0.000519765,10,-0.000311337,-2.03287,0.0679692,0.86804,308.975,-0.0335818,
2,1,0,1,1,48480.9,-0.0307579,-0.0311641,9.98408,25,-0.000481182,10,-0.000311145,-2.00069,0.0770863,0.765376,294.738,-0.0311641,
2,1,0,1,1,48480.9,-0.0283524,-0.0288142,10.6907,25,-0.000439763,10,-0.000308045,-1.97099,0.0852602,0.691999,285.763,-0.0288142,
2,1,0,1,1,48480.9,-0.0259553,-0.0263965,11.3557,25,-0.00039559,10,-0.00029975,-1.94479,0.0936692,0.629876,276.747,-0.0263965,
2,1,0,1,1,48480.9,-0.0235582,-0.0239989,12.0095,25,-0.000348782,10,-0.000288214,-1.92048,0.103903,0.567836,264.077,-0.0239989,
2,1,0,1,1,48480.9,-0.0211611,-0.0215812,12.6361,25,-0.000299425,10,-0.000272702,-1.89839,0.113471,0.519955,254.549,-0.0215812,
2,1,0,1,1,48481,-0.0187529,-0.01919,13.2323,25,-0.000247613,10,-0.000253927,-1.87836,0.124294,0.474681,243.619,-0.01919,
2,1,0,1,1,48481,-0.0163558,-0.0167436,13.8128,25,-0.000193467,10,-0.000231276,-1.85972,0.134871,0.437454,234.532,-0.0167436,
2,1,0,1,1,48481,-0.0139587,-0.0143428,14.3618,25,-0.000137071,10,-0.00020599,-1.84279,0.145479,0.405556,226.228,-0.0143428,
2,1,0,1,1,48481,-0.0115505,-0.0119241,14.901,25,-7.84861e-05,10,-0.000177681,-1.82678,0.157163,0.375407,217.228,-0.0119241,
2,1,0,1,1,48481,-0.0091534,-0.00956571,15.4096,25,-1.7818e-05,10,-0.000147404,-1.81221,0.169171,0.348759,208.778,-0.009565711,
2,1,0,1,1,48481,-0.00675629,-0.00718404,15.8894,25,4.48412e-05,10,-0.00011415,-1.79889,0.181889,0.324374,200.546,-0.00718404,
2,1,0,1,1,48481,-0.00435919,-0.00477479,16.3594,25,0.000109386,10,-7.8113e-05,-1.78623,0.199086,0.296354,187.948,-0.00477479,
2,1,0,1,1,48481,-0.00195376,-0.00234858,16.8214,25,0.000175811,10,-3.95063e-05,-1.77414, , , ,-0.00234858,
2,1,0,0,1,48481,-7.54729e-05,-0.000458935,17.1212,25,0.000228473,10,-7.8575e-06,-1.76647, , , ,-0.000458935,