File: Figure_codes/Fig_3-5/rawdata_trumpetplot_data/after 10th/20221101_1-115_003_TrumpetPlot_ParaChange_from10_every3_13_CV_C01_13.csv
mode,ox/red,error,control changes,counter inc.,time/s,control/V,Ewe/V,<I>/mA,cycle number,(Q-Qo)/C,I Range,P/W,log(|I|),Tafel slope mV/dec,alpha_eff,dI/d(E-IR),E-IR/V,
2,1,0,1,0,26809.6,2.44065e-05,-0.000306236,21.4665,14,0.0000000E+000,10,-6.57383e-06,-1.66824, , , ,-0.000306236,
2,1,0,1,0,26809.6,0.00266289,0.00226207,22.8312,14,6.91939e-05,10,5.16458e-05,-1.64147, , , ,0.00226207,
2,1,0,1,0,26809.6,0.00586735,0.00552918,23.9693,14,0.000162989,10,0.000132531,-1.62034, , , ,0.00552918,
2,1,0,1,0,26809.6,0.00906349,0.00875388,24.9303,14,0.000260918,10,0.000218237,-1.60327,0.194932,0.302669,291.296,0.00875388,
2,1,0,1,0,26809.6,0.0122624,0.01188,25.7909,14,0.000362465,10,0.000306395,-1.58853,0.224779,0.26248,262.356,0.01188,
2,1,0,1,0,26809.6,0.0154641,0.0151481,26.5849,14,0.000467328,10,0.000402711,-1.57536,0.251341,0.234741,242.279,0.0151481,
2,1,0,1,0,26809.6,0.0186602,0.0183251,27.3264,14,0.000575244,10,0.000500759,-1.56342,0.28067,0.210211,223.145,0.0183251,
2,1,0,1,0,26809.6,0.0218675,0.0215159,28.0223,14,0.00068603,10,0.000602924,-1.5525,0.302911,0.194777,212.194,0.02151587,
2,1,0,1,0,26809.6,0.0250636,0.0247342,28.6593,14,0.000799492,10,0.000708864,-1.54273,0.328574,0.179564,200.334,0.0247342,
2,1,0,1,0,26809.6,0.0282597,0.0278868,29.288,14,0.000915458,10,0.000816747,-1.53331,0.351398,0.167901,191.517,0.0278868,
2,1,0,1,0,26809.6,0.031467,0.031103,29.8863,14,0.00103389,10,0.000929552,-1.52453,0.372487,0.158395,184.362,0.031103,
2,1,0,1,0,26809.6,0.0346631,0.0342789,30.4666,14,0.00115466,10,0.00104436,-1.51618,0.394323,0.149624,177.583,0.0342789,
2,1,0,1,0,26809.6,0.0378704,0.0375397,31.0201,14,0.00127769,10,0.00116449,-1.50836,0.417339,0.141372,170.849,0.0375397,
2,1,0,1,0,26809.6,0.0410665,0.0407007,31.5635,14,0.00140291,10,0.00128466,-1.50081,0.437086,0.134985,166.056,0.0407007,
2,1,0,1,0,26809.6,0.0442626,0.0438936,32.0715,14,0.00153023,10,0.00140774,-1.49388,0.450646,0.130923,163.788,0.0438936,
2,1,0,1,0,26809.6,0.0474671,0.0471268,32.6001,14,0.00165963,10,0.00153634,-1.48678,0.467111,0.126308,160.615,0.0471268,
2,1,0,1,0,26809.6,0.0506632,0.0503218,33.1137,14,0.00179112,10,0.00166634,-1.47999,0.474427,0.12436,160.603,0.0503218,
2,1,0,1,0,26809.6,0.0538621,0.0535295,33.624,14,0.00192464,10,0.00179988,-1.47335,0.488996,0.120655,158.243,0.0535295,
2,1,0,1,0,26809.6,0.0570638,0.0567214,34.1317,14,0.00206023,10,0.001936,-1.46684,0.494152,0.119396,158.986,0.0567214,
2,1,0,1,0,26809.6,0.06026,0.0599683,34.6322,14,0.0021978,10,0.00207683,-1.46052,0.496793,0.118762,160.547,0.05996833,
2,1,0,1,0,26809.6,0.0634672,0.0631018,35.1455,14,0.00233743,10,0.00221775,-1.45413,0.503686,0.117136,160.678,0.0631018,
2,1,0,1,0,26809.6,0.0666633,0.0662958,35.6736,14,0.00247912,10,0.00236501,-1.44765,0.505163,0.116794,162.555,0.0662958,
2,1,0,1,0,26809.6,0.0698595,0.0694961,36.1843,14,0.00262291,10,0.00251467,-1.44148,0.510559,0.11556,163.17,0.06949608,
2,1,0,1,0,26809.6,0.0730667,0.0727749,36.714,14,0.00276878,10,0.00267185,-1.43517,0.513662,0.114861,164.6,0.0727749,
2,1,0,1,0,26809.6,0.0762628,0.0759062,37.2348,14,0.00291674,10,0.00282636,-1.42905,0.51386,0.114817,166.887,0.0759062,
2,1,0,1,0,26809.7,0.0794701,0.0791214,37.7847,14,0.00306682,10,0.00298958,-1.42268,0.513317,0.114939,169.484,0.0791214,
2,1,0,1,0,26809.7,0.0826662,0.0823132,38.3233,14,0.00321909,10,0.00315452,-1.41654,0.516357,0.114262,170.871,0.08231321,
2,1,0,1,0,26809.7,0.0858624,0.0855146,38.8731,14,0.00337354,10,0.00332422,-1.41035,0.520759,0.113296,171.888,0.0855146,
2,1,0,1,0,26809.7,0.0890668,0.0887053,39.4218,14,0.00353019,10,0.00349693,-1.40426,0.52145,0.113146,174.094,0.0887053,
2,1,0,1,0,26809.7,0.092263,0.0919247,39.9854,14,0.00368905,10,0.00367565,-1.3981,0.522888,0.112835,176.091,0.0919247,
2,1,0,1,0,26809.7,0.0954674,0.0950996,40.5494,14,0.00385017,10,0.00385623,-1.39202,0.525601,0.112252,177.626,0.0950996,
2,1,0,1,0,26809.7,0.0986636,0.0982988,41.1243,14,0.00401357,10,0.00404247,-1.3859,0.524208,0.112551,180.631,0.0982988,
2,1,0,1,0,26809.7,0.10186,0.101482,41.6913,14,0.00417927,10,0.00423093,-1.37995,0.529212,0.111487,181.433,0.101482,
2,1,0,1,0,26809.7,0.105067,0.104635,42.2812,14,0.00434728,10,0.00442409,-1.37385,0.530904,0.111131,183.399,0.104635,
2,1,0,1,0,26809.7,0.108263,0.107897,42.8712,14,0.00451765,10,0.00462565,-1.36783,0.533253,0.110642,185.097,0.107897,
2,1,0,1,0,26809.7,0.111465,0.111087,43.4697,14,0.00469038,10,0.00482894,-1.36181,0.538493,0.109565,185.841,0.111087,
2,1,0,1,0,26809.7,0.114666,0.114298,44.0635,14,0.00486553,10,0.00503639,-1.35592,0.543886,0.108479,186.496,0.114298,
2,1,0,1,0,26809.7,0.117863,0.117455,44.6638,14,0.00504304,10,0.00524599,-1.35004,0.559463,0.105458,183.688,0.117455,
2,1,0,1,0,26809.7,0.12107,0.120671,45.2536,14,0.00522294,10,0.00546081,-1.34435,0.55373,0.10655,188.166,0.120671,
2,1,0,1,0,26809.7,0.124266,0.123842,45.8126,14,0.00540513,10,0.00567352,-1.33902,0.544843,0.108288,193.955,0.123842,
2,1,0,1,0,26809.7,0.127462,0.127027,46.4587,14,0.0055897,10,0.00590153,-1.33293,0.53195,0.110913,201.41,0.127027,
2,1,0,1,0,26809.7,0.130667,0.130256,47.1466,14,0.00577699,10,0.00614115,-1.32655,0.516028,0.114335,210.4,0.130256,
2,1,0,1,0,26809.7,0.133863,0.133468,47.831,14,0.00596702,10,0.00638393,-1.32029,0.516417,0.114249,213.198,0.133468,
2,1,0,1,0,26809.7,0.137067,0.1367,48.518,14,0.00615979,10,0.00663243,-1.3141,0.522131,0.112998,213.923,0.1367,
2,1,0,1,0,26809.7,0.140263,0.139877,49.1983,14,0.0063553,10,0.00688173,-1.30805,0.520332,0.113389,217.777,0.139877,
2,1,0,1,0,26809.7,0.143459,0.143115,49.8974,14,0.00655355,10,0.00714105,-1.30192,0.521112,0.113219,220.541,0.143115,
2,1,0,1,0,26809.7,0.146667,0.146277,50.6205,14,0.00675467,10,0.00740461,-1.29567,0.526946,0.111966,221.136,0.146277,
2,1,0,1,0,26809.7,0.149863,0.149461,51.3323,14,0.00695866,10,0.0076722,-1.28961,0.527559,0.111836,223.987,0.149461,
2,1,0,1,0,26809.7,0.153064,0.152738,52.0423,14,0.00716549,10,0.00794883,-1.28364,0.539177,0.109426,222.186,0.152738,
2,1,0,1,0,26809.7,0.156266,0.155929,52.7675,14,0.00737519,10,0.00822798,-1.27763,0.548497,0.107567,221.409,0.155929,
2,1,0,1,0,26809.8,0.159462,0.159058,53.4602,14,0.00758773,10,0.00850328,-1.27197,0.562177,0.104949,218.83,0.159058,
2,1,0,1,0,26809.8,0.16267,0.162308,54.1767,14,0.00780306,10,0.00879333,-1.26619,0.584213,0.100991,213.29,0.162308,
2,1,0,1,0,26809.8,0.165866,0.16551,54.8371,14,0.00802117,10,0.00907606,-1.26093,0.610941,0.0965724,206.452,0.16551,
2,1,0,1,0,26809.8,0.169062,0.16868,55.4873,14,0.00824188,10,0.0093596,-1.25581,0.648286,0.0910092,196.876,0.16868,
2,1,0,1,0,26809.8,0.172266,0.171922,56.116,14,0.00846518,10,0.00964756,-1.25091,0.680681,0.0866779,189.578,0.171922,
2,1,0,1,0,26809.8,0.175462,0.175135,56.702,14,0.00869087,10,0.00993049,-1.2464,0.73077,0.0807368,178.423,0.175135,
2,1,0,1,0,26809.8,0.178667,0.178315,57.2647,14,0.00891886,10,0.0102112,-1.24211,0.8016,0.0736028,164.194,0.178315,
2,1,0,1,0,26809.8,0.181863,0.181529,57.7798,14,0.00914902,10,0.0104887,-1.23822,0.88781,0.0664556,149.526,0.181529,
2,1,0,1,0,26809.8,0.185059,0.184728,58.2188,14,0.0093811,10,0.0107547,-1.23494,1.03744,0.0568708,128.927,0.184728,
2,1,0,1,0,26809.8,0.188266,0.187924,58.6144,14,0.00961483,10,0.0110151,-1.232,1.23927,0.0476088,108.642,0.187924,
2,1,0,1,0,26809.8,0.191463,0.191155,58.9202,14,0.00984997,10,0.0112629,-1.22974,1.60685,0.0367178,84.1934,0.191155,
2,1,0,1,0,26809.8,0.194664,0.194319,59.1693,14,0.0100862,10,0.0114977,-1.2279,2.50018,0.0235983,54.3008,0.194319,
2,1,0,1,0,26809.8,0.197866,0.197484,59.2927,14,0.0103232,10,0.0117094,-1.227,5.69111,0.010367,23.9005,0.197484,
2,1,0,1,0,26809.8,0.201062,0.2007,59.3081,14,0.0105604,10,0.0119031,-1.22689,-13.0714,-0.00451366,-10.4112,0.2007,
2,1,0,1,0,26809.8,0.204269,0.203951,59.226,14,0.0107975,10,0.0120792,-1.22749,-3.08162,-0.0191457,-44.0915,0.203951,
2,1,0,1,0,26809.8,0.207465,0.207124,59.036,14,0.011034,10,0.0122278,-1.22888,-1.74696,-0.033773,-77.5122,0.207124,
2,1,0,1,0,26809.8,0.210662,0.21033,58.7263,14,0.0112695,10,0.0123519,-1.23117,-1.17692,-0.0501309,-114.43,0.21033,
2,1,0,1,0,26809.8,0.213866,0.213566,58.3108,14,0.0115036,10,0.0124532,-1.23425,-0.902484,-0.0653751,-148.178,0.213566,
2,1,0,1,0,26809.8,0.217062,0.216782,57.7578,14,0.0117357,10,0.0125209,-1.23839,-0.719709,-0.0819776,-184.087,0.216782,
2,1,0,1,0,26809.8,0.220267,0.219989,57.1297,14,0.0119654,10,0.0125679,-1.24314,-0.603416,-0.0977766,-217.179,0.219989,
2,1,0,1,0,26809.8,0.223463,0.223138,56.3684,14,0.0121924,10,0.012578,-1.24896,-0.525275,-0.112322,-246.241,0.223138,
2,1,0,1,0,26809.8,0.226659,0.226325,55.5399,14,0.0124162,10,0.0125701,-1.25539,-0.462527,-0.12756,-275.585,0.226325,
2,1,0,1,0,26809.8,0.229866,0.22953,54.6186,14,0.0126365,10,0.0125366,-1.26266,-0.42426,-0.139066,-295.501,0.2295305,
2,1,0,1,0,26809.8,0.233062,0.232715,53.6226,14,0.0128529,10,0.0124788,-1.27065,-0.388585,-0.151833,-316.895,0.232715,
2,1,0,1,0,26809.8,0.236264,0.235992,52.5703,14,0.0130652,10,0.0124061,-1.27926,-0.361162,-0.163362,-334.393,0.235992,
2,1,0,1,0,26809.9,0.239466,0.239167,51.4701,14,0.0132732,10,0.01231,-1.28844,-0.343394,-0.171814,-344.516,0.239167,
2,1,0,1,0,26809.9,0.242662,0.242329,50.3391,14,0.0134767,10,0.0121986,-1.29809,-0.325219,-0.181416,-355.879,0.242329,
2,1,0,1,0,26809.9,0.245869,0.245554,49.1992,14,0.0136756,10,0.0120811,-1.30804,-0.314258,-0.187744,-360.016,0.245554,
2,1,0,1,0,26809.9,0.249065,0.248757,48.0274,14,0.01387,10,0.0119471,-1.31851,-0.307827,-0.191666,-359.062,0.248757,
2,1,0,1,0,26809.9,0.252261,0.25194,46.8718,14,0.0140597,10,0.0118089,-1.32909,-0.302462,-0.195066,-356.908,0.25194,
2,1,0,1,0,26809.9,0.255466,0.25514,45.7388,14,0.0142448,10,0.0116698,-1.33972,-0.301275,-0.195834,-349.692,0.25514,
2,1,0,1,0,26809.9,0.258662,0.258329,44.6398,14,0.0144254,10,0.0115318,-1.35028,-0.300859,-0.196105,-341.74,0.258329,
2,1,0,1,0,26809.9,0.261866,0.261548,43.5543,14,0.0146017,10,0.0113915,-1.36097,-0.30373,-0.194251,-330.39,0.261548,
2,1,0,1,0,26809.9,0.265063,0.264722,42.5036,14,0.0147737,10,0.0112517,-1.37157,-0.306545,-0.192468,-319.683,0.2647222,
2,1,0,1,0,26809.9,0.268259,0.267993,41.4926,14,0.0149416,10,0.0111197,-1.38203,-0.312734,-0.188659,-306.017,0.2679925,
2,1,0,1,0,26809.9,0.271466,0.271138,40.5451,14,0.0151056,10,0.0109933,-1.39206,-0.321906,-0.183283,-290.507,0.271138,
2,1,0,1,0,26809.9,0.274662,0.274362,39.633,14,0.0152658,10,0.0108738,-1.40194,-0.329886,-0.17885,-277.045,0.274362,
2,1,0,1,0,26809.9,0.277869,0.277539,38.7802,14,0.0154225,10,0.010763,-1.41139,-0.338827,-0.17413,-263.867,0.277539,
2,1,0,1,0,26809.9,0.281065,0.280803,37.9434,14,0.0155759,10,0.0106546,-1.42086,-0.350399,-0.168379,-249.769,0.280803,
2,1,0,1,0,26809.9,0.284262,0.283965,37.1603,14,0.015726,10,0.0105522,-1.42992,-0.361832,-0.163059,-237.001,0.283965,
2,1,0,1,0,26809.9,0.287469,0.287186,36.4301,14,0.0158731,10,0.0104622,-1.43854,-0.375149,-0.157271,-224,0.287186,
2,1,0,1,0,26809.9,0.290665,0.290341,35.7463,14,0.0160174,10,0.0103786,-1.44677,-0.392663,-0.150256,-209.922,0.2903406,
2,1,0,1,0,26809.9,0.293861,0.293566,35.0845,14,0.016159,10,0.0102996,-1.45488,-0.405151,-0.145625,-200.039,0.293566,
2,1,0,1,0,26809.9,0.297066,0.296782,34.4699,14,0.016298,10,0.01023,-1.46256,-0.407756,-0.144694,-196.633,0.296782,
2,1,0,1,0,26809.9,0.299637,0.299365,33.9938,14,0.0164076,10,0.0101765,-1.4686,-0.108548,-0.543536,-704.302,0.299365,
2,1,0,1,0,26809.9,0.300012,0.29967,33.9118,14,0.0164245,10,0.0101623,-1.46965,0.00892644,6.60958,7647.71,0.29967,
2,1,0,1,0,26809.9,0.298983,0.298814,31.3884,14,0.016466,10,0.0093793,-1.50323,0.0323783,1.82221,1903.8,0.298814,
2,1,0,1,0,26809.9,0.295787,0.295582,25.298,14,0.0165781,10,0.00747765,-1.59691,0.0343713,1.71655,1630.35,0.295582,
2,1,0,1,0,26809.9,0.292579,0.292356,20.6514,14,0.0166693,10,0.00603758,-1.68505,0.0347451,1.69808,1400.71,0.2923564,
2,1,0,1,0,26809.9,0.289383,0.28915,16.7598,14,0.0167436,10,0.0048461,-1.77573,0.0334148,1.76568,1156.95,0.28915,
2,1,0,1,0,26809.9,0.286187,0.285975,13.4041,14,0.0168035,10,0.00383324,-1.87276,0.0305474,1.93142,997.735,0.285975,
2,1,0,1,0,26809.9,0.282983,0.282743,10.4434,14,0.0168508,10,0.0029528,-1.98116,0.0265925,2.21867,876.561,0.282743,
2,1,0,1,0,26810,0.279786,0.279529,7.85273,14,0.016887,10,0.00219506,-2.10498,0.0218834,2.69611,771.484,0.279529,
2,1,0,1,0,26810,0.276582,0.276332,5.5239,14,0.0169135,10,0.00152643,-2.25775,0.0155807,3.78675,690.663,0.276332,
2,1,0,1,0,26810,0.273386,0.273069,3.44719,14,0.0169311,10,0.00094132,-2.46253,0.00738005,7.99453,623.632,0.273069,
2,1,0,1,0,26810,0.27019,0.269882,1.56107,14,0.0169409,10,0.000421306,-2.80658,0.0249586,2.36391,560.476,0.269882,
2,1,0,1,0,26810,0.266982,0.266706,-0.14374,14,0.0169435,10,-3.83362e-05,-3.84242,0.271811,0.217062,513.895,0.266706,
2,0,0,1,0,26810,0.263786,0.263468,-1.68594,14,0.0169397,10,-0.000444191,-2.77316,-0.0285061,-2.06973,464.941,0.263468,
2,0,0,1,0,26810,0.260585,0.260338,-3.09479,14,0.0169299,10,-0.000805692,-2.50937,-0.0080561,-7.32365,423.75,0.260338,
2,0,0,1,0,26810,0.257383,0.257085,-4.38879,14,0.0169148,10,-0.00112829,-2.35765,-0.0213609,-2.76206,390.681,0.257085,
2,0,0,1,0,26810,0.254187,0.253915,-5.56422,14,0.0168948,10,-0.00141284,-2.2546,-0.0328091,-1.79828,353.747,0.253915,
2,0,0,1,0,26810,0.25098,0.250708,-6.67098,14,0.0168702,10,-0.00167247,-2.17581,-0.0437712,-1.34792,329.256,0.250708,
2,0,0,1,0,26810,0.247783,0.247409,-7.66856,14,0.0168414,10,-0.00189727,-2.11529,-0.0558747,-1.05593,302.37,0.247409,
2,0,0,1,0,26810,0.244587,0.244303,-8.59738,14,0.0168088,10,-0.00210037,-2.06563,-0.0686134,-0.859891,279.886,0.244303,
2,0,0,1,0,26810,0.241383,0.241056,-9.45224,14,0.0167725,10,-0.00227852,-2.02447,-0.0805646,-0.732331,264.209,0.241056,
2,0,0,1,0,26810,0.238187,0.23786,-10.2669,14,0.016733,10,-0.00244209,-1.98856,-0.0952745,-0.619264,243.668,0.23786,
2,0,0,1,0,26810,0.234982,0.234715,-11.0225,14,0.0166903,10,-0.00258714,-1.95772,-0.109254,-0.540026,228.59,0.234715,
2,0,0,1,0,26810,0.231786,0.231451,-11.729,14,0.0166447,10,-0.00271469,-1.93074,-0.124035,-0.47567,215.048,0.2314509,
2,0,0,1,0,26810,0.22859,0.228288,-12.371,14,0.0165965,10,-0.00282414,-1.9076,-0.141257,-0.417677,199.903,0.228288,
2,0,0,1,0,26810,0.225383,0.225107,-13.0095,14,0.0165456,10,-0.00292853,-1.88574,-0.155578,-0.37923,191.036,0.225107,
2,0,0,1,0,26810,0.222187,0.221849,-13.5944,14,0.0164923,10,-0.0030159,-1.86664,-0.171749,-0.343525,180.905,0.221849,
2,0,0,1,0,26810,0.218979,0.218711,-14.1628,14,0.0164368,10,-0.00309756,-1.84885,-0.190789,-0.309242,169.81,0.218711,
2,0,0,1,0,26810,0.215783,0.215512,-14.6822,14,0.016379,10,-0.00316418,-1.83321,-0.207235,-0.284701,162.302,0.215512,
2,0,0,1,0,26810,0.212587,0.212283,-15.1871,14,0.0163192,10,-0.00322396,-1.81853,-0.226125,-0.260918,154.091,0.212283,
2,0,0,1,0,26810,0.20938,0.209064,-15.6695,14,0.0162575,10,-0.00327592,-1.80495,-0.243915,-0.241888,147.353,0.2090636,
2,0,0,1,0,26810,0.206184,0.205844,-16.1455,14,0.0161938,10,-0.00332345,-1.79195,-0.259024,-0.227778,142.975,0.205844,
2,0,0,1,0,26810,0.202988,0.20267,-16.5744,14,0.0161283,10,-0.00335914,-1.78056,-0.278808,-0.211615,136.499,0.20267,
2,0,0,1,0,26810.1,0.199783,0.1995,-17.0148,14,0.0160611,10,-0.00339444,-1.76917,-0.295608,-0.199589,132.239,0.1995,
2,0,0,1,0,26810.1,0.196587,0.19626,-17.4171,14,0.0159922,10,-0.00341829,-1.75902,-0.311329,-0.18951,128.573,0.19626,
2,0,0,1,0,26810.1,0.193382,0.193056,-17.8366,14,0.0159216,10,-0.00344346,-1.74869,-0.329118,-0.179267,124.541,0.1930557,
2,0,0,1,0,26810.1,0.190186,0.189872,-18.2199,14,0.0158495,10,-0.00345945,-1.73945,-0.33756,-0.174784,124.143,0.189872,
2,0,0,1,0,26810.1,0.18699,0.186679,-18.6114,14,0.0157758,10,-0.00347437,-1.73022,-0.355225,-0.166092,120.557,0.1866795,
2,0,0,1,0,26810.1,0.183783,0.183472,-19.0047,14,0.0157004,10,-0.00348683,-1.72114,-0.363191,-0.162449,120.336,0.183472,
2,0,0,1,0,26810.1,0.180587,0.180236,-19.382,14,0.0156236,10,-0.00349335,-1.7126,-0.370615,-0.159195,120.349,0.180236,
2,0,0,1,0,26810.1,0.17738,0.177051,-19.7627,14,0.0155453,10,-0.00349901,-1.70415,-0.382277,-0.154338,119.003,0.177051,
2,0,0,1,0,26810.1,0.174183,0.173889,-20.1508,14,0.0154655,10,-0.00350399,-1.69571,-0.378704,-0.155794,122.544,0.173889,
2,0,0,1,0,26810.1,0.170987,0.170664,-20.5289,14,0.0153841,10,-0.00350354,-1.68763,-0.384041,-0.15363,123.156,0.170664,
2,0,0,1,0,26810.1,0.16778,0.167461,-20.9476,14,0.0153011,10,-0.00350791,-1.67886,-0.38056,-0.155035,126.767,0.167461,
2,0,0,1,0,26810.1,0.164584,0.164253,-21.3389,14,0.0152165,10,-0.00350498,-1.67083,-0.371116,-0.15898,132.54,0.164253,
2,0,0,1,0,26810.1,0.161382,0.161092,-21.773,14,0.0151302,10,-0.00350745,-1.66208,-0.3693,-0.159762,135.965,0.161092,
2,0,0,1,0,26810.1,0.158183,0.157924,-22.2174,14,0.0150422,10,-0.00350867,-1.65331,-0.352992,-0.167143,145.149,0.157924,
2,0,0,1,0,26810.1,0.154987,0.154653,-22.689,14,0.0149524,10,-0.00350893,-1.64418,-0.34567,-0.170683,151.412,0.154653,
2,0,0,1,0,26810.1,0.151783,0.151498,-23.1902,14,0.0148606,10,-0.00351328,-1.6347,-0.331758,-0.17784,161.291,0.151498,
2,0,0,1,0,26810.1,0.148587,0.148264,-23.7153,14,0.0147667,10,-0.00351612,-1.62497,-0.311115,-0.189641,176.109,0.148264,
2,0,0,1,0,26810.1,0.145385,0.145067,-24.2912,14,0.0146707,10,-0.00352385,-1.61455,-0.297364,-0.19841,188.772,0.145067,
2,0,0,1,0,26810.1,0.142183,0.141892,-24.9363,14,0.0145722,10,-0.00353827,-1.60317,-0.278193,-0.212083,207.066,0.141892,
2,0,0,1,0,26810.1,0.138987,0.138695,-25.6071,14,0.014471,10,-0.00355158,-1.59164,-0.264014,-0.223473,224.151,0.138695,
2,0,0,1,0,26810.1,0.13578,0.135463,-26.366,14,0.014367,10,-0.00357161,-1.57896,-0.251075,-0.23499,242.653,0.135463,
2,0,0,1,0,26810.1,0.132584,0.132249,-27.1644,14,0.0142599,10,-0.00359246,-1.566,-0.236916,-0.249034,265.027,0.132249,
2,0,0,1,0,26810.1,0.129388,0.129092,-28.0423,14,0.0141494,10,-0.00362004,-1.55219,-0.225566,-0.261564,287.405,0.129092,
2,0,0,1,0,26810.1,0.12618,0.125888,-29.0012,14,0.0140352,10,-0.00365092,-1.53758,-0.215685,-0.273547,310.706,0.1258885,
2,0,0,1,0,26810.1,0.122984,0.122739,-30.0229,14,0.0139171,10,-0.00368498,-1.52255,-0.208961,-0.28235,331.859,0.122739,
2,0,0,1,0,26810.2,0.119783,0.119473,-31.1339,14,0.0137947,10,-0.00371966,-1.50677,-0.204532,-0.288463,351.143,0.119473,
2,0,0,1,0,26810.2,0.116584,0.116292,-32.2902,14,0.0136677,10,-0.00375508,-1.49093,-0.203051,-0.290568,366.509,0.116292,
2,0,0,1,0,26810.2,0.113387,0.11311,-33.4885,14,0.0135361,10,-0.00378786,-1.4751,-0.203531,-0.289882,378.913,0.11311,
2,0,0,1,0,26810.2,0.110183,0.109891,-34.7317,14,0.0133995,10,-0.00381671,-1.45927,-0.207394,-0.284483,385.258,0.1098912,
2,0,0,1,0,26810.2,0.106987,0.106714,-35.9684,14,0.013258,10,-0.00383834,-1.44408,-0.212806,-0.277248,388.625,0.106714,
2,0,0,1,0,26810.2,0.103785,0.103477,-37.2273,14,0.0131115,10,-0.00385216,-1.42914,-0.220223,-0.267911,388.507,0.1034768,
2,0,0,1,0,26810.2,0.100583,0.100317,-38.46,14,0.01296,10,-0.00385819,-1.41499,-0.229582,-0.256988,384.789,0.1003168,
2,0,0,1,0,26810.2,0.0973873,0.0971197,-39.6935,14,0.0128035,10,-0.00385502,-1.40128,-0.240952,-0.244862,378.205,0.0971197,
2,0,0,1,0,26810.2,0.0941801,0.0939819,-40.8676,14,0.0126422,10,-0.00384082,-1.38862,-0.251676,-0.234428,373.221,0.0939819,
2,0,0,1,0,26810.2,0.0909839,0.0907954,-42.0234,14,0.0124764,10,-0.00381553,-1.37651,-0.265647,-0.2221,363.821,0.09079539,
2,0,0,1,0,26810.2,0.0877878,0.0875633,-43.2199,14,0.0123058,10,-0.00378448,-1.36432,-0.280794,-0.210119,353.431,0.0875633,
2,0,0,1,0,26810.2,0.0845806,0.0843503,-44.3393,14,0.0121305,10,-0.00374003,-1.35321,-0.29449,-0.200346,345.612,0.0843503,
2,0,0,1,0,26810.2,0.0813844,0.0811234,-45.4122,14,0.0119509,10,-0.003684,-1.34283,-0.317888,-0.1856,328.038,0.0811234,
2,0,0,1,0,26810.2,0.0781827,0.077973,-46.455,14,0.0117671,10,-0.00362224,-1.33297,-0.341031,-0.173005,312.672,0.077973,
2,0,0,1,0,26810.2,0.0749839,0.0747568,-47.4209,14,0.0115792,10,-0.00354504,-1.32403,-0.367821,-0.160404,295.924,0.0747568,
2,0,0,1,0,26810.2,0.0717877,0.071566,-48.3366,14,0.0113876,10,-0.00345926,-1.31572,-0.402427,-0.14661,275.792,0.071566,
2,0,0,1,0,26810.2,0.0685832,0.0683869,-49.1813,14,0.0111924,10,-0.00336335,-1.3082,-0.435034,-0.135622,259.684,0.0683869,
2,0,0,1,0,26810.2,0.0653871,0.0651569,-49.9896,14,0.010994,10,-0.00325717,-1.30112,-0.473685,-0.124555,242.445,0.0651569,
2,0,0,1,0,26810.2,0.0621854,0.0619682,-50.7419,14,0.0107924,10,-0.00314439,-1.29463,-0.516625,-0.114203,225.589,0.0619682,
2,0,0,1,0,26810.2,0.0589837,0.0587383,-51.4466,14,0.0105879,10,-0.00302189,-1.28864,-0.569141,-0.103665,207.598,0.0587383,
2,0,0,1,0,26810.2,0.0557876,0.055556,-52.0758,14,0.0103808,10,-0.00289312,-1.28336,-0.642465,-0.0918338,186.131,0.055556,
2,0,0,1,0,26810.2,0.0525804,0.0522952,-52.6597,14,0.0101712,10,-0.00275385,-1.27852,-0.726582,-0.0812022,166.402,0.05229523,
2,0,0,1,0,26810.2,0.0493842,0.0490578,-53.1449,14,0.00995957,10,-0.00260717,-1.27454,-0.832794,-0.0708458,146.574,0.0490578,
2,0,0,1,0,26810.2,0.0461881,0.0458914,-53.5844,14,0.00974607,10,-0.00245906,-1.27096,-0.959989,-0.061459,128.268,0.04589143,
2,0,0,1,0,26810.2,0.0429808,0.0426964,-53.9607,14,0.00953091,10,-0.00230393,-1.26792,-1.10473,-0.0534069,112.256,0.0426964,
2,0,0,1,0,26810.3,0.0397847,0.0394792,-54.3036,14,0.00931434,10,-0.00214386,-1.26517,-1.28912,-0.0457676,96.8155,0.0394792,
2,0,0,1,0,26810.3,0.036583,0.0362979,-54.5773,14,0.00909653,10,-0.00198104,-1.26299,-1.52039,-0.0388058,82.5202,0.0362979,
2,0,0,1,0,26810.3,0.0333841,0.0330637,-54.8263,14,0.00887768,10,-0.00181276,-1.26101,-1.78797,-0.0329983,70.5123,0.0330637,
2,0,0,1,0,26810.3,0.030188,0.0298761,-55.0186,14,0.00865797,10,-0.00164374,-1.25949,-2.18851,-0.026959,57.8118,0.0298761,
2,0,0,1,0,26810.3,0.0269835,0.0266907,-55.2053,14,0.00843748,10,-0.00147347,-1.25802,-2.72967,-0.0216143,46.4988,0.0266907,
2,0,0,1,0,26810.3,0.0237874,0.0234607,-55.3195,14,0.00821639,10,-0.00129783,-1.25712,-3.49145,-0.0168984,36.438,0.0234607,
2,0,0,1,0,26810.3,0.0205857,0.0202614,-55.4216,14,0.0079949,10,-0.00112292,-1.25632,-4.9691,-0.0118734,25.6574,0.0202614,
2,0,0,1,0,26810.3,0.017384,0.0170717,-55.4852,14,0.00777306,10,-0.000947226,-1.25582,-6.74127,-0.00875206,18.9365,0.0170717,
2,0,0,1,0,26810.3,0.0141879,0.0138428,-55.5349,14,0.007551,10,-0.000768757,-1.25543,-13.8243,-0.00426785,9.2409,0.0138428,
2,0,0,1,0,26810.3,0.0109806,0.0106955,-55.5612,14,0.0073288,10,-0.000594254,-1.25523,-249.011,-0.000236937,0.513097,0.0106955,
2,0,0,1,0,26810.3,0.00778448,0.00748245,-55.5397,14,0.00710659,10,-0.000415573,-1.2554,51.0688,0.0011553,-2.50323,0.00748245,
2,0,0,1,0,26810.3,0.00458834,0.00426624,-55.4917,14,0.00688452,10,-0.000236741,-1.25577,9.60439,0.00614303,-13.2999,0.004266236,
2,0,0,1,0,26810.3,0.0013811,0.00104048,-55.5029,14,0.00666257,10,-5.77497e-05,-1.25568,6.54525,0.00901417,-19.4945,0.00104048,
2,0,0,1,0,26810.3,-0.00181504,-0.00216619,-55.3901,14,0.0064408,10,0.000119986,-1.25657,4.54951,0.0129684,-27.9942,-0.00216619,
2,0,0,1,0,26810.3,-0.0050195,-0.00536862,-55.2892,14,0.00621945,10,0.000296826,-1.25736,3.03965,0.0194101,-41.8409,-0.00536862,
2,0,0,1,0,26810.3,-0.00821564,-0.00857953,-55.1321,14,0.0059986,10,0.000473008,-1.2586,2.61999,0.0225192,-48.4068,-0.00857953,
2,0,0,1,0,26810.3,-0.0114118,-0.0117724,-54.9668,14,0.00577842,10,0.000647092,-1.2599,2.19449,0.0268856,-57.6243,-0.0117724,
2,0,0,1,0,26810.3,-0.0146162,-0.0149748,-54.7701,14,0.00555893,10,0.000820174,-1.26146,1.92431,0.0306603,-65.4666,-0.0149748,
2,0,0,1,0,26810.3,-0.0178124,-0.0181858,-54.5506,14,0.00534031,10,0.000992044,-1.2632,1.68101,0.0350979,-74.635,-0.0181858,
2,0,0,1,0,26810.3,-0.0210196,-0.0213935,-54.2932,14,0.00512264,10,0.00116152,-1.26525,1.48266,0.0397933,-84.2154,-0.0213935,
2,0,0,1,0,26810.3,-0.0242158,-0.0245747,-54.0113,14,0.00490605,10,0.00132731,-1.26752,1.35957,0.0433959,-91.3929,-0.0245747,
2,0,0,1,0,26810.3,-0.0274119,-0.0278249,-53.6879,14,0.00469067,10,0.00149386,-1.27012,1.2558,0.046982,-98.3906,-0.0278249,
2,0,0,1,0,26810.3,-0.0306191,-0.030987,-53.3806,14,0.00447655,10,0.00165411,-1.27262,1.1905,0.049559,-103.179,-0.030987,
2,0,0,1,0,26810.3,-0.0338153,-0.0341947,-53.0337,14,0.00426374,10,0.00181347,-1.27545,1.13149,0.0521435,-107.849,-0.0341947,
2,0,0,1,0,26810.3,-0.037017,-0.037412,-52.6868,14,0.00405235,10,0.00197112,-1.2783,1.07157,0.0550596,-113.143,-0.037412,
2,0,0,1,0,26810.4,-0.0402187,-0.0405784,-52.3125,14,0.00384238,10,0.00212276,-1.28139,1.05287,0.0560372,-114.372,-0.0405784,
2,0,0,1,0,26810.4,-0.0434148,-0.0437766,-51.9336,14,0.00363393,10,0.00227347,-1.28455,1.02838,0.0573718,-116.299,-0.0437766,
2,0,0,1,0,26810.4,-0.0466193,-0.047014,-51.5676,14,0.00342698,10,0.0024244,-1.28762,1.03131,0.0572089,-115.14,-0.047014,
2,0,0,1,0,26810.4,-0.0498154,-0.0501676,-51.2033,14,0.00322148,10,0.00256875,-1.2907,1.04415,0.0565054,-112.928,-0.0501676,
2,0,0,1,0,26810.4,-0.0530115,-0.0534072,-50.8354,14,0.00301745,10,0.00271497,-1.29383,1.05137,0.0561174,-111.373,-0.0534072,
2,0,0,1,0,26810.4,-0.056216,-0.0565428,-50.4919,14,0.0028148,10,0.00285495,-1.29678,1.10535,0.0533768,-105.258,-0.0565428,
2,0,0,1,0,26810.4,-0.0594121,-0.0597834,-50.1454,14,0.00261355,10,0.00299786,-1.29977,1.16161,0.0507915,-99.4999,-0.0597834,
2,0,0,1,0,26810.4,-0.0626194,-0.0629307,-49.8599,14,0.00241358,10,0.00313772,-1.30225,1.22452,0.0481821,-93.8095,-0.0629307,
2,0,0,1,0,26810.4,-0.0658155,-0.0662084,-49.5617,14,0.00221478,10,0.0032814,-1.30485,1.34067,0.0440077,-85.1815,-0.0662084,
2,0,0,1,0,26810.4,-0.0690117,-0.0693631,-49.2893,14,0.00201711,10,0.00341886,-1.30725,1.40397,0.0420236,-80.9172,-0.0693631,
2,0,0,1,0,26810.4,-0.0722189,-0.0726196,-49.052,14,0.00182045,10,0.00356214,-1.30934,1.54332,0.0382292,-73.2441,-0.0726196,
2,0,0,1,0,26810.4,-0.075415,-0.0757796,-48.8202,14,0.00162475,10,0.00369958,-1.3114,1.76196,0.0334855,-63.8768,-0.0757796,
2,0,0,1,0,26810.4,-0.0786167,-0.0789831,-48.626,14,0.00142989,10,0.00384063,-1.31313,1.93259,0.030529,-58.0019,-0.0789831,
2,0,0,1,0,26810.4,-0.0818184,-0.0821696,-48.4712,14,0.00123572,10,0.00398286,-1.31452,2.36007,0.0249993,-47.3352,-0.0821696,
2,0,0,1,0,26810.4,-0.0850146,-0.0853551,-48.3133,14,0.00104217,10,0.00412379,-1.31593,2.7004,0.0218486,-41.2372,-0.0853551,
2,0,0,1,0,26810.4,-0.088219,-0.0885639,-48.215,14,0.000849146,10,0.00427011,-1.31682,3.28704,0.0179493,-33.8025,-0.0885639,
2,0,0,1,0,26810.4,-0.0914152,-0.091778,-48.0984,14,0.000656542,10,0.00441437,-1.31787,4.50576,0.0130943,-24.6086,-0.09177801,
2,0,0,1,0,26810.4,-0.0946141,-0.094973,-48.0384,14,0.00046429,10,0.00456235,-1.31841,5.89973,0.0100005,-18.7708,-0.094973,
2,0,0,1,0,26810.4,-0.0978158,-0.0982263,-47.9966,14,0.000272222,10,0.00471453,-1.31879,12.0136,0.0049111,-9.20747,-0.0982263,
2,0,0,1,0,26810.4,-0.101012,-0.101361,-47.9748,14,8.02835e-05,10,0.00486277,-1.31899,29.9068,0.00197279,-3.69675,-0.101361,
2,0,0,1,0,26810.4,-0.104219,-0.104585,-47.9804,14,-0.000111617,10,0.00501801,-1.31894,-38.0895,-0.00154898,2.9026,-0.104585,
2,0,0,1,0,26810.4,-0.107415,-0.107791,-47.991,14,-0.000303551,10,0.00517301,-1.31884,-9.2582,-0.00637273,11.9508,-0.107791,
2,0,0,1,0,26810.4,-0.110611,-0.110923,-48.0334,14,-0.000495613,10,0.00532799,-1.31846,-6.28495,-0.0093875,17.6197,-0.1109226,
2,0,0,1,0,26810.4,-0.113819,-0.114208,-48.1284,14,-0.000687944,10,0.00549663,-1.3176,-4.48525,-0.0131542,24.7181,-0.114208,
2,0,0,1,0,26810.4,-0.117015,-0.117397,-48.2062,14,-0.000880608,10,0.00565928,-1.3169,-3.68369,-0.0160166,30.1454,-0.117397,
2,0,0,1,0,26810.5,-0.120216,-0.120571,-48.3069,14,-0.00107364,10,0.00582443,-1.31599,-3.21623,-0.0183444,34.614,-0.120571,
2,0,0,1,0,26810.5,-0.123418,-0.123768,-48.4206,14,-0.0012671,10,0.00599294,-1.31497,-2.66109,-0.0221713,41.9434,-0.123768,
2,0,0,1,0,26810.5,-0.126614,-0.126954,-48.5695,14,-0.00146108,10,0.00616609,-1.31364,-2.37078,-0.0248863,47.2101,-0.126954,
2,0,0,1,0,26810.5,-0.129819,-0.130185,-48.7425,14,-0.00165571,10,0.00634554,-1.31209,-2.16881,-0.0272039,51.7563,-0.130185,
2,0,0,1,0,26810.5,-0.133015,-0.133364,-48.9109,14,-0.00185103,10,0.00652295,-1.31059,-2.04111,-0.0289058,55.1906,-0.133364,
2,0,0,1,0,26810.5,-0.136214,-0.136502,-49.0797,14,-0.00204703,10,0.00669946,-1.3091,-1.96941,-0.0299582,57.4166,-0.136502,
2,0,0,1,0,26810.5,-0.139416,-0.139809,-49.279,14,-0.00224378,10,0.00688966,-1.30734,-1.79278,-0.0329097,63.3398,-0.139809,
2,0,0,1,0,26810.5,-0.142612,-0.14297,-49.4766,14,-0.00244133,10,0.00707368,-1.3056,-1.7343,-0.0340195,65.7213,-0.1429702,
2,0,0,1,0,26810.5,-0.145819,-0.146195,-49.7236,14,-0.00263973,10,0.00726934,-1.30344,-1.68675,-0.0349786,67.8603,-0.146195,
2,0,0,1,0,26810.5,-0.149015,-0.149361,-49.9248,14,-0.00283904,10,0.00745684,-1.30168,-1.65357,-0.0356803,69.5142,-0.149361,
2,0,0,1,0,26810.5,-0.152211,-0.152567,-50.1448,14,-0.00303921,10,0.00765043,-1.29977,-1.70048,-0.0346962,67.9133,-0.152567,
2,0,0,1,0,26810.5,-0.155418,-0.155786,-50.3675,14,-0.00324028,10,0.00784657,-1.29785,-1.64386,-0.0358912,70.5607,-0.155786,
2,0,0,1,0,26810.5,-0.158615,-0.158919,-50.5877,14,-0.00344222,10,0.00803933,-1.29595,-1.62603,-0.0362848,71.6554,-0.158919,
2,0,0,1,0,26810.5,-0.161816,-0.162146,-50.8269,14,-0.00364507,10,0.00824136,-1.29391,-1.66442,-0.0354478,70.2983,-0.162146,
2,0,0,1,0,26810.5,-0.165018,-0.165345,-51.0604,14,-0.00384887,10,0.00844257,-1.29192,-1.68221,-0.035073,69.8569,-0.165345,
2,0,0,1,0,26810.5,-0.168214,-0.168553,-51.265,14,-0.00405355,10,0.00864084,-1.29018,-1.74527,-0.0338056,67.6259,-0.168553,
2,0,0,1,0,26810.5,-0.171419,-0.171777,-51.486,14,-0.00425907,10,0.00884412,-1.28831,-1.76678,-0.033394,67.1013,-0.171777,
2,0,0,1,0,26810.5,-0.174615,-0.174926,-51.6912,14,-0.00446544,10,0.0090421,-1.28658,-1.77296,-0.0332777,67.1342,-0.174926,
2,0,0,1,0,26810.5,-0.177814,-0.178099,-51.9162,14,-0.00467266,10,0.00924625,-1.2847,-1.82886,-0.0322606,65.3476,-0.178099,
2,0,0,1,0,26810.5,-0.181015,-0.181321,-52.1222,14,-0.00488078,10,0.00945084,-1.28298,-1.88646,-0.0312756,63.5906,-0.181321,
2,0,0,1,0,26810.5,-0.184211,-0.184581,-52.3226,14,-0.00508968,10,0.00965774,-1.28131,-1.97193,-0.02992,61.0798,-0.184581,
2,0,0,1,0,26810.5,-0.187419,-0.187768,-52.5078,14,-0.00529936,10,0.0098593,-1.27978,-2.01386,-0.029297,60.0339,-0.187768,
2,0,0,1,0,26810.5,-0.190615,-0.190977,-52.7028,14,-0.0055098,10,0.010065,-1.27817,-2.00125,-0.0294816,60.6452,-0.190977,
2,0,0,1,0,26810.5,-0.193811,-0.194144,-52.892,14,-0.00572101,10,0.0102687,-1.27661,-2.08422,-0.028308,58.4042,-0.1941444,
2,0,0,1,0,26810.5,-0.197018,-0.197345,-53.0967,14,-0.00593303,10,0.0104784,-1.27493,-2.5009,-0.0235915,48.7351,-0.197345,
2,0,0,1,0,26810.6,-0.199647,-0.200041,-53.2246,14,-0.00610848,10,0.0106471,-1.27389,0.241899,0.243903,-491.092,-0.200041,
2,0,0,1,0,26810.6,-0.200134,-0.200418,-53.1629,14,-0.00614041,10,0.0106548,-1.27439,-0.0141167,-4.17946,7901.83,-0.200418,
2,0,0,1,1,26810.6,-0.198935,-0.199396,-50.3132,14,-0.00621715,10,0.0100322,-1.29832,-0.0530484,-1.11219,1990.64,-0.199396,
2,0,0,1,1,26810.6,-0.195739,-0.196203,-44.0723,14,-0.00640473,10,0.0086471,-1.35583,-0.0588579,-1.00241,1701.56,-0.196203,
2,0,0,1,1,26810.6,-0.192535,-0.193001,-39.2114,14,-0.00657055,10,0.00756786,-1.40659,-0.0628378,-0.938925,1470.42,-0.193001,
2,0,0,1,1,26810.6,-0.189339,-0.189788,-35.0763,14,-0.00671856,10,0.00665706,-1.45499,-0.065821,-0.896371,1241.7,-0.189788,
2,0,0,1,1,26810.6,-0.186137,-0.186547,-31.4198,14,-0.00685107,10,0.00586126,-1.5028,-0.0663744,-0.888897,1097.27,-0.186547,
2,0,0,1,1,26810.6,-0.182935,-0.183347,-28.1098,14,-0.0069697,10,0.00515386,-1.55114,-0.0652809,-0.903787,994.691,-0.183347,
2,0,0,1,1,26810.6,-0.179739,-0.180136,-25.0952,14,-0.00707573,10,0.00452055,-1.60041,-0.0633082,-0.931949,913.359,-0.1801364,
2,0,0,1,1,26810.6,-0.176532,-0.176932,-22.2881,14,-0.00717016,10,0.00394348,-1.65193,-0.0605771,-0.973966,845.786,-0.176932,
2,0,0,1,1,26810.6,-0.173336,-0.173727,-19.7113,14,-0.00725385,10,0.00342438,-1.70529,-0.0571887,-1.03167,789.026,-0.173727,
2,0,0,1,1,26810.6,-0.17014,-0.17053,-17.2693,14,-0.00732753,10,0.00294493,-1.76273,-0.0531223,-1.11064,741.155,-0.1705302,
2,0,0,1,1,26810.6,-0.166932,-0.1673,-14.9671,14,-0.00739174,10,0.00250399,-1.82486,-0.0482415,-1.22301,704.309,-0.1673,
2,0,0,1,1,26810.6,-0.163736,-0.16411,-12.7855,14,-0.007447,10,0.00209824,-1.89328,-0.0431738,-1.36657,668.004,-0.16411,
2,0,0,1,1,26810.6,-0.160532,-0.160947,-10.7102,14,-0.00749376,10,0.00172377,-1.9702,-0.0377109,-1.56453,634.904,-0.160947,
2,0,0,1,1,26810.6,-0.157336,-0.157764,-8.74137,14,-0.00753246,10,0.00137907,-2.05842,-0.0316421,-1.8646,605.586,-0.157764,
2,0,0,1,1,26810.6,-0.154139,-0.154547,-6.86981,14,-0.00756348,10,0.00106171,-2.16306,-0.0250809,-2.35239,578.384,-0.154547,
2,0,0,1,1,26810.6,-0.150935,-0.151324,-5.04225,14,-0.00758709,10,0.000763013,-2.29738,-0.0175134,-3.36886,555.862,-0.151324,
2,0,0,1,1,26810.6,-0.147739,-0.148148,-3.30736,14,-0.00760359,10,0.00048998,-2.48052,-0.00566046,-10.4232,534.573,-0.148148,
2,0,0,1,1,26810.6,-0.144532,-0.144958,-1.62329,14,-0.00761327,10,0.00023531,-2.7896,-0.0243806,-2.41995,514.949,-0.144958,
2,0,0,1,1,26810.6,-0.141335,-0.141767,-0.0379463,14,-0.00761641,10,5.37952e-06,-4.42083,-0.336483,-0.175343,496.341,-0.141767,
2,1,0,1,1,26810.6,-0.138139,-0.138591,1.51478,14,-0.00761328,10,-0.000209935,-2.81965,0.0289423,2.03854,478.333,-0.138591,
2,1,0,1,1,26810.6,-0.134932,-0.135379,3.03062,14,-0.00760402,10,-0.000410282,-2.51847,0.00584565,10.093,462.095,-0.135379,
2,1,0,1,1,26810.6,-0.131736,-0.132201,4.47915,14,-0.00758884,10,-0.000592147,-2.3488,0.0188414,3.1314,447.499,-0.132201,
2,1,0,1,1,26810.6,-0.12854,-0.128964,5.87793,14,-0.00756796,10,-0.000758043,-2.23078,0.0283686,2.07976,432.41,-0.128964,
2,1,0,1,1,26810.6,-0.125333,-0.125783,7.24617,14,-0.00754156,10,-0.000911446,-2.13989,0.0371758,1.58706,422.837,-0.125783,
2,1,0,1,1,26810.6,-0.122136,-0.122578,8.56601,14,-0.00750979,10,-0.00105,-2.06722,0.0458139,1.28782,413.831,-0.122578,
2,1,0,1,1,26810.7,-0.118932,-0.11943,9.87899,14,-0.00747278,10,-0.00117985,-2.00529,0.0549598,1.07351,401.446,-0.11943,
2,1,0,1,1,26810.7,-0.115736,-0.116229,11.1483,14,-0.0074306,10,-0.00129575,-1.95279,0.0641937,0.919093,390.086,-0.116229,
2,1,0,1,1,26810.7,-0.11254,-0.113013,12.3728,14,-0.00738344,10,-0.00139829,-1.90753,0.0738428,0.798995,378.718,-0.113013,
2,1,0,1,1,26810.7,-0.109335,-0.109759,13.5662,14,-0.00733141,10,-0.00148902,-1.86754,0.0831932,0.709193,370.266,-0.109759,
2,1,0,1,1,26810.7,-0.106139,-0.10661,14.7343,14,-0.00727468,10,-0.00157082,-1.83167,0.0933103,0.632299,359.396,-0.10661,
2,1,0,1,1,26810.7,-0.102932,-0.103432,15.8866,14,-0.00721332,10,-0.00164318,-1.79897,0.10288,0.573483,351.599,-0.103432,
2,1,0,1,1,26810.7,-0.0997357,-0.100137,17.0002,14,-0.00714742,10,-0.00170235,-1.76955,0.113425,0.520167,341.787,-0.1001372,
2,1,0,1,1,26810.7,-0.0965395,-0.096957,18.0675,14,-0.00707715,10,-0.00175177,-1.7431,0.124755,0.472925,330.916,-0.096957,
2,1,0,1,1,26810.7,-0.0933323,-0.0937504,19.1295,14,-0.00700264,10,-0.0017934,-1.7183,0.135057,0.436851,323.95,-0.0937504,
2,1,0,1,1,26810.7,-0.0901362,-0.0905787,20.1399,14,-0.00692398,10,-0.00182424,-1.69594,0.145633,0.405128,316.652,-0.09057869,
2,1,0,1,1,26810.7,-0.0869345,-0.0873169,21.1534,14,-0.00684131,10,-0.00184705,-1.67462,0.157345,0.374973,307.919,-0.0873169,
2,1,0,1,1,26810.7,-0.0837328,-0.0841452,22.1244,14,-0.00675464,10,-0.00186166,-1.65513,0.168518,0.350111,300.789,-0.0841452,
2,1,0,1,1,26810.7,-0.0805366,-0.0809322,23.0765,14,-0.00666414,10,-0.00186763,-1.63683,0.179998,0.327781,293.938,-0.0809322,
2,1,0,1,1,26810.7,-0.0773322,-0.0777446,24.0002,14,-0.00656989,10,-0.00186589,-1.61978,0.192884,0.305883,285.423,-0.0777446,
2,1,0,1,1,26810.7,-0.074136,-0.0745559,24.9043,14,-0.00647198,10,-0.00185676,-1.60373,0.204026,0.289179,280.145,-0.0745559,
2,1,0,1,1,26810.7,-0.0709371,-0.071309,25.7881,14,-0.0063705,10,-0.00183892,-1.58858,0.217406,0.271381,272.239,-0.071309,
2,1,0,1,1,26810.7,-0.0677354,-0.0681574,26.6553,14,-0.00626551,10,-0.00181675,-1.57422,0.230215,0.256282,265.747,-0.0681574,
2,1,0,1,1,26810.7,-0.0645393,-0.0649359,27.4873,14,-0.00615713,10,-0.00178491,-1.56087,0.244112,0.241693,258.521,-0.06493593,
2,1,0,1,1,26810.7,-0.061332,-0.0617483,28.3079,14,-0.00604548,10,-0.00174796,-1.54809,0.259372,0.227472,250.596,-0.0617483,
2,1,0,1,1,26810.7,-0.0581359,-0.0585247,29.0931,14,-0.00593058,10,-0.00170267,-1.53621,0.274008,0.215322,243.91,-0.0585247,
2,1,0,1,1,26810.7,-0.0549398,-0.0553626,29.8616,14,-0.0058126,10,-0.00165321,-1.52489,0.290098,0.203379,236.553,-0.0553626,
2,1,0,1,1,26810.7,-0.0517325,-0.0520923,30.62,14,-0.00569153,10,-0.00159506,-1.514,0.304776,0.193585,230.78,-0.0520923,
2,1,0,1,1,26810.7,-0.0485364,-0.0488898,31.3496,14,-0.00556752,10,-0.00153268,-1.50377,0.321682,0.183411,223.863,-0.0488898,
2,1,0,1,1,26810.7,-0.0453347,-0.0457224,32.0476,14,-0.00544065,10,-0.0014653,-1.4942,0.339062,0.17401,217.21,-0.04572241,
2,1,0,1,1,26810.7,-0.042133,-0.0425412,32.7318,14,-0.00531102,10,-0.00139245,-1.48503,0.355387,0.166016,211.731,-0.0425412,
2,1,0,1,1,26810.8,-0.0389369,-0.0393419,33.3894,14,-0.00517871,10,-0.00131361,-1.47639,0.377821,0.156159,203.14,-0.0393419,
2,1,0,1,1,26810.8,-0.0357324,-0.0361554,34.0459,14,-0.00504379,10,-0.00123094,-1.46794,0.398599,0.148018,196.254,-0.0361554,
2,1,0,1,1,26810.8,-0.0325363,-0.0329074,34.6509,14,-0.00490633,10,-0.00114027,-1.46029,0.420717,0.140237,189.303,-0.0329074,
2,1,0,1,1,26810.8,-0.0293374,-0.0297315,35.2458,14,-0.00476648,10,-0.00104791,-1.45289,0.446137,0.132246,181.649,-0.0297315,
2,1,0,1,1,26810.8,-0.0261357,-0.0265248,35.8158,14,-0.00462427,10,-0.000950006,-1.44593,0.466436,0.126491,176.565,-0.0265248,
2,1,0,1,1,26810.8,-0.0229395,-0.0233584,36.3704,14,-0.00447985,10,-0.000849556,-1.43925,0.496431,0.118848,168.444,-0.0233584,
2,1,0,1,1,26810.8,-0.0197323,-0.0201316,36.9066,14,-0.00433324,10,-0.00074299,-1.4329,0.523724,0.112655,161.974,-0.0201316,
2,1,0,1,1,26810.8,-0.0165361,-0.0168952,37.408,14,-0.00418455,10,-0.000632017,-1.42704,0.554704,0.106363,155.074,-0.0168952,
2,1,0,1,1,26810.8,-0.01334,-0.0137458,37.8856,14,-0.00403389,10,-0.00052077,-1.42153,0.587722,0.100388,148.287,-0.0137458,
2,1,0,1,1,26810.8,-0.0101328,-0.0105074,38.3633,14,-0.00388132,10,-0.000403097,-1.41608,0.619213,0.0952822,142.465,-0.0105074,
2,1,0,1,1,26810.8,-0.00693663,-0.00731022,38.8079,14,-0.00372693,10,-0.000283694,-1.41108,0.652211,0.0904616,136.756,-0.00731022,
2,1,0,1,1,26810.8,-0.00373494,-0.00410355,39.2303,14,-0.00357081,10,-0.000160984,-1.40638, , , ,-0.00410355,
2,1,0,1,1,26810.8,-0.000774628,-0.00121129,39.5998,14,-0.00342494,10,-4.7967e-05,-1.40231, , , ,-0.00121129,
2,1,0,0,1,26810.8,-0.000125413,-0.000516197,39.6933,14,-0.00339323,10,-2.04896e-05,-1.40128, , , ,-0.000516197,