File: Figure_codes/Fig_3-5/rawdata_trumpetplot_data/after 10th/20221101_1-115_003_TrumpetPlot_ParaChange_from10_every3_07_CV_C01_33.csv
mode,ox/red,error,control changes,counter inc.,time/s,control/V,Ewe/V,<I>/mA,cycle number,(Q-Qo)/C,I Range,P/W,log(|I|),Tafel slope mV/dec,alpha_eff,dI/d(E-IR),E-IR/V,
2,0,0,0,0,66179.3,2.44065e-05,-0.000268062,-2.69949,34,0.0000000E+000,10,7.2363e-07,-2.56872, , , ,-0.000268062,
2,0,0,1,0,66179.3,0.0013005,0.000884963,-1.49127,34,-4.18788e-05,10,-1.31972e-06,-2.82644, , , ,0.000884963,
2,0,0,1,0,66179.4,0.00279471,0.00248283,-0.617683,34,-6.70504e-05,10,-1.5336e-06,-3.20923,-0.00353078,-16.7102,498.768,0.00248283,
2,0,0,1,0,66179.4,0.00429425,0.00395333,-0.0256143,34,-7.43099e-05,10,-1.01262e-07,-4.59152,-0.0191013,-3.0888,350.827,0.00395333,
2,1,0,1,0,66179.4,0.00579379,0.0054442,0.416965,34,-6.87305e-05,10,2.27004e-06,-3.3799,0.00638179,9.24505,265.807,0.0054442,
2,1,0,1,0,66179.4,0.007288,0.00696603,0.757521,34,-5.34811e-05,10,5.27691e-06,-3.12061,0.00662272,8.90873,212.329,0.00696603,
2,1,0,1,0,66179.5,0.00878882,0.00846639,1.03482,34,-3.04637e-05,10,8.76118e-06,-2.98514,0.0131873,4.47401,166.892,0.00846639,
2,1,0,1,0,66179.5,0.0102896,0.00997454,1.26776,34,-1.2252e-06,10,1.26454e-05,-2.89696,0.020575,2.86755,134.599,0.00997454,
2,1,0,1,0,66179.5,0.0117838,0.0114252,1.44747,34,3.29466e-05,10,1.65377e-05,-2.83939,0.0279773,2.10885,115.4,0.0114252,
2,1,0,1,0,66179.5,0.0132834,0.0129538,1.59642,34,7.13793e-05,10,2.06796e-05,-2.79685,0.0367783,1.60421,98.5823,0.0129538,
2,1,0,1,0,66179.6,0.0147816,0.0144372,1.72646,34,0.000113396,10,2.49252e-05,-2.76284,0.0483134,1.22119,81.6411,0.0144372,
2,1,0,1,0,66179.6,0.0162811,0.0159175,1.84141,34,0.00015856,10,2.93107e-05,-2.73485,0.0590979,0.998343,71.2255,0.0159175,
2,1,0,1,0,66179.6,0.0177753,0.0174274,1.95056,34,0.000206211,10,3.39932e-05,-2.70984,0.0705825,0.835901,62.8946,0.0174274,
2,1,0,1,0,66179.6,0.0192761,0.0189571,2.02992,34,0.000256328,10,3.84815e-05,-2.69252,0.0822489,0.717335,56.6543,0.0189571,
2,1,0,1,0,66179.7,0.020777,0.0204731,2.11177,34,0.000308481,10,4.32343e-05,-2.67535,0.0974707,0.60531,49.7136,0.02047307,
2,1,0,1,0,66179.7,0.0222712,0.0219769,2.18965,34,0.000362382,10,4.81217e-05,-2.65963,0.107902,0.546794,46.428,0.0219769,
2,1,0,1,0,66179.7,0.0237707,0.0234572,2.25761,34,0.000418301,10,5.29573e-05,-2.64635,0.118707,0.497022,43.5596,0.0234572,
2,1,0,1,0,66179.7,0.0252703,0.0249821,2.3123,34,0.000475791,10,5.77662e-05,-2.63596,0.128953,0.457533,41.3404,0.0249821,
2,1,0,1,0,66179.8,0.0267645,0.0264893,2.37197,34,0.000534535,10,6.28319e-05,-2.62489,0.137933,0.427743,39.6191,0.0264893,
2,1,0,1,0,66179.8,0.0282653,0.0279515,2.43851,34,0.000595022,10,6.81601e-05,-2.61288,0.14772,0.399403,37.8283,0.0279515,
2,1,0,1,0,66179.8,0.0297648,0.029423,2.48878,34,0.000656956,10,7.32274e-05,-2.60401,0.156271,0.377549,36.5237,0.029423,
2,1,0,1,0,66179.8,0.031259,0.0309325,2.53338,34,0.000719924,10,7.83638e-05,-2.5963,0.163754,0.360296,35.6746,0.03093248,
2,1,0,1,0,66179.9,0.0327585,0.0324445,2.58749,34,0.00078434,10,8.39499e-05,-2.58712,0.183814,0.320977,32.4614,0.0324445,
2,1,0,1,0,66179.9,0.034258,0.0339238,2.64097,34,0.00085009,10,8.95918e-05,-2.57824,0.180877,0.326189,33.5796,0.0339238,
2,1,0,1,0,66179.9,0.0357576,0.0354281,2.68953,34,0.000917129,10,9.52849e-05,-2.57032,0.197982,0.298006,31.2512,0.0354281,
2,1,0,1,0,66179.9,0.0372518,0.0369628,2.73609,34,0.000985123,10,0.000101133,-2.56287,0.192948,0.305783,32.6758,0.0369628,
2,1,0,1,0,66180,0.0387526,0.038432,2.77885,34,0.0010545,10,0.000106797,-2.55614,0.205538,0.287052,31.2478,0.038432,
2,1,0,1,0,66180,0.0402534,0.039904,2.83275,34,0.00112508,10,0.000113038,-2.54779,0.209865,0.281133,31.0725,0.03990395,
2,1,0,1,0,66180,0.0417476,0.0414509,2.88835,34,0.00119667,10,0.000119725,-2.53935,0.203138,0.290443,32.6056,0.04145088,
2,1,0,1,0,66180,0.0432472,0.0429864,2.92859,34,0.0012697,10,0.000125889,-2.53334,0.209684,0.281375,32.1546,0.0429864,
2,1,0,1,0,66180.1,0.0447467,0.0444316,2.96917,34,0.0013438,10,0.000131925,-2.52736,0.228165,0.258584,30.0007,0.0444316,
2,1,0,1,0,66180.1,0.0462463,0.0459189,3.01816,34,0.00141907,10,0.00013859,-2.52026,0.226918,0.260006,30.6162,0.0459189,
2,1,0,1,0,66180.1,0.0477391,0.0474299,3.06701,34,0.00149516,10,0.000145468,-2.51328,0.223395,0.264106,31.5722,0.0474299,
2,1,0,1,0,66180.1,0.0492399,0.0489104,3.10755,34,0.00157272,10,0.000151992,-2.50758,0.23512,0.250936,30.4117,0.0489104,
2,1,0,1,0,66180.2,0.0507408,0.0503555,3.14977,34,0.00165135,10,0.000158609,-2.50172,0.263499,0.22391,27.552,0.0503555,
2,1,0,1,0,66180.2,0.052235,0.0518803,3.19592,34,0.00173073,10,0.000165805,-2.4954,0.255151,0.231235,28.8295,0.0518803,
2,1,0,1,0,66180.2,0.0537345,0.0533812,3.24633,34,0.00181158,10,0.000173293,-2.48861,0.246316,0.23953,30.2825,0.0533812,
2,1,0,1,0,66180.2,0.0552341,0.0549332,3.28429,34,0.00189359,10,0.000180417,-2.48356,0.254235,0.232069,29.735,0.0549332,
2,1,0,1,0,66180.3,0.0567283,0.0563851,3.32111,34,0.00197629,10,0.000187261,-2.47872,0.275103,0.214465,27.8657,0.0563851,
2,1,0,1,0,66180.3,0.0582291,0.057886,3.36957,34,0.0020603,10,0.000195051,-2.47243,0.28851,0.204499,26.8866,0.057886,
2,1,0,1,0,66180.3,0.0597299,0.0593823,3.40918,34,0.00214543,10,0.000202445,-2.46735,0.272594,0.216439,28.7618,0.0593823,
2,1,0,1,0,66180.3,0.0612228,0.0608764,3.45,34,0.00223127,10,0.000210024,-2.46218,0.294068,0.200634,26.9988,0.0608764,
2,1,0,1,0,66180.4,0.0627223,0.0623953,3.48932,34,0.00231845,10,0.000217717,-2.45726,0.320604,0.184028,25.0716,0.0623953,
2,1,0,1,0,66180.4,0.0642218,0.0639048,3.53001,34,0.00240655,10,0.000225585,-2.45222,0.323855,0.18218,25.1205,0.0639048,
2,1,0,1,0,66180.4,0.0657214,0.0653941,3.56671,34,0.00249567,10,0.000233242,-2.44773,0.308918,0.190989,26.5912,0.0653941,
2,1,0,1,0,66180.4,0.0672156,0.0668638,3.60951,34,0.00258546,10,0.000241346,-2.44255,0.304587,0.193705,27.2929,0.06686379,
2,1,0,1,0,66180.5,0.0687164,0.068395,3.6456,34,0.00267656,10,0.000249341,-2.43823,0.335257,0.175985,25.0446,0.068395,
2,1,0,1,0,66180.5,0.0702172,0.0698989,3.68303,34,0.00276858,10,0.00025744,-2.43379,0.368223,0.160229,23.0302,0.0698989,
2,1,0,1,0,66180.5,0.0717114,0.0713473,3.72004,34,0.00286111,10,0.000265415,-2.42945,0.35601,0.165726,24.0368,0.0713473,
2,1,0,1,0,66180.5,0.073211,0.0729014,3.75214,34,0.00295492,10,0.000273536,-2.42572,0.356486,0.165505,24.236,0.0729014,
2,1,0,1,0,66180.6,0.0747105,0.074424,3.78281,34,0.00304956,10,0.000281532,-2.42219,0.423714,0.139245,20.5866,0.074424,
2,1,0,1,0,66180.6,0.0762101,0.0758702,3.81476,34,0.00314503,10,0.000289427,-2.41853,0.42302,0.139473,20.7712,0.0758702,
2,1,0,1,0,66180.6,0.0777042,0.0773937,3.85533,34,0.00324088,10,0.000298378,-2.41394,0.397009,0.148611,22.3367,0.0773937,
2,1,0,1,0,66180.6,0.0792037,0.0788941,3.88302,34,0.0033379,10,0.000306348,-2.41083,0.388454,0.151884,22.9973,0.0788941,
2,1,0,1,0,66180.7,0.0807046,0.080415,3.90852,34,0.00343575,10,0.000314304,-2.40799,0.470656,0.125357,19.125,0.080415,
2,1,0,1,0,66180.7,0.0821988,0.0818755,3.93967,34,0.00353388,10,0.000322562,-2.40454,0.529104,0.111509,17.1382,0.0818755,
2,1,0,1,0,66180.7,0.0836983,0.0833953,3.96782,34,0.00363307,10,0.000330898,-2.40145,0.461943,0.127721,19.7696,0.08339525,
2,1,0,1,0,66180.7,0.0851979,0.0849197,3.99522,34,0.00373298,10,0.000339273,-2.39846,0.444941,0.132602,20.6799,0.0849197,
2,1,0,1,0,66180.8,0.0866921,0.0863414,4.0199,34,0.0038332,10,0.000347083,-2.39579,0.588423,0.100268,15.7393,0.0863414,
2,1,0,1,0,66180.8,0.0881929,0.0878332,4.05022,34,0.00393451,10,0.000355744,-2.39252,0.582088,0.101359,16.0192,0.0878332,
2,1,0,1,0,66180.8,0.0896937,0.0893343,4.08218,34,0.00403643,10,0.000364679,-2.38911,0.50716,0.116334,18.5081,0.0893343,
2,1,0,1,0,66180.8,0.0911879,0.0908813,4.10504,34,0.00413864,10,0.000373071,-2.38668,0.442392,0.133366,21.3641,0.0908813,
2,1,0,1,0,66180.9,0.0926861,0.0923859,4.13627,34,0.00424204,10,0.000382133,-2.38339,0.461099,0.127955,20.6697,0.0923859,
2,1,0,1,0,66180.9,0.0941856,0.0938868,4.1676,34,0.00434621,10,0.000391283,-2.38011,0.474352,0.12438,20.2341,0.0938868,
2,1,0,1,0,66180.9,0.0956852,0.0953246,4.19796,34,0.00445117,10,0.000400169,-2.37696,0.43751,0.134854,22.1207,0.0953246,
2,1,0,1,0,66180.9,0.0971794,0.0968296,4.23291,34,0.00455653,10,0.000409871,-2.37336,0.349777,0.168679,27.9065,0.0968296,
2,1,0,1,0,66181,0.0986802,0.0983137,4.27579,34,0.00466329,10,0.000420369,-2.36898,0.361956,0.163003,27.2449,0.0983137,
2,1,0,1,0,66181,0.100181,0.0998841,4.32019,34,0.00477117,10,0.000431518,-2.3645,0.358033,0.164789,27.7889,0.0998841,
2,1,0,1,0,66181,0.101675,0.10134,4.36404,34,0.00487967,10,0.000442252,-2.36011,0.318837,0.185047,31.537,0.10134,
2,1,0,1,0,66181,0.103175,0.102893,4.41474,34,0.00498976,10,0.000454248,-2.35509,0.277747,0.212423,36.6438,0.102893,
2,1,0,1,0,66181.1,0.104674,0.104383,4.46746,34,0.0051012,10,0.000466326,-2.34994,0.275343,0.214279,37.4046,0.104383,
2,1,0,1,0,66181.1,0.106169,0.105858,4.52401,34,0.00521363,10,0.000478901,-2.34448,0.278173,0.212098,37.4839,0.105858,
2,1,0,1,0,66181.1,0.107668,0.107347,4.58592,34,0.00532795,10,0.000492287,-2.33857,0.256641,0.229893,41.1898,0.1073475,
2,1,0,1,0,66181.1,0.109169,0.108869,4.64838,34,0.00544375,10,0.000506065,-2.3327,0.238361,0.247523,44.9955,0.108869,
2,1,0,1,0,66181.2,0.110663,0.110296,4.72184,34,0.00556082,10,0.0005208,-2.32589,0.229874,0.256662,47.2925,0.110296,
2,1,0,1,0,66181.2,0.112163,0.111818,4.79044,34,0.00568011,10,0.000535657,-2.31962,0.253339,0.232889,43.5305,0.111818,
2,1,0,1,0,66181.2,0.113662,0.113367,4.86065,34,0.00580118,10,0.00055104,-2.31331,0.246139,0.239702,45.4479,0.1133675,
2,1,0,1,0,66181.2,0.115162,0.11485,4.92693,34,0.00592389,10,0.00056586,-2.30742,0.253593,0.232656,44.7486,0.11485,
2,1,0,1,0,66181.3,0.116656,0.116322,4.99143,34,0.00604781,10,0.000580613,-2.30177,0.251546,0.23455,45.7127,0.116322,
2,1,0,1,0,66181.3,0.118157,0.117844,5.06344,34,0.00617396,10,0.000596695,-2.29555,0.26983,0.218656,43.2014,0.117844,
2,1,0,1,0,66181.3,0.119657,0.119327,5.13295,34,0.00630178,10,0.0006125,-2.28963,0.298961,0.19735,39.4751,0.119327,
2,1,0,1,0,66181.3,0.121152,0.120845,5.18827,34,0.0064306,10,0.000626979,-2.28498,0.305337,0.193229,39.0799,0.120845,
2,1,0,1,0,66181.4,0.122651,0.122325,5.23852,34,0.00656135,10,0.000640803,-2.28079,0.316939,0.186156,38.0996,0.122325,
2,1,0,1,0,66181.4,0.124151,0.123808,5.30058,34,0.0066935,10,0.000656252,-2.27568,0.354319,0.166517,34.4045,0.123808,
2,1,0,1,0,66181.4,0.125649,0.125403,5.35192,34,0.00682695,10,0.000671146,-2.27149,0.40317,0.14634,30.4841,0.125403,
2,1,0,1,0,66181.4,0.127143,0.126819,5.38574,34,0.00696102,10,0.000683016,-2.26875,0.416551,0.141639,29.7781,0.126819,
2,1,0,1,0,66181.5,0.128644,0.128343,5.42508,34,0.00709658,10,0.000696273,-2.26559,0.48124,0.1226,25.9766,0.128343,
2,1,0,1,0,66181.5,0.130145,0.129879,5.46726,34,0.00723313,10,0.000710083,-2.26223,0.592234,0.0996228,21.229,0.129879,
2,1,0,1,0,66181.5,0.131639,0.131286,5.50195,34,0.00737008,10,0.000722327,-2.25948,0.644992,0.0914741,19.6077,0.131286,
2,1,0,1,0,66181.5,0.133139,0.132805,5.5264,34,0.0075083,10,0.000733936,-2.25756,0.719792,0.0819681,17.6854,0.132805,
2,1,0,1,0,66181.6,0.134638,0.134272,5.55118,34,0.00764716,10,0.000745371,-2.25561,0.779485,0.075691,16.4071,0.134272,
2,1,0,1,0,66181.6,0.136132,0.135781,5.5765,34,0.00778609,10,0.000757182,-2.25364,1.02534,0.0575417,12.5219,0.135781,
2,1,0,1,0,66181.6,0.137633,0.137328,5.60218,34,0.00792613,10,0.000769338,-2.25164,1.2156,0.0485356,10.5854,0.137328,
2,1,0,1,0,66181.6,0.139133,0.138834,5.61295,34,0.00806659,10,0.000779268,-2.25081,1.97938,0.0298073,6.5131,0.138834,
2,1,0,1,0,66181.7,0.140627,0.140317,5.60969,34,0.00820666,10,0.000787134,-2.25106,5.76489,0.0102344,2.24003,0.140317,
2,1,0,1,0,66181.7,0.142126,0.14183,5.60868,34,0.00834735,10,0.000795479,-2.25114,-2.92688,-0.020158,-4.40972,0.14183,
2,1,0,1,0,66181.7,0.143626,0.143291,5.61084,34,0.00848801,10,0.000803981,-2.25097,-1.3709,-0.0430375,-9.39378,0.143291,
2,1,0,1,0,66181.7,0.145125,0.144791,5.58504,34,0.00862831,10,0.000808663,-2.25297,-0.690815,-0.0854064,-18.5781,0.1447909,
2,1,0,1,0,66181.8,0.14662,0.146329,5.54399,34,0.00876727,10,0.000811244,-2.25618,-0.434853,-0.135678,-29.3127,0.146329,
2,1,0,1,0,66181.8,0.14812,0.147782,5.49286,34,0.00890569,10,0.000811744,-2.2602,-0.322502,-0.182945,-39.1514,0.1477817,
2,1,0,1,0,66181.8,0.149621,0.149296,5.43374,34,0.00904266,10,0.000811234,-2.2649,-0.24874,-0.237195,-50.114,0.149296,
2,1,0,1,0,66181.8,0.151116,0.150807,5.35315,34,0.00917728,10,0.00080729,-2.27139,-0.204567,-0.288415,-59.9871,0.1508065,
2,1,0,1,0,66181.9,0.152615,0.152293,5.24366,34,0.00931013,10,0.000798574,-2.28037,-0.168904,-0.349312,-71.3561,0.152293,
2,1,0,1,0,66181.9,0.154115,0.153789,5.13157,34,0.00944025,10,0.000789179,-2.28975,-0.145561,-0.405329,-81.0168,0.153789,
2,1,0,1,0,66181.9,0.155614,0.155289,5.00594,34,0.00956737,10,0.000777368,-2.30051,-0.133829,-0.44086,-85.9541,0.155289,
2,1,0,1,0,66181.9,0.157107,0.156819,4.87135,34,0.00969072,10,0.000763922,-2.31235,-0.118182,-0.499229,-94.6422,0.1568193,
2,1,0,1,0,66182,0.158608,0.158289,4.72132,34,0.00981103,10,0.000747333,-2.32594,-0.110829,-0.53235,-98.0216,0.158289,
2,1,0,1,0,66182,0.160109,0.159811,4.57104,34,0.00992755,10,0.000730504,-2.33998,-0.103025,-0.572674,-102.138,0.159811,
2,1,0,1,0,66182,0.161603,0.161258,4.43029,34,0.0100399,10,0.00071442,-2.35357,-0.104231,-0.566051,-97.7182,0.161258,
2,1,0,1,0,66182,0.163102,0.162831,4.28132,34,0.0101491,10,0.00069713,-2.36842,-0.105224,-0.560709,-93.6902,0.162831,
2,1,0,1,0,66182.1,0.164602,0.164279,4.13989,34,0.0102547,10,0.000680096,-2.38301,-0.104187,-0.566291,-91.6476,0.164279,
2,1,0,1,0,66182.1,0.166096,0.165748,4.00616,34,0.0103565,10,0.000664012,-2.39727,-0.106784,-0.552515,-86.636,0.165748,
2,1,0,1,0,66182.1,0.167597,0.167273,3.88616,34,0.0104555,10,0.000650048,-2.41048,-0.113953,-0.517759,-78.5678,0.167273,
2,1,0,1,0,66182.1,0.169098,0.16878,3.77307,34,0.0105515,10,0.000636818,-2.4233,-0.123783,-0.476641,-70.159,0.16878,
2,1,0,1,0,66182.2,0.170592,0.170315,3.66209,34,0.0106444,10,0.000623709,-2.43627,-0.118931,-0.496085,-71.0557,0.170315,
2,1,0,1,0,66182.2,0.17209,0.171731,3.55777,34,0.0107351,10,0.000610978,-2.44882,-0.126558,-0.46619,-64.9649,0.171731,
2,1,0,1,0,66182.2,0.17359,0.173278,3.47821,34,0.0108234,10,0.000602697,-2.45864,-0.136093,-0.433526,-58.835,0.173278,
2,1,0,1,0,66182.2,0.175089,0.174753,3.38918,34,0.0109095,10,0.000592271,-2.4699,-0.153702,-0.38386,-50.8628,0.174753,
2,1,0,1,0,66182.3,0.176583,0.17624,3.31043,34,0.0109933,10,0.000583429,-2.48012,-0.154143,-0.382761,-49.5224,0.17624,
2,1,0,1,0,66182.3,0.178084,0.17775,3.23915,34,0.0110756,10,0.000575759,-2.48957,-0.158911,-0.371277,-47.0587,0.1777503,
2,1,0,1,0,66182.3,0.179585,0.179276,3.17734,34,0.0111562,10,0.00056962,-2.49794,-0.180364,-0.327116,-40.6058,0.179276,
2,1,0,1,0,66182.3,0.181079,0.180737,3.12004,34,0.0112348,10,0.000563906,-2.50584,-0.194134,-0.303914,-37.0029,0.180737,
2,1,0,1,0,66182.4,0.182579,0.182287,3.05977,34,0.0113124,10,0.000557756,-2.51431,-0.204804,-0.28808,-34.4389,0.182287,
2,1,0,1,0,66182.4,0.184078,0.183801,3.01033,34,0.0113887,10,0.000553302,-2.52139,-0.198793,-0.296791,-34.8958,0.183801,
2,1,0,1,0,66182.4,0.185578,0.185308,2.96241,34,0.0114637,10,0.000548959,-2.52835,-0.218245,-0.270338,-31.2768,0.185308,
2,1,0,1,0,66182.4,0.187072,0.186748,2.92242,34,0.0115373,10,0.000545755,-2.53426,-0.268061,-0.220099,-25.1043,0.186748,
2,1,0,1,0,66182.5,0.188573,0.18827,2.88078,34,0.0116101,10,0.000542366,-2.54049,-0.279355,-0.211201,-23.7527,0.18827,
2,1,0,1,0,66182.5,0.190072,0.189767,2.84322,34,0.011682,10,0.000539549,-2.54619,-0.265569,-0.222165,-24.6698,0.189767,
2,1,0,1,0,66182.5,0.191567,0.191235,2.80579,34,0.0117527,10,0.000536565,-2.55195,-0.287106,-0.205499,-22.5334,0.191235,
2,1,0,1,0,66182.5,0.193066,0.192749,2.77855,34,0.0118229,10,0.000535562,-2.55618,-0.362182,-0.162901,-17.6766,0.192749,
2,1,0,1,0,66182.6,0.194566,0.194266,2.74901,34,0.0118923,10,0.000534038,-2.56082,-0.382437,-0.154274,-16.5716,0.194266,
2,1,0,1,0,66182.6,0.19606,0.195757,2.72058,34,0.0119608,10,0.000532572,-2.56534,-0.336881,-0.175136,-18.6235,0.195757,
2,1,0,1,0,66182.6,0.197561,0.197177,2.69543,34,0.0120289,10,0.000531476,-2.56937,-0.355173,-0.166116,-17.4766,0.197177,
2,1,0,1,0,66182.6,0.199062,0.198776,2.67481,34,0.0120964,10,0.000531688,-2.57271,-0.425359,-0.138706,-14.4781,0.198776,
2,1,0,1,0,66182.7,0.200556,0.200234,2.65231,34,0.012163,10,0.000531082,-2.57638,-0.454378,-0.129848,-13.4465,0.200234,
2,1,0,1,0,66182.7,0.202055,0.201743,2.62999,34,0.0122294,10,0.000530581,-2.58005,-0.433841,-0.135995,-13.97,0.201743,
2,1,0,1,0,66182.7,0.203554,0.203242,2.61321,34,0.0122954,10,0.000531114,-2.58283,-0.478985,-0.123177,-12.5689,0.203242,
2,1,0,1,0,66182.7,0.205053,0.20476,2.59353,34,0.0123608,10,0.000531051,-2.58611,-0.731054,-0.0807054,-8.19154,0.20476,
2,1,0,1,0,66182.8,0.206547,0.206254,2.5752,34,0.0124256,10,0.000531147,-2.58919,-0.758183,-0.0778176,-7.84361,0.2062542,
2,1,0,1,0,66182.8,0.208048,0.207752,2.56652,34,0.0124904,10,0.000533198,-2.59066,-0.564511,-0.104515,-10.4636,0.207752,
2,1,0,1,0,66182.8,0.209549,0.209242,2.55524,34,0.0125548,10,0.000534665,-2.59257,-0.517723,-0.11396,-11.355,0.209242,
2,1,0,1,0,66182.8,0.211043,0.210762,2.54312,34,0.0126186,10,0.000535993,-2.59463,-0.686475,-0.0859463,-8.51302,0.210762,
2,1,0,1,0,66182.9,0.212543,0.212254,2.52601,34,0.0126822,10,0.000536155,-2.59757,-0.845073,-0.0698164,-6.88802,0.212254,
2,1,0,1,0,66182.9,0.214042,0.213711,2.51552,34,0.0127456,10,0.000537593,-2.59937,-0.652455,-0.0904277,-8.88591,0.213711,
2,1,0,1,0,66182.9,0.215536,0.215247,2.50751,34,0.0128085,10,0.000539732,-2.60076,-0.715095,-0.0825065,-8.06454,0.215247,
2,1,0,1,0,66182.9,0.217036,0.216715,2.48993,34,0.0128713,10,0.000539607,-2.60381,-0.990083,-0.059591,-5.79623,0.216715,
2,1,0,1,0,66183,0.218537,0.218235,2.48041,34,0.0129338,10,0.000541312,-2.60548,-1.31333,-0.044924,-4.35672,0.218235,
2,1,0,1,0,66183,0.220031,0.21971,2.47679,34,0.012996,10,0.000544176,-2.60611,-1.01178,-0.0583131,-5.63865,0.21971,
2,1,0,1,0,66183,0.22153,0.221229,2.47054,34,0.0130582,10,0.000546555,-2.60721,-0.826677,-0.0713701,-6.87302,0.221229,
2,1,0,1,0,66183,0.22303,0.222712,2.45675,34,0.0131201,10,0.000547149,-2.60964,-1.22599,-0.0481244,-4.61908,0.222712,
2,1,0,1,0,66183.1,0.22453,0.224233,2.44757,34,0.0131818,10,0.000548827,-2.61126,-1.22551,-0.0481431,-4.61132,0.224233,
2,1,0,1,0,66183.1,0.226024,0.225721,2.44185,34,0.0132431,10,0.000551176,-2.61228,-1.03389,-0.0570663,-5.44383,0.225721,
2,1,0,1,0,66183.1,0.227525,0.227246,2.44217,34,0.0133045,10,0.000554973,-2.61222,-0.9236,-0.0638805,-6.06535,0.227246,
2,1,0,1,0,66183.1,0.229025,0.228693,2.43408,34,0.0133658,10,0.000556656,-2.61367,-1.36963,-0.0430774,-4.08229,0.228693,
2,1,0,1,0,66183.2,0.23052,0.23025,2.4206,34,0.0134265,10,0.000557342,-2.61608,-1.57061,-0.0375651,-3.5583,0.23025,
2,1,0,1,0,66183.2,0.232019,0.231735,2.4195,34,0.0134874,10,0.000560683,-2.61627,-1.76607,-0.0334075,-3.15551,0.231735,
2,1,0,1,0,66183.2,0.233519,0.233214,2.41875,34,0.0135482,10,0.000564087,-2.61641,-1.43994,-0.0409741,-3.85381,0.233214,
2,1,0,1,0,66183.2,0.235018,0.234739,2.41094,34,0.0136088,10,0.00056594,-2.61781,-1.46229,-0.0403478,-3.79167,0.2347386,
2,1,0,1,0,66183.3,0.236511,0.236202,2.39803,34,0.013669,10,0.00056642,-2.62015,-1.81003,-0.0325961,-3.05812,0.236202,
2,1,0,1,0,66183.3,0.238012,0.237673,2.3971,34,0.0137293,10,0.000569725,-2.62031,-1.49859,-0.0393703,-3.68155,0.237673,
2,1,0,1,0,66183.3,0.239513,0.239203,2.39557,34,0.0137895,10,0.000573027,-2.62059,-1.76261,-0.0334731,-3.12269,0.239203,
2,1,0,1,0,66183.3,0.241007,0.240721,2.39276,34,0.0138494,10,0.000575987,-2.6211,-2.62746,-0.0224552,-2.08873,0.240721,
2,1,0,1,0,66183.4,0.242506,0.242158,2.37733,34,0.0139094,10,0.00057569,-2.62391,-1.86558,-0.0316256,-2.94471,0.242158,
2,1,0,1,0,66183.4,0.244006,0.243688,2.37866,34,0.0139693,10,0.000579651,-2.62367,-1.82846,-0.0322676,-2.9972,0.243688,
2,1,0,1,0,66183.4,0.2455,0.245211,2.37903,34,0.0140288,10,0.000583362,-2.6236,-1.62262,-0.0363609,-3.37301,0.245211,
2,1,0,1,0,66183.4,0.247001,0.246722,2.37428,34,0.0140885,10,0.000585787,-2.62447,-3.25985,-0.018099,-1.67443,0.246722,
2,1,0,1,0,66183.5,0.248502,0.248178,2.36697,34,0.0141481,10,0.00058743,-2.62581,-1.98479,-0.029726,-2.74521,0.248178,
2,1,0,1,0,66183.5,0.249995,0.249676,2.3597,34,0.0142073,10,0.000589159,-2.62714,-1.42769,-0.0413256,-3.8166,0.249676,
2,1,0,1,0,66183.5,0.251494,0.251205,2.35905,34,0.0142667,10,0.000592606,-2.62726,-2.15093,-0.0274299,-2.52417,0.251205,
2,1,0,1,0,66183.5,0.252994,0.252615,2.358,34,0.014326,10,0.000595665,-2.62746,-1.87334,-0.0314946,-2.89298,0.252615,
2,1,0,1,0,66183.6,0.254493,0.254206,2.35017,34,0.0143852,10,0.000597428,-2.6289,-3.39689,-0.0173688,-1.59334,0.254206,
2,1,0,1,0,66183.6,0.255988,0.255665,2.34444,34,0.014444,10,0.000599391,-2.62996,-1.60381,-0.0367874,-3.3758,0.255665,
2,1,0,1,0,66183.6,0.257488,0.257202,2.34674,34,0.014503,10,0.000603585,-2.62954,-3.58707,-0.016448,-1.50398,0.257202,
2,1,0,1,0,66183.6,0.258989,0.258658,2.34391,34,0.014562,10,0.000606271,-2.63006,-4.3691,-0.0135039,-1.23293,0.258658,
2,1,0,1,0,66183.7,0.260483,0.260215,2.34051,34,0.0146206,10,0.000609037,-2.63069,-2.57613,-0.0229026,-2.09,0.260215,
2,1,0,1,0,66183.7,0.261983,0.261653,2.32984,34,0.0146794,10,0.000609611,-2.63267,-2.16618,-0.0272369,-2.48144,0.261653,
2,1,0,1,0,66183.7,0.263482,0.263174,2.32699,34,0.014738,10,0.000612403,-2.63321,-1.79971,-0.0327831,-2.98224,0.263174,
2,1,0,1,0,66183.7,0.264982,0.264701,2.33084,34,0.0147966,10,0.000616974,-2.63249,-2.32166,-0.0254129,-2.30956,0.264701,
2,1,0,1,0,66183.8,0.266476,0.266128,2.32251,34,0.0148549,10,0.000618086,-2.63404,-3.59243,-0.0164234,-1.4897,0.266128,
2,1,0,1,0,66183.8,0.267976,0.267658,2.31676,34,0.0149133,10,0.000620098,-2.63512,-2.50139,-0.0235869,-2.13737,0.267658,
2,1,0,1,0,66183.8,0.269477,0.269185,2.31897,34,0.0149716,10,0.000624233,-2.6347,-1.96537,-0.0300198,-2.7149,0.269185,
2,1,0,1,0,66183.8,0.270971,0.270654,2.32178,34,0.0150297,10,0.000628398,-2.63418,-6.53272,-0.00903146,-0.814934,0.270654,
2,1,0,1,0,66183.9,0.27247,0.272172,2.31138,34,0.0150879,10,0.000629094,-2.63613,-2.34257,-0.025186,-2.27094,0.272172,
2,1,0,1,0,66183.9,0.27397,0.273651,2.30516,34,0.015146,10,0.000630809,-2.6373,-2.35903,-0.0250103,-2.2537,0.273651,
2,1,0,1,0,66183.9,0.275464,0.275141,2.30179,34,0.0152037,10,0.000633316,-2.63794,-1.4482,-0.0407402,-3.66699,0.275141,
2,1,0,1,0,66183.9,0.276965,0.276663,2.30258,34,0.0152616,10,0.000637041,-2.63778,-3.14928,-0.0187345,-1.68228,0.276663,
2,1,0,1,0,66184,0.278466,0.278148,2.29808,34,0.0153195,10,0.000639206,-2.63864,-2.5648,-0.0230038,-2.0647,0.278148,
2,1,0,1,0,66184,0.27996,0.279643,2.29415,34,0.015377,10,0.000641543,-2.63938,-2.03559,-0.0289842,-2.59709,0.279643,
2,1,0,1,0,66184,0.281458,0.281172,2.29019,34,0.0154347,10,0.000643938,-2.64013,-1.71034,-0.034496,-3.08416,0.281172,
2,1,0,1,0,66184,0.282958,0.282634,2.28958,34,0.0154922,10,0.000647111,-2.64024,-10.2207,-0.0057726,-0.514967,0.282634,
2,1,0,1,0,66184.1,0.284457,0.284137,2.28343,34,0.0155497,10,0.000648809,-2.64141,-7.07195,-0.00834282,-0.743846,0.284137,
2,1,0,1,0,66184.1,0.285951,0.285656,2.27577,34,0.0156069,10,0.000650086,-2.64287,-1.79925,-0.0327915,-2.9223,0.285656,
2,1,0,1,0,66184.1,0.287452,0.287132,2.27736,34,0.0156642,10,0.000653903,-2.64257,-1.2182,-0.0484321,-4.30364,0.287132,
2,1,0,1,0,66184.1,0.288953,0.288642,2.27608,34,0.0157214,10,0.000656973,-2.64281,17.2394,0.00342238,0.303158,0.288642,
2,1,0,1,0,66184.2,0.290447,0.290125,2.26851,34,0.0157784,10,0.000658152,-2.64426,-4.08221,-0.0144529,-1.28092,0.2901248,
2,1,0,1,0,66184.2,0.291947,0.291648,2.26331,34,0.0158354,10,0.000660091,-2.64526,-1.41007,-0.0418418,-3.70286,0.291648,
2,1,0,1,0,66184.2,0.293446,0.293123,2.26227,34,0.0158924,10,0.000663122,-2.64546,-1.59885,-0.0369016,-3.25818,0.293123,
2,1,0,1,0,66184.2,0.29494,0.294645,2.25918,34,0.015949,10,0.000665654,-2.64605,-2.63407,-0.0223988,-1.97513,0.2946448,
2,1,0,1,0,66184.3,0.29644,0.296137,2.25689,34,0.0160058,10,0.00066835,-2.64649,9.70962,0.00607645,0.535185,0.296137,
2,1,0,1,0,66184.3,0.297941,0.297671,2.25252,34,0.0160626,10,0.000670511,-2.64733,-1.56441,-0.037714,-3.31533,0.297671,
2,1,0,1,0,66184.3,0.29944,0.299112,2.24902,34,0.0161192,10,0.00067271,-2.64801,-0.0100704,-5.85874,-422.167,0.299112,
2,1,0,1,0,66184.3,0.299736,0.299395,1.90515,34,0.0161487,10,0.000570391,-2.72007,0.00242738,24.3061,1259.62,0.299395,
2,1,0,1,0,66184.3,0.298238,0.297975,0.912193,34,0.016182,10,0.000271811,-3.03991,0.00381722,15.4563,535.762,0.297975,
2,1,0,1,0,66184.4,0.296744,0.296419,0.369801,34,0.016197,10,0.000109616,-3.43203,0.00335722,17.574,306.417,0.296419,
2,1,0,1,0,66184.4,0.295243,0.294925,0.0154181,34,0.0162011,10,4.54718e-06,-4.81197,0.0155508,3.79402,198.844,0.294925,
2,0,0,1,0,66184.4,0.293742,0.29338,-0.227232,34,0.0161979,10,-6.66653e-05,-3.64353,-0.0070022,-8.42593,141.541,0.29338,
2,0,0,1,0,66184.4,0.292248,0.29192,-0.400787,34,0.0161896,10,-0.000116998,-3.39709,-0.00690304,-8.54696,103.99,0.2919198,
2,0,0,1,0,66184.5,0.290748,0.290379,-0.526464,34,0.0161776,10,-0.000152874,-3.27863,-0.0138306,-4.26591,81.0807,0.290379,
2,0,0,1,0,66184.5,0.289249,0.288938,-0.63373,34,0.0161626,10,-0.000183108,-3.1981,-0.0224131,-2.63239,62.53,0.288938,
2,0,0,1,0,66184.5,0.287754,0.287432,-0.719931,34,0.0161453,10,-0.000206931,-3.14271,-0.0309,-1.90939,52.1179,0.287432,
2,0,0,1,0,66184.5,0.286254,0.285963,-0.788727,34,0.016126,10,-0.000225547,-3.10307,-0.0401247,-1.47042,44.5863,0.285963,
2,0,0,1,0,66184.6,0.284754,0.284463,-0.846422,34,0.0161051,10,-0.000240776,-3.07241,-0.0499454,-1.18129,38.7703,0.284463,
2,0,0,1,0,66184.6,0.28326,0.282937,-0.906145,34,0.0160829,10,-0.000256382,-3.0428,-0.0651439,-0.905687,31.6297,0.282937,
2,0,0,1,0,66184.6,0.28176,0.281426,-0.950658,34,0.0160593,10,-0.00026754,-3.02198,-0.0745371,-0.791552,29.0904,0.281426,
2,0,0,1,0,66184.6,0.280261,0.279953,-0.990625,34,0.0160346,10,-0.000277328,-3.00409,-0.0806969,-0.731131,28.1558,0.279953,
2,0,0,1,0,66184.7,0.278761,0.278435,-1.02317,34,0.016009,10,-0.000284888,-2.99005,-0.100515,-0.58698,23.4994,0.278435,
2,0,0,1,0,66184.7,0.277267,0.276957,-1.06096,34,0.0159826,10,-0.000293841,-2.9743,-0.114109,-0.517048,21.3908,0.276957,
2,0,0,1,0,66184.7,0.275766,0.275441,-1.09999,34,0.0159552,10,-0.000302983,-2.95861,-0.120624,-0.489125,20.8024,0.275441,
2,0,0,1,0,66184.7,0.274265,0.27393,-1.1261,34,0.015927,10,-0.000308471,-2.94842,-0.12913,-0.456905,20.0077,0.27393,
2,0,0,1,0,66184.8,0.272771,0.272403,-1.15158,34,0.0158983,10,-0.000313692,-2.93871,-0.149363,-0.39501,17.8048,0.272403,
2,0,0,1,0,66184.8,0.271272,0.27097,-1.18381,34,0.0158687,10,-0.000320778,-2.92672,-0.170377,-0.346292,15.9286,0.27097,
2,0,0,1,0,66184.8,0.269772,0.269466,-1.21216,34,0.0158384,10,-0.000326637,-2.91644,-0.171666,-0.343691,16.1227,0.269466,
2,0,0,1,0,66184.8,0.268273,0.26796,-1.23337,34,0.0158075,10,-0.000330495,-2.90891,-0.173592,-0.339876,16.2951,0.26796,
2,0,0,1,0,66184.9,0.26678,0.266484,-1.24824,34,0.0157763,10,-0.000332636,-2.9037,-0.207368,-0.284519,13.9053,0.266484,
2,0,0,1,0,66184.9,0.265279,0.264977,-1.27131,34,0.0157443,10,-0.000336867,-2.89575,-0.218366,-0.270188,13.4097,0.264977,
2,0,0,1,0,66184.9,0.263778,0.263493,-1.29883,34,0.0157118,10,-0.000342234,-2.88645,-0.206324,-0.285958,14.4103,0.2634933,
2,0,0,1,0,66184.9,0.262284,0.261936,-1.3158,34,0.0156789,10,-0.000344655,-2.88081,-0.21626,-0.272819,13.9855,0.261936,
2,0,0,1,0,66185,0.260784,0.260513,-1.32721,34,0.0156454,10,-0.000345756,-2.87706,-0.22808,-0.258681,13.4629,0.260513,
2,0,0,1,0,66185,0.259285,0.258999,-1.34791,34,0.0156115,10,-0.000349107,-2.87034,-0.269053,-0.219288,11.5609,0.2589986,
2,0,0,1,0,66185,0.257791,0.257448,-1.37457,34,0.0155772,10,-0.00035388,-2.86183,-0.247053,-0.238815,12.7423,0.257448,
2,0,0,1,0,66185,0.25629,0.255958,-1.3919,34,0.0155423,10,-0.000356269,-2.85639,-0.303033,-0.194698,10.5162,0.255958,
2,0,0,1,0,66185.1,0.254789,0.254429,-1.40386,34,0.015507,10,-0.000357183,-2.85268,-0.285328,-0.20678,11.3138,0.254429,
2,0,0,1,0,66185.1,0.253296,0.252933,-1.41995,34,0.0154715,10,-0.000359151,-2.84773,-0.335795,-0.175703,9.73418,0.252933,
2,0,0,1,0,66185.1,0.251797,0.25147,-1.43794,34,0.0154354,10,-0.000361599,-2.84226,-0.32307,-0.182623,10.2346,0.25147,
2,0,0,1,0,66185.1,0.250297,0.250015,-1.45252,34,0.0153989,10,-0.000363152,-2.83788,-0.286704,-0.205787,11.6461,0.250015,
2,0,0,1,0,66185.2,0.248797,0.248472,-1.46224,34,0.015362,10,-0.000363327,-2.83498,-0.361971,-0.162996,9.34854,0.248472,
2,0,0,1,0,66185.2,0.247303,0.247008,-1.47925,34,0.0153249,10,-0.000365386,-2.82996,-0.378846,-0.155736,9.01174,0.247008,
2,0,0,1,0,66185.2,0.245802,0.245464,-1.50081,34,0.0152873,10,-0.000368394,-2.82368,-0.320543,-0.184063,10.7528,0.245464,
2,0,0,1,0,66185.2,0.244302,0.243991,-1.51239,34,0.0152493,10,-0.00036901,-2.82034,-0.316293,-0.186536,10.9558,0.243991,
2,0,0,1,0,66185.3,0.242807,0.242478,-1.52375,34,0.0152111,10,-0.000369477,-2.81709,-0.407927,-0.144634,8.60444,0.242478,
2,0,0,1,0,66185.3,0.241308,0.241004,-1.53419,34,0.0151724,10,-0.000369746,-2.81412,-0.45765,-0.12892,7.73452,0.241004,
2,0,0,1,0,66185.3,0.239808,0.239484,-1.55007,34,0.0151334,10,-0.000371216,-2.80965,-0.343683,-0.17167,10.3815,0.239484,
2,0,0,1,0,66185.3,0.238309,0.238024,-1.56543,34,0.0150941,10,-0.000372611,-2.80537,-0.337108,-0.175018,10.6797,0.238024,
2,0,0,1,0,66185.4,0.236815,0.236516,-1.57535,34,0.0150545,10,-0.000372596,-2.80262,-0.453302,-0.130156,8.01777,0.236516,
2,0,0,1,0,66185.4,0.235315,0.235007,-1.58655,34,0.0150145,10,-0.00037285,-2.79955,-0.550143,-0.107245,6.659,0.235007,
2,0,0,1,0,66185.4,0.233814,0.233502,-1.60389,34,0.0149742,10,-0.000374513,-2.79482,-0.434593,-0.135759,8.50028,0.233502,
2,0,0,1,0,66185.4,0.23232,0.232032,-1.61694,34,0.0149337,10,-0.000375183,-2.7913,-0.450799,-0.130879,8.25067,0.232032,
2,0,0,1,0,66185.5,0.230821,0.230536,-1.62674,34,0.0148927,10,-0.000375023,-2.78868,-0.459022,-0.128534,8.16923,0.230536,
2,0,0,1,0,66185.5,0.229321,0.228948,-1.64062,34,0.0148514,10,-0.000375617,-2.78499,-0.573222,-0.102927,6.60194,0.228948,
2,0,0,1,0,66185.5,0.227827,0.227503,-1.65114,34,0.0148101,10,-0.00037564,-2.78222,-0.484397,-0.121801,7.86725,0.227503,
2,0,0,1,0,66185.5,0.226326,0.225994,-1.66316,34,0.0147682,10,-0.000375865,-2.77907,-0.41183,-0.143263,9.30632,0.2259945,
2,0,0,1,0,66185.6,0.224825,0.22449,-1.67304,34,0.0147259,10,-0.000375581,-2.77649,-0.527361,-0.111878,7.32168,0.22449,
2,0,0,1,0,66185.6,0.223331,0.223008,-1.69048,34,0.0146836,10,-0.000376989,-2.77199,-0.550472,-0.107181,7.06973,0.223008,
2,0,0,1,0,66185.6,0.221831,0.221545,-1.70115,34,0.0146408,10,-0.000376882,-2.76926,-0.497444,-0.118606,7.86982,0.221545,
2,0,0,1,0,66185.6,0.220333,0.220035,-1.71529,34,0.0145978,10,-0.000377423,-2.76566,-0.394624,-0.149509,9.98559,0.220035,
2,0,0,1,0,66185.7,0.218834,0.218514,-1.72534,34,0.0145543,10,-0.00037701,-2.76313,-0.470054,-0.125518,8.45984,0.218514,
2,0,0,1,0,66185.7,0.217339,0.216999,-1.73792,34,0.0145108,10,-0.000377127,-2.75997,-0.65467,-0.0901217,6.12229,0.216999,
2,0,0,1,0,66185.7,0.215839,0.215518,-1.75006,34,0.0144668,10,-0.00037717,-2.75695,-0.590368,-0.0999376,6.81318,0.215518,
2,0,0,1,0,66185.7,0.214338,0.213983,-1.7645,34,0.0144226,10,-0.000377574,-2.75338,-0.423042,-0.139466,9.58002,0.213983,
2,0,0,1,0,66185.8,0.212844,0.212527,-1.76955,34,0.0143782,10,-0.000376075,-2.75214,-0.515856,-0.114373,7.90115,0.212527,
2,0,0,1,0,66185.8,0.211344,0.211035,-1.78485,34,0.0143333,10,-0.000376666,-2.7484,-0.632518,-0.093278,6.4919,0.211035,
2,0,0,1,0,66185.8,0.209845,0.209491,-1.79393,34,0.0142881,10,-0.000375812,-2.74619,-0.518852,-0.113712,7.96209,0.209491,
2,0,0,1,0,66185.8,0.20835,0.20798,-1.80895,34,0.0142429,10,-0.000376225,-2.74257,-0.410602,-0.143692,10.1438,0.20798,
2,0,0,1,0,66185.9,0.206851,0.206537,-1.82412,34,0.0141971,10,-0.000376748,-2.73895,-0.455112,-0.129638,9.22283,0.206537,
2,0,0,1,0,66185.9,0.20535,0.205014,-1.83609,34,0.014151,10,-0.000376424,-2.73611,-0.709415,-0.0831671,5.94783,0.205014,
2,0,0,1,0,66185.9,0.203856,0.203527,-1.84626,34,0.0141047,10,-0.000375762,-2.73371,-0.636193,-0.0927391,6.67285,0.203527,
2,0,0,1,0,66185.9,0.202356,0.202023,-1.85721,34,0.0140581,10,-0.000375198,-2.73114,-0.480558,-0.122774,8.88454,0.202023,
2,0,0,1,0,66186,0.200857,0.200507,-1.86413,34,0.0140112,10,-0.000373771,-2.72952,-0.482277,-0.122336,8.91982,0.2005073,
2,0,0,1,0,66186,0.199357,0.199042,-1.87715,34,0.0139639,10,-0.000373632,-2.7265,-0.704946,-0.0836943,6.13991,0.199042,
2,0,0,1,0,66186,0.197863,0.197504,-1.89329,34,0.0139166,10,-0.000373931,-2.72278,-0.534928,-0.110295,8.13446,0.197504,
2,0,0,1,0,66186,0.196362,0.196032,-1.90466,34,0.0138688,10,-0.000373373,-2.72018,-0.481814,-0.122454,9.08613,0.196032,
2,0,0,1,0,66186.1,0.194861,0.194536,-1.91536,34,0.0138206,10,-0.000372606,-2.71775,-0.400597,-0.14728,11.0054,0.1945361,
2,0,0,1,0,66186.1,0.193367,0.193026,-1.92905,34,0.0137724,10,-0.000372357,-2.71466,-0.507815,-0.116184,8.7469,0.193026,
2,0,0,1,0,66186.1,0.191868,0.191533,-1.94884,34,0.0137235,10,-0.000373266,-2.71022,-0.55433,-0.106435,8.06617,0.191533,
2,0,0,1,0,66186.1,0.190368,0.190024,-1.95447,34,0.0136744,10,-0.000371397,-2.70897,-0.551444,-0.106992,8.16568,0.190024,
2,0,0,1,0,66186.2,0.18887,0.188531,-1.96634,34,0.0136249,10,-0.000370717,-2.70634,-0.47907,-0.123155,9.46393,0.188531,
2,0,0,1,0,66186.2,0.187376,0.187038,-1.98168,34,0.0135754,10,-0.000370649,-2.70297,-0.582414,-0.101303,7.84596,0.187038,
2,0,0,1,0,66186.2,0.185875,0.185541,-2.00079,34,0.0135252,10,-0.000371228,-2.6988,-0.665225,-0.0886919,6.89296,0.185541,
2,0,0,1,0,66186.2,0.184374,0.184037,-2.00479,34,0.0134747,10,-0.000368954,-2.69793,-0.512672,-0.115083,9.01627,0.184037,
2,0,0,1,0,66186.3,0.18288,0.182561,-2.02052,34,0.0134242,10,-0.000368867,-2.69454,-0.46157,-0.127825,10.1132,0.182561,
2,0,0,1,0,66186.3,0.18138,0.181058,-2.03388,34,0.013373,10,-0.000368251,-2.69167,-0.467145,-0.126299,10.0442,0.181058,
2,0,0,1,0,66186.3,0.179881,0.179607,-2.05761,34,0.0133214,10,-0.000369561,-2.68664,-0.558861,-0.105572,8.46429,0.1796072,
2,0,0,1,0,66186.3,0.178387,0.178084,-2.07221,34,0.0132697,10,-0.000369028,-2.68357,-0.459269,-0.128465,10.3736,0.178084,
2,0,0,1,0,66186.4,0.176886,0.176578,-2.0824,34,0.0132174,10,-0.000367706,-2.68144,-0.442062,-0.133466,10.8581,0.176578,
2,0,0,1,0,66186.4,0.175385,0.17508,-2.09976,34,0.0131646,10,-0.000367626,-2.67783,-0.43434,-0.135838,11.1366,0.17508,
2,0,0,1,0,66186.4,0.173892,0.173536,-2.1196,34,0.0131117,10,-0.000367827,-2.67375,-0.442707,-0.133271,11.0076,0.1735359,
2,0,0,1,0,66186.4,0.172393,0.172088,-2.13839,34,0.0130581,10,-0.000367991,-2.66991,-0.376672,-0.156635,13.0362,0.172088,
2,0,0,1,0,66186.5,0.170893,0.17055,-2.14983,34,0.0130041,10,-0.000366653,-2.6676,-0.363344,-0.16238,13.6677,0.17055,
2,0,0,1,0,66186.5,0.169393,0.169051,-2.17278,34,0.0129496,10,-0.000367309,-2.66298,-0.359609,-0.164067,13.9388,0.169051,
2,0,0,1,0,66186.5,0.167899,0.167581,-2.19469,34,0.0128947,10,-0.000367789,-2.65863,-0.376161,-0.156848,13.446,0.167581,
2,0,0,1,0,66186.5,0.166398,0.166074,-2.22222,34,0.0128391,10,-0.000369053,-2.65321,-0.373512,-0.15796,13.6692,0.166074,
2,0,0,1,0,66186.6,0.164898,0.164581,-2.23436,34,0.012783,10,-0.000367732,-2.65085,-0.332093,-0.177661,15.5344,0.164581,
2,0,0,1,0,66186.6,0.163403,0.163076,-2.26215,34,0.0127266,10,-0.000368902,-2.64548,-0.325708,-0.181144,16.017,0.163076,
2,0,0,1,0,66186.6,0.161904,0.161555,-2.2887,34,0.0126693,10,-0.000369751,-2.64041,-0.306862,-0.192269,17.1806,0.161555,
2,0,0,1,0,66186.6,0.160404,0.160059,-2.3201,34,0.0126113,10,-0.000371353,-2.63449,-0.287229,-0.205411,18.5507,0.160059,
2,0,0,1,0,66186.7,0.158905,0.158571,-2.34104,34,0.0125526,10,-0.000371222,-2.63059,-0.264823,-0.22279,20.4049,0.158571,
2,0,0,1,0,66186.7,0.157411,0.157112,-2.37119,34,0.0124935,10,-0.000372542,-2.62503,-0.255481,-0.230937,21.4707,0.157112,
2,0,0,1,0,66186.7,0.155911,0.155586,-2.4082,34,0.0124333,10,-0.000374682,-2.61831,-0.240595,-0.245226,23.087,0.155586,
2,0,0,1,0,66186.7,0.15441,0.154084,-2.44944,34,0.0123722,10,-0.000377419,-2.61093,-0.218597,-0.269904,25.7275,0.154084,
2,0,0,1,0,66186.8,0.152916,0.152525,-2.48025,34,0.0123104,10,-0.0003783,-2.6055,-0.20161,-0.292645,28.4189,0.152525,
2,0,0,1,0,66186.8,0.151417,0.151077,-2.52295,34,0.0122474,10,-0.00038116,-2.59809,-0.200826,-0.293787,29.0318,0.151077,
2,0,0,1,0,66186.8,0.149917,0.149559,-2.57229,34,0.0121832,10,-0.00038471,-2.58968,-0.169276,-0.348544,35.0233,0.149559,
2,0,0,1,0,66186.8,0.148423,0.148107,-2.63143,34,0.0121181,10,-0.000389734,-2.57981,-0.162874,-0.362244,37.1646,0.1481072,
2,0,0,1,0,66186.9,0.146922,0.146577,-2.6838,34,0.0120512,10,-0.000393383,-2.57125,-0.151118,-0.390424,40.9676,0.146577,
2,0,0,1,0,66186.9,0.145421,0.145105,-2.7432,34,0.011983,10,-0.000398053,-2.56174,-0.150019,-0.393284,42.2343,0.145105,
2,0,0,1,0,66186.9,0.143927,0.14362,-2.81416,34,0.0119134,10,-0.000404171,-2.55065,-0.131828,-0.447552,49.2408,0.14362,
2,0,0,1,0,66186.9,0.142429,0.142072,-2.89766,34,0.0118416,10,-0.000411677,-2.53795,-0.121638,-0.485046,54.7758,0.142072,
2,0,0,1,0,66187,0.140929,0.140615,-2.97271,34,0.0117678,10,-0.000418008,-2.52685,-0.117416,-0.502489,58.4897,0.140615,
2,0,0,1,0,66187,0.13943,0.139124,-3.06167,34,0.0116918,10,-0.000425952,-2.51404,-0.112917,-0.52251,62.7513,0.139124,
2,0,0,1,0,66187,0.137935,0.137599,-3.16586,34,0.0116138,10,-0.000435619,-2.49951,-0.110224,-0.535273,66.1857,0.137599,
2,0,0,1,0,66187,0.136435,0.136109,-3.27327,34,0.0115329,10,-0.000445522,-2.48502,-0.104609,-0.564006,72.0238,0.136109,
2,0,0,1,0,66187.1,0.134934,0.134624,-3.38336,34,0.0114493,10,-0.00045548,-2.47065,-0.101865,-0.579196,76.4593,0.1346235,
2,0,0,1,0,66187.1,0.13344,0.133069,-3.49616,34,0.0113632,10,-0.000465231,-2.45641,-0.10443,-0.564971,77.1711,0.133069,
2,0,0,1,0,66187.1,0.13194,0.131604,-3.61705,34,0.0112739,10,-0.000476018,-2.44165,-0.103871,-0.568015,80.2923,0.131604,
2,0,0,1,0,66187.1,0.13044,0.130112,-3.74133,34,0.0111814,10,-0.000486791,-2.42697,-0.102676,-0.574624,83.9248,0.130112,
2,0,0,1,0,66187.2,0.128941,0.128626,-3.86996,34,0.0110858,10,-0.000497778,-2.41229,-0.106407,-0.554474,83.6282,0.128626,
2,0,0,1,0,66187.2,0.127447,0.127124,-3.99172,34,0.0109875,10,-0.000507442,-2.39884,-0.112611,-0.523928,81.6147,0.1271237,
2,0,0,1,0,66187.2,0.125946,0.125661,-4.11454,34,0.0108857,10,-0.000517039,-2.38568,-0.117046,-0.504076,80.9015,0.125661,
2,0,0,1,0,66187.2,0.124446,0.12412,-4.2395,34,0.0107809,10,-0.000526207,-2.37269,-0.119551,-0.493513,81.4551,0.12412,
2,0,0,1,0,66187.3,0.122952,0.122614,-4.35495,34,0.0106735,10,-0.000533976,-2.36102,-0.123803,-0.476562,80.9016,0.122614,
2,0,0,1,0,66187.3,0.121453,0.121137,-4.46764,34,0.0105627,10,-0.000541196,-2.34992,-0.135794,-0.434482,75.7445,0.1211368,
2,0,0,1,0,66187.3,0.119953,0.119647,-4.58247,34,0.0104491,10,-0.000548277,-2.3389,-0.144426,-0.408513,73.0207,0.119647,
2,0,0,1,0,66187.3,0.118459,0.11814,-4.69346,34,0.0103332,10,-0.000554484,-2.32851,-0.148098,-0.398386,72.8968,0.11814,
2,0,0,1,0,66187.4,0.116958,0.116645,-4.80228,34,0.0102141,10,-0.000560164,-2.31855,-0.158852,-0.371415,69.4882,0.116645,
2,0,0,1,0,66187.4,0.115457,0.115131,-4.89794,34,0.0100924,10,-0.000563902,-2.30999,-0.176262,-0.33473,63.8946,0.115131,
2,0,0,1,0,66187.4,0.113963,0.113635,-4.99401,34,0.00996878,10,-0.000567493,-2.30155,-0.191896,-0.307459,59.8526,0.113635,
2,0,0,1,0,66187.4,0.112464,0.112138,-5.08651,34,0.00984244,10,-0.000570389,-2.29358,-0.194667,-0.303081,60.0557,0.112138,
2,0,0,1,0,66187.5,0.110965,0.110633,-5.16619,34,0.00971386,10,-0.000571551,-2.28683,-0.208264,-0.283294,57.0811,0.110633,
2,0,0,1,0,66187.5,0.109466,0.10912,-5.24618,34,0.00958317,10,-0.000572463,-2.28016,-0.239704,-0.246137,50.3338,0.10912,
2,0,0,1,0,66187.5,0.107972,0.107693,-5.31853,34,0.00945112,10,-0.000572768,-2.27421,-0.268861,-0.219444,45.5018,0.107693,
2,0,0,1,0,66187.5,0.106471,0.106157,-5.38861,34,0.00931691,10,-0.00057204,-2.26852,-0.295239,-0.199838,41.9554,0.106157,
2,0,0,1,0,66187.6,0.10497,0.104649,-5.44339,34,0.00918109,10,-0.000569645,-2.26413,-0.332355,-0.177521,37.6733,0.104649,
2,0,0,1,0,66187.6,0.103476,0.103185,-5.49312,34,0.00904437,10,-0.000566808,-2.26018,-0.403924,-0.146067,31.2977,0.103185,
2,0,0,1,0,66187.6,0.101976,0.10166,-5.54252,34,0.00890598,10,-0.000563449,-2.25629,-0.57545,-0.102529,22.1313,0.10166,
2,0,0,1,0,66187.6,0.100477,0.10019,-5.5735,34,0.00876669,10,-0.000558406,-2.25387,-0.689855,-0.0855252,18.57,0.10019,
2,0,0,1,0,66187.7,0.0989825,0.0986723,-5.59536,34,0.00862724,10,-0.000552107,-2.25217,-0.755327,-0.0781118,17.041,0.0986723,
2,0,0,1,0,66187.7,0.0974817,0.0971182,-5.61262,34,0.00848669,10,-0.000545088,-2.25083,-1.49491,-0.0394674,8.63689,0.0971182,
2,0,0,1,0,66187.7,0.0959822,0.0956447,-5.62109,34,0.0083458,10,-0.000537627,-2.25018,-13.3079,-0.00443345,0.971091,0.0956447,
2,0,0,1,0,66187.7,0.094488,0.094159,-5.6216,34,0.0082054,10,-0.000529324,-2.25014,5.11071,0.0115444,-2.53011,0.09415897,
2,0,0,1,0,66187.8,0.0929884,0.0926686,-5.61304,34,0.00806454,10,-0.000520153,-2.2508,4.14204,0.0142442,-3.12097,0.0926686,
2,0,0,1,0,66187.8,0.0914889,0.091188,-5.60352,34,0.00792384,10,-0.000510974,-2.25154,1.42546,0.0413901,-9.05096,0.091188,
2,0,0,1,0,66187.8,0.0899894,0.0896613,-5.59258,34,0.00778343,10,-0.000501438,-2.25239,0.819686,0.0719787,-15.6806,0.0896613,
2,0,0,1,0,66187.8,0.0884952,0.0881509,-5.57033,34,0.00764405,10,-0.00049103,-2.25412,0.800451,0.0737085,-16.0075,0.0881509,
2,0,0,1,0,66187.9,0.0869943,0.0866737,-5.54216,34,0.00750481,10,-0.000480359,-2.25632,0.810742,0.0727729,-15.7421,0.0866737,
2,0,0,1,0,66187.9,0.0854935,0.0851351,-5.51193,34,0.00736618,10,-0.000469259,-2.2587,0.743648,0.0793386,-17.0768,0.0851351,
2,0,0,1,0,66187.9,0.0839993,0.0836697,-5.48943,34,0.00722875,10,-0.000459299,-2.26047,0.585638,0.100745,-21.5613,0.0836697,
2,0,0,1,0,66187.9,0.0824998,0.0821714,-5.46046,34,0.00709148,10,-0.000448693,-2.26277,0.683437,0.0863284,-18.3899,0.0821714,
2,0,0,1,0,66188,0.0810002,0.0806862,-5.43121,34,0.00695498,10,-0.000438223,-2.2651,0.796488,0.0740752,-15.7083,0.0806862,
2,0,0,1,0,66188,0.0795007,0.0791702,-5.39386,34,0.00681917,10,-0.000427033,-2.2681,0.747227,0.0789586,-16.6611,0.0791702,
2,0,0,1,0,66188,0.0780078,0.0777169,-5.37907,34,0.00668451,10,-0.000418045,-2.26929,0.719162,0.0820399,-17.2147,0.0777169,
2,0,0,1,0,66188,0.076507,0.0761741,-5.35466,34,0.00654992,10,-0.000407886,-2.27127,0.747906,0.0788869,-16.4803,0.0761741,
2,0,0,1,0,66188.1,0.0750062,0.0747391,-5.32673,34,0.00641603,10,-0.000398115,-2.27354,0.831171,0.0709842,-14.7647,0.0747391,
2,0,0,1,0,66188.1,0.073512,0.07319,-5.30579,34,0.00628323,10,-0.000388331,-2.27525,0.854041,0.0690833,-14.3122,0.07319,
2,0,0,1,0,66188.1,0.0720124,0.0717053,-5.28667,34,0.00615041,10,-0.000379083,-2.27682,0.826587,0.0713778,-14.7294,0.0717053,
2,0,0,1,0,66188.1,0.0705129,0.0702144,-5.26723,34,0.00601805,10,-0.000369835,-2.27842,0.830033,0.0710815,-14.6106,0.0702144,
2,0,0,1,0,66188.2,0.0690187,0.0686911,-5.24245,34,0.00588678,10,-0.00036011,-2.28047,1.02612,0.0574984,-11.7764,0.0686911,
2,0,0,1,0,66188.2,0.0675179,0.0671637,-5.22317,34,0.00575551,10,-0.000350807,-2.28207,1.07994,0.0546325,-11.1532,0.0671637,
2,0,0,1,0,66188.2,0.066017,0.0656754,-5.21389,34,0.00562466,10,-0.000342424,-2.28284,0.955445,0.0617514,-12.5441,0.0656754,
2,0,0,1,0,66188.2,0.0645242,0.0641828,-5.19161,34,0.00549473,10,-0.000333212,-2.2847,0.921362,0.0640356,-12.9557,0.0641828,
2,0,0,1,0,66188.3,0.0630246,0.0626845,-5.16966,34,0.00536479,10,-0.000324058,-2.28654,1.1197,0.0526927,-10.6326,0.0626845,
2,0,0,1,0,66188.3,0.0615251,0.0612145,-5.14543,34,0.00523539,10,-0.000314975,-2.28858,0.866922,0.0680569,-13.6906,0.06121451,
2,0,0,1,0,66188.3,0.0600256,0.0596445,-5.12719,34,0.00510645,10,-0.000305808,-2.29012,0.793286,0.0743742,-14.897,0.05964445,
2,0,0,1,0,66188.3,0.0585314,0.058159,-5.11759,34,0.00497848,10,-0.000297634,-2.29093,0.733228,0.0804661,-16.038,0.058159,
2,0,0,1,0,66188.4,0.0570305,0.056684,-5.09119,34,0.00485051,10,-0.000288589,-2.29318,0.803993,0.0733837,-14.5698,0.056684,
2,0,0,1,0,66188.4,0.0555297,0.0552198,-5.0629,34,0.00472322,10,-0.000279572,-2.2956,0.832314,0.0708867,-14.0201,0.0552198,
2,0,0,1,0,66188.4,0.0540355,0.0537361,-5.04161,34,0.00459693,10,-0.000270917,-2.29743,0.781596,0.0754865,-14.8508,0.0537361,
2,0,0,1,0,66188.4,0.052536,0.052212,-5.03462,34,0.00447061,10,-0.000262868,-2.29803,0.766379,0.0769854,-15.081,0.052212,
2,0,0,1,0,66188.5,0.0510364,0.0506915,-4.99788,34,0.00434485,10,-0.00025335,-2.30121,0.772831,0.0763427,-14.894,0.0506915,
2,0,0,1,0,66188.5,0.0495369,0.0492145,-4.96729,34,0.00421982,10,-0.000244463,-2.30388,0.668049,0.0883169,-17.1576,0.04921452,
2,0,0,1,0,66188.5,0.0480427,0.0477087,-4.94571,34,0.00409589,10,-0.000235953,-2.30577,0.709308,0.0831797,-16.0574,0.0477087,
2,0,0,1,0,66188.5,0.0465432,0.0461754,-4.92334,34,0.00397205,10,-0.000227337,-2.30774,0.70366,0.0838473,-16.1081,0.0461754,
2,0,0,1,0,66188.6,0.0450424,0.0446248,-4.89972,34,0.00384885,10,-0.000218649,-2.30983,0.671488,0.0878645,-16.7833,0.0446248,
2,0,0,1,0,66188.6,0.0435482,0.0432232,-4.86476,34,0.00372682,10,-0.00021027,-2.31294,0.587588,0.100411,-19.0869,0.0432232,
2,0,0,1,0,66188.6,0.0420486,0.041699,-4.84396,34,0.00360503,10,-0.000201989,-2.3148,0.574681,0.102666,-19.4159,0.041699,
2,0,0,1,0,66188.6,0.0405491,0.0402308,-4.8236,34,0.00348385,10,-0.000194058,-2.31663,0.679555,0.0868216,-16.3158,0.0402308,
2,0,0,1,0,66188.7,0.0390549,0.0387133,-4.79301,34,0.00336383,10,-0.000185553,-2.31939,0.597288,0.0987799,-18.4517,0.0387133,
2,0,0,1,0,66188.7,0.0375541,0.037233,-4.75906,34,0.00324403,10,-0.000177194,-2.32248,0.525566,0.11226,-20.8543,0.037233,
2,0,0,1,0,66188.7,0.0360533,0.0357555,-4.72654,34,0.00312507,10,-0.000169,-2.32546,0.474108,0.124444,-22.9699,0.0357555,
2,0,0,1,0,66188.7,0.034559,0.0342305,-4.69905,34,0.00300731,10,-0.000160851,-2.32799,0.540252,0.109208,-20.0101,0.0342305,
2,0,0,1,0,66188.8,0.0330595,0.0327293,-4.66553,34,0.00288987,10,-0.000152699,-2.3311,0.550002,0.107272,-19.5314,0.0327293,
2,0,0,1,0,66188.8,0.0315613,0.0312165,-4.6289,34,0.00277323,10,-0.000144498,-2.33452,0.473765,0.124534,-22.5212,0.0312165,
2,0,0,1,0,66188.8,0.0300618,0.0297663,-4.59358,34,0.00265746,10,-0.000136734,-2.33785,0.426615,0.138298,-24.8194,0.0297663,
2,0,0,1,0,66188.8,0.0285676,0.028219,-4.56358,34,0.00254302,10,-0.00012878,-2.34069,0.46368,0.127243,-22.658,0.028219,
2,0,0,1,0,66188.9,0.0270667,0.0267588,-4.53057,34,0.00242893,10,-0.000121233,-2.34385,0.493183,0.119631,-21.1448,0.0267588,
2,0,0,1,0,66188.9,0.0255659,0.0252424,-4.4952,34,0.00231567,10,-0.00011347,-2.34725,0.440967,0.133797,-23.4814,0.0252424,
2,0,0,1,0,66188.9,0.0240717,0.0237551,-4.45804,34,0.00220377,10,-0.000105901,-2.35086,0.417026,0.141478,-24.6466,0.0237551,
2,0,0,1,0,66188.9,0.0225722,0.0222488,-4.43081,34,0.00209229,10,-9.858e-05,-2.35352,0.464448,0.127033,-21.9365,0.02224878,
2,0,0,1,0,66189,0.0210726,0.0207316,-4.3949,34,0.00198158,10,-9.11132e-05,-2.35705,0.523456,0.112712,-19.3326,0.0207316,
2,0,0,1,0,66189,0.0195784,0.0192354,-4.36136,34,0.00187215,10,-8.38926e-05,-2.36038,0.474287,0.124397,-21.1852,0.01923541,
2,0,0,1,0,66189,0.0180789,0.0177491,-4.32802,34,0.00176308,10,-7.68185e-05,-2.36371,0.443836,0.132932,-22.472,0.0177491,
2,0,0,1,0,66189,0.0165781,0.0162987,-4.3014,34,0.00165486,10,-7.01073e-05,-2.36639,0.485016,0.121645,-20.411,0.0162987,
2,0,0,1,0,66189.1,0.0150839,0.0147575,-4.27573,34,0.00154776,10,-6.30993e-05,-2.36899,0.572054,0.103137,-17.1832,0.0147575,
2,0,0,1,0,66189.1,0.0135844,0.0132625,-4.2412,34,0.00144093,10,-5.62491e-05,-2.37251,0.502032,0.117522,-19.4518,0.0132625,
2,0,0,1,0,66189.1,0.0120848,0.0117435,-4.20981,34,0.00133482,10,-4.9438e-05,-2.37574,0.504684,0.116905,-19.2254,0.0117435,
2,0,0,1,0,66189.1,0.0105853,0.0102612,-4.18718,34,0.00122946,10,-4.29654e-05,-2.37808,0.556729,0.105976,-17.3207,0.0102612,
2,0,0,1,0,66189.2,0.00909108,0.00878209,-4.16016,34,0.00112512,10,-3.65349e-05,-2.38089,0.646689,0.091234,-14.8127,0.00878209,
2,0,0,1,0,66189.2,0.00759027,0.00723551,-4.13808,34,0.00102097,10,-2.99411e-05,-2.3832,0.613507,0.0961684,-15.5299,0.00723551,
2,0,0,1,0,66189.2,0.00608945,0.00575173,-4.11699,34,0.000917373,10,-2.36798e-05,-2.38542,0.548496,0.107567,-17.278,0.00575173,
2,0,0,1,0,66189.2,0.00459524,0.00426105,-4.10045,34,0.00081478,10,-1.74722e-05,-2.38717,0.694777,0.0849193,-13.5671,0.00426105,
2,0,0,1,0,66189.3,0.0030957,0.00276295,-4.07475,34,0.000712264,10,-1.12583e-05,-2.3899,2.36712,0.0249248,-3.97307,0.00276295,
2,0,0,1,0,66189.3,0.00159616,0.00126202,-4.08198,34,0.000609803,10,-5.15153e-06,-2.38913, , , ,0.00126202,
2,0,0,1,0,66189.3,0.000199195,-0.000197439,-4.05748,34,0.000514543,10,8.01104e-07,-2.39174, , , ,-0.000197439,