File: Figure_codes/Fig_3-5/rawdata_trumpetplot_data/after 10th/20221101_1-115_003_TrumpetPlot_ParaChange_from10_every3_03_CV_C01_3.csv
mode,ox/red,error,control changes,counter inc.,time/s,control/V,Ewe/V,<I>/mA,cycle number,(Q-Qo)/C,I Range,P/W,log(|I|),Tafel slope mV/dec,alpha_eff,dI/d(E-IR),E-IR/V,
2,0,0,1,0,6850.41,2.44065e-05,-0.000382585,-0.107026,4,0.0000000E+000,10,4.09468e-08,-3.97051, , , ,-0.000382585,
2,1,0,0,0,6850.66,0.00129787,0.000912171,0.15284,4,3.15916e-05,10,1.39416e-07,-3.81576, , , ,0.000912171,
2,1,0,0,0,6850.96,0.00279606,0.00248369,0.182829,4,8.93364e-05,10,4.54091e-07,-3.73796,0.024098,2.44834,15.6268,0.00248369,
2,1,0,1,0,6851.26,0.00429469,0.00400896,0.193326,4,0.000151192,10,7.75036e-07,-3.71371,0.0861246,0.685054,5.21748,0.00400896,
2,1,0,1,0,6851.56,0.00579255,0.00548158,0.20184,4,0.000216184,10,1.1064e-06,-3.69499,0.0721376,0.817882,6.41905,0.00548158,
2,1,0,1,0,6851.86,0.00729041,0.00698601,0.211057,4,0.000283878,10,1.47445e-06,-3.6756,0.0900192,0.655416,5.37202,0.00698601,
2,1,0,1,0,6852.16,0.00878882,0.00844106,0.220059,4,0.000354107,10,1.85753e-06,-3.65746,0.102854,0.573629,4.85082,0.00844106,
2,1,0,1,0,6852.46,0.010287,0.00997122,0.224694,4,0.000426269,10,2.24047e-06,-3.64841,0.140087,0.421166,3.67875,0.00997122,
2,1,0,1,0,6852.76,0.0117852,0.011459,0.229111,4,0.000500204,10,2.62538e-06,-3.63995,0.143709,0.410552,3.68693,0.011459,
2,1,0,1,0,6853.06,0.0132836,0.0129439,0.235117,4,0.000575823,10,3.04333e-06,-3.62872,0.143894,0.410023,3.7935,0.0129439,
2,1,0,1,0,6853.36,0.0147815,0.0144481,0.24115,4,0.000653173,10,3.48416e-06,-3.61771,0.168272,0.350624,3.31205,0.0144481,
2,1,0,1,0,6853.66,0.0162793,0.0159726,0.246498,4,0.000732384,10,3.93722e-06,-3.60819,0.195062,0.302468,2.90839,0.0159726,
2,1,0,0,0,6853.96,0.017778,0.0174757,0.252411,4,0.000812902,10,4.41107e-06,-3.59789,0.162752,0.362515,3.56614,0.01747572,
2,1,0,0,0,6854.26,0.0192761,0.0189486,0.256963,4,0.000894541,10,4.8691e-06,-3.59013,0.172657,0.341719,3.42199,0.0189486,
2,1,0,1,0,6854.56,0.0207747,0.0204347,0.2625,4,0.000978145,10,5.36411e-06,-3.58087,0.173091,0.34086,3.4629,0.0204347,
2,1,0,1,0,6854.86,0.0222725,0.0219401,0.267356,4,0.00106328,10,5.86581e-06,-3.57291,0.172214,0.342598,3.57505,0.0219401,
2,1,0,1,0,6855.16,0.0237704,0.0234742,0.270585,4,0.00114983,10,6.35175e-06,-3.5677,0.160706,0.36713,3.90409,0.0234742,
2,1,0,1,0,6855.46,0.0252689,0.0249993,0.275079,4,0.00123776,10,6.87677e-06,-3.56054,0.164892,0.357811,3.88689,0.0249993,
2,1,0,1,0,6855.75,0.0267671,0.0264107,0.281797,4,0.00132744,10,7.44245e-06,-3.55006,0.157578,0.374419,4.11945,0.0264107,
2,1,0,1,0,6856.05,0.0282657,0.0279752,0.289544,4,0.00141886,10,8.10003e-06,-3.53829,0.175279,0.336606,3.7847,0.0279752,
2,1,0,1,0,6856.35,0.0297635,0.0294392,0.29437,4,0.00151182,10,8.66602e-06,-3.53111,0.17535,0.33647,3.85173,0.0294392,
2,1,0,1,0,6856.65,0.0312613,0.0309882,0.297161,4,0.00160619,10,9.20849e-06,-3.52701,0.17715,0.333052,3.89285,0.03098825,
2,1,0,0,0,6856.95,0.0327599,0.0324773,0.30332,4,0.00170218,10,9.85102e-06,-3.5181,0.189257,0.311746,3.70131,0.0324773,
2,1,0,0,0,6857.25,0.034258,0.0339884,0.309814,4,0.00179987,10,1.05301e-05,-3.5089,0.180677,0.32655,3.95847,0.0339884,
2,1,0,1,0,6857.55,0.0357567,0.0354308,0.315658,4,0.0018993,10,1.1184e-05,-3.50078,0.239359,0.246492,3.02388,0.0354308,
2,1,0,1,0,6857.85,0.0372545,0.0369491,0.321482,4,0.00200044,10,1.18785e-05,-3.49284,0.182526,0.323241,4.05939,0.0369491,
2,1,0,1,0,6858.15,0.0387524,0.0383973,0.3265,4,0.00210294,10,1.25367e-05,-3.48612,0.168436,0.350282,4.50244,0.0383973,
2,1,0,1,0,6858.45,0.0402508,0.039951,0.332308,4,0.00220744,10,1.32761e-05,-3.47846,0.200725,0.293934,3.83125,0.039951,
2,1,0,1,0,6858.75,0.041749,0.0414388,0.340656,4,0.00231409,10,1.41164e-05,-3.46768,0.229487,0.257095,3.38293,0.0414388,
2,1,0,1,0,6859.05,0.0432472,0.0429615,0.34512,4,0.00242215,10,1.48269e-05,-3.46203,0.232314,0.253967,3.40764,0.0429615,
2,1,0,1,0,6859.35,0.0447456,0.0443986,0.350629,4,0.0025315,10,1.55674e-05,-3.45515,0.218307,0.270262,3.68535,0.0443986,
2,1,0,1,0,6859.65,0.0462435,0.045957,0.355817,4,0.00264276,10,1.63523e-05,-3.44877,0.192508,0.306482,4.23895,0.045957,
2,1,0,1,0,6859.95,0.0477413,0.0474063,0.359853,4,0.00275574,10,1.70593e-05,-3.44387,0.2329,0.253328,3.56067,0.0474063,
2,1,0,0,0,6860.25,0.0492399,0.0489083,0.364197,4,0.00287036,10,1.78122e-05,-3.43866,0.256264,0.230231,3.29145,0.0489083,
2,1,0,0,0,6860.55,0.0507381,0.0504342,0.369494,4,0.00298612,10,1.86351e-05,-3.43239,0.242736,0.243062,3.5233,0.0504342,
2,1,0,1,0,6860.85,0.0522367,0.0519202,0.376219,4,0.00310383,10,1.95334e-05,-3.42456,0.203731,0.289598,4.23083,0.05192019,
2,1,0,1,0,6861.15,0.0537345,0.0534141,0.382746,4,0.0032234,10,2.0444e-05,-3.41709,0.25725,0.229349,3.41012,0.0534141,
2,1,0,1,0,6861.45,0.0552323,0.054899,0.385707,4,0.00334441,10,2.11749e-05,-3.41374,0.265273,0.222412,3.35391,0.054899,
2,1,0,1,0,6861.75,0.0567309,0.0563693,0.388322,4,0.0034668,10,2.18894e-05,-3.41081,0.289783,0.203601,3.11023,0.0563693,
2,1,0,1,0,6862.05,0.0582291,0.0579164,0.395945,4,0.00359064,10,2.29317e-05,-3.40236,0.290486,0.203108,3.14506,0.0579164,
2,1,0,1,0,6862.35,0.0597277,0.0594183,0.402755,4,0.00371618,10,2.3931e-05,-3.39496,0.262575,0.224698,3.52926,0.0594183,
2,1,0,1,0,6862.65,0.0612255,0.0609044,0.406817,4,0.00384343,10,2.47769e-05,-3.3906,0.346806,0.170124,2.69594,0.0609044,
2,1,0,1,0,6862.95,0.0627233,0.0624312,0.410717,4,0.00397201,10,2.56416e-05,-3.38646,0.333127,0.17711,2.84834,0.0624312,
2,1,0,0,0,6863.25,0.0642218,0.0639152,0.416981,4,0.00410171,10,2.66514e-05,-3.37988,0.26644,0.221438,3.60681,0.0639152,
2,1,0,0,0,6863.55,0.06572,0.065404,0.421055,4,0.00423308,10,2.75387e-05,-3.37566,0.27174,0.217119,3.5686,0.065404,
2,1,0,1,0,6863.85,0.0672187,0.0669092,0.427184,4,0.00436612,10,2.85825e-05,-3.36939,0.316206,0.186587,3.09603,0.0669092,
2,1,0,1,0,6864.14,0.0687165,0.0684348,0.431012,4,0.00450036,10,2.94962e-05,-3.36551,0.339994,0.173533,2.91228,0.06843479,
2,1,0,1,0,6864.44,0.0702144,0.069938,0.434525,4,0.00463542,10,3.03898e-05,-3.36199,0.377121,0.156448,2.65126,0.069938,
2,1,0,1,0,6864.74,0.0717128,0.0713921,0.437981,4,0.00477208,10,3.12684e-05,-3.35854,0.297705,0.198183,3.38415,0.0713921,
2,1,0,1,0,6865.04,0.073211,0.0729191,0.443707,4,0.00490991,10,3.23547e-05,-3.3529,0.338921,0.174082,3.01634,0.0729191,
2,1,0,1,0,6865.34,0.0747092,0.0743899,0.44844,4,0.00504906,10,3.33594e-05,-3.3483,0.398828,0.147934,2.58078,0.07438986,
2,1,0,1,0,6865.64,0.0762076,0.0758779,0.449025,4,0.00518924,10,3.40711e-05,-3.34773,0.436355,0.135211,2.37925,0.0758779,
2,1,0,1,0,6865.94,0.0777054,0.0773281,0.455773,4,0.0053306,10,3.52441e-05,-3.34125,0.321262,0.183651,3.25838,0.0773281,
2,1,0,1,0,6866.24,0.0792033,0.0788962,0.461917,4,0.00547331,10,3.64435e-05,-3.33544,0.42949,0.137372,2.45811,0.0788962,
2,1,0,0,0,6866.54,0.0807019,0.0803886,0.463078,4,0.00561752,10,3.72261e-05,-3.33435,0.4612,0.127927,2.30628,0.0803886,
2,1,0,0,0,6866.84,0.0822001,0.0819124,0.464999,4,0.00576256,10,3.80892e-05,-3.33255,0.402405,0.146619,2.67402,0.0819124,
2,1,0,1,0,6867.14,0.0836986,0.0834058,0.470874,4,0.0059088,10,3.92736e-05,-3.3271,0.381482,0.15466,2.85075,0.0834058,
2,1,0,1,0,6867.44,0.0851965,0.0848943,0.475631,4,0.00605653,10,4.03784e-05,-3.32273,0.37205,0.158581,2.95095,0.0848943,
2,1,0,1,0,6867.74,0.0866944,0.0863997,0.478501,4,0.0062058,10,4.13424e-05,-3.32012,0.449331,0.131306,2.45852,0.0863997,
2,1,0,1,0,6868.04,0.0881929,0.0878867,0.486266,4,0.00635649,10,4.27363e-05,-3.31313,0.344945,0.171042,3.24731,0.0878867,
2,1,0,1,0,6868.34,0.0896911,0.0893395,0.491023,4,0.00650832,10,4.38677e-05,-3.3089,0.259298,0.227537,4.36663,0.0893395,
2,1,0,1,0,6868.64,0.0911897,0.0908586,0.4986,4,0.00666228,10,4.53021e-05,-3.30225,0.260311,0.226652,4.39303,0.0908586,
2,1,0,1,0,6868.94,0.0926875,0.0923723,0.504704,4,0.00681856,10,4.66207e-05,-3.29696,0.23905,0.24681,4.84828,0.0923723,
2,1,0,1,0,6869.24,0.0941853,0.0939107,0.511907,4,0.00697665,10,4.80736e-05,-3.29081,0.240351,0.245474,4.9181,0.0939107,
2,1,0,0,0,6869.54,0.0956838,0.0953456,0.517473,4,0.00713654,10,4.93388e-05,-3.28611,0.227189,0.259696,5.27128,0.0953456,
2,1,0,0,0,6869.84,0.097182,0.0968514,0.526698,4,0.00729915,10,5.10115e-05,-3.27844,0.177569,0.332265,6.83477,0.0968514,
2,1,0,1,0,6870.14,0.0986807,0.0983895,0.536261,4,0.00746444,10,5.27624e-05,-3.27062,0.192163,0.307031,6.44038,0.0983895,
2,1,0,1,0,6870.44,0.100179,0.0999225,0.546303,4,0.00763239,10,5.4588e-05,-3.26257,0.200975,0.293569,6.26072,0.09992253,
2,1,0,1,0,6870.74,0.101676,0.101328,0.552561,4,0.00780305,10,5.59899e-05,-3.25762,0.19273,0.306127,6.63357,0.101328,
2,1,0,1,0,6871.04,0.103175,0.102866,0.565934,4,0.00797675,10,5.82153e-05,-3.24723,0.178847,0.329892,7.28638,0.102866,
2,1,0,1,0,6871.34,0.104673,0.104364,0.579063,4,0.00815368,10,6.04336e-05,-3.23727,0.190122,0.310327,6.96613,0.104364,
2,1,0,1,0,6871.64,0.106171,0.105858,0.585229,4,0.00833394,10,6.19515e-05,-3.23267,0.215986,0.273166,6.22023,0.105858,
2,1,0,1,0,6871.94,0.10767,0.107337,0.594301,4,0.00851691,10,6.37905e-05,-3.22599,0.223481,0.264004,6.14856,0.107337,
2,1,0,1,0,6872.23,0.109167,0.108859,0.604463,4,0.00870219,10,6.58014e-05,-3.21863,0.223053,0.264511,6.26,0.108859,
2,1,0,1,0,6872.53,0.110665,0.110353,0.614429,4,0.00889088,10,6.78042e-05,-3.21153,0.215111,0.274277,6.57092,0.1103531,
2,1,0,0,0,6872.83,0.112164,0.111839,0.623808,4,0.00908247,10,6.97662e-05,-3.20495,0.302292,0.195176,4.73127,0.111839,
2,1,0,0,0,6873.13,0.113662,0.113334,0.633259,4,0.00927651,10,7.177e-05,-3.19842,0.300063,0.196625,4.84545,0.113334,
2,1,0,1,0,6873.43,0.115161,0.114879,0.638963,4,0.00947248,10,7.34033e-05,-3.19452,0.280448,0.210378,5.24214,0.114879,
2,1,0,1,0,6873.73,0.116658,0.116339,0.647899,4,0.00967119,10,7.53762e-05,-3.18849,0.24718,0.238693,6.02248,0.116339,
2,1,0,1,0,6874.03,0.118156,0.117847,0.654976,4,0.00987247,10,7.71869e-05,-3.18377,0.32157,0.183475,4.68452,0.117847,
2,1,0,1,0,6874.33,0.119655,0.119391,0.662887,4,0.010076,10,7.9143e-05,-3.17856,0.364865,0.161704,4.18638,0.1193914,
2,1,0,1,0,6874.63,0.121153,0.120863,0.668134,4,0.010281,10,8.07529e-05,-3.17514,0.328113,0.179816,4.69579,0.120863,
2,1,0,1,0,6874.93,0.122652,0.122306,0.674711,4,0.0104885,10,8.25211e-05,-3.17088,0.281581,0.209531,5.5139,0.122306,
2,1,0,1,0,6875.23,0.124149,0.123879,0.68441,4,0.0106982,10,8.4784e-05,-3.16468,0.293624,0.200937,5.36059,0.123879,
2,1,0,1,0,6875.53,0.125647,0.125359,0.690932,4,0.0109102,10,8.66144e-05,-3.16056,0.345325,0.170853,4.60431,0.125359,
2,1,0,0,0,6875.83,0.127146,0.126849,0.694359,4,0.0111242,10,8.80789e-05,-3.15842,0.380753,0.154956,4.21641,0.126849,
2,1,0,0,0,6876.13,0.128644,0.128351,0.705588,4,0.0113402,10,9.05628e-05,-3.15145,0.380368,0.155113,4.26016,0.128351,
2,1,0,1,0,6876.43,0.130143,0.129785,0.712708,4,0.0115584,10,9.24986e-05,-3.14709,0.458636,0.128642,3.56309,0.129785,
2,1,0,1,0,6876.73,0.131641,0.131334,0.715322,4,0.0117783,10,9.39459e-05,-3.1455,0.948396,0.0622103,1.72781,0.131334,
2,1,0,1,0,6877.03,0.133138,0.132864,0.717862,4,0.011999,10,9.53784e-05,-3.14396,4.9596,0.0118961,0.332795,0.132864,
2,1,0,1,0,6877.33,0.134637,0.13434,0.717197,4,0.0122196,10,9.63482e-05,-3.14436,-2.43901,-0.0241902,-0.675787,0.13434,
2,1,0,1,0,6877.63,0.136135,0.135811,0.715756,4,0.0124403,10,9.72073e-05,-3.14524,-0.668955,-0.0881972,-2.45112,0.135811,
2,1,0,1,0,6877.93,0.137633,0.137344,0.710668,4,0.0126598,10,9.7606e-05,-3.14833,-0.264138,-0.223368,-6.14074,0.137344,
2,1,0,1,0,6878.23,0.139132,0.13881,0.701222,4,0.0128768,10,9.73366e-05,-3.15414,-0.19202,-0.307259,-8.32204,0.13881,
2,1,0,1,0,6878.53,0.140629,0.140285,0.685222,4,0.0130895,10,9.6126e-05,-3.16417,-0.154173,-0.382687,-10.1742,0.140285,
2,1,0,1,0,6878.83,0.142127,0.141806,0.667901,4,0.0132979,10,9.47123e-05,-3.17529,-0.131938,-0.447179,-11.5735,0.141806,
2,1,0,0,0,6879.13,0.143626,0.14335,0.64812,4,0.0135012,10,9.29082e-05,-3.18834,-0.10443,-0.564972,-14.1894,0.14335,
2,1,0,0,0,6879.43,0.145124,0.144824,0.624515,4,0.0136975,10,9.04448e-05,-3.20446,-0.0844123,-0.69895,-16.9922,0.144824,
2,1,0,1,0,6879.73,0.146623,0.146289,0.596235,4,0.013886,10,8.72226e-05,-3.22458,-0.0817895,-0.721364,-16.788,0.146289,
2,1,0,1,0,6880.03,0.14812,0.147804,0.570805,4,0.0140668,10,8.43673e-05,-3.24351,-0.0802494,-0.735208,-16.3522,0.147804,
2,1,0,1,0,6880.33,0.149618,0.149274,0.545376,4,0.0142399,10,8.14107e-05,-3.2633,-0.0784195,-0.752363,-16.0508,0.149274,
2,1,0,1,0,6880.62,0.151117,0.150817,0.520733,4,0.0144055,10,7.85351e-05,-3.28339,-0.0723734,-0.815217,-16.5702,0.150817,
2,1,0,1,0,6880.92,0.152615,0.15231,0.49475,4,0.0145636,10,7.53551e-05,-3.30561,-0.074723,-0.789583,-15.3264,0.1523096,
2,1,0,1,0,6881.22,0.154114,0.153822,0.475499,4,0.014715,10,7.31424e-05,-3.32285,-0.082746,-0.713025,-13.2891,0.153822,
2,1,0,1,0,6881.52,0.155612,0.155304,0.456864,4,0.0148604,10,7.0953e-05,-3.34021,-0.0841175,-0.7014,-12.5366,0.155304,
2,1,0,1,0,6881.82,0.157109,0.156809,0.43842,4,0.0150005,10,6.87481e-05,-3.35811,-0.0900292,-0.655343,-11.2626,0.156809,
2,1,0,0,0,6882.12,0.158608,0.158324,0.423694,4,0.0151357,10,6.7081e-05,-3.37295,-0.0993459,-0.593885,-9.85442,0.158324,
2,1,0,0,0,6882.42,0.160106,0.159818,0.41001,4,0.0152661,10,6.55271e-05,-3.38721,-0.104846,-0.56273,-9.0384,0.159818,
2,1,0,1,0,6882.72,0.161605,0.161271,0.398388,4,0.0153929,10,6.42485e-05,-3.39969,-0.123663,-0.477104,-7.41873,0.161271,
2,1,0,1,0,6883.02,0.163102,0.162793,0.388036,4,0.0155164,10,6.31695e-05,-3.41113,-0.130479,-0.452181,-6.83114,0.162793,
2,1,0,1,0,6883.32,0.1646,0.164316,0.377968,4,0.0156368,10,6.21063e-05,-3.42255,-0.145802,-0.404658,-5.97383,0.164316,
2,1,0,1,0,6883.62,0.166099,0.165768,0.368621,4,0.0157541,10,6.11057e-05,-3.43342,-0.166413,-0.354539,-5.11788,0.165768,
2,1,0,1,0,6883.92,0.167597,0.16733,0.361728,4,0.0158692,10,6.0528e-05,-3.44162,-0.183936,-0.320763,-4.53359,0.16733,
2,1,0,1,0,6884.22,0.169095,0.168781,0.356245,4,0.0159824,10,6.01274e-05,-3.44825,-0.193876,-0.304318,-4.22529,0.168781,
2,1,0,1,0,6884.52,0.170594,0.170242,0.348065,4,0.0160935,10,5.92554e-05,-3.45834,-0.202489,-0.291375,-3.98563,0.170242,
2,1,0,1,0,6884.82,0.172091,0.17178,0.342812,4,0.0162026,10,5.88881e-05,-3.46494,-0.227802,-0.258996,-3.47459,0.17178,
2,1,0,1,0,6885.12,0.173589,0.173253,0.33825,4,0.0163103,10,5.86029e-05,-3.47076,-0.298343,-0.197759,-2.61449,0.173253,
2,1,0,0,0,6885.42,0.175088,0.174784,0.335079,4,0.0164167,10,5.85664e-05,-3.47485,-0.305942,-0.192847,-2.5224,0.174784,
2,1,0,0,0,6885.72,0.176586,0.176263,0.330611,4,0.016522,10,5.82745e-05,-3.48068,-0.275711,-0.213992,-2.75368,0.176263,
2,1,0,1,0,6886.02,0.178085,0.177798,0.325147,4,0.0166259,10,5.78104e-05,-3.48792,-0.332729,-0.177321,-2.26655,0.177798,
2,1,0,1,0,6886.32,0.179582,0.179315,0.324401,4,0.0167289,10,5.81699e-05,-3.48892,-0.36989,-0.159507,-2.01307,0.179315,
2,1,0,1,0,6886.62,0.18108,0.180777,0.320811,4,0.016831,10,5.79952e-05,-3.49375,-0.399411,-0.147718,-1.85434,0.180777,
2,1,0,1,0,6886.92,0.182579,0.182311,0.317152,4,0.0169323,10,5.78202e-05,-3.49873,-0.301645,-0.195594,-2.42501,0.182311,
2,1,0,1,0,6887.22,0.184077,0.183788,0.315422,4,0.0170328,10,5.79708e-05,-3.50111,-0.402911,-0.146434,-1.80196,0.183788,
2,1,0,1,0,6887.52,0.185576,0.185311,0.312578,4,0.0171324,10,5.79242e-05,-3.50504,-0.450745,-0.130894,-1.60285,0.185311,
2,1,0,1,0,6887.82,0.187074,0.186788,0.310775,4,0.0172315,10,5.80489e-05,-3.50755,-0.417354,-0.141367,-1.71385,0.186788,
2,1,0,1,0,6888.12,0.188571,0.188277,0.309695,4,0.0173299,10,5.83086e-05,-3.50907,-0.564482,-0.104521,-1.25506,0.188277,
2,1,0,0,0,6888.42,0.19007,0.189722,0.307395,4,0.0174278,10,5.83196e-05,-3.5123,-0.557787,-0.105775,-1.26344,0.189722,
2,1,0,0,0,6888.72,0.191568,0.191257,0.304573,4,0.017525,10,5.82518e-05,-3.51631,-0.706008,-0.0835685,-0.995133,0.191257,
2,1,0,1,0,6889.01,0.193067,0.192717,0.304262,4,0.0176217,10,5.86364e-05,-3.51675,-0.838011,-0.0704048,-0.833522,0.192717,
2,1,0,1,0,6889.31,0.194564,0.194292,0.301329,4,0.0177182,10,5.85459e-05,-3.52096,-0.969751,-0.0608404,-0.718294,0.194292,
2,1,0,1,0,6889.61,0.196062,0.19577,0.300738,4,0.0178142,10,5.88754e-05,-3.52181,-0.791596,-0.074533,-0.877296,0.1957701,
2,1,0,1,0,6889.91,0.197561,0.19726,0.297578,4,0.0179095,10,5.87003e-05,-3.5264,-0.596931,-0.0988389,-1.15567,0.1972602,
2,1,0,1,0,6890.21,0.199059,0.198739,0.298438,4,0.0180045,10,5.93114e-05,-3.52515,-0.793216,-0.0743808,-0.864193,0.198739,
2,1,0,1,0,6890.51,0.200557,0.200225,0.297867,4,0.0180991,10,5.96404e-05,-3.52598,-1.65889,-0.0355659,-0.412304,0.2002251,
2,1,0,1,0,6890.81,0.202056,0.20175,0.295996,4,0.0181934,10,5.97174e-05,-3.52871,-0.881811,-0.0669078,-0.769231,0.20175,
2,1,0,1,0,6891.11,0.203553,0.203267,0.2941,4,0.0182872,10,5.9781e-05,-3.5315,-0.582289,-0.101324,-1.16622,0.203267,
2,1,0,1,0,6891.41,0.205051,0.204722,0.291812,4,0.0183806,10,5.97402e-05,-3.5349,4.33613,0.0136066,0.156906,0.204722,
2,1,0,0,0,6891.71,0.20655,0.206258,0.290508,4,0.0184738,10,5.99196e-05,-3.53684,-0.787724,-0.0748993,-0.856677,0.206258,
2,1,0,0,0,6892.01,0.208048,0.20774,0.29154,4,0.0185671,10,6.05646e-05,-3.5353,-0.611872,-0.0964254,-1.09537,0.20774,
2,1,0,1,0,6892.31,0.209547,0.209276,0.291822,4,0.0186598,10,6.10714e-05,-3.53488,-1.50496,-0.0392038,-0.444365,0.209276,
2,1,0,1,0,6892.61,0.211044,0.210777,0.289751,4,0.018752,10,6.10729e-05,-3.53798,-0.869203,-0.0678782,-0.763725,0.210777,
2,1,0,1,0,6892.91,0.212542,0.212273,0.288215,4,0.0188441,10,6.11803e-05,-3.54028,-1.2447,-0.0474008,-0.532119,0.212273,
2,1,0,1,0,6893.21,0.214041,0.213765,0.287549,4,0.018936,10,6.1468e-05,-3.54129,-0.923523,-0.0638858,-0.715733,0.213765,
2,1,0,1,0,6893.51,0.215539,0.215259,0.286636,4,0.0190277,10,6.17008e-05,-3.54267,-0.77168,-0.0764565,-0.85351,0.215259,
2,1,0,1,0,6893.81,0.217038,0.216722,0.285445,4,0.0191189,10,6.18622e-05,-3.54448,-1.11393,-0.0529657,-0.591779,0.216722,
2,1,0,1,0,6894.11,0.218535,0.218226,0.284173,4,0.0192099,10,6.20138e-05,-3.54642,-6.37413,-0.00925616,-0.102738,0.218226,
2,1,0,1,0,6894.41,0.220033,0.219732,0.284288,4,0.0193009,10,6.24672e-05,-3.54624,-2.0932,-0.0281865,-0.313327,0.219732,
2,1,0,0,0,6894.71,0.221532,0.221234,0.283575,4,0.0193916,10,6.27364e-05,-3.54733,-0.683736,-0.0862907,-0.954205,0.2212339,
2,1,0,0,0,6895.01,0.22303,0.222711,0.28259,4,0.019482,10,6.2936e-05,-3.54884,-1.00484,-0.0587158,-0.646879,0.222711,
2,1,0,1,0,6895.31,0.224529,0.224196,0.282267,4,0.019572,10,6.32831e-05,-3.54934,-3.41176,-0.0172931,-0.189619,0.224196,
2,1,0,1,0,6895.61,0.226026,0.225695,0.282236,4,0.019662,10,6.36994e-05,-3.54939,-1.2264,-0.0481083,-0.526426,0.225695,
2,1,0,1,0,6895.91,0.227524,0.227198,0.280946,4,0.0197519,10,6.38305e-05,-3.55138,-0.894417,-0.0659647,-0.723747,0.227198,
2,1,0,1,0,6896.21,0.229023,0.228754,0.279771,4,0.0198415,10,6.39988e-05,-3.5532,-6.21622,-0.0094913,-0.104035,0.228754,
2,1,0,1,0,6896.51,0.230521,0.230197,0.279783,4,0.0199308,10,6.44052e-05,-3.55318,-2.21951,-0.0265824,-0.291773,0.2301975,
2,1,0,1,0,6896.81,0.232019,0.231718,0.27929,4,0.0200201,10,6.47165e-05,-3.55394,49.9019,0.00118232,0.012901,0.231718,
2,1,0,1,0,6897.1,0.233518,0.233175,0.278182,4,0.0201094,10,6.48652e-05,-3.55567,-0.923534,-0.063885,-0.693662,0.233175,
2,1,0,1,0,6897.4,0.235015,0.234736,0.27874,4,0.0201984,10,6.54303e-05,-3.5548,11.4923,0.00513385,0.0557457,0.234736,
2,1,0,1,0,6897.7,0.236513,0.236221,0.278365,4,0.020287,10,6.57557e-05,-3.55539,-1.74959,-0.0337223,-0.365834,0.236221,
2,1,0,0,0,6898,0.238012,0.23772,0.277481,4,0.0203756,10,6.59629e-05,-3.55677,-1.64942,-0.0357701,-0.385994,0.23772,
2,1,0,0,0,6898.3,0.23951,0.239225,0.276348,4,0.0204641,10,6.61092e-05,-3.55854,-4.2947,-0.0137379,-0.147848,0.239225,
2,1,0,1,0,6898.6,0.241009,0.240731,0.275157,4,0.0205524,10,6.62387e-05,-3.56042,-3.03,-0.0194719,-0.210333,0.240731,
2,1,0,1,0,6898.9,0.242506,0.242178,0.274579,4,0.0206403,10,6.6497e-05,-3.56133,-1.37214,-0.0429985,-0.462071,0.242178,
2,1,0,1,0,6899.2,0.244004,0.243691,0.274224,4,0.0207283,10,6.68258e-05,-3.56189,17.9935,0.00327896,0.0350594,0.243691,
2,1,0,1,0,6899.5,0.245503,0.245228,0.27502,4,0.0208162,10,6.74424e-05,-3.56064,-3.26308,-0.0180811,-0.19353,0.245228,
2,1,0,1,0,6899.8,0.247001,0.246723,0.273327,4,0.0209039,10,6.74359e-05,-3.56332,-1.72833,-0.034137,-0.365087,0.246723,
2,1,0,1,0,6900.1,0.2485,0.248209,0.271811,4,0.0209914,10,6.74659e-05,-3.56573,-0.908882,-0.0649149,-0.689729,0.248209,
2,1,0,1,0,6900.4,0.249997,0.249695,0.272682,4,0.0210788,10,6.80873e-05,-3.56434,-1.1949,-0.0493767,-0.525729,0.249695,
2,1,0,1,0,6900.7,0.251495,0.251213,0.272921,4,0.021166,10,6.85614e-05,-3.56396,-2.61882,-0.0225293,-0.239662,0.251213,
2,1,0,0,0,6901,0.252994,0.252678,0.270726,4,0.0212532,10,6.84066e-05,-3.56747,-0.917779,-0.0642857,-0.679792,0.252678,
2,1,0,0,0,6901.3,0.254492,0.254202,0.270737,4,0.0213401,10,6.88218e-05,-3.56745,-2.00876,-0.0293713,-0.311289,0.254202,
2,1,0,1,0,6901.6,0.255991,0.255657,0.271234,4,0.0214268,10,6.9343e-05,-3.56666,16.6488,0.0035438,0.0376298,0.255657,
2,1,0,1,0,6901.9,0.257488,0.257168,0.27157,4,0.0215136,10,6.9839e-05,-3.56612,-2.02675,-0.0291107,-0.308335,0.257168,
2,1,0,1,0,6902.2,0.258986,0.258715,0.271509,4,0.0216004,10,7.02433e-05,-3.56622,-2.43044,-0.0242754,-0.255895,0.258715,
2,1,0,1,0,6902.5,0.260485,0.260236,0.271735,4,0.0216871,10,7.07151e-05,-3.56585,-2.09869,-0.0281127,-0.295853,0.260236,
2,1,0,1,0,6902.8,0.261983,0.261717,0.270498,4,0.0217734,10,7.0794e-05,-3.56784,25.0094,0.00235911,0.0248331,0.261717,
2,1,0,1,0,6903.1,0.263481,0.263222,0.269844,4,0.0218597,10,7.10288e-05,-3.56889,546.363,0.000107987,0.00113332,0.263222,
2,1,0,1,0,6903.4,0.26498,0.264692,0.268765,4,0.021946,10,7.11397e-05,-3.57063,-3.46827,-0.0170114,-0.178719,0.264692,
2,1,0,1,0,6903.7,0.266477,0.266176,0.268425,4,0.0220321,10,7.14484e-05,-3.57118,-1.45461,-0.0405608,-0.42665,0.266176,
2,1,0,0,0,6904,0.267976,0.267676,0.26739,4,0.0221179,10,7.15741e-05,-3.57285,-5.09651,-0.0115765,-0.121217,0.2676765,
2,1,0,0,0,6904.3,0.269474,0.26916,0.267848,4,0.0222037,10,7.2094e-05,-3.57211,-3.51836,-0.0167692,-0.174848,0.26916,
2,1,0,0,0,6904.6,0.270972,0.270664,0.269042,4,0.0222894,10,7.28199e-05,-3.57018,-3.11732,-0.0189265,-0.197058,0.270664,
2,1,0,1,0,6904.9,0.27247,0.272168,0.268471,4,0.0223751,10,7.30692e-05,-3.5711,-2.45307,-0.0240515,-0.249846,0.272168,
2,1,0,1,0,6905.2,0.273968,0.273664,0.265278,4,0.0224606,10,7.25971e-05,-3.5763,-0.940434,-0.062737,-0.651418,0.273664,
2,1,0,1,0,6905.49,0.275466,0.275125,0.265373,4,0.0225457,10,7.30109e-05,-3.57614,-3.10872,-0.0189789,-0.197078,0.275125,
2,1,0,1,0,6905.79,0.276965,0.276656,0.265099,4,0.022631,10,7.33413e-05,-3.57659,4.11442,0.0143398,0.149064,0.276656,
2,1,0,1,0,6906.09,0.278463,0.278204,0.2646,4,0.0227161,10,7.36129e-05,-3.57741,-1.95728,-0.0301439,-0.312369,0.278204,
2,1,0,1,0,6906.39,0.279962,0.279677,0.264667,4,0.0228012,10,7.40213e-05,-3.5773,-2.49957,-0.023604,-0.243975,0.279677,
2,1,0,1,0,6906.69,0.281459,0.281179,0.264933,4,0.022886,10,7.44936e-05,-3.57686,-13.5638,-0.00434983,-0.0449303,0.281179,
2,1,0,1,0,6906.99,0.282957,0.282654,0.264018,4,0.0229707,10,7.46258e-05,-3.57837,39.4979,0.00149375,0.0153716,0.282654,
2,1,0,0,0,6907.29,0.284456,0.284169,0.265283,4,0.0230555,10,7.53853e-05,-3.57629,-39.6868,-0.00148664,-0.0153314,0.284169,
2,1,0,0,0,6907.59,0.285954,0.285657,0.263665,4,0.0231401,10,7.53178e-05,-3.57895,93.8196,0.000628866,0.00646689,0.285657,
2,1,0,0,0,6907.89,0.287452,0.287163,0.263995,4,0.0232245,10,7.58095e-05,-3.5784,-1.29979,-0.0453919,-0.466411,0.287163,
2,1,0,1,0,6908.19,0.28895,0.288658,0.262441,4,0.0233089,10,7.57556e-05,-3.58097,1.70153,0.0346747,0.356082,0.288658,
2,1,0,1,0,6908.49,0.290448,0.29015,0.26269,4,0.0233932,10,7.62195e-05,-3.58056,273.478,0.000215739,0.00221368,0.29015,
2,1,0,1,0,6908.79,0.291947,0.291662,0.262869,4,0.0234776,10,7.66688e-05,-3.58026,-1.63327,-0.0361239,-0.37161,0.291662,
2,1,0,1,0,6909.09,0.293445,0.29317,0.261058,4,0.0235615,10,7.65343e-05,-3.58326,-1.99858,-0.029521,-0.301726,0.2931698,
2,1,0,1,0,6909.39,0.294943,0.294659,0.261476,4,0.0236454,10,7.70461e-05,-3.58257,-2.73263,-0.0215909,-0.219878,0.294659,
2,1,0,1,0,6909.69,0.296442,0.296167,0.26356,4,0.0237293,10,7.80577e-05,-3.57912,-1.65018,-0.0357536,-0.363875,0.296167,
2,1,0,1,0,6909.99,0.297939,0.297647,0.261308,4,0.0238131,10,7.77773e-05,-3.58285,-2.35414,-0.0250622,-0.254718,0.297647,
2,1,0,1,0,6910.29,0.299437,0.299167,0.25885,4,0.0238966,10,7.74393e-05,-3.58695,-0.00214764,-27.472,-125.976,0.299167,
2,1,0,1,0,6910.46,0.299737,0.299377,0.0837267,4,0.0239332,10,2.50659e-05,-4.07714,0.000899148,65.6176,199.89,0.299377,
2,1,0,1,0,6910.76,0.29824,0.297942,0.0171365,4,0.023939,10,5.10569e-06,-4.76608,0.00223143,26.4405,72.3629,0.2979421,
2,1,0,0,0,6911.06,0.296741,0.296446,0.000134647,4,0.0239359,10,3.99157e-08,-6.8708,0.0159205,3.70592,9.64971,0.296446,
2,0,0,0,0,6911.36,0.295243,0.294981,-0.0116467,4,0.0239287,10,-3.43554e-06,-4.9338,-0.00652733,-9.03892,6.24744,0.294981,
2,0,0,1,0,6911.66,0.293744,0.293448,-0.0204206,4,0.0239188,10,-5.9924e-06,-4.68993,-0.00670262,-8.80253,5.48636,0.2934483,
2,0,0,1,0,6911.96,0.292246,0.291949,-0.0271696,4,0.0239067,10,-7.93214e-06,-4.56592,-0.0124382,-4.74345,4.44131,0.291949,
2,0,0,1,0,6912.26,0.290749,0.290447,-0.032866,4,0.0238924,10,-9.54583e-06,-4.48325,-0.0183765,-3.21063,3.82766,0.290447,
2,0,0,1,0,6912.56,0.28925,0.288908,-0.0387678,4,0.0238764,10,-1.12003e-05,-4.41153,-0.0211749,-2.78632,3.99018,0.288908,
2,0,0,1,0,6912.86,0.287752,0.287465,-0.0437383,4,0.0238587,10,-1.25732e-05,-4.35914,-0.0305778,-1.9295,3.24118,0.287465,
2,0,0,1,0,6913.16,0.286253,0.285955,-0.0471355,4,0.0238397,10,-1.34786e-05,-4.32665,-0.0372573,-1.58358,2.9381,0.285955,
2,0,0,1,0,6913.46,0.284755,0.284471,-0.0526114,4,0.0238193,10,-1.49664e-05,-4.27892,-0.0412579,-1.43003,2.85958,0.284471,
2,0,0,1,0,6913.76,0.283257,0.282973,-0.0561589,4,0.0237974,10,-1.58915e-05,-4.25058,-0.0493048,-1.19664,2.65419,0.282973,
2,0,0,0,0,6914.06,0.281759,0.281442,-0.0595596,4,0.0237746,10,-1.67626e-05,-4.22505,-0.0656118,-0.899228,2.08581,0.281442,
2,0,0,0,0,6914.35,0.280261,0.279928,-0.0623275,4,0.0237506,10,-1.74472e-05,-4.20532,-0.0572818,-1.03,2.52609,0.279928,
2,0,0,0,0,6914.65,0.278763,0.278499,-0.0675905,4,0.0237256,10,-1.88239e-05,-4.17011,-0.0744963,-0.791986,2.04419,0.278499,
2,0,0,1,0,6914.95,0.277264,0.27698,-0.0706826,4,0.0236994,10,-1.95777e-05,-4.15069,-0.0695015,-0.848903,2.31653,0.27698,
2,0,0,1,0,6915.25,0.275766,0.275517,-0.0734428,4,0.0236723,10,-2.02347e-05,-4.13405,-0.0843567,-0.699411,1.98233,0.275517,
2,0,0,1,0,6915.55,0.274269,0.273932,-0.0757591,4,0.0236441,10,-2.07529e-05,-4.12057,-0.124912,-0.472332,1.41685,0.273932,
2,0,0,1,0,6915.85,0.27277,0.272468,-0.0797404,4,0.0236152,10,-2.17267e-05,-4.09832,-0.0959242,-0.615069,1.92397,0.272468,
2,0,0,1,0,6916.15,0.271272,0.270955,-0.0826953,4,0.0235853,10,-2.24067e-05,-4.08252,-0.109364,-0.539484,1.75676,0.270955,
2,0,0,1,0,6916.45,0.269773,0.269503,-0.085225,4,0.0235544,10,-2.29684e-05,-4.06943,-0.112805,-0.523028,1.73523,0.269503,
2,0,0,1,0,6916.75,0.268275,0.267949,-0.0880083,4,0.0235227,10,-2.35817e-05,-4.05548,-0.117914,-0.500367,1.71556,0.267949,
2,0,0,1,0,6917.05,0.266778,0.266449,-0.0907304,4,0.0234905,10,-2.4175e-05,-4.04225,-0.0992158,-0.594663,2.09125,0.266449,
2,0,0,0,0,6917.35,0.265279,0.264984,-0.0938464,4,0.0234572,10,-2.48678e-05,-4.02758,-0.095992,-0.614635,2.22103,0.264984,
2,0,0,0,0,6917.65,0.263781,0.263484,-0.0963567,4,0.0234232,10,-2.53884e-05,-4.01612,-0.133368,-0.442384,1.64918,0.263484,
2,0,0,1,0,6917.95,0.262282,0.261978,-0.0974478,4,0.0233884,10,-2.55291e-05,-4.01123,-0.132267,-0.446067,1.70555,0.261978,
2,0,0,1,0,6918.25,0.260784,0.260515,-0.100524,4,0.0233531,10,-2.6188e-05,-3.99773,-0.134218,-0.439583,1.73382,0.260515,
2,0,0,1,0,6918.55,0.259286,0.258965,-0.102994,4,0.023317,10,-2.66719e-05,-3.98719,-0.115398,-0.511273,2.0557,0.258965,
2,0,0,1,0,6918.85,0.257788,0.25748,-0.107272,4,0.0232801,10,-2.76204e-05,-3.96951,-0.169007,-0.349099,1.43583,0.25748,
2,0,0,1,0,6919.15,0.25629,0.255995,-0.107989,4,0.0232425,10,-2.76447e-05,-3.96662,-0.217229,-0.271602,1.13408,0.255995,
2,0,0,1,0,6919.45,0.254791,0.254438,-0.109199,4,0.0232044,10,-2.77844e-05,-3.96178,-0.161535,-0.365246,1.56977,0.254438,
2,0,0,1,0,6919.75,0.253293,0.252971,-0.111373,4,0.0231658,10,-2.81742e-05,-3.95322,-0.171719,-0.343584,1.49917,0.252971,
2,0,0,1,0,6920.05,0.251795,0.251499,-0.113846,4,0.0231264,10,-2.86322e-05,-3.94368,-0.174979,-0.337183,1.49973,0.251499,
2,0,0,0,0,6920.35,0.250297,0.250053,-0.114492,4,0.0230863,10,-2.86291e-05,-3.94122,-0.231269,-0.255114,1.14629,0.250053,
2,0,0,0,0,6920.65,0.248799,0.24846,-0.117088,4,0.0230456,10,-2.90917e-05,-3.93149,-0.220927,-0.267056,1.23848,0.24846,
2,0,0,0,0,6920.95,0.247301,0.247035,-0.120109,4,0.0230045,10,-2.96711e-05,-3.92042,-0.224129,-0.263241,1.2398,0.247035,
2,0,0,1,0,6921.25,0.245802,0.245513,-0.12265,4,0.0229626,10,-3.01121e-05,-3.91133,-0.203162,-0.290408,1.37667,0.245513,
2,0,0,1,0,6921.55,0.244304,0.243956,-0.124517,4,0.0229199,10,-3.03766e-05,-3.90477,-0.239797,-0.246042,1.18254,0.243956,
2,0,0,1,0,6921.85,0.242806,0.242438,-0.126096,4,0.0228768,10,-3.05703e-05,-3.8993,-0.26148,-0.225638,1.10551,0.242438,
2,0,0,1,0,6922.15,0.241308,0.241006,-0.12825,4,0.0228333,10,-3.0909e-05,-3.89194,-0.23713,-0.248808,1.25115,0.241006,
2,0,0,1,0,6922.44,0.23981,0.239512,-0.129907,4,0.022789,10,-3.11144e-05,-3.88637,-0.147086,-0.401126,2.02502,0.239512,
2,0,0,1,0,6922.74,0.238311,0.238047,-0.13101,4,0.0227441,10,-3.11866e-05,-3.88269,-0.225638,-0.261481,1.34842,0.238047,
2,0,0,1,0,6923.04,0.236813,0.236543,-0.132434,4,0.0226988,10,-3.13262e-05,-3.878,-0.224046,-0.263338,1.37596,0.236543,
2,0,0,1,0,6923.34,0.235316,0.234999,-0.134087,4,0.022653,10,-3.15104e-05,-3.87261,-0.206704,-0.285432,1.5141,0.234999,
2,0,0,0,0,6923.64,0.233817,0.233506,-0.137627,4,0.0226066,10,-3.21366e-05,-3.8613,-0.444049,-0.132868,0.710113,0.233506,
2,0,0,0,0,6923.94,0.232319,0.231973,-0.139931,4,0.0225595,10,-3.24601e-05,-3.85409,-0.255524,-0.230898,1.25442,0.231973,
2,0,0,1,0,6924.24,0.23082,0.230504,-0.141741,4,0.0225119,10,-3.26719e-05,-3.8485,-0.192125,-0.307092,1.69102,0.230504,
2,0,0,1,0,6924.54,0.229322,0.229046,-0.142465,4,0.0224639,10,-3.26311e-05,-3.84629,-0.370255,-0.15935,0.890097,0.229046,
2,0,0,1,0,6924.84,0.227825,0.227518,-0.144244,4,0.0224153,10,-3.2818e-05,-3.8409,-0.239118,-0.24674,1.39579,0.227518,
2,0,0,1,0,6925.14,0.226326,0.226015,-0.147066,4,0.0223661,10,-3.32391e-05,-3.83249,-0.250656,-0.235383,1.34969,0.226015,
2,0,0,1,0,6925.44,0.224828,0.224525,-0.147512,4,0.0223162,10,-3.31201e-05,-3.83117,-0.465518,-0.12674,0.733889,0.224525,
2,0,0,1,0,6925.74,0.223329,0.223059,-0.150779,4,0.0222658,10,-3.36327e-05,-3.82166,-0.266374,-0.221493,1.29975,0.223059,
2,0,0,1,0,6926.04,0.221831,0.221545,-0.152861,4,0.0222151,10,-3.38656e-05,-3.8157,-0.250167,-0.235843,1.4006,0.221545,
2,0,0,1,0,6926.34,0.220333,0.220044,-0.153906,4,0.0221636,10,-3.38662e-05,-3.81274,-0.326249,-0.180844,1.08398,0.2200444,
2,0,0,0,0,6926.64,0.218835,0.218562,-0.157084,4,0.0221114,10,-3.43326e-05,-3.80387,-0.381393,-0.154696,0.934711,0.218562,
2,0,0,0,0,6926.94,0.217337,0.217026,-0.157863,4,0.0220588,10,-3.42605e-05,-3.80172,-0.243874,-0.241928,1.48283,0.217026,
2,0,0,0,0,6927.24,0.215839,0.215526,-0.158753,4,0.0220059,10,-3.42154e-05,-3.79928,-0.303058,-0.194682,1.21406,0.215526,
2,0,0,1,0,6927.54,0.21434,0.214056,-0.160031,4,0.0219522,10,-3.42556e-05,-3.79579,-0.235508,-0.250522,1.57032,0.214056,
2,0,0,1,0,6927.84,0.212842,0.212557,-0.16199,4,0.021898,10,-3.44321e-05,-3.79051,-0.220027,-0.268149,1.70796,0.212557,
2,0,0,1,0,6928.14,0.211344,0.211096,-0.164091,4,0.0218432,10,-3.46391e-05,-3.78491,-0.344909,-0.17106,1.10129,0.211096,
2,0,0,1,0,6928.44,0.209846,0.209539,-0.166029,4,0.0217878,10,-3.47894e-05,-3.77982,-0.316553,-0.186383,1.20973,0.209539,
2,0,0,1,0,6928.74,0.208348,0.208072,-0.167943,4,0.0217319,10,-3.49442e-05,-3.77484,-0.252438,-0.233721,1.53504,0.208072,
2,0,0,1,0,6929.04,0.206849,0.206552,-0.173312,4,0.0216751,10,-3.57981e-05,-3.76117,-0.28585,-0.206402,1.374,0.206552,
2,0,0,1,0,6929.34,0.205351,0.205056,-0.173612,4,0.0216176,10,-3.56003e-05,-3.76042,-0.650344,-0.0907212,0.609166,0.205056,
2,0,0,1,0,6929.64,0.203854,0.203519,-0.17431,4,0.0215597,10,-3.54754e-05,-3.75868,-0.340218,-0.173418,1.18957,0.203519,
2,0,0,0,0,6929.94,0.202355,0.202052,-0.176983,4,0.0215014,10,-3.57597e-05,-3.75207,-0.262097,-0.225107,1.56,0.202052,
2,0,0,0,0,6930.24,0.200857,0.20057,-0.178342,4,0.0214421,10,-3.57699e-05,-3.74875,-0.290315,-0.203228,1.42643,0.20057,
2,0,0,1,0,6930.54,0.199358,0.199057,-0.181555,4,0.0213823,10,-3.61399e-05,-3.74099,-0.440121,-0.134054,0.950339,0.199057,
2,0,0,1,0,6930.83,0.19786,0.197552,-0.18481,4,0.0213218,10,-3.65096e-05,-3.73327,-0.365883,-0.161254,1.15488,0.197552,
2,0,0,1,0,6931.13,0.196363,0.196041,-0.186557,4,0.0212607,10,-3.65728e-05,-3.72919,-0.214973,-0.274454,1.9899,0.196041,
2,0,0,1,0,6931.43,0.194864,0.194564,-0.188132,4,0.0211987,10,-3.66037e-05,-3.72554,-0.266435,-0.221443,1.62998,0.194564,
2,0,0,1,0,6931.73,0.193366,0.192977,-0.192177,4,0.0211359,10,-3.70857e-05,-3.7163,-0.254772,-0.23158,1.73127,0.192977,
2,0,0,1,0,6932.03,0.191867,0.191567,-0.194977,4,0.0210723,10,-3.73512e-05,-3.71002,-0.247134,-0.238737,1.81376,0.191567,
2,0,0,1,0,6932.33,0.190369,0.190034,-0.195391,4,0.0210082,10,-3.7131e-05,-3.7091,-0.257024,-0.22955,1.77057,0.190034,
2,0,0,1,0,6932.63,0.188871,0.188568,-0.199202,4,0.0209431,10,-3.75632e-05,-3.70071,-0.191815,-0.307589,2.38794,0.188568,
2,0,0,0,0,6932.93,0.187373,0.187051,-0.202375,4,0.0208771,10,-3.78544e-05,-3.69384,-0.232966,-0.253256,2.00347,0.187051,
2,0,0,0,0,6933.23,0.185875,0.185565,-0.204385,4,0.0208103,10,-3.79267e-05,-3.68955,-0.212505,-0.277641,2.22172,0.185565,
2,0,0,0,0,6933.53,0.184377,0.184052,-0.207124,4,0.0207426,10,-3.81216e-05,-3.68377,-0.245939,-0.239897,1.95065,0.1840518,
2,0,0,1,0,6933.83,0.182878,0.182542,-0.212226,4,0.020674,10,-3.87401e-05,-3.6732,-0.172517,-0.341996,2.82572,0.182542,
2,0,0,1,0,6934.13,0.181381,0.181047,-0.21502,4,0.0206042,10,-3.89288e-05,-3.66752,-0.250578,-0.235456,1.97323,0.181047,
2,0,0,1,0,6934.43,0.179882,0.179586,-0.218394,4,0.0205333,10,-3.92206e-05,-3.66076,-0.263957,-0.223521,1.90679,0.179586,
2,0,0,1,0,6934.73,0.178384,0.178075,-0.222381,4,0.0204615,10,-3.96005e-05,-3.6529,-0.250103,-0.235902,2.04987,0.178075,
2,0,0,1,0,6935.03,0.176886,0.176581,-0.225888,4,0.0203886,10,-3.98875e-05,-3.64611,-0.177059,-0.333222,2.94867,0.176581,
2,0,0,1,0,6935.33,0.175387,0.175094,-0.23028,4,0.0203144,10,-4.03207e-05,-3.63774,-0.176036,-0.335158,3.01777,0.1750942,
2,0,0,1,0,6935.63,0.173889,0.17359,-0.236214,4,0.0202388,10,-4.10043e-05,-3.62669,-0.160879,-0.366734,3.35853,0.17359,
2,0,0,1,0,6935.93,0.172392,0.172072,-0.240713,4,0.0201617,10,-4.142e-05,-3.6185,-0.165474,-0.356551,3.34223,0.172072,
2,0,0,0,0,6936.23,0.170893,0.170588,-0.245235,4,0.0200834,10,-4.18342e-05,-3.61042,-0.159105,-0.370824,3.56061,0.170588,
2,0,0,0,0,6936.53,0.169395,0.169061,-0.251256,4,0.0200032,10,-4.24775e-05,-3.59988,-0.131628,-0.448234,4.38929,0.169061,
2,0,0,1,0,6936.83,0.167896,0.167581,-0.25722,4,0.0199213,10,-4.31052e-05,-3.5897,-0.143318,-0.411672,4.14307,0.167581,
2,0,0,1,0,6937.13,0.166398,0.166087,-0.263439,4,0.0198374,10,-4.37538e-05,-3.57932,-0.129246,-0.456495,4.72681,0.166087,
2,0,0,1,0,6937.43,0.164901,0.164596,-0.269679,4,0.0197519,10,-4.4388e-05,-3.56915,-0.130914,-0.450678,4.78268,0.164596,
2,0,0,1,0,6937.73,0.163402,0.163124,-0.277856,4,0.0196639,10,-4.53248e-05,-3.55618,-0.109506,-0.538785,5.85123,0.163124,
2,0,0,1,0,6938.03,0.161904,0.161588,-0.287561,4,0.0195735,10,-4.64664e-05,-3.54127,-0.110852,-0.532243,5.94538,0.161588,
2,0,0,1,0,6938.33,0.160405,0.160107,-0.296179,4,0.0194803,10,-4.74205e-05,-3.52845,-0.105973,-0.556743,6.41149,0.160107,
2,0,0,1,0,6938.63,0.158907,0.158594,-0.30395,4,0.0193844,10,-4.82049e-05,-3.5172,-0.100802,-0.585308,6.99884,0.158594,
2,0,0,1,0,6938.92,0.157409,0.157089,-0.317106,4,0.0192853,10,-4.98139e-05,-3.4988,-0.0869203,-0.678783,8.43986,0.157089,
2,0,0,0,0,6939.22,0.155911,0.155583,-0.329078,4,0.0191825,10,-5.1199e-05,-3.4827,-0.0877194,-0.672599,8.68791,0.155583,
2,0,0,0,0,6939.52,0.154413,0.154077,-0.341687,4,0.0190755,10,-5.26462e-05,-3.46637,-0.0864554,-0.682433,9.13298,0.154077,
2,0,0,0,0,6939.82,0.152915,0.15263,-0.358753,4,0.0189646,10,-5.47564e-05,-3.4452,-0.0820968,-0.718664,10.11,0.15263,
2,0,0,1,0,6940.12,0.151416,0.151119,-0.37451,4,0.0188492,10,-5.65955e-05,-3.42654,-0.0750521,-0.78612,11.5245,0.151119,
2,0,0,1,0,6940.42,0.149919,0.14958,-0.394037,4,0.0187283,10,-5.89401e-05,-3.40446,-0.0709564,-0.831497,12.7494,0.14958,
2,0,0,1,0,6940.72,0.14842,0.148125,-0.412846,4,0.0186017,10,-6.11529e-05,-3.38421,-0.0692717,-0.851719,13.758,0.148125,
2,0,0,1,0,6941.02,0.146922,0.146607,-0.434112,4,0.018469,10,-6.36437e-05,-3.3624,-0.0678737,-0.869262,14.7676,0.146607,
2,0,0,1,0,6941.32,0.145424,0.145084,-0.456879,4,0.0183298,10,-6.62859e-05,-3.3402,-0.0653161,-0.903299,16.1435,0.145084,
2,0,0,1,0,6941.62,0.143925,0.143624,-0.482121,4,0.0181832,10,-6.92444e-05,-3.31684,-0.063969,-0.922321,17.3337,0.143624,
2,0,0,1,0,6941.92,0.142427,0.142102,-0.506107,4,0.018029,10,-7.19189e-05,-3.29576,-0.0654201,-0.901864,17.8649,0.142102,
2,0,0,1,0,6942.22,0.14093,0.140621,-0.535266,4,0.017867,10,-7.52697e-05,-3.27143,-0.0710541,-0.830354,17.3094,0.140621,
2,0,0,0,0,6942.52,0.139431,0.139083,-0.557196,4,0.0176972,10,-7.74965e-05,-3.25399,-0.0739191,-0.798169,17.4279,0.139083,
2,0,0,0,0,6942.82,0.137933,0.137639,-0.587784,4,0.0175195,10,-8.09019e-05,-3.23078,-0.076905,-0.76718,17.4725,0.137639,
2,0,0,1,0,6943.12,0.136434,0.136082,-0.614797,4,0.0173337,10,-8.36626e-05,-3.21127,-0.0865146,-0.681965,16.2036,0.136082,
2,0,0,1,0,6943.42,0.134936,0.134617,-0.634834,4,0.0171408,10,-8.54593e-05,-3.19734,-0.102931,-0.5732,14.1296,0.134617,
2,0,0,1,0,6943.72,0.133439,0.133155,-0.653345,4,0.0169415,10,-8.69959e-05,-3.18486,-0.116227,-0.507627,12.9352,0.133155,
2,0,0,1,0,6944.02,0.13194,0.13162,-0.672393,4,0.0167366,10,-8.85003e-05,-3.17238,-0.13181,-0.447614,11.7503,0.13162,
2,0,0,1,0,6944.32,0.130442,0.130129,-0.689645,4,0.0165262,10,-8.97429e-05,-3.16137,-0.158638,-0.371916,9.96615,0.130129,
2,0,0,1,0,6944.62,0.128943,0.128624,-0.702937,4,0.0163112,10,-9.04146e-05,-3.15308,-0.241846,-0.243957,6.65806,0.128624,
2,0,0,1,0,6944.92,0.127445,0.127089,-0.712973,4,0.0160929,10,-9.06108e-05,-3.14693,-0.271501,-0.217311,6.02444,0.127089,
2,0,0,1,0,6945.22,0.125947,0.125628,-0.720673,4,0.0158727,10,-9.05367e-05,-3.14226,-0.391923,-0.15054,4.21813,0.125628,
2,0,0,0,0,6945.52,0.124449,0.124158,-0.726136,4,0.01565,10,-9.01555e-05,-3.13898,-0.51094,-0.115473,3.25522,0.124158,
2,0,0,0,0,6945.82,0.122951,0.122655,-0.729185,4,0.0154262,10,-8.94384e-05,-3.13716,-1.45588,-0.0405253,1.14829,0.122655,
2,0,0,0,0,6946.12,0.121453,0.121143,-0.728581,4,0.0152019,10,-8.82626e-05,-3.13752,3.6734,0.0160614,-0.455764,0.121143,
2,0,0,1,0,6946.42,0.119954,0.119636,-0.725893,4,0.0149781,10,-8.6843e-05,-3.13913,1.61246,0.03659,-1.039,0.119636,
2,0,0,1,0,6946.72,0.118456,0.118153,-0.723234,4,0.0147548,10,-8.54523e-05,-3.14072,2.95066,0.0199955,-0.564207,0.118153,
2,0,0,1,0,6947.02,0.116958,0.116645,-0.722848,4,0.0145319,10,-8.43166e-05,-3.14095,0.582025,0.10137,-2.85091,0.116645,
2,0,0,1,0,6947.31,0.11546,0.115119,-0.716316,4,0.0143103,10,-8.24615e-05,-3.1449,0.398422,0.148084,-4.13394,0.115119,
2,0,0,1,0,6947.61,0.113962,0.113659,-0.706571,4,0.0140906,10,-8.0308e-05,-3.15084,0.483375,0.122058,-3.38435,0.113659,
2,0,0,1,0,6947.91,0.112463,0.112142,-0.705918,4,0.0138729,10,-7.91631e-05,-3.15125,0.370488,0.159249,-4.37724,0.112142,
2,0,0,1,0,6948.21,0.110965,0.110628,-0.70101,4,0.0136564,10,-7.75515e-05,-3.15428,0.441625,0.133598,-3.64043,0.110628,
2,0,0,1,0,6948.51,0.109468,0.109177,-0.691886,4,0.0134419,10,-7.5538e-05,-3.15997,0.293836,0.200792,-5.4229,0.109177,
2,0,0,0,0,6948.81,0.107969,0.107714,-0.685233,4,0.0132292,10,-7.38093e-05,-3.16416,0.377282,0.156382,-4.19313,0.107714,
2,0,0,0,0,6949.11,0.106471,0.106162,-0.679866,4,0.013019,10,-7.21758e-05,-3.16758,0.38625,0.152751,-4.0632,0.106162,
2,0,0,1,0,6949.41,0.104972,0.104666,-0.673214,4,0.0128104,10,-7.04629e-05,-3.17185,0.335719,0.175742,-4.61519,0.104666,
2,0,0,1,0,6949.71,0.103474,0.103209,-0.667121,4,0.0126036,10,-6.88527e-05,-3.1758,0.333134,0.177106,-4.59193,0.1032086,
2,0,0,1,0,6950.01,0.101977,0.101647,-0.659864,4,0.0123993,10,-6.70732e-05,-3.18055,0.312695,0.188682,-4.84671,0.101647,
2,0,0,1,0,6950.31,0.100478,0.100149,-0.651074,4,0.0121976,10,-6.52046e-05,-3.18637,0.297879,0.198067,-5.03404,0.100149,
2,0,0,1,0,6950.61,0.0989799,0.0986785,-0.645535,4,0.0119976,10,-6.37004e-05,-3.19008,0.328154,0.179794,-4.5103,0.09867847,
2,0,0,1,0,6950.91,0.0974812,0.0971501,-0.636833,4,0.0117998,10,-6.18684e-05,-3.19597,0.298256,0.197817,-4.92393,0.0971501,
2,0,0,1,0,6951.21,0.0959834,0.0956668,-0.629909,4,0.0116044,10,-6.02614e-05,-3.20072,0.314243,0.187753,-4.61602,0.0956668,
2,0,0,1,0,6951.51,0.0944855,0.094207,-0.620152,4,0.0114115,10,-5.84227e-05,-3.2075,0.304885,0.193516,-4.69973,0.094207,
2,0,0,0,0,6951.81,0.0929871,0.0926713,-0.61414,4,0.0112205,10,-5.69131e-05,-3.21173,0.37211,0.158555,-3.80236,0.09267126,
2,0,0,0,0,6952.11,0.0914889,0.0911549,-0.610115,4,0.0110313,10,-5.56149e-05,-3.21459,0.31147,0.189424,-4.49581,0.0911549,
2,0,0,0,0,6952.41,0.0899907,0.0896491,-0.603014,4,0.0108442,10,-5.40597e-05,-3.21967,0.27851,0.211842,-4.96521,0.0896491,
2,0,0,1,0,6952.71,0.0884923,0.0881535,-0.592441,4,0.0106593,10,-5.22258e-05,-3.22735,0.311652,0.189314,-4.38564,0.0881535,
2,0,0,1,0,6953.01,0.0869946,0.0866961,-0.587931,4,0.0104766,10,-5.09713e-05,-3.23067,0.34362,0.171701,-3.94052,0.0866961,
2,0,0,1,0,6953.31,0.0854962,0.0852007,-0.582415,4,0.0102954,10,-4.96221e-05,-3.23477,0.317376,0.185899,-4.22457,0.0852007,
2,0,0,1,0,6953.61,0.083998,0.0836801,-0.575068,4,0.0101158,10,-4.81217e-05,-3.24028,0.306019,0.192798,-4.32999,0.0836801,
2,0,0,1,0,6953.91,0.0824998,0.0821902,-0.571928,4,0.00993812,10,-4.70068e-05,-3.24266,0.35203,0.167599,-3.73941,0.0821902,
2,0,0,1,0,6954.21,0.0810014,0.0807106,-0.565627,4,0.00976218,10,-4.56521e-05,-3.24747,0.443554,0.133017,-2.93982,0.0807106,
2,0,0,1,0,6954.51,0.0795035,0.0792499,-0.561068,4,0.00958737,10,-4.44646e-05,-3.25098,0.453131,0.130205,-2.85286,0.0792499,
2,0,0,1,0,6954.81,0.0780056,0.0777073,-0.557031,4,0.0094138,10,-4.32854e-05,-3.25412,0.344754,0.171137,-3.7187,0.0777073,
2,0,0,0,0,6955.11,0.076507,0.076218,-0.552808,4,0.00924168,10,-4.21339e-05,-3.25743,0.441592,0.133608,-2.88431,0.076218,
2,0,0,0,0,6955.41,0.0750088,0.0747154,-0.547835,4,0.00907146,10,-4.09317e-05,-3.26135,0.439765,0.134162,-2.86883,0.0747154,
2,0,0,1,0,6955.7,0.0735103,0.0731764,-0.544366,4,0.00890185,10,-3.98348e-05,-3.26411,0.677926,0.0870302,-1.84562,0.0731764,
2,0,0,1,0,6956,0.0720124,0.0716879,-0.539514,4,0.00873365,10,-3.86767e-05,-3.268,0.461479,0.12785,-2.70136,0.0716879,
2,0,0,1,0,6956.3,0.0705146,0.0701634,-0.536475,4,0.00856653,10,-3.7641e-05,-3.27045,0.475065,0.124194,-2.60313,0.0701634,
2,0,0,1,0,6956.6,0.0690161,0.0686912,-0.530662,4,0.00840071,10,-3.64518e-05,-3.27518,0.517221,0.114071,-2.37436,0.0686912,
2,0,0,1,0,6956.9,0.0675179,0.0671812,-0.529246,4,0.00823605,10,-3.55554e-05,-3.27634,0.555191,0.10627,-2.19528,0.0671812,
2,0,0,1,0,6957.2,0.0660192,0.0657184,-0.529255,4,0.00807215,10,-3.47818e-05,-3.27633,0.511464,0.115355,-2.36453,0.0657184,
2,0,0,1,0,6957.5,0.0645214,0.0642173,-0.522667,4,0.00790936,10,-3.35643e-05,-3.28177,0.390567,0.151062,-3.07335,0.0642173,
2,0,0,1,0,6957.8,0.0630235,0.0627384,-0.515858,4,0.00774806,10,-3.23641e-05,-3.28747,0.538772,0.109508,-2.21156,0.0627384,
2,0,0,0,0,6958.1,0.0615251,0.061209,-0.513293,4,0.00758795,10,-3.14182e-05,-3.28963,0.487114,0.121121,-2.43285,0.061209,
2,0,0,0,0,6958.4,0.0600269,0.0597128,-0.511989,4,0.00742873,10,-3.05723e-05,-3.29074,0.412689,0.142965,-2.85413,0.0597128,
2,0,0,0,0,6958.7,0.0585287,0.0582176,-0.506844,4,0.00727059,10,-2.95073e-05,-3.29513,0.344907,0.171061,-3.38018,0.0582176,
2,0,0,1,0,6959,0.0570303,0.0566883,-0.501918,4,0.00711363,10,-2.84529e-05,-3.29937,0.440269,0.134009,-2.62796,0.0566883,
2,0,0,1,0,6959.3,0.0555325,0.0552561,-0.499689,4,0.00695833,10,-2.76108e-05,-3.3013,0.437066,0.134991,-2.6343,0.05525605,
2,0,0,1,0,6959.6,0.0540342,0.0537787,-0.495415,4,0.00680386,10,-2.66428e-05,-3.30503,0.519967,0.113469,-2.18856,0.0537787,
2,0,0,1,0,6959.9,0.052536,0.0522475,-0.490427,4,0.00665025,10,-2.56236e-05,-3.30943,0.359853,0.163956,-3.14093,0.0522475,
2,0,0,1,0,6960.2,0.0510378,0.0507269,-0.486256,4,0.00649822,10,-2.46663e-05,-3.31313,0.369248,0.159784,-3.04123,0.0507269,
2,0,0,1,0,6960.5,0.0495394,0.0491882,-0.482538,4,0.00634762,10,-2.37352e-05,-3.31647,0.476121,0.123918,-2.33429,0.0491882,
2,0,0,1,0,6960.8,0.0480415,0.0477146,-0.478484,4,0.00619804,10,-2.28307e-05,-3.32013,0.693721,0.0850486,-1.585,0.0477146,
2,0,0,1,0,6961.1,0.0465436,0.0461994,-0.474017,4,0.00604941,10,-2.18993e-05,-3.32421,0.515122,0.114536,-2.12714,0.0461994,
2,0,0,0,0,6961.4,0.045045,0.0446868,-0.469607,4,0.00590206,10,-2.09853e-05,-3.32827,0.353778,0.166771,-3.07384,0.0446868,
2,0,0,0,0,6961.7,0.0435468,0.0432107,-0.465192,4,0.005756,10,-2.01013e-05,-3.33237,0.426148,0.13845,-2.52467,0.04321073,
2,0,0,1,0,6962,0.0420483,0.0417342,-0.46395,4,0.00561109,10,-1.93626e-05,-3.33353,0.442313,0.13339,-2.40799,0.0417342,
2,0,0,1,0,6962.3,0.0405504,0.0402786,-0.461356,4,0.00546723,10,-1.85828e-05,-3.33596,0.396654,0.148744,-2.66029,0.0402786,
2,0,0,1,0,6962.6,0.0390526,0.0386864,-0.454917,4,0.00532442,10,-1.75991e-05,-3.34207,0.365532,0.161409,-2.85795,0.0386864,
2,0,0,1,0,6962.9,0.0375541,0.0372629,-0.450279,4,0.00518303,10,-1.67787e-05,-3.34652,0.369164,0.159821,-2.8176,0.0372629,
2,0,0,1,0,6963.2,0.0360559,0.0357433,-0.44704,4,0.00504303,10,-1.59787e-05,-3.34965,0.412786,0.142931,-2.501,0.0357433,
2,0,0,1,0,6963.5,0.0345572,0.0342434,-0.443323,4,0.0049038,10,-1.51809e-05,-3.35328,0.49987,0.118031,-2.04372,0.0342434,
2,0,0,1,0,6963.79,0.0330594,0.0327072,-0.440405,4,0.00476559,10,-1.44044e-05,-3.35615,0.366494,0.160985,-2.76072,0.0327072,
2,0,0,1,0,6964.09,0.0315615,0.0312716,-0.43696,4,0.00462856,10,-1.36645e-05,-3.35956,0.38832,0.151936,-2.59149,0.0312716,
2,0,0,0,0,6964.39,0.0300631,0.0297733,-0.433838,4,0.00449289,10,-1.29168e-05,-3.36267,0.437222,0.134943,-2.28081,0.0297733,
2,0,0,0,0,6964.69,0.0285649,0.0282463,-0.430857,4,0.00435791,10,-1.21701e-05,-3.36567,0.609712,0.0967669,-1.62129,0.0282463,
2,0,0,0,0,6964.99,0.0270667,0.0268009,-0.427369,4,0.00422378,10,-1.14539e-05,-3.3692,0.424325,0.139044,-2.31704,0.0268009,
2,0,0,1,0,6965.29,0.0255683,0.0252312,-0.424796,4,0.00409052,10,-1.07181e-05,-3.37182,0.473831,0.124517,-2.06143,0.0252312,
2,0,0,1,0,6965.59,0.0240706,0.0237269,-0.421184,4,0.00395842,10,-9.9934e-06,-3.37553,0.597125,0.0988068,-1.62917,0.0237269,
2,0,0,1,0,6965.89,0.0225722,0.0222603,-0.417699,4,0.00382694,10,-9.29809e-06,-3.37914,1.49052,0.0395834,-0.6468,0.0222603,
2,0,0,1,0,6966.19,0.021074,0.0207609,-0.416555,4,0.00369612,10,-8.64803e-06,-3.38033,0.826822,0.0713575,-1.16095,0.02076086,
2,0,0,1,0,6966.49,0.0195758,0.0192392,-0.414059,4,0.00356595,10,-7.96616e-06,-3.38294,0.645091,0.0914599,-1.48243,0.0192392,
2,0,0,1,0,6966.79,0.0180774,0.017748,-0.412158,4,0.00343641,10,-7.31501e-06,-3.38494,0.746665,0.079018,-1.27349,0.017748,
2,0,0,1,0,6967.09,0.0165795,0.0163083,-0.411346,4,0.00330745,10,-6.70837e-06,-3.38579,1.5273,0.0386302,-0.62048,0.0163083,
2,0,0,1,0,6967.39,0.0150817,0.0147881,-0.412548,4,0.00317867,10,-6.1008e-06,-3.38453,2.66416,0.0221458,-0.354359,0.0147881,
2,0,0,0,0,6967.69,0.013583,0.0132627,-0.409137,4,0.00305005,10,-5.42627e-06,-3.38813,0.897233,0.0657577,-1.04936,0.0132627,
2,0,0,0,0,6967.99,0.0120848,0.0117919,-0.40765,4,0.00292191,10,-4.80699e-06,-3.38971,3.56067,0.0165699,-0.264561,0.0117919,
2,0,0,1,0,6968.29,0.0105863,0.0102752,-0.407424,4,0.00279417,10,-4.18636e-06,-3.38995,4.43805,0.0132941,-0.212236,0.0102752,
2,0,0,1,0,6968.59,0.00908846,0.00877184,-0.408277,4,0.00266626,10,-3.58134e-06,-3.38904,-7.62626,-0.00773643,0.123201,0.00877184,
2,0,0,1,0,6968.89,0.0075906,0.00727602,-0.407906,4,0.00253836,10,-2.96793e-06,-3.38944,2.50271,0.0235744,-0.375092,0.00727602,
2,0,0,1,0,6969.19,0.00609208,0.0057402,-0.409174,4,0.00241048,10,-2.34874e-06,-3.38809,94.6826,0.000623134,-0.00994618,0.0057402,
2,0,0,1,0,6969.49,0.00459389,0.00426412,-0.409264,4,0.00228277,10,-1.74515e-06,-3.388,-1.81643,-0.0324813,0.517228,0.00426412,
2,0,0,1,0,6969.79,0.00309525,0.00277596,-0.410462,4,0.0021544,10,-1.13943e-06,-3.38673,-0.827823,-0.0712712,1.13858,0.00277596,
2,0,0,1,0,6970.09,0.00159739,0.00125465,-0.412755,4,0.00202385,10,-5.17863e-07,-3.38431, , , ,0.00125465,
2,0,0,0,0,6970.37,0.000199195,-0.000168808,-0.41268,4,0.00190322,10,6.96634e-08,-3.38439, , , ,-0.000168808,