File: Figure_codes/Fig_3-5/rawdata_trumpetplot_data/after 10th/20221101_1-115_003_TrumpetPlot_ParaChange_from10_every3_11_CV_C01_6.csv
mode,ox/red,error,control changes,counter inc.,time/s,control/V,Ewe/V,<I>/mA,cycle number,(Q-Qo)/C,I Range,P/W,log(|I|),Tafel slope mV/dec,alpha_eff,dI/d(E-IR),E-IR/V,
2,1,0,1,0,13015.3,2.44065e-05,-0.000344411,9.93337,7,0.0000000E+000,10,-3.42116e-06,-2.0029, , , ,-0.000344411,
2,1,0,1,0,13015.3,0.00214129,0.00176474,11.187,7,5.44049e-05,10,1.97421e-05,-1.95129, , , ,0.00176474,
2,1,0,1,0,13015.3,0.00454949,0.00423549,12.2639,7,0.000125036,10,5.19434e-05,-1.91137,0.0696749,0.84679,396.82,0.00423549,
2,1,0,1,0,13015.3,0.0069466,0.00656838,13.092,7,0.000201239,10,8.59931e-05,-1.88299,0.0911014,0.64763,327.361,0.00656838,
2,1,0,1,0,13015.3,0.0093437,0.00901792,13.8087,7,0.000282055,10,0.000124526,-1.85985,0.110963,0.531708,284.651,0.00901792,
2,1,0,1,0,13015.3,0.0117408,0.0113805,14.4431,7,0.000366896,10,0.00016437,-1.84034,0.131301,0.44935,252.047,0.0113805,
2,1,0,1,0,13015.3,0.0141462,0.0137781,15.019,7,0.000455394,10,0.000206933,-1.82336,0.152016,0.388117,226.425,0.0137781,
2,1,0,1,0,13015.3,0.0165433,0.0162488,15.5272,7,0.000547111,10,0.000252299,-1.80891,0.177574,0.332255,200.638,0.01624883,
2,1,0,1,0,13015.4,0.0189404,0.0186231,15.9766,7,0.000641699,10,0.000297533,-1.79652,0.196727,0.299907,186.71,0.0186231,
2,1,0,1,0,13015.4,0.0213486,0.0210366,16.4213,7,0.000738952,10,0.000345447,-1.78459,0.222405,0.265282,169.504,0.0210366,
2,1,0,1,0,13015.4,0.0237457,0.0234607,16.8069,7,0.00083871,10,0.0003943,-1.77451,0.246556,0.239297,156.645,0.0234607,
2,1,0,1,0,13015.4,0.0261429,0.0258285,17.1634,7,0.000940655,10,0.000443306,-1.7654,0.262431,0.224821,150.57,0.0258285,
2,1,0,1,0,13015.4,0.02854,0.0281985,17.5129,7,0.00104474,10,0.000493837,-1.75664,0.281269,0.209763,143.227,0.02819855,
2,1,0,1,0,13015.4,0.0309482,0.0306014,17.8529,7,0.00115092,10,0.000546323,-1.74829,0.304382,0.193835,134.854,0.0306014,
2,1,0,1,0,13015.4,0.0333453,0.0329492,18.149,7,0.00125897,10,0.000597993,-1.74115,0.326511,0.180698,128.027,0.0329492,
2,1,0,1,0,13015.4,0.0357424,0.0354157,18.4681,7,0.00136884,10,0.000654062,-1.73358,0.33479,0.17623,126.936,0.0354157,
2,1,0,1,0,13015.4,0.0381478,0.0377624,18.7611,7,0.00148056,10,0.000708463,-1.72674,0.34694,0.170058,124.433,0.0377624,
2,1,0,1,0,13015.4,0.0405449,0.0401939,19.044,7,0.00159403,10,0.000765452,-1.72024,0.365826,0.161279,119.898,0.0401939,
2,1,0,1,0,13015.4,0.042942,0.0426021,19.3324,7,0.00170922,10,0.0008236,-1.71371,0.362368,0.162818,122.888,0.0426021,
2,1,0,1,0,13015.4,0.0453391,0.0450071,19.6211,7,0.00182614,10,0.000883086,-1.70728,0.375503,0.157122,120.309,0.0450071,
2,1,0,1,0,13015.4,0.0477473,0.0473696,19.9129,7,0.00194481,10,0.000943266,-1.70087,0.390452,0.151107,117.37,0.0473696,
2,1,0,1,0,13015.4,0.0501444,0.0498255,20.1867,7,0.00206515,10,0.00100581,-1.69494,0.396496,0.148803,117.307,0.0498255,
2,1,0,1,0,13015.4,0.0525415,0.0521987,20.48,7,0.00218717,10,0.00106903,-1.68867,0.388731,0.151776,121.347,0.05219873,
2,1,0,1,0,13015.4,0.0549469,0.0545878,20.7821,7,0.00231098,10,0.00113445,-1.68231,0.405322,0.145563,117.923,0.05458783,
2,1,0,1,0,13015.4,0.057344,0.0569939,21.0523,7,0.00243653,10,0.00119985,-1.6767,0.405525,0.14549,119.601,0.0569939,
2,1,0,1,0,13015.5,0.0597411,0.0594137,21.3455,7,0.00256374,10,0.00126822,-1.67069,0.39652,0.148795,124.029,0.0594137,
2,1,0,1,0,13015.5,0.0621438,0.0618325,21.6516,7,0.00269276,10,0.00133877,-1.66451,0.400143,0.147447,124.519,0.0618325,
2,1,0,1,0,13015.5,0.0645465,0.0641898,21.9359,7,0.00282357,10,0.00140806,-1.65885,0.405269,0.145582,124.683,0.0641898,
2,1,0,1,0,13015.5,0.0669436,0.0665768,22.2428,7,0.00295614,10,0.00148085,-1.65281,0.400848,0.147188,127.772,0.0665768,
2,1,0,1,0,13015.5,0.0693407,0.0690189,22.556,7,0.00309059,10,0.00155679,-1.64674,0.403981,0.146046,128.504,0.0690189,
2,1,0,1,0,13015.5,0.0717489,0.0714112,22.8653,7,0.00322688,10,0.00163284,-1.64082,0.421595,0.139945,124.834,0.0714112,
2,1,0,1,0,13015.5,0.074146,0.0738109,23.1607,7,0.00336497,10,0.00170951,-1.63525,0.423295,0.139383,125.998,0.0738109,
2,1,0,1,0,13015.5,0.0765431,0.0761766,23.4624,7,0.00350486,10,0.00178729,-1.62963,0.427992,0.137853,126.227,0.0761766,
2,1,0,1,0,13015.5,0.0789485,0.0785912,23.7758,7,0.00364657,10,0.00186856,-1.62387,0.445455,0.132449,122.79,0.0785912,
2,1,0,1,0,13015.5,0.0813456,0.0809941,24.0636,7,0.00379012,10,0.00194901,-1.61864,0.443345,0.133079,124.972,0.08099407,
2,1,0,1,0,13015.5,0.0837427,0.0833641,24.3553,7,0.00393535,10,0.00203036,-1.61341,0.432868,0.1363,129.659,0.0833641,
2,1,0,1,0,13015.5,0.0861398,0.0857966,24.6834,7,0.00408251,10,0.00211776,-1.60759,0.424461,0.139,133.805,0.0857966,
2,1,0,1,0,13015.5,0.088548,0.0881465,25.0018,7,0.00423161,10,0.00220382,-1.60203,0.439017,0.134391,131.086,0.0881465,
2,1,0,1,0,13015.5,0.0909451,0.0905738,25.3029,7,0.00438253,10,0.00229178,-1.59683,0.457406,0.128988,127.402,0.09057378,
2,1,0,1,0,13015.5,0.0933422,0.0930456,25.6207,7,0.00453536,10,0.0023839,-1.59141,0.468231,0.126006,125.89,0.0930456,
2,1,0,1,0,13015.5,0.0957477,0.0954209,25.9169,7,0.00469,10,0.00247301,-1.58642,0.488967,0.120662,122.004,0.09542089,
2,1,0,1,0,13015.5,0.0981447,0.0978344,26.2044,7,0.00484638,10,0.00256369,-1.58163,0.494043,0.119423,122.128,0.0978344,
2,1,0,1,0,13015.6,0.100542,0.100208,26.5039,7,0.00500454,10,0.00265589,-1.57669,0.493551,0.119542,123.656,0.100208,
2,1,0,1,0,13015.6,0.102939,0.102612,26.7952,7,0.00516447,10,0.0027495,-1.57194,0.499427,0.118135,123.549,0.102612,
2,1,0,1,0,13015.6,0.105347,0.105002,27.0987,7,0.0053262,10,0.00284541,-1.56705,0.512138,0.115203,121.803,0.105002,
2,1,0,1,0,13015.6,0.107744,0.107406,27.3865,7,0.00548968,10,0.00294146,-1.56246,0.503576,0.117162,125.26,0.107406,
2,1,0,1,0,13015.6,0.110141,0.109788,27.6877,7,0.00565494,10,0.00303979,-1.55771,0.499962,0.118009,127.558,0.109788,
2,1,0,1,0,13015.6,0.11255,0.112281,28.0071,7,0.00582204,10,0.00314468,-1.55273,0.496604,0.118807,129.85,0.112281,
2,1,0,1,0,13015.6,0.114947,0.114618,28.3108,7,0.00599101,10,0.00324494,-1.54805,0.474496,0.124342,137.476,0.1146185,
2,1,0,1,0,13015.6,0.117344,0.11702,28.6511,7,0.00616192,10,0.00335276,-1.54286,0.470264,0.125461,140.316,0.11702,
2,1,0,1,0,13015.6,0.119744,0.119394,28.9961,7,0.00633491,10,0.00346195,-1.53766,0.464501,0.127018,143.736,0.119394,
2,1,0,1,0,13015.6,0.122146,0.121782,29.3406,7,0.00650997,10,0.00357315,-1.53253,0.441681,0.13358,153.104,0.121782,
2,1,0,1,0,13015.6,0.124543,0.124218,29.7235,7,0.00668719,10,0.0036922,-1.5269,0.43199,0.136577,158.463,0.124218,
2,1,0,1,0,13015.6,0.126941,0.126612,30.114,7,0.00686677,10,0.00381278,-1.52123,0.4198,0.140543,165.222,0.126612,
2,1,0,1,0,13015.6,0.129349,0.129012,30.5203,7,0.00704867,10,0.0039375,-1.51541,0.410417,0.143756,171.318,0.129012,
2,1,0,1,0,13015.6,0.131746,0.13141,30.9439,7,0.00723308,10,0.00406634,-1.50942,0.400434,0.14734,177.925,0.13141,
2,1,0,1,0,13015.6,0.134143,0.133795,31.3718,7,0.00742007,10,0.00419739,-1.50346,0.40212,0.146722,179.641,0.133795,
2,1,0,1,0,13015.6,0.13654,0.136233,31.8013,7,0.00760962,10,0.00433238,-1.49755,0.398752,0.147962,183.687,0.136233,
2,1,0,1,0,13015.7,0.138945,0.138648,32.2519,7,0.00780184,10,0.00447167,-1.49145,0.397361,0.14848,186.845,0.138648,
2,1,0,1,0,13015.7,0.141343,0.141024,32.6923,7,0.00799672,10,0.00461039,-1.48555,0.408538,0.144417,184.249,0.141024,
2,1,0,1,0,13015.7,0.14374,0.143397,33.1402,7,0.00819428,10,0.0047522,-1.47964,0.419249,0.140728,181.917,0.143397,
2,1,0,1,0,13015.7,0.146148,0.145836,33.5766,7,0.0083945,10,0.00489667,-1.47396,0.426473,0.138344,181.237,0.1458358,
2,1,0,1,0,13015.7,0.148545,0.148171,34.0076,7,0.00859726,10,0.00503893,-1.46842,0.45203,0.130522,173.155,0.148171,
2,1,0,1,0,13015.7,0.150942,0.150646,34.4165,7,0.0088026,10,0.00518471,-1.46323,0.459992,0.128263,172.201,0.150646,
2,1,0,1,0,13015.7,0.153345,0.152992,34.8104,7,0.00901033,10,0.00532573,-1.45829,0.489143,0.120619,163.861,0.152992,
2,1,0,1,0,13015.7,0.155747,0.155429,35.2165,7,0.00922046,10,0.00547368,-1.45325,0.514423,0.114692,157.491,0.1554293,
2,1,0,1,0,13015.7,0.158144,0.157854,35.5856,7,0.0094329,10,0.00561734,-1.44873,0.560936,0.105181,145.925,0.157854,
2,1,0,1,0,13015.7,0.160542,0.160189,35.909,7,0.00964739,10,0.00575224,-1.4448,0.606739,0.0972412,136.229,0.160189,
2,1,0,1,0,13015.7,0.162947,0.162618,36.2276,7,0.00986387,10,0.00589126,-1.44096,0.662643,0.0890374,125.77,0.162618,
2,1,0,1,0,13015.7,0.165344,0.165048,36.5178,7,0.0100822,10,0.0060272,-1.4375,0.768264,0.0767966,109.328,0.165048,
2,1,0,1,0,13015.7,0.167741,0.16739,36.7565,7,0.010302,10,0.00615266,-1.43467,0.923349,0.0638978,91.5764,0.16739,
2,1,0,1,0,13015.7,0.170149,0.169848,36.9649,7,0.0105232,10,0.00627841,-1.43221,1.24809,0.0472723,68.0775,0.169848,
2,1,0,1,0,13015.7,0.172547,0.172235,37.095,7,0.0107455,10,0.00638904,-1.43069,2.15048,0.0274358,39.6382,0.172235,
2,1,0,1,0,13015.7,0.174944,0.174624,37.1574,7,0.0109682,10,0.00648856,-1.42995,17.7317,0.00332737,4.81427,0.174624,
2,1,0,1,0,13015.7,0.177341,0.176988,37.1128,7,0.0111911,10,0.00656853,-1.43048,-2.64015,-0.0223472,-32.3026,0.176988,
2,1,0,1,0,13015.8,0.179746,0.179392,36.9968,7,0.0114134,10,0.00663695,-1.43184,-1.12074,-0.0526436,-75.7936,0.179392,
2,1,0,1,0,13015.8,0.182143,0.181906,36.7586,7,0.0116347,10,0.00668659,-1.43464,-0.657545,-0.0897278,-128.293,0.181906,
2,1,0,1,0,13015.8,0.18454,0.184238,36.3773,7,0.0118542,10,0.00670209,-1.43917,-0.469669,-0.125621,-177.832,0.1842384,
2,1,0,1,0,13015.8,0.186949,0.186625,35.8898,7,0.012071,10,0.00669794,-1.44503,-0.356457,-0.165518,-231.108,0.186625,
2,1,0,1,0,13015.8,0.189346,0.189017,35.2711,7,0.0122845,10,0.00666683,-1.45258,-0.285479,-0.20667,-283.446,0.189017,
2,1,0,1,0,13015.8,0.191743,0.191416,34.5142,7,0.0124938,10,0.00660657,-1.462,-0.23976,-0.24608,-330.56,0.191416,
2,1,0,1,0,13015.8,0.19414,0.193815,33.6577,7,0.0126983,10,0.00652336,-1.47292,-0.20821,-0.283368,-371.305,0.193815,
2,1,0,1,0,13015.8,0.196548,0.196249,32.7295,7,0.0128975,10,0.00642312,-1.48506,-0.184726,-0.319392,-406.784,0.196249,
2,1,0,1,0,13015.8,0.198945,0.198656,31.7065,7,0.0130907,10,0.00629869,-1.49885,-0.167234,-0.352799,-435.748,0.198656,
2,1,0,1,0,13015.8,0.201342,0.201007,30.6383,7,0.0132776,10,0.00615849,-1.51374,-0.1586,-0.372006,-444.476,0.201007,
2,1,0,1,0,13015.8,0.203748,0.203397,29.5738,7,0.0134582,10,0.00601521,-1.52909,-0.153139,-0.385272,-444.436,0.203397,
2,1,0,1,0,13015.8,0.206145,0.205823,28.5116,7,0.0136323,10,0.00586834,-1.54498,-0.150921,-0.390934,-435.053,0.205823,
2,1,0,1,0,13015.8,0.208542,0.208242,27.4781,7,0.0138002,10,0.00572208,-1.56101,-0.151062,-0.390567,-419.13,0.208242,
2,1,0,1,0,13015.8,0.210939,0.210603,26.4752,7,0.0139619,10,0.00557576,-1.57716,-0.153093,-0.385386,-398.899,0.2106033,
2,1,0,1,0,13015.8,0.213347,0.213041,25.5565,7,0.0141179,10,0.0054446,-1.5925,-0.156692,-0.376535,-375.883,0.213041,
2,1,0,1,0,13015.8,0.215744,0.215372,24.6784,7,0.0142685,10,0.00531503,-1.60768,-0.162199,-0.36375,-350.843,0.215372,
2,1,0,1,0,13015.8,0.218141,0.217815,23.8566,7,0.014414,10,0.00519632,-1.62239,-0.171857,-0.343309,-320.545,0.217815,
2,1,0,1,0,13015.9,0.220547,0.220248,23.1351,7,0.0145549,10,0.00509545,-1.63573,-0.180131,-0.327539,-296.029,0.2202477,
2,1,0,1,0,13015.9,0.222944,0.222586,22.4479,7,0.0146916,10,0.00499658,-1.64882,-0.18976,-0.310918,-272.834,0.222586,
2,1,0,1,0,13015.9,0.225341,0.225046,21.811,7,0.0148242,10,0.00490848,-1.66132,-0.20535,-0.287315,-245.297,0.225046,
2,1,0,1,0,13015.9,0.227744,0.227466,21.264,7,0.0149534,10,0.00483683,-1.67236,-0.217505,-0.271258,-225.441,0.227466,
2,1,0,1,0,13015.9,0.230146,0.229841,20.7547,7,0.0150794,10,0.00477029,-1.68288,-0.234808,-0.251269,-203.751,0.2298412,
2,1,0,1,0,13015.9,0.232543,0.23221,20.2789,7,0.0152024,10,0.00470897,-1.69296,-0.249125,-0.236829,-187.708,0.23221,
2,1,0,1,0,13015.9,0.234941,0.23461,19.8526,7,0.0153227,10,0.00465763,-1.70218,-0.272322,-0.216655,-168.153,0.23461,
2,1,0,1,0,13015.9,0.237349,0.237031,19.4732,7,0.0154406,10,0.00461574,-1.71056,-0.290269,-0.20326,-154.567,0.237031,
2,1,0,1,0,13015.9,0.239746,0.239449,19.1161,7,0.0155564,10,0.00457733,-1.7186,-0.303381,-0.194475,-145.189,0.2394485,
2,1,0,1,0,13015.9,0.242143,0.24182,18.7697,7,0.01567,10,0.00453887,-1.72654,-0.331422,-0.178021,-130.728,0.24182,
2,1,0,1,0,13015.9,0.244548,0.24425,18.4938,7,0.0157817,10,0.0045171,-1.73297,-0.35678,-0.165368,-119.448,0.24425,
2,1,0,1,0,13015.9,0.246946,0.246618,18.2192,7,0.0158918,10,0.00449318,-1.73947,-0.377862,-0.156142,-111.003,0.246618,
2,1,0,1,0,13015.9,0.249343,0.248974,17.9472,7,0.0160003,10,0.0044684,-1.746,-0.394728,-0.14947,-104.894,0.248974,
2,1,0,1,0,13015.9,0.25174,0.251468,17.7207,7,0.0161072,10,0.0044562,-1.75152,-0.445947,-0.132303,-91.567,0.251468,
2,1,0,1,0,13015.9,0.254148,0.253831,17.5164,7,0.0162129,10,0.00444619,-1.75656,-0.461087,-0.127959,-87.4338,0.253831,
2,1,0,1,0,13015.9,0.256545,0.256247,17.2886,7,0.0163173,10,0.00443016,-1.76224,-0.475731,-0.12402,-83.8013,0.256247,
2,1,0,1,0,13016,0.258942,0.258607,17.1046,7,0.0164205,10,0.00442337,-1.76689,-0.530847,-0.111143,-74.2561,0.258607,
2,1,0,1,0,13016,0.261348,0.261069,16.9408,7,0.0165226,10,0.00442272,-1.77107,-0.54103,-0.109051,-72.086,0.261069,
2,1,0,1,0,13016,0.263745,0.263419,16.7651,7,0.0166237,10,0.00441625,-1.77559,-0.563506,-0.104702,-68.5299,0.263419,
2,1,0,1,0,13016,0.266142,0.265822,16.5975,7,0.0167237,10,0.00441199,-1.77996,-0.600865,-0.0981917,-63.6887,0.265822,
2,1,0,1,0,13016,0.268539,0.268222,16.4531,7,0.0168229,10,0.00441307,-1.78375,-0.662201,-0.0890968,-57.2447,0.268222,
2,1,0,1,0,13016,0.270947,0.270642,16.3215,7,0.0169212,10,0.00441728,-1.78724,-0.655728,-0.0899763,-57.2802,0.270642,
2,1,0,1,0,13016,0.273344,0.272989,16.1834,7,0.0170187,10,0.00441789,-1.79093,-0.650931,-0.0906395,-57.2701,0.272989,
2,1,0,1,0,13016,0.275741,0.275417,16.0527,7,0.0171154,10,0.00442119,-1.79445,-0.731457,-0.080661,-50.5712,0.275417,
2,1,0,1,0,13016,0.278149,0.277796,15.9457,7,0.0172114,10,0.00442966,-1.79736,-0.748745,-0.0787985,-48.9998,0.277796,
2,1,0,1,0,13016,0.280547,0.280223,15.8127,7,0.0173066,10,0.0044311,-1.80099,-0.763821,-0.0772432,-47.7028,0.280223,
2,1,0,1,0,13016,0.282944,0.282619,15.6952,7,0.0174011,10,0.00443575,-1.80423,-0.838003,-0.0704054,-43.2013,0.282619,
2,1,0,1,0,13016,0.285344,0.285044,15.5993,7,0.017495,10,0.00444648,-1.8069,-0.854786,-0.0690231,-42.0117,0.285044,
2,1,0,1,0,13016,0.287746,0.28742,15.4962,7,0.0175884,10,0.00445393,-1.80977,-0.819404,-0.0720035,-43.5583,0.28742,
2,1,0,1,0,13016,0.290143,0.289845,15.3918,7,0.017681,10,0.00446124,-1.81271,-0.844291,-0.0698811,-41.988,0.289845,
2,1,0,1,0,13016,0.29254,0.292239,15.2944,7,0.0177731,10,0.00446963,-1.81547,-0.900941,-0.0654871,-39.1091,0.292239,
2,1,0,1,0,13016,0.294949,0.294596,15.2131,7,0.0178646,10,0.00448171,-1.81778,-0.905042,-0.0651904,-38.6852,0.294596,
2,1,0,1,0,13016,0.297346,0.297021,15.1182,7,0.0179556,10,0.00449043,-1.8205,-0.931837,-0.0633158,-37.3948,0.297021,
2,1,0,1,0,13016.1,0.299621,0.299311,15.0263,7,0.0180415,10,0.00449753,-1.82315,-0.0752708,-0.783837,-442.58,0.299311,
2,1,0,1,0,13016.1,0.299962,0.299708,14.8906,7,0.0180595,10,0.00446284,-1.82709,0.00890003,6.62919,3125.93,0.299708,
2,1,0,1,0,13016.1,0.297903,0.297673,10.7668,7,0.0181233,10,0.00320498,-1.96791,0.0141775,4.16153,1651.52,0.297673,
2,1,0,1,0,13016.1,0.295506,0.295263,7.40702,7,0.0181771,10,0.00218702,-2.13036,0.0138924,4.24692,1236.63,0.295263,
2,1,0,1,0,13016.1,0.293101,0.292791,4.86936,7,0.0182133,10,0.0014257,-2.31253,0.0114574,5.14952,950.249,0.292791,
2,1,0,1,0,13016.1,0.290704,0.290393,2.88847,7,0.0182362,10,0.000838791,-2.53933,0.00757542,7.78834,758.83,0.290393,
2,1,0,1,0,13016.1,0.288307,0.288025,1.28069,7,0.0182484,10,0.00036887,-2.89256,0.0069169,8.52983,617.317,0.288025,
2,1,0,1,0,13016.1,0.28591,0.285616,-0.0276284,7,0.0182519,10,-7.89114e-06,-4.55864,0.0693143,0.851196,501.104,0.285616,
2,0,0,1,0,13016.1,0.283501,0.283237,-1.11924,7,0.0182483,10,-0.000317009,-2.95108,-0.00815401,-7.23571,419.776,0.283237,
2,0,0,1,0,13016.1,0.281104,0.28082,-2.03745,7,0.0182387,10,-0.000572158,-2.69091,-0.0107999,-5.46302,354.065,0.28082,
2,0,0,1,0,13016.1,0.278707,0.2784,-2.80716,7,0.018224,10,-0.000781514,-2.55173,-0.0196988,-2.99511,302.798,0.2784,
2,0,0,1,0,13016.1,0.276302,0.276022,-3.47669,7,0.018205,10,-0.000959642,-2.45883,-0.029694,-1.98693,257.813,0.2760219,
2,0,0,1,0,13016.1,0.273905,0.273588,-4.04675,7,0.0181824,10,-0.00110714,-2.39289,-0.0405082,-1.4565,224.347,0.273588,
2,0,0,1,0,13016.1,0.271508,0.27123,-4.55455,7,0.0181565,10,-0.00123533,-2.34155,-0.051386,-1.14817,200.51,0.27123,
2,0,0,1,0,13016.1,0.269105,0.268773,-5.01225,7,0.0181277,10,-0.00134716,-2.29997,-0.0640981,-0.920464,177.169,0.268773,
2,0,0,1,0,13016.1,0.266702,0.266393,-5.39097,7,0.0180964,10,-0.00143612,-2.26833,-0.0783978,-0.752572,157.164,0.266393,
2,0,0,1,0,13016.1,0.264305,0.264026,-5.75799,7,0.0180629,10,-0.00152026,-2.23973,-0.0921995,-0.639917,142.693,0.264026,
2,0,0,1,0,13016.1,0.261908,0.261616,-6.08597,7,0.0180274,10,-0.00159219,-2.21567,-0.108092,-0.545834,128.812,0.261616,
2,0,0,1,0,13016.2,0.2595,0.259189,-6.38039,7,0.0179899,10,-0.00165373,-2.19515,-0.123022,-0.479589,118.991,0.259189,
2,0,0,1,0,13016.2,0.257103,0.256831,-6.65536,7,0.0179508,10,-0.0017093,-2.17683,-0.14115,-0.417994,108.148,0.256831,
2,0,0,1,0,13016.2,0.254706,0.25439,-6.90497,7,0.0179101,10,-0.00175655,-2.16084,-0.154902,-0.380886,102.284,0.25439,
2,0,0,1,0,13016.2,0.2523,0.25197,-7.13921,7,0.0178679,10,-0.00179886,-2.14635,-0.17246,-0.342109,95.0975,0.25197,
2,0,0,1,0,13016.2,0.249903,0.2496,-7.35436,7,0.0178244,10,-0.00183565,-2.13345,-0.191854,-0.307525,88.1268,0.2496,
2,0,0,1,0,13016.2,0.247506,0.247181,-7.56711,7,0.0177797,10,-0.00187045,-2.12107,-0.205316,-0.287361,84.6658,0.247181,
2,0,0,1,0,13016.2,0.245109,0.244823,-7.75658,7,0.0177337,10,-0.00189899,-2.11033,-0.224158,-0.263207,79.5101,0.244823,
2,0,0,1,0,13016.2,0.242701,0.242408,-7.95209,7,0.0176865,10,-0.00192765,-2.09952,-0.243592,-0.242208,74.9959,0.2424081,
2,0,0,1,0,13016.2,0.240304,0.239994,-8.12184,7,0.0176383,10,-0.00194919,-2.09035,-0.260509,-0.226479,71.7368,0.239994,
2,0,0,1,0,13016.2,0.237906,0.237617,-8.29269,7,0.0175891,10,-0.00197048,-2.0813,-0.281751,-0.209405,67.6244,0.237617,
2,0,0,1,0,13016.2,0.235501,0.235155,-8.45413,7,0.0175388,10,-0.00198803,-2.07293,-0.296005,-0.199321,65.7127,0.2351549,
2,0,0,1,0,13016.2,0.233104,0.232753,-8.61109,7,0.0174876,10,-0.00200426,-2.06494,-0.30312,-0.194642,65.3317,0.232753,
2,0,0,1,0,13016.2,0.230707,0.230372,-8.76339,7,0.0174355,10,-0.00201884,-2.05733,-0.319649,-0.184577,63.044,0.230372,
2,0,0,1,0,13016.2,0.22831,0.228019,-8.89066,7,0.0173825,10,-0.00202724,-2.05107,-0.340925,-0.173058,60.1325,0.228019,
2,0,0,1,0,13016.2,0.225902,0.225613,-9.04486,7,0.0173286,10,-0.00204064,-2.0436,-0.352905,-0.167184,58.9702,0.225613,
2,0,0,1,0,13016.2,0.223504,0.223172,-9.19023,7,0.0172739,10,-0.00205101,-2.03667,-0.382829,-0.154116,55.2045,0.223172,
2,0,0,1,0,13016.3,0.221107,0.220839,-9.31154,7,0.0172184,10,-0.00205635,-2.03098,-0.385077,-0.153216,55.741,0.220839,
2,0,0,1,0,13016.3,0.218699,0.21837,-9.46514,7,0.0171621,10,-0.0020669,-2.02387,-0.394583,-0.149525,55.1547,0.21837,
2,0,0,1,0,13016.3,0.216302,0.215997,-9.58669,7,0.0171049,10,-0.00207069,-2.01833,-0.407157,-0.144907,54.207,0.215997,
2,0,0,1,0,13016.3,0.213905,0.213593,-9.7216,7,0.017047,10,-0.00207646,-2.01226,-0.42266,-0.139592,52.9497,0.213593,
2,0,0,1,0,13016.3,0.211505,0.211231,-9.83877,7,0.0169883,10,-0.00207825,-2.00706,-0.435301,-0.135538,52.0629,0.211231,
2,0,0,1,0,13016.3,0.209102,0.208791,-9.96337,7,0.0169289,10,-0.00208026,-2.00159,-0.410909,-0.143584,55.8897,0.208791,
2,0,0,1,0,13016.3,0.206705,0.206393,-10.1051,7,0.0168687,10,-0.00208563,-1.99546,-0.433022,-0.136252,53.6438,0.206393,
2,0,0,1,0,13016.3,0.204308,0.203974,-10.2238,7,0.0168076,10,-0.00208538,-1.99039,-0.447189,-0.131935,52.6225,0.203974,
2,0,0,1,0,13016.3,0.2019,0.201587,-10.3499,7,0.0167459,10,-0.0020864,-1.98506,-0.452186,-0.130477,52.7197,0.201587,
2,0,0,1,0,13016.3,0.199503,0.1992,-10.4823,7,0.0166834,10,-0.00208807,-1.97954,-0.458212,-0.128761,52.5961,0.1992,
2,0,0,1,0,13016.3,0.197106,0.196761,-10.5948,7,0.0166202,10,-0.00208464,-1.97491,-0.456457,-0.129257,53.4946,0.196761,
2,0,0,1,0,13016.3,0.194709,0.194395,-10.7202,7,0.0165562,10,-0.00208395,-1.9698,-0.469112,-0.125769,52.6969,0.194395,
2,0,0,1,0,13016.3,0.192303,0.191976,-10.8639,7,0.0164914,10,-0.00208561,-1.96401,-0.445026,-0.132577,56.1494,0.1919762,
2,0,0,1,0,13016.3,0.189906,0.189573,-10.9955,7,0.0164259,10,-0.00208446,-1.95878,-0.471065,-0.125248,53.7428,0.189573,
2,0,0,1,0,13016.3,0.187509,0.187213,-11.1166,7,0.0163595,10,-0.00208118,-1.95403,-0.450862,-0.130861,56.8277,0.187213,
2,0,0,1,0,13016.3,0.185101,0.184779,-11.2659,7,0.0162924,10,-0.0020817,-1.94824,-0.420967,-0.140153,61.5927,0.184779,
2,0,0,1,0,13016.3,0.182704,0.182399,-11.4077,7,0.0162244,10,-0.00208075,-1.9428,-0.435346,-0.135524,60.3252,0.1823986,
2,0,0,1,0,13016.4,0.180307,0.180028,-11.5494,7,0.0161555,10,-0.00207921,-1.93744,-0.419538,-0.140631,63.4234,0.180028,
2,0,0,1,0,13016.4,0.177904,0.177592,-11.6975,7,0.0160857,10,-0.00207737,-1.93191,-0.409271,-0.144159,65.8766,0.177592,
2,0,0,1,0,13016.4,0.175501,0.175183,-11.8733,7,0.016015,10,-0.00207999,-1.92543,-0.399321,-0.147751,68.4456,0.175183,
2,0,0,1,0,13016.4,0.173104,0.17285,-12.0373,7,0.0159432,10,-0.00208065,-1.91947,-0.399502,-0.147684,69.3596,0.17285,
2,0,0,1,0,13016.4,0.170707,0.170398,-12.1992,7,0.0158705,10,-0.00207872,-1.91367,-0.370697,-0.15916,75.9536,0.170398,
2,0,0,1,0,13016.4,0.168302,0.167971,-12.4079,7,0.0157967,10,-0.00208416,-1.9063,-0.348382,-0.169354,81.975,0.167971,
2,0,0,1,0,13016.4,0.165905,0.165551,-12.6084,7,0.0157217,10,-0.00208733,-1.89934,-0.340441,-0.173305,85.2567,0.165551,
2,0,0,1,0,13016.4,0.163507,0.163217,-12.8026,7,0.0156454,10,-0.0020896,-1.8927,-0.31771,-0.185704,93.0413,0.163217,
2,0,0,1,0,13016.4,0.161099,0.160741,-13.0552,7,0.0155679,10,-0.0020985,-1.88422,-0.297084,-0.198597,101.195,0.160741,
2,0,0,1,0,13016.4,0.158702,0.158383,-13.2998,7,0.0154888,10,-0.00210646,-1.87615,-0.27618,-0.213629,110.94,0.158383,
2,0,0,1,0,13016.4,0.156305,0.156018,-13.565,7,0.0154082,10,-0.00211638,-1.86758,-0.264269,-0.223257,118.457,0.156018,
2,0,0,1,0,13016.4,0.153908,0.153588,-13.8578,7,0.0153259,10,-0.0021284,-1.8583,-0.24553,-0.240296,130.203,0.153588,
2,0,0,1,0,13016.4,0.151503,0.15116,-14.1936,7,0.0152417,10,-0.00214551,-1.84791,-0.231764,-0.254569,141.204,0.15116,
2,0,0,1,0,13016.4,0.149105,0.148745,-14.5451,7,0.0151554,10,-0.0021635,-1.83728,-0.218784,-0.269672,153.267,0.148745,
2,0,0,1,0,13016.4,0.146708,0.146367,-14.9272,7,0.015067,10,-0.00218485,-1.82602,-0.202337,-0.291592,170.345,0.146367,
2,0,0,1,0,13016.4,0.1443,0.143968,-15.3697,7,0.0149761,10,-0.00221275,-1.81333,-0.187402,-0.314831,189.101,0.143968,
2,0,0,1,0,13016.4,0.141903,0.141605,-15.8454,7,0.0148825,10,-0.00224378,-1.8001,-0.178228,-0.331037,204.827,0.1416048,
2,0,0,1,0,13016.5,0.139506,0.13922,-16.3329,7,0.0147859,10,-0.00227386,-1.78694,-0.169565,-0.34795,222.39,0.13922,
2,0,0,1,0,13016.5,0.137109,0.136814,-16.8939,7,0.0146862,10,-0.00231131,-1.77227,-0.158035,-0.373334,246.802,0.136814,
2,0,0,1,0,13016.5,0.134701,0.134409,-17.5121,7,0.0145829,10,-0.00235378,-1.75666,-0.152902,-0.385869,263.973,0.134409,
2,0,0,1,0,13016.5,0.132303,0.132004,-18.1569,7,0.0144758,10,-0.00239678,-1.74096,-0.148335,-0.397747,282.37,0.132004,
2,0,0,1,0,13016.5,0.129906,0.129616,-18.8665,7,0.0143647,10,-0.00244539,-1.72431,-0.145713,-0.404905,298.435,0.129616,
2,0,0,1,0,13016.5,0.127501,0.127211,-19.622,7,0.0142492,10,-0.00249614,-1.70726,-0.143947,-0.409874,313.795,0.127211,
2,0,0,1,0,13016.5,0.125104,0.124759,-20.3921,7,0.0141291,10,-0.00254411,-1.69054,-0.143745,-0.41045,326.692,0.124759,
2,0,0,1,0,13016.5,0.122707,0.122399,-21.1784,7,0.0140043,10,-0.00259221,-1.67411,-0.145562,-0.405327,335.199,0.1223987,
2,0,0,1,0,13016.5,0.12031,0.119997,-22,7,0.0138747,10,-0.00263993,-1.65758,-0.146869,-0.40172,344.805,0.119997,
2,0,0,1,0,13016.5,0.117901,0.117635,-22.8391,7,0.0137401,10,-0.00268668,-1.64132,-0.152986,-0.385656,343.355,0.117635,
2,0,0,1,0,13016.5,0.115504,0.115171,-23.6569,7,0.0136006,10,-0.00272459,-1.62604,-0.157998,-0.373422,344.549,0.115171,
2,0,0,1,0,13016.5,0.113107,0.112827,-24.4779,7,0.0134561,10,-0.00276178,-1.61123,-0.16584,-0.355765,339.562,0.112827,
2,0,0,1,0,13016.5,0.110702,0.110445,-25.3074,7,0.0133066,10,-0.00279507,-1.59675,-0.176836,-0.333643,328.56,0.110445,
2,0,0,1,0,13016.5,0.108305,0.108055,-26.0383,7,0.0131525,10,-0.00281355,-1.58439,-0.18561,-0.317871,323.098,0.108055,
2,0,0,1,0,13016.5,0.105908,0.105703,-26.8118,7,0.0129939,10,-0.00283407,-1.57167,-0.191762,-0.307672,321.968,0.1057026,
2,0,0,1,0,13016.5,0.103505,0.103225,-27.6098,7,0.0128305,10,-0.00285003,-1.55894,-0.206071,-0.286309,307.69,0.103225,
2,0,0,1,0,13016.6,0.101102,0.100829,-28.3115,7,0.0126626,10,-0.00285462,-1.54804,-0.222236,-0.265484,293.023,0.100829,
2,0,0,1,0,13016.6,0.0987052,0.0984218,-29.0084,7,0.0124906,10,-0.00285506,-1.53748,-0.237777,-0.248132,280.632,0.0984218,
2,0,0,1,0,13016.6,0.0963081,0.0960561,-29.6785,7,0.0123144,10,-0.0028508,-1.52756,-0.253343,-0.232886,269.334,0.0960561,
2,0,0,1,0,13016.6,0.0938999,0.0936394,-30.3092,7,0.0121344,10,-0.00283813,-1.51843,-0.27452,-0.21492,253.801,0.0936394,
2,0,0,1,0,13016.6,0.0915028,0.0912789,-30.8908,7,0.0119508,10,-0.00281968,-1.51017,-0.303312,-0.194519,234.187,0.09127894,
2,0,0,1,0,13016.6,0.0891057,0.0888496,-31.4358,7,0.0117638,10,-0.00279305,-1.50258,-0.325726,-0.181134,221.953,0.0888496,
2,0,0,1,0,13016.6,0.0867002,0.0864255,-31.9477,7,0.0115736,10,-0.00276109,-1.49556,-0.357948,-0.164828,205.199,0.0864255,
2,0,0,1,0,13016.6,0.0843031,0.0840364,-32.4136,7,0.0113804,10,-0.00272392,-1.48927,-0.398694,-0.147983,186.931,0.0840364,
2,0,0,1,0,13016.6,0.081906,0.0816176,-32.8347,7,0.0111846,10,-0.00267989,-1.48367,-0.442484,-0.133338,170.751,0.0816176,
2,0,0,1,0,13016.6,0.0795089,0.0791882,-33.2385,7,0.0109863,10,-0.0026321,-1.47836,-0.503771,-0.117117,151.705,0.0791882,
2,0,0,1,0,13016.6,0.0771007,0.0767991,-33.5897,7,0.0107857,10,-0.00257966,-1.47379,-0.593158,-0.0994675,130.123,0.0767991,
2,0,0,1,0,13016.6,0.0747036,0.0744206,-33.864,7,0.0105834,10,-0.00252018,-1.47026,-0.740477,-0.0796783,105.19,0.0744206,
2,0,0,1,0,13016.6,0.0723065,0.0720273,-34.0971,7,0.0103795,10,-0.00245592,-1.46728,-0.90845,-0.0649458,86.2862,0.0720273,
2,0,0,1,0,13016.6,0.0699011,0.0695756,-34.2877,7,0.0101743,10,-0.00238559,-1.46486,-1.2657,-0.0466144,62.2594,0.0695756,
2,0,0,1,0,13016.6,0.067504,0.0672098,-34.3905,7,0.00996825,10,-0.00231138,-1.46356,-1.89708,-0.0311004,41.6942,0.06720984,
2,0,0,1,0,13016.6,0.0651069,0.0647783,-34.4672,7,0.00976164,10,-0.00223273,-1.46259,-3.5434,-0.0166507,22.3728,0.0647783,
2,0,0,1,0,13016.6,0.0627098,0.0624147,-34.4867,7,0.00955473,10,-0.00215248,-1.46235,-114.003,-0.00051753,0.695785,0.06241468,
2,0,0,1,0,13016.7,0.0603016,0.0599811,-34.4699,7,0.0093478,10,-0.00206754,-1.46256,4.49449,0.0131272,-17.6417,0.0599811,
2,0,0,1,0,13016.7,0.0579045,0.0575983,-34.4007,7,0.00914117,10,-0.00198142,-1.46343,2.35292,0.0250752,-33.6421,0.0575983,
2,0,0,1,0,13016.7,0.0555074,0.0551742,-34.3089,7,0.00893503,10,-0.00189297,-1.46459,1.77105,0.0333135,-44.581,0.0551742,
2,0,0,1,0,13016.7,0.0530992,0.0527576,-34.201,7,0.00872952,10,-0.00180436,-1.46596,1.45569,0.0405306,-54.0423,0.0527576,
2,0,0,1,0,13016.7,0.0507021,0.0503886,-34.0462,7,0.0085248,10,-0.00171554,-1.46793,1.25247,0.0471069,-62.5732,0.0503886,
2,0,0,1,0,13016.7,0.048305,0.0480218,-33.8928,7,0.00832102,10,-0.00162759,-1.46989,1.18155,0.0499345,-66.0395,0.0480218,
2,0,0,1,0,13016.7,0.0459051,0.0455797,-33.7299,7,0.00811818,10,-0.0015374,-1.47198,1.09875,0.0536972,-70.6576,0.0455797,
2,0,0,1,0,13016.7,0.0435024,0.0432097,-33.5496,7,0.00791632,10,-0.00144967,-1.47431,1.07663,0.0548009,-71.7599,0.0432097,
2,0,0,1,0,13016.7,0.0411053,0.0407622,-33.3799,7,0.00771557,10,-0.00136064,-1.47651,1.0908,0.0540888,-70.4832,0.0407622,
2,0,0,1,0,13016.7,0.0387082,0.0383445,-33.2149,7,0.00751579,10,-0.00127361,-1.47867,1.09663,0.0538013,-69.7213,0.0383445,
2,0,0,1,0,13016.7,0.0363,0.0359597,-33.04,7,0.00731702,10,-0.00118811,-1.48096,1.04695,0.056354,-72.6703,0.0359597,
2,0,0,1,0,13016.7,0.0339029,0.0335981,-32.8642,7,0.00711932,10,-0.00110418,-1.48328,1.03215,0.0571623,-73.3185,0.03359814,
2,0,0,1,0,13016.7,0.0315058,0.0311974,-32.7022,7,0.00692264,10,-0.00102022,-1.48542,1.06344,0.0554803,-70.7986,0.03119738,
2,0,0,1,0,13016.7,0.0291087,0.0287341,-32.5156,7,0.00672701,10,-0.000934304,-1.48791,1.03389,0.057066,-72.4359,0.0287341,
2,0,0,1,0,13016.7,0.0267033,0.0264192,-32.3448,7,0.00653239,10,-0.000854523,-1.4902,1.00836,0.0585108,-73.87,0.0264192,
2,0,0,1,0,13016.7,0.0243062,0.0239856,-32.1744,7,0.00633883,10,-0.000771721,-1.49249,0.984973,0.0599001,-75.2106,0.0239856,
2,0,0,1,0,13016.7,0.0219091,0.0215901,-31.9994,7,0.00614633,10,-0.000690871,-1.49486,0.973192,0.0606253,-75.7,0.0215901,
2,0,0,1,0,13016.8,0.0195009,0.0191809,-31.8173,7,0.00595491,10,-0.000610282,-1.49734,0.934022,0.0631677,-78.4035,0.0191809,
2,0,0,1,0,13016.8,0.0171038,0.0167907,-31.6156,7,0.00576465,10,-0.000530848,-1.5001,0.914942,0.064485,-79.5761,0.0167907,
2,0,0,1,0,13016.8,0.0147067,0.0144154,-31.4316,7,0.00557554,10,-0.000453099,-1.50263,0.87677,0.0672925,-82.4907,0.0144154,
2,0,0,1,0,13016.8,0.012304,0.0119828,-31.2241,7,0.00538759,10,-0.000374153,-1.50551,0.811561,0.0726994,-88.5373,0.0119828,
2,0,0,1,0,13016.8,0.00990136,0.00960326,-30.9987,7,0.00520096,10,-0.000297688,-1.50866,0.760019,0.0776296,-93.8969,0.00960326,
2,0,0,1,0,13016.8,0.00750426,0.00718235,-30.772,7,0.00501566,10,-0.000221015,-1.51184,0.704914,0.0836982,-100.441,0.00718235,
2,0,0,1,0,13016.8,0.00510715,0.00483461,-30.5206,7,0.00483178,10,-0.000147555,-1.51541,0.719459,0.0820061,-97.736,0.00483461,
2,0,0,1,0,13016.8,0.00270173,0.00241371,-30.2607,7,0.00464947,10,-7.30405e-05,-1.51912,0.65823,0.0896343,-105.9,0.00241371,
2,0,0,1,0,13016.8,0.000304623,-7.08259e-05,-30.0326,7,0.00446849,10,2.12709e-06,-1.52241,0.609764,0.0967587,-113.216,-7.08259e-05,
2,0,0,1,0,13016.8,-0.00209248,-0.00242281,-29.7245,7,0.00428925,10,7.20168e-05,-1.52689,0.538278,0.109609,-127.113,-0.00242281,
2,0,0,1,0,13016.8,-0.00450068,-0.00489462,-29.4189,7,0.00411188,10,0.000143994,-1.53137,0.509586,0.11578,-132.83,-0.004894617,
2,0,0,1,0,13016.8,-0.00689779,-0.00725826,-29.0971,7,0.0039364,10,0.000211195,-1.53615,0.500547,0.117871,-133.768,-0.00725826,
2,0,0,1,0,13016.8,-0.00929489,-0.00964524,-28.7601,7,0.00376291,10,0.000277398,-1.54121,0.483308,0.122075,-136.994,-0.00964524,
2,0,0,1,0,13016.8,-0.011692,-0.0120661,-28.4276,7,0.00359139,10,0.000343012,-1.54626,0.473317,0.124652,-138.236,-0.01206615,
2,0,0,1,0,13016.8,-0.0140974,-0.0144733,-28.088,7,0.00342186,10,0.000406525,-1.55148,0.468903,0.125825,-137.947,-0.0144733,
2,0,0,1,0,13016.8,-0.0164945,-0.0168295,-27.7553,7,0.00325435,10,0.000467108,-1.55665,0.469383,0.125697,-136.205,-0.0168295,
2,0,0,1,0,13016.9,-0.0188916,-0.0192896,-27.4371,7,0.00308878,10,0.000529253,-1.56166,0.48184,0.122447,-131.164,-0.0192896,
2,0,0,1,0,13016.9,-0.0212998,-0.0216681,-27.1267,7,0.00292515,10,0.000587784,-1.5666,0.500385,0.117909,-124.906,-0.0216681,
2,0,0,1,0,13016.9,-0.0236969,-0.024054,-26.8381,7,0.00276329,10,0.000645565,-1.57125,0.520304,0.113395,-118.773,-0.024054,
2,0,0,1,0,13016.9,-0.026094,-0.0265184,-26.5632,7,0.00260311,10,0.000704414,-1.57572,0.550595,0.107157,-111.138,-0.0265184,
2,0,0,1,0,13016.9,-0.0284912,-0.028828,-26.2895,7,0.00244462,10,0.000757875,-1.58022,0.589896,0.100018,-102.763,-0.028828,
2,0,0,1,0,13016.9,-0.0308994,-0.0312542,-26.0655,7,0.00228758,10,0.000814657,-1.58393,0.659975,0.0893974,-90.9834,-0.03125421,
2,0,0,1,0,13016.9,-0.0332965,-0.0336698,-25.8463,7,0.00213185,10,0.00087024,-1.5876,0.702992,0.083927,-84.7315,-0.0336698,
2,0,0,1,0,13016.9,-0.0356936,-0.0360526,-25.6518,7,0.00197737,10,0.000924814,-1.59088,0.810639,0.0727821,-72.9575,-0.0360526,
2,0,0,1,0,13016.9,-0.038099,-0.0384289,-25.4917,7,0.00182395,10,0.000979617,-1.5936,0.900266,0.0655362,-65.2396,-0.0384289,
2,0,0,1,0,13016.9,-0.0404961,-0.0408647,-25.3423,7,0.00167145,10,0.00103561,-1.59615,0.981105,0.0601363,-59.519,-0.0408647,
2,0,0,1,0,13016.9,-0.0428932,-0.0432411,-25.2163,7,0.00151978,10,0.00109038,-1.59832,1.22101,0.0483207,-47.584,-0.0432411,
2,0,0,1,0,13016.9,-0.0452903,-0.0456418,-25.102,7,0.00136884,10,0.0011457,-1.60029,1.41139,0.0418028,-40.9995,-0.0456418,
2,0,0,1,0,13016.9,-0.0476985,-0.0480818,-25.0207,7,0.00121847,10,0.00120304,-1.6017,1.81688,0.0324733,-31.7327,-0.0480818,
2,0,0,1,0,13016.9,-0.0500956,-0.0504136,-24.9554,7,0.00106855,10,0.00125809,-1.60284,2.09118,0.0282137,-27.4849,-0.0504136,
2,0,0,1,0,13016.9,-0.0524927,-0.0528621,-24.8922,7,0.000919005,10,0.00131585,-1.60394,3.07943,0.0191594,-18.6337,-0.05286213,
2,0,0,1,0,13016.9,-0.0548981,-0.0552385,-24.8718,7,0.000769755,10,0.00137388,-1.60429,5.54523,0.0106398,-10.3314,-0.0552385,
2,0,0,1,0,13016.9,-0.0572953,-0.0576435,-24.8449,7,0.00062062,10,0.00143214,-1.60476,8.3845,0.00703679,-6.82422,-0.0576435,
2,0,0,1,0,13017,-0.0596924,-0.060074,-24.8244,7,0.000471612,10,0.0014913,-1.60512,-34.6265,-0.0017039,1.65277,-0.060074,
2,0,0,1,0,13017,-0.062095,-0.062445,-24.8445,7,0.000322618,10,0.00155142,-1.60477,-7.73033,-0.00763228,7.4007,-0.062445,
2,0,0,1,0,13017,-0.0644977,-0.064902,-24.8639,7,0.00017346,10,0.00161371,-1.60443,-5.40249,-0.0109209,10.5983,-0.064902,
2,0,0,1,0,13017,-0.0668948,-0.0672518,-24.8894,7,2.41938e-05,10,0.00167386,-1.60398,-4.36199,-0.0135259,13.1466,-0.0672518,
2,0,0,1,0,13017,-0.0692919,-0.0696664,-24.934,7,-0.000125259,10,0.00173706,-1.60321,-2.68557,-0.0219692,21.3934,-0.0696664,
2,0,0,1,0,13017,-0.0717001,-0.0720937,-24.9996,7,-0.000275046,10,0.00180231,-1.60207,-2.12959,-0.0277049,27.0284,-0.0720937,
2,0,0,1,0,13017,-0.0740972,-0.0744775,-25.0658,7,-0.000425229,10,0.00186684,-1.60092,-2.0766,-0.0284119,27.7981,-0.0744775,
2,0,0,1,0,13017,-0.0764943,-0.0768857,-25.1278,7,-0.00057581,10,0.00193197,-1.59985,-1.72455,-0.0342119,33.5764,-0.0768857,
2,0,0,1,0,13017,-0.0788997,-0.0792875,-25.2223,7,-0.00072684,10,0.00199982,-1.59821,-1.51963,-0.0388252,38.2301,-0.0792875,
2,0,0,1,0,13017,-0.0812968,-0.0816607,-25.3205,7,-0.000878486,10,0.00206769,-1.59653,-1.38975,-0.0424536,41.9412,-0.0816607,
2,0,0,1,0,13017,-0.0836939,-0.0840699,-25.4163,7,-0.0010307,10,0.00213674,-1.59489,-1.30352,-0.0452621,44.9231,-0.0840699,
2,0,0,1,0,13017,-0.086091,-0.0864473,-25.5253,7,-0.00118352,10,0.00220659,-1.59303,-1.12145,-0.0526103,52.4569,-0.0864473,
2,0,0,1,0,13017,-0.0884992,-0.088881,-25.6693,7,-0.00133715,10,0.00228151,-1.59059,-1.07756,-0.0547531,54.8328,-0.088881,
2,0,0,1,0,13017,-0.0908963,-0.0912489,-25.7933,7,-0.00149157,10,0.00235361,-1.58849,-1.12329,-0.0525244,52.8911,-0.0912489,
2,0,0,1,0,13017,-0.0932935,-0.093638,-25.9277,7,-0.00164673,10,0.00242782,-1.58624,-0.987139,-0.0597687,60.5334,-0.093638,
2,0,0,1,0,13017,-0.0956989,-0.0960695,-26.0933,7,-0.00180277,10,0.00250677,-1.58347,-0.937005,-0.0629666,64.102,-0.0960695,
2,0,0,1,0,13017,-0.098096,-0.0984819,-26.2473,7,-0.0019598,10,0.00258488,-1.58092,-1.0078,-0.0585434,59.8261,-0.0984819,
2,0,0,0,0,13017.1,-0.0999548,-0.100324,-26.3408,7,-0.00208343,10,0.00264261,-1.57937,0.026873,2.19551,-2111.38,-0.1003238,
2,0,0,1,1,13017.1,-0.0994555,-0.0998912,-24.9279,7,-0.00212671,10,0.00249008,-1.60331,-0.0228223,-2.58519,2260.03,-0.0998912,
2,0,0,1,1,13017.1,-0.0970583,-0.097501,-20.1817,7,-0.00226082,10,0.00196774,-1.69504,-0.0257319,-2.29287,1817.75,-0.097501,
2,0,0,1,1,13017.1,-0.0946501,-0.0950663,-16.4559,7,-0.00237009,10,0.0015644,-1.78368,-0.0265129,-2.22533,1435.88,-0.0950663,
2,0,0,1,1,13017.1,-0.0922531,-0.0926624,-13.2954,7,-0.00245883,10,0.00123198,-1.8763,-0.0248349,-2.37569,1230.16,-0.0926624,
2,0,0,1,1,13017.1,-0.0898559,-0.0902659,-10.537,7,-0.00252988,10,0.000951128,-1.97728,-0.0216985,-2.71908,1104.69,-0.0902659,
2,0,0,1,1,13017.1,-0.0874588,-0.0878534,-8.07608,7,-0.00258536,10,0.000709512,-2.0928,-0.0187446,-3.14757,967.634,-0.0878534,
2,0,0,1,1,13017.1,-0.0850534,-0.0854293,-5.84803,7,-0.00262677,10,0.000499593,-2.23299,-0.0145303,-4.06048,883.818,-0.0854293,
2,0,0,1,1,13017.1,-0.0826563,-0.0830296,-3.84774,7,-0.00265557,10,0.000319477,-2.41479,-0.00979012,-6.02648,798.118,-0.0830296,
2,0,0,1,1,13017.1,-0.0802592,-0.0806596,-2.0329,7,-0.00267294,10,0.000163973,-2.69188,-0.00439566,-13.4223,733.367,-0.0806596,
2,0,0,1,1,13017.1,-0.077851,-0.078278,-0.355291,7,-0.00267987,10,2.78114e-05,-3.44942,-0.0320251,-1.8423,670.458,-0.078278,
2,1,0,1,1,13017.1,-0.0754539,-0.0758899,1.16974,7,-0.00267722,10,-8.87712e-05,-2.93191,0.0121375,4.86096,613.046,-0.0758899,
2,1,0,1,1,13017.1,-0.0730568,-0.0734255,2.5759,7,-0.00266578,10,-0.000189137,-2.58907,0.00795968,7.41236,566.562,-0.0734255,
2,1,0,1,1,13017.1,-0.0706597,-0.071116,3.85846,7,-0.00264628,10,-0.000274398,-2.41359,0.0155677,3.7899,521.826,-0.071116,
2,1,0,1,1,13017.1,-0.0682542,-0.0686929,5.07052,7,-0.00261932,10,-0.000348309,-2.29495,0.0228902,2.57752,484.824,-0.0686929,
2,1,0,1,1,13017.1,-0.0658571,-0.0662561,6.16976,7,-0.00258543,10,-0.000408784,-2.20973,0.0311828,1.89207,442.049,-0.0662561,
2,1,0,1,1,13017.1,-0.06346,-0.0639052,7.19798,7,-0.00254522,10,-0.000459988,-2.14279,0.0391404,1.5074,415.799,-0.0639052,
2,1,0,1,1,13017.2,-0.0610518,-0.0615203,8.17757,7,-0.00249896,10,-0.000503087,-2.08738,0.0477812,1.2348,387.07,-0.0615203,
2,1,0,1,1,13017.2,-0.0586547,-0.0590549,9.07045,7,-0.00244709,10,-0.000535655,-2.04237,0.0578386,1.02008,356.431,-0.0590549,
2,1,0,1,1,13017.2,-0.0562576,-0.0566563,9.87998,7,-0.00239017,10,-0.000559763,-2.00524,0.0681935,0.865185,331.022,-0.05665626,
2,1,0,1,1,13017.2,-0.053855,-0.0542863,10.6553,7,-0.00232847,10,-0.000578438,-1.97243,0.0788311,0.748436,308.831,-0.0542863,
2,1,0,1,1,13017.2,-0.0514523,-0.0518919,11.3613,7,-0.00226231,10,-0.000589559,-1.94457,0.0913293,0.646014,284.777,-0.0518919,
2,1,0,1,1,13017.2,-0.0490552,-0.0494815,12.0211,7,-0.00219205,10,-0.000594823,-1.92006,0.104678,0.563634,263.16,-0.0494815,
2,1,0,1,1,13017.2,-0.0466581,-0.0470405,12.6379,7,-0.00211798,10,-0.000594492,-1.89833,0.118643,0.49729,244.134,-0.0470405,
2,1,0,1,1,13017.2,-0.0442527,-0.0446376,13.209,7,-0.00204038,10,-0.00058962,-1.87913,0.133375,0.44236,226.973,-0.0446376,
2,1,0,1,1,13017.2,-0.0418556,-0.0422506,13.7171,7,-0.00195951,10,-0.000579556,-1.86274,0.151848,0.388546,207.213,-0.0422506,
2,1,0,1,1,13017.2,-0.0394585,-0.0398181,14.1952,7,-0.0018757,10,-0.000565224,-1.84786,0.168592,0.349957,193.528,-0.03981806,
2,1,0,1,1,13017.2,-0.0370558,-0.0374449,14.6436,7,-0.00178916,10,-0.000548328,-1.83435,0.188445,0.313089,178.504,-0.0374449,
2,1,0,1,1,13017.2,-0.0346532,-0.0350547,15.0686,7,-0.00169995,10,-0.000528226,-1.82193,0.209627,0.281452,164.872,-0.0350547,
2,1,0,1,1,13017.2,-0.0322561,-0.0326412,15.4232,7,-0.00160842,10,-0.000503431,-1.81183,0.236926,0.249022,149.696,-0.0326412,
2,1,0,1,1,13017.2,-0.0298589,-0.0302044,15.7703,7,-0.00151478,10,-0.000476334,-1.80216,0.258266,0.228447,140.478,-0.03020441,
2,1,0,1,1,13017.2,-0.0274535,-0.0277856,16.1116,7,-0.00141907,10,-0.00044767,-1.79286,0.289427,0.203851,127.824,-0.0277856,
2,1,0,1,1,13017.2,-0.0250564,-0.0254517,16.3896,7,-0.00132152,10,-0.000417143,-1.78543,0.328822,0.179428,114.657,-0.0254517,
2,1,0,1,1,13017.2,-0.0226593,-0.0230329,16.6562,7,-0.00122234,10,-0.000383641,-1.77842,0.349817,0.16866,109.553,-0.0230329,
2,1,0,1,1,13017.3,-0.0202511,-0.0205929,16.924,7,-0.00112158,10,-0.000348513,-1.7715,0.395781,0.149072,98.2445,-0.0205929,
2,1,0,1,1,13017.3,-0.017854,-0.018242,17.1389,7,-0.00101938,10,-0.000312648,-1.76602,0.44239,0.133367,89.0715,-0.018242,
2,1,0,1,1,13017.3,-0.0154569,-0.0158115,17.3407,7,-0.000915926,10,-0.000274182,-1.76093,0.484775,0.121706,82.2931,-0.0158115,
2,1,0,1,1,13017.3,-0.0130598,-0.0134086,17.5187,7,-0.000811329,10,-0.000234902,-1.7565,0.532905,0.110714,75.6796,-0.0134086,
2,1,0,1,1,13017.3,-0.0106516,-0.0110238,17.7091,7,-0.000705601,10,-0.000195221,-1.7518,0.589372,0.100106,69.0691,-0.01102377,
2,1,0,1,1,13017.3,-0.00825448,-0.00867709,17.8533,7,-0.000598893,10,-0.000154914,-1.74828,0.689887,0.0855213,59.5463,-0.00867709,
2,1,0,1,1,13017.3,-0.00585738,-0.00629223,17.9836,7,-0.000491378,10,-0.000113157,-1.74512,0.737338,0.0800176,56.169,-0.00629223,
2,1,0,1,1,13017.3,-0.00345195,-0.00381194,18.1283,7,-0.000383021,10,-6.91041e-05,-1.74164,0.814493,0.0724377,51.1602,-0.00381194,
2,1,0,1,1,13017.3,-0.00105485,-0.0014186,18.2274,7,-0.000273904,10,-2.58575e-05,-1.73928, , , ,-0.0014186,
2,1,0,0,1,13017.3,-7.54729e-05,-0.000382585,18.2527,7,-0.000228284,10,-6.98321e-06,-1.73867, , , ,-0.000382585,