File: Figure_codes/Fig_3-5/rawdata_trumpetplot_data/after 10th/20221101_1-115_003_TrumpetPlot_ParaChange_from10_every3_02_CV_C01_25.csv
mode,ox/red,error,control changes,counter inc.,time/s,control/V,Ewe/V,<I>/mA,cycle number,(Q-Qo)/C,I Range,P/W,log(|I|),Tafel slope mV/dec,alpha_eff,dI/d(E-IR),E-IR/V,
2,0,0,1,0,49593.3,2.44065e-05,-0.000363498,-0.408505,26,0.0000000E+000,10,1.48491e-07,-3.3888, , , ,-0.000363498,
2,0,0,1,0,49594.6,0.00129791,0.000896265,-0.179675,26,-0.000269755,10,-1.61037e-07,-3.74551, , , ,0.000896265,
2,0,0,1,0,49596.1,0.00279612,0.00248481,-0.14423,26,-0.000492919,10,-3.58385e-07,-3.84094,-0.0174834,-3.37464,20.5412,0.00248481,
2,0,0,1,0,49597.6,0.00429431,0.00394395,-0.123514,26,-0.000677644,10,-4.87134e-07,-3.90828,-0.0251279,-2.34799,11.538,0.00394395,
2,0,0,1,0,49599.1,0.00579242,0.00549098,-0.108801,26,-0.000836215,10,-5.97424e-07,-3.96337,-0.0277604,-2.12533,9.14721,0.00549098,
2,0,0,1,0,49600.6,0.00729061,0.00694483,-0.0964003,26,-0.000974738,10,-6.69483e-07,-4.01592,-0.0312391,-1.88866,7.22781,0.00694483,
2,0,0,1,0,49602.1,0.00878882,0.00845802,-0.0863254,26,-0.00109687,10,-7.30142e-07,-4.06386,-0.0332128,-1.77643,6.07824,0.008458022,
2,0,0,1,0,49603.6,0.010287,0.00996592,-0.0786288,26,-0.00120591,10,-7.83609e-07,-4.10442,-0.0361495,-1.63211,5.0562,0.00996592,
2,0,0,1,0,49605.1,0.0117852,0.011441,-0.0718693,26,-0.00130387,10,-8.22257e-07,-4.14346,-0.0381785,-1.54537,4.33677,0.01144101,
2,0,0,1,0,49606.5,0.0132834,0.0129733,-0.0655268,26,-0.00139207,10,-8.50097e-07,-4.18358,-0.0369353,-1.59739,4.06399,0.0129733,
2,0,0,1,0,49608,0.0147815,0.0144609,-0.0598476,26,-0.00147154,10,-8.65451e-07,-4.22295,-0.0385237,-1.53153,3.57826,0.01446092,
2,0,0,1,0,49609.5,0.0162797,0.0159815,-0.0552603,26,-0.00154293,10,-8.83142e-07,-4.25759,-0.0406239,-1.45235,3.11857,0.0159815,
2,0,0,1,0,49611,0.0177779,0.0174544,-0.0502554,26,-0.00160732,10,-8.77179e-07,-4.29882,-0.0396183,-1.48921,2.92522,0.0174544,
2,0,0,1,0,49612.5,0.0192761,0.0189189,-0.0455081,26,-0.0016655,10,-8.60963e-07,-4.34191,-0.0422468,-1.39655,2.52676,0.0189189,
2,0,0,1,0,49614,0.0207743,0.0204406,-0.0425378,26,-0.0017176,10,-8.69498e-07,-4.37122,-0.0397877,-1.48287,2.46609,0.0204406,
2,0,0,1,0,49615.5,0.0222725,0.0219549,-0.0386387,26,-0.00176434,10,-8.48308e-07,-4.41298,-0.0392257,-1.50412,2.28729,0.0219549,
2,0,0,1,0,49617,0.0237707,0.0234352,-0.035088,26,-0.00180552,10,-8.22294e-07,-4.45484,-0.0348673,-1.69213,2.31582,0.0234352,
2,0,0,1,0,49618.5,0.0252689,0.024959,-0.0320357,26,-0.00184194,10,-7.99579e-07,-4.49437,-0.0341105,-1.72967,2.14342,0.024959,
2,0,0,1,0,49620,0.0267671,0.0264372,-0.0286459,26,-0.00187312,10,-7.57318e-07,-4.54294,-0.0314351,-1.87688,2.13044,0.0264372,
2,0,0,1,0,49621.5,0.0282653,0.0279409,-0.0267899,26,-0.00189989,10,-7.48535e-07,-4.57203,-0.030092,-1.96065,1.95319,0.0279409,
2,0,0,1,0,49623,0.0297635,0.0294212,-0.0231062,26,-0.0019225,10,-6.79813e-07,-4.63627,-0.028875,-2.04329,1.84326,0.0294212,
2,0,0,1,0,49624.5,0.0312617,0.0309514,-0.0210221,26,-0.00194044,10,-6.50663e-07,-4.67732,-0.0255245,-2.3115,1.84606,0.0309514,
2,0,0,1,0,49626,0.0327599,0.0324529,-0.0178379,26,-0.00195484,10,-5.7889e-07,-4.74866,-0.0244015,-2.41788,1.64431,0.0324529,
2,0,0,1,0,49627.5,0.0342581,0.0339726,-0.0150374,26,-0.00196492,10,-5.1086e-07,-4.82283,-0.0214827,-2.7464,1.61709,0.0339726,
2,0,0,1,0,49629,0.0357563,0.0354317,-0.0130023,26,-0.00197108,10,-4.60693e-07,-4.88598,-0.0199314,-2.96016,1.46349,0.0354317,
2,0,0,1,0,49630.5,0.0372544,0.0369522,-0.0108834,26,-0.00197408,10,-4.02165e-07,-4.96324,-0.0149773,-3.93929,1.54742,0.0369522,
2,0,0,1,0,49632,0.0387526,0.0384559,-0.00853932,26,-0.00197386,10,-3.28387e-07,-5.06858,-0.0107126,-5.50755,1.62479,0.03845587,
2,0,0,1,0,49633.5,0.0402508,0.0399107,-0.00622978,26,-0.00196968,10,-2.48635e-07,-5.20553,-0.00724268,-8.14616,1.62015,0.0399107,
2,0,0,1,0,49635,0.041749,0.0414452,-0.00371885,26,-0.0019618,10,-1.54128e-07,-5.42959,-0.00500768,-11.7819,1.35249,0.0414452,
2,0,0,1,0,49636.5,0.0432472,0.0429891,-0.00117957,26,-0.00195028,10,-5.07089e-08,-5.92827,-0.0122309,-4.82385,1.63192,0.0429891,
2,1,0,1,0,49638,0.0447454,0.0444334,0.000908546,26,-0.00193613,10,4.03698e-08,-6.04165,0.0117127,5.03729,1.34231,0.0444334,
2,0,0,1,0,49639.5,0.0462435,0.0459316,0.00366099,26,-0.00191753,10,1.68155e-07,-5.4364,0.00242639,24.316,1.49683,0.0459316,
2,1,0,1,0,49641,0.0477417,0.0474279,0.00576876,26,-0.00189581,10,2.736e-07,-5.23892,0.00841641,7.01011,1.43029,0.0474279,
2,1,0,1,0,49642.5,0.0492399,0.0489645,0.00750651,26,-0.00187109,10,3.67552e-07,-5.12456,0.012793,4.61191,1.25837,0.0489645,
2,1,0,1,0,49644,0.0507381,0.0504288,0.00889179,26,-0.00184342,10,4.48402e-07,-5.05101,0.0153773,3.83682,1.37373,0.0504288,
2,1,0,1,0,49645.5,0.0522363,0.0518933,0.0110345,26,-0.00181297,10,5.72615e-07,-4.95725,0.018428,3.20165,1.38136,0.05189332,
2,1,0,1,0,49647,0.0537345,0.0534076,0.013748,26,-0.00177907,10,7.3425e-07,-4.86176,0.0218392,2.70157,1.36098,0.0534076,
2,1,0,1,0,49648.5,0.0552327,0.0549049,0.0154183,26,-0.0017424,10,8.46538e-07,-4.81196,0.0302634,1.94955,1.12395,0.0549049,
2,1,0,1,0,49650,0.0567309,0.0563852,0.0159354,26,-0.00170331,10,8.9852e-07,-4.79764,0.0341157,1.72941,1.11139,0.0563852,
2,1,0,1,0,49651.5,0.0582291,0.0579048,0.0184074,26,-0.00166168,10,1.06588e-06,-4.73501,0.0314334,1.87698,1.33613,0.0579048,
2,1,0,1,0,49653,0.0597273,0.0594011,0.020727,26,-0.001617,10,1.2312e-06,-4.68346,0.0335939,1.75627,1.39116,0.05940108,
2,1,0,1,0,49654.5,0.0612255,0.0609121,0.0223205,26,-0.00156902,10,1.35959e-06,-4.6513,0.0562321,1.04922,0.875482,0.0609121,
2,1,0,1,0,49656,0.0627237,0.0624158,0.0236941,26,-0.00151887,10,1.47888e-06,-4.62536,0.0556575,1.06005,1.00098,0.0624158,
2,1,0,1,0,49657.5,0.0642219,0.063894,0.025431,26,-0.001467,10,1.62489e-06,-4.59464,0.0486954,1.21161,1.22134,0.063894,
2,1,0,1,0,49659,0.0657201,0.0653616,0.0272267,26,-0.00141205,10,1.77958e-06,-4.56501,0.0587485,1.00428,1.05333,0.0653616,
2,1,0,1,0,49660.5,0.0672183,0.0668897,0.0286979,26,-0.00135453,10,1.91959e-06,-4.54215,0.0622439,0.947884,1.0498,0.0668897,
2,1,0,1,0,49662,0.0687164,0.0684038,0.0301372,26,-0.0012952,10,2.0615e-06,-4.5209,0.0742168,0.794969,0.92432,0.06840384,
2,1,0,1,0,49663.5,0.0702146,0.0699117,0.0314249,26,-0.00123404,10,2.19697e-06,-4.50273,0.0682418,0.864572,1.05471,0.0699117,
2,1,0,1,0,49665,0.0717128,0.0714133,0.032809,26,-0.00117053,10,2.343e-06,-4.48401,0.0647012,0.911884,1.17188,0.0714133,
2,1,0,1,0,49666.5,0.073211,0.0729,0.0341822,26,-0.00110448,10,2.49188e-06,-4.4662,0.0824031,0.715992,0.961949,0.0729,
2,1,0,1,0,49668,0.0747092,0.0743931,0.0355664,26,-0.00103614,10,2.64589e-06,-4.44896,0.0839561,0.702748,0.993257,0.0743931,
2,1,0,1,0,49669.5,0.0762074,0.0758914,0.0376552,26,-0.000965563,10,2.8577e-06,-4.42418,0.0942062,0.626286,0.91177,0.0758914,
2,1,0,1,0,49671,0.0777055,0.0773748,0.0387027,26,-0.000892794,10,2.99461e-06,-4.41226,0.0948412,0.622093,0.952653,0.0773748,
2,1,0,1,0,49672.5,0.0792037,0.0788647,0.0407433,26,-0.000817809,10,3.21321e-06,-4.38994,0.104681,0.563616,0.881616,0.0788647,
2,1,0,1,0,49674,0.0807019,0.0803705,0.0420854,26,-0.000740208,10,3.38242e-06,-4.37587,0.105493,0.55928,0.912721,0.0803705,
2,1,0,1,0,49675.5,0.0822001,0.0818837,0.0425272,26,-0.00066092,10,3.48229e-06,-4.37133,0.0894058,0.659912,1.11573,0.0818837,
2,1,0,1,0,49677,0.0836983,0.083328,0.0449932,26,-0.00057954,10,3.74919e-06,-4.34685,0.0917737,0.642885,1.12053,0.083328,
2,1,0,1,0,49678.5,0.0851965,0.0848698,0.0465438,26,-0.00049537,10,3.95016e-06,-4.33214,0.108249,0.545039,0.986406,0.0848698,
2,1,0,1,0,49680,0.0866947,0.0863354,0.0478155,26,-0.000409203,10,4.12817e-06,-4.32043,0.117856,0.500612,0.93566,0.0863354,
2,1,0,1,0,49681.5,0.0881929,0.0879079,0.0496787,26,-0.000320223,10,4.36715e-06,-4.30383,0.0986477,0.598088,1.15999,0.08790791,
2,1,0,1,0,49683,0.0896911,0.0893724,0.0514728,26,-0.000229074,10,4.60024e-06,-4.28842,0.0944816,0.624461,1.26227,0.0893724,
2,1,0,1,0,49684.5,0.0911893,0.0908516,0.0540743,26,-0.000134384,10,4.91274e-06,-4.26701,0.092169,0.640128,1.33044,0.0908516,
2,1,0,1,0,49686,0.0926875,0.0923744,0.055914,26,-3.64028e-05,10,5.16502e-06,-4.25248,0.0994658,0.593169,1.28545,0.0923744,
2,1,0,1,0,49687.5,0.0941857,0.093825,0.0577348,26,6.40491e-05,10,5.41696e-06,-4.23856,0.112395,0.524935,1.17311,0.09382502,
2,1,0,1,0,49688.9,0.0956839,0.095334,0.0594522,26,0.000167166,10,5.66782e-06,-4.22583,0.092797,0.635796,1.47084,0.095334,
2,1,0,1,0,49690.4,0.0971821,0.0968844,0.0613947,26,0.000273588,10,5.94819e-06,-4.21187,0.0923232,0.639059,1.52298,0.09688437,
2,1,0,1,0,49691.9,0.0986803,0.0983487,0.0639004,26,0.000383575,10,6.28452e-06,-4.1945,0.105071,0.561524,1.38855,0.0983487,
2,1,0,1,0,49693.4,0.100178,0.0998756,0.0657582,26,0.000496546,10,6.56765e-06,-4.18205,0.119367,0.494275,1.27501,0.0998756,
2,1,0,1,0,49694.9,0.101677,0.101393,0.0673761,26,0.000612068,10,6.83147e-06,-4.17149,0.12354,0.477578,1.26259,0.101393,
2,1,0,1,0,49696.4,0.103175,0.10286,0.0698809,26,0.000730806,10,7.18792e-06,-4.15564,0.108402,0.54427,1.47211,0.10286,
2,1,0,1,0,49697.9,0.104673,0.104355,0.072275,26,0.000852956,10,7.54224e-06,-4.14101,0.116309,0.507268,1.4159,0.104355,
2,1,0,1,0,49699.4,0.106171,0.105878,0.0737966,26,0.000978153,10,7.8134e-06,-4.13196,0.169028,0.349055,0.999096,0.105878,
2,1,0,1,0,49700.9,0.107669,0.107376,0.0750114,26,0.001106,10,8.05442e-06,-4.12487,0.129742,0.454748,1.34507,0.107376,
2,1,0,1,0,49702.4,0.109167,0.108823,0.0769132,26,0.00123607,10,8.36995e-06,-4.114,0.141479,0.417023,1.26014,0.108823,
2,1,0,1,0,49703.9,0.110666,0.110303,0.0786644,26,0.00136949,10,8.67689e-06,-4.10422,0.171884,0.343255,1.05377,0.110303,
2,1,0,1,0,49705.4,0.112164,0.111847,0.0806241,26,0.00150543,10,9.01753e-06,-4.09354,0.283469,0.208136,0.650755,0.111847,
2,1,0,1,0,49706.9,0.113662,0.113364,0.0823373,26,0.00164348,10,9.33409e-06,-4.0844,0.149816,0.393816,1.26987,0.113364,
2,1,0,1,0,49708.4,0.11516,0.11483,0.0839831,26,0.00178324,10,9.64374e-06,-4.07581,0.170402,0.34624,1.132,0.11483,
2,1,0,1,0,49709.9,0.116658,0.116327,0.0855551,26,0.00192681,10,9.95235e-06,-4.06775,0.166937,0.353426,1.17179,0.116327,
2,1,0,1,0,49711.4,0.118157,0.117835,0.0876362,26,0.00207281,10,1.03266e-05,-4.05732,0.202424,0.291468,0.988457,0.117835,
2,1,0,1,0,49712.9,0.119655,0.119309,0.0889704,26,0.00222065,10,1.06149e-05,-4.05075,0.246166,0.239676,0.832197,0.119309,
2,1,0,1,0,49714.4,0.121153,0.120861,0.0899467,26,0.00237029,10,1.08711e-05,-4.04601,0.212549,0.277583,0.975609,0.120861,
2,1,0,1,0,49715.9,0.122651,0.122326,0.0918295,26,0.00252276,10,1.12331e-05,-4.03702,0.165248,0.35704,1.27208,0.122326,
2,1,0,1,0,49717.4,0.124149,0.123841,0.0925442,26,0.00267722,10,1.14608e-05,-4.03365,0.247826,0.23807,0.863978,0.123841,
2,1,0,1,0,49718.9,0.125648,0.125325,0.0948672,26,0.00283389,10,1.18893e-05,-4.02288,0.422646,0.139597,0.511694,0.125325,
2,1,0,1,0,49720.4,0.127146,0.126786,0.0944469,26,0.0029916,10,1.19745e-05,-4.02481,0.43357,0.136079,0.503155,0.126786,
2,1,0,1,0,49721.9,0.128644,0.128287,0.0953922,26,0.00315005,10,1.22376e-05,-4.02049,1.15114,0.0512537,0.189702,0.128287,
2,1,0,1,0,49723.4,0.130142,0.129798,0.0957966,26,0.0033094,10,1.24342e-05,-4.01865,1.60275,0.0368117,0.136693,0.129798,
2,1,0,1,0,49724.9,0.13164,0.131276,0.0951894,26,0.00346862,10,1.24961e-05,-4.02141,-0.320957,-0.183825,-0.677476,0.131276,
2,1,0,1,0,49726.4,0.133139,0.13281,0.0940256,26,0.00362652,10,1.24875e-05,-4.02675,-0.220636,-0.267408,-0.979964,0.13281,
2,1,0,1,0,49727.9,0.134637,0.13429,0.0929272,26,0.00378203,10,1.24792e-05,-4.03186,-0.184707,-0.319425,-1.15184,0.13429,
2,1,0,1,0,49729.4,0.136135,0.13583,0.0909632,26,0.00393528,10,1.23555e-05,-4.04113,-0.147817,-0.399141,-1.40846,0.13583,
2,1,0,1,0,49730.9,0.137633,0.137275,0.0884747,26,0.00408537,10,1.21454e-05,-4.05318,-0.117099,-0.503849,-1.72967,0.137275,
2,1,0,1,0,49732.4,0.139131,0.1388,0.0857354,26,0.0042315,10,1.19001e-05,-4.06684,-0.0926465,-0.636829,-2.11103,0.1388,
2,1,0,1,0,49733.9,0.14063,0.140309,0.0820973,26,0.00437259,10,1.1519e-05,-4.08567,-0.0815833,-0.723187,-2.31636,0.140309,
2,1,0,1,0,49735.4,0.142128,0.141849,0.078284,26,0.00450842,10,1.11045e-05,-4.10633,-0.0756324,-0.780089,-2.37247,0.141849,
2,1,0,1,0,49736.9,0.143626,0.143325,0.0746289,26,0.00463889,10,1.06962e-05,-4.12709,-0.0652792,-0.90381,-2.62142,0.143325,
2,1,0,1,0,49738.4,0.145124,0.144784,0.0701832,26,0.0047627,10,1.01614e-05,-4.15377,-0.0637529,-0.925448,-2.5765,0.144784,
2,1,0,1,0,49739.9,0.146622,0.146322,0.0672098,26,0.00488054,10,9.83431e-06,-4.17257,-0.095653,-0.616813,-1.63971,0.146322,
2,1,0,1,0,49741.4,0.14812,0.147754,0.0661423,26,0.00499445,10,9.77279e-06,-4.17952,-0.0854341,-0.690591,-1.73524,0.147754,
2,1,0,1,0,49742.9,0.149619,0.149315,0.0620943,26,0.00510568,10,9.27161e-06,-4.20695,-0.100409,-0.587599,-1.42332,0.149315,
2,1,0,1,0,49744.4,0.151117,0.15076,0.0598752,26,0.00521168,10,9.0268e-06,-4.22275,-0.088743,-0.664841,-1.56363,0.15076,
2,1,0,1,0,49745.9,0.152615,0.152269,0.0577944,26,0.00531463,10,8.80032e-06,-4.23811,-0.109636,-0.538146,-1.2166,0.152269,
2,1,0,1,0,49747.4,0.154113,0.153736,0.0563174,26,0.00541454,10,8.65801e-06,-4.24936,-0.120493,-0.489653,-1.08547,0.153736,
2,1,0,1,0,49748.9,0.155611,0.155271,0.055243,26,0.0055128,10,8.57766e-06,-4.25772,-0.194754,-0.302947,-0.650347,0.155271,
2,1,0,1,0,49750.4,0.15711,0.156769,0.0542985,26,0.00560928,10,8.5123e-06,-4.26521,-0.150556,-0.391882,-0.828165,0.156769,
2,1,0,1,0,49751.9,0.158608,0.158301,0.0529957,26,0.00570419,10,8.38926e-06,-4.27576,-0.245604,-0.240224,-0.499965,0.158301,
2,1,0,1,0,49753.4,0.160106,0.159778,0.0521374,26,0.00579739,10,8.33042e-06,-4.28285,-0.424199,-0.139086,-0.286516,0.159778,
2,1,0,1,0,49754.9,0.161604,0.16129,0.0519944,26,0.00589025,10,8.38618e-06,-4.28404,-0.44526,-0.132507,-0.267994,0.16129,
2,1,0,1,0,49756.4,0.163102,0.16278,0.0518543,26,0.00598271,10,8.44084e-06,-4.28522,-0.525676,-0.112237,-0.227432,0.16278,
2,1,0,1,0,49757.9,0.164601,0.164238,0.0515871,26,0.00607447,10,8.47256e-06,-4.28746,-0.515784,-0.114389,-0.230486,0.164238,
2,1,0,1,0,49759.4,0.166099,0.165747,0.0513801,26,0.00616558,10,8.5161e-06,-4.28921,-2.03391,-0.0290081,-0.0584853,0.165747,
2,1,0,1,0,49760.9,0.167597,0.16728,0.0514319,26,0.00625668,10,8.60356e-06,-4.28877,3.76389,0.0156753,0.0312106,0.16728,
2,1,0,1,0,49762.4,0.169095,0.168799,0.0508861,26,0.00634778,10,8.58952e-06,-4.2934,5.57139,0.0105898,0.0212724,0.168799,
2,1,0,1,0,49763.9,0.170593,0.170297,0.0516063,26,0.00643865,10,8.78841e-06,-4.2873,-2.23845,-0.0263575,-0.0531811,0.170297,
2,1,0,1,0,49765.4,0.172091,0.171752,0.0509038,26,0.00652946,10,8.74283e-06,-4.29325,6.43115,0.0091741,0.0182882,0.171752,
2,1,0,1,0,49766.9,0.17359,0.173249,0.0513539,26,0.0066201,10,8.89704e-06,-4.28943,-2.70228,-0.0218334,-0.0432937,0.173249,
2,1,0,1,0,49768.4,0.175088,0.174774,0.0514074,26,0.00671057,10,8.98469e-06,-4.28897,-1.7479,-0.0337548,-0.0669188,0.174774,
2,1,0,1,0,49769.9,0.176586,0.176263,0.0504839,26,0.00680083,10,8.89844e-06,-4.29685,-49.686,-0.00118746,-0.00234706,0.176263,
2,1,0,1,0,49771.3,0.178084,0.177759,0.0507569,26,0.00689077,10,9.02252e-06,-4.2945,2.69698,0.0218763,0.0436524,0.177759,
2,1,0,1,0,49772.8,0.179582,0.179264,0.0507136,26,0.00698073,10,9.09112e-06,-4.29488,1.07164,0.0550559,0.109627,0.179264,
2,1,0,1,0,49774.3,0.181081,0.180774,0.0509765,26,0.00707127,10,9.21522e-06,-4.29263,0.617782,0.095503,0.189449,0.180774,
2,1,0,1,0,49775.8,0.182579,0.182247,0.0512581,26,0.00716197,10,9.34164e-06,-4.29024,0.765283,0.0770957,0.154635,0.182247,
2,1,0,1,0,49777.3,0.184077,0.18372,0.0511705,26,0.0072526,10,9.40104e-06,-4.29098,1.04934,0.056226,0.113087,0.18372,
2,1,0,1,0,49778.8,0.185575,0.185242,0.0513742,26,0.00734366,10,9.51665e-06,-4.28925,1.5714,0.037546,0.0752855,0.185242,
2,1,0,1,0,49780.3,0.187073,0.186732,0.0513383,26,0.00743458,10,9.58654e-06,-4.28956,-6.1743,-0.00955575,-0.0191645,0.1867325,
2,1,0,1,0,49781.8,0.188572,0.188259,0.0513999,26,0.00752543,10,9.67647e-06,-4.28904,5.92292,0.0099613,0.019927,0.188259,
2,1,0,1,0,49783.3,0.19007,0.18972,0.0516882,26,0.00761646,10,9.80627e-06,-4.28661,-1.18095,-0.0499599,-0.0999339,0.18972,
2,1,0,1,0,49784.8,0.191568,0.191232,0.051628,26,0.00770709,10,9.87292e-06,-4.28711,-0.791677,-0.0745253,-0.149875,0.191232,
2,1,0,1,0,49786.3,0.193066,0.192682,0.0514429,26,0.00779778,10,9.91215e-06,-4.28867,0.813391,0.0725359,0.145612,0.192682,
2,1,0,1,0,49787.8,0.194564,0.194287,0.0514892,26,0.00788859,10,1.00037e-05,-4.28828,3.21074,0.0183758,0.0370957,0.194287,
2,1,0,1,0,49789.3,0.196063,0.195722,0.0514883,26,0.00797946,10,1.00774e-05,-4.28829,2.8154,0.0209562,0.0425339,0.195722,
2,1,0,1,0,49790.8,0.197561,0.197226,0.0518252,26,0.00807049,10,1.02213e-05,-4.28546,1.09897,0.0536867,0.10884,0.197226,
2,1,0,1,0,49792.3,0.199059,0.198715,0.0519352,26,0.00816208,10,1.03203e-05,-4.28454,0.678928,0.0869018,0.17661,0.198715,
2,1,0,1,0,49793.8,0.200557,0.200254,0.0526208,26,0.00825396,10,1.05375e-05,-4.27884,0.939282,0.0628139,0.127387,0.200254,
2,1,0,1,0,49795.3,0.202055,0.201747,0.0521844,26,0.00834603,10,1.0528e-05,-4.28246,-4.92808,-0.0119722,-0.0243551,0.201747,
2,1,0,1,0,49796.8,0.203554,0.203238,0.0521324,26,0.0084376,10,1.05953e-05,-4.28289,5.23591,0.0112683,0.0230555,0.203238,
2,1,0,1,0,49798.3,0.205052,0.204744,0.0525588,26,0.00852933,10,1.07611e-05,-4.27935,0.294775,0.200153,0.413437,0.204744,
2,1,0,1,0,49799.8,0.20655,0.206204,0.0527552,26,0.00862182,10,1.08783e-05,-4.27773,0.41606,0.141806,0.293633,0.206204,
2,1,0,1,0,49801.3,0.208048,0.20773,0.0531661,26,0.0087153,10,1.10442e-05,-4.27437,1.87311,0.0314984,0.0650922,0.20773,
2,1,0,1,0,49802.8,0.209546,0.209208,0.0532715,26,0.00880872,10,1.11448e-05,-4.27351,0.693838,0.0850343,0.17802,0.209208,
2,1,0,1,0,49804.3,0.211044,0.210686,0.0538157,26,0.008902,10,1.13382e-05,-4.26909,0.545783,0.108102,0.227202,0.210686,
2,1,0,1,0,49805.8,0.212543,0.212209,0.0541424,26,0.00899619,10,1.14895e-05,-4.26646,2.47476,0.0238407,0.0500936,0.212209,
2,1,0,1,0,49807.3,0.214041,0.213745,0.0539125,26,0.00909062,10,1.15235e-05,-4.26831,-4.45928,-0.0132308,-0.0278861,0.213745,
2,1,0,1,0,49808.8,0.215539,0.215219,0.0545759,26,0.00918498,10,1.17458e-05,-4.263,2.88094,0.0204794,0.0434137,0.2152192,
2,1,0,1,0,49810.3,0.217037,0.216713,0.054381,26,0.00927968,10,1.17851e-05,-4.26455,2.01471,0.0292847,0.062265,0.216713,
2,1,0,1,0,49811.8,0.218535,0.218266,0.0544147,26,0.00937448,10,1.18769e-05,-4.26428,0.64535,0.0914232,0.195386,0.2182658,
2,1,0,1,0,49813.3,0.220034,0.219731,0.0549368,26,0.00946958,10,1.20713e-05,-4.26014,1.03001,0.057281,0.123012,0.219731,
2,1,0,1,0,49814.8,0.221532,0.221216,0.0544468,26,0.00956498,10,1.20445e-05,-4.26403,1.22543,0.0481463,0.103972,0.221216,
2,1,0,1,0,49816.3,0.22303,0.222744,0.0549761,26,0.00966068,10,1.22456e-05,-4.25983,0.436158,0.135272,0.291519,0.222744,
2,1,0,1,0,49817.8,0.224528,0.224223,0.055624,26,0.00975682,10,1.24722e-05,-4.25474,1.2033,0.0490318,0.106075,0.224223,
2,1,0,1,0,49819.3,0.226026,0.225738,0.0558485,26,0.00985343,10,1.26071e-05,-4.25299,1.09493,0.0538848,0.117443,0.225738,
2,1,0,1,0,49820.8,0.227525,0.227223,0.0563615,26,0.00995032,10,1.28066e-05,-4.24902,1.0915,0.0540542,0.117406,0.227223,
2,1,0,1,0,49822.3,0.229023,0.228727,0.0559113,26,0.0100473,10,1.27884e-05,-4.2525,1.27137,0.0464066,0.102204,0.228727,
2,1,0,1,0,49823.8,0.230521,0.2302,0.0563797,26,0.0101444,10,1.29786e-05,-4.24888,0.474658,0.1243,0.27389,0.2302,
2,1,0,1,0,49825.3,0.232019,0.231759,0.0567175,26,0.0102424,10,1.31448e-05,-4.24628,0.814314,0.0724536,0.16045,0.231759,
2,1,0,1,0,49826.8,0.233517,0.233232,0.0566336,26,0.0103405,10,1.32088e-05,-4.24693,2.64431,0.0223121,0.0495886,0.233232,
2,1,0,1,0,49828.3,0.235016,0.234744,0.0573172,26,0.0104388,10,1.34549e-05,-4.24172,1.56443,0.0377134,0.0836561,0.2347445,
2,1,0,1,0,49829.8,0.236514,0.236225,0.0572568,26,0.0105373,10,1.35255e-05,-4.24217,0.808265,0.0729959,0.16212,0.236225,
2,1,0,1,0,49831.3,0.238012,0.237687,0.0574285,26,0.0106359,10,1.365e-05,-4.24087,-6.64964,-0.00887266,-0.0197544,0.237687,
2,1,0,1,0,49832.8,0.23951,0.239185,0.0573293,26,0.0107349,10,1.37123e-05,-4.24162,1.39027,0.0424377,0.0946476,0.239185,
2,1,0,1,0,49834.3,0.241008,0.24069,0.0574655,26,0.0108341,10,1.38314e-05,-4.24059,0.958831,0.0615332,0.139047,0.24069,
2,1,0,1,0,49835.8,0.242506,0.242197,0.0579552,26,0.0109333,10,1.40366e-05,-4.23691,1.10025,0.0536243,0.121081,0.242197,
2,1,0,1,0,49837.3,0.244005,0.243675,0.057726,26,0.0110331,10,1.40664e-05,-4.23863,0.890609,0.0662468,0.150457,0.243675,
2,1,0,1,0,49838.8,0.245503,0.245168,0.0582159,26,0.0111329,10,1.42727e-05,-4.23496,0.404294,0.145933,0.332152,0.245168,
2,1,0,1,0,49840.3,0.247001,0.246704,0.0593233,26,0.0112335,10,1.46353e-05,-4.22678,0.457125,0.129068,0.294626,0.246704,
2,1,0,1,0,49841.8,0.248499,0.248221,0.0585492,26,0.0113346,10,1.45331e-05,-4.23248,0.640716,0.0920844,0.212532,0.248221,
2,1,0,1,0,49843.3,0.249997,0.249703,0.0596638,26,0.011436,10,1.48982e-05,-4.22429,0.998063,0.0591145,0.136702,0.249703,
2,1,0,1,0,49844.8,0.251496,0.251175,0.0599109,26,0.0115382,10,1.50482e-05,-4.22249,-11.6563,-0.00506163,-0.0117605,0.251175,
2,1,0,1,0,49846.3,0.252994,0.252708,0.0595747,26,0.0116401,10,1.5055e-05,-4.22494,-1.38385,-0.0426348,-0.099282,0.252708,
2,1,0,1,0,49847.8,0.254492,0.254199,0.0596633,26,0.0117423,10,1.51663e-05,-4.22429,0.818381,0.0720935,0.167873,0.254199,
2,1,0,1,0,49849.3,0.25599,0.255682,0.0603159,26,0.0118445,10,1.54217e-05,-4.21957,0.865284,0.0681857,0.160129,0.255682,
2,1,0,1,0,49850.8,0.257488,0.257204,0.0604457,26,0.0119473,10,1.55469e-05,-4.21863,3.63704,0.016222,0.0380429,0.257204,
2,1,0,1,0,49852.3,0.258987,0.258718,0.0605105,26,0.0120506,10,1.56552e-05,-4.21817,1.51375,0.0389761,0.0917812,0.258718,
2,1,0,1,0,49853.8,0.260485,0.260172,0.0606409,26,0.0121538,10,1.57771e-05,-4.21723,1.31982,0.044703,0.105697,0.2601721,
2,1,0,1,0,49855.2,0.261983,0.261675,0.0610863,26,0.0122575,10,1.59847e-05,-4.21406,1.1478,0.0514028,0.121367,0.261675,
2,1,0,1,0,49856.7,0.263481,0.263141,0.0608171,26,0.0123614,10,1.60035e-05,-4.21597,-1.35508,-0.0435399,-0.103285,0.263141,
2,1,0,1,0,49858.2,0.264979,0.264656,0.060549,26,0.0124651,10,1.60247e-05,-4.21789,6.88061,0.00857482,0.0204572,0.264656,
2,1,0,1,0,49859.7,0.266477,0.266175,0.0609142,26,0.0125688,10,1.62138e-05,-4.21528,1.01304,0.0582408,0.13915,0.266175,
2,1,0,1,0,49861.2,0.267976,0.267646,0.0610053,26,0.0126725,10,1.63278e-05,-4.21463,0.983968,0.0599613,0.143598,0.267646,
2,1,0,1,0,49862.7,0.269474,0.26916,0.0617263,26,0.0127768,10,1.66142e-05,-4.20953,0.382643,0.154191,0.370694,0.26916,
2,1,0,1,0,49864.2,0.270972,0.270662,0.0619802,26,0.0128816,10,1.67757e-05,-4.20775,0.513248,0.114954,0.277886,0.270662,
2,1,0,1,0,49865.7,0.27247,0.272152,0.0625993,26,0.0129869,10,1.70366e-05,-4.20343,1.06464,0.0554179,0.134082,0.272152,
2,1,0,1,0,49867.2,0.273968,0.273661,0.0621321,26,0.0130927,10,1.70031e-05,-4.20668,0.61932,0.0952657,0.231741,0.2736614,
2,1,0,1,0,49868.7,0.275467,0.275117,0.063018,26,0.0131985,10,1.73374e-05,-4.20054,2.35098,0.025096,0.0614108,0.275117,
2,1,0,1,0,49870.2,0.276965,0.276659,0.0629285,26,0.013305,10,1.74097e-05,-4.20115,1.20993,0.0487631,0.119613,0.276659,
2,1,0,1,0,49871.7,0.278463,0.278172,0.0630213,26,0.0134115,10,1.75308e-05,-4.20051,-0.74803,-0.0788739,-0.193202,0.278172,
2,1,0,1,0,49873.2,0.279961,0.279716,0.0627329,26,0.0135179,10,1.75474e-05,-4.2025,-2.47554,-0.0238332,-0.0586858,0.279716,
2,1,0,1,0,49874.7,0.281459,0.281111,0.0628568,26,0.0136241,10,1.76697e-05,-4.20165,1.13609,0.0519325,0.127614,0.281111,
2,1,0,1,0,49876.2,0.282958,0.282631,0.0631341,26,0.0137308,10,1.78437e-05,-4.19974,4.34638,0.0135745,0.0333719,0.282631,
2,1,0,1,0,49877.7,0.284456,0.284162,0.0632728,26,0.0138377,10,1.79797e-05,-4.19878,1.49269,0.039526,0.0980425,0.284162,
2,1,0,1,0,49879.2,0.285954,0.28562,0.0638789,26,0.0139448,10,1.82451e-05,-4.19464,0.771925,0.0764323,0.189366,0.28562,
2,1,0,1,0,49880.7,0.287452,0.287107,0.0637616,26,0.0140519,10,1.83064e-05,-4.19544,1.14312,0.051613,0.128456,0.287107,
2,1,0,1,0,49882.2,0.28895,0.288645,0.0642766,26,0.0141597,10,1.85531e-05,-4.19195,1.74128,0.0338831,0.0841701,0.288645,
2,1,0,1,0,49883.7,0.290448,0.290142,0.0639162,26,0.0142676,10,1.85448e-05,-4.19439,0.760081,0.0776233,0.195132,0.290142,
2,1,0,1,0,49885.2,0.291947,0.291644,0.0641094,26,0.0143756,10,1.86971e-05,-4.19308,0.704293,0.0837719,0.209197,0.291644,
2,1,0,1,0,49886.7,0.293445,0.293159,0.0643621,26,0.0144841,10,1.88683e-05,-4.19137,1.23757,0.0476741,0.120103,0.293159,
2,1,0,1,0,49888.2,0.294943,0.294665,0.0646187,26,0.0145925,10,1.90409e-05,-4.18964,2.07355,0.0284536,0.0716632,0.294665,
2,1,0,1,0,49889.7,0.296441,0.296161,0.0650452,26,0.0147013,10,1.92639e-05,-4.18678,1.268,0.0465299,0.117329,0.296161,
2,1,0,1,0,49891.2,0.297939,0.297685,0.0650561,26,0.0148102,10,1.93662e-05,-4.18671,14.4153,0.00409288,0.0103452,0.297685,
2,1,0,1,0,49892.7,0.299438,0.299151,0.0644598,26,0.0149188,10,1.92832e-05,-4.19071,-0.00429521,-13.7362,-22.2314,0.299151,
2,1,0,1,0,49893.6,0.299737,0.29945,0.0322497,26,0.014968,10,9.65717e-06,-4.49147,0.0020755,28.4269,39.7724,0.29945,
2,1,0,1,0,49895.1,0.298239,0.297967,0.0193564,26,0.0149918,10,5.76757e-06,-4.71318,0.00527001,11.1954,14.0546,0.297967,
2,1,0,1,0,49896.5,0.296741,0.296434,0.0144857,26,0.0150049,10,4.29404e-06,-4.83906,0.0121662,4.84949,2.8241,0.296434,
2,1,0,1,0,49898,0.295243,0.294935,0.0110684,26,0.0150118,10,3.26447e-06,-4.95591,0.0139629,4.22548,1.93006,0.294935,
2,1,0,1,0,49899.5,0.293745,0.29342,0.00839181,26,0.0150147,10,2.46233e-06,-5.07614,0.0121317,4.86329,1.59694,0.29342,
2,1,0,1,0,49901,0.292246,0.291916,0.00631,26,0.0150144,10,1.84199e-06,-5.19997,0.0107697,5.47835,1.38189,0.291916,
2,1,0,1,0,49902.5,0.290748,0.290411,0.00457713,26,0.0150106,10,1.32925e-06,-5.33941,0.0074397,7.93043,1.27041,0.290411,
2,1,0,1,0,49904,0.28925,0.288947,0.00281956,26,0.0150043,10,8.14704e-07,-5.54982,0.00469008,12.5797,1.11675,0.288947,
2,0,0,1,0,49905.5,0.287752,0.287442,0.001291,26,0.0149954,10,3.71088e-07,-5.88907,0.0078915,7.4764,1.07863,0.287442,
2,1,0,1,0,49907,0.286254,0.285902,-0.000447677,26,0.0149845,10,-1.27992e-07,-6.34903,-0.0366132,-1.61144,0.942344,0.285902,
2,1,0,1,0,49908.5,0.284755,0.284484,-0.0016367,26,0.0149711,10,-4.65614e-07,-5.78603,-0.00373408,-15.8004,0.858451,0.284484,
2,1,0,1,0,49910,0.283257,0.282938,-0.00282901,26,0.0149557,10,-8.00434e-07,-5.54837,-0.00723432,-8.15557,0.834458,0.282938,
2,0,0,1,0,49911.5,0.281759,0.281477,-0.0041982,26,0.0149387,10,-1.18169e-06,-5.37694,-0.0113827,-5.18329,0.79457,0.281477,
2,0,0,1,0,49913,0.280261,0.279948,-0.00512478,26,0.0149199,10,-1.43467e-06,-5.29032,-0.0154044,-3.83008,0.699718,0.279948,
2,1,0,1,0,49914.5,0.278763,0.278443,-0.00603142,26,0.0148995,10,-1.67941e-06,-5.21958,-0.020727,-2.84653,0.657597,0.2784428,
2,1,0,1,0,49916,0.277264,0.276972,-0.00696613,26,0.0148779,10,-1.92942e-06,-5.15701,-0.0258124,-2.28572,0.627803,0.276972,
2,1,0,1,0,49917.5,0.275766,0.275424,-0.00818275,26,0.0148548,10,-2.25373e-06,-5.0871,-0.027714,-2.12888,0.630836,0.275424,
2,0,0,1,0,49919,0.274268,0.273962,-0.00855237,26,0.0148301,10,-2.34302e-06,-5.06791,-0.031371,-1.88072,0.651817,0.273962,
2,0,0,1,0,49920.5,0.27277,0.272459,-0.00966851,26,0.0148042,10,-2.63427e-06,-5.01464,-0.0427371,-1.38053,0.527154,0.272459,
2,0,0,1,0,49922,0.271272,0.270955,-0.0108312,26,0.0147767,10,-2.93477e-06,-4.96532,-0.0567738,-1.03921,0.425115,0.270955,
2,0,0,1,0,49923.5,0.269774,0.269441,-0.0113724,26,0.0147478,10,-3.06418e-06,-4.94415,-0.0423124,-1.39439,0.627414,0.269441,
2,0,0,1,0,49925,0.268275,0.267962,-0.0121488,26,0.0147179,10,-3.25541e-06,-4.91547,-0.0555745,-1.06164,0.50346,0.267962,
2,0,0,1,0,49926.5,0.266777,0.266477,-0.0131857,26,0.0146867,10,-3.51368e-06,-4.8799,-0.0584537,-1.00935,0.51357,0.266477,
2,0,0,1,0,49928,0.265279,0.264962,-0.0139942,26,0.0146542,10,-3.70793e-06,-4.85405,-0.0536635,-1.09944,0.598757,0.264962,
2,0,0,1,0,49929.5,0.263781,0.263401,-0.0142494,26,0.0146205,10,-3.75331e-06,-4.8462,-0.0689325,-0.855909,0.485503,0.263401,
2,0,0,1,0,49931,0.262283,0.261988,-0.0150163,26,0.0145857,10,-3.93409e-06,-4.82344,-0.070518,-0.836666,0.505065,0.261988,
2,0,0,1,0,49932.5,0.260784,0.260512,-0.0155704,26,0.0145504,10,-4.05629e-06,-4.8077,-0.0846874,-0.69668,0.431218,0.260512,
2,0,0,1,0,49934,0.259286,0.258981,-0.0163995,26,0.0145138,10,-4.24715e-06,-4.78517,-0.0710714,-0.830151,0.530216,0.258981,
2,0,0,1,0,49935.5,0.257788,0.257488,-0.0175668,26,0.014476,10,-4.52325e-06,-4.75531,-0.0923478,-0.638889,0.426374,0.257488,
2,0,0,1,0,49937,0.25629,0.255985,-0.017597,26,0.0144374,10,-4.50459e-06,-4.75456,-0.145007,-0.406876,0.27865,0.255985,
2,0,0,1,0,49938.5,0.254792,0.254483,-0.01808,26,0.014398,10,-4.60106e-06,-4.7428,-0.110471,-0.534074,0.38593,0.254483,
2,0,0,1,0,49940,0.253293,0.253005,-0.018819,26,0.0143577,10,-4.7613e-06,-4.7254,-0.0945915,-0.623734,0.461761,0.253005,
2,0,0,1,0,49941.5,0.251795,0.251489,-0.0196224,26,0.0143162,10,-4.93482e-06,-4.70725,-0.0863104,-0.683579,0.525684,0.251489,
2,0,0,1,0,49943,0.250297,0.249978,-0.0204387,26,0.0142739,10,-5.10922e-06,-4.68955,-0.146525,-0.402662,0.319473,0.249978,
2,0,0,1,0,49944.5,0.248799,0.248486,-0.0211188,26,0.0142303,10,-5.24772e-06,-4.67533,-0.105694,-0.558213,0.454556,0.2484863,
2,0,0,1,0,49946,0.247301,0.246964,-0.0212555,26,0.0141861,10,-5.24934e-06,-4.67253,-0.147073,-0.401161,0.341612,0.246964,
2,0,0,1,0,49947.5,0.245802,0.245519,-0.0221768,26,0.0141406,10,-5.44483e-06,-4.6541,-0.121681,-0.484873,0.421515,0.245519,
2,0,0,1,0,49949,0.244304,0.243991,-0.0227829,26,0.0140943,10,-5.55882e-06,-4.64239,-0.154359,-0.382225,0.344085,0.243991,
2,0,0,1,0,49950.5,0.242806,0.242517,-0.0236086,26,0.014047,10,-5.72549e-06,-4.62693,-0.0970492,-0.607939,0.555849,0.242517,
2,0,0,1,0,49952,0.241308,0.240991,-0.0242886,26,0.0139988,10,-5.85335e-06,-4.6146,-0.133116,-0.443222,0.4183,0.240991,
2,0,0,1,0,49953.5,0.23981,0.239521,-0.0243762,26,0.0139495,10,-5.8386e-06,-4.61303,-0.130093,-0.453521,0.437628,0.239521,
2,0,0,1,0,49955,0.238312,0.238054,-0.0252253,26,0.0138994,10,-6.005e-06,-4.59816,-0.127908,-0.46127,0.459733,0.238054,
2,0,0,1,0,49956.5,0.236813,0.236531,-0.0256626,26,0.0138484,10,-6.07001e-06,-4.5907,-0.120153,-0.491041,0.491169,0.236531,
2,0,0,1,0,49958,0.235315,0.235005,-0.0260838,26,0.0137966,10,-6.12984e-06,-4.58363,-0.178364,-0.330785,0.340782,0.235005,
2,0,0,1,0,49959.5,0.233817,0.233531,-0.0272746,26,0.0137436,10,-6.36948e-06,-4.56424,-0.145682,-0.404991,0.422833,0.2335314,
2,0,0,1,0,49961,0.232319,0.231994,-0.0274603,26,0.0136898,10,-6.37062e-06,-4.56129,-0.165871,-0.355698,0.383409,0.231994,
2,0,0,1,0,49962.5,0.230821,0.230553,-0.0282249,26,0.0136349,10,-6.50732e-06,-4.54937,-0.173108,-0.340828,0.374464,0.230553,
2,0,0,1,0,49964,0.229322,0.229011,-0.0284046,26,0.0135793,10,-6.50496e-06,-4.54661,-0.217357,-0.271443,0.307041,0.229011,
2,0,0,1,0,49965.5,0.227824,0.227506,-0.0293825,26,0.0135228,10,-6.6847e-06,-4.53191,-0.206153,-0.286195,0.330178,0.227506,
2,0,0,1,0,49967,0.226326,0.226024,-0.0301097,26,0.0134653,10,-6.8055e-06,-4.52129,-0.182579,-0.323148,0.378414,0.226024,
2,0,0,1,0,49968.5,0.224828,0.224465,-0.0305645,26,0.0134069,10,-6.86066e-06,-4.51478,-0.160736,-0.367062,0.442608,0.224465,
2,0,0,1,0,49970,0.22333,0.223016,-0.0313907,26,0.0133477,10,-7.00065e-06,-4.5032,-0.146973,-0.401434,0.488872,0.2230164,
2,0,0,1,0,49971.5,0.221831,0.221506,-0.0321235,26,0.0132871,10,-7.11556e-06,-4.49318,-0.140884,-0.418784,0.524458,0.2215064,
2,0,0,1,0,49973,0.220333,0.220063,-0.0325906,26,0.0132255,10,-7.172e-06,-4.48691,-0.318261,-0.185383,0.23543,0.220063,
2,0,0,1,0,49974.5,0.218835,0.218524,-0.0333817,26,0.0131628,10,-7.29468e-06,-4.47649,-0.24585,-0.239984,0.308446,0.218524,
2,0,0,1,0,49976,0.217337,0.217026,-0.0336183,26,0.0130996,10,-7.29605e-06,-4.47342,-0.437502,-0.134857,0.175422,0.217026,
2,0,0,1,0,49977.5,0.215839,0.215494,-0.0337347,26,0.0130362,10,-7.26963e-06,-4.47192,-0.209501,-0.281622,0.375881,0.215494,
2,0,0,1,0,49978.9,0.21434,0.21402,-0.034561,26,0.0129717,10,-7.39674e-06,-4.46141,-0.189378,-0.311545,0.41774,0.21402,
2,0,0,1,0,49980.4,0.212842,0.212513,-0.0350281,26,0.0129061,10,-7.44394e-06,-4.45558,-0.19174,-0.307709,0.42293,0.212513,
2,0,0,1,0,49981.9,0.211344,0.211005,-0.0356737,26,0.0128399,10,-7.52734e-06,-4.44765,-0.247075,-0.238794,0.333611,0.211005,
2,0,0,1,0,49983.4,0.209846,0.209545,-0.0358738,26,0.0127728,10,-7.51718e-06,-4.44522,-0.221268,-0.266645,0.375065,0.209545,
2,0,0,1,0,49984.9,0.208348,0.208054,-0.0365578,26,0.0127048,10,-7.606e-06,-4.43702,-0.310588,-0.189962,0.27136,0.208054,
2,0,0,1,0,49986.4,0.20685,0.206536,-0.03785,26,0.0126359,10,-7.81737e-06,-4.42193,-0.297457,-0.198348,0.288677,0.206536,
2,0,0,1,0,49987.9,0.205351,0.205027,-0.0375201,26,0.0125659,10,-7.69262e-06,-4.42574,-0.272993,-0.216123,0.315619,0.205027,
2,0,0,1,0,49989.4,0.203853,0.203531,-0.0384101,26,0.0124954,10,-7.81765e-06,-4.41556,-0.413616,-0.142645,0.21424,0.203531,
2,0,0,1,0,49990.9,0.202355,0.202025,-0.0384888,26,0.0124243,10,-7.77569e-06,-4.41467,-0.199747,-0.295374,0.450068,0.2020247,
2,0,0,1,0,49992.4,0.200857,0.200554,-0.0393692,26,0.0123522,10,-7.89564e-06,-4.40484,-0.178004,-0.331454,0.512648,0.200554,
2,0,0,1,0,49993.9,0.199359,0.199042,-0.0399558,26,0.012279,10,-7.95287e-06,-4.39842,-0.406286,-0.145218,0.224351,0.199042,
2,0,0,1,0,49995.4,0.19786,0.197497,-0.040375,26,0.0122049,10,-7.97392e-06,-4.39389,-0.281363,-0.209694,0.33175,0.197497,
2,0,0,1,0,49996.9,0.196362,0.196062,-0.0409239,26,0.0121304,10,-8.02361e-06,-4.38802,-0.310813,-0.189825,0.304908,0.196062,
2,0,0,1,0,49998.4,0.194864,0.194535,-0.0416125,26,0.0120549,10,-8.09509e-06,-4.38078,-0.240276,-0.245551,0.400173,0.194535,
2,0,0,1,0,49999.9,0.193366,0.192998,-0.0423503,26,0.0119779,10,-8.17354e-06,-4.37314,-0.259113,-0.2277,0.374673,0.192998,
2,0,0,1,0,50001.4,0.191868,0.191513,-0.042835,26,0.0119002,10,-8.20345e-06,-4.3682,-0.293264,-0.201184,0.340324,0.191513,
2,0,0,1,0,50002.9,0.190369,0.190025,-0.0431395,26,0.0118219,10,-8.19759e-06,-4.36512,-0.180922,-0.326107,0.558655,0.190025,
2,0,0,1,0,50004.4,0.188871,0.188539,-0.0444768,26,0.0117423,10,-8.38563e-06,-4.35187,-0.19592,-0.301144,0.520174,0.188539,
2,0,0,1,0,50005.9,0.187373,0.187093,-0.0454969,26,0.0116612,10,-8.51216e-06,-4.34202,-0.246783,-0.239076,0.418368,0.187093,
2,0,0,1,0,50007.4,0.185875,0.185564,-0.0457732,26,0.0115791,10,-8.49385e-06,-4.33939,-0.177351,-0.332675,0.592323,0.185564,
2,0,0,1,0,50008.9,0.184377,0.1841,-0.0463377,26,0.0114961,10,-8.53075e-06,-4.33407,-0.261038,-0.226021,0.408511,0.1841,
2,0,0,1,0,50010.4,0.182878,0.18254,-0.046891,26,0.0114121,10,-8.55947e-06,-4.32891,-0.1953,-0.302099,0.556607,0.18254,
2,0,0,1,0,50011.9,0.18138,0.181022,-0.0477487,26,0.011327,10,-8.64357e-06,-4.32104,-0.257453,-0.229168,0.426792,0.181022,
2,0,0,1,0,50013.4,0.179882,0.179562,-0.04828,26,0.011241,10,-8.66926e-06,-4.31623,-0.333772,-0.176768,0.333844,0.179562,
2,0,0,1,0,50014.9,0.178384,0.178053,-0.049071,26,0.0111539,10,-8.73724e-06,-4.30918,-0.186611,-0.316165,0.60542,0.178053,
2,0,0,1,0,50016.4,0.176886,0.176604,-0.0497468,26,0.0110659,10,-8.78547e-06,-4.30323,-0.208407,-0.2831,0.552053,0.176604,
2,0,0,1,0,50017.9,0.175388,0.175063,-0.0506477,26,0.0109764,10,-8.86652e-06,-4.29544,-0.181524,-0.325026,0.648834,0.175063,
2,0,0,1,0,50019.4,0.173889,0.173553,-0.0521047,26,0.0108852,10,-9.04291e-06,-4.28312,-0.177164,-0.333024,0.673194,0.173553,
2,0,0,1,0,50020.9,0.172391,0.172089,-0.0527656,26,0.0107926,10,-9.0804e-06,-4.27765,-0.209634,-0.281443,0.578673,0.172089,
2,0,0,1,0,50022.4,0.170893,0.170555,-0.0536034,26,0.010699,10,-9.14233e-06,-4.27081,-0.17355,-0.339959,0.707595,0.170555,
2,0,0,1,0,50023.9,0.169395,0.169081,-0.0543756,26,0.0106035,10,-9.19387e-06,-4.2646,-0.158308,-0.37269,0.785874,0.169081,
2,0,0,1,0,50025.4,0.167897,0.167602,-0.0551583,26,0.0105066,10,-9.24463e-06,-4.25839,-0.165958,-0.355512,0.770408,0.167602,
2,0,0,1,0,50026.9,0.166398,0.166068,-0.0562671,26,0.0104083,10,-9.34418e-06,-4.24975,-0.204361,-0.288705,0.635847,0.1660683,
2,0,0,1,0,50028.4,0.1649,0.16461,-0.0572508,26,0.0103085,10,-9.42406e-06,-4.24222,-0.166948,-0.353403,0.793487,0.16461,
2,0,0,1,0,50029.9,0.163402,0.163115,-0.0587029,26,0.0102069,10,-9.57533e-06,-4.23134,-0.165577,-0.35633,0.815125,0.163115,
2,0,0,1,0,50031.4,0.161904,0.161583,-0.0600275,26,0.0101032,10,-9.6994e-06,-4.22165,-0.168193,-0.350788,0.821899,0.161583,
2,0,0,1,0,50032.9,0.160406,0.160114,-0.061224,26,0.00999761,10,-9.80282e-06,-4.21308,-0.127627,-0.462285,1.11042,0.160114,
2,0,0,1,0,50034.4,0.158907,0.158617,-0.0628037,26,0.0098896,10,-9.96173e-06,-4.20201,-0.14247,-0.414122,1.01681,0.1586168,
2,0,0,1,0,50035.9,0.157409,0.157127,-0.0642426,26,0.00977908,10,-1.00942e-05,-4.19218,-0.158485,-0.372274,0.937491,0.157127,
2,0,0,1,0,50037.4,0.155911,0.155567,-0.066259,26,0.00966616,10,-1.03077e-05,-4.17875,-0.152724,-0.386319,0.995127,0.155567,
2,0,0,1,0,50038.9,0.154413,0.154064,-0.0676071,26,0.00955076,10,-1.04158e-05,-4.17001,-0.149976,-0.393397,1.03843,0.154064,
2,0,0,1,0,50040.4,0.152915,0.152568,-0.0690866,26,0.00943306,10,-1.05404e-05,-4.16061,-0.134887,-0.437404,1.18959,0.152568,
2,0,0,1,0,50041.9,0.151417,0.151086,-0.071227,26,0.00931262,10,-1.07614e-05,-4.14736,-0.119503,-0.493711,1.37547,0.151086,
2,0,0,1,0,50043.4,0.149918,0.149581,-0.0735067,26,0.00918893,10,-1.09952e-05,-4.13367,-0.10348,-0.570158,1.63379,0.1495811,
2,0,0,1,0,50044.9,0.14842,0.1481,-0.0760539,26,0.0090617,10,-1.12636e-05,-4.11888,-0.103748,-0.568685,1.67997,0.1481,
2,0,0,1,0,50046.4,0.146922,0.146629,-0.0783802,26,0.00893073,10,-1.14928e-05,-4.10579,-0.100386,-0.587729,1.79847,0.146629,
2,0,0,1,0,50047.9,0.145424,0.145098,-0.0812419,26,0.00879582,10,-1.1788e-05,-4.09022,-0.0928523,-0.635418,2.02744,0.145098,
2,0,0,1,0,50049.4,0.143926,0.143647,-0.0844219,26,0.00865588,10,-1.2127e-05,-4.07354,-0.0782186,-0.754296,2.48442,0.143647,
2,0,0,1,0,50050.9,0.142427,0.142116,-0.0882604,26,0.00851009,10,-1.25432e-05,-4.05423,-0.0807587,-0.730572,2.51943,0.142116,
2,0,0,1,0,50052.4,0.140929,0.140616,-0.0919819,26,0.00835877,10,-1.29342e-05,-4.0363,-0.0850978,-0.69332,2.49848,0.140616,
2,0,0,1,0,50053.9,0.139431,0.139103,-0.095641,26,0.00820176,10,-1.3304e-05,-4.01936,-0.0730747,-0.807393,3.03236,0.139103,
2,0,0,1,0,50055.4,0.137933,0.137641,-0.100535,26,0.00803822,10,-1.38378e-05,-3.99768,-0.0767067,-0.769163,3.01654,0.137641,
2,0,0,1,0,50056.9,0.136435,0.136118,-0.105508,26,0.00786769,10,-1.43616e-05,-3.97671,-0.078788,-0.748845,3.07498,0.136118,
2,0,0,1,0,50058.4,0.134936,0.134614,-0.10981,26,0.00769009,10,-1.4782e-05,-3.95936,-0.082525,-0.714935,3.05469,0.134614,
2,0,0,1,0,50059.9,0.133438,0.133107,-0.114112,26,0.00750567,10,-1.51891e-05,-3.94267,-0.0852419,-0.692148,3.08398,0.133107,
2,0,0,1,0,50061.4,0.13194,0.131581,-0.118846,26,0.00731464,10,-1.56378e-05,-3.92502,-0.0954948,-0.617835,2.86716,0.131581,
2,0,0,1,0,50062.8,0.130442,0.130097,-0.122428,26,0.00711703,10,-1.59275e-05,-3.91212,-0.109509,-0.538767,2.57352,0.130097,
2,0,0,1,0,50064.3,0.128944,0.128589,-0.126189,26,0.00691367,10,-1.62266e-05,-3.89898,-0.151387,-0.389729,1.9122,0.128589,
2,0,0,1,0,50065.8,0.127445,0.127106,-0.129864,26,0.0067054,10,-1.65065e-05,-3.88651,-0.156009,-0.378184,1.90345,0.1271058,
2,0,0,1,0,50067.3,0.125947,0.125587,-0.132028,26,0.00649336,10,-1.65811e-05,-3.87933,-0.174734,-0.337657,1.7356,0.125587,
2,0,0,1,0,50068.8,0.124449,0.12414,-0.134679,26,0.0062772,10,-1.67191e-05,-3.8707,-0.207339,-0.284558,1.48347,0.12414,
2,0,0,1,0,50070.3,0.122951,0.122622,-0.135912,26,0.00605788,10,-1.66659e-05,-3.86674,-0.315943,-0.186743,0.989576,0.1226224,
2,0,0,1,0,50071.8,0.121453,0.121138,-0.137212,26,0.00583637,10,-1.66215e-05,-3.86261,-0.403709,-0.146145,0.781316,0.121138,
2,0,0,1,0,50073.3,0.119955,0.119698,-0.138027,26,0.00561355,10,-1.65215e-05,-3.86004,-0.461151,-0.127941,0.690263,0.119698,
2,0,0,1,0,50074.8,0.118456,0.118131,-0.138699,26,0.00538892,10,-1.63845e-05,-3.85793,-0.562475,-0.104894,0.566819,0.118131,
2,0,0,1,0,50076.3,0.116958,0.116613,-0.14,26,0.00516328,10,-1.63258e-05,-3.85387,-1.54676,-0.0381443,0.207873,0.116613,
2,0,0,1,0,50077.8,0.11546,0.115094,-0.140093,26,0.00493743,10,-1.61238e-05,-3.85358,2.3071,0.0255732,-0.139389,0.1150936,
2,0,0,1,0,50079.3,0.113962,0.113606,-0.138748,26,0.00471185,10,-1.57626e-05,-3.85777,-9.90008,-0.00595955,0.0324422,0.113606,
2,0,0,1,0,50080.8,0.112464,0.112154,-0.139592,26,0.00448635,10,-1.56558e-05,-3.85514,3.40149,0.0173453,-0.0942829,0.112154,
2,0,0,1,0,50082.3,0.110965,0.110632,-0.14003,26,0.00426027,10,-1.54919e-05,-3.85378,1.4627,0.0403363,-0.219128,0.110632,
2,0,0,1,0,50083.8,0.109467,0.109147,-0.13983,26,0.00403448,10,-1.5262e-05,-3.8544,1.87165,0.031523,-0.171353,0.1091468,
2,0,0,1,0,50085.3,0.107969,0.107644,-0.138919,26,0.00380886,10,-1.49538e-05,-3.85724,2.49198,0.023676,-0.129015,0.107644,
2,0,0,1,0,50086.8,0.106471,0.106155,-0.139223,26,0.003584,10,-1.47793e-05,-3.85629,3.97341,0.0148487,-0.081104,0.106155,
2,0,0,1,0,50088.3,0.104973,0.104676,-0.138992,26,0.00335901,10,-1.45491e-05,-3.85701,3.20448,0.0184117,-0.0999848,0.104676,
2,0,0,1,0,50089.8,0.103474,0.103128,-0.139391,26,0.00313352,10,-1.43751e-05,-3.85576,1.84284,0.0320158,-0.173232,0.103128,
2,0,0,1,0,50091.3,0.101976,0.101653,-0.138521,26,0.00290893,10,-1.4081e-05,-3.85849,0.638414,0.0924165,-0.499869,0.101653,
2,0,0,1,0,50092.8,0.100478,0.100151,-0.138044,26,0.00268554,10,-1.38253e-05,-3.85998,0.965504,0.061108,-0.328547,0.100151,
2,0,0,1,0,50094.3,0.0989798,0.0986551,-0.137486,26,0.00246266,10,-1.35637e-05,-3.86174,1.57027,0.0375731,-0.20164,0.0986551,
2,0,0,1,0,50095.8,0.0974816,0.0971684,-0.136851,26,0.00224031,10,-1.32976e-05,-3.86375,1.12725,0.0523398,-0.279389,0.0971684,
2,0,0,1,0,50097.3,0.0959834,0.0956722,-0.136188,26,0.0020187,10,-1.30294e-05,-3.86586,0.612753,0.0962867,-0.513231,0.0956722,
2,0,0,1,0,50098.8,0.0944852,0.0941791,-0.135687,26,0.00179883,10,-1.27789e-05,-3.86746,0.583664,0.101086,-0.535962,0.0941791,
2,0,0,1,0,50100.3,0.0929871,0.0926861,-0.134574,26,0.00157985,10,-1.24731e-05,-3.87104,1.12214,0.0525782,-0.276701,0.0926861,
2,0,0,1,0,50101.8,0.0914889,0.0911528,-0.134586,26,0.00136169,10,-1.22679e-05,-3.871,0.495266,0.119128,-0.622046,0.09115278,
2,0,0,1,0,50103.3,0.0899907,0.0896449,-0.133528,26,0.00114496,10,-1.19701e-05,-3.87443,0.433886,0.13598,-0.706388,0.0896449,
2,0,0,1,0,50104.8,0.0884925,0.0881518,-0.131316,26,0.000930206,10,-1.15757e-05,-3.88168,0.550126,0.107248,-0.553511,0.0881518,
2,0,0,1,0,50106.3,0.0869943,0.0866726,-0.13124,26,0.000716794,10,-1.13749e-05,-3.88193,0.577568,0.102153,-0.52269,0.0866726,
2,0,0,1,0,50107.8,0.0854961,0.0852028,-0.130421,26,0.000504317,10,-1.11122e-05,-3.88465,0.477132,0.123655,-0.629242,0.0852028,
2,0,0,1,0,50109.3,0.083998,0.083678,-0.129747,26,0.000293347,10,-1.08569e-05,-3.8869,0.407176,0.144901,-0.732277,0.083678,
2,0,0,1,0,50110.8,0.0824998,0.0821542,-0.128417,26,8.37814e-05,10,-1.055e-05,-3.89138,0.378794,0.155758,-0.783036,0.0821542,
2,0,0,1,0,50112.3,0.0810016,0.0806834,-0.127995,26,-0.000124601,10,-1.03271e-05,-3.89281,0.669612,0.0881107,-0.440947,0.0806834,
2,0,0,1,0,50113.8,0.0795034,0.0792031,-0.126623,26,-0.000331523,10,-1.00289e-05,-3.89749,0.495762,0.119009,-0.591224,0.0792031,
2,0,0,1,0,50115.3,0.0780052,0.0776506,-0.126354,26,-0.000537422,10,-9.81145e-06,-3.89841,0.547718,0.10772,-0.529885,0.0776506,
2,0,0,1,0,50116.8,0.076507,0.076183,-0.125802,26,-0.00074176,10,-9.58394e-06,-3.90031,0.60841,0.096974,-0.4735,0.076183,
2,0,0,1,0,50118.3,0.0750088,0.0746921,-0.124695,26,-0.000944695,10,-9.31369e-06,-3.90415,0.512606,0.115098,-0.55862,0.0746921,
2,0,0,1,0,50119.8,0.0735106,0.0731937,-0.123612,26,-0.00114693,10,-9.04765e-06,-3.90794,1.02345,0.0576482,-0.278051,0.0731937,
2,0,0,1,0,50121.3,0.0720124,0.0716741,-0.123296,26,-0.00134831,10,-8.83713e-06,-3.90905,0.641627,0.0919537,-0.442819,0.0716741,
2,0,0,1,0,50122.8,0.0705142,0.0702034,-0.122377,26,-0.00154868,10,-8.59126e-06,-3.9123,0.420002,0.140476,-0.672452,0.0702034,
2,0,0,1,0,50124.3,0.069016,0.06867,-0.121454,26,-0.00174752,10,-8.34021e-06,-3.91559,0.811871,0.0726716,-0.347302,0.06867,
2,0,0,1,0,50125.8,0.0675178,0.0671855,-0.121134,26,-0.00194551,10,-8.13845e-06,-3.91673,1.16386,0.0506936,-0.239415,0.0671855,
2,0,0,1,0,50127.3,0.0660196,0.065704,-0.121542,26,-0.00214289,10,-7.98578e-06,-3.91527,0.538223,0.10962,-0.515214,0.06570404,
2,0,0,1,0,50128.8,0.0645214,0.0642056,-0.119907,26,-0.0023393,10,-7.69873e-06,-3.92115,0.585383,0.100789,-0.470829,0.0642056,
2,0,0,1,0,50130.3,0.0630233,0.0627095,-0.118258,26,-0.00253412,10,-7.41592e-06,-3.92717,0.546198,0.108019,-0.502649,0.0627095,
2,0,0,1,0,50131.8,0.0615251,0.061227,-0.118693,26,-0.00272783,10,-7.26721e-06,-3.92558,0.71886,0.0820743,-0.380117,0.061227,
2,0,0,1,0,50133.3,0.0600269,0.0597117,-0.117874,26,-0.00292106,10,-7.03847e-06,-3.92858,0.882413,0.0668621,-0.307198,0.0597117,
2,0,0,1,0,50134.8,0.0585287,0.0582314,-0.117823,26,-0.00311363,10,-6.86098e-06,-3.92877,0.579405,0.101829,-0.466112,0.0582314,
2,0,0,1,0,50136.3,0.0570305,0.0566811,-0.116869,26,-0.00330521,10,-6.62429e-06,-3.9323,0.665505,0.0886544,-0.405928,0.0566811,
2,0,0,1,0,50137.8,0.0555323,0.0552294,-0.116448,26,-0.00349561,10,-6.43134e-06,-3.93387,0.820803,0.0718808,-0.327613,0.0552294,
2,0,0,1,0,50139.3,0.0540342,0.0536823,-0.116398,26,-0.00368558,10,-6.24854e-06,-3.93405,0.677818,0.0870441,-0.393741,0.0536823,
2,0,0,1,0,50140.8,0.052536,0.0521882,-0.115491,26,-0.00387517,10,-6.02727e-06,-3.93745,0.6752,0.0873815,-0.392329,0.0521882,
2,0,0,1,0,50142.3,0.0510378,0.0507195,-0.114976,26,-0.00406358,10,-5.83153e-06,-3.93939,0.736365,0.0801233,-0.358643,0.0507195,
2,0,0,1,0,50143.8,0.0495396,0.0492296,-0.114273,26,-0.00425018,10,-5.62564e-06,-3.94205,1.02354,0.0576432,-0.257164,0.0492296,
2,0,0,1,0,50145.2,0.0480414,0.047726,-0.113451,26,-0.00443641,10,-5.41456e-06,-3.94519,7.78293,0.00758069,-0.0335659,0.047726,
2,0,0,1,0,50146.7,0.0465432,0.0462075,-0.113447,26,-0.00462208,10,-5.2421e-06,-3.94521,0.796921,0.0740349,-0.327252,0.0462075,
2,0,0,1,0,50148.2,0.045045,0.0447049,-0.112843,26,-0.00480698,10,-5.04464e-06,-3.94752,0.694996,0.0848926,-0.373349,0.0447049,
2,0,0,1,0,50149.7,0.0435468,0.043233,-0.111548,26,-0.00499071,10,-4.82256e-06,-3.95254,0.692864,0.0851538,-0.372799,0.043233,
2,0,0,1,0,50151.2,0.0420486,0.0417664,-0.110965,26,-0.00517373,10,-4.63461e-06,-3.95481,0.70636,0.0835268,-0.362938,0.0417664,
2,0,0,1,0,50152.7,0.0405504,0.0402405,-0.111536,26,-0.00535611,10,-4.48825e-06,-3.95259,0.83279,0.0708462,-0.306395,0.0402405,
2,0,0,1,0,50154.2,0.0390522,0.0387156,-0.110376,26,-0.00553778,10,-4.27327e-06,-3.95713,0.66118,0.0892345,-0.384321,0.0387156,
2,0,0,1,0,50155.7,0.037554,0.0372395,-0.109688,26,-0.00571826,10,-4.08475e-06,-3.95984,0.658175,0.0896419,-0.384491,0.0372395,
2,0,0,1,0,50157.2,0.0360558,0.0357264,-0.109282,26,-0.00589778,10,-3.90427e-06,-3.96145,0.669981,0.0880622,-0.375497,0.0357264,
2,0,0,1,0,50158.7,0.0345576,0.0342174,-0.108557,26,-0.00607656,10,-3.71455e-06,-3.96434,1.06121,0.055597,-0.236056,0.0342174,
2,0,0,1,0,50160.2,0.0330594,0.0327243,-0.108066,26,-0.0062546,10,-3.53639e-06,-3.96631,0.868277,0.0679507,-0.286666,0.03272434,
2,0,0,1,0,50161.7,0.0315613,0.0312207,-0.107538,26,-0.00643172,10,-3.35741e-06,-3.96844,0.599148,0.0984731,-0.41383,0.0312207,
2,0,0,1,0,50163.2,0.0300631,0.0297181,-0.107905,26,-0.00660793,10,-3.20673e-06,-3.96696,0.814856,0.0724054,-0.303374,0.0297181,
2,0,0,1,0,50164.7,0.0285649,0.0282601,-0.107196,26,-0.00678386,10,-3.02937e-06,-3.96982,2.18317,0.0270249,-0.112772,0.02826006,
2,0,0,1,0,50166.2,0.0270667,0.0267607,-0.106964,26,-0.00695979,10,-2.86242e-06,-3.97076,1.30726,0.0451324,-0.187336,0.0267607,
2,0,0,1,0,50167.7,0.0255685,0.0252273,-0.106548,26,-0.00713526,10,-2.68791e-06,-3.97246,0.698128,0.0845117,-0.351926,0.0252273,
2,0,0,1,0,50169.2,0.0240703,0.0237459,-0.105983,26,-0.00730954,10,-2.51665e-06,-3.97477,1.23703,0.0476948,-0.198541,0.0237459,
2,0,0,1,0,50170.7,0.0225722,0.0222826,-0.106106,26,-0.00748396,10,-2.36432e-06,-3.97426,-2.39733,-0.0246107,0.10196,0.0222826,
2,0,0,1,0,50172.2,0.021074,0.0207566,-0.105535,26,-0.00765813,10,-2.19056e-06,-3.9766,10.7725,0.00547689,-0.022753,0.0207566,
2,0,0,1,0,50173.7,0.0195758,0.0192117,-0.105292,26,-0.00783207,10,-2.02283e-06,-3.9776,2.56975,0.0229594,-0.0950373,0.0192117,
2,0,0,1,0,50175.2,0.0180776,0.0177123,-0.105256,26,-0.00800575,10,-1.86432e-06,-3.97775,-5.83963,-0.0101034,0.0416717,0.0177123,
2,0,0,1,0,50176.7,0.0165794,0.0163157,-0.105639,26,-0.00817925,10,-1.72357e-06,-3.97618,-75.2661,-0.000783885,0.00323248,0.0163157,
2,0,0,1,0,50178.2,0.0150812,0.0147579,-0.105943,26,-0.00835279,10,-1.56349e-06,-3.97493,-3.47722,-0.0169676,0.0701599,0.0147579,
2,0,0,1,0,50179.7,0.013583,0.0132331,-0.106045,26,-0.00852653,10,-1.40331e-06,-3.97451,-4.24189,-0.0139089,0.0573757,0.0132331,
2,0,0,1,0,50181.2,0.0120848,0.0117273,-0.105961,26,-0.00870062,10,-1.24263e-06,-3.97486,-2.46428,-0.0239421,0.0990168,0.0117273,
2,0,0,1,0,50182.7,0.0105866,0.0102798,-0.10619,26,-0.00887435,10,-1.09161e-06,-3.97392,-2.11666,-0.0278742,0.116233,0.0102798,
2,0,0,1,0,50184.2,0.00908843,0.00875067,-0.10653,26,-0.00904872,10,-9.32208e-07,-3.97253,-1.08339,-0.0544587,0.227354,0.00875067,
2,0,0,1,0,50185.7,0.00759024,0.00728201,-0.107,26,-0.00922376,10,-7.79174e-07,-3.97062,-1.15026,-0.0512928,0.214324,0.00728201,
2,0,0,1,0,50187.2,0.00609203,0.00578466,-0.10773,26,-0.00939935,10,-6.23182e-07,-3.96766,-0.666185,-0.0885639,0.370889,0.00578466,
2,0,0,1,0,50188.7,0.00459384,0.0042747,-0.108103,26,-0.00957548,10,-4.6211e-07,-3.96616,-0.666989,-0.0884572,0.372722,0.0042747,
2,0,0,1,0,50190.2,0.00309563,0.00277419,-0.108839,26,-0.00975278,10,-3.01941e-07,-3.96321,-0.400049,-0.147482,0.624398,0.00277419,
2,0,0,1,0,50191.7,0.00159744,0.0012228,-0.109574,26,-0.00993301,10,-1.33987e-07,-3.96029, , , ,0.0012228,
2,0,0,1,0,50193.1,0.000199235,-0.000195479,-0.109306,26,-0.0101003,10,2.13671e-08,-3.96136, , , ,-0.000195479,