File: Figure_codes/Fig_3-5/rawdata_trumpetplot_data/after 10th/20221101_1-115_003_TrumpetPlot_ParaChange_from10_every3_11_CV_C01_1.csv
mode,ox/red,error,control changes,counter inc.,time/s,control/V,Ewe/V,<I>/mA,cycle number,(Q-Qo)/C,I Range,P/W,log(|I|),Tafel slope mV/dec,alpha_eff,dI/d(E-IR),E-IR/V,
2,1,0,1,0,3164.65,2.44065e-05,-0.000344411,10.2972,2,0.0000000E+000,10,-3.54646e-06,-1.98728, , , ,-0.000344411,
2,1,0,1,0,3164.66,0.00214129,0.00177216,11.7728,2,5.68572e-05,10,2.08633e-05,-1.92912, , , ,0.00177216,
2,1,0,1,0,3164.66,0.00454949,0.00423124,13.0828,2,0.000131774,10,5.53565e-05,-1.8833,0.0617294,0.955784,475.533,0.00423124,
2,1,0,1,0,3164.67,0.0069466,0.00661186,14.0633,2,0.000213381,10,9.29843e-05,-1.85191,0.0828759,0.711908,385.621,0.00661186,
2,1,0,1,0,3164.67,0.0093437,0.00903276,14.9036,2,0.000300426,10,0.00013462,-1.82671,0.103166,0.571896,329.8,0.00903276,
2,1,0,1,0,3164.68,0.0117408,0.011425,15.6321,2,0.000392127,10,0.000178598,-1.80598,0.128508,0.459115,278.12,0.011425,
2,1,0,1,0,3164.69,0.0141462,0.0137897,16.2511,2,0.000487878,10,0.000224099,-1.78912,0.154144,0.382759,241.385,0.0137897,
2,1,0,1,0,3164.69,0.0165433,0.0161958,16.7904,2,0.000587078,10,0.000271933,-1.77494,0.182273,0.32369,211.172,0.0161958,
2,1,0,1,0,3164.7,0.0189404,0.0185913,17.2492,2,0.00068927,10,0.000320684,-1.76323,0.210957,0.279678,187.837,0.0185913,
2,1,0,1,0,3164.7,0.0213486,0.0209729,17.6879,2,0.000794153,10,0.000370967,-1.75232,0.242936,0.242862,167.127,0.0209729,
2,1,0,1,0,3164.71,0.0237457,0.0233992,18.0559,2,0.000901445,10,0.000422493,-1.74338,0.280391,0.21042,147.963,0.02339915,
2,1,0,1,0,3164.72,0.0261429,0.0258222,18.3883,2,0.00101083,10,0.000474826,-1.73546,0.304037,0.194055,139.179,0.0258222,
2,1,0,1,0,3164.72,0.02854,0.0282357,18.7169,2,0.00112218,10,0.000528483,-1.72777,0.332549,0.177417,129.386,0.0282357,
2,1,0,1,0,3164.73,0.0309482,0.0305834,19.0121,2,0.00123544,10,0.000581453,-1.72097,0.363577,0.162277,120.259,0.0305834,
2,1,0,1,0,3164.73,0.0333453,0.033016,19.2881,2,0.00135035,10,0.000636815,-1.71471,0.391023,0.150886,113.596,0.033016,
2,1,0,1,0,3164.74,0.0357424,0.0353786,19.5639,2,0.00146692,10,0.000692142,-1.70854,0.402254,0.146673,111.915,0.03537856,
2,1,0,1,0,3164.75,0.0381478,0.0377963,19.8339,2,0.00158516,10,0.00074965,-1.70259,0.418137,0.141102,109.164,0.0377963,
2,1,0,1,0,3164.75,0.0405449,0.0401896,20.0797,2,0.00170492,10,0.000806997,-1.69724,0.433047,0.136244,106.84,0.0401896,
2,1,0,1,0,3164.76,0.042942,0.0426487,20.3538,2,0.00182626,10,0.000868062,-1.69136,0.416191,0.141762,112.602,0.04264871,
2,1,0,1,0,3164.76,0.0453391,0.0449837,20.6104,2,0.00194918,10,0.000927131,-1.68591,0.417974,0.141157,113.593,0.0449837,
2,1,0,1,0,3164.77,0.0477473,0.0474195,20.8873,2,0.00207374,10,0.000990463,-1.68012,0.426787,0.138242,112.66,0.0474195,
2,1,0,1,0,3164.78,0.0501444,0.0498478,21.1507,2,0.0021999,10,0.00105432,-1.67467,0.423416,0.139343,115.097,0.0498478,
2,1,0,1,0,3164.78,0.0525415,0.0521595,21.4427,2,0.0023277,10,0.00111844,-1.66872,0.410134,0.143855,120.421,0.0521595,
2,1,0,1,0,3164.79,0.0549469,0.0545846,21.7355,2,0.00245727,10,0.00118642,-1.66283,0.411135,0.143505,121.715,0.0545846,
2,1,0,1,0,3164.79,0.057344,0.0570225,22.0276,2,0.00258861,10,0.00125607,-1.65703,0.401695,0.146878,126.378,0.0570225,
2,1,0,1,0,3164.8,0.0597411,0.059383,22.3451,2,0.00272174,10,0.00132692,-1.65082,0.381806,0.154529,134.856,0.059383,
2,1,0,1,0,3164.81,0.0621438,0.0617912,22.6817,2,0.00285685,10,0.00140153,-1.64432,0.38428,0.153534,135.861,0.0617912,
2,1,0,1,0,3164.81,0.0645465,0.0642269,23.0045,2,0.00299395,10,0.00147751,-1.63819,0.376815,0.156575,140.635,0.0642269,
2,1,0,1,0,3164.82,0.0669436,0.0666118,23.3544,2,0.00313303,10,0.00155568,-1.63163,0.377493,0.156294,142.398,0.0666118,
2,1,0,1,0,3164.82,0.0693407,0.0690348,23.6924,2,0.00327423,10,0.0016356,-1.62539,0.374837,0.157402,145.5,0.0690348,
2,1,0,1,0,3164.83,0.0717489,0.0714504,24.0417,2,0.00341746,10,0.00171779,-1.61903,0.387855,0.152119,142.733,0.0714504,
2,1,0,1,0,3164.84,0.074146,0.0737907,24.3828,2,0.00356277,10,0.00179923,-1.61292,0.382378,0.154298,146.892,0.0737907,
2,1,0,1,0,3164.84,0.0765431,0.0761512,24.723,2,0.00371014,10,0.00188268,-1.6069,0.377251,0.156395,151.111,0.0761512,
2,1,0,1,0,3164.85,0.0789485,0.0785742,25.1155,2,0.0038597,10,0.00197343,-1.60006,0.374649,0.157481,154.378,0.0785742,
2,1,0,1,0,3164.85,0.0813456,0.0809782,25.4998,2,0.00401161,10,0.00206492,-1.59346,0.362081,0.162947,162.163,0.0809782,
2,1,0,1,0,3164.86,0.0837427,0.0834489,25.8925,2,0.00416581,10,0.0021607,-1.58683,0.374905,0.157373,158.989,0.0834489,
2,1,0,1,0,3164.87,0.0861398,0.0858125,26.2784,2,0.00432238,10,0.00225502,-1.5804,0.383233,0.153953,157.768,0.0858125,
2,1,0,1,0,3164.87,0.088548,0.0882059,26.652,2,0.00448122,10,0.00235086,-1.57427,0.388349,0.151925,158.033,0.0882059,
2,1,0,1,0,3164.88,0.0909451,0.0905642,27.0297,2,0.00464226,10,0.00244792,-1.56816,0.394499,0.149557,157.792,0.0905642,
2,1,0,1,0,3164.88,0.0933422,0.0929947,27.4199,2,0.00480566,10,0.00254991,-1.56193,0.393285,0.150018,160.434,0.09299469,
2,1,0,1,0,3164.89,0.0957477,0.0953849,27.7908,2,0.00497132,10,0.00265083,-1.5561,0.40802,0.144601,156.861,0.0953849,
2,1,0,1,0,3164.9,0.0981447,0.0978376,28.1633,2,0.00513923,10,0.00275543,-1.55032,0.410075,0.143876,158.153,0.0978376,
2,1,0,1,0,3164.9,0.100542,0.100193,28.5606,2,0.00530946,10,0.00286156,-1.54423,0.409291,0.144152,160.592,0.100193,
2,1,0,1,0,3164.91,0.102939,0.102639,28.9174,2,0.00548194,10,0.00296806,-1.53884,0.424608,0.138952,156.902,0.102639,
2,1,0,1,0,3164.91,0.105347,0.105049,29.3227,2,0.00565672,10,0.00308033,-1.5328,0.420865,0.140188,160.367,0.105049,
2,1,0,1,0,3164.92,0.107744,0.107416,29.7093,2,0.00583383,10,0.00319126,-1.52711,0.425863,0.138542,160.594,0.107416,
2,1,0,1,0,3164.93,0.110141,0.109767,30.0885,2,0.00601324,10,0.00330273,-1.5216,0.419013,0.140807,165.417,0.109767,
2,1,0,1,0,3164.93,0.11255,0.112198,30.4914,2,0.00619499,10,0.00342106,-1.51582,0.416387,0.141695,168.651,0.112198,
2,1,0,1,0,3164.94,0.114947,0.114623,30.9012,2,0.00637919,10,0.00354198,-1.51002,0.404894,0.145717,175.767,0.114623,
2,1,0,1,0,3164.94,0.117344,0.117015,31.3246,2,0.0065659,10,0.00366545,-1.50411,0.395996,0.148991,182.186,0.117015,
2,1,0,1,0,3164.95,0.119744,0.119444,31.7587,2,0.00675519,10,0.0037934,-1.49814,0.396378,0.148848,184.587,0.1194444,
2,1,0,1,0,3164.96,0.122146,0.121825,32.2109,2,0.00694718,10,0.0039241,-1.492,0.380559,0.155035,195.036,0.121825,
2,1,0,1,0,3164.96,0.124543,0.124236,32.6952,2,0.00714196,10,0.00406194,-1.48552,0.371967,0.158616,202.439,0.124236,
2,1,0,1,0,3164.97,0.126941,0.126631,33.1901,2,0.00733969,10,0.00420289,-1.47899,0.360952,0.163456,211.835,0.126631,
2,1,0,1,0,3164.97,0.129349,0.129022,33.7116,2,0.0075404,10,0.00434953,-1.47222,0.350831,0.168172,221.41,0.129022,
2,1,0,1,0,3164.98,0.131746,0.13142,34.2653,2,0.00774439,10,0.00450313,-1.46515,0.346003,0.170519,227.935,0.13142,
2,1,0,1,0,3164.99,0.134143,0.133818,34.8117,2,0.00795167,10,0.00465844,-1.45827,0.340883,0.17308,235.281,0.133818,
2,1,0,1,0,3164.99,0.13654,0.136189,35.3712,2,0.00816223,10,0.00481718,-1.45135,0.339794,0.173634,239.797,0.136189,
2,1,0,1,0,3165,0.138945,0.138603,35.9709,2,0.00837635,10,0.00498566,-1.44405,0.339611,0.173728,243.768,0.138603,
2,1,0,1,0,3165,0.141343,0.140995,36.5451,2,0.00859394,10,0.00515268,-1.43717,0.345786,0.170626,243.316,0.140995,
2,1,0,1,0,3165.01,0.14374,0.143411,37.1318,2,0.00881503,10,0.0053251,-1.43025,0.350548,0.168308,243.858,0.143411,
2,1,0,1,0,3165.02,0.146148,0.145805,37.7139,2,0.00903964,10,0.00549888,-1.4235,0.360415,0.1637,240.908,0.145805,
2,1,0,1,0,3165.02,0.148545,0.148233,38.2917,2,0.00926774,10,0.00567611,-1.41689,0.37675,0.156603,233.944,0.148233,
2,1,0,1,0,3165.03,0.150942,0.150579,38.8551,2,0.00949928,10,0.00585076,-1.41055,0.388339,0.151929,230.28,0.150579,
2,1,0,1,0,3165.03,0.153345,0.153014,39.3957,2,0.00973408,10,0.00602808,-1.40455,0.404862,0.145729,224.057,0.153014,
2,1,0,1,0,3165.04,0.155747,0.155418,39.9558,2,0.00997219,10,0.00620984,-1.39842,0.418293,0.14105,219.728,0.155418,
2,1,0,1,0,3165.05,0.158144,0.157817,40.4685,2,0.0102135,10,0.00638663,-1.39288,0.448431,0.13157,207.592,0.157817,
2,1,0,1,0,3165.05,0.160542,0.160234,40.9393,2,0.0104578,10,0.00655987,-1.38786,0.482309,0.122328,195.377,0.160234,
2,1,0,1,0,3165.06,0.162947,0.162625,41.4113,2,0.0107049,10,0.00673452,-1.38288,0.518404,0.113811,183.704,0.162625,
2,1,0,1,0,3165.06,0.165344,0.165008,41.8276,2,0.0109547,10,0.00690188,-1.37854,0.590729,0.0998766,162.787,0.165008,
2,1,0,1,0,3165.07,0.167741,0.167431,42.1712,2,0.0112067,10,0.00706077,-1.37498,0.693316,0.0850983,139.973,0.167431,
2,1,0,1,0,3165.08,0.170149,0.169838,42.506,2,0.0114608,10,0.00721913,-1.37155,0.84699,0.0696584,115.333,0.1698381,
2,1,0,1,0,3165.08,0.172547,0.172224,42.7277,2,0.0117166,10,0.00735874,-1.36929,1.29238,0.0456521,75.9547,0.172224,
2,1,0,1,0,3165.09,0.174944,0.17464,42.8629,2,0.0119734,10,0.00748557,-1.36792,3.65176,0.0161566,26.9626,0.17464,
2,1,0,1,0,3165.09,0.177341,0.177036,42.8728,2,0.0122307,10,0.00759003,-1.36782,-4.72249,-0.0124934,-20.8512,0.177036,
2,1,0,1,0,3165.1,0.179746,0.179432,42.7688,2,0.0124876,10,0.00767408,-1.36887,-1.18703,-0.0497039,-82.6723,0.179432,
2,1,0,1,0,3165.11,0.182143,0.181834,42.4967,2,0.0127435,10,0.00772736,-1.37164,-0.619652,-0.0952148,-157.243,0.181834,
2,1,0,1,0,3165.11,0.18454,0.184244,42.0132,2,0.0129971,10,0.00774067,-1.37661,-0.411198,-0.143483,-234.407,0.184244,
2,1,0,1,0,3165.12,0.186949,0.186615,41.3798,2,0.0132472,10,0.00772209,-1.38321,-0.303828,-0.194189,-312.135,0.186615,
2,1,0,1,0,3165.12,0.189346,0.189057,40.5262,2,0.013493,10,0.00766176,-1.39226,-0.233286,-0.252908,-397.906,0.189057,
2,1,0,1,0,3165.13,0.191743,0.191423,39.4427,2,0.0137329,10,0.00755023,-1.40403,-0.190232,-0.310147,-475.601,0.191423,
2,1,0,1,0,3165.14,0.19414,0.193845,38.2102,2,0.0139658,10,0.00740685,-1.41782,-0.161148,-0.366124,-543.868,0.193845,
2,1,0,1,0,3165.14,0.196548,0.196236,36.8483,2,0.014191,10,0.00723096,-1.43358,-0.13985,-0.421882,-603.974,0.196236,
2,1,0,1,0,3165.15,0.198945,0.198644,35.3169,2,0.0144074,10,0.00701549,-1.45202,-0.124121,-0.475342,-653.225,0.198644,
2,1,0,1,0,3165.15,0.201342,0.20102,33.7252,2,0.0146143,10,0.00677945,-1.47205,-0.116232,-0.507604,-666.975,0.20102,
2,1,0,1,0,3165.16,0.203748,0.20341,32.1217,2,0.0148117,10,0.00653387,-1.4932,-0.112211,-0.525794,-658.392,0.20341,
2,1,0,1,0,3165.17,0.206145,0.205835,30.5216,2,0.0149995,10,0.0062824,-1.51539,-0.107709,-0.54777,-652.387,0.205835,
2,1,0,1,0,3165.17,0.208542,0.208271,28.9762,2,0.0151778,10,0.00603491,-1.53796,-0.106278,-0.55515,-628.539,0.208271,
2,1,0,1,0,3165.18,0.210939,0.210627,27.5027,2,0.015347,10,0.00579279,-1.56063,-0.108096,-0.545813,-587.555,0.2106266,
2,1,0,1,0,3165.18,0.213347,0.213073,26.182,2,0.0155079,10,0.00557869,-1.582,-0.113761,-0.518633,-530.763,0.213073,
2,1,0,1,0,3165.19,0.215744,0.215435,24.9357,2,0.0156611,10,0.00537202,-1.60318,-0.117386,-0.502617,-490.653,0.215435,
2,1,0,1,0,3165.2,0.218141,0.21781,23.8082,2,0.0158072,10,0.00518565,-1.62327,-0.128525,-0.459053,-428.62,0.21781,
2,1,0,1,0,3165.2,0.220547,0.22025,22.8697,2,0.015947,10,0.00503704,-1.64074,-0.139865,-0.421834,-377.318,0.2202498,
2,1,0,1,0,3165.21,0.222944,0.222634,21.9898,2,0.0160815,10,0.00489566,-1.65778,-0.149293,-0.395195,-340.181,0.222634,
2,1,0,1,0,3165.21,0.225341,0.225059,21.2144,2,0.016211,10,0.00477449,-1.67337,-0.164203,-0.359312,-298.893,0.225059,
2,1,0,1,0,3165.22,0.227744,0.227415,20.5646,2,0.0163362,10,0.00467671,-1.68688,-0.184323,-0.32009,-257.668,0.227415,
2,1,0,1,0,3165.23,0.230146,0.229828,19.9914,2,0.0164578,10,0.0045946,-1.69916,-0.205149,-0.287595,-224.903,0.229828,
2,1,0,1,0,3165.23,0.232543,0.232245,19.4789,2,0.0165761,10,0.00452387,-1.71044,-0.222666,-0.26497,-201.983,0.232245,
2,1,0,1,0,3165.24,0.234941,0.234629,19.0377,2,0.0166916,10,0.00446679,-1.72039,-0.258269,-0.228444,-170.14,0.234629,
2,1,0,1,0,3165.24,0.237349,0.237024,18.661,2,0.0168046,10,0.0044231,-1.72907,-0.288735,-0.20434,-149.038,0.2370244,
2,1,0,1,0,3165.25,0.239746,0.239422,18.3147,2,0.0169155,10,0.00438495,-1.7372,-0.305876,-0.192888,-138.074,0.239422,
2,1,0,1,0,3165.26,0.242143,0.241834,17.9959,2,0.0170244,10,0.00435203,-1.74483,-0.354758,-0.166311,-117.089,0.241834,
2,1,0,1,0,3165.26,0.244548,0.24423,17.7474,2,0.0171315,10,0.00433445,-1.75086,-0.385377,-0.153097,-106.103,0.24423,
2,1,0,1,0,3165.27,0.246946,0.246642,17.5003,2,0.0172373,10,0.00431633,-1.75695,-0.415073,-0.142144,-97.0823,0.246642,
2,1,0,1,0,3165.27,0.249343,0.249017,17.2594,2,0.0173415,10,0.00429787,-1.76298,-0.445831,-0.132337,-89.3475,0.249017,
2,1,0,1,0,3165.28,0.25174,0.251406,17.0645,2,0.0174445,10,0.00429012,-1.76791,-0.489777,-0.120463,-80.3012,0.2514056,
2,1,0,1,0,3165.29,0.254148,0.253856,16.905,2,0.0175464,10,0.00429144,-1.77198,-0.534065,-0.110473,-72.8268,0.253856,
2,1,0,1,0,3165.29,0.256545,0.256236,16.7139,2,0.0176472,10,0.0042827,-1.77692,-0.545274,-0.108202,-70.6684,0.256236,
2,1,0,1,0,3165.3,0.258942,0.258667,16.5606,2,0.017747,10,0.00428368,-1.78092,-0.630046,-0.0936439,-60.5632,0.258667,
2,1,0,1,0,3165.3,0.261348,0.261022,16.4208,2,0.0178459,10,0.00428619,-1.78461,-0.635183,-0.0928866,-59.5037,0.261022,
2,1,0,1,0,3165.31,0.263745,0.263453,16.2785,2,0.017944,10,0.00428863,-1.78838,-0.649167,-0.0908857,-57.762,0.263453,
2,1,0,1,0,3165.32,0.266142,0.265813,16.1472,2,0.0180412,10,0.00429213,-1.7919,-0.743708,-0.0793322,-50.0412,0.265813,
2,1,0,1,0,3165.32,0.268539,0.268266,16.0221,2,0.0181377,10,0.00429819,-1.79528,-0.76972,-0.0766512,-47.9629,0.268266,
2,1,0,1,0,3165.33,0.270947,0.270631,15.9155,2,0.0182335,10,0.00430723,-1.79818,-0.748062,-0.0788705,-48.9624,0.270631,
2,1,0,1,0,3165.33,0.273344,0.273045,15.8009,2,0.0183287,10,0.00431437,-1.80132,-0.780719,-0.0755713,-46.6335,0.273045,
2,1,0,1,0,3165.34,0.275741,0.275426,15.6942,2,0.0184231,10,0.00432259,-1.80426,-0.86183,-0.068459,-41.9568,0.275426,
2,1,0,1,0,3165.35,0.278149,0.277824,15.6124,2,0.018517,10,0.00433749,-1.80653,-0.851264,-0.0693087,-42.1677,0.277824,
2,1,0,1,0,3165.35,0.280547,0.280229,15.498,2,0.0186103,10,0.00434299,-1.80972,-0.87379,-0.067522,-40.8529,0.280229,
2,1,0,1,0,3165.36,0.282944,0.282609,15.3969,2,0.0187029,10,0.00435131,-1.81257,-0.970579,-0.0607885,-36.5693,0.282609,
2,1,0,1,0,3165.36,0.285344,0.285069,15.3213,2,0.0187951,10,0.00436763,-1.8147,-1.00421,-0.0587528,-35.0946,0.285069,
2,1,0,1,0,3165.37,0.287746,0.287452,15.2172,2,0.0188867,10,0.00437422,-1.81767,-0.96157,-0.061358,-36.4655,0.287452,
2,1,0,1,0,3165.38,0.290143,0.289823,15.1273,2,0.0189778,10,0.00438424,-1.82024,-0.980257,-0.0601883,-35.573,0.289823,
2,1,0,1,0,3165.38,0.29254,0.292224,15.0592,2,0.0190684,10,0.00440065,-1.8222,-1.01269,-0.0582609,-34.2265,0.292224,
2,1,0,1,0,3165.39,0.294949,0.294637,14.9758,2,0.0191585,10,0.00441244,-1.82461,-1.01197,-0.058302,-34.0758,0.294637,
2,1,0,1,0,3165.39,0.297346,0.297008,14.9036,2,0.0192481,10,0.00442649,-1.82671,-1.15695,-0.0509963,-29.6958,0.297008,
2,1,0,1,0,3165.4,0.299621,0.299325,14.8173,2,0.0193328,10,0.00443517,-1.82923,-0.0651098,-0.906162,-500.254,0.299325,
2,1,0,1,0,3165.4,0.299962,0.299651,14.6864,2,0.0193505,10,0.00440081,-1.83308,0.00684933,8.61399,3751.06,0.299651,
2,1,0,1,0,3165.41,0.297903,0.297674,9.652,2,0.0194108,10,0.00287315,-2.01538,0.0102634,5.74858,1942.15,0.2976743,
2,1,0,1,0,3165.41,0.295506,0.295244,5.58076,2,0.0194554,10,0.00164768,-2.25331,0.00820213,7.19325,1474.61,0.295244,
2,1,0,1,0,3165.42,0.293101,0.292843,2.64427,2,0.0194794,10,0.000774356,-2.57769,0.00385226,15.3157,1065.82,0.292843,
2,1,0,1,0,3165.42,0.290704,0.290431,0.462999,2,0.0194882,10,0.000134469,-3.33442,0.019926,2.96096,804.559,0.290431,
2,0,0,1,0,3165.43,0.288307,0.288047,-1.20757,2,0.0194857,10,-0.000347838,-2.91809,-0.0158125,-3.73123,629.565,0.288047,
2,0,0,1,0,3165.44,0.28591,0.285614,-2.49752,2,0.0194743,10,-0.000713327,-2.60249,-0.008711,-6.77305,485.224,0.285614,
2,0,0,1,0,3165.44,0.283501,0.283213,-3.52301,2,0.019456,10,-0.000997761,-2.45309,-0.0188353,-3.13242,388.008,0.283213,
2,0,0,1,0,3165.45,0.281104,0.280823,-4.33819,2,0.0194323,10,-0.00121827,-2.36269,-0.0305105,-1.93376,311.006,0.280823,
2,0,0,1,0,3165.45,0.278707,0.27839,-4.9962,2,0.0194041,10,-0.00139089,-2.30136,-0.0432978,-1.36266,258.172,0.27839,
2,0,0,1,0,3165.46,0.276302,0.275971,-5.56156,2,0.0193724,10,-0.00153483,-2.2548,-0.0592032,-0.996568,211.7,0.275971,
2,0,0,1,0,3165.47,0.273905,0.273613,-6.01255,2,0.0193376,10,-0.00164511,-2.22094,-0.0762997,-0.773266,179.306,0.273613,
2,0,0,1,0,3165.47,0.271508,0.2712,-6.41173,2,0.0193002,10,-0.00173886,-2.19302,-0.0938158,-0.628892,156.139,0.2712,
2,0,0,1,0,3165.48,0.269105,0.268809,-6.77133,2,0.0192606,10,-0.0018202,-2.16933,-0.11426,-0.516367,135.265,0.268809,
2,0,0,1,0,3165.48,0.266702,0.266435,-7.05882,2,0.0192191,10,-0.00188071,-2.15127,-0.134659,-0.438143,120.269,0.266435,
2,0,0,1,0,3165.49,0.264305,0.264026,-7.3356,2,0.0191759,10,-0.00193679,-2.13456,-0.158046,-0.373308,106.377,0.264026,
2,0,0,1,0,3165.5,0.261908,0.261612,-7.58188,2,0.0191311,10,-0.00198351,-2.12022,-0.177289,-0.332789,98.0948,0.261612,
2,0,0,1,0,3165.5,0.2595,0.259224,-7.79644,2,0.0190849,10,-0.00202102,-2.1081,-0.194561,-0.303247,92.1754,0.259224,
2,0,0,1,0,3165.51,0.257103,0.256797,-8.01559,2,0.0190375,10,-0.00205838,-2.09606,-0.220342,-0.267765,83.5556,0.256797,
2,0,0,1,0,3165.51,0.254706,0.254396,-8.20647,2,0.0189887,10,-0.00208769,-2.08584,-0.243499,-0.242301,77.464,0.254396,
2,0,0,1,0,3165.52,0.2523,0.252032,-8.38318,2,0.018939,10,-0.00211283,-2.07659,-0.26538,-0.222323,72.7169,0.252032,
2,0,0,1,0,3165.53,0.249903,0.249583,-8.5554,2,0.0188881,10,-0.00213528,-2.06776,-0.279383,-0.21118,70.4063,0.2495828,
2,0,0,1,0,3165.53,0.247506,0.247218,-8.71469,2,0.0188363,10,-0.00215443,-2.05975,-0.29541,-0.199722,67.9521,0.247218,
2,0,0,1,0,3165.54,0.245109,0.244811,-8.87296,2,0.0187835,10,-0.0021722,-2.05193,-0.321967,-0.183249,63.4415,0.244811,
2,0,0,1,0,3165.54,0.242701,0.242426,-9.04059,2,0.0187297,10,-0.00219167,-2.0438,-0.335396,-0.175911,61.928,0.2424261,
2,0,0,1,0,3165.55,0.240304,0.240041,-9.17974,2,0.0186751,10,-0.00220352,-2.03717,-0.367048,-0.160742,57.5474,0.240041,
2,0,0,1,0,3165.56,0.237906,0.237655,-9.3208,2,0.0186196,10,-0.00221514,-2.03055,-0.364477,-0.161876,58.8377,0.237655,
2,0,0,1,0,3165.56,0.235501,0.235179,-9.46012,2,0.0185632,10,-0.00222482,-2.0241,-0.377058,-0.156474,57.7587,0.235179,
2,0,0,1,0,3165.57,0.233104,0.23279,-9.59118,2,0.0185061,10,-0.00223273,-2.01813,-0.382897,-0.154088,57.6575,0.23279,
2,0,0,1,0,3165.57,0.230707,0.230419,-9.72747,2,0.0184481,10,-0.00224139,-2.012,-0.398654,-0.147998,56.1585,0.230419,
2,0,0,1,0,3165.58,0.22831,0.227938,-9.83955,2,0.0183894,10,-0.00224281,-2.00702,-0.409704,-0.144006,55.4058,0.227938,
2,0,0,1,0,3165.59,0.225902,0.225631,-9.98407,2,0.0183298,10,-0.00225272,-2.00069,-0.417469,-0.141328,55.0529,0.2256314,
2,0,0,1,0,3165.59,0.223504,0.223203,-10.1197,2,0.0182695,10,-0.00225875,-1.99483,-0.450979,-0.130827,51.5843,0.223203,
2,0,0,1,0,3165.6,0.221107,0.220814,-10.2328,2,0.0182084,10,-0.00225954,-1.99001,-0.447524,-0.131837,52.7294,0.220814,
2,0,0,1,0,3165.6,0.218699,0.218382,-10.3738,2,0.0181466,10,-0.00226546,-1.98406,-0.451873,-0.130568,52.8435,0.218382,
2,0,0,1,0,3165.61,0.216302,0.215991,-10.496,2,0.0180839,10,-0.00226705,-1.97897,-0.461334,-0.12789,52.376,0.215991,
2,0,0,1,0,3165.62,0.213905,0.213603,-10.6255,2,0.0180206,10,-0.00226965,-1.97365,-0.468229,-0.126007,52.2943,0.213603,
2,0,0,1,0,3165.62,0.211505,0.211227,-10.7499,2,0.0179565,10,-0.00227067,-1.96859,-0.457606,-0.128932,54.103,0.211227,
2,0,0,1,0,3165.63,0.209102,0.208757,-10.8843,2,0.0178915,10,-0.00227217,-1.9632,-0.42177,-0.139887,59.4504,0.208757,
2,0,0,1,0,3165.63,0.206705,0.206403,-11.0301,2,0.0178258,10,-0.00227665,-1.95742,-0.47,-0.125532,53.9467,0.206403,
2,0,0,1,0,3165.64,0.204308,0.204002,-11.1531,2,0.0177592,10,-0.00227525,-1.95261,-0.441842,-0.133532,58.1509,0.204002,
2,0,0,1,0,3165.65,0.2019,0.201567,-11.2975,2,0.0176919,10,-0.0022772,-1.94702,-0.445417,-0.13246,58.4178,0.201567,
2,0,0,1,0,3165.65,0.199503,0.199234,-11.4342,2,0.0176237,10,-0.00227808,-1.94179,-0.454911,-0.129696,57.8373,0.199234,
2,0,0,1,0,3165.66,0.197106,0.196802,-11.566,2,0.0175546,10,-0.00227622,-1.93682,-0.438072,-0.134681,60.9029,0.196802,
2,0,0,1,0,3165.66,0.194709,0.194381,-11.7184,2,0.0174848,10,-0.00227783,-1.93113,-0.415542,-0.141983,65.0765,0.194381,
2,0,0,1,0,3165.67,0.192303,0.19201,-11.8977,2,0.0174139,10,-0.00228448,-1.92454,-0.403783,-0.146118,67.7284,0.19201,
2,0,0,1,0,3165.68,0.189906,0.189581,-12.0475,2,0.017342,10,-0.00228397,-1.9191,-0.424382,-0.139026,65.3836,0.189581,
2,0,0,1,0,3165.68,0.187509,0.187161,-12.2089,2,0.0172693,10,-0.00228503,-1.91332,-0.386845,-0.152516,72.79,0.187161,
2,0,0,1,0,3165.69,0.185101,0.184807,-12.4031,2,0.0171954,10,-0.00229218,-1.90647,-0.358589,-0.164534,79.598,0.184807,
2,0,0,1,0,3165.69,0.182704,0.182396,-12.5848,2,0.0171205,10,-0.00229542,-1.90015,-0.360409,-0.163703,80.4406,0.182396,
2,0,0,1,0,3165.7,0.180307,0.180029,-12.7756,2,0.0170444,10,-0.00229998,-1.89362,-0.336995,-0.175077,87.4486,0.1800286,
2,0,0,1,0,3165.71,0.177904,0.177579,-12.9993,2,0.016967,10,-0.0023084,-1.88608,-0.316864,-0.1862,94.5497,0.177579,
2,0,0,1,0,3165.71,0.175501,0.175207,-13.2422,2,0.0168883,10,-0.00232013,-1.87804,-0.302609,-0.194971,100.711,0.175207,
2,0,0,1,0,3165.72,0.173104,0.172806,-13.4767,2,0.0168081,10,-0.00232886,-1.87042,-0.297595,-0.198256,104.35,0.172806,
2,0,0,1,0,3165.72,0.170707,0.170363,-13.7313,2,0.0167265,10,-0.0023393,-1.86229,-0.271247,-0.217514,116.925,0.170363,
2,0,0,1,0,3165.73,0.168302,0.168018,-14.0441,2,0.0166432,10,-0.00235967,-1.8525,-0.252219,-0.233924,128.231,0.168018,
2,0,0,1,0,3165.74,0.165905,0.165603,-14.3562,2,0.016558,10,-0.00237743,-1.84296,-0.242948,-0.242851,136.154,0.165603,
2,0,0,1,0,3165.74,0.163507,0.163196,-14.6786,2,0.0164708,10,-0.00239548,-1.83332,-0.22496,-0.262269,150.713,0.163196,
2,0,0,1,0,3165.75,0.161099,0.160854,-15.0782,2,0.0163816,10,-0.00242539,-1.82165,-0.211954,-0.278362,163.898,0.160854,
2,0,0,1,0,3165.75,0.158702,0.158394,-15.4796,2,0.0162899,10,-0.00245187,-1.81024,-0.199283,-0.296062,179.046,0.158394,
2,0,0,1,0,3165.76,0.156305,0.156028,-15.9121,2,0.0161957,10,-0.00248273,-1.79827,-0.189485,-0.31137,193.897,0.156028,
2,0,0,1,0,3165.77,0.153908,0.153583,-16.3971,2,0.0160987,10,-0.00251832,-1.78523,-0.176517,-0.334245,214.416,0.153583,
2,0,0,1,0,3165.77,0.151503,0.151214,-16.9451,2,0.0159986,10,-0.00256234,-1.77096,-0.169965,-0.347131,229.872,0.151214,
2,0,0,1,0,3165.78,0.149105,0.148811,-17.5227,2,0.0158951,10,-0.00260758,-1.7564,-0.16134,-0.365687,250.466,0.1488113,
2,0,0,1,0,3165.78,0.146708,0.146395,-18.1461,2,0.0157881,10,-0.00265649,-1.74122,-0.152974,-0.385687,273.852,0.146395,
2,0,0,1,0,3165.79,0.1443,0.144042,-18.8483,2,0.0156771,10,-0.00271494,-1.72473,-0.145202,-0.40633,299.297,0.144042,
2,0,0,1,0,3165.8,0.141903,0.141594,-19.5939,2,0.0155618,10,-0.00277438,-1.70788,-0.140486,-0.41997,321.28,0.141594,
2,0,0,1,0,3165.8,0.139506,0.139242,-20.3666,2,0.0154418,10,-0.00283589,-1.69108,-0.137359,-0.429533,342.352,0.139242,
2,0,0,1,0,3165.81,0.137109,0.136829,-21.2322,2,0.015317,10,-0.00290517,-1.67301,-0.130933,-0.450613,373.98,0.136829,
2,0,0,1,0,3165.81,0.134701,0.134399,-22.1619,2,0.0151867,10,-0.00297854,-1.65439,-0.132566,-0.445062,384.74,0.134399,
2,0,0,1,0,3165.82,0.132303,0.131994,-23.0836,2,0.0150509,10,-0.00304691,-1.6367,-0.131873,-0.4474,403.439,0.131994,
2,0,0,1,0,3165.83,0.129906,0.12964,-24.0665,2,0.0149094,10,-0.00311998,-1.61859,-0.133216,-0.44289,416.133,0.12964,
2,0,0,1,0,3165.83,0.127501,0.127189,-25.0963,2,0.0147618,10,-0.00319196,-1.60039,-0.136417,-0.432496,423.068,0.127189,
2,0,0,1,0,3165.84,0.125104,0.124831,-26.1021,2,0.014608,10,-0.00325836,-1.58332,-0.14075,-0.419183,426.95,0.124831,
2,0,0,1,0,3165.84,0.122707,0.122451,-27.1279,2,0.0144483,10,-0.00332182,-1.56658,-0.14565,-0.405082,428.867,0.122451,
2,0,0,1,0,3165.85,0.12031,0.120038,-28.1782,2,0.0142822,10,-0.00338246,-1.55009,-0.154241,-0.382519,419.572,0.120038,
2,0,0,1,0,3165.86,0.117901,0.117662,-29.1686,2,0.01411,10,-0.00343203,-1.53508,-0.161929,-0.364357,414.33,0.117662,
2,0,0,1,0,3165.86,0.115504,0.115264,-30.1463,2,0.013932,10,-0.00347479,-1.52077,-0.167469,-0.352305,414.571,0.115264,
2,0,0,1,0,3165.87,0.113107,0.112873,-31.1559,2,0.0137481,10,-0.00351666,-1.50646,-0.174396,-0.338311,410.681,0.112873,
2,0,0,1,0,3165.87,0.110702,0.110452,-32.1345,2,0.0135581,10,-0.00354932,-1.49303,-0.186647,-0.316105,395.44,0.110452,
2,0,0,1,0,3165.88,0.108305,0.108089,-33.0411,2,0.0133625,10,-0.00357136,-1.48095,-0.203063,-0.290551,374.114,0.108089,
2,0,0,1,0,3165.89,0.105908,0.105668,-33.9083,2,0.0131615,10,-0.00358301,-1.46969,-0.219508,-0.268783,355.342,0.105668,
2,0,0,1,0,3165.89,0.103505,0.103242,-34.7686,2,0.0129554,10,-0.0035896,-1.45881,-0.237894,-0.24801,335.749,0.103242,
2,0,0,1,0,3165.9,0.101102,0.100829,-35.5387,2,0.0127443,10,-0.00358333,-1.4493,-0.259333,-0.227507,315.018,0.100829,
2,0,0,1,0,3165.9,0.0987052,0.098442,-36.2606,2,0.0125288,10,-0.00356956,-1.44057,-0.285465,-0.20668,292.243,0.098442,
2,0,0,1,0,3165.91,0.0963081,0.0960465,-36.9671,2,0.0123091,10,-0.00355056,-1.43218,-0.30424,-0.193926,279.329,0.0960465,
2,0,0,1,0,3165.92,0.0938999,0.0936755,-37.6117,2,0.0120853,10,-0.00352329,-1.42468,-0.336919,-0.175116,256.644,0.0936755,
2,0,0,1,0,3165.92,0.0915028,0.0912514,-38.2032,2,0.0118578,10,-0.0034861,-1.4179,-0.385844,-0.152912,227.597,0.0912514,
2,0,0,1,0,3165.93,0.0891057,0.0888527,-38.7276,2,0.011627,10,-0.00344106,-1.41198,-0.433615,-0.136065,205.325,0.0888527,
2,0,0,1,0,3165.93,0.0867002,0.0864223,-39.1999,2,0.0113931,10,-0.00338774,-1.40672,-0.517197,-0.114077,174.134,0.0864223,
2,0,0,1,0,3165.94,0.0843031,0.0839908,-39.5805,2,0.0111567,10,-0.00332439,-1.40252,-0.629329,-0.0937506,144.55,0.0839908,
2,0,0,1,0,3165.95,0.081906,0.081642,-39.8736,2,0.0109183,10,-0.00325536,-1.39931,-0.771238,-0.0765004,118.92,0.081642,
2,0,0,1,0,3165.95,0.0795089,0.0792391,-40.1356,2,0.0106782,10,-0.0031803,-1.39647,-1.04702,-0.0563502,88.1182,0.0792391,
2,0,0,1,0,3165.96,0.0771007,0.0767885,-40.3168,2,0.0104368,10,-0.00309587,-1.39451,-1.70062,-0.0346933,54.4681,0.0767885,
2,0,0,1,0,3165.96,0.0747036,0.0743761,-40.3919,2,0.0101946,10,-0.00300419,-1.39371,-4.2728,-0.0138083,21.7448,0.0743761,
2,0,0,1,0,3165.97,0.0723065,0.0719711,-40.4292,2,0.00995213,10,-0.00290973,-1.3933,20.6816,0.00285278,-4.49298,0.0719711,
2,0,0,1,0,3165.98,0.0699011,0.0696074,-40.3989,2,0.00970965,10,-0.00281206,-1.39363,2.451,0.0240718,-37.861,0.0696074,
2,0,0,1,0,3165.98,0.067504,0.0672258,-40.2398,2,0.00946776,10,-0.00270515,-1.39534,1.44316,0.0408825,-64.1401,0.0672258,
2,0,0,1,0,3165.99,0.0651069,0.0648123,-40.0637,2,0.00922686,10,-0.00259662,-1.39725,1.0907,0.0540937,-84.4899,0.0648123,
2,0,0,1,0,3165.99,0.0627098,0.0624486,-39.8255,2,0.00898715,10,-0.00248704,-1.39984,0.83018,0.0710689,-110.325,0.0624486,
2,0,0,1,0,3166,0.0603016,0.0599917,-39.5354,2,0.00874903,10,-0.00237179,-1.40301,0.710753,0.0830106,-127.984,0.0599917,
2,0,0,1,0,3166.01,0.0579045,0.0575697,-39.2041,2,0.00851285,10,-0.00225697,-1.40667,0.645175,0.091448,-139.853,0.05756969,
2,0,0,1,0,3166.01,0.0555074,0.0552145,-38.8566,2,0.00827871,10,-0.00214545,-1.41054,0.612856,0.0962706,-145.936,0.0552145,
2,0,0,1,0,3166.02,0.0530992,0.0527618,-38.5113,2,0.00804665,10,-0.00203192,-1.41441,0.571933,0.103159,-154.87,0.0527618,
2,0,0,1,0,3166.02,0.0507021,0.0503876,-38.1155,2,0.00781683,10,-0.00192055,-1.4189,0.562375,0.104912,-156.089,0.0503876,
2,0,0,1,0,3166.03,0.048305,0.0480207,-37.7304,2,0.00758937,10,-0.00181184,-1.42331,0.555635,0.106185,-156.415,0.0480207,
2,0,0,1,0,3166.04,0.0459051,0.0455924,-37.3787,2,0.00736407,10,-0.00170418,-1.42738,0.541505,0.108956,-158.826,0.0455924,
2,0,0,1,0,3166.04,0.0435024,0.043216,-36.9769,2,0.00714101,10,-0.001598,-1.43207,0.548828,0.107502,-155.221,0.043216,
2,0,0,1,0,3166.05,0.0411053,0.0407622,-36.6111,2,0.0069203,10,-0.00149235,-1.43639,0.557748,0.105783,-151.233,0.0407622,
2,0,0,1,0,3166.05,0.0387082,0.0383838,-36.2674,2,0.00670167,10,-0.00139208,-1.44048,0.563382,0.104725,-148.163,0.0383838,
2,0,0,1,0,3166.06,0.0363,0.035983,-35.9091,2,0.00648517,10,-0.00129212,-1.4448,0.543037,0.108648,-152.234,0.035983,
2,0,0,1,0,3166.07,0.0339029,0.0335695,-35.5421,2,0.00627089,10,-0.00119313,-1.44926,0.539278,0.109406,-151.76,0.0335695,
2,0,0,1,0,3166.07,0.0315058,0.0311581,-35.1837,2,0.00605874,10,-0.00109626,-1.45366,0.534338,0.110417,-151.578,0.0311581,
2,0,0,1,0,3166.08,0.0291087,0.028785,-34.8173,2,0.00584877,10,-0.00100221,-1.4582,0.515356,0.114484,-155.533,0.028785,
2,0,0,1,0,3166.08,0.0267033,0.0263725,-34.4474,2,0.005641,10,-0.000908465,-1.46284,0.509118,0.115887,-155.763,0.02637253,
2,0,0,1,0,3166.09,0.0243062,0.0239771,-34.0618,2,0.00543551,10,-0.000816702,-1.46773,0.480502,0.122788,-163.182,0.0239771,
2,0,0,1,0,3166.1,0.0219091,0.0216092,-33.6833,2,0.00523232,10,-0.000727869,-1.47259,0.465991,0.126612,-166.297,0.0216092,
2,0,0,1,0,3166.1,0.0195009,0.0192116,-33.2673,2,0.00503151,10,-0.000639117,-1.47798,0.435179,0.135576,-175.887,0.0192116,
2,0,0,1,0,3166.11,0.0171038,0.0167971,-32.8255,2,0.00483328,10,-0.000551372,-1.48379,0.415621,0.141956,-181.882,0.01679706,
2,0,0,1,0,3166.11,0.0147067,0.0143846,-32.401,2,0.00463764,10,-0.000466076,-1.48944,0.392838,0.150189,-189.693,0.0143846,
2,0,0,1,0,3166.12,0.012304,0.0119605,-31.9372,2,0.00444468,10,-0.000381986,-1.4957,0.371283,0.158908,-197.81,0.0119605,
2,0,0,1,0,3166.13,0.00990136,0.00957887,-31.4312,2,0.00425465,10,-0.000301076,-1.50264,0.351125,0.168031,-206.027,0.00957887,
2,0,0,1,0,3166.13,0.00750426,0.0071866,-30.9314,2,0.00406763,10,-0.000222291,-1.5096,0.329649,0.178978,-215.879,0.0071866,
2,0,0,1,0,3166.14,0.00510715,0.0048081,-30.3992,2,0.00388366,10,-0.000146162,-1.51714,0.340047,0.173505,-206.012,0.0048081,
2,0,0,1,0,3166.14,0.00270173,0.00237659,-29.8772,2,0.00370288,10,-7.1006e-05,-1.52466,0.326586,0.180657,-210.836,0.002376592,
2,0,0,1,0,3166.15,0.000304623,-8.03696e-05,-29.4043,2,0.00352496,10,2.36321e-06,-1.53159,0.321066,0.183763,-210.599,-8.03696e-05,
2,0,0,1,0,3166.16,-0.00209248,-0.00241645,-28.8685,2,0.00335017,10,6.97592e-05,-1.53958,0.306762,0.192331,-216.831,-0.00241645,
2,0,0,1,0,3166.16,-0.00450068,-0.00483205,-28.3667,2,0.00317856,10,0.000137069,-1.54719,0.311749,0.189255,-209.609,-0.00483205,
2,0,0,1,0,3166.17,-0.00689779,-0.00724872,-27.8784,2,0.00300988,10,0.000202083,-1.55473,0.329052,0.179303,-195.223,-0.00724872,
2,0,0,1,0,3166.17,-0.00929489,-0.00960919,-27.4246,2,0.00284405,10,0.000263528,-1.56186,0.345234,0.170899,-183.083,-0.009609187,
2,0,0,1,0,3166.18,-0.011692,-0.0120799,-26.9974,2,0.00268082,10,0.000326127,-1.56868,0.374066,0.157726,-166.392,-0.0120799,
2,0,0,1,0,3166.19,-0.0140974,-0.0144648,-26.609,2,0.00252002,10,0.000384893,-1.57497,0.399272,0.147769,-153.688,-0.0144648,
2,0,0,1,0,3166.19,-0.0164945,-0.0168719,-26.2669,2,0.00236144,10,0.000443172,-1.58059,0.427368,0.138054,-141.684,-0.0168719,
2,0,0,1,0,3166.2,-0.0188916,-0.0192727,-25.9504,2,0.00220482,10,0.000500134,-1.58586,0.490733,0.120228,-121.882,-0.0192727,
2,0,0,1,0,3166.2,-0.0212998,-0.0216671,-25.6764,2,0.00205,10,0.000556333,-1.59047,0.544444,0.108367,-108.73,-0.0216671,
2,0,0,1,0,3166.21,-0.0236969,-0.0240753,-25.4361,2,0.00189672,10,0.00061238,-1.59455,0.625074,0.0943888,-93.779,-0.0240753,
2,0,0,1,0,3166.22,-0.026094,-0.0264484,-25.2358,2,0.00174475,10,0.000667447,-1.59798,0.743198,0.0793867,-78.2569,-0.0264484,
2,0,0,1,0,3166.22,-0.0284912,-0.0288354,-25.0442,2,0.00159396,10,0.000722159,-1.60129,0.868394,0.0679415,-66.5119,-0.0288354,
2,0,0,1,0,3166.23,-0.0308994,-0.0313083,-24.9119,2,0.00144409,10,0.00077995,-1.60359,1.06921,0.0551809,-53.6974,-0.0313083,
2,0,0,1,0,3166.23,-0.0332965,-0.0336624,-24.7899,2,0.00129498,10,0.000834488,-1.60573,1.31546,0.0448511,-43.4408,-0.0336624,
2,0,0,1,0,3166.24,-0.0356936,-0.0360239,-24.7052,2,0.00114652,10,0.000889978,-1.60721,1.82773,0.0322804,-31.1666,-0.0360239,
2,0,0,1,0,3166.25,-0.038099,-0.0384862,-24.6451,2,0.000998482,10,0.000948495,-1.60827,2.55706,0.0230734,-22.2058,-0.0384862,
2,0,0,1,0,3166.25,-0.0404961,-0.0408318,-24.5932,2,0.000850747,10,0.00100419,-1.60918,3.42091,0.0172469,-16.5693,-0.0408318,
2,0,0,1,0,3166.26,-0.0428932,-0.0432495,-24.5737,2,0.000703221,10,0.0010628,-1.60953,11.5424,0.00511157,-4.90599,-0.0432495,
2,0,0,1,0,3166.26,-0.0452903,-0.0456439,-24.5646,2,0.00055582,10,0.00112123,-1.60969,-38.6414,-0.00152686,1.46548,-0.0456439,
2,0,0,1,0,3166.27,-0.0476985,-0.04805,-24.5886,2,0.000408361,10,0.00118148,-1.60927,-5.63865,-0.0104635,10.044,-0.04805,
2,0,0,1,0,3166.28,-0.0500956,-0.0504794,-24.6262,2,0.00026073,10,0.00124311,-1.6086,-3.88549,-0.0151847,14.5924,-0.0504794,
2,0,0,1,0,3166.28,-0.0524927,-0.0528314,-24.653,2,0.000112909,10,0.00130245,-1.60813,-2.53264,-0.0232958,22.4406,-0.0528314,
2,0,0,1,0,3166.29,-0.0548981,-0.055282,-24.7237,2,-3.5199e-05,10,0.00136678,-1.60689,-2.01482,-0.029283,28.2649,-0.055282,
2,0,0,1,0,3166.29,-0.0572953,-0.0576329,-24.7982,2,-0.00018378,10,0.00142919,-1.60558,-1.82376,-0.0323508,31.3047,-0.0576329,
2,0,0,1,0,3166.3,-0.0596924,-0.0600644,-24.8662,2,-0.000332764,10,0.00149357,-1.60439,-1.50399,-0.0392289,38.1119,-0.0600644,
2,0,0,1,0,3166.31,-0.062095,-0.062444,-24.9712,2,-0.00048224,10,0.0015593,-1.60256,-1.34033,-0.0440191,42.9033,-0.062444,
2,0,0,1,0,3166.31,-0.0644977,-0.0648575,-25.0824,2,-0.000632445,10,0.00162678,-1.60063,-1.22765,-0.0480592,47.0209,-0.0648575,
2,0,0,1,0,3166.32,-0.0668948,-0.0672508,-25.1845,2,-0.000783246,10,0.00169367,-1.59887,-1.26979,-0.0464642,45.6948,-0.0672508,
2,0,0,1,0,3166.32,-0.0692919,-0.0696802,-25.3046,2,-0.000934722,10,0.00176323,-1.5968,-1.10719,-0.0532882,52.6542,-0.0696802,
2,0,0,1,0,3166.33,-0.0717001,-0.0720067,-25.4452,2,-0.00108699,10,0.00183222,-1.59439,-1.00569,-0.0586662,58.2709,-0.07200671,
2,0,0,1,0,3166.34,-0.0740972,-0.0744488,-25.5891,2,-0.00124008,10,0.00190508,-1.59195,-1.00501,-0.0587057,58.642,-0.0744488,
2,0,0,1,0,3166.34,-0.0764943,-0.0768676,-25.7334,2,-0.00139406,10,0.00197806,-1.5895,-0.914412,-0.0645223,64.8265,-0.0768676,
2,0,0,1,0,3166.35,-0.0788997,-0.0792472,-25.8965,2,-0.00154891,10,0.00205223,-1.58676,-0.876652,-0.0673015,68.0431,-0.0792472,
2,0,0,1,0,3166.35,-0.0812968,-0.0816575,-26.0676,2,-0.00170482,10,0.00212862,-1.5839,-0.833408,-0.0707937,71.9854,-0.0816575,
2,0,0,1,0,3166.36,-0.0836939,-0.0840837,-26.2363,2,-0.00186175,10,0.00220605,-1.5811,-0.822968,-0.0716917,73.419,-0.0840837,
2,0,0,1,0,3166.37,-0.086091,-0.0864187,-26.4035,2,-0.00201966,10,0.00228175,-1.57834,-0.771625,-0.076462,78.8699,-0.0864187,
2,0,0,1,0,3166.37,-0.0884992,-0.0888714,-26.6218,2,-0.00217878,10,0.00236592,-1.57476,-0.725352,-0.0813398,84.4637,-0.0888714,
2,0,0,1,0,3166.38,-0.0908963,-0.0912414,-26.806,2,-0.00233911,10,0.00244582,-1.57177,-0.744337,-0.0792651,82.9785,-0.0912414,
2,0,0,1,0,3166.38,-0.0932934,-0.0936348,-27.0121,2,-0.00250058,10,0.00252927,-1.56844,-0.720948,-0.0818367,86.3514,-0.0936348,
2,0,0,1,0,3166.39,-0.0956989,-0.0960939,-27.2488,2,-0.00266337,10,0.00261844,-1.56465,-0.684067,-0.0862488,91.6649,-0.0960939,
2,0,0,1,0,3166.4,-0.098096,-0.0984002,-27.4672,2,-0.00282751,10,0.00270278,-1.56119,-0.744588,-0.0792385,84.6715,-0.0984002,
2,0,0,0,0,3166.4,-0.0999548,-0.100305,-27.6173,2,-0.00295698,10,0.00277015,-1.55882,0.024249,2.43309,-2428.13,-0.100305,
2,0,0,1,1,3166.4,-0.0994555,-0.0999198,-25.9778,2,-0.00300219,10,0.0025957,-1.5854,-0.0190604,-3.09542,2755.55,-0.0999198,
2,0,0,1,1,3166.41,-0.0970583,-0.0974851,-20.2161,2,-0.00313937,10,0.00197077,-1.6943,-0.0215321,-2.74009,2156.74,-0.09748511,
2,0,0,1,1,3166.41,-0.0946501,-0.0950631,-15.6364,2,-0.00324612,10,0.00148645,-1.80586,-0.0201986,-2.92099,1777.36,-0.0950631,
2,0,0,1,1,3166.42,-0.092253,-0.0926518,-11.7605,2,-0.00332767,10,0.00108963,-1.92957,-0.0175298,-3.3657,1519.57,-0.0926518,
2,0,0,1,1,3166.43,-0.0898559,-0.0902563,-8.41696,2,-0.00338766,10,0.000759684,-2.07484,-0.0139851,-4.21878,1324.53,-0.0902563,
2,0,0,1,1,3166.43,-0.0874588,-0.0878874,-5.46856,2,-0.00342886,10,0.000480618,-2.26213,-0.00963173,-6.12559,1155.62,-0.0878874,
2,0,0,1,1,3166.44,-0.0850534,-0.0854781,-2.83302,2,-0.00345333,10,0.000242162,-2.54775,-0.00428766,-13.7604,1026.74,-0.0854781,
2,0,0,1,1,3166.44,-0.0826563,-0.0830551,-0.519104,2,-0.00346304,10,4.31143e-05,-3.28475,-0.0287068,-2.05527,927.231,-0.0830551,
2,1,0,1,1,3166.45,-0.0802592,-0.0806204,1.55977,2,-0.00345961,10,-0.000125749,-2.80694,0.0128635,4.58662,820.261,-0.0806204,
2,1,0,1,1,3166.46,-0.077851,-0.0782801,3.45733,2,-0.00344428,10,-0.00027064,-2.46126,0.00783409,7.53119,756.53,-0.0782801,
2,1,0,1,1,3166.46,-0.0754539,-0.0759069,5.13564,2,-0.00341826,10,-0.000389831,-2.28941,0.0159606,3.69661,672.865,-0.0759069,
2,1,0,1,1,3166.47,-0.0730568,-0.0735029,6.65562,2,-0.00338265,10,-0.000489207,-2.17681,0.0238383,2.47501,612.856,-0.0735029,
2,1,0,1,1,3166.47,-0.0706597,-0.0711244,8.03425,2,-0.00333839,10,-0.000571432,-2.09505,0.0321003,1.83799,560.809,-0.0711244,
2,1,0,1,1,3166.48,-0.0682542,-0.0686696,9.3354,2,-0.00328605,10,-0.000641058,-2.02987,0.0415656,1.41944,505.317,-0.0686696,
2,1,0,1,1,3166.49,-0.0658571,-0.0662349,10.4964,2,-0.00322637,10,-0.000695231,-1.97896,0.0517677,1.13971,458.93,-0.0662349,
2,1,0,1,1,3166.49,-0.06346,-0.0638691,11.5212,2,-0.0031602,10,-0.000735849,-1.9385,0.0630151,0.936283,416.958,-0.0638691,
2,1,0,1,1,3166.5,-0.0610518,-0.0614419,12.5022,2,-0.00308799,10,-0.000768161,-1.90301,0.0747697,0.789089,380.935,-0.0614419,
2,1,0,1,1,3166.5,-0.0586547,-0.0590199,13.3774,2,-0.00301021,10,-0.000789532,-1.87363,0.090267,0.653616,338.235,-0.0590199,
2,1,0,1,1,3166.51,-0.0562576,-0.0566679,14.1456,2,-0.00292754,10,-0.0008016,-1.84938,0.104018,0.567209,311.658,-0.0566679,
2,1,0,1,1,3166.52,-0.053855,-0.0542534,14.8684,2,-0.00284041,10,-0.000806664,-1.82773,0.119725,0.492794,284.317,-0.0542534,
2,1,0,1,1,3166.52,-0.0514523,-0.0518219,15.506,2,-0.00274913,10,-0.000803548,-1.8095,0.140103,0.42112,253.614,-0.0518219,
2,1,0,1,1,3166.53,-0.0490552,-0.0494434,16.0827,2,-0.00265428,10,-0.000795181,-1.79364,0.162662,0.362715,226.923,-0.0494434,
2,1,0,1,1,3166.53,-0.0466581,-0.047015,16.5997,2,-0.00255615,10,-0.000780437,-1.7799,0.18326,0.321946,207.981,-0.047015,
2,1,0,1,1,3166.54,-0.0442527,-0.0446164,17.0877,2,-0.00245501,10,-0.000762394,-1.76732,0.208108,0.283507,188.4,-0.0446164,
2,1,0,1,1,3166.55,-0.0418556,-0.0422591,17.5101,2,-0.00235115,10,-0.000739963,-1.75671,0.245582,0.240246,163.61,-0.0422591,
2,1,0,1,1,3166.55,-0.0394585,-0.0398552,17.8773,2,-0.00224494,10,-0.000712504,-1.7477,0.27181,0.217063,151.27,-0.0398552,
2,1,0,1,1,3166.56,-0.0370558,-0.037483,18.2267,2,-0.00213663,10,-0.000683193,-1.73929,0.303562,0.194359,137.952,-0.037483,
2,1,0,1,1,3166.56,-0.0346532,-0.0350112,18.5461,2,-0.00202624,10,-0.00064932,-1.73175,0.350934,0.168123,121.285,-0.0350112,
2,1,0,1,1,3166.57,-0.0322561,-0.0326656,18.7946,2,-0.00191419,10,-0.000613936,-1.72597,0.417996,0.14115,103.448,-0.0326656,
2,1,0,1,1,3166.58,-0.0298589,-0.0301885,19.0296,2,-0.00180069,10,-0.000574475,-1.72057,0.460088,0.128236,95.1802,-0.0301885,
2,1,0,1,1,3166.58,-0.0274535,-0.0277899,19.2581,2,-0.00168575,10,-0.000535181,-1.71539,0.53809,0.109647,82.2186,-0.0277899,
2,1,0,1,1,3166.59,-0.0250564,-0.0253774,19.4302,2,-0.00156964,10,-0.00049309,-1.71152,0.658543,0.0895918,67.8671,-0.0253774,
2,1,0,1,1,3166.59,-0.0226593,-0.0230127,19.5838,2,-0.00145259,10,-0.000450676,-1.7081,0.739514,0.0797821,60.9419,-0.0230127,
2,1,0,1,1,3166.6,-0.0202511,-0.0206491,19.7347,2,-0.00133465,10,-0.000407504,-1.70477,0.85972,0.068627,52.7616,-0.0206491,
2,1,0,1,1,3166.61,-0.017854,-0.0182186,19.8457,2,-0.00121591,10,-0.000361561,-1.70233,1.06291,0.055508,42.9283,-0.0182186,
2,1,0,1,1,3166.61,-0.0154569,-0.015837,19.9298,2,-0.00109658,10,-0.000315627,-1.7005,1.27296,0.0463486,36.0347,-0.015837,
2,1,0,1,1,3166.62,-0.0130598,-0.0133959,20.0012,2,-0.000976774,10,-0.000267933,-1.69894,1.40192,0.0420851,32.8555,-0.0133959,
2,1,0,1,1,3166.62,-0.0106516,-0.0109601,20.0931,2,-0.000856463,10,-0.000220223,-1.69695,1.89653,0.0311094,24.3484,-0.0109601,
2,1,0,1,1,3166.63,-0.00825448,-0.00858483,20.1285,2,-0.000735788,10,-0.0001728,-1.69619,2.9984,0.0196772,15.4493,-0.00858483,
2,1,0,1,1,3166.64,-0.00585738,-0.00622543,20.1514,2,-0.00061498,10,-0.000125451,-1.69569,3.19763,0.0184512,14.5196,-0.00622543,
2,1,0,1,1,3166.64,-0.00345195,-0.00378967,20.2057,2,-0.000493912,10,-7.65729e-05,-1.69453,3.86179,0.0152779,12.0255,-0.00378967,
2,1,0,1,1,3166.65,-0.00105485,-0.00141648,20.2099,2,-0.000372644,10,-2.86269e-05,-1.69444, , , ,-0.00141648,
2,1,0,0,1,3166.65,-7.54729e-05,-0.000287149,20.1996,2,-0.000322127,10,-5.80028e-06,-1.69466, , , ,-0.0002871489,