File: Figure_codes/Fig_3-5/rawdata_trumpetplot_data/after 10th/20221101_1-115_003_TrumpetPlot_ParaChange_from10_every3_07_CV_C01_10.csv
mode,ox/red,error,control changes,counter inc.,time/s,control/V,Ewe/V,<I>/mA,cycle number,(Q-Qo)/C,I Range,P/W,log(|I|),Tafel slope mV/dec,alpha_eff,dI/d(E-IR),E-IR/V,
2,0,0,0,0,20866.3,2.44065e-05,-0.0002108,-2.75864,11,0.0000000E+000,10,5.81521e-07,-2.5593, , , ,-0.0002108,
2,0,0,1,0,20866.3,0.0013005,0.000932681,-1.16191,11,-3.82629e-05,10,-1.08369e-06,-2.93483, , , ,0.000932681,
2,0,0,1,0,20866.4,0.00279471,0.00243666,-0.0888737,11,-5.24234e-05,10,-2.16555e-07,-4.05123,-0.0111641,-5.2848,576.075,0.00243666,
2,1,0,1,0,20866.4,0.00429425,0.00391154,0.548894,11,-4.57959e-05,10,2.14702e-06,-3.26051,0.0090115,6.54719,369.096,0.003911545,
2,1,0,1,0,20866.4,0.00579379,0.00546536,0.970308,11,-2.59146e-05,10,5.30308e-06,-3.01309,0.0068609,8.59945,255.727,0.00546536,
2,1,0,1,0,20866.4,0.007288,0.00693338,1.28904,11,2.94698e-06,10,8.9374e-06,-2.88973,0.0149117,3.95663,183.477,0.00693338,
2,1,0,1,0,20866.5,0.00878882,0.00846589,1.53663,11,3.87311e-05,10,1.30089e-05,-2.81343,0.0241062,2.4475,139.441,0.00846589,
2,1,0,1,0,20866.5,0.0102896,0.00997078,1.71033,11,7.96623e-05,10,1.70533e-05,-2.76692,0.0346246,1.70399,110.487,0.00997078,
2,1,0,1,0,20866.5,0.0117838,0.0114655,1.84731,11,0.000124421,10,2.11803e-05,-2.73346,0.0469679,1.25618,89.3115,0.01146548,
2,1,0,1,0,20866.5,0.0132834,0.0129391,1.96719,11,0.000172575,10,2.54536e-05,-2.70615,0.0610301,0.966736,73.6958,0.01293907,
2,1,0,1,0,20866.6,0.0147816,0.014463,2.07174,11,0.000223488,10,2.99635e-05,-2.68366,0.0725762,0.812939,65.232,0.014463,
2,1,0,1,0,20866.6,0.0162811,0.0159502,2.16298,11,0.000276864,10,3.45001e-05,-2.66495,0.0835181,0.706434,59.3101,0.0159502,
2,1,0,1,0,20866.6,0.0177753,0.0175088,2.23826,11,0.000332161,10,3.91892e-05,-2.65009,0.100552,0.586761,51.1948,0.01750876,
2,1,0,1,0,20866.6,0.0192761,0.0189519,2.30932,11,0.000389463,10,4.37659e-05,-2.63652,0.118876,0.496314,44.7995,0.0189519,
2,1,0,1,0,20866.7,0.020777,0.0204741,2.38934,11,0.000448576,10,4.89196e-05,-2.62172,0.123275,0.478605,44.3535,0.0204741,
2,1,0,1,0,20866.7,0.0222712,0.0219769,2.45032,11,0.000509131,10,5.38504e-05,-2.61078,0.128185,0.460271,43.8716,0.0219769,
2,1,0,1,0,20866.7,0.0237707,0.0234675,2.50492,11,0.000571509,10,5.87843e-05,-2.60121,0.139821,0.421967,41.2742,0.02346753,
2,1,0,1,0,20866.7,0.0252703,0.0249695,2.55744,11,0.000635344,10,6.3858e-05,-2.59219,0.160075,0.368578,36.9526,0.0249695,
2,1,0,1,0,20866.8,0.0267645,0.0264461,2.63331,11,0.000700357,10,6.96409e-05,-2.5795,0.156525,0.376936,38.6101,0.0264461,
2,1,0,1,0,20866.8,0.0282653,0.0279731,2.68776,11,0.000767146,10,7.51851e-05,-2.57061,0.148852,0.396367,41.4831,0.0279731,
2,1,0,1,0,20866.8,0.0297648,0.0294542,2.74198,11,0.00083542,10,8.07626e-05,-2.56194,0.16582,0.355807,38.0072,0.0294542,
2,1,0,1,0,20866.8,0.031259,0.0308778,2.78862,11,0.000904759,10,8.61066e-05,-2.55461,0.181224,0.325563,35.5025,0.0308778,
2,1,0,1,0,20866.9,0.0327585,0.0324344,2.8538,11,0.00097568,10,9.25614e-05,-2.54458,0.176033,0.335165,37.2435,0.0324344,
2,1,0,1,0,20866.9,0.034258,0.0339854,2.90984,11,0.00104804,10,9.88921e-05,-2.53613,0.17238,0.342266,38.7848,0.0339854,
2,1,0,1,0,20866.9,0.0357576,0.035482,2.95564,11,0.00112179,10,0.000104872,-2.52935,0.189318,0.311645,35.9746,0.035482,
2,1,0,1,0,20866.9,0.0372518,0.0368977,3.0091,11,0.00119659,10,0.000111029,-2.52156,0.198425,0.297342,34.9903,0.0368977,
2,1,0,1,0,20867,0.0387526,0.0384506,3.07356,11,0.00127294,10,0.00011818,-2.51236,0.198114,0.297808,35.6628,0.0384506,
2,1,0,1,0,20867,0.0402534,0.0399273,3.12213,11,0.00135072,10,0.000124658,-2.50555,0.193328,0.305181,37.1481,0.0399273,
2,1,0,1,0,20867,0.0417476,0.0414535,3.17526,11,0.00142957,10,0.000131625,-2.49822,0.203893,0.289368,35.8733,0.0414535,
2,1,0,1,0,20867,0.0432472,0.0429531,3.2308,11,0.00151007,10,0.000138773,-2.49069,0.226353,0.260655,32.8209,0.0429531,
2,1,0,1,0,20867.1,0.0447467,0.0444473,3.28326,11,0.00159177,10,0.000145932,-2.4837,0.233631,0.252535,32.3017,0.0444473,
2,1,0,1,0,20867.1,0.0462463,0.0459637,3.33226,11,0.0016748,10,0.000153163,-2.47726,0.200392,0.294423,38.2362,0.0459637,
2,1,0,1,0,20867.1,0.0477391,0.0473892,3.37952,11,0.00175881,10,0.000160153,-2.47114,0.213963,0.275748,36.4257,0.0473892,
2,1,0,1,0,20867.1,0.0492399,0.048919,3.42818,11,0.00184445,10,0.000167703,-2.46494,0.253496,0.232745,31.2021,0.048919,
2,1,0,1,0,20867.2,0.0507408,0.0504042,3.48235,11,0.0019313,10,0.000175525,-2.45813,0.249123,0.236831,32.1301,0.0504042,
2,1,0,1,0,20867.2,0.052235,0.0518999,3.53518,11,0.00201904,10,0.000183475,-2.45159,0.224335,0.262999,36.2337,0.0518999,
2,1,0,1,0,20867.2,0.0537345,0.0533962,3.58341,11,0.00210841,10,0.00019134,-2.4457,0.251678,0.234427,32.7988,0.0533962,
2,1,0,1,0,20867.2,0.0552341,0.0549178,3.63095,11,0.00219908,10,0.000199404,-2.43998,0.284546,0.207348,29.3625,0.0549178,
2,1,0,1,0,20867.3,0.0567283,0.0564082,3.67687,11,0.00229051,10,0.000207406,-2.43452,0.288397,0.204579,29.3768,0.0564082,
2,1,0,1,0,20867.3,0.0582291,0.057938,3.72811,11,0.00238342,10,0.000215999,-2.42851,0.264182,0.223331,32.4719,0.057938,
2,1,0,1,0,20867.3,0.0597299,0.0594212,3.77,11,0.00247756,10,0.000224018,-2.42366,0.257904,0.228768,33.6653,0.0594212,
2,1,0,1,0,20867.3,0.0612228,0.06089,3.81651,11,0.00257247,10,0.000232387,-2.41833,0.308145,0.191469,28.5184,0.06089,
2,1,0,1,0,20867.4,0.0627223,0.0624054,3.86523,11,0.00266893,10,0.000241211,-2.41282,0.311662,0.189307,28.5253,0.0624054,
2,1,0,1,0,20867.4,0.0642218,0.063921,3.90603,11,0.0027664,10,0.000249677,-2.40826,0.289462,0.203826,31.0984,0.063921,
2,1,0,1,0,20867.4,0.0657214,0.0654385,3.9454,11,0.00286498,10,0.000258181,-2.40391,0.303657,0.194298,29.9563,0.0654385,
2,1,0,1,0,20867.4,0.0672156,0.0668899,3.99314,11,0.00296432,10,0.000267101,-2.39868,0.333754,0.176777,27.5456,0.0668899,
2,1,0,1,0,20867.5,0.0687164,0.068384,4.03797,11,0.00306512,10,0.000276133,-2.39384,0.377454,0.15631,24.5848,0.068384,
2,1,0,1,0,20867.5,0.0702172,0.0699316,4.07342,11,0.00316687,10,0.000284861,-2.39004,0.346157,0.170443,27.0945,0.0699316,
2,1,0,1,0,20867.5,0.0717114,0.0713904,4.11194,11,0.00326917,10,0.000293553,-2.38595,0.343636,0.171693,27.5524,0.0713904,
2,1,0,1,0,20867.5,0.073211,0.0728934,4.15366,11,0.00337291,10,0.000302775,-2.38157,0.381755,0.154549,25.0415,0.0728934,
2,1,0,1,0,20867.6,0.0747105,0.0743982,4.19018,11,0.00347761,10,0.000311742,-2.37777,0.404929,0.145705,23.8,0.07439816,
2,1,0,1,0,20867.6,0.0762101,0.0758573,4.2209,11,0.00358319,10,0.000320186,-2.3746,0.426417,0.138362,22.8052,0.0758573,
2,1,0,1,0,20867.6,0.0777042,0.0773432,4.25345,11,0.00368918,10,0.000328975,-2.37126,0.40209,0.146733,24.4029,0.0773432,
2,1,0,1,0,20867.6,0.0792037,0.078883,4.29412,11,0.00379645,10,0.000338733,-2.36713,0.458054,0.128806,21.5838,0.078883,
2,1,0,1,0,20867.7,0.0807046,0.0803585,4.33096,11,0.00390467,10,0.000348029,-2.36342,0.48428,0.12183,20.5436,0.0803585,
2,1,0,1,0,20867.7,0.0821988,0.0818626,4.35927,11,0.00401322,10,0.000356862,-2.36059,0.469291,0.125721,21.3637,0.0818626,
2,1,0,1,0,20867.7,0.0836983,0.083363,4.38463,11,0.00412295,10,0.000365516,-2.35807,0.479994,0.122918,21.075,0.083363,
2,1,0,1,0,20867.7,0.0851979,0.084866,4.41456,11,0.00423344,10,0.000374646,-2.35511,0.47665,0.123781,21.3814,0.084866,
2,1,0,1,0,20867.8,0.0866921,0.0864127,4.45626,11,0.00434436,10,0.000385077,-2.35103,0.515491,0.114454,19.8881,0.0864127,
2,1,0,1,0,20867.8,0.0881929,0.0878822,4.49307,11,0.0044566,10,0.000394861,-2.34746,0.439395,0.134276,23.5198,0.0878822,
2,1,0,1,0,20867.8,0.0896937,0.0893816,4.51649,11,0.00456957,10,0.000403691,-2.3452,0.421845,0.139862,24.6954,0.0893816,
2,1,0,1,0,20867.8,0.0911879,0.0908605,4.55702,11,0.00468299,10,0.000414053,-2.34132,0.408885,0.144295,25.6708,0.0908605,
2,1,0,1,0,20867.9,0.0926861,0.0924003,4.60363,11,0.0047979,10,0.000425377,-2.3369,0.398863,0.147921,26.5457,0.0924003,
2,1,0,1,0,20867.9,0.0941856,0.0938448,4.64548,11,0.00491385,10,0.000435954,-2.33297,0.371584,0.15878,28.7787,0.0938448,
2,1,0,1,0,20867.9,0.0956852,0.0953413,4.67823,11,0.00503081,10,0.000446028,-2.32992,0.344786,0.171121,31.3125,0.09534134,
2,1,0,1,0,20867.9,0.0971794,0.0968442,4.72488,11,0.00514838,10,0.000457577,-2.32561,0.322024,0.183216,33.8912,0.0968442,
2,1,0,1,0,20868,0.0986802,0.0983759,4.79017,11,0.0052677,10,0.000471237,-2.31965,0.303692,0.194276,36.2998,0.0983759,
2,1,0,1,0,20868,0.100181,0.0998535,4.8513,11,0.00538855,10,0.000484419,-2.31414,0.255237,0.231157,43.7252,0.0998535,
2,1,0,1,0,20868,0.101675,0.101385,4.90397,11,0.00551044,10,0.000497189,-2.30945,0.248669,0.237263,45.5331,0.101385,
2,1,0,1,0,20868,0.103175,0.102879,4.97666,11,0.0056344,10,0.000511995,-2.30306,0.250229,0.235784,45.9031,0.102879,
2,1,0,1,0,20868.1,0.104674,0.10434,5.05973,11,0.00576026,10,0.000527933,-2.29587,0.230742,0.255697,50.4334,0.10434,
2,1,0,1,0,20868.1,0.106169,0.105826,5.13662,11,0.00588753,10,0.00054359,-2.28932,0.224927,0.262307,52.5191,0.105826,
2,1,0,1,0,20868.1,0.107668,0.107354,5.20976,11,0.00601726,10,0.00055929,-2.28318,0.21582,0.273376,55.6466,0.107354,
2,1,0,1,0,20868.1,0.109169,0.108865,5.29066,11,0.00614892,10,0.000575967,-2.27649,0.228972,0.257674,53.2629,0.108865,
2,1,0,1,0,20868.2,0.110663,0.110356,5.37575,11,0.00628216,10,0.000593248,-2.26956,0.220088,0.268075,56.2351,0.110356,
2,1,0,1,0,20868.2,0.112163,0.111808,5.46548,11,0.00641805,10,0.000611082,-2.26237,0.227411,0.259442,55.2414,0.1118075,
2,1,0,1,0,20868.2,0.113662,0.113352,5.54366,11,0.00655608,10,0.000628385,-2.2562,0.227696,0.259117,56.047,0.113352,
2,1,0,1,0,20868.2,0.115162,0.114833,5.61775,11,0.0066961,10,0.000645101,-2.25044,0.251631,0.23447,51.4792,0.114833,
2,1,0,1,0,20868.3,0.116656,0.116334,5.70848,11,0.00683757,10,0.000664093,-2.24348,0.26084,0.226192,50.3305,0.116334,
2,1,0,1,0,20868.3,0.118157,0.117844,5.78685,11,0.00698163,10,0.000681947,-2.23756,0.274023,0.21531,48.5186,0.117844,
2,1,0,1,0,20868.3,0.119657,0.119389,5.85696,11,0.00712753,10,0.000699256,-2.23233,0.309798,0.190446,43.4703,0.119389,
2,1,0,1,0,20868.3,0.121152,0.120887,5.91035,11,0.00727443,10,0.000714486,-2.22839,0.347831,0.169623,39.1592,0.120887,
2,1,0,1,0,20868.4,0.122651,0.122381,5.97335,11,0.00742343,10,0.000731022,-2.22378,0.349193,0.168961,39.3799,0.122381,
2,1,0,1,0,20868.4,0.124151,0.123818,6.03384,11,0.00757392,10,0.000747095,-2.21941,0.365902,0.161245,37.9504,0.123818,
2,1,0,1,0,20868.4,0.125649,0.125317,6.07941,11,0.00772583,10,0.000761851,-2.21614,0.380476,0.155069,36.7838,0.125317,
2,1,0,1,0,20868.4,0.127143,0.126835,6.12405,11,0.00787834,10,0.000776741,-2.21296,0.464351,0.127059,30.41,0.126835,
2,1,0,1,0,20868.5,0.128644,0.12832,6.17952,11,0.00803254,10,0.000792959,-2.20905,0.491155,0.120125,28.9577,0.12832,
2,1,0,1,0,20868.5,0.130145,0.129816,6.22357,11,0.00818793,10,0.000807917,-2.20596,0.467477,0.12621,30.6198,0.129816,
2,1,0,1,0,20868.5,0.131639,0.131342,6.26819,11,0.00834384,10,0.000823274,-2.20286,0.525557,0.112262,27.4231,0.131342,
2,1,0,1,0,20868.5,0.133139,0.132827,6.30269,11,0.00850141,10,0.000837168,-2.20047,0.61891,0.0953289,23.4486,0.132827,
2,1,0,1,0,20868.6,0.134638,0.134313,6.33949,11,0.00865981,10,0.000851474,-2.19795,0.730928,0.0807193,19.9792,0.134313,
2,1,0,1,0,20868.6,0.136132,0.135824,6.37883,11,0.00881846,10,0.000866396,-2.19526,0.6805,0.086701,21.5492,0.135824,
2,1,0,1,0,20868.6,0.137633,0.137341,6.40821,11,0.0089786,10,0.00088011,-2.19326,0.768239,0.076799,19.1754,0.137341,
2,1,0,1,0,20868.6,0.139133,0.13882,6.43158,11,0.00913942,10,0.00089283,-2.19168,1.29277,0.0456384,11.4337,0.13882,
2,1,0,1,0,20868.7,0.140627,0.140315,6.44164,11,0.00929999,10,0.000903857,-2.191,3.60223,0.0163787,4.11085,0.140315,
2,1,0,1,0,20868.7,0.142126,0.141846,6.44382,11,0.00946144,10,0.000914032,-2.19086,-35.2704,-0.00167279,-0.419549,0.141846,
2,1,0,1,0,20868.7,0.143626,0.143299,6.43151,11,0.00962281,10,0.000921628,-2.19169,-1.1362,-0.0519275,-13.0018,0.143299,
2,1,0,1,0,20868.7,0.145125,0.14482,6.39199,11,0.00978365,10,0.000925684,-2.19436,-0.472904,-0.124761,-31.0732,0.14482,
2,1,0,1,0,20868.8,0.14662,0.14636,6.3373,11,0.00994273,10,0.000927527,-2.1981,-0.306161,-0.192709,-47.5496,0.14636,
2,1,0,1,0,20868.8,0.14812,0.1478,6.26405,11,0.0101007,10,0.000925825,-2.20314,-0.233284,-0.25291,-61.5767,0.1478,
2,1,0,1,0,20868.8,0.149621,0.149314,6.15674,11,0.0102563,10,0.00091929,-2.21065,-0.177615,-0.33218,-79.4161,0.149314,
2,1,0,1,0,20868.8,0.151115,0.150812,6.01621,11,0.0104083,10,0.00090732,-2.22068,-0.139479,-0.423002,-98.9403,0.150812,
2,1,0,1,0,20868.9,0.152615,0.152302,5.85912,11,0.0105572,10,0.000892357,-2.23217,-0.116747,-0.505368,-115.059,0.152302,
2,1,0,1,0,20868.9,0.154115,0.153773,5.67621,11,0.0107017,10,0.000872845,-2.24594,-0.101881,-0.579109,-127.895,0.153773,
2,1,0,1,0,20868.9,0.155614,0.155296,5.47128,11,0.0108415,10,0.000849666,-2.26191,-0.092611,-0.637074,-135.825,0.155296,
2,1,0,1,0,20868.9,0.157107,0.15681,5.25938,11,0.0109756,10,0.000824722,-2.27907,-0.0830135,-0.710728,-145.645,0.15681,
2,1,0,1,0,20869,0.158608,0.158303,5.04742,11,0.0111048,10,0.000799023,-2.29693,-0.0791842,-0.745099,-146.491,0.158303,
2,1,0,1,0,20869,0.160109,0.15981,4.82709,11,0.0112285,10,0.000771419,-2.31631,-0.0764343,-0.771905,-145.315,0.15981,
2,1,0,1,0,20869,0.161603,0.161248,4.61131,11,0.0113463,10,0.000743565,-2.33618,-0.0813409,-0.725342,-130.754,0.161248,
2,1,0,1,0,20869,0.163102,0.162817,4.41213,11,0.0114595,10,0.000718368,-2.35535,-0.0780307,-0.756113,-130.584,0.162817,
2,1,0,1,0,20869.1,0.164602,0.164312,4.23124,11,0.011568,10,0.000695241,-2.37353,-0.0813193,-0.725535,-120.12,0.164312,
2,1,0,1,0,20869.1,0.166096,0.165806,4.06297,11,0.0116716,10,0.000673666,-2.39116,-0.0892683,-0.660929,-105.145,0.1658064,
2,1,0,1,0,20869.1,0.167597,0.16729,3.90998,11,0.0117716,10,0.0006541,-2.40783,-0.0976017,-0.604498,-92.5939,0.16729,
2,1,0,1,0,20869.1,0.169098,0.168767,3.78015,11,0.0118681,10,0.000637965,-2.42249,-0.1015,-0.581278,-85.9386,0.1687672,
2,1,0,1,0,20869.2,0.170592,0.170282,3.66587,11,0.0119611,10,0.000624231,-2.43582,-0.105551,-0.55897,-79.9803,0.170282,
2,1,0,1,0,20869.2,0.17209,0.171796,3.54739,11,0.0120515,10,0.000609426,-2.45009,-0.118957,-0.495979,-68.8626,0.171796,
2,1,0,1,0,20869.2,0.17359,0.173264,3.44831,11,0.0121394,10,0.000597468,-2.46239,-0.134391,-0.439018,-59.2815,0.173264,
2,1,0,1,0,20869.2,0.175089,0.17474,3.36384,11,0.0122249,10,0.000587797,-2.47316,-0.135053,-0.436865,-57.5767,0.17474,
2,1,0,1,0,20869.3,0.176583,0.176282,3.28755,11,0.0123081,10,0.000579536,-2.48313,-0.144245,-0.409027,-52.5437,0.176282,
2,1,0,1,0,20869.3,0.178084,0.177758,3.22282,11,0.0123898,10,0.000572883,-2.49176,-0.167271,-0.352722,-44.2949,0.177758,
2,1,0,1,0,20869.3,0.179585,0.179267,3.15038,11,0.0124698,10,0.00056476,-2.50164,-0.194549,-0.303265,-37.4557,0.179267,
2,1,0,1,0,20869.3,0.181079,0.180761,3.09363,11,0.012548,10,0.000559209,-2.50953,-0.202759,-0.290986,-35.2798,0.180761,
2,1,0,1,0,20869.4,0.182579,0.182225,3.05162,11,0.0126253,10,0.000556081,-2.51547,-0.201137,-0.293333,-34.9238,0.182225,
2,1,0,1,0,20869.4,0.184078,0.183765,3.01074,11,0.0127013,10,0.000553269,-2.52133,-0.246632,-0.239223,-28.0622,0.1837654,
2,1,0,1,0,20869.4,0.185578,0.185287,2.95906,11,0.0127762,10,0.000548275,-2.52885,-0.279321,-0.211226,-24.4629,0.185287,
2,1,0,1,0,20869.4,0.187072,0.186747,2.9227,11,0.0128499,10,0.000545804,-2.53422,-0.273255,-0.215915,-24.6763,0.1867467,
2,1,0,1,0,20869.5,0.188573,0.188249,2.89916,11,0.012923,10,0.000545764,-2.53773,-0.29923,-0.197173,-22.2774,0.188249,
2,1,0,1,0,20869.5,0.190072,0.189742,2.86654,11,0.0129954,10,0.000543903,-2.54264,-0.326653,-0.18062,-20.1602,0.189742,
2,1,0,1,0,20869.5,0.191567,0.191217,2.82711,11,0.0130666,10,0.000540591,-2.54866,-0.414499,-0.14234,-15.7548,0.191217,
2,1,0,1,0,20869.5,0.193066,0.192743,2.80021,11,0.0131374,10,0.000539722,-2.55281,-0.442372,-0.133372,-14.6347,0.192743,
2,1,0,1,0,20869.6,0.194566,0.194244,2.78686,11,0.0132078,10,0.000541331,-2.55489,-0.42306,-0.13946,-15.1646,0.194244,
2,1,0,1,0,20869.6,0.19606,0.195754,2.76407,11,0.0132773,10,0.000541077,-2.55845,-0.408804,-0.144323,-15.5606,0.195754,
2,1,0,1,0,20869.6,0.197561,0.197236,2.74029,11,0.0133465,10,0.000540484,-2.5622,-0.506723,-0.116434,-12.474,0.197236,
2,1,0,1,0,20869.6,0.199062,0.198732,2.7208,11,0.0134151,10,0.000540711,-2.5653,-0.52522,-0.112334,-11.9538,0.198732,
2,1,0,1,0,20869.7,0.200556,0.200219,2.71257,11,0.0134831,10,0.000543107,-2.56662,-0.506893,-0.116395,-12.2847,0.200219,
2,1,0,1,0,20869.7,0.202055,0.201788,2.69509,11,0.013551,10,0.000543838,-2.56943,-0.622256,-0.0948163,-9.9415,0.201788,
2,1,0,1,0,20869.7,0.203553,0.203178,2.6698,11,0.0136184,10,0.000542445,-2.57352,-0.71344,-0.082698,-8.6384,0.203178,
2,1,0,1,0,20869.7,0.205053,0.204691,2.65333,11,0.0136855,10,0.000543113,-2.57621,-0.871961,-0.0676636,-7.05358,0.204691,
2,1,0,1,0,20869.8,0.206547,0.206233,2.64705,11,0.0137519,10,0.000545909,-2.57724,-0.774226,-0.0762052,-7.88307,0.206233,
2,1,0,1,0,20869.8,0.208048,0.207727,2.64374,11,0.0138186,10,0.000549176,-2.57778,-0.758841,-0.0777502,-7.99676,0.207727,
2,1,0,1,0,20869.8,0.209549,0.209215,2.62947,11,0.0138848,10,0.000550125,-2.58013,-0.696779,-0.0846754,-8.68808,0.209215,
2,1,0,1,0,20869.8,0.211043,0.210706,2.61563,11,0.0139505,10,0.00055113,-2.58242,-0.664263,-0.0888202,-9.07211,0.2107061,
2,1,0,1,0,20869.9,0.212543,0.212205,2.6053,11,0.0140161,10,0.000552858,-2.58414,-0.733622,-0.0804228,-8.16921,0.212205,
2,1,0,1,0,20869.9,0.214042,0.213738,2.59988,11,0.0140815,10,0.000555692,-2.58505,-0.968871,-0.0608956,-6.16723,0.213738,
2,1,0,1,0,20869.9,0.215536,0.215245,2.59128,11,0.0141464,10,0.000557759,-2.58649,-1.18558,-0.0497646,-5.02537,0.215245,
2,1,0,1,0,20869.9,0.217036,0.216769,2.56837,11,0.0142113,10,0.000556745,-2.59034,-0.931218,-0.0633579,-6.3796,0.216769,
2,1,0,1,0,20870,0.218537,0.218221,2.57056,11,0.014276,10,0.000560951,-2.58997,-1.27734,-0.0461897,-4.63036,0.218221,
2,1,0,1,0,20870,0.220031,0.21974,2.56704,11,0.0143403,10,0.00056408,-2.59057,-0.991457,-0.0595084,-5.94417,0.21974,
2,1,0,1,0,20870,0.22153,0.221226,2.55697,11,0.0144047,10,0.000565669,-2.59227,-1.4907,-0.0395786,-3.94232,0.2212263,
2,1,0,1,0,20870,0.22303,0.22272,2.53834,11,0.0144688,10,0.000565338,-2.59545,-1.38772,-0.0425159,-4.23116,0.22272,
2,1,0,1,0,20870.1,0.224529,0.224183,2.53938,11,0.0145328,10,0.000569286,-2.59527,-0.965036,-0.0611376,-6.06473,0.224183,
2,1,0,1,0,20870.1,0.226024,0.225733,2.53522,11,0.0145964,10,0.000572282,-2.59598,-1.20845,-0.0488227,-4.82782,0.225733,
2,1,0,1,0,20870.1,0.227525,0.227218,2.52569,11,0.01466,10,0.000573881,-2.59762,-1.22225,-0.0482715,-4.76018,0.227218,
2,1,0,1,0,20870.1,0.229025,0.228686,2.52057,11,0.0147235,10,0.000576419,-2.5985,-1.1503,-0.0512911,-5.04542,0.228686,
2,1,0,1,0,20870.2,0.23052,0.2302,2.51949,11,0.0147865,10,0.000579988,-2.59869,-1.12527,-0.052432,-5.14725,0.2302002,
2,1,0,1,0,20870.2,0.232019,0.23169,2.51508,11,0.0148497,10,0.00058272,-2.59945,-2.05987,-0.0286426,-2.80526,0.2316903,
2,1,0,1,0,20870.2,0.233519,0.233204,2.506,11,0.0149128,10,0.000584409,-2.60102,-10.6904,-0.00551895,-0.539373,0.233204,
2,1,0,1,0,20870.2,0.235018,0.234718,2.49678,11,0.0149757,10,0.000586039,-2.60262,-1.20428,-0.0489919,-4.78538,0.234718,
2,1,0,1,0,20870.3,0.236511,0.236206,2.49159,11,0.0150382,10,0.000588531,-2.60352,-1.11544,-0.0528937,-5.14654,0.236206,
2,1,0,1,0,20870.3,0.238012,0.237683,2.49055,11,0.0151008,10,0.000591961,-2.60371,-2.33025,-0.0253192,-2.45578,0.237683,
2,1,0,1,0,20870.3,0.239513,0.239196,2.48518,11,0.0151634,10,0.000594445,-2.60464,-4.91602,-0.0120016,-1.16298,0.239196,
2,1,0,1,0,20870.3,0.241007,0.240685,2.47506,11,0.0152255,10,0.000595708,-2.60641,-1.40045,-0.0421294,-4.07611,0.240685,
2,1,0,1,0,20870.4,0.242506,0.242217,2.47017,11,0.0152878,10,0.000598317,-2.60727,-1.2331,-0.0478471,-4.61855,0.2422172,
2,1,0,1,0,20870.4,0.244006,0.243685,2.46883,11,0.0153499,10,0.000601618,-2.60751,-1.49488,-0.0394681,-3.80226,0.243685,
2,1,0,1,0,20870.4,0.2455,0.245206,2.46889,11,0.0154117,10,0.000605386,-2.6075,-7.63096,-0.00773166,-0.744183,0.245206,
2,1,0,1,0,20870.4,0.247001,0.246699,2.45799,11,0.0154737,10,0.000606383,-2.60942,-1.44666,-0.0407835,-3.91178,0.246699,
2,1,0,1,0,20870.5,0.248502,0.248152,2.45562,11,0.0155356,10,0.000609367,-2.60984,-1.07294,-0.0549889,-5.26958,0.248152,
2,1,0,1,0,20870.5,0.249995,0.249699,2.45377,11,0.015597,10,0.000612705,-2.61017,-1.58483,-0.037228,-3.5549,0.249699,
2,1,0,1,0,20870.5,0.251494,0.251224,2.44811,11,0.0156586,10,0.000615025,-2.61117,-4.39278,-0.0134311,-1.28196,0.251224,
2,1,0,1,0,20870.5,0.252994,0.252662,2.43734,11,0.01572,10,0.000615824,-2.61308,-1.10667,-0.0533132,-5.08257,0.252662,
2,1,0,1,0,20870.6,0.254493,0.254194,2.43578,11,0.0157814,10,0.00061916,-2.61336,-1.42338,-0.0414506,-3.94318,0.254194,
2,1,0,1,0,20870.6,0.255988,0.255719,2.43285,11,0.0158424,10,0.000622126,-2.61388,-1.9593,-0.0301127,-2.85849,0.255719,
2,1,0,1,0,20870.6,0.257488,0.257188,2.43054,11,0.0159035,10,0.000625107,-2.6143,-6.1124,-0.00965251,-0.914422,0.257188,
2,1,0,1,0,20870.6,0.258989,0.25868,2.4256,11,0.0159646,10,0.000627454,-2.61518,-3.49296,-0.0168911,-1.59853,0.25868,
2,1,0,1,0,20870.7,0.260483,0.260204,2.42472,11,0.0160254,10,0.000630924,-2.61534,-1.10028,-0.0536228,-5.06627,0.2602044,
2,1,0,1,0,20870.7,0.261983,0.261687,2.41544,11,0.0160862,10,0.00063209,-2.617,-1.70119,-0.0346816,-3.26699,0.261687,
2,1,0,1,0,20870.7,0.263482,0.26317,2.41273,11,0.0161469,10,0.000634957,-2.61749,-5.58085,-0.0105719,-0.994803,0.26317,
2,1,0,1,0,20870.7,0.264982,0.264688,2.40289,11,0.0162075,10,0.000636015,-2.61927,-2.75778,-0.021394,-2.01108,0.264688,
2,1,0,1,0,20870.8,0.266476,0.266151,2.40172,11,0.0162678,10,0.00063922,-2.61948,-1.09304,-0.0539778,-5.06534,0.266151,
2,1,0,1,0,20870.8,0.267976,0.267662,2.39923,11,0.0163282,10,0.000642184,-2.61993,-1.78238,-0.0331017,-3.09392,0.267662,
2,1,0,1,0,20870.8,0.269477,0.269235,2.39659,11,0.0163885,10,0.000645246,-2.62041,25.7553,0.00229079,0.21409,0.269235,
2,1,0,1,0,20870.8,0.270971,0.27069,2.39321,11,0.0164484,10,0.00064782,-2.62102,-2.37579,-0.0248338,-2.31554,0.27069,
2,1,0,1,0,20870.9,0.27247,0.272154,2.38986,11,0.0165086,10,0.000650411,-2.62163,-1.05563,-0.0558909,-5.20229,0.272154,
2,1,0,1,0,20870.9,0.27397,0.273665,2.38054,11,0.0165686,10,0.00065147,-2.62333,-1.51238,-0.0390114,-3.62422,0.273665,
2,1,0,1,0,20870.9,0.275464,0.275099,2.37387,11,0.0166282,10,0.000653048,-2.62454,-2.88459,-0.0204535,-1.90043,0.275099,
2,1,0,1,0,20870.9,0.276965,0.276686,2.37065,11,0.0166879,10,0.000655926,-2.62513,-2.55863,-0.0230592,-2.13987,0.276686,
2,1,0,1,0,20871,0.278466,0.278159,2.36947,11,0.0167476,10,0.000659089,-2.62535,-0.928938,-0.0635134,-5.8693,0.278159,
2,1,0,1,0,20871,0.27996,0.279615,2.36851,11,0.0168069,10,0.000662271,-2.62552,-1.59374,-0.0370199,-3.40851,0.279615,
2,1,0,1,0,20871,0.281458,0.281201,2.36113,11,0.0168663,10,0.00066395,-2.62688,47.9004,0.00123172,0.113475,0.281201,
2,1,0,1,0,20871,0.282958,0.282622,2.354,11,0.0169256,10,0.000665291,-2.62819,84.1598,0.000701047,0.0645165,0.282622,
2,1,0,1,0,20871.1,0.284457,0.284183,2.35356,11,0.0169849,10,0.000668841,-2.62828,-1.20364,-0.0490178,-4.49999,0.284183,
2,1,0,1,0,20871.1,0.285951,0.285656,2.35023,11,0.0170438,10,0.000671358,-2.62889,-1.00992,-0.0584207,-5.3503,0.285656,
2,1,0,1,0,20871.1,0.287452,0.28714,2.33981,11,0.0171028,10,0.000671855,-2.63082,-2.39731,-0.0246109,-2.24924,0.28714,
2,1,0,1,0,20871.1,0.288953,0.28867,2.33631,11,0.0171616,10,0.000674422,-2.63147,-2.13493,-0.0276355,-2.52024,0.28867,
2,1,0,1,0,20871.2,0.290447,0.290121,2.33269,11,0.0172201,10,0.000676763,-2.63214,-1.42318,-0.0414565,-3.77344,0.290121,
2,1,0,1,0,20871.2,0.291947,0.291622,2.33354,11,0.0172788,10,0.000680512,-2.63198,-1.30522,-0.045203,-4.10476,0.291622,
2,1,0,1,0,20871.2,0.293446,0.293131,2.31781,11,0.0173373,10,0.000679422,-2.63492,-2.3049,-0.0255976,-2.32257,0.293131,
2,1,0,1,0,20871.2,0.29494,0.294639,2.31266,11,0.0173955,10,0.000681401,-2.63589,-3.04563,-0.019372,-1.75463,0.294639,
2,1,0,1,0,20871.3,0.29644,0.296097,2.31589,11,0.0174538,10,0.000685728,-2.63528,-1.38229,-0.0426828,-3.85336,0.2960974,
2,1,0,1,0,20871.3,0.297941,0.297616,2.31576,11,0.0175121,10,0.000689208,-2.63531,-1.35808,-0.0434438,-3.90726,0.297616,
2,1,0,1,0,20871.3,0.29944,0.299185,2.30798,11,0.0175702,10,0.000690511,-2.63677,-0.00659419,-8.94728,-598.518,0.299185,
2,1,0,1,0,20871.3,0.299736,0.299412,1.82951,11,0.0175999,10,0.000547777,-2.73767,0.00129955,45.4002,1715.07,0.299412,
2,1,0,1,0,20871.4,0.298238,0.297907,0.518532,11,0.0176261,10,0.000154474,-3.28522,0.00325287,18.1378,639.3,0.297907,
2,1,0,1,0,20871.4,0.296744,0.296501,-0.0311545,11,0.0176309,10,-9.23734e-06,-4.50648,0.0122861,4.80216,296.884,0.296501,
2,0,0,1,0,20871.4,0.295243,0.29493,-0.325336,11,0.0176256,10,-9.59515e-05,-3.48767,-0.00608984,-9.68827,161.187,0.29493,
2,0,0,1,0,20871.4,0.293742,0.293395,-0.492809,11,0.0176149,10,-0.000144588,-3.30732,-0.00954777,-6.17945,98.6718,0.2933951,
2,0,0,1,0,20871.5,0.292248,0.291882,-0.605061,11,0.0176007,10,-0.000176606,-3.2182,-0.0190207,-3.10189,69.0363,0.291882,
2,0,0,1,0,20871.5,0.290748,0.290427,-0.695377,11,0.017584,10,-0.000201956,-3.15778,-0.0297888,-1.98061,51.65,0.290427,
2,0,0,1,0,20871.5,0.289249,0.288935,-0.762616,11,0.0175653,10,-0.000220347,-3.11769,-0.0394542,-1.4954,43.8427,0.288935,
2,0,0,1,0,20871.5,0.287754,0.287426,-0.819545,11,0.0175451,10,-0.000235559,-3.08643,-0.0520196,-1.13419,36.0251,0.287426,
2,0,0,1,0,20871.6,0.286254,0.285932,-0.866829,11,0.0175235,10,-0.000247855,-3.06207,-0.0649681,-0.908138,30.6584,0.285932,
2,0,0,1,0,20871.6,0.284754,0.28443,-0.915992,11,0.0175008,10,-0.000260536,-3.03811,-0.0718865,-0.820738,29.1294,0.28443,
2,0,0,1,0,20871.6,0.28326,0.282933,-0.959872,11,0.0174771,10,-0.000271579,-3.01779,-0.0792265,-0.7447,27.5989,0.282933,
2,0,0,1,0,20871.6,0.28176,0.281441,-0.993397,11,0.0174523,10,-0.000279583,-3.00288,-0.0921212,-0.640461,24.6723,0.281441,
2,0,0,1,0,20871.7,0.280261,0.279955,-1.02328,11,0.0174267,10,-0.000286472,-2.99001,-0.117118,-0.503764,20.1214,0.279955,
2,0,0,1,0,20871.7,0.278761,0.278433,-1.05899,11,0.0174002,10,-0.000294859,-2.97511,-0.130596,-0.451776,18.6278,0.278433,
2,0,0,1,0,20871.7,0.277267,0.276974,-1.08811,11,0.0173731,10,-0.000301379,-2.96333,-0.118885,-0.496278,21.0024,0.276974,
2,0,0,1,0,20871.7,0.275766,0.275433,-1.11373,11,0.0173452,10,-0.000306757,-2.95322,-0.154984,-0.380683,16.5393,0.275433,
2,0,0,1,0,20871.8,0.274265,0.273951,-1.14284,11,0.0173165,10,-0.000313082,-2.94202,-0.161865,-0.364501,16.257,0.273951,
2,0,0,1,0,20871.8,0.272771,0.272455,-1.16742,11,0.0172874,10,-0.000318069,-2.93277,-0.168687,-0.34976,15.8899,0.272455,
2,0,0,1,0,20871.8,0.271272,0.270947,-1.19405,11,0.0172575,10,-0.000323524,-2.92298,-0.143382,-0.411489,19.0861,0.270947,
2,0,0,1,0,20871.8,0.269772,0.269477,-1.21751,11,0.0172269,10,-0.000328092,-2.91453,-0.166699,-0.353931,16.736,0.269477,
2,0,0,1,0,20871.9,0.268273,0.267979,-1.23839,11,0.0171958,10,-0.000331863,-2.90714,-0.21262,-0.27749,13.3985,0.267979,
2,0,0,1,0,20871.9,0.26678,0.266501,-1.25858,11,0.0171643,10,-0.000335413,-2.90012,-0.245373,-0.24045,11.8051,0.266501,
2,0,0,1,0,20871.9,0.265279,0.264961,-1.28069,11,0.0171322,10,-0.000339333,-2.89256,-0.204282,-0.288817,14.391,0.264961,
2,0,0,1,0,20871.9,0.263778,0.263461,-1.29965,11,0.0170995,10,-0.000342407,-2.88617,-0.217789,-0.270904,13.7484,0.263461,
2,0,0,1,0,20872,0.262284,0.261936,-1.31768,11,0.0170664,10,-0.000345148,-2.88019,-0.282642,-0.208745,10.7413,0.261936,
2,0,0,1,0,20872,0.260784,0.260521,-1.3354,11,0.0170328,10,-0.0003479,-2.87439,-0.26424,-0.223282,11.6665,0.260521,
2,0,0,1,0,20872,0.259285,0.258955,-1.35693,11,0.0169987,10,-0.000351383,-2.86744,-0.239919,-0.245917,13.0191,0.2589547,
2,0,0,1,0,20872,0.257791,0.257484,-1.37279,11,0.0169643,10,-0.000353472,-2.8624,-0.24978,-0.236208,12.6927,0.257484,
2,0,0,1,0,20872.1,0.25629,0.255919,-1.39121,11,0.0169292,10,-0.000356037,-2.85661,-0.338365,-0.174368,9.46133,0.255919,
2,0,0,1,0,20872.1,0.254789,0.254493,-1.40741,11,0.0168938,10,-0.000358177,-2.85158,-0.339071,-0.174005,9.55494,0.254493,
2,0,0,1,0,20872.1,0.253296,0.252964,-1.42757,11,0.0168581,10,-0.000361122,-2.8454,-0.239309,-0.246543,13.705,0.2529636,
2,0,0,1,0,20872.1,0.251797,0.251496,-1.4358,11,0.0168219,10,-0.0003611,-2.8429,-0.25075,-0.235294,13.2501,0.251496,
2,0,0,1,0,20872.1,0.250297,0.249952,-1.45491,11,0.0167852,10,-0.000363656,-2.83716,-0.347905,-0.169586,9.64558,0.249952,
2,0,0,1,0,20872.2,0.248797,0.24846,-1.47734,11,0.0167482,10,-0.000367058,-2.83052,-0.37035,-0.159309,9.14452,0.24846,
2,0,0,1,0,20872.2,0.247303,0.246993,-1.48861,11,0.0167109,10,-0.000367676,-2.82722,-0.29482,-0.200122,11.6169,0.246993,
2,0,0,1,0,20872.2,0.245802,0.245454,-1.50246,11,0.0166731,10,-0.000368786,-2.8232,-0.272995,-0.216121,12.6869,0.245454,
2,0,0,1,0,20872.2,0.244302,0.24399,-1.51619,11,0.0166349,10,-0.000369935,-2.81925,-0.360532,-0.163647,9.68752,0.24399,
2,0,0,1,0,20872.3,0.242807,0.242485,-1.53681,11,0.0165964,10,-0.000372655,-2.81338,-0.490918,-0.120183,7.18297,0.242485,
2,0,0,1,0,20872.3,0.241308,0.241006,-1.54649,11,0.0165575,10,-0.000372713,-2.81065,-0.366615,-0.160932,9.70181,0.241006,
2,0,0,1,0,20872.3,0.239808,0.23951,-1.56037,11,0.0165182,10,-0.000373724,-2.80677,-0.269863,-0.218629,13.315,0.2395104,
2,0,0,1,0,20872.3,0.238309,0.237967,-1.57339,11,0.0164786,10,-0.000374415,-2.80316,-0.374978,-0.157343,9.67943,0.237967,
2,0,0,1,0,20872.4,0.236815,0.236502,-1.59332,11,0.0164388,10,-0.000376822,-2.7977,-0.41668,-0.141596,8.76513,0.236502,
2,0,0,1,0,20872.4,0.235315,0.234997,-1.59791,11,0.0163985,10,-0.000375506,-2.79645,-0.37327,-0.158063,9.85084,0.234997,
2,0,0,1,0,20872.4,0.233814,0.233467,-1.61629,11,0.0163578,10,-0.000377349,-2.79148,-0.347958,-0.169561,10.6998,0.233467,
2,0,0,1,0,20872.4,0.23232,0.231999,-1.6296,11,0.016317,10,-0.000378066,-2.78792,-0.516968,-0.114127,7.25565,0.231999,
2,0,0,1,0,20872.5,0.230821,0.230529,-1.64536,11,0.0162756,10,-0.000379303,-2.78374,-0.565572,-0.104319,6.66778,0.230529,
2,0,0,1,0,20872.5,0.229321,0.228987,-1.65497,11,0.016234,10,-0.000378968,-2.78121,-0.392764,-0.150218,9.70906,0.228987,
2,0,0,1,0,20872.5,0.227827,0.227508,-1.66297,11,0.0161923,10,-0.00037834,-2.77911,-0.363661,-0.162239,10.5943,0.227508,
2,0,0,1,0,20872.5,0.226326,0.226029,-1.68001,11,0.01615,10,-0.000379732,-2.77469,-0.415168,-0.142111,9.32544,0.226029,
2,0,0,1,0,20872.6,0.224825,0.224526,-1.70014,11,0.0161073,10,-0.000381726,-2.76952,-0.567301,-0.104001,6.87386,0.224526,
2,0,0,1,0,20872.6,0.223331,0.22301,-1.71429,11,0.0160645,10,-0.000382303,-2.76592,-0.456309,-0.129298,8.5979,0.22301,
2,0,0,1,0,20872.6,0.221831,0.221498,-1.7194,11,0.0160212,10,-0.000380843,-2.76462,-0.408823,-0.144317,9.69106,0.221498,
2,0,0,1,0,20872.6,0.220333,0.220032,-1.73342,11,0.0159777,10,-0.000381409,-2.7611,-0.487086,-0.121129,8.19491,0.220032,
2,0,0,1,0,20872.7,0.218834,0.218512,-1.75436,11,0.0159337,10,-0.00038335,-2.75588,-0.410287,-0.143802,9.80492,0.218512,
2,0,0,1,0,20872.7,0.217339,0.217025,-1.76309,11,0.0158896,10,-0.000382634,-2.75373,-0.52612,-0.112142,7.69129,0.217025,
2,0,0,1,0,20872.7,0.215839,0.215534,-1.76566,11,0.015845,10,-0.000380559,-2.75309,-0.473517,-0.124599,8.63137,0.215534,
2,0,0,1,0,20872.7,0.214338,0.214003,-1.78356,11,0.0158002,10,-0.000381687,-2.74871,-0.46882,-0.125848,8.7532,0.214003,
2,0,0,1,0,20872.8,0.212844,0.212496,-1.80542,11,0.0157551,10,-0.000383646,-2.74342,-0.604013,-0.0976799,6.83606,0.212496,
2,0,0,1,0,20872.8,0.211344,0.211013,-1.81374,11,0.0157096,10,-0.000382724,-2.74142,-0.488817,-0.1207,8.51224,0.2110133,
2,0,0,1,0,20872.8,0.209845,0.209498,-1.81537,11,0.0156637,10,-0.000380315,-2.74104,-0.474962,-0.124221,8.83809,0.209498,
2,0,0,1,0,20872.8,0.20835,0.208026,-1.8335,11,0.0156178,10,-0.000381415,-2.73672,-0.435516,-0.135472,9.73481,0.2080258,
2,0,0,1,0,20872.9,0.206851,0.206523,-1.85866,11,0.0155713,10,-0.000383856,-2.7308,-0.460569,-0.128102,9.24482,0.206523,
2,0,0,1,0,20872.9,0.20535,0.205016,-1.86935,11,0.0155243,10,-0.000383245,-2.72831,-0.611532,-0.096479,6.99381,0.205016,
2,0,0,1,0,20872.9,0.203856,0.203503,-1.87216,11,0.0154773,10,-0.000380989,-2.72766,-0.518751,-0.113735,8.34387,0.203503,
2,0,0,1,0,20872.9,0.202356,0.202027,-1.88336,11,0.0154299,10,-0.000380489,-2.72507,-0.598679,-0.0985503,7.28619,0.202027,
2,0,0,1,0,20873,0.200857,0.200513,-1.90444,11,0.0153821,10,-0.000381865,-2.72023,-0.486401,-0.121299,9.00349,0.200513,
2,0,0,1,0,20873,0.199357,0.199042,-1.92097,11,0.0153339,10,-0.000382353,-2.71648,-0.43923,-0.134326,10.0303,0.199042,
2,0,0,1,0,20873,0.197863,0.197547,-1.93221,11,0.0152855,10,-0.000381703,-2.71395,-0.506322,-0.116527,8.77941,0.197547,
2,0,0,1,0,20873,0.196362,0.196067,-1.94343,11,0.0152367,10,-0.000381043,-2.71143,-0.520385,-0.113378,8.612,0.196067,
2,0,0,1,0,20873.1,0.194861,0.194497,-1.96098,11,0.0151875,10,-0.000381405,-2.70753,-0.425862,-0.138542,10.5774,0.194497,
2,0,0,1,0,20873.1,0.193367,0.193036,-1.98249,11,0.0151381,10,-0.000382691,-2.70279,-0.378734,-0.155782,12.0008,0.193036,
2,0,0,1,0,20873.1,0.191868,0.191528,-1.986,11,0.0150881,10,-0.000380375,-2.70202,-0.478403,-0.123327,9.58365,0.191528,
2,0,0,1,0,20873.1,0.190368,0.190067,-1.9973,11,0.0150377,10,-0.000379622,-2.69956,-0.434026,-0.135937,10.652,0.190067,
2,0,0,1,0,20873.2,0.18887,0.188563,-2.01968,11,0.0149871,10,-0.000380837,-2.69472,-0.428893,-0.137563,10.8398,0.188563,
2,0,0,1,0,20873.2,0.187376,0.187053,-2.04322,11,0.0149361,10,-0.000382189,-2.68969,-0.365914,-0.16124,12.8049,0.187053,
2,0,0,1,0,20873.2,0.185875,0.185532,-2.05297,11,0.0148845,10,-0.000380892,-2.68762,-0.368935,-0.15992,12.8032,0.185532,
2,0,0,1,0,20873.2,0.184374,0.184058,-2.06543,11,0.0148325,10,-0.00038016,-2.68499,-0.441607,-0.133603,10.7949,0.184058,
2,0,0,1,0,20873.3,0.18288,0.182556,-2.09063,11,0.0147803,10,-0.000381656,-2.67972,-0.491507,-0.120039,9.7894,0.182556,
2,0,0,1,0,20873.3,0.18138,0.181059,-2.10709,11,0.0147274,10,-0.000381508,-2.67632,-0.361269,-0.163313,13.4288,0.181059,
2,0,0,1,0,20873.3,0.179881,0.179603,-2.1259,11,0.014674,10,-0.000381819,-2.67246,-0.369855,-0.159522,13.2514,0.179603,
2,0,0,1,0,20873.3,0.178387,0.178077,-2.14196,11,0.0146204,10,-0.000381434,-2.66919,-0.400831,-0.147194,12.3472,0.1780773,
2,0,0,1,0,20873.4,0.176886,0.176547,-2.16526,11,0.0145661,10,-0.00038227,-2.66449,-0.406567,-0.145118,12.2828,0.176547,
2,0,0,1,0,20873.4,0.175385,0.175062,-2.19735,11,0.0145112,10,-0.000384672,-2.6581,-0.287535,-0.205192,17.5001,0.175062,
2,0,0,1,0,20873.4,0.173892,0.173564,-2.21129,11,0.014456,10,-0.0003838,-2.65535,-0.266528,-0.221365,19.1232,0.173564,
2,0,0,1,0,20873.4,0.172392,0.172044,-2.23815,11,0.0143999,10,-0.000385062,-2.65011,-0.327431,-0.180191,15.7565,0.172044,
2,0,0,1,0,20873.5,0.170893,0.170566,-2.26551,11,0.0143433,10,-0.000386418,-2.64483,-0.320497,-0.184089,16.2641,0.170566,
2,0,0,1,0,20873.5,0.169393,0.169044,-2.29504,11,0.0142859,10,-0.000387963,-2.63921,-0.244127,-0.241677,21.5819,0.169044,
2,0,0,1,0,20873.5,0.167899,0.167592,-2.32351,11,0.014228,10,-0.000389401,-2.63386,-0.249907,-0.236088,21.4068,0.167592,
2,0,0,1,0,20873.5,0.166398,0.166055,-2.3496,11,0.0141691,10,-0.000390163,-2.62901,-0.277077,-0.212937,19.6024,0.166055,
2,0,0,1,0,20873.6,0.164898,0.164578,-2.38237,11,0.0141095,10,-0.000392085,-2.62299,-0.260301,-0.226661,21.1171,0.164578,
2,0,0,1,0,20873.6,0.163403,0.163062,-2.42286,11,0.0140493,10,-0.000395076,-2.61567,-0.217496,-0.271269,25.6232,0.163062,
2,0,0,1,0,20873.6,0.161904,0.161553,-2.46068,11,0.0139879,10,-0.000397531,-2.60894,-0.192671,-0.306221,29.4021,0.161553,
2,0,0,1,0,20873.6,0.160404,0.160106,-2.49855,11,0.0139254,10,-0.000400034,-2.60231,-0.20978,-0.281247,27.4822,0.160106,
2,0,0,1,0,20873.7,0.158905,0.158567,-2.54515,11,0.0138619,10,-0.000403576,-2.59429,-0.203133,-0.290451,28.9139,0.158567,
2,0,0,1,0,20873.7,0.157411,0.157058,-2.59736,11,0.0137975,10,-0.000407936,-2.58547,-0.169465,-0.348155,35.3244,0.157058,
2,0,0,1,0,20873.7,0.155911,0.155567,-2.64667,11,0.0137315,10,-0.000411734,-2.5773,-0.156005,-0.378193,39.2107,0.155567,
2,0,0,1,0,20873.7,0.15441,0.154102,-2.70775,11,0.013664,10,-0.00041727,-2.56739,-0.154539,-0.38178,40.4535,0.1541021,
2,0,0,1,0,20873.8,0.152916,0.152614,-2.77984,11,0.0135953,10,-0.000424241,-2.55598,-0.147424,-0.400205,43.4258,0.1526136,
2,0,0,1,0,20873.8,0.151417,0.15109,-2.84734,11,0.0135246,10,-0.000430203,-2.54556,-0.133068,-0.443381,49.3098,0.15109,
2,0,0,1,0,20873.8,0.149917,0.149582,-2.92395,11,0.0134521,10,-0.000437369,-2.53403,-0.115958,-0.508804,58.2199,0.149582,
2,0,0,1,0,20873.8,0.148423,0.148105,-3.01191,11,0.0133777,10,-0.000446078,-2.52116,-0.114451,-0.515504,60.8071,0.148105,
2,0,0,1,0,20873.9,0.146922,0.146599,-3.10931,11,0.0133008,10,-0.000455823,-2.50734,-0.10816,-0.545486,66.3413,0.146599,
2,0,0,1,0,20873.9,0.145421,0.145079,-3.21596,11,0.0132213,10,-0.000466569,-2.49269,-0.0989611,-0.596194,74.8856,0.145079,
2,0,0,1,0,20873.9,0.143927,0.143566,-3.33315,11,0.0131394,10,-0.000478528,-2.47715,-0.090798,-0.649794,84.6486,0.143566,
2,0,0,1,0,20873.9,0.142429,0.142091,-3.45741,11,0.0130541,10,-0.000491267,-2.46125,-0.0888886,-0.663752,89.7669,0.142091,
2,0,0,1,0,20874,0.140929,0.14062,-3.59807,11,0.0129654,10,-0.000505961,-2.44393,-0.0884922,-0.666725,93.6961,0.14062,
2,0,0,1,0,20874,0.13943,0.139076,-3.74483,11,0.0128732,10,-0.000520815,-2.42657,-0.0862113,-0.684365,99.9898,0.139076,
2,0,0,1,0,20874,0.137935,0.137578,-3.89388,11,0.0127777,10,-0.000535713,-2.40962,-0.0829406,-0.711353,108.286,0.137578,
2,0,0,1,0,20874,0.136435,0.136105,-4.05807,11,0.0126778,10,-0.000552323,-2.39168,-0.0860193,-0.685893,108.672,0.136105,
2,0,0,1,0,20874.1,0.134934,0.134579,-4.22799,11,0.0125738,10,-0.000568997,-2.37387,-0.0876561,-0.673085,110.888,0.134579,
2,0,0,1,0,20874.1,0.13344,0.13313,-4.40285,11,0.0124659,10,-0.000586151,-2.35627,-0.0882909,-0.668246,114.562,0.13313,
2,0,0,1,0,20874.1,0.13194,0.131631,-4.56529,11,0.0123534,10,-0.000600932,-2.34053,-0.0917247,-0.643229,114.621,0.131631,
2,0,0,1,0,20874.1,0.13044,0.13013,-4.73195,11,0.0122366,10,-0.000615766,-2.32496,-0.0962637,-0.6129,113.245,0.13013,
2,0,0,1,0,20874.2,0.128941,0.128652,-4.90613,11,0.0121157,10,-0.000631183,-2.30926,-0.104177,-0.566341,108.301,0.128652,
2,0,0,1,0,20874.2,0.127447,0.127119,-5.07993,11,0.011991,10,-0.000645754,-2.29414,-0.106197,-0.555571,109.676,0.127119,
2,0,0,1,0,20874.2,0.125946,0.125586,-5.23028,11,0.0118618,10,-0.000656848,-2.28148,-0.115505,-0.5108,104.114,0.125586,
2,0,0,1,0,20874.2,0.124446,0.124118,-5.37994,11,0.0117287,10,-0.00066775,-2.26922,-0.124699,-0.47314,99.1534,0.124118,
2,0,0,1,0,20874.3,0.122952,0.122639,-5.52235,11,0.0115924,10,-0.000677254,-2.25788,-0.137835,-0.428048,92.1566,0.122639,
2,0,0,1,0,20874.3,0.121453,0.121152,-5.66682,11,0.0114521,10,-0.000686546,-2.24666,-0.150797,-0.391254,86.2576,0.121152,
2,0,0,1,0,20874.3,0.119953,0.119606,-5.77777,11,0.0113085,10,-0.000691054,-2.23824,-0.164337,-0.359018,80.9624,0.119606,
2,0,0,1,0,20874.3,0.118459,0.118135,-5.89606,11,0.0111626,10,-0.000696528,-2.22944,-0.182742,-0.322859,74.2649,0.118135,
2,0,0,1,0,20874.4,0.116958,0.116637,-6.0123,11,0.0110133,10,-0.000701255,-2.22096,-0.208771,-0.282606,66.1385,0.116637,
2,0,0,1,0,20874.4,0.115457,0.11515,-6.11043,11,0.0108614,10,-0.000703617,-2.21393,-0.231381,-0.25499,60.6205,0.11515,
2,0,0,1,0,20874.4,0.113963,0.113643,-6.18321,11,0.0107078,10,-0.000702682,-2.20879,-0.259061,-0.227746,54.933,0.1136435,
2,0,0,1,0,20874.4,0.112464,0.11217,-6.25879,11,0.0105517,10,-0.000702046,-2.20351,-0.310406,-0.190074,46.4331,0.11217,
2,0,0,1,0,20874.5,0.110965,0.110649,-6.33072,11,0.0103938,10,-0.000700487,-2.19855,-0.366895,-0.160809,39.6859,0.110649,
2,0,0,1,0,20874.5,0.109466,0.109127,-6.39201,11,0.0102343,10,-0.000697539,-2.19436,-0.439301,-0.134304,33.4256,0.109127,
2,0,0,1,0,20874.5,0.107972,0.107686,-6.43416,11,0.0100742,10,-0.000692866,-2.19151,-0.530922,-0.111127,27.8697,0.107686,
2,0,0,1,0,20874.5,0.106471,0.106162,-6.46575,11,0.0099125,10,-0.000686417,-2.18938,-0.715472,-0.0824631,20.8023,0.106162,
2,0,0,1,0,20874.6,0.10497,0.10467,-6.50144,11,0.00974996,10,-0.000680507,-2.18699,-1.04518,-0.0564497,14.2891,0.10467,
2,0,0,1,0,20874.6,0.103476,0.103158,-6.51759,11,0.00958749,10,-0.00067234,-2.18591,-2.77362,-0.0212719,5.39842,0.103158,
2,0,0,1,0,20874.6,0.101976,0.101652,-6.52344,11,0.00942406,10,-0.000663119,-2.18552,-233.032,-0.000253184,0.064307,0.101652,
2,0,0,1,0,20874.6,0.100477,0.100171,-6.50984,11,0.00926074,10,-0.000652101,-2.18643,1.90725,0.0309346,-7.86225,0.100171,
2,0,0,1,0,20874.7,0.0989825,0.0986778,-6.4984,11,0.00909835,10,-0.000641248,-2.18719,1.08298,0.0544795,-13.797,0.0986778,
2,0,0,1,0,20874.7,0.0974817,0.0971378,-6.47742,11,0.00893574,10,-0.000629202,-2.1886,0.825295,0.0714896,-18.0383,0.0971378,
2,0,0,1,0,20874.7,0.0959822,0.0956193,-6.4434,11,0.00877382,10,-0.000616113,-2.19089,0.611197,0.0965319,-24.2325,0.0956193,
2,0,0,1,0,20874.7,0.094488,0.0941492,-6.38906,11,0.0086135,10,-0.000601525,-2.19456,0.479184,0.123126,-30.7358,0.0941492,
2,0,0,1,0,20874.8,0.0929884,0.0927145,-6.34829,11,0.00845373,10,-0.000588579,-2.19734,0.427529,0.138002,-34.1792,0.0927145,
2,0,0,1,0,20874.8,0.0914889,0.0911953,-6.30312,11,0.00829512,10,-0.000574815,-2.20044,0.416151,0.141775,-34.8258,0.0911953,
2,0,0,1,0,20874.8,0.0899894,0.0896799,-6.24528,11,0.00813786,10,-0.000560076,-2.20445,0.367509,0.16054,-39.0839,0.0896799,
2,0,0,1,0,20874.8,0.0884951,0.0881479,-6.17321,11,0.0079827,10,-0.000544155,-2.20949,0.34195,0.17254,-41.6327,0.0881479,
2,0,0,1,0,20874.9,0.0869943,0.0866576,-6.11963,11,0.00782856,10,-0.000530312,-2.21327,0.315056,0.187268,-44.7273,0.0866576,
2,0,0,1,0,20874.9,0.0854935,0.0851326,-6.06693,11,0.00767591,10,-0.000516493,-2.21703,0.345631,0.170702,-40.3538,0.0851326,
2,0,0,1,0,20874.9,0.0839993,0.0837159,-6.00529,11,0.00752534,10,-0.000502738,-2.22147,0.358786,0.164443,-38.4999,0.0837159,
2,0,0,1,0,20874.9,0.0824998,0.0821561,-5.94154,11,0.00737561,10,-0.000488134,-2.2261,0.367064,0.160735,-37.3129,0.0821561,
2,0,0,1,0,20875,0.0810002,0.0806242,-5.8827,11,0.00722741,10,-0.000474289,-2.23042,0.36863,0.160052,-36.8261,0.0806242,
2,0,0,1,0,20875,0.0795007,0.0791749,-5.84198,11,0.00708045,10,-0.000462538,-2.23344,0.448105,0.131666,-30.0006,0.0791749,
2,0,0,1,0,20875,0.0780078,0.0776941,-5.79447,11,0.0069352,10,-0.000450196,-2.23699,0.473713,0.124548,-28.1527,0.0776941,
2,0,0,1,0,20875,0.076507,0.0761832,-5.75063,11,0.00679046,10,-0.000438101,-2.24028,0.467398,0.126231,-28.3476,0.07618317,
2,0,0,1,0,20875.1,0.0750062,0.0746783,-5.7073,11,0.00664686,10,-0.000426212,-2.24357,0.44847,0.131558,-29.3189,0.0746783,
2,0,0,1,0,20875.1,0.073512,0.0731879,-5.66873,11,0.00650477,10,-0.000414883,-2.24651,0.578904,0.101917,-22.5498,0.0731879,
2,0,0,1,0,20875.1,0.0720124,0.0716398,-5.63749,11,0.006363,10,-0.000403869,-2.24891,0.628013,0.0939471,-20.6796,0.0716398,
2,0,0,1,0,20875.1,0.0705129,0.0702284,-5.59881,11,0.00622202,10,-0.000393195,-2.2519,0.585927,0.100695,-22.032,0.0702284,
2,0,0,1,0,20875.2,0.0690187,0.0687153,-5.56922,11,0.00608243,10,-0.00038269,-2.25421,0.552525,0.106782,-23.2393,0.0687153,
2,0,0,1,0,20875.2,0.0675179,0.0671853,-5.54641,11,0.00594307,10,-0.000372637,-2.25599,0.744715,0.0792249,-17.1474,0.06718526,
2,0,0,1,0,20875.2,0.066017,0.0656691,-5.52892,11,0.00580437,10,-0.000363079,-2.25736,0.770753,0.0765485,-16.4798,0.0656691,
2,0,0,1,0,20875.2,0.0645242,0.0641898,-5.48927,11,0.00566679,10,-0.000352355,-2.26049,0.619418,0.0952507,-20.3972,0.0641898,
2,0,0,1,0,20875.3,0.0630246,0.0627085,-5.46115,11,0.00552943,10,-0.00034246,-2.26272,0.584559,0.100931,-21.5177,0.0627085,
2,0,0,1,0,20875.3,0.0615251,0.0611882,-5.43612,11,0.00539282,10,-0.000332627,-2.26471,0.68489,0.0861453,-18.2804,0.0611882,
2,0,0,1,0,20875.3,0.0600256,0.0597025,-5.4066,11,0.00525688,10,-0.000322787,-2.26708,0.737137,0.0800394,-16.896,0.0597025,
2,0,0,1,0,20875.3,0.0585314,0.0581708,-5.3809,11,0.00512212,10,-0.000313011,-2.26914,0.637209,0.0925912,-19.4456,0.0581708,
2,0,0,1,0,20875.4,0.0570305,0.0566516,-5.35465,11,0.00498748,10,-0.000303349,-2.27127,0.597569,0.0987334,-20.609,0.0566516,
2,0,0,1,0,20875.4,0.0555297,0.0552401,-5.32837,11,0.00485365,10,-0.00029434,-2.27341,0.661237,0.0892267,-18.5315,0.05524011,
2,0,0,1,0,20875.4,0.0540355,0.0536895,-5.30009,11,0.00472105,10,-0.000284559,-2.27572,0.766106,0.0770128,-15.9156,0.0536895,
2,0,0,1,0,20875.4,0.052536,0.0522068,-5.2684,11,0.00458849,10,-0.000275046,-2.27832,0.708765,0.0832433,-17.1161,0.05220684,
2,0,0,1,0,20875.5,0.0510364,0.050683,-5.24181,11,0.00445662,10,-0.00026567,-2.28052,0.520536,0.113345,-23.1884,0.050683,
2,0,0,1,0,20875.5,0.0495369,0.0492558,-5.20967,11,0.00432556,10,-0.000256607,-2.28319,0.581945,0.101384,-20.6127,0.0492558,
2,0,0,1,0,20875.5,0.0480427,0.0477117,-5.18135,11,0.00419577,10,-0.000247211,-2.28556,0.717293,0.0822537,-16.6311,0.0477117,
2,0,0,1,0,20875.5,0.0465432,0.046203,-5.15152,11,0.0040662,10,-0.000238016,-2.28806,0.617245,0.0955861,-19.2198,0.046203,
2,0,0,1,0,20875.6,0.0450424,0.0446878,-5.12176,11,0.00393732,10,-0.00022888,-2.29058,0.48724,0.12109,-24.1896,0.0446878,
2,0,0,1,0,20875.6,0.0435482,0.0431669,-5.08959,11,0.00380976,10,-0.000219702,-2.29332,0.522336,0.112954,-22.4063,0.0431669,
2,0,0,1,0,20875.6,0.0420486,0.0417467,-5.05709,11,0.00368258,10,-0.000211117,-2.2961,0.624558,0.0944668,-18.6445,0.0417467,
2,0,0,1,0,20875.6,0.0405491,0.0402205,-5.02058,11,0.00355619,10,-0.00020193,-2.29925,0.532259,0.110848,-21.7387,0.0402205,
2,0,0,1,0,20875.7,0.0390549,0.0387183,-4.9954,11,0.00343099,10,-0.000193413,-2.30143,0.450212,0.131049,-25.514,0.0387183,
2,0,0,1,0,20875.7,0.0375541,0.037189,-4.96438,11,0.00330613,10,-0.000184621,-2.30413,0.470817,0.125314,-24.2298,0.037189,
2,0,0,1,0,20875.7,0.0360532,0.0357389,-4.91886,11,0.00318228,10,-0.000175795,-2.30814,0.468046,0.126056,-24.2196,0.0357389,
2,0,0,1,0,20875.7,0.034559,0.0342008,-4.8839,11,0.00305981,10,-0.000167033,-2.31123,0.471936,0.125017,-23.8361,0.0342008,
2,0,0,1,0,20875.8,0.0330595,0.0327517,-4.85045,11,0.00293771,10,-0.000158861,-2.31422,0.411874,0.143248,-27.089,0.0327517,
2,0,0,1,0,20875.8,0.0315613,0.0311819,-4.81604,11,0.00281652,10,-0.000150173,-2.31731,0.422755,0.139561,-26.1734,0.0311819,
2,0,0,1,0,20875.8,0.0300618,0.0297418,-4.77077,11,0.00269636,10,-0.000141892,-2.32141,0.432984,0.136264,-25.3515,0.0297418,
2,0,0,1,0,20875.8,0.0285676,0.0282499,-4.72389,11,0.00257768,10,-0.000133449,-2.3257,0.426056,0.138479,-25.57,0.0282499,
2,0,0,1,0,20875.9,0.0270667,0.0267181,-4.68834,11,0.00245951,10,-0.000125264,-2.32898,0.39102,0.150887,-27.6211,0.0267181,
2,0,0,1,0,20875.9,0.0255659,0.025205,-4.65483,11,0.00234229,10,-0.000117325,-2.3321,0.363278,0.16241,-29.4482,0.025205,
2,0,0,1,0,20875.9,0.0240717,0.0237337,-4.60527,11,0.0022266,10,-0.0001093,-2.33675,0.404603,0.145822,-26.2347,0.0237337,
2,0,0,1,0,20875.9,0.0225722,0.0222697,-4.56007,11,0.00211153,10,-0.000101551,-2.34103,0.417125,0.141444,-25.2341,0.0222697,
2,0,0,1,0,20876,0.0210726,0.0207705,-4.52825,11,0.00199742,10,-9.40542e-05,-2.34407,0.393906,0.149782,-26.4749,0.0207705,
2,0,0,1,0,20876,0.0195784,0.0192517,-4.49537,11,0.00188466,10,-8.65436e-05,-2.34723,0.381464,0.154667,-27.0861,0.0192517,
2,0,0,1,0,20876,0.0180789,0.017732,-4.44794,11,0.00177246,10,-7.88709e-05,-2.35184,0.425278,0.138733,-24.1151,0.017732,
2,0,0,1,0,20876,0.0165781,0.0162231,-4.40784,11,0.00166131,10,-7.1509e-05,-2.35577,0.462389,0.127598,-21.9884,0.0162231,
2,0,0,1,0,20876.1,0.0150839,0.0147691,-4.37717,11,0.00155144,10,-6.4647e-05,-2.35881,0.444915,0.13261,-22.6542,0.0147691,
2,0,0,1,0,20876.1,0.0135844,0.0132285,-4.35177,11,0.00144189,10,-5.75672e-05,-2.36133,0.433858,0.135989,-23.0398,0.0132285,
2,0,0,1,0,20876.1,0.0120848,0.0117737,-4.3128,11,0.00133321,10,-5.07777e-05,-2.36524,0.490875,0.120193,-20.2427,0.0117737,
2,0,0,1,0,20876.1,0.0105853,0.0102377,-4.27746,11,0.00122542,10,-4.37914e-05,-2.36881,0.497819,0.118517,-19.8253,0.0102377,
2,0,0,1,0,20876.2,0.00909108,0.00877832,-4.25119,11,0.00111876,10,-3.73183e-05,-2.37149,0.492112,0.119891,-19.9055,0.00877832,
2,0,0,1,0,20876.2,0.00759027,0.00727721,-4.23,11,0.00101231,10,-3.07826e-05,-2.37366,0.53336,0.110619,-18.243,0.00727721,
2,0,0,1,0,20876.2,0.00608945,0.00575373,-4.21028,11,0.000906535,10,-2.42248e-05,-2.37569,0.661198,0.0892319,-14.6336,0.00575373,
2,0,0,1,0,20876.2,0.00459524,0.00428478,-4.17334,11,0.000801818,10,-1.78818e-05,-2.37952,0.699913,0.0842962,-13.7558,0.00428478,
2,0,0,1,0,20876.3,0.0030957,0.00279468,-4.15662,11,0.000697224,10,-1.16164e-05,-2.38126,1.55982,0.0378248,-6.15737,0.00279468,
2,0,0,1,0,20876.3,0.00159616,0.00121714,-4.17494,11,0.000592575,10,-5.08148e-06,-2.37935, , , ,0.001217138,
2,0,0,1,0,20876.3,0.000199195,-0.000138268,-4.14408,11,0.000495338,10,5.72993e-07,-2.38257, , , ,-0.000138268,