File: Figure_codes/Fig_3-5/rawdata_trumpetplot_data/after 10th/20221101_1-115_003_TrumpetPlot_ParaChange_from10_every3_05_CV_C01_22.csv
mode,ox/red,error,control changes,counter inc.,time/s,control/V,Ewe/V,<I>/mA,cycle number,(Q-Qo)/C,I Range,P/W,log(|I|),Tafel slope mV/dec,alpha_eff,dI/d(E-IR),E-IR/V,
2,0,0,1,0,44462.9,2.44065e-05,-0.000401673,-0.736062,23,0.0000000E+000,10,2.95656e-07,-3.13309, , , ,-0.000401673,
2,0,0,1,0,44462.9,0.00129787,0.000896687,0.0454038,23,-1.45173e-05,10,4.0713e-08,-4.34291, , , ,0.000896687,
2,1,0,1,0,44463,0.00279606,0.0024996,0.39277,23,5.05606e-06,10,9.81768e-07,-3.40586,0.00720068,8.19367,178.237,0.0024996,
2,1,0,1,0,44463.1,0.00429425,0.00398089,0.532433,23,4.14442e-05,10,2.11956e-06,-3.27373,0.0131135,4.49917,79.4592,0.00398089,
2,1,0,1,0,44463.2,0.00579244,0.00543351,0.607128,23,8.57049e-05,10,3.29884e-06,-3.21672,0.0287567,2.0517,46.6751,0.00543351,
2,1,0,1,0,44463.2,0.00729063,0.00696502,0.668374,23,0.000135001,10,4.65524e-06,-3.17498,0.0449882,1.31145,33.3409,0.00696502,
2,1,0,1,0,44463.3,0.00878882,0.00845552,0.712554,23,0.000187942,10,6.02502e-06,-3.14718,0.0640814,0.920704,25.1921,0.00845552,
2,1,0,1,0,44463.4,0.010287,0.0099673,0.744276,23,0.000243691,10,7.41843e-06,-3.12827,0.081573,0.723278,20.8135,0.0099673,
2,1,0,1,0,44463.5,0.0117852,0.0114648,0.773499,23,0.000301755,10,8.86805e-06,-3.11154,0.0971428,0.607353,18.2242,0.0114648,
2,1,0,1,0,44463.5,0.0132847,0.0129785,0.797854,23,0.000361892,10,1.03549e-05,-3.09808,0.106554,0.553712,17.2331,0.0129785,
2,1,0,1,0,44463.6,0.0147802,0.0144731,0.820927,23,0.000423724,10,1.18814e-05,-3.0857,0.125552,0.469926,15.0377,0.0144731,
2,1,0,1,0,44463.7,0.0162798,0.0159614,0.842937,23,0.000487517,10,1.34544e-05,-3.0742,0.138346,0.426467,13.9835,0.0159614,
2,1,0,1,0,44463.8,0.017778,0.0174385,0.86595,23,0.000552748,10,1.51008e-05,-3.06251,0.15661,0.376731,12.6752,0.0174385,
2,1,0,1,0,44463.8,0.0192761,0.0189742,0.880294,23,0.000619304,10,1.67028e-05,-3.05537,0.157882,0.373696,12.8542,0.0189742,
2,1,0,1,0,44463.9,0.0207743,0.0204954,0.902978,23,0.000687384,10,1.85069e-05,-3.04432,0.148084,0.398423,13.9825,0.0204954,
2,1,0,1,0,44464,0.0222725,0.0219675,0.92145,23,0.000756902,10,2.02419e-05,-3.03553,0.170602,0.345834,12.4151,0.0219675,
2,1,0,1,0,44464.1,0.0237707,0.0234661,0.939561,23,0.000827851,10,2.20478e-05,-3.02708,0.195385,0.301968,11.0553,0.0234661,
2,1,0,1,0,44464.1,0.0252689,0.0249527,0.953126,23,0.000900021,10,2.3783e-05,-3.02085,0.188822,0.312463,11.6928,0.0249527,
2,1,0,1,0,44464.2,0.0267671,0.026469,0.975307,23,0.000973606,10,2.58154e-05,-3.01086,0.172732,0.341569,12.9987,0.026469,
2,1,0,1,0,44464.3,0.0282653,0.0279784,0.995479,23,0.0010487,10,2.78519e-05,-3.00197,0.180315,0.327204,12.7098,0.0279784,
2,1,0,1,0,44464.4,0.0297644,0.0294263,1.01524,23,0.00112533,10,2.98748e-05,-2.99343,0.196806,0.299788,11.8524,0.0294263,
2,1,0,1,0,44464.4,0.0312599,0.0309045,1.02986,23,0.00120308,10,3.18272e-05,-2.98722,0.181568,0.324947,13.0534,0.0309045,
2,1,0,1,0,44464.5,0.0327599,0.0324729,1.04971,23,0.00128229,10,3.4087e-05,-2.97893,0.192552,0.306411,12.5611,0.0324729,
2,1,0,1,0,44464.6,0.034258,0.0339596,1.06777,23,0.00136285,10,3.62612e-05,-2.97152,0.188133,0.313607,13.0757,0.0339596,
2,1,0,1,0,44464.7,0.0357562,0.0354751,1.08722,23,0.00144486,10,3.85693e-05,-2.96368,0.217104,0.271759,11.4973,0.0354751,
2,1,0,1,0,44464.7,0.0372544,0.0369173,1.10386,23,0.00152828,10,4.07515e-05,-2.95709,0.216621,0.272365,11.7516,0.0369173,
2,1,0,1,0,44464.8,0.0387526,0.0384227,1.12226,23,0.00161295,10,4.31203e-05,-2.94991,0.202087,0.291954,12.8355,0.0384227,
2,1,0,1,0,44464.9,0.0402508,0.0398806,1.14329,23,0.0016991,10,4.55952e-05,-2.94184,0.202532,0.291312,13.0008,0.0398806,
2,1,0,1,0,44465,0.041749,0.0414556,1.16429,23,0.00178685,10,4.82663e-05,-2.93394,0.22972,0.256834,11.6272,0.0414556,
2,1,0,1,0,44465,0.0432472,0.0429476,1.18204,23,0.00187589,10,5.07656e-05,-2.92737,0.237295,0.248635,11.4431,0.04294765,
2,1,0,1,0,44465.1,0.0447449,0.0444169,1.19669,23,0.0019661,10,5.31534e-05,-2.92202,0.227707,0.259105,12.1127,0.0444169,
2,1,0,1,0,44465.2,0.0462445,0.045955,1.21692,23,0.00205785,10,5.59238e-05,-2.91474,0.212978,0.277024,13.1404,0.045955,
2,1,0,1,0,44465.3,0.04774,0.0474121,1.23309,23,0.00215077,10,5.84633e-05,-2.90901,0.214351,0.275249,13.2634,0.0474121,
2,1,0,1,0,44465.3,0.0492399,0.0488698,1.25235,23,0.00224536,10,6.12023e-05,-2.90227,0.25935,0.227492,11.1014,0.0488698,
2,1,0,1,0,44465.4,0.0507381,0.0503987,1.26562,23,0.00234104,10,6.37859e-05,-2.89769,0.258829,0.227949,11.2891,0.0503987,
2,1,0,1,0,44465.5,0.0522363,0.0518784,1.287,23,0.00243789,10,6.67677e-05,-2.89042,0.238432,0.24745,12.438,0.0518784,
2,1,0,1,0,44465.6,0.0537345,0.0534407,1.3046,23,0.00253618,10,6.97188e-05,-2.88452,0.251049,0.235014,11.9549,0.0534407,
2,1,0,1,0,44465.6,0.0552327,0.0549198,1.31956,23,0.00263582,10,7.24701e-05,-2.87957,0.308329,0.191354,9.83363,0.0549198,
2,1,0,1,0,44465.7,0.0567309,0.0563813,1.33413,23,0.00273658,10,7.52197e-05,-2.8748,0.304313,0.193879,10.1079,0.0563813,
2,1,0,1,0,44465.8,0.0582291,0.0578548,1.35023,23,0.00283833,10,7.81171e-05,-2.86959,0.305609,0.193057,10.1936,0.0578548,
2,1,0,1,0,44465.9,0.0597291,0.0594214,1.36791,23,0.00294152,10,8.12832e-05,-2.86394,0.292167,0.201939,10.757,0.0594214,
2,1,0,1,0,44465.9,0.0612246,0.0608775,1.38129,23,0.00304571,10,8.40892e-05,-2.85972,0.353329,0.166983,8.99224,0.0608775,
2,1,0,1,0,44466,0.0627241,0.0624117,1.3972,23,0.0031513,10,8.72016e-05,-2.85474,0.33097,0.178264,9.72799,0.0624117,
2,1,0,1,0,44466.1,0.0642218,0.0639374,1.40984,23,0.00325756,10,9.01415e-05,-2.85083,0.32653,0.180688,9.97271,0.0639374,
2,1,0,1,0,44466.2,0.06572,0.0653938,1.42505,23,0.00336501,10,9.31892e-05,-2.84617,0.309106,0.190873,10.6163,0.0653938,
2,1,0,1,0,44466.2,0.0672182,0.066948,1.44062,23,0.00347372,10,9.64463e-05,-2.84145,0.378759,0.155772,8.73532,0.066948,
2,1,0,1,0,44466.3,0.0687164,0.0683909,1.45448,23,0.00358339,10,9.94731e-05,-2.83729,0.479419,0.123066,6.97562,0.0683909,
2,1,0,1,0,44466.4,0.0702146,0.0699309,1.46323,23,0.00369378,10,0.000102325,-2.83469,0.434233,0.135872,7.76779,0.0699309,
2,1,0,1,0,44466.5,0.0717128,0.0713611,1.47579,23,0.00380512,10,0.000105314,-2.83098,0.40337,0.146268,8.42201,0.07136111,
2,1,0,1,0,44466.5,0.073211,0.072886,1.48906,23,0.00391747,10,0.000108532,-2.82709,0.441591,0.133608,7.75814,0.072886,
2,1,0,1,0,44466.6,0.0747092,0.0743631,1.50083,23,0.00403067,10,0.000111606,-2.82367,0.490432,0.120302,7.03593,0.0743631,
2,1,0,1,0,44466.7,0.0762087,0.0758856,1.50518,23,0.00414466,10,0.000114221,-2.82241,0.552287,0.106829,6.29842,0.0758856,
2,1,0,1,0,44466.8,0.0777042,0.0773746,1.52006,23,0.0042591,10,0.000117614,-2.81814,0.449408,0.131284,7.78681,0.07737463,
2,1,0,1,0,44466.8,0.0792037,0.0788869,1.53189,23,0.00437471,10,0.000120846,-2.81477,0.477127,0.123657,7.3776,0.0788869,
2,1,0,1,0,44466.9,0.0807019,0.0803399,1.54352,23,0.00449103,10,0.000124007,-2.81149,0.609614,0.0967826,5.8023,0.0803399,
2,1,0,1,0,44467,0.0822001,0.0818774,1.5482,23,0.00460801,10,0.000126763,-2.81017,0.565752,0.104286,6.3126,0.08187744,
2,1,0,1,0,44467.1,0.0836983,0.0834084,1.55662,23,0.00472549,10,0.000129836,-2.80782,0.539209,0.10942,6.66071,0.0834084,
2,1,0,1,0,44467.1,0.0851965,0.084856,1.57034,23,0.00484391,10,0.000133253,-2.80401,0.481032,0.122653,7.5139,0.084856,
2,1,0,1,0,44467.2,0.0866947,0.0863571,1.57971,23,0.00496319,10,0.000136419,-2.80142,0.594226,0.0992888,6.12414,0.0863571,
2,1,0,1,0,44467.3,0.0881929,0.0878383,1.59549,23,0.00508333,10,0.000140146,-2.7971,0.52224,0.112975,7.02492,0.0878383,
2,1,0,1,0,44467.4,0.0896911,0.0893982,1.60572,23,0.0052042,10,0.000143549,-2.79433,0.424652,0.138937,8.7086,0.0893982,
2,1,0,1,0,44467.4,0.0911893,0.0908663,1.6199,23,0.00532614,10,0.000147194,-2.79051,0.312476,0.188815,11.9509,0.0908663,
2,1,0,1,0,44467.5,0.0926884,0.0923639,1.63949,23,0.00544962,10,0.000151429,-2.78529,0.297395,0.198389,12.678,0.0923639,
2,1,0,1,0,44467.6,0.0941839,0.0939162,1.65648,23,0.00557412,10,0.000155571,-2.78081,0.317647,0.185741,12.0149,0.0939162,
2,1,0,1,0,44467.7,0.0956838,0.095325,1.67245,23,0.00570018,10,0.000159427,-2.77665,0.286985,0.205586,13.4502,0.095325,
2,1,0,1,0,44467.7,0.097182,0.09688,1.69595,23,0.00582767,10,0.000164303,-2.77059,0.241687,0.244117,16.1496,0.09688,
2,1,0,1,0,44467.8,0.0986802,0.0983326,1.72114,23,0.00595693,10,0.000169244,-2.76418,0.230903,0.255519,17.1914,0.0983326,
2,1,0,1,0,44467.9,0.100178,0.0998705,1.74724,23,0.00608809,10,0.000174498,-2.75765,0.226567,0.260409,17.7534,0.0998705,
2,1,0,1,0,44468,0.101677,0.101348,1.77174,23,0.00622129,10,0.000179562,-2.7516,0.223309,0.264208,18.3152,0.1013483,
2,1,0,1,0,44468,0.103175,0.102883,1.80349,23,0.00635648,10,0.000185548,-2.74389,0.205343,0.287324,20.2635,0.102883,
2,1,0,1,0,44468.1,0.104673,0.104352,1.83995,23,0.00649411,10,0.000192002,-2.73519,0.19239,0.306669,21.9774,0.104352,
2,1,0,1,0,44468.2,0.106171,0.105853,1.86863,23,0.00663426,10,0.000197801,-2.72848,0.215103,0.274288,19.9703,0.105853,
2,1,0,1,0,44468.3,0.107669,0.107368,1.89914,23,0.00677679,10,0.000203906,-2.72144,0.211993,0.278311,20.6381,0.107368,
2,1,0,1,0,44468.3,0.109168,0.108841,1.9312,23,0.00692161,10,0.000210194,-2.71417,0.218867,0.269571,20.3376,0.108841,
2,1,0,1,0,44468.4,0.110664,0.110336,1.96318,23,0.00706854,10,0.00021661,-2.70704,0.201701,0.292513,22.4052,0.110336,
2,1,0,1,0,44468.5,0.112164,0.111805,1.99479,23,0.00721822,10,0.000223029,-2.7001,0.241783,0.244021,18.963,0.111805,
2,1,0,1,0,44468.6,0.113662,0.113355,2.02073,23,0.00736993,10,0.000229059,-2.69449,0.273577,0.215661,16.9688,0.113355,
2,1,0,1,0,44468.6,0.11516,0.114883,2.04545,23,0.00752341,10,0.000234987,-2.68921,0.2979,0.198053,15.7812,0.114883,
2,1,0,1,0,44468.7,0.116658,0.116299,2.06885,23,0.00767869,10,0.000240606,-2.68427,0.305389,0.193196,15.5767,0.116299,
2,1,0,1,0,44468.8,0.118157,0.117827,2.09473,23,0.00783583,10,0.000246817,-2.67887,0.344065,0.171479,13.9751,0.117827,
2,1,0,1,0,44468.9,0.119655,0.119331,2.11226,23,0.00799454,10,0.000252059,-2.67525,0.465059,0.126866,10.4318,0.119331,
2,1,0,1,0,44468.9,0.121153,0.120803,2.12011,23,0.00815433,10,0.000256115,-2.67364,0.525871,0.112195,9.29453,0.1208027,
2,1,0,1,0,44469,0.122653,0.12236,2.13957,23,0.00831535,10,0.000261799,-2.66967,0.509835,0.115724,9.64524,0.12236,
2,1,0,1,0,44469.1,0.124149,0.123818,2.15156,23,0.00847698,10,0.000266402,-2.66725,0.582615,0.101267,8.49386,0.123818,
2,1,0,1,0,44469.2,0.125648,0.125336,2.16248,23,0.00864003,10,0.000271037,-2.66505,0.735722,0.0801934,6.75279,0.125336,
2,1,0,1,0,44469.2,0.127146,0.126826,2.16762,23,0.00880355,10,0.00027491,-2.66402,0.780709,0.0755723,6.40036,0.126826,
2,1,0,1,0,44469.3,0.128644,0.128337,2.18138,23,0.00896766,10,0.000279951,-2.66127,0.806609,0.0731457,6.22385,0.128337,
2,1,0,1,0,44469.4,0.130142,0.129843,2.18786,23,0.00913258,10,0.000284079,-2.65998,0.906443,0.0650896,5.55664,0.129843,
2,1,0,1,0,44469.5,0.13164,0.13131,2.19459,23,0.00929816,10,0.000288172,-2.65865,3.00973,0.0196031,1.6768,0.13131,
2,1,0,1,0,44469.5,0.133139,0.132828,2.199,23,0.00946418,10,0.000292089,-2.65777,9.312,0.00633591,0.543254,0.132828,
2,1,0,1,0,44469.6,0.134637,0.134304,2.198,23,0.00963006,10,0.0002952,-2.65797,-3.03618,-0.0194323,-1.66542,0.134304,
2,1,0,1,0,44469.7,0.136135,0.135819,2.1955,23,0.00979593,10,0.000298189,-2.65847,-1.28172,-0.0460318,-3.9338,0.135819,
2,1,0,1,0,44469.8,0.137633,0.137324,2.18814,23,0.00996136,10,0.000300483,-2.65993,-0.515103,-0.11454,-9.72937,0.137324,
2,1,0,1,0,44469.8,0.139133,0.138802,2.17109,23,0.010126,10,0.000301352,-2.66332,-0.31481,-0.187415,-15.7855,0.138802,
2,1,0,1,0,44469.9,0.140628,0.14035,2.13904,23,0.0102882,10,0.000300215,-2.66978,-0.224355,-0.262977,-21.8641,0.14035,
2,1,0,1,0,44470,0.142128,0.141796,2.10345,23,0.0104486,10,0.00029826,-2.67707,-0.179981,-0.327811,-26.79,0.141796,
2,1,0,1,0,44470.1,0.143626,0.143325,2.05892,23,0.0106058,10,0.000295094,-2.68636,-0.14242,-0.414269,-33.1172,0.143325,
2,1,0,1,0,44470.1,0.145124,0.144829,2.00045,23,0.0107591,10,0.000289722,-2.69887,-0.11159,-0.528723,-41.0856,0.144829,
2,1,0,1,0,44470.2,0.146622,0.146289,1.93284,23,0.0109078,10,0.000282753,-2.7138,-0.0973185,-0.606257,-45.5943,0.146289,
2,1,0,1,0,44470.3,0.14812,0.14777,1.86178,23,0.0110511,10,0.000275115,-2.73007,-0.0853796,-0.691032,-50.096,0.14777,
2,1,0,1,0,44470.4,0.149619,0.149309,1.78688,23,0.0111891,10,0.000266799,-2.7479,-0.0815097,-0.72384,-50.3786,0.149309,
2,1,0,1,0,44470.4,0.151117,0.150773,1.70953,23,0.0113213,10,0.000257752,-2.76712,-0.0748037,-0.788731,-52.495,0.150773,
2,1,0,1,0,44470.5,0.152615,0.152299,1.62891,23,0.0114476,10,0.000248081,-2.7881,-0.0734932,-0.802795,-51.2031,0.152299,
2,1,0,1,0,44470.6,0.154113,0.153757,1.55864,23,0.0115681,10,0.000239653,-2.80725,-0.0768358,-0.767871,-46.7967,0.153757,
2,1,0,1,0,44470.7,0.155613,0.15529,1.49257,23,0.0116837,10,0.000231782,-2.82606,-0.0822048,-0.71772,-41.8163,0.15529,
2,1,0,1,0,44470.7,0.157108,0.156839,1.43115,23,0.0117941,10,0.00022446,-2.84431,-0.0810435,-0.728004,-40.65,0.156839,
2,1,0,1,0,44470.8,0.158608,0.158258,1.37137,23,0.0119004,10,0.000217031,-2.86284,-0.0901384,-0.654549,-35.2122,0.1582585,
2,1,0,1,0,44470.9,0.160106,0.159796,1.32081,23,0.0120024,10,0.00021106,-2.87916,-0.0995128,-0.592889,-30.7121,0.159796,
2,1,0,1,0,44471,0.161604,0.161279,1.28014,23,0.012101,10,0.000206459,-2.89274,-0.109041,-0.541078,-27.0336,0.1612789,
2,1,0,1,0,44471,0.163102,0.16278,1.24245,23,0.0121966,10,0.000202245,-2.90572,-0.117489,-0.502176,-24.3901,0.16278,
2,1,0,1,0,44471.1,0.164601,0.164293,1.20687,23,0.0122896,10,0.00019828,-2.91834,-0.133444,-0.442134,-20.8777,0.164293,
2,1,0,1,0,44471.2,0.166099,0.165773,1.179,23,0.01238,10,0.000195447,-2.92849,-0.145585,-0.405263,-18.701,0.165773,
2,1,0,1,0,44471.3,0.167597,0.167259,1.15429,23,0.0124686,10,0.000193066,-2.93768,-0.179028,-0.329557,-14.8559,0.167259,
2,1,0,1,0,44471.3,0.169095,0.168767,1.13619,23,0.0125555,10,0.000191751,-2.94455,-0.195608,-0.301624,-13.3631,0.168767,
2,1,0,1,0,44471.4,0.170593,0.170281,1.11281,23,0.0126409,10,0.000189491,-2.95358,-0.206684,-0.28546,-12.4385,0.170281,
2,1,0,1,0,44471.5,0.172092,0.17175,1.09579,23,0.0127249,10,0.000188202,-2.96027,-0.221974,-0.265797,-11.3895,0.17175,
2,1,0,1,0,44471.6,0.173588,0.173236,1.08093,23,0.0128076,10,0.000187256,-2.9662,-0.299935,-0.19671,-8.31054,0.173236,
2,1,0,1,0,44471.6,0.175088,0.174748,1.06882,23,0.0128894,10,0.000186775,-2.97109,-0.319302,-0.184778,-7.71456,0.174748,
2,1,0,1,0,44471.7,0.176586,0.176283,1.05972,23,0.0129703,10,0.00018681,-2.97481,-0.307122,-0.192106,-7.92431,0.1762832,
2,1,0,1,0,44471.8,0.178084,0.177785,1.04727,23,0.0130503,10,0.000186188,-2.97994,-0.393403,-0.149974,-6.14237,0.177785,
2,1,0,1,0,44471.9,0.179582,0.179252,1.0371,23,0.0131295,10,0.000185902,-2.98418,-0.4303,-0.137114,-5.56655,0.179252,
2,1,0,1,0,44471.9,0.181081,0.180746,1.02875,23,0.0132083,10,0.000185943,-2.98769,-0.488815,-0.1207,-4.85307,0.180746,
2,1,0,1,0,44472,0.182579,0.182293,1.02202,23,0.0132864,10,0.000186307,-2.99054,-0.409328,-0.144139,-5.74929,0.182293,
2,1,0,1,0,44472.1,0.184077,0.183759,1.01718,23,0.013364,10,0.000186916,-2.9926,-0.444364,-0.132774,-5.27357,0.183759,
2,1,0,1,0,44472.2,0.185577,0.185273,1.00924,23,0.0134411,10,0.000186985,-2.99601,-0.669261,-0.088157,-3.47434,0.185273,
2,1,0,1,0,44472.2,0.187073,0.186748,1.00692,23,0.0135176,10,0.000188041,-2.997,-0.983891,-0.059966,-2.34887,0.186748,
2,1,0,1,0,44472.3,0.188572,0.188239,0.999917,23,0.013594,10,0.000188224,-3.00004,-0.697999,-0.0845273,-3.29666,0.188239,
2,1,0,1,0,44472.4,0.19007,0.189743,0.992817,23,0.0136699,10,0.00018838,-3.00313,-0.727328,-0.0811188,-3.14832,0.189743,
2,1,0,1,0,44472.5,0.191568,0.191231,0.987658,23,0.0137454,10,0.000188871,-3.00539,-1.05714,-0.0558112,-2.1566,0.1912308,
2,1,0,1,0,44472.5,0.193066,0.192756,0.984614,23,0.0138207,10,0.000189791,-3.00673,-2.36547,-0.0249422,-0.957858,0.192756,
2,1,0,1,0,44472.6,0.194564,0.194241,0.985055,23,0.0138957,10,0.000191338,-3.00654,-0.793458,-0.0743581,-2.85352,0.194241,
2,1,0,1,0,44472.7,0.196063,0.195762,0.981035,23,0.0139704,10,0.000192049,-3.00832,-0.836903,-0.070498,-2.69354,0.195762,
2,1,0,1,0,44472.8,0.197561,0.197241,0.973431,23,0.0140449,10,0.000192,-3.01169,-1.04497,-0.0564612,-2.15028,0.197241,
2,1,0,1,0,44472.8,0.199059,0.198702,0.972641,23,0.014119,10,0.000193266,-3.01205,-0.877296,-0.0672521,-2.55375,0.198702,
2,1,0,1,0,44472.9,0.200557,0.200183,0.97261,23,0.014193,10,0.000194699,-3.01206,-2.85865,-0.0206391,-0.781378,0.200183,
2,1,0,1,0,44473,0.202057,0.201737,0.970204,23,0.0142669,10,0.000195726,-3.01314,-0.802514,-0.073519,-2.77351,0.201737,
2,1,0,1,0,44473.1,0.203552,0.203226,0.961943,23,0.0143405,10,0.000195492,-3.01685,-1.83274,-0.0321922,-1.21336,0.203226,
2,1,0,1,0,44473.1,0.205052,0.204728,0.961309,23,0.0144138,10,0.000196807,-3.01714,-3.52903,-0.0167185,-0.630567,0.204728,
2,1,0,1,0,44473.2,0.20655,0.20621,0.959922,23,0.0144871,10,0.000197946,-3.01776,-2.40217,-0.0245611,-0.920905,0.20621,
2,1,0,1,0,44473.3,0.208048,0.207744,0.960207,23,0.0145604,10,0.000199477,-3.01764,-1.05153,-0.0561087,-2.0975,0.207744,
2,1,0,1,0,44473.4,0.209546,0.209265,0.957195,23,0.0146334,10,0.000200307,-3.019,-0.731614,-0.0806436,-3.00869,0.209265,
2,1,0,1,0,44473.4,0.211044,0.210771,0.953874,23,0.0147061,10,0.000201049,-3.02051,-1.32602,-0.0444942,-1.65747,0.210771,
2,1,0,1,0,44473.5,0.212543,0.212214,0.954258,23,0.0147787,10,0.000202507,-3.02033,-1.30301,-0.0452799,-1.68411,0.212214,
2,1,0,1,0,44473.6,0.214041,0.213713,0.952716,23,0.0148512,10,0.000203607,-3.02104,-2.0558,-0.0286993,-1.06451,0.213713,
2,1,0,1,0,44473.7,0.215539,0.215247,0.948442,23,0.0149236,10,0.000204149,-3.02299,-2.1384,-0.0275907,-1.02135,0.215247,
2,1,0,1,0,44473.7,0.217037,0.216708,0.945077,23,0.0149957,10,0.000204806,-3.02453,-1.94067,-0.0304019,-1.12406,0.216708,
2,1,0,1,0,44473.8,0.218536,0.21822,0.944939,23,0.0150678,10,0.000206205,-3.0246,-82.2289,-0.000717509,-0.0264704,0.21822,
2,1,0,1,0,44473.9,0.220032,0.219735,0.945036,23,0.0151397,10,0.000207657,-3.02455,-3.56856,-0.0165333,-0.608606,0.219735,
2,1,0,1,0,44474,0.221532,0.221227,0.942172,23,0.0152117,10,0.000208434,-3.02587,-1.39118,-0.04241,-1.55875,0.2212266,
2,1,0,1,0,44474,0.22303,0.22271,0.937904,23,0.0152835,10,0.000208881,-3.02784,-1.41403,-0.0417247,-1.52936,0.22271,
2,1,0,1,0,44474.1,0.224528,0.224169,0.941683,23,0.015355,10,0.000211096,-3.0261,-2.26856,-0.0260077,-0.953564,0.224169,
2,1,0,1,0,44474.2,0.226026,0.225674,0.93911,23,0.0154265,10,0.000211932,-3.02728,-4.70112,-0.0125502,-0.459682,0.225674,
2,1,0,1,0,44474.3,0.227525,0.227249,0.936251,23,0.0154979,10,0.000212762,-3.02861,-1.12885,-0.0522656,-1.90622,0.227249,
2,1,0,1,0,44474.3,0.229023,0.228686,0.933712,23,0.0155692,10,0.000213527,-3.02979,-2.51527,-0.0234567,-0.857363,0.228686,
2,1,0,1,0,44474.4,0.230521,0.230207,0.93274,23,0.0156403,10,0.000214723,-3.03024,-2.77273,-0.0212787,-0.776319,0.230207,
2,1,0,1,0,44474.5,0.232019,0.231656,0.933022,23,0.0157114,10,0.00021614,-3.03011,96.2745,0.000612831,0.0223581,0.231656,
2,1,0,1,0,44474.6,0.233517,0.233189,0.931096,23,0.0157825,10,0.000217122,-3.03101,-1.61968,-0.036427,-1.32159,0.233189,
2,1,0,1,0,44474.6,0.235016,0.234665,0.931485,23,0.0158535,10,0.000218587,-3.03082,-1.50229,-0.0392734,-1.42591,0.234665,
2,1,0,1,0,44474.7,0.236512,0.236194,0.92911,23,0.0159241,10,0.00021945,-3.03193,-11.4724,-0.00514278,-0.186468,0.236194,
2,1,0,1,0,44474.8,0.238012,0.237667,0.925689,23,0.0159949,10,0.000220006,-3.03353,-8.20555,-0.00719026,-0.259811,0.237667,
2,1,0,1,0,44474.9,0.23951,0.239226,0.925907,23,0.0160655,10,0.000221501,-3.03343,-4.55696,-0.0129472,-0.467721,0.239226,
2,1,0,1,0,44474.9,0.241008,0.240711,0.92347,23,0.0161361,10,0.00022229,-3.03458,-2.11542,-0.0278905,-1.00738,0.240711,
2,1,0,1,0,44475,0.242506,0.24219,0.922118,23,0.0162065,10,0.000223328,-3.03521,-1.79946,-0.0327877,-1.18261,0.24219,
2,1,0,1,0,44475.1,0.244005,0.243695,0.920873,23,0.0162767,10,0.000224412,-3.0358,-4.33587,-0.0136074,-0.490136,0.243695,
2,1,0,1,0,44475.2,0.245503,0.245155,0.922046,23,0.016347,10,0.000226044,-3.03525,-2.92738,-0.0201546,-0.723649,0.245155,
2,1,0,1,0,44475.2,0.247001,0.246697,0.921204,23,0.0164172,10,0.000227259,-3.03564,-1.3063,-0.0451656,-1.61996,0.246697,
2,1,0,1,0,44475.3,0.248501,0.248145,0.916963,23,0.0164874,10,0.00022754,-3.03765,-2.62409,-0.022484,-0.807487,0.248145,
2,1,0,1,0,44475.4,0.249997,0.249687,0.917322,23,0.0165572,10,0.000229043,-3.03748,-9.26222,-0.00636996,-0.228162,0.249687,
2,1,0,1,0,44475.5,0.251496,0.251187,0.916523,23,0.0166272,10,0.000230219,-3.03786,-4.58431,-0.01287,-0.460818,0.251187,
2,1,0,1,0,44475.5,0.252994,0.252694,0.914267,23,0.016697,10,0.00023103,-3.03893,-1.38427,-0.0426217,-1.52398,0.252694,
2,1,0,1,0,44475.6,0.254492,0.254186,0.915577,23,0.0167667,10,0.000232727,-3.03831,-2.2529,-0.0261884,-0.934549,0.254186,
2,1,0,1,0,44475.7,0.25599,0.255676,0.911548,23,0.0168362,10,0.000233061,-3.04022,-8.43913,-0.00699124,-0.249296,0.2556757,
2,1,0,1,0,44475.8,0.257488,0.257209,0.910907,23,0.0169058,10,0.000234293,-3.04053,-3.59464,-0.0164133,-0.583148,0.257209,
2,1,0,1,0,44475.8,0.258987,0.258693,0.914511,23,0.0169753,10,0.000236578,-3.03881,-44.6173,-0.00132236,-0.046974,0.258693,
2,1,0,1,0,44475.9,0.260485,0.260167,0.910255,23,0.0170447,10,0.000236819,-3.04084,-1.11064,-0.0531224,-1.88619,0.260167,
2,1,0,1,0,44476,0.261983,0.261683,0.907864,23,0.0171139,10,0.000237572,-3.04198,-3.01165,-0.0195906,-0.693919,0.261683,
2,1,0,1,0,44476.1,0.263481,0.263209,0.907378,23,0.017183,10,0.00023883,-3.04221,9.30903,0.00633793,0.224138,0.263209,
2,1,0,1,0,44476.1,0.264981,0.264678,0.905094,23,0.0172522,10,0.000239559,-3.04331,-7.04343,-0.0083766,-0.295848,0.264678,
2,1,0,1,0,44476.2,0.266476,0.266188,0.903403,23,0.0173211,10,0.000240475,-3.04412,-3.62648,-0.0162692,-0.574469,0.266188,
2,1,0,1,0,44476.3,0.267976,0.267727,0.90102,23,0.01739,10,0.000241227,-3.04527,-1.92951,-0.0305777,-1.07658,0.267727,
2,1,0,1,0,44476.4,0.269474,0.269194,0.898708,23,0.0174587,10,0.000241926,-3.04638,50.2246,0.00117472,0.0413096,0.269194,
2,1,0,1,0,44476.4,0.270972,0.27063,0.902037,23,0.0175274,10,0.000244118,-3.04478,-6.8053,-0.00866971,-0.304326,0.2706297,
2,1,0,1,0,44476.5,0.27247,0.272173,0.898647,23,0.017596,10,0.000244587,-3.04641,-1.15904,-0.0509043,-1.7848,0.272173,
2,1,0,1,0,44476.6,0.273968,0.273649,0.896246,23,0.0176645,10,0.000245257,-3.04757,-2.37709,-0.0248202,-0.867677,0.273649,
2,1,0,1,0,44476.7,0.275467,0.27516,0.894952,23,0.0177328,10,0.000246255,-3.0482,-1.54754,-0.0381251,-1.33432,0.27516,
2,1,0,1,0,44476.7,0.276965,0.276697,0.894071,23,0.017801,10,0.000247387,-3.04863,-1.78288,-0.0330926,-1.15629,0.276697,
2,1,0,1,0,44476.8,0.278463,0.278136,0.892517,23,0.0178692,10,0.000248241,-3.04938,-1.724,-0.0342227,-1.19287,0.278136,
2,1,0,1,0,44476.9,0.279961,0.279669,0.894656,23,0.0179371,10,0.000250208,-3.04834,-5.29233,-0.0111482,-0.388229,0.279669,
2,1,0,1,0,44477,0.28146,0.281105,0.890976,23,0.0180051,10,0.000250458,-3.05013,119.525,0.00049362,0.0171505,0.281105,
2,1,0,1,0,44477,0.282956,0.282639,0.889895,23,0.0180728,10,0.000251519,-3.05066,-36.8684,-0.00160029,-0.055332,0.282639,
2,1,0,1,0,44477.1,0.284456,0.284146,0.88819,23,0.0181406,10,0.000252375,-3.05149,-6.12392,-0.00963435,-0.333656,0.284146,
2,1,0,1,0,44477.2,0.285954,0.285672,0.886802,23,0.0182082,10,0.000253335,-3.05217,-1.34074,-0.0440054,-1.51996,0.285672,
2,1,0,1,0,44477.3,0.287452,0.287126,0.882945,23,0.0182756,10,0.000253516,-3.05407,-2.21998,-0.0265768,-0.916094,0.287126,
2,1,0,1,0,44477.3,0.28895,0.288668,0.882997,23,0.0183429,10,0.000254893,-3.05404,-5.90766,-0.00998704,-0.343538,0.288668,
2,1,0,1,0,44477.4,0.290449,0.29012,0.880807,23,0.0184102,10,0.000255539,-3.05512,-2.19161,-0.0269208,-0.925417,0.29012,
2,1,0,1,0,44477.5,0.291947,0.291594,0.878401,23,0.0184773,10,0.000256136,-3.05631,-1.22747,-0.0480665,-1.64971,0.291594,
2,1,0,1,0,44477.6,0.293445,0.293098,0.874908,23,0.0185442,10,0.000256434,-3.05804,-2.42037,-0.0243765,-0.833995,0.293098,
2,1,0,1,0,44477.6,0.294943,0.294647,0.875392,23,0.018611,10,0.000257931,-3.0578,-2.24933,-0.0262301,-0.89777,0.294647,
2,1,0,1,0,44477.7,0.296441,0.296138,0.877505,23,0.0186777,10,0.000259863,-3.05675,-11.9169,-0.00495094,-0.16902,0.296138,
2,1,0,1,0,44477.8,0.29794,0.297654,0.874038,23,0.0187445,10,0.000260161,-3.05847,-1.46993,-0.0401381,-1.36829,0.297654,
2,1,0,1,0,44477.9,0.299436,0.299123,0.868727,23,0.018811,10,0.000259857,-3.06112,-0.00379975,-15.5273,-324.03,0.299123,
2,1,0,1,0,44477.9,0.299739,0.299426,0.574424,23,0.0188448,10,0.000171998,-3.24077,0.000476778,123.747,720.517,0.299426,
2,1,0,1,0,44478,0.298239,0.29793,0.0563494,23,0.0188622,10,1.67882e-05,-4.24911,0.00402573,14.6557,255.954,0.29793,
2,0,0,1,0,44478,0.296741,0.296374,-0.0726614,23,0.0188596,10,-2.1535e-05,-4.1387,-0.417944,-0.141167,73.3633,0.296374,
2,0,0,1,0,44478.1,0.295243,0.294877,-0.136544,23,0.0188502,10,-4.02636e-05,-3.86473,-0.00625168,-9.43746,35.6875,0.294877,
2,0,0,1,0,44478.2,0.293745,0.293427,-0.174754,23,0.0188372,10,-5.12776e-05,-3.75757,-0.0157229,-3.7525,23.6892,0.293427,
2,0,0,1,0,44478.3,0.292246,0.291898,-0.203885,23,0.0188218,10,-5.95138e-05,-3.69061,-0.024907,-2.36881,18.4009,0.291898,
2,0,0,1,0,44478.3,0.290748,0.290458,-0.228901,23,0.0188042,10,-6.64862e-05,-3.64035,-0.0325813,-1.81086,15.8873,0.290458,
2,0,0,1,0,44478.4,0.28925,0.288944,-0.251614,23,0.018785,10,-7.27023e-05,-3.59927,-0.0456659,-1.29199,12.5316,0.2889438,
2,0,0,1,0,44478.5,0.287752,0.287448,-0.267845,23,0.0187643,10,-7.69914e-05,-3.57212,-0.0565684,-1.04299,10.8244,0.287448,
2,0,0,1,0,44478.6,0.286254,0.285935,-0.282646,23,0.0187424,10,-8.08181e-05,-3.54876,-0.0620415,-0.950976,10.5376,0.285935,
2,0,0,1,0,44478.6,0.284754,0.284414,-0.298333,23,0.0187193,10,-8.48503e-05,-3.5253,-0.064122,-0.920122,10.7067,0.2844142,
2,0,0,1,0,44478.7,0.283259,0.282961,-0.314355,23,0.0186951,10,-8.89502e-05,-3.50258,-0.0869822,-0.6783,8.2227,0.282961,
2,0,0,1,0,44478.8,0.281759,0.281433,-0.323916,23,0.0186699,10,-9.11606e-05,-3.48957,-0.088897,-0.663689,8.39669,0.281433,
2,0,0,1,0,44478.9,0.280261,0.279936,-0.336485,23,0.0186439,10,-9.4194e-05,-3.47303,-0.0982402,-0.600569,7.89094,0.2799356,
2,0,0,1,0,44478.9,0.278763,0.278442,-0.349434,23,0.018617,10,-9.72972e-05,-3.45663,-0.104094,-0.566795,7.7325,0.278442,
2,0,0,1,0,44479,0.277264,0.277014,-0.359152,23,0.0185891,10,-9.94902e-05,-3.44472,-0.107462,-0.549032,7.69083,0.277014,
2,0,0,1,0,44479.1,0.275766,0.275433,-0.370452,23,0.0185605,10,-0.000102035,-3.43127,-0.137639,-0.428657,6.18343,0.275433,
2,0,0,1,0,44479.2,0.274268,0.273969,-0.380767,23,0.0185311,10,-0.000104318,-3.41934,-0.159254,-0.370477,5.51201,0.273969,
2,0,0,1,0,44479.2,0.27277,0.272443,-0.388883,23,0.0185012,10,-0.000105948,-3.41018,-0.143282,-0.411774,6.28955,0.272443,
2,0,0,1,0,44479.3,0.271272,0.270949,-0.39937,23,0.0184704,10,-0.000108209,-3.39862,-0.149184,-0.395484,6.13106,0.270949,
2,0,0,1,0,44479.4,0.269774,0.269478,-0.411262,23,0.0184389,10,-0.000110826,-3.38588,-0.158032,-0.373343,5.92193,0.269478,
2,0,0,1,0,44479.5,0.268274,0.26795,-0.415989,23,0.0184068,10,-0.000111464,-3.38092,-0.169983,-0.347094,5.65083,0.26795,
2,0,0,1,0,44479.5,0.266779,0.266427,-0.420943,23,0.0183743,10,-0.000112151,-3.37578,-0.172872,-0.341292,5.65803,0.266427,
2,0,0,1,0,44479.6,0.265279,0.264953,-0.429103,23,0.0183409,10,-0.000113692,-3.36744,-0.169022,-0.349067,5.86886,0.264953,
2,0,0,1,0,44479.7,0.263781,0.263476,-0.439865,23,0.018307,10,-0.000115894,-3.35668,-0.209233,-0.281982,4.84608,0.263476,
2,0,0,1,0,44479.8,0.262283,0.261966,-0.445241,23,0.0182726,10,-0.000116638,-3.3514,-0.23677,-0.249187,4.33562,0.261966,
2,0,0,1,0,44479.8,0.260784,0.260491,-0.452077,23,0.0182376,10,-0.000117762,-3.34479,-0.214242,-0.275389,4.88839,0.260491,
2,0,0,1,0,44479.9,0.259286,0.258998,-0.461088,23,0.0182021,10,-0.000119421,-3.33622,-0.212165,-0.278085,5.01,0.258998,
2,0,0,1,0,44480,0.257788,0.257502,-0.471651,23,0.018166,10,-0.000121451,-3.32638,-0.232201,-0.25409,4.64033,0.257502,
2,0,0,1,0,44480.1,0.25629,0.256009,-0.477527,23,0.0181293,10,-0.000122251,-3.321,-0.321663,-0.183422,3.39989,0.256009,
2,0,0,1,0,44480.1,0.25479,0.25446,-0.482197,23,0.0180921,10,-0.0001227,-3.31678,-0.268046,-0.220112,4.14752,0.2544595,
2,0,0,1,0,44480.2,0.253294,0.252964,-0.487854,23,0.0180546,10,-0.000123409,-3.31171,-0.299791,-0.196804,3.76573,0.252964,
2,0,0,1,0,44480.3,0.251795,0.251421,-0.496215,23,0.0180165,10,-0.000124759,-3.30433,-0.244818,-0.240996,4.65933,0.251421,
2,0,0,1,0,44480.4,0.250297,0.250037,-0.502376,23,0.017978,10,-0.000125613,-3.29897,-0.345973,-0.170533,3.33211,0.2500374,
2,0,0,1,0,44480.4,0.248799,0.248497,-0.505814,23,0.0179389,10,-0.000125693,-3.29601,-0.254018,-0.232267,4.58801,0.248497,
2,0,0,1,0,44480.5,0.247301,0.246959,-0.512566,23,0.0178995,10,-0.000126583,-3.29025,-0.280155,-0.210598,4.21169,0.246959,
2,0,0,1,0,44480.6,0.245802,0.245529,-0.521901,23,0.0178596,10,-0.000128142,-3.28241,-0.296451,-0.199021,4.02612,0.245529,
2,0,0,1,0,44480.7,0.244304,0.243984,-0.528821,23,0.0178192,10,-0.000129024,-3.27669,-0.395603,-0.14914,3.06018,0.2439837,
2,0,0,1,0,44480.7,0.242806,0.242489,-0.53174,23,0.0177783,10,-0.000128941,-3.2743,-0.362788,-0.16263,3.3684,0.242489,
2,0,0,1,0,44480.8,0.241308,0.241022,-0.535924,23,0.0177372,10,-0.00012917,-3.2709,-0.348455,-0.169319,3.54725,0.241022,
2,0,0,1,0,44480.9,0.23981,0.239512,-0.541484,23,0.0176956,10,-0.000129692,-3.26641,-0.258984,-0.227813,4.81977,0.239512,
2,0,0,1,0,44481,0.23831,0.237988,-0.546749,23,0.0176535,10,-0.00013012,-3.26221,-0.268306,-0.219898,4.70193,0.237988,
2,0,0,1,0,44481,0.236815,0.236487,-0.551902,23,0.017611,10,-0.000130518,-3.25814,-0.31599,-0.186715,4.02222,0.236487,
2,0,0,1,0,44481.1,0.235315,0.235006,-0.555989,23,0.0175681,10,-0.00013066,-3.25493,-0.413743,-0.142601,3.1104,0.235006,
2,0,0,1,0,44481.2,0.233817,0.233485,-0.563489,23,0.0175249,10,-0.000131566,-3.24911,-0.33433,-0.176472,3.8858,0.233485,
2,0,0,1,0,44481.3,0.232319,0.23203,-0.570897,23,0.0174811,10,-0.000132465,-3.24344,-0.36317,-0.162458,3.60311,0.23203,
2,0,0,1,0,44481.3,0.230821,0.230505,-0.574816,23,0.0174368,10,-0.000132498,-3.24047,-0.4472,-0.131932,2.95051,0.230505,
2,0,0,1,0,44481.4,0.229322,0.229022,-0.578884,23,0.0173923,10,-0.000132577,-3.23741,-0.521014,-0.113241,2.5632,0.2290225,
2,0,0,1,0,44481.5,0.227824,0.227465,-0.583836,23,0.0173475,10,-0.000132802,-3.23371,-0.323361,-0.182459,4.17619,0.227465,
2,0,0,1,0,44481.6,0.226326,0.226004,-0.592433,23,0.0173021,10,-0.000133892,-3.22736,-0.331145,-0.17817,4.10701,0.226004,
2,0,0,1,0,44481.6,0.224828,0.22457,-0.595108,23,0.0172564,10,-0.000133643,-3.2254,-0.549595,-0.107352,2.49458,0.22457,
2,0,0,1,0,44481.7,0.22333,0.223005,-0.600105,23,0.0172102,10,-0.000133826,-3.22177,-0.35755,-0.165012,3.87297,0.223005,
2,0,0,1,0,44481.8,0.22183,0.221527,-0.607041,23,0.0171638,10,-0.000134476,-3.21678,-0.343156,-0.171933,4.0722,0.221527,
2,0,0,1,0,44481.9,0.220335,0.220007,-0.611777,23,0.017117,10,-0.000134595,-3.21341,-0.310984,-0.18972,4.52836,0.220007,
2,0,0,1,0,44481.9,0.218835,0.218478,-0.617406,23,0.0170696,10,-0.000134889,-3.20943,-0.493501,-0.119554,2.8817,0.218478,
2,0,0,1,0,44482,0.217337,0.21702,-0.620852,23,0.0170219,10,-0.000134737,-3.20701,-0.473895,-0.1245,3.02938,0.21702,
2,0,0,1,0,44482.1,0.215839,0.215533,-0.626127,23,0.016974,10,-0.000134951,-3.20334,-0.441372,-0.133674,3.26818,0.215533,
2,0,0,1,0,44482.2,0.21434,0.214022,-0.631157,23,0.0169256,10,-0.000135081,-3.19986,-0.340073,-0.173492,4.28114,0.214022,
2,0,0,1,0,44482.2,0.212842,0.212528,-0.63716,23,0.0168768,10,-0.000135414,-3.19575,-0.448605,-0.131519,3.27339,0.212528,
2,0,0,1,0,44482.3,0.211344,0.210999,-0.642867,23,0.0168275,10,-0.000135645,-3.19188,-0.538577,-0.109548,2.74787,0.210999,
2,0,0,1,0,44482.4,0.209846,0.209561,-0.644886,23,0.016778,10,-0.000135143,-3.19052,-0.61839,-0.095409,2.41347,0.209561,
2,0,0,1,0,44482.5,0.208348,0.208041,-0.65363,23,0.0167282,10,-0.000135982,-3.18467,-0.337419,-0.174857,4.46169,0.208041,
2,0,0,1,0,44482.5,0.20685,0.206502,-0.662599,23,0.0166778,10,-0.000136828,-3.17875,-0.38619,-0.152775,3.91749,0.206502,
2,0,0,1,0,44482.6,0.20535,0.205028,-0.66459,23,0.0166268,10,-0.000136259,-3.17745,-0.595409,-0.0990915,2.56296,0.205028,
2,0,0,1,0,44482.7,0.203855,0.203505,-0.668054,23,0.0165758,10,-0.000135952,-3.17519,-0.507796,-0.116188,3.0323,0.2035048,
2,0,0,1,0,44482.8,0.202355,0.20204,-0.671695,23,0.0165243,10,-0.00013571,-3.17283,-0.378365,-0.155934,4.09745,0.20204,
2,0,0,1,0,44482.8,0.200857,0.200507,-0.677042,23,0.0164725,10,-0.000135752,-3.16938,-0.444514,-0.132729,3.51029,0.200507,
2,0,0,1,0,44482.9,0.199359,0.199044,-0.6824,23,0.0164201,10,-0.000135827,-3.16596,-0.420945,-0.140161,3.73742,0.199044,
2,0,0,1,0,44483,0.19786,0.197544,-0.689353,23,0.0163675,10,-0.000136178,-3.16156,-0.555684,-0.106175,2.84863,0.197544,
2,0,0,1,0,44483.1,0.196362,0.196007,-0.695587,23,0.0163144,10,-0.00013634,-3.15765,-0.448715,-0.131487,3.56007,0.196007,
2,0,0,1,0,44483.1,0.194864,0.194515,-0.700479,23,0.0162609,10,-0.000136254,-3.15461,-0.286161,-0.206178,5.62265,0.194515,
2,0,0,1,0,44483.2,0.193366,0.193049,-0.70765,23,0.0162068,10,-0.000136611,-3.15018,-0.343127,-0.171948,4.74335,0.193049,
2,0,0,1,0,44483.3,0.191866,0.191535,-0.714953,23,0.0161523,10,-0.000136939,-3.14572,-0.527645,-0.111818,3.12151,0.191535,
2,0,0,1,0,44483.4,0.19037,0.19,-0.715808,23,0.0160975,10,-0.000136003,-3.1452,-0.369157,-0.159823,4.48711,0.19,
2,0,0,1,0,44483.4,0.188871,0.188534,-0.724206,23,0.0160422,10,-0.000136538,-3.14014,-0.338969,-0.174057,4.92033,0.188534,
2,0,0,1,0,44483.5,0.187373,0.187053,-0.730842,23,0.0159864,10,-0.000136706,-3.13618,-0.382347,-0.15431,4.40035,0.187053,
2,0,0,1,0,44483.6,0.185875,0.185554,-0.738764,23,0.0159301,10,-0.000137081,-3.13149,-0.578738,-0.101946,2.93188,0.185554,
2,0,0,1,0,44483.7,0.184377,0.184103,-0.740235,23,0.0158734,10,-0.000136279,-3.13063,-0.385597,-0.153009,4.43014,0.184103,
2,0,0,1,0,44483.7,0.182878,0.182564,-0.749037,23,0.0158163,10,-0.000136747,-3.1255,-0.456715,-0.129183,3.78546,0.182564,
2,0,0,1,0,44483.8,0.18138,0.181105,-0.756281,23,0.0157586,10,-0.000136966,-3.12132,-0.393121,-0.150081,4.44141,0.181105,
2,0,0,1,0,44483.9,0.179882,0.179548,-0.766863,23,0.0157004,10,-0.000137689,-3.11528,-0.449357,-0.131299,3.90884,0.179548,
2,0,0,1,0,44484,0.178384,0.178056,-0.771744,23,0.0156416,10,-0.000137414,-3.11253,-0.375287,-0.157213,4.72337,0.178056,
2,0,0,1,0,44484,0.176886,0.176583,-0.776215,23,0.0155823,10,-0.000137066,-3.11002,-0.329617,-0.178996,5.4384,0.176583,
2,0,0,1,0,44484.1,0.175386,0.175054,-0.787985,23,0.0155224,10,-0.00013794,-3.10348,-0.28529,-0.206807,6.35062,0.175054,
2,0,0,1,0,44484.2,0.173891,0.173553,-0.797822,23,0.0154619,10,-0.000138465,-3.09809,-0.293879,-0.200763,6.2372,0.173553,
2,0,0,1,0,44484.3,0.172391,0.172017,-0.806382,23,0.0154007,10,-0.000138711,-3.09346,-0.299872,-0.196751,6.1695,0.172017,
2,0,0,1,0,44484.3,0.170893,0.170564,-0.809862,23,0.0153389,10,-0.000138133,-3.09159,-0.280529,-0.210317,6.66717,0.170564,
2,0,0,1,0,44484.4,0.169395,0.169028,-0.822149,23,0.0152763,10,-0.000138966,-3.08505,-0.244949,-0.240867,7.73287,0.169028,
2,0,0,1,0,44484.5,0.167897,0.167572,-0.835746,23,0.0152129,10,-0.000140048,-3.07793,-0.265803,-0.221969,7.23616,0.167572,
2,0,0,1,0,44484.6,0.166398,0.166038,-0.846096,23,0.0151487,10,-0.000140485,-3.07258,-0.289467,-0.203823,6.72748,0.166038,
2,0,0,1,0,44484.6,0.1649,0.164593,-0.85336,23,0.0150838,10,-0.000140458,-3.06887,-0.258854,-0.227928,7.63761,0.164593,
2,0,0,1,0,44484.7,0.163402,0.163081,-0.868618,23,0.015018,10,-0.000141656,-3.06117,-0.219148,-0.269224,9.12736,0.163081,
2,0,0,1,0,44484.8,0.161904,0.161549,-0.883082,23,0.0149511,10,-0.000142661,-3.054,-0.22185,-0.265946,9.1582,0.1615489,
2,0,0,1,0,44484.9,0.160406,0.160088,-0.898511,23,0.0148832,10,-0.000143841,-3.04648,-0.214877,-0.274575,9.59306,0.160088,
2,0,0,1,0,44484.9,0.158906,0.158563,-0.910334,23,0.0148142,10,-0.000144346,-3.0408,-0.204373,-0.288688,10.266,0.1585633,
2,0,0,1,0,44485,0.157411,0.15709,-0.929737,23,0.0147442,10,-0.000146053,-3.03164,-0.172606,-0.341819,12.4125,0.15709,
2,0,0,1,0,44485.1,0.155911,0.155597,-0.946775,23,0.0146726,10,-0.000147315,-3.02375,-0.155222,-0.380101,14.0784,0.155597,
2,0,0,1,0,44485.2,0.154413,0.154052,-0.968288,23,0.0145995,10,-0.000149167,-3.014,-0.159263,-0.370457,14.0039,0.154052,
2,0,0,1,0,44485.2,0.152915,0.15265,-0.990146,23,0.0145247,10,-0.000151146,-3.0043,-0.146103,-0.403825,15.638,0.15265,
2,0,0,1,0,44485.3,0.151417,0.151084,-1.01536,23,0.0144484,10,-0.000153405,-2.99338,-0.133072,-0.443369,17.6153,0.151084,
2,0,0,1,0,44485.4,0.149918,0.149584,-1.0438,23,0.01437,10,-0.000156136,-2.98138,-0.117027,-0.504158,20.5671,0.149584,
2,0,0,1,0,44485.5,0.14842,0.148135,-1.07541,23,0.0142893,10,-0.000159306,-2.96843,-0.11109,-0.531102,22.3412,0.148135,
2,0,0,1,0,44485.5,0.146922,0.146585,-1.11177,23,0.014206,10,-0.000162969,-2.95398,-0.105659,-0.558399,24.2109,0.146585,
2,0,0,1,0,44485.6,0.145424,0.145107,-1.14723,23,0.0141202,10,-0.000166472,-2.94035,-0.0959089,-0.615167,27.7248,0.145107,
2,0,0,1,0,44485.7,0.143926,0.143609,-1.19149,23,0.0140313,10,-0.000171108,-2.92391,-0.0856847,-0.688571,32.1423,0.143609,
2,0,0,1,0,44485.8,0.142426,0.142137,-1.24321,23,0.0139386,10,-0.000176706,-2.90546,-0.0846257,-0.697188,33.8128,0.142137,
2,0,0,1,0,44485.8,0.140931,0.140602,-1.29004,23,0.0138424,10,-0.000181382,-2.8894,-0.0884958,-0.666698,33.639,0.140602,
2,0,0,1,0,44485.9,0.139431,0.139106,-1.34482,23,0.0137422,10,-0.000187073,-2.87134,-0.0825474,-0.714741,37.5904,0.139106,
2,0,0,1,0,44486,0.137933,0.137599,-1.40507,23,0.0136381,10,-0.000193336,-2.8523,-0.0809747,-0.728623,39.8704,0.1375986,
2,0,0,1,0,44486.1,0.136435,0.136122,-1.46276,23,0.0135294,10,-0.000199113,-2.83483,-0.0834089,-0.707359,40.3049,0.136122,
2,0,0,1,0,44486.1,0.134936,0.134593,-1.52483,23,0.0134161,10,-0.000205232,-2.81678,-0.0864207,-0.682707,40.5322,0.134593,
2,0,0,1,0,44486.2,0.133438,0.133173,-1.5862,23,0.0132983,10,-0.000211238,-2.79964,-0.0905855,-0.651318,40.2892,0.133173,
2,0,0,1,0,44486.3,0.13194,0.131633,-1.64537,23,0.013176,10,-0.000216585,-2.78374,-0.0930586,-0.634009,40.7834,0.131633,
2,0,0,1,0,44486.4,0.130442,0.130064,-1.70744,23,0.013049,10,-0.000222078,-2.76765,-0.0964316,-0.611833,40.7221,0.1300644,
2,0,0,1,0,44486.4,0.128942,0.12864,-1.76889,23,0.0129172,10,-0.00022755,-2.7523,-0.103765,-0.568592,39.138,0.12864,
2,0,0,1,0,44486.5,0.127446,0.127118,-1.82904,23,0.0127815,10,-0.000232503,-2.73778,-0.114441,-0.515548,36.6284,0.127118,
2,0,0,1,0,44486.6,0.125947,0.125649,-1.87765,23,0.0126413,10,-0.000235925,-2.72638,-0.122578,-0.481327,35.2353,0.125649,
2,0,0,1,0,44486.7,0.124449,0.124125,-1.92816,23,0.0124974,10,-0.000239333,-2.71486,-0.126755,-0.465464,34.9589,0.124125,
2,0,0,1,0,44486.7,0.122951,0.122632,-1.9785,23,0.0123496,10,-0.000242627,-2.70366,-0.141499,-0.416964,32.0957,0.122632,
2,0,0,1,0,44486.8,0.121453,0.121148,-2.02191,23,0.0121985,10,-0.000244949,-2.69424,-0.16808,-0.351024,27.6626,0.121148,
2,0,0,1,0,44486.9,0.119955,0.119657,-2.05965,23,0.0120442,10,-0.000246451,-2.68621,-0.182694,-0.322944,25.9517,0.119657,
2,0,0,1,0,44487,0.118456,0.11814,-2.09755,23,0.0118871,10,-0.000247804,-2.67829,-0.205268,-0.287429,23.495,0.11814,
2,0,0,1,0,44487,0.116958,0.116647,-2.13319,23,0.0117273,10,-0.00024883,-2.67097,-0.244358,-0.241449,20.0308,0.116647,
2,0,0,1,0,44487.1,0.11546,0.11515,-2.15896,23,0.0115652,10,-0.000248603,-2.66576,-0.322289,-0.183065,15.3825,0.11515,
2,0,0,1,0,44487.2,0.113962,0.113655,-2.17707,23,0.0114014,10,-0.000247435,-2.66213,-0.414098,-0.142478,12.0945,0.113655,
2,0,0,1,0,44487.3,0.112462,0.112126,-2.19573,23,0.011236,10,-0.000246199,-2.65842,-0.542503,-0.108755,9.29815,0.112126,
2,0,0,1,0,44487.3,0.110967,0.110593,-2.20841,23,0.01107,10,-0.000244235,-2.65592,-0.743353,-0.0793701,6.82514,0.1105932,
2,0,0,1,0,44487.4,0.109467,0.109147,-2.21478,23,0.0109028,10,-0.000241736,-2.65467,-1.80966,-0.0326028,2.81295,0.109147,
2,0,0,1,0,44487.5,0.107969,0.107701,-2.21565,23,0.0107354,10,-0.000238628,-2.6545,-20.6434,-0.00285805,0.247019,0.107701,
2,0,0,1,0,44487.6,0.106471,0.106154,-2.21297,23,0.0105682,10,-0.000234916,-2.65503,3.21182,0.0183696,-1.5876,0.106154,
2,0,0,1,0,44487.6,0.104973,0.104665,-2.21076,23,0.0104011,10,-0.000231389,-2.65546,1.45625,0.0405149,-3.4923,0.104665,
2,0,0,1,0,44487.7,0.103474,0.103133,-2.20525,23,0.0102344,10,-0.000227434,-2.65654,0.848251,0.0695549,-5.97605,0.103133,
2,0,0,1,0,44487.8,0.101976,0.101682,-2.19408,23,0.0100683,10,-0.000223099,-2.65875,0.59142,0.09976,-8.53554,0.101682,
2,0,0,1,0,44487.9,0.100478,0.100165,-2.17995,23,0.00990321,10,-0.000218355,-2.66155,0.596779,0.098864,-8.417,0.100165,
2,0,0,1,0,44487.9,0.0989799,0.0987122,-2.1638,23,0.00973909,10,-0.000213594,-2.66478,0.557012,0.105922,-8.95575,0.0987122,
2,0,0,1,0,44488,0.0974817,0.0971554,-2.15604,23,0.00957593,10,-0.00020947,-2.66634,0.571888,0.103167,-8.67185,0.0971554,
2,0,0,1,0,44488.1,0.0959821,0.0956583,-2.13948,23,0.0094136,10,-0.000204659,-2.66969,0.519254,0.113624,-9.47629,0.0956583,
2,0,0,1,0,44488.2,0.0944866,0.0941794,-2.12154,23,0.00925287,10,-0.000199805,-2.67335,0.511584,0.115328,-9.56544,0.0941794,
2,0,0,1,0,44488.2,0.0929871,0.0927232,-2.1079,23,0.00909286,10,-0.000195451,-2.67615,0.665835,0.0886105,-7.29862,0.0927232,
2,0,0,1,0,44488.3,0.0914889,0.0911453,-2.10049,23,0.00893399,10,-0.00019145,-2.67768,0.553974,0.106503,-8.71219,0.0911453,
2,0,0,1,0,44488.4,0.0899907,0.0896872,-2.0839,23,0.00877603,10,-0.000186899,-2.68112,0.507817,0.116184,-9.44142,0.0896872,
2,0,0,1,0,44488.5,0.0884925,0.0881547,-2.06539,23,0.00861914,10,-0.000182074,-2.685,0.505236,0.116777,-9.4365,0.0881547,
2,0,0,1,0,44488.5,0.0869943,0.0866477,-2.05673,23,0.00846338,10,-0.000178211,-2.68682,0.559289,0.105491,-8.48261,0.08664766,
2,0,0,1,0,44488.6,0.0854961,0.0851636,-2.04765,23,0.00830843,10,-0.000174385,-2.68874,0.612359,0.0963487,-7.69454,0.0851636,
2,0,0,1,0,44488.7,0.083998,0.0836737,-2.03231,23,0.00815427,10,-0.000170051,-2.69201,0.537162,0.109837,-8.71724,0.0836737,
2,0,0,1,0,44488.8,0.0824998,0.0821668,-2.02407,23,0.00800093,10,-0.000166312,-2.69377,0.60599,0.0973614,-7.68591,0.0821668,
2,0,0,1,0,44488.8,0.081002,0.0806437,-2.01233,23,0.00784862,10,-0.000162282,-2.6963,0.645803,0.0913592,-7.18029,0.0806437,
2,0,0,1,0,44488.9,0.0795025,0.0791929,-2.00161,23,0.00769684,10,-0.000158513,-2.69862,0.762906,0.0773359,-6.04371,0.0791929,
2,0,0,1,0,44489,0.078007,0.0776833,-1.99452,23,0.00754606,10,-0.000154941,-2.70016,0.77081,0.0765429,-5.9506,0.0776833,
2,0,0,1,0,44489.1,0.076507,0.0761616,-1.98215,23,0.00739564,10,-0.000150964,-2.70286,0.648329,0.0910031,-7.03967,0.0761616,
2,0,0,1,0,44489.1,0.0750088,0.0747119,-1.96817,23,0.0072464,10,-0.000147046,-2.70594,0.593628,0.0993889,-7.64477,0.0747119,
2,0,0,1,0,44489.2,0.0735106,0.0731882,-1.96109,23,0.00709793,10,-0.000143529,-2.7075,0.733719,0.0804122,-6.1509,0.0731882,
2,0,0,1,0,44489.3,0.0720124,0.071691,-1.95029,23,0.00695019,10,-0.000139818,-2.7099,0.670126,0.0880432,-6.70068,0.071691,
2,0,0,1,0,44489.4,0.0705142,0.070157,-1.9395,23,0.00680312,10,-0.00013607,-2.71231,0.572996,0.102968,-7.79057,0.070157,
2,0,0,1,0,44489.4,0.069016,0.0686885,-1.92594,23,0.00665703,10,-0.00013229,-2.71536,0.579012,0.101898,-7.6721,0.0686885,
2,0,0,1,0,44489.5,0.0675179,0.0672174,-1.91525,23,0.00651184,10,-0.000128738,-2.71777,0.710859,0.0829982,-6.20904,0.0672174,
2,0,0,1,0,44489.6,0.0660179,0.0657018,-1.9116,23,0.00636708,10,-0.000125596,-2.7186,0.662982,0.0889919,-6.61563,0.0657018,
2,0,0,1,0,44489.7,0.0645224,0.0642045,-1.89623,23,0.00622338,10,-0.000121747,-2.72211,0.601435,0.0980987,-7.25257,0.0642045,
2,0,0,1,0,44489.7,0.0630228,0.0627196,-1.88267,23,0.00608027,10,-0.00011808,-2.72523,0.566698,0.104112,-7.66134,0.0627196,
2,0,0,1,0,44489.8,0.0615251,0.0612123,-1.87363,23,0.00593835,10,-0.000114689,-2.72732,0.598648,0.0985554,-7.21321,0.0612123,
2,0,0,1,0,44489.9,0.0600269,0.0596975,-1.86202,23,0.00579718,10,-0.000111158,-2.73001,0.607138,0.0971772,-7.06669,0.0596975,
2,0,0,1,0,44490,0.0585287,0.0582281,-1.85307,23,0.00565672,10,-0.000107901,-2.73211,0.498866,0.118268,-8.53979,0.0582281,
2,0,0,1,0,44490,0.0570305,0.0566703,-1.84042,23,0.00551707,10,-0.000104297,-2.73508,0.583224,0.101162,-7.26825,0.0566703,
2,0,0,1,0,44490.1,0.0555323,0.0552039,-1.82836,23,0.00537854,10,-0.000100933,-2.73794,0.530731,0.111167,-7.94029,0.0552039,
2,0,0,1,0,44490.2,0.0540341,0.0537024,-1.81634,23,0.00524073,10,-9.75415e-05,-2.7408,0.666682,0.088498,-6.27191,0.0537024,
2,0,0,1,0,44490.3,0.052536,0.0521871,-1.80851,23,0.00510362,10,-9.4381e-05,-2.74268,0.564944,0.104435,-7.36442,0.0521871,
2,0,0,1,0,44490.3,0.0510378,0.0507069,-1.79544,23,0.00496739,10,-9.1041e-05,-2.74583,0.450387,0.130998,-9.17342,0.0507069,
2,0,0,1,0,44490.4,0.0495382,0.0492247,-1.77992,23,0.0048321,10,-8.76161e-05,-2.7496,0.507925,0.116159,-8.08757,0.0492247,
2,0,0,1,0,44490.5,0.0480427,0.047752,-1.76756,23,0.00469813,10,-8.44045e-05,-2.75263,0.644026,0.0916112,-6.31998,0.047752,
2,0,0,1,0,44490.6,0.0465432,0.0462563,-1.75826,23,0.00456453,10,-8.13303e-05,-2.75492,0.537765,0.109713,-7.51337,0.0462563,
2,0,0,1,0,44490.6,0.045045,0.044734,-1.74613,23,0.00443195,10,-7.81113e-05,-2.75792,0.419827,0.140534,-9.56238,0.044734,
2,0,0,1,0,44490.7,0.0435468,0.0432138,-1.72656,23,0.0043005,10,-7.46113e-05,-2.76282,0.433167,0.136206,-9.20408,0.0432138,
2,0,0,1,0,44490.8,0.0420486,0.0417002,-1.71601,23,0.00417015,10,-7.15578e-05,-2.76548,0.461701,0.127788,-8.57349,0.0417002,
2,0,0,1,0,44490.9,0.0405504,0.040235,-1.70812,23,0.00404063,10,-6.87261e-05,-2.76748,0.482803,0.122203,-8.13953,0.040235,
2,0,0,1,0,44490.9,0.0390523,0.0387212,-1.69325,23,0.00391195,10,-6.55647e-05,-2.77128,0.398682,0.147988,-9.76224,0.0387212,
2,0,0,1,0,44491,0.0375541,0.0371992,-1.6787,23,0.00378434,10,-6.24465e-05,-2.77503,0.418556,0.140961,-9.24407,0.03719924,
2,0,0,1,0,44491.1,0.0360559,0.0357321,-1.66445,23,0.00365797,10,-5.94745e-05,-2.77873,0.411716,0.143303,-9.3171,0.0357321,
2,0,0,1,0,44491.2,0.0345577,0.034243,-1.65149,23,0.00353247,10,-5.65519e-05,-2.78212,0.456478,0.12925,-8.32905,0.034243,
2,0,0,1,0,44491.2,0.0330582,0.0327277,-1.6419,23,0.00340777,10,-5.37357e-05,-2.78465,0.425541,0.138647,-8.8684,0.0327277,
2,0,0,1,0,44491.3,0.0315626,0.031241,-1.62554,23,0.0032844,10,-5.07836e-05,-2.789,0.44165,0.13359,-8.47022,0.031241,
2,0,0,1,0,44491.4,0.0300631,0.0297108,-1.61129,23,0.00316181,10,-4.78728e-05,-2.79283,0.461622,0.12781,-8.03567,0.0297108,
2,0,0,1,0,44491.5,0.0285649,0.0282179,-1.59845,23,0.00304028,10,-4.51049e-05,-2.7963,0.483776,0.121957,-7.61123,0.0282179,
2,0,0,1,0,44491.5,0.0270667,0.0267025,-1.58891,23,0.00291958,10,-4.2428e-05,-2.7989,0.47302,0.12473,-7.72913,0.0267025,
2,0,0,1,0,44491.6,0.0255685,0.0252432,-1.57653,23,0.00279975,10,-3.97968e-05,-2.8023,0.41221,0.143131,-8.80063,0.0252432,
2,0,0,1,0,44491.7,0.0240704,0.0237829,-1.56028,23,0.002681,10,-3.7108e-05,-2.8068,0.403871,0.146086,-8.91834,0.0237829,
2,0,0,1,0,44491.8,0.0225722,0.0222486,-1.55244,23,0.0025631,10,-3.45396e-05,-2.80899,0.516713,0.114183,-6.91745,0.0222486,
2,0,0,1,0,44491.8,0.021074,0.0207523,-1.54113,23,0.00244599,10,-3.19821e-05,-2.81216,0.524737,0.112437,-6.76557,0.0207523,
2,0,0,1,0,44491.9,0.0195758,0.0192309,-1.53249,23,0.00232964,10,-2.94712e-05,-2.8146,0.497704,0.118544,-7.08052,0.0192309,
2,0,0,1,0,44492,0.018078,0.0177169,-1.5169,23,0.00221406,10,-2.68748e-05,-2.81904,0.519291,0.113616,-6.74265,0.0177169,
2,0,0,1,0,44492.1,0.0165785,0.0162622,-1.51252,23,0.00209917,10,-2.4597e-05,-2.8203,0.720413,0.0818974,-4.84142,0.0162622,
2,0,0,1,0,44492.1,0.015083,0.0147575,-1.50556,23,0.00198513,10,-2.22183e-05,-2.8223,0.832255,0.0708918,-4.16036,0.0147575,
2,0,0,1,0,44492.2,0.013583,0.0132861,-1.49748,23,0.00187126,10,-1.98956e-05,-2.82464,0.609198,0.0968487,-5.65167,0.0132861,
2,0,0,1,0,44492.3,0.0120848,0.0117645,-1.48767,23,0.00175811,10,-1.75017e-05,-2.82749,0.713065,0.0827414,-4.80911,0.0117645,
2,0,0,1,0,44492.4,0.0105866,0.0102767,-1.48029,23,0.00164565,10,-1.52124e-05,-2.82965,0.892203,0.0661285,-3.82862,0.0102767,
2,0,0,1,0,44492.4,0.00908846,0.00872181,-1.47604,23,0.00153359,10,-1.28737e-05,-2.8309,0.922405,0.0639632,-3.68854,0.00872181,
2,0,0,1,0,44492.5,0.00759027,0.00725865,-1.47167,23,0.00142188,10,-1.06823e-05,-2.83219,0.937801,0.0629131,-3.61106,0.00725865,
2,0,0,1,0,44492.6,0.00609208,0.00578591,-1.46922,23,0.0013105,10,-8.5008e-06,-2.83291,0.899005,0.0656281,-3.7582,0.00578591,
2,0,0,1,0,44492.7,0.00459389,0.00427046,-1.46568,23,0.00119946,10,-6.25911e-06,-2.83396,1.8271,0.0322917,-1.84532,0.00427046,
2,0,0,1,0,44492.7,0.00309391,0.00274799,-1.46392,23,0.0010885,10,-4.02282e-06,-2.83448,-2.01839,-0.0292312,1.67428,0.00274799,
2,0,0,1,0,44492.8,0.0015984,0.00124052,-1.47672,23,0.000977028,10,-1.8319e-06,-2.8307, , , ,0.00124052,
2,0,0,1,0,44492.9,0.000199195,-0.000170778,-1.46729,23,0.000872866,10,2.50581e-07,-2.83348, , , ,-0.000170778,