File: Figure_codes/Fig_3-5/rawdata_trumpetplot_data/after 10th/20221101_1-115_003_TrumpetPlot_ParaChange_from10_every3_13_CV_C01_31.csv
mode,ox/red,error,control changes,counter inc.,time/s,control/V,Ewe/V,<I>/mA,cycle number,(Q-Qo)/C,I Range,P/W,log(|I|),Tafel slope mV/dec,alpha_eff,dI/d(E-IR),E-IR/V,
2,1,0,1,0,62271.9,2.44065e-05,-0.000363498,13.8869,32,0.0000000E+000,10,-5.04788e-06,-1.85739, , , ,-0.000363498,
2,1,0,1,0,62271.9,0.00266289,0.00221753,15.0373,32,4.53334e-05,10,3.33457e-05,-1.82283, , , ,0.00221753,
2,1,0,1,0,62271.9,0.00586735,0.00549313,16.011,32,0.000107583,10,8.79505e-05,-1.79558, , , ,0.00549313,
2,1,0,1,0,62271.9,0.00906349,0.0086436,16.8551,32,0.000173418,10,0.000145688,-1.77327,0.147387,0.400306,260.216,0.0086436,
2,1,0,1,0,62271.9,0.0122624,0.0118778,17.6414,32,0.000242516,10,0.000209542,-1.75347,0.167717,0.351782,240.236,0.0118778,
2,1,0,1,0,62271.9,0.0154641,0.0150919,18.3874,32,0.000314661,10,0.000277502,-1.73548,0.187094,0.315349,224.75,0.0150919,
2,1,0,1,0,62271.9,0.0186602,0.0182488,19.0754,32,0.000389671,10,0.000348102,-1.71953,0.205158,0.287583,212.951,0.0182488,
2,1,0,1,0,62271.9,0.0218675,0.021501,19.7448,32,0.000467389,10,0.000424533,-1.70455,0.221516,0.266347,204.386,0.021501,
2,1,0,1,0,62271.9,0.0250636,0.0246981,20.3715,32,0.000547701,10,0.000503138,-1.69098,0.23908,0.246779,195.558,0.0246981,
2,1,0,1,0,62271.9,0.0282597,0.0278518,20.9954,32,0.000630495,10,0.000584759,-1.67788,0.255202,0.23119,188.841,0.0278518,
2,1,0,1,0,62271.9,0.031467,0.0310892,21.5864,32,0.00071574,10,0.000671105,-1.66582,0.269572,0.218865,183.848,0.03108922,
2,1,0,1,0,62271.9,0.0346631,0.0342969,22.1612,32,0.0008033,10,0.00076006,-1.65441,0.289295,0.203944,175.976,0.0342969,
2,1,0,1,0,62271.9,0.0378704,0.0374654,22.7187,32,0.000893107,10,0.000851168,-1.64362,0.303334,0.194505,172.094,0.0374654,
2,1,0,1,0,62271.9,0.0410665,0.0407336,23.2623,32,0.000985108,10,0.000947556,-1.63335,0.318636,0.185164,167.792,0.0407336,
2,1,0,1,0,62272,0.0442626,0.0439011,23.7913,32,0.00107926,10,0.00104446,-1.62358,0.334601,0.176329,163.424,0.0439011,
2,1,0,1,0,62272,0.0474671,0.0471077,24.3107,32,0.00117551,10,0.00114522,-1.6142,0.348613,0.169242,160.318,0.0471077,
2,1,0,1,0,62272,0.0506632,0.0502497,24.808,32,0.0012738,10,0.00124659,-1.60541,0.364046,0.162068,156.748,0.0502497,
2,1,0,1,0,62272,0.0538621,0.0535126,25.311,32,0.00137408,10,0.00135445,-1.59669,0.377288,0.156379,154.31,0.0535126,
2,1,0,1,0,62272,0.0570638,0.0567192,25.8005,32,0.00147635,10,0.00146338,-1.58837,0.389406,0.151513,152.412,0.0567192,
2,1,0,1,0,62272,0.06026,0.059893,26.2836,32,0.00158057,10,0.0015742,-1.58032,0.401056,0.147111,150.785,0.059893,
2,1,0,1,0,62272,0.0634672,0.0631082,26.7678,32,0.00168673,10,0.00168927,-1.57239,0.414194,0.142445,148.652,0.0631082,
2,1,0,1,0,62272,0.0666633,0.066299,27.239,32,0.00179479,10,0.00180591,-1.56481,0.423696,0.139251,147.912,0.066299,
2,1,0,1,0,62272,0.0698595,0.0695077,27.7015,32,0.00190473,10,0.00192547,-1.5575,0.434467,0.135798,146.772,0.06950774,
2,1,0,1,0,62272,0.0730667,0.0726635,28.1725,32,0.00201654,10,0.00204711,-1.55017,0.440928,0.133809,147.092,0.0726635,
2,1,0,1,0,62272,0.0762629,0.0758734,28.6414,32,0.00213022,10,0.00217312,-1.54301,0.451069,0.1308,146.123,0.0758734,
2,1,0,1,0,62272,0.0794701,0.0790599,29.116,32,0.00224577,10,0.00230191,-1.53587,0.464939,0.126898,144.066,0.0790599,
2,1,0,1,0,62272,0.0826662,0.0822878,29.569,32,0.00236319,10,0.00243317,-1.52916,0.473271,0.124664,143.792,0.0822878,
2,1,0,1,0,62272,0.0858624,0.0855358,30.027,32,0.00248242,10,0.00256838,-1.52249,0.48094,0.122676,143.761,0.0855358,
2,1,0,1,0,62272,0.0890668,0.0887117,30.4874,32,0.0026035,10,0.00270459,-1.51588,0.484355,0.121811,144.929,0.0887117,
2,1,0,1,0,62272,0.092263,0.0918685,30.9574,32,0.00272642,10,0.00284401,-1.50924,0.490293,0.120336,145.321,0.0918685,
2,1,0,1,0,62272,0.0954674,0.0950763,31.4224,32,0.00285122,10,0.00298753,-1.50276,0.500076,0.117982,144.587,0.0950763,
2,1,0,1,0,62272,0.0986636,0.0982755,31.8783,32,0.00297787,10,0.00313286,-1.4965,0.509311,0.115843,144.093,0.0982755,
2,1,0,1,0,62272,0.10186,0.101481,32.3337,32,0.00310635,10,0.00328126,-1.49034,0.517359,0.114041,143.903,0.101481,
2,1,0,1,0,62272,0.105067,0.104689,32.8047,32,0.00323667,10,0.00343429,-1.48406,0.521019,0.11324,144.938,0.104689,
2,1,0,1,0,62272,0.108263,0.107853,33.261,32,0.00336886,10,0.00358731,-1.47806,0.526817,0.111993,145.348,0.107853,
2,1,0,1,0,62272,0.111465,0.111058,33.7309,32,0.0035029,10,0.00374608,-1.47197,0.535923,0.11009,144.885,0.111058,
2,1,0,1,0,62272,0.114666,0.114274,34.1931,32,0.00363882,10,0.00390738,-1.46606,0.542618,0.108732,145.064,0.114274,
2,1,0,1,0,62272,0.117863,0.117466,34.6559,32,0.00377655,10,0.00407087,-1.46022,0.547544,0.107754,145.73,0.117466,
2,1,0,1,0,62272,0.12107,0.120712,35.1263,32,0.00391615,10,0.00424016,-1.45437,0.551441,0.106992,146.663,0.120712,
2,1,0,1,0,62272.1,0.124266,0.123841,35.5938,32,0.00405763,10,0.00440797,-1.44863,0.550982,0.107082,148.779,0.123841,
2,1,0,1,0,62272.1,0.127462,0.12708,36.0713,32,0.00420101,10,0.00458396,-1.44284,0.550253,0.107223,150.968,0.12708,
2,1,0,1,0,62272.1,0.130667,0.130286,36.5633,32,0.00434632,10,0.00476368,-1.43696,0.550985,0.107081,152.815,0.130286,
2,1,0,1,0,62272.1,0.133863,0.13342,37.0448,32,0.00449358,10,0.0049425,-1.43127,0.544555,0.108345,156.721,0.13342,
2,1,0,1,0,62272.1,0.137067,0.136693,37.5578,32,0.00464282,10,0.00513389,-1.4253,0.543373,0.108581,159.208,0.136693,
2,1,0,1,0,62272.1,0.140263,0.139864,38.0747,32,0.00479414,10,0.00532527,-1.41936,0.541709,0.108915,161.837,0.139864,
2,1,0,1,0,62272.1,0.143459,0.143053,38.5959,32,0.00494754,10,0.00552127,-1.41346,0.546112,0.108036,162.689,0.143053,
2,1,0,1,0,62272.1,0.146667,0.146254,39.1219,32,0.00510305,10,0.00572171,-1.40758,0.555161,0.106275,162.175,0.146254,
2,1,0,1,0,62272.1,0.149863,0.149442,39.632,32,0.00526061,10,0.0059227,-1.40195,0.569213,0.103652,160.229,0.149442,
2,1,0,1,0,62272.1,0.153064,0.152631,40.1453,32,0.00542022,10,0.00612741,-1.39637,0.575791,0.102468,160.503,0.1526309,
2,1,0,1,0,62272.1,0.156266,0.155815,40.6407,32,0.00558185,10,0.00633245,-1.39104,0.576012,0.102429,162.54,0.155815,
2,1,0,1,0,62272.1,0.159462,0.158996,41.1671,32,0.00574548,10,0.00654543,-1.38545,0.585176,0.100824,162.009,0.158996,
2,1,0,1,0,62272.1,0.16267,0.162211,41.7074,32,0.00591128,10,0.00676538,-1.37979,0.595706,0.0990422,161.053,0.1622106,
2,1,0,1,0,62272.1,0.165866,0.165422,42.2175,32,0.00607918,10,0.00698368,-1.37451,0.618195,0.0954392,157.073,0.165422,
2,1,0,1,0,62272.1,0.169062,0.168656,42.7087,32,0.00624908,10,0.00720307,-1.36948,0.651436,0.0905691,150.821,0.168656,
2,1,0,1,0,62272.1,0.172266,0.171877,43.1903,32,0.00642094,10,0.00742344,-1.36461,0.686054,0.085999,144.791,0.171877,
2,1,0,1,0,62272.1,0.175462,0.175069,43.6467,32,0.00659466,10,0.00764119,-1.36005,0.723133,0.0815894,138.804,0.175069,
2,1,0,1,0,62272.1,0.178667,0.178263,44.0768,32,0.00677016,10,0.00785726,-1.35579,0.772835,0.0763423,131.163,0.178263,
2,1,0,1,0,62272.1,0.181863,0.181464,44.4866,32,0.00694735,10,0.00807274,-1.35177,0.824023,0.0715999,124.175,0.181464,
2,1,0,1,0,62272.1,0.185059,0.184658,44.8667,32,0.00712611,10,0.00828502,-1.34808,0.890238,0.0662744,115.906,0.184658,
2,1,0,1,0,62272.1,0.188266,0.187899,45.2399,32,0.0073064,10,0.00850052,-1.34448,0.980555,0.06017,106.059,0.187899,
2,1,0,1,0,62272.1,0.191463,0.191025,45.556,32,0.00748805,10,0.00870233,-1.34145,1.09963,0.0536543,95.2208,0.191025,
2,1,0,1,0,62272.1,0.194664,0.194328,45.8509,32,0.0076709,10,0.00891013,-1.33865,1.2887,0.0457825,81.7617,0.194328,
2,1,0,1,0,62272.1,0.197866,0.197472,46.0869,32,0.00785481,10,0.00910089,-1.33642,1.52186,0.0387682,69.5991,0.197472,
2,1,0,1,0,62272.1,0.201062,0.200673,46.2843,32,0.00803958,10,0.00928798,-1.33457,1.87893,0.0314009,56.632,0.200673,
2,1,0,1,0,62272.2,0.204269,0.203844,46.4482,32,0.00822509,10,0.0094682,-1.33303,2.49103,0.023685,42.8535,0.203844,
2,1,0,1,0,62272.2,0.207465,0.207118,46.5752,32,0.00841114,10,0.00964656,-1.33184,3.60687,0.0163577,29.6685,0.207118,
2,1,0,1,0,62272.2,0.210662,0.210274,46.6355,32,0.00859757,10,0.00980621,-1.33128,7.42406,0.00794713,14.4348,0.210274,
2,1,0,1,0,62272.2,0.213866,0.213487,46.6644,32,0.00878419,10,0.00996223,-1.33101,220.593,0.000267461,0.486192,0.213487,
2,1,0,1,0,62272.2,0.217062,0.216713,46.634,32,0.00897079,10,0.0101062,-1.3313,-7.95377,-0.00741786,-13.4758,0.216713,
2,1,0,1,0,62272.2,0.220267,0.219898,46.5815,32,0.00915721,10,0.0102432,-1.33179,-3.84145,-0.0153588,-27.8638,0.219898,
2,1,0,1,0,62272.2,0.223463,0.223098,46.4627,32,0.0093433,10,0.0103657,-1.3329,-2.61362,-0.022574,-40.8537,0.223098,
2,1,0,1,0,62272.2,0.226659,0.226291,46.3076,32,0.00952884,10,0.010479,-1.33435,-1.91058,-0.0308806,-55.7081,0.226291,
2,1,0,1,0,62272.2,0.229866,0.229499,46.1116,32,0.00971369,10,0.0105826,-1.33619,-1.55113,-0.0380367,-68.3206,0.229499,
2,1,0,1,0,62272.2,0.233062,0.232693,45.8687,32,0.00989764,10,0.0106733,-1.33848,-1.30108,-0.0453469,-81.0274,0.232693,
2,1,0,1,0,62272.2,0.236264,0.235897,45.5882,32,0.0100805,10,0.0107541,-1.34115,-1.10587,-0.0533517,-94.7455,0.235897,
2,1,0,1,0,62272.2,0.239466,0.239149,45.2658,32,0.0102622,10,0.0108253,-1.34423,-0.99151,-0.0595052,-104.949,0.239149,
2,1,0,1,0,62272.2,0.242662,0.242276,44.9011,32,0.0104425,10,0.0108784,-1.34774,-0.876791,-0.0672908,-117.732,0.242276,
2,1,0,1,0,62272.2,0.245869,0.245529,44.5215,32,0.0106213,10,0.0109313,-1.35143,-0.795751,-0.0741438,-128.591,0.245529,
2,1,0,1,0,62272.2,0.249065,0.248696,44.0814,32,0.0107985,10,0.0109629,-1.35575,-0.741769,-0.0795396,-136.637,0.2486963,
2,1,0,1,0,62272.2,0.252261,0.25192,43.6236,32,0.0109739,10,0.0109897,-1.36028,-0.681698,-0.0865486,-147.175,0.25192,
2,1,0,1,0,62272.2,0.255466,0.25513,43.1447,32,0.0111474,10,0.0110075,-1.36507,-0.646457,-0.0912667,-153.48,0.25513,
2,1,0,1,0,62272.2,0.258662,0.258336,42.6366,32,0.0113189,10,0.0110146,-1.37022,-0.613232,-0.0962116,-159.931,0.258336,
2,1,0,1,0,62272.2,0.261866,0.261519,42.1134,32,0.0114884,10,0.0110134,-1.37558,-0.585818,-0.100714,-165.39,0.261519,
2,1,0,1,0,62272.2,0.265063,0.264701,41.5795,32,0.0116557,10,0.0110061,-1.38112,-0.565597,-0.104315,-169.157,0.264701,
2,1,0,1,0,62272.2,0.268259,0.267921,41.0291,32,0.0118209,10,0.0109926,-1.38691,-0.551538,-0.106974,-171.19,0.267921,
2,1,0,1,0,62272.2,0.271466,0.271061,40.4841,32,0.0119839,10,0.0109737,-1.39272,-0.542851,-0.108685,-171.636,0.271061,
2,1,0,1,0,62272.2,0.274662,0.274351,39.9167,32,0.0121447,10,0.0109512,-1.39885,-0.527481,-0.111852,-174.198,0.274351,
2,1,0,1,0,62272.2,0.277869,0.277578,39.3694,32,0.0123032,10,0.0109281,-1.40484,-0.523132,-0.112782,-173.239,0.277578,
2,1,0,1,0,62272.2,0.281065,0.280703,38.8027,32,0.0124595,10,0.010892,-1.41114,-0.518271,-0.11384,-172.407,0.280703,
2,1,0,1,0,62272.3,0.284262,0.283931,38.2545,32,0.0126135,10,0.0108616,-1.41732,-0.509272,-0.115852,-172.986,0.283931,
2,1,0,1,0,62272.3,0.287469,0.287116,37.7158,32,0.0127654,10,0.0108288,-1.42348,-0.515579,-0.114435,-168.423,0.2871159,
2,1,0,1,0,62272.3,0.290665,0.290282,37.1717,32,0.0129151,10,0.0107903,-1.42979,-0.519099,-0.113658,-164.95,0.290282,
2,1,0,1,0,62272.3,0.293861,0.29353,36.6422,32,0.0130627,10,0.0107556,-1.43602,-0.521424,-0.113152,-162.144,0.29353,
2,1,0,1,0,62272.3,0.297066,0.296758,36.1387,32,0.0132082,10,0.0107245,-1.44203,-0.532178,-0.110865,-157.557,0.296758,
2,1,0,1,0,62272.3,0.299638,0.299317,35.7375,32,0.0133232,10,0.0106968,-1.44688,-0.151059,-0.390576,-536.921,0.299317,
2,1,0,1,0,62272.3,0.300012,0.299823,35.6685,32,0.0133411,10,0.0106942,-1.44772,0.0142287,4.14656,5302.04,0.299823,
2,1,0,1,0,62272.3,0.298983,0.298743,33.8433,32,0.0133855,10,0.0101104,-1.47053,0.0525354,1.12305,1348.27,0.298743,
2,1,0,1,0,62272.3,0.295787,0.295526,29.6055,32,0.0135116,10,0.0087492,-1.52863,0.0584702,1.00906,1145.67,0.295526,
2,1,0,1,0,62272.3,0.292579,0.292296,26.2712,32,0.0136229,10,0.00767897,-1.58052,0.0606359,0.973021,1017.3,0.292296,
2,1,0,1,0,62272.3,0.289383,0.289096,23.3787,32,0.0137218,10,0.00675868,-1.63118,0.0623171,0.94677,871.102,0.289096,
2,1,0,1,0,62272.3,0.286187,0.285913,20.7914,32,0.0138098,10,0.00594454,-1.68212,0.0614755,0.959732,781.752,0.285913,
2,1,0,1,0,62272.3,0.282983,0.282692,18.4257,32,0.013888,10,0.00520881,-1.73458,0.0594967,0.991652,713.706,0.2826919,
2,1,0,1,0,62272.3,0.279786,0.2795,16.268,32,0.0139571,10,0.0045469,-1.78867,0.0573413,1.02893,652.087,0.2795,
2,1,0,1,0,62272.3,0.276582,0.27631,14.2538,32,0.0140179,10,0.00393846,-1.84607,0.0538606,1.09542,607.013,0.27631,
2,1,0,1,0,62272.3,0.273386,0.273053,12.4051,32,0.014071,10,0.00338726,-1.9064,0.0504175,1.17023,562.198,0.273053,
2,1,0,1,0,62272.3,0.27019,0.269921,10.6739,32,0.014117,10,0.0028811,-1.97168,0.0463682,1.27242,523.637,0.269921,
2,1,0,1,0,62272.3,0.266982,0.266666,9.05268,32,0.0141562,10,0.00241404,-2.04322,0.0414209,1.4244,494.246,0.266666,
2,1,0,1,0,62272.3,0.263786,0.263494,7.54278,32,0.0141892,10,0.00198748,-2.12247,0.0367948,1.60349,458.655,0.263494,
2,1,0,1,0,62272.3,0.260585,0.260322,6.1128,32,0.0142164,10,0.00159129,-2.21376,0.0310443,1.90051,434.214,0.260322,
2,1,0,1,0,62272.3,0.257383,0.257047,4.76897,32,0.014238,10,0.00122585,-2.32158,0.0251132,2.34936,406.228,0.257047,
2,1,0,1,0,62272.3,0.254187,0.253915,3.51585,32,0.0142544,10,0.000892725,-2.45397,0.0182051,3.24084,382.039,0.253915,
2,1,0,1,0,62272.3,0.25098,0.25064,2.32102,32,0.0142659,10,0.000581742,-2.63432,0.0081952,7.19934,363.165,0.25064,
2,1,0,1,0,62272.3,0.247783,0.24747,1.2032,32,0.0142729,10,0.000297756,-2.91966,0.0212396,2.77784,342.268,0.24747,
2,1,0,1,0,62272.3,0.244587,0.244279,0.131945,32,0.0142754,10,3.22313e-05,-3.87961,0.124335,0.474524,325.429,0.244279,
2,0,0,1,0,62272.3,0.241383,0.241086,-0.875035,32,0.0142738,10,-0.000210958,-3.05797,-0.0359645,-1.64051,307.002,0.241086,
2,0,0,1,0,62272.4,0.238187,0.237877,-1.83244,32,0.0142683,10,-0.000435895,-2.73697,-0.00893978,-6.59971,290.855,0.237877,
2,0,0,1,0,62272.4,0.234982,0.23464,-2.73592,32,0.014259,10,-0.000641956,-2.5629,-0.018232,-3.23606,276.662,0.23464,
2,0,0,1,0,62272.4,0.231786,0.231439,-3.60245,32,0.0142463,10,-0.000833747,-2.4434,-0.0281559,-2.09548,264.494,0.231439,
2,0,0,1,0,62272.4,0.22859,0.228251,-4.42604,32,0.0142301,10,-0.00101025,-2.35399,-0.0376788,-1.56587,253.088,0.228251,
2,0,0,1,0,62272.4,0.225383,0.225087,-5.21521,32,0.0142107,10,-0.00117388,-2.28273,-0.0475603,-1.24053,241.513,0.225087,
2,0,0,1,0,62272.4,0.222187,0.221895,-5.96152,32,0.0141883,10,-0.00132283,-2.22464,-0.0579297,-1.01848,229.447,0.221895,
2,0,0,1,0,62272.4,0.218979,0.21865,-6.6913,32,0.0141629,10,-0.00146305,-2.17449,-0.068412,-0.862421,219.563,0.21865,
2,0,0,1,0,62272.4,0.215783,0.215429,-7.36786,32,0.0141347,10,-0.00158725,-2.13266,-0.0792465,-0.744513,210.092,0.215429,
2,0,0,1,0,62272.4,0.212587,0.212249,-8.03403,32,0.0141038,10,-0.00170522,-2.09507,-0.0901435,-0.654512,202.24,0.212249,
2,0,0,1,0,62272.4,0.20938,0.209012,-8.66812,32,0.0140703,10,-0.00181174,-2.06208,-0.101059,-0.583816,194.917,0.209012,
2,0,0,1,0,62272.4,0.206184,0.205825,-9.28493,32,0.0140344,10,-0.00191107,-2.03222,-0.113094,-0.52169,186.876,0.205825,
2,0,0,1,0,62272.4,0.202988,0.202629,-9.86284,32,0.013996,10,-0.0019985,-2.006,-0.125016,-0.471938,180.007,0.202629,
2,0,0,1,0,62272.4,0.199783,0.199444,-10.4271,32,0.0139554,10,-0.00207961,-1.98184,-0.136988,-0.430693,174.078,0.199444,
2,0,0,1,0,62272.4,0.196587,0.196232,-10.9686,32,0.0139125,10,-0.00215239,-1.95985,-0.149558,-0.394497,167.832,0.1962316,
2,0,0,1,0,62272.4,0.193382,0.193058,-11.5074,32,0.0138675,10,-0.0022216,-1.93902,-0.162255,-0.363626,162.255,0.193058,
2,0,0,1,0,62272.4,0.190186,0.189837,-12.0097,32,0.0138204,10,-0.00227989,-1.92047,-0.174218,-0.338655,157.905,0.189837,
2,0,0,1,0,62272.4,0.18699,0.186651,-12.5028,32,0.0137713,10,-0.00233365,-1.90299,-0.187688,-0.314352,152.839,0.186651,
2,0,0,1,0,62272.4,0.183783,0.183476,-12.9828,32,0.0137203,10,-0.00238203,-1.88663,-0.198632,-0.297031,150.052,0.183476,
2,0,0,1,0,62272.4,0.180587,0.180283,-13.4599,32,0.0136673,10,-0.0024266,-1.87096,-0.211645,-0.278769,145.977,0.1802831,
2,0,0,1,0,62272.4,0.17738,0.177066,-13.9261,32,0.0136125,10,-0.00246583,-1.85617,-0.224795,-0.262461,142.11,0.177066,
2,0,0,1,0,62272.4,0.174183,0.173818,-14.3761,32,0.0135559,10,-0.00249882,-1.84236,-0.234626,-0.251464,140.735,0.1738178,
2,0,0,1,0,62272.4,0.170987,0.170655,-14.8048,32,0.0134975,10,-0.00252651,-1.8296,-0.246845,-0.239017,137.982,0.170655,
2,0,0,1,0,62272.4,0.16778,0.167503,-15.2585,32,0.0134373,10,-0.00255585,-1.81649,-0.254688,-0.231656,137.773,0.1675031,
2,0,0,1,0,62272.4,0.164584,0.164258,-15.6933,32,0.0133753,10,-0.00257775,-1.80429,-0.261891,-0.225284,137.771,0.164258,
2,0,0,1,0,62272.4,0.161382,0.161045,-16.1358,32,0.0133116,10,-0.00259859,-1.79221,-0.272691,-0.216362,136.085,0.161045,
2,0,0,1,0,62272.5,0.158183,0.157859,-16.5677,32,0.0132462,10,-0.00261536,-1.78074,-0.278405,-0.211921,136.934,0.1578587,
2,0,0,1,0,62272.5,0.154987,0.154665,-17.0056,32,0.013179,10,-0.00263017,-1.76941,-0.281487,-0.209601,139.147,0.154665,
2,0,0,1,0,62272.5,0.151783,0.151422,-17.451,32,0.01311,10,-0.00264247,-1.75818,-0.283073,-0.208427,142.041,0.151422,
2,0,0,1,0,62272.5,0.148587,0.14825,-17.9162,32,0.0130393,10,-0.00265608,-1.74675,-0.282115,-0.209134,146.334,0.14825,
2,0,0,1,0,62272.5,0.145385,0.145044,-18.388,32,0.0129666,10,-0.00266706,-1.73547,-0.280429,-0.210392,151.073,0.145044,
2,0,0,1,0,62272.5,0.142183,0.14182,-18.8852,32,0.012892,10,-0.0026783,-1.72388,-0.277194,-0.212847,157.037,0.14182,
2,0,0,1,0,62272.5,0.138987,0.138648,-19.3808,32,0.0128154,10,-0.00268711,-1.71263,-0.271275,-0.217492,164.862,0.138648,
2,0,0,1,0,62272.5,0.13578,0.135432,-19.9291,32,0.0127368,10,-0.00269904,-1.70051,-0.264638,-0.222946,173.807,0.135432,
2,0,0,1,0,62272.5,0.132584,0.132258,-20.4958,32,0.0126559,10,-0.00271074,-1.68833,-0.255957,-0.230508,184.799,0.132258,
2,0,0,1,0,62272.5,0.129388,0.129034,-21.1076,32,0.0125726,10,-0.00272359,-1.67556,-0.249204,-0.236754,195.446,0.129034,
2,0,0,1,0,62272.5,0.12618,0.125831,-21.7494,32,0.0124868,10,-0.00273675,-1.66255,-0.24218,-0.243621,207.206,0.125831,
2,0,0,1,0,62272.5,0.122984,0.122661,-22.4252,32,0.0123984,10,-0.00275069,-1.64926,-0.235421,-0.250614,219.901,0.122661,
2,0,0,1,0,62272.5,0.119783,0.119475,-23.1446,32,0.0123072,10,-0.0027652,-1.63555,-0.230603,-0.255851,231.595,0.119475,
2,0,0,1,0,62272.5,0.116584,0.116257,-23.9172,32,0.012213,10,-0.00278054,-1.62129,-0.226395,-0.260607,243.522,0.116257,
2,0,0,1,0,62272.5,0.113387,0.113084,-24.7015,32,0.0121157,10,-0.00279335,-1.60728,-0.225346,-0.261819,252.609,0.113084,
2,0,0,1,0,62272.5,0.110183,0.109916,-25.5289,32,0.0120152,10,-0.00280603,-1.59297,-0.226068,-0.260983,260.159,0.109916,
2,0,0,1,0,62272.5,0.106987,0.106709,-26.3694,32,0.0119113,10,-0.00281385,-1.5789,-0.228403,-0.258315,265.833,0.106709,
2,0,0,1,0,62272.5,0.103785,0.103486,-27.2396,32,0.011804,10,-0.00281893,-1.5648,-0.233438,-0.252744,268.487,0.103486,
2,0,0,1,0,62272.5,0.100583,0.100262,-28.1102,32,0.0116932,10,-0.00281837,-1.55114,-0.238317,-0.247569,271.277,0.100262,
2,0,0,1,0,62272.5,0.0973873,0.0970507,-28.983,32,0.0115789,10,-0.00281282,-1.53786,-0.246877,-0.238985,269.938,0.0970507,
2,0,0,1,0,62272.5,0.0941801,0.0938526,-29.8571,32,0.0114612,10,-0.00280216,-1.52495,-0.255223,-0.231171,268.818,0.0938526,
2,0,0,1,0,62272.5,0.0909839,0.0906151,-30.714,32,0.0113399,10,-0.00278315,-1.51266,-0.264028,-0.223461,267.401,0.0906151,
2,0,0,1,0,62272.5,0.0877878,0.087471,-31.5485,32,0.0112153,10,-0.00275958,-1.50102,-0.276601,-0.213304,262.235,0.087471,
2,0,0,1,0,62272.5,0.0845806,0.0842569,-32.4041,32,0.0110873,10,-0.00273027,-1.4894,-0.290639,-0.203001,256.01,0.08425694,
2,0,0,1,0,62272.5,0.0813844,0.0810863,-33.2048,32,0.010956,10,-0.00269246,-1.4788,-0.305039,-0.193418,249.948,0.08108633,
2,0,0,1,0,62272.6,0.0781828,0.0778998,-33.9693,32,0.0108216,10,-0.0026462,-1.46891,-0.322143,-0.183148,242.501,0.0778998,
2,0,0,1,0,62272.6,0.0749839,0.0747546,-34.727,32,0.0106841,10,-0.002596,-1.45933,-0.338842,-0.174123,235.719,0.07475464,
2,0,0,1,0,62272.6,0.0717877,0.0715024,-35.497,32,0.0105436,10,-0.00253812,-1.44981,-0.356131,-0.16567,228.983,0.0715024,
2,0,0,1,0,62272.6,0.0685832,0.0683201,-36.2141,32,0.0104001,10,-0.00247415,-1.44112,-0.377287,-0.15638,220.464,0.0683201,
2,0,0,1,0,62272.6,0.0653871,0.065089,-36.9027,32,0.0102538,10,-0.00240196,-1.43294,-0.405668,-0.145439,208.986,0.065089,
2,0,0,1,0,62272.6,0.0621854,0.0619152,-37.5576,32,0.0101047,10,-0.00232539,-1.4253,-0.437138,-0.134969,197.342,0.0619152,
2,0,0,1,0,62272.6,0.0589837,0.0586958,-38.1734,32,0.00995321,10,-0.00224062,-1.41824,-0.463942,-0.127171,189.075,0.0586958,
2,0,0,1,0,62272.6,0.0557876,0.0555008,-38.7438,32,0.00979929,10,-0.00215032,-1.4118,-0.503282,-0.117231,176.958,0.0555008,
2,0,0,1,0,62272.6,0.0525804,0.0523292,-39.3153,32,0.00964311,10,-0.00205734,-1.40544,-0.540721,-0.109114,167.069,0.0523292,
2,0,0,1,0,62272.6,0.0493842,0.0491257,-39.8208,32,0.00948477,10,-0.00195622,-1.39989,-0.57383,-0.102818,159.512,0.0491257,
2,0,0,1,0,62272.6,0.0461881,0.0458925,-40.3125,32,0.00932444,10,-0.00185004,-1.39456,-0.627472,-0.0940281,147.718,0.0458925,
2,0,0,1,0,62272.6,0.0429808,0.0427495,-40.7778,32,0.00916221,10,-0.00174323,-1.38958,-0.663546,-0.0889163,141.309,0.04274945,
2,0,0,1,0,62272.6,0.0397847,0.0395141,-41.2083,32,0.00899819,10,-0.00162831,-1.38502,-0.705173,-0.0836674,134.431,0.0395141,
2,0,0,1,0,62272.6,0.036583,0.036282,-41.6357,32,0.00883245,10,-0.00151063,-1.38053,-0.75718,-0.0779207,126.46,0.036282,
2,0,0,1,0,62272.6,0.0333841,0.0330478,-42.0392,32,0.00866506,10,-0.0013893,-1.37635,-0.806886,-0.0731207,119.774,0.0330478,
2,0,0,1,0,62272.6,0.030188,0.0299026,-42.4024,32,0.00849612,10,-0.00126794,-1.37261,-0.884745,-0.0666859,110.188,0.0299026,
2,0,0,1,0,62272.6,0.0269835,0.0266843,-42.745,32,0.00832577,10,-0.00114062,-1.36911,-0.960965,-0.0613966,102.292,0.0266843,
2,0,0,1,0,62272.6,0.0237874,0.0234501,-43.0496,32,0.00815414,10,-0.00100952,-1.36603,-1.04845,-0.0562737,94.4509,0.0234501,
2,0,0,1,0,62272.6,0.0205857,0.0202413,-43.3492,32,0.00798131,10,-0.000877443,-1.36302,-1.1388,-0.051809,87.5583,0.0202413,
2,0,0,1,0,62272.6,0.017384,0.0170452,-43.6168,32,0.00780731,10,-0.000743457,-1.36035,-1.23563,-0.0477488,81.1867,0.0170452,
2,0,0,1,0,62272.6,0.0141878,0.0138587,-43.868,32,0.0076323,10,-0.000607952,-1.35785,-1.3838,-0.0426362,72.9071,0.0138587,
2,0,0,1,0,62272.6,0.0109806,0.010652,-44.0887,32,0.00745636,10,-0.000469633,-1.35567,-1.53521,-0.0384312,66.0492,0.010652,
2,0,0,1,0,62272.6,0.00778448,0.00740504,-44.2851,32,0.00727958,10,-0.000327933,-1.35374,-1.63466,-0.0360932,62.357,0.00740504,
2,0,0,1,0,62272.6,0.00458834,0.00427472,-44.4603,32,0.00710206,10,-0.000190055,-1.35203,-1.85326,-0.0318359,55.2177,0.00427472,
2,0,0,1,0,62272.6,0.0013811,0.000968372,-44.6718,32,0.00692379,10,-4.32589e-05,-1.34997,-2.0846,-0.0283028,49.2626,0.000968372,
2,0,0,1,0,62272.7,-0.00181504,-0.00219694,-44.7982,32,0.00674483,10,9.8419e-05,-1.34874,-2.47969,-0.0237933,41.5324,-0.002196942,
2,0,0,1,0,62272.7,-0.0050195,-0.00536332,-44.9141,32,0.00656541,10,0.000240888,-1.34762,-3.3072,-0.0178399,31.2412,-0.00536332,
2,0,0,1,0,62272.7,-0.00821564,-0.00859013,-44.9946,32,0.00638558,10,0.00038651,-1.34684,-3.98648,-0.0148,25.9709,-0.00859013,
2,0,0,1,0,62272.7,-0.0114118,-0.0118498,-45.0722,32,0.00620544,10,0.000534098,-1.34609,-5.36945,-0.0109881,19.3137,-0.0118498,
2,0,0,1,0,62272.7,-0.0146162,-0.0149536,-45.1295,32,0.006025,10,0.00067485,-1.34554,-7.36193,-0.0080142,14.1012,-0.0149536,
2,0,0,1,0,62272.7,-0.0178124,-0.0182229,-45.1624,32,0.00584439,10,0.000822989,-1.34522,-14.0175,-0.00420902,7.41153,-0.01822287,
2,0,0,1,0,62272.7,-0.0210196,-0.0213999,-45.1753,32,0.0056637,10,0.000966744,-1.3451,-157.745,-0.000374021,0.658811,-0.02139985,
2,0,0,1,0,62272.7,-0.0242158,-0.0245927,-45.1667,32,0.00548301,10,0.00111077,-1.34518,24.8764,0.00237173,-4.17781,-0.0245927,
2,0,0,1,0,62272.7,-0.0274119,-0.027775,-45.1379,32,0.00530239,10,0.00125371,-1.34546,11.0063,0.00536056,-9.43829,-0.027775,
2,0,0,1,0,62272.7,-0.0306191,-0.0310432,-45.1089,32,0.00512188,10,0.00140032,-1.34574,7.54703,0.00781765,-13.7533,-0.0310432,
2,0,0,1,0,62272.7,-0.0338153,-0.0342032,-45.0544,32,0.00494155,10,0.00154101,-1.34626,5.66855,0.0104083,-18.2875,-0.0342032,
2,0,0,1,0,62272.7,-0.037017,-0.0374332,-44.9901,32,0.00476147,10,0.00168412,-1.34688,4.64901,0.0126909,-22.2712,-0.0374332,
2,0,0,1,0,62272.7,-0.0402187,-0.0405932,-44.9035,32,0.00458168,10,0.00182278,-1.34772,4.06379,0.0145185,-25.4359,-0.0405932,
2,0,0,1,0,62272.7,-0.0434148,-0.0438169,-44.8244,32,0.00440224,10,0.00196406,-1.34849,3.66112,0.0161153,-28.1823,-0.0438169,
2,0,0,1,0,62272.7,-0.0466193,-0.0469991,-44.7289,32,0.00422315,10,0.00210222,-1.34941,3.37011,0.0175068,-30.5458,-0.0469991,
2,0,0,1,0,62272.7,-0.0498154,-0.0501931,-44.6305,32,0.00404445,10,0.00224014,-1.35037,3.13944,0.0187932,-32.7223,-0.0501931,
2,0,0,1,0,62272.7,-0.0530115,-0.0534093,-44.512,32,0.00386617,10,0.00237736,-1.35152,2.99954,0.0196697,-34.1681,-0.0534093,
2,0,0,1,0,62272.7,-0.056216,-0.056599,-44.4061,32,0.00368833,10,0.00251334,-1.35256,3.00577,0.0196289,-34.0219,-0.056599,
2,0,0,1,0,62272.7,-0.0594121,-0.0597792,-44.2923,32,0.00351093,10,0.00264775,-1.35367,3.00503,0.0196337,-33.9402,-0.0597792,
2,0,0,1,0,62272.7,-0.0626194,-0.063024,-44.1939,32,0.00333398,10,0.00278528,-1.35464,2.94892,0.0200073,-34.5006,-0.063024,
2,0,0,1,0,62272.7,-0.0658155,-0.0662211,-44.0772,32,0.00315743,10,0.00291884,-1.35579,3.05598,0.0193064,-33.2121,-0.0662211,
2,0,0,1,0,62272.7,-0.0690117,-0.0694045,-43.9643,32,0.00298135,10,0.00305132,-1.3569,3.08845,0.0191034,-32.7926,-0.0694045,
2,0,0,1,0,62272.7,-0.0722189,-0.0726101,-43.8661,32,0.00280569,10,0.00318512,-1.35787,3.21449,0.0183544,-31.4294,-0.07261008,
2,0,0,1,0,62272.7,-0.075415,-0.0757648,-43.7761,32,0.00263042,10,0.00331669,-1.35876,3.54018,0.0166658,-28.4761,-0.07576479,
2,0,0,1,0,62272.7,-0.0786167,-0.0789704,-43.6765,32,0.00245553,10,0.00344915,-1.35975,3.60599,0.0163617,-27.8963,-0.07897041,
2,0,0,1,0,62272.8,-0.0818184,-0.0822227,-43.5993,32,0.00228099,10,0.00358485,-1.36052,3.94226,0.014966,-25.4728,-0.0822227,
2,0,0,1,0,62272.8,-0.0850145,-0.0854198,-43.5088,32,0.0021068,10,0.00371651,-1.36142,4.30541,0.0137037,-23.2788,-0.0854198,
2,0,0,1,0,62272.8,-0.088219,-0.0886307,-43.4484,32,0.0019329,10,0.00385086,-1.36203,4.71205,0.0125211,-21.239,-0.0886307,
2,0,0,1,0,62272.8,-0.0914152,-0.0917875,-43.3781,32,0.00175925,10,0.00398157,-1.36273,5.57523,0.0105825,-17.922,-0.0917875,
2,0,0,1,0,62272.8,-0.0946141,-0.0949698,-43.3286,32,0.00158585,10,0.00411491,-1.36323,6.29053,0.00937917,-15.8667,-0.0949698,
2,0,0,1,0,62272.8,-0.0978158,-0.098186,-43.28,32,0.00141263,10,0.00424949,-1.36371,8.11962,0.00726635,-12.279,-0.098186,
2,0,0,1,0,62272.8,-0.101012,-0.101396,-43.2459,32,0.00123958,10,0.00438495,-1.36406,10.635,0.0055477,-9.36801,-0.1013959,
2,0,0,1,0,62272.8,-0.104219,-0.104596,-43.2208,32,0.00106665,10,0.00452073,-1.36431,15.9822,0.0036916,-6.22966,-0.104596,
2,0,0,1,0,62272.8,-0.107415,-0.107809,-43.2083,32,0.000893796,10,0.00465825,-1.36443,53.7762,0.00109714,-1.85119,-0.107809,
2,0,0,1,0,62272.8,-0.110611,-0.110988,-43.2002,32,0.000720981,10,0.00479472,-1.36451,-248.395,-0.000237525,0.400674,-0.110988,
2,0,0,1,0,62272.8,-0.113819,-0.114205,-43.2221,32,0.000548116,10,0.00493617,-1.36429,-25.3094,-0.00233115,3.93327,-0.114205,
2,0,0,1,0,62272.8,-0.117015,-0.117388,-43.226,32,0.00037522,10,0.0050742,-1.36426,-12.4317,-0.00474592,8.01097,-0.117388,
2,0,0,1,0,62272.8,-0.120216,-0.120574,-43.2585,32,0.000202256,10,0.00521587,-1.36393,-9.43532,-0.0062531,10.5644,-0.120574,
2,0,0,1,0,62272.8,-0.123418,-0.123802,-43.3029,32,2.91282e-05,10,0.005361,-1.36348,-6.90908,-0.00853948,14.4366,-0.1238023,
2,0,0,1,0,62272.8,-0.126614,-0.126985,-43.3572,32,-0.000144172,10,0.00550569,-1.36294,-5.7764,-0.010214,17.2879,-0.126985,
2,0,0,1,0,62272.8,-0.129819,-0.130176,-43.4106,32,-0.000317713,10,0.00565103,-1.3624,-5.03488,-0.0117183,19.8616,-0.1301764,
2,0,0,1,0,62272.8,-0.133015,-0.133427,-43.4807,32,-0.000491495,10,0.00580148,-1.3617,-4.19723,-0.0140569,23.8691,-0.133427,
2,0,0,1,0,62272.8,-0.136214,-0.136602,-43.5571,32,-0.000665575,10,0.00595001,-1.36094,-3.75937,-0.0156941,26.6934,-0.136602,
2,0,0,1,0,62272.8,-0.139416,-0.139753,-43.6619,32,-0.000840024,10,0.00610188,-1.3599,-3.37076,-0.0175035,29.8319,-0.139753,
2,0,0,1,0,62272.8,-0.142612,-0.143007,-43.7531,32,-0.00101486,10,0.00625701,-1.35899,-3.17569,-0.0185786,31.7285,-0.143007,
2,0,0,1,0,62272.8,-0.145819,-0.146202,-43.8618,32,-0.00119009,10,0.0064127,-1.35791,-3.06105,-0.0192744,33.0023,-0.146202,
2,0,0,1,0,62272.8,-0.149015,-0.149373,-43.9623,32,-0.00136576,10,0.00656678,-1.35692,-2.8289,-0.0208561,35.7986,-0.149373,
2,0,0,1,0,62272.8,-0.152211,-0.152574,-44.0851,32,-0.00154186,10,0.00672625,-1.35571,-2.76716,-0.0213215,36.693,-0.152574,
2,0,0,1,0,62272.8,-0.155418,-0.15578,-44.2103,32,-0.00171847,10,0.00688708,-1.35448,-2.64326,-0.0223209,38.5103,-0.15578,
2,0,0,1,0,62272.8,-0.158615,-0.159001,-44.3315,32,-0.00189556,10,0.00704877,-1.35329,-2.60744,-0.0226275,39.1514,-0.159001,
2,0,0,1,0,62272.9,-0.161816,-0.162157,-44.4546,32,-0.00207314,10,0.00720864,-1.35208,-2.67381,-0.0220659,38.2827,-0.162157,
2,0,0,1,0,62272.9,-0.165018,-0.165365,-44.5858,32,-0.00225123,10,0.00737293,-1.3508,-2.60201,-0.0226748,39.4526,-0.165365,
2,0,0,1,0,62272.9,-0.168214,-0.168566,-44.6998,32,-0.00242981,10,0.00753488,-1.34969,-2.70923,-0.0217774,37.9887,-0.168566,
2,0,0,1,0,62272.9,-0.171419,-0.171775,-44.8354,32,-0.0026089,10,0.00770161,-1.34838,-2.77622,-0.0212519,37.1762,-0.171775,
2,0,0,1,0,62272.9,-0.174615,-0.174976,-44.9416,32,-0.00278847,10,0.00786373,-1.34735,-2.86375,-0.0206024,36.1263,-0.174976,
2,0,0,1,0,62272.9,-0.177814,-0.178156,-45.0613,32,-0.00296849,10,0.00802793,-1.3462,-3.06041,-0.0192784,33.8961,-0.178156,
2,0,0,1,0,62272.9,-0.181015,-0.181369,-45.1623,32,-0.00314897,10,0.00819103,-1.34522,-3.06212,-0.0192677,33.9574,-0.181369,
2,0,0,1,0,62272.9,-0.184211,-0.18458,-45.2694,32,-0.00332986,10,0.00835581,-1.34419,-3.27251,-0.0180289,31.8491,-0.18458,
2,0,0,1,0,62272.9,-0.187419,-0.187776,-45.3762,32,-0.00351117,10,0.00852055,-1.34317,-3.49114,-0.0168999,29.913,-0.187776,
2,0,0,1,0,62272.9,-0.190615,-0.190964,-45.4693,32,-0.00369287,10,0.00868301,-1.34228,-3.67643,-0.0160482,28.4665,-0.190964,
2,0,0,1,0,62272.9,-0.193811,-0.194179,-45.5455,32,-0.00387492,10,0.008844,-1.34155,-4.32583,-0.013639,24.2321,-0.1941794,
2,0,0,1,0,62272.9,-0.197018,-0.197366,-45.6334,32,-0.0040573,10,0.00900648,-1.34072,-7.32213,-0.00805777,14.32,-0.197366,
2,0,0,1,0,62272.9,-0.199647,-0.200022,-45.673,32,-0.00420799,10,0.00913559,-1.34034,0.257243,0.229355,-398.268,-0.200022,
2,0,0,1,0,62272.9,-0.200134,-0.200437,-45.6049,32,-0.00423539,10,0.00914091,-1.34099,-0.0165048,-3.57472,5888.87,-0.2004368,
2,0,0,1,1,62272.9,-0.198935,-0.199418,-43.4592,32,-0.00430153,10,0.00866655,-1.36192,-0.0644736,-0.915103,1441.53,-0.1994178,
2,0,0,1,1,62272.9,-0.195739,-0.196233,-38.9642,32,-0.0044655,10,0.00764607,-1.40933,-0.0726737,-0.811848,1226.01,-0.196233,
2,0,0,1,1,62272.9,-0.192535,-0.192952,-35.4826,32,-0.00461385,10,0.00684645,-1.44999,-0.0789262,-0.747533,1057.7,-0.1929525,
2,0,0,1,1,62272.9,-0.189339,-0.189765,-32.5211,32,-0.00474945,10,0.00617136,-1.48784,-0.085243,-0.692139,888.897,-0.1897649,
2,0,0,1,1,62272.9,-0.186137,-0.186593,-29.8947,32,-0.00487391,10,0.00557815,-1.52441,-0.0876416,-0.673196,791.609,-0.186593,
2,0,0,1,1,62272.9,-0.182935,-0.183352,-27.5135,32,-0.00498843,10,0.00504465,-1.56045,-0.0884075,-0.667364,720.376,-0.183352,
2,0,0,1,1,62272.9,-0.179739,-0.180147,-25.3456,32,-0.00509387,10,0.00456594,-1.5961,-0.0886162,-0.665792,660.402,-0.180147,
2,0,0,1,1,62272.9,-0.176532,-0.176974,-23.307,32,-0.00519093,10,0.00412474,-1.63251,-0.0872492,-0.676224,616.061,-0.176974,
2,0,0,1,1,62272.9,-0.173336,-0.173743,-21.4085,32,-0.00528014,10,0.00371958,-1.66941,-0.0848507,-0.695339,581.086,-0.1737432,
2,0,0,1,1,62272.9,-0.17014,-0.170535,-19.618,32,-0.00536199,10,0.00334557,-1.70734,-0.0824603,-0.715496,547.209,-0.170535,
2,0,0,1,1,62272.9,-0.166932,-0.167351,-17.9101,32,-0.00543683,10,0.00299727,-1.7469,-0.0790578,-0.746289,520.569,-0.167351,
2,0,0,1,1,62272.9,-0.163736,-0.164174,-16.3027,32,-0.00550509,10,0.00267647,-1.78774,-0.075119,-0.78542,497.595,-0.164174,
2,0,0,1,1,62272.9,-0.160532,-0.160954,-14.7507,32,-0.00556702,10,0.00237417,-1.83119,-0.0712497,-0.828074,474.005,-0.160954,
2,0,0,1,1,62273,-0.157336,-0.157763,-13.2625,32,-0.00562289,10,0.00209232,-1.87738,-0.0664613,-0.887734,456.166,-0.157763,
2,0,0,1,1,62273,-0.154139,-0.154549,-11.8417,32,-0.00567294,10,0.00183013,-1.92658,-0.0614038,-0.960853,439.496,-0.154549,
2,0,0,1,1,62273,-0.150935,-0.151369,-10.4612,32,-0.00571738,10,0.0015835,-1.98042,-0.0560782,-1.0521,423.567,-0.151369,
2,0,0,1,1,62273,-0.147739,-0.148179,-9.13624,32,-0.00575643,10,0.0013538,-2.03923,-0.0504458,-1.16957,409.252,-0.148179,
2,0,0,1,1,62273,-0.144532,-0.144965,-7.84163,32,-0.00579025,10,0.00113676,-2.10559,-0.0443466,-1.33043,396.859,-0.144965,
2,0,0,1,1,62273,-0.141335,-0.141737,-6.59847,32,-0.00581899,10,0.000935248,-2.18056,-0.0380069,-1.55235,384.836,-0.141737,
2,0,0,1,1,62273,-0.138139,-0.138574,-5.38348,32,-0.00584282,10,0.000746009,-2.26894,-0.031361,-1.88132,373.084,-0.138574,
2,0,0,1,1,62273,-0.134932,-0.135354,-4.20088,32,-0.00586184,10,0.000568608,-2.37666,-0.0240499,-2.45323,364.857,-0.135354,
2,0,0,1,1,62273,-0.131736,-0.132149,-3.06016,32,-0.00587625,10,0.000404396,-2.51426,-0.0158574,-3.72066,355.444,-0.132149,
2,0,0,1,1,62273,-0.12854,-0.128988,-1.94682,32,-0.00588613,10,0.000251116,-2.71067,-0.00995125,-5.9289,346.283,-0.128988,
2,0,0,1,1,62273,-0.125333,-0.125797,-0.842032,32,-0.00589159,10,0.000105925,-3.07467,-0.0333883,-1.76709,339.376,-0.125797,
2,0,0,1,1,62273,-0.122136,-0.12259,0.219117,32,-0.00589273,10,-2.68616e-05,-3.65932,0.186819,0.315813,329.354,-0.12259,
2,1,0,1,1,62273,-0.118932,-0.119391,1.26952,32,-0.00588965,10,-0.00015157,-2.89636,0.0217222,2.71611,321.33,-0.119391,
2,1,0,1,1,62273,-0.115736,-0.116153,2.2805,32,-0.00588244,10,-0.000264885,-2.64197,0.00992696,5.94341,316.004,-0.116153,
2,1,0,1,1,62273,-0.11254,-0.11297,3.27956,32,-0.00587123,10,-0.000370493,-2.48418,0.0208628,2.828,308.189,-0.11297,
2,1,0,1,1,62273,-0.109335,-0.109794,4.26269,32,-0.00585602,10,-0.000468019,-2.37032,0.0293744,2.00855,306.401,-0.109794,
2,1,0,1,1,62273,-0.106139,-0.10659,5.21472,32,-0.00583696,10,-0.000555836,-2.28277,0.0381447,1.54674,298.306,-0.10659,
2,1,0,1,1,62273,-0.102932,-0.10345,6.17259,32,-0.00581409,10,-0.000638553,-2.20953,0.0468802,1.25853,291.547,-0.1034499,
2,1,0,1,1,62273,-0.0997357,-0.100202,7.08844,32,-0.00578748,10,-0.000710275,-2.14945,0.0547756,1.07712,290.023,-0.100202,
2,1,0,1,1,62273,-0.0965395,-0.0969814,7.99825,32,-0.00575719,10,-0.000775681,-2.09701,0.0643231,0.917245,280.576,-0.0969814,
2,1,0,1,1,62273,-0.0933323,-0.0938394,8.91261,32,-0.00572329,10,-0.000836354,-2.05,0.0723779,0.815166,278.385,-0.0938394,
2,1,0,1,1,62273,-0.0901362,-0.0905967,9.77889,32,-0.0056858,10,-0.000885935,-2.00971,0.081068,0.727784,273.805,-0.0905967,
2,1,0,1,1,62273,-0.0869345,-0.0873932,10.6542,32,-0.00564484,10,-0.000931102,-1.97248,0.0914329,0.645282,265.067,-0.0873932,
2,1,0,1,1,62273,-0.0837328,-0.0842205,11.4923,32,-0.00560046,10,-0.000967883,-1.93959,0.0995536,0.592646,263.269,-0.0842205,
2,1,0,1,1,62273,-0.0805366,-0.0809767,12.3221,32,-0.00555275,10,-0.000997803,-1.90932,0.109518,0.538725,257.171,-0.0809767,
2,1,0,1,1,62273.1,-0.0773322,-0.0777817,13.1527,32,-0.00550172,10,-0.00102304,-1.88099,0.119062,0.495539,252.365,-0.0777817,
2,1,0,1,1,62273.1,-0.074136,-0.0745464,13.958,32,-0.00544742,10,-0.00104052,-1.85518,0.1284,0.459501,248.473,-0.0745464,
2,1,0,1,1,62273.1,-0.0709371,-0.0713471,14.741,32,-0.00538993,10,-0.00105173,-1.83147,0.139236,0.42374,242.302,-0.0713471,
2,1,0,1,1,62273.1,-0.0677354,-0.0681405,15.5115,32,-0.00532933,10,-0.00105696,-1.80934,0.147949,0.398786,240.297,-0.0681405,
2,1,0,1,1,62273.1,-0.0645393,-0.064954,16.2609,32,-0.00526569,10,-0.00105621,-1.78886,0.158701,0.371768,234.986,-0.064954,
2,1,0,1,1,62273.1,-0.061332,-0.0617907,17.0231,32,-0.00519905,10,-0.00105187,-1.76896,0.168817,0.34949,231.114,-0.0617907,
2,1,0,1,1,62273.1,-0.0581359,-0.0585692,17.7437,32,-0.00512943,10,-0.00103923,-1.75096,0.179423,0.328832,226.79,-0.0585692,
2,1,0,1,1,62273.1,-0.0549398,-0.05537,18.463,32,-0.00505693,10,-0.0010223,-1.7337,0.191829,0.307565,220.874,-0.05537,
2,1,0,1,1,62273.1,-0.0517325,-0.0521591,19.1626,32,-0.00498159,10,-0.000999504,-1.71755,0.202032,0.292033,217.71,-0.0521591,
2,1,0,1,1,62273.1,-0.0485364,-0.0489853,19.8515,32,-0.00490349,10,-0.000972433,-1.70221,0.214722,0.274774,212.296,-0.04898528,
2,1,0,1,1,62273.1,-0.0453347,-0.0457786,20.5283,32,-0.00482267,10,-0.000939758,-1.68765,0.226092,0.260956,208.449,-0.0457786,
2,1,0,1,1,62273.1,-0.042133,-0.0425051,21.1941,32,-0.00473916,10,-0.00090086,-1.67378,0.238732,0.247139,203.843,-0.04250513,
2,1,0,1,1,62273.1,-0.0389369,-0.0393589,21.8308,32,-0.00465304,10,-0.000859237,-1.66093,0.252757,0.233426,198.409,-0.0393589,
2,1,0,1,1,62273.1,-0.0357324,-0.0361331,22.4714,32,-0.00456438,10,-0.000811961,-1.64837,0.26371,0.223731,195.747,-0.0361331,
2,1,0,1,1,62273.1,-0.0325363,-0.0329148,23.0806,32,-0.00447321,10,-0.000759694,-1.63675,0.277288,0.212775,191.273,-0.03291481,
2,1,0,1,1,62273.1,-0.0293374,-0.0297601,23.6889,32,-0.00437961,10,-0.000704985,-1.62545,0.291363,0.202497,186.859,-0.0297601,
2,1,0,1,1,62273.1,-0.0261357,-0.0265513,24.2806,32,-0.00428359,10,-0.000644681,-1.61474,0.303974,0.194096,183.554,-0.0265513,
2,1,0,1,1,62273.1,-0.0229395,-0.0233605,24.858,32,-0.00418525,10,-0.000580697,-1.60453,0.320947,0.183831,177.991,-0.0233605,
2,1,0,1,1,62273.1,-0.0197323,-0.0201677,25.4204,32,-0.00408463,10,-0.00051267,-1.59482,0.336023,0.175583,173.868,-0.0201677,
2,1,0,1,1,62273.1,-0.0165361,-0.0169758,25.9644,32,-0.0039818,10,-0.000440768,-1.58562,0.351873,0.167674,169.673,-0.0169758,
2,1,0,1,1,62273.1,-0.01334,-0.0137989,26.4978,32,-0.00387682,10,-0.000365639,-1.57679,0.370655,0.159178,164.372,-0.0137989,
2,1,0,1,1,62273.1,-0.0101328,-0.0105604,27.0299,32,-0.0037697,10,-0.000285446,-1.56816,0.386745,0.152555,160.636,-0.0105604,
2,1,0,1,1,62273.1,-0.00693663,-0.00735476,27.5265,32,-0.00366053,10,-0.000202451,-1.56025,0.405861,0.14537,155.83,-0.00735476,
2,1,0,1,1,62273.1,-0.00373494,-0.00416082,28.023,32,-0.00354938,10,-0.000116598,-1.55249, , , ,-0.00416082,
2,1,0,1,1,62273.1,-0.000774629,-0.00120811,28.4598,32,-0.00344486,10,-3.43827e-05,-1.54577, , , ,-0.00120811,
2,1,0,0,1,62273.1,-0.000125413,-0.000592546,28.5685,32,-0.00342206,10,-1.69281e-05,-1.54411, , , ,-0.000592546,