File: Figure_codes/Fig_3-5/rawdata_trumpetplot_data/after 10th/20221101_1-115_003_TrumpetPlot_ParaChange_from10_every3_10_CV_C01_29.csv
mode,ox/red,error,control changes,counter inc.,time/s,control/V,Ewe/V,<I>/mA,cycle number,(Q-Qo)/C,I Range,P/W,log(|I|),Tafel slope mV/dec,alpha_eff,dI/d(E-IR),E-IR/V,
2,1,0,0,0,58324.3,-2.44065e-05,-0.000325324,5.10271,30,0.0000000E+000,10,-1.66003e-06,-2.2922, , , ,-0.000325324,
2,1,0,1,0,58324.3,0.00179726,0.00140049,5.76948,30,4.83356e-05,10,8.08009e-06,-2.23886, , , ,0.00140049,
2,1,0,1,0,58324.3,0.00379485,0.00341181,6.28846,30,0.000108901,10,2.14551e-05,-2.20146,0.064507,0.91463,221.478,0.00341181,
2,1,0,1,0,58324.3,0.00579244,0.00542712,6.66129,30,0.000173726,10,3.61516e-05,-2.17644,0.0859611,0.686357,177.776,0.00542712,
2,1,0,1,0,58324.3,0.00779002,0.00740186,6.99779,30,0.000242135,10,5.17967e-05,-2.15504,0.102429,0.576011,156.68,0.00740186,
2,1,0,1,0,58324.3,0.00977853,0.00942483,7.28765,30,0.000312917,10,6.86849e-05,-2.13741,0.121074,0.487305,138.267,0.00942483,
2,1,0,1,0,58324.4,0.0117761,0.0113943,7.54981,30,0.000387175,10,8.60248e-05,-2.12206,0.14281,0.413136,121.368,0.01139429,
2,1,0,1,0,58324.4,0.0137737,0.0134193,7.77245,30,0.000463783,10,0.000104301,-2.10944,0.162503,0.363069,110.078,0.0134193,
2,1,0,1,0,58324.4,0.0157713,0.0154087,7.99171,30,0.00054264,10,0.000123142,-2.09736,0.181474,0.325115,101.141,0.0154087,
2,1,0,1,0,58324.4,0.017778,0.0173834,8.17339,30,0.000623513,10,0.000142081,-2.0876,0.206738,0.285385,91.0033,0.0173834,
2,1,0,1,0,58324.4,0.0197755,0.0193728,8.35246,30,0.0007062,10,0.00016181,-2.07819,0.230412,0.256063,83.3416,0.0193728,
2,1,0,1,0,58324.4,0.0217731,0.0214021,8.50831,30,0.000790518,10,0.000182096,-2.07016,0.251881,0.234237,77.7898,0.0214021,
2,1,0,1,0,58324.4,0.0237707,0.0234349,8.66845,30,0.000876458,10,0.000203144,-2.06206,0.269962,0.218549,73.8225,0.0234349,
2,1,0,1,0,58324.4,0.0257774,0.0254035,8.80371,30,0.000963848,10,0.000223645,-2.05533,0.293702,0.200884,69.0365,0.0254035,
2,1,0,1,0,58324.4,0.027775,0.0274354,8.94463,30,0.00105266,10,0.0002454,-2.04844,0.310376,0.190092,66.2901,0.0274354,
2,1,0,1,0,58324.4,0.0297726,0.0294006,9.06867,30,0.00114274,10,0.000266624,-2.04246,0.331332,0.178069,63.0227,0.0294006,
2,1,0,1,0,58324.5,0.0317701,0.0313909,9.19391,30,0.00123412,10,0.000288605,-2.0365,0.335507,0.175853,63.0995,0.0313909,
2,1,0,1,0,58324.5,0.0337587,0.0333964,9.32081,30,0.00132574,10,0.000311281,-2.03055,0.352209,0.167514,60.8979,0.0333964,
2,1,0,1,0,58324.5,0.0357562,0.0353878,9.43732,30,0.00141955,10,0.000333966,-2.02515,0.38801,0.152058,55.9717,0.0353878,
2,1,0,1,0,58324.5,0.0377538,0.0373793,9.54374,30,0.00151446,10,0.000356738,-2.02028,0.386984,0.152461,56.8261,0.0373793,
2,1,0,1,0,58324.5,0.0397514,0.0393866,9.66456,30,0.00161049,10,0.000380654,-2.01482,0.374673,0.157471,59.3791,0.0393866,
2,1,0,1,0,58324.5,0.0417399,0.0413813,9.78137,30,0.0017067,10,0.000404766,-2.0096,0.396635,0.148751,56.7635,0.0413813,
2,1,0,1,0,58324.5,0.0437375,0.043395,9.89209,30,0.00180508,10,0.000429268,-2.00471,0.420635,0.140264,54.126,0.043395,
2,1,0,1,0,58324.5,0.0457351,0.0453246,9.99481,30,0.00190447,10,0.000453011,-2.00023,0.415372,0.142041,55.4378,0.0453246,
2,1,0,1,0,58324.5,0.0477327,0.0473253,10.11,30,0.00200505,10,0.000478457,-1.99525,0.407248,0.144875,57.1629,0.0473253,
2,1,0,1,0,58324.5,0.0497393,0.0493754,10.2264,30,0.00210672,10,0.000504931,-1.99028,0.4165,0.141657,56.5187,0.0493754,
2,1,0,1,0,58324.6,0.0517369,0.051351,10.3375,30,0.00220955,10,0.000530841,-1.98558,0.427307,0.138074,55.7036,0.051351,
2,1,0,1,0,58324.6,0.0537345,0.0533734,10.4491,30,0.00231348,10,0.000557702,-1.98092,0.41964,0.140597,57.361,0.0533734,
2,1,0,1,0,58324.6,0.0557321,0.0554244,10.5712,30,0.0024186,10,0.0005859,-1.97588,0.431882,0.136611,56.2966,0.0554244,
2,1,0,1,0,58324.6,0.0577297,0.0573002,10.6701,30,0.00252479,10,0.0006114,-1.97183,0.431769,0.136647,56.9779,0.0573002,
2,1,0,1,0,58324.6,0.0597364,0.0594067,10.7981,30,0.0026322,10,0.000641477,-1.96665,0.425477,0.138668,58.3863,0.0594067,
2,1,0,1,0,58324.6,0.0617339,0.0613788,10.9083,30,0.00274071,10,0.000669536,-1.96224,0.432504,0.136415,58.0965,0.06137877,
2,1,0,1,0,58324.6,0.0637315,0.0633604,11.0278,30,0.0028504,10,0.000698722,-1.95751,0.442083,0.133459,57.4033,0.0633604,
2,1,0,1,0,58324.6,0.0657291,0.0653238,11.1347,30,0.00296118,10,0.000727362,-1.95332,0.421976,0.139818,60.8303,0.0653238,
2,1,0,1,0,58324.6,0.0677176,0.0673241,11.2689,30,0.00307215,10,0.000758666,-1.94812,0.435438,0.135496,59.5054,0.0673241,
2,1,0,1,0,58324.6,0.0697152,0.0693124,11.3721,30,0.00318536,10,0.000788225,-1.94416,0.452569,0.130367,57.9219,0.0693124,
2,1,0,1,0,58324.7,0.0717128,0.0713285,11.5008,30,0.00329975,10,0.000820335,-1.93927,0.431888,0.13661,61.2814,0.0713285,
2,1,0,1,0,58324.7,0.0737104,0.0733175,11.6175,30,0.00341533,10,0.000851767,-1.93489,0.438034,0.134693,61.099,0.0733175,
2,1,0,1,0,58324.7,0.0756989,0.075349,11.7465,30,0.00353101,10,0.000885083,-1.93009,0.458841,0.128585,58.8813,0.075349,
2,1,0,1,0,58324.7,0.0776965,0.0772672,11.8501,30,0.00364898,10,0.000915622,-1.92628,0.471993,0.125002,57.8603,0.0772672,
2,1,0,1,0,58324.7,0.0796941,0.0793018,11.9752,30,0.00376816,10,0.000949652,-1.92172,0.479408,0.123068,57.4754,0.07930176,
2,1,0,1,0,58324.7,0.0816916,0.0813363,12.0839,30,0.00388845,10,0.000982863,-1.91779,0.492665,0.119757,56.4993,0.08133629,
2,1,0,1,0,58324.7,0.0836983,0.0833326,12.2029,30,0.00400991,10,0.0010169,-1.91354,0.504789,0.116881,55.624,0.08333265,
2,1,0,1,0,58324.7,0.0856959,0.085316,12.3053,30,0.00413249,10,0.00104984,-1.90991,0.499658,0.118081,56.7556,0.085316,
2,1,0,1,0,58324.7,0.0876935,0.0873262,12.4296,30,0.00425617,10,0.00108543,-1.90554,0.519701,0.113527,55.0024,0.0873262,
2,1,0,1,0,58324.7,0.0896911,0.0892879,12.5238,30,0.00438095,10,0.00111822,-1.90226,0.501927,0.117547,57.5448,0.0892879,
2,1,0,1,0,58324.8,0.0916977,0.0913103,12.6588,30,0.00450692,10,0.00115588,-1.89761,0.491011,0.12016,59.2888,0.09131027,
2,1,0,1,0,58324.8,0.0936953,0.0933205,12.7629,30,0.00463404,10,0.00119104,-1.89405,0.554615,0.10638,52.9937,0.0933205,
2,1,0,1,0,58324.8,0.0956929,0.0953056,12.8706,30,0.00476224,10,0.00122664,-1.8904,0.572702,0.10302,51.7309,0.0953056,
2,1,0,1,0,58324.8,0.0976905,0.097341,12.9708,30,0.00489144,10,0.0012626,-1.88703,0.531882,0.110927,56.2041,0.097341,
2,1,0,1,0,58324.8,0.099679,0.0993105,13.0956,30,0.00502047,10,0.00130053,-1.88287,0.558757,0.105592,53.8914,0.0993105,
2,1,0,1,0,58324.8,0.101677,0.101312,13.1849,30,0.00515187,10,0.00133579,-1.87992,0.582577,0.101274,52.1711,0.101312,
2,1,0,1,0,58324.8,0.103674,0.103314,13.3045,30,0.00528435,10,0.00137454,-1.876,0.534498,0.110384,57.2898,0.103314,
2,1,0,1,0,58324.8,0.105672,0.105297,13.4131,30,0.00541791,10,0.00141236,-1.87247,0.513083,0.114991,60.2441,0.105297,
2,1,0,1,0,58324.8,0.107656,0.107298,13.5445,30,0.00555135,10,0.00145329,-1.86824,0.510367,0.115603,61.0611,0.107298,
2,1,0,1,0,58324.8,0.109658,0.109273,13.6559,30,0.00568735,10,0.00149223,-1.86468,0.497895,0.118499,63.2206,0.109273,
2,1,0,1,0,58324.9,0.111655,0.111292,13.797,30,0.00582465,10,0.0015355,-1.86021,0.475056,0.124196,66.8414,0.111292,
2,1,0,1,0,58324.9,0.113653,0.113308,13.9256,30,0.00596325,10,0.00157788,-1.85619,0.463448,0.127307,69.2348,0.113308,
2,1,0,1,0,58324.9,0.115651,0.115293,14.0741,30,0.00610326,10,0.00162265,-1.85158,0.4228,0.139546,76.6669,0.1152935,
2,1,0,1,0,58324.9,0.117657,0.117286,14.2306,30,0.00624481,10,0.00166904,-1.84678,0.410917,0.143581,79.7505,0.117286,
2,1,0,1,0,58324.9,0.119655,0.119274,14.3915,30,0.00638796,10,0.00171654,-1.84189,0.421546,0.139961,78.5831,0.119274,
2,1,0,1,0,58324.9,0.121652,0.121271,14.5438,30,0.00653264,10,0.00176374,-1.83732,0.40633,0.145202,82.4846,0.1212713,
2,1,0,1,0,58324.9,0.12365,0.123273,14.7214,30,0.00667901,10,0.00181474,-1.83205,0.385836,0.152915,87.837,0.123273,
2,1,0,1,0,58324.9,0.125657,0.125266,14.8947,30,0.00682712,10,0.00186579,-1.82697,0.403326,0.146284,85.0255,0.125266,
2,1,0,1,0,58324.9,0.127654,0.127332,15.0665,30,0.00697698,10,0.00191846,-1.82199,0.410113,0.143863,84.5666,0.127332,
2,1,0,1,0,58324.9,0.129652,0.129242,15.2309,30,0.00712849,10,0.00196847,-1.81727,0.397754,0.148333,88.2251,0.129242,
2,1,0,1,0,58325,0.131649,0.131284,15.4152,30,0.00728181,10,0.00202377,-1.81205,0.412268,0.143111,86.0231,0.131284,
2,1,0,1,0,58325,0.133638,0.133236,15.5745,30,0.00743528,10,0.00207508,-1.80759,0.418253,0.141063,85.789,0.1332358,
2,1,0,1,0,58325,0.135636,0.135214,15.7523,30,0.00759196,10,0.00212992,-1.80266,0.444283,0.132798,81.5664,0.1352137,
2,1,0,1,0,58325,0.137633,0.137265,15.9031,30,0.00775023,10,0.00218294,-1.79852,0.46966,0.125623,77.9934,0.1372648,
2,1,0,1,0,58325,0.139631,0.13923,16.0655,30,0.00791011,10,0.0022368,-1.79411,0.483137,0.122118,76.5202,0.13923,
2,1,0,1,0,58325,0.141619,0.141268,16.2094,30,0.00806986,10,0.00228987,-1.79023,0.512365,0.115152,72.8512,0.141268,
2,1,0,1,0,58325,0.143617,0.143226,16.3566,30,0.00823272,10,0.0023427,-1.78631,0.547113,0.107839,68.7907,0.143226,
2,1,0,1,0,58325,0.145614,0.145228,16.4818,30,0.00839693,10,0.00239361,-1.783,0.604703,0.0975685,62.7625,0.145228,
2,1,0,1,0,58325,0.147612,0.147252,16.6093,30,0.00856241,10,0.00244575,-1.77965,0.635287,0.0928715,60.1756,0.147252,
2,1,0,1,0,58325,0.149619,0.14925,16.7239,30,0.00872908,10,0.00249603,-1.77666,0.7023,0.0840096,54.8135,0.14925,
2,1,0,1,0,58325.1,0.151616,0.151241,16.828,30,0.00889687,10,0.00254508,-1.77397,0.890395,0.0662627,43.4701,0.151241,
2,1,0,1,0,58325.1,0.153614,0.153203,16.8957,30,0.00906551,10,0.00258846,-1.77222,1.09174,0.0540422,35.6416,0.153203,
2,1,0,1,0,58325.1,0.155611,0.15523,16.9702,30,0.00923489,10,0.00263428,-1.77031,1.2912,0.045694,30.2398,0.15523,
2,1,0,1,0,58325.1,0.157618,0.157282,17.019,30,0.00940483,10,0.00267679,-1.76906,2.58887,0.0227898,15.1206,0.157282,
2,1,0,1,0,58325.1,0.159616,0.159266,17.0312,30,0.00957509,10,0.00271249,-1.76876,-13.6551,-0.00432073,-2.86887,0.159266,
2,1,0,1,0,58325.1,0.161613,0.161243,17.0077,30,0.00974528,10,0.00274237,-1.76935,-2.30369,-0.0256111,-16.9894,0.161243,
2,1,0,1,0,58325.1,0.163611,0.16323,16.9638,30,0.00991518,10,0.00276901,-1.77048,-1.21515,-0.0485537,-32.1059,0.16323,
2,1,0,1,0,58325.1,0.165618,0.165248,16.8791,30,0.0100844,10,0.00278923,-1.77265,-0.820082,-0.0719441,-47.3629,0.165248,
2,1,0,1,0,58325.1,0.167597,0.167243,16.7738,30,0.010251,10,0.0028053,-1.77537,-0.57733,-0.102195,-66.7915,0.167243,
2,1,0,1,0,58325.1,0.169595,0.169201,16.615,30,0.0104179,10,0.00281128,-1.7795,-0.445785,-0.132351,-85.7525,0.169201,
2,1,0,1,0,58325.2,0.171592,0.171239,16.4311,30,0.0105832,10,0.00281365,-1.78433,-0.35919,-0.164258,-105.181,0.171239,
2,1,0,1,0,58325.2,0.173572,0.173127,16.2021,30,0.0107447,10,0.00280502,-1.79043,-0.314138,-0.187815,-118.701,0.1731272,
2,1,0,1,0,58325.2,0.175578,0.175212,15.9595,30,0.0109055,10,0.0027963,-1.79698,-0.278288,-0.21201,-131.824,0.175212,
2,1,0,1,0,58325.2,0.177576,0.177201,15.6651,30,0.0110636,10,0.00277587,-1.80507,-0.245435,-0.24039,-146.927,0.177201,
2,1,0,1,0,58325.2,0.179573,0.179248,15.3665,30,0.0112187,10,0.00275442,-1.81342,-0.225512,-0.261627,-156.729,0.179248,
2,1,0,1,0,58325.2,0.181571,0.181197,15.0388,30,0.0113707,10,0.00272498,-1.82279,-0.213488,-0.276362,-162.206,0.181197,
2,1,0,1,0,58325.2,0.183578,0.183255,14.7166,30,0.0115195,10,0.00269689,-1.83219,-0.200036,-0.294947,-169.164,0.183255,
2,1,0,1,0,58325.2,0.185575,0.185218,14.3585,30,0.0116648,10,0.00265946,-1.84289,-0.189959,-0.310594,-174.152,0.185218,
2,1,0,1,0,58325.2,0.187573,0.187235,14.0234,30,0.0118067,10,0.00262567,-1.85315,-0.189628,-0.311136,-170.175,0.187235,
2,1,0,1,0,58325.2,0.18957,0.189227,13.6763,30,0.0119451,10,0.00258792,-1.86403,-0.184218,-0.320272,-171.022,0.189227,
2,1,0,1,0,58325.3,0.191577,0.191188,13.3474,30,0.0120802,10,0.00255186,-1.8746,-0.184869,-0.319145,-166.199,0.191188,
2,1,0,1,0,58325.3,0.193575,0.193197,13.0166,30,0.012212,10,0.00251476,-1.8855,-0.192015,-0.307267,-156.271,0.193197,
2,1,0,1,0,58325.3,0.195572,0.195197,12.7209,30,0.0123406,10,0.00248308,-1.89548,-0.190174,-0.310242,-153.844,0.195197,
2,1,0,1,0,58325.3,0.19757,0.197199,12.4008,30,0.0124662,10,0.00244543,-1.90655,-0.197444,-0.298819,-144.948,0.197199,
2,1,0,1,0,58325.3,0.199558,0.199191,12.142,30,0.0125876,10,0.00241857,-1.91571,-0.206458,-0.285773,-135.266,0.199191,
2,1,0,1,0,58325.3,0.201556,0.201198,11.8599,30,0.0127076,10,0.00238619,-1.92592,-0.207795,-0.283933,-131.612,0.201198,
2,1,0,1,0,58325.3,0.203554,0.203184,11.6164,30,0.012825,10,0.00236027,-1.93493,-0.216276,-0.272799,-123.615,0.203184,
2,1,0,1,0,58325.3,0.205551,0.2052,11.3652,30,0.0129398,10,0.00233214,-1.94442,-0.234068,-0.252064,-112.055,0.2052,
2,1,0,1,0,58325.3,0.20754,0.207183,11.1683,30,0.0130513,10,0.00231389,-1.95201,-0.241163,-0.244648,-106.48,0.207183,
2,1,0,1,0,58325.3,0.209537,0.209175,10.9419,30,0.0131618,10,0.00228878,-1.96091,-0.238206,-0.247685,-105.913,0.209175,
2,1,0,1,0,58325.4,0.211535,0.211151,10.7481,30,0.0132702,10,0.00226947,-1.96867,-0.25606,-0.230415,-96.6491,0.211151,
2,1,0,1,0,58325.4,0.213532,0.213166,10.5562,30,0.0133767,10,0.00225022,-1.97649,-0.278343,-0.211969,-87.4435,0.213166,
2,1,0,1,0,58325.4,0.215539,0.215192,10.3947,30,0.0134814,10,0.00223686,-1.98319,-0.279556,-0.211049,-85.5341,0.2151922,
2,1,0,1,0,58325.4,0.217537,0.217155,10.215,30,0.0135844,10,0.00221825,-1.99076,-0.280237,-0.210536,-84.0382,0.217155,
2,1,0,1,0,58325.4,0.219534,0.219141,10.0629,30,0.0136857,10,0.00220519,-1.99728,-0.310378,-0.190091,-74.6553,0.219141,
2,1,0,1,0,58325.4,0.221532,0.221202,9.91289,30,0.0137856,10,0.00219275,-2.0038,-0.326694,-0.180597,-69.9303,0.221202,
2,1,0,1,0,58325.4,0.223534,0.223157,9.78203,30,0.0138841,10,0.00218293,-2.00957,-0.340736,-0.173154,-66.0828,0.223157,
2,1,0,1,0,58325.4,0.225536,0.225238,9.64617,30,0.0139812,10,0.00217269,-2.01564,-0.350667,-0.168251,-63.3971,0.225238,
2,1,0,1,0,58325.4,0.227534,0.22715,9.5289,30,0.0140771,10,0.00216449,-2.02096,-0.349562,-0.168783,-62.7236,0.22715,
2,1,0,1,0,58325.4,0.229531,0.229173,9.39938,30,0.0141717,10,0.00215408,-2.0269,-0.384026,-0.153636,-56.4487,0.229173,
2,1,0,1,0,58325.5,0.231529,0.231186,9.30107,30,0.0142652,10,0.00215027,-2.03147,-0.422896,-0.139514,-50.6282,0.231186,
2,1,0,1,0,58325.5,0.233517,0.233146,9.19822,30,0.0143567,10,0.00214453,-2.0363,-0.410575,-0.143701,-51.5922,0.233146,
2,1,0,1,0,58325.5,0.235515,0.235111,9.09854,30,0.0144482,10,0.00213917,-2.04103,-0.414555,-0.142321,-50.5255,0.235111,
2,1,0,1,0,58325.5,0.237512,0.237155,8.99566,30,0.0145386,10,0.00213337,-2.04597,-0.457501,-0.128961,-45.3298,0.237155,
2,1,0,1,0,58325.5,0.23951,0.239154,8.91526,30,0.0146282,10,0.00213212,-2.04987,-0.499186,-0.118192,-41.112,0.239154,
2,1,0,1,0,58325.5,0.241499,0.241173,8.83049,30,0.014716,10,0.00212967,-2.05402,-0.488283,-0.120832,-41.648,0.241173,
2,1,0,1,0,58325.5,0.243496,0.243149,8.74889,30,0.0148038,10,0.00212728,-2.05805,-0.489327,-0.120574,-41.1662,0.243149,
2,1,0,1,0,58325.5,0.245494,0.245153,8.66663,30,0.0148909,10,0.00212465,-2.06215,-0.532329,-0.110834,-37.5157,0.2451532,
2,1,0,1,0,58325.5,0.247491,0.247175,8.59787,30,0.0149772,10,0.00212517,-2.06561,-0.547284,-0.107805,-36.1591,0.247175,
2,1,0,1,0,58325.5,0.249498,0.249138,8.52254,30,0.0150628,10,0.00212329,-2.06943,-0.561874,-0.105006,-34.9477,0.2491381,
2,1,0,1,0,58325.6,0.251496,0.251168,8.4583,30,0.0151477,10,0.00212446,-2.07272,-0.580358,-0.101661,-33.5474,0.251168,
2,1,0,1,0,58325.6,0.253493,0.253124,8.38883,30,0.0152319,10,0.00212341,-2.0763,-0.602912,-0.0978584,-32.057,0.253124,
2,1,0,1,0,58325.6,0.255491,0.255178,8.32975,30,0.0153155,10,0.00212557,-2.07937,-0.67381,-0.0875618,-28.4691,0.255178,
2,1,0,1,0,58325.6,0.257497,0.257178,8.2734,30,0.0153985,10,0.00212774,-2.08232,-0.720981,-0.081833,-26.435,0.257178,
2,1,0,1,0,58325.6,0.259495,0.259139,8.22505,30,0.015481,10,0.00213143,-2.08486,-0.622661,-0.0947547,-30.3715,0.259139,
2,1,0,1,0,58325.6,0.261493,0.261146,8.1529,30,0.0155628,10,0.0021291,-2.08869,-0.673769,-0.0875671,-27.9178,0.261146,
2,1,0,1,0,58325.6,0.26349,0.263135,8.11348,30,0.0156442,10,0.00213494,-2.09079,-0.842344,-0.0700427,-22.166,0.263135,
2,1,0,1,0,58325.6,0.265479,0.26511,8.06503,30,0.0157242,10,0.00213812,-2.09339,-0.757772,-0.0778598,-24.5063,0.26511,
2,1,0,1,0,58325.6,0.267476,0.26709,8.01656,30,0.0158046,10,0.00214115,-2.09601,-0.718397,-0.0821273,-25.6851,0.26709,
2,1,0,1,0,58325.6,0.269474,0.269104,7.96244,30,0.0158844,10,0.00214273,-2.09895,-0.82074,-0.0718864,-22.3637,0.269104,
2,1,0,1,0,58325.7,0.271471,0.271124,7.92635,30,0.0159638,10,0.00214902,-2.10093,-0.881537,-0.0669286,-20.6904,0.271124,
2,1,0,1,0,58325.7,0.27346,0.273079,7.8802,30,0.016042,10,0.00215192,-2.10346,-0.868504,-0.0679329,-20.9034,0.273079,
2,1,0,1,0,58325.7,0.275458,0.275122,7.84278,30,0.0161206,10,0.00215772,-2.10553,-0.808601,-0.0729655,-22.3117,0.275122,
2,1,0,1,0,58325.7,0.277455,0.277103,7.79042,30,0.0161988,10,0.00215875,-2.10844,-0.85066,-0.0693579,-21.1157,0.277103,
2,1,0,1,0,58325.7,0.279453,0.279081,7.75918,30,0.0162765,10,0.00216544,-2.11018,-0.971557,-0.0607273,-18.3763,0.279081,
2,1,0,1,0,58325.7,0.281455,0.281089,7.71718,30,0.0163538,10,0.00216921,-2.11254,-0.94562,-0.0623929,-18.8015,0.281089,
2,1,0,1,0,58325.7,0.283457,0.283099,7.68364,30,0.0164308,10,0.00217523,-2.11443,-0.901214,-0.0654672,-19.6177,0.283099,
2,1,0,1,0,58325.7,0.285455,0.285054,7.63938,30,0.0165074,10,0.00217764,-2.11694,-0.929098,-0.0635025,-18.9478,0.285054,
2,1,0,1,0,58325.7,0.287452,0.287119,7.60746,30,0.0165837,10,0.00218425,-2.11876,-1.05115,-0.0561288,-16.6608,0.287119,
2,1,0,1,0,58325.7,0.28945,0.289074,7.57241,30,0.0166595,10,0.00218899,-2.12077,-1.08602,-0.0543268,-16.0612,0.289074,
2,1,0,1,0,58325.8,0.291456,0.291119,7.54322,30,0.0167352,10,0.00219598,-2.12244,-0.978295,-0.060309,-17.7391,0.291119,
2,1,0,1,0,58325.8,0.293454,0.293084,7.50127,30,0.0168104,10,0.0021985,-2.12487,-0.984619,-0.0599217,-17.5595,0.293084,
2,1,0,1,0,58325.8,0.295452,0.295046,7.47427,30,0.0168853,10,0.00220525,-2.12643,-1.13482,-0.0519905,-15.1581,0.2950457,
2,1,0,1,0,58325.8,0.297449,0.297125,7.44003,30,0.0169598,10,0.00221061,-2.12843,-1.26414,-0.0466722,-13.5637,0.297125,
2,1,0,1,0,58325.8,0.299438,0.299122,7.41898,30,0.0170334,10,0.00221918,-2.12966,-0.0756768,-0.779632,-218.601,0.2991221,
2,1,0,1,0,58325.8,0.299746,0.299435,6.93497,30,0.0170647,10,0.00207657,-2.15896,0.00935052,6.30981,1488.01,0.2994349,
2,1,0,1,0,58325.8,0.29774,0.297394,4.84805,30,0.0171223,10,0.00144178,-2.31443,0.0135707,4.3476,850.654,0.297394,
2,1,0,1,0,58325.8,0.295742,0.295379,3.48466,30,0.0171636,10,0.00102929,-2.45784,0.013455,4.385,599.633,0.295379,
2,1,0,1,0,58325.8,0.293745,0.29337,2.43464,30,0.0171928,10,0.00071425,-2.61356,0.0116896,5.04722,475.366,0.29337,
2,1,0,1,0,58325.8,0.291747,0.291389,1.5879,30,0.0172127,10,0.000462695,-2.79918,0.00900724,6.55028,390.582,0.291389,
2,1,0,1,0,58325.9,0.289745,0.28939,0.88024,30,0.0172248,10,0.000254732,-3.0554,0.00543956,10.8465,323.155,0.28939,
2,1,0,1,0,58325.9,0.287743,0.287373,0.290074,30,0.0172305,10,8.33594e-05,-3.53749,0.00626114,9.42321,272.594,0.287373,
2,0,0,1,0,58325.9,0.285745,0.285413,-0.203891,30,0.0172308,10,-5.81931e-05,-3.6906,-0.0117642,-5.01523,231.653,0.285413,
2,0,0,1,0,58325.9,0.283748,0.28339,-0.632447,30,0.0172265,10,-0.000179229,-3.19898,-0.0058148,-10.1465,199.346,0.28339,
2,0,0,1,0,58325.9,0.28175,0.281375,-1.00883,30,0.0172182,10,-0.00028386,-2.99618,-0.012184,-4.8424,177.995,0.281375,
2,0,0,1,0,58325.9,0.279761,0.279422,-1.33872,30,0.0172064,10,-0.000374067,-2.87331,-0.0187938,-3.13934,158.488,0.279422,
2,0,0,1,0,58325.9,0.277764,0.277472,-1.62746,30,0.0171915,10,-0.000451574,-2.78849,-0.0269234,-2.1914,136.667,0.277472,
2,0,0,1,0,58325.9,0.275766,0.275397,-1.8888,30,0.0171739,10,-0.000520171,-2.72381,-0.0354277,-1.66536,121.064,0.275397,
2,0,0,1,0,58325.9,0.273769,0.273407,-2.11956,30,0.0171538,10,-0.000579503,-2.67375,-0.043656,-1.35147,110.896,0.273407,
2,0,0,1,0,58325.9,0.27178,0.271403,-2.33181,30,0.0171317,10,-0.000632859,-2.63231,-0.0516345,-1.14265,103.378,0.271403,
2,0,0,1,0,58326,0.269783,0.269447,-2.52891,30,0.0171074,10,-0.000681406,-2.59707,-0.062533,-0.943503,92.5489,0.269447,
2,0,0,1,0,58326,0.267785,0.267379,-2.70422,30,0.0170812,10,-0.00072305,-2.56796,-0.0755217,-0.781232,82.0145,0.267379,
2,0,0,1,0,58326,0.265787,0.265438,-2.85772,30,0.0170534,10,-0.000758547,-2.54398,-0.0831927,-0.709197,79.0509,0.265438,
2,0,0,1,0,58326,0.263781,0.263465,-3.01361,30,0.017024,10,-0.000793979,-2.52091,-0.0944485,-0.624679,73.2073,0.263465,
2,0,0,1,0,58326,0.261783,0.261407,-3.15281,30,0.0169931,10,-0.000824166,-2.5013,-0.110196,-0.535409,65.7019,0.261407,
2,0,0,1,0,58326,0.259786,0.259429,-3.27879,30,0.016961,10,-0.000850612,-2.48429,-0.1212,-0.4868,62.2168,0.259429,
2,0,0,1,0,58326,0.257788,0.257433,-3.40004,30,0.0169276,10,-0.000875283,-2.46852,-0.128707,-0.458406,60.8094,0.257433,
2,0,0,1,0,58326,0.255781,0.255426,-3.52221,30,0.0168929,10,-0.000899664,-2.45318,-0.146484,-0.402774,55.166,0.255426,
2,0,0,1,0,58326,0.253784,0.253422,-3.6213,30,0.0168572,10,-0.00091772,-2.44113,-0.165463,-0.356576,50.409,0.253422,
2,0,0,1,0,58326,0.251786,0.251415,-3.7244,30,0.0168205,10,-0.000936369,-2.42894,-0.173126,-0.340792,49.4649,0.251415,
2,0,0,1,0,58326.1,0.249789,0.24943,-3.81876,30,0.0167827,10,-0.000952516,-2.41808,-0.183281,-0.32191,47.9754,0.24943,
2,0,0,1,0,58326.1,0.2478,0.247449,-3.91467,30,0.0167444,10,-0.00096868,-2.4073,-0.197157,-0.299254,45.6535,0.247449,
2,0,0,1,0,58326.1,0.245802,0.245445,-4.00073,30,0.0167048,10,-0.000981958,-2.39786,-0.209922,-0.281057,43.8938,0.245445,
2,0,0,1,0,58326.1,0.243805,0.243454,-4.09002,30,0.0166644,10,-0.000995731,-2.38827,-0.225784,-0.261312,41.633,0.243454,
2,0,0,1,0,58326.1,0.241807,0.241495,-4.16516,30,0.0166231,10,-0.00100587,-2.38037,-0.241402,-0.244406,39.7645,0.241495,
2,0,0,1,0,58326.1,0.239819,0.239462,-4.24877,30,0.0165815,10,-0.00101742,-2.37174,-0.258776,-0.227997,37.7346,0.239462,
2,0,0,1,0,58326.1,0.237821,0.237462,-4.31735,30,0.0165387,10,-0.00102521,-2.36478,-0.287596,-0.205149,34.5702,0.237462,
2,0,0,1,0,58326.1,0.235824,0.235443,-4.38769,30,0.0164952,10,-0.00103305,-2.35776,-0.300722,-0.196194,33.5709,0.235443,
2,0,0,1,0,58326.1,0.233826,0.233446,-4.45218,30,0.016451,10,-0.00103934,-2.35143,-0.289414,-0.20386,35.4637,0.233446,
2,0,0,1,0,58326.1,0.231824,0.231488,-4.52797,30,0.0164061,10,-0.00104817,-2.3441,-0.300145,-0.196572,34.6837,0.231488,
2,0,0,1,0,58326.2,0.229822,0.229453,-4.59066,30,0.0163604,10,-0.00105334,-2.33812,-0.335062,-0.176087,31.5486,0.229453,
2,0,0,1,0,58326.2,0.227824,0.227485,-4.65424,30,0.0163142,10,-0.00105877,-2.33215,-0.346066,-0.170488,30.9529,0.227485,
2,0,0,1,0,58326.2,0.225827,0.225469,-4.71398,30,0.0162674,10,-0.00106286,-2.32661,-0.363171,-0.162458,29.8854,0.225469,
2,0,0,1,0,58326.2,0.223829,0.223494,-4.77351,30,0.0162199,10,-0.00106685,-2.32116,-0.366578,-0.160948,29.9862,0.223494,
2,0,0,1,0,58326.2,0.221822,0.221456,-4.8343,30,0.0161718,10,-0.00107059,-2.31567,-0.383533,-0.153833,29.0082,0.221456,
2,0,0,1,0,58326.2,0.219825,0.21946,-4.89054,30,0.0161232,10,-0.00107328,-2.31064,-0.393119,-0.150082,28.6474,0.21946,
2,0,0,1,0,58326.2,0.217827,0.217486,-4.94804,30,0.0160739,10,-0.00107613,-2.30557,-0.411516,-0.143372,27.6724,0.217486,
2,0,0,1,0,58326.2,0.21583,0.215466,-5.00105,30,0.0160242,10,-0.00107756,-2.30094,-0.395915,-0.149022,29.1147,0.215466,
2,0,0,1,0,58326.2,0.213841,0.213482,-5.06462,30,0.0159743,10,-0.0010812,-2.29545,-0.394205,-0.149668,29.5529,0.213482,
2,0,0,1,0,58326.2,0.211843,0.211495,-5.1184,30,0.0159235,10,-0.00108252,-2.29087,-0.466806,-0.126391,25.2285,0.211495,
2,0,0,1,0,58326.3,0.209846,0.209507,-5.1649,30,0.015872,10,-0.00108208,-2.28694,-0.478571,-0.123284,24.8665,0.209507,
2,0,0,1,0,58326.3,0.207848,0.207471,-5.21847,30,0.0158202,10,-0.00108268,-2.28246,-0.403609,-0.146181,29.8058,0.207471,
2,0,0,1,0,58326.3,0.20586,0.205491,-5.28459,30,0.0157681,10,-0.00108594,-2.27699,-0.429994,-0.137211,28.243,0.2054915,
2,0,0,1,0,58326.3,0.203862,0.203511,-5.33032,30,0.0157151,10,-0.00108478,-2.27325,-0.552227,-0.10684,22.2208,0.203511,
2,0,0,1,0,58326.3,0.201865,0.201464,-5.37408,30,0.0156616,10,-0.00108268,-2.2697,-0.516005,-0.11434,23.9971,0.201464,
2,0,0,1,0,58326.3,0.199867,0.19955,-5.42537,30,0.0156076,10,-0.00108263,-2.26557,-0.466506,-0.126472,26.7868,0.19955,
2,0,0,1,0,58326.3,0.19786,0.197498,-5.48031,30,0.015553,10,-0.00108235,-2.26119,-0.501674,-0.117606,25.1332,0.197498,
2,0,0,1,0,58326.3,0.195863,0.195518,-5.5267,30,0.015498,10,-0.00108057,-2.25753,-0.507009,-0.116369,25.1163,0.195518,
2,0,0,1,0,58326.3,0.193865,0.193498,-5.58079,30,0.0154425,10,-0.00107987,-2.2533,-0.500442,-0.117896,25.6661,0.193498,
2,0,0,1,0,58326.3,0.191868,0.191489,-5.63011,30,0.0153864,10,-0.00107811,-2.24948,-0.482909,-0.122176,26.8628,0.191489,
2,0,0,1,0,58326.4,0.189861,0.189539,-5.68714,30,0.0153298,10,-0.00107793,-2.24511,-0.478921,-0.123194,27.3319,0.189539,
2,0,0,1,0,58326.4,0.187863,0.187471,-5.73993,30,0.0152727,10,-0.00107607,-2.24109,-0.517762,-0.113952,25.5211,0.187471,
2,0,0,1,0,58326.4,0.185866,0.185484,-5.79061,30,0.015215,10,-0.00107407,-2.23728,-0.551569,-0.106967,24.1616,0.1854845,
2,0,0,1,0,58326.4,0.183868,0.183501,-5.83585,30,0.0151569,10,-0.00107089,-2.2339,-0.479769,-0.122976,28.0612,0.183501,
2,0,0,1,0,58326.4,0.18188,0.181462,-5.90348,30,0.0150988,10,-0.00107126,-2.22889,-0.454607,-0.129782,29.8584,0.181462,
2,0,0,1,0,58326.4,0.179882,0.179523,-5.95462,30,0.0150395,10,-0.00106899,-2.22515,-0.527152,-0.111922,26.0093,0.179523,
2,0,0,1,0,58326.4,0.177885,0.177523,-6.00593,30,0.0149797,10,-0.00106619,-2.22142,-0.50311,-0.117271,27.5044,0.177523,
2,0,0,1,0,58326.4,0.175887,0.17551,-6.065,30,0.0149194,10,-0.00106447,-2.21717,-0.465597,-0.126719,29.9982,0.17551,
2,0,0,1,0,58326.4,0.173908,0.173517,-6.12611,30,0.014859,10,-0.00106298,-2.21281,-0.449393,-0.131288,31.3953,0.173517,
2,0,0,1,0,58326.4,0.171901,0.171522,-6.19021,30,0.0147975,10,-0.00106176,-2.20829,-0.457069,-0.129083,31.1728,0.171522,
2,0,0,1,0,58326.5,0.169903,0.169541,-6.25004,30,0.0147353,10,-0.00105964,-2.20412,-0.455771,-0.129451,31.5874,0.169541,
2,0,0,1,0,58326.5,0.167906,0.167573,-6.31496,30,0.0146725,10,-0.00105822,-2.19963,-0.437818,-0.134759,33.2172,0.1675728,
2,0,0,1,0,58326.5,0.165908,0.165556,-6.38241,30,0.0146089,10,-0.00105665,-2.19502,-0.420984,-0.140148,34.9251,0.165556,
2,0,0,1,0,58326.5,0.163901,0.163525,-6.45634,30,0.0145447,10,-0.00105577,-2.19001,-0.393956,-0.149763,37.7444,0.163525,
2,0,0,1,0,58326.5,0.161904,0.161546,-6.5338,30,0.0144798,10,-0.00105551,-2.18483,-0.3876,-0.152219,38.8118,0.161546,
2,0,0,1,0,58326.5,0.159906,0.159543,-6.61087,30,0.0144141,10,-0.00105472,-2.17974,-0.385095,-0.153209,39.5403,0.1595431,
2,0,0,1,0,58326.5,0.157909,0.157529,-6.69263,30,0.0143475,10,-0.00105428,-2.1744,-0.354833,-0.166276,43.462,0.157529,
2,0,0,1,0,58326.5,0.155902,0.155536,-6.78504,30,0.0142801,10,-0.00105532,-2.16845,-0.310038,-0.190299,50.4432,0.155536,
2,0,0,1,0,58326.5,0.153904,0.153566,-6.8925,30,0.0142117,10,-0.00105846,-2.16162,-0.307656,-0.191773,51.5463,0.153566,
2,0,0,1,0,58326.5,0.151907,0.15155,-6.9905,30,0.0141423,10,-0.00105941,-2.15549,-0.298863,-0.197415,53.935,0.15155,
2,0,0,1,0,58326.6,0.149909,0.149542,-7.10954,30,0.0140718,10,-0.00106318,-2.14816,-0.258049,-0.228639,63.5008,0.149542,
2,0,0,1,0,58326.6,0.147921,0.147558,-7.24395,30,0.0140007,10,-0.00106891,-2.14002,-0.245733,-0.240098,67.8672,0.147558,
2,0,0,1,0,58326.6,0.145923,0.14559,-7.37776,30,0.0139276,10,-0.00107413,-2.13208,-0.234952,-0.251115,72.3837,0.14559,
2,0,0,1,0,58326.6,0.143926,0.143611,-7.52972,30,0.0138531,10,-0.00108135,-2.12322,-0.212159,-0.278093,81.8509,0.143611,
2,0,0,1,0,58326.6,0.141928,0.141555,-7.70806,30,0.0137769,10,-0.00109111,-2.11306,-0.195313,-0.302079,90.9158,0.141555,
2,0,0,1,0,58326.6,0.139939,0.139573,-7.89675,30,0.0136996,10,-0.00110218,-2.10255,-0.181328,-0.325377,100.399,0.139573,
2,0,0,1,0,58326.6,0.137942,0.13757,-8.1081,30,0.0136196,10,-0.00111543,-2.09108,-0.175377,-0.336418,106.478,0.13757,
2,0,0,1,0,58326.6,0.135944,0.135533,-8.32697,30,0.0135375,10,-0.00112858,-2.07951,-0.161547,-0.365219,118.922,0.135533,
2,0,0,1,0,58326.6,0.133947,0.133574,-8.58334,30,0.0134528,10,-0.00114651,-2.06634,-0.148274,-0.397913,133.366,0.133574,
2,0,0,1,0,58326.6,0.13194,0.131578,-8.85449,30,0.0133657,10,-0.00116505,-2.05284,-0.144941,-0.407063,140.789,0.1315776,
2,0,0,1,0,58326.7,0.129942,0.129569,-9.14718,30,0.0132756,10,-0.00118519,-2.03871,-0.142494,-0.414053,147.8,0.129569,
2,0,0,1,0,58326.7,0.127945,0.127583,-9.44487,30,0.0131826,10,-0.00120501,-2.0248,-0.139991,-0.421457,155.499,0.127583,
2,0,0,1,0,58326.7,0.125947,0.125581,-9.76737,30,0.0130865,10,-0.00122659,-2.01022,-0.135856,-0.434284,165.645,0.1255807,
2,0,0,1,0,58326.7,0.123941,0.123572,-10.1093,30,0.0129871,10,-0.00124922,-1.99528,-0.13749,-0.429123,169.173,0.123572,
2,0,0,1,0,58326.7,0.121943,0.121586,-10.4431,30,0.0128843,10,-0.00126974,-1.98117,-0.14748,-0.400053,162.826,0.121586,
2,0,0,1,0,58326.7,0.119945,0.119604,-10.7554,30,0.0127783,10,-0.00128639,-1.96837,-0.148151,-0.398244,167.429,0.119604,
2,0,0,1,0,58326.7,0.117948,0.11761,-11.1089,30,0.0126689,10,-0.00130651,-1.95433,-0.147034,-0.401269,173.819,0.11761,
2,0,0,1,0,58326.7,0.115946,0.115605,-11.4505,30,0.012556,10,-0.00132373,-1.94118,-0.153847,-0.383498,171.31,0.115605,
2,0,0,1,0,58326.7,0.113962,0.113634,-11.79,30,0.0124409,10,-0.00133974,-1.92849,-0.162824,-0.362355,166.586,0.113634,
2,0,0,1,0,58326.7,0.111964,0.111613,-12.1155,30,0.0123213,10,-0.00135225,-1.91666,-0.17338,-0.340293,160.863,0.111613,
2,0,0,1,0,58326.8,0.109967,0.109586,-12.4412,30,0.0121985,10,-0.00136338,-1.90514,-0.18305,-0.322317,156.313,0.109586,
2,0,0,1,0,58326.8,0.107969,0.1076,-12.7428,30,0.0120725,10,-0.00137112,-1.89474,-0.188981,-0.3122,155.269,0.1076,
2,0,0,1,0,58326.8,0.10598,0.10566,-13.0507,30,0.0119448,10,-0.00137894,-1.88437,-0.1986,-0.29708,151.169,0.10566,
2,0,0,1,0,58326.8,0.103983,0.103658,-13.3387,30,0.0118128,10,-0.00138266,-1.87489,-0.217495,-0.271271,141.163,0.103658,
2,0,0,1,0,58326.8,0.101985,0.10162,-13.621,30,0.011678,10,-0.00138417,-1.86579,-0.232666,-0.253582,134.647,0.10162,
2,0,0,1,0,58326.8,0.0999877,0.0996679,-13.8759,30,0.0115405,10,-0.00138299,-1.85774,-0.245804,-0.240029,130.015,0.0996679,
2,0,0,1,0,58326.8,0.0979811,0.097623,-14.1407,30,0.0114003,10,-0.00138046,-1.84953,-0.267359,-0.220677,121.603,0.097623,
2,0,0,1,0,58326.8,0.0959835,0.0956379,-14.366,30,0.0112577,10,-0.00137393,-1.84266,-0.288835,-0.204269,114.537,0.0956379,
2,0,0,1,0,58326.8,0.0939859,0.0936424,-14.5966,30,0.0111129,10,-0.00136686,-1.83575,-0.312559,-0.188764,107.411,0.0936424,
2,0,0,1,0,58326.8,0.0919883,0.0916296,-14.7965,30,0.0109659,10,-0.0013558,-1.82984,-0.335055,-0.17609,101.714,0.0916296,
2,0,0,1,0,58326.9,0.0899816,0.0896133,-15.0065,30,0.0108168,10,-0.00134478,-1.82372,-0.383329,-0.153915,89.9632,0.0896133,
2,0,0,1,0,58326.9,0.087984,0.0876047,-15.1586,30,0.0106659,10,-0.00132797,-1.81934,-0.444442,-0.132751,78.5558,0.0876047,
2,0,0,1,0,58326.9,0.0859865,0.0856205,-15.3201,30,0.0105134,10,-0.00131172,-1.81474,-0.48201,-0.122404,73.0953,0.0856205,
2,0,0,1,0,58326.9,0.0839889,0.0836875,-15.445,30,0.0103596,10,-0.00129255,-1.81121,-0.577741,-0.102122,61.54,0.0836875,
2,0,0,1,0,58326.9,0.0820004,0.0816817,-15.5625,30,0.010206,10,-0.00127117,-1.80792,-0.707508,-0.0833913,50.5994,0.0816817,
2,0,0,1,0,58326.9,0.0800028,0.0796251,-15.6505,30,0.01005,10,-0.00124617,-1.80547,-0.904817,-0.0652066,39.8095,0.0796251,
2,0,0,1,0,58326.9,0.0780052,0.077609,-15.7246,30,0.00989307,10,-0.00122037,-1.80342,-1.23215,-0.0478837,29.3572,0.07760898,
2,0,0,1,0,58326.9,0.0760076,0.0755977,-15.7688,30,0.00973559,10,-0.00119208,-1.8022,-1.63074,-0.03618,22.2653,0.0755977,
2,0,0,1,0,58326.9,0.0740191,0.0736441,-15.8129,30,0.00957927,10,-0.00116453,-1.80099,-2.51118,-0.023495,14.4848,0.0736441,
2,0,0,1,0,58326.9,0.0720215,0.071705,-15.8251,30,0.0094211,10,-0.00113474,-1.80065,-6.32292,-0.00933113,5.76269,0.071705,
2,0,0,1,0,58327,0.0700239,0.0696583,-15.8359,30,0.00926276,10,-0.0011031,-1.80036,13.9839,0.00421912,-2.60489,0.0696583,
2,0,0,1,0,58327,0.0680263,0.0676594,-15.8146,30,0.00910456,10,-0.00107001,-1.80094,9.0888,0.00649151,-4.00988,0.0676594,
2,0,0,1,0,58327,0.0660197,0.06565,-15.8198,30,0.0089464,10,-0.00103857,-1.8008,4.90766,0.012022,-7.41296,0.06565,
2,0,0,1,0,58327,0.0640221,0.063658,-15.7849,30,0.00878838,10,-0.00100484,-1.80176,2.38774,0.0247095,-15.2262,0.063658,
2,0,0,1,0,58327,0.0620245,0.0616503,-15.7589,30,0.00863062,10,-0.000971542,-1.80247,2.2369,0.0263758,-16.2149,0.0616503,
2,0,0,1,0,58327,0.0600269,0.0596401,-15.7198,30,0.00847324,10,-0.000937529,-1.80355,2.29374,0.0257222,-15.788,0.0596401,
2,0,0,1,0,58327,0.0580248,0.0576437,-15.6957,30,0.00831616,10,-0.000904756,-1.80422,2.05282,0.0287409,-17.593,0.0576437,
2,0,0,1,0,58327,0.0560227,0.0556526,-15.6496,30,0.00815945,10,-0.000870942,-1.8055,1.75129,0.0336895,-20.5823,0.05565257,
2,0,0,1,0,58327,0.0540251,0.0536328,-15.6131,30,0.00800311,10,-0.000837375,-1.80651,1.77763,0.0331903,-20.2188,0.0536328,
2,0,0,1,0,58327,0.0520275,0.0516546,-15.5688,30,0.0078472,10,-0.000804201,-1.80774,1.68469,0.0350214,-21.2816,0.0516546,
2,0,0,1,0,58327.1,0.0500299,0.049647,-15.5283,30,0.00769168,10,-0.000770933,-1.80888,1.76171,0.0334901,-20.2956,0.049647,
2,0,0,1,0,58327.1,0.0480414,0.047661,-15.4877,30,0.00753816,10,-0.000738162,-1.81001,1.75379,0.0336415,-20.3346,0.047661,
2,0,0,1,0,58327.1,0.0460438,0.0456934,-15.4479,30,0.00738348,10,-0.000705867,-1.81113,1.55097,0.0380407,-22.926,0.0456934,
2,0,0,1,0,58327.1,0.0440462,0.0437099,-15.3972,30,0.00722929,10,-0.000673009,-1.81256,1.4955,0.0394518,-23.7116,0.0437099,
2,0,0,1,0,58327.1,0.0420486,0.0416867,-15.3529,30,0.00707554,10,-0.00064001,-1.81381,1.63711,0.0360392,-21.5947,0.0416867,
2,0,0,1,0,58327.1,0.0400601,0.0396713,-15.31,30,0.00692379,10,-0.000607366,-1.81503,1.64585,0.0358477,-21.4188,0.0396713,
2,0,0,1,0,58327.1,0.0380625,0.0376697,-15.2668,30,0.00677089,10,-0.000575098,-1.81625,1.32795,0.0444293,-26.4548,0.0376697,
2,0,0,1,0,58327.1,0.036065,0.0356803,-15.2044,30,0.00661859,10,-0.000542497,-1.81803,1.26086,0.0467933,-27.779,0.0356803,
2,0,0,1,0,58327.1,0.0340674,0.0336848,-15.1561,30,0.00646679,10,-0.000510532,-1.81941,1.35621,0.0435036,-25.7271,0.0336848,
2,0,0,1,0,58327.1,0.0320607,0.0316989,-15.1019,30,0.00631552,10,-0.000478714,-1.82097,1.19626,0.0493205,-29.062,0.0316989,
2,0,0,1,0,58327.2,0.0300631,0.0297251,-15.0411,30,0.00616479,10,-0.000447097,-1.82272,1.05625,0.0558579,-32.7788,0.0297251,
2,0,0,1,0,58327.2,0.0280655,0.0277087,-14.9712,30,0.00601475,10,-0.000414832,-1.82474,1.07118,0.0550796,-32.1932,0.0277087,
2,0,0,1,0,58327.2,0.0260679,0.0257185,-14.9121,30,0.00586529,10,-0.000383516,-1.82646,1.03114,0.0572184,-33.2827,0.0257185,
2,0,0,1,0,58327.2,0.0240613,0.0237126,-14.8381,30,0.00571655,10,-0.00035185,-1.82862,1.01191,0.0583058,-33.7773,0.0237126,
2,0,0,1,0,58327.2,0.0220637,0.0216893,-14.776,30,0.00556846,10,-0.000320481,-1.83044,0.902258,0.0653915,-37.6741,0.0216893,
2,0,0,1,0,58327.2,0.0200661,0.0196999,-14.687,30,0.00542117,10,-0.000289331,-1.83307,0.791668,0.0745262,-42.7281,0.0196999,
2,0,0,1,0,58327.2,0.0180685,0.0177026,-14.6056,30,0.00527465,10,-0.000258559,-1.83548,0.840187,0.0702225,-40.0314,0.0177026,
2,0,0,1,0,58327.2,0.01608,0.0157112,-14.5273,30,0.00513049,10,-0.000228241,-1.83782,0.832744,0.0708501,-40.1627,0.0157112,
2,0,0,1,0,58327.2,0.0140824,0.0136991,-14.4449,30,0.00498565,10,-0.000197881,-1.84029,0.691622,0.0853068,-48.0441,0.0136991,
2,0,0,1,0,58327.2,0.0120848,0.0117068,-14.3349,30,0.0048418,10,-0.000167817,-1.8436,0.665302,0.0886816,-49.6487,0.0117068,
2,0,0,1,0,58327.3,0.0100872,0.00969949,-14.2463,30,0.00469892,10,-0.000138182,-1.8463,0.657967,0.0896701,-49.8174,0.00969949,
2,0,0,1,0,58327.3,0.00810328,0.00772085,-14.1363,30,0.00455852,10,-0.000109145,-1.84966,0.649437,0.0908479,-50.1564,0.00772085,
2,0,0,1,0,58327.3,0.00610116,0.00572796,-14.0471,30,0.00441759,10,-8.04611e-05,-1.85241,0.598761,0.0985368,-53.951,0.00572796,
2,0,0,1,0,58327.3,0.00410357,0.00376457,-13.9229,30,0.00427782,10,-5.24137e-05,-1.85627,0.700414,0.0842359,-45.8756,0.00376457,
2,0,0,1,0,58327.3,0.00210598,0.00170921,-13.8627,30,0.00413903,10,-2.36943e-05,-1.85815,0.684408,0.0862059,-46.5214,0.001709211,
2,0,0,1,0,58327.3,0.00010174,-0.000314912,-13.7331,30,0.0040011,10,4.32473e-06,-1.86223,0.552026,0.106879,-57.3414,-0.000314912,
2,0,0,1,0,58327.3,-0.00189827,-0.00231041,-13.6322,30,0.00386425,10,3.1496e-05,-1.86543,0.592409,0.0995933,-52.9671,-0.00231041,
2,0,0,1,0,58327.3,-0.00389586,-0.00429722,-13.5222,30,0.00372852,10,5.81078e-05,-1.86895,0.606445,0.0972882,-51.3634,-0.00429722,
2,0,0,1,0,58327.3,-0.00589345,-0.00636299,-13.4241,30,0.00359379,10,8.54173e-05,-1.87212,0.589336,0.100113,-52.4213,-0.00636299,
2,0,0,1,0,58327.3,-0.00789103,-0.00829949,-13.3124,30,0.00346015,10,0.000110486,-1.87574,0.635193,0.0928851,-48.3162,-0.00829949,
2,0,0,1,0,58327.4,-0.0098977,-0.010308,-13.2335,30,0.00332738,10,0.000136411,-1.87833,0.699979,0.0842882,-43.5023,-0.010308,
2,0,0,1,0,58327.4,-0.0118953,-0.0123278,-13.1371,30,0.00319552,10,0.000161952,-1.8815,0.679791,0.0867913,-44.5221,-0.0123278,
2,0,0,1,0,58327.4,-0.0138929,-0.0143077,-13.0554,30,0.00306452,10,0.000186792,-1.88421,0.712654,0.0827892,-42.1744,-0.0143077,
2,0,0,1,0,58327.4,-0.0158905,-0.0163075,-12.9693,30,0.00293443,10,0.000211497,-1.88708,0.834423,0.0707075,-35.8301,-0.01630749,
2,0,0,1,0,58327.4,-0.017879,-0.0182674,-12.9135,30,0.00280626,10,0.000235896,-1.88896,0.895224,0.0659053,-33.1885,-0.01826741,
2,0,0,1,0,58327.4,-0.0198766,-0.0202732,-12.8377,30,0.00267755,10,0.000260261,-1.89151,0.875217,0.0674119,-33.7955,-0.02027317,
2,0,0,1,0,58327.4,-0.0218741,-0.0222718,-12.7782,30,0.00254952,10,0.000284593,-1.89353,0.9958,0.0592489,-29.549,-0.0222718,
2,0,0,1,0,58327.4,-0.0238717,-0.0242346,-12.7206,30,0.00242208,10,0.000308279,-1.89549,1.3,0.0453846,-22.5528,-0.0242346,
2,0,0,1,0,58327.4,-0.0258602,-0.0262771,-12.6879,30,0.00229632,10,0.000333401,-1.89661,1.28681,0.0458497,-22.6796,-0.0262771,
2,0,0,1,0,58327.4,-0.0278578,-0.0282839,-12.6288,30,0.0021698,10,0.000357192,-1.89864,1.31616,0.0448272,-22.1201,-0.0282839,
2,0,0,1,0,58327.5,-0.0298554,-0.0302464,-12.6001,30,0.00204366,10,0.000381107,-1.89963,1.54117,0.0382827,-18.8121,-0.0302464,
2,0,0,1,0,58327.5,-0.031853,-0.0322619,-12.554,30,0.00191791,10,0.000405014,-1.90122,2.05944,0.0286486,-14.0562,-0.0322619,
2,0,0,1,0,58327.5,-0.0338597,-0.0342531,-12.5437,30,0.00179241,10,0.000429661,-1.90157,2.46814,0.0239047,-11.6903,-0.03425305,
2,0,0,1,0,58327.5,-0.0358573,-0.0362225,-12.5077,30,0.00166719,10,0.000453059,-1.90282,3.45138,0.0170946,-8.35725,-0.03622251,
2,0,0,1,0,58327.5,-0.0378549,-0.0382987,-12.5099,30,0.00154206,10,0.000479114,-1.90275,4.01181,0.0147066,-7.17047,-0.0382987,
2,0,0,1,0,58327.5,-0.0398524,-0.0402603,-12.4787,30,0.00141714,10,0.000502397,-1.90383,9.30497,0.0063407,-3.09416,-0.0402603,
2,0,0,1,0,58327.5,-0.0418591,-0.0422654,-12.4977,30,0.00129226,10,0.000528218,-1.90317,-36.6173,-0.00161126,0.784789,-0.0422654,
2,0,0,1,0,58327.5,-0.0438567,-0.0442557,-12.4818,30,0.00116739,10,0.000552392,-1.90372,9.24671,0.00638065,-3.11059,-0.0442557,
2,0,0,1,0,58327.5,-0.0458543,-0.0462338,-12.4853,30,0.00104251,10,0.000577243,-1.9036,-28.6239,-0.00206121,1.00424,-0.0462338,
2,0,0,1,0,58327.5,-0.0478519,-0.0482866,-12.4859,30,0.000917652,10,0.0006029,-1.90358,-3.18589,-0.0185191,9.03687,-0.0482866,
2,0,0,1,0,58327.6,-0.0498585,-0.050276,-12.5218,30,0.000792616,10,0.000629548,-1.90233,-3.07621,-0.0191794,9.35975,-0.050276,
2,0,0,1,0,58327.6,-0.051838,-0.052254,-12.523,30,0.000668669,10,0.000654378,-1.90229,-4.05338,-0.0145558,7.12125,-0.052254,
2,0,0,1,0,58327.6,-0.0538356,-0.0542454,-12.5501,30,0.00054334,10,0.000680786,-1.90135,-3.08329,-0.0191354,9.36616,-0.0542454,
2,0,0,1,0,58327.6,-0.0558331,-0.0562719,-12.5607,30,0.000417821,10,0.000706811,-1.90099,-2.51139,-0.0234929,11.5274,-0.0562719,
2,0,0,1,0,58327.6,-0.0578126,-0.0581686,-12.5953,30,0.00029329,10,0.000732652,-1.89979,-1.95903,-0.0301169,14.7976,-0.0581686,
2,0,0,1,0,58327.6,-0.0598192,-0.0602075,-12.6189,30,0.000167202,10,0.000759751,-1.89898,-1.58682,-0.0371812,18.3309,-0.0602075,
2,0,0,1,0,58327.6,-0.0618168,-0.0622542,-12.6702,30,4.0762e-05,10,0.000788774,-1.89722,-1.62797,-0.0362415,17.8987,-0.0622542,
2,0,0,1,0,58327.6,-0.0638144,-0.0642141,-12.6906,30,-8.60346e-05,10,0.000814915,-1.89652,-1.64936,-0.0357714,17.7372,-0.0642141,
2,0,0,1,0,58327.6,-0.065812,-0.0662165,-12.7405,30,-0.000213186,10,0.000843631,-1.89481,-1.34738,-0.0437888,21.7618,-0.0662165,
2,0,0,1,0,58327.6,-0.0678187,-0.0682155,-12.7777,30,-0.000340787,10,0.000871635,-1.89355,-1.25509,-0.0470086,23.4592,-0.0682155,
2,0,0,1,0,58327.7,-0.0698162,-0.0701927,-12.8338,30,-0.000468886,10,0.000900838,-1.89165,-1.37823,-0.0428086,21.4188,-0.0701927,
2,0,0,1,0,58327.7,-0.0718138,-0.0722047,-12.8631,30,-0.000597416,10,0.000928778,-1.89065,-1.18261,-0.0498896,25.0864,-0.0722047,
2,0,0,1,0,58327.7,-0.0738114,-0.0742349,-12.9352,30,-0.000726477,10,0.000960242,-1.88823,-0.954156,-0.0618347,31.1925,-0.0742349,
2,0,0,1,0,58327.7,-0.0758181,-0.0762226,-12.9885,30,-0.000856124,10,0.000990014,-1.88644,-0.972174,-0.0606887,30.7816,-0.0762226,
2,0,0,1,0,58327.7,-0.0778157,-0.078212,-13.0576,30,-0.000986403,10,0.00102126,-1.88414,-1.00328,-0.0588073,29.9478,-0.07821203,
2,0,0,1,0,58327.7,-0.0798133,-0.0802578,-13.1093,30,-0.00111724,10,0.00105212,-1.88242,-0.913087,-0.0646159,33.0946,-0.08025784,
2,0,0,1,0,58327.7,-0.0818109,-0.0822082,-13.1899,30,-0.00124875,10,0.00108431,-1.87976,-0.816661,-0.0722454,37.169,-0.0822082,
2,0,0,1,0,58327.7,-0.0837994,-0.0842181,-13.2565,30,-0.00137964,10,0.00111644,-1.87757,-0.844186,-0.0698898,36.1753,-0.0842181,
2,0,0,1,0,58327.7,-0.0857969,-0.0862477,-13.336,30,-0.0015126,10,0.0011502,-1.87497,-0.803389,-0.0734389,38.2113,-0.08624772,
2,0,0,1,0,58327.7,-0.0877945,-0.0881883,-13.4082,30,-0.00164627,10,0.00118245,-1.87263,-0.750919,-0.0785703,41.1419,-0.0881883,
2,0,0,1,0,58327.8,-0.0897921,-0.0902044,-13.4988,30,-0.00178082,10,0.00121765,-1.86971,-0.752223,-0.0784342,41.2923,-0.0902044,
2,0,0,1,0,58327.8,-0.0917806,-0.0921406,-13.5714,30,-0.00191477,10,0.00125048,-1.86738,-0.729867,-0.0808366,42.8535,-0.0921406,
2,0,0,1,0,58327.8,-0.0937782,-0.0941708,-13.6687,30,-0.00205099,10,0.0012872,-1.86427,-0.714295,-0.082599,44.0325,-0.0941708,
2,0,0,1,0,58327.8,-0.0957758,-0.0961506,-13.748,30,-0.00218805,10,0.00132188,-1.86176,-0.697467,-0.0845918,45.4204,-0.0961506,
2,0,0,1,0,58327.8,-0.0977734,-0.0981149,-13.8479,30,-0.00232603,10,0.00135868,-1.85862,-0.663063,-0.0889809,48.0775,-0.0981149,
2,0,0,1,0,58327.8,-0.0997412,-0.100181,-13.9417,30,-0.00246216,10,0.00139669,-1.85568,0.116848,0.504928,-267.524,-0.100181,
2,0,0,1,1,58327.8,-0.0996711,-0.100135,-13.3075,30,-0.00250317,10,0.00133255,-1.8759,-0.0185539,-3.17992,1524.37,-0.100135,
2,0,0,1,1,58327.8,-0.0976826,-0.0980946,-10.7618,30,-0.00262087,10,0.00105567,-1.96812,-0.0233422,-2.52761,1083.55,-0.0980946,
2,0,0,1,1,58327.8,-0.095685,-0.0961119,-8.94866,30,-0.00271886,10,0.000860073,-2.04824,-0.0252597,-2.33574,820.831,-0.0961119,
2,0,0,1,1,58327.8,-0.0936874,-0.09406,-7.45005,30,-0.00280048,10,0.000700752,-2.12784,-0.0245755,-2.40077,698.744,-0.09406,
2,0,0,1,1,58327.8,-0.0916898,-0.0920956,-6.14231,30,-0.00286812,10,0.000565679,-2.21167,-0.0227212,-2.59669,622.267,-0.0920956,
2,0,0,1,1,58327.9,-0.0897013,-0.090113,-4.99395,30,-0.00292303,10,0.00045002,-2.30156,-0.0207409,-2.84462,551.046,-0.090113,
2,0,0,1,1,58327.9,-0.0877037,-0.0881106,-3.94636,30,-0.00296751,10,0.000347716,-2.4038,-0.0179809,-3.28126,500.404,-0.0881106,
2,0,0,1,1,58327.9,-0.0857062,-0.0861116,-2.99163,30,-0.00300204,10,0.000257614,-2.52409,-0.0149182,-3.95491,454.428,-0.0861116,
2,0,0,1,1,58327.9,-0.0837086,-0.0841091,-2.128,30,-0.00302743,10,0.000178985,-2.67203,-0.0112462,-5.24624,417.379,-0.0841091,
2,0,0,1,1,58327.9,-0.0817019,-0.0820902,-1.3132,30,-0.00304448,10,0.000107801,-2.88167,-0.00704645,-8.37301,388.142,-0.0820902,
2,0,0,1,1,58327.9,-0.0797043,-0.0801112,-0.576245,30,-0.00305376,10,4.61637e-05,-3.23939,-0.00381938,-15.4476,358.152,-0.08011122,
2,1,0,1,1,58327.9,-0.0777067,-0.078094,0.118042,30,-0.00305594,10,-9.21838e-06,-3.92796,0.0341489,1.72773,332.868,-0.078094,
2,1,0,1,1,58327.9,-0.0757091,-0.0761133,0.754537,30,-0.00305147,10,-5.74303e-05,-3.12232,0.0037685,15.6561,311.18,-0.0761133,
2,1,0,1,1,58327.9,-0.0737025,-0.0740883,1.36455,30,-0.00304081,10,-0.000101097,-2.86501,0.00980436,6.01773,292.762,-0.07408829,
2,1,0,1,1,58327.9,-0.0717049,-0.072144,1.9166,30,-0.00302429,10,-0.000138271,-2.71747,0.0156804,3.76267,271.494,-0.072144,
2,1,0,1,1,58328,-0.0697073,-0.0701416,2.43606,30,-0.00300247,10,-0.000170869,-2.61331,0.0216822,2.72113,253.38,-0.0701416,
2,1,0,1,1,58328,-0.0677097,-0.0681591,2.9263,30,-0.00297552,10,-0.000199454,-2.53368,0.0274075,2.15269,242.818,-0.0681591,
2,1,0,1,1,58328,-0.0657212,-0.0661814,3.39767,30,-0.00294419,10,-0.000224862,-2.46882,0.034877,1.69166,221.477,-0.0661814,
2,1,0,1,1,58328,-0.0637236,-0.0641104,3.82299,30,-0.00290802,10,-0.000245093,-2.4176,0.0420202,1.40409,208.302,-0.0641104,
2,1,0,1,1,58328,-0.061726,-0.0621579,4.23576,30,-0.0028677,10,-0.000263286,-2.37307,0.0481636,1.22499,201.205,-0.0621579,
2,1,0,1,1,58328,-0.0597284,-0.0601522,4.61941,30,-0.00282335,10,-0.000277867,-2.33541,0.0564083,1.04595,187.648,-0.0601522,
2,1,0,1,1,58328,-0.0577399,-0.0582016,4.97816,30,-0.00277584,10,-0.000289737,-2.30293,0.0650181,0.90744,175.684,-0.0582016,
2,1,0,1,1,58328,-0.0557423,-0.0561722,5.31861,30,-0.00272428,10,-0.000298758,-2.2742,0.0751497,0.785099,162.363,-0.0561722,
2,1,0,1,1,58328,-0.0537447,-0.0541655,5.63348,30,-0.00266949,10,-0.00030514,-2.24922,0.0846035,0.697371,152.967,-0.0541655,
2,1,0,1,1,58328,-0.0517472,-0.0521526,5.93348,30,-0.00261155,10,-0.000309447,-2.22669,0.0928721,0.635282,146.799,-0.0521526,
2,1,0,1,1,58328.1,-0.049745,-0.0501832,6.21808,30,-0.00255079,10,-0.000312043,-2.20634,0.104058,0.566993,137.315,-0.0501832,
2,1,0,1,1,58328.1,-0.0477429,-0.0481313,6.48568,30,-0.00248718,10,-0.000312164,-2.18804,0.117998,0.500008,126.244,-0.0481313,
2,1,0,1,1,58328.1,-0.0457453,-0.0461471,6.72761,30,-0.00242107,10,-0.00031046,-2.17214,0.129777,0.454625,119.214,-0.0461471,
2,1,0,1,1,58328.1,-0.0437477,-0.0441689,6.95804,30,-0.00235258,10,-0.000307329,-2.15751,0.141109,0.418115,113.407,-0.0441689,
2,1,0,1,1,58328.1,-0.0417501,-0.0421838,7.17707,30,-0.0022819,10,-0.000302756,-2.14405,0.155349,0.379789,106.288,-0.0421838,
2,1,0,1,1,58328.1,-0.0397435,-0.0401215,7.38823,30,-0.00220896,10,-0.000296427,-2.13146,0.172529,0.341971,98.4047,-0.0401215,
2,1,0,1,1,58328.1,-0.0377459,-0.038159,7.57313,30,-0.00213418,10,-0.000288983,-2.12072,0.188725,0.312624,92.3564,-0.038159,
2,1,0,1,1,58328.1,-0.0357483,-0.0361592,7.75418,30,-0.00205749,10,-0.000280385,-2.11046,0.209074,0.282197,85.2826,-0.0361592,
2,1,0,1,1,58328.1,-0.0337507,-0.0341307,7.91667,30,-0.00197911,10,-0.000270202,-2.10146,0.227329,0.259536,80.1624,-0.0341307,
2,1,0,1,1,58328.1,-0.0317622,-0.0321383,8.0765,30,-0.00189987,10,-0.000259565,-2.09278,0.243887,0.241915,76.1533,-0.0321383,
2,1,0,1,1,58328.2,-0.0297646,-0.0301827,8.21733,30,-0.0018184,10,-0.000248021,-2.08527,0.269113,0.219239,70.2874,-0.0301827,
2,1,0,1,1,58328.2,-0.027767,-0.0281809,8.35466,30,-0.00173549,10,-0.000235442,-2.07807,0.297057,0.198615,64.6786,-0.02818089,
2,1,0,1,1,58328.2,-0.0257694,-0.0262396,8.47237,30,-0.00165136,10,-0.000222311,-2.072,0.319865,0.184453,61.0157,-0.02623955,
2,1,0,1,1,58328.2,-0.0237809,-0.0241836,8.59856,30,-0.00156683,10,-0.000207944,-2.06557,0.351859,0.167681,56.1869,-0.0241836,
2,1,0,1,1,58328.2,-0.0217833,-0.0221786,8.70054,30,-0.00148035,10,-0.000192966,-2.06045,0.409842,0.143958,48.855,-0.0221786,
2,1,0,1,1,58328.2,-0.0197858,-0.0201874,8.79379,30,-0.00139282,10,-0.000177524,-2.05582,0.430944,0.136909,46.985,-0.0201874,
2,1,0,1,1,58328.2,-0.0177882,-0.0182058,8.8872,30,-0.00130441,10,-0.000161799,-2.05124,0.435372,0.135516,47.0007,-0.01820581,
2,1,0,1,1,58328.2,-0.0157815,-0.0162129,8.9806,30,-0.00121505,10,-0.000145602,-2.04669,0.52201,0.113025,39.5543,-0.01621292,
2,1,0,1,1,58328.2,-0.0137839,-0.0141489,9.04767,30,-0.00112491,10,-0.000128014,-2.04346,0.598,0.0986622,34.8489,-0.0141489,
2,1,0,1,1,58328.2,-0.0117863,-0.012189,9.12083,30,-0.00103404,10,-0.000111173,-2.03997,0.60884,0.0969056,34.4772,-0.012189,
2,1,0,1,1,58328.3,-0.00978874,-0.010157,9.1853,30,-0.000942517,10,-9.32954e-05,-2.03691,0.656003,0.0899386,32.2425,-0.010157,
2,1,0,1,1,58328.3,-0.00778208,-0.00814679,9.25116,30,-0.000850298,10,-7.53672e-05,-2.0338,0.760695,0.0775606,27.9701,-0.00814679,
2,1,0,1,1,58328.3,-0.00578449,-0.00621116,9.29566,30,-0.00075758,10,-5.77369e-05,-2.03172,0.822494,0.0717331,26.042,-0.00621116,
2,1,0,1,1,58328.3,-0.0037869,-0.00421133,9.35364,30,-0.000664303,10,-3.93913e-05,-2.02902,0.862179,0.0684312,24.9596,-0.00421133,
2,1,0,1,1,58328.3,-0.00178931,-0.002182,9.39623,30,-0.000570605,10,-2.05026e-05,-2.02705,1.31423,0.0448933,16.4434,-0.002182,
2,1,0,1,1,58328.3,-2.55332e-05,-0.000363498,9.41691,30,-0.000488745,10,-3.42303e-06,-2.02609, , , ,-0.000363498,