File: Figure_codes/Fig_3-5/rawdata_trumpetplot_data/after 10th/20221101_1-115_003_TrumpetPlot_ParaChange_from10_every3_09_CV_C01_26.csv
mode,ox/red,error,control changes,counter inc.,time/s,control/V,Ewe/V,<I>/mA,cycle number,(Q-Qo)/C,I Range,P/W,log(|I|),Tafel slope mV/dec,alpha_eff,dI/d(E-IR),E-IR/V,
2,0,0,0,0,52405.9,2.44065e-05,-0.000306236,-5.25952,27,0.0000000E+000,10,1.61066e-06,-2.27905, , , ,-0.000306236,
2,0,0,1,0,52405.9,0.00179726,0.00142158,-3.16911,27,-7.16968e-05,10,-4.50515e-06,-2.49906, , , ,0.001421581,
2,0,0,1,0,52405.9,0.00379485,0.00342326,-1.69735,27,-0.000119052,10,-5.81046e-06,-2.77023,-0.00584449,-10.095,627.188,0.00342326,
2,0,0,1,0,52406,0.00579244,0.0054349,-0.652009,27,-0.000141868,10,-3.5436e-06,-3.18575,-0.00393832,-14.981,456.357,0.0054349,
2,1,0,1,0,52406,0.00779002,0.00748803,0.157639,27,-0.000146314,10,1.1804e-06,-3.80234,0.044965,1.31213,360.639,0.00748803,
2,1,0,1,0,52406,0.00978761,0.00946517,0.801466,27,-0.000136342,10,7.58601e-06,-3.09612,0.00431818,13.6631,290.445,0.00946517,
2,1,0,1,0,52406,0.0117852,0.0114615,1.31172,27,-0.00011491,10,1.50343e-05,-2.88216,0.0118953,4.95996,233.608,0.0114615,
2,1,0,1,0,52406,0.0137828,0.0134405,1.73014,27,-8.4223e-05,10,2.32541e-05,-2.76192,0.0195381,3.01975,197.37,0.0134405,
2,1,0,1,0,52406.1,0.0157804,0.0154516,2.09925,27,-4.56949e-05,10,3.24369e-05,-2.67794,0.0282032,2.09196,167.211,0.0154516,
2,1,0,1,0,52406.1,0.017778,0.0174632,2.40278,27,-7.1126e-07,10,4.19603e-05,-2.61929,0.038594,1.52873,141.273,0.0174632,
2,1,0,1,0,52406.1,0.0197755,0.0194105,2.65854,27,4.99955e-05,10,5.16036e-05,-2.57536,0.0500741,1.17825,121.226,0.0194105,
2,1,0,1,0,52406.1,0.0217731,0.0214367,2.88447,27,0.000105532,10,6.18336e-05,-2.53993,0.0622799,0.947336,105.938,0.0214367,
2,1,0,1,0,52406.1,0.0237707,0.0234143,3.08269,27,0.000165352,10,7.2179e-05,-2.51107,0.0743111,0.793959,95.1724,0.0234143,
2,1,0,1,0,52406.2,0.0257683,0.0254499,3.26642,27,0.000228661,10,8.31302e-05,-2.48593,0.0876907,0.672819,85.3637,0.0254499,
2,1,0,1,0,52406.2,0.0277659,0.0274272,3.42524,27,0.000295726,10,9.39448e-05,-2.46531,0.101013,0.584082,77.9555,0.0274272,
2,1,0,1,0,52406.2,0.0297635,0.0294474,3.57805,27,0.000365958,10,0.000105364,-2.44635,0.113684,0.518982,72.2854,0.0294474,
2,1,0,1,0,52406.2,0.0317611,0.0314568,3.71652,27,0.000439041,10,0.00011691,-2.42986,0.121036,0.487457,70.7108,0.0314568,
2,1,0,1,0,52406.2,0.0337586,0.033426,3.85938,27,0.000514463,10,0.000129004,-2.41348,0.133776,0.441037,66.2193,0.033426,
2,1,0,1,0,52406.3,0.0357562,0.0354497,3.98093,27,0.000592895,10,0.000141123,-2.40002,0.155647,0.379064,58.8142,0.0354497,
2,1,0,1,0,52406.3,0.0377538,0.0374186,4.0942,27,0.000673746,10,0.000153199,-2.38783,0.163841,0.360106,57.542,0.0374186,
2,1,0,1,0,52406.3,0.0397514,0.0394311,4.21003,27,0.000756889,10,0.000166006,-2.37572,0.160725,0.367086,60.3571,0.0394311,
2,1,0,1,0,52406.3,0.041749,0.0413948,4.33419,27,0.000841926,10,0.000179413,-2.36309,0.174651,0.337816,57.0046,0.0413948,
2,1,0,1,0,52406.3,0.0437466,0.0434588,4.43963,27,0.000929721,10,0.000192941,-2.35265,0.199098,0.296337,51.3043,0.0434588,
2,1,0,1,0,52406.4,0.0457442,0.0453996,4.53966,27,0.00101954,10,0.000206099,-2.34298,0.197843,0.298216,52.8779,0.0453996,
2,1,0,1,0,52406.4,0.0477418,0.0474138,4.64876,27,0.00111145,10,0.000220415,-2.33266,0.198833,0.296732,53.8225,0.0474138,
2,1,0,1,0,52406.4,0.0497484,0.0494453,4.7574,27,0.00120552,10,0.000235231,-2.32263,0.215802,0.273399,50.6744,0.04944529,
2,1,0,1,0,52406.4,0.0517369,0.0514096,4.85124,27,0.00130116,10,0.0002494,-2.31415,0.22696,0.259958,49.2538,0.05140961,
2,1,0,1,0,52406.4,0.0537345,0.0534275,4.95354,27,0.00139927,10,0.000264655,-2.30508,0.228609,0.258082,49.8588,0.0534275,
2,1,0,1,0,52406.5,0.0557321,0.0554047,5.05043,27,0.00149939,10,0.000279817,-2.29667,0.240662,0.245157,48.2912,0.0554047,
2,1,0,1,0,52406.5,0.0577206,0.0573357,5.14227,27,0.00160084,10,0.000294836,-2.28884,0.253392,0.23284,46.7403,0.0573357,
2,1,0,1,0,52406.5,0.0597273,0.0594167,5.23795,27,0.00170484,10,0.000311222,-2.28084,0.259997,0.226926,46.3735,0.0594167,
2,1,0,1,0,52406.5,0.0617249,0.0614143,5.33141,27,0.00181067,10,0.000327425,-2.27316,0.26791,0.220223,45.8002,0.0614143,
2,1,0,1,0,52406.5,0.0637224,0.0634129,5.42098,27,0.00191832,10,0.00034376,-2.26592,0.277455,0.212647,44.9796,0.0634129,
2,1,0,1,0,52406.6,0.06572,0.0653706,5.50937,27,0.00202771,10,0.000360151,-2.2589,0.270996,0.217716,46.8467,0.0653706,
2,1,0,1,0,52406.6,0.0677176,0.0673844,5.60704,27,0.00213852,10,0.000377827,-2.25127,0.292206,0.201913,44.111,0.0673844,
2,1,0,1,0,52406.6,0.0697152,0.0694031,5.68724,27,0.00225159,10,0.000394713,-2.2451,0.319396,0.184723,41.0092,0.0694031,
2,1,0,1,0,52406.6,0.0717128,0.0713749,5.77068,27,0.0023663,10,0.000411882,-2.23877,0.320249,0.184231,41.4864,0.0713749,
2,1,0,1,0,52406.6,0.0737104,0.0734135,5.85362,27,0.00248267,10,0.000429735,-2.23258,0.322591,0.182894,41.7832,0.0734135,
2,1,0,1,0,52406.7,0.075708,0.0753728,5.93773,27,0.00260015,10,0.000447543,-2.22638,0.343874,0.171575,39.7188,0.0753728,
2,1,0,1,0,52406.7,0.0777056,0.0773622,6.01046,27,0.00271969,10,0.000464982,-2.22109,0.376162,0.156847,36.795,0.0773622,
2,1,0,1,0,52406.7,0.0797031,0.0793729,6.08491,27,0.0028408,10,0.000482977,-2.21575,0.374217,0.157662,37.4422,0.0793729,
2,1,0,1,0,52406.7,0.0817007,0.0813671,6.16041,27,0.00296338,10,0.000501255,-2.21039,0.382182,0.154377,37.1042,0.08136709,
2,1,0,1,0,52406.7,0.0836983,0.0833576,6.23276,27,0.0030868,10,0.000519548,-2.20532,0.405296,0.145573,35.3992,0.0833576,
2,1,0,1,0,52406.8,0.0856959,0.0853643,6.30191,27,0.00321225,10,0.000537958,-2.20053,0.428581,0.137664,33.8488,0.0853643,
2,1,0,1,0,52406.8,0.0876935,0.0873614,6.36828,27,0.00333906,10,0.000556342,-2.19598,0.455026,0.129663,32.2163,0.0873614,
2,1,0,1,0,52406.8,0.0896911,0.0893842,6.43142,27,0.00346711,10,0.000574867,-2.19169,0.452604,0.130357,32.7275,0.0893842,
2,1,0,1,0,52406.8,0.0916887,0.091332,6.49823,27,0.00359584,10,0.000593496,-2.1872,0.441893,0.133516,33.8623,0.091332,
2,1,0,1,0,52406.8,0.0936863,0.0933643,6.56619,27,0.00372665,10,0.000613048,-2.18269,0.462872,0.127465,32.6509,0.09336435,
2,1,0,1,0,52406.9,0.0956838,0.0953473,6.62933,27,0.00385873,10,0.000632089,-2.17853,0.449973,0.131119,33.9449,0.0953473,
2,1,0,1,0,52406.9,0.0976814,0.0973458,6.70134,27,0.00399214,10,0.000652347,-2.17384,0.392258,0.150411,39.3762,0.0973458,
2,1,0,1,0,52406.9,0.099679,0.0993561,6.78719,27,0.0041264,10,0.000674348,-2.16831,0.394614,0.149513,39.5561,0.0993561,
2,1,0,1,0,52406.9,0.101677,0.101291,6.8574,27,0.00426295,10,0.000694593,-2.16384,0.394254,0.14965,40.1076,0.101291,
2,1,0,1,0,52406.9,0.103674,0.103367,6.94807,27,0.00440112,10,0.000718203,-2.15814,0.332291,0.177555,48.1898,0.103367,
2,1,0,1,0,52407,0.105672,0.105334,7.05224,27,0.00454125,10,0.000742842,-2.15167,0.299642,0.196902,54.2125,0.105334,
2,1,0,1,0,52407,0.107667,0.107326,7.16267,27,0.00468276,10,0.000768739,-2.14493,0.299334,0.197104,55.1012,0.107326,
2,1,0,1,0,52407,0.109667,0.109379,7.27511,27,0.00482725,10,0.000795745,-2.13816,0.289207,0.204006,57.9405,0.109379,
2,1,0,1,0,52407,0.111665,0.111307,7.39333,27,0.0049741,10,0.000822928,-2.13116,0.270015,0.218506,63.099,0.111307,
2,1,0,1,0,52407,0.113662,0.11334,7.52505,27,0.00512343,10,0.00085289,-2.12349,0.268807,0.219488,64.4306,0.11334,
2,1,0,1,0,52407.1,0.11566,0.115315,7.65159,27,0.00527526,10,0.000882344,-2.11625,0.260825,0.226206,67.6047,0.115315,
2,1,0,1,0,52407.1,0.117657,0.117293,7.7923,27,0.00542908,10,0.000913984,-2.10833,0.255258,0.231139,70.2699,0.117293,
2,1,0,1,0,52407.1,0.119655,0.119276,7.9299,27,0.00558646,10,0.000945845,-2.10073,0.272797,0.216278,66.902,0.1192758,
2,1,0,1,0,52407.1,0.121652,0.121318,8.06155,27,0.00574651,10,0.000978009,-2.09358,0.28624,0.206121,64.8365,0.121318,
2,1,0,1,0,52407.1,0.12365,0.12331,8.19148,27,0.00590919,10,0.00101009,-2.08664,0.289103,0.204079,65.2391,0.12331,
2,1,0,1,0,52407.2,0.125648,0.125312,8.32214,27,0.00607372,10,0.00104287,-2.07976,0.322112,0.183166,59.3999,0.125312,
2,1,0,1,0,52407.2,0.127645,0.127305,8.42875,27,0.00624139,10,0.00107302,-2.07424,0.361126,0.163378,53.7472,0.127305,
2,1,0,1,0,52407.2,0.129643,0.129322,8.53765,27,0.00641125,10,0.0011041,-2.06866,0.371429,0.158846,52.9009,0.129322,
2,1,0,1,0,52407.2,0.13164,0.131278,8.63895,27,0.0065832,10,0.00113411,-2.06354,0.412355,0.14308,48.2064,0.131278,
2,1,0,1,0,52407.2,0.133638,0.133292,8.72903,27,0.00675628,10,0.00116351,-2.05903,0.45726,0.12903,43.9468,0.133292,
2,1,0,1,0,52407.3,0.135636,0.135308,8.81604,27,0.00693188,10,0.00119288,-2.05473,0.512076,0.115217,39.6064,0.135308,
2,1,0,1,0,52407.3,0.137633,0.137298,8.88771,27,0.00710902,10,0.00122027,-2.05121,0.629506,0.0937242,32.4827,0.137298,
2,1,0,1,0,52407.3,0.139631,0.139285,8.94523,27,0.0072875,10,0.00124594,-2.04841,0.689612,0.0855554,29.876,0.139285,
2,1,0,1,0,52407.3,0.141628,0.141323,9.00795,27,0.00746631,10,0.00127303,-2.04537,0.809356,0.0728975,25.5957,0.141323,
2,1,0,1,0,52407.3,0.143626,0.143327,9.04868,27,0.00764704,10,0.00129692,-2.04341,1.19003,0.0495784,17.496,0.1433267,
2,1,0,1,0,52407.4,0.145624,0.145261,9.07686,27,0.00782849,10,0.00131852,-2.04206,2.57098,0.0229484,8.11847,0.145261,
2,1,0,1,0,52407.4,0.147621,0.147298,9.08092,27,0.0080102,10,0.0013376,-2.04187,-8.60091,-0.00685974,-2.4287,0.147298,
2,1,0,1,0,52407.4,0.149619,0.149265,9.06714,27,0.00819096,10,0.00135341,-2.04253,-1.226,-0.0481239,-16.9915,0.149265,
2,1,0,1,0,52407.4,0.151616,0.151279,9.01328,27,0.00837199,10,0.00136352,-2.04512,-0.582828,-0.101231,-35.5344,0.151279,
2,1,0,1,0,52407.4,0.153614,0.153347,8.92211,27,0.00855157,10,0.00136818,-2.04953,-0.387011,-0.152451,-52.9939,0.153347,
2,1,0,1,0,52407.5,0.155611,0.155273,8.80165,27,0.00872901,10,0.00136666,-2.05544,-0.28761,-0.205139,-70.3154,0.155273,
2,1,0,1,0,52407.5,0.157609,0.157286,8.64514,27,0.00890278,10,0.00135976,-2.06323,-0.216616,-0.272372,-91.5907,0.1572856,
2,1,0,1,0,52407.5,0.159607,0.159289,8.43378,27,0.00907379,10,0.00134341,-2.07398,-0.17019,-0.346672,-113.871,0.159289,
2,1,0,1,0,52407.5,0.161604,0.161266,8.19192,27,0.00924022,10,0.00132108,-2.08661,-0.147093,-0.401107,-128.02,0.161266,
2,1,0,1,0,52407.5,0.163602,0.163243,7.92768,27,0.00940155,10,0.00129414,-2.10085,-0.132128,-0.446535,-137.883,0.163243,
2,1,0,1,0,52407.6,0.165606,0.165278,7.63876,27,0.0095573,10,0.00126252,-2.11698,-0.121397,-0.486007,-144.731,0.165278,
2,1,0,1,0,52407.6,0.167597,0.167297,7.34094,27,0.00970648,10,0.00122811,-2.13425,-0.115062,-0.512767,-146.884,0.167297,
2,1,0,1,0,52407.6,0.169595,0.169293,7.04891,27,0.00985049,10,0.00119333,-2.15188,-0.111097,-0.531066,-146.03,0.169293,
2,1,0,1,0,52407.6,0.171592,0.171284,6.75863,27,0.00998865,10,0.00115765,-2.17014,-0.109426,-0.539177,-142.329,0.171284,
2,1,0,1,0,52407.6,0.173581,0.173243,6.48675,27,0.0101205,10,0.00112378,-2.18797,-0.114634,-0.514682,-130.489,0.173243,
2,1,0,1,0,52407.7,0.175587,0.175251,6.24099,27,0.010248,10,0.00109374,-2.20475,-0.120159,-0.491015,-119.623,0.175251,
2,1,0,1,0,52407.7,0.177585,0.177275,6.00445,27,0.0103705,10,0.00106444,-2.22153,-0.12341,-0.478082,-112.199,0.177275,
2,1,0,1,0,52407.7,0.179582,0.179257,5.7915,27,0.0104885,10,0.00103817,-2.23721,-0.131204,-0.449683,-101.793,0.179257,
2,1,0,1,0,52407.7,0.18158,0.181241,5.60072,27,0.0106025,10,0.00101508,-2.25176,-0.14297,-0.412673,-90.3565,0.181241,
2,1,0,1,0,52407.7,0.183578,0.183225,5.433,27,0.0107124,10,0.000995461,-2.26496,-0.15329,-0.384891,-81.6364,0.183225,
2,1,0,1,0,52407.8,0.185575,0.185266,5.27216,27,0.0108196,10,0.000976751,-2.27801,-0.162563,-0.362936,-74.7953,0.185266,
2,1,0,1,0,52407.8,0.187573,0.187262,5.13102,27,0.0109237,10,0.000960847,-2.2898,-0.173295,-0.340459,-68.2544,0.187262,
2,1,0,1,0,52407.8,0.18957,0.189195,5.00399,27,0.0110252,10,0.000946728,-2.30068,-0.189385,-0.311535,-60.9091,0.189195,
2,1,0,1,0,52407.8,0.191568,0.191215,4.89029,27,0.0111238,10,0.000935095,-2.31067,-0.217401,-0.271388,-51.8743,0.191215,
2,1,0,1,0,52407.8,0.193566,0.193261,4.79304,27,0.0112208,10,0.000926308,-2.31939,-0.232095,-0.254206,-47.5623,0.1932613,
2,1,0,1,0,52407.9,0.195563,0.19523,4.69931,27,0.0113158,10,0.000917447,-2.32797,-0.229214,-0.257402,-47.2061,0.19523,
2,1,0,1,0,52407.9,0.197561,0.197212,4.60656,27,0.011409,10,0.000908467,-2.33662,-0.26089,-0.226149,-40.7534,0.1972115,
2,1,0,1,0,52407.9,0.199558,0.199222,4.53661,27,0.0115002,10,0.000903794,-2.34327,-0.306884,-0.192255,-34.0447,0.199222,
2,1,0,1,0,52407.9,0.201556,0.201253,4.46896,27,0.0115904,10,0.000899393,-2.34979,-0.307333,-0.191974,-33.4875,0.201253,
2,1,0,1,0,52407.9,0.203553,0.2032,4.4034,27,0.0116792,10,0.000894772,-2.35621,-0.333003,-0.177175,-30.4812,0.2032,
2,1,0,1,0,52408,0.205551,0.20522,4.34806,27,0.0117668,10,0.000892307,-2.3617,-0.411534,-0.143366,-24.3621,0.20522,
2,1,0,1,0,52408,0.207549,0.207227,4.30531,27,0.011853,10,0.000892175,-2.366,-0.431044,-0.136877,-22.9781,0.207227,
2,1,0,1,0,52408,0.209546,0.209257,4.25529,27,0.0119387,10,0.000890449,-2.37107,-0.389167,-0.151606,-25.1724,0.2092569,
2,1,0,1,0,52408,0.211544,0.21125,4.20403,27,0.0120234,10,0.000888101,-2.37633,-0.42386,-0.139197,-22.8705,0.21125,
2,1,0,1,0,52408,0.213541,0.213203,4.16505,27,0.0121073,10,0.000888,-2.38038,-0.557043,-0.105917,-17.2357,0.213203,
2,1,0,1,0,52408.1,0.215539,0.215226,4.13551,27,0.01219,10,0.000890067,-2.38347,-0.53093,-0.111126,-17.9069,0.215226,
2,1,0,1,0,52408.1,0.217537,0.217221,4.0931,27,0.0122723,10,0.000889106,-2.38795,-0.531742,-0.110956,-17.7531,0.217221,
2,1,0,1,0,52408.1,0.219534,0.219239,4.06425,27,0.0123541,10,0.000891044,-2.39102,-0.665109,-0.0887073,-14.0724,0.2192394,
2,1,0,1,0,52408.1,0.221532,0.221227,4.03673,27,0.0124352,10,0.000893031,-2.39397,-0.654192,-0.0901877,-14.2051,0.221227,
2,1,0,1,0,52408.1,0.223525,0.223231,4.00754,27,0.0125154,10,0.000894609,-2.39712,-0.681942,-0.0865176,-13.5387,0.223231,
2,1,0,1,0,52408.2,0.225527,0.225214,3.98274,27,0.0125954,10,0.00089697,-2.39982,-0.728203,-0.0810214,-12.5929,0.225214,
2,1,0,1,0,52408.2,0.227525,0.22719,3.95769,27,0.012675,10,0.000899148,-2.40256,-0.740414,-0.0796851,-12.3088,0.22719,
2,1,0,1,0,52408.2,0.229522,0.229225,3.93337,27,0.0127541,10,0.000901627,-2.40523,-0.799434,-0.0738022,-11.3333,0.229225,
2,1,0,1,0,52408.2,0.23152,0.231222,3.912,27,0.0128327,10,0.000904539,-2.4076,-0.999384,-0.0590363,-9.02071,0.231222,
2,1,0,1,0,52408.2,0.233517,0.233241,3.89715,27,0.0129107,10,0.000908974,-2.40925,-1.11085,-0.0531125,-8.07559,0.233241,
2,1,0,1,0,52408.3,0.235515,0.235189,3.87996,27,0.0129886,10,0.000912525,-2.41117,-1.052,-0.0560839,-8.49319,0.235189,
2,1,0,1,0,52408.3,0.237512,0.237194,3.86357,27,0.0130662,10,0.000916417,-2.41301,-1.04771,-0.0563134,-8.48957,0.237194,
2,1,0,1,0,52408.3,0.23951,0.239209,3.84584,27,0.0131434,10,0.000919958,-2.41501,-1.28356,-0.0459661,-6.90623,0.239209,
2,1,0,1,0,52408.3,0.241508,0.241172,3.8361,27,0.01322,10,0.00092516,-2.41611,-1.11008,-0.0531492,-7.94447,0.241172,
2,1,0,1,0,52408.3,0.243505,0.243178,3.81431,27,0.0132967,10,0.000927554,-2.41858,-1.29651,-0.0455069,-6.78873,0.2431777,
2,1,0,1,0,52408.4,0.245503,0.245173,3.80894,27,0.013373,10,0.000933849,-2.4192,-1.33764,-0.0441075,-6.54338,0.245173,
2,1,0,1,0,52408.4,0.2475,0.247165,3.78821,27,0.0134491,10,0.000936315,-2.42157,-1.25124,-0.0471531,-6.9835,0.247165,
2,1,0,1,0,52408.4,0.249498,0.24919,3.78088,27,0.0135246,10,0.000942158,-2.42241,-1.66805,-0.0353706,-5.21475,0.24919,
2,1,0,1,0,52408.4,0.251496,0.251196,3.7672,27,0.0136003,10,0.000946303,-2.42398,-1.48563,-0.0397139,-5.84206,0.251196,
2,1,0,1,0,52408.4,0.253493,0.253154,3.75772,27,0.0136756,10,0.000951284,-2.42508,-1.24126,-0.0475324,-6.96263,0.253154,
2,1,0,1,0,52408.5,0.255491,0.255165,3.73956,27,0.0137508,10,0.000954205,-2.42718,-1.63284,-0.0361333,-5.28406,0.255165,
2,1,0,1,0,52408.5,0.257488,0.25717,3.73651,27,0.0138253,10,0.000960916,-2.42753,-3.24094,-0.0182046,-2.65303,0.25717,
2,1,0,1,0,52408.5,0.259486,0.259202,3.72885,27,0.0139001,10,0.000966526,-2.42843,-1.29236,-0.0456528,-6.63365,0.259202,
2,1,0,1,0,52408.5,0.261484,0.261163,3.71002,27,0.0139747,10,0.000968918,-2.43062,-1.23707,-0.0476935,-6.91504,0.2611627,
2,1,0,1,0,52408.5,0.263481,0.26317,3.70141,27,0.014049,10,0.0009741,-2.43163,-3.1131,-0.0189522,-2.74003,0.26317,
2,1,0,1,0,52408.6,0.265479,0.265171,3.69904,27,0.0141228,10,0.000980875,-2.43191,-2.01393,-0.0292959,-4.22238,0.265171,
2,1,0,1,0,52408.6,0.267476,0.267121,3.68473,27,0.0141968,10,0.000984268,-2.43359,-1.44063,-0.0409544,-5.89355,0.2671212,
2,1,0,1,0,52408.6,0.269474,0.269137,3.67566,27,0.0142706,10,0.000989255,-2.43466,-2.4882,-0.0237119,-3.40349,0.269137,
2,1,0,1,0,52408.6,0.271471,0.271159,3.67098,27,0.0143442,10,0.000995421,-2.43522,-2.83984,-0.0207758,-2.9754,0.271159,
2,1,0,1,0,52408.6,0.273469,0.273185,3.66362,27,0.0144172,10,0.00100085,-2.43609,-1.41403,-0.0417248,-5.95827,0.273185,
2,1,0,1,0,52408.7,0.275467,0.275177,3.64704,27,0.0144905,10,0.00100358,-2.43806,-1.5664,-0.037666,-5.36979,0.275177,
2,1,0,1,0,52408.7,0.277464,0.277154,3.6423,27,0.0145635,10,0.00100948,-2.43862,-2.12661,-0.0277437,-3.94034,0.277154,
2,1,0,1,0,52408.7,0.279462,0.279154,3.63137,27,0.0146365,10,0.00101371,-2.43993,-1.84854,-0.031917,-4.5256,0.279154,
2,1,0,1,0,52408.7,0.281464,0.281171,3.62412,27,0.0147091,10,0.001019,-2.4408,-1.74769,-0.0337588,-4.77167,0.281171,
2,1,0,1,0,52408.7,0.283457,0.283177,3.61218,27,0.0147814,10,0.00102289,-2.44223,-2.45396,-0.0240427,-3.3942,0.283177,
2,1,0,1,0,52408.8,0.285455,0.285162,3.61058,27,0.0148538,10,0.0010296,-2.44242,-2.30351,-0.0256131,-3.60358,0.285162,
2,1,0,1,0,52408.8,0.287452,0.287142,3.59789,27,0.014926,10,0.00103311,-2.44395,-1.35317,-0.0436014,-6.12311,0.287142,
2,1,0,1,0,52408.8,0.28945,0.289139,3.58622,27,0.014998,10,0.00103692,-2.44536,-2.27371,-0.0259488,-3.6362,0.289139,
2,1,0,1,0,52408.8,0.291447,0.291153,3.5833,27,0.0150696,10,0.00104329,-2.44572,-1.6847,-0.0350211,-4.88819,0.291153,
2,1,0,1,0,52408.8,0.293445,0.293129,3.56672,27,0.0151413,10,0.00104551,-2.44773,-1.50172,-0.0392882,-5.47751,0.293129,
2,1,0,1,0,52408.9,0.295442,0.295138,3.56148,27,0.0152127,10,0.00105113,-2.44837,-2.6955,-0.0218883,-3.04156,0.295138,
2,1,0,1,0,52408.9,0.29744,0.297164,3.55445,27,0.0152841,10,0.00105625,-2.44923,-2.17286,-0.0271531,-3.76611,0.297164,
2,1,0,1,0,52408.9,0.299438,0.299138,3.54641,27,0.015355,10,0.00106087,-2.45021,-0.0384718,-1.53359,-199.149,0.299138,
2,1,0,1,0,52408.9,0.299737,0.299394,3.11023,27,0.0153841,10,0.000931185,-2.50721,0.00451971,13.0539,1202.14,0.299394,
2,1,0,1,0,52408.9,0.29774,0.297414,1.47277,27,0.0154274,10,0.000438023,-2.83186,0.00538278,10.9609,639.166,0.297414,
2,1,0,1,0,52409,0.295742,0.295415,0.567008,27,0.0154469,10,0.000167503,-3.24641,0.00240923,24.4892,372.361,0.295415,
2,1,0,1,0,52409,0.293745,0.293375,-0.0310344,27,0.0154518,10,-9.10473e-06,-4.50816,0.0375112,1.57286,253.251,0.293375,
2,0,0,1,0,52409,0.291747,0.291424,-0.443798,27,0.0154467,10,-0.000129333,-3.35281,-0.00286999,-20.5575,182.137,0.291424,
2,0,0,1,0,52409,0.289754,0.289395,-0.755851,27,0.0154346,10,-0.00021874,-3.12156,-0.0116257,-5.07496,134.326,0.289395,
2,0,0,1,0,52409,0.287752,0.287406,-0.983442,27,0.015417,10,-0.000282648,-3.00725,-0.0208527,-2.82936,104.589,0.287406,
2,0,0,1,0,52409.1,0.285754,0.285451,-1.16837,27,0.0153953,10,-0.000333512,-2.93242,-0.0313805,-1.88015,83.8501,0.285451,
2,0,0,1,0,52409.1,0.283757,0.283412,-1.31838,27,0.0153703,10,-0.000373644,-2.87996,-0.0440915,-1.33813,67.9942,0.283412,
2,0,0,1,0,52409.1,0.281759,0.281376,-1.44545,27,0.0153425,10,-0.000406716,-2.84,-0.0571612,-1.03217,57.5885,0.281376,
2,0,0,1,0,52409.1,0.279761,0.279443,-1.54695,27,0.0153126,10,-0.000432285,-2.81052,-0.0702651,-0.839678,50.5487,0.279443,
2,0,0,1,0,52409.1,0.277764,0.277451,-1.64386,27,0.0152805,10,-0.000456091,-2.78414,-0.0858999,-0.686846,43.7695,0.277451,
2,0,0,1,0,52409.2,0.275766,0.275446,-1.72189,27,0.0152468,10,-0.000474288,-2.76399,-0.10571,-0.558133,37.4146,0.275446,
2,0,0,1,0,52409.2,0.273769,0.273447,-1.79366,27,0.0152115,10,-0.000490471,-2.74626,-0.116544,-0.506248,35.4111,0.273447,
2,0,0,1,0,52409.2,0.271771,0.271416,-1.86461,27,0.015175,10,-0.000506085,-2.72941,-0.129874,-0.454287,32.9606,0.271416,
2,0,0,1,0,52409.2,0.269774,0.269429,-1.9261,27,0.015137,10,-0.000518947,-2.71532,-0.151611,-0.389153,29.1935,0.269429,
2,0,0,1,0,52409.2,0.267776,0.267429,-1.98099,27,0.0150978,10,-0.000529774,-2.70312,-0.174157,-0.338774,26.1407,0.267429,
2,0,0,1,0,52409.3,0.265778,0.265488,-2.02912,27,0.0150577,10,-0.000538708,-2.69269,-0.184205,-0.320295,25.3897,0.265488,
2,0,0,1,0,52409.3,0.263781,0.263444,-2.08217,27,0.0150166,10,-0.000548536,-2.68148,-0.209983,-0.280976,22.7518,0.263444,
2,0,0,1,0,52409.3,0.261783,0.26144,-2.12123,27,0.0149745,10,-0.000554574,-2.67341,-0.235724,-0.250293,20.7369,0.2614398,
2,0,0,1,0,52409.3,0.259786,0.25949,-2.16417,27,0.0149315,10,-0.00056158,-2.66471,-0.223866,-0.263551,22.2694,0.25949,
2,0,0,1,0,52409.3,0.257788,0.257472,-2.2096,27,0.0148876,10,-0.000568908,-2.65569,-0.227264,-0.25961,22.3804,0.257472,
2,0,0,1,0,52409.4,0.25579,0.255462,-2.25431,27,0.0148431,10,-0.000575892,-2.64699,-0.270955,-0.217749,19.1032,0.255462,
2,0,0,1,0,52409.4,0.253793,0.253433,-2.28674,27,0.0147976,10,-0.000579537,-2.64078,-0.327462,-0.180174,16.0781,0.2534332,
2,0,0,1,0,52409.4,0.251795,0.251434,-2.31908,27,0.0147515,10,-0.000583095,-2.63468,-0.309032,-0.190919,17.2934,0.251434,
2,0,0,1,0,52409.4,0.249798,0.249456,-2.35552,27,0.0147046,10,-0.000587599,-2.62791,-0.304852,-0.193536,17.7809,0.249456,
2,0,0,1,0,52409.4,0.2478,0.247473,-2.3895,27,0.0146573,10,-0.000591338,-2.62169,-0.33242,-0.177486,16.5417,0.247473,
2,0,0,1,0,52409.5,0.245802,0.2455,-2.42097,27,0.0146092,10,-0.000594347,-2.61601,-0.343203,-0.17191,16.2488,0.2454998,
2,0,0,1,0,52409.5,0.243805,0.243467,-2.4546,27,0.0145603,10,-0.000597614,-2.61002,-0.380964,-0.15487,14.8124,0.243467,
2,0,0,1,0,52409.5,0.241807,0.241465,-2.48073,27,0.0145108,10,-0.00059901,-2.60542,-0.360262,-0.16377,15.8898,0.241465,
2,0,0,1,0,52409.5,0.23981,0.239483,-2.51791,27,0.0144611,10,-0.000602995,-2.59896,-0.353786,-0.166768,16.3559,0.239483,
2,0,0,1,0,52409.5,0.237812,0.237497,-2.54562,27,0.0144105,10,-0.000604579,-2.59421,-0.471472,-0.12514,12.4186,0.237497,
2,0,0,1,0,52409.6,0.235815,0.235459,-2.56788,27,0.0143593,10,-0.00060463,-2.59043,-0.468786,-0.125857,12.627,0.235459,
2,0,0,1,0,52409.6,0.233817,0.233504,-2.59605,27,0.0143076,10,-0.000606188,-2.58569,-0.400726,-0.147233,14.9263,0.233504,
2,0,0,1,0,52409.6,0.231815,0.231451,-2.6277,27,0.0142554,10,-0.000608184,-2.58042,-0.412399,-0.143065,14.6599,0.231451,
2,0,0,1,0,52409.6,0.229822,0.229453,-2.65543,27,0.0142028,10,-0.000609298,-2.57586,-0.519425,-0.113587,11.7512,0.229453,
2,0,0,1,0,52409.6,0.227824,0.227494,-2.6742,27,0.0141495,10,-0.000608365,-2.57281,-0.531392,-0.111029,11.6054,0.227494,
2,0,0,1,0,52409.7,0.225827,0.225501,-2.7013,27,0.0140956,10,-0.000609146,-2.56843,-0.492533,-0.119789,12.619,0.225501,
2,0,0,1,0,52409.7,0.223829,0.223509,-2.72449,27,0.0140413,10,-0.000608948,-2.56471,-0.541894,-0.108877,11.5766,0.223509,
2,0,0,1,0,52409.7,0.221831,0.22149,-2.74774,27,0.0139867,10,-0.000608596,-2.56102,-0.48153,-0.122526,13.1538,0.2214897,
2,0,0,1,0,52409.7,0.219834,0.219496,-2.77727,27,0.0139313,10,-0.000609601,-2.55638,-0.443246,-0.133109,14.4238,0.219496,
2,0,0,1,0,52409.7,0.217836,0.217477,-2.80561,27,0.0138754,10,-0.000610157,-2.55197,-0.588683,-0.100224,10.9478,0.217477,
2,0,0,1,0,52409.8,0.215839,0.215528,-2.82071,27,0.0138191,10,-0.000607943,-2.54964,-0.520848,-0.113277,12.5132,0.215528,
2,0,0,1,0,52409.8,0.213841,0.213485,-2.85556,27,0.0137625,10,-0.000609621,-2.54431,-0.480404,-0.122813,13.6507,0.213485,
2,0,0,1,0,52409.8,0.211843,0.211512,-2.87554,27,0.0137052,10,-0.00060821,-2.54128,-0.684307,-0.0862186,9.67295,0.211512,
2,0,0,1,0,52409.8,0.209846,0.209517,-2.89395,27,0.0136474,10,-0.000606332,-2.53851,-0.561891,-0.105002,11.8807,0.209517,
2,0,0,1,0,52409.8,0.207848,0.207516,-2.92302,27,0.0135891,10,-0.000606572,-2.53417,-0.424278,-0.13906,15.8777,0.207516,
2,0,0,1,0,52409.9,0.205851,0.205509,-2.95759,27,0.0135306,10,-0.000607811,-2.52906,-0.566112,-0.10422,11.9875,0.205509,
2,0,0,1,0,52409.9,0.203853,0.203463,-2.97159,27,0.0134712,10,-0.00060461,-2.52701,-0.672678,-0.0877091,10.1936,0.203463,
2,0,0,1,0,52409.9,0.201856,0.201505,-2.99841,27,0.0134114,10,-0.000604193,-2.52311,-0.540284,-0.109202,12.7707,0.201505,
2,0,0,1,0,52409.9,0.199858,0.199545,-3.02163,27,0.0133512,10,-0.000602952,-2.51976,-0.537206,-0.109828,12.9624,0.199545,
2,0,0,1,0,52409.9,0.19786,0.197512,-3.05016,27,0.0132907,10,-0.000602444,-2.51568,-0.56482,-0.104458,12.4197,0.197512,
2,0,0,1,0,52410,0.195863,0.195525,-3.07156,27,0.0132294,10,-0.000600567,-2.51264,-0.572193,-0.103112,12.3721,0.195525,
2,0,0,1,0,52410,0.193865,0.193571,-3.09892,27,0.0131676,10,-0.000599861,-2.50879,-0.539984,-0.109263,13.2106,0.193571,
2,0,0,1,0,52410,0.191868,0.191506,-3.12466,27,0.0131053,10,-0.000598389,-2.5052,-0.524095,-0.112575,13.7365,0.191506,
2,0,0,1,0,52410,0.18987,0.18953,-3.15443,27,0.0130428,10,-0.000597859,-2.50108,-0.545863,-0.108086,13.2912,0.18953,
2,0,0,1,0,52410,0.187872,0.187549,-3.17725,27,0.0129794,10,-0.000595889,-2.49795,-0.560787,-0.105209,13.0588,0.187549,
2,0,0,1,0,52410.1,0.185875,0.185537,-3.20657,27,0.0129155,10,-0.000594939,-2.49396,-0.566307,-0.104184,13.0242,0.185537,
2,0,0,1,0,52410.1,0.183877,0.183551,-3.22932,27,0.0128511,10,-0.000592744,-2.49089,-0.438141,-0.13466,17.0297,0.183551,
2,0,0,1,0,52410.1,0.18188,0.181545,-3.27456,27,0.0127864,10,-0.00059448,-2.48485,-0.438846,-0.134443,17.1224,0.181545,
2,0,0,1,0,52410.1,0.179882,0.179564,-3.29758,27,0.0127206,10,-0.000592127,-2.4818,-0.606248,-0.09732,12.5315,0.179564,
2,0,0,1,0,52410.1,0.177885,0.177567,-3.32441,27,0.0126543,10,-0.000590306,-2.47829,-0.50148,-0.117652,15.2831,0.177567,
2,0,0,1,0,52410.2,0.175887,0.175505,-3.35962,27,0.0125874,10,-0.000589629,-2.47371,-0.414299,-0.142409,18.6846,0.175505,
2,0,0,1,0,52410.2,0.173896,0.173541,-3.39963,27,0.0125201,10,-0.000589976,-2.46857,-0.40298,-0.146409,19.4153,0.173541,
2,0,0,1,0,52410.2,0.171892,0.171546,-3.43647,27,0.0124517,10,-0.000589515,-2.46389,-0.475252,-0.124145,16.6301,0.171546,
2,0,0,1,0,52410.2,0.169894,0.169582,-3.46548,27,0.0123826,10,-0.000587682,-2.46024,-0.422894,-0.139515,18.9146,0.169582,
2,0,0,1,0,52410.2,0.167897,0.167579,-3.51152,27,0.0123127,10,-0.000588456,-2.45451,-0.354311,-0.16652,22.8206,0.167579,
2,0,0,1,0,52410.3,0.165899,0.165529,-3.55797,27,0.012242,10,-0.000588946,-2.4488,-0.344804,-0.171112,23.7685,0.165529,
2,0,0,1,0,52410.3,0.163901,0.163544,-3.60741,27,0.0121706,10,-0.000589972,-2.4428,-0.336006,-0.175592,24.7175,0.163544,
2,0,0,1,0,52410.3,0.161904,0.16155,-3.65631,27,0.0120979,10,-0.000590677,-2.43696,-0.330373,-0.178586,25.4963,0.16155,
2,0,0,1,0,52410.3,0.159906,0.159543,-3.70942,27,0.0120242,10,-0.000591814,-2.43069,-0.29936,-0.197087,28.5594,0.1595434,
2,0,0,1,0,52410.3,0.157909,0.157558,-3.77031,27,0.0119494,10,-0.000594044,-2.42362,-0.258444,-0.228289,33.6395,0.157558,
2,0,0,1,0,52410.4,0.155911,0.155578,-3.84282,27,0.0118736,10,-0.000597858,-2.41535,-0.244823,-0.24099,36.1427,0.155578,
2,0,0,1,0,52410.4,0.153913,0.153517,-3.91637,27,0.0117959,10,-0.00060123,-2.40712,-0.247713,-0.238179,36.398,0.153517,
2,0,0,1,0,52410.4,0.151916,0.151548,-3.98951,27,0.0117168,10,-0.000604601,-2.39908,-0.211806,-0.278556,43.4996,0.151548,
2,0,0,1,0,52410.4,0.149918,0.149581,-4.08758,27,0.011636,10,-0.000611426,-2.38853,-0.180956,-0.326047,52.0749,0.149581,
2,0,0,1,0,52410.4,0.147921,0.14756,-4.19717,27,0.0115535,10,-0.000619335,-2.37704,-0.177158,-0.333036,54.5336,0.14756,
2,0,0,1,0,52410.5,0.145923,0.14558,-4.3058,27,0.0114683,10,-0.000626837,-2.36595,-0.166049,-0.355318,59.8367,0.14558,
2,0,0,1,0,52410.5,0.143926,0.143583,-4.43513,27,0.0113808,10,-0.00063681,-2.35309,-0.141207,-0.417826,72.5341,0.143583,
2,0,0,1,0,52410.5,0.141928,0.141611,-4.59368,27,0.0112904,10,-0.000650515,-2.33784,-0.12862,-0.458715,82.3268,0.141611,
2,0,0,1,0,52410.5,0.13993,0.139561,-4.76623,27,0.0111973,10,-0.000665182,-2.32182,-0.125977,-0.46834,87.1604,0.139561,
2,0,0,1,0,52410.5,0.137933,0.137546,-4.94799,27,0.0111001,10,-0.000680575,-2.30557,-0.116628,-0.505883,97.8819,0.137546,
2,0,0,1,0,52410.5,0.135935,0.135595,-5.15442,27,0.010999,10,-0.000698916,-2.28782,-0.110312,-0.534849,107.64,0.135595,
2,0,0,1,0,52410.6,0.133938,0.133613,-5.37137,27,0.0108936,10,-0.000717682,-2.26992,-0.11122,-0.530478,111.246,0.133613,
2,0,0,1,0,52410.6,0.13194,0.131603,-5.59857,27,0.0107844,10,-0.000736789,-2.25192,-0.107999,-0.546302,119.55,0.131603,
2,0,0,1,0,52410.6,0.129942,0.129609,-5.84998,27,0.0106699,10,-0.000758211,-2.23285,-0.108787,-0.542343,123.67,0.129609,
2,0,0,1,0,52410.6,0.127945,0.127595,-6.09418,27,0.0105504,10,-0.000777589,-2.21508,-0.113889,-0.518048,123.18,0.127595,
2,0,0,1,0,52410.6,0.125947,0.125615,-6.34199,27,0.010426,10,-0.000796648,-2.19777,-0.116171,-0.507874,125.703,0.125615,
2,0,0,1,0,52410.7,0.12395,0.1236,-6.59647,27,0.0102973,10,-0.000815321,-2.18069,-0.123815,-0.476517,122.455,0.1236,
2,0,0,1,0,52410.7,0.121952,0.121601,-6.83345,27,0.0101629,10,-0.000830958,-2.16536,-0.13357,-0.441715,117.693,0.121601,
2,0,0,1,0,52410.7,0.119955,0.119632,-7.06338,27,0.0100238,10,-0.000845009,-2.15099,-0.140683,-0.419384,115.562,0.119632,
2,0,0,1,0,52410.7,0.117957,0.117627,-7.29271,27,0.0098801,10,-0.000857822,-2.13711,-0.149484,-0.394692,112.254,0.117627,
2,0,0,1,0,52410.7,0.115955,0.115598,-7.5163,27,0.00973191,10,-0.000868866,-2.124,-0.16245,-0.36319,106.365,0.1155976,
2,0,0,1,0,52410.8,0.113962,0.113613,-7.71968,27,0.00958013,10,-0.000877057,-2.1124,-0.177912,-0.331624,99.8156,0.1136131,
2,0,0,1,0,52410.8,0.111964,0.111635,-7.91186,27,0.0094237,10,-0.000883238,-2.10172,-0.187934,-0.313939,96.911,0.111635,
2,0,0,1,0,52410.8,0.109967,0.109658,-8.10295,27,0.00926349,10,-0.000888556,-2.09136,-0.208212,-0.283365,89.4457,0.109658,
2,0,0,1,0,52410.8,0.107969,0.107664,-8.26705,27,0.00909969,10,-0.000890061,-2.08265,-0.234136,-0.25199,81.2749,0.107664,
2,0,0,1,0,52410.8,0.105971,0.10566,-8.42791,27,0.00893343,10,-0.000890493,-2.07428,-0.255299,-0.231101,75.9291,0.10566,
2,0,0,1,0,52410.9,0.103974,0.103646,-8.57208,27,0.00876334,10,-0.000888465,-2.06691,-0.288819,-0.20428,68.2804,0.103646,
2,0,0,1,0,52410.9,0.101976,0.101635,-8.70272,27,0.00859048,10,-0.000884503,-2.06034,-0.348574,-0.169261,57.3825,0.101635,
2,0,0,1,0,52410.9,0.0999786,0.0996306,-8.80252,27,0.00841536,10,-0.000877,-2.05539,-0.399758,-0.147589,50.7075,0.0996306,
2,0,0,1,0,52410.9,0.0979811,0.0976465,-8.90498,27,0.00823905,10,-0.00086954,-2.05037,-0.493421,-0.119573,41.4641,0.0976465,
2,0,0,1,0,52410.9,0.0959835,0.0956229,-8.96869,27,0.00806026,10,-0.000857612,-2.04727,-0.749546,-0.0787143,27.5248,0.0956229,
2,0,0,1,0,52411,0.0939859,0.0936411,-9.01523,27,0.00788036,10,-0.000844196,-2.04502,-1.01822,-0.0579445,20.3728,0.0936411,
2,0,0,1,0,52411,0.0919883,0.0916631,-9.04936,27,0.00769966,10,-0.000829493,-2.04338,-1.51637,-0.0389087,13.7311,0.0916631,
2,0,0,1,0,52411,0.0899907,0.0896414,-9.07015,27,0.00751931,10,-0.000813061,-2.04239,-12.7644,-0.00462222,1.63302,0.0896414,
2,0,0,1,0,52411,0.0879931,0.0876117,-9.05598,27,0.00733796,10,-0.00079341,-2.04306,2.46182,0.023966,-8.4677,0.0876117,
2,0,0,1,0,52411,0.0859955,0.0856622,-9.03645,27,0.00715697,10,-0.000774082,-2.044,1.45196,0.0406348,-14.3161,0.0856622,
2,0,0,1,0,52411.1,0.083998,0.0836203,-8.99884,27,0.00697656,10,-0.000752485,-2.04581,1.08464,0.0543959,-19.1023,0.0836203,
2,0,0,1,0,52411.1,0.0820004,0.0816655,-8.96011,27,0.00679777,10,-0.000731732,-2.04769,0.881448,0.0669353,-23.3862,0.0816655,
2,0,0,1,0,52411.1,0.0800028,0.0796576,-8.90617,27,0.00661909,10,-0.000709444,-2.05031,0.763971,0.0772281,-26.8431,0.0796576,
2,0,0,1,0,52411.1,0.0780052,0.0776588,-8.85255,27,0.00644149,10,-0.000687479,-2.05293,0.719312,0.0820228,-28.3291,0.0776588,
2,0,0,1,0,52411.1,0.0760076,0.0756878,-8.79371,27,0.006265,10,-0.000665577,-2.05583,0.742826,0.0794264,-27.272,0.0756878,
2,0,0,1,0,52411.2,0.07401,0.0736736,-8.74387,27,0.00609059,10,-0.000644192,-2.0583,0.74254,0.079457,-27.1003,0.0736736,
2,0,0,1,0,52411.2,0.0720124,0.0716837,-8.6852,27,0.00591632,10,-0.000622587,-2.06122,0.712201,0.0828418,-28.0884,0.0716837,
2,0,0,1,0,52411.2,0.0700148,0.0696965,-8.63216,27,0.00574317,10,-0.000601631,-2.06388,0.727319,0.0811199,-27.3234,0.0696965,
2,0,0,1,0,52411.2,0.0680173,0.0676993,-8.57633,27,0.00557112,10,-0.000580611,-2.0667,0.894814,0.0659355,-22.0984,0.0676993,
2,0,0,1,0,52411.2,0.0660106,0.0656834,-8.54348,27,0.00540001,10,-0.000561164,-2.06837,0.86406,0.0682823,-22.7341,0.0656834,
2,0,0,1,0,52411.3,0.0640221,0.0637288,-8.48606,27,0.00523052,10,-0.000540807,-2.07129,0.777797,0.0758553,-25.1438,0.0637288,
2,0,0,1,0,52411.3,0.0620245,0.0617085,-8.44353,27,0.00506121,10,-0.000521037,-2.07348,0.937085,0.0629612,-20.7478,0.0617085,
2,0,0,1,0,52411.3,0.0600269,0.0596553,-8.40155,27,0.00489277,10,-0.000501197,-2.07564,0.977493,0.0603585,-19.796,0.0596553,
2,0,0,1,0,52411.3,0.0580361,0.0576997,-8.36417,27,0.00472597,10,-0.00048261,-2.07758,0.876045,0.0673482,-21.9684,0.0576997,
2,0,0,1,0,52411.3,0.0560317,0.0557107,-8.31489,27,0.00455908,10,-0.000463228,-2.08014,0.869274,0.0678727,-22.0392,0.0557107,
2,0,0,1,0,52411.4,0.0540342,0.0537204,-8.27647,27,0.00439311,10,-0.000444616,-2.08215,0.952632,0.0619336,-19.9996,0.0537204,
2,0,0,1,0,52411.4,0.0520366,0.0516577,-8.23383,27,0.00422795,10,-0.000425341,-2.0844,0.84394,0.0699102,-22.4583,0.05165768,
2,0,0,1,0,52411.4,0.050039,0.0497134,-8.18648,27,0.00406366,10,-0.000406978,-2.0869,0.891808,0.0661578,-21.1506,0.0497134,
2,0,0,1,0,52411.4,0.0480414,0.0476884,-8.14988,27,0.00390104,10,-0.000388655,-2.08885,0.907433,0.0650186,-20.6672,0.04768841,
2,0,0,1,0,52411.4,0.0460438,0.045688,-8.10329,27,0.00373851,10,-0.000370223,-2.09134,0.769782,0.0766451,-24.233,0.04568797,
2,0,0,1,0,52411.5,0.0440462,0.0436929,-8.05306,27,0.00357696,10,-0.000351862,-2.09404,0.693002,0.0851369,-26.7465,0.0436929,
2,0,0,1,0,52411.5,0.0420486,0.0416971,-7.99655,27,0.00341646,10,-0.000333432,-2.0971,0.760691,0.077561,-24.2297,0.0416971,
2,0,0,1,0,52411.5,0.040051,0.0397034,-7.95639,27,0.00325766,10,-0.000315896,-2.09928,0.778096,0.0758261,-23.524,0.0397034,
2,0,0,1,0,52411.5,0.0380535,0.0376888,-7.90225,27,0.00309905,10,-0.000297827,-2.10225,0.611867,0.0964261,-29.7216,0.0376888,
2,0,0,1,0,52411.5,0.0360559,0.0357792,-7.83976,27,0.00294168,10,-0.0002805,-2.1057,0.59974,0.098376,-30.1089,0.0357792,
2,0,0,1,0,52411.6,0.0340583,0.0337143,-7.78259,27,0.00278544,10,-0.000262385,-2.10888,0.655997,0.0899395,-27.3234,0.0337143,
2,0,0,1,0,52411.6,0.0320607,0.0317306,-7.72914,27,0.00263106,10,-0.00024525,-2.11187,0.581736,0.101421,-30.5632,0.0317306,
2,0,0,1,0,52411.6,0.0300631,0.0297355,-7.66098,27,0.00247718,10,-0.000227803,-2.11572,0.519802,0.113505,-33.9389,0.0297355,
2,0,0,1,0,52411.6,0.0280655,0.0277637,-7.5945,27,0.00232464,10,-0.000210852,-2.1195,0.520644,0.113321,-33.5828,0.0277637,
2,0,0,1,0,52411.6,0.0260679,0.0257293,-7.52644,27,0.0021734,10,-0.00019365,-2.12341,0.522501,0.112918,-33.1703,0.0257293,
2,0,0,1,0,52411.7,0.0240704,0.0237043,-7.45985,27,0.00202422,10,-0.000176831,-2.12727,0.496056,0.118938,-34.6146,0.0237043,
2,0,0,1,0,52411.7,0.0220728,0.02174,-7.38836,27,0.00187576,10,-0.000160623,-2.13145,0.469708,0.12561,-36.216,0.02174,
2,0,0,1,0,52411.7,0.0200752,0.0197354,-7.31612,27,0.00172874,10,-0.000144387,-2.13572,0.44627,0.132207,-37.731,0.0197354,
2,0,0,1,0,52411.7,0.0180776,0.0177465,-7.23767,27,0.00158316,10,-0.000128443,-2.1404,0.476284,0.123876,-35.0298,0.0177465,
2,0,0,1,0,52411.7,0.01608,0.0157354,-7.176,27,0.00143976,10,-0.000112917,-2.14412,0.508973,0.11592,-32.4472,0.0157354,
2,0,0,1,0,52411.8,0.0140824,0.0137279,-7.10728,27,0.00129694,10,-9.75682e-05,-2.1483,0.450146,0.131069,-36.3323,0.0137279,
2,0,0,1,0,52411.8,0.0120848,0.0117208,-7.03014,27,0.00115553,10,-8.23992e-05,-2.15304,0.458006,0.128819,-35.3745,0.0117208,
2,0,0,1,0,52411.8,0.0100872,0.00972913,-6.96583,27,0.00101559,10,-6.77714e-05,-2.15703,0.524982,0.112385,-30.5678,0.00972913,
2,0,0,1,0,52411.8,0.00809193,0.00775599,-6.90894,27,0.000877591,10,-5.35856e-05,-2.16059,0.536078,0.110059,-29.6646,0.00775599,
2,0,0,1,0,52411.8,0.00609208,0.0057336,-6.8473,27,0.000740044,10,-3.92597e-05,-2.16448,0.519684,0.11353,-30.3422,0.0057336,
2,0,0,1,0,52411.9,0.00409449,0.00375893,-6.78766,27,0.000603769,10,-2.55143e-05,-2.16828,0.915929,0.0644155,-17.127,0.00375893,
2,0,0,1,0,52411.9,0.0020969,0.00171528,-6.77848,27,0.000468502,10,-1.1627e-05,-2.16887,0.771694,0.0764551,-20.1313,0.00171528,
2,0,0,1,0,52411.9,9.14991e-05,-0.000288017,-6.70619,27,0.000333744,10,1.93149e-06,-2.17352,0.513323,0.114937,-30.1354,-0.0002880166,
2,0,0,1,0,52411.9,-0.00189827,-0.00227389,-6.65827,27,0.000200707,10,1.51402e-05,-2.17664,0.666418,0.0885331,-23.0127,-0.00227389,
2,0,0,1,0,52411.9,-0.00389586,-0.00426229,-6.61473,27,6.79658e-05,10,2.81939e-05,-2.17949,0.81905,0.0720347,-18.6118,-0.00426229,
2,0,0,1,0,52412,-0.00589345,-0.00633534,-6.58267,27,-6.39784e-05,10,4.17035e-05,-2.1816,0.876137,0.0673411,-17.2923,-0.00633534,
2,0,0,1,0,52412,-0.00789103,-0.00830382,-6.54484,27,-0.000195221,10,5.43472e-05,-2.1841,1.17616,0.0501632,-12.8373,-0.00830382,
2,0,0,1,0,52412,-0.00988862,-0.0102841,-6.53198,27,-0.000325329,10,6.71758e-05,-2.18495,1.58685,0.0371806,-9.46992,-0.0102841,
2,0,0,1,0,52412,-0.0118862,-0.0122211,-6.50775,27,-0.000455702,10,7.95316e-05,-2.18657,1.38654,0.042552,-10.8119,-0.0122211,
2,0,0,1,0,52412,-0.0138838,-0.0142456,-6.48915,27,-0.000585691,10,9.2442e-05,-2.18781,2.2744,0.0259409,-6.5748,-0.0142456,
2,0,0,1,0,52412.1,-0.0158814,-0.0163027,-6.48091,27,-0.00071534,10,0.000105656,-2.18836,11.9701,0.00492894,-1.24778,-0.0163027,
2,0,0,1,0,52412.1,-0.017879,-0.0182749,-6.48412,27,-0.000844312,10,0.000118497,-2.18815,23.071,0.00255732,-0.646694,-0.0182749,
2,0,0,1,0,52412.1,-0.0198766,-0.0202844,-6.47834,27,-0.000973891,10,0.000131409,-2.18854,8.89619,0.00663205,-1.67741,-0.02028444,
2,0,0,1,0,52412.1,-0.0218741,-0.0222479,-6.47746,27,-0.00110336,10,0.00014411,-2.1886,-7.71661,-0.00764585,1.93425,-0.0222479,
2,0,0,1,0,52412.1,-0.0238717,-0.0242841,-6.48607,27,-0.00123298,10,0.000157508,-2.18802,-2.34955,-0.0251112,6.36055,-0.0242841,
2,0,0,1,0,52412.2,-0.0258693,-0.0262815,-6.50311,27,-0.00136223,10,0.000170911,-2.18688,-2.17591,-0.0271152,6.87802,-0.0262815,
2,0,0,1,0,52412.2,-0.0278669,-0.0282245,-6.51318,27,-0.00149234,10,0.000183831,-2.18621,-2.30791,-0.0255642,6.50102,-0.0282245,
2,0,0,1,0,52412.2,-0.0298645,-0.0302651,-6.52901,27,-0.00162273,10,0.000197601,-2.18515,-1.52757,-0.0386235,9.84739,-0.0302651,
2,0,0,1,0,52412.2,-0.0318621,-0.032232,-6.55264,27,-0.00175356,10,0.000211204,-2.18358,-1.12517,-0.0524366,13.4155,-0.03223196,
2,0,0,1,0,52412.2,-0.0338597,-0.0342223,-6.5821,27,-0.0018842,10,0.000225255,-2.18164,-1.09293,-0.0539833,13.8634,-0.0342223,
2,0,0,1,0,52412.3,-0.0358573,-0.0362282,-6.60804,27,-0.00201606,10,0.000239397,-2.17993,-1.03145,-0.0572012,14.7594,-0.0362282,
2,0,0,1,0,52412.3,-0.0378548,-0.0382141,-6.64102,27,-0.00214855,10,0.00025378,-2.17777,-0.969522,-0.0608548,15.7688,-0.03821408,
2,0,0,1,0,52412.3,-0.0398524,-0.0402344,-6.67121,27,-0.00228163,10,0.000268412,-2.1758,-0.777456,-0.0758886,19.786,-0.0402344,
2,0,0,1,0,52412.3,-0.04185,-0.0422276,-6.72043,27,-0.00241474,10,0.000283788,-2.1726,-0.765389,-0.077085,20.1911,-0.0422276,
2,0,0,1,0,52412.3,-0.0438476,-0.0442444,-6.75218,27,-0.00254934,10,0.000298746,-2.17056,-0.964802,-0.0611524,16.1161,-0.0442444,
2,0,0,1,0,52412.4,-0.0458452,-0.0462464,-6.7852,27,-0.00268471,10,0.000313791,-2.16844,-0.819587,-0.0719875,19.0767,-0.0462464,
2,0,0,1,0,52412.4,-0.0478428,-0.0482388,-6.82838,27,-0.00282085,10,0.000329393,-2.16568,-0.62522,-0.0943668,25.173,-0.0482388,
2,0,0,1,0,52412.4,-0.0498495,-0.0502304,-6.88549,27,-0.00295792,10,0.000345861,-2.16207,-0.638829,-0.0923565,24.7895,-0.0502304,
2,0,0,1,0,52412.4,-0.051838,-0.0522192,-6.92705,27,-0.00309536,10,0.000361725,-2.15945,-0.67834,-0.0869771,23.5317,-0.0522192,
2,0,0,1,0,52412.4,-0.0538355,-0.0542296,-6.97959,27,-0.00323437,10,0.0003785,-2.15617,-0.604725,-0.097565,26.578,-0.0542296,
2,0,0,1,0,52412.5,-0.0558331,-0.0562242,-7.0335,27,-0.00337443,10,0.000395453,-2.15283,-0.573849,-0.102815,28.2307,-0.0562242,
2,0,0,1,0,52412.5,-0.0578217,-0.0582111,-7.09199,27,-0.00351491,10,0.000412833,-2.14923,-0.564492,-0.104519,28.9248,-0.0582111,
2,0,0,1,0,52412.5,-0.0598283,-0.0602161,-7.14896,27,-0.00365726,10,0.000430483,-2.14576,-0.527187,-0.111915,31.2477,-0.0602161,
2,0,0,1,0,52412.5,-0.0618259,-0.0622108,-7.21697,27,-0.00380079,10,0.000448974,-2.14164,-0.531024,-0.111106,31.2707,-0.06221078,
2,0,0,1,0,52412.5,-0.0638235,-0.0642397,-7.27478,27,-0.00394559,10,0.00046733,-2.13818,-0.557316,-0.105865,30.063,-0.0642397,
2,0,0,1,0,52412.6,-0.0658211,-0.0661757,-7.33617,27,-0.00409162,10,0.000485477,-2.13453,-0.502844,-0.117333,33.6175,-0.0661757,
2,0,0,1,0,52412.6,-0.0678187,-0.0682198,-7.40858,27,-0.00423831,10,0.000505412,-2.13026,-0.467561,-0.126187,36.491,-0.0682198,
2,0,0,1,0,52412.6,-0.0698162,-0.0702264,-7.48399,27,-0.00438718,10,0.000525574,-2.12587,-0.482314,-0.122327,35.7098,-0.0702264,
2,0,0,1,0,52412.6,-0.0718138,-0.0722331,-7.5519,27,-0.00453747,10,0.000545497,-2.12194,-0.471568,-0.125114,36.901,-0.0722331,
2,0,0,1,0,52412.6,-0.0738114,-0.0742136,-7.63112,27,-0.00468923,10,0.000566333,-2.11741,-0.426298,-0.138401,41.2278,-0.0742136,
2,0,0,1,0,52412.7,-0.075809,-0.0761758,-7.71444,27,-0.00484197,10,0.000587654,-2.1127,-0.424675,-0.13893,41.8249,-0.0761758,
2,0,0,1,0,52412.7,-0.0778066,-0.0781882,-7.79735,27,-0.00499711,10,0.000609661,-2.10805,-0.435673,-0.135423,41.2119,-0.0781882,
2,0,0,1,0,52412.7,-0.0798042,-0.0802314,-7.88158,27,-0.00515386,10,0.00063235,-2.10339,-0.40388,-0.146083,44.9613,-0.0802314,
2,0,0,1,0,52412.7,-0.0818018,-0.0821618,-7.97601,27,-0.00531239,10,0.000655324,-2.09821,-0.376763,-0.156597,48.7609,-0.0821618,
2,0,0,1,0,52412.7,-0.0837994,-0.0842253,-8.07633,27,-0.00547205,10,0.000680232,-2.09279,-0.393132,-0.150077,47.2725,-0.0842253,
2,0,0,1,0,52412.8,-0.085797,-0.0861992,-8.16687,27,-0.00563436,10,0.000703978,-2.08794,-0.39113,-0.150845,48.099,-0.0861992,
2,0,0,1,0,52412.8,-0.0877945,-0.0881507,-8.26514,27,-0.00579862,10,0.000728577,-2.08275,-0.378272,-0.155972,50.3202,-0.0881507,
2,0,0,1,0,52412.8,-0.0897921,-0.0901822,-8.3673,27,-0.00596486,10,0.000754581,-2.07741,-0.380198,-0.155182,50.6727,-0.0901822,
2,0,0,1,0,52412.8,-0.0917897,-0.0921865,-8.46965,27,-0.00613225,10,0.000780787,-2.07213,-0.390843,-0.150956,49.884,-0.0921865,
2,0,0,1,0,52412.8,-0.0937873,-0.0942098,-8.56821,27,-0.00630258,10,0.000807209,-2.06711,-0.399444,-0.147705,49.3873,-0.0942098,
2,0,0,1,0,52412.9,-0.0957849,-0.0961654,-8.66615,27,-0.00647491,10,0.000833384,-2.06217,-0.395434,-0.149203,50.4661,-0.0961654,
2,0,0,1,0,52412.9,-0.0977825,-0.0981318,-8.76614,27,-0.00664921,10,0.000860237,-2.05719,-0.39087,-0.150945,51.6484,-0.0981318,
2,0,0,1,0,52412.9,-0.0997501,-0.100104,-8.86957,27,-0.00682197,10,0.000887878,-2.0521,0.0107979,5.46402,-1686.71,-0.100104,
2,0,0,1,1,52412.9,-0.0987313,-0.0991131,-7.11106,27,-0.00694365,10,0.000704799,-2.14807,-0.0139119,-4.24098,1160.39,-0.0991131,
2,0,0,1,1,52412.9,-0.0967337,-0.0971415,-5.43204,27,-0.00706773,10,0.000527676,-2.26504,-0.0172131,-3.42762,735.803,-0.0971415,
2,0,0,1,1,52413,-0.0947362,-0.0950939,-4.15374,27,-0.00716283,10,0.000394995,-2.38156,-0.0166133,-3.55137,576.883,-0.0950939,
2,0,0,1,1,52413,-0.0927386,-0.0931123,-3.10768,27,-0.00723485,10,0.000289363,-2.50756,-0.0145468,-4.05587,488.015,-0.09311229,
2,0,0,1,1,52413,-0.090741,-0.09112,-2.21441,27,-0.00728734,10,0.000201777,-2.65474,-0.012159,-4.85237,412.618,-0.09112,
2,0,0,1,1,52413,-0.0887434,-0.0891108,-1.45661,27,-0.00732369,10,0.0001298,-2.83666,-0.00892584,-6.61003,354.673,-0.0891108,
2,0,0,1,1,52413,-0.0867458,-0.0870764,-0.780252,27,-0.00734568,10,6.79415e-05,-3.10776,-0.0045056,-13.0948,318.976,-0.0870764,
2,0,0,1,1,52413.1,-0.0847482,-0.0851465,-0.192075,27,-0.00735504,10,1.63545e-05,-3.71653,-0.0107253,-5.50099,285.206,-0.0851465,
2,1,0,1,1,52413.1,-0.0827529,-0.0831604,0.336606,27,-0.00735335,10,-2.79923e-05,-3.47288,0.0064183,9.19246,249.785,-0.0831604,
2,1,0,1,1,52413.1,-0.080753,-0.0811363,0.809611,27,-0.00734163,10,-6.56889e-05,-3.09172,0.00714545,8.257,221.826,-0.0811363,
2,1,0,1,1,52413.1,-0.0787555,-0.0791469,1.22691,27,-0.007321,10,-9.71063e-05,-2.91119,0.0134308,4.3929,198.957,-0.0791469,
2,1,0,1,1,52413.1,-0.0767579,-0.0771609,1.60054,27,-0.00729242,10,-0.000123499,-2.79573,0.0196976,2.99529,182.778,-0.0771609,
2,1,0,1,1,52413.2,-0.0747603,-0.0751533,1.95685,27,-0.00725658,10,-0.000147064,-2.70844,0.0263228,2.2414,167.842,-0.0751533,
2,1,0,1,1,52413.2,-0.0727627,-0.0731331,2.27658,27,-0.00721413,10,-0.000166493,-2.64272,0.0345878,1.7058,149.374,-0.0731331,
2,1,0,1,1,52413.2,-0.0707651,-0.0711322,2.55749,27,-0.00716556,10,-0.00018192,-2.59219,0.0429764,1.37285,135.949,-0.07113225,
2,1,0,1,1,52413.2,-0.0687675,-0.0691546,2.81745,27,-0.00711158,10,-0.00019484,-2.55014,0.0513081,1.14992,125.633,-0.0691546,
2,1,0,1,1,52413.2,-0.0667699,-0.0671625,3.05622,27,-0.00705259,10,-0.000205264,-2.51482,0.0604996,0.975213,115.773,-0.0671625,
2,1,0,1,1,52413.3,-0.0647723,-0.0651771,3.27794,27,-0.00698929,10,-0.000213646,-2.4844,0.0722263,0.816877,103.91,-0.06517712,
2,1,0,1,1,52413.3,-0.0627748,-0.0631673,3.47136,27,-0.00692161,10,-0.000219277,-2.4595,0.0839802,0.702546,94.9583,-0.0631673,
2,1,0,1,1,52413.3,-0.0607772,-0.0612,3.65559,27,-0.00685009,10,-0.000223722,-2.43704,0.0951299,0.620205,88.2271,-0.0612,
2,1,0,1,1,52413.3,-0.0587796,-0.0591655,3.82443,27,-0.00677509,10,-0.000226274,-2.41743,0.112834,0.522891,77.7791,-0.0591655,
2,1,0,1,1,52413.3,-0.056782,-0.0571367,3.97164,27,-0.00669732,10,-0.000226926,-2.40103,0.130365,0.452574,70.0215,-0.0571367,
2,1,0,1,1,52413.4,-0.0547844,-0.0551192,4.10776,27,-0.00661631,10,-0.000226416,-2.3864,0.143986,0.409761,65.5817,-0.0551192,
2,1,0,1,1,52413.4,-0.0527868,-0.0531495,4.23312,27,-0.00653271,10,-0.000224988,-2.37334,0.163937,0.359894,59.3306,-0.0531495,
2,1,0,1,1,52413.4,-0.0507892,-0.0511586,4.34274,27,-0.00644681,10,-0.000222169,-2.36224,0.178401,0.330716,56.0666,-0.0511586,
2,1,0,1,1,52413.4,-0.0487916,-0.049162,4.45669,27,-0.00635909,10,-0.0002191,-2.35099,0.204075,0.28911,50.1205,-0.049162,
2,1,0,1,1,52413.4,-0.0467941,-0.0471639,4.54296,27,-0.00626897,10,-0.000214264,-2.34266,0.254067,0.232222,41.1257,-0.0471639,
2,1,0,1,1,52413.5,-0.0447965,-0.0451931,4.61991,27,-0.00617715,10,-0.000208788,-2.33537,0.270569,0.218059,39.323,-0.0451931,
2,1,0,1,1,52413.5,-0.0427989,-0.0431868,4.69935,27,-0.00608377,10,-0.00020295,-2.32796,0.284009,0.20774,38.0754,-0.0431868,
2,1,0,1,1,52413.5,-0.0408013,-0.041156,4.77363,27,-0.00598935,10,-0.000196463,-2.32115,0.340899,0.173072,32.1788,-0.04115602,
2,1,0,1,1,52413.5,-0.0388037,-0.0391444,4.82943,27,-0.00589316,10,-0.000189045,-2.3161,0.399059,0.147848,27.861,-0.0391444,
2,1,0,1,1,52413.5,-0.0368061,-0.0371975,4.88392,27,-0.00579589,10,-0.000181669,-2.31123,0.434725,0.135718,25.8482,-0.0371975,
2,1,0,1,1,52413.6,-0.0348085,-0.0352095,4.93114,27,-0.00569756,10,-0.000173623,-2.30705,0.491854,0.119954,23.0805,-0.0352095,
2,1,0,1,1,52413.6,-0.0328109,-0.0331729,4.9768,27,-0.00559885,10,-0.000165095,-2.30305,0.599893,0.0983508,19.0733,-0.0331729,
2,1,0,1,1,52413.6,-0.0308134,-0.0312117,5.00739,27,-0.00549888,10,-0.000156289,-2.30039,0.710979,0.0829841,16.2224,-0.0312117,
2,1,0,1,1,52413.6,-0.0288158,-0.0291858,5.04148,27,-0.00539823,10,-0.00014714,-2.29744,0.83883,0.070336,13.8215,-0.0291858,
2,1,0,1,1,52413.6,-0.0268182,-0.0271851,5.06305,27,-0.00529702,10,-0.000137639,-2.29559,0.902953,0.0653412,12.9221,-0.0271851,
2,1,0,1,1,52413.7,-0.0248138,-0.0251709,5.09337,27,-0.00519537,10,-0.000128205,-2.293,1.04804,0.0562954,11.1729,-0.0251709,
2,1,0,1,1,52413.7,-0.022823,-0.0231666,5.10794,27,-0.00509373,10,-0.000118334,-2.29175,1.43311,0.0411691,8.20971,-0.0231666,
2,1,0,1,1,52413.7,-0.0208254,-0.0211965,5.12599,27,-0.00499121,10,-0.000108653,-2.29022,2.03381,0.0290095,5.79597,-0.0211965,
2,1,0,1,1,52413.7,-0.0188278,-0.0191994,5.13094,27,-0.00488851,10,-9.85108e-05,-2.2898,2.39958,0.0245876,4.9281,-0.0191994,
2,1,0,1,1,52413.7,-0.0168393,-0.0172536,5.14543,27,-0.00478613,10,-8.87772e-05,-2.28858,1.91782,0.0307641,6.17506,-0.0172536,
2,1,0,1,1,52413.8,-0.0148327,-0.0152239,5.15549,27,-0.00468292,10,-7.84864e-05,-2.28773,4.9987,0.0118031,2.37238,-0.01522385,
2,1,0,1,1,52413.8,-0.0128351,-0.0132166,5.155,27,-0.00457967,10,-6.81318e-05,-2.28777,26.5837,0.0022194,0.446628,-0.0132166,
2,1,0,1,1,52413.8,-0.0108375,-0.0111786,5.15729,27,-0.00447638,10,-5.76515e-05,-2.28758,7.2756,0.00810929,1.63249,-0.0111786,
2,1,0,1,1,52413.8,-0.00883989,-0.00921438,5.16154,27,-0.00437299,10,-4.75604e-05,-2.28722,6.66153,0.00885683,1.78386,-0.00921438,
2,1,0,1,1,52413.8,-0.0068423,-0.00722664,5.16434,27,-0.00427001,10,-3.73208e-05,-2.28698,47.054,0.00125388,0.252604,-0.00722664,
2,1,0,1,1,52413.9,-0.00484471,-0.0052457,5.16254,27,-0.00416658,10,-2.70812e-05,-2.28714,27.7978,0.00212247,0.427852,-0.0052457,
2,1,0,1,1,52413.9,-0.00284713,-0.00318759,5.16607,27,-0.00406314,10,-1.64673e-05,-2.28684,-12.154,-0.00485435,-0.977673,-0.00318759,
2,1,0,1,1,52413.9,-0.000849538,-0.00123612,5.15862,27,-0.00395973,10,-6.37668e-06,-2.28747, , , ,-0.00123612,
2,1,0,1,1,52413.9,-2.55332e-05,-0.000401673,5.1784,27,-0.00391792,10,-2.08002e-06,-2.2858, , , ,-0.000401673,