File: Figure_codes/Fig_3-5/rawdata_trumpetplot_data/after 10th/20221101_1-115_003_TrumpetPlot_ParaChange_from10_every3_13_CV_C01_28.csv
mode,ox/red,error,control changes,counter inc.,time/s,control/V,Ewe/V,<I>/mA,cycle number,(Q-Qo)/C,I Range,P/W,log(|I|),Tafel slope mV/dec,alpha_eff,dI/d(E-IR),E-IR/V,
2,1,0,1,0,56361.5,2.44065e-05,-0.000325324,14.6953,29,0.0000000E+000,10,-4.78074e-06,-1.83282, , , ,-0.000325324,
2,1,0,1,0,56361.5,0.00266289,0.00224086,15.8622,29,4.78675e-05,10,3.55449e-05,-1.79964, , , ,0.00224086,
2,1,0,1,0,56361.5,0.00586735,0.00547934,16.8525,29,0.000113465,10,9.23407e-05,-1.77334, , , ,0.00547934,
2,1,0,1,0,56361.5,0.00906349,0.00867541,17.72,29,0.000182717,10,0.000153728,-1.75154,0.153099,0.385372,263.208,0.00867541,
2,1,0,1,0,56361.5,0.0122624,0.0118715,18.5069,29,0.000255273,10,0.000219704,-1.73267,0.174538,0.338035,242.118,0.0118715,
2,1,0,1,0,56361.5,0.0154641,0.0151057,19.2483,29,0.000330888,10,0.000290759,-1.71561,0.19577,0.301374,224.973,0.0151057,
2,1,0,1,0,56361.5,0.0186602,0.0182297,19.9396,29,0.000409357,10,0.000363492,-1.70028,0.213462,0.276395,214.057,0.0182297,
2,1,0,1,0,56361.5,0.0218675,0.0215127,20.608,29,0.000490538,10,0.000443334,-1.68596,0.230763,0.255673,204.82,0.0215127,
2,1,0,1,0,56361.5,0.0250636,0.024661,21.2446,29,0.000574328,10,0.000523913,-1.67275,0.248901,0.237042,195.863,0.024661,
2,1,0,1,0,56361.5,0.0282597,0.0278613,21.8609,29,0.000660614,10,0.000609074,-1.66033,0.26593,0.221863,188.691,0.0278613,
2,1,0,1,0,56361.5,0.031467,0.0310691,22.4544,29,0.00074934,10,0.000697636,-1.6487,0.283651,0.208002,181.754,0.0310691,
2,1,0,1,0,56361.6,0.0346631,0.0343023,23.0213,29,0.000840346,10,0.000789682,-1.63787,0.299915,0.196722,176.367,0.0343023,
2,1,0,1,0,56361.6,0.0378704,0.0374877,23.5759,29,0.000933587,10,0.000883805,-1.62753,0.316989,0.186126,170.931,0.0374877,
2,1,0,1,0,56361.6,0.0410665,0.0406721,24.1203,29,0.00102902,10,0.000981024,-1.61762,0.331714,0.177864,167.119,0.0406721,
2,1,0,1,0,56361.6,0.0442626,0.0438703,24.6425,29,0.00112661,10,0.00108107,-1.60832,0.347823,0.169627,162.871,0.0438703,
2,1,0,1,0,56361.6,0.0474671,0.0471077,25.1613,29,0.00122628,10,0.00118529,-1.59927,0.3636,0.162266,159.101,0.0471077,
2,1,0,1,0,56361.6,0.0506632,0.0502794,25.6593,29,0.00132797,10,0.00129013,-1.59076,0.376884,0.156547,156.596,0.0502794,
2,1,0,1,0,56361.6,0.0538621,0.0534553,26.1541,29,0.00143165,10,0.00139808,-1.58246,0.390113,0.151238,154.254,0.0534553,
2,1,0,1,0,56361.6,0.0570638,0.0566673,26.6465,29,0.00153732,10,0.00150998,-1.57436,0.403178,0.146337,152.041,0.0566673,
2,1,0,1,0,56361.6,0.06026,0.0598846,27.1322,29,0.00164495,10,0.0016248,-1.56651,0.416175,0.141767,149.966,0.0598846,
2,1,0,1,0,56361.6,0.0634672,0.0631018,27.6088,29,0.0017545,10,0.00174217,-1.55895,0.427262,0.138088,148.669,0.0631018,
2,1,0,1,0,56361.6,0.0666633,0.0662926,28.0793,29,0.00186593,10,0.00186145,-1.55161,0.435844,0.13537,148.293,0.0662926,
2,1,0,1,0,56361.6,0.0698595,0.0694621,28.5486,29,0.00197925,10,0.00198305,-1.54441,0.444054,0.132867,148.005,0.0694621,
2,1,0,1,0,56361.6,0.0730667,0.072672,29.0285,29,0.00209447,10,0.00210956,-1.53718,0.452334,0.130435,147.691,0.072672,
2,1,0,1,0,56361.6,0.0762629,0.0758638,29.4976,29,0.00221157,10,0.0022378,-1.53021,0.463671,0.127245,146.392,0.0758638,
2,1,0,1,0,56361.6,0.0794701,0.07908,29.9679,29,0.00233055,10,0.00236986,-1.52334,0.474393,0.124369,145.362,0.07908,
2,1,0,1,0,56361.6,0.0826662,0.0823068,30.429,29,0.00245138,10,0.00250452,-1.51671,0.480774,0.122719,145.702,0.0823068,
2,1,0,1,0,56361.6,0.0858624,0.0854616,30.8876,29,0.00257406,10,0.0026397,-1.51022,0.484785,0.121703,146.746,0.0854616,
2,1,0,1,0,56361.6,0.0890668,0.0886852,31.3657,29,0.00269863,10,0.00278168,-1.50354,0.491393,0.120067,146.943,0.0886852,
2,1,0,1,0,56361.6,0.092263,0.0918569,31.8428,29,0.00282508,10,0.00292498,-1.49699,0.499306,0.118164,146.734,0.0918569,
2,1,0,1,0,56361.6,0.0954674,0.0950932,32.3079,29,0.00295343,10,0.00307226,-1.49069,0.509934,0.115701,145.799,0.0950932,
2,1,0,1,0,56361.6,0.0986636,0.0982787,32.7683,29,0.00308362,10,0.00322043,-1.48455,0.517448,0.114021,145.827,0.0982787,
2,1,0,1,0,56361.6,0.10186,0.101472,33.23,29,0.00321568,10,0.0033719,-1.47847,0.521754,0.11308,146.679,0.101472,
2,1,0,1,0,56361.6,0.105067,0.104708,33.7169,29,0.00334962,10,0.00353042,-1.47215,0.524549,0.112477,147.952,0.104708,
2,1,0,1,0,56361.6,0.108263,0.107879,34.1832,29,0.00348548,10,0.00368764,-1.46619,0.531233,0.111062,148.101,0.107879,
2,1,0,1,0,56361.6,0.111465,0.111058,34.659,29,0.00362321,10,0.00384915,-1.46018,0.538641,0.109535,148.126,0.111058,
2,1,0,1,0,56361.7,0.114666,0.114265,35.1248,29,0.00376283,10,0.00401354,-1.45439,0.542728,0.10871,149.033,0.114265,
2,1,0,1,0,56361.7,0.117863,0.117435,35.6021,29,0.00390433,10,0.00418093,-1.44852,0.548241,0.107617,149.544,0.117435,
2,1,0,1,0,56361.7,0.12107,0.120667,36.0891,29,0.00404776,10,0.00435477,-1.44262,0.551137,0.107051,150.736,0.120667,
2,1,0,1,0,56361.7,0.124266,0.123838,36.5702,29,0.00419311,10,0.00452876,-1.43687,0.549371,0.107396,153.288,0.123838,
2,1,0,1,0,56361.7,0.127462,0.127049,37.0516,29,0.00434041,10,0.00470736,-1.43119,0.552154,0.106854,154.586,0.127049,
2,1,0,1,0,56361.7,0.130667,0.130213,37.5608,29,0.00448967,10,0.00489089,-1.42527,0.543925,0.108471,159.086,0.130213,
2,1,0,1,0,56361.7,0.133863,0.133464,38.0674,29,0.00464098,10,0.00508062,-1.41945,0.541975,0.108861,161.783,0.133464,
2,1,0,1,0,56361.7,0.137067,0.136647,38.608,29,0.00479437,10,0.00527568,-1.41332,0.544357,0.108385,163.275,0.136647,
2,1,0,1,0,56361.7,0.140263,0.139876,39.1269,29,0.00494991,10,0.00547293,-1.40752,0.54319,0.108618,165.827,0.139876,
2,1,0,1,0,56361.7,0.143459,0.143059,39.6581,29,0.00510754,10,0.00567344,-1.40167,0.554535,0.106395,164.633,0.1430586,
2,1,0,1,0,56361.7,0.146667,0.146267,40.1905,29,0.00526731,10,0.00587856,-1.39588,0.56337,0.104727,164.145,0.146267,
2,1,0,1,0,56361.7,0.149863,0.149405,40.7084,29,0.00542918,10,0.00608204,-1.39032,0.553933,0.106511,169.295,0.149405,
2,1,0,1,0,56361.7,0.153064,0.152587,41.2134,29,0.00559307,10,0.00628865,-1.38496,0.561881,0.105005,169.094,0.152587,
2,1,0,1,0,56361.7,0.156266,0.155803,41.8156,29,0.0057592,10,0.00651498,-1.37866,0.562464,0.104896,171.105,0.155803,
2,1,0,1,0,56361.7,0.159462,0.15906,42.3537,29,0.0059276,10,0.00673678,-1.37311,0.569058,0.10368,171.164,0.15906,
2,1,0,1,0,56361.7,0.16267,0.162238,42.9042,29,0.00609818,10,0.00696069,-1.3675,0.602098,0.0979907,163.907,0.162238,
2,1,0,1,0,56361.7,0.165866,0.165409,43.408,29,0.00627087,10,0.00718006,-1.36243,0.626456,0.0941806,159.402,0.165409,
2,1,0,1,0,56361.7,0.169062,0.168646,43.9208,29,0.00644557,10,0.00740707,-1.35733,0.660452,0.0893328,152.973,0.1686462,
2,1,0,1,0,56361.7,0.172266,0.171888,44.3985,29,0.00662227,10,0.00763156,-1.35263,0.690364,0.0854622,147.925,0.171888,
2,1,0,1,0,56361.7,0.175462,0.175059,44.8653,29,0.00680086,10,0.00785406,-1.34809,0.732782,0.0805151,140.827,0.1750585,
2,1,0,1,0,56361.7,0.178667,0.17825,45.3076,29,0.00698125,10,0.00807608,-1.34383,0.774123,0.0762153,134.599,0.1782503,
2,1,0,1,0,56361.7,0.181863,0.181465,45.7261,29,0.00716338,10,0.00829771,-1.33984,0.82889,0.0711795,126.876,0.181465,
2,1,0,1,0,56361.7,0.185059,0.184649,46.1161,29,0.00734712,10,0.00851528,-1.33615,0.911683,0.0647155,116.303,0.1846488,
2,1,0,1,0,56361.7,0.188266,0.187869,46.4907,29,0.00753239,10,0.00873418,-1.33263,1.01563,0.058092,105.189,0.187869,
2,1,0,1,0,56361.7,0.191463,0.191064,46.7978,29,0.00771902,10,0.0089414,-1.32977,1.17124,0.0503739,91.816,0.191064,
2,1,0,1,0,56361.8,0.194664,0.194287,47.0748,29,0.00790679,10,0.00914601,-1.32721,1.39658,0.042246,77.4656,0.194287,
2,1,0,1,0,56361.8,0.197866,0.197499,47.2959,29,0.00809558,10,0.00934088,-1.32518,1.69248,0.0348602,64.2259,0.197499,
2,1,0,1,0,56361.8,0.201062,0.200676,47.4828,29,0.00828517,10,0.00952865,-1.32346,2.2082,0.0267186,49.4156,0.2006758,
2,1,0,1,0,56361.8,0.204269,0.203878,47.6208,29,0.0084754,10,0.00970885,-1.3222,3.19703,0.0184546,34.221,0.203878,
2,1,0,1,0,56361.8,0.207465,0.207074,47.7067,29,0.00866607,10,0.00987882,-1.32142,6.0217,0.00979789,18.2011,0.207074,
2,1,0,1,0,56361.8,0.210662,0.210274,47.7331,29,0.00885695,10,0.010037,-1.32118,53.3775,0.00110533,2.05482,0.210274,
2,1,0,1,0,56361.8,0.213866,0.213512,47.7164,29,0.00904788,10,0.010188,-1.32133,-8.65896,-0.00681375,-12.6645,0.213512,
2,1,0,1,0,56361.8,0.217062,0.216672,47.6471,29,0.00923861,10,0.0103238,-1.32196,-3.86334,-0.0152718,-28.3407,0.216672,
2,1,0,1,0,56361.8,0.220267,0.219912,47.5441,29,0.00942898,10,0.0104555,-1.3229,-2.48434,-0.0237488,-43.9644,0.219912,
2,1,0,1,0,56361.8,0.223463,0.223119,47.369,29,0.00961882,10,0.0105689,-1.32451,-1.85443,-0.0318157,-58.6931,0.223119,
2,1,0,1,0,56361.8,0.226659,0.226298,47.1543,29,0.00980787,10,0.0106709,-1.32648,-1.46363,-0.0403108,-74.047,0.226298,
2,1,0,1,0,56361.8,0.229866,0.229502,46.8941,29,0.00999597,10,0.0107623,-1.32888,-1.22728,-0.048074,-87.8138,0.229502,
2,1,0,1,0,56361.8,0.233062,0.232738,46.5943,29,0.0101829,10,0.0108443,-1.33167,-1.05388,-0.0559835,-101.599,0.232738,
2,1,0,1,0,56361.8,0.236264,0.235922,46.2448,29,0.0103686,10,0.0109101,-1.33494,-0.917323,-0.0643176,-115.844,0.235922,
2,1,0,1,0,56361.8,0.239466,0.239094,45.8542,29,0.0105528,10,0.0109635,-1.33862,-0.823164,-0.0716747,-128.035,0.2390943,
2,1,0,1,0,56361.8,0.242662,0.242263,45.4158,29,0.0107353,10,0.0110026,-1.34279,-0.740905,-0.0796323,-140.913,0.2422628,
2,1,0,1,0,56361.8,0.245869,0.24551,44.9591,29,0.010916,10,0.0110379,-1.34718,-0.688302,-0.0857181,-150.152,0.24551,
2,1,0,1,0,56361.8,0.249065,0.248653,44.4508,29,0.0110948,10,0.0110528,-1.35212,-0.642705,-0.0917995,-159.024,0.2486528,
2,1,0,1,0,56361.8,0.252261,0.251922,43.9281,29,0.0112715,10,0.0110665,-1.35726,-0.60147,-0.098093,-167.962,0.251922,
2,1,0,1,0,56361.8,0.255466,0.255099,43.3745,29,0.0114461,10,0.0110648,-1.36277,-0.572599,-0.103039,-174.211,0.255099,
2,1,0,1,0,56361.8,0.258662,0.258324,42.8069,29,0.0116184,10,0.011058,-1.36849,-0.544986,-0.10826,-180.677,0.258324,
2,1,0,1,0,56361.8,0.261866,0.2615,42.2127,29,0.0117883,10,0.0110386,-1.37456,-0.52738,-0.111874,-184.179,0.2615,
2,1,0,1,0,56361.8,0.265063,0.264699,41.6196,29,0.011956,10,0.0110167,-1.3807,-0.510757,-0.115515,-187.537,0.264699,
2,1,0,1,0,56361.8,0.268259,0.267908,41.0155,29,0.0121212,10,0.0109884,-1.38705,-0.500292,-0.117931,-188.669,0.267908,
2,1,0,1,0,56361.8,0.271466,0.271079,40.4147,29,0.012284,10,0.0109556,-1.39346,-0.490926,-0.120181,-189.482,0.271079,
2,1,0,1,0,56361.9,0.274662,0.274305,39.7967,29,0.0124444,10,0.0109164,-1.40015,-0.485354,-0.121561,-188.798,0.274305,
2,1,0,1,0,56361.9,0.277869,0.277458,39.2021,29,0.0126023,10,0.0108769,-1.40669,-0.483744,-0.121965,-186.607,0.277458,
2,1,0,1,0,56361.9,0.281065,0.280696,38.601,29,0.0127578,10,0.0108352,-1.4134,-0.484345,-0.121814,-183.544,0.280696,
2,1,0,1,0,56361.9,0.284262,0.283928,38.017,29,0.012911,10,0.0107941,-1.42002,-0.484998,-0.12165,-180.541,0.2839283,
2,1,0,1,0,56361.9,0.287469,0.287127,37.4434,29,0.0130619,10,0.010751,-1.42662,-0.484143,-0.121865,-178.101,0.287127,
2,1,0,1,0,56361.9,0.290665,0.290335,36.8771,29,0.0132105,10,0.0107067,-1.43324,-0.489142,-0.120619,-173.671,0.290335,
2,1,0,1,0,56361.9,0.293861,0.293518,36.3175,29,0.0133568,10,0.0106598,-1.43988,-0.491638,-0.120007,-170.496,0.293518,
2,1,0,1,0,56361.9,0.297066,0.29674,35.792,29,0.013501,10,0.0106209,-1.44621,-0.483809,-0.121949,-171.714,0.29674,
2,1,0,1,0,56361.9,0.299638,0.299212,35.3829,29,0.0136149,10,0.010587,-1.45121,-0.144328,-0.408792,-555.757,0.299212,
2,1,0,1,0,56361.9,0.300012,0.299556,35.2939,29,0.0136325,10,0.0105725,-1.4523,0.0131152,4.49858,5663.3,0.2995556,
2,1,0,1,0,56361.9,0.298983,0.298778,33.3939,29,0.0136764,10,0.00997736,-1.47633,0.0486867,1.21183,1426.97,0.298778,
2,1,0,1,0,56361.9,0.295787,0.295534,28.9637,29,0.0138003,10,0.00855976,-1.53815,0.0534661,1.1035,1223.85,0.295534,
2,1,0,1,0,56361.9,0.292579,0.292286,25.5003,29,0.0139087,10,0.00745339,-1.59345,0.0569736,1.03557,1052.07,0.292286,
2,1,0,1,0,56361.9,0.289383,0.289101,22.4989,29,0.0140043,10,0.00650445,-1.64784,0.0581178,1.01518,899.234,0.289101,
2,1,0,1,0,56361.9,0.286187,0.285895,19.8402,29,0.0140886,10,0.00567223,-1.70245,0.0568724,1.03741,805.986,0.285895,
2,1,0,1,0,56361.9,0.282983,0.282682,17.4066,29,0.0141628,10,0.00492055,-1.75929,0.0547868,1.0769,731.632,0.282682,
2,1,0,1,0,56361.9,0.279786,0.279505,15.1989,29,0.0142278,10,0.00424817,-1.81819,0.0522044,1.13017,668.386,0.279505,
2,1,0,1,0,56361.9,0.276582,0.276323,13.1502,29,0.0142842,10,0.0036337,-1.88107,0.0487747,1.20964,616.981,0.276323,
2,1,0,1,0,56361.9,0.273386,0.273074,11.2706,29,0.0143328,10,0.00307771,-1.94805,0.0450662,1.30919,569.738,0.273074,
2,1,0,1,0,56361.9,0.27019,0.2699,9.52027,29,0.0143742,10,0.00256952,-2.02135,0.0408155,1.44553,527.797,0.2699,
2,1,0,1,0,56361.9,0.266982,0.266685,7.89468,29,0.0144088,10,0.00210539,-2.10267,0.0357033,1.65251,495.054,0.266685,
2,1,0,1,0,56361.9,0.263786,0.263482,6.37248,29,0.0144371,10,0.00167903,-2.19569,0.0304662,1.93657,460.2,0.263482,
2,1,0,1,0,56361.9,0.260585,0.26029,4.94172,29,0.0144596,10,0.00128628,-2.30612,0.0244419,2.41389,431.945,0.26029,
2,1,0,1,0,56361.9,0.257383,0.25704,3.60182,29,0.0144765,10,0.000925809,-2.44348,0.0174765,3.37596,404.517,0.25704,
2,1,0,1,0,56361.9,0.254187,0.253876,2.36205,29,0.0144883,10,0.000599668,-2.62671,0.00673418,8.76128,380.352,0.253876,
2,1,0,1,0,56361.9,0.25098,0.250623,1.17097,29,0.0144953,10,0.000293473,-2.93145,0.0227045,2.59861,359.857,0.250623,
2,1,0,1,0,56361.9,0.247783,0.247459,0.0614514,29,0.0144976,10,1.52067e-05,-4.21147,0.166947,0.353405,338.838,0.247459,
2,0,0,1,0,56362,0.244587,0.244285,-0.988001,29,0.0144956,10,-0.000241354,-3.00524,-0.0321528,-1.83499,320.909,0.244285,
2,0,0,1,0,56362,0.241383,0.241063,-1.97943,29,0.0144896,10,-0.000477169,-2.70346,-0.00716522,-8.23422,301.273,0.241063,
2,0,0,1,0,56362,0.238187,0.237896,-2.91323,29,0.0144797,10,-0.000693047,-2.53562,-0.0190966,-3.08955,285.281,0.237896,
2,0,0,1,0,56362,0.234982,0.234618,-3.80704,29,0.0144661,10,-0.0008932,-2.41941,-0.0291814,-2.02184,270.355,0.234618,
2,0,0,1,0,56362,0.231786,0.231429,-4.65568,29,0.0144491,10,-0.00107746,-2.33202,-0.0389995,-1.51284,257.466,0.231429,
2,0,0,1,0,56362,0.22859,0.22823,-5.44892,29,0.0144288,10,-0.00124361,-2.26369,-0.0488716,-1.20725,245.714,0.22823,
2,0,0,1,0,56362,0.225383,0.225041,-6.22304,29,0.0144054,10,-0.00140044,-2.206,-0.0592881,-0.995141,234.116,0.225041,
2,0,0,1,0,56362,0.222187,0.221892,-6.93398,29,0.014379,10,-0.0015386,-2.15902,-0.069753,-0.845842,223.738,0.221892,
2,0,0,1,0,56362,0.218979,0.218652,-7.64694,29,0.0143497,10,-0.00167202,-2.11651,-0.0811811,-0.72677,212.778,0.2186518,
2,0,0,1,0,56362,0.215783,0.215457,-8.30686,29,0.0143177,10,-0.00178977,-2.08056,-0.0921059,-0.640567,204.407,0.2154568,
2,0,0,1,0,56362,0.212587,0.212249,-8.94483,29,0.0142832,10,-0.00189853,-2.04843,-0.104324,-0.565546,195.053,0.212249,
2,0,0,1,0,56362,0.20938,0.209049,-9.55931,29,0.0142461,10,-0.00199836,-2.01957,-0.116459,-0.506616,186.91,0.209049,
2,0,0,1,0,56362,0.206184,0.205843,-10.1453,29,0.0142066,10,-0.00208834,-1.99373,-0.128308,-0.45983,180.49,0.205843,
2,0,0,1,0,56362,0.202988,0.202648,-10.7009,29,0.0141649,10,-0.00216852,-1.97058,-0.141569,-0.416759,172.86,0.202648,
2,0,0,1,0,56362,0.199783,0.199428,-11.259,29,0.0141209,10,-0.00224535,-1.9485,-0.153589,-0.384141,167.687,0.199428,
2,0,0,1,0,56362,0.196587,0.196241,-11.7732,29,0.0140748,10,-0.00231039,-1.9291,-0.166933,-0.353434,161.439,0.196241,
2,0,0,1,0,56362,0.193382,0.19303,-12.2939,29,0.0140266,10,-0.00237309,-1.91031,-0.181059,-0.32586,155.461,0.19303,
2,0,0,1,0,56362,0.190186,0.189844,-12.7681,29,0.0139764,10,-0.00242394,-1.89388,-0.193117,-0.305515,151.641,0.189844,
2,0,0,1,0,56362,0.18699,0.186663,-13.2435,29,0.0139243,10,-0.00247206,-1.878,-0.207569,-0.284243,146.551,0.1866625,
2,0,0,1,0,56362,0.183783,0.183455,-13.7122,29,0.0138704,10,-0.00251556,-1.86289,-0.218112,-0.270503,144.332,0.183455,
2,0,0,1,0,56362,0.180587,0.18021,-14.1727,29,0.0138145,10,-0.00255406,-1.84855,-0.231301,-0.255079,140.628,0.18021,
2,0,0,1,0,56362,0.17738,0.177032,-14.6172,29,0.0137569,10,-0.00258771,-1.83514,-0.243836,-0.241966,137.62,0.177032,
2,0,0,1,0,56362,0.174183,0.173832,-15.0478,29,0.0136975,10,-0.00261579,-1.82253,-0.253243,-0.232978,136.643,0.173832,
2,0,0,1,0,56362,0.170987,0.17068,-15.4702,29,0.0136365,10,-0.00264046,-1.8105,-0.265778,-0.22199,133.919,0.17068,
2,0,0,1,0,56362,0.16778,0.167441,-15.9175,29,0.0135737,10,-0.00266524,-1.79812,-0.273735,-0.215537,133.642,0.167441,
2,0,0,1,0,56362.1,0.164584,0.164243,-16.3298,29,0.0135091,10,-0.00268207,-1.78702,-0.283397,-0.208189,132.485,0.1642434,
2,0,0,1,0,56362.1,0.161382,0.161035,-16.7581,29,0.0134429,10,-0.00269863,-1.77578,-0.292404,-0.201776,131.892,0.1610346,
2,0,0,1,0,56362.1,0.158183,0.157841,-17.1713,29,0.013375,10,-0.00271032,-1.7652,-0.293872,-0.200768,134.596,0.157841,
2,0,0,1,0,56362.1,0.154987,0.154619,-17.6086,29,0.0133054,10,-0.00272262,-1.75428,-0.294711,-0.200196,137.693,0.154619,
2,0,0,1,0,56362.1,0.151783,0.151425,-18.0551,29,0.013234,10,-0.002734,-1.7434,-0.292462,-0.201736,142.231,0.151425,
2,0,0,1,0,56362.1,0.148587,0.148251,-18.5182,29,0.0131608,10,-0.00274535,-1.7324,-0.291023,-0.202733,146.61,0.148251,
2,0,0,1,0,56362.1,0.145385,0.145053,-18.99,29,0.0130858,10,-0.00275457,-1.72147,-0.287788,-0.205012,152.081,0.145053,
2,0,0,1,0,56362.1,0.142183,0.141834,-19.483,29,0.0130088,10,-0.00276335,-1.71034,-0.282094,-0.20915,159.358,0.141834,
2,0,0,1,0,56362.1,0.138987,0.13868,-19.9934,29,0.0129297,10,-0.00277269,-1.69911,-0.275419,-0.214219,167.577,0.13868,
2,0,0,1,0,56362.1,0.13578,0.135414,-20.5639,29,0.0128486,10,-0.00278465,-1.68689,-0.265296,-0.222393,178.848,0.135414,
2,0,0,1,0,56362.1,0.132584,0.132241,-21.137,29,0.0127651,10,-0.00279519,-1.67496,-0.256321,-0.23018,190.371,0.1322414,
2,0,0,1,0,56362.1,0.129388,0.129036,-21.7719,29,0.0126793,10,-0.00280936,-1.6621,-0.248619,-0.237311,202.191,0.129036,
2,0,0,1,0,56362.1,0.12618,0.125842,-22.4374,29,0.0125908,10,-0.00282357,-1.64903,-0.239061,-0.246799,216.676,0.125842,
2,0,0,1,0,56362.1,0.122984,0.122625,-23.1499,29,0.0124996,10,-0.00283874,-1.63545,-0.231894,-0.254427,230.464,0.122625,
2,0,0,1,0,56362.1,0.119782,0.119435,-23.9119,29,0.0124054,10,-0.00285591,-1.62139,-0.228229,-0.258512,241.62,0.119435,
2,0,0,1,0,56362.1,0.116584,0.116287,-24.7102,29,0.0123081,10,-0.00287346,-1.60712,-0.223941,-0.263462,254.345,0.116287,
2,0,0,1,0,56362.1,0.113387,0.113054,-25.5271,29,0.0122075,10,-0.00288595,-1.593,-0.223567,-0.263903,263.204,0.113054,
2,0,0,1,0,56362.1,0.110183,0.109868,-26.3945,29,0.0121036,10,-0.0028999,-1.57849,-0.223931,-0.263474,271.589,0.109868,
2,0,0,1,0,56362.1,0.106987,0.106665,-27.2728,29,0.0119962,10,-0.00290907,-1.56427,-0.225667,-0.261447,278.244,0.106665,
2,0,0,1,0,56362.1,0.103785,0.103468,-28.1915,29,0.0118852,10,-0.00291692,-1.54988,-0.230988,-0.255424,280.68,0.103468,
2,0,0,1,0,56362.1,0.100583,0.100251,-29.0896,29,0.0117705,10,-0.00291626,-1.53626,-0.23694,-0.249008,282.248,0.100251,
2,0,0,1,0,56362.1,0.0973873,0.0970359,-29.9961,29,0.0116522,10,-0.0029107,-1.52293,-0.246451,-0.239399,279.802,0.0970359,
2,0,0,1,0,56362.1,0.0941801,0.0938504,-30.8898,29,0.0115304,10,-0.00289902,-1.51018,-0.254091,-0.232201,279.479,0.0938504,
2,0,0,1,0,56362.1,0.0909839,0.0906586,-31.7757,29,0.0114049,10,-0.00288074,-1.49791,-0.264275,-0.223252,276.452,0.0906586,
2,0,0,1,0,56362.1,0.0877878,0.0874742,-32.6604,29,0.011276,10,-0.00285695,-1.48598,-0.27717,-0.212866,270.697,0.0874742,
2,0,0,1,0,56362.2,0.0845806,0.0842601,-33.528,29,0.0111435,10,-0.00282508,-1.47459,-0.293488,-0.20103,262.178,0.0842601,
2,0,0,1,0,56362.2,0.0813844,0.0811033,-34.3405,29,0.0110077,10,-0.00278512,-1.46419,-0.310364,-0.190099,254.151,0.0811033,
2,0,0,1,0,56362.2,0.0781828,0.0779242,-35.1143,29,0.0108687,10,-0.00273626,-1.45452,-0.325628,-0.181189,248.121,0.0779242,
2,0,0,1,0,56362.2,0.0749839,0.0747101,-35.9045,29,0.0107266,10,-0.00268243,-1.44485,-0.344344,-0.17134,239.74,0.0747101,
2,0,0,1,0,56362.2,0.0717877,0.0714865,-36.6974,29,0.0105813,10,-0.00262337,-1.43536,-0.360722,-0.163561,233.573,0.0714865,
2,0,0,1,0,56362.2,0.0685832,0.0683084,-37.4079,29,0.010433,10,-0.00255527,-1.42704,-0.385373,-0.153098,222.926,0.06830842,
2,0,0,1,0,56362.2,0.0653871,0.0651018,-38.1093,29,0.0102819,10,-0.00248098,-1.41897,-0.419794,-0.140545,208.533,0.0651018,
2,0,0,1,0,56362.2,0.0621854,0.0619375,-38.7518,29,0.0101281,10,-0.00240019,-1.41171,-0.449492,-0.131259,198.055,0.0619375,
2,0,0,1,0,56362.2,0.0589837,0.0586662,-39.3709,29,0.00997175,10,-0.00230974,-1.40482,-0.485262,-0.121584,186.45,0.0586662,
2,0,0,1,0,56362.2,0.0557876,0.0554966,-39.9453,29,0.00981304,10,-0.00221683,-1.39853,-0.523397,-0.112725,175.391,0.0554966,
2,0,0,1,0,56362.2,0.0525804,0.0522655,-40.5026,29,0.00965207,10,-0.00211689,-1.39252,-0.561805,-0.105019,165.655,0.0522655,
2,0,0,1,0,56362.2,0.0493842,0.0490907,-41.005,29,0.00948898,10,-0.00201296,-1.38716,-0.605207,-0.0974874,155.733,0.04909068,
2,0,0,1,0,56362.2,0.0461881,0.0459137,-41.4834,29,0.00932396,10,-0.00190466,-1.38213,-0.64877,-0.0909413,147.063,0.0459137,
2,0,0,1,0,56362.2,0.0429808,0.0427145,-41.9359,29,0.00915704,10,-0.00179127,-1.37741,-0.69027,-0.0854738,139.746,0.0427145,
2,0,0,1,0,56362.2,0.0397847,0.0394728,-42.384,29,0.00898836,10,-0.00167301,-1.3728,-0.737525,-0.0799973,132.149,0.0394728,
2,0,0,1,0,56362.2,0.036583,0.0362905,-42.7938,29,0.00881795,10,-0.00155301,-1.36862,-0.796946,-0.0740326,123.437,0.0362905,
2,0,0,1,0,56362.2,0.0333841,0.0330488,-43.1835,29,0.00864594,10,-0.00142716,-1.36468,-0.867444,-0.0680159,114.442,0.03304885,
2,0,0,1,0,56362.2,0.030188,0.0298888,-43.5191,29,0.0084725,10,-0.00130074,-1.36132,-0.954424,-0.0618174,104.855,0.0298888,
2,0,0,1,0,56362.2,0.0269835,0.0266525,-43.8511,29,0.00829771,10,-0.00116874,-1.35802,-1.04288,-0.0565738,96.7036,0.0266525,
2,0,0,1,0,56362.2,0.0237874,0.0234681,-44.1383,29,0.00812169,10,-0.00103584,-1.35518,-1.13871,-0.0518132,89.1564,0.0234681,
2,0,0,1,0,56362.2,0.0205857,0.0202603,-44.4202,29,0.00794454,10,-0.000899968,-1.35242,-1.2551,-0.0470081,81.3984,0.0202603,
2,0,0,1,0,56362.2,0.017384,0.017007,-44.6676,29,0.00776631,10,-0.000759663,-1.35001,-1.38425,-0.0426224,74.2095,0.017007,
2,0,0,1,0,56362.2,0.0141879,0.0138778,-44.891,29,0.00758716,10,-0.000622986,-1.34784,-1.54044,-0.0383007,67.0364,0.0138778,
2,0,0,1,0,56362.2,0.0109806,0.0106372,-45.0905,29,0.00740716,10,-0.000479634,-1.34592,-1.7366,-0.0339744,59.7297,0.0106372,
2,0,0,1,0,56362.2,0.00778448,0.00746336,-45.278,29,0.0072264,10,-0.000337926,-1.34411,-1.83752,-0.0321085,56.7083,0.00746336,
2,0,0,1,0,56362.3,0.00458834,0.00423655,-45.4304,29,0.00704496,10,-0.000192468,-1.34265,-2.14439,-0.0275137,48.7517,0.00423655,
2,0,0,1,0,56362.3,0.0013811,0.00101821,-45.6202,29,0.00686286,10,-4.6451e-05,-1.34084,-2.55475,-0.0230942,41.0473,0.00101821,
2,0,0,1,0,56362.3,-0.00181504,-0.00218528,-45.7156,29,0.00668018,10,9.99012e-05,-1.33994,-3.05325,-0.0193237,34.4272,-0.00218528,
2,0,0,1,0,56362.3,-0.0050195,-0.00544921,-45.8081,29,0.00649714,10,0.000249618,-1.33906,-4.46336,-0.0132187,23.613,-0.00544921,
2,0,0,1,0,56362.3,-0.00821564,-0.00858802,-45.8719,29,0.00631377,10,0.000393948,-1.33845,-5.82319,-0.0101319,18.1226,-0.00858802,
2,0,0,1,0,56362.3,-0.0114118,-0.011836,-45.9238,29,0.00613018,10,0.000543555,-1.33796,-9.59177,-0.00615111,11.0135,-0.011836,
2,0,0,1,0,56362.3,-0.0146162,-0.0150109,-45.948,29,0.00594641,10,0.000689721,-1.33773,-20.2444,-0.00291438,5.22123,-0.0150109,
2,0,0,1,0,56362.3,-0.0178124,-0.0182314,-45.9488,29,0.00576261,10,0.00083771,-1.33773,67.1624,0.000878467,-1.5741,-0.0182314,
2,0,0,1,0,56362.3,-0.0210196,-0.0213988,-45.9388,29,0.00557884,10,0.000983034,-1.33782,13.1423,0.00448931,-8.04123,-0.0213988,
2,0,0,1,0,56362.3,-0.0242158,-0.0245853,-45.9037,29,0.00539516,10,0.00112856,-1.33815,8.68687,0.00679186,-12.1588,-0.0245853,
2,0,0,1,0,56362.3,-0.0274119,-0.0278333,-45.8449,29,0.00521165,10,0.00127602,-1.33871,5.49686,0.0107334,-19.1919,-0.0278333,
2,0,0,1,0,56362.3,-0.0306191,-0.0310156,-45.7934,29,0.00502836,10,0.00142031,-1.3392,4.55177,0.012962,-23.1458,-0.03101562,
2,0,0,1,0,56362.3,-0.0338153,-0.0341947,-45.6932,29,0.00484539,10,0.00156247,-1.34015,3.8798,0.015207,-27.1055,-0.0341947,
2,0,0,1,0,56362.3,-0.037017,-0.0374396,-45.6062,29,0.00466281,10,0.00170748,-1.34098,3.35974,0.0175609,-31.2469,-0.0374396,
2,0,0,1,0,56362.3,-0.0402187,-0.0405646,-45.4998,29,0.0044806,10,0.00184568,-1.34199,3.17618,0.0185758,-32.9729,-0.0405646,
2,0,0,1,0,56362.3,-0.0434148,-0.0438359,-45.3928,29,0.00429883,10,0.00198984,-1.34301,2.86739,0.0205762,-36.4359,-0.0438359,
2,0,0,1,0,56362.3,-0.0466193,-0.0469419,-45.2729,29,0.00411751,10,0.00212519,-1.34416,2.67816,0.0220301,-38.9042,-0.0469419,
2,0,0,1,0,56362.3,-0.0498154,-0.0501941,-45.1414,29,0.00393669,10,0.00226584,-1.34542,2.6104,0.0226019,-39.8156,-0.0501941,
2,0,0,1,0,56362.3,-0.0530115,-0.0533955,-45.0006,29,0.00375641,10,0.00240283,-1.34678,2.53514,0.0232729,-40.8809,-0.05339551,
2,0,0,1,0,56362.3,-0.056216,-0.0565958,-44.8848,29,0.00357665,10,0.00254029,-1.3479,2.60939,0.0226107,-39.609,-0.0565958,
2,0,0,1,0,56362.3,-0.0594121,-0.0597929,-44.7475,29,0.00339739,10,0.00267559,-1.34923,2.56165,0.0230321,-40.2172,-0.0597929,
2,0,0,1,0,56362.3,-0.0626194,-0.0630367,-44.6328,29,0.00321866,10,0.0028135,-1.35035,2.4849,0.0237434,-41.3456,-0.0630367,
2,0,0,1,0,56362.3,-0.0658155,-0.0662328,-44.4844,29,0.00304043,10,0.00294632,-1.35179,2.63616,0.022381,-38.8674,-0.0662328,
2,0,0,1,0,56362.3,-0.0690117,-0.0694161,-44.3547,29,0.00286276,10,0.00307893,-1.35306,2.61955,0.0225229,-39.0133,-0.0694161,
2,0,0,1,0,56362.3,-0.0722189,-0.0726005,-44.2497,29,0.00268555,10,0.00321255,-1.35409,2.8999,0.0203455,-35.1434,-0.0726005,
2,0,0,1,0,56362.4,-0.075415,-0.0757775,-44.1357,29,0.0025088,10,0.00334449,-1.35521,3.11462,0.0189429,-32.6358,-0.0757775,
2,0,0,1,0,56362.4,-0.0786167,-0.078981,-44.0363,29,0.00233246,10,0.00347803,-1.35619,3.18041,0.0185511,-31.8883,-0.078981,
2,0,0,1,0,56362.4,-0.0818184,-0.0822354,-43.9363,29,0.00215654,10,0.00361312,-1.35718,3.64014,0.0162082,-27.8054,-0.0822354,
2,0,0,1,0,56362.4,-0.0850146,-0.0854134,-43.8411,29,0.001981,10,0.00374462,-1.35812,3.88212,0.0151979,-26.0203,-0.0854134,
2,0,0,1,0,56362.4,-0.088219,-0.0885872,-43.7795,29,0.00180579,10,0.00387831,-1.35873,4.47896,0.0131727,-22.5133,-0.0885872,
2,0,0,1,0,56362.4,-0.0914152,-0.0917706,-43.7035,29,0.00163084,10,0.0040107,-1.35948,5.22487,0.0112921,-19.2662,-0.0917706,
2,0,0,1,0,56362.4,-0.0946141,-0.0949942,-43.6491,29,0.00145614,10,0.00414641,-1.36002,5.86494,0.0100598,-17.1447,-0.0949942,
2,0,0,1,0,56362.4,-0.0978158,-0.0982242,-43.5943,29,0.00128165,10,0.00428202,-1.36057,7.91433,0.00745483,-12.6913,-0.0982242,
2,0,0,1,0,56362.4,-0.101012,-0.101411,-43.5597,29,0.00110734,10,0.00441742,-1.36092,10.7022,0.00551287,-9.37818,-0.101411,
2,0,0,1,0,56362.4,-0.104219,-0.10462,-43.5405,29,0.000933144,10,0.00455518,-1.36111,17.4614,0.00337888,-5.74383,-0.10462,
2,0,0,1,0,56362.4,-0.107415,-0.107801,-43.529,29,0.000759008,10,0.00469246,-1.36122,86.0186,0.000685898,-1.16583,-0.107801,
2,0,0,1,0,56362.4,-0.110611,-0.110989,-43.521,29,0.000584902,10,0.00483037,-1.3613,-178.207,-0.000331076,0.562627,-0.1109894,
2,0,0,1,0,56362.4,-0.113819,-0.1142,-43.5448,29,0.000410761,10,0.00497282,-1.36106,-17.0227,-0.00346595,5.89306,-0.1142,
2,0,0,1,0,56362.4,-0.117015,-0.117428,-43.5477,29,0.000236566,10,0.00511373,-1.36103,-10.3576,-0.0056963,9.68892,-0.117428,
2,0,0,1,0,56362.4,-0.120216,-0.120597,-43.6044,29,6.22663e-05,10,0.00525855,-1.36047,-8.07683,-0.00730484,12.4366,-0.120597,
2,0,0,1,0,56362.4,-0.123418,-0.123834,-43.6455,29,-0.000112238,10,0.0054048,-1.36006,-5.64483,-0.010452,17.81,-0.123834,
2,0,0,1,0,56362.4,-0.126614,-0.126994,-43.7039,29,-0.000286927,10,0.00555013,-1.35948,-5.22975,-0.0112816,19.2525,-0.126994,
2,0,0,1,0,56362.4,-0.129819,-0.130225,-43.7756,29,-0.000461888,10,0.00570069,-1.35877,-4.40126,-0.0134052,22.9102,-0.130225,
2,0,0,1,0,56362.4,-0.133015,-0.133385,-43.8506,29,-0.00063713,10,0.00584902,-1.35802,-3.7912,-0.0155623,26.6473,-0.133385,
2,0,0,1,0,56362.4,-0.136214,-0.136605,-43.938,29,-0.000812711,10,0.00600214,-1.35716,-3.5114,-0.0168024,28.8263,-0.136605,
2,0,0,1,0,56362.4,-0.139416,-0.139837,-44.0461,29,-0.000988692,10,0.00615926,-1.35609,-3.11612,-0.0189338,32.5565,-0.1398367,
2,0,0,1,0,56362.4,-0.142612,-0.143013,-44.1442,29,-0.0011651,10,0.00631318,-1.35513,-2.94732,-0.0200182,34.4983,-0.143013,
2,0,0,1,0,56362.4,-0.145819,-0.146214,-44.2683,29,-0.00134192,10,0.00647264,-1.35391,-2.78198,-0.021208,36.6489,-0.146214,
2,0,0,1,0,56362.4,-0.149015,-0.149372,-44.3785,29,-0.00151924,10,0.0066289,-1.35283,-2.59969,-0.022695,39.3214,-0.149372,
2,0,0,1,0,56362.4,-0.152211,-0.152573,-44.5129,29,-0.00169704,10,0.00679147,-1.35151,-2.54097,-0.0232195,40.3489,-0.152573,
2,0,0,1,0,56362.5,-0.155418,-0.155794,-44.6468,29,-0.00187538,10,0.00695569,-1.35021,-2.48558,-0.0237369,41.3565,-0.155794,
2,0,0,1,0,56362.5,-0.158615,-0.159017,-44.7849,29,-0.00205426,10,0.00712157,-1.34887,-2.44597,-0.0241213,42.1577,-0.159017,
2,0,0,1,0,56362.5,-0.161816,-0.162205,-44.9092,29,-0.00223365,10,0.0072845,-1.34766,-2.44991,-0.0240825,42.2141,-0.162205,
2,0,0,1,0,56362.5,-0.165018,-0.165411,-45.0541,29,-0.00241359,10,0.00745242,-1.34627,-2.45045,-0.0240773,42.3361,-0.165411,
2,0,0,1,0,56362.5,-0.168214,-0.168526,-45.1843,29,-0.00259408,10,0.00761472,-1.34501,-2.47261,-0.0238614,42.071,-0.168526,
2,0,0,1,0,56362.5,-0.171419,-0.171789,-45.3256,29,-0.00277512,10,0.00778643,-1.34366,-2.56122,-0.0230359,40.7375,-0.171789,
2,0,0,1,0,56362.5,-0.174615,-0.174988,-45.447,29,-0.0029567,10,0.00795269,-1.34249,-2.65164,-0.0222504,39.4554,-0.174988,
2,0,0,1,0,56362.5,-0.177814,-0.178162,-45.5735,29,-0.00313874,10,0.00811947,-1.34129,-2.75147,-0.0214431,38.1344,-0.178162,
2,0,0,1,0,56362.5,-0.181015,-0.181334,-45.6896,29,-0.00332131,10,0.00828506,-1.34018,-2.79752,-0.0210901,37.6039,-0.1813336,
2,0,0,1,0,56362.5,-0.184211,-0.184558,-45.8125,29,-0.00350434,10,0.00845508,-1.33902,-2.92314,-0.0201838,36.0809,-0.184558,
2,0,0,1,0,56362.5,-0.187419,-0.187764,-45.9274,29,-0.00368784,10,0.00862352,-1.33793,-3.07304,-0.0191992,34.3999,-0.187764,
2,0,0,1,0,56362.5,-0.190615,-0.19101,-46.0371,29,-0.00387178,10,0.00879354,-1.33689,-3.21262,-0.0183651,32.9871,-0.19101,
2,0,0,1,0,56362.5,-0.193811,-0.194185,-46.1317,29,-0.00405613,10,0.00895806,-1.336,-3.53486,-0.0166909,30.0364,-0.194185,
2,0,0,1,0,56362.5,-0.197018,-0.19742,-46.2368,29,-0.00424089,10,0.00912807,-1.33501,-5.30562,-0.0111203,20.0212,-0.19742,
2,0,0,1,0,56362.5,-0.199647,-0.200007,-46.2952,29,-0.00439359,10,0.00925938,-1.33446,0.253282,0.232942,-409.56,-0.200007,
2,0,0,1,0,56362.5,-0.200134,-0.200589,-46.2289,29,-0.00442136,10,0.00927303,-1.33509,-0.0167808,-3.51593,5856.92,-0.200589,
2,0,0,1,1,56362.5,-0.198935,-0.19942,-43.9875,29,-0.00448833,10,0.00877199,-1.35667,-0.0623744,-0.945902,1505.24,-0.19942,
2,0,0,1,1,56362.5,-0.195739,-0.196239,-39.3181,29,-0.00465403,10,0.00771573,-1.40541,-0.0718511,-0.821143,1251.19,-0.196239,
2,0,0,1,1,56362.5,-0.192535,-0.192977,-35.7126,29,-0.00480353,10,0.00689171,-1.44718,-0.0768268,-0.767961,1094.23,-0.192977,
2,0,0,1,1,56362.5,-0.189339,-0.189731,-32.6428,29,-0.00493983,10,0.00619336,-1.48621,-0.0827618,-0.712889,919.325,-0.189731,
2,0,0,1,1,56362.5,-0.186137,-0.186574,-29.9313,29,-0.00506462,10,0.0055844,-1.52387,-0.0849488,-0.694536,817.586,-0.186574,
2,0,0,1,1,56362.5,-0.182935,-0.183356,-27.4745,29,-0.00517911,10,0.00503761,-1.56107,-0.0854663,-0.690331,743.611,-0.183356,
2,0,0,1,1,56362.5,-0.179739,-0.180144,-25.2205,29,-0.00528421,10,0.00454332,-1.59825,-0.0848672,-0.695204,686.033,-0.180144,
2,0,0,1,1,56362.5,-0.176532,-0.176907,-23.1071,29,-0.00538062,10,0.00408783,-1.63625,-0.083448,-0.707027,638.715,-0.176907,
2,0,0,1,1,56362.5,-0.173336,-0.17377,-21.147,29,-0.00546889,10,0.00367471,-1.67475,-0.0811926,-0.726667,599.676,-0.17377,
2,0,0,1,1,56362.5,-0.17014,-0.170559,-19.3009,29,-0.00554957,10,0.00329194,-1.71442,-0.078213,-0.75435,567.103,-0.170559,
2,0,0,1,1,56362.5,-0.166932,-0.167328,-17.535,29,-0.00562303,10,0.00293409,-1.75609,-0.0749543,-0.787146,536.979,-0.167328,
2,0,0,1,1,56362.6,-0.163736,-0.164148,-15.871,29,-0.00568967,10,0.00260518,-1.7994,-0.0706817,-0.834728,514.494,-0.164148,
2,0,0,1,1,56362.6,-0.160532,-0.16095,-14.2634,29,-0.00574977,10,0.0022957,-1.84578,-0.0665906,-0.88601,490.133,-0.16095,
2,0,0,1,1,56362.6,-0.157336,-0.157804,-12.7387,29,-0.00580361,10,0.00201022,-1.89487,-0.0615529,-0.958526,472.258,-0.157804,
2,0,0,1,1,56362.6,-0.154139,-0.154553,-11.2737,29,-0.00585146,10,0.00174238,-1.94793,-0.0565936,-1.04252,452.773,-0.154553,
2,0,0,1,1,56362.6,-0.150935,-0.151407,-9.85404,29,-0.00589357,10,0.00149197,-2.00639,-0.0513046,-1.14999,434.456,-0.151407,
2,0,0,1,1,56362.6,-0.147739,-0.1482,-8.49035,29,-0.0059301,10,0.00125827,-2.07107,-0.0451739,-1.30606,422.272,-0.1482,
2,0,0,1,1,56362.6,-0.144532,-0.144953,-7.1555,29,-0.00596126,10,0.00103721,-2.14536,-0.0391512,-1.50698,406.857,-0.144953,
2,0,0,1,1,56362.6,-0.141335,-0.141773,-5.87704,29,-0.00598716,10,0.000833205,-2.23084,-0.0325153,-1.81453,395.141,-0.141773,
2,0,0,1,1,56362.6,-0.138139,-0.138573,-4.63239,29,-0.00600804,10,0.000641923,-2.33419,-0.025426,-2.32046,383.914,-0.138573,
2,0,0,1,1,56362.6,-0.134932,-0.135382,-3.42535,29,-0.00602401,10,0.00046373,-2.4653,-0.0176244,-3.34763,373.039,-0.135382,
2,0,0,1,1,56362.6,-0.131736,-0.132173,-2.24908,29,-0.00603523,10,0.000297267,-2.648,-0.00547367,-10.7789,363.191,-0.132173,
2,0,0,1,1,56362.6,-0.12854,-0.12898,-1.10485,29,-0.00604181,10,0.000142504,-2.95669,-0.0261777,-2.25383,353.393,-0.12898,
2,0,0,1,1,56362.6,-0.125333,-0.12576,0.021134,29,-0.00604385,10,-2.65781e-06,-4.67502,-0.94536,-0.0624101,346.02,-0.1257598,
2,1,0,1,1,56362.6,-0.122136,-0.122553,1.10825,29,-0.00604147,10,-0.00013582,-2.95536,0.0276349,2.13498,337.087,-0.122553,
2,1,0,1,1,56362.6,-0.118932,-0.119373,2.18004,29,-0.0060348,10,-0.000260238,-2.66154,0.00552445,10.6798,331.469,-0.119373,
2,1,0,1,1,56362.6,-0.115736,-0.11618,3.20992,29,-0.0060239,10,-0.000372928,-2.49351,0.0189045,3.12095,323.987,-0.11618,
2,1,0,1,1,56362.6,-0.11254,-0.113042,4.23658,29,-0.00600891,10,-0.000478912,-2.37298,0.0279837,2.10837,317.02,-0.113042,
2,1,0,1,1,56362.6,-0.109335,-0.109796,5.24126,29,-0.00598983,10,-0.000575472,-2.28056,0.0365313,1.61505,310.774,-0.109796,
2,1,0,1,1,56362.6,-0.106139,-0.106634,6.21845,29,-0.00596681,10,-0.0006631,-2.20632,0.0453344,1.30144,303.282,-0.106634,
2,1,0,1,1,56362.6,-0.102932,-0.103413,7.17766,29,-0.00593993,10,-0.000742262,-2.14402,0.0537977,1.0967,298.511,-0.103413,
2,1,0,1,1,56362.6,-0.0997357,-0.100222,8.12475,29,-0.00590922,10,-0.000814278,-2.09019,0.0625585,0.943117,292.52,-0.100222,
2,1,0,1,1,56362.6,-0.0965395,-0.097027,9.05307,29,-0.00587476,10,-0.000878392,-2.0432,0.0710941,0.829886,287.998,-0.097027,
2,1,0,1,1,56362.6,-0.0933323,-0.0938076,9.97051,29,-0.00583662,10,-0.00093531,-2.00128,0.0803386,0.734391,281.481,-0.0938076,
2,1,0,1,1,56362.6,-0.0901361,-0.0906264,10.8601,29,-0.00579485,10,-0.000984212,-1.96417,0.0894457,0.659618,276.105,-0.0906264,
2,1,0,1,1,56362.6,-0.0869345,-0.0873837,11.7385,29,-0.00574958,10,-0.00102575,-1.93039,0.098576,0.598523,271.424,-0.0873837,
2,1,0,1,1,56362.7,-0.0837328,-0.0842088,12.5922,29,-0.00570082,10,-0.00106038,-1.8999,0.108215,0.545213,265.825,-0.0842088,
2,1,0,1,1,56362.7,-0.0805366,-0.081018,13.4419,29,-0.00564866,10,-0.00108904,-1.87154,0.11721,0.503372,262.154,-0.081018,
2,1,0,1,1,56362.7,-0.0773322,-0.0777541,14.2819,29,-0.00559313,10,-0.00111048,-1.84521,0.127331,0.46336,256.302,-0.0777541,
2,1,0,1,1,56362.7,-0.074136,-0.0745962,15.0908,29,-0.00553429,10,-0.00112572,-1.82129,0.137787,0.428198,250.582,-0.0745962,
2,1,0,1,1,56362.7,-0.0709371,-0.0713758,15.8814,29,-0.00547226,10,-0.00113354,-1.79911,0.147777,0.399249,246.211,-0.0713758,
2,1,0,1,1,56362.7,-0.0677354,-0.0681638,16.6629,29,-0.00540708,10,-0.00113581,-1.77825,0.158253,0.372822,241.415,-0.0681638,
2,1,0,1,1,56362.7,-0.0645393,-0.0649868,17.4253,29,-0.00533881,10,-0.00113242,-1.75882,0.169085,0.348938,236.301,-0.0649868,
2,1,0,1,1,56362.7,-0.0613321,-0.06176,18.1896,29,-0.00526751,10,-0.00112339,-1.74018,0.180408,0.327036,231.077,-0.06176,
2,1,0,1,1,56362.7,-0.0581359,-0.0585544,18.9111,29,-0.00519322,10,-0.00110733,-1.72328,0.191251,0.308494,226.867,-0.0585544,
2,1,0,1,1,56362.7,-0.0549398,-0.0553329,19.6279,29,-0.00511606,10,-0.00108607,-1.70713,0.202729,0.291029,222.389,-0.0553329,
2,1,0,1,1,56362.7,-0.0517325,-0.0521548,20.3365,29,-0.00503603,10,-0.00106065,-1.69172,0.213053,0.276927,219.176,-0.0521548,
2,1,0,1,1,56362.7,-0.0485364,-0.048945,21.0395,29,-0.00495322,10,-0.00102978,-1.67696,0.224217,0.263138,215.375,-0.048945,
2,1,0,1,1,56362.7,-0.0453347,-0.0457701,21.7131,29,-0.00486765,10,-0.00099381,-1.66328,0.23797,0.24793,209.458,-0.0457701,
2,1,0,1,1,56362.7,-0.042133,-0.0425688,22.3769,29,-0.0047794,10,-0.000952559,-1.6502,0.251186,0.234886,204.631,-0.0425688,
2,1,0,1,1,56362.7,-0.0389369,-0.0393748,23.0134,29,-0.00468855,10,-0.000906147,-1.63802,0.264347,0.223192,200.098,-0.0393748,
2,1,0,1,1,56362.7,-0.0357324,-0.0361512,23.6576,29,-0.00459515,10,-0.000855249,-1.62603,0.278337,0.211973,195.293,-0.0361512,
2,1,0,1,1,56362.7,-0.0325363,-0.0329466,24.279,29,-0.00449921,10,-0.000799912,-1.61477,0.290983,0.202761,191.661,-0.0329466,
2,1,0,1,1,56362.7,-0.0293374,-0.0297442,24.8815,29,-0.00440084,10,-0.00074008,-1.60412,0.306941,0.192219,186.263,-0.0297442,
2,1,0,1,1,56362.7,-0.0261357,-0.0265609,25.4693,29,-0.00430005,10,-0.000676486,-1.59398,0.322507,0.182942,181.506,-0.0265609,
2,1,0,1,1,56362.7,-0.0229395,-0.0233637,26.0394,29,-0.00419697,10,-0.000608377,-1.58437,0.338047,0.174532,177.071,-0.0233637,
2,1,0,1,1,56362.7,-0.0197323,-0.0201549,26.6008,29,-0.00409163,10,-0.000536137,-1.57511,0.354888,0.16625,172.303,-0.0201549,
2,1,0,1,1,56362.7,-0.0165361,-0.0169684,27.1437,29,-0.00398409,10,-0.000460586,-1.56633,0.370598,0.159202,168.407,-0.01696841,
2,1,0,1,1,56362.7,-0.01334,-0.013766,27.6739,29,-0.00387439,10,-0.000380958,-1.55793,0.389869,0.151333,163.19,-0.013766,
2,1,0,1,1,56362.7,-0.0101328,-0.0105392,28.1991,29,-0.00376257,10,-0.000297195,-1.54976,0.408756,0.14434,158.55,-0.0105392,
2,1,0,1,1,56362.7,-0.00693663,-0.00736749,28.6876,29,-0.00364874,10,-0.000211355,-1.54231,0.427761,0.137927,154.132,-0.00736749,
2,1,0,1,1,56362.8,-0.00373494,-0.00417248,29.1725,29,-0.00353296,10,-0.000121722,-1.53503, , , ,-0.00417248,
2,1,0,1,1,56362.8,-0.000774628,-0.00116835,29.6156,29,-0.00342418,10,-3.46013e-05,-1.52848, , , ,-0.00116835,
2,1,0,0,1,56362.8,-0.000125413,-0.000516197,29.7337,29,-0.00340046,10,-1.53484e-05,-1.52675, , , ,-0.000516197,