File: Figure_codes/Fig_3-5/rawdata_trumpetplot_data/after 10th/20221101_1-115_003_TrumpetPlot_ParaChange_from10_every3_07_CV_C01_32.csv
mode,ox/red,error,control changes,counter inc.,time/s,control/V,Ewe/V,<I>/mA,cycle number,(Q-Qo)/C,I Range,P/W,log(|I|),Tafel slope mV/dec,alpha_eff,dI/d(E-IR),E-IR/V,
2,0,0,0,0,64209.2,2.44065e-05,-0.000382585,-2.6785,33,0.0000000E+000,10,1.02476e-06,-2.57211, , , ,-0.000382585,
2,0,0,1,0,64209.2,0.0013005,0.000889735,-1.45219,33,-4.11773e-05,10,-1.29207e-06,-2.83798, , , ,0.000889735,
2,0,0,1,0,64209.2,0.00279471,0.00243331,-0.582821,33,-6.54446e-05,10,-1.41818e-06,-3.23446,-0.00384728,-15.3355,487.725,0.00243331,
2,0,0,1,0,64209.3,0.00429425,0.00398918,-0.00179752,33,-7.19618e-05,10,-7.17065e-09,-5.74533,-0.0228761,-2.57911,345.378,0.00398918,
2,1,0,1,0,64209.3,0.00579379,0.00547645,0.429406,33,-6.58825e-05,10,2.35162e-06,-3.36713,0.0058336,10.1138,256.768,0.00547645,
2,1,0,1,0,64209.3,0.007288,0.00695825,0.769764,33,-5.03213e-05,10,5.35621e-06,-3.11364,0.00703458,8.38714,204.495,0.00695825,
2,1,0,1,0,64209.3,0.00878882,0.00845685,1.04492,33,-2.71711e-05,10,8.83669e-06,-2.98092,0.0134264,4.39432,163.896,0.00845685,
2,1,0,1,0,64209.4,0.0102896,0.0099439,1.25324,33,2.01697e-06,10,1.24621e-05,-2.90197,0.0207934,2.83744,132.837,0.0099439,
2,1,0,1,0,64209.4,0.0117838,0.0114722,1.43273,33,3.59805e-05,10,1.64365e-05,-2.84384,0.0291447,2.02438,110.146,0.0114722,
2,1,0,1,0,64209.4,0.0132834,0.0129104,1.58158,33,7.41148e-05,10,2.04189e-05,-2.80091,0.0387262,1.52352,92.6824,0.0129104,
2,1,0,1,0,64209.4,0.0147816,0.0144297,1.71132,33,0.000115691,10,2.46938e-05,-2.76667,0.0480944,1.22676,80.8516,0.0144297,
2,1,0,1,0,64209.5,0.0162811,0.015934,1.82443,33,0.000160329,10,2.90705e-05,-2.73887,0.0579877,1.01746,71.6803,0.015934,
2,1,0,1,0,64209.5,0.0177753,0.0174307,1.91566,33,0.000207343,10,3.33913e-05,-2.71768,0.0734484,0.803285,59.8689,0.0174307,
2,1,0,1,0,64209.5,0.0192761,0.0189232,2.00544,33,0.000256808,10,3.79493e-05,-2.69779,0.0857772,0.687828,53.5554,0.01892323,
2,1,0,1,0,64209.5,0.020777,0.0204083,2.08562,33,0.000308293,10,4.2564e-05,-2.68076,0.0958827,0.615335,49.7988,0.0204083,
2,1,0,1,0,64209.6,0.0222712,0.0219503,2.15628,33,0.000361468,10,4.73312e-05,-2.66629,0.103339,0.570936,47.9087,0.0219503,
2,1,0,1,0,64209.6,0.0237707,0.0234487,2.21661,33,0.000416578,10,5.19767e-05,-2.65431,0.120584,0.489287,42.3595,0.0234487,
2,1,0,1,0,64209.6,0.0252703,0.0249491,2.27925,33,0.000473279,10,5.68653e-05,-2.64221,0.135257,0.436207,38.8418,0.02494912,
2,1,0,1,0,64209.6,0.0267645,0.0264386,2.34427,33,0.000531215,10,6.19792e-05,-2.62999,0.141824,0.416008,37.9452,0.0264386,
2,1,0,1,0,64209.7,0.0282653,0.0279219,2.40227,33,0.000590918,10,6.70759e-05,-2.61938,0.139302,0.423541,39.5684,0.0279219,
2,1,0,1,0,64209.7,0.0297648,0.0294371,2.45316,33,0.000652023,10,7.22138e-05,-2.61027,0.159507,0.36989,35.4054,0.0294371,
2,1,0,1,0,64209.7,0.031259,0.0309185,2.50482,33,0.000714204,10,7.74453e-05,-2.60122,0.177444,0.332499,32.5128,0.03091855,
2,1,0,1,0,64209.7,0.0327585,0.0323927,2.55872,33,0.000777839,10,8.28838e-05,-2.59198,0.176348,0.334565,33.3618,0.0323927,
2,1,0,1,0,64209.8,0.034258,0.0339328,2.60506,33,0.000842801,10,8.83971e-05,-2.58418,0.167707,0.351804,35.7558,0.0339328,
2,1,0,1,0,64209.8,0.0357576,0.0354299,2.6565,33,0.000909052,10,9.41195e-05,-2.57569,0.19183,0.307564,31.8748,0.0354299,
2,1,0,1,0,64209.8,0.0372518,0.0369128,2.70232,33,0.000976254,10,9.97502e-05,-2.56826,0.204943,0.287885,30.4128,0.0369128,
2,1,0,1,0,64209.8,0.0387526,0.038391,2.75315,33,0.00104484,10,0.000105696,-2.56017,0.206598,0.285578,30.6928,0.038391,
2,1,0,1,0,64209.9,0.0402534,0.0398979,2.80176,33,0.00111468,10,0.000111784,-2.55257,0.203377,0.290102,31.7147,0.03989793,
2,1,0,1,0,64209.9,0.0417476,0.0414212,2.85034,33,0.0011855,10,0.000118065,-2.5451,0.208512,0.282957,31.4536,0.0414212,
2,1,0,1,0,64209.9,0.0432472,0.042927,2.89582,33,0.00125775,10,0.000124309,-2.53823,0.234035,0.252099,28.514,0.042927,
2,1,0,1,0,64209.9,0.0447467,0.0444313,2.94677,33,0.0013311,10,0.000130929,-2.53065,0.227603,0.259224,29.7539,0.04443134,
2,1,0,1,0,64210,0.0462463,0.0459114,2.98587,33,0.0014056,10,0.000137085,-2.52493,0.202663,0.291124,33.9076,0.0459114,
2,1,0,1,0,64210,0.0477391,0.047457,3.02635,33,0.00148093,10,0.000143622,-2.51908,0.228321,0.258408,30.6068,0.047457,
2,1,0,1,0,64210,0.0492399,0.048925,3.07506,33,0.00155772,10,0.000150447,-2.51215,0.248659,0.237273,28.4965,0.048925,
2,1,0,1,0,64210,0.0507408,0.0503764,3.12528,33,0.00163561,10,0.00015744,-2.50511,0.254612,0.231725,28.2151,0.0503764,
2,1,0,1,0,64210.1,0.052235,0.0518839,3.16485,33,0.00171427,10,0.000164205,-2.49965,0.229591,0.256979,31.7294,0.0518839,
2,1,0,1,0,64210.1,0.0537345,0.0534336,3.21068,33,0.00179439,10,0.000171558,-2.4934,0.248681,0.237252,29.7372,0.0534336,
2,1,0,1,0,64210.1,0.0552341,0.0549139,3.25403,33,0.00187566,10,0.000178691,-2.48758,0.259102,0.22771,28.9206,0.0549139,
2,1,0,1,0,64210.1,0.0567283,0.0563226,3.29576,33,0.00195765,10,0.000185626,-2.48204,0.273623,0.215625,27.7376,0.0563226,
2,1,0,1,0,64210.2,0.0582291,0.0578717,3.34153,33,0.00204095,10,0.00019338,-2.47605,0.260584,0.226415,29.4953,0.0578717,
2,1,0,1,0,64210.2,0.0597299,0.0594034,3.38067,33,0.00212533,10,0.000200823,-2.471,0.263908,0.223563,29.4851,0.0594034,
2,1,0,1,0,64210.2,0.0612228,0.0608642,3.42158,33,0.00221045,10,0.000208252,-2.46577,0.304474,0.193777,25.8719,0.0608642,
2,1,0,1,0,64210.2,0.0627223,0.0623899,3.46447,33,0.00229692,10,0.000216148,-2.46036,0.305608,0.193058,26.07,0.0623899,
2,1,0,1,0,64210.3,0.0642218,0.0638679,3.50174,33,0.00238433,10,0.000223649,-2.45572,0.298161,0.19788,27.0464,0.0638679,
2,1,0,1,0,64210.3,0.0657214,0.0654135,3.53588,33,0.00247272,10,0.000231294,-2.4515,0.278332,0.211977,29.2978,0.0654135,
2,1,0,1,0,64210.3,0.0672156,0.0668266,3.57836,33,0.0025618,10,0.000239129,-2.44632,0.320558,0.184054,25.7154,0.0668266,
2,1,0,1,0,64210.3,0.0687164,0.0683762,3.62291,33,0.00265223,10,0.000247721,-2.44094,0.376842,0.156564,22.0711,0.0683762,
2,1,0,1,0,64210.4,0.0702172,0.0698575,3.65448,33,0.0027435,10,0.000255293,-2.43717,0.336775,0.175191,24.9739,0.0698575,
2,1,0,1,0,64210.4,0.0717114,0.0713439,3.68659,33,0.0028353,10,0.000263016,-2.43338,0.320027,0.184359,26.5447,0.0713439,
2,1,0,1,0,64210.4,0.073211,0.0728665,3.7226,33,0.00292836,10,0.000271253,-2.42915,0.368443,0.160133,23.2956,0.0728665,
2,1,0,1,0,64210.4,0.0747105,0.0743966,3.75873,33,0.00302229,10,0.000279637,-2.42496,0.408127,0.144563,21.1999,0.0743966,
2,1,0,1,0,64210.5,0.0762101,0.0758563,3.78939,33,0.00311707,10,0.000287449,-2.42143,0.368403,0.160151,23.6899,0.0758563,
2,1,0,1,0,64210.5,0.0777042,0.0773766,3.82129,33,0.00321225,10,0.000295679,-2.41779,0.385216,0.153161,22.857,0.0773766,
2,1,0,1,0,64210.5,0.0792037,0.0788923,3.85506,33,0.00330864,10,0.000304135,-2.41397,0.461607,0.127814,19.2221,0.07889232,
2,1,0,1,0,64210.5,0.0807046,0.0804012,3.88695,33,0.00340581,10,0.000312516,-2.41039,0.484126,0.121869,18.4458,0.0804012,
2,1,0,1,0,64210.6,0.0821988,0.0818631,3.91135,33,0.00350331,10,0.000320196,-2.40767,0.456274,0.129308,19.7397,0.0818631,
2,1,0,1,0,64210.6,0.0836983,0.083363,3.93716,33,0.00360186,10,0.000328214,-2.40482,0.476713,0.123764,19.0373,0.083363,
2,1,0,1,0,64210.6,0.0851979,0.0848841,3.96853,33,0.00370114,10,0.000336865,-2.40137,0.497673,0.118552,18.3803,0.08488407,
2,1,0,1,0,64210.6,0.0866921,0.08637,3.99565,33,0.00380072,10,0.000345104,-2.39841,0.586123,0.100662,15.6904,0.08637,
2,1,0,1,0,64210.7,0.0881929,0.0878822,4.02903,33,0.0039014,10,0.00035408,-2.3948,0.491214,0.120111,18.8615,0.0878822,
2,1,0,1,0,64210.7,0.0896937,0.0893861,4.04992,33,0.0040027,10,0.000362007,-2.39255,0.467833,0.126113,19.9621,0.0893861,
2,1,0,1,0,64210.7,0.0911879,0.0908489,4.07804,33,0.00410433,10,0.000370485,-2.38955,0.456364,0.129283,20.6041,0.0908489,
2,1,0,1,0,64210.7,0.0926861,0.0923671,4.11608,33,0.00420717,10,0.000380191,-2.38552,0.48151,0.122531,19.6726,0.0923671,
2,1,0,1,0,64210.8,0.0941856,0.0938783,4.14762,33,0.00431079,10,0.000389372,-2.3822,0.439053,0.13438,21.7436,0.0938783,
2,1,0,1,0,64210.8,0.0956852,0.0953754,4.17371,33,0.00441517,10,0.000398069,-2.37948,0.377755,0.156186,25.5138,0.0953754,
2,1,0,1,0,64210.8,0.0971794,0.096857,4.20901,33,0.00452,10,0.000407672,-2.37582,0.361035,0.163419,26.8961,0.096857,
2,1,0,1,0,64210.8,0.0986802,0.098322,4.25466,33,0.00462627,10,0.000418326,-2.37114,0.34482,0.171104,28.4171,0.098322,
2,1,0,1,0,64210.9,0.100181,0.0998746,4.3021,33,0.00473362,10,0.00042967,-2.36632,0.311049,0.189681,31.8367,0.0998746,
2,1,0,1,0,64210.9,0.101675,0.101336,4.34351,33,0.00484166,10,0.000440154,-2.36216,0.304077,0.19403,32.9431,0.101336,
2,1,0,1,0,64210.9,0.103175,0.102897,4.3964,33,0.00495134,10,0.000452374,-2.3569,0.285407,0.206722,35.5411,0.102897,
2,1,0,1,0,64210.9,0.104674,0.104361,4.45969,33,0.00506243,10,0.000465416,-2.3507,0.278131,0.212131,36.8908,0.104361,
2,1,0,1,0,64211,0.106169,0.105826,4.5153,33,0.00517452,10,0.000477836,-2.34531,0.252293,0.233855,41.1945,0.105826,
2,1,0,1,0,64211,0.107668,0.107345,4.57613,33,0.00528859,10,0.000491226,-2.3395,0.244847,0.240967,43.0875,0.107345,
2,1,0,1,0,64211,0.109169,0.108836,4.63812,33,0.00540418,10,0.000504796,-2.33366,0.24811,0.237798,43.1268,0.108836,
2,1,0,1,0,64211,0.110663,0.11034,4.71194,33,0.00552097,10,0.000519917,-2.3268,0.243512,0.242288,44.5358,0.11034,
2,1,0,1,0,64211.1,0.112163,0.11183,4.77961,33,0.00563995,10,0.000534506,-2.32061,0.236787,0.249169,46.4269,0.11183,
2,1,0,1,0,64211.1,0.113662,0.113304,4.84791,33,0.0057607,10,0.000549287,-2.31445,0.229078,0.257554,48.7222,0.1133038,
2,1,0,1,0,64211.1,0.115162,0.114827,4.90992,33,0.00588313,10,0.000563793,-2.30893,0.251844,0.234272,44.9716,0.114827,
2,1,0,1,0,64211.1,0.116656,0.116348,4.98752,33,0.00600681,10,0.000580288,-2.30212,0.257188,0.229404,44.6265,0.116348,
2,1,0,1,0,64211.2,0.118157,0.117829,5.06117,33,0.00613274,10,0.000596351,-2.29575,0.267129,0.220867,43.5111,0.117829,
2,1,0,1,0,64211.2,0.119657,0.119331,5.11585,33,0.00626031,10,0.00061048,-2.29108,0.291209,0.202604,40.4437,0.119331,
2,1,0,1,0,64211.2,0.121152,0.120801,5.16857,33,0.00638883,10,0.000624368,-2.28663,0.325935,0.181018,36.5559,0.120801,
2,1,0,1,0,64211.2,0.122651,0.122311,5.23344,33,0.00651926,10,0.000640108,-2.28121,0.334699,0.176278,35.9599,0.122311,
2,1,0,1,0,64211.3,0.124151,0.123831,5.28689,33,0.00665112,10,0.000654684,-2.2768,0.345284,0.170874,35.1989,0.123831,
2,1,0,1,0,64211.3,0.125649,0.125347,5.33017,33,0.00678424,10,0.000668121,-2.27326,0.402487,0.146588,30.4627,0.125347,
2,1,0,1,0,64211.3,0.127143,0.126783,5.3649,33,0.00691789,10,0.000680178,-2.27044,0.476434,0.123837,25.9648,0.126783,
2,1,0,1,0,64211.3,0.128644,0.128292,5.40918,33,0.00705304,10,0.000693953,-2.26687,0.547107,0.10784,22.761,0.1282918,
2,1,0,1,0,64211.4,0.130145,0.129775,5.44935,33,0.00718911,10,0.000707191,-2.26366,0.573404,0.102894,21.843,0.129775,
2,1,0,1,0,64211.4,0.131639,0.131309,5.47563,33,0.00732546,10,0.000718997,-2.26157,0.666956,0.0884616,18.8843,0.131309,
2,1,0,1,0,64211.4,0.133139,0.132798,5.49684,33,0.00746311,10,0.000729971,-2.25989,0.739946,0.0797356,17.1149,0.132798,
2,1,0,1,0,64211.4,0.134638,0.134288,5.52241,33,0.00760128,10,0.000741592,-2.25787,1.04952,0.056216,12.1237,0.1342877,
2,1,0,1,0,64211.5,0.136132,0.135816,5.54668,33,0.00773951,10,0.000753327,-2.25597,0.987962,0.0597189,12.9128,0.135816,
2,1,0,1,0,64211.5,0.137633,0.137311,5.5648,33,0.00787877,10,0.000764106,-2.25455,1.24793,0.0472783,10.2519,0.137311,
2,1,0,1,0,64211.5,0.139133,0.138835,5.57206,33,0.00801837,10,0.000773596,-2.25398,2.42707,0.0243091,5.28142,0.138835,
2,1,0,1,0,64211.5,0.140627,0.140311,5.57744,33,0.00815755,10,0.000782574,-2.25357,-107.731,-0.000547661,-0.119093,0.140311,
2,1,0,1,0,64211.6,0.142126,0.141781,5.57931,33,0.00829732,10,0.00079104,-2.25342,-3.26334,-0.0180796,-3.92683,0.141781,
2,1,0,1,0,64211.6,0.143626,0.143291,5.567,33,0.00843697,10,0.000797702,-2.25438,-1.17956,-0.0500187,-10.8377,0.143291,
2,1,0,1,0,64211.6,0.145125,0.144784,5.53343,33,0.00857617,10,0.000801154,-2.25701,-0.578879,-0.101921,-21.9823,0.144784,
2,1,0,1,0,64211.6,0.14662,0.146301,5.49353,33,0.00871397,10,0.00080371,-2.26015,-0.397715,-0.148348,-31.7678,0.146301,
2,1,0,1,0,64211.7,0.14812,0.147773,5.4437,33,0.00885108,10,0.000804431,-2.26411,-0.303678,-0.194285,-41.1556,0.147773,
2,1,0,1,0,64211.7,0.149621,0.149302,5.37272,33,0.00898665,10,0.00080216,-2.26981,-0.241396,-0.244412,-51.0673,0.149302,
2,1,0,1,0,64211.7,0.151116,0.150804,5.2803,33,0.00911974,10,0.000796288,-2.27734,-0.191348,-0.308338,-63.3645,0.150804,
2,1,0,1,0,64211.7,0.152615,0.152265,5.17529,33,0.00925092,10,0.000788013,-2.28607,-0.159266,-0.37045,-74.6696,0.152265,
2,1,0,1,0,64211.8,0.154115,0.153754,5.0659,33,0.00937924,10,0.000778905,-2.29534,-0.139706,-0.422315,-83.2481,0.153754,
2,1,0,1,0,64211.8,0.155614,0.155369,4.93077,33,0.00950449,10,0.000766086,-2.30709,-0.128845,-0.457915,-87.8939,0.155369,
2,1,0,1,0,64211.8,0.157107,0.156783,4.78727,33,0.00962588,10,0.000750564,-2.31991,-0.115541,-0.510643,-95.2624,0.1567834,
2,1,0,1,0,64211.8,0.158608,0.158293,4.64101,33,0.00974416,10,0.00073464,-2.33339,-0.105119,-0.561268,-101.598,0.158293,
2,1,0,1,0,64211.9,0.160109,0.15976,4.49343,33,0.00985862,10,0.000717869,-2.34742,-0.104655,-0.563757,-98.7793,0.15976,
2,1,0,1,0,64211.9,0.161603,0.161268,4.34786,33,0.00996899,10,0.000701173,-2.36172,-0.104397,-0.565151,-95.7865,0.1612684,
2,1,0,1,0,64211.9,0.163102,0.162803,4.19822,33,0.0100762,10,0.000683485,-2.37693,-0.105279,-0.560416,-91.9925,0.1628034,
2,1,0,1,0,64211.9,0.164602,0.164284,4.06132,33,0.0101798,10,0.000667208,-2.39133,-0.104989,-0.561963,-89.2865,0.164284,
2,1,0,1,0,64212,0.166096,0.165748,3.93328,33,0.0102797,10,0.000651934,-2.40525,-0.10745,-0.549094,-84.3764,0.165748,
2,1,0,1,0,64212,0.167597,0.1673,3.81226,33,0.0103769,10,0.000637793,-2.41882,-0.116088,-0.508236,-75.7553,0.1673,
2,1,0,1,0,64212,0.169098,0.168772,3.70081,33,0.0104712,10,0.000624594,-2.4317,-0.121068,-0.487331,-70.494,0.168772,
2,1,0,1,0,64212,0.170592,0.170291,3.59517,33,0.0105624,10,0.000612226,-2.44428,-0.123063,-0.479429,-67.3837,0.170291,
2,1,0,1,0,64212.1,0.17209,0.171808,3.50046,33,0.0106514,10,0.000601407,-2.45588,-0.124838,-0.472611,-64.6084,0.171808,
2,1,0,1,0,64212.1,0.17359,0.173252,3.4122,33,0.0107381,10,0.000591172,-2.46697,-0.143773,-0.41037,-54.7108,0.1732524,
2,1,0,1,0,64212.1,0.175089,0.174768,3.3262,33,0.0108227,10,0.000581311,-2.47805,-0.151439,-0.389595,-50.6947,0.174768,
2,1,0,1,0,64212.1,0.176583,0.176259,3.25124,33,0.010905,10,0.000573059,-2.48795,-0.149894,-0.393612,-50.0775,0.176259,
2,1,0,1,0,64212.2,0.178084,0.177763,3.1856,33,0.0109859,10,0.000566281,-2.49681,-0.156035,-0.37812,-47.0303,0.177763,
2,1,0,1,0,64212.2,0.179585,0.17925,3.12451,33,0.0110651,10,0.000560068,-2.50522,-0.181854,-0.324437,-39.5817,0.17925,
2,1,0,1,0,64212.2,0.181079,0.180735,3.06097,33,0.0111424,10,0.000553225,-2.51414,-0.197822,-0.298248,-35.7233,0.180735,
2,1,0,1,0,64212.2,0.182579,0.182261,3.01173,33,0.0112187,10,0.00054892,-2.52118,-0.201102,-0.293383,-34.5048,0.182261,
2,1,0,1,0,64212.3,0.184078,0.183747,2.96407,33,0.0112938,10,0.00054464,-2.52811,-0.209776,-0.281252,-32.5636,0.183747,
2,1,0,1,0,64212.3,0.185578,0.185245,2.92108,33,0.0113676,10,0.000541116,-2.53446,-0.242813,-0.242986,-27.7129,0.185245,
2,1,0,1,0,64212.3,0.187072,0.186769,2.87294,33,0.0114401,10,0.000536577,-2.54167,-0.267007,-0.220968,-24.8246,0.186769,
2,1,0,1,0,64212.3,0.188573,0.188248,2.84028,33,0.0115119,10,0.000534677,-2.54664,-0.264321,-0.223214,-24.7599,0.188248,
2,1,0,1,0,64212.4,0.190072,0.189767,2.80659,33,0.0115829,10,0.0005326,-2.55182,-0.268768,-0.21952,-24.0078,0.189767,
2,1,0,1,0,64212.4,0.191567,0.191223,2.77205,33,0.0116526,10,0.00053008,-2.5572,-0.313997,-0.1879,-20.3355,0.191223,
2,1,0,1,0,64212.4,0.193066,0.1927,2.73532,33,0.0117219,10,0.000527097,-2.56299,-0.368839,-0.159962,-17.1364,0.1927,
2,1,0,1,0,64212.4,0.194566,0.194179,2.71309,33,0.0117904,10,0.000526825,-2.56654,-0.349989,-0.168577,-17.875,0.1941788,
2,1,0,1,0,64212.5,0.19606,0.195732,2.69185,33,0.0118581,10,0.000526881,-2.56995,-0.337685,-0.174719,-18.3404,0.1957318,
2,1,0,1,0,64212.5,0.197561,0.197213,2.66413,33,0.0119254,10,0.000525402,-2.57444,-0.41667,-0.141599,-14.7334,0.197213,
2,1,0,1,0,64212.5,0.199062,0.198761,2.64313,33,0.0119921,10,0.000525351,-2.57788,-0.460864,-0.12802,-13.2189,0.198761,
2,1,0,1,0,64212.5,0.200556,0.200202,2.6231,33,0.012058,10,0.000525149,-2.58119,-0.490775,-0.120218,-12.3187,0.200202,
2,1,0,1,0,64212.6,0.202055,0.201717,2.60597,33,0.0121237,10,0.000525668,-2.58403,-0.424754,-0.138904,-14.1124,0.201717,
2,1,0,1,0,64212.6,0.203553,0.203209,2.58462,33,0.012189,10,0.000525217,-2.5876,-0.574653,-0.102671,-10.362,0.203209,
2,1,0,1,0,64212.6,0.205053,0.204716,2.56682,33,0.0122538,10,0.000525469,-2.5906,-0.67454,-0.087467,-8.79255,0.204716,
2,1,0,1,0,64212.6,0.206547,0.206208,2.55065,33,0.012318,10,0.000525963,-2.59335,-0.659448,-0.0894688,-8.92816,0.206208,
2,1,0,1,0,64212.7,0.208048,0.207705,2.54761,33,0.0123822,10,0.000529153,-2.59387,-0.629388,-0.0937418,-9.28725,0.207705,
2,1,0,1,0,64212.7,0.209549,0.209223,2.53837,33,0.012446,10,0.000531085,-2.59544,-0.604079,-0.0976693,-9.64895,0.209223,
2,1,0,1,0,64212.7,0.211043,0.210734,2.51769,33,0.0125092,10,0.000530562,-2.599,-0.875686,-0.0673758,-6.62567,0.210734,
2,1,0,1,0,64212.7,0.212543,0.212226,2.50509,33,0.0125724,10,0.000531645,-2.60118,-0.805818,-0.0732175,-7.16308,0.2122256,
2,1,0,1,0,64212.8,0.214042,0.213696,2.49893,33,0.0126353,10,0.000534011,-2.60225,-0.743139,-0.079393,-7.73121,0.213696,
2,1,0,1,0,64212.8,0.215536,0.215224,2.48791,33,0.0126977,10,0.00053546,-2.60416,-0.81118,-0.0727336,-7.05648,0.215224,
2,1,0,1,0,64212.8,0.217036,0.21671,2.46965,33,0.01276,10,0.000535198,-2.60736,-1.01785,-0.0579651,-5.6042,0.21671,
2,1,0,1,0,64212.8,0.218537,0.218235,2.46337,33,0.0128222,10,0.000537593,-2.60847,-1.04015,-0.0567227,-5.46448,0.218235,
2,1,0,1,0,64212.9,0.220031,0.219742,2.45904,33,0.0128838,10,0.000540352,-2.60924,-0.97188,-0.0607071,-5.82436,0.219742,
2,1,0,1,0,64212.9,0.22153,0.221204,2.45431,33,0.0129456,10,0.000542904,-2.61007,-1.14367,-0.0515882,-4.92391,0.221204,
2,1,0,1,0,64212.9,0.22303,0.222698,2.43661,33,0.0130071,10,0.000542628,-2.61321,-1.22337,-0.0482273,-4.59893,0.222698,
2,1,0,1,0,64212.9,0.224529,0.224216,2.43014,33,0.0130684,10,0.000544875,-2.61437,-0.970049,-0.0608217,-5.79031,0.224216,
2,1,0,1,0,64213,0.226024,0.225694,2.42679,33,0.0131293,10,0.000547711,-2.61497,-1.06795,-0.0552461,-5.23748,0.225694,
2,1,0,1,0,64213,0.227525,0.227229,2.42529,33,0.0131903,10,0.000551096,-2.61524,-1.009,-0.0584736,-5.51915,0.227229,
2,1,0,1,0,64213,0.229025,0.22871,2.41418,33,0.0132511,10,0.000552148,-2.61723,-1.46993,-0.0401379,-3.781,0.22871,
2,1,0,1,0,64213,0.23052,0.230167,2.40606,33,0.0133115,10,0.000553794,-2.61869,-1.402,-0.0420827,-3.95869,0.230167,
2,1,0,1,0,64213.1,0.232019,0.231674,2.40419,33,0.0133719,10,0.000556989,-2.61903,-1.34111,-0.0439934,-4.12139,0.231674,
2,1,0,1,0,64213.1,0.233519,0.233195,2.40297,33,0.0134323,10,0.00056036,-2.61925,-1.79322,-0.0329017,-3.07436,0.233195,
2,1,0,1,0,64213.1,0.235018,0.234668,2.39061,33,0.0134926,10,0.000561002,-2.62149,-1.94675,-0.030307,-2.82946,0.234668,
2,1,0,1,0,64213.1,0.236511,0.236204,2.3804,33,0.0135524,10,0.00056226,-2.62335,-1.07621,-0.0548219,-5.11093,0.236204,
2,1,0,1,0,64213.2,0.238012,0.237678,2.38119,33,0.0136124,10,0.000565957,-2.62321,-1.17841,-0.0500673,-4.64928,0.237678,
2,1,0,1,0,64213.2,0.239513,0.239188,2.38103,33,0.0136722,10,0.000569514,-2.62324,-1.40927,-0.0418655,-3.87932,0.239188,
2,1,0,1,0,64213.2,0.241007,0.240688,2.37205,33,0.0137317,10,0.000570925,-2.62488,-2.97469,-0.019834,-1.83448,0.240688,
2,1,0,1,0,64213.2,0.242506,0.242172,2.36029,33,0.0137913,10,0.000571595,-2.62703,-1.5627,-0.0377551,-3.49112,0.242172,
2,1,0,1,0,64213.3,0.244006,0.243671,2.36038,33,0.0138508,10,0.000575158,-2.62702,-1.49881,-0.0393646,-3.62847,0.243671,
2,1,0,1,0,64213.3,0.2455,0.245193,2.36702,33,0.01391,10,0.000580375,-2.6258,-2.97047,-0.0198622,-1.82883,0.245193,
2,1,0,1,0,64213.3,0.247001,0.24671,2.35469,33,0.0139693,10,0.000580926,-2.62807,-2.43253,-0.0242546,-2.22927,0.24671,
2,1,0,1,0,64213.3,0.248502,0.248157,2.34696,33,0.0140286,10,0.000582416,-2.62949,-1.52047,-0.0388038,-3.56312,0.248157,
2,1,0,1,0,64213.4,0.249995,0.249677,2.34883,33,0.0140874,10,0.000586447,-2.62915,-1.41489,-0.0416994,-3.82038,0.249677,
2,1,0,1,0,64213.4,0.251494,0.251184,2.34498,33,0.0141464,10,0.00058902,-2.62986,-3.18531,-0.0185225,-1.69271,0.251184,
2,1,0,1,0,64213.4,0.252994,0.252643,2.3436,33,0.0142053,10,0.000592092,-2.63012,-2.3358,-0.025259,-2.30608,0.252643,
2,1,0,1,0,64213.4,0.254493,0.254174,2.33182,33,0.0142642,10,0.00059269,-2.6323,-1.60495,-0.0367614,-3.3548,0.254174,
2,1,0,1,0,64213.5,0.255988,0.255659,2.33057,33,0.0143226,10,0.000595831,-2.63254,-1.75176,-0.0336804,-3.06925,0.255659,
2,1,0,1,0,64213.5,0.257488,0.257177,2.33207,33,0.0143813,10,0.000599755,-2.63226,-3.33486,-0.0176919,-1.60822,0.257177,
2,1,0,1,0,64213.5,0.258989,0.258656,2.33073,33,0.0144399,10,0.000602858,-2.63251,-16.9715,-0.00347641,-0.31524,0.258656,
2,1,0,1,0,64213.5,0.260483,0.260178,2.32272,33,0.0144982,10,0.000604322,-2.634,-1.499,-0.0393596,-3.57194,0.260178,
2,1,0,1,0,64213.6,0.261983,0.26163,2.31983,33,0.0145566,10,0.000606939,-2.63454,-1.46825,-0.0401838,-3.63673,0.2616303,
2,1,0,1,0,64213.6,0.263482,0.263136,2.31719,33,0.0146149,10,0.000609736,-2.63504,-8.48179,-0.00695608,-0.628667,0.263136,
2,1,0,1,0,64213.6,0.264982,0.264726,2.31422,33,0.0146731,10,0.000612634,-2.6356,-7.87966,-0.00748764,-0.675606,0.264726,
2,1,0,1,0,64213.6,0.266476,0.266117,2.3073,33,0.0147311,10,0.000614011,-2.6369,-1.83386,-0.0321726,-2.90429,0.2661173,
2,1,0,1,0,64213.7,0.267976,0.26766,2.3038,33,0.0147891,10,0.000616634,-2.63756,-1.54385,-0.0382161,-3.43672,0.26766,
2,1,0,1,0,64213.7,0.269477,0.269144,2.30624,33,0.0148471,10,0.00062071,-2.6371,-2.79075,-0.0211413,-1.89983,0.269144,
2,1,0,1,0,64213.7,0.270971,0.270701,2.30119,33,0.0149048,10,0.000622933,-2.63805,11.8794,0.00496658,0.445605,0.270701,
2,1,0,1,0,64213.7,0.27247,0.272153,2.29414,33,0.0149627,10,0.000624358,-2.63938,-1.45893,-0.0404407,-3.62781,0.272153,
2,1,0,1,0,64213.8,0.27397,0.27365,2.2906,33,0.0150205,10,0.000626824,-2.64005,-1.04892,-0.0562486,-5.04008,0.27365,
2,1,0,1,0,64213.8,0.275464,0.275147,2.29191,33,0.0150779,10,0.000630611,-2.6398,-1.70553,-0.0345934,-3.09429,0.275147,
2,1,0,1,0,64213.8,0.276965,0.27667,2.29012,33,0.0151354,10,0.000633607,-2.64014,-6.16253,-0.00957399,-0.855229,0.27667,
2,1,0,1,0,64213.8,0.278466,0.278155,2.28282,33,0.0151929,10,0.000634979,-2.64153,-2.51698,-0.0234408,-2.08934,0.278155,
2,1,0,1,0,64213.9,0.27996,0.279643,2.28163,33,0.0152502,10,0.000638042,-2.64175,-1.05747,-0.0557937,-4.96175,0.279643,
2,1,0,1,0,64213.9,0.281458,0.281152,2.28163,33,0.0153075,10,0.000641486,-2.64175,-1.9857,-0.0297124,-2.63834,0.281152,
2,1,0,1,0,64213.9,0.282958,0.282647,2.27401,33,0.0153647,10,0.000642743,-2.64321,-8.20434,-0.00719132,-0.638388,0.282647,
2,1,0,1,0,64213.9,0.284457,0.284121,2.26904,33,0.0154219,10,0.00064468,-2.64416,-3.41992,-0.0172519,-1.53119,0.284121,
2,1,0,1,0,64214,0.285951,0.285646,2.26518,33,0.0154788,10,0.00064704,-2.6449,-1.0783,-0.0547157,-4.84288,0.285646,
2,1,0,1,0,64214,0.287452,0.28711,2.26282,33,0.0155357,10,0.000649677,-2.64535,-2.06697,-0.0285442,-2.51883,0.28711,
2,1,0,1,0,64214,0.288953,0.288652,2.26051,33,0.0155926,10,0.000652501,-2.64579,-4.24347,-0.0139037,-1.22603,0.288652,
2,1,0,1,0,64214,0.290447,0.290113,2.25487,33,0.0156492,10,0.000654169,-2.64688,-2.03594,-0.0289792,-2.55102,0.290113,
2,1,0,1,0,64214.1,0.291947,0.291635,2.24706,33,0.015706,10,0.000655322,-2.64838,-1.22303,-0.0482408,-4.23707,0.2916348,
2,1,0,1,0,64214.1,0.293446,0.293102,2.24897,33,0.0157626,10,0.000659178,-2.64802,-2.19455,-0.0268848,-2.35955,0.293102,
2,1,0,1,0,64214.1,0.29494,0.29466,2.24315,33,0.0158189,10,0.000660968,-2.64914,-7.09529,-0.00831538,-0.729071,0.29466,
2,1,0,1,0,64214.1,0.29644,0.2961,2.24456,33,0.0158754,10,0.000664613,-2.64887,-2.15605,-0.0273649,-2.39504,0.2961,
2,1,0,1,0,64214.2,0.297941,0.297639,2.23931,33,0.0159318,10,0.000666507,-2.64989,-1.28202,-0.0460211,-4.01884,0.297639,
2,1,0,1,0,64214.2,0.29944,0.299162,2.23564,33,0.0159881,10,0.00066882,-2.6506,-0.00995421,-5.92714,-421.61,0.299162,
2,1,0,1,0,64214.2,0.299736,0.299427,1.88575,33,0.0160174,10,0.000564644,-2.72452,0.00233235,25.2964,1287.75,0.299427,
2,1,0,1,0,64214.2,0.298238,0.297942,0.893606,33,0.01605,10,0.000266243,-3.04885,0.00369591,15.9636,542.946,0.297942,
2,1,0,1,0,64214.2,0.296744,0.296444,0.354766,33,0.0160645,10,0.000105168,-3.45006,0.00344777,17.1125,304.959,0.296444,
2,1,0,1,0,64214.3,0.295243,0.294933,0.00744258,33,0.0160683,10,2.19506e-06,-5.12828,0.0156964,3.75882,193.961,0.294933,
2,0,0,1,0,64214.3,0.293742,0.293383,-0.227483,33,0.016065,10,-6.67398e-05,-3.64305,-0.00667253,-8.84222,136.135,0.293383,
2,0,0,1,0,64214.3,0.292248,0.291928,-0.387976,33,0.0160569,10,-0.000113261,-3.41119,-0.00704041,-8.38019,101.778,0.291928,
2,0,0,1,0,64214.3,0.290748,0.290442,-0.515638,33,0.0160451,10,-0.000149763,-3.28765,-0.0143723,-4.10512,76.6725,0.290442,
2,0,0,1,0,64214.4,0.289249,0.288905,-0.625685,33,0.0160304,10,-0.000180764,-3.20364,-0.0222963,-2.64618,61.4845,0.288905,
2,0,0,1,0,64214.4,0.287754,0.287388,-0.705357,33,0.0160134,10,-0.000202711,-3.15159,-0.0301439,-1.95728,52.3256,0.287388,
2,0,0,1,0,64214.4,0.286254,0.28589,-0.766868,33,0.0159945,10,-0.00021924,-3.11528,-0.0383339,-1.53911,45.602,0.28589,
2,0,0,1,0,64214.4,0.284754,0.28446,-0.828504,33,0.0159741,10,-0.000235676,-3.08171,-0.0508385,-1.16054,37.2523,0.28446,
2,0,0,1,0,64214.5,0.28326,0.282939,-0.886707,33,0.0159523,10,-0.000250884,-3.05222,-0.0627287,-0.940558,32.0387,0.282939,
2,0,0,1,0,64214.5,0.28176,0.281429,-0.931023,33,0.0159292,10,-0.000262017,-3.03104,-0.0734924,-0.802804,28.8689,0.281429,
2,0,0,1,0,64214.5,0.280261,0.279919,-0.96542,33,0.015905,10,-0.000270239,-3.01528,-0.0835409,-0.706241,26.6851,0.279919,
2,0,0,1,0,64214.5,0.278761,0.278392,-1.00337,33,0.0158799,10,-0.00027933,-2.99854,-0.0982276,-0.600646,23.5793,0.278392,
2,0,0,1,0,64214.6,0.277267,0.276941,-1.04205,33,0.015854,10,-0.000288586,-2.98211,-0.113503,-0.519812,21.0487,0.276941,
2,0,0,1,0,64214.6,0.275766,0.275438,-1.07538,33,0.0158271,10,-0.0002962,-2.96844,-0.119571,-0.49343,20.5732,0.275438,
2,0,0,1,0,64214.6,0.274265,0.273951,-1.10573,33,0.0157994,10,-0.000302917,-2.95635,-0.131434,-0.448894,19.2746,0.273951,
2,0,0,1,0,64214.6,0.272771,0.272443,-1.12876,33,0.0157712,10,-0.000307523,-2.9474,-0.144044,-0.409596,18.0987,0.272443,
2,0,0,1,0,64214.7,0.271272,0.270939,-1.15889,33,0.0157422,10,-0.000313989,-2.93596,-0.163631,-0.360568,16.299,0.2709395,
2,0,0,1,0,64214.7,0.269772,0.269444,-1.18935,33,0.0157124,10,-0.000320462,-2.92469,-0.155859,-0.378547,17.4339,0.269444,
2,0,0,1,0,64214.7,0.268273,0.267924,-1.2071,33,0.0156821,10,-0.000323412,-2.91826,-0.15949,-0.369928,17.4566,0.267924,
2,0,0,1,0,64214.7,0.26678,0.266447,-1.22386,33,0.0156514,10,-0.000326093,-2.91227,-0.214973,-0.274454,13.1873,0.266447,
2,0,0,1,0,64214.8,0.265279,0.264917,-1.25249,33,0.0156199,10,-0.000331806,-2.90223,-0.22304,-0.264527,12.9054,0.264917,
2,0,0,1,0,64214.8,0.263778,0.263489,-1.27461,33,0.015588,10,-0.000335847,-2.89462,-0.201853,-0.292293,14.4591,0.263489,
2,0,0,1,0,64214.8,0.262284,0.261947,-1.29121,33,0.0155556,10,-0.00033823,-2.889,-0.215402,-0.273906,13.8048,0.261947,
2,0,0,1,0,64214.8,0.260784,0.260473,-1.30451,33,0.0155227,10,-0.00033979,-2.88455,-0.246132,-0.239708,12.2762,0.260473,
2,0,0,1,0,64214.9,0.259285,0.259018,-1.32765,33,0.0154893,10,-0.000343886,-2.87692,-0.274348,-0.215056,11.1552,0.259018,
2,0,0,1,0,64214.9,0.257791,0.257471,-1.35451,33,0.0154555,10,-0.000348748,-2.86822,-0.250865,-0.235186,12.3586,0.257471,
2,0,0,1,0,64214.9,0.25629,0.255984,-1.36488,33,0.0154212,10,-0.000349388,-2.86491,-0.247421,-0.23846,12.6952,0.255984,
2,0,0,1,0,64214.9,0.254789,0.254469,-1.37778,33,0.0153864,10,-0.000350601,-2.86082,-0.313139,-0.188415,10.165,0.254469,
2,0,0,1,0,64215,0.253296,0.252966,-1.39829,33,0.0153515,10,-0.00035372,-2.8544,-0.345465,-0.170784,9.3019,0.252966,
2,0,0,1,0,64215,0.251797,0.251448,-1.41505,33,0.0153159,10,-0.000355812,-2.84923,-0.293571,-0.200973,11.0792,0.251448,
2,0,0,1,0,64215,0.250297,0.24995,-1.42725,33,0.0152799,10,-0.000356741,-2.8455,-0.297348,-0.198421,11.0737,0.24995,
2,0,0,1,0,64215,0.248797,0.248457,-1.44213,33,0.0152436,10,-0.000358309,-2.84099,-0.366103,-0.161157,9.09024,0.248457,
2,0,0,1,0,64215.1,0.247303,0.24696,-1.45716,33,0.0152071,10,-0.00035986,-2.83649,-0.385203,-0.153166,8.72258,0.24696,
2,0,0,1,0,64215.1,0.245802,0.245515,-1.48036,33,0.01517,10,-0.000363449,-2.82963,-0.310775,-0.189848,10.9128,0.245515,
2,0,0,1,0,64215.1,0.244302,0.243987,-1.48973,33,0.0151325,10,-0.000363474,-2.82689,-0.322131,-0.183155,10.6416,0.243987,
2,0,0,1,0,64215.1,0.242807,0.242477,-1.50147,33,0.0150948,10,-0.000364072,-2.82348,-0.420108,-0.14044,8.24975,0.242477,
2,0,0,1,0,64215.2,0.241308,0.240981,-1.5174,33,0.0150567,10,-0.000365663,-2.8189,-0.475315,-0.124128,7.3478,0.240981,
2,0,0,1,0,64215.2,0.239808,0.239466,-1.53228,33,0.0150182,10,-0.00036693,-2.81466,-0.355963,-0.165748,9.90007,0.239466,
2,0,0,1,0,64215.2,0.238309,0.237941,-1.54546,33,0.0149794,10,-0.000367728,-2.81094,-0.373366,-0.158022,9.53003,0.237941,
2,0,0,1,0,64215.2,0.236815,0.23651,-1.55308,33,0.0149403,10,-0.000367318,-2.80881,-0.410686,-0.143662,8.73469,0.23651,
2,0,0,1,0,64215.3,0.235315,0.234967,-1.56738,33,0.0149009,10,-0.000368282,-2.80483,-0.629717,-0.0936929,5.72436,0.234967,
2,0,0,1,0,64215.3,0.233814,0.233509,-1.58406,33,0.0148611,10,-0.000369892,-2.80023,-0.39025,-0.151185,9.33362,0.233509,
2,0,0,1,0,64215.3,0.23232,0.232008,-1.59586,33,0.0148211,10,-0.000370252,-2.79701,-0.376955,-0.156517,9.7359,0.232008,
2,0,0,1,0,64215.3,0.230821,0.230469,-1.60399,33,0.0147806,10,-0.00036967,-2.7948,-0.470118,-0.1255,7.86468,0.230469,
2,0,0,1,0,64215.4,0.229321,0.229017,-1.61907,33,0.0147399,10,-0.000370793,-2.79074,-0.616233,-0.095743,6.06155,0.229017,
2,0,0,1,0,64215.4,0.227827,0.22752,-1.63169,33,0.014699,10,-0.000371242,-2.78736,-0.489511,-0.120528,7.67651,0.22752,
2,0,0,1,0,64215.4,0.226326,0.225996,-1.64437,33,0.0146576,10,-0.000371622,-2.784,-0.403703,-0.146147,9.37237,0.225996,
2,0,0,1,0,64215.4,0.224825,0.22454,-1.652,33,0.014616,10,-0.000370939,-2.78199,-0.617317,-0.0955749,6.1766,0.22454,
2,0,0,1,0,64215.5,0.223331,0.223008,-1.66851,33,0.0145742,10,-0.000372091,-2.77767,-0.53706,-0.109857,7.14642,0.223008,
2,0,0,1,0,64215.5,0.221831,0.221502,-1.68309,33,0.0145319,10,-0.000372808,-2.77389,-0.518259,-0.113843,7.4542,0.2215018,
2,0,0,1,0,64215.5,0.220333,0.220013,-1.69356,33,0.0144894,10,-0.000372605,-2.7712,-0.42032,-0.140369,9.27146,0.220013,
2,0,0,1,0,64215.5,0.218834,0.218478,-1.70306,33,0.0144465,10,-0.000372081,-2.76877,-0.426217,-0.138427,9.22457,0.218478,
2,0,0,1,0,64215.6,0.217339,0.217015,-1.71568,33,0.0144035,10,-0.000372328,-2.76556,-0.670432,-0.0880029,5.89619,0.217015,
2,0,0,1,0,64215.6,0.215839,0.215528,-1.7287,33,0.01436,10,-0.000372583,-2.76228,-0.466484,-0.126478,8.51828,0.215528,
2,0,0,1,0,64215.6,0.214338,0.214054,-1.73849,33,0.0143162,10,-0.000372132,-2.75983,-0.449853,-0.131154,8.88905,0.214054,
2,0,0,1,0,64215.6,0.212844,0.212508,-1.74927,33,0.0142724,10,-0.000371735,-2.75714,-0.477693,-0.12351,8.46019,0.212508,
2,0,0,1,0,64215.7,0.211344,0.211038,-1.76336,33,0.014228,10,-0.000372136,-2.75366,-0.63769,-0.0925215,6.37071,0.211038,
2,0,0,1,0,64215.7,0.209845,0.209567,-1.77659,33,0.0141834,10,-0.000372314,-2.75041,-0.627991,-0.0939504,6.50251,0.209567,
2,0,0,1,0,64215.7,0.20835,0.208048,-1.78534,33,0.0141387,10,-0.000371437,-2.74828,-0.396922,-0.148644,10.369,0.208048,
2,0,0,1,0,64215.7,0.206851,0.20651,-1.80102,33,0.0140935,10,-0.000371929,-2.74448,-0.436671,-0.135113,9.48333,0.20651,
2,0,0,1,0,64215.8,0.20535,0.20502,-1.81217,33,0.0140478,10,-0.00037153,-2.7418,-0.674182,-0.0875135,6.1744,0.20502,
2,0,0,1,0,64215.8,0.203856,0.203502,-1.82653,33,0.0140021,10,-0.000371703,-2.73837,-0.627748,-0.0939868,6.67696,0.203502,
2,0,0,1,0,64215.8,0.202356,0.202002,-1.83136,33,0.013956,10,-0.000369939,-2.73723,-0.519546,-0.113561,8.1495,0.202002,
2,0,0,1,0,64215.8,0.200857,0.200525,-1.84307,33,0.0139096,10,-0.000369582,-2.73446,-0.467528,-0.126196,9.10456,0.200525,
2,0,0,1,0,64215.9,0.199357,0.199039,-1.85631,33,0.0138629,10,-0.000369478,-2.73135,-0.772998,-0.0763262,5.54457,0.199039,
2,0,0,1,0,64215.9,0.197863,0.197509,-1.8724,33,0.013816,10,-0.000369816,-2.7276,-0.681245,-0.0866061,6.3108,0.197509,
2,0,0,1,0,64215.9,0.196362,0.196051,-1.88425,33,0.0137688,10,-0.000369409,-2.72486,-0.48229,-0.122333,8.98232,0.196051,
2,0,0,1,0,64215.9,0.194861,0.194514,-1.89227,33,0.0137212,10,-0.000368073,-2.72302,-0.455113,-0.129638,9.58957,0.194514,
2,0,0,1,0,64216,0.193367,0.193021,-1.90837,33,0.0136734,10,-0.000368357,-2.71934,-0.599468,-0.0984207,7.32572,0.193021,
2,0,0,1,0,64216,0.191868,0.19155,-1.92373,33,0.0136251,10,-0.000368491,-2.71586,-0.625627,-0.0943054,7.06397,0.19155,
2,0,0,1,0,64216,0.190368,0.19002,-1.93467,33,0.0135765,10,-0.000367627,-2.71339,-0.474382,-0.124372,9.3755,0.19002,
2,0,0,1,0,64216,0.18887,0.188511,-1.94287,33,0.0135277,10,-0.000366253,-2.71156,-0.411306,-0.143446,10.9104,0.188511,
2,0,0,1,0,64216.1,0.187376,0.187074,-1.96151,33,0.0134787,10,-0.000366949,-2.70741,-0.480047,-0.122905,9.39734,0.187074,
2,0,0,1,0,64216.1,0.185875,0.185542,-1.97814,33,0.013429,10,-0.000367029,-2.70374,-0.586348,-0.100623,7.72716,0.185542,
2,0,0,1,0,64216.1,0.184374,0.184031,-1.98401,33,0.0133791,10,-0.000365119,-2.70246,-0.45648,-0.12925,10.0033,0.184031,
2,0,0,1,0,64216.1,0.18288,0.18255,-1.99518,33,0.0133291,10,-0.000364219,-2.70002,-0.456873,-0.129139,10.0938,0.18255,
2,0,0,1,0,64216.2,0.18138,0.181077,-2.012,33,0.0132785,10,-0.000364327,-2.69637,-0.507545,-0.116246,9.15054,0.1810772,
2,0,0,1,0,64216.2,0.179881,0.17951,-2.0301,33,0.0132275,10,-0.000364423,-2.69248,-0.538135,-0.109638,8.68229,0.17951,
2,0,0,1,0,64216.2,0.178387,0.178057,-2.04928,33,0.0131763,10,-0.000364888,-2.6884,-0.467107,-0.126309,10.0901,0.178057,
2,0,0,1,0,64216.2,0.176886,0.176532,-2.06272,33,0.0131245,10,-0.000364136,-2.68556,-0.414167,-0.142455,11.4865,0.176532,
2,0,0,1,0,64216.3,0.175385,0.175086,-2.07748,33,0.0130724,10,-0.000363738,-2.68246,-0.479454,-0.123057,9.975,0.175086,
2,0,0,1,0,64216.3,0.173892,0.173542,-2.10038,33,0.01302,10,-0.000364503,-2.6777,-0.44576,-0.132358,10.8155,0.173542,
2,0,0,1,0,64216.3,0.172393,0.172055,-2.11221,33,0.012967,10,-0.000363417,-2.67526,-0.382159,-0.154386,12.7136,0.172055,
2,0,0,1,0,64216.3,0.170893,0.170568,-2.12972,33,0.0129135,10,-0.000363262,-2.67168,-0.368214,-0.160233,13.352,0.170568,
2,0,0,1,0,64216.4,0.169393,0.16905,-2.14765,33,0.0128596,10,-0.00036306,-2.66804,-0.348855,-0.169125,14.2043,0.16905,
2,0,0,1,0,64216.4,0.167899,0.167577,-2.17512,33,0.0128053,10,-0.0003645,-2.66252,-0.366239,-0.161097,13.6547,0.167577,
2,0,0,1,0,64216.4,0.166398,0.166091,-2.19585,33,0.0127503,10,-0.00036471,-2.6584,-0.33043,-0.178555,15.2955,0.166091,
2,0,0,1,0,64216.4,0.164898,0.164561,-2.21274,33,0.0126947,10,-0.00036413,-2.65507,-0.307915,-0.191611,16.5917,0.164561,
2,0,0,1,0,64216.5,0.163403,0.16312,-2.23927,33,0.0126389,10,-0.000365271,-2.64989,-0.33058,-0.178474,15.6229,0.16312,
2,0,0,1,0,64216.5,0.161904,0.161544,-2.26764,33,0.0125821,10,-0.000366323,-2.64443,-0.305045,-0.193414,17.0911,0.161544,
2,0,0,1,0,64216.5,0.160404,0.160059,-2.29762,33,0.0125247,10,-0.000367755,-2.63872,-0.28733,-0.205339,18.3436,0.1600592,
2,0,0,1,0,64216.5,0.158905,0.158554,-2.31464,33,0.0124666,10,-0.000366995,-2.63552,-0.266447,-0.221432,20.077,0.158554,
2,0,0,1,0,64216.6,0.157411,0.157085,-2.34704,33,0.0124081,10,-0.000368684,-2.62948,-0.270524,-0.218095,20.0416,0.157085,
2,0,0,1,0,64216.6,0.155911,0.155618,-2.38349,33,0.0123485,10,-0.000370914,-2.62279,-0.240879,-0.244937,22.8232,0.1556183,
2,0,0,1,0,64216.6,0.15441,0.154087,-2.42327,33,0.012288,10,-0.000373395,-2.6156,-0.223612,-0.26385,24.9134,0.154087,
2,0,0,1,0,64216.6,0.152916,0.152592,-2.46087,33,0.0122268,10,-0.00037551,-2.60891,-0.212934,-0.277081,26.6286,0.152592,
2,0,0,1,0,64216.7,0.151417,0.151053,-2.49661,33,0.0121645,10,-0.00037712,-2.60265,-0.195583,-0.301662,29.5226,0.151053,
2,0,0,1,0,64216.7,0.149917,0.149552,-2.55031,33,0.0121009,10,-0.000381405,-2.59341,-0.177431,-0.332524,33.1026,0.149552,
2,0,0,1,0,64216.7,0.148423,0.148104,-2.60138,33,0.0120364,10,-0.000385275,-2.5848,-0.156877,-0.37609,38.1923,0.148104,
2,0,0,1,0,64216.7,0.146922,0.146533,-2.65618,33,0.0119702,10,-0.000389219,-2.57574,-0.148806,-0.396489,41.1857,0.146533,
2,0,0,1,0,64216.8,0.145421,0.145114,-2.71456,33,0.0119025,10,-0.00039392,-2.5663,-0.143064,-0.412402,43.9208,0.1451135,
2,0,0,1,0,64216.8,0.143927,0.143573,-2.79265,33,0.0118335,10,-0.000400951,-2.55398,-0.131528,-0.448572,48.8984,0.143573,
2,0,0,1,0,64216.8,0.142429,0.142071,-2.8715,33,0.0117623,10,-0.000407958,-2.54189,-0.120073,-0.491367,55.0465,0.142071,
2,0,0,1,0,64216.8,0.140929,0.140581,-2.94852,33,0.0116892,10,-0.000414505,-2.5304,-0.1157,-0.509938,58.8281,0.140581,
2,0,0,1,0,64216.9,0.13943,0.13911,-3.03322,33,0.0116139,10,-0.000421951,-2.5181,-0.112458,-0.524642,62.4493,0.13911,
2,0,0,1,0,64216.9,0.137935,0.137628,-3.14325,33,0.0115365,10,-0.0004326,-2.50262,-0.103753,-0.568656,69.7883,0.137628,
2,0,0,1,0,64216.9,0.136435,0.136132,-3.25081,33,0.0114562,10,-0.000442539,-2.48801,-0.100161,-0.58905,74.6183,0.136132,
2,0,0,1,0,64216.9,0.134934,0.134588,-3.36212,33,0.0113731,10,-0.000452501,-2.47339,-0.0994243,-0.593416,77.8072,0.134588,
2,0,0,1,0,64217,0.13344,0.133138,-3.47758,33,0.0112875,10,-0.000462998,-2.45872,-0.100818,-0.585215,79.4568,0.133138,
2,0,0,1,0,64217,0.13194,0.131619,-3.59666,33,0.0111986,10,-0.000473389,-2.4441,-0.104399,-0.56514,79.3853,0.131619,
2,0,0,1,0,64217,0.13044,0.130004,-3.7231,33,0.0111067,10,-0.000484017,-2.4291,-0.103437,-0.570394,82.8352,0.130004,
2,0,0,1,0,64217,0.128941,0.128619,-3.84882,33,0.0110116,10,-0.00049503,-2.41467,-0.103256,-0.571393,85.7323,0.128619,
2,0,0,1,0,64217.1,0.127447,0.127109,-3.97137,33,0.0109138,10,-0.000504797,-2.40106,-0.112594,-0.524009,81.1438,0.127109,
2,0,0,1,0,64217.1,0.125946,0.125616,-4.09403,33,0.0108126,10,-0.000514275,-2.38785,-0.11618,-0.507835,81.0621,0.125616,
2,0,0,1,0,64217.1,0.124446,0.124164,-4.2212,33,0.0107082,10,-0.000524122,-2.37456,-0.118781,-0.496711,81.568,0.124164,
2,0,0,1,0,64217.1,0.122952,0.122591,-4.33824,33,0.0106012,10,-0.00053183,-2.36269,-0.124612,-0.473469,80.0795,0.122591,
2,0,0,1,0,64217.2,0.121453,0.121159,-4.45005,33,0.0104909,10,-0.000539162,-2.35164,-0.137642,-0.428649,74.3941,0.121159,
2,0,0,1,0,64217.2,0.119953,0.119622,-4.56034,33,0.0103778,10,-0.000545518,-2.341,-0.146513,-0.402696,71.6474,0.119622,
2,0,0,1,0,64217.2,0.118459,0.118088,-4.672,33,0.0102624,10,-0.000551708,-2.3305,-0.149018,-0.395925,72.1001,0.118088,
2,0,0,1,0,64217.2,0.116958,0.116583,-4.78046,33,0.0101438,10,-0.000557319,-2.32053,-0.155766,-0.378774,70.5461,0.116583,
2,0,0,1,0,64217.3,0.115457,0.115165,-4.87493,33,0.0100226,10,-0.000561423,-2.31203,-0.176776,-0.333756,63.4312,0.115165,
2,0,0,1,0,64217.3,0.113963,0.113648,-4.96806,33,0.0098996,10,-0.000564608,-2.30381,-0.196952,-0.299566,58.0641,0.113648,
2,0,0,1,0,64217.3,0.112464,0.112142,-5.06783,33,0.00977379,10,-0.000568314,-2.29518,-0.19581,-0.301312,59.453,0.112142,
2,0,0,1,0,64217.3,0.110965,0.110627,-5.14577,33,0.00964574,10,-0.000569264,-2.28855,-0.203593,-0.289793,58.1496,0.110627,
2,0,0,1,0,64217.4,0.109466,0.109149,-5.2212,33,0.00951563,10,-0.00056989,-2.28223,-0.249019,-0.23693,48.2843,0.1091492,
2,0,0,1,0,64217.4,0.107972,0.107625,-5.29718,33,0.00938415,10,-0.000570111,-2.27595,-0.278162,-0.212106,43.804,0.107625,
2,0,0,1,0,64217.4,0.106471,0.106152,-5.36204,33,0.00925054,10,-0.000569193,-2.27067,-0.302376,-0.195121,40.7746,0.106152,
2,0,0,1,0,64217.4,0.10497,0.104623,-5.41603,33,0.00911536,10,-0.000566638,-2.26632,-0.327006,-0.180425,38.102,0.104623,
2,0,0,1,0,64217.5,0.103476,0.103136,-5.46609,33,0.00897934,10,-0.000563752,-2.26232,-0.429842,-0.13726,29.2448,0.103136,
2,0,0,1,0,64217.5,0.101976,0.101626,-5.51215,33,0.00884162,10,-0.000560177,-2.25868,-0.559641,-0.105425,22.6321,0.101626,
2,0,0,1,0,64217.5,0.100477,0.100119,-5.54238,33,0.0087031,10,-0.000554897,-2.2563,-0.685406,-0.0860804,18.5934,0.100119,
2,0,0,1,0,64217.5,0.0989825,0.0986351,-5.56359,33,0.00856443,10,-0.000548765,-2.25464,-0.768359,-0.0767871,16.6513,0.09863513,
2,0,0,1,0,64217.6,0.0974817,0.0971488,-5.57719,33,0.00842468,10,-0.000541818,-2.25358,-1.47537,-0.0399901,8.69923,0.0971488,
2,0,0,1,0,64217.6,0.0959822,0.095655,-5.59039,33,0.00828459,10,-0.000534748,-2.25256,-8.2632,-0.00714009,1.55455,0.095655,
2,0,0,1,0,64217.6,0.094488,0.094145,-5.58899,33,0.008145,10,-0.000526176,-2.25267,4.27458,0.0138025,-3.00564,0.094145,
2,0,0,1,0,64217.6,0.0929884,0.0926621,-5.58382,33,0.00800498,10,-0.000517408,-2.25307,3.31168,0.0178157,-3.87729,0.0926621,
2,0,0,1,0,64217.7,0.0914889,0.0911161,-5.57066,33,0.00786516,10,-0.000507577,-2.25409,1.56361,0.0377331,-8.19916,0.0911161,
2,0,0,1,0,64217.7,0.0899894,0.0896358,-5.55326,33,0.00772564,10,-0.000497771,-2.25545,0.866727,0.0680722,-14.7309,0.0896358,
2,0,0,1,0,64217.7,0.0884951,0.0881597,-5.53064,33,0.00758719,10,-0.000487579,-2.25722,0.744276,0.0792717,-17.1033,0.08815971,
2,0,0,1,0,64217.7,0.0869943,0.0866523,-5.50309,33,0.00744888,10,-0.000476856,-2.25939,0.763116,0.0773146,-16.6089,0.0866523,
2,0,0,1,0,64217.8,0.0854935,0.085171,-5.47523,33,0.0073112,10,-0.000466331,-2.2616,0.670906,0.0879408,-18.7998,0.085171,
2,0,0,1,0,64217.8,0.0839993,0.083631,-5.45161,33,0.0071747,10,-0.000455923,-2.26348,0.590913,0.0998456,-21.2182,0.083631,
2,0,0,1,0,64217.8,0.0824998,0.0822049,-5.42256,33,0.00703839,10,-0.000445761,-2.2658,0.655219,0.0900462,-19.0476,0.0822049,
2,0,0,1,0,64217.8,0.0810002,0.0806929,-5.39186,33,0.00690288,10,-0.000435084,-2.26826,0.81195,0.0726646,-15.2926,0.0806929,
2,0,0,1,0,64217.9,0.0795007,0.0791398,-5.35979,33,0.00676803,10,-0.000424172,-2.27085,0.791422,0.0745493,-15.6131,0.0791398,
2,0,0,1,0,64217.9,0.0780078,0.077669,-5.33469,33,0.00663436,10,-0.00041434,-2.27289,0.66665,0.0885022,-18.441,0.077669,
2,0,0,1,0,64217.9,0.076507,0.07619,-5.31646,33,0.00650077,10,-0.000405061,-2.27438,0.716281,0.0823699,-17.0715,0.07619,
2,0,0,1,0,64217.9,0.0750062,0.0746816,-5.2884,33,0.00636787,10,-0.000394946,-2.27668,0.854366,0.069057,-14.2536,0.0746816,
2,0,0,1,0,64218,0.073512,0.0731118,-5.26048,33,0.0062361,10,-0.000384603,-2.27897,0.936427,0.0630054,-12.9526,0.07311184,
2,0,0,1,0,64218,0.0720124,0.0716514,-5.24454,33,0.00610431,10,-0.000375779,-2.28029,0.795481,0.0741689,-15.1863,0.0716514,
2,0,0,1,0,64218,0.0705129,0.0701608,-5.22857,33,0.005973,10,-0.000366841,-2.28162,0.819051,0.0720346,-14.6782,0.0701608,
2,0,0,1,0,64218,0.0690187,0.0686911,-5.20505,33,0.00584274,10,-0.000357541,-2.28357,1.06276,0.0555158,-11.2784,0.0686911,
2,0,0,1,0,64218.1,0.0675179,0.0671948,-5.18094,33,0.00571249,10,-0.000348132,-2.28559,1.13409,0.0520241,-10.5348,0.0671948,
2,0,0,1,0,64218.1,0.066017,0.0656977,-5.1685,33,0.0055827,10,-0.000339559,-2.28664,0.97034,0.0608034,-12.2574,0.0656977,
2,0,0,1,0,64218.1,0.0645242,0.0641937,-5.15549,33,0.00545377,10,-0.00033095,-2.28773,0.904744,0.0652118,-13.0851,0.0641937,
2,0,0,1,0,64218.1,0.0630246,0.0627111,-5.13035,33,0.00532482,10,-0.00032173,-2.28985,0.971542,0.0607282,-12.1562,0.06271106,
2,0,0,1,0,64218.2,0.0615251,0.0612055,-5.10672,33,0.00519644,10,-0.000312559,-2.29186,0.815019,0.0723909,-14.4499,0.06120548,
2,0,0,1,0,64218.2,0.0600256,0.0596793,-5.08721,33,0.00506853,10,-0.000303601,-2.29352,0.748703,0.0788029,-15.6536,0.05967927,
2,0,0,1,0,64218.2,0.0585314,0.0582303,-5.07268,33,0.0049416,10,-0.000295384,-2.29476,0.737183,0.0800344,-15.8229,0.0582303,
2,0,0,1,0,64218.2,0.0570305,0.0567101,-5.04967,33,0.00481468,10,-0.000286367,-2.29674,0.876181,0.0673377,-13.2596,0.0567101,
2,0,0,1,0,64218.3,0.0555297,0.0552218,-5.01809,33,0.00468838,10,-0.000277108,-2.29946,0.796235,0.0740987,-14.5394,0.0552218,
2,0,0,1,0,64218.3,0.0540355,0.0536864,-5.00226,33,0.00456308,10,-0.000268553,-2.30083,0.730065,0.0808147,-15.7859,0.0536864,
2,0,0,1,0,64218.3,0.052536,0.0521669,-4.98819,33,0.00443777,10,-0.000260218,-2.30206,0.743149,0.0793919,-15.4374,0.0521669,
2,0,0,1,0,64218.3,0.0510364,0.0507332,-4.96094,33,0.004313,10,-0.000251685,-2.30444,0.71162,0.0829095,-16.0371,0.0507332,
2,0,0,1,0,64218.4,0.0495369,0.0491887,-4.92836,33,0.00418892,10,-0.00024242,-2.3073,0.764955,0.0771287,-14.8642,0.0491887,
2,0,0,1,0,64218.4,0.0480427,0.0476999,-4.909,33,0.00406596,10,-0.000234159,-2.30901,0.695899,0.0847825,-16.2488,0.0476999,
2,0,0,1,0,64218.4,0.0465432,0.0461925,-4.88476,33,0.00394307,10,-0.000225639,-2.31116,0.694993,0.0848929,-16.177,0.0461925,
2,0,0,1,0,64218.4,0.0450424,0.0447032,-4.8652,33,0.00382081,10,-0.00021749,-2.3129,0.648935,0.0909182,-17.2414,0.0447032,
2,0,0,1,0,64218.5,0.0435482,0.0432103,-4.82477,33,0.0036997,10,-0.000208479,-2.31652,0.638327,0.0924291,-17.4278,0.0432103,
2,0,0,1,0,64218.5,0.0420486,0.041771,-4.80262,33,0.00357883,10,-0.00020061,-2.31852,0.602376,0.0979455,-18.3894,0.04177098,
2,0,0,1,0,64218.5,0.0405491,0.0401829,-4.78412,33,0.0034586,10,-0.00019224,-2.3202,0.614938,0.0959446,-17.8955,0.0401829,
2,0,0,1,0,64218.5,0.0390549,0.0386708,-4.75951,33,0.00333941,10,-0.000184054,-2.32244,0.604413,0.0976154,-18.0877,0.0386708,
2,0,0,1,0,64218.6,0.0375541,0.0372109,-4.71868,33,0.00322049,10,-0.000175586,-2.32618,0.544867,0.108283,-19.9575,0.0372109,
2,0,0,1,0,64218.6,0.0360532,0.0357256,-4.69092,33,0.00310241,10,-0.000167586,-2.32874,0.499225,0.118183,-21.6572,0.0357256,
2,0,0,1,0,64218.6,0.034559,0.0342111,-4.6619,33,0.00298556,10,-0.000159489,-2.33144,0.478143,0.123394,-22.4256,0.0342111,
2,0,0,1,0,64218.6,0.0330595,0.0327241,-4.63421,33,0.00286896,10,-0.00015165,-2.33402,0.506718,0.116436,-21.0216,0.0327241,
2,0,0,1,0,64218.7,0.0315613,0.0311628,-4.59561,33,0.00275314,10,-0.000143212,-2.33766,0.513579,0.11488,-20.6139,0.0311628,
2,0,0,1,0,64218.7,0.0300618,0.0297135,-4.56244,33,0.00263823,10,-0.000135566,-2.3408,0.465751,0.126677,-22.5908,0.0297135,
2,0,0,1,0,64218.7,0.0285676,0.0282132,-4.53844,33,0.00252458,10,-0.000128044,-2.34309,0.470154,0.125491,-22.1734,0.0282132,
2,0,0,1,0,64218.7,0.0270667,0.0267332,-4.50624,33,0.00241121,10,-0.000120466,-2.34619,0.543247,0.108606,-19.0502,0.02673321,
2,0,0,1,0,64218.8,0.0255659,0.0252316,-4.46142,33,0.00229869,10,-0.000112569,-2.35053,0.442203,0.133423,-23.2574,0.0252316,
2,0,0,1,0,64218.8,0.0240717,0.02376,-4.4271,33,0.00218754,10,-0.000105188,-2.35388,0.442594,0.133305,-23.0796,0.02376,
2,0,0,1,0,64218.8,0.0225722,0.0222403,-4.39627,33,0.00207682,10,-9.77741e-05,-2.35692,0.474934,0.124228,-21.3169,0.0222403,
2,0,0,1,0,64218.8,0.0210726,0.0207104,-4.36727,33,0.00196684,10,-9.0448e-05,-2.35979,0.519398,0.113593,-19.3466,0.0207104,
2,0,0,1,0,64218.9,0.0195784,0.0192422,-4.33251,33,0.00185811,10,-8.3367e-05,-2.36326,0.475562,0.124064,-20.9817,0.01924219,
2,0,0,1,0,64218.9,0.0180789,0.017728,-4.29839,33,0.00174975,10,-7.6202e-05,-2.36669,0.461721,0.127783,-21.4493,0.017728,
2,0,0,1,0,64218.9,0.0165781,0.0162653,-4.27354,33,0.00164222,10,-6.95105e-05,-2.36921,0.458091,0.128795,-21.4785,0.0162653,
2,0,0,1,0,64218.9,0.0150839,0.014748,-4.24471,33,0.00153582,10,-6.26009e-05,-2.37215,0.587721,0.100388,-16.6183,0.014748,
2,0,0,1,0,64219,0.0135844,0.0132445,-4.21244,33,0.00142965,10,-5.57915e-05,-2.37547,0.540929,0.109072,-17.9345,0.0132445,
2,0,0,1,0,64219,0.0120848,0.0117796,-4.18305,33,0.00132421,10,-4.92748e-05,-2.37851,0.480253,0.122852,-20.0873,0.0117796,
2,0,0,1,0,64219,0.0105853,0.0102568,-4.15843,33,0.00121952,10,-4.26521e-05,-2.38107,0.507499,0.116256,-18.8737,0.0102568,
2,0,0,1,0,64219,0.00909108,0.00873512,-4.13825,33,0.00111584,10,-3.61482e-05,-2.38318,0.630894,0.0935181,-15.088,0.008735125,
2,0,0,1,0,64219.1,0.00759027,0.00727846,-4.11164,33,0.00101234,10,-2.99264e-05,-2.38598,0.612164,0.0963794,-15.4699,0.00727846,
2,0,0,1,0,64219.1,0.00608945,0.00579216,-4.08917,33,0.000909392,10,-2.36851e-05,-2.38836,0.637339,0.0925724,-14.7737,0.00579216,
2,0,0,1,0,64219.1,0.00459524,0.00427343,-4.06697,33,0.00080745,10,-1.73799e-05,-2.39073,0.621886,0.0948727,-15.0685,0.00427343,
2,0,0,1,0,64219.1,0.0030957,0.00274619,-4.05291,33,0.000705566,10,-1.11301e-05,-2.39223,2.01987,0.0292098,-4.62676,0.00274619,
2,0,0,1,0,64219.2,0.00159616,0.00118619,-4.0573,33,0.000603695,10,-4.81271e-06,-2.39176, , , ,0.00118619,
2,0,0,1,0,64219.2,0.000199195,-0.000214617,-4.03341,33,0.000509021,10,8.65639e-07,-2.39433, , , ,-0.000214617,