File: Figure_codes/Fig_3-5/rawdata_trumpetplot_data/after 10th/20221101_1-115_003_TrumpetPlot_ParaChange_from10_every3_10_CV_C01_24.csv
mode,ox/red,error,control changes,counter inc.,time/s,control/V,Ewe/V,<I>/mA,cycle number,(Q-Qo)/C,I Range,P/W,log(|I|),Tafel slope mV/dec,alpha_eff,dI/d(E-IR),E-IR/V,
2,1,0,0,0,48473.6,-2.44065e-05,-0.000344411,5.13769,25,0.0000000E+000,10,-1.76948e-06,-2.28923, , , ,-0.000344411,
2,1,0,1,0,48473.7,0.00179726,0.00137345,5.83704,25,4.88254e-05,10,8.01686e-06,-2.23381, , , ,0.00137345,
2,1,0,1,0,48473.7,0.00379485,0.0035152,6.39022,25,0.000110213,10,2.24629e-05,-2.19448,0.0624845,0.944235,232.116,0.0035152,
2,1,0,1,0,48473.7,0.00579244,0.00545495,6.78442,25,0.000176173,10,3.70087e-05,-2.16849,0.0812638,0.72603,191.471,0.00545495,
2,1,0,1,0,48473.7,0.00779002,0.00742333,7.13852,25,0.000245838,10,5.29916e-05,-2.14639,0.100168,0.589011,163.337,0.00742333,
2,1,0,1,0,48473.7,0.00977853,0.00944825,7.43667,25,0.000318097,10,7.02635e-05,-2.12862,0.119339,0.494388,143.169,0.00944825,
2,1,0,1,0,48473.7,0.0117761,0.0114099,7.70927,25,0.00039388,10,8.79621e-05,-2.11299,0.139792,0.422056,126.584,0.0114099,
2,1,0,1,0,48473.7,0.0137737,0.0134149,7.93879,25,0.000472161,10,0.000106498,-2.10025,0.160568,0.367446,113.799,0.0134149,
2,1,0,1,0,48473.7,0.0157713,0.0154261,8.1663,25,0.000552702,10,0.000125974,-2.08797,0.180349,0.327143,104.013,0.0154261,
2,1,0,1,0,48473.7,0.017778,0.0174484,8.35833,25,0.000635394,10,0.00014584,-2.07788,0.207409,0.284463,92.7,0.01744844,
2,1,0,1,0,48473.7,0.0197755,0.0194205,8.53659,25,0.000719863,10,0.000165785,-2.06872,0.231866,0.254458,84.6928,0.0194205,
2,1,0,1,0,48473.8,0.0217731,0.0214915,8.70074,25,0.000806076,10,0.000186992,-2.06044,0.25081,0.235238,79.8217,0.0214915,
2,1,0,1,0,48473.8,0.0237707,0.0234037,8.85453,25,0.000893866,10,0.000207229,-2.05283,0.272356,0.216628,74.8053,0.0234037,
2,1,0,1,0,48473.8,0.0257774,0.0254556,8.99728,25,0.000983156,10,0.000229031,-2.04589,0.293082,0.201309,70.6675,0.0254556,
2,1,0,1,0,48473.8,0.027775,0.0273955,9.13663,25,0.00107385,10,0.000250303,-2.03921,0.316685,0.186305,66.3814,0.0273955,
2,1,0,1,0,48473.8,0.0297726,0.0294656,9.26347,25,0.00116591,10,0.000272954,-2.03323,0.343646,0.171688,62.0552,0.0294656,
2,1,0,1,0,48473.8,0.0317701,0.0314334,9.38719,25,0.0012592,10,0.000295071,-2.02746,0.337648,0.174738,64.0335,0.03143337,
2,1,0,1,0,48473.8,0.0337586,0.0334282,9.51721,25,0.00135281,10,0.000318143,-2.02149,0.340695,0.173175,64.3068,0.0334282,
2,1,0,1,0,48473.8,0.0357562,0.0354252,9.6439,25,0.00144859,10,0.000341637,-2.01575,0.38769,0.152183,57.2006,0.0354252,
2,1,0,1,0,48473.8,0.0377538,0.0374214,9.74562,25,0.00154557,10,0.000364695,-2.01119,0.398586,0.148023,56.36,0.0374214,
2,1,0,1,0,48473.8,0.0397514,0.0394232,9.86923,25,0.00164365,10,0.000389077,-2.00572,0.362392,0.162807,62.7106,0.03942322,
2,1,0,1,0,48473.9,0.0417399,0.0413952,9.99482,25,0.00174198,10,0.000413738,-2.00022,0.381395,0.154695,60.3031,0.04139521,
2,1,0,1,0,48473.9,0.0437375,0.0433942,10.1087,25,0.00184251,10,0.000438658,-1.99531,0.417928,0.141173,55.6738,0.0433942,
2,1,0,1,0,48473.9,0.0457351,0.045368,10.216,25,0.00194416,10,0.000463479,-1.99072,0.402475,0.146593,58.5039,0.045368,
2,1,0,1,0,48473.9,0.0477327,0.0474216,10.3443,25,0.00204697,10,0.000490544,-1.9853,0.376832,0.156568,63.1883,0.0474216,
2,1,0,1,0,48473.9,0.0497393,0.0493451,10.4673,25,0.00215099,10,0.00051651,-1.98017,0.399411,0.147717,60.3173,0.0493451,
2,1,0,1,0,48473.9,0.0517369,0.0513649,10.5822,25,0.00225619,10,0.000543551,-1.97543,0.424309,0.13905,57.4251,0.0513649,
2,1,0,1,0,48473.9,0.0537345,0.0533543,10.6975,25,0.00236263,10,0.000570759,-1.97072,0.406755,0.145051,60.5866,0.0533543,
2,1,0,1,0,48473.9,0.0557321,0.0553593,10.8242,25,0.00247023,10,0.000599218,-1.96561,0.423785,0.139221,58.7623,0.0553593,
2,1,0,1,0,48473.9,0.0577297,0.0573687,10.9334,25,0.00257904,10,0.000627237,-1.96124,0.416583,0.141628,60.5025,0.0573687,
2,1,0,1,0,48473.9,0.0597364,0.059405,11.0689,25,0.0026891,10,0.00065755,-1.95589,0.398648,0.148,63.8823,0.059405,
2,1,0,1,0,48474,0.0617339,0.0613458,11.1875,25,0.00280041,10,0.000686306,-1.95127,0.425113,0.138787,60.6062,0.0613458,
2,1,0,1,0,48474,0.0637315,0.0633933,11.3107,25,0.00291291,10,0.00071702,-1.94651,0.416115,0.141788,62.6003,0.0633933,
2,1,0,1,0,48474,0.0657291,0.0653671,11.4392,25,0.00302669,10,0.00074775,-1.9416,0.385161,0.153183,68.4251,0.0653671,
2,1,0,1,0,48474,0.0677176,0.0673559,11.5818,25,0.00314069,10,0.000780102,-1.93622,0.414002,0.142511,64.3383,0.0673559,
2,1,0,1,0,48474,0.0697152,0.0693832,11.6976,25,0.00325714,10,0.000811618,-1.9319,0.437768,0.134775,61.5711,0.0693832,
2,1,0,1,0,48474,0.0717128,0.0714016,11.8309,25,0.00337478,10,0.000844745,-1.92698,0.420549,0.140293,64.7553,0.0714016,
2,1,0,1,0,48474,0.0737104,0.0733955,11.9574,25,0.00349374,10,0.000877622,-1.92236,0.419615,0.140605,65.6267,0.0733955,
2,1,0,1,0,48474,0.0756989,0.0753377,12.0892,25,0.00361278,10,0.000910772,-1.9176,0.444381,0.132769,62.5992,0.0753377,
2,1,0,1,0,48474,0.0776965,0.0773618,12.2057,25,0.00373427,10,0.000944257,-1.91344,0.468427,0.125953,60.0131,0.0773618,
2,1,0,1,0,48474,0.0796941,0.0793356,12.3291,25,0.00385694,10,0.000978139,-1.90907,0.460631,0.128085,61.6239,0.0793356,
2,1,0,1,0,48474.1,0.0816916,0.081338,12.4508,25,0.00398088,10,0.00101272,-1.9048,0.445281,0.132501,64.4238,0.081338,
2,1,0,1,0,48474.1,0.0836983,0.0833648,12.5887,25,0.00410608,10,0.00104945,-1.90002,0.455128,0.129634,63.638,0.0833648,
2,1,0,1,0,48474.1,0.0856959,0.0853715,12.7074,25,0.00423259,10,0.00108485,-1.89594,0.475463,0.12409,61.5611,0.0853715,
2,1,0,1,0,48474.1,0.0876935,0.0873774,12.8357,25,0.00436032,10,0.00112155,-1.89158,0.492636,0.119764,59.9476,0.0873774,
2,1,0,1,0,48474.1,0.0896911,0.0893304,12.9448,25,0.00448925,10,0.00115636,-1.88791,0.497527,0.118586,59.9583,0.0893304,
2,1,0,1,0,48474.1,0.0916977,0.0913814,13.0758,25,0.00461935,10,0.00119489,-1.88353,0.502934,0.117312,59.82,0.0913814,
2,1,0,1,0,48474.1,0.0936953,0.0933951,13.1879,25,0.0047507,10,0.00123169,-1.87982,0.550946,0.107089,55.1051,0.0933951,
2,1,0,1,0,48474.1,0.0956929,0.0953611,13.2951,25,0.00488309,10,0.00126784,-1.87631,0.567701,0.103928,53.928,0.0953611,
2,1,0,1,0,48474.1,0.0976905,0.0974113,13.4045,25,0.00501662,10,0.00130575,-1.87275,0.524881,0.112406,58.8374,0.0974113,
2,1,0,1,0,48474.1,0.099679,0.0993518,13.5299,25,0.0051499,10,0.00134422,-1.86871,0.559633,0.105426,55.6044,0.0993518,
2,1,0,1,0,48474.2,0.101677,0.101374,13.6249,25,0.00528571,10,0.00138121,-1.86567,0.57718,0.102221,54.4089,0.101374,
2,1,0,1,0,48474.2,0.103674,0.103352,13.7476,25,0.00542256,10,0.00142084,-1.86177,0.522797,0.112855,60.5359,0.1033522,
2,1,0,1,0,48474.2,0.105672,0.10534,13.8649,25,0.00556064,10,0.00146053,-1.85808,0.514808,0.114606,62.0407,0.10534,
2,1,0,1,0,48474.2,0.107656,0.107342,13.9951,25,0.00569851,10,0.00150226,-1.85402,0.521326,0.113173,61.7803,0.107342,
2,1,0,1,0,48474.2,0.109658,0.109324,14.111,25,0.00583907,10,0.00154267,-1.85044,0.501168,0.117725,64.8914,0.109324,
2,1,0,1,0,48474.2,0.111655,0.111324,14.2535,25,0.00598091,10,0.00158676,-1.84608,0.479954,0.122928,68.3582,0.111324,
2,1,0,1,0,48474.2,0.113653,0.113364,14.3872,25,0.00612416,10,0.00163099,-1.84202,0.458521,0.128675,72.2972,0.113364,
2,1,0,1,0,48474.2,0.115651,0.1153,14.541,25,0.00626879,10,0.00167658,-1.83741,0.416139,0.14178,80.486,0.1153,
2,1,0,1,0,48474.2,0.117657,0.117323,14.7059,25,0.00641511,10,0.00172533,-1.83251,0.407707,0.144712,83.0564,0.117323,
2,1,0,1,0,48474.2,0.119655,0.119298,14.873,25,0.00656299,10,0.00177433,-1.8276,0.417566,0.141295,81.9913,0.119298,
2,1,0,1,0,48474.3,0.121652,0.121313,15.033,25,0.00671255,10,0.0018237,-1.82295,0.406854,0.145015,85.144,0.121313,
2,1,0,1,0,48474.3,0.12365,0.123341,15.2172,25,0.0068638,10,0.0018769,-1.81767,0.376109,0.156869,93.1608,0.123341,
2,1,0,1,0,48474.3,0.125657,0.12528,15.4026,25,0.00701698,10,0.00192965,-1.8124,0.382169,0.154382,92.7869,0.1252805,
2,1,0,1,0,48474.3,0.127654,0.127301,15.5847,25,0.00717193,10,0.00198395,-1.8073,0.396428,0.148829,90.518,0.127301,
2,1,0,1,0,48474.3,0.129652,0.129307,15.7671,25,0.00732874,10,0.0020388,-1.80225,0.38151,0.154649,95.2035,0.129307,
2,1,0,1,0,48474.3,0.131649,0.131295,15.9649,25,0.00748741,10,0.00209611,-1.79683,0.385776,0.152938,95.2371,0.131295,
2,1,0,1,0,48474.3,0.133638,0.133291,16.1465,25,0.00764645,10,0.00215218,-1.79192,0.410542,0.143712,90.5516,0.133291,
2,1,0,1,0,48474.3,0.135636,0.135288,16.3265,25,0.00780881,10,0.00220877,-1.78711,0.41985,0.140526,89.5319,0.135288,
2,1,0,1,0,48474.3,0.137633,0.137296,16.5051,25,0.00797301,10,0.00226608,-1.78238,0.435813,0.135379,87.1783,0.137296,
2,1,0,1,0,48474.3,0.139631,0.139291,16.6755,25,0.00813891,10,0.00232275,-1.77792,0.45968,0.12835,83.5068,0.139291,
2,1,0,1,0,48474.4,0.141619,0.141283,16.838,25,0.00830481,10,0.00237892,-1.77371,0.467817,0.126118,82.8745,0.141283,
2,1,0,1,0,48474.4,0.143617,0.143217,17.0009,25,0.00847402,10,0.00243482,-1.76953,0.508739,0.115973,76.9024,0.143217,
2,1,0,1,0,48474.4,0.145614,0.145274,17.1449,25,0.0086448,10,0.00249071,-1.76586,0.587007,0.10051,67.2297,0.145274,
2,1,0,1,0,48474.4,0.147612,0.147342,17.2782,25,0.0088169,10,0.0025458,-1.7625,0.602276,0.0979617,66.0489,0.147342,
2,1,0,1,0,48474.4,0.149619,0.149255,17.4079,25,0.00899036,10,0.00259822,-1.75925,0.643161,0.0917344,62.2938,0.149255,
2,1,0,1,0,48474.4,0.151616,0.151263,17.5224,25,0.00916505,10,0.00265048,-1.75641,0.807438,0.0730707,49.9293,0.151263,
2,1,0,1,0,48474.4,0.153614,0.153292,17.6095,25,0.00934075,10,0.00269939,-1.75425,1.00056,0.058967,40.5107,0.153292,
2,1,0,1,0,48474.4,0.155611,0.155268,17.6847,25,0.00951726,10,0.00274587,-1.7524,1.15928,0.0508935,35.1147,0.1552684,
2,1,0,1,0,48474.4,0.157618,0.157268,17.7491,25,0.00969448,10,0.00279137,-1.75082,1.96461,0.0300313,20.7759,0.157268,
2,1,0,1,0,48474.4,0.159616,0.159291,17.7682,25,0.00987206,10,0.00283031,-1.75036,21.8686,0.00269793,1.86923,0.159291,
2,1,0,1,0,48474.5,0.161613,0.16129,17.7566,25,0.0100497,10,0.00286396,-1.75064,-3.00887,-0.0196087,-13.5768,0.1612896,
2,1,0,1,0,48474.5,0.163611,0.163265,17.7143,25,0.0102271,10,0.00289212,-1.75168,-1.28123,-0.0460496,-31.798,0.163265,
2,1,0,1,0,48474.5,0.165618,0.165264,17.6302,25,0.0104038,10,0.00291364,-1.75374,-0.78879,-0.0747981,-51.4111,0.1652641,
2,1,0,1,0,48474.5,0.167597,0.167245,17.5096,25,0.0105778,10,0.00292841,-1.75672,-0.555968,-0.106121,-72.4145,0.1672454,
2,1,0,1,0,48474.5,0.169595,0.16927,17.3401,25,0.0107521,10,0.00293517,-1.76095,-0.41879,-0.140882,-95.2221,0.16927,
2,1,0,1,0,48474.5,0.171592,0.171239,17.1294,25,0.0109244,10,0.00293321,-1.76626,-0.329206,-0.179219,-119.619,0.171239,
2,1,0,1,0,48474.5,0.173572,0.17323,16.8664,25,0.0110926,10,0.00292178,-1.77298,-0.27974,-0.21091,-138.723,0.17323,
2,1,0,1,0,48474.5,0.175578,0.175196,16.5804,25,0.0112598,10,0.00290482,-1.78041,-0.244502,-0.241307,-155.88,0.175196,
2,1,0,1,0,48474.5,0.177576,0.177236,16.242,25,0.0114239,10,0.00287867,-1.78936,-0.213108,-0.276855,-175.304,0.177236,
2,1,0,1,0,48474.5,0.179573,0.179226,15.874,25,0.0115844,10,0.00284503,-1.79931,-0.194308,-0.303641,-187.967,0.179226,
2,1,0,1,0,48474.6,0.181571,0.181248,15.4879,25,0.0117412,10,0.00280715,-1.81001,-0.184476,-0.319824,-193.222,0.181248,
2,1,0,1,0,48474.6,0.183578,0.183266,15.0933,25,0.0118941,10,0.00276609,-1.82122,-0.170151,-0.346752,-203.995,0.183266,
2,1,0,1,0,48474.6,0.185575,0.185267,14.6681,25,0.0120429,10,0.00271751,-1.83363,-0.160924,-0.366633,-209.918,0.185267,
2,1,0,1,0,48474.6,0.187573,0.187254,14.2563,25,0.0121874,10,0.00266954,-1.84599,-0.157661,-0.37422,-208.136,0.187254,
2,1,0,1,0,48474.6,0.18957,0.189233,13.8427,25,0.0123279,10,0.00261948,-1.85878,-0.157809,-0.373869,-202.081,0.189233,
2,1,0,1,0,48474.6,0.191577,0.191238,13.451,25,0.0124643,10,0.00257235,-1.87125,-0.157678,-0.37418,-196.342,0.191238,
2,1,0,1,0,48474.6,0.193575,0.193242,13.0555,25,0.0125967,10,0.00252287,-1.88421,-0.15912,-0.370789,-189.126,0.193242,
2,1,0,1,0,48474.6,0.195572,0.195234,12.6954,25,0.0127254,10,0.00247857,-1.89635,-0.160646,-0.367268,-181.887,0.195234,
2,1,0,1,0,48474.6,0.19757,0.197225,12.331,25,0.0128505,10,0.00243198,-1.909,-0.16824,-0.350689,-169.097,0.197225,
2,1,0,1,0,48474.6,0.199558,0.199221,12.0212,25,0.012971,10,0.00239487,-1.92005,-0.176859,-0.333599,-156.418,0.199221,
2,1,0,1,0,48474.7,0.201556,0.20124,11.703,25,0.0130895,10,0.00235511,-1.9317,-0.17793,-0.331592,-151.622,0.20124,
2,1,0,1,0,48474.7,0.203554,0.203207,11.4168,25,0.0132051,10,0.00231998,-1.94245,-0.183903,-0.320821,-142.962,0.203207,
2,1,0,1,0,48474.7,0.205551,0.205193,11.1378,25,0.0133178,10,0.0022854,-1.9532,-0.200286,-0.294579,-128.325,0.205193,
2,1,0,1,0,48474.7,0.20754,0.207147,10.9112,25,0.0134268,10,0.00226022,-1.96213,-0.212287,-0.277925,-118.231,0.2071469,
2,1,0,1,0,48474.7,0.209537,0.209181,10.6663,25,0.0135347,10,0.00223119,-1.97199,-0.215874,-0.273307,-113.895,0.209181,
2,1,0,1,0,48474.7,0.211535,0.211213,10.4481,25,0.0136402,10,0.00220677,-1.98096,-0.229193,-0.257425,-105.02,0.211213,
2,1,0,1,0,48474.7,0.213532,0.213208,10.2434,25,0.0137436,10,0.00218398,-1.98955,-0.248969,-0.236977,-94.8736,0.213208,
2,1,0,1,0,48474.7,0.215539,0.21519,10.0708,25,0.0138451,10,0.00216714,-1.99693,-0.254643,-0.231697,-90.9882,0.21519,
2,1,0,1,0,48474.7,0.217537,0.217163,9.88353,25,0.0139449,10,0.00214634,-2.00509,-0.266725,-0.221202,-85.4558,0.217163,
2,1,0,1,0,48474.7,0.219534,0.219189,9.72903,25,0.0140429,10,0.0021325,-2.01193,-0.296695,-0.198858,-75.5123,0.219189,
2,1,0,1,0,48474.8,0.221532,0.221209,9.57803,25,0.0141394,10,0.00211875,-2.01872,-0.308534,-0.191227,-71.5258,0.221209,
2,1,0,1,0,48474.8,0.223534,0.223223,9.44053,25,0.0142345,10,0.00210734,-2.025,-0.327735,-0.180023,-66.3501,0.223223,
2,1,0,1,0,48474.8,0.225536,0.225235,9.31093,25,0.0143282,10,0.00209714,-2.03101,-0.3419,-0.172565,-62.731,0.2252347,
2,1,0,1,0,48474.8,0.227534,0.227219,9.18985,25,0.0144207,10,0.00208811,-2.03669,-0.334445,-0.176412,-63.2394,0.2272189,
2,1,0,1,0,48474.8,0.229531,0.229188,9.06095,25,0.014512,10,0.00207666,-2.04283,-0.368389,-0.160157,-56.734,0.229188,
2,1,0,1,0,48474.8,0.231529,0.231186,8.96475,25,0.0146021,10,0.00207253,-2.04746,-0.429359,-0.137414,-48.0756,0.231186,
2,1,0,1,0,48474.8,0.233517,0.233183,8.86885,25,0.0146904,10,0.00206807,-2.05213,-0.441898,-0.133515,-46.2298,0.233183,
2,1,0,1,0,48474.8,0.235515,0.23518,8.78015,25,0.0147786,10,0.00206491,-2.0565,-0.443273,-0.133101,-45.5943,0.23518,
2,1,0,1,0,48474.8,0.237512,0.237181,8.6866,25,0.0148659,10,0.00206029,-2.06115,-0.466668,-0.126428,-42.8952,0.237181,
2,1,0,1,0,48474.8,0.23951,0.239201,8.60767,25,0.0149523,10,0.00205896,-2.06511,-0.517902,-0.113921,-38.2776,0.239201,
2,1,0,1,0,48474.9,0.241499,0.241199,8.5328,25,0.0150372,10,0.0020581,-2.06891,-0.505336,-0.116754,-38.8703,0.241199,
2,1,0,1,0,48474.9,0.243496,0.243152,8.45409,25,0.0151221,10,0.00205563,-2.07293,-0.529414,-0.111444,-36.7921,0.243152,
2,1,0,1,0,48474.9,0.245494,0.245182,8.38625,25,0.0152063,10,0.00205616,-2.07643,-0.600269,-0.0982893,-32.1808,0.245182,
2,1,0,1,0,48474.9,0.247491,0.247166,8.32491,25,0.0152898,10,0.00205763,-2.07962,-0.60275,-0.0978847,-31.7936,0.247166,
2,1,0,1,0,48474.9,0.249498,0.249174,8.25934,25,0.0153727,10,0.00205801,-2.08305,-0.623205,-0.094672,-30.5334,0.249174,
2,1,0,1,0,48474.9,0.251496,0.251147,8.20337,25,0.015455,10,0.00206025,-2.08601,-0.658846,-0.0895505,-28.6645,0.251147,
2,1,0,1,0,48474.9,0.253493,0.253174,8.14466,25,0.0155367,10,0.00206202,-2.08913,-0.649628,-0.0908212,-28.8699,0.253174,
2,1,0,1,0,48474.9,0.255491,0.255176,8.08704,25,0.0156179,10,0.00206362,-2.09221,-0.732931,-0.0804988,-25.4252,0.255176,
2,1,0,1,0,48474.9,0.257497,0.257227,8.04163,25,0.0156985,10,0.00206852,-2.09466,-0.860765,-0.0685437,-21.5185,0.257227,
2,1,0,1,0,48474.9,0.259495,0.259155,8.00143,25,0.0157787,10,0.00207361,-2.09683,-0.719472,-0.0820046,-25.5741,0.259155,
2,1,0,1,0,48475,0.261493,0.261182,7.94047,25,0.0158585,10,0.00207391,-2.10015,-0.764594,-0.0771652,-23.9524,0.261182,
2,1,0,1,0,48475,0.26349,0.26314,7.90598,25,0.0159377,10,0.00208038,-2.10204,-0.985574,-0.0598636,-18.4654,0.26314,
2,1,0,1,0,48475,0.265479,0.265155,7.86712,25,0.0160158,10,0.002086,-2.10418,-0.943379,-0.0625412,-19.2029,0.2651546,
2,1,0,1,0,48475,0.267476,0.267138,7.82919,25,0.0160942,10,0.00209148,-2.10628,-0.819256,-0.0720165,-21.9873,0.267138,
2,1,0,1,0,48475,0.269474,0.269155,7.77916,25,0.0161722,10,0.0020938,-2.10907,-0.91345,-0.0645903,-19.6365,0.269155,
2,1,0,1,0,48475,0.271471,0.271133,7.75075,25,0.0162499,10,0.00210148,-2.11066,-1.1812,-0.0499491,-15.1056,0.271133,
2,1,0,1,0,48475,0.27346,0.27314,7.71897,25,0.0163264,10,0.00210836,-2.11244,-0.964723,-0.0611575,-18.4111,0.27314,
2,1,0,1,0,48475,0.275458,0.275145,7.67689,25,0.0164034,10,0.00211225,-2.11481,-0.947081,-0.0622967,-18.6758,0.275145,
2,1,0,1,0,48475,0.277455,0.277136,7.64434,25,0.01648,10,0.00211852,-2.11666,-1.10886,-0.0532078,-15.8754,0.277136,
2,1,0,1,0,48475,0.279453,0.279137,7.6135,25,0.0165562,10,0.00212521,-2.11842,-1.04433,-0.0564957,-16.7804,0.279137,
2,1,0,1,0,48475.1,0.281455,0.281144,7.57708,25,0.0166322,10,0.00213025,-2.1205,-1.1385,-0.0518226,-15.3359,0.281144,
2,1,0,1,0,48475.1,0.283457,0.283141,7.5521,25,0.0167078,10,0.00213831,-2.12193,-1.13081,-0.0521748,-15.3657,0.283141,
2,1,0,1,0,48475.1,0.285455,0.28516,7.51537,25,0.0167832,10,0.00214308,-2.12405,-1.06217,-0.0555465,-16.3012,0.28516,
2,1,0,1,0,48475.1,0.287452,0.287115,7.48732,25,0.0168582,10,0.00214972,-2.12567,-1.09905,-0.0536826,-15.6797,0.287115,
2,1,0,1,0,48475.1,0.28945,0.289138,7.45299,25,0.0169329,10,0.00215494,-2.12767,-1.31331,-0.0449246,-13.0817,0.289138,
2,1,0,1,0,48475.1,0.291456,0.291081,7.43544,25,0.0170074,10,0.00216431,-2.12869,-1.20918,-0.0487932,-14.1381,0.291081,
2,1,0,1,0,48475.1,0.293454,0.29316,7.39613,25,0.0170815,10,0.00216825,-2.131,-1.12223,-0.052574,-15.1924,0.29316,
2,1,0,1,0,48475.1,0.295452,0.295156,7.37353,25,0.0171554,10,0.00217634,-2.13232,-1.3125,-0.0449525,-12.9307,0.295156,
2,1,0,1,0,48475.1,0.297449,0.297098,7.34521,25,0.017229,10,0.00218225,-2.134,-1.50108,-0.0393051,-11.276,0.297098,
2,1,0,1,0,48475.1,0.299438,0.299159,7.3284,25,0.0173017,10,0.00219235,-2.13499,-0.0752522,-0.78403,-216.865,0.299159,
2,1,0,1,0,48475.2,0.299746,0.299446,6.83588,25,0.0173325,10,0.00204698,-2.16521,0.00846239,6.97203,1594.5,0.299446,
2,1,0,1,0,48475.2,0.29774,0.297449,4.60233,25,0.0173884,10,0.00136896,-2.33702,0.0119875,4.92181,915.729,0.297449,
2,1,0,1,0,48475.2,0.295742,0.295438,3.16528,25,0.0174267,10,0.000935145,-2.49959,0.0115088,5.12653,632.141,0.295438,
2,1,0,1,0,48475.2,0.293745,0.29342,2.05534,25,0.0174524,10,0.000603077,-2.68712,0.00955001,6.178,486.64,0.29342,
2,1,0,1,0,48475.2,0.291747,0.291377,1.18892,25,0.0174684,10,0.000346423,-2.92485,0.00628742,9.38382,392.527,0.291377,
2,1,0,1,0,48475.2,0.289745,0.289373,0.466978,25,0.0174765,10,0.000135131,-3.3307,0.00395257,14.927,328.07,0.289373,
2,0,0,1,0,48475.2,0.287743,0.287396,-0.116972,25,0.017478,10,-3.36172e-05,-3.93192,-0.0320122,-1.84305,276.243,0.287396,
2,0,0,1,0,48475.2,0.285745,0.28544,-0.619697,25,0.0174742,10,-0.000176886,-3.20782,-0.00418369,-14.1024,231.314,0.28544,
2,0,0,1,0,48475.2,0.283748,0.28344,-1.03212,25,0.0174659,10,-0.000292544,-2.98627,-0.0113785,-5.18521,193.786,0.28344,
2,0,0,1,0,48475.2,0.28175,0.28141,-1.40048,25,0.0174536,10,-0.000394111,-2.85372,-0.018342,-3.21667,168.558,0.28141,
2,0,0,1,0,48475.3,0.279761,0.279418,-1.71009,25,0.017438,10,-0.00047783,-2.76698,-0.0255373,-2.31035,151.435,0.279418,
2,0,0,1,0,48475.3,0.277764,0.277495,-1.99336,25,0.0174195,10,-0.000553149,-2.70041,-0.0342221,-1.72403,131.92,0.277495,
2,0,0,1,0,48475.3,0.275766,0.275442,-2.23457,25,0.0173983,10,-0.000615493,-2.65081,-0.0449772,-1.31177,113.358,0.275442,
2,0,0,1,0,48475.3,0.273769,0.273459,-2.4509,25,0.0173748,10,-0.00067022,-2.61067,-0.0544846,-1.08287,102.895,0.273459,
2,0,0,1,0,48475.3,0.27178,0.271438,-2.64653,25,0.0173495,10,-0.000718369,-2.57732,-0.0637261,-0.925838,95.3193,0.271438,
2,0,0,1,0,48475.3,0.269783,0.269435,-2.83449,25,0.0173221,10,-0.000763711,-2.54753,-0.0751654,-0.784935,86.1574,0.269435,
2,0,0,1,0,48475.3,0.267785,0.267506,-2.9853,25,0.017293,10,-0.000798587,-2.52501,-0.0886193,-0.665769,77.5534,0.267506,
2,0,0,1,0,48475.3,0.265787,0.265492,-3.14031,25,0.0172623,10,-0.000833725,-2.50303,-0.101027,-0.584004,71.2718,0.265492,
2,0,0,1,0,48475.3,0.263781,0.263466,-3.27327,25,0.0172302,10,-0.000862393,-2.48502,-0.113884,-0.518073,66.158,0.263466,
2,0,0,1,0,48475.3,0.261783,0.261452,-3.40756,25,0.0171968,10,-0.000890912,-2.46756,-0.132137,-0.446508,59.0858,0.261452,
2,0,0,1,0,48475.4,0.259786,0.259443,-3.51092,25,0.0171622,10,-0.000910887,-2.45458,-0.143537,-0.411043,56.4631,0.259443,
2,0,0,1,0,48475.4,0.257788,0.257434,-3.63442,25,0.0171264,10,-0.000935623,-2.43957,-0.148445,-0.397453,56.1747,0.257434,
2,0,0,1,0,48475.4,0.255781,0.255465,-3.73443,25,0.0170896,10,-0.000954016,-2.42778,-0.172253,-0.342519,49.8881,0.2554647,
2,0,0,1,0,48475.4,0.253784,0.253485,-3.83144,25,0.0170517,10,-0.000971212,-2.41664,-0.189062,-0.312067,46.6021,0.253485,
2,0,0,1,0,48475.4,0.251786,0.251484,-3.91994,25,0.0170129,10,-0.000985802,-2.40672,-0.200872,-0.29372,44.9583,0.2514841,
2,0,0,1,0,48475.4,0.249789,0.249423,-4.01407,25,0.0169732,10,-0.0010012,-2.39642,-0.209672,-0.281392,44.006,0.249423,
2,0,0,1,0,48475.4,0.2478,0.247491,-4.09566,25,0.016933,10,-0.00101364,-2.38768,-0.220272,-0.26785,42.8362,0.247491,
2,0,0,1,0,48475.4,0.245802,0.245484,-4.18277,25,0.0168916,10,-0.0010268,-2.37854,-0.2465,-0.239351,38.9877,0.245484,
2,0,0,1,0,48475.4,0.243805,0.243459,-4.25287,25,0.0168495,10,-0.0010354,-2.37132,-0.270343,-0.218241,36.241,0.243459,
2,0,0,1,0,48475.4,0.241807,0.241476,-4.32804,25,0.0168065,10,-0.00104512,-2.36371,-0.268878,-0.21943,37.0467,0.241476,
2,0,0,1,0,48475.5,0.239819,0.239487,-4.40001,25,0.0167634,10,-0.00105374,-2.35655,-0.289617,-0.203717,34.9607,0.239487,
2,0,0,1,0,48475.5,0.237821,0.237491,-4.46734,25,0.016719,10,-0.00106096,-2.34995,-0.322862,-0.182741,31.8361,0.237491,
2,0,0,1,0,48475.5,0.235824,0.23545,-4.52853,25,0.016674,10,-0.00106624,-2.34404,-0.326259,-0.180838,31.983,0.23545,
2,0,0,1,0,48475.5,0.233826,0.233444,-4.59679,25,0.0166284,10,-0.00107309,-2.33755,-0.321948,-0.183259,32.8475,0.233444,
2,0,0,1,0,48475.5,0.231824,0.231521,-4.65757,25,0.0165822,10,-0.00107833,-2.33184,-0.336601,-0.175282,31.8775,0.231521,
2,0,0,1,0,48475.5,0.229822,0.229462,-4.72374,25,0.0165353,10,-0.00108392,-2.32571,-0.391754,-0.150605,27.7028,0.229462,
2,0,0,1,0,48475.5,0.227824,0.227485,-4.76939,25,0.0164878,10,-0.00108497,-2.32154,-0.385811,-0.152925,28.5305,0.227485,
2,0,0,1,0,48475.5,0.225827,0.225471,-4.8376,25,0.0164398,10,-0.00109074,-2.31537,-0.381483,-0.154659,29.1351,0.225471,
2,0,0,1,0,48475.5,0.223829,0.223515,-4.88506,25,0.0163912,10,-0.00109188,-2.31113,-0.417795,-0.141218,26.9545,0.223515,
2,0,0,1,0,48475.5,0.221822,0.221509,-4.94438,25,0.016342,10,-0.00109523,-2.30589,-0.436005,-0.13532,26.0765,0.2215092,
2,0,0,1,0,48475.6,0.219825,0.219463,-4.99071,25,0.0162923,10,-0.00109528,-2.30184,-0.418863,-0.140858,27.4856,0.219463,
2,0,0,1,0,48475.6,0.217827,0.217455,-5.05582,25,0.016242,10,-0.00109941,-2.29621,-0.434456,-0.135802,26.7319,0.217455,
2,0,0,1,0,48475.6,0.21583,0.215476,-5.0973,25,0.0161912,10,-0.00109835,-2.29266,-0.42381,-0.139213,27.7647,0.2154759,
2,0,0,1,0,48475.6,0.213841,0.213515,-5.16522,25,0.0161404,10,-0.00110285,-2.28691,-0.411898,-0.143239,28.8126,0.213515,
2,0,0,1,0,48475.6,0.211843,0.211515,-5.21142,25,0.0160885,10,-0.0011023,-2.28304,-0.501576,-0.117629,23.9309,0.211515,
2,0,0,1,0,48475.6,0.209846,0.209517,-5.26087,25,0.0160362,10,-0.00110224,-2.27894,-0.517811,-0.113941,23.3828,0.209517,
2,0,0,1,0,48475.6,0.207848,0.207488,-5.30559,25,0.0159834,10,-0.00110085,-2.27527,-0.428269,-0.137764,28.5907,0.207488,
2,0,0,1,0,48475.6,0.20586,0.205527,-5.37496,25,0.0159305,10,-0.0011047,-2.26962,-0.46324,-0.127364,26.6361,0.205527,
2,0,0,1,0,48475.6,0.203862,0.203486,-5.4122,25,0.0158765,10,-0.0011013,-2.26663,-0.557214,-0.105884,22.3951,0.203486,
2,0,0,1,0,48475.6,0.201865,0.201539,-5.46428,25,0.0158222,10,-0.00110126,-2.26247,-0.522377,-0.112945,24.0647,0.201539,
2,0,0,1,0,48475.6,0.199867,0.199548,-5.50697,25,0.0157673,10,-0.0010989,-2.25909,-0.504506,-0.116946,25.1685,0.199548,
2,0,0,1,0,48475.7,0.19786,0.197534,-5.56508,25,0.0157119,10,-0.00109929,-2.25453,-0.506682,-0.116444,25.2551,0.197534,
2,0,0,1,0,48475.7,0.195863,0.195544,-5.60807,25,0.015656,10,-0.00109663,-2.25119,-0.499294,-0.118167,25.9036,0.195544,
2,0,0,1,0,48475.7,0.193865,0.193516,-5.66915,25,0.0155997,10,-0.00109707,-2.24648,-0.536411,-0.10999,24.282,0.193516,
2,0,0,1,0,48475.7,0.191868,0.191523,-5.70571,25,0.0155428,10,-0.00109278,-2.24369,-0.518248,-0.113845,25.4118,0.191523,
2,0,0,1,0,48475.7,0.189861,0.189541,-5.77015,25,0.0154854,10,-0.00109368,-2.23881,-0.485488,-0.121527,27.3198,0.189541,
2,0,0,1,0,48475.7,0.187863,0.187518,-5.81512,25,0.0154274,10,-0.00109044,-2.23544,-0.504737,-0.116892,26.5666,0.187518,
2,0,0,1,0,48475.7,0.185866,0.185512,-5.87719,25,0.015369,10,-0.00109029,-2.23083,-0.546277,-0.108004,24.7188,0.185512,
2,0,0,1,0,48475.7,0.183868,0.183518,-5.91401,25,0.01531,10,-0.00108533,-2.22812,-0.469376,-0.125699,29.1148,0.183518,
2,0,0,1,0,48475.7,0.18188,0.181531,-5.99312,25,0.0152511,10,-0.00108793,-2.22235,-0.440903,-0.133816,31.2105,0.1815307,
2,0,0,1,0,48475.7,0.179882,0.179515,-6.03893,25,0.015191,10,-0.00108408,-2.21904,-0.542698,-0.108716,25.6447,0.179515,
2,0,0,1,0,48475.8,0.177885,0.177533,-6.09563,25,0.0151303,10,-0.00108218,-2.21498,-0.508781,-0.115963,27.5762,0.177533,
2,0,0,1,0,48475.8,0.175887,0.175563,-6.14792,25,0.0150691,10,-0.00107935,-2.21127,-0.458835,-0.128587,30.8966,0.175563,
2,0,0,1,0,48475.8,0.173907,0.173564,-6.21828,25,0.0150079,10,-0.00107927,-2.20633,-0.438955,-0.13441,32.5922,0.1735636,
2,0,0,1,0,48475.8,0.171901,0.17154,-6.27902,25,0.0149454,10,-0.00107711,-2.20211,-0.434246,-0.135868,33.3224,0.17154,
2,0,0,1,0,48475.8,0.169903,0.169587,-6.35078,25,0.0148822,10,-0.00107701,-2.19717,-0.42842,-0.137715,34.1083,0.169587,
2,0,0,1,0,48475.8,0.167906,0.167587,-6.41388,25,0.0148184,10,-0.00107488,-2.19288,-0.408077,-0.144581,36.2477,0.167587,
2,0,0,1,0,48475.8,0.165908,0.16553,-6.49783,25,0.0147539,10,-0.00107559,-2.18723,-0.395837,-0.149051,37.7462,0.16553,
2,0,0,1,0,48475.8,0.163901,0.163594,-6.56459,25,0.0146885,10,-0.00107393,-2.18279,-0.383255,-0.153944,39.5096,0.163594,
2,0,0,1,0,48475.8,0.161904,0.161547,-6.65521,25,0.0146224,10,-0.00107513,-2.17684,-0.355036,-0.16618,43.133,0.161547,
2,0,0,1,0,48475.8,0.159906,0.159585,-6.73751,25,0.0145554,10,-0.0010752,-2.1715,-0.336946,-0.175102,46.1015,0.159585,
2,0,0,1,0,48475.9,0.157909,0.157581,-6.83804,25,0.0144875,10,-0.00107755,-2.16507,-0.322071,-0.18319,48.8723,0.157581,
2,0,0,1,0,48475.9,0.155902,0.155537,-6.93532,25,0.0144186,10,-0.0010787,-2.15893,-0.292217,-0.201905,54.7476,0.155537,
2,0,0,1,0,48475.9,0.153904,0.153546,-7.05896,25,0.0143486,10,-0.00108388,-2.15126,-0.278221,-0.212062,58.3489,0.153546,
2,0,0,1,0,48475.9,0.151907,0.151575,-7.16652,25,0.0142775,10,-0.00108627,-2.14469,-0.263288,-0.224089,62.8143,0.151575,
2,0,0,1,0,48475.9,0.149909,0.149591,-7.30741,25,0.0142051,10,-0.00109312,-2.13624,-0.232839,-0.253394,72.2804,0.149591,
2,0,0,1,0,48475.9,0.147921,0.147605,-7.45345,25,0.014132,10,-0.00110017,-2.12764,-0.226909,-0.260017,75.6692,0.147605,
2,0,0,1,0,48475.9,0.145923,0.145615,-7.60828,25,0.0140567,10,-0.00110788,-2.11871,-0.21064,-0.280099,83.2719,0.145615,
2,0,0,1,0,48475.9,0.143926,0.143632,-7.78431,25,0.0139797,10,-0.00111808,-2.10878,-0.188119,-0.313632,95.4712,0.143632,
2,0,0,1,0,48475.9,0.141928,0.141567,-7.99468,25,0.0139008,10,-0.00113179,-2.0972,-0.174524,-0.338062,105.458,0.141567,
2,0,0,1,0,48475.9,0.139939,0.139636,-8.20574,25,0.0138206,10,-0.00114582,-2.08588,-0.166173,-0.355051,113.881,0.139636,
2,0,0,1,0,48476,0.137942,0.137599,-8.44663,25,0.0137373,10,-0.00116225,-2.07332,-0.158927,-0.371239,122.458,0.137599,
2,0,0,1,0,48476,0.135944,0.13557,-8.70361,25,0.0136515,10,-0.00117995,-2.0603,-0.146134,-0.403738,137.373,0.1355703,
2,0,0,1,0,48476,0.133947,0.1336,-8.99596,25,0.013563,10,-0.00120186,-2.04595,-0.137361,-0.429524,150.811,0.1336,
2,0,0,1,0,48476,0.13194,0.131641,-9.2962,25,0.0134716,10,-0.00122376,-2.03169,-0.135423,-0.435673,158.301,0.131641,
2,0,0,1,0,48476,0.129942,0.129584,-9.63172,25,0.0133769,10,-0.00124812,-2.0163,-0.135788,-0.434501,163.186,0.129584,
2,0,0,1,0,48476,0.127945,0.127584,-9.95823,25,0.0132789,10,-0.00127051,-2.00182,-0.133425,-0.442197,172.038,0.127584,
2,0,0,1,0,48476,0.125947,0.12562,-10.3137,25,0.0131775,10,-0.0012956,-1.98659,-0.130105,-0.453479,182.54,0.12562,
2,0,0,1,0,48476,0.123941,0.123637,-10.6787,25,0.0130725,10,-0.00132028,-1.97148,-0.13314,-0.443143,184.679,0.123637,
2,0,0,1,0,48476,0.121943,0.121623,-11.0519,25,0.0129638,10,-0.00134416,-1.95656,-0.141096,-0.418155,180.12,0.121623,
2,0,0,1,0,48476,0.119945,0.119612,-11.4038,25,0.0128515,10,-0.00136402,-1.94295,-0.149299,-0.39518,175.766,0.119612,
2,0,0,1,0,48476.1,0.117948,0.117659,-11.7485,25,0.0127356,10,-0.00138232,-1.93002,-0.14888,-0.396292,181.891,0.117659,
2,0,0,1,0,48476.1,0.115946,0.115647,-12.125,25,0.0126162,10,-0.00140221,-1.91632,-0.150597,-0.391773,185.207,0.115647,
2,0,0,1,0,48476.1,0.113962,0.11368,-12.4855,25,0.0124943,10,-0.00141935,-1.90359,-0.164368,-0.35895,174.737,0.11368,
2,0,0,1,0,48476.1,0.111964,0.11162,-12.8285,25,0.0123676,10,-0.00143192,-1.89182,-0.174624,-0.337869,169.105,0.11162,
2,0,0,1,0,48476.1,0.109967,0.109633,-13.1699,25,0.0122376,10,-0.00144385,-1.88042,-0.183407,-0.321689,165.16,0.109633,
2,0,0,1,0,48476.1,0.107969,0.107629,-13.4878,25,0.0121042,10,-0.00145167,-1.87006,-0.190544,-0.309639,162.992,0.107629,
2,0,0,1,0,48476.1,0.10598,0.105699,-13.8111,25,0.0119691,10,-0.00145982,-1.85977,-0.204201,-0.28893,155.537,0.105699,
2,0,0,1,0,48476.1,0.103983,0.103668,-14.1039,25,0.0118294,10,-0.00146211,-1.85066,-0.221503,-0.266362,146.6,0.103668,
2,0,0,1,0,48476.1,0.101985,0.101695,-14.3981,25,0.0116869,10,-0.00146421,-1.84169,-0.240616,-0.245204,137.59,0.101695,
2,0,0,1,0,48476.1,0.0999877,0.0996584,-14.6555,25,0.0115416,10,-0.00146054,-1.834,-0.257616,-0.229023,131.03,0.0996584,
2,0,0,1,0,48476.2,0.0979811,0.0976759,-14.9247,25,0.0113936,10,-0.00145778,-1.82609,-0.270957,-0.217747,126.674,0.0976759,
2,0,0,1,0,48476.2,0.0959835,0.0956743,-15.1602,25,0.0112431,10,-0.00145044,-1.8193,-0.304899,-0.193507,114.428,0.0956743,
2,0,0,1,0,48476.2,0.0939859,0.0936815,-15.3818,25,0.0110903,10,-0.00144099,-1.81299,-0.335046,-0.176095,105.621,0.0936815,
2,0,0,1,0,48476.2,0.0919883,0.0917068,-15.5792,25,0.0109355,10,-0.00142872,-1.80745,-0.349764,-0.168685,102.612,0.0917068,
2,0,0,1,0,48476.2,0.0899816,0.0896662,-15.7938,25,0.0107785,10,-0.00141617,-1.80151,-0.405321,-0.145563,89.5223,0.0896662,
2,0,0,1,0,48476.2,0.087984,0.0876863,-15.9391,25,0.0106198,10,-0.00139764,-1.79753,-0.491796,-0.119968,74.6466,0.0876863,
2,0,0,1,0,48476.2,0.0859865,0.0856466,-16.0938,25,0.0104596,10,-0.00137838,-1.79334,-0.549129,-0.107443,67.404,0.08564657,
2,0,0,1,0,48476.2,0.0839889,0.0836511,-16.2111,25,0.010298,10,-0.00135608,-1.79019,-0.66935,-0.0881452,55.7444,0.0836511,
2,0,0,1,0,48476.2,0.0820004,0.0816626,-16.3159,25,0.010137,10,-0.0013324,-1.78739,-0.860264,-0.0685836,43.6221,0.0816626,
2,0,0,1,0,48476.2,0.0800028,0.0796823,-16.3843,25,0.00997345,10,-0.00130554,-1.78557,-1.09242,-0.0540085,34.5368,0.0796823,
2,0,0,1,0,48476.3,0.0780052,0.0776368,-16.455,25,0.00980925,10,-0.00127751,-1.7837,-1.59232,-0.0370529,23.7619,0.0776368,
2,0,0,1,0,48476.3,0.0760076,0.0756422,-16.4803,25,0.00964457,10,-0.0012466,-1.78304,-2.83446,-0.0208152,13.3888,0.0756422,
2,0,0,1,0,48476.3,0.0740191,0.0736693,-16.5081,25,0.00948135,10,-0.00121614,-1.7823,-8.18331,-0.0072098,4.63973,0.0736693,
2,0,0,1,0,48476.3,0.0720215,0.0716911,-16.4986,25,0.00931629,10,-0.0011828,-1.78255,10.892,0.00541683,-3.48838,0.0716911,
2,0,0,1,0,48476.3,0.0700239,0.0697043,-16.4942,25,0.00915132,10,-0.00114972,-1.78267,3.33582,0.0176868,-11.3727,0.0697043,
2,0,0,1,0,48476.3,0.0680263,0.067714,-16.4534,25,0.00898657,10,-0.00111412,-1.78375,3.13416,0.0188248,-12.1002,0.067714,
2,0,0,1,0,48476.3,0.0660197,0.0657142,-16.446,25,0.00882214,10,-0.00108073,-1.78394,2.4309,0.0242708,-15.5553,0.06571418,
2,0,0,1,0,48476.3,0.0640221,0.0637005,-16.3909,25,0.00865794,10,-0.00104411,-1.7854,1.47814,0.0399151,-25.539,0.0637005,
2,0,0,1,0,48476.3,0.0620245,0.0617024,-16.3435,25,0.00849426,10,-0.00100843,-1.78665,1.44988,0.040693,-25.9483,0.0617024,
2,0,0,1,0,48476.3,0.0600269,0.0597034,-16.2872,25,0.00833108,10,-0.000972403,-1.78815,1.57697,0.0374136,-23.794,0.0597034,
2,0,0,1,0,48476.4,0.0580248,0.0576897,-16.248,25,0.0081684,10,-0.000937344,-1.7892,1.50656,0.039162,-24.8164,0.0576897,
2,0,0,1,0,48476.4,0.0560227,0.0556708,-16.1871,25,0.00800619,10,-0.000901151,-1.79083,1.34696,0.0438022,-27.68,0.0556708,
2,0,0,1,0,48476.4,0.0540251,0.0536623,-16.1365,25,0.00784458,10,-0.000865924,-1.79219,1.28513,0.0459098,-28.9004,0.0536623,
2,0,0,1,0,48476.4,0.0520275,0.0517215,-16.073,25,0.00768351,10,-0.000831319,-1.7939,1.3034,0.0452662,-28.4062,0.0517215,
2,0,0,1,0,48476.4,0.0500299,0.0496574,-16.0228,25,0.00752299,10,-0.00079565,-1.79526,1.42629,0.0413661,-25.8639,0.0496574,
2,0,0,1,0,48476.4,0.0480414,0.047692,-15.9688,25,0.00736461,10,-0.000761583,-1.79673,1.31786,0.0447697,-27.8997,0.047692,
2,0,0,1,0,48476.4,0.0460438,0.0457395,-15.9135,25,0.00720521,10,-0.000727875,-1.79823,1.20406,0.049001,-30.4221,0.0457395,
2,0,0,1,0,48476.4,0.0440462,0.0437123,-15.8477,25,0.00704639,10,-0.00069274,-1.80003,1.17528,0.050201,-31.0553,0.0437123,
2,0,0,1,0,48476.4,0.0420486,0.0417296,-15.7889,25,0.00688825,10,-0.000658867,-1.80165,1.25195,0.0471265,-29.0402,0.0417296,
2,0,0,1,0,48476.4,0.0400601,0.0397138,-15.7316,25,0.00673221,10,-0.000624762,-1.80323,1.223,0.0482421,-29.6153,0.0397138,
2,0,0,1,0,48476.5,0.0380625,0.0377469,-15.671,25,0.00657524,10,-0.000591532,-1.8049,1.00114,0.0589331,-36.019,0.0377469,
2,0,0,1,0,48476.5,0.036065,0.0357792,-15.5899,25,0.00641894,10,-0.000557793,-1.80716,0.9753,0.0604942,-36.8244,0.0357792,
2,0,0,1,0,48476.5,0.0340674,0.0337681,-15.5245,25,0.00626335,10,-0.000524232,-1.80898,1.06986,0.0551476,-33.4081,0.0337681,
2,0,0,1,0,48476.5,0.0320607,0.03175,-15.4553,25,0.00610842,10,-0.000490706,-1.81092,0.999667,0.0590197,-35.5927,0.03175,
2,0,0,1,0,48476.5,0.0300631,0.029732,-15.3808,25,0.00595425,10,-0.000457303,-1.81302,0.881247,0.0669506,-40.1715,0.029732,
2,0,0,1,0,48476.5,0.0280655,0.0277339,-15.2939,25,0.00580087,10,-0.000424161,-1.81548,0.849166,0.06948,-41.484,0.0277339,
2,0,0,1,0,48476.5,0.0260679,0.0257844,-15.2171,25,0.0056483,10,-0.000392363,-1.81767,0.823787,0.0716205,-42.5119,0.0257844,
2,0,0,1,0,48476.5,0.0240613,0.0237603,-15.125,25,0.00549656,10,-0.000359374,-1.8203,0.798695,0.0738705,-43.6147,0.0237603,
2,0,0,1,0,48476.5,0.0220637,0.0217353,-15.0405,25,0.00534574,10,-0.000326909,-1.82274,0.736838,0.0800718,-46.9671,0.0217353,
2,0,0,1,0,48476.5,0.0200661,0.0197103,-14.9348,25,0.00519586,10,-0.000294369,-1.8258,0.666046,0.0885825,-51.6384,0.0197103,
2,0,0,1,0,48476.6,0.0180685,0.0177347,-14.8339,25,0.00504698,10,-0.000263075,-1.82875,0.675255,0.0873744,-50.5852,0.0177347,
2,0,0,1,0,48476.6,0.01608,0.0157573,-14.7348,25,0.00490064,10,-0.000232182,-1.83165,0.658922,0.0895402,-51.4756,0.0157573,
2,0,0,1,0,48476.6,0.0140824,0.0137301,-14.6277,25,0.00475388,10,-0.00020084,-1.83482,0.574883,0.10263,-58.5445,0.0137301,
2,0,0,1,0,48476.6,0.0120848,0.0117331,-14.4992,25,0.00460826,10,-0.000170121,-1.83865,0.532513,0.110795,-62.7116,0.01173309,
2,0,0,1,0,48476.6,0.0100872,0.00976789,-14.3793,25,0.00446392,10,-0.000140455,-1.84226,0.544384,0.108379,-60.8153,0.00976789,
2,0,0,1,0,48476.6,0.00810328,0.00776163,-14.2577,25,0.00432219,10,-0.000110663,-1.84595,0.550765,0.107124,-59.6147,0.00776163,
2,0,0,1,0,48476.6,0.00610116,0.00576093,-14.1404,25,0.00418023,10,-8.14618e-05,-1.84954,0.506271,0.116538,-64.2559,0.00576093,
2,0,0,1,0,48476.6,0.00410357,0.0037368,-13.9991,25,0.00403956,10,-5.23119e-05,-1.8539,0.571968,0.103153,-56.464,0.0037368,
2,0,0,1,0,48476.6,0.00210598,0.00171268,-13.9118,25,0.00390016,10,-2.38265e-05,-1.85662,0.544225,0.108411,-58.7339,0.00171268,
2,0,0,1,0,48476.6,0.00010174,-0.000239431,-13.7656,25,0.00376175,10,3.29589e-06,-1.86121,0.470704,0.125344,-67.391,-0.000239431,
2,0,0,1,0,48476.7,-0.00189827,-0.00229479,-13.6417,25,0.00362467,10,3.13049e-05,-1.86513,0.51703,0.114113,-60.7581,-0.00229479,
2,0,0,1,0,48476.7,-0.00389586,-0.00426686,-13.5209,25,0.00348888,10,5.76915e-05,-1.869,0.506381,0.116513,-61.4797,-0.00426686,
2,0,0,1,0,48476.7,-0.00589345,-0.00622678,-13.4,25,0.00335429,10,8.34388e-05,-1.8729,0.508369,0.116057,-60.6881,-0.00622678,
2,0,0,1,0,48476.7,-0.00789103,-0.00827606,-13.2775,25,0.0032209,10,0.000109886,-1.87688,0.586694,0.100564,-52.1693,-0.00827606,
2,0,0,1,0,48476.7,-0.0098977,-0.0103323,-13.1858,25,0.00308858,10,0.00013624,-1.87989,0.61786,0.095491,-49.1119,-0.0103323,
2,0,0,1,0,48476.7,-0.0118953,-0.0123061,-13.0796,25,0.00295727,10,0.000160959,-1.8834,0.581009,0.101547,-51.8495,-0.0123061,
2,0,0,1,0,48476.7,-0.0138929,-0.0142834,-12.981,25,0.00282698,10,0.000185412,-1.88669,0.62272,0.0947456,-48.0091,-0.0142834,
2,0,0,1,0,48476.7,-0.0158905,-0.0162893,-12.8884,25,0.00269765,10,0.000209942,-1.8898,0.777113,0.0759221,-38.2359,-0.01628927,
2,0,0,1,0,48476.7,-0.017879,-0.0182777,-12.8282,25,0.00257035,10,0.000234471,-1.89183,0.821131,0.0718521,-35.9419,-0.0182777,
2,0,0,1,0,48476.7,-0.0198766,-0.0202366,-12.7465,25,0.00244252,10,0.000257946,-1.89461,0.775938,0.076037,-37.8435,-0.0202366,
2,0,0,1,0,48476.8,-0.0218741,-0.0222606,-12.6775,25,0.00231544,10,0.000282209,-1.89697,0.931311,0.0633516,-31.3587,-0.0222606,
2,0,0,1,0,48476.8,-0.0238717,-0.0242521,-12.6206,25,0.00218896,10,0.000306076,-1.89892,1.27764,0.0461787,-22.7648,-0.0242521,
2,0,0,1,0,48476.8,-0.0258602,-0.026291,-12.5858,25,0.0020642,10,0.000330892,-1.90012,1.25029,0.0471891,-23.1572,-0.02629103,
2,0,0,1,0,48476.8,-0.0278578,-0.028251,-12.528,25,0.00193867,10,0.000353928,-1.90212,1.24431,0.047416,-23.2062,-0.028251,
2,0,0,1,0,48476.8,-0.0298554,-0.0301848,-12.4954,25,0.00181357,10,0.000377172,-1.90325,1.68405,0.0350347,-17.083,-0.0301848,
2,0,0,1,0,48476.8,-0.031853,-0.0322263,-12.4601,25,0.00168878,10,0.000401543,-1.90448,2.46818,0.0239043,-11.6349,-0.03222632,
2,0,0,1,0,48476.8,-0.0338597,-0.0342687,-12.4479,25,0.00156424,10,0.000426572,-1.9049,3.09147,0.0190847,-9.26655,-0.0342687,
2,0,0,1,0,48476.8,-0.0358573,-0.036265,-12.4227,25,0.00143987,10,0.000450508,-1.90579,3.91932,0.0150536,-7.30457,-0.036265,
2,0,0,1,0,48476.8,-0.0378548,-0.0382345,-12.4189,25,0.00131563,10,0.000474831,-1.90592,5.38474,0.0109569,-5.30764,-0.0382345,
2,0,0,1,0,48476.8,-0.0398524,-0.0401814,-12.4019,25,0.00119149,10,0.000498325,-1.90651,-41.495,-0.00142186,0.689211,-0.0401814,
2,0,0,1,0,48476.9,-0.0418591,-0.0422411,-12.4217,25,0.00106738,10,0.000524705,-1.90582,-6.21585,-0.00949186,4.59759,-0.0422411,
2,0,0,1,0,48476.9,-0.0438567,-0.0442531,-12.4206,25,0.000943192,10,0.000549649,-1.90586,-36.9607,-0.00159629,0.773944,-0.0442531,
2,0,0,1,0,48476.9,-0.0458543,-0.0462208,-12.4248,25,0.000818933,10,0.000574282,-1.90571,-6.45443,-0.00914101,4.43414,-0.0462208,
2,0,0,1,0,48476.9,-0.0478519,-0.0482432,-12.4383,25,0.000694599,10,0.000600062,-1.90524,-2.34656,-0.0251431,12.216,-0.0482432,
2,0,0,1,0,48476.9,-0.0498585,-0.05025,-12.474,25,0.000570062,10,0.000626817,-1.904,-2.21568,-0.0266284,12.9528,-0.05024996,
2,0,0,1,0,48476.9,-0.051838,-0.0521999,-12.4895,25,0.000446495,10,0.000651952,-1.90345,-2.37787,-0.0248121,12.1021,-0.0521999,
2,0,0,1,0,48476.9,-0.0538355,-0.0541929,-12.5217,25,0.000321446,10,0.000678587,-1.90234,-2.03156,-0.0290417,14.188,-0.0541929,
2,0,0,1,0,48476.9,-0.0558331,-0.0562234,-12.5466,25,0.000196115,10,0.000705413,-1.90147,-1.61911,-0.0364397,17.8579,-0.0562234,
2,0,0,1,0,48476.9,-0.0578126,-0.0581729,-12.5928,25,7.16944e-05,10,0.000732558,-1.89988,-1.49832,-0.0393774,19.3402,-0.0581729,
2,0,0,1,0,48476.9,-0.0598192,-0.0601858,-12.6233,25,-5.43954e-05,10,0.00075974,-1.89883,-1.41521,-0.0416898,20.5556,-0.0601858,
2,0,0,1,0,48477,-0.0618168,-0.0621778,-12.6751,25,-0.000180891,10,0.000788109,-1.89705,-1.29974,-0.0453937,22.4428,-0.0621778,
2,0,0,1,0,48477,-0.0638144,-0.0642011,-12.7134,25,-0.000307865,10,0.000816212,-1.89574,-1.30108,-0.0453469,22.5117,-0.0642011,
2,0,0,1,0,48477,-0.065812,-0.0661974,-12.7656,25,-0.00043528,10,0.000845048,-1.89396,-1.08498,-0.0543787,27.0956,-0.0661974,
2,0,0,1,0,48477,-0.0678187,-0.0682033,-12.8218,25,-0.000563253,10,0.00087449,-1.89205,-1.00718,-0.0585791,29.3165,-0.06820333,
2,0,0,1,0,48477,-0.0698163,-0.070152,-12.8815,25,-0.000691807,10,0.000903663,-1.89003,-1.1095,-0.0531773,26.7192,-0.070152,
2,0,0,1,0,48477,-0.0718138,-0.0721613,-12.9276,25,-0.000820907,10,0.000932871,-1.88848,-1.00304,-0.0588209,29.7083,-0.0721613,
2,0,0,1,0,48477,-0.0738114,-0.0741924,-13.0015,25,-0.000950607,10,0.000964616,-1.88601,-0.813559,-0.0725209,36.7995,-0.0741924,
2,0,0,1,0,48477,-0.0758181,-0.0762226,-13.077,25,-0.00108105,10,0.000996765,-1.88349,-0.828361,-0.0712249,36.3434,-0.0762226,
2,0,0,1,0,48477,-0.0778157,-0.0782216,-13.148,25,-0.00121219,10,0.00102846,-1.88114,-0.890316,-0.0662686,33.9942,-0.0782216,
2,0,0,1,0,48477,-0.0798133,-0.0801798,-13.2115,25,-0.00134397,10,0.0010593,-1.87905,-0.81927,-0.0720153,37.1598,-0.0801798,
2,0,0,1,0,48477.1,-0.0818109,-0.0821917,-13.2955,25,-0.00147654,10,0.00109278,-1.8763,-0.720056,-0.0819381,42.5207,-0.0821917,
2,0,0,1,0,48477.1,-0.0837994,-0.0842038,-13.3826,25,-0.00160861,10,0.00112687,-1.87346,-0.718093,-0.082162,42.9053,-0.08420378,
2,0,0,1,0,48477.1,-0.0857969,-0.0861682,-13.4661,25,-0.00174282,10,0.00116035,-1.87076,-0.732254,-0.0805732,42.3461,-0.0861682,
2,0,0,1,0,48477.1,-0.0877945,-0.0881787,-13.551,25,-0.0018779,10,0.00119491,-1.86803,-0.666697,-0.088496,46.8296,-0.0881787,
2,0,0,1,0,48477.1,-0.0897921,-0.0901511,-13.6526,25,-0.00201393,10,0.0012308,-1.86478,-0.659662,-0.0894397,47.629,-0.0901511,
2,0,0,1,0,48477.1,-0.0917806,-0.0921414,-13.7397,25,-0.00214946,10,0.001266,-1.86202,-0.67508,-0.0873971,46.8843,-0.0921414,
2,0,0,1,0,48477.1,-0.0937782,-0.09413,-13.8392,25,-0.00228737,10,0.00130268,-1.85889,-0.642658,-0.0918063,49.583,-0.09413,
2,0,0,1,0,48477.1,-0.0957758,-0.0961463,-13.9383,25,-0.00242626,10,0.00134011,-1.85579,-0.634785,-0.0929448,50.5681,-0.0961463,
2,0,0,1,0,48477.1,-0.0977734,-0.0981591,-14.0429,25,-0.00256616,10,0.00137844,-1.85254,-0.617054,-0.0956156,52.3976,-0.0981591,
2,0,0,1,0,48477.1,-0.0997412,-0.100102,-14.1456,25,-0.00270428,10,0.001416,-1.84938,0.107762,0.547502,-294.169,-0.1001022,
2,0,0,1,1,48477.2,-0.0996711,-0.100021,-13.4952,25,-0.0027459,10,0.00134981,-1.86982,-0.0171295,-3.44435,1669.32,-0.100021,
2,0,0,1,1,48477.2,-0.0976826,-0.0981208,-10.838,25,-0.00286491,10,0.00106343,-1.96505,-0.0219452,-2.68852,1158.87,-0.0981208,
2,0,0,1,1,48477.2,-0.095685,-0.096065,-8.91066,25,-0.00296305,10,0.000856002,-2.05009,-0.023849,-2.4739,866.106,-0.09606497,
2,0,0,1,1,48477.2,-0.0936874,-0.0940719,-7.33125,25,-0.00304389,10,0.000689665,-2.13482,-0.022656,-2.60416,744.626,-0.09407194,
2,0,0,1,1,48477.2,-0.0916898,-0.0920789,-5.94253,25,-0.00310991,10,0.000547181,-2.22603,-0.0209992,-2.80963,651.922,-0.0920789,
2,0,0,1,1,48477.2,-0.0897013,-0.0901069,-4.74634,25,-0.00316252,10,0.000427678,-2.32364,-0.018504,-3.1885,583.776,-0.09010689,
2,0,0,1,1,48477.2,-0.0877037,-0.0881166,-3.62944,25,-0.00320412,10,0.000319814,-2.44016,-0.0157374,-3.74904,525.38,-0.0881166,
2,0,0,1,1,48477.2,-0.0857061,-0.0860977,-2.63999,25,-0.00323528,10,0.000227297,-2.5784,-0.0124632,-4.73395,472.531,-0.0860977,
2,0,0,1,1,48477.2,-0.0837086,-0.0840779,-1.72103,25,-0.00325686,10,0.000144701,-2.76421,-0.00842726,-7.00109,439.659,-0.08407791,
2,0,0,1,1,48477.2,-0.0817019,-0.0821163,-0.889519,25,-0.00326976,10,7.3044e-05,-3.05084,-0.00327552,-18.0124,407.472,-0.0821163,
2,0,0,1,1,48477.3,-0.0797043,-0.0801147,-0.10613,25,-0.00327457,10,8.50259e-06,-3.97416,-0.0228501,-2.58204,365.125,-0.0801147,
2,1,0,1,1,48477.3,-0.0777067,-0.0780611,0.591134,25,-0.00327201,10,-4.61446e-05,-3.22831,0.00378545,15.586,336.108,-0.0780611,
2,1,0,1,1,48477.3,-0.0757091,-0.0760447,1.26182,25,-0.00326261,10,-9.59544e-05,-2.899,0.00783966,7.52583,327.073,-0.0760447,
2,1,0,1,1,48477.3,-0.0737025,-0.0741239,1.87888,25,-0.00324681,10,-0.00013927,-2.7261,0.0136971,4.30747,301.723,-0.0741239,
2,1,0,1,1,48477.3,-0.0717049,-0.0720728,2.46023,25,-0.00322502,10,-0.000177316,-2.60902,0.0197738,2.98375,277.785,-0.0720728,
2,1,0,1,1,48477.3,-0.0697073,-0.0701745,2.97595,25,-0.0031978,10,-0.000208836,-2.52637,0.0260939,2.26107,259.857,-0.0701745,
2,1,0,1,1,48477.3,-0.0677097,-0.0681131,3.4892,25,-0.00316539,10,-0.00023766,-2.45727,0.0329339,1.79147,240.683,-0.0681131,
2,1,0,1,1,48477.3,-0.0657212,-0.066105,3.95542,25,-0.00312852,10,-0.000261473,-2.40281,0.0397798,1.48316,227.095,-0.066105,
2,1,0,1,1,48477.3,-0.0637236,-0.0641374,4.39205,25,-0.00308671,10,-0.000281695,-2.35733,0.0477723,1.23502,210.268,-0.0641374,
2,1,0,1,1,48477.3,-0.061726,-0.0621046,4.79657,25,-0.00304071,10,-0.000297889,-2.31907,0.0557669,1.05798,197.372,-0.0621046,
2,1,0,1,1,48477.4,-0.0597284,-0.0600917,5.19056,25,-0.00299067,10,-0.00031191,-2.28479,0.0638746,0.923685,185.971,-0.0600917,
2,1,0,1,1,48477.4,-0.0577399,-0.0581122,5.53904,25,-0.00293755,10,-0.000321886,-2.25657,0.0724396,0.814472,175.823,-0.0581122,
2,1,0,1,1,48477.4,-0.0557423,-0.0561315,5.88687,25,-0.00288034,10,-0.000330438,-2.23012,0.0824728,0.715387,163.611,-0.0561315,
2,1,0,1,1,48477.4,-0.0537447,-0.0541125,6.19343,25,-0.00281988,10,-0.000335142,-2.20807,0.0956441,0.61687,148.848,-0.0541125,
2,1,0,1,1,48477.4,-0.0517472,-0.0520893,6.48854,25,-0.00275637,10,-0.000337983,-2.18785,0.103822,0.568279,143.656,-0.0520893,
2,1,0,1,1,48477.4,-0.049745,-0.0500999,6.76988,25,-0.00269007,10,-0.00033917,-2.16942,0.111833,0.527573,139.169,-0.0500999,
2,1,0,1,1,48477.4,-0.0477429,-0.048146,7.03732,25,-0.002621,10,-0.000338819,-2.15259,0.130279,0.452875,123.952,-0.048146,
2,1,0,1,1,48477.4,-0.0457453,-0.0461288,7.2621,25,-0.00254947,10,-0.000334992,-2.13894,0.14946,0.394755,111.854,-0.0461288,
2,1,0,1,1,48477.4,-0.0437477,-0.044116,7.48809,25,-0.00247567,10,-0.000330345,-2.12563,0.159209,0.370583,108.12,-0.044116,
2,1,0,1,1,48477.4,-0.0417501,-0.0421378,7.6936,25,-0.00239971,10,-0.000324192,-2.11387,0.170628,0.34578,103.808,-0.0421378,
2,1,0,1,1,48477.5,-0.0397435,-0.0401424,7.90059,25,-0.00232165,10,-0.000317148,-2.10234,0.195265,0.302153,92.91,-0.0401424,
2,1,0,1,1,48477.5,-0.0377459,-0.0381148,8.06739,25,-0.00224181,10,-0.000307486,-2.09327,0.216015,0.273129,86.0554,-0.03811476,
2,1,0,1,1,48477.5,-0.0357483,-0.036101,8.24836,25,-0.00216021,10,-0.000297775,-2.08363,0.233715,0.252445,81.0662,-0.036101,
2,1,0,1,1,48477.5,-0.0337507,-0.0341186,8.39134,25,-0.00207698,10,-0.000286301,-2.07617,0.254277,0.232031,76.0385,-0.0341186,
2,1,0,1,1,48477.5,-0.0317622,-0.0321678,8.54745,25,-0.00199308,10,-0.000274952,-2.06816,0.276686,0.213238,70.9938,-0.0321678,
2,1,0,1,1,48477.5,-0.0297646,-0.0301668,8.6719,25,-0.00190697,10,-0.000261603,-2.06189,0.310607,0.189951,64.3172,-0.0301668,
2,1,0,1,1,48477.5,-0.027767,-0.0281483,8.80597,25,-0.00181955,10,-0.000247873,-2.05522,0.350879,0.168149,57.6609,-0.0281483,
2,1,0,1,1,48477.5,-0.0257694,-0.0261696,8.90238,25,-0.00173101,10,-0.000232971,-2.05049,0.385737,0.152954,53.2036,-0.0261696,
2,1,0,1,1,48477.5,-0.0237809,-0.0241142,9.02059,25,-0.00164226,10,-0.000217524,-2.04476,0.397973,0.148251,52.1128,-0.0241142,
2,1,0,1,1,48477.5,-0.0217833,-0.0221369,9.11253,25,-0.0015516,10,-0.000201723,-2.04036,0.465803,0.126663,45.0276,-0.02213693,
2,1,0,1,1,48477.6,-0.0197858,-0.0201796,9.19776,25,-0.00146003,10,-0.000185607,-2.03632,0.541206,0.109016,39.1012,-0.0201796,
2,1,0,1,1,48477.6,-0.0177882,-0.0181399,9.26882,25,-0.00136769,10,-0.000168135,-2.03298,0.545093,0.108238,39.1868,-0.0181399,
2,1,0,1,1,48477.6,-0.0157815,-0.0161374,9.35616,25,-0.00127453,10,-0.000150984,-2.0289,0.625354,0.0943465,34.3788,-0.01613744,
2,1,0,1,1,48477.6,-0.0137839,-0.0141714,9.40525,25,-0.00118071,10,-0.000133286,-2.02663,0.762164,0.0774112,28.4377,-0.0141714,
2,1,0,1,1,48477.6,-0.0117863,-0.0121334,9.47002,25,-0.00108631,10,-0.000114904,-2.02365,0.771712,0.0764534,28.2313,-0.0121334,
2,1,0,1,1,48477.6,-0.00978874,-0.0101622,9.51843,25,-0.000991366,10,-9.67286e-05,-2.02143,0.7552,0.078125,29.0497,-0.0101622,
2,1,0,1,1,48477.6,-0.00778208,-0.0081546,9.58561,25,-0.000895843,10,-7.81668e-05,-2.01838,1.00261,0.0588465,21.9608,-0.0081546,
2,1,0,1,1,48477.6,-0.00578449,-0.00615824,9.60637,25,-0.000799922,10,-5.91583e-05,-2.01744,1.29365,0.0456076,17.1226,-0.00615824,
2,1,0,1,1,48477.6,-0.0037869,-0.00414539,9.65426,25,-0.00070359,10,-4.00207e-05,-2.01528,1.18794,0.0496658,18.6916,-0.00414539,
2,1,0,1,1,48477.6,-0.00178931,-0.00220022,9.68035,25,-0.000606921,10,-2.12989e-05,-2.01411,2.16849,0.0272079,10.2715,-0.00220022,
2,1,0,1,1,48477.6,-2.55332e-05,-0.000439847,9.69232,25,-0.00052256,10,-4.26314e-06,-2.01357, , , ,-0.000439847,