File: Figure_codes/Fig_3-5/rawdata_trumpetplot_data/after 10th/20221101_1-115_003_TrumpetPlot_ParaChange_from10_every3_04_CV_C01_20.csv
mode,ox/red,error,control changes,counter inc.,time/s,control/V,Ewe/V,<I>/mA,cycle number,(Q-Qo)/C,I Range,P/W,log(|I|),Tafel slope mV/dec,alpha_eff,dI/d(E-IR),E-IR/V,
2,0,0,1,0,40462.6,2.44065e-05,-0.000306236,-0.385608,21,0.0000000E+000,10,1.18087e-07,-3.41385, , , ,-0.000306236,
2,1,0,1,0,40462.8,0.00129787,0.000923835,0.107508,21,-5.58041e-06,10,9.93194e-08,-3.96856, , , ,0.000923835,
2,1,0,1,0,40462.9,0.00279606,0.00249218,0.254304,21,2.56097e-05,10,6.33771e-07,-3.59465,0.00235568,25.0458,74.6412,0.00249218,
2,1,0,1,0,40463.1,0.00429425,0.00395554,0.298317,21,6.93355e-05,10,1.18e-06,-3.52532,0.0233174,2.5303,27.32,0.003955537,
2,1,0,1,0,40463.2,0.00579244,0.00549207,0.326644,21,0.000118495,10,1.79395e-06,-3.48593,0.0400003,1.47499,18.4532,0.00549207,
2,1,0,1,0,40463.4,0.00729063,0.00698088,0.352651,21,0.000171513,10,2.46181e-06,-3.45266,0.0586308,1.0063,13.6558,0.00698088,
2,1,0,1,0,40463.5,0.00878882,0.00844424,0.372598,21,0.000227922,10,3.1463e-06,-3.42876,0.0722335,0.816796,11.7211,0.00844424,
2,1,0,1,0,40463.7,0.010287,0.00998077,0.388713,21,0.000286928,10,3.87966e-06,-3.41037,0.0913618,0.645784,9.69864,0.009980767,
2,1,0,1,0,40463.8,0.0117852,0.0114749,0.401918,21,0.000348223,10,4.61196e-06,-3.39586,0.0971775,0.607136,9.48873,0.0114749,
2,1,0,1,0,40463.9,0.0132838,0.012963,0.414689,21,0.00041144,10,5.37563e-06,-3.38228,0.101365,0.582057,9.45278,0.012963,
2,1,0,1,0,40464.1,0.0147814,0.0144069,0.427365,21,0.000476744,10,6.15702e-06,-3.3692,0.112556,0.524184,8.752,0.0144069,
2,1,0,1,0,40464.2,0.0162789,0.0159889,0.438831,21,0.000543993,10,7.01644e-06,-3.3577,0.146881,0.401687,6.86701,0.0159889,
2,1,0,1,0,40464.4,0.017778,0.0175181,0.452081,21,0.000612846,10,7.91961e-06,-3.34478,0.154268,0.382451,6.71817,0.0175181,
2,1,0,1,0,40464.5,0.0192761,0.0189306,0.459955,21,0.000683026,10,8.70722e-06,-3.33728,0.148259,0.397952,7.13024,0.0189306,
2,1,0,1,0,40464.7,0.0207743,0.0204692,0.471035,21,0.000754968,10,9.64174e-06,-3.32695,0.148524,0.397242,7.30552,0.0204692,
2,1,0,1,0,40464.8,0.0222725,0.0219771,0.482357,21,0.000828455,10,1.06008e-05,-3.31663,0.152695,0.386391,7.26709,0.0219771,
2,1,0,1,0,40465,0.0237707,0.0234903,0.492899,21,0.000903618,10,1.15784e-05,-3.30724,0.165056,0.357455,6.86546,0.0234903,
2,1,0,1,0,40465.1,0.0252689,0.0249123,0.500923,21,0.000980117,10,1.24792e-05,-3.30023,0.174264,0.338566,6.64478,0.02491235,
2,1,0,1,0,40465.3,0.0267671,0.0264181,0.51435,21,0.00105826,10,1.35882e-05,-3.28874,0.150692,0.391526,7.84023,0.0264181,
2,1,0,1,0,40465.4,0.0282662,0.0278865,0.524979,21,0.00113811,10,1.46398e-05,-3.27986,0.178826,0.32993,6.73382,0.0278865,
2,1,0,1,0,40465.6,0.0297635,0.0294741,0.53366,21,0.00121947,10,1.57291e-05,-3.27274,0.191972,0.307336,6.40308,0.0294741,
2,1,0,1,0,40465.7,0.031261,0.0309433,0.541309,21,0.00130212,10,1.67499e-05,-3.26655,0.187056,0.315413,6.69444,0.0309433,
2,1,0,1,0,40465.9,0.0327599,0.0324052,0.553496,21,0.00138632,10,1.79361e-05,-3.25689,0.18818,0.313529,6.77762,0.0324052,
2,1,0,1,0,40466,0.034258,0.0339004,0.56333,21,0.00147211,10,1.90971e-05,-3.24924,0.189462,0.311409,6.84646,0.0339004,
2,1,0,1,0,40466.2,0.0357562,0.0354157,0.57467,21,0.00155942,10,2.03523e-05,-3.24058,0.217985,0.270661,6.0555,0.0354157,
2,1,0,1,0,40466.3,0.0372544,0.0369257,0.58444,21,0.00164828,10,2.15809e-05,-3.23326,0.200842,0.293764,6.69265,0.0369257,
2,1,0,1,0,40466.5,0.0387526,0.0383848,0.594119,21,0.00173849,10,2.28051e-05,-3.22613,0.192486,0.306515,7.1308,0.0383848,
2,1,0,1,0,40466.6,0.0402508,0.0399404,0.603574,21,0.00183035,10,2.4107e-05,-3.21927,0.196652,0.300023,7.06288,0.0399404,
2,1,0,1,0,40466.8,0.041749,0.0414271,0.616048,21,0.00192399,10,2.55211e-05,-3.21039,0.229253,0.257357,6.17348,0.0414271,
2,1,0,1,0,40466.9,0.0432472,0.0429774,0.625708,21,0.00201904,10,2.68913e-05,-3.20363,0.220457,0.267625,6.5207,0.0429774,
2,1,0,1,0,40467.1,0.0447458,0.0444666,0.632969,21,0.00211544,10,2.8146e-05,-3.19862,0.222829,0.264777,6.5622,0.0444666,
2,1,0,1,0,40467.2,0.0462433,0.0459322,0.642672,21,0.0022133,10,2.95193e-05,-3.19201,0.194634,0.303132,7.6137,0.0459322,
2,1,0,1,0,40467.4,0.0477409,0.047447,0.653729,21,0.00231273,10,3.10175e-05,-3.1846,0.219434,0.268873,6.86247,0.047447,
2,1,0,1,0,40467.5,0.0492399,0.048921,0.662852,21,0.00241368,10,3.24274e-05,-3.17858,0.253742,0.23252,6.01435,0.048921,
2,1,0,1,0,40467.7,0.0507381,0.0504024,0.67105,21,0.00251579,10,3.38225e-05,-3.17325,0.256909,0.229653,6.03311,0.0504024,
2,1,0,1,0,40467.8,0.0522363,0.0519262,0.68165,21,0.00261923,10,3.53955e-05,-3.16644,0.24364,0.24216,6.42916,0.0519262,
2,1,0,1,0,40468,0.0537345,0.0534511,0.693225,21,0.0027242,10,3.70536e-05,-3.15913,0.265385,0.222319,5.99026,0.0534511,
2,1,0,1,0,40468.1,0.0552327,0.0549261,0.699256,21,0.00283046,10,3.84074e-05,-3.15536,0.321692,0.183405,4.98743,0.0549261,
2,1,0,1,0,40468.3,0.0567309,0.0564138,0.705598,21,0.00293788,10,3.98055e-05,-3.15144,0.318687,0.185135,5.10633,0.0564138,
2,1,0,1,0,40468.4,0.0582291,0.0579027,0.714473,21,0.00304636,10,4.13699e-05,-3.14601,0.333438,0.176944,4.93669,0.0579027,
2,1,0,1,0,40468.6,0.0597282,0.0594097,0.7226,21,0.00315634,10,4.29295e-05,-3.1411,0.298521,0.197641,5.58123,0.0594097,
2,1,0,1,0,40468.7,0.0612255,0.06093,0.731633,21,0.00326743,10,4.45784e-05,-3.13571,0.406822,0.145027,4.13238,0.06093,
2,1,0,1,0,40468.9,0.062723,0.0623853,0.739367,21,0.00337975,10,4.61256e-05,-3.13114,0.330602,0.178462,5.14751,0.0623853,
2,1,0,1,0,40469,0.0642218,0.0639205,0.744561,21,0.00349298,10,4.75927e-05,-3.1281,0.326198,0.180872,5.2676,0.0639205,
2,1,0,1,0,40469.2,0.06572,0.0653965,0.753816,21,0.00360738,10,4.9297e-05,-3.12273,0.356772,0.165372,4.8569,0.0653965,
2,1,0,1,0,40469.3,0.0672182,0.0669161,0.762102,21,0.0037231,10,5.09969e-05,-3.11799,0.334169,0.176558,5.22713,0.0669161,
2,1,0,1,0,40469.5,0.0687164,0.068407,0.767921,21,0.00383984,10,5.25312e-05,-3.11468,0.440379,0.133976,4.0065,0.068407,
2,1,0,1,0,40469.6,0.0702146,0.0698799,0.772385,21,0.00395732,10,5.39742e-05,-3.11217,0.447863,0.131737,3.97457,0.0698799,
2,1,0,1,0,40469.8,0.0717128,0.07139,0.780058,21,0.00407584,10,5.56883e-05,-3.10787,0.386553,0.152631,4.64938,0.07139,
2,1,0,1,0,40469.9,0.073211,0.0728798,0.787688,21,0.00419536,10,5.74066e-05,-3.10365,0.415332,0.142055,4.35989,0.0728798,
2,1,0,1,0,40470.1,0.0747092,0.0743835,0.794316,21,0.00431587,10,5.9084e-05,-3.10001,0.5171,0.114098,3.52795,0.0743835,
2,1,0,1,0,40470.2,0.0762078,0.0758424,0.795605,21,0.00443708,10,6.03406e-05,-3.0993,0.435718,0.135409,4.21259,0.0758424,
2,1,0,1,0,40470.4,0.0777053,0.0773729,0.803597,21,0.00455904,10,6.21766e-05,-3.09496,0.422396,0.139679,4.37992,0.0773729,
2,1,0,1,0,40470.5,0.0792029,0.0789181,0.811028,21,0.00468192,10,6.40047e-05,-3.09096,0.472946,0.12475,3.93613,0.0789181,
2,1,0,1,0,40470.7,0.0807019,0.080344,0.814672,21,0.00480578,10,6.5454e-05,-3.08902,0.541779,0.108901,3.45589,0.080344,
2,1,0,1,0,40470.8,0.0822001,0.081888,0.817814,21,0.00493027,10,6.69691e-05,-3.08735,0.545233,0.108211,3.46183,0.08188799,
2,1,0,1,0,40471,0.0836983,0.083363,0.824751,21,0.00505542,10,6.87538e-05,-3.08368,0.448095,0.131668,4.24821,0.083363,
2,1,0,1,0,40471.1,0.0851965,0.0848868,0.830526,21,0.00518159,10,7.05007e-05,-3.08065,0.416589,0.141626,4.59606,0.0848868,
2,1,0,1,0,40471.3,0.0866947,0.0863449,0.839177,21,0.00530882,10,7.24586e-05,-3.07615,0.47384,0.124515,4.07044,0.0863449,
2,1,0,1,0,40471.4,0.0881929,0.0879143,0.844981,21,0.00543709,10,7.42859e-05,-3.07315,0.410667,0.143669,4.73935,0.0879143,
2,1,0,1,0,40471.6,0.0896911,0.0893586,0.853776,21,0.00556624,10,7.62922e-05,-3.06866,0.357441,0.165062,5.5111,0.0893586,
2,1,0,1,0,40471.7,0.0911902,0.09087,0.86416,21,0.00569692,10,7.85262e-05,-3.06341,0.276624,0.213286,7.17051,0.09087,
2,1,0,1,0,40471.9,0.0926875,0.0923434,0.874266,21,0.00582924,10,8.07328e-05,-3.05836,0.280863,0.210067,7.15645,0.0923434,
2,1,0,1,0,40472,0.094185,0.0938933,0.883223,21,0.005963,10,8.29287e-05,-3.05393,0.27921,0.21131,7.29194,0.0938933,
2,1,0,1,0,40472.2,0.0956838,0.0953891,0.894099,21,0.00609834,10,8.52873e-05,-3.04861,0.264155,0.223354,7.82157,0.0953891,
2,1,0,1,0,40472.3,0.097182,0.0968737,0.90854,21,0.00623557,10,8.80136e-05,-3.04166,0.214001,0.2757,9.76967,0.0968737,
2,1,0,1,0,40472.5,0.0986802,0.0983561,0.921999,21,0.00637494,10,9.06843e-05,-3.03527,0.208212,0.283366,10.2112,0.0983561,
2,1,0,1,0,40472.6,0.100178,0.0998958,0.937197,21,0.00651645,10,9.3622e-05,-3.02817,0.217523,0.271236,9.91669,0.0998958,
2,1,0,1,0,40472.8,0.101677,0.101395,0.950904,21,0.0066602,10,9.64171e-05,-3.02186,0.208252,0.283311,10.5548,0.101395,
2,1,0,1,0,40472.9,0.103175,0.102893,0.969513,21,0.00680618,10,9.97557e-05,-3.01345,0.202111,0.291919,11.0556,0.102893,
2,1,0,1,0,40473.1,0.104673,0.104383,0.988432,21,0.00695492,10,0.000103176,-3.00505,0.193035,0.305643,11.7614,0.104383,
2,1,0,1,0,40473.2,0.106171,0.105836,1.00497,21,0.00710625,10,0.000106362,-2.99785,0.222488,0.265182,10.3687,0.105836,
2,1,0,1,0,40473.4,0.10767,0.10735,1.02111,21,0.00726013,10,0.000109616,-2.99093,0.219403,0.268912,10.6884,0.10735,
2,1,0,1,0,40473.5,0.109167,0.108828,1.03369,21,0.00741599,10,0.000112494,-2.98561,0.224119,0.263253,10.6354,0.108828,
2,1,0,1,0,40473.7,0.110665,0.110374,1.0492,21,0.0075743,10,0.000115804,-2.97914,0.227579,0.25925,10.618,0.110374,
2,1,0,1,0,40473.8,0.112164,0.111831,1.06538,21,0.00773504,10,0.000119142,-2.9725,0.271958,0.216946,8.99957,0.111831,
2,1,0,1,0,40474,0.113662,0.11335,1.07805,21,0.00789769,10,0.000122197,-2.96736,0.322713,0.182825,7.68469,0.11335,
2,1,0,1,0,40474.1,0.11516,0.114772,1.08748,21,0.00806191,10,0.000124813,-2.96358,0.36583,0.161277,6.85174,0.114772,
2,1,0,1,0,40474.3,0.116658,0.116323,1.10047,21,0.00822794,10,0.00012801,-2.95842,0.34095,0.173046,7.41603,0.116323,
2,1,0,1,0,40474.4,0.118157,0.117811,1.11038,21,0.00839583,10,0.000130815,-2.95453,0.402732,0.146499,6.33865,0.117811,
2,1,0,1,0,40474.6,0.119655,0.119342,1.12025,21,0.00856511,10,0.000133692,-2.95069,0.548315,0.107602,4.70071,0.119342,
2,1,0,1,0,40474.7,0.121153,0.120823,1.12503,21,0.0087353,10,0.000135929,-2.94884,0.485771,0.121457,5.34675,0.120823,
2,1,0,1,0,40474.9,0.122652,0.122317,1.13417,21,0.00890676,10,0.000138728,-2.94532,0.439191,0.134338,5.93792,0.1223167,
2,1,0,1,0,40475,0.124149,0.123861,1.14288,21,0.00907946,10,0.000141559,-2.942,0.489591,0.120509,5.36785,0.123861,
2,1,0,1,0,40475.2,0.125647,0.125338,1.15034,21,0.00925327,10,0.000144181,-2.93917,0.734228,0.0803566,3.59624,0.125338,
2,1,0,1,0,40475.3,0.127146,0.126806,1.15132,21,0.00942811,10,0.000145994,-2.9388,0.713468,0.0826947,3.724,0.126806,
2,1,0,1,0,40475.5,0.128644,0.12831,1.1598,21,0.00960332,10,0.000148815,-2.93562,0.853532,0.0691246,3.12882,0.12831,
2,1,0,1,0,40475.6,0.130142,0.129794,1.16393,21,0.00977945,10,0.000151071,-2.93407,1.13693,0.0518942,2.3535,0.129794,
2,1,0,1,0,40475.8,0.13164,0.131302,1.16687,21,0.00995634,10,0.000153213,-2.93298,15.5137,0.0038031,0.172684,0.131302,
2,1,0,1,0,40475.9,0.133139,0.132791,1.16738,21,0.0101334,10,0.000155017,-2.93279,-1.83175,-0.0322096,-1.46391,0.132791,
2,1,0,1,0,40476.1,0.134637,0.134299,1.16306,21,0.0103099,10,0.000156197,-2.9344,-0.708272,-0.0833013,-3.7797,0.134299,
2,1,0,1,0,40476.2,0.136135,0.135748,1.15732,21,0.0104858,10,0.000157104,-2.93655,-0.427922,-0.137876,-6.20121,0.135748,
2,1,0,1,0,40476.4,0.137633,0.137326,1.14803,21,0.0106606,10,0.000157654,-2.94005,-0.268976,-0.219351,-9.75297,0.137326,
2,1,0,1,0,40476.5,0.139132,0.13881,1.1301,21,0.0108332,10,0.000156869,-2.94688,-0.198833,-0.296732,-13.0006,0.13881,
2,1,0,1,0,40476.7,0.140629,0.140298,1.10492,21,0.0110025,10,0.000155019,-2.95667,-0.152869,-0.385952,-16.5825,0.140298,
2,1,0,1,0,40476.8,0.142127,0.141805,1.07724,21,0.0111681,10,0.000152758,-2.96769,-0.128415,-0.459447,-19.2314,0.141805,
2,1,0,1,0,40477,0.143626,0.143294,1.04522,21,0.0113295,10,0.000149774,-2.98079,-0.102329,-0.576572,-23.4181,0.143294,
2,1,0,1,0,40477.1,0.145124,0.144861,1.00692,21,0.0114855,10,0.000145863,-2.99701,-0.0870316,-0.677915,-26.5845,0.144861,
2,1,0,1,0,40477.3,0.146622,0.146331,0.964487,21,0.0116353,10,0.000141134,-3.0157,-0.0789288,-0.747509,-28.131,0.146331,
2,1,0,1,0,40477.4,0.14812,0.14783,0.925636,21,0.0117789,10,0.000136837,-3.03356,-0.0776693,-0.759631,-27.3713,0.14783,
2,1,0,1,0,40477.6,0.149619,0.149309,0.883428,21,0.0119162,10,0.000131903,-3.05383,-0.0749671,-0.787012,-27.0927,0.149309,
2,1,0,1,0,40477.7,0.151117,0.150839,0.842516,21,0.0120474,10,0.000127084,-3.07442,-0.0728857,-0.809487,-26.5953,0.150839,
2,1,0,1,0,40477.9,0.152615,0.152322,0.801024,21,0.0121726,10,0.000122014,-3.09635,-0.0756725,-0.779675,-24.4727,0.152322,
2,1,0,1,0,40478,0.154114,0.153808,0.768552,21,0.0122922,10,0.00011821,-3.11433,-0.0822373,-0.717436,-21.6,0.153808,
2,1,0,1,0,40478.2,0.155612,0.15528,0.738675,21,0.012407,10,0.000114702,-3.13155,-0.0924657,-0.638074,-18.4655,0.15528,
2,1,0,1,0,40478.3,0.157109,0.156763,0.711469,21,0.0125177,10,0.000111532,-3.14784,-0.0985233,-0.598843,-16.653,0.156763,
2,1,0,1,0,40478.5,0.158608,0.158305,0.68968,21,0.0126247,10,0.00010918,-3.16135,-0.111822,-0.527625,-14.2494,0.158305,
2,1,0,1,0,40478.6,0.160106,0.159761,0.668473,21,0.0127283,10,0.000106796,-3.17492,-0.127071,-0.464307,-12.1739,0.159761,
2,1,0,1,0,40478.8,0.161604,0.161264,0.652725,21,0.0128293,10,0.000105261,-3.18527,-0.150048,-0.393206,-10.0324,0.161264,
2,1,0,1,0,40478.9,0.163102,0.162785,0.637587,21,0.012928,10,0.00010379,-3.19546,-0.160072,-0.368584,-9.19881,0.162785,
2,1,0,1,0,40479.1,0.164601,0.164283,0.625264,21,0.0130247,10,0.00010272,-3.20394,-0.178824,-0.329933,-8.05725,0.164283,
2,1,0,1,0,40479.2,0.166099,0.165784,0.613768,21,0.0131195,10,0.000101753,-3.212,-0.202788,-0.290944,-6.98434,0.165784,
2,1,0,1,0,40479.4,0.167597,0.167318,0.605129,21,0.0132128,10,0.000101249,-3.21815,-0.253135,-0.233077,-5.50137,0.167318,
2,1,0,1,0,40479.5,0.169095,0.168816,0.59713,21,0.0133049,10,0.000100805,-3.22393,-0.260634,-0.226371,-5.27678,0.168816,
2,1,0,1,0,40479.7,0.170594,0.170286,0.589652,21,0.0133959,10,0.000100409,-3.2294,-0.260212,-0.226738,-5.23484,0.170286,
2,1,0,1,0,40479.8,0.172091,0.171755,0.580362,21,0.0134856,10,9.96802e-05,-3.2363,-0.376089,-0.156878,-3.57705,0.171755,
2,1,0,1,0,40480,0.173589,0.173259,0.577659,21,0.0135744,10,0.000100084,-3.23833,-0.431444,-0.13675,-3.08146,0.173259,
2,1,0,1,0,40480.1,0.175088,0.174719,0.571923,21,0.0136627,10,9.99259e-05,-3.24266,-0.441435,-0.133655,-2.98462,0.174719,
2,1,0,1,0,40480.3,0.176586,0.176265,0.567641,21,0.0137501,10,0.000100055,-3.24593,-0.457978,-0.128827,-2.8523,0.176265,
2,1,0,1,0,40480.4,0.178084,0.177774,0.561305,21,0.0138369,10,9.97855e-05,-3.2508,-0.505515,-0.116713,-2.57174,0.177774,
2,1,0,1,0,40480.6,0.179582,0.179245,0.560062,21,0.0139229,10,0.000100388,-3.25176,-0.632763,-0.0932419,-2.0443,0.179245,
2,1,0,1,0,40480.7,0.181081,0.180769,0.55695,21,0.0140086,10,0.000100679,-3.25418,-0.554535,-0.106395,-2.31185,0.180769,
2,1,0,1,0,40480.9,0.182579,0.182249,0.55389,21,0.0140939,10,0.000100946,-3.25658,-0.530901,-0.111132,-2.39799,0.1822491,
2,1,0,1,0,40481,0.184077,0.183727,0.550998,21,0.0141787,10,0.000101233,-3.25885,-0.71628,-0.08237,-1.77235,0.183727,
2,1,0,1,0,40481.2,0.185576,0.185305,0.549056,21,0.0142629,10,0.000101743,-3.26038,-0.788731,-0.0748037,-1.60152,0.185305,
2,1,0,1,0,40481.3,0.187074,0.186757,0.547889,21,0.0143469,10,0.000102322,-3.26131,-1.36628,-0.0431829,-0.920015,0.186757,
2,1,0,1,0,40481.5,0.188571,0.18825,0.545458,21,0.0144306,10,0.000102683,-3.26324,-1.00351,-0.0587937,-1.24838,0.1882502,
2,1,0,1,0,40481.6,0.19007,0.189739,0.542327,21,0.0145141,10,0.0001029,-3.26574,-1.0332,-0.0571043,-1.20859,0.189739,
2,1,0,1,0,40481.8,0.191568,0.19122,0.540737,21,0.014597,10,0.0001034,-3.26701,-0.806268,-0.0731766,-1.54373,0.19122,
2,1,0,1,0,40481.9,0.193066,0.192738,0.537827,21,0.0146798,10,0.00010366,-3.26936,-9.66552,-0.00610417,-0.128316,0.192738,
2,1,0,1,0,40482.1,0.194564,0.194268,0.53766,21,0.0147624,10,0.00010445,-3.26949,-1.21693,-0.0484828,-1.01669,0.194268,
2,1,0,1,0,40482.2,0.196063,0.195693,0.535731,21,0.0148448,10,0.000104839,-3.27105,-0.799585,-0.0737883,-1.54386,0.195693,
2,1,0,1,0,40482.4,0.197561,0.197242,0.532657,21,0.0149268,10,0.000105062,-3.27355,-1.00572,-0.0586645,-1.2228,0.197242,
2,1,0,1,0,40482.5,0.199059,0.198736,0.533352,21,0.0150086,10,0.000105996,-3.27299,-2.52168,-0.0233971,-0.486076,0.198736,
2,1,0,1,0,40482.7,0.200557,0.200222,0.531295,21,0.0150903,10,0.000106377,-3.27466,-1.2279,-0.0480496,-0.995339,0.200222,
2,1,0,1,0,40482.8,0.202056,0.201733,0.530336,21,0.0151718,10,0.000106986,-3.27545,-1.54545,-0.0381766,-0.788901,0.201733,
2,1,0,1,0,40483,0.203553,0.203239,0.528173,21,0.0152531,10,0.000107345,-3.27722,-1.1323,-0.0521062,-1.07513,0.203239,
2,1,0,1,0,40483.1,0.205051,0.204749,0.527178,21,0.015334,10,0.000107939,-3.27804,2.14529,0.0275021,0.568841,0.204749,
2,1,0,1,0,40483.3,0.20655,0.206258,0.526314,21,0.0154149,10,0.000108556,-3.27876,-1.86666,-0.0316073,-0.649577,0.206258,
2,1,0,1,0,40483.4,0.208048,0.207717,0.524957,21,0.0154961,10,0.000109042,-3.27988,-0.967705,-0.060969,-1.2489,0.207717,
2,1,0,1,0,40483.6,0.209546,0.209253,0.524459,21,0.0155767,10,0.000109745,-3.28029,-1.0591,-0.0557077,-1.14223,0.209253,
2,1,0,1,0,40483.7,0.211044,0.210706,0.523896,21,0.015657,10,0.000110388,-3.28075,-1.09922,-0.0536742,-1.09368,0.210706,
2,1,0,1,0,40483.9,0.212543,0.212244,0.522675,21,0.0157373,10,0.000110934,-3.28177,-1.79902,-0.0327957,-0.667914,0.212244,
2,1,0,1,0,40484,0.214041,0.213719,0.522733,21,0.0158175,10,0.000111718,-3.28172,-1.56243,-0.0377618,-0.769713,0.213719,
2,1,0,1,0,40484.2,0.215539,0.215205,0.520852,21,0.0158975,10,0.00011209,-3.28329,-2.21375,-0.0266516,-0.5421,0.215205,
2,1,0,1,0,40484.3,0.217038,0.216707,0.518937,21,0.0159773,10,0.000112457,-3.28489,-2.69286,-0.0219098,-0.444603,0.216707,
2,1,0,1,0,40484.5,0.218535,0.218236,0.51932,21,0.016057,10,0.000113334,-3.28456,11.6553,0.00506209,0.102273,0.218236,
2,1,0,1,0,40484.6,0.220033,0.219713,0.518461,21,0.0161367,10,0.000113912,-3.28528,-2.25973,-0.0261094,-0.528351,0.219713,
2,1,0,1,0,40484.8,0.221532,0.221182,0.517047,21,0.0162163,10,0.000114362,-3.28647,-1.29922,-0.045412,-0.915595,0.221182,
2,1,0,1,0,40484.9,0.22303,0.222733,0.51329,21,0.0162957,10,0.000114327,-3.28964,-1.4787,-0.0398999,-0.804179,0.222733,
2,1,0,1,0,40485.1,0.224528,0.224261,0.514921,21,0.0163748,10,0.000115477,-3.28826,-1.47484,-0.0400042,-0.804883,0.224261,
2,1,0,1,0,40485.2,0.226026,0.225704,0.51463,21,0.0164539,10,0.000116154,-3.28851,-1.15539,-0.0510648,-1.02609,0.225704,
2,1,0,1,0,40485.4,0.227524,0.227269,0.514209,21,0.0165329,10,0.000116864,-3.28886,-1.14532,-0.0515139,-1.03066,0.227269,
2,1,0,1,0,40485.5,0.229023,0.228704,0.512254,21,0.0166118,10,0.000117155,-3.29051,-1.6053,-0.0367532,-0.736008,0.228704,
2,1,0,1,0,40485.7,0.230521,0.2302,0.51213,21,0.0166903,10,0.000117892,-3.29062,-1.39319,-0.0423489,-0.847679,0.2302,
2,1,0,1,0,40485.8,0.232019,0.231719,0.512425,21,0.0167689,10,0.000118739,-3.29037,-2.18637,-0.0269854,-0.537921,0.231719,
2,1,0,1,0,40486,0.233518,0.233156,0.511257,21,0.0168476,10,0.000119202,-3.29136,-4.29257,-0.0137447,-0.273683,0.2331557,
2,1,0,1,0,40486.1,0.235015,0.234695,0.51007,21,0.016926,10,0.000119711,-3.29237,-1.58504,-0.0372229,-0.741222,0.234695,
2,1,0,1,0,40486.3,0.236513,0.236207,0.50895,21,0.0170042,10,0.000120218,-3.29332,6.94677,0.00849315,0.168853,0.236207,
2,1,0,1,0,40486.4,0.238012,0.23775,0.509277,21,0.0170825,10,0.00012108,-3.29305,35.9264,0.00164225,0.0325219,0.23775,
2,1,0,1,0,40486.6,0.23951,0.239167,0.506959,21,0.0171606,10,0.000121248,-3.29503,-1.88561,-0.0312896,-0.618762,0.239167,
2,1,0,1,0,40486.7,0.241008,0.240699,0.505272,21,0.0172386,10,0.000121618,-3.29647,-1.36729,-0.0431509,-0.85458,0.2406987,
2,1,0,1,0,40486.9,0.242506,0.242192,0.504539,21,0.0173163,10,0.000122195,-3.29711,-2.93564,-0.0200978,-0.397119,0.242192,
2,1,0,1,0,40487,0.244005,0.243647,0.506091,21,0.0173941,10,0.000123307,-3.29577,-4.16469,-0.0141667,-0.279214,0.243647,
2,1,0,1,0,40487.2,0.245503,0.245218,0.50647,21,0.0174719,10,0.000124196,-3.29545,-1.76336,-0.0334589,-0.660322,0.245218,
2,1,0,1,0,40487.3,0.247001,0.246693,0.505393,21,0.0175496,10,0.000124677,-3.29637,-1.23375,-0.0478216,-0.939503,0.246693,
2,1,0,1,0,40487.5,0.2485,0.248184,0.503021,21,0.0176271,10,0.000124842,-3.29841,-1.30249,-0.0452978,-0.890488,0.248184,
2,1,0,1,0,40487.6,0.249997,0.249718,0.502629,21,0.0177044,10,0.000125516,-3.29875,-3.79487,-0.0155473,-0.305679,0.249718,
2,1,0,1,0,40487.8,0.251495,0.251179,0.502419,21,0.0177816,10,0.000126197,-3.29893,-7.28651,-0.00809715,-0.158925,0.251179,
2,1,0,1,0,40487.9,0.252994,0.252659,0.501827,21,0.0178589,10,0.000126791,-3.29945,-1.17114,-0.0503785,-0.985722,0.252659,
2,1,0,1,0,40488.1,0.254492,0.254201,0.500469,21,0.017936,10,0.00012722,-3.30062,-3.61411,-0.0163249,-0.319473,0.254201,
2,1,0,1,0,40488.2,0.25599,0.255696,0.500484,21,0.0180129,10,0.000127972,-3.30061,-17.7286,-0.00332795,-0.0650616,0.255696,
2,1,0,1,0,40488.4,0.257488,0.257167,0.498729,21,0.0180897,10,0.000128257,-3.30214,-1.35961,-0.0433948,-0.845511,0.2571668,
2,1,0,1,0,40488.5,0.258987,0.2587,0.499548,21,0.0181666,10,0.000129233,-3.30142,-3.47514,-0.0169778,-0.330221,0.2587,
2,1,0,1,0,40488.7,0.260485,0.260193,0.497263,21,0.0182433,10,0.000129384,-3.30341,-1.28534,-0.0459024,-0.891935,0.2601932,
2,1,0,1,0,40488.8,0.261983,0.261657,0.497569,21,0.0183196,10,0.000130192,-3.30315,-1.91461,-0.0308157,-0.599251,0.261657,
2,1,0,1,0,40489,0.263481,0.263157,0.49722,21,0.018396,10,0.000130847,-3.30345,-16.3558,-0.00360729,-0.0697038,0.263157,
2,1,0,1,0,40489.1,0.26498,0.264637,0.495721,21,0.0184724,10,0.000131186,-3.30476,-2.08439,-0.0283057,-0.548642,0.264637,
2,1,0,1,0,40489.3,0.266477,0.266148,0.494237,21,0.0185486,10,0.00013154,-3.30606,-1.7682,-0.0333673,-0.643824,0.266148,
2,1,0,1,0,40489.4,0.267976,0.267685,0.492808,21,0.0186246,10,0.000131917,-3.30732,-2.42543,-0.0243256,-0.469869,0.267685,
2,1,0,1,0,40489.6,0.269474,0.269142,0.492451,21,0.0187005,10,0.000132539,-3.30764,-9.37998,-0.00628999,-0.120964,0.269142,
2,1,0,1,0,40489.7,0.270972,0.270663,0.494395,21,0.0187764,10,0.000133814,-3.30593,-4.68301,-0.0125987,-0.242289,0.270663,
2,1,0,1,0,40489.9,0.27247,0.272168,0.492227,21,0.0188522,10,0.000133969,-3.30783,-1.87642,-0.0314429,-0.601363,0.272168,
2,1,0,1,0,40490,0.273968,0.273641,0.490343,21,0.0189278,10,0.000134178,-3.3095,-1.65208,-0.0357126,-0.68532,0.273641,
2,1,0,1,0,40490.2,0.275467,0.275147,0.490178,21,0.0190032,10,0.000134871,-3.30965,-1.47807,-0.0399168,-0.763753,0.275147,
2,1,0,1,0,40490.3,0.276965,0.276641,0.489748,21,0.0190785,10,0.000135484,-3.31003,-1.56417,-0.0377197,-0.721076,0.276641,
2,1,0,1,0,40490.5,0.278463,0.27817,0.489318,21,0.0191538,10,0.000136114,-3.31041,-0.973561,-0.0606023,-1.15315,0.27817,
2,1,0,1,0,40490.6,0.279962,0.279683,0.488349,21,0.019229,10,0.000136583,-3.31127,-2.38035,-0.0247862,-0.471823,0.279683,
2,1,0,1,0,40490.8,0.281459,0.281169,0.48553,21,0.0193038,10,0.000136516,-3.31378,-2.18087,-0.0270534,-0.514771,0.281169,
2,1,0,1,0,40490.9,0.282957,0.282654,0.487654,21,0.0193787,10,0.000137837,-3.31189,-52.0008,-0.0011346,-0.021517,0.282654,
2,1,0,1,0,40491.1,0.284456,0.284153,0.484766,21,0.0194535,10,0.000137748,-3.31447,-1.73857,-0.033936,-0.64173,0.2841531,
2,1,0,1,0,40491.2,0.285954,0.285659,0.485334,21,0.0195282,10,0.00013864,-3.31396,-1.45515,-0.0405456,-0.767902,0.285659,
2,1,0,1,0,40491.4,0.287452,0.287118,0.483729,21,0.0196026,10,0.000138887,-3.3154,-1.21324,-0.0486301,-0.916717,0.287118,
2,1,0,1,0,40491.5,0.28895,0.288666,0.482513,21,0.0196769,10,0.000139285,-3.31649,-3.04488,-0.0193768,-0.365055,0.288666,
2,1,0,1,0,40491.7,0.290449,0.290134,0.481871,21,0.0197511,10,0.000139807,-3.31707,11.6407,0.00506844,0.0953988,0.2901338,
2,1,0,1,0,40491.8,0.291947,0.291629,0.481279,21,0.0198252,10,0.000140355,-3.3176,-1.76861,-0.0333594,-0.628171,0.291629,
2,1,0,1,0,40492,0.293445,0.293122,0.479068,21,0.0198992,10,0.000140425,-3.3196,-1.01882,-0.0579101,-1.08612,0.293122,
2,1,0,1,0,40492.1,0.294943,0.29458,0.479411,21,0.019973,10,0.000141225,-3.31929,-1.92438,-0.0306592,-0.574564,0.29458,
2,1,0,1,0,40492.3,0.296442,0.296151,0.479327,21,0.0200467,10,0.000141953,-3.31937,-2.53909,-0.0232367,-0.433497,0.296151,
2,1,0,1,0,40492.4,0.297939,0.297664,0.478634,21,0.0201204,10,0.000142472,-3.32,-1.32457,-0.0445427,-0.830925,0.297664,
2,1,0,1,0,40492.6,0.299437,0.299165,0.475963,21,0.0201939,10,0.000142392,-3.32243,-0.00282077,-20.9163,-205.75,0.299165,
2,1,0,1,0,40492.7,0.299738,0.299406,0.265792,21,0.0202298,10,7.95797e-05,-3.57546,0.000571115,103.307,404.65,0.299406,
2,1,0,1,0,40492.8,0.29824,0.29795,0.0175628,21,0.0202425,10,5.23282e-06,-4.75541,0.00357024,16.5255,136.312,0.29795,
2,0,0,1,0,40493,0.296741,0.296398,-0.0294983,21,0.0202391,10,-8.74321e-06,-4.5302,-0.0431611,-1.36697,27.5147,0.296398,
2,0,0,1,0,40493.1,0.295243,0.294953,-0.0538088,21,0.0202307,10,-1.58711e-05,-4.26915,-0.00633009,-9.32056,14.6698,0.294953,
2,0,0,1,0,40493.2,0.293745,0.293435,-0.074683,21,0.020219,10,-2.19146e-05,-4.12678,-0.0141962,-4.15605,10.9001,0.293435,
2,0,0,1,0,40493.4,0.292246,0.291895,-0.0889348,21,0.020205,10,-2.59597e-05,-4.05093,-0.0201287,-2.93114,9.60811,0.291895,
2,0,0,1,0,40493.5,0.290748,0.290394,-0.100934,21,0.0201889,10,-2.93106e-05,-3.99596,-0.0268423,-2.19803,8.40871,0.290394,
2,0,0,1,0,40493.7,0.28925,0.288906,-0.112701,21,0.0201709,10,-3.25599e-05,-3.94807,-0.0377747,-1.56189,6.74026,0.288906,
2,0,0,1,0,40493.8,0.287752,0.287405,-0.122059,21,0.0201514,10,-3.50803e-05,-3.91343,-0.0479475,-1.23051,5.81664,0.287405,
2,0,0,1,0,40494,0.286253,0.28594,-0.13051,21,0.0201307,10,-3.73179e-05,-3.88436,-0.0519555,-1.13559,5.75559,0.28594,
2,0,0,1,0,40494.1,0.284755,0.28445,-0.139734,21,0.0201085,10,-3.97473e-05,-3.8547,-0.0561768,-1.05026,5.65249,0.28445,
2,0,0,1,0,40494.3,0.283258,0.282914,-0.147525,21,0.0200852,10,-4.17369e-05,-3.83113,-0.0657536,-0.897289,5.09735,0.282914,
2,0,0,1,0,40494.4,0.281759,0.281459,-0.153142,21,0.0200607,10,-4.3103e-05,-3.81491,-0.0830704,-0.710241,4.23466,0.281459,
2,0,0,1,0,40494.6,0.280261,0.279913,-0.158439,21,0.0200353,10,-4.43491e-05,-3.80014,-0.0889032,-0.663643,4.13135,0.279913,
2,0,0,1,0,40494.7,0.278763,0.27844,-0.16702,21,0.020009,10,-4.65049e-05,-3.77723,-0.092879,-0.635235,4.12547,0.27844,
2,0,0,1,0,40494.9,0.277264,0.276953,-0.172093,21,0.0199816,10,-4.76617e-05,-3.76424,-0.0998004,-0.59118,3.97299,0.276953,
2,0,0,1,0,40495,0.275766,0.275394,-0.178247,21,0.0199533,10,-4.90883e-05,-3.74898,-0.126236,-0.467379,3.23539,0.275394,
2,0,0,1,0,40495.2,0.274268,0.27393,-0.184092,21,0.0199242,10,-5.04283e-05,-3.73496,-0.116791,-0.505175,3.63868,0.27393,
2,0,0,1,0,40495.3,0.27277,0.272476,-0.189937,21,0.0198943,10,-5.17533e-05,-3.72139,-0.103495,-0.570074,4.22705,0.2724759,
2,0,0,1,0,40495.5,0.271272,0.270944,-0.193748,21,0.0198635,10,-5.24947e-05,-3.71276,-0.129783,-0.454605,3.44444,0.270944,
2,0,0,1,0,40495.6,0.269773,0.26946,-0.200525,21,0.0198318,10,-5.40337e-05,-3.69783,-0.13714,-0.430218,3.33787,0.26946,
2,0,0,1,0,40495.8,0.268275,0.267964,-0.204681,21,0.0197995,10,-5.48471e-05,-3.68892,-0.143317,-0.411676,3.2861,0.267964,
2,0,0,1,0,40495.9,0.266778,0.266472,-0.208953,21,0.0197665,10,-5.568e-05,-3.67995,-0.154129,-0.382796,3.11176,0.266472,
2,0,0,1,0,40496.1,0.265279,0.264928,-0.214039,21,0.0197328,10,-5.67049e-05,-3.66951,-0.137415,-0.429355,3.57065,0.264928,
2,0,0,1,0,40496.2,0.263781,0.263473,-0.218624,21,0.0196984,10,-5.76014e-05,-3.6603,-0.165044,-0.35748,3.05367,0.263473,
2,0,0,1,0,40496.4,0.262283,0.261975,-0.221857,21,0.0196633,10,-5.81208e-05,-3.65393,-0.177534,-0.33233,2.89142,0.261975,
2,0,0,1,0,40496.5,0.260784,0.260487,-0.225841,21,0.0196276,10,-5.88286e-05,-3.6462,-0.183827,-0.320955,2.84432,0.260487,
2,0,0,1,0,40496.7,0.259286,0.25899,-0.231892,21,0.0195913,10,-6.00576e-05,-3.63471,-0.175536,-0.336114,3.03406,0.25899,
2,0,0,1,0,40496.8,0.257788,0.257484,-0.237543,21,0.0195543,10,-6.11634e-05,-3.62426,-0.239802,-0.246037,2.25505,0.257484,
2,0,0,1,0,40497,0.25629,0.255978,-0.239942,21,0.0195166,10,-6.142e-05,-3.61989,-0.263301,-0.224078,2.08693,0.255978,
2,0,0,1,0,40497.1,0.254791,0.254473,-0.2421,21,0.0194785,10,-6.1608e-05,-3.61601,-0.224399,-0.262925,2.48658,0.254473,
2,0,0,1,0,40497.3,0.253293,0.252956,-0.246111,21,0.0194399,10,-6.22553e-05,-3.60887,-0.228919,-0.257733,2.48524,0.252956,
2,0,0,1,0,40497.4,0.251796,0.251463,-0.251444,21,0.0194007,10,-6.32289e-05,-3.59956,-0.221986,-0.265783,2.60427,0.251463,
2,0,0,1,0,40497.6,0.250297,0.249975,-0.253844,21,0.0193609,10,-6.34546e-05,-3.59543,-0.338588,-0.174253,1.72588,0.249975,
2,0,0,1,0,40497.7,0.248799,0.24848,-0.25736,21,0.0193205,10,-6.39487e-05,-3.58946,-0.249914,-0.236081,2.37676,0.24848,
2,0,0,1,0,40497.9,0.247301,0.24696,-0.260148,21,0.0192799,10,-6.42463e-05,-3.58478,-0.23491,-0.25116,2.55847,0.24696,
2,0,0,1,0,40498,0.245802,0.245506,-0.26503,21,0.0192386,10,-6.50664e-05,-3.5767,-0.247366,-0.238513,2.45099,0.245506,
2,0,0,1,0,40498.2,0.244304,0.243974,-0.267801,21,0.0191966,10,-6.53366e-05,-3.57219,-0.250118,-0.235888,2.45369,0.2439743,
2,0,0,1,0,40498.3,0.242806,0.242539,-0.271765,21,0.0191543,10,-6.59134e-05,-3.56581,-0.340444,-0.173303,1.83603,0.242539,
2,0,0,1,0,40498.5,0.241308,0.240998,-0.273116,21,0.0191116,10,-6.58204e-05,-3.56365,-0.329102,-0.179276,1.9176,0.240998,
2,0,0,1,0,40498.6,0.23981,0.239509,-0.276444,21,0.0190684,10,-6.62107e-05,-3.55839,-0.222534,-0.265128,2.85804,0.239509,
2,0,0,1,0,40498.8,0.238311,0.238024,-0.280582,21,0.0190247,10,-6.67853e-05,-3.55194,-0.318707,-0.185123,2.0244,0.238024,
2,0,0,1,0,40498.9,0.236814,0.236478,-0.283673,21,0.0189805,10,-6.70823e-05,-3.54718,-0.316304,-0.186529,2.05822,0.236478,
2,0,0,1,0,40499.1,0.235316,0.235031,-0.283768,21,0.018936,10,-6.66942e-05,-3.54704,-0.308199,-0.191435,2.13272,0.235031,
2,0,0,1,0,40499.2,0.233817,0.233495,-0.289615,21,0.018891,10,-6.76237e-05,-3.53818,-0.25062,-0.235416,2.65443,0.233495,
2,0,0,1,0,40499.4,0.232319,0.231996,-0.291355,21,0.0188455,10,-6.75932e-05,-3.53558,-0.323123,-0.182593,2.07687,0.231996,
2,0,0,1,0,40499.5,0.230821,0.23053,-0.294626,21,0.0187994,10,-6.79204e-05,-3.53073,-0.380006,-0.155261,1.78664,0.23053,
2,0,0,1,0,40499.7,0.229322,0.22899,-0.296567,21,0.018753,10,-6.79108e-05,-3.52788,-0.452517,-0.130382,1.51074,0.22899,
2,0,0,1,0,40499.8,0.227824,0.227516,-0.299591,21,0.0187062,10,-6.81617e-05,-3.52347,-0.375146,-0.157272,1.85447,0.227516,
2,0,0,1,0,40500,0.226326,0.22605,-0.303834,21,0.0186589,10,-6.86818e-05,-3.51736,-0.368177,-0.160249,1.89771,0.22605,
2,0,0,1,0,40500.1,0.224828,0.224566,-0.308063,21,0.0186111,10,-6.91803e-05,-3.51136,-0.379014,-0.155667,1.86238,0.224566,
2,0,0,1,0,40500.3,0.223329,0.223013,-0.310422,21,0.0185628,10,-6.92284e-05,-3.50805,-0.326847,-0.180512,2.17816,0.223013,
2,0,0,1,0,40500.4,0.221831,0.221539,-0.3128,21,0.0185143,10,-6.92974e-05,-3.50473,-0.427466,-0.138023,1.68715,0.221539,
2,0,0,1,0,40500.6,0.220334,0.220008,-0.31606,21,0.0184652,10,-6.95358e-05,-3.50023,-0.262254,-0.224973,2.75624,0.220008,
2,0,0,1,0,40500.7,0.218835,0.218479,-0.319246,21,0.0184155,10,-6.97486e-05,-3.49587,-0.317792,-0.185656,2.30828,0.218479,
2,0,0,1,0,40500.9,0.217337,0.217009,-0.320286,21,0.0183654,10,-6.95049e-05,-3.49446,-0.366669,-0.160908,2.02191,0.217009,
2,0,0,1,0,40501,0.215839,0.215526,-0.322529,21,0.0183151,10,-6.95134e-05,-3.49143,-0.416492,-0.141659,1.79614,0.2155257,
2,0,0,1,0,40501.2,0.21434,0.214025,-0.327223,21,0.0182643,10,-7.0034e-05,-3.48516,-0.331206,-0.178137,2.26359,0.214025,
2,0,0,1,0,40501.3,0.212842,0.212488,-0.330536,21,0.0182129,10,-7.02348e-05,-3.48078,-0.384699,-0.153367,1.97841,0.212488,
2,0,0,1,0,40501.5,0.211344,0.211005,-0.332523,21,0.0181611,10,-7.01641e-05,-3.47818,-0.495712,-0.119021,1.54728,0.211005,
2,0,0,1,0,40501.6,0.209846,0.209531,-0.334105,21,0.0181089,10,-7.00053e-05,-3.47612,-0.391772,-0.150598,1.97696,0.209531,
2,0,0,1,0,40501.8,0.208348,0.208007,-0.339749,21,0.0180564,10,-7.06704e-05,-3.46884,-0.332331,-0.177534,2.34964,0.208007,
2,0,0,1,0,40501.9,0.206849,0.20651,-0.345941,21,0.0180032,10,-7.14403e-05,-3.461,-0.375502,-0.157123,2.10207,0.20651,
2,0,0,1,0,40502.1,0.205352,0.205045,-0.345332,21,0.0179494,10,-7.08087e-05,-3.46176,-0.485259,-0.121585,1.63565,0.205045,
2,0,0,1,0,40502.2,0.203854,0.203498,-0.348317,21,0.0178953,10,-7.08818e-05,-3.45803,-0.387186,-0.152382,2.07707,0.203498,
2,0,0,1,0,40502.4,0.202355,0.202022,-0.35007,21,0.0178409,10,-7.0722e-05,-3.45584,-0.394948,-0.149387,2.05122,0.202022,
2,0,0,1,0,40502.5,0.200857,0.200552,-0.355267,21,0.017786,10,-7.12495e-05,-3.44944,-0.349843,-0.168647,2.33457,0.200552,
2,0,0,1,0,40502.7,0.199359,0.199034,-0.357496,21,0.0177305,10,-7.1154e-05,-3.44673,-0.362201,-0.162893,2.26435,0.199034,
2,0,0,1,0,40502.8,0.19786,0.197541,-0.361963,21,0.0176746,10,-7.15027e-05,-3.44134,-0.559217,-0.105505,1.48607,0.197541,
2,0,0,1,0,40503,0.196362,0.196057,-0.363509,21,0.0176184,10,-7.12684e-05,-3.43948,-0.358356,-0.164641,2.33437,0.196057,
2,0,0,1,0,40503.1,0.194864,0.194542,-0.368671,21,0.0175616,10,-7.17222e-05,-3.43336,-0.3247,-0.181706,2.60371,0.194542,
2,0,0,1,0,40503.3,0.193366,0.193037,-0.371445,21,0.0175041,10,-7.17025e-05,-3.43011,-0.319013,-0.184945,2.67827,0.1930366,
2,0,0,1,0,40503.4,0.191867,0.191499,-0.374211,21,0.0174462,10,-7.1661e-05,-3.42688,-0.467466,-0.126212,1.85128,0.191499,
2,0,0,1,0,40503.6,0.190369,0.190063,-0.376257,21,0.0173879,10,-7.15126e-05,-3.42452,-0.394036,-0.149733,2.20815,0.190063,
2,0,0,1,0,40503.7,0.188872,0.188593,-0.381887,21,0.017329,10,-7.20212e-05,-3.41807,-0.285611,-0.206575,3.07895,0.188593,
2,0,0,1,0,40503.9,0.187373,0.187055,-0.385022,21,0.0172694,10,-7.20203e-05,-3.41451,-0.426975,-0.138181,2.07642,0.187055,
2,0,0,1,0,40504,0.185875,0.185551,-0.389475,21,0.0172094,10,-7.22675e-05,-3.40952,-0.424264,-0.139064,2.10845,0.185551,
2,0,0,1,0,40504.2,0.184377,0.184071,-0.390382,21,0.0171489,10,-7.18579e-05,-3.40851,-0.306983,-0.192193,2.93552,0.184071,
2,0,0,1,0,40504.3,0.182878,0.182579,-0.39794,21,0.0170879,10,-7.26555e-05,-3.40018,-0.368793,-0.159981,2.47757,0.182579,
2,0,0,1,0,40504.5,0.18138,0.181046,-0.40024,21,0.0170261,10,-7.24617e-05,-3.39768,-0.327108,-0.180369,2.81761,0.181046,
2,0,0,1,0,40504.6,0.179882,0.179565,-0.403553,21,0.0169637,10,-7.2464e-05,-3.3941,-0.620795,-0.0950394,1.49705,0.179565,
2,0,0,1,0,40504.8,0.178384,0.178031,-0.408282,21,0.0169007,10,-7.26867e-05,-3.38904,-0.418275,-0.141056,2.25673,0.1780308,
2,0,0,1,0,40504.9,0.176886,0.176618,-0.413856,21,0.0168373,10,-7.30945e-05,-3.38315,-0.305249,-0.193285,3.12278,0.176618,
2,0,0,1,0,40505.1,0.175387,0.175087,-0.418081,21,0.016773,10,-7.32007e-05,-3.37874,-0.268929,-0.219389,3.57775,0.175087,
2,0,0,1,0,40505.2,0.17389,0.173564,-0.423,21,0.016708,10,-7.34173e-05,-3.37366,-0.273956,-0.215363,3.54987,0.173564,
2,0,0,1,0,40505.4,0.172392,0.172089,-0.426334,21,0.0166422,10,-7.33675e-05,-3.37025,-0.302259,-0.195197,3.25839,0.172089,
2,0,0,1,0,40505.5,0.170893,0.170588,-0.432089,21,0.0165758,10,-7.37091e-05,-3.36443,-0.264491,-0.22307,3.76883,0.170588,
2,0,0,1,0,40505.7,0.169395,0.169152,-0.437896,21,0.0165085,10,-7.40709e-05,-3.35863,-0.217914,-0.270749,4.62993,0.169152,
2,0,0,1,0,40505.8,0.167897,0.167584,-0.446152,21,0.0164401,10,-7.47678e-05,-3.35052,-0.246859,-0.239003,4.15258,0.167584,
2,0,0,1,0,40506,0.166398,0.166035,-0.450487,21,0.0163708,10,-7.47968e-05,-3.34632,-0.293135,-0.201273,3.55443,0.166035,
2,0,0,1,0,40506.1,0.1649,0.164574,-0.456753,21,0.0163007,10,-7.51697e-05,-3.34032,-0.230155,-0.256349,4.58786,0.164574,
2,0,0,1,0,40506.3,0.163402,0.16306,-0.465165,21,0.0162295,10,-7.58499e-05,-3.33239,-0.189156,-0.311911,5.66281,0.16306,
2,0,0,1,0,40506.4,0.161904,0.161603,-0.474034,21,0.0161571,10,-7.66054e-05,-3.32419,-0.192693,-0.306187,5.65734,0.161603,
2,0,0,1,0,40506.6,0.160405,0.1601,-0.482352,21,0.0160834,10,-7.72244e-05,-3.31664,-0.203092,-0.290509,5.45915,0.1601,
2,0,0,1,0,40506.7,0.158907,0.158578,-0.491748,21,0.0160084,10,-7.79807e-05,-3.30826,-0.172421,-0.342185,6.56983,0.158578,
2,0,0,1,0,40506.9,0.15741,0.157088,-0.501943,21,0.015932,10,-7.88494e-05,-3.29935,-0.154167,-0.382702,7.52535,0.157088,
2,0,0,1,0,40507,0.155911,0.155606,-0.51184,21,0.0158539,10,-7.96456e-05,-3.29087,-0.152946,-0.385757,7.72923,0.1556064,
2,0,0,1,0,40507.2,0.154413,0.154097,-0.524696,21,0.015774,10,-8.08543e-05,-3.28009,-0.148331,-0.39776,8.16016,0.154097,
2,0,0,1,0,40507.3,0.152915,0.152576,-0.53689,21,0.0156923,10,-8.19164e-05,-3.27011,-0.1342,-0.439644,9.25418,0.152576,
2,0,0,1,0,40507.5,0.151417,0.151105,-0.55297,21,0.0156086,10,-8.35565e-05,-3.2573,-0.120788,-0.488459,10.5772,0.151105,
2,0,0,1,0,40507.6,0.149918,0.14958,-0.570446,21,0.0155223,10,-8.53274e-05,-3.24379,-0.109723,-0.537717,11.9667,0.14958,
2,0,0,1,0,40507.8,0.14842,0.148086,-0.589286,21,0.0154333,10,-8.7265e-05,-3.22967,-0.106359,-0.554724,12.7913,0.148086,
2,0,0,1,0,40507.9,0.146922,0.146566,-0.610139,21,0.0153414,10,-8.9426e-05,-3.21457,-0.0976154,-0.604413,14.4009,0.146566,
2,0,0,1,0,40508.1,0.145424,0.145104,-0.633101,21,0.0152463,10,-9.18656e-05,-3.19853,-0.0907993,-0.649785,16.0967,0.145104,
2,0,0,1,0,40508.2,0.143925,0.143636,-0.658499,21,0.0151475,10,-9.45843e-05,-3.18144,-0.0829377,-0.711377,18.2789,0.143636,
2,0,0,1,0,40508.4,0.142428,0.142071,-0.685383,21,0.0150445,10,-9.73733e-05,-3.16407,-0.0818859,-0.720514,19.3387,0.142071,
2,0,0,1,0,40508.5,0.14093,0.140603,-0.715129,21,0.0149374,10,-0.000100549,-3.14562,-0.0820039,-0.719478,20.1348,0.140603,
2,0,0,1,0,40508.7,0.139431,0.139121,-0.744451,21,0.0148256,10,-0.000103569,-3.12816,-0.0809297,-0.729028,21.2911,0.139121,
2,0,0,1,0,40508.8,0.137933,0.13762,-0.779666,21,0.0147092,10,-0.000107297,-3.10809,-0.07944,-0.742699,22.6352,0.13762,
2,0,0,1,0,40509,0.136435,0.1361,-0.815557,21,0.0145875,10,-0.000110997,-3.08855,-0.0804396,-0.733469,23.3383,0.1361002,
2,0,0,1,0,40509.1,0.134936,0.134587,-0.851249,21,0.0144604,10,-0.000114567,-3.06994,-0.0872727,-0.676042,22.3562,0.134587,
2,0,0,1,0,40509.3,0.133438,0.133127,-0.884446,21,0.0143282,10,-0.000117743,-3.05333,-0.0897584,-0.65732,22.6561,0.133127,
2,0,0,1,0,40509.4,0.13194,0.131633,-0.916981,21,0.0141913,10,-0.000120705,-3.03764,-0.0949616,-0.621304,22.2849,0.1316327,
2,0,0,1,0,40509.6,0.130442,0.13008,-0.953131,21,0.014049,10,-0.000123984,-3.02085,-0.0964194,-0.61191,22.695,0.13008,
2,0,0,1,0,40509.7,0.128943,0.128608,-0.986987,21,0.0139015,10,-0.000126935,-3.00569,-0.109409,-0.539259,20.6452,0.128608,
2,0,0,1,0,40509.9,0.127445,0.127139,-1.0159,21,0.0137494,10,-0.00012916,-2.99315,-0.119373,-0.494248,19.5369,0.1271389,
2,0,0,1,0,40510,0.125948,0.12558,-1.04224,21,0.0135933,10,-0.000130884,-2.98203,-0.127338,-0.463332,18.8224,0.12558,
2,0,0,1,0,40510.2,0.124449,0.124113,-1.06988,21,0.0134327,10,-0.000132787,-2.97066,-0.138166,-0.427024,17.7523,0.124113,
2,0,0,1,0,40510.3,0.122951,0.122604,-1.092,21,0.0132683,10,-0.000133884,-2.96178,-0.164164,-0.359397,15.2989,0.122604,
2,0,0,1,0,40510.5,0.121453,0.121115,-1.11493,21,0.0131006,10,-0.000135034,-2.95275,-0.202894,-0.290792,12.617,0.121115,
2,0,0,1,0,40510.6,0.119955,0.119641,-1.12939,21,0.0129302,10,-0.000135121,-2.94716,-0.239303,-0.246549,10.8742,0.119641,
2,0,0,1,0,40510.8,0.118456,0.118116,-1.14783,21,0.0127573,10,-0.000135577,-2.94012,-0.272269,-0.216698,9.68197,0.118116,
2,0,0,1,0,40510.9,0.116958,0.116609,-1.16174,21,0.0125821,10,-0.00013547,-2.93489,-0.363976,-0.162098,7.31428,0.116609,
2,0,0,1,0,40511.1,0.11546,0.115103,-1.16979,21,0.0124053,10,-0.000134647,-2.93189,-0.603457,-0.09777,4.44361,0.1151031,
2,0,0,1,0,40511.2,0.113962,0.113646,-1.17255,21,0.0122276,10,-0.000133255,-2.93087,-0.901004,-0.0654825,2.99567,0.113646,
2,0,0,1,0,40511.4,0.112463,0.112104,-1.17742,21,0.0120493,10,-0.000131994,-2.92907,-1.63395,-0.0361089,1.65732,0.112104,
2,0,0,1,0,40511.5,0.110966,0.110658,-1.17862,21,0.0118705,10,-0.000130424,-2.92863,-5.33324,-0.0110627,0.508018,0.110658,
2,0,0,1,0,40511.7,0.109468,0.109118,-1.17785,21,0.0116917,10,-0.000128525,-2.92891,1.642,0.0359319,-1.64803,0.109118,
2,0,0,1,0,40511.8,0.107969,0.107653,-1.17483,21,0.011513,10,-0.000126474,-2.93003,1.36076,0.043358,-1.98775,0.107653,
2,0,0,1,0,40512,0.106471,0.106164,-1.17078,21,0.0113352,10,-0.000124294,-2.93153,1.13905,0.0517977,-2.37018,0.106164,
2,0,0,1,0,40512.1,0.104973,0.104677,-1.16726,21,0.0111578,10,-0.000122186,-2.93283,1.0453,0.0564431,-2.56877,0.104677,
2,0,0,1,0,40512.3,0.103474,0.103198,-1.16438,21,0.0109808,10,-0.000120162,-2.9339,0.595808,0.0990253,-4.48877,0.103198,
2,0,0,1,0,40512.4,0.101976,0.101631,-1.15737,21,0.0108049,10,-0.000117624,-2.93653,0.538698,0.109523,-4.94442,0.101631,
2,0,0,1,0,40512.6,0.100478,0.100164,-1.15066,21,0.01063,10,-0.000115255,-2.93905,0.63792,0.0924881,-4.15293,0.100164,
2,0,0,1,0,40512.7,0.0989798,0.0986965,-1.14455,21,0.0104562,10,-0.000112963,-2.94136,0.65883,0.0895527,-3.99461,0.0986965,
2,0,0,1,0,40512.9,0.0974808,0.0971558,-1.13847,21,0.010283,10,-0.000110609,-2.94368,0.666313,0.088547,-3.93203,0.0971558,
2,0,0,1,0,40513,0.0959833,0.0956424,-1.13078,21,0.0101109,10,-0.000108151,-2.94662,0.515695,0.114409,-5.0492,0.0956424,
2,0,0,1,0,40513.2,0.0944857,0.0941404,-1.12174,21,0.00993998,10,-0.000105601,-2.95011,0.634709,0.0929559,-4.08283,0.09414044,
2,0,0,1,0,40513.3,0.0929871,0.0926797,-1.11767,21,0.00976991,10,-0.000103585,-2.95169,0.683731,0.0862913,-3.76302,0.0926797,
2,0,0,1,0,40513.5,0.0914889,0.0911687,-1.11381,21,0.00960071,10,-0.000101545,-2.95319,0.593661,0.0993833,-4.31168,0.0911687,
2,0,0,1,0,40513.6,0.0899907,0.0896735,-1.10461,21,0.00943244,10,-9.9054e-05,-2.95679,0.487261,0.121085,-5.21273,0.0896735,
2,0,0,1,0,40513.8,0.0884925,0.0881857,-1.09696,21,0.00926534,10,-9.67362e-05,-2.95981,0.525613,0.11225,-4.80849,0.0881857,
2,0,0,1,0,40513.9,0.0869943,0.0866747,-1.09051,21,0.00909946,10,-9.45194e-05,-2.96237,0.589269,0.100124,-4.26835,0.08667466,
2,0,0,1,0,40514.1,0.0854961,0.0851646,-1.08527,21,0.00893434,10,-9.24264e-05,-2.96446,0.609139,0.096858,-4.10303,0.0851646,
2,0,0,1,0,40514.2,0.083998,0.0836377,-1.07786,21,0.00877005,10,-9.01498e-05,-2.96744,0.428304,0.137753,-5.79029,0.0836377,
2,0,0,1,0,40514.4,0.0824998,0.0821817,-1.07367,21,0.00860679,10,-8.82364e-05,-2.96913,0.54421,0.108414,-4.53781,0.0821817,
2,0,0,1,0,40514.5,0.0810011,0.0806724,-1.06357,21,0.00844481,10,-8.58003e-05,-2.97324,0.577993,0.102077,-4.24071,0.0806724,
2,0,0,1,0,40514.7,0.0795036,0.0791672,-1.06065,21,0.00828364,10,-8.39688e-05,-2.97443,0.739025,0.0798349,-3.29759,0.0791672,
2,0,0,1,0,40514.8,0.0780061,0.0776577,-1.05365,21,0.00812327,10,-8.18241e-05,-2.9773,0.612131,0.0963846,-3.95147,0.0776577,
2,0,0,1,0,40515,0.076507,0.0761841,-1.04684,21,0.00796376,10,-7.97523e-05,-2.98012,0.491492,0.120043,-4.89897,0.0761841,
2,0,0,1,0,40515.1,0.0750088,0.0746709,-1.03696,21,0.00780568,10,-7.74303e-05,-2.98424,0.551524,0.106976,-4.33624,0.0746709,
2,0,0,1,0,40515.3,0.0735106,0.0732022,-1.03256,21,0.00764845,10,-7.55858e-05,-2.98608,0.655176,0.0900521,-3.62723,0.0732022,
2,0,0,1,0,40515.4,0.0720124,0.0716848,-1.02547,21,0.00749204,10,-7.35102e-05,-2.98908,0.604888,0.0975387,-3.90845,0.0716848,
2,0,0,1,0,40515.6,0.0705142,0.0702012,-1.02091,21,0.00733653,10,-7.1669e-05,-2.99101,0.493917,0.119453,-4.75584,0.0702012,
2,0,0,1,0,40515.7,0.069016,0.068704,-1.01177,21,0.00718213,10,-6.95124e-05,-2.99492,0.539779,0.109304,-4.32784,0.068704,
2,0,0,1,0,40515.9,0.0675179,0.0672257,-1.00801,21,0.00702872,10,-6.77642e-05,-2.99654,0.734132,0.080367,-3.16199,0.0672257,
2,0,0,1,0,40516,0.0660188,0.0656807,-1.0043,21,0.00687598,10,-6.59632e-05,-2.99814,0.532462,0.110806,-4.32625,0.06568066,
2,0,0,1,0,40516.2,0.0645213,0.0641908,-0.995631,21,0.00672419,10,-6.39103e-05,-3.0019,0.507299,0.116302,-4.51498,0.0641908,
2,0,0,1,0,40516.3,0.0630237,0.0627068,-0.986681,21,0.00657345,10,-6.18715e-05,-3.00582,0.56592,0.104255,-4.02191,0.0627068,
2,0,0,1,0,40516.5,0.0615251,0.0611772,-0.981623,21,0.00642373,10,-6.00529e-05,-3.00806,0.525043,0.112372,-4.3124,0.06117719,
2,0,0,1,0,40516.6,0.0600269,0.0596725,-0.976043,21,0.00627486,10,-5.82429e-05,-3.01053,0.501413,0.117668,-4.48211,0.0596725,
2,0,0,1,0,40516.8,0.0585287,0.0581815,-0.970507,21,0.00612684,10,-5.64656e-05,-3.013,0.422323,0.139703,-5.28355,0.0581815,
2,0,0,1,0,40516.9,0.0570305,0.0567235,-0.963541,21,0.0059798,10,-5.46554e-05,-3.01613,0.453842,0.130001,-4.88919,0.0567235,
2,0,0,1,0,40517.1,0.0555323,0.0551753,-0.957015,21,0.00583394,10,-5.28036e-05,-3.01908,0.570634,0.103394,-3.86615,0.0551753,
2,0,0,1,0,40517.2,0.0540342,0.0537246,-0.950355,21,0.00568886,10,-5.10575e-05,-3.02211,0.574639,0.102673,-3.80723,0.0537246,
2,0,0,1,0,40517.4,0.052536,0.0521659,-0.9467,21,0.00554455,10,-4.93854e-05,-3.02379,0.528419,0.111654,-4.12076,0.0521659,
2,0,0,1,0,40517.5,0.0510378,0.0506887,-0.938497,21,0.00540125,10,-4.75712e-05,-3.02757,0.420296,0.140377,-5.13753,0.0506887,
2,0,0,1,0,40517.7,0.0495391,0.0491528,-0.931135,21,0.00525905,10,-4.57679e-05,-3.03099,0.460967,0.127992,-4.65477,0.0491528,
2,0,0,1,0,40517.8,0.0480416,0.0476741,-0.924176,21,0.00511804,10,-4.40592e-05,-3.03425,0.59517,0.0991314,-3.57545,0.0476741,
2,0,0,1,0,40518,0.0465441,0.046237,-0.916696,21,0.00497796,10,-4.23853e-05,-3.03777,0.506101,0.116578,-4.17665,0.04623704,
2,0,0,1,0,40518.1,0.045045,0.0447197,-0.911342,21,0.0048387,10,-4.07549e-05,-3.04032,0.418258,0.141061,-5.01809,0.0447197,
2,0,0,1,0,40518.3,0.0435468,0.0432584,-0.901103,21,0.00470069,10,-3.89803e-05,-3.04523,0.5009,0.117788,-4.15976,0.0432584,
2,0,0,1,0,40518.4,0.0420486,0.0417611,-0.897467,21,0.0045637,10,-3.74792e-05,-3.04698,0.479961,0.122927,-4.30949,0.0417611,
2,0,0,1,0,40518.6,0.0405504,0.040231,-0.894063,21,0.00442759,10,-3.5969e-05,-3.04863,0.456514,0.12924,-4.49561,0.040231,
2,0,0,1,0,40518.7,0.0390523,0.0387188,-0.885423,21,0.00429236,10,-3.42826e-05,-3.05285,0.388541,0.15185,-5.23843,0.0387188,
2,0,0,1,0,40518.9,0.0375541,0.037229,-0.877217,21,0.0041583,10,-3.26579e-05,-3.05689,0.419558,0.140624,-4.82173,0.037229,
2,0,0,1,0,40519,0.0360559,0.0357253,-0.870892,21,0.00402541,10,-3.11129e-05,-3.06004,0.445665,0.132386,-4.5081,0.0357253,
2,0,0,1,0,40519.2,0.0345568,0.0342485,-0.865161,21,0.00389331,10,-2.96305e-05,-3.0629,0.433955,0.135959,-4.58857,0.0342485,
2,0,0,1,0,40519.3,0.0330593,0.0327264,-0.859125,21,0.00376223,10,-2.8116e-05,-3.06594,0.420535,0.140298,-4.68882,0.03272637,
2,0,0,1,0,40519.5,0.0315618,0.0312542,-0.851368,21,0.00363216,10,-2.66088e-05,-3.06988,0.452122,0.130496,-4.33513,0.0312542,
2,0,0,1,0,40519.6,0.0300631,0.0297351,-0.844373,21,0.00350321,10,-2.51075e-05,-3.07347,0.438564,0.13453,-4.43193,0.0297351,
2,0,0,1,0,40519.8,0.0285649,0.028224,-0.83801,21,0.00337509,10,-2.3652e-05,-3.07675,0.470522,0.125393,-4.09315,0.028224,
2,0,0,1,0,40519.9,0.0270667,0.0267161,-0.831717,21,0.00324782,10,-2.22202e-05,-3.08002,0.44957,0.131236,-4.25623,0.0267161,
2,0,0,1,0,40520.1,0.0255685,0.0252188,-0.82541,21,0.00312153,10,-2.08158e-05,-3.08333,0.372199,0.158517,-5.09969,0.0252188,
2,0,0,1,0,40520.2,0.0240704,0.023782,-0.817082,21,0.00299644,10,-1.94318e-05,-3.08773,0.490783,0.120216,-3.84817,0.023782,
2,0,0,1,0,40520.4,0.0225722,0.0222507,-0.811903,21,0.0028722,10,-1.80654e-05,-3.0905,0.695194,0.0848684,-2.68953,0.0222507,
2,0,0,1,0,40520.5,0.021074,0.0207619,-0.807872,21,0.00274862,10,-1.6773e-05,-3.09266,0.461205,0.127926,-4.03616,0.02076192,
2,0,0,1,0,40520.7,0.0195758,0.019236,-0.80369,21,0.00262574,10,-1.54598e-05,-3.09491,0.542046,0.108847,-3.40573,0.019236,
2,0,0,1,0,40520.8,0.0180771,0.0177796,-0.79569,21,0.00250363,10,-1.4147e-05,-3.09926,0.649915,0.0907811,-2.82907,0.0177796,
2,0,0,1,0,40521,0.0165796,0.0162742,-0.79462,21,0.0023824,10,-1.29318e-05,-3.09984,0.829593,0.0711192,-2.20475,0.0162742,
2,0,0,1,0,40521.1,0.0150821,0.0147546,-0.791188,21,0.00226158,10,-1.16737e-05,-3.10172,1.01682,0.0580239,-1.7902,0.0147546,
2,0,0,1,0,40521.3,0.013583,0.0132277,-0.786777,21,0.00214112,10,-1.04073e-05,-3.10415,0.746037,0.0790846,-2.42395,0.0132277,
2,0,0,1,0,40521.4,0.0120848,0.0117463,-0.782881,21,0.00202133,10,-9.19599e-06,-3.1063,0.79009,0.074675,-2.286,0.0117463,
2,0,0,1,0,40521.6,0.0105866,0.0102724,-0.780646,21,0.00190221,10,-8.01909e-06,-3.10755,1.15894,0.0509086,-1.55364,0.0102724,
2,0,0,1,0,40521.7,0.00908846,0.00873585,-0.779203,21,0.00178326,10,-6.807e-06,-3.10835,1.86207,0.0316852,-0.964772,0.00873585,
2,0,0,1,0,40521.9,0.00759027,0.00729476,-0.777222,21,0.00166453,10,-5.66964e-06,-3.10946,1.54671,0.0381455,-1.15757,0.00729476,
2,0,0,1,0,40522,0.00609207,0.00575611,-0.777548,21,0.00154602,10,-4.47565e-06,-3.10927,2.55564,0.0230862,-0.699911,0.00575611,
2,0,0,1,0,40522.2,0.00459389,0.00427578,-0.775782,21,0.00142788,10,-3.31707e-06,-3.11026,5.36492,0.0109974,-0.332657,0.00427578,
2,0,0,1,0,40522.3,0.0030948,0.00279946,-0.776704,21,0.00130958,10,-2.17435e-06,-3.10974,-0.950522,-0.0620712,1.88368,0.00279946,
2,0,0,1,0,40522.5,0.00159728,0.00122603,-0.784919,21,0.0011901,10,-9.62336e-07,-3.10518, , , ,0.00122603,
2,0,0,1,0,40522.6,0.000199195,-0.000206982,-0.778459,21,0.00107896,10,1.61127e-07,-3.10876, , , ,-0.000206982,