File: Figure_codes/Fig_3-5/rawdata_trumpetplot_data/after 10th/20221101_1-115_003_TrumpetPlot_ParaChange_from10_every3_14_CV_C01_18.csv
mode,ox/red,error,control changes,counter inc.,time/s,control/V,Ewe/V,<I>/mA,cycle number,(Q-Qo)/C,I Range,P/W,log(|I|),Tafel slope mV/dec,alpha_eff,dI/d(E-IR),E-IR/V,
2,1,0,1,0,36661.5,2.44065e-05,-0.000325324,33.859,19,0.0000000E+000,10,-1.10151e-05,-1.47033, , , ,-0.000325324,
2,1,0,1,0,36661.5,0.00332042,0.00295451,35.1687,19,0.000107557,10,0.000103906,-1.45384, , , ,0.00295451,
2,1,0,1,0,36661.5,0.0073156,0.00692998,36.2133,19,0.00025047,10,0.000250957,-1.44113, , , ,0.00692998,
2,1,0,1,0,36661.5,0.0113108,0.0109882,37.1423,19,0.000397317,10,0.000408126,-1.43013,0.377425,0.156322,225.35,0.0109882,
2,1,0,1,0,36661.5,0.0153059,0.01497,37.9877,19,0.000547677,10,0.000568675,-1.42036,0.416676,0.141597,209.249,0.01497,
2,1,0,1,0,36661.5,0.0193011,0.0189158,38.7656,19,0.000701295,10,0.00073328,-1.41155,0.454278,0.129876,196.067,0.0189158,
2,1,0,1,0,36661.5,0.0233462,0.0229601,39.5675,19,0.000858106,10,0.000908476,-1.40266,0.495056,0.119178,183.437,0.0229601,
2,1,0,1,0,36661.5,0.0273414,0.0269102,40.2641,19,0.00101785,10,0.00108351,-1.39508,0.532544,0.110789,173.576,0.0269102,
2,1,0,1,0,36661.5,0.0313366,0.0309927,40.9269,19,0.00118031,10,0.00126844,-1.38799,0.580364,0.10166,162.07,0.0309927,
2,1,0,1,0,36661.5,0.0353317,0.0349936,41.5563,19,0.00134534,10,0.00145421,-1.38136,0.61616,0.0957544,155.077,0.0349936,
2,1,0,1,0,36661.5,0.0393269,0.0389489,42.1588,19,0.00151285,10,0.00164204,-1.37511,0.648486,0.0909812,149.529,0.0389489,
2,1,0,1,0,36661.5,0.0433221,0.0429817,42.7564,19,0.00168275,10,0.00183774,-1.369,0.681969,0.0865142,144.16,0.0429817,
2,1,0,1,0,36661.5,0.0473173,0.0470006,43.3205,19,0.00185496,10,0.00203609,-1.36331,0.716514,0.0823431,139.031,0.0470006,
2,1,0,1,0,36661.5,0.0513124,0.0509591,43.8579,19,0.00202939,10,0.00223496,-1.35795,0.748533,0.0788209,134.795,0.05095911,
2,1,0,1,0,36661.5,0.0553076,0.0549738,44.3868,19,0.00220594,10,0.00244011,-1.35275,0.763605,0.0772651,133.834,0.0549738,
2,1,0,1,0,36661.5,0.0593028,0.0588878,44.9005,19,0.00238457,10,0.00264409,-1.34775,0.788053,0.074868,131.187,0.0588878,
2,1,0,1,0,36661.5,0.0633479,0.0630096,45.4631,19,0.00256532,10,0.00286461,-1.34234,0.818382,0.0720934,127.74,0.0630096,
2,1,0,1,0,36661.5,0.0673431,0.0669469,45.9553,19,0.0027482,10,0.00307656,-1.33766,0.847296,0.0696333,124.732,0.0669469,
2,1,0,1,0,36661.5,0.0713382,0.0709775,46.4311,19,0.00293303,10,0.00329556,-1.33319,0.880418,0.0670136,121.405,0.0709775,
2,1,0,1,0,36661.5,0.0753334,0.0750049,46.9108,19,0.00311976,10,0.00351854,-1.32873,0.902252,0.0653919,119.706,0.0750049,
2,1,0,1,0,36661.5,0.0793286,0.0788934,47.3914,19,0.0033084,10,0.00373887,-1.3243,0.895535,0.0658824,121.867,0.0788934,
2,1,0,1,0,36661.5,0.0833238,0.0829378,47.8695,19,0.00349898,10,0.00397019,-1.31994,0.896766,0.0657919,122.949,0.0829378,
2,1,0,1,0,36661.5,0.0873189,0.0869398,48.3764,19,0.00369152,10,0.00420583,-1.31537,0.902869,0.0653472,123.364,0.0869398,
2,1,0,1,0,36661.5,0.0913141,0.0909396,48.87,19,0.00388606,10,0.00444422,-1.31096,0.899848,0.0655666,125.029,0.0909396,
2,1,0,1,0,36661.5,0.0953093,0.0949077,49.367,19,0.0040826,10,0.00468531,-1.30656,0.902035,0.0654077,126.047,0.0949077,
2,1,0,1,0,36661.6,0.0993045,0.0989118,49.8667,19,0.00428112,10,0.0049324,-1.30219,0.895218,0.0659057,128.326,0.0989118,
2,1,0,1,0,36661.6,0.103319,0.102954,50.3949,19,0.00448167,10,0.00518836,-1.29761,0.91421,0.0645366,126.874,0.102954,
2,1,0,1,0,36661.6,0.107345,0.106975,50.9277,19,0.00468442,10,0.005448,-1.29305,0.893845,0.0660069,131.141,0.106975,
2,1,0,1,0,36661.6,0.11134,0.110882,51.3937,19,0.00488912,10,0.00569862,-1.28909,0.886291,0.0665696,133.69,0.110882,
2,1,0,1,0,36661.6,0.115335,0.1149,51.9633,19,0.00509587,10,0.00597056,-1.2843,0.869098,0.0678865,137.826,0.1149,
2,1,0,1,0,36661.6,0.11933,0.118983,52.5379,19,0.00530493,10,0.00625112,-1.27953,0.841319,0.070128,143.795,0.118983,
2,1,0,1,0,36661.6,0.123325,0.12296,53.1308,19,0.00551632,10,0.00653295,-1.27465,0.848111,0.0695663,144.193,0.12296,
2,1,0,1,0,36661.6,0.127321,0.126941,53.703,19,0.00573004,10,0.00681714,-1.27,0.847678,0.0696019,145.842,0.126941,
2,1,0,1,0,36661.6,0.131316,0.130928,54.2745,19,0.00594605,10,0.00710602,-1.2654,0.860185,0.0685899,145.319,0.130928,
2,1,0,1,0,36661.6,0.135311,0.134906,54.8601,19,0.00616437,10,0.00740097,-1.26074,0.845,0.0698225,149.579,0.1349062,
2,1,0,1,0,36661.6,0.139306,0.138991,55.4605,19,0.00638508,10,0.0077085,-1.25602,0.815436,0.0723539,156.788,0.138991,
2,1,0,1,0,36661.6,0.143301,0.142962,56.0994,19,0.00660826,10,0.00802009,-1.25104,0.802846,0.0734886,161.024,0.1429621,
2,1,0,1,0,36661.6,0.147346,0.147,56.7945,19,0.00683414,10,0.00834879,-1.24569,0.786954,0.0749726,166.142,0.147,
2,1,0,1,0,36661.6,0.151342,0.150984,57.4491,19,0.00706269,10,0.00867389,-1.24072,0.779265,0.0757124,169.746,0.150984,
2,1,0,1,0,36661.6,0.155337,0.155027,58.1248,19,0.00729389,10,0.00901094,-1.23564,0.780557,0.075587,171.543,0.1550274,
2,1,0,1,0,36661.6,0.159332,0.158968,58.8163,19,0.00752784,10,0.0093499,-1.2305,0.773709,0.0762561,175.098,0.158968,
2,1,0,1,0,36661.6,0.163327,0.162949,59.5303,19,0.00776461,10,0.00970039,-1.22526,0.770329,0.0765906,177.949,0.162949,
2,1,0,1,0,36661.6,0.167322,0.166952,60.2449,19,0.00800424,10,0.010058,-1.22008,0.782798,0.0753706,177.148,0.166952,
2,1,0,1,0,36661.6,0.171317,0.170978,60.9632,19,0.00824674,10,0.0104234,-1.21493,0.801216,0.0736381,175.074,0.170978,
2,1,0,1,0,36661.6,0.175313,0.174987,61.6541,19,0.00849204,10,0.0107887,-1.21004,0.821144,0.071851,172.784,0.174987,
2,1,0,1,0,36661.6,0.179308,0.17894,62.3299,19,0.0087401,10,0.0111533,-1.2053,0.839064,0.0703165,171.024,0.17894,
2,1,0,1,0,36661.6,0.183303,0.182963,63.0114,19,0.00899086,10,0.0115287,-1.20058,0.879634,0.0670733,164.818,0.182963,
2,1,0,1,0,36661.6,0.187348,0.186977,63.6995,19,0.00924429,10,0.0119104,-1.19586,0.929807,0.063454,157.464,0.186977,
2,1,0,1,0,36661.6,0.191343,0.190993,64.2922,19,0.00950037,10,0.0122794,-1.19184,1.00568,0.0586666,146.946,0.190993,
2,1,0,1,0,36661.6,0.195338,0.194994,64.8579,19,0.00975872,10,0.0126469,-1.18804,1.1204,0.0526599,133.09,0.194994,
2,1,0,1,0,36661.7,0.199334,0.198973,65.364,19,0.0100192,10,0.0130057,-1.18466,1.23833,0.0476447,121.339,0.198973,
2,1,0,1,0,36661.7,0.203329,0.202989,65.8304,19,0.0102817,10,0.0133628,-1.18157,1.44386,0.0408627,104.763,0.202989,
2,1,0,1,0,36661.7,0.207324,0.206964,66.2301,19,0.0105458,10,0.0137072,-1.17894,1.74018,0.0339046,87.4121,0.206964,
2,1,0,1,0,36661.7,0.211319,0.211002,66.535,19,0.0108114,10,0.014039,-1.17695,2.30214,0.0256284,66.3724,0.211002,
2,1,0,1,0,36661.7,0.215314,0.21499,66.7641,19,0.0110781,10,0.0143536,-1.17546,3.43384,0.0171819,44.6505,0.21499,
2,1,0,1,0,36661.7,0.219309,0.218975,66.8915,19,0.0113454,10,0.0146476,-1.17463,6.41157,0.00920212,23.9635,0.218975,
2,1,0,1,0,36661.7,0.223305,0.222985,66.9454,19,0.0116132,10,0.0149278,-1.17428,84.1412,0.000701202,1.82745,0.222985,
2,1,0,1,0,36661.7,0.227314,0.227011,66.9186,19,0.0118809,10,0.0151913,-1.17445,-7.19476,-0.00820042,-21.353,0.227011,
2,1,0,1,0,36661.7,0.231345,0.231021,66.7934,19,0.0121484,10,0.0154307,-1.17527,-3.33581,-0.0176869,-45.9552,0.231021,
2,1,0,1,0,36661.7,0.23534,0.23497,66.5499,19,0.0124151,10,0.0156373,-1.17685,-2.15093,-0.02743,-71.0272,0.23497,
2,1,0,1,0,36661.7,0.239335,0.239015,66.2087,19,0.0126806,10,0.0158249,-1.17908,-1.59748,-0.0369332,-95.1758,0.239015,
2,1,0,1,0,36661.7,0.24333,0.242998,65.7831,19,0.0129445,10,0.0159851,-1.18189,-1.27788,-0.0461702,-118.2,0.242998,
2,1,0,1,0,36661.7,0.247326,0.246989,65.2737,19,0.0132066,10,0.0161219,-1.18526,-1.06329,-0.0554882,-140.927,0.246989,
2,1,0,1,0,36661.7,0.251321,0.250997,64.6555,19,0.0134665,10,0.0162284,-1.18939,-0.912538,-0.0646548,-162.68,0.250997,
2,1,0,1,0,36661.7,0.255316,0.25498,63.9588,19,0.0137236,10,0.0163082,-1.1941,-0.796446,-0.0740791,-184.416,0.25498,
2,1,0,1,0,36661.7,0.259311,0.259014,63.1776,19,0.0139779,10,0.0163639,-1.19944,-0.714992,-0.0825184,-202.951,0.259014,
2,1,0,1,0,36661.7,0.263306,0.262979,62.3249,19,0.0142288,10,0.0163901,-1.20534,-0.660671,-0.0893032,-216.786,0.262979,
2,1,0,1,0,36661.7,0.267301,0.266979,61.4121,19,0.0144762,10,0.0163957,-1.21175,-0.602805,-0.0978758,-234.099,0.266979,
2,1,0,1,0,36661.7,0.271347,0.271043,60.4765,19,0.0147199,10,0.0163918,-1.21841,-0.563669,-0.104671,-246.434,0.2710433,
2,1,0,1,0,36661.7,0.275342,0.275011,59.4326,19,0.0149597,10,0.0163446,-1.22598,-0.531705,-0.110964,-256.921,0.275011,
2,1,0,1,0,36661.7,0.279337,0.279021,58.3717,19,0.0151952,10,0.0162869,-1.2338,-0.501192,-0.117719,-267.861,0.279021,
2,1,0,1,0,36661.7,0.283332,0.283022,57.2903,19,0.0154264,10,0.0162144,-1.24192,-0.483804,-0.12195,-272.376,0.283022,
2,1,0,1,0,36661.7,0.287327,0.287069,56.1838,19,0.0156532,10,0.0161286,-1.25039,-0.46964,-0.125628,-275.268,0.287069,
2,1,0,1,0,36661.7,0.291322,0.290984,55.082,19,0.0158757,10,0.016028,-1.25899,-0.460382,-0.128154,-275.601,0.290984,
2,1,0,1,0,36661.7,0.295318,0.294996,53.9742,19,0.0160937,10,0.0159222,-1.26781,-0.454486,-0.129817,-275.699,0.294996,
2,1,0,1,0,36661.8,0.299013,0.298682,52.9742,19,0.0162915,10,0.0158225,-1.27594,-0.174979,-0.337183,-689.877,0.2986823,
2,1,0,0,0,36661.8,0.300012,0.299746,52.6887,19,0.0163443,10,0.0157933,-1.27828,0.00457416,12.8985,24296,0.299746,
2,1,0,1,0,36661.8,0.298713,0.29856,49.8558,19,0.0164099,10,0.0148849,-1.30228,0.0546095,1.0804,1888.86,0.29856,
2,1,0,1,0,36661.8,0.294718,0.294543,42.9728,19,0.0165942,10,0.0126573,-1.36681,0.0642216,0.918695,1503.71,0.294543,
2,1,0,1,0,36661.8,0.290723,0.290494,37.5083,19,0.0167544,10,0.010896,-1.42587,0.0664128,0.888383,1324.77,0.290494,
2,1,0,1,0,36661.8,0.286728,0.286496,32.7632,19,0.0168943,10,0.0093865,-1.48461,0.0670186,0.880353,1134.28,0.286496,
2,1,0,1,0,36661.8,0.282733,0.282467,28.5366,19,0.0170164,10,0.00806066,-1.5446,0.0648703,0.909507,1015.8,0.282467,
2,1,0,1,0,36661.8,0.278738,0.278458,24.7275,19,0.0171224,10,0.00688557,-1.60682,0.062013,0.951413,917.23,0.278458,
2,1,0,1,0,36661.8,0.274742,0.274496,21.2572,19,0.0172139,10,0.00583503,-1.67249,0.0581096,1.01532,837.125,0.274496,
2,1,0,1,0,36661.8,0.270747,0.270495,18.0871,19,0.0172923,10,0.00489246,-1.74263,0.0536766,1.09918,767.527,0.270495,
2,1,0,1,0,36661.8,0.266702,0.266446,15.1254,19,0.0173583,10,0.0040301,-1.82029,0.0488169,1.2086,703.267,0.266446,
2,1,0,1,0,36661.8,0.262707,0.262461,12.45,19,0.0174131,10,0.00326765,-1.90483,0.043131,1.36792,648.569,0.262461,
2,1,0,1,0,36661.8,0.258712,0.25845,9.97259,19,0.0174577,10,0.00257742,-2.00119,0.0366155,1.61134,600.566,0.25845,
2,1,0,1,0,36661.8,0.254717,0.254447,7.67871,19,0.0174927,10,0.00195382,-2.11471,0.0295209,1.99858,554.363,0.254447,
2,1,0,1,0,36661.8,0.250722,0.250501,5.54913,19,0.0175189,10,0.00139006,-2.25577,0.0209178,2.82057,515.917,0.2505011,
2,1,0,1,0,36661.8,0.246726,0.24644,3.56818,19,0.0175369,10,0.000879341,-2.44755,0.00526035,11.216,481.207,0.24644,
2,1,0,1,0,36661.8,0.242731,0.242437,1.71111,19,0.0175472,10,0.000414835,-2.76672,0.0298726,1.97505,447.201,0.242437,
2,1,0,1,0,36661.8,0.238736,0.238475,-0.00706343,19,0.0175504,10,-1.68445e-06,-5.15098,0.281397,0.209668,419.026,0.238475,
2,0,0,1,0,36661.8,0.234741,0.234483,-1.61435,19,0.017547,10,-0.000378537,-2.792,-0.0373061,-1.58151,393.893,0.2344826,
2,0,0,1,0,36661.8,0.230746,0.230453,-3.13065,19,0.0175373,10,-0.000721468,-2.50437,-0.00549166,-10.7436,368.556,0.230453,
2,0,0,1,0,36661.8,0.226701,0.226414,-4.60013,19,0.0175217,10,-0.00104153,-2.33723,-0.0247798,-2.38097,346.299,0.226414,
2,0,0,1,0,36661.8,0.222705,0.222419,-5.92446,19,0.0175006,10,-0.00131771,-2.22735,-0.0376028,-1.56903,325.786,0.222419,
2,0,0,1,0,36661.8,0.21871,0.218434,-7.17182,19,0.0174742,10,-0.00156657,-2.14437,-0.0510743,-1.15518,304.159,0.218434,
2,0,0,1,0,36661.8,0.214715,0.214432,-8.34996,19,0.017443,10,-0.0017905,-2.07832,-0.0637736,-0.925148,289.427,0.214432,
2,0,0,1,0,36661.8,0.21072,0.210386,-9.47521,19,0.0174072,10,-0.00199345,-2.02341,-0.0771658,-0.764588,274.264,0.210386,
2,0,0,1,0,36661.8,0.206725,0.206437,-10.5502,19,0.0173671,10,-0.00217795,-1.97674,-0.0905824,-0.651341,261.723,0.206437,
2,0,0,1,0,36661.9,0.20273,0.20244,-11.5584,19,0.0173227,10,-0.00233989,-1.9371,-0.104957,-0.562135,248.897,0.20244,
2,0,0,1,0,36661.9,0.198734,0.198487,-12.5232,19,0.0172745,10,-0.0024857,-1.90228,-0.120147,-0.491065,236.587,0.1984871,
2,0,0,1,0,36661.9,0.194739,0.19443,-13.4466,19,0.0172224,10,-0.00261442,-1.87139,-0.134662,-0.438135,227.346,0.19443,
2,0,0,1,0,36661.9,0.190744,0.19045,-14.3324,19,0.0171668,10,-0.00272962,-1.84368,-0.149176,-0.395507,219.372,0.1904503,
2,0,0,1,0,36661.9,0.186735,0.186426,-15.1992,19,0.0171076,10,-0.00283353,-1.81818,-0.164045,-0.359657,211.64,0.186426,
2,0,0,1,0,36661.9,0.182704,0.182425,-16.0468,19,0.017045,10,-0.00292733,-1.79461,-0.17947,-0.328746,204.168,0.182425,
2,0,0,1,0,36661.9,0.178709,0.178413,-16.8365,19,0.0169791,10,-0.00300385,-1.77375,-0.195209,-0.302239,197.332,0.178413,
2,0,0,1,0,36661.9,0.174713,0.174414,-17.6066,19,0.0169102,10,-0.00307083,-1.75432,-0.210179,-0.280713,192.214,0.174414,
2,0,0,1,0,36661.9,0.170718,0.170413,-18.3591,19,0.0168381,10,-0.00312863,-1.73615,-0.221903,-0.265881,190.066,0.170413,
2,0,0,1,0,36661.9,0.166723,0.166363,-19.1341,19,0.0167631,10,-0.00318321,-1.71819,-0.231871,-0.254452,189.474,0.166363,
2,0,0,1,0,36661.9,0.162728,0.162391,-19.8817,19,0.016685,10,-0.00322861,-1.70155,-0.240719,-0.245099,189.753,0.162391,
2,0,0,1,0,36661.9,0.158733,0.158439,-20.6334,19,0.0166039,10,-0.00326914,-1.68543,-0.248452,-0.237471,191.097,0.158439,
2,0,0,1,0,36661.9,0.154737,0.154425,-21.3929,19,0.0165198,10,-0.00330359,-1.66973,-0.252099,-0.234035,195.481,0.154425,
2,0,0,1,0,36661.9,0.150742,0.150424,-22.18,19,0.0164326,10,-0.00333641,-1.65404,-0.251886,-0.234233,203.149,0.150424,
2,0,0,1,0,36661.9,0.146747,0.146448,-22.9983,19,0.0163421,10,-0.00336805,-1.6383,-0.251096,-0.23497,211.309,0.146448,
2,0,0,1,0,36661.9,0.142702,0.142397,-23.8923,19,0.0162483,10,-0.00340219,-1.62174,-0.249678,-0.236304,220.463,0.1423969,
2,0,0,1,0,36661.9,0.138707,0.138413,-24.7764,19,0.0161508,10,-0.00342937,-1.60596,-0.245464,-0.240361,232.799,0.138413,
2,0,0,1,0,36661.9,0.134712,0.134374,-25.7185,19,0.0160498,10,-0.00345589,-1.58975,-0.241087,-0.244725,246.506,0.134374,
2,0,0,1,0,36661.9,0.130717,0.13042,-26.7296,19,0.0159448,10,-0.00348607,-1.57301,-0.234095,-0.252035,263.89,0.13042,
2,0,0,1,0,36661.9,0.126721,0.126434,-27.8274,19,0.0158356,10,-0.00351831,-1.55553,-0.22744,-0.259409,282.575,0.126434,
2,0,0,1,0,36661.9,0.122726,0.122441,-28.9912,19,0.0157219,10,-0.00354971,-1.53773,-0.222272,-0.26544,301.115,0.122441,
2,0,0,1,0,36661.9,0.118731,0.118422,-30.226,19,0.0156033,10,-0.00357943,-1.51962,-0.219482,-0.268815,317.797,0.118422,
2,0,0,1,0,36661.9,0.114736,0.114454,-31.5371,19,0.0154796,10,-0.00360955,-1.50118,-0.219052,-0.269342,331.915,0.114454,
2,0,0,1,0,36661.9,0.110741,0.110475,-32.8988,19,0.0153506,10,-0.00363451,-1.48282,-0.217798,-0.270893,348.171,0.110475,
2,0,0,1,0,36661.9,0.106745,0.106415,-34.3104,19,0.0152161,10,-0.00365115,-1.46457,-0.223712,-0.263732,352.985,0.1064152,
2,0,0,1,0,36662,0.102703,0.102422,-35.7969,19,0.0150758,10,-0.00366638,-1.44615,-0.230341,-0.256142,356.678,0.1024217,
2,0,0,1,0,36662,0.0987052,0.0983858,-37.209,19,0.0149296,10,-0.00366083,-1.42935,-0.236892,-0.249058,360.673,0.0983858,
2,0,0,1,0,36662,0.09471,0.0944496,-38.6149,19,0.0147778,10,-0.00364716,-1.41325,-0.250506,-0.235524,354.412,0.0944496,
2,0,0,1,0,36662,0.0907148,0.0905006,-40.0504,19,0.0146203,10,-0.00362458,-1.39739,-0.261154,-0.22592,352.221,0.0905006,
2,0,0,1,0,36662,0.0867197,0.086452,-41.4568,19,0.0144572,10,-0.00358402,-1.3824,-0.275856,-0.21388,344.838,0.086452,
2,0,0,1,0,36662,0.0827245,0.0824595,-42.8185,19,0.0142885,10,-0.0035308,-1.36837,-0.295453,-0.199694,332.512,0.0824595,
2,0,0,1,0,36662,0.0787293,0.078448,-44.1328,19,0.0141144,10,-0.00346213,-1.35524,-0.312934,-0.188538,323.695,0.078448,
2,0,0,1,0,36662,0.0747341,0.0744344,-45.3926,19,0.0139352,10,-0.00337877,-1.34301,-0.335978,-0.175607,310.129,0.0744344,
2,0,0,1,0,36662,0.070739,0.0704748,-46.6285,19,0.0137511,10,-0.00328614,-1.33135,-0.362294,-0.162851,295.173,0.0704748,
2,0,0,1,0,36662,0.0667438,0.066475,-47.7758,19,0.0135621,10,-0.00317589,-1.32079,-0.383819,-0.153718,285.782,0.066475,
2,0,0,1,0,36662,0.0627403,0.062525,-48.8329,19,0.0133688,10,-0.00305328,-1.31129,-0.416363,-0.141703,269.567,0.062525,
2,0,0,1,0,36662,0.0587035,0.0584721,-49.9543,19,0.0131711,10,-0.00292093,-1.30143,-0.450456,-0.130979,254.476,0.0584721,
2,0,0,1,0,36662,0.0547083,0.0545433,-50.9231,19,0.0129692,10,-0.00277752,-1.29308,-0.483277,-0.122083,241.769,0.0545433,
2,0,0,1,0,36662,0.0507132,0.0504798,-51.8462,19,0.0127635,10,-0.00261719,-1.28528,-0.538275,-0.109609,221.15,0.0504798,
2,0,0,1,0,36662,0.046718,0.046516,-52.7034,19,0.0125543,10,-0.00245155,-1.27816,-0.593794,-0.0993611,203.738,0.046516,
2,0,0,1,0,36662,0.0427228,0.0425204,-53.482,19,0.0123418,10,-0.00227408,-1.27179,-0.653736,-0.0902505,187.848,0.0425204,
2,0,0,1,0,36662,0.0387276,0.0385036,-54.191,19,0.0121264,10,-0.00208655,-1.26607,-0.720189,-0.081923,172.89,0.03850358,
2,0,0,1,0,36662,0.0347325,0.0345048,-54.847,19,0.0119083,10,-0.00189249,-1.26085,-0.780822,-0.0755614,161.495,0.03450479,
2,0,0,1,0,36662,0.0307373,0.030506,-55.4713,19,0.0116875,10,-0.00169221,-1.25593,-0.842648,-0.0700174,151.371,0.030506,
2,0,0,1,0,36662,0.0267421,0.0265167,-56.0666,19,0.0114644,10,-0.0014867,-1.2513,-0.897225,-0.0657583,143.698,0.0265167,
2,0,0,1,0,36662,0.022747,0.0224755,-56.6172,19,0.0112389,10,-0.0012725,-1.24705,-0.991709,-0.0594932,131.23,0.0224755,
2,0,0,1,0,36662,0.0187018,0.0184386,-57.1557,19,0.0110113,10,-0.00105387,-1.24294,-1.11764,-0.0527897,117.45,0.0184386,
2,0,0,1,0,36662,0.0147067,0.014426,-57.5815,19,0.0107818,10,-0.00083067,-1.23972,-1.25321,-0.0470792,105.579,0.014426,
2,0,0,1,0,36662,0.0107115,0.0103848,-57.9613,19,0.0105507,10,-0.000601915,-1.23686,-1.45148,-0.0406483,91.8295,0.0103848,
2,0,0,1,0,36662,0.00671632,0.00638811,-58.3157,19,0.0103181,10,-0.000372527,-1.23421,-1.62168,-0.0363821,82.6986,0.00638811,
2,0,0,1,0,36662.1,0.00272115,0.00245824,-58.6232,19,0.0100842,10,-0.00014411,-1.23193,-1.85841,-0.0317476,72.532,0.00245824,
2,0,0,1,0,36662.1,-0.00127403,-0.00164129,-58.9103,19,0.00984899,10,9.66887e-05,-1.22981,-2.21821,-0.026598,61.0393,-0.00164129,
2,0,0,1,0,36662.1,-0.0052692,-0.00563372,-59.1231,19,0.0096129,10,0.000333083,-1.22824,-2.64823,-0.022279,51.3298,-0.00563372,
2,0,0,1,0,36662.1,-0.00926438,-0.00961131,-59.2923,19,0.00937604,10,0.000569877,-1.227,-3.41836,-0.0172597,39.896,-0.00961131,
2,0,0,1,0,36662.1,-0.0132596,-0.0136281,-59.4489,19,0.00913851,10,0.000810177,-1.22586,-4.18263,-0.014106,32.692,-0.0136281,
2,0,0,1,0,36662.1,-0.0172547,-0.0176269,-59.548,19,0.00890049,10,0.00104965,-1.22513,-5.89496,-0.0100085,23.2324,-0.0176269,
2,0,0,1,0,36662.1,-0.0212915,-0.0216681,-59.6473,19,0.00866211,10,0.00129245,-1.22441,-12.0853,-0.00488196,11.344,-0.0216681,
2,0,0,1,0,36662.1,-0.025295,-0.0256436,-59.6648,19,0.00842348,10,0.00153002,-1.22428,-64.3807,-0.000916423,2.13035,-0.0256436,
2,0,0,1,0,36662.1,-0.0292902,-0.0296541,-59.6307,19,0.00818488,10,0.00176829,-1.22453,15.4025,0.00383055,-8.90629,-0.0296541,
2,0,0,1,0,36662.1,-0.0332854,-0.0336338,-59.5821,19,0.00794644,10,0.00200397,-1.22488,7.25353,0.00813397,-18.8923,-0.0336338,
2,0,0,1,0,36662.1,-0.0372805,-0.0376612,-59.5049,19,0.00770826,10,0.00224102,-1.22545,5.18343,0.0113824,-26.3952,-0.0376612,
2,0,0,1,0,36662.1,-0.0412757,-0.0416144,-59.363,19,0.00747051,10,0.00247036,-1.22648,3.94127,0.0149698,-34.6471,-0.0416144,
2,0,0,1,0,36662.1,-0.0452709,-0.0456567,-59.2083,19,0.00723338,10,0.00270325,-1.22762,3.2658,0.018066,-41.7198,-0.0456567,
2,0,0,1,0,36662.1,-0.0492661,-0.0496353,-59.0277,19,0.00699693,10,0.00292986,-1.22894,2.99627,0.0196911,-45.3396,-0.0496353,
2,0,0,1,0,36662.1,-0.0532612,-0.0535832,-58.8406,19,0.00676119,10,0.00315287,-1.23032,2.69586,0.0218854,-50.2288,-0.0535832,
2,0,0,1,0,36662.1,-0.0572564,-0.0576456,-58.6362,19,0.00652625,10,0.00338012,-1.23183,2.65997,0.0221807,-50.744,-0.0576456,
2,0,0,1,0,36662.1,-0.0612544,-0.0615766,-58.4087,19,0.00629218,10,0.0035966,-1.23352,2.49614,0.0236365,-53.8774,-0.0615766,
2,0,0,1,0,36662.1,-0.0652967,-0.0656644,-58.2143,19,0.00605888,10,0.00382261,-1.23497,2.39447,0.0246401,-55.9545,-0.0656644,
2,0,0,1,0,36662.1,-0.0692919,-0.0696664,-57.9741,19,0.00582653,10,0.00403885,-1.23677,2.3965,0.0246193,-55.6896,-0.0696664,
2,0,0,1,0,36662.1,-0.0732871,-0.073644,-57.741,19,0.00559513,10,0.00425228,-1.23852,2.2857,0.0258127,-58.1746,-0.073644,
2,0,0,1,0,36662.1,-0.0772822,-0.0776173,-57.5154,19,0.00536464,10,0.00446419,-1.24022,2.31182,0.025521,-57.2856,-0.0776173,
2,0,0,1,0,36662.1,-0.0812774,-0.0816554,-57.2841,19,0.00513506,10,0.00467755,-1.24197,2.38844,0.0247023,-55.2386,-0.0816554,
2,0,0,1,0,36662.1,-0.0852726,-0.0856404,-57.059,19,0.00490641,10,0.00488655,-1.24368,2.5015,0.0235859,-52.5535,-0.0856404,
2,0,0,1,0,36662.1,-0.0892678,-0.089636,-56.8576,19,0.0046786,10,0.00509649,-1.24521,2.66123,0.0221702,-49.2235,-0.089636,
2,0,0,1,0,36662.1,-0.0932629,-0.0936358,-56.6735,19,0.00445157,10,0.00530667,-1.24662,2.91163,0.0202636,-44.8394,-0.0936358,
2,0,0,1,0,36662.2,-0.0972581,-0.0976081,-56.4988,19,0.00422524,10,0.00551474,-1.24796,3.40195,0.017343,-38.2755,-0.0976081,
2,0,0,1,0,36662.2,-0.101253,-0.101637,-56.3418,19,0.00399957,10,0.00572638,-1.24917,3.61246,0.0163324,-35.9399,-0.101637,
2,0,0,1,0,36662.2,-0.105298,-0.105679,-56.2436,19,0.00377443,10,0.00594376,-1.24993,4.24194,0.0139087,-30.535,-0.105679,
2,0,0,1,0,36662.2,-0.109294,-0.109656,-56.0978,19,0.00354977,10,0.00615148,-1.25105,4.81321,0.0122579,-26.8503,-0.109656,
2,0,0,1,0,36662.2,-0.113289,-0.113672,-56.0083,19,0.00332558,10,0.00636659,-1.25175,5.19511,0.0113568,-24.8403,-0.113672,
2,0,0,1,0,36662.2,-0.117284,-0.117645,-55.9119,19,0.00310175,10,0.00657773,-1.2525,6.56315,0.00898958,-19.626,-0.117645,
2,0,0,1,0,36662.2,-0.121279,-0.121668,-55.8464,19,0.00287824,10,0.00679471,-1.253,8.0633,0.0073171,-15.9576,-0.121668,
2,0,0,1,0,36662.2,-0.125274,-0.125632,-55.7842,19,0.00265499,10,0.00700826,-1.25349,12.6447,0.004666,-10.1667,-0.1256315,
2,0,0,1,0,36662.2,-0.129269,-0.129615,-55.7539,19,0.00243191,10,0.00722656,-1.25372,23.4269,0.00251847,-5.48474,-0.129615,
2,0,0,1,0,36662.2,-0.133265,-0.133622,-55.7495,19,0.00220892,10,0.00744934,-1.25376,1614.66,3.65402e-05,-0.0795501,-0.133622,
2,0,0,1,0,36662.2,-0.13726,-0.137613,-55.759,19,0.0019859,10,0.00767316,-1.25369,-20.3789,-0.00289516,6.30527,-0.137613,
2,0,0,1,0,36662.2,-0.141255,-0.141612,-55.783,19,0.00176281,10,0.00789953,-1.2535,-13.6628,-0.0043183,9.40816,-0.141612,
2,0,0,1,0,36662.2,-0.145286,-0.145615,-55.8548,19,0.00153958,10,0.00813328,-1.25294,-9.41844,-0.00626431,13.6584,-0.145615,
2,0,0,1,0,36662.2,-0.149295,-0.149677,-55.9006,19,0.00131604,10,0.00836704,-1.25258,-7.47031,-0.00789794,17.2366,-0.149677,
2,0,0,1,0,36662.2,-0.15329,-0.153617,-55.9776,19,0.00109227,10,0.00859909,-1.25199,-7.21069,-0.0081823,17.8817,-0.1536167,
2,0,0,1,0,36662.2,-0.157286,-0.157628,-56.059,19,0.000868195,10,0.00883648,-1.25135,-6.06023,-0.0097356,21.3038,-0.157628,
2,0,0,1,0,36662.2,-0.161281,-0.161609,-56.1408,19,0.000643777,10,0.00907285,-1.25072,-5.71159,-0.0103299,22.6398,-0.161609,
2,0,0,1,0,36662.2,-0.165276,-0.165615,-56.2401,19,0.000419015,10,0.00931421,-1.24995,-5.06881,-0.0116398,25.5582,-0.1656152,
2,0,0,1,0,36662.2,-0.169271,-0.169607,-56.3396,19,0.000193841,10,0.00955556,-1.24919,-4.65455,-0.0126758,27.883,-0.169607,
2,0,0,1,0,36662.2,-0.173266,-0.173584,-56.4668,19,-3.17885e-05,10,0.00980175,-1.24821,-4.49987,-0.0131115,28.8959,-0.173584,
2,0,0,1,0,36662.2,-0.177261,-0.177642,-56.5878,19,-0.000257901,10,0.0100524,-1.24728,-4.28329,-0.0137745,30.4172,-0.177642,
2,0,0,1,0,36662.2,-0.181257,-0.181573,-56.7012,19,-0.000484503,10,0.0102954,-1.24641,-4.0121,-0.0147055,32.5568,-0.181573,
2,0,0,1,0,36662.2,-0.185252,-0.185602,-56.8261,19,-0.000711572,10,0.010547,-1.24545,-3.94009,-0.0149743,33.225,-0.185602,
2,0,0,1,0,36662.2,-0.189297,-0.189649,-56.9899,19,-0.000939277,10,0.0108081,-1.2442,-3.83788,-0.0153731,34.183,-0.189649,
2,0,0,1,0,36662.2,-0.193292,-0.19365,-57.1197,19,-0.00116752,10,0.0110612,-1.24321,-3.84219,-0.0153558,34.2052,-0.19365,
2,0,0,1,0,36662.3,-0.197287,-0.197627,-57.25,19,-0.00139626,10,0.0113141,-1.24222,-92.8668,-0.000635319,1.41323,-0.197627,
2,0,0,0,0,36662.3,-0.199984,-0.200246,-57.327,19,-0.00155094,10,0.0114795,-1.24164,0.0662462,0.890617,-1869.64,-0.200246,
2,0,0,0,1,36662.3,-0.199984,-0.200475,-57.0052,19,-0.00158518,10,0.0114281,-1.24409,-0.0425879,-1.38537,2747.96,-0.200475,
2,0,0,1,1,36662.3,-0.196688,-0.197141,-50.593,19,-0.00174934,10,0.00997396,-1.29591,-0.0722959,-0.816091,1536.9,-0.197141,
2,0,0,1,1,36662.3,-0.192693,-0.193133,-44.9006,19,-0.00193939,10,0.00867178,-1.34775,-0.0775696,-0.760607,1357.77,-0.193133,
2,0,0,1,1,36662.3,-0.188698,-0.189099,-40.1952,19,-0.00210893,10,0.00760086,-1.39583,-0.0831998,-0.709137,1129.99,-0.189099,
2,0,0,1,1,36662.3,-0.184653,-0.185055,-36.0678,19,-0.00226094,10,0.00667452,-1.44288,-0.0851929,-0.692546,984.114,-0.185055,
2,0,0,1,1,36662.3,-0.180657,-0.181052,-32.412,19,-0.00239744,10,0.00586824,-1.48929,-0.0845475,-0.697833,887.137,-0.181052,
2,0,0,1,1,36662.3,-0.176662,-0.177042,-29.0656,19,-0.00252,10,0.00514583,-1.53662,-0.0826452,-0.713895,810.974,-0.177042,
2,0,0,1,1,36662.3,-0.172667,-0.173079,-25.9836,19,-0.00262972,10,0.00449723,-1.5853,-0.0794364,-0.742733,752.424,-0.1730794,
2,0,0,1,1,36662.3,-0.168672,-0.169072,-23.1065,19,-0.00272755,10,0.00390666,-1.63627,-0.0754327,-0.782154,702.606,-0.169072,
2,0,0,1,1,36662.3,-0.164677,-0.165118,-20.4231,19,-0.0028143,10,0.00337222,-1.68988,-0.0707124,-0.834366,659.973,-0.165118,
2,0,0,1,1,36662.3,-0.160682,-0.161112,-17.8727,19,-0.00289058,10,0.00287951,-1.74781,-0.0651843,-0.905125,624.15,-0.161112,
2,0,0,1,1,36662.3,-0.156686,-0.157132,-15.4588,19,-0.00295697,10,0.00242906,-1.81083,-0.0591833,-0.996903,591.637,-0.157132,
2,0,0,1,1,36662.3,-0.152691,-0.153136,-13.1602,19,-0.00301394,10,0.0020153,-1.88074,-0.0523879,-1.12621,563.826,-0.153136,
2,0,0,1,1,36662.3,-0.148696,-0.149131,-10.9648,19,-0.00306193,10,0.00163519,-1.96,-0.0450785,-1.30883,539.307,-0.149131,
2,0,0,1,1,36662.3,-0.14467,-0.145084,-8.83572,19,-0.00310135,10,0.00128192,-2.05376,-0.0372714,-1.58298,515.318,-0.145084,
2,0,0,1,1,36662.3,-0.140656,-0.141118,-6.82214,19,-0.0031324,10,0.000962725,-2.16608,-0.0285556,-2.06615,495.757,-0.141118,
2,0,0,1,1,36662.3,-0.136661,-0.137054,-4.87274,19,-0.00315557,10,0.00066783,-2.31223,-0.0184861,-3.19159,477.106,-0.137054,
2,0,0,1,1,36662.3,-0.132665,-0.133072,-3.00352,19,-0.00317112,10,0.000399685,-2.52237,-0.0144959,-4.07011,459.511,-0.133072,
2,0,0,1,1,36662.3,-0.12867,-0.129091,-1.20531,19,-0.00317933,10,0.000155594,-2.9189,-0.046582,-1.26658,446.084,-0.129091,
2,1,0,1,1,36662.3,-0.124675,-0.125104,0.536108,19,-0.00318048,10,-6.70695e-05,-3.27075,0.143836,0.410191,431.698,-0.125104,
2,1,0,1,1,36662.3,-0.12068,-0.121153,2.22036,19,-0.00317478,10,-0.000269004,-2.65358,0.0242804,2.42994,418.569,-0.121153,
2,1,0,1,1,36662.3,-0.116685,-0.117136,3.87641,19,-0.00316239,10,-0.000454065,-2.41157,0.0142645,4.13615,406.815,-0.1171355,
2,1,0,1,1,36662.3,-0.112689,-0.113135,5.47334,19,-0.00314353,10,-0.000619224,-2.26175,0.0272654,2.16392,395.936,-0.113135,
2,1,0,1,1,36662.3,-0.108694,-0.109172,7.01773,19,-0.00311837,10,-0.000766139,-2.1538,0.0387867,1.52114,384.872,-0.109172,
2,1,0,1,1,36662.3,-0.104699,-0.105214,8.53117,19,-0.00308712,10,-0.000897602,-2.06899,0.0496215,1.189,376.736,-0.105214,
2,1,0,1,1,36662.4,-0.100654,-0.101076,10.0574,19,-0.00304973,10,-0.00101656,-1.99751,0.0605792,0.973932,367.467,-0.101076,
2,1,0,1,1,36662.4,-0.0966588,-0.0971267,11.5041,19,-0.00300646,10,-0.00111735,-1.93915,0.0719005,0.820579,357.383,-0.0971267,
2,1,0,1,1,36662.4,-0.0926636,-0.0931279,12.9134,19,-0.00295747,10,-0.00120259,-1.88896,0.083364,0.707739,349.014,-0.0931279,
2,1,0,1,1,36662.4,-0.0886685,-0.0891302,14.2794,19,-0.00290293,10,-0.00127273,-1.84529,0.0954303,0.618252,338.907,-0.0891302,
2,1,0,1,1,36662.4,-0.0846733,-0.0851335,15.6214,19,-0.00284298,10,-0.00132991,-1.80628,0.106948,0.551671,331.932,-0.0851335,
2,1,0,1,1,36662.4,-0.0806781,-0.0810955,16.9372,19,-0.00277773,10,-0.00137353,-1.77116,0.11909,0.495425,323.721,-0.0810955,
2,1,0,1,1,36662.4,-0.076683,-0.0771242,18.2255,19,-0.00270726,10,-0.00140563,-1.73932,0.131627,0.448237,315.466,-0.0771242,
2,1,0,1,1,36662.4,-0.0726878,-0.073082,19.4746,19,-0.00263173,10,-0.00142324,-1.71053,0.143941,0.40989,308.684,-0.07308197,
2,1,0,1,1,36662.4,-0.0686926,-0.0690917,20.6821,19,-0.00255129,10,-0.00142896,-1.68441,0.156774,0.376337,301.908,-0.0690917,
2,1,0,1,1,36662.4,-0.0646974,-0.0651289,21.8658,19,-0.00246607,10,-0.0014241,-1.66023,0.169518,0.348046,295.419,-0.0651289,
2,1,0,1,1,36662.4,-0.0606523,-0.0610559,23.0767,19,-0.00237609,10,-0.00140897,-1.63683,0.183332,0.32182,287.754,-0.0610559,
2,1,0,1,1,36662.4,-0.0566571,-0.0571069,24.1939,19,-0.00228144,10,-0.00138164,-1.61629,0.198286,0.297549,279.181,-0.0571069,
2,1,0,1,1,36662.4,-0.052662,-0.0530626,25.2945,19,-0.00218235,10,-0.00134219,-1.59697,0.214217,0.275422,270.588,-0.0530626,
2,1,0,1,1,36662.4,-0.0486668,-0.0490415,26.3571,19,-0.00207895,10,-0.00129259,-1.5791,0.228579,0.258116,264.419,-0.04904148,
2,1,0,1,1,36662.4,-0.0446716,-0.0451,27.3941,19,-0.00197132,10,-0.00123547,-1.56234,0.243469,0.242331,258.198,-0.0451,
2,1,0,1,1,36662.4,-0.0406764,-0.041134,28.4174,19,-0.00185958,10,-0.00116892,-1.54642,0.259215,0.22761,251.557,-0.04113403,
2,1,0,1,1,36662.4,-0.0366813,-0.0371193,29.411,19,-0.00174383,10,-0.00109172,-1.53149,0.275834,0.213897,244.657,-0.0371193,
2,1,0,1,1,36662.4,-0.0326861,-0.0330633,30.3765,19,-0.00162413,10,-0.00100435,-1.51746,0.294411,0.2004,236.785,-0.0330633,
2,1,0,1,1,36662.4,-0.0286909,-0.0290963,31.3096,19,-0.00150065,10,-0.000910992,-1.50432,0.310412,0.19007,231.669,-0.0290963,
2,1,0,1,1,36662.4,-0.0246957,-0.0251049,32.2129,19,-0.0013735,10,-0.000808701,-1.49197,0.327834,0.179969,225.825,-0.0251049,
2,1,0,1,1,36662.4,-0.0206756,-0.021087,33.1252,19,-0.00124275,10,-0.000698512,-1.47984,0.348011,0.169535,218.56,-0.021087,
2,1,0,1,1,36662.4,-0.0166554,-0.0170363,33.9958,19,-0.00110838,10,-0.000579162,-1.46857,0.366933,0.160792,212.66,-0.0170363,
2,1,0,1,1,36662.4,-0.0126603,-0.0130417,34.8184,19,-0.000970665,10,-0.000454092,-1.45819,0.392251,0.150414,203.875,-0.0130417,
2,1,0,1,1,36662.4,-0.0086651,-0.00907368,35.6221,19,-0.000829689,10,-0.000323223,-1.44828,0.415221,0.142093,196.947,-0.00907368,
2,1,0,1,1,36662.4,-0.00466992,-0.00508761,36.3871,19,-0.000685589,10,-0.000185123,-1.43905, , , ,-0.00508761,
2,1,0,1,1,36662.5,-0.000974387,-0.00138149,37.079,19,-0.000549636,10,-5.12242e-05,-1.43087, , , ,-0.001381489,
2,1,0,0,1,36662.5,-0.000175352,-0.000630721,37.2134,19,-0.000519935,10,-2.34713e-05,-1.4293, , , ,-0.000630721,