File: Figure_codes/Fig_3-5/rawdata_trumpetplot_data/after 10th/20221101_1-115_003_TrumpetPlot_ParaChange_from10_every3_14_CV_C01_11.csv
mode,ox/red,error,control changes,counter inc.,time/s,control/V,Ewe/V,<I>/mA,cycle number,(Q-Qo)/C,I Range,P/W,log(|I|),Tafel slope mV/dec,alpha_eff,dI/d(E-IR),E-IR/V,
2,1,0,1,0,22870.5,2.44065e-05,-0.000229887,40.669,12,0.0000000E+000,10,-9.34927e-06,-1.39074, , , ,-0.000229887,
2,1,0,1,0,22870.5,0.00332042,0.00293012,42.1272,12,0.000128949,10,0.000123438,-1.37544, , , ,0.00293012,
2,1,0,1,0,22870.5,0.0073156,0.00697133,43.2697,12,0.000299928,10,0.000301648,-1.36382, , , ,0.00697133,
2,1,0,1,0,22870.6,0.0113108,0.0109479,44.2376,12,0.000475071,10,0.000484307,-1.35421,0.431862,0.136618,234.466,0.0109479,
2,1,0,1,0,22870.6,0.0153059,0.0149318,45.1002,12,0.00065385,10,0.000673427,-1.34582,0.486142,0.121364,212.907,0.0149318,
2,1,0,1,0,22870.6,0.0193011,0.0189232,45.877,12,0.000835907,10,0.000868139,-1.3384,0.545046,0.108248,193.365,0.0189232,
2,1,0,1,0,22870.6,0.0233462,0.0229644,46.6748,12,0.00102116,10,0.00107186,-1.33092,0.600107,0.0983159,178.494,0.0229644,
2,1,0,1,0,22870.6,0.0273414,0.026995,47.3406,12,0.00120925,10,0.00127796,-1.32477,0.651345,0.0905818,166.875,0.026995,
2,1,0,1,0,22870.6,0.0313366,0.0310033,47.9689,12,0.00139994,10,0.00148719,-1.31904,0.724217,0.0814673,152.232,0.0310033,
2,1,0,1,0,22870.6,0.0353317,0.0349894,48.5581,12,0.00159305,10,0.00169902,-1.31374,0.76987,0.0766363,145.028,0.0349894,
2,1,0,1,0,22870.6,0.0393269,0.0389426,49.1072,12,0.00178844,10,0.00191236,-1.30886,0.820175,0.0719359,137.736,0.0389426,
2,1,0,1,0,22870.6,0.0433221,0.0429753,49.6582,12,0.00198605,10,0.00213407,-1.30401,0.867466,0.0680142,131.653,0.04297531,
2,1,0,1,0,22870.6,0.0473173,0.0469836,50.1699,12,0.00218575,10,0.00235717,-1.29956,0.905388,0.0651655,127.463,0.0469836,
2,1,0,1,0,22870.6,0.0513124,0.050905,50.6534,12,0.00238745,10,0.00257851,-1.29539,0.94936,0.0621472,122.795,0.05090503,
2,1,0,1,0,22870.6,0.0553076,0.0549314,51.1452,12,0.0025911,10,0.00280948,-1.2912,0.943234,0.0625508,124.893,0.0549314,
2,1,0,1,0,22870.6,0.0593028,0.0588814,51.6113,12,0.00279665,10,0.00303895,-1.28725,0.960106,0.0614516,123.854,0.0588814,
2,1,0,1,0,22870.6,0.0633479,0.062964,52.1657,12,0.0030042,10,0.00328456,-1.28261,0.977396,0.0603645,122.793,0.06296397,
2,1,0,1,0,22870.6,0.0673431,0.0669903,52.6456,12,0.00321385,10,0.00352675,-1.27864,0.985022,0.0598971,122.944,0.0669903,
2,1,0,1,0,22870.6,0.0713382,0.0709563,53.1129,12,0.00342541,10,0.00376869,-1.2748,1.02411,0.0576111,119.418,0.07095626,
2,1,0,1,0,22870.6,0.0753334,0.0749731,53.5897,12,0.00363887,10,0.00401779,-1.27092,1.03488,0.0570116,119.234,0.0749731,
2,1,0,1,0,22870.6,0.0793286,0.078921,54.0713,12,0.00385422,10,0.00426736,-1.26703,1.02912,0.0573303,120.973,0.078921,
2,1,0,1,0,22870.6,0.0833238,0.0829017,54.5428,12,0.00407151,10,0.00452169,-1.26326,0.978655,0.0602868,128.476,0.0829017,
2,1,0,1,0,22870.6,0.0873189,0.0868422,55.0347,12,0.00429068,10,0.00477933,-1.25936,0.946193,0.0623551,134.184,0.0868422,
2,1,0,1,0,22870.6,0.0913141,0.0908824,55.6337,12,0.00451208,10,0.00505612,-1.25466,0.90534,0.0651689,141.582,0.0908824,
2,1,0,1,0,22870.6,0.0953093,0.0949501,56.2221,12,0.00473585,10,0.0053383,-1.25009,0.871466,0.067702,148.546,0.09495008,
2,1,0,1,0,22870.6,0.0993045,0.0989012,56.808,12,0.00496197,10,0.00561838,-1.24559,0.864697,0.068232,151.37,0.0989012,
2,1,0,1,0,22870.6,0.103319,0.102924,57.4236,12,0.00519047,10,0.00591029,-1.24091,0.863091,0.068359,153.248,0.102924,
2,1,0,1,0,22870.6,0.107345,0.106995,58.0727,12,0.00542157,10,0.0062135,-1.23603,0.853885,0.069096,156.548,0.106995,
2,1,0,1,0,22870.7,0.11134,0.110995,58.681,12,0.00565512,10,0.0065133,-1.2315,0.846393,0.0697076,159.675,0.110995,
2,1,0,1,0,22870.7,0.115335,0.114934,59.318,12,0.00589119,10,0.00681769,-1.22681,0.846385,0.0697083,161.473,0.1149345,
2,1,0,1,0,22870.7,0.11933,0.118951,59.9827,12,0.00612985,10,0.00713502,-1.22197,0.826885,0.0713521,167.093,0.118951,
2,1,0,1,0,22870.7,0.123325,0.122983,60.6543,12,0.00637118,10,0.00745944,-1.21714,0.811537,0.0727015,172.184,0.122983,
2,1,0,1,0,22870.7,0.127321,0.126963,61.3491,12,0.00661526,10,0.00778905,-1.21219,0.802121,0.0735549,176.209,0.126963,
2,1,0,1,0,22870.7,0.131316,0.130939,62.0738,12,0.00686217,10,0.00812789,-1.20709,0.782255,0.0754229,182.791,0.1309392,
2,1,0,1,0,22870.7,0.135311,0.134974,62.8061,12,0.00711199,10,0.00847719,-1.202,0.767619,0.0768611,188.507,0.134974,
2,1,0,1,0,22870.7,0.139306,0.138921,63.5676,12,0.0073648,10,0.00883086,-1.19676,0.739859,0.0797449,198.09,0.1389209,
2,1,0,1,0,22870.7,0.143301,0.142942,64.3613,12,0.00762072,10,0.00919993,-1.19138,0.724918,0.0813886,204.659,0.142942,
2,1,0,1,0,22870.7,0.147346,0.146984,65.2521,12,0.00788008,10,0.00959103,-1.18541,0.713574,0.0826824,210.527,0.1469842,
2,1,0,1,0,22870.7,0.151342,0.151003,66.0866,12,0.00814282,10,0.00997928,-1.17989,0.702035,0.0840414,216.734,0.151003,
2,1,0,1,0,22870.7,0.155337,0.154973,66.9471,12,0.00840896,10,0.010375,-1.17427,0.708238,0.0833054,217.744,0.154973,
2,1,0,1,0,22870.7,0.159332,0.158941,67.8289,12,0.0086786,10,0.0107808,-1.16859,0.709658,0.0831386,220.074,0.158941,
2,1,0,1,0,22870.7,0.163327,0.162942,68.7269,12,0.00895179,10,0.0111985,-1.16287,0.717177,0.082267,220.552,0.162942,
2,1,0,1,0,22870.7,0.167322,0.166958,69.5978,12,0.00922852,10,0.0116199,-1.1574,0.734903,0.0802827,217.928,0.166958,
2,1,0,1,0,22870.7,0.171317,0.170957,70.4723,12,0.00950877,10,0.0120477,-1.15198,0.766334,0.0769899,211.542,0.170957,
2,1,0,1,0,22870.7,0.175313,0.174915,71.3101,12,0.00979242,10,0.0124732,-1.14685,0.795275,0.0741882,206.239,0.174915,
2,1,0,1,0,22870.7,0.179308,0.178929,72.1088,12,0.0100794,10,0.0129023,-1.14201,0.830432,0.0710474,199.812,0.178929,
2,1,0,1,0,22870.7,0.183303,0.182924,72.8905,12,0.0103694,10,0.0133334,-1.13733,0.895443,0.0658892,187.207,0.182924,
2,1,0,1,0,22870.7,0.187348,0.186995,73.677,12,0.0106626,10,0.0137773,-1.13267,0.978589,0.0602909,172.917,0.186995,
2,1,0,1,0,22870.7,0.191343,0.190967,74.315,12,0.0109587,10,0.0141917,-1.12892,1.1098,0.0531627,153.779,0.1909667,
2,1,0,1,0,22870.7,0.195338,0.194994,74.8867,12,0.0112571,10,0.0146025,-1.1256,1.33724,0.0441207,128.625,0.194994,
2,1,0,1,0,22870.7,0.199334,0.198983,75.3602,12,0.0115577,10,0.0149954,-1.12286,1.65676,0.0356117,104.442,0.198983,
2,1,0,1,0,22870.7,0.203329,0.202975,75.7323,12,0.01186,10,0.0153717,-1.12072,2.355,0.0250531,73.7955,0.202975,
2,1,0,1,0,22870.7,0.207324,0.206985,75.988,12,0.0121634,10,0.0157284,-1.11925,4.34134,0.0135903,40.14,0.206985,
2,1,0,1,0,22870.8,0.211319,0.210989,76.0671,12,0.0124676,10,0.0160493,-1.1188,123.571,0.000477458,1.41138,0.2109893,
2,1,0,1,0,22870.8,0.215314,0.214979,76.0022,12,0.0127718,10,0.0163389,-1.11917,-4.41235,-0.0133716,-39.4896,0.214979,
2,1,0,1,0,22870.8,0.219309,0.218973,75.7549,12,0.0130753,10,0.0165883,-1.12059,-2.19115,-0.0269265,-79.2687,0.218973,
2,1,0,1,0,22870.8,0.223305,0.222948,75.3577,12,0.0133776,10,0.0168008,-1.12287,-1.44672,-0.0407818,-119.432,0.222948,
2,1,0,1,0,22870.8,0.227314,0.226955,74.8015,12,0.0136778,10,0.0169766,-1.12609,-1.06894,-0.0551948,-160.387,0.226955,
2,1,0,1,0,22870.8,0.231345,0.231035,74.0846,12,0.0139756,10,0.0171161,-1.13027,-0.839839,-0.0702516,-202.12,0.231035,
2,1,0,1,0,22870.8,0.23534,0.235062,73.1745,12,0.0142701,10,0.0172005,-1.13564,-0.689327,-0.0855907,-243.284,0.235062,
2,1,0,1,0,22870.8,0.239335,0.239026,72.1078,12,0.0145606,10,0.0172357,-1.14202,-0.58823,-0.100301,-281.102,0.239026,
2,1,0,1,0,22870.8,0.24333,0.243001,70.8978,12,0.0148465,10,0.0172282,-1.14937,-0.515573,-0.114436,-315.435,0.243001,
2,1,0,1,0,22870.8,0.247326,0.247039,69.5859,12,0.0151274,10,0.0171904,-1.15748,-0.464801,-0.126936,-343.443,0.247039,
2,1,0,1,0,22870.8,0.251321,0.251011,68.1435,12,0.0154027,10,0.0171048,-1.16658,-0.428822,-0.137586,-364.73,0.251011,
2,1,0,1,0,22870.8,0.255316,0.255006,66.6198,12,0.0156721,10,0.0169884,-1.1764,-0.39583,-0.149054,-386.544,0.255006,
2,1,0,1,0,22870.8,0.259311,0.259068,65.0375,12,0.0159353,10,0.0168492,-1.18684,-0.373914,-0.15779,-399.66,0.259068,
2,1,0,1,0,22870.8,0.263306,0.263019,63.4088,12,0.016192,10,0.0166777,-1.19785,-0.362189,-0.162898,-402.672,0.2630192,
2,1,0,1,0,22870.8,0.267302,0.266979,61.7618,12,0.0164422,10,0.0164891,-1.20928,-0.348673,-0.169213,-407.615,0.266979,
2,1,0,1,0,22870.8,0.271347,0.271028,60.1679,12,0.0166859,10,0.0163072,-1.22064,-0.342955,-0.172034,-403.582,0.271028,
2,1,0,1,0,22870.8,0.275342,0.275046,58.5246,12,0.0169231,10,0.016097,-1.23266,-0.338588,-0.174253,-397.925,0.275046,
2,1,0,1,0,22870.8,0.279337,0.279074,56.9295,12,0.0171538,10,0.0158875,-1.24466,-0.335711,-0.175746,-390.804,0.279074,
2,1,0,1,0,22870.8,0.283332,0.283013,55.3813,12,0.0173783,10,0.0156737,-1.25664,-0.336706,-0.175227,-379.162,0.283013,
2,1,0,1,0,22870.8,0.287327,0.287059,53.9033,12,0.0175967,10,0.0154734,-1.26838,-0.341189,-0.172925,-364.225,0.287059,
2,1,0,1,0,22870.8,0.291322,0.291002,52.4747,12,0.0178092,10,0.0152703,-1.28005,-0.348336,-0.169377,-347.729,0.291002,
2,1,0,1,0,22870.8,0.295318,0.29504,51.1141,12,0.0180163,10,0.0150807,-1.29146,-0.352047,-0.167591,-338.367,0.29504,
2,1,0,1,0,22870.8,0.299013,0.298712,49.9222,12,0.0182031,10,0.0149124,-1.30171,-0.135309,-0.436038,-837.432,0.298712,
2,1,0,0,0,22870.8,0.300012,0.299708,49.623,12,0.0182529,10,0.0148724,-1.30432,0.00358653,16.4504,28192.5,0.299708,
2,1,0,1,0,22870.8,0.298714,0.298632,46.0854,12,0.0183137,10,0.0137626,-1.33644,0.0390273,1.51176,2335,0.298632,
2,1,0,1,0,22870.8,0.294718,0.294555,37.4221,12,0.0184791,10,0.0110229,-1.42687,0.0445193,1.32527,1863.53,0.294555,
2,1,0,1,0,22870.9,0.290723,0.29051,30.7699,12,0.0186144,10,0.00893897,-1.51187,0.045337,1.30137,1598.85,0.29051,
2,1,0,1,0,22870.9,0.286728,0.286592,25.1805,12,0.0187255,10,0.00721652,-1.59894,0.0437873,1.34742,1330.31,0.286592,
2,1,0,1,0,22870.9,0.282733,0.282533,20.3453,12,0.0188159,10,0.00574821,-1.69154,0.0404329,1.45921,1150.38,0.282533,
2,1,0,1,0,22870.9,0.278738,0.278547,16.1267,12,0.0188883,10,0.00449204,-1.79245,0.0361394,1.63257,1004.44,0.278547,
2,1,0,1,0,22870.9,0.274742,0.274527,12.3828,12,0.0189448,10,0.0033994,-1.90718,0.0304309,1.93882,890.254,0.274527,
2,1,0,1,0,22870.9,0.270747,0.270535,9.05243,12,0.0189873,10,0.002449,-2.04323,0.023528,2.50765,795.421,0.270535,
2,1,0,1,0,22870.9,0.266702,0.266444,6.02248,12,0.019017,10,0.00160466,-2.22022,0.0143492,4.11171,712.332,0.266444,
2,1,0,1,0,22870.9,0.262707,0.262481,3.34726,12,0.0190354,10,0.000878591,-2.47531,0.0186237,3.16801,639.907,0.2624805,
2,1,0,1,0,22870.9,0.258712,0.258464,0.940553,12,0.0190437,10,0.000243099,-3.02662,0.0592236,0.996224,578.31,0.258464,
2,0,0,1,0,22870.9,0.254717,0.254452,-1.2393,12,0.0190428,10,-0.000315344,-2.90682,-0.0899124,-0.656194,522.806,0.254452,
2,0,0,1,0,22870.9,0.250722,0.250441,-3.23259,12,0.0190336,10,-0.000809573,-2.49045,-0.0187734,-3.14275,477.755,0.250441,
2,0,0,1,0,22870.9,0.246726,0.246417,-5.05058,12,0.0190168,10,-0.00124455,-2.29666,-0.0194228,-3.03767,437.881,0.246417,
2,0,0,1,0,22870.9,0.242731,0.242435,-6.71741,12,0.0189931,10,-0.00162853,-2.1728,-0.0337186,-1.74978,400.251,0.242435,
2,0,0,1,0,22870.9,0.238736,0.238478,-8.23399,12,0.018963,10,-0.00196363,-2.08439,-0.0475752,-1.24014,368.858,0.238478,
2,0,0,1,0,22870.9,0.234741,0.234453,-9.63171,12,0.0189271,10,-0.00225818,-2.0163,-0.0616646,-0.956789,343.338,0.2344529,
2,0,0,1,0,22870.9,0.230746,0.23044,-10.9439,12,0.0188858,10,-0.00252191,-1.96083,-0.0768523,-0.767707,316.669,0.23044,
2,0,0,1,0,22870.9,0.226701,0.226416,-12.2172,12,0.0188394,10,-0.00276617,-1.91303,-0.0923675,-0.638753,295.053,0.226416,
2,0,0,1,0,22870.9,0.222705,0.222451,-13.3092,12,0.0187882,10,-0.00296066,-1.87585,-0.109497,-0.538829,273.581,0.222451,
2,0,0,1,0,22870.9,0.21871,0.21845,-14.3533,12,0.0187328,10,-0.00313549,-1.84305,-0.12916,-0.456797,252.008,0.21845,
2,0,0,1,0,22870.9,0.214715,0.214442,-15.3207,12,0.0186733,10,-0.00328541,-1.81472,-0.146241,-0.403444,238.342,0.214442,
2,0,0,1,0,22870.9,0.21072,0.210429,-16.2459,12,0.0186101,10,-0.00341862,-1.78925,-0.164717,-0.35819,224.887,0.2104294,
2,0,0,1,0,22870.9,0.206725,0.206438,-17.1259,12,0.0185433,10,-0.00353543,-1.76635,-0.1836,-0.321351,212.814,0.206438,
2,0,0,1,0,22870.9,0.202729,0.202431,-17.9559,12,0.018473,10,-0.00363483,-1.74579,-0.202079,-0.291965,203.021,0.202431,
2,0,0,1,0,22870.9,0.198734,0.198415,-18.7315,12,0.0183995,10,-0.00371661,-1.72743,-0.221208,-0.266718,193.95,0.198415,
2,0,0,1,0,22870.9,0.194739,0.194464,-19.4873,12,0.018323,10,-0.00378957,-1.71025,-0.238234,-0.247656,187.668,0.194464,
2,0,0,1,0,22871,0.190744,0.190458,-20.2252,12,0.0182435,10,-0.00385205,-1.69411,-0.251823,-0.234291,184.423,0.190458,
2,0,0,1,0,22871,0.186735,0.18645,-20.9549,12,0.0181611,10,-0.00390705,-1.67871,-0.269786,-0.218692,178.248,0.18645,
2,0,0,1,0,22871,0.182704,0.182431,-21.6792,12,0.0180757,10,-0.00395497,-1.66396,-0.286161,-0.206177,173.711,0.182431,
2,0,0,1,0,22871,0.178709,0.178419,-22.3473,12,0.0179875,10,-0.00398717,-1.65078,-0.301092,-0.195954,170.489,0.1784189,
2,0,0,1,0,22871,0.174713,0.174417,-23.0117,12,0.0178968,10,-0.00401363,-1.63805,-0.313187,-0.188386,169.156,0.174417,
2,0,0,1,0,22871,0.170718,0.17042,-23.6879,12,0.0178033,10,-0.00403689,-1.62547,-0.318391,-0.185307,171.347,0.17042,
2,0,0,1,0,22871,0.166723,0.166409,-24.3896,12,0.0177071,10,-0.00405864,-1.6128,-0.320167,-0.184279,175.364,0.166409,
2,0,0,1,0,22871,0.162728,0.1624,-25.092,12,0.0176081,10,-0.00407495,-1.60046,-0.31989,-0.184438,180.718,0.1624,
2,0,0,1,0,22871,0.158733,0.158463,-25.8094,12,0.0175062,10,-0.00408984,-1.58822,-0.316994,-0.186123,187.865,0.158463,
2,0,0,1,0,22871,0.154737,0.154412,-26.5808,12,0.0174014,10,-0.0041044,-1.57543,-0.306896,-0.192247,199.98,0.154412,
2,0,0,1,0,22871,0.150742,0.15041,-27.3951,12,0.0172934,10,-0.00412051,-1.56233,-0.291478,-0.202417,217.394,0.1504104,
2,0,0,1,0,22871,0.146747,0.146461,-28.2795,12,0.0171819,10,-0.00414185,-1.54853,-0.282159,-0.209102,231.756,0.146461,
2,0,0,1,0,22871,0.142702,0.142393,-29.303,12,0.0170667,10,-0.00417254,-1.53309,-0.267944,-0.220195,252.384,0.142393,
2,0,0,1,0,22871,0.138707,0.138368,-30.2991,12,0.0169474,10,-0.00419243,-1.51857,-0.256249,-0.230245,273.343,0.138368,
2,0,0,1,0,22871,0.134712,0.1344,-31.4358,12,0.0168238,10,-0.00422498,-1.50258,-0.245626,-0.240203,296.298,0.1344,
2,0,0,1,0,22871,0.130717,0.130416,-32.6652,12,0.0166955,10,-0.00426009,-1.48591,-0.23123,-0.255157,326.924,0.130416,
2,0,0,1,0,22871,0.126721,0.126442,-34.0292,12,0.016562,10,-0.00430272,-1.46815,-0.222853,-0.264748,353.038,0.126442,
2,0,0,1,0,22871,0.122726,0.122463,-35.4988,12,0.0164229,10,-0.0043473,-1.44979,-0.215978,-0.273176,379.614,0.122463,
2,0,0,1,0,22871,0.118731,0.118484,-37.055,12,0.0162776,10,-0.00439041,-1.43115,-0.212991,-0.277006,401.499,0.118484,
2,0,0,1,0,22871,0.114736,0.114466,-38.7203,12,0.0161259,10,-0.00443215,-1.41206,-0.212707,-0.277377,419.478,0.114466,
2,0,0,1,0,22871,0.110741,0.110492,-40.4329,12,0.0159675,10,-0.00446753,-1.39326,-0.212941,-0.277072,437.468,0.110492,
2,0,0,1,0,22871,0.106745,0.106501,-42.1946,12,0.0158021,10,-0.00449377,-1.37474,-0.218408,-0.270137,444.72,0.106501,
2,0,0,1,0,22871,0.102703,0.10247,-44.0602,12,0.0156294,10,-0.00451487,-1.35595,-0.226065,-0.260987,447.353,0.10247,
2,0,0,1,0,22871,0.0987052,0.098442,-45.8464,12,0.0154494,10,-0.00451322,-1.33869,-0.236512,-0.249459,444.645,0.098442,
2,0,0,1,0,22871,0.09471,0.0944644,-47.6031,12,0.0152623,10,-0.0044968,-1.32236,-0.252148,-0.233989,433.31,0.0944644,
2,0,0,1,0,22871.1,0.0907148,0.0904412,-49.3356,12,0.0150683,10,-0.00446197,-1.30684,-0.265658,-0.22209,426.191,0.09044122,
2,0,0,1,0,22871.1,0.0867197,0.0864318,-51.0099,12,0.0148674,10,-0.00440888,-1.29235,-0.28567,-0.206532,409.504,0.0864318,
2,0,0,1,0,22871.1,0.0827245,0.0824712,-52.653,12,0.0146599,10,-0.00434236,-1.27858,-0.309058,-0.190903,390.244,0.0824712,
2,0,0,1,0,22871.1,0.0787293,0.078483,-54.1476,12,0.0144461,10,-0.00424967,-1.26642,-0.328929,-0.17937,377.728,0.078483,
2,0,0,1,0,22871.1,0.0747341,0.0745277,-55.5457,12,0.0142266,10,-0.0041397,-1.25535,-0.357635,-0.164973,356.966,0.0745277,
2,0,0,1,0,22871.1,0.070739,0.0705204,-57.0201,12,0.0140014,10,-0.00402108,-1.24397,-0.385026,-0.153236,339.806,0.0705204,
2,0,0,1,0,22871.1,0.0667438,0.0665651,-58.331,12,0.0137705,10,-0.00388281,-1.2341,-0.412231,-0.143124,324.571,0.0665651,
2,0,0,1,0,22871.1,0.0627403,0.0624953,-59.5803,12,0.0135346,10,-0.00372349,-1.2249,-0.463794,-0.127212,294.633,0.06249528,
2,0,0,1,0,22871.1,0.0587035,0.0585007,-60.7476,12,0.0132937,10,-0.00355378,-1.21647,-0.518135,-0.11387,268.685,0.0585007,
2,0,0,1,0,22871.1,0.0547083,0.054521,-61.7341,12,0.0130486,10,-0.0033658,-1.20948,-0.580861,-0.101573,243.822,0.054521,
2,0,0,1,0,22871.1,0.0507132,0.0505233,-62.6412,12,0.0127997,10,-0.00316484,-1.20314,-0.659738,-0.0894294,218.045,0.0505233,
2,0,0,1,0,22871.1,0.046718,0.0465171,-63.4762,12,0.0125474,10,-0.00295272,-1.19739,-0.737038,-0.0800502,197.788,0.0465171,
2,0,0,1,0,22871.1,0.0427228,0.042513,-64.2337,12,0.0122919,10,-0.00273076,-1.19224,-0.838182,-0.0703905,175.945,0.042513,
2,0,0,1,0,22871.1,0.0387276,0.0384495,-64.9128,12,0.0120335,10,-0.00249587,-1.18767,-0.965046,-0.061137,154.389,0.0384495,
2,0,0,1,0,22871.1,0.0347325,0.0344253,-65.4735,12,0.0117726,10,-0.00225394,-1.18393,-1.12147,-0.0526093,134.08,0.0344253,
2,0,0,1,0,22871.1,0.0307373,0.0304742,-65.953,12,0.0115097,10,-0.00200986,-1.18077,-1.3278,-0.0444343,114.141,0.0304742,
2,0,0,1,0,22871.1,0.0267421,0.0264669,-66.3851,12,0.0112449,10,-0.00175701,-1.17793,-1.5144,-0.0389594,100.773,0.0264669,
2,0,0,1,0,22871.1,0.022747,0.0224755,-66.7361,12,0.0109787,10,-0.00149993,-1.17564,-1.81686,-0.0324736,84.4424,0.0224755,
2,0,0,1,0,22871.1,0.0187018,0.0183919,-67.0893,12,0.0107109,10,-0.0012339,-1.17335,-2.27153,-0.0259737,67.8434,0.0183919,
2,0,0,1,0,22871.1,0.0147067,0.0143984,-67.3105,12,0.0104421,10,-0.000969165,-1.17192,-2.80914,-0.0210028,55.064,0.0143984,
2,0,0,1,0,22871.1,0.0107115,0.0104081,-67.4746,12,0.0101725,10,-0.000702283,-1.17086,-3.8328,-0.0153934,40.4984,0.0104081,
2,0,0,1,0,22871.1,0.00671632,0.00639553,-67.6215,12,0.00990229,10,-0.000432476,-1.16992,-5.15103,-0.011454,30.1966,0.00639553,
2,0,0,1,0,22871.1,0.00272115,0.00241901,-67.7362,12,0.00963158,10,-0.000163854,-1.16918,-7.98405,-0.00738974,19.5047,0.00241901,
2,0,0,1,0,22871.1,-0.00127403,-0.00159887,-67.7935,12,0.00936044,10,0.000108393,-1.16881,-22.1282,-0.00266628,7.04231,-0.00159887,
2,0,0,1,0,22871.1,-0.0052692,-0.00564114,-67.7876,12,0.00908927,10,0.0003824,-1.16885,30.9115,0.00190868,-5.04264,-0.00564114,
2,0,0,1,0,22871.2,-0.00926438,-0.0095954,-67.7341,12,0.00881823,10,0.000649936,-1.16919,9.39871,0.00627746,-16.5762,-0.0095954,
2,0,0,1,0,22871.2,-0.0132596,-0.0135995,-67.6554,12,0.00854744,10,0.000920079,-1.1697,6.2482,0.00944272,-24.9076,-0.0135995,
2,0,0,1,0,22871.2,-0.0172547,-0.0176142,-67.5281,12,0.0082771,10,0.00118945,-1.17052,4.28741,0.0137612,-36.2207,-0.0176142,
2,0,0,1,0,22871.2,-0.0212915,-0.0216363,-67.3892,12,0.00800732,10,0.00145806,-1.17141,3.16348,0.0186503,-48.9571,-0.0216363,
2,0,0,1,0,22871.2,-0.025295,-0.02565,-67.1526,12,0.00773823,10,0.00172246,-1.17294,2.52472,0.0233689,-61.1395,-0.02565,
2,0,0,1,0,22871.2,-0.0292902,-0.0296636,-66.8689,12,0.00747022,10,0.00198357,-1.17478,2.07412,0.0284457,-74.152,-0.0296636,
2,0,0,1,0,22871.2,-0.0332854,-0.0336157,-66.5497,12,0.00720339,10,0.00223712,-1.17685,1.80147,0.0327511,-84.9634,-0.0336157,
2,0,0,1,0,22871.2,-0.0372805,-0.0376241,-66.2037,12,0.00693793,10,0.00249085,-1.17912,1.63159,0.036161,-93.3113,-0.0376241,
2,0,0,1,0,22871.2,-0.0412757,-0.0416038,-65.7971,12,0.00667395,10,0.00273741,-1.18179,1.50574,0.0391833,-100.531,-0.0416038,
2,0,0,1,0,22871.2,-0.0452709,-0.0456651,-65.3758,12,0.00641163,10,0.0029854,-1.18458,1.39899,0.0421734,-107.544,-0.0456651,
2,0,0,1,0,22871.2,-0.0492661,-0.049648,-64.938,12,0.00615106,10,0.00322404,-1.1875,1.36178,0.0433255,-109.764,-0.049648,
2,0,0,1,0,22871.2,-0.0532612,-0.0536055,-64.485,12,0.00589225,10,0.00345675,-1.19054,1.31627,0.0448236,-112.784,-0.0536055,
2,0,0,1,0,22871.2,-0.0572564,-0.0575841,-64.0431,12,0.00563526,10,0.00368786,-1.19353,1.34792,0.0437711,-109.427,-0.0575841,
2,0,0,1,0,22871.2,-0.0612544,-0.061602,-63.5784,12,0.00538007,10,0.00391656,-1.19669,1.35315,0.0436018,-108.246,-0.061602,
2,0,0,1,0,22871.2,-0.0652967,-0.0656612,-63.1857,12,0.00512648,10,0.00414885,-1.19938,1.37105,0.0430329,-106.117,-0.0656612,
2,0,0,1,0,22871.2,-0.0692919,-0.0696537,-62.7479,12,0.00487466,10,0.00437062,-1.2024,1.4334,0.041161,-100.824,-0.0696537,
2,0,0,1,0,22871.2,-0.0732871,-0.0736663,-62.3365,12,0.00462453,10,0.0045921,-1.20526,1.43968,0.0409812,-99.7782,-0.0736663,
2,0,0,1,0,22871.2,-0.0772822,-0.0776799,-61.9573,12,0.00437598,10,0.00481284,-1.20791,1.53988,0.0383147,-92.7139,-0.0776799,
2,0,0,1,0,22871.2,-0.0812774,-0.0816225,-61.5931,12,0.00412892,10,0.00502739,-1.21047,1.65623,0.0356231,-85.7111,-0.0816225,
2,0,0,1,0,22871.2,-0.0852726,-0.0856488,-61.2649,12,0.00388324,10,0.00524727,-1.21279,1.80638,0.032662,-78.1811,-0.08564885,
2,0,0,1,0,22871.2,-0.0892677,-0.0895967,-60.9711,12,0.00363882,10,0.00546281,-1.21488,2.03622,0.0289753,-69.0244,-0.0895967,
2,0,0,1,0,22871.2,-0.0932629,-0.0935913,-60.7134,12,0.00339551,10,0.00568224,-1.21672,2.31668,0.0254675,-60.4126,-0.09359131,
2,0,0,1,0,22871.2,-0.0972581,-0.0976134,-60.4894,12,0.00315313,10,0.00590458,-1.21832,2.90006,0.0203444,-48.103,-0.0976134,
2,0,0,1,0,22871.2,-0.101253,-0.101581,-60.3024,12,0.00291158,10,0.0061256,-1.21967,3.41785,0.0172623,-40.6817,-0.101581,
2,0,0,1,0,22871.2,-0.105298,-0.105626,-60.2,12,0.00267061,10,0.00635868,-1.2204,4.30817,0.0136949,-32.1916,-0.105626,
2,0,0,1,0,22871.3,-0.109294,-0.109656,-60.0598,12,0.00243012,10,0.00658595,-1.22142,5.56057,0.0106104,-24.888,-0.109656,
2,0,0,1,0,22871.3,-0.113289,-0.113648,-59.9732,12,0.00219009,10,0.00681583,-1.22204,6.67352,0.00884092,-20.7136,-0.113648,
2,0,0,1,0,22871.3,-0.117284,-0.117611,-59.9034,12,0.00195036,10,0.00704528,-1.22255,10.7758,0.00547525,-12.8118,-0.117611,
2,0,0,1,0,22871.3,-0.121279,-0.121687,-59.8673,12,0.00171081,10,0.00728506,-1.22281,22.5227,0.00261958,-6.12629,-0.121687,
2,0,0,1,0,22871.3,-0.125274,-0.125647,-59.8549,12,0.00147139,10,0.00752062,-1.2229,-86.3162,-0.000683533,1.59833,-0.125647,
2,0,0,1,0,22871.3,-0.129269,-0.129619,-59.8754,12,0.00123192,10,0.00776096,-1.22275,-17.0933,-0.00345164,8.07317,-0.129619,
2,0,0,1,0,22871.3,-0.133265,-0.133614,-59.929,12,0.000992318,10,0.00800737,-1.22236,-9.81253,-0.00601272,14.0717,-0.133614,
2,0,0,1,0,22871.3,-0.13726,-0.137601,-59.9958,12,0.000752478,10,0.00825551,-1.22188,-6.10767,-0.00965998,22.6413,-0.137601,
2,0,0,1,0,22871.3,-0.141255,-0.141593,-60.0793,12,0.000512315,10,0.0085068,-1.22127,-5.06652,-0.0116451,27.3354,-0.141593,
2,0,0,1,0,22871.3,-0.145286,-0.145657,-60.2385,12,0.000271716,10,0.00877418,-1.22013,-4.36371,-0.0135206,31.7921,-0.145657,
2,0,0,1,0,22871.3,-0.149295,-0.149644,-60.3672,12,3.04796e-05,10,0.00903361,-1.2192,-3.83443,-0.0153869,36.2523,-0.149644,
2,0,0,1,0,22871.3,-0.15329,-0.153628,-60.5054,12,-0.000211278,10,0.00929534,-1.21821,-3.85186,-0.0153173,36.1821,-0.153628,
2,0,0,1,0,22871.3,-0.157286,-0.157643,-60.6612,12,-0.000453605,10,0.00956281,-1.21709,-3.57932,-0.0164836,39.0345,-0.157643,
2,0,0,1,0,22871.3,-0.161281,-0.161622,-60.8161,12,-0.000696575,10,0.00982921,-1.21598,-3.42398,-0.0172314,40.9084,-0.161622,
2,0,0,1,0,22871.3,-0.165276,-0.16561,-60.9904,12,-0.000940197,10,0.0101006,-1.21474,-3.23647,-0.0182297,43.4027,-0.1656099,
2,0,0,1,0,22871.3,-0.169271,-0.1696,-61.1587,12,-0.0011845,10,0.0103725,-1.21354,-3.03858,-0.019417,46.365,-0.1696,
2,0,0,1,0,22871.3,-0.173266,-0.173561,-61.3521,12,-0.00142955,10,0.0106483,-1.21217,-3.02141,-0.0195273,46.7643,-0.173561,
2,0,0,1,0,22871.3,-0.177261,-0.177565,-61.5553,12,-0.00167537,10,0.0109301,-1.21073,-2.87946,-0.02049,49.2195,-0.177565,
2,0,0,1,0,22871.3,-0.181257,-0.181592,-61.7378,12,-0.00192198,10,0.0112111,-1.20945,-2.68929,-0.0219388,52.8941,-0.181592,
2,0,0,1,0,22871.3,-0.185252,-0.185559,-61.9442,12,-0.00216937,10,0.0114943,-1.208,-2.68788,-0.0219504,53.0962,-0.185559,
2,0,0,1,0,22871.3,-0.189297,-0.189681,-62.2047,12,-0.00241776,10,0.0117991,-1.20618,-2.55214,-0.0231178,56.105,-0.189681,
2,0,0,1,0,22871.3,-0.193292,-0.193626,-62.4081,12,-0.00266702,10,0.0120838,-1.20476,-2.55828,-0.0230624,56.1222,-0.193626,
2,0,0,1,0,22871.3,-0.197287,-0.197598,-62.6358,12,-0.00291713,10,0.0123767,-1.20318,-7.57949,-0.00778417,18.9285,-0.197598,
2,0,0,0,0,22871.3,-0.199984,-0.200208,-62.7663,12,-0.00308642,10,0.0125663,-1.20227,0.0595059,0.991498,-2256.53,-0.200208,
2,0,0,0,1,22871.3,-0.199984,-0.200551,-62.4105,12,-0.00312391,10,0.0125165,-1.20474,-0.0362736,-1.62653,3464.84,-0.200551,
2,0,0,1,1,22871.3,-0.196688,-0.197172,-54.4064,12,-0.00330179,10,0.0107274,-1.26435,-0.061233,-0.963533,1930.34,-0.197172,
2,0,0,1,1,22871.3,-0.192693,-0.193158,-47.2522,12,-0.00350395,10,0.00912715,-1.32558,-0.0655425,-0.900179,1691.42,-0.193158,
2,0,0,1,1,22871.4,-0.188698,-0.18913,-41.382,12,-0.00368039,10,0.00782656,-1.38319,-0.0685184,-0.861083,1413.12,-0.18913,
2,0,0,1,1,22871.4,-0.184653,-0.185079,-36.2403,12,-0.00383495,10,0.00670732,-1.44081,-0.0689327,-0.855908,1221.47,-0.185079,
2,0,0,1,1,22871.4,-0.180657,-0.18112,-31.7239,12,-0.0039703,10,0.00574584,-1.49861,-0.0671026,-0.87925,1091.93,-0.18112,
2,0,0,1,1,22871.4,-0.176662,-0.177093,-27.629,12,-0.00408849,10,0.00489291,-1.55863,-0.0640675,-0.920904,990.371,-0.177093,
2,0,0,1,1,22871.4,-0.172667,-0.173084,-23.8607,12,-0.00419101,10,0.0041299,-1.62232,-0.0598972,-0.985022,910.566,-0.173084,
2,0,0,1,1,22871.4,-0.168672,-0.169069,-20.3844,12,-0.0042791,10,0.00344637,-1.6907,-0.0545864,-1.08086,847.854,-0.169069,
2,0,0,1,1,22871.4,-0.164677,-0.165101,-17.137,12,-0.00435378,10,0.00282934,-1.76606,-0.0485768,-1.21457,793.571,-0.165101,
2,0,0,1,1,22871.4,-0.160682,-0.161114,-14.081,12,-0.00441587,10,0.00226864,-1.85137,-0.0418909,-1.40842,745.772,-0.161114,
2,0,0,1,1,22871.4,-0.156686,-0.157133,-11.2027,12,-0.00446611,10,0.00176032,-1.95068,-0.0344449,-1.71288,703.761,-0.157133,
2,0,0,1,1,22871.4,-0.152691,-0.153096,-8.47229,12,-0.00450515,10,0.00129707,-2.072,-0.0258472,-2.28265,668.291,-0.153096,
2,0,0,1,1,22871.4,-0.148696,-0.149113,-5.88545,12,-0.00453359,10,0.000877597,-2.23022,-0.0153997,-3.83123,634.84,-0.149113,
2,0,0,1,1,22871.4,-0.14467,-0.145106,-3.38301,12,-0.00455191,10,0.000490895,-2.4707,-0.0190979,-3.08935,607.728,-0.145106,
2,0,0,1,1,22871.4,-0.140656,-0.141089,-1.0174,12,-0.00456041,10,0.000143544,-2.99251,-0.0667726,-0.883596,578.018,-0.141089,
2,1,0,1,1,22871.4,-0.136661,-0.137123,1.23489,12,-0.00455974,10,-0.000169333,-2.90837,0.0770491,0.765746,552.91,-0.137123,
2,1,0,1,1,22871.4,-0.132665,-0.133074,3.38518,12,-0.00455027,10,-0.000450481,-2.47042,0.018407,3.2053,532.163,-0.133074,
2,1,0,1,1,22871.4,-0.12867,-0.129122,5.45444,12,-0.00453235,10,-0.00070429,-2.26325,0.0181436,3.25184,509.692,-0.129122,
2,1,0,1,1,22871.4,-0.124675,-0.125167,7.45571,12,-0.00450631,10,-0.000933209,-2.12751,0.0304293,1.93892,495.642,-0.125167,
2,1,0,1,1,22871.4,-0.12068,-0.121149,9.3767,12,-0.00447244,10,-0.00113598,-2.02795,0.0420781,1.40215,477.034,-0.121149,
2,1,0,1,1,22871.4,-0.116685,-0.117199,11.2537,12,-0.00443098,10,-0.00131892,-1.94871,0.0535501,1.10177,460.972,-0.117199,
2,1,0,1,1,22871.4,-0.112689,-0.113142,13.0776,12,-0.00438213,10,-0.00147963,-1.88347,0.064929,0.908685,447.553,-0.113142,
2,1,0,1,1,22871.4,-0.108694,-0.109186,14.8227,12,-0.00432613,10,-0.00161842,-1.82907,0.0767334,0.768896,433.982,-0.109186,
2,1,0,1,1,22871.4,-0.104699,-0.10515,16.5373,12,-0.00426322,10,-0.00173889,-1.78154,0.0887786,0.664574,420.782,-0.10515,
2,1,0,1,1,22871.4,-0.100654,-0.101124,18.2298,12,-0.00419345,10,-0.00184348,-1.73922,0.101157,0.583252,407.588,-0.101124,
2,1,0,1,1,22871.4,-0.0966588,-0.0970758,19.838,12,-0.00411713,10,-0.00192579,-1.7025,0.113942,0.517807,394.721,-0.09707579,
2,1,0,1,1,22871.4,-0.0926637,-0.0930728,21.3901,12,-0.00403451,10,-0.00199084,-1.66979,0.127919,0.461228,380.428,-0.0930728,
2,1,0,1,1,22871.5,-0.0886685,-0.0891079,22.8693,12,-0.00394583,10,-0.00203784,-1.64075,0.141307,0.417531,369.314,-0.0891079,
2,1,0,1,1,22871.5,-0.0846733,-0.0850826,24.3326,12,-0.00385127,10,-0.00207028,-1.61381,0.15509,0.380423,358.388,-0.0850826,
2,1,0,1,1,22871.5,-0.0806781,-0.0810753,25.7472,12,-0.00375097,10,-0.00208746,-1.58927,0.168763,0.349602,348.81,-0.0810753,
2,1,0,1,1,22871.5,-0.076683,-0.0771009,27.1142,12,-0.00364509,10,-0.00209053,-1.5668,0.183217,0.322023,338.613,-0.0771009,
2,1,0,1,1,22871.5,-0.0726878,-0.073065,28.4653,12,-0.0035338,10,-0.00207981,-1.54568,0.197997,0.297984,328.988,-0.073065,
2,1,0,1,1,22871.5,-0.0686926,-0.0691288,29.7347,12,-0.00341727,10,-0.00205553,-1.52674,0.211537,0.278911,322.489,-0.0691288,
2,1,0,1,1,22871.5,-0.0646974,-0.0651279,30.9937,12,-0.00329567,10,-0.00201855,-1.50873,0.228286,0.258447,311.59,-0.0651279,
2,1,0,1,1,22871.5,-0.0606523,-0.0610506,32.2903,12,-0.00316903,10,-0.00197134,-1.49093,0.244074,0.24173,302.86,-0.0610506,
2,1,0,1,1,22871.5,-0.0566571,-0.0570571,33.4532,12,-0.00303743,10,-0.00190874,-1.47556,0.262246,0.22498,292.272,-0.0570571,
2,1,0,1,1,22871.5,-0.052662,-0.0530838,34.5941,12,-0.0029012,10,-0.00183639,-1.461,0.283748,0.207931,279.763,-0.0530838,
2,1,0,1,1,22871.5,-0.0486668,-0.0490542,35.6916,12,-0.00276053,10,-0.00175082,-1.44743,0.301561,0.195649,271.692,-0.0490542,
2,1,0,1,1,22871.5,-0.0446716,-0.0450862,36.7565,12,-0.00261549,10,-0.00165721,-1.43467,0.320611,0.184023,263.262,-0.0450862,
2,1,0,1,1,22871.5,-0.0406764,-0.0410566,37.8004,12,-0.00246627,10,-0.00155196,-1.4225,0.340334,0.173359,255.031,-0.0410566,
2,1,0,1,1,22871.5,-0.0366813,-0.0371108,38.7992,12,-0.00231295,10,-0.00143987,-1.41118,0.361111,0.163385,246.722,-0.0371108,
2,1,0,1,1,22871.5,-0.0326861,-0.0330558,39.7716,12,-0.00215568,10,-0.00131469,-1.40043,0.385692,0.152972,236.791,-0.0330558,
2,1,0,1,1,22871.5,-0.0286909,-0.0291175,40.6964,12,-0.00199466,10,-0.00118498,-1.39044,0.408177,0.144545,229.089,-0.0291175,
2,1,0,1,1,22871.5,-0.0246957,-0.0250667,41.5866,12,-0.00182999,10,-0.00104244,-1.38105,0.429825,0.137265,222.449,-0.0250667,
2,1,0,1,1,22871.5,-0.0206756,-0.0210573,42.4769,12,-0.00166179,10,-0.00089445,-1.37185,0.460043,0.128249,212.111,-0.0210573,
2,1,0,1,1,22871.5,-0.0166554,-0.017066,43.3286,12,-0.00149005,10,-0.000739444,-1.36323,0.485377,0.121555,204.946,-0.017066,
2,1,0,1,1,22871.5,-0.0126603,-0.0130417,44.1062,12,-0.00131509,10,-0.000575221,-1.3555,0.523385,0.112728,193.595,-0.0130417,
2,1,0,1,1,22871.5,-0.0086651,-0.00910125,44.8587,12,-0.00113708,10,-0.00040827,-1.34815,0.56144,0.105087,183.527,-0.00910125,
2,1,0,1,1,22871.5,-0.00466992,-0.00508443,45.5691,12,-0.000956155,10,-0.000231693,-1.34133, , , ,-0.00508443,
2,1,0,1,1,22871.5,-0.000974387,-0.00141489,46.201,12,-0.000786352,10,-6.53694e-05,-1.33535, , , ,-0.00141489,
2,1,0,0,1,22871.5,-0.000175352,-0.000497109,46.3316,12,-0.000749356,10,-2.30319e-05,-1.33412, , , ,-0.000497109,