File: Figure_codes/Fig_3-5/rawdata_trumpetplot_data/after 10th/20221101_1-115_003_TrumpetPlot_ParaChange_from10_every3_11_CV_C01_15.csv
mode,ox/red,error,control changes,counter inc.,time/s,control/V,Ewe/V,<I>/mA,cycle number,(Q-Qo)/C,I Range,P/W,log(|I|),Tafel slope mV/dec,alpha_eff,dI/d(E-IR),E-IR/V,
2,1,0,1,0,30746.5,2.44065e-05,-0.000478022,9.69422,16,0.0000000E+000,10,-4.63405e-06,-2.01349, , , ,-0.000478022,
2,1,0,1,0,30746.5,0.00214129,0.00174459,10.8072,16,5.28344e-05,10,1.88542e-05,-1.96629, , , ,0.00174459,
2,1,0,1,0,30746.5,0.00454949,0.0042111,11.6975,16,0.000120595,10,4.92592e-05,-1.93191,0.0794447,0.742655,332.865,0.0042111,
2,1,0,1,0,30746.5,0.0069466,0.00662988,12.3784,16,0.000192928,10,8.20675e-05,-1.90733,0.103888,0.567921,272.288,0.00662988,
2,1,0,1,0,30746.5,0.0093437,0.00898611,12.9927,16,0.000269133,10,0.000116753,-1.8863,0.12291,0.480027,241.945,0.00898611,
2,1,0,1,0,30746.5,0.0117408,0.0114325,13.5342,16,0.000348806,10,0.00015473,-1.86857,0.14325,0.411867,216.666,0.0114325,
2,1,0,1,0,30746.5,0.0141462,0.0138205,14.0241,16,0.000431541,10,0.00019382,-1.85313,0.163974,0.359813,196.373,0.0138205,
2,1,0,1,0,30746.5,0.0165433,0.0161863,14.4792,16,0.000517114,10,0.000234364,-1.83926,0.181892,0.324369,182.743,0.0161863,
2,1,0,1,0,30746.5,0.0189404,0.0186029,14.8904,16,0.000605285,10,0.000277006,-1.82709,0.204438,0.288596,167.35,0.0186029,
2,1,0,1,0,30746.5,0.0213486,0.0210005,15.2788,16,0.000695866,10,0.000320863,-1.81591,0.22648,0.260509,155.005,0.02100051,
2,1,0,1,0,30746.5,0.0237457,0.0234066,15.6319,16,0.000788657,10,0.00036589,-1.80599,0.248585,0.237343,144.659,0.0234066,
2,1,0,1,0,30746.5,0.0261429,0.0257935,15.9722,16,0.000883513,10,0.000411979,-1.79664,0.264387,0.223158,139.011,0.0257935,
2,1,0,1,0,30746.5,0.02854,0.0281636,16.2969,16,0.000980373,10,0.000458979,-1.78789,0.286616,0.20585,130.739,0.0281636,
2,1,0,1,0,30746.6,0.0309482,0.0305696,16.605,16,0.00107914,10,0.000507609,-1.77976,0.306227,0.192668,124.733,0.0305696,
2,1,0,1,0,30746.6,0.0333453,0.0329958,16.9001,16,0.00117965,10,0.000557633,-1.77211,0.326182,0.180881,119.203,0.0329958,
2,1,0,1,0,30746.6,0.0357424,0.0354061,17.1888,16,0.00128192,10,0.00060859,-1.76475,0.339746,0.173659,116.346,0.0354061,
2,1,0,1,0,30746.6,0.0381478,0.0377995,17.4541,16,0.00138587,10,0.000659754,-1.7581,0.353807,0.166757,113.546,0.03779947,
2,1,0,1,0,30746.6,0.0405449,0.0402204,17.7253,16,0.00149142,10,0.000712919,-1.75141,0.372691,0.158308,109.473,0.0402204,
2,1,0,1,0,30746.6,0.042942,0.0426211,17.9958,16,0.00159861,10,0.000767002,-1.74483,0.3734,0.158008,110.884,0.0426211,
2,1,0,1,0,30746.6,0.0453391,0.0449477,18.2371,16,0.00170733,10,0.000819714,-1.73904,0.392078,0.15048,107.155,0.0449477,
2,1,0,1,0,30746.6,0.0477473,0.0473463,18.5063,16,0.00181763,10,0.000876207,-1.73268,0.395185,0.149297,107.769,0.0473463,
2,1,0,1,0,30746.6,0.0501444,0.0498118,18.7618,16,0.00192946,10,0.000934557,-1.72673,0.407834,0.144667,105.903,0.0498118,
2,1,0,1,0,30746.6,0.0525415,0.052221,19.0113,16,0.0020428,10,0.000992788,-1.72099,0.408646,0.144379,107.148,0.052221,
2,1,0,1,0,30746.6,0.0549469,0.054608,19.2788,16,0.00215769,10,0.00105278,-1.71492,0.42177,0.139887,105.198,0.054608,
2,1,0,1,0,30746.6,0.057344,0.0570172,19.5262,16,0.00227413,10,0.00111333,-1.70938,0.425481,0.138667,105.668,0.0570172,
2,1,0,1,0,30746.6,0.0597412,0.0593766,19.7875,16,0.00239208,10,0.00117491,-1.70361,0.426364,0.138379,106.852,0.05937662,
2,1,0,1,0,30746.6,0.0621438,0.0618081,20.0362,16,0.00251157,10,0.0012384,-1.69818,0.4272,0.138109,108.01,0.0618081,
2,1,0,1,0,30746.6,0.0645465,0.0642089,20.2983,16,0.00263261,10,0.00130333,-1.69254,0.427962,0.137863,109.228,0.0642089,
2,1,0,1,0,30746.6,0.0669436,0.0666118,20.5638,16,0.00275522,10,0.00136979,-1.6869,0.43902,0.13439,107.785,0.0666118,
2,1,0,1,0,30746.6,0.0693407,0.0689691,20.8125,16,0.00287941,10,0.00143542,-1.68168,0.437499,0.134858,109.577,0.0689691,
2,1,0,1,0,30746.7,0.0717489,0.0714037,21.0779,16,0.00300512,10,0.00150504,-1.67617,0.436938,0.135031,111.132,0.0714037,
2,1,0,1,0,30746.7,0.074146,0.0737982,21.3542,16,0.00313246,10,0.0015759,-1.67052,0.450193,0.131055,109.202,0.0737982,
2,1,0,1,0,30746.7,0.0765431,0.076131,21.6155,16,0.00326139,10,0.00164561,-1.66524,0.443238,0.133111,112.337,0.076131,
2,1,0,1,0,30746.7,0.0789485,0.0785753,21.8954,16,0.00339193,10,0.00172044,-1.65965,0.443536,0.133022,113.645,0.0785753,
2,1,0,1,0,30746.7,0.0813456,0.0810015,22.1722,16,0.00352415,10,0.00179598,-1.65419,0.454292,0.129872,112.286,0.08100149,
2,1,0,1,0,30746.7,0.0837427,0.0833916,22.4349,16,0.00365798,10,0.00187089,-1.64908,0.461362,0.127882,111.958,0.0833916,
2,1,0,1,0,30746.7,0.0861398,0.0857786,22.6947,16,0.00379339,10,0.00194672,-1.64408,0.46516,0.126838,112.347,0.0857786,
2,1,0,1,0,30746.7,0.088548,0.0882197,22.9688,16,0.00393042,10,0.0020263,-1.63886,0.471281,0.125191,112.168,0.08821968,
2,1,0,1,0,30746.7,0.0909451,0.0905494,23.2268,16,0.00406904,10,0.00210317,-1.63401,0.496882,0.11874,107.612,0.0905494,
2,1,0,1,0,30746.7,0.0933422,0.0929746,23.4804,16,0.0042092,10,0.00218308,-1.62929,0.487003,0.121149,111.111,0.0929746,
2,1,0,1,0,30746.7,0.0957477,0.0953679,23.7559,16,0.00435093,10,0.00226555,-1.62423,0.474874,0.124243,115.223,0.0953679,
2,1,0,1,0,30746.7,0.0981447,0.0977495,24.0401,16,0.00449438,10,0.00234991,-1.61906,0.478168,0.123388,115.71,0.0977495,
2,1,0,1,0,30746.7,0.100542,0.100197,24.3178,16,0.00463948,10,0.00243657,-1.61408,0.504061,0.117049,111.047,0.100197,
2,1,0,1,0,30746.7,0.102939,0.102581,24.569,16,0.00478616,10,0.00252031,-1.60961,0.512422,0.115139,110.447,0.102581,
2,1,0,1,0,30746.7,0.105347,0.105027,24.8488,16,0.00493446,10,0.0026098,-1.60469,0.512067,0.115219,111.675,0.105027,
2,1,0,1,0,30746.7,0.107744,0.107373,25.1115,16,0.00508438,10,0.00269629,-1.60013,0.531546,0.110997,108.755,0.107373,
2,1,0,1,0,30746.8,0.110141,0.109793,25.3632,16,0.00523583,10,0.00278469,-1.5958,0.521673,0.113098,112.033,0.109793,
2,1,0,1,0,30746.8,0.11255,0.112235,25.6496,16,0.00538888,10,0.00287878,-1.59092,0.513245,0.114955,115.048,0.1122347,
2,1,0,1,0,30746.8,0.114947,0.114592,25.9202,16,0.00554361,10,0.00297024,-1.58636,0.510628,0.115544,116.896,0.114592,
2,1,0,1,0,30746.8,0.117344,0.117016,26.1978,16,0.00569998,10,0.00306556,-1.58174,0.506379,0.116514,119.177,0.117016,
2,1,0,1,0,30746.8,0.119744,0.119418,26.4863,16,0.00585807,10,0.00316294,-1.57698,0.493951,0.119445,123.513,0.1194179,
2,1,0,1,0,30746.8,0.122146,0.121831,26.7881,16,0.00601795,10,0.00326363,-1.57206,0.486296,0.121325,126.88,0.121831,
2,1,0,1,0,30746.8,0.124543,0.124185,27.1037,16,0.00617967,10,0.00336589,-1.56697,0.484008,0.121899,128.936,0.124185,
2,1,0,1,0,30746.8,0.126941,0.126615,27.4165,16,0.00634326,10,0.00347134,-1.56199,0.469991,0.125534,134.407,0.126615,
2,1,0,1,0,30746.8,0.129349,0.12897,27.759,16,0.00650878,10,0.00358009,-1.5566,0.460745,0.128054,138.717,0.12897,
2,1,0,1,0,30746.8,0.131746,0.131391,28.1005,16,0.00667638,10,0.00369215,-1.55129,0.454979,0.129676,142.164,0.131391,
2,1,0,1,0,30746.8,0.134143,0.13381,28.4313,16,0.00684601,10,0.00380438,-1.5462,0.4568,0.129159,143.389,0.13381,
2,1,0,1,0,30746.8,0.13654,0.136186,28.7861,16,0.00701768,10,0.00392027,-1.54082,0.450107,0.13108,147.282,0.136186,
2,1,0,1,0,30746.8,0.138945,0.138602,29.1499,16,0.00719154,10,0.00404022,-1.53536,0.450335,0.131014,148.973,0.138602,
2,1,0,1,0,30746.8,0.141343,0.141022,29.4957,16,0.00736753,10,0.00415953,-1.53024,0.460657,0.128078,147.462,0.141022,
2,1,0,1,0,30746.8,0.14374,0.143385,29.8564,16,0.00754562,10,0.00428097,-1.52496,0.463523,0.127286,148.309,0.143385,
2,1,0,1,0,30746.8,0.146148,0.145786,30.22,16,0.00772591,10,0.00440565,-1.51971,0.479034,0.123165,145.157,0.145786,
2,1,0,1,0,30746.8,0.148545,0.148196,30.5524,16,0.00790827,10,0.00452776,-1.51495,0.504449,0.116959,139.454,0.148196,
2,1,0,1,0,30746.9,0.150942,0.15063,30.8898,16,0.00809265,10,0.00465292,-1.51019,0.512319,0.115163,138.831,0.15063,
2,1,0,1,0,30746.9,0.153345,0.152984,31.2204,16,0.008279,10,0.00477622,-1.50556,0.531624,0.110981,135.177,0.152984,
2,1,0,1,0,30746.9,0.155747,0.155387,31.5421,16,0.00846734,10,0.00490123,-1.50111,0.561856,0.105009,129.156,0.155387,
2,1,0,1,0,30746.9,0.158144,0.15781,31.8393,16,0.00865752,10,0.00502455,-1.49704,0.607864,0.0970612,120.544,0.1578099,
2,1,0,1,0,30746.9,0.160542,0.160205,32.1133,16,0.00884937,10,0.00514473,-1.49331,0.645898,0.0913458,114.458,0.160205,
2,1,0,1,0,30746.9,0.162947,0.162637,32.3922,16,0.00904295,10,0.00526816,-1.48956,0.703073,0.0839174,105.95,0.162637,
2,1,0,1,0,30746.9,0.165344,0.165005,32.6174,16,0.00923803,10,0.00538203,-1.48655,0.825916,0.0714358,90.8815,0.165005,
2,1,0,1,0,30746.9,0.167741,0.167445,32.8249,16,0.00943441,10,0.00549636,-1.4838,0.941181,0.0626872,80.2547,0.167445,
2,1,0,1,0,30746.9,0.170149,0.169841,33.0222,16,0.00963197,10,0.00560853,-1.48119,1.19143,0.0495204,63.7117,0.169841,
2,1,0,1,0,30746.9,0.172547,0.17221,33.1378,16,0.00983047,10,0.00570667,-1.47968,1.73563,0.0339935,43.8984,0.17221,
2,1,0,1,0,30746.9,0.174944,0.174617,33.2202,16,0.0100296,10,0.00580083,-1.4786,3.42757,0.0172134,22.2881,0.174617,
2,1,0,1,0,30746.9,0.177341,0.176984,33.249,16,0.010229,10,0.00588454,-1.47822,-33.1196,-0.00178142,-2.30743,0.176984,
2,1,0,1,0,30746.9,0.179746,0.17941,33.2123,16,0.0104284,10,0.00595864,-1.4787,-2.77072,-0.0212941,-27.5502,0.17941,
2,1,0,1,0,30746.9,0.182143,0.181856,33.1102,16,0.0106274,10,0.00602128,-1.48004,-1.33164,-0.0443061,-57.1454,0.181856,
2,1,0,1,0,30746.9,0.18454,0.184237,32.9385,16,0.0108255,10,0.0060685,-1.4823,-0.908283,-0.0649577,-83.3584,0.184237,
2,1,0,1,0,30746.9,0.186949,0.186609,32.7095,16,0.0110225,10,0.0061039,-1.48533,-0.660956,-0.0892646,-113.699,0.186609,
2,1,0,1,0,30746.9,0.189346,0.189004,32.3971,16,0.0112178,10,0.00612317,-1.48949,-0.516683,-0.11419,-144.074,0.189004,
2,1,0,1,0,30747,0.191743,0.191397,32.0119,16,0.011411,10,0.006127,-1.49469,-0.436189,-0.135262,-168.731,0.191397,
2,1,0,1,0,30747,0.19414,0.193833,31.5766,16,0.0116018,10,0.00612058,-1.50063,-0.371283,-0.158909,-195.432,0.193833,
2,1,0,1,0,30747,0.196548,0.196213,31.0792,16,0.0117898,10,0.00609813,-1.50753,-0.324158,-0.18201,-220.281,0.196213,
2,1,0,1,0,30747,0.198945,0.198629,30.5053,16,0.0119744,10,0.00605923,-1.51563,-0.287215,-0.205421,-244.269,0.1986292,
2,1,0,1,0,30747,0.201342,0.200999,29.8998,16,0.0121556,10,0.00600984,-1.52433,-0.263609,-0.223817,-260.763,0.200999,
2,1,0,1,0,30747,0.203748,0.203424,29.2586,16,0.0123331,10,0.00595191,-1.53375,-0.246658,-0.239198,-272.818,0.203424,
2,1,0,1,0,30747,0.206145,0.205768,28.5758,16,0.0125065,10,0.00587999,-1.544,-0.23363,-0.252536,-281.578,0.205768,
2,1,0,1,0,30747,0.208542,0.208212,27.9042,16,0.0126759,10,0.00581,-1.55433,-0.226816,-0.260123,-283.071,0.208212,
2,1,0,1,0,30747,0.210939,0.210621,27.2046,16,0.0128412,10,0.00572988,-1.56536,-0.218703,-0.269773,-286.345,0.210621,
2,1,0,1,0,30747,0.213347,0.213015,26.5138,16,0.0130023,10,0.00564784,-1.57653,-0.213653,-0.276149,-285.735,0.213015,
2,1,0,1,0,30747,0.215744,0.2154,25.8311,16,0.0131593,10,0.00556401,-1.58786,-0.213452,-0.276409,-278.813,0.2154,
2,1,0,1,0,30747,0.218141,0.217858,25.1709,16,0.0133122,10,0.00548366,-1.5991,-0.214356,-0.275243,-270.482,0.217858,
2,1,0,1,0,30747,0.220547,0.220248,24.5405,16,0.0134613,10,0.00540498,-1.61012,-0.215306,-0.274029,-262.483,0.2202477,
2,1,0,1,0,30747,0.222944,0.222638,23.9109,16,0.0136065,10,0.00532348,-1.6214,-0.21935,-0.268976,-251.336,0.222638,
2,1,0,1,0,30747,0.225341,0.225048,23.335,16,0.0137482,10,0.0052515,-1.63199,-0.226589,-0.260383,-237.329,0.225048,
2,1,0,1,0,30747,0.227744,0.227473,22.7782,16,0.0138865,10,0.00518144,-1.64248,-0.232803,-0.253433,-225.417,0.227473,
2,1,0,1,0,30747.1,0.230146,0.229757,22.2432,16,0.0140215,10,0.00511054,-1.6528,-0.241943,-0.243859,-211.976,0.229757,
2,1,0,1,0,30747.1,0.232543,0.23219,21.7472,16,0.0141534,10,0.00504949,-1.6626,-0.246661,-0.239195,-203.221,0.23219,
2,1,0,1,0,30747.1,0.234941,0.23463,21.2873,16,0.0142825,10,0.00499463,-1.67188,-0.260248,-0.226707,-188.467,0.23463,
2,1,0,1,0,30747.1,0.237349,0.237043,20.8523,16,0.0144088,10,0.0049429,-1.68085,-0.273079,-0.216054,-175.948,0.237043,
2,1,0,1,0,30747.1,0.239746,0.239406,20.4312,16,0.0145326,10,0.00489136,-1.68971,-0.283917,-0.207808,-165.91,0.239406,
2,1,0,1,0,30747.1,0.242143,0.241846,20.0507,16,0.014654,10,0.00484919,-1.69787,-0.293064,-0.201321,-157.643,0.241846,
2,1,0,1,0,30747.1,0.244548,0.244291,19.6864,16,0.0147732,10,0.00480922,-1.70583,-0.309017,-0.190928,-146.831,0.244291,
2,1,0,1,0,30747.1,0.246946,0.246604,19.3463,16,0.0148902,10,0.00477088,-1.7134,-0.327808,-0.179984,-136.015,0.246604,
2,1,0,1,0,30747.1,0.249343,0.249049,19.025,16,0.0150053,10,0.00473816,-1.72068,-0.338455,-0.174322,-129.578,0.249049,
2,1,0,1,0,30747.1,0.25174,0.251398,18.7277,16,0.0151186,10,0.00470811,-1.72752,-0.35571,-0.165865,-121.276,0.251398,
2,1,0,1,0,30747.1,0.254148,0.253825,18.4488,16,0.0152301,10,0.00468277,-1.73403,-0.379156,-0.155609,-112.12,0.253825,
2,1,0,1,0,30747.1,0.256545,0.256244,18.1795,16,0.0153399,10,0.00465839,-1.74042,-0.395227,-0.149281,-106.037,0.256244,
2,1,0,1,0,30747.1,0.258942,0.258655,17.9408,16,0.0154482,10,0.00464047,-1.74616,-0.407904,-0.144642,-101.273,0.258655,
2,1,0,1,0,30747.1,0.261348,0.261034,17.7049,16,0.0155551,10,0.00462157,-1.75191,-0.431026,-0.136883,-94.6202,0.261034,
2,1,0,1,0,30747.1,0.263745,0.263413,17.4777,16,0.0156606,10,0.00460385,-1.75752,-0.45396,-0.129967,-88.7124,0.263413,
2,1,0,1,0,30747.1,0.266142,0.265807,17.2757,16,0.0157649,10,0.004592,-1.76256,-0.472537,-0.124858,-84.2057,0.265807,
2,1,0,1,0,30747.1,0.268539,0.268165,17.0715,16,0.0158679,10,0.00457797,-1.76773,-0.487251,-0.121087,-80.7318,0.268165,
2,1,0,1,0,30747.2,0.270947,0.270638,16.8895,16,0.0159698,10,0.00457094,-1.77238,-0.511961,-0.115243,-75.9976,0.270638,
2,1,0,1,0,30747.2,0.273344,0.273019,16.7174,16,0.0160706,10,0.00456415,-1.77683,-0.536679,-0.109935,-71.7279,0.273019,
2,1,0,1,0,30747.2,0.275741,0.275419,16.5426,16,0.0161703,10,0.00455615,-1.7814,-0.5613,-0.105113,-67.9026,0.275419,
2,1,0,1,0,30747.2,0.278149,0.277811,16.3913,16,0.0162691,10,0.00455367,-1.78539,-0.588523,-0.100251,-64.1371,0.277811,
2,1,0,1,0,30747.2,0.280547,0.280196,16.2299,16,0.0163669,10,0.00454756,-1.78968,-0.610287,-0.0966758,-61.2843,0.280196,
2,1,0,1,0,30747.2,0.282944,0.282643,16.0935,16,0.0164639,10,0.00454872,-1.79335,-0.624272,-0.0945101,-59.3819,0.282643,
2,1,0,1,0,30747.2,0.285344,0.285051,15.9524,16,0.01656,10,0.00454726,-1.79717,-0.640483,-0.092118,-57.3454,0.285051,
2,1,0,1,0,30747.2,0.287746,0.287396,15.8134,16,0.0166553,10,0.0045447,-1.80098,-0.680382,-0.0867159,-53.5609,0.287396,
2,1,0,1,0,30747.2,0.290143,0.289825,15.6998,16,0.0167498,10,0.00455021,-1.8041,-0.672018,-0.0877952,-53.7633,0.2898252,
2,1,0,1,0,30747.2,0.29254,0.292213,15.5718,16,0.0168436,10,0.00455027,-1.80766,-0.711156,-0.0829635,-50.4277,0.292213,
2,1,0,1,0,30747.2,0.294949,0.294667,15.4571,16,0.0169367,10,0.00455469,-1.81087,-0.764032,-0.0772219,-46.5985,0.294667,
2,1,0,1,0,30747.2,0.297346,0.297026,15.3558,16,0.0170291,10,0.00456108,-1.81373,-0.845549,-0.0697771,-41.8517,0.297026,
2,1,0,1,0,30747.2,0.299621,0.299271,15.2407,16,0.0171163,10,0.00456111,-1.81699,-0.0845336,-0.697947,-402.128,0.299271,
2,1,0,1,0,30747.2,0.299962,0.299708,15.1107,16,0.0171345,10,0.00452879,-1.82072,0.0114834,5.13785,2570.86,0.299708,
2,1,0,1,0,30747.2,0.297903,0.297657,11.6397,16,0.0172013,10,0.00346463,-1.93406,0.0198308,2.97517,1313.06,0.2976574,
2,1,0,1,0,30747.2,0.295506,0.295223,8.90028,16,0.0172623,10,0.00262756,-2.0506,0.0202162,2.91845,1031.44,0.295223,
2,1,0,1,0,30747.2,0.293101,0.292787,6.75417,16,0.0173088,10,0.00197753,-2.17043,0.0189086,3.12027,821.851,0.292787,
2,1,0,1,0,30747.2,0.290704,0.290385,4.97879,16,0.0173437,10,0.00144577,-2.30288,0.0165871,3.55699,681.215,0.290385,
2,1,0,1,0,30747.3,0.288307,0.287979,3.48412,16,0.0173689,10,0.00100335,-2.45791,0.0132715,4.4456,580.059,0.287979,
2,1,0,1,0,30747.3,0.28591,0.285637,2.22092,16,0.0173858,10,0.000634376,-2.65347,0.00888719,6.63877,502.381,0.285637,
2,1,0,1,0,30747.3,0.283501,0.283219,1.10278,16,0.0173955,10,0.000312327,-2.95751,0.00520779,11.3292,435.195,0.283219,
2,1,0,1,0,30747.3,0.281104,0.280774,0.139542,16,0.0173991,10,3.91797e-05,-3.8553,0.0352758,1.67253,376.181,0.280774,
2,0,0,1,0,30747.3,0.278707,0.27836,-0.70207,16,0.0173973,10,-0.000195428,-3.15362,-0.011045,-5.34178,334.255,0.2783601,
2,0,0,1,0,30747.3,0.276302,0.275943,-1.45478,16,0.0173907,10,-0.000401436,-2.8372,-0.00880099,-6.70379,295.884,0.275943,
2,0,0,1,0,30747.3,0.273905,0.273564,-2.12961,16,0.0173798,10,-0.000582584,-2.6717,-0.0168548,-3.50049,265.466,0.273564,
2,0,0,1,0,30747.3,0.271508,0.27119,-2.73048,16,0.0173652,10,-0.000740478,-2.56376,-0.0251281,-2.34797,238.791,0.27119,
2,0,0,1,0,30747.3,0.269105,0.268795,-3.2756,16,0.0173471,10,-0.000880465,-2.48471,-0.033989,-1.73586,215.319,0.268795,
2,0,0,1,0,30747.3,0.266702,0.266411,-3.76234,16,0.0173259,10,-0.00100233,-2.42454,-0.0433288,-1.36168,196.022,0.266411,
2,0,0,1,0,30747.3,0.264305,0.264001,-4.21583,16,0.0173019,10,-0.00111298,-2.37512,-0.0534431,-1.10398,178.57,0.264001,
2,0,0,1,0,30747.3,0.261908,0.261625,-4.61794,16,0.0172753,10,-0.00120817,-2.33555,-0.0640001,-0.921873,164.578,0.261625,
2,0,0,1,0,30747.3,0.2595,0.259232,-4.9979,16,0.0172465,10,-0.00129562,-2.30121,-0.0751994,-0.784581,151.887,0.259232,
2,0,0,1,0,30747.3,0.257103,0.256797,-5.35266,16,0.0172154,10,-0.00137455,-2.27143,-0.087194,-0.676652,140.162,0.256797,
2,0,0,1,0,30747.3,0.254706,0.254394,-5.66192,16,0.0171823,10,-0.00144036,-2.24704,-0.101441,-0.581621,128.114,0.254394,
2,0,0,1,0,30747.3,0.2523,0.251955,-5.97251,16,0.0171473,10,-0.0015048,-2.22384,-0.11351,-0.519777,120.654,0.251955,
2,0,0,1,0,30747.4,0.249903,0.249597,-6.25166,16,0.0171106,10,-0.00156039,-2.204,-0.125121,-0.471543,114.462,0.249597,
2,0,0,1,0,30747.4,0.247506,0.247187,-6.50876,16,0.0170723,10,-0.00160888,-2.1865,-0.140767,-0.419133,106.226,0.247187,
2,0,0,1,0,30747.4,0.245109,0.244832,-6.75073,16,0.0170325,10,-0.0016528,-2.17065,-0.153821,-0.383562,100.933,0.244832,
2,0,0,1,0,30747.4,0.242701,0.242382,-7.00009,16,0.0169912,10,-0.00169669,-2.1549,-0.167711,-0.351796,95.759,0.242382,
2,0,0,1,0,30747.4,0.240304,0.239992,-7.21603,16,0.0169485,10,-0.00173179,-2.1417,-0.186749,-0.315932,88.7953,0.239992,
2,0,0,1,0,30747.4,0.237906,0.237565,-7.41963,16,0.0169046,10,-0.00176265,-2.12962,-0.201818,-0.292342,84.597,0.2375652,
2,0,0,1,0,30747.4,0.235501,0.235163,-7.62408,16,0.0168595,10,-0.0017929,-2.11781,-0.214513,-0.275042,81.689,0.235163,
2,0,0,1,0,30747.4,0.233104,0.2328,-7.81139,16,0.0168131,10,-0.00181849,-2.10727,-0.226364,-0.260642,79.2971,0.2328,
2,0,0,1,0,30747.4,0.230707,0.23043,-7.99396,16,0.0167657,10,-0.00184205,-2.09724,-0.246819,-0.239041,74.5452,0.23043,
2,0,0,1,0,30747.4,0.22831,0.22797,-8.16534,16,0.0167172,10,-0.00186145,-2.08803,-0.261513,-0.22561,71.9478,0.22797,
2,0,0,1,0,30747.4,0.225902,0.225544,-8.34668,16,0.0166676,10,-0.00188255,-2.07849,-0.275333,-0.214286,69.638,0.225544,
2,0,0,1,0,30747.4,0.223504,0.223216,-8.50657,16,0.016617,10,-0.0018988,-2.07025,-0.302723,-0.194897,64.5818,0.223216,
2,0,0,1,0,30747.4,0.221107,0.220815,-8.65445,16,0.0165655,10,-0.00191103,-2.06276,-0.306417,-0.192548,65.0923,0.220815,
2,0,0,1,0,30747.4,0.218699,0.218407,-8.82112,16,0.0165131,10,-0.00192659,-2.05448,-0.319592,-0.18461,63.4324,0.218407,
2,0,0,1,0,30747.4,0.216302,0.215981,-8.96755,16,0.0164597,10,-0.00193682,-2.04733,-0.344121,-0.171452,59.9245,0.215981,
2,0,0,1,0,30747.4,0.213905,0.213572,-9.10038,16,0.0164055,10,-0.00194359,-2.04094,-0.349545,-0.168791,60.0196,0.213572,
2,0,0,1,0,30747.4,0.211505,0.211152,-9.24331,16,0.0163505,10,-0.00195174,-2.03417,-0.36879,-0.159983,57.6791,0.211152,
2,0,0,1,0,30747.5,0.209102,0.208784,-9.38231,16,0.0162946,10,-0.00195887,-2.02769,-0.366622,-0.160928,58.931,0.208784,
2,0,0,1,0,30747.5,0.206705,0.206369,-9.5268,16,0.0162378,10,-0.00196604,-2.02105,-0.402351,-0.146638,54.4673,0.2063691,
2,0,0,1,0,30747.5,0.204308,0.203987,-9.66167,16,0.0161803,10,-0.00197086,-2.01495,-0.395214,-0.149286,56.2437,0.2039874,
2,0,0,1,0,30747.5,0.2019,0.201554,-9.79616,16,0.0161219,10,-0.00197445,-2.00894,-0.413229,-0.142778,54.5201,0.201554,
2,0,0,1,0,30747.5,0.199503,0.199195,-9.92573,16,0.0160627,10,-0.00197716,-2.00324,-0.430275,-0.137122,53.0482,0.199195,
2,0,0,1,0,30747.5,0.197106,0.196795,-10.0397,16,0.0160028,10,-0.00197576,-1.99828,-0.429848,-0.137258,53.8703,0.1967947,
2,0,0,1,0,30747.5,0.194709,0.194389,-10.1792,16,0.0159422,10,-0.00197872,-1.99229,-0.427625,-0.137971,54.7958,0.194389,
2,0,0,1,0,30747.5,0.192303,0.191925,-10.3171,16,0.0158807,10,-0.00198012,-1.98644,-0.445751,-0.132361,53.1922,0.191925,
2,0,0,1,0,30747.5,0.189906,0.18956,-10.4277,16,0.0158184,10,-0.00197667,-1.98181,-0.459586,-0.128376,52.2894,0.18956,
2,0,0,1,0,30747.5,0.187509,0.187162,-10.5617,16,0.0157555,10,-0.00197675,-1.97627,-0.437997,-0.134704,55.5442,0.187162,
2,0,0,1,0,30747.5,0.185101,0.184774,-10.699,16,0.0156917,10,-0.0019769,-1.97066,-0.440508,-0.133936,55.8781,0.184774,
2,0,0,1,0,30747.5,0.182704,0.182381,-10.8243,16,0.0156271,10,-0.00197415,-1.9656,-0.468247,-0.126002,53.2791,0.1823806,
2,0,0,1,0,30747.5,0.180307,0.179981,-10.9599,16,0.0155617,10,-0.00197257,-1.96019,-0.442018,-0.133479,57.1216,0.179981,
2,0,0,1,0,30747.5,0.177904,0.177595,-11.1042,16,0.0154955,10,-0.00197204,-1.95451,-0.431895,-0.136607,59.1823,0.177595,
2,0,0,1,0,30747.5,0.175501,0.175211,-11.2454,16,0.0154284,10,-0.00197031,-1.94903,-0.443309,-0.13309,58.4026,0.175211,
2,0,0,1,0,30747.5,0.173104,0.172778,-11.3853,16,0.0153605,10,-0.00196712,-1.94366,-0.434584,-0.135762,60.3705,0.172778,
2,0,0,1,0,30747.5,0.170707,0.170349,-11.5338,16,0.0152918,10,-0.00196477,-1.93803,-0.407372,-0.144831,65.2731,0.1703492,
2,0,0,1,0,30747.6,0.168302,0.167963,-11.7028,16,0.0152221,10,-0.00196564,-1.93171,-0.405593,-0.145466,66.3665,0.1679633,
2,0,0,1,0,30747.6,0.165905,0.165584,-11.858,16,0.0151514,10,-0.0019635,-1.92599,-0.398815,-0.147938,68.4941,0.165584,
2,0,0,1,0,30747.6,0.163507,0.163202,-12.0235,16,0.0150797,10,-0.00196227,-1.91997,-0.369161,-0.159822,75.1328,0.163202,
2,0,0,1,0,30747.6,0.161099,0.160755,-12.2274,16,0.015007,10,-0.0019656,-1.91267,-0.351037,-0.168073,80.1147,0.160755,
2,0,0,1,0,30747.6,0.158702,0.158387,-12.402,16,0.0149331,10,-0.00196431,-1.90651,-0.339395,-0.173839,84.2377,0.158387,
2,0,0,1,0,30747.6,0.156305,0.156,-12.6108,16,0.014858,10,-0.00196728,-1.89926,-0.320115,-0.184309,90.9219,0.156,
2,0,0,1,0,30747.6,0.153908,0.153574,-12.8456,16,0.0147816,10,-0.00197275,-1.89125,-0.301533,-0.195667,98.1673,0.153574,
2,0,0,1,0,30747.6,0.151503,0.151187,-13.0918,16,0.0147038,10,-0.00197931,-1.883,-0.287851,-0.204967,104.818,0.151187,
2,0,0,1,0,30747.6,0.149105,0.148769,-13.3513,16,0.0146244,10,-0.00198626,-1.87448,-0.269557,-0.218877,114.224,0.148769,
2,0,0,1,0,30747.6,0.146708,0.146386,-13.6399,16,0.0145435,10,-0.0019967,-1.86519,-0.246758,-0.2391,127.485,0.146386,
2,0,0,1,0,30747.6,0.1443,0.143973,-13.9638,16,0.0144606,10,-0.0020104,-1.855,-0.229382,-0.257213,140.368,0.143973,
2,0,0,1,0,30747.6,0.141903,0.141577,-14.312,16,0.0143758,10,-0.00202626,-1.8443,-0.21751,-0.271252,151.709,0.1415772,
2,0,0,1,0,30747.6,0.139506,0.139215,-14.684,16,0.0142888,10,-0.00204423,-1.83315,-0.200948,-0.293609,168.713,0.139215,
2,0,0,1,0,30747.6,0.137109,0.136814,-15.1096,16,0.0141994,10,-0.00206721,-1.82075,-0.190595,-0.309557,182.877,0.136814,
2,0,0,1,0,30747.6,0.134701,0.134355,-15.567,16,0.0141073,10,-0.0020915,-1.80779,-0.180998,-0.325971,198.39,0.134355,
2,0,0,1,0,30747.6,0.132303,0.131996,-16.0581,16,0.0140124,10,-0.00211961,-1.79431,-0.172568,-0.341894,214.738,0.131996,
2,0,0,1,0,30747.7,0.129906,0.129615,-16.6049,16,0.0139143,10,-0.00215224,-1.77976,-0.167386,-0.352479,228.654,0.129615,
2,0,0,1,0,30747.7,0.127501,0.127191,-17.1842,16,0.0138129,10,-0.00218567,-1.76487,-0.162175,-0.363805,244.032,0.127191,
2,0,0,1,0,30747.7,0.125104,0.124775,-17.7738,16,0.013708,10,-0.00221772,-1.75022,-0.161343,-0.365682,253.958,0.124775,
2,0,0,1,0,30747.7,0.122707,0.122376,-18.4116,16,0.0135994,10,-0.00225315,-1.73491,-0.157345,-0.374973,269.471,0.122376,
2,0,0,1,0,30747.7,0.12031,0.119988,-19.052,16,0.013487,10,-0.00228602,-1.72006,-0.161142,-0.366138,272.337,0.119988,
2,0,0,1,0,30747.7,0.117901,0.117599,-19.7162,16,0.0133706,10,-0.00231862,-1.70518,-0.164325,-0.359044,276.178,0.1175993,
2,0,0,1,0,30747.7,0.115504,0.1152,-20.3843,16,0.0132502,10,-0.00234826,-1.69071,-0.170004,-0.34705,275.856,0.1152,
2,0,0,1,0,30747.7,0.113107,0.112809,-21.04,16,0.0131258,10,-0.00237352,-1.67695,-0.173663,-0.339739,278.913,0.112809,
2,0,0,1,0,30747.7,0.110702,0.110345,-21.7183,16,0.0129975,10,-0.00239651,-1.66317,-0.183091,-0.322244,272.737,0.110345,
2,0,0,1,0,30747.7,0.108305,0.107993,-22.366,16,0.0128652,10,-0.00241537,-1.65041,-0.19506,-0.302471,263.517,0.107993,
2,0,0,1,0,30747.7,0.105908,0.105611,-22.978,16,0.012729,10,-0.00242674,-1.63869,-0.203436,-0.290017,260.077,0.1056114,
2,0,0,1,0,30747.7,0.103505,0.10323,-23.6177,16,0.0125892,10,-0.00243805,-1.62676,-0.209708,-0.281344,259.185,0.10323,
2,0,0,1,0,30747.7,0.101102,0.100835,-24.2299,16,0.0124456,10,-0.00244323,-1.61565,-0.218865,-0.269572,254.677,0.100835,
2,0,0,1,0,30747.7,0.0987052,0.0983773,-24.8439,16,0.0122983,10,-0.00244408,-1.60478,-0.233991,-0.252147,244.108,0.09837731,
2,0,0,1,0,30747.7,0.0963081,0.0960306,-25.4056,16,0.0121475,10,-0.00243972,-1.59507,-0.250399,-0.235624,233.442,0.0960306,
2,0,0,1,0,30747.7,0.0938999,0.0936458,-25.9584,16,0.0119933,10,-0.0024309,-1.58572,-0.265402,-0.222305,224.988,0.0936458,
2,0,0,1,0,30747.7,0.0915028,0.0911591,-26.4901,16,0.0118359,10,-0.00241481,-1.57692,-0.289792,-0.203594,210.187,0.0911591,
2,0,0,1,0,30747.8,0.0891057,0.0888655,-26.9887,16,0.0116754,10,-0.00239836,-1.56882,-0.310361,-0.190101,199.934,0.0888655,
2,0,0,1,0,30747.8,0.0867002,0.0864223,-27.446,16,0.0115121,10,-0.00237194,-1.56152,-0.34135,-0.172843,184.966,0.0864223,
2,0,0,1,0,30747.8,0.0843031,0.0840184,-27.8775,16,0.011346,10,-0.00234222,-1.55475,-0.365452,-0.161444,175.481,0.0840184,
2,0,0,1,0,30747.8,0.081906,0.0816356,-28.2821,16,0.0111775,10,-0.00230882,-1.54849,-0.402687,-0.146516,161.615,0.0816356,
2,0,0,1,0,30747.8,0.0795089,0.0792539,-28.6557,16,0.0110066,10,-0.00227108,-1.54279,-0.438459,-0.134562,150.383,0.0792539,
2,0,0,1,0,30747.8,0.0771007,0.0768256,-29.0127,16,0.0108335,10,-0.00222892,-1.53741,-0.483553,-0.122014,137.971,0.0768256,
2,0,0,1,0,30747.8,0.0747036,0.0744312,-29.316,16,0.0106585,10,-0.00218203,-1.53289,-0.555389,-0.106232,121.431,0.0744312,
2,0,0,1,0,30747.8,0.0723065,0.0720008,-29.6028,16,0.0104817,10,-0.00213143,-1.52867,-0.634436,-0.092996,107.276,0.0720008,
2,0,0,1,0,30747.8,0.0699011,0.0695767,-29.8473,16,0.0103033,10,-0.00207667,-1.5251,-0.750714,-0.0785918,91.4117,0.0695767,
2,0,0,1,0,30747.8,0.067504,0.0671929,-30.0361,16,0.0101237,10,-0.00201821,-1.52236,-0.88724,-0.0664984,77.8775,0.0671929,
2,0,0,1,0,30747.8,0.0651069,0.0647773,-30.2149,16,0.00994288,10,-0.00195724,-1.51978,-1.09491,-0.0538859,63.4523,0.06477727,
2,0,0,1,0,30747.8,0.0627098,0.062402,-30.3257,16,0.00976121,10,-0.00189238,-1.51819,-1.48549,-0.0397174,46.9951,0.062402,
2,0,0,1,0,30747.8,0.0603016,0.0599853,-30.4416,16,0.00957886,10,-0.00182605,-1.51653,-1.86598,-0.0316187,37.5424,0.0599853,
2,0,0,1,0,30747.8,0.0579045,0.057627,-30.5229,16,0.00939594,10,-0.00175894,-1.51537,-2.79936,-0.0210763,25.079,0.057627,
2,0,0,1,0,30747.8,0.0555074,0.055205,-30.5636,16,0.00921265,10,-0.00168726,-1.5148,-4.35498,-0.0135477,16.1553,0.05520498,
2,0,0,1,0,30747.8,0.0530992,0.052783,-30.6015,16,0.00902918,10,-0.00161524,-1.51426,-7.73556,-0.00762711,9.10335,0.052783,
2,0,0,1,0,30747.8,0.0507021,0.0503663,-30.6222,16,0.00884552,10,-0.00154233,-1.51396,-34.3649,-0.00171687,2.04973,0.05036635,
2,0,0,1,0,30747.9,0.048305,0.0480324,-30.5985,16,0.00866187,10,-0.00146972,-1.5143,11.1739,0.00528017,-6.30429,0.0480324,
2,0,0,1,0,30747.9,0.0459051,0.0456094,-30.5774,16,0.00847833,10,-0.00139461,-1.5146,6.25606,0.00943085,-11.2519,0.0456094,
2,0,0,1,0,30747.9,0.0435024,0.0431683,-30.5435,16,0.00829494,10,-0.00131851,-1.51508,4.53592,0.0130073,-15.5039,0.04316831,
2,0,0,1,0,30747.9,0.0411053,0.0407824,-30.5097,16,0.00811176,10,-0.00124426,-1.51556,3.56954,0.0165287,-19.6725,0.0407824,
2,0,0,1,0,30747.9,0.0387082,0.0383774,-30.4516,16,0.00792887,10,-0.00116865,-1.51639,3.05977,0.0192825,-22.9191,0.0383774,
2,0,0,1,0,30747.9,0.0363,0.0360148,-30.4027,16,0.00774633,10,-0.00109495,-1.51709,2.89147,0.0204048,-24.2067,0.0360148,
2,0,0,1,0,30747.9,0.0339029,0.0335419,-30.3465,16,0.0075641,10,-0.00101788,-1.51789,2.43445,0.0242355,-28.678,0.0335419,
2,0,0,1,0,30747.9,0.0315058,0.0311857,-30.2683,16,0.00738226,10,-0.00094394,-1.51901,2.2387,0.0263545,-31.1256,0.0311857,
2,0,0,1,0,30747.9,0.0291087,0.0287627,-30.1806,16,0.00720096,10,-0.000868076,-1.52027,2.18179,0.0270421,-31.8668,0.0287627,
2,0,0,1,0,30747.9,0.0267033,0.0263577,-30.1162,16,0.00702007,10,-0.000793795,-1.5212,2.13557,0.0276272,-32.4528,0.0263577,
2,0,0,1,0,30747.9,0.0243062,0.023994,-30.0244,16,0.00683964,10,-0.000720406,-1.52253,1.78247,0.0331002,-38.771,0.02399404,
2,0,0,1,0,30747.9,0.0219091,0.0216018,-29.9146,16,0.00665982,10,-0.000646207,-1.52412,1.7082,0.0345393,-40.3427,0.0216018,
2,0,0,1,0,30747.9,0.0195009,0.0191862,-29.8249,16,0.00648058,10,-0.000572225,-1.52542,1.65035,0.0357499,-41.6044,0.0191862,
2,0,0,1,0,30747.9,0.0171038,0.0167907,-29.724,16,0.00630193,10,-0.000499087,-1.52689,1.45065,0.0406713,-47.164,0.0167907,
2,0,0,1,0,30747.9,0.0147067,0.0143581,-29.6086,16,0.00612395,10,-0.000425124,-1.52858,1.36709,0.0431574,-49.8465,0.0143581,
2,0,0,1,0,30747.9,0.012304,0.0119648,-29.4849,16,0.00594672,10,-0.00035278,-1.5304,1.29886,0.0454245,-52.2533,0.0119648,
2,0,0,1,0,30748,0.00990136,0.00958099,-29.3471,16,0.00577024,10,-0.000281175,-1.53243,1.18602,0.0497464,-56.9492,0.00958099,
2,0,0,1,0,30748,0.00750426,0.00717917,-29.2085,16,0.00559458,10,-0.000209693,-1.53449,1.03488,0.0570114,-64.9432,0.00717917,
2,0,0,1,0,30748,0.00510715,0.00483037,-29.032,16,0.00541985,10,-0.000140235,-1.53712,1.12471,0.052458,-59.502,0.00483037,
2,0,0,1,0,30748,0.00270173,0.0023925,-28.8809,16,0.00524612,10,-6.90974e-05,-1.53939,0.988679,0.0596756,-67.2745,0.0023925,
2,0,0,1,0,30748,0.000304623,-8.46112e-05,-28.7417,16,0.00507315,10,2.43187e-06,-1.54149,0.87543,0.0673954,-75.468,-8.46112e-05,
2,0,0,1,0,30748,-0.00209248,-0.00244826,-28.5238,16,0.00490139,10,6.98336e-05,-1.54479,0.786288,0.0750361,-83.5587,-0.00244826,
2,0,0,1,0,30748,-0.00450068,-0.00484584,-28.3279,16,0.00473088,10,0.000137272,-1.54779,0.762571,0.0773698,-85.4914,-0.004845839,
2,0,0,1,0,30748,-0.00689779,-0.00729008,-28.1202,16,0.00456152,10,0.000204998,-1.55098,0.709343,0.0831756,-91.1946,-0.007290076,
2,0,0,1,0,30748,-0.00929489,-0.00968235,-27.8834,16,0.00439353,10,0.000269977,-1.55465,0.670672,0.0879714,-95.7611,-0.00968235,
2,0,0,1,0,30748,-0.011692,-0.0120524,-27.6555,16,0.00422694,10,0.000333314,-1.55822,0.656948,0.0898092,-96.9478,-0.0120524,
2,0,0,1,0,30748,-0.0140974,-0.0144436,-27.4302,16,0.00406167,10,0.000396191,-1.56177,0.644314,0.0915702,-97.9985,-0.0144436,
2,0,0,1,0,30748,-0.0164945,-0.0168539,-27.1974,16,0.0038978,10,0.000458381,-1.56547,0.629698,0.0936957,-99.4448,-0.0168539,
2,0,0,1,0,30748,-0.0188916,-0.0192653,-26.9544,16,0.0037354,10,0.000519284,-1.56937,0.647197,0.0911623,-95.9531,-0.0192653,
2,0,0,1,0,30748,-0.0212998,-0.0216713,-26.7358,16,0.00357438,10,0.000579399,-1.57291,0.673996,0.0875376,-91.3269,-0.0216713,
2,0,0,1,0,30748,-0.0236969,-0.0240466,-26.5105,16,0.00341466,10,0.000637489,-1.57658,0.662392,0.0890712,-92.1182,-0.0240466,
2,0,0,1,0,30748,-0.026094,-0.0264548,-26.2858,16,0.00325629,10,0.000695386,-1.58028,0.680355,0.0867195,-89.0145,-0.0264548,
2,0,0,1,0,30748,-0.0284912,-0.0288577,-26.0701,16,0.00309926,10,0.000752323,-1.58386,0.730136,0.0808068,-82.2887,-0.0288577,
2,0,0,1,0,30748.1,-0.0308994,-0.0313147,-25.8916,16,0.00294337,10,0.000810786,-1.58684,0.751751,0.0784834,-79.2784,-0.0313147,
2,0,0,1,0,30748.1,-0.0332965,-0.0336719,-25.6886,16,0.00278863,10,0.000864984,-1.59026,0.774417,0.0761863,-76.4503,-0.0336719,
2,0,0,1,0,30748.1,-0.0356936,-0.0360451,-25.5137,16,0.00263505,10,0.000919646,-1.59323,0.870139,0.0678053,-67.6003,-0.03604513,
2,0,0,1,0,30748.1,-0.038099,-0.0384374,-25.3747,16,0.00248239,10,0.000975339,-1.5956,0.935883,0.0630421,-62.4251,-0.0384374,
2,0,0,1,0,30748.1,-0.0404961,-0.0408668,-25.2279,16,0.0023306,10,0.00103098,-1.59812,0.949279,0.0621524,-61.2057,-0.0408668,
2,0,0,1,0,30748.1,-0.0428932,-0.0432994,-25.0838,16,0.00217971,10,0.00108611,-1.60061,1.12886,0.0522652,-51.2067,-0.0432994,
2,0,0,1,0,30748.1,-0.0452903,-0.0456344,-24.9612,16,0.00202959,10,0.00113909,-1.60273,1.30253,0.0452965,-44.1599,-0.0456344,
2,0,0,1,0,30748.1,-0.0476985,-0.0480574,-24.8664,16,0.00188008,10,0.00119501,-1.60439,1.44076,0.0409507,-39.7513,-0.0480574,
2,0,0,1,0,30748.1,-0.0500956,-0.0504508,-24.77,16,0.00173116,10,0.00124966,-1.60607,1.58414,0.0372441,-36.0309,-0.0504508,
2,0,0,1,0,30748.1,-0.0524927,-0.0528547,-24.6884,16,0.00158279,10,0.0013049,-1.60751,1.99076,0.0296369,-28.5873,-0.0528547,
2,0,0,1,0,30748.1,-0.0548981,-0.055283,-24.6376,16,0.00143481,10,0.00136204,-1.6084,2.27885,0.0258902,-24.8965,-0.055283,
2,0,0,1,0,30748.1,-0.0572953,-0.0576689,-24.5829,16,0.00128713,10,0.00141767,-1.60937,2.55957,0.0230507,-22.1165,-0.05766895,
2,0,0,1,0,30748.1,-0.0596924,-0.0600824,-24.5301,16,0.00113982,10,0.00147383,-1.6103,3.97336,0.0148489,-14.2339,-0.0600824,
2,0,0,1,0,30748.1,-0.062095,-0.0624524,-24.5237,16,0.000992707,10,0.00153156,-1.61041,6.72134,0.00877801,-8.39762,-0.0624524,
2,0,0,1,0,30748.1,-0.0644977,-0.0648638,-24.5051,16,0.000845622,10,0.00158949,-1.61074,9.91909,0.00594812,-5.68688,-0.0648638,
2,0,0,1,0,30748.1,-0.0668948,-0.0672158,-24.4804,16,0.000698699,10,0.00164547,-1.61118,19.9724,0.00295407,-2.82483,-0.0672158,
2,0,0,1,0,30748.1,-0.0692919,-0.0696865,-24.4856,16,0.000551808,10,0.00170632,-1.61109,-12.0541,-0.00489458,4.67969,-0.0696865,
2,0,0,1,0,30748.2,-0.0717001,-0.0720672,-24.5093,16,0.000404805,10,0.00176631,-1.61067,-6.83308,-0.00863447,8.25844,-0.0720672,
2,0,0,1,0,30748.2,-0.0740972,-0.0744881,-24.5243,16,0.000257724,10,0.00182677,-1.6104,-6.02583,-0.00979118,9.37775,-0.0744881,
2,0,0,1,0,30748.2,-0.0764943,-0.0768358,-24.5546,16,0.000110504,10,0.00188667,-1.60987,-3.28135,-0.0179804,17.2408,-0.0768358,
2,0,0,1,0,30748.2,-0.0788997,-0.079261,-24.6125,16,-3.69642e-05,10,0.00195081,-1.60884,-2.89115,-0.0204071,19.5937,-0.07926096,
2,0,0,1,0,30748.2,-0.0812968,-0.0816405,-24.6478,16,-0.000184759,10,0.00201226,-1.60822,-2.57912,-0.0228761,22.0066,-0.0816405,
2,0,0,1,0,30748.2,-0.0836939,-0.0840317,-24.7084,16,-0.000332824,10,0.00207629,-1.60716,-2.17581,-0.0271164,26.1603,-0.0840317,
2,0,0,1,0,30748.2,-0.086091,-0.0864357,-24.773,16,-0.000481255,10,0.00214127,-1.60602,-1.80719,-0.0326473,31.5799,-0.0864357,
2,0,0,1,0,30748.2,-0.0884992,-0.0888873,-24.8652,16,-0.000630194,10,0.0022102,-1.60441,-1.73091,-0.0340861,33.0627,-0.0888873,
2,0,0,1,0,30748.2,-0.0908963,-0.0912573,-24.9317,16,-0.000779582,10,0.0022752,-1.60325,-1.61865,-0.0364502,35.499,-0.0912573,
2,0,0,1,0,30748.2,-0.0932934,-0.0936793,-25.0274,16,-0.000929449,10,0.00234455,-1.60159,-1.37142,-0.043021,42.0446,-0.0936793,
2,0,0,1,0,30748.2,-0.0956989,-0.0960673,-25.1425,16,-0.00107996,10,0.00241538,-1.59959,-1.3361,-0.0441585,43.3074,-0.0960673,
2,0,0,1,0,30748.2,-0.098096,-0.0984628,-25.2323,16,-0.0012311,10,0.00248444,-1.59804,-1.78152,-0.0331178,32.5509,-0.0984628,
2,0,0,0,0,30748.2,-0.0999548,-0.100381,-25.2933,16,-0.0013499,10,0.00253896,-1.597,0.0280564,2.10291,-1953.72,-0.100381,
2,0,0,1,1,30748.2,-0.0994555,-0.0998912,-24.0006,16,-0.00139151,10,0.00239745,-1.61978,-0.0263534,-2.2388,1916.45,-0.0998912,
2,0,0,1,1,30748.2,-0.0970583,-0.0974575,-19.9625,16,-0.00152227,10,0.00194549,-1.69979,-0.0307724,-1.9173,1513.22,-0.0974575,
2,0,0,1,1,30748.2,-0.0946501,-0.09506,-16.8688,16,-0.00163224,10,0.00160354,-1.77292,-0.0327128,-1.80358,1198.29,-0.09506,
2,0,0,1,1,30748.2,-0.0922531,-0.0926369,-14.2711,16,-0.00172524,10,0.00132203,-1.84554,-0.0319381,-1.84732,1032.19,-0.0926369,
2,0,0,1,1,30748.3,-0.0898559,-0.0902595,-11.9929,16,-0.00180366,10,0.00108247,-1.92108,-0.0303478,-1.94413,906.872,-0.0902595,
2,0,0,1,1,30748.3,-0.0874588,-0.0878662,-9.93118,16,-0.00186915,10,0.000872614,-2.003,-0.027469,-2.14787,826.258,-0.0878662,
2,0,0,1,1,30748.3,-0.0850534,-0.0854739,-8.04856,16,-0.0019228,10,0.000687941,-2.09428,-0.0246188,-2.39654,745.366,-0.0854739,
2,0,0,1,1,30748.3,-0.0826563,-0.0830562,-6.34858,16,-0.00196573,10,0.000527289,-2.19732,-0.0207047,-2.84959,690.189,-0.0830562,
2,0,0,1,1,30748.3,-0.0802592,-0.0806957,-4.77221,16,-0.00199888,10,0.000385097,-2.32128,-0.0164794,-3.58023,638.263,-0.0806957,
2,0,0,1,1,30748.3,-0.077851,-0.0781878,-3.28924,16,-0.00202287,10,0.000257178,-2.48291,-0.0118688,-4.971,584.683,-0.0781878,
2,0,0,1,1,30748.3,-0.0754539,-0.075874,-1.93548,16,-0.00203838,10,0.000146852,-2.71321,-0.00554444,-10.6413,552.246,-0.075874,
2,0,0,1,1,30748.3,-0.0730568,-0.0734457,-0.6726,16,-0.00204604,10,4.93996e-05,-3.17224,-0.0151968,-3.88239,512.639,-0.0734457,
2,1,0,1,1,30748.3,-0.0706597,-0.0710916,0.506144,16,-0.00204638,10,-3.59826e-05,-3.29573,0.0240978,2.44836,480.974,-0.0710916,
2,1,0,1,1,30748.3,-0.0682542,-0.068641,1.63302,16,-0.00203978,10,-0.000112092,-2.78701,0.00462651,12.7526,450.778,-0.068641,
2,1,0,1,1,30748.3,-0.0658571,-0.0662954,2.66692,16,-0.00202673,10,-0.000176804,-2.57399,0.01291,4.57012,421.729,-0.0662954,
2,1,0,1,1,30748.3,-0.06346,-0.063902,3.63482,16,-0.00200771,10,-0.000232272,-2.43952,0.0198699,2.96932,399.866,-0.063902,
2,1,0,1,1,30748.3,-0.0610518,-0.0615087,4.57933,16,-0.00198293,10,-0.000281668,-2.3392,0.0267322,2.20707,379.517,-0.0615087,
2,1,0,1,1,30748.3,-0.0586547,-0.0591111,5.44062,16,-0.00195273,10,-0.000321601,-2.26435,0.0352264,1.67488,347.96,-0.0591111,
2,1,0,1,1,30748.3,-0.0562576,-0.0567072,6.26177,16,-0.00191752,10,-0.000355087,-2.2033,0.0424671,1.38931,334.806,-0.0567072,
2,1,0,1,1,30748.3,-0.053855,-0.0542354,7.05409,16,-0.00187748,10,-0.000382581,-2.15156,0.0506201,1.16555,316.525,-0.0542354,
2,1,0,1,1,30748.3,-0.0514523,-0.0518431,7.78722,16,-0.00183283,10,-0.000403714,-2.10862,0.0599671,0.983872,296.019,-0.0518431,
2,1,0,1,1,30748.4,-0.0490552,-0.0494784,8.47884,16,-0.00178396,10,-0.000419519,-2.07166,0.0683524,0.863174,283.735,-0.0494784,
2,1,0,1,1,30748.4,-0.0466581,-0.046996,9.14127,16,-0.00173103,10,-0.000429603,-2.03899,0.0788777,0.747993,265.015,-0.046996,
2,1,0,1,1,30748.4,-0.0442527,-0.0446599,9.75712,16,-0.00167425,10,-0.000435752,-2.01068,0.0893583,0.660263,249.928,-0.0446599,
2,1,0,1,1,30748.4,-0.0418556,-0.0422612,10.3394,16,-0.00161386,10,-0.000436955,-1.98551,0.10152,0.581167,233.366,-0.0422612,
2,1,0,1,1,30748.4,-0.0394585,-0.0398584,10.8883,16,-0.0015501,10,-0.000433988,-1.96304,0.112486,0.52451,222.17,-0.0398584,
2,1,0,1,1,30748.4,-0.0370558,-0.037464,11.4149,16,-0.00148314,10,-0.000427646,-1.94253,0.125405,0.470475,208.731,-0.037464,
2,1,0,1,1,30748.4,-0.0346532,-0.0350802,11.902,16,-0.00141311,10,-0.000417525,-1.92438,0.138777,0.425144,196.706,-0.0350802,
2,1,0,1,1,30748.4,-0.0322561,-0.0326635,12.3445,16,-0.00134031,10,-0.000403214,-1.90853,0.153197,0.385126,185.285,-0.0326635,
2,1,0,1,1,30748.4,-0.0298589,-0.0302415,12.7876,16,-0.00126486,10,-0.000386718,-1.89321,0.167838,0.351529,174.985,-0.0302415,
2,1,0,1,1,30748.4,-0.0274535,-0.0278291,13.202,16,-0.00118681,10,-0.0003674,-1.87936,0.184882,0.319123,163.92,-0.0278291,
2,1,0,1,1,30748.4,-0.0250564,-0.0254517,13.5731,16,-0.00110646,10,-0.000345457,-1.86732,0.20581,0.286672,151.708,-0.0254517,
2,1,0,1,1,30748.4,-0.0226593,-0.0230477,13.9389,16,-0.00102392,10,-0.00032126,-1.85577,0.21734,0.271464,147.342,-0.0230477,
2,1,0,1,1,30748.4,-0.0202511,-0.0206003,14.2841,16,-0.000939213,10,-0.000294257,-1.84515,0.238482,0.247398,137.534,-0.0206003,
2,1,0,1,1,30748.4,-0.017854,-0.0182409,14.5875,16,-0.000852578,10,-0.000266089,-1.83602,0.263048,0.224294,127.528,-0.0182409,
2,1,0,1,1,30748.4,-0.0154569,-0.0158157,14.8874,16,-0.000764121,10,-0.000235455,-1.82718,0.286282,0.20609,119.555,-0.0158157,
2,1,0,1,1,30748.4,-0.0130598,-0.0134076,15.1598,16,-0.000673934,10,-0.000203256,-1.81931,0.306862,0.192269,113.639,-0.0134076,
2,1,0,1,1,30748.5,-0.0106516,-0.011011,15.4268,16,-0.000582127,10,-0.000169865,-1.81172,0.339907,0.173577,104.382,-0.011011,
2,1,0,1,1,30748.5,-0.00825448,-0.00861346,15.6703,16,-0.000488802,10,-0.000134975,-1.80492,0.371654,0.15875,96.9891,-0.00861346,
2,1,0,1,1,30748.5,-0.00585738,-0.00626148,15.9003,16,-0.000394077,10,-9.95597e-05,-1.79859,0.397722,0.148345,91.9586,-0.00626148,
2,1,0,1,1,30748.5,-0.00345195,-0.00382573,16.117,16,-0.000298013,10,-6.16594e-05,-1.79271,0.440596,0.13391,84.075,-0.00382573,
2,1,0,1,1,30748.5,-0.00105485,-0.00145466,16.3091,16,-0.000200709,10,-2.37242e-05,-1.78757, , , ,-0.00145466,
2,1,0,0,1,30748.5,-7.54729e-05,-0.000535284,16.3668,16,-0.000159857,10,-8.76091e-06,-1.78604, , , ,-0.000535284,