File: Figure_codes/Fig_3-5/rawdata_trumpetplot_data/after 10th/20221101_1-115_003_TrumpetPlot_ParaChange_from10_every3_10_CV_C01_25.csv
mode,ox/red,error,control changes,counter inc.,time/s,control/V,Ewe/V,<I>/mA,cycle number,(Q-Qo)/C,I Range,P/W,log(|I|),Tafel slope mV/dec,alpha_eff,dI/d(E-IR),E-IR/V,
2,1,0,0,0,50443.8,-2.44065e-05,-0.000306236,5.15105,26,0.0000000E+000,10,-1.57744e-06,-2.2881, , , ,-0.000306236,
2,1,0,1,0,50443.8,0.00179726,0.00136152,5.85916,26,4.8993e-05,10,7.97736e-06,-2.23216, , , ,0.00136152,
2,1,0,1,0,50443.8,0.00379485,0.00344045,6.40797,26,0.00011062,10,2.20463e-05,-2.19328,0.0626417,0.941865,232.335,0.00344045,
2,1,0,1,0,50443.8,0.00579244,0.00543586,6.80578,26,0.00017685,10,3.69953e-05,-2.16712,0.0825669,0.714572,189.013,0.00543586,
2,1,0,1,0,50443.8,0.00779002,0.00742651,7.16139,26,0.000246748,10,5.31841e-05,-2.145,0.099301,0.594153,165.326,0.00742651,
2,1,0,1,0,50443.8,0.00977853,0.00941702,7.46396,26,0.000319247,10,7.02883e-05,-2.12703,0.120672,0.488928,141.992,0.009417017,
2,1,0,1,0,50443.8,0.0117761,0.0114212,7.7286,26,0.000395248,10,8.82697e-05,-2.1119,0.143287,0.411762,123.903,0.0114212,
2,1,0,1,0,50443.8,0.0137737,0.0134366,7.96201,26,0.000473755,10,0.000106983,-2.09898,0.162016,0.364161,113.02,0.0134366,
2,1,0,1,0,50443.9,0.0157713,0.01542,8.18054,26,0.000554502,10,0.000126144,-2.08722,0.179129,0.329371,105.014,0.01542,
2,1,0,1,0,50443.9,0.017778,0.0174233,8.38066,26,0.000637407,10,0.000146019,-2.07672,0.208495,0.28298,92.379,0.01742328,
2,1,0,1,0,50443.9,0.0197755,0.0194379,8.55171,26,0.000722056,10,0.000166227,-2.06795,0.235419,0.250617,83.5977,0.0194379,
2,1,0,1,0,50443.9,0.0217731,0.0214316,8.71575,26,0.000808456,10,0.000186793,-2.0597,0.251204,0.234869,79.8346,0.0214316,
2,1,0,1,0,50443.9,0.0237707,0.0234193,8.86957,26,0.00089641,10,0.000207719,-2.0521,0.267613,0.220468,76.2901,0.0234193,
2,1,0,1,0,50443.9,0.0257774,0.0254105,9.01929,26,0.000985888,10,0.000229184,-2.04483,0.291893,0.202129,71.0828,0.0254105,
2,1,0,1,0,50443.9,0.027775,0.027419,9.15387,26,0.00107676,10,0.00025099,-2.0384,0.321386,0.18358,65.5607,0.02741896,
2,1,0,1,0,50443.9,0.0297726,0.0294387,9.28339,26,0.00116902,10,0.000273291,-2.03229,0.342723,0.172151,62.3388,0.0294387,
2,1,0,1,0,50443.9,0.0317701,0.0314412,9.40461,26,0.00126249,10,0.000295692,-2.02666,0.343804,0.171609,63.0082,0.0314412,
2,1,0,1,0,50443.9,0.0337586,0.0334083,9.53351,26,0.00135627,10,0.000318499,-2.02075,0.34967,0.168731,62.744,0.0334083,
2,1,0,1,0,50444,0.0357562,0.0354006,9.65304,26,0.0014522,10,0.000341723,-2.01534,0.378238,0.155986,58.742,0.0354006,
2,1,0,1,0,50444,0.0377538,0.0373689,9.76616,26,0.00154934,10,0.000364951,-2.01028,0.385812,0.152924,58.3056,0.0373689,
2,1,0,1,0,50444,0.0397514,0.0394097,9.8868,26,0.00164758,10,0.000389636,-2.00494,0.374231,0.157657,60.8351,0.0394097,
2,1,0,1,0,50444,0.0417399,0.0413683,10.0095,26,0.00174607,10,0.000414075,-1.99959,0.390567,0.151063,58.9792,0.0413683,
2,1,0,1,0,50444,0.0437375,0.0434037,10.1224,26,0.00184672,10,0.000439348,-1.99472,0.421167,0.140087,55.3336,0.0434037,
2,1,0,1,0,50444,0.0457351,0.0454183,10.2336,26,0.00194851,10,0.000464791,-1.98997,0.407458,0.1448,57.8506,0.0454183,
2,1,0,1,0,50444,0.0477327,0.0473834,10.3526,26,0.00205144,10,0.000490541,-1.98495,0.390142,0.151227,61.1115,0.0473834,
2,1,0,1,0,50444,0.0497393,0.0493919,10.4764,26,0.00215557,10,0.00051745,-1.97979,0.408066,0.144584,59.0812,0.0493919,
2,1,0,1,0,50444,0.0517369,0.0513874,10.5891,26,0.00226088,10,0.000544149,-1.97514,0.426352,0.138383,57.1969,0.0513874,
2,1,0,1,0,50444,0.0537345,0.0534037,10.7059,26,0.0023674,10,0.000571733,-1.97038,0.417152,0.141435,59.0998,0.0534037,
2,1,0,1,0,50444.1,0.0557321,0.055388,10.8256,26,0.00247509,10,0.000599607,-1.96555,0.415453,0.142013,59.9945,0.055388,
2,1,0,1,0,50444.1,0.0577297,0.0573817,10.9445,26,0.00258397,10,0.000628015,-1.9608,0.406916,0.144993,61.9513,0.0573817,
2,1,0,1,0,50444.1,0.0597364,0.0593581,11.0715,26,0.0026941,10,0.000657186,-1.95579,0.409026,0.144245,62.3115,0.0593581,
2,1,0,1,0,50444.1,0.0617339,0.0613883,11.1942,26,0.00280547,10,0.000687191,-1.95101,0.428504,0.137688,60.144,0.0613883,
2,1,0,1,0,50444.1,0.0637315,0.0633986,11.3145,26,0.002918,10,0.000717326,-1.94636,0.429144,0.137483,60.7106,0.0633986,
2,1,0,1,0,50444.1,0.0657291,0.065381,11.4366,26,0.00303177,10,0.000747735,-1.9417,0.4008,0.147205,65.7402,0.065381,
2,1,0,1,0,50444.1,0.0677176,0.0673241,11.5726,26,0.00314571,10,0.000779116,-1.93657,0.412055,0.143185,64.6233,0.0673241,
2,1,0,1,0,50444.1,0.0697152,0.0693561,11.6935,26,0.0032621,10,0.000811013,-1.93206,0.438895,0.134429,61.3641,0.0693561,
2,1,0,1,0,50444.1,0.0717128,0.0713794,11.8215,26,0.00337966,10,0.000843808,-1.92733,0.431024,0.136883,63.1379,0.0713794,
2,1,0,1,0,50444.1,0.0737104,0.073343,11.9452,26,0.00349854,10,0.000876095,-1.92281,0.425211,0.138755,64.7028,0.073343,
2,1,0,1,0,50444.2,0.0756989,0.0753186,12.0763,26,0.00361747,10,0.000909573,-1.91806,0.448417,0.131574,61.965,0.0753186,
2,1,0,1,0,50444.2,0.0776965,0.0773002,12.1904,26,0.00373883,10,0.00094232,-1.91398,0.470865,0.125301,59.6389,0.0773002,
2,1,0,1,0,50444.2,0.0796941,0.0793382,12.3161,26,0.00386138,10,0.000977134,-1.90953,0.476087,0.123927,59.538,0.0793382,
2,1,0,1,0,50444.2,0.0816917,0.081338,12.4308,26,0.00398518,10,0.0010111,-1.9055,0.476495,0.123821,60.097,0.081338,
2,1,0,1,0,50444.2,0.0836983,0.0833561,12.5575,26,0.0041101,10,0.00104675,-1.9011,0.464741,0.126953,62.1994,0.0833561,
2,1,0,1,0,50444.2,0.0856959,0.0853117,12.678,26,0.00423634,10,0.00108158,-1.89695,0.481747,0.122471,60.5969,0.0853117,
2,1,0,1,0,50444.2,0.0876935,0.0873479,12.7994,26,0.00436375,10,0.001118,-1.89281,0.515221,0.114514,57.1721,0.0873479,
2,1,0,1,0,50444.2,0.0896911,0.0893373,12.9081,26,0.00449235,10,0.00115318,-1.88914,0.504521,0.116943,58.9527,0.0893373,
2,1,0,1,0,50444.2,0.0916978,0.0913545,13.0356,26,0.0046221,10,0.00119086,-1.88487,0.497112,0.118685,60.3489,0.0913545,
2,1,0,1,0,50444.2,0.0936953,0.0933535,13.1505,26,0.0047531,10,0.00122764,-1.88106,0.539364,0.109388,56.1199,0.0933535,
2,1,0,1,0,50444.3,0.0956929,0.0952882,13.2564,26,0.00488512,10,0.00126318,-1.87758,0.563439,0.104714,54.1787,0.0952882,
2,1,0,1,0,50444.3,0.0976905,0.0973124,13.365,26,0.00501827,10,0.00130058,-1.87403,0.536159,0.110042,57.4266,0.0973124,
2,1,0,1,0,50444.3,0.099679,0.0993208,13.488,26,0.00515115,10,0.00133963,-1.87005,0.555208,0.106266,55.8951,0.0993208,
2,1,0,1,0,50444.3,0.101677,0.101355,13.5909,26,0.0052866,10,0.00137751,-1.86675,0.573749,0.102832,54.5683,0.101355,
2,1,0,1,0,50444.3,0.103674,0.103332,13.7069,26,0.00542308,10,0.00141636,-1.86306,0.527076,0.111938,59.8911,0.103332,
2,1,0,1,0,50444.3,0.105672,0.105325,13.8287,26,0.0055608,10,0.0014565,-1.85922,0.505095,0.11681,63.0548,0.105325,
2,1,0,1,0,50444.3,0.107656,0.107304,13.9573,26,0.00569828,10,0.00149767,-1.8552,0.500382,0.11791,64.2198,0.107304,
2,1,0,1,0,50444.3,0.109658,0.109296,14.0837,26,0.0058385,10,0.00153929,-1.85128,0.488977,0.12066,66.348,0.109296,
2,1,0,1,0,50444.3,0.111655,0.111307,14.2229,26,0.00598003,10,0.0015831,-1.84701,0.457218,0.129041,71.6435,0.111307,
2,1,0,1,0,50444.3,0.113653,0.113283,14.3694,26,0.00612302,10,0.00162781,-1.84256,0.450783,0.130883,73.3934,0.113283,
2,1,0,1,0,50444.4,0.115651,0.115287,14.515,26,0.00626741,10,0.00167338,-1.83818,0.421138,0.140097,79.4322,0.115287,
2,1,0,1,0,50444.4,0.117657,0.117292,14.6878,26,0.00641349,10,0.00172275,-1.83304,0.401836,0.146826,84.1391,0.1172916,
2,1,0,1,0,50444.4,0.119655,0.11931,14.8535,26,0.00656118,10,0.00177216,-1.82817,0.408702,0.144359,83.6885,0.11931,
2,1,0,1,0,50444.4,0.121652,0.12129,15.0224,26,0.00671061,10,0.00182208,-1.82326,0.395947,0.14901,87.3872,0.12129,
2,1,0,1,0,50444.4,0.12365,0.123295,15.2017,26,0.00686171,10,0.00187428,-1.81811,0.38272,0.15416,91.4897,0.123295,
2,1,0,1,0,50444.4,0.125657,0.125337,15.3926,26,0.00701478,10,0.00192927,-1.81269,0.380984,0.154862,92.9925,0.1253369,
2,1,0,1,0,50444.4,0.127654,0.127285,15.5727,26,0.00716959,10,0.00198217,-1.80764,0.385481,0.153056,93.0273,0.127285,
2,1,0,1,0,50444.4,0.129652,0.129249,15.7566,26,0.00732629,10,0.00203652,-1.80254,0.38959,0.151441,93.1351,0.129249,
2,1,0,1,0,50444.4,0.131649,0.131282,15.945,26,0.00748479,10,0.00209329,-1.79738,0.400172,0.147437,91.7262,0.131282,
2,1,0,1,0,50444.4,0.133638,0.133293,16.1275,26,0.00764365,10,0.00214969,-1.79243,0.414715,0.142266,89.5216,0.133293,
2,1,0,1,0,50444.5,0.135636,0.135287,16.3035,26,0.00780578,10,0.00220566,-1.78772,0.427409,0.138041,87.8298,0.135287,
2,1,0,1,0,50444.5,0.137633,0.137305,16.4799,26,0.00796975,10,0.00226278,-1.78305,0.453976,0.129963,83.5321,0.137305,
2,1,0,1,0,50444.5,0.139631,0.139265,16.6358,26,0.00813529,10,0.00231679,-1.77896,0.472711,0.124812,81.0522,0.139265,
2,1,0,1,0,50444.5,0.141619,0.14126,16.8005,26,0.00830085,10,0.00237323,-1.77468,0.493346,0.119591,78.3728,0.14126,
2,1,0,1,0,50444.5,0.143617,0.143262,16.9491,26,0.00846959,10,0.00242815,-1.77085,0.530205,0.111278,73.5992,0.143262,
2,1,0,1,0,50444.5,0.145614,0.145263,17.0951,26,0.00863986,10,0.00248329,-1.76713,0.594599,0.0992266,66.14,0.145263,
2,1,0,1,0,50444.5,0.147612,0.147213,17.2104,26,0.00881136,10,0.00253359,-1.76421,0.639668,0.0922353,61.9818,0.147213,
2,1,0,1,0,50444.5,0.149619,0.149265,17.3431,26,0.0089842,10,0.00258873,-1.76087,0.701886,0.0840592,56.8392,0.149265,
2,1,0,1,0,50444.5,0.151616,0.15129,17.4422,26,0.00915813,10,0.00263883,-1.7584,0.882591,0.0668487,45.4857,0.15129,
2,1,0,1,0,50444.5,0.153614,0.153306,17.5269,26,0.00933304,10,0.00268698,-1.75629,1.07057,0.0551107,37.6756,0.153306,
2,1,0,1,0,50444.6,0.155611,0.155272,17.5922,26,0.00950861,10,0.00273157,-1.75468,1.39571,0.0422725,29.0097,0.155272,
2,1,0,1,0,50444.6,0.157618,0.157254,17.6415,26,0.00968483,10,0.0027742,-1.75347,3.91826,0.0150577,10.3503,0.157254,
2,1,0,1,0,50444.6,0.159616,0.159273,17.6336,26,0.00986123,10,0.00280856,-1.75366,-6.92258,-0.00852283,-5.86396,0.1592733,
2,1,0,1,0,50444.6,0.161613,0.161295,17.6178,26,0.0100376,10,0.00284166,-1.75405,-1.99351,-0.029596,-20.3205,0.1612948,
2,1,0,1,0,50444.6,0.163611,0.163271,17.5524,26,0.0102134,10,0.00286579,-1.75566,-1.01678,-0.0580261,-39.72,0.163271,
2,1,0,1,0,50444.6,0.165618,0.165222,17.4618,26,0.0103885,10,0.00288507,-1.75791,-0.676393,-0.0872273,-59.3487,0.165222,
2,1,0,1,0,50444.6,0.167597,0.167253,17.316,26,0.0105606,10,0.00289616,-1.76155,-0.499751,-0.118059,-79.711,0.167253,
2,1,0,1,0,50444.6,0.169595,0.169259,17.14,26,0.0107329,10,0.0029011,-1.76599,-0.376389,-0.156753,-104.647,0.169259,
2,1,0,1,0,50444.6,0.171592,0.171251,16.8977,26,0.0109031,10,0.00289375,-1.77217,-0.308076,-0.191511,-126.236,0.171251,
2,1,0,1,0,50444.6,0.173572,0.173203,16.6421,26,0.0110691,10,0.00288247,-1.77879,-0.271835,-0.217044,-140.732,0.173203,
2,1,0,1,0,50444.7,0.175578,0.175256,16.334,26,0.0112339,10,0.00286263,-1.78691,-0.236765,-0.249193,-158.718,0.1752563,
2,1,0,1,0,50444.7,0.177576,0.177232,16.0026,26,0.0113956,10,0.00283618,-1.79581,-0.210061,-0.280871,-175.174,0.177232,
2,1,0,1,0,50444.7,0.179573,0.179259,15.6328,26,0.0115537,10,0.00280232,-1.80596,-0.191638,-0.307872,-187.747,0.1792594,
2,1,0,1,0,50444.7,0.181571,0.181216,15.2547,26,0.0117081,10,0.00276439,-1.8166,-0.179676,-0.328369,-195.315,0.181216,
2,1,0,1,0,50444.7,0.183578,0.183238,14.8556,26,0.0118586,10,0.00272212,-1.82811,-0.171902,-0.343219,-198.942,0.183238,
2,1,0,1,0,50444.7,0.185575,0.185226,14.4569,26,0.0120051,10,0.00267779,-1.83993,-0.164763,-0.358091,-201.936,0.185226,
2,1,0,1,0,50444.7,0.187573,0.187222,14.0511,26,0.0121476,10,0.00263068,-1.85229,-0.163762,-0.36028,-197.671,0.1872223,
2,1,0,1,0,50444.7,0.18957,0.18922,13.6675,26,0.0122862,10,0.00258615,-1.86431,-0.163156,-0.361618,-192.796,0.18922,
2,1,0,1,0,50444.7,0.191577,0.191231,13.2783,26,0.0124208,10,0.00253922,-1.87686,-0.163232,-0.36145,-187.477,0.191231,
2,1,0,1,0,50444.7,0.193575,0.193205,12.9202,26,0.0125518,10,0.00249626,-1.88873,-0.168479,-0.350192,-176.589,0.193205,
2,1,0,1,0,50444.8,0.195572,0.195242,12.57,26,0.0126792,10,0.00245419,-1.90066,-0.171361,-0.344303,-169.016,0.195242,
2,1,0,1,0,50444.8,0.19757,0.197215,12.2425,26,0.0128032,10,0.0024144,-1.91213,-0.175035,-0.337075,-161.145,0.197215,
2,1,0,1,0,50444.8,0.199558,0.199182,11.935,26,0.0129228,10,0.00237724,-1.92318,-0.187602,-0.314495,-146.612,0.199182,
2,1,0,1,0,50444.8,0.201556,0.201238,11.6527,26,0.0130407,10,0.00234496,-1.93357,-0.190004,-0.310519,-141.165,0.201238,
2,1,0,1,0,50444.8,0.203553,0.203207,11.3669,26,0.0131557,10,0.00230983,-1.94436,-0.196497,-0.300259,-133.426,0.203207,
2,1,0,1,0,50444.8,0.205551,0.205201,11.1239,26,0.0132681,10,0.00228264,-1.95374,-0.214863,-0.274594,-119.26,0.205201,
2,1,0,1,0,50444.8,0.20754,0.207175,10.8937,26,0.013377,10,0.00225689,-1.96283,-0.226731,-0.26022,-110.716,0.207175,
2,1,0,1,0,50444.8,0.209537,0.209184,10.6829,26,0.0134849,10,0.0022347,-1.97131,-0.227155,-0.259735,-108.198,0.209184,
2,1,0,1,0,50444.8,0.211535,0.211209,10.4572,26,0.0135906,10,0.00220865,-1.98059,-0.243289,-0.242509,-99.1995,0.211209,
2,1,0,1,0,50444.8,0.213532,0.213223,10.2823,26,0.0136943,10,0.00219242,-1.98791,-0.265947,-0.221849,-88.9897,0.213223,
2,1,0,1,0,50444.9,0.215539,0.215207,10.1014,26,0.0137961,10,0.00217389,-1.99562,-0.26799,-0.220157,-86.8697,0.215207,
2,1,0,1,0,50444.9,0.217537,0.217156,9.94059,26,0.0138963,10,0.00215866,-2.00259,-0.279459,-0.211122,-81.8862,0.217156,
2,1,0,1,0,50444.9,0.219534,0.219168,9.77699,26,0.0139948,10,0.00214281,-2.00979,-0.306728,-0.192353,-73.5055,0.219168,
2,1,0,1,0,50444.9,0.221532,0.221187,9.6443,26,0.014092,10,0.0021332,-2.01573,-0.32247,-0.182963,-68.8172,0.221187,
2,1,0,1,0,50444.9,0.223534,0.223199,9.4996,26,0.0141876,10,0.0021203,-2.02229,-0.33651,-0.175329,-65.0955,0.223199,
2,1,0,1,0,50444.9,0.225536,0.225192,9.3836,26,0.0142821,10,0.00211311,-2.02763,-0.355565,-0.165933,-60.729,0.225192,
2,1,0,1,0,50444.9,0.227534,0.227195,9.25697,26,0.0143752,10,0.00210313,-2.03353,-0.36566,-0.161352,-58.3479,0.227195,
2,1,0,1,0,50444.9,0.229531,0.22921,9.14916,26,0.0144673,10,0.00209708,-2.03862,-0.38049,-0.155063,-55.3484,0.22921,
2,1,0,1,0,50444.9,0.231529,0.231187,9.03598,26,0.0145582,10,0.002089,-2.04402,-0.432555,-0.136399,-48.19,0.231187,
2,1,0,1,0,50444.9,0.233517,0.233196,8.95708,26,0.0146473,10,0.00208876,-2.04783,-0.442095,-0.133455,-46.5785,0.233196,
2,1,0,1,0,50445,0.235515,0.235164,8.85077,26,0.0147364,10,0.00208138,-2.05302,-0.444504,-0.132732,-45.9249,0.235164,
2,1,0,1,0,50445,0.237512,0.237166,8.77475,26,0.0148245,10,0.00208107,-2.05677,-0.471156,-0.125224,-42.836,0.237166,
2,1,0,1,0,50445,0.23951,0.23915,8.68002,26,0.0149117,10,0.00207582,-2.06148,-0.515306,-0.114495,-38.8598,0.23915,
2,1,0,1,0,50445,0.241499,0.241176,8.61893,26,0.0149974,10,0.00207868,-2.06455,-0.520594,-0.113332,-38.0544,0.241176,
2,1,0,1,0,50445,0.243496,0.243146,8.52796,26,0.0150831,10,0.00207354,-2.06915,-0.551037,-0.107071,-35.7152,0.243146,
2,1,0,1,0,50445,0.245494,0.245187,8.47567,26,0.0151681,10,0.00207813,-2.07183,-0.600564,-0.098241,-32.4448,0.245187,
2,1,0,1,0,50445,0.247491,0.247182,8.39701,26,0.0152524,10,0.00207559,-2.07588,-0.595554,-0.0990674,-32.5179,0.247182,
2,1,0,1,0,50445,0.249498,0.249178,8.3459,26,0.0153361,10,0.00207961,-2.07853,-0.601571,-0.0980765,-31.8983,0.249178,
2,1,0,1,0,50445,0.251496,0.25114,8.27076,26,0.0154192,10,0.00207711,-2.08245,-0.620963,-0.0950137,-30.7208,0.25114,
2,1,0,1,0,50445,0.253493,0.253146,8.22401,26,0.0155017,10,0.00208187,-2.08492,-0.678638,-0.0869388,-27.8736,0.253146,
2,1,0,1,0,50445.1,0.255491,0.255119,8.15983,26,0.0155837,10,0.00208173,-2.08832,-0.763214,-0.0773047,-24.6603,0.255119,
2,1,0,1,0,50445.1,0.257497,0.257203,8.12396,26,0.0156651,10,0.0020895,-2.09023,-0.810206,-0.072821,-23.0572,0.257203,
2,1,0,1,0,50445.1,0.259495,0.259165,8.06655,26,0.0157461,10,0.00209057,-2.09331,-0.694998,-0.0848923,-26.7397,0.259165,
2,1,0,1,0,50445.1,0.261493,0.26116,8.01815,26,0.0158266,10,0.00209402,-2.09593,-0.767071,-0.076916,-24.0698,0.26116,
2,1,0,1,0,50445.1,0.26349,0.263151,7.97061,26,0.0159065,10,0.00209747,-2.09851,-1.05335,-0.0560119,-17.4512,0.263151,
2,1,0,1,0,50445.1,0.265479,0.265151,7.94849,26,0.0159852,10,0.00210755,-2.09972,-0.922936,-0.0639264,-19.7865,0.265151,
2,1,0,1,0,50445.1,0.267476,0.267152,7.89145,26,0.0160644,10,0.00210821,-2.10284,-0.773964,-0.076231,-23.5067,0.267152,
2,1,0,1,0,50445.1,0.269474,0.269162,7.85421,26,0.0161431,10,0.00211406,-2.1049,-0.897776,-0.065718,-20.1372,0.269162,
2,1,0,1,0,50445.1,0.271471,0.271116,7.81161,26,0.0162215,10,0.00211785,-2.10726,-1.11363,-0.0529798,-16.1734,0.2711162,
2,1,0,1,0,50445.1,0.27346,0.27312,7.79021,26,0.0162986,10,0.00212766,-2.10845,-0.948914,-0.0621763,-18.8638,0.27312,
2,1,0,1,0,50445.2,0.275458,0.275104,7.73639,26,0.0163762,10,0.00212831,-2.11146,-0.869142,-0.067883,-20.5302,0.275104,
2,1,0,1,0,50445.2,0.277455,0.277087,7.70875,26,0.0164535,10,0.002136,-2.11302,-1.03607,-0.0569459,-17.1167,0.277087,
2,1,0,1,0,50445.2,0.279453,0.279135,7.66739,26,0.0165304,10,0.00214024,-2.11535,-1.08339,-0.0544587,-16.3143,0.279135,
2,1,0,1,0,50445.2,0.281455,0.281089,7.64347,26,0.0166069,10,0.00214849,-2.11671,-1.08835,-0.0542104,-16.1534,0.281089,
2,1,0,1,0,50445.2,0.283457,0.28312,7.60302,26,0.0166831,10,0.00215256,-2.11901,-1.11088,-0.053111,-15.7772,0.28312,
2,1,0,1,0,50445.2,0.285455,0.285112,7.58,26,0.016759,10,0.00216115,-2.12033,-0.991011,-0.0595352,-17.5844,0.285112,
2,1,0,1,0,50445.2,0.287452,0.287079,7.53339,26,0.0168346,10,0.00216268,-2.12301,-1.04431,-0.0564964,-16.6395,0.287079,
2,1,0,1,0,50445.2,0.28945,0.289112,7.51343,26,0.0169098,10,0.00217222,-2.12416,-1.31119,-0.0449973,-13.1827,0.289112,
2,1,0,1,0,50445.2,0.291456,0.29111,7.48026,26,0.0169849,10,0.00217758,-2.12608,-1.1215,-0.052608,-15.3629,0.29111,
2,1,0,1,0,50445.2,0.293454,0.293109,7.45202,26,0.0170595,10,0.00218426,-2.12773,-1.10474,-0.0534061,-15.5259,0.293109,
2,1,0,1,0,50445.3,0.295452,0.295121,7.41798,26,0.0171339,10,0.0021892,-2.12971,-1.36423,-0.0432479,-12.5354,0.295121,
2,1,0,1,0,50445.3,0.297449,0.297111,7.40187,26,0.017208,10,0.00219917,-2.13066,-1.45792,-0.0404687,-11.6792,0.297111,
2,1,0,1,0,50445.3,0.299438,0.299076,7.37179,26,0.0172811,10,0.00220473,-2.13243,-0.0714143,-0.826166,-229.85,0.299076,
2,1,0,1,0,50445.3,0.299746,0.299457,6.86244,26,0.0173121,10,0.00205501,-2.16352,0.00821582,7.18127,1650.77,0.299457,
2,1,0,1,0,50445.3,0.29774,0.29741,4.62164,26,0.0173682,10,0.00137452,-2.3352,0.0121613,4.85147,907.322,0.29741,
2,1,0,1,0,50445.3,0.295742,0.295407,3.18701,26,0.0174067,10,0.000941464,-2.49662,0.0115734,5.09789,633.998,0.295407,
2,1,0,1,0,50445.3,0.293745,0.293409,2.08475,26,0.0174327,10,0.000611685,-2.68095,0.00958704,6.15414,492.216,0.293409,
2,1,0,1,0,50445.3,0.291747,0.291413,1.2213,26,0.017449,10,0.000355902,-2.91318,0.00650142,9.07494,394.246,0.291413,
2,1,0,1,0,50445.3,0.289745,0.289398,0.503795,26,0.0174574,10,0.000145798,-3.29775,0.00341832,17.26,322.956,0.289398,
2,0,0,1,0,50445.3,0.287743,0.287381,-0.0807901,26,0.0174593,10,-2.32176e-05,-4.09264,-0.0704838,-0.837072,270.266,0.287381,
2,0,0,1,0,50445.4,0.285745,0.285411,-0.573888,26,0.017456,10,-0.000163794,-3.24117,-0.00365294,-16.1514,228.703,0.285411,
2,0,0,1,0,50445.4,0.283748,0.283406,-0.989969,26,0.017448,10,-0.000280563,-3.00438,-0.0106257,-5.55257,197.222,0.2834059,
2,0,0,1,0,50445.4,0.28175,0.281438,-1.35741,26,0.0174362,10,-0.000382026,-2.86729,-0.0173826,-3.3942,172.164,0.2814382,
2,0,0,1,0,50445.4,0.279761,0.279467,-1.66813,26,0.0174211,10,-0.000466186,-2.77777,-0.0255868,-2.30587,147.202,0.279467,
2,0,0,1,0,50445.4,0.277764,0.277414,-1.94974,26,0.0174029,10,-0.000540887,-2.71002,-0.0340922,-1.7306,129.583,0.277414,
2,0,0,1,0,50445.4,0.275766,0.275416,-2.193,26,0.0173822,10,-0.000603988,-2.65896,-0.0432309,-1.36477,115.711,0.2754164,
2,0,0,1,0,50445.4,0.273769,0.273423,-2.41153,26,0.0173591,10,-0.000659368,-2.61771,-0.0528742,-1.11586,104.259,0.273423,
2,0,0,1,0,50445.4,0.27178,0.271444,-2.60714,26,0.0173342,10,-0.000707692,-2.58384,-0.0615027,-0.959307,97.2929,0.2714442,
2,0,0,1,0,50445.4,0.269783,0.269478,-2.79536,26,0.0173072,10,-0.000753289,-2.55356,-0.0737167,-0.800362,86.6619,0.269478,
2,0,0,1,0,50445.4,0.267785,0.267502,-2.94879,26,0.0172784,10,-0.000788806,-2.53036,-0.0891516,-0.661794,76.0683,0.267502,
2,0,0,1,0,50445.5,0.265787,0.265469,-3.10034,26,0.0172481,10,-0.000823043,-2.50859,-0.0975157,-0.605031,73.0859,0.265469,
2,0,0,1,0,50445.5,0.263781,0.263429,-3.24644,26,0.0172164,10,-0.000855206,-2.48859,-0.109631,-0.538171,67.9383,0.263429,
2,0,0,1,0,50445.5,0.261783,0.261458,-3.37283,26,0.0171833,10,-0.000881854,-2.47201,-0.130993,-0.450404,59.0937,0.261458,
2,0,0,1,0,50445.5,0.259786,0.259478,-3.47992,26,0.0171489,10,-0.000902963,-2.45843,-0.13909,-0.424186,57.7404,0.259478,
2,0,0,1,0,50445.5,0.257788,0.257429,-3.60548,26,0.0171135,10,-0.000928154,-2.44304,-0.143477,-0.411216,57.6982,0.257429,
2,0,0,1,0,50445.5,0.255781,0.255437,-3.7131,26,0.0170769,10,-0.000948462,-2.43026,-0.166185,-0.355027,51.3574,0.2554369,
2,0,0,1,0,50445.5,0.253784,0.253454,-3.80964,26,0.0170393,10,-0.000965567,-2.41912,-0.186078,-0.317071,47.0955,0.253454,
2,0,0,1,0,50445.5,0.251786,0.251462,-3.90028,26,0.0170007,10,-0.000980773,-2.4089,-0.198672,-0.296972,45.2002,0.2514624,
2,0,0,1,0,50445.5,0.249789,0.249425,-3.99172,26,0.0169613,10,-0.000995636,-2.39884,-0.209563,-0.281538,43.8166,0.249425,
2,0,0,1,0,50445.5,0.2478,0.247436,-4.0767,26,0.0169213,10,-0.00100872,-2.38969,-0.220761,-0.267257,42.5113,0.247436,
2,0,0,1,0,50445.6,0.245802,0.245443,-4.16101,26,0.0168802,10,-0.00102129,-2.3808,-0.23285,-0.253382,41.1117,0.245443,
2,0,0,1,0,50445.6,0.243805,0.243483,-4.23923,26,0.0168382,10,-0.00103218,-2.37271,-0.266446,-0.221433,36.5824,0.243483,
2,0,0,1,0,50445.6,0.241807,0.241476,-4.30614,26,0.0167955,10,-0.00103983,-2.36591,-0.272587,-0.216445,36.4237,0.241476,
2,0,0,1,0,50445.6,0.239819,0.239467,-4.3855,26,0.0167525,10,-0.00105018,-2.35798,-0.280836,-0.210087,35.8962,0.239467,
2,0,0,1,0,50445.6,0.237821,0.237445,-4.45085,26,0.0167083,10,-0.00105683,-2.35156,-0.319886,-0.184441,32.0272,0.237445,
2,0,0,1,0,50445.6,0.235824,0.235459,-4.51385,26,0.0166634,10,-0.00106283,-2.34545,-0.325448,-0.181288,31.9359,0.235459,
2,0,0,1,0,50445.6,0.233826,0.233482,-4.57739,26,0.016618,10,-0.00106874,-2.33938,-0.316451,-0.186442,33.3259,0.233482,
2,0,0,1,0,50445.6,0.231824,0.231465,-4.64696,26,0.0165719,10,-0.00107561,-2.33283,-0.320998,-0.183802,33.3148,0.231465,
2,0,0,1,0,50445.6,0.229822,0.229444,-4.71191,26,0.0165251,10,-0.00108112,-2.3268,-0.363523,-0.1623,29.8073,0.229444,
2,0,0,1,0,50445.6,0.227824,0.227497,-4.76525,26,0.0164777,10,-0.00108408,-2.32191,-0.392643,-0.150264,27.9575,0.227497,
2,0,0,1,0,50445.7,0.225827,0.225459,-4.82332,26,0.0164297,10,-0.00108746,-2.31665,-0.409817,-0.143967,27.0821,0.225459,
2,0,0,1,0,50445.7,0.223829,0.223431,-4.87536,26,0.0163812,10,-0.00108931,-2.31199,-0.393249,-0.150032,28.571,0.223431,
2,0,0,1,0,50445.7,0.221822,0.22151,-4.93616,26,0.0163321,10,-0.00109341,-2.30661,-0.395229,-0.14928,28.7306,0.22151,
2,0,0,1,0,50445.7,0.219825,0.219509,-4.98805,26,0.0162824,10,-0.00109492,-2.30207,-0.418115,-0.141109,27.489,0.219509,
2,0,0,1,0,50445.7,0.217827,0.217461,-5.04746,26,0.0162322,10,-0.00109763,-2.29693,-0.439672,-0.134191,26.399,0.217461,
2,0,0,1,0,50445.7,0.21583,0.215498,-5.09394,26,0.0161815,10,-0.00109773,-2.29295,-0.429291,-0.137436,27.3631,0.215498,
2,0,0,1,0,50445.7,0.213841,0.213493,-5.15603,26,0.0161307,10,-0.00110078,-2.28768,-0.419425,-0.140669,28.2737,0.213493,
2,0,0,1,0,50445.7,0.211843,0.211505,-5.20682,26,0.0160789,10,-0.00110127,-2.28343,-0.489532,-0.120523,24.4833,0.211505,
2,0,0,1,0,50445.7,0.209846,0.209467,-5.25462,26,0.0160266,10,-0.00110067,-2.27946,-0.489167,-0.120613,24.7426,0.209467,
2,0,0,1,0,50445.7,0.207848,0.207486,-5.30626,26,0.0159738,10,-0.00110098,-2.27521,-0.424513,-0.138983,28.8129,0.207486,
2,0,0,1,0,50445.8,0.20586,0.205465,-5.3699,26,0.0159209,10,-0.00110333,-2.27003,-0.453932,-0.129976,27.1942,0.205465,
2,0,0,1,0,50445.8,0.203862,0.203442,-5.41623,26,0.015867,10,-0.00110189,-2.2663,-0.526309,-0.112101,23.6945,0.203442,
2,0,0,1,0,50445.8,0.201865,0.201571,-5.46218,26,0.0158127,10,-0.00110102,-2.26263,-0.515018,-0.114559,24.4284,0.201571,
2,0,0,1,0,50445.8,0.199867,0.199528,-5.51184,26,0.0157578,10,-0.00109977,-2.2587,-0.492061,-0.119904,25.8038,0.199528,
2,0,0,1,0,50445.8,0.19786,0.197522,-5.56667,26,0.0157024,10,-0.00109954,-2.2544,-0.507917,-0.116161,25.2156,0.197522,
2,0,0,1,0,50445.8,0.195863,0.195522,-5.61287,26,0.0156465,10,-0.00109744,-2.25082,-0.523804,-0.112638,24.6885,0.195522,
2,0,0,1,0,50445.8,0.193865,0.193492,-5.66616,26,0.0155901,10,-0.00109635,-2.24671,-0.494669,-0.119272,26.3711,0.193492,
2,0,0,1,0,50445.8,0.191868,0.191529,-5.71816,26,0.0155331,10,-0.00109519,-2.24274,-0.507428,-0.116273,25.947,0.191529,
2,0,0,1,0,50445.8,0.189861,0.189482,-5.77021,26,0.0154757,10,-0.00109335,-2.23881,-0.534145,-0.110457,24.8634,0.189482,
2,0,0,1,0,50445.8,0.187863,0.18753,-5.81758,26,0.0154177,10,-0.00109097,-2.23526,-0.527218,-0.111908,25.4184,0.18753,
2,0,0,1,0,50445.9,0.185866,0.185553,-5.87007,26,0.0153593,10,-0.00108921,-2.23136,-0.519801,-0.113505,25.9994,0.185553,
2,0,0,1,0,50445.9,0.183868,0.183543,-5.92125,26,0.0153002,10,-0.0010868,-2.22759,-0.449949,-0.131126,30.3537,0.183543,
2,0,0,1,0,50445.9,0.18188,0.181496,-5.99322,26,0.0152413,10,-0.00108774,-2.22234,-0.458868,-0.128577,30.0134,0.1814957,
2,0,0,1,0,50445.9,0.179882,0.179535,-6.04154,26,0.0151811,10,-0.00108467,-2.21885,-0.548048,-0.107655,25.391,0.179535,
2,0,0,1,0,50445.9,0.177885,0.177531,-6.09389,26,0.0151204,10,-0.00108185,-2.21511,-0.482997,-0.122154,29.0792,0.177531,
2,0,0,1,0,50445.9,0.175887,0.175519,-6.15833,26,0.0150591,10,-0.0010809,-2.21054,-0.439503,-0.134243,32.2655,0.175519,
2,0,0,1,0,50445.9,0.173908,0.173504,-6.22383,26,0.0149979,10,-0.00107986,-2.20594,-0.443731,-0.132963,32.2893,0.173504,
2,0,0,1,0,50445.9,0.171901,0.171532,-6.28707,26,0.0149353,10,-0.00107843,-2.20155,-0.466947,-0.126353,30.991,0.171532,
2,0,0,1,0,50445.9,0.169903,0.16956,-6.34607,26,0.0148722,10,-0.00107604,-2.1975,-0.409707,-0.144005,35.7281,0.1695596,
2,0,0,1,0,50445.9,0.167906,0.16759,-6.4279,26,0.0148083,10,-0.00107725,-2.19193,-0.39651,-0.148798,37.2884,0.16759,
2,0,0,1,0,50446,0.165908,0.165517,-6.49679,26,0.0147437,10,-0.00107533,-2.1873,-0.407823,-0.14467,36.709,0.165517,
2,0,0,1,0,50446,0.163901,0.163552,-6.57612,26,0.0146783,10,-0.00107554,-2.18203,-0.380549,-0.155039,39.7877,0.1635523,
2,0,0,1,0,50446,0.161904,0.161533,-6.65531,26,0.0146121,10,-0.00107505,-2.17683,-0.360238,-0.163781,42.5764,0.1615334,
2,0,0,1,0,50446,0.159906,0.159546,-6.74671,26,0.0145451,10,-0.00107641,-2.17091,-0.34581,-0.170614,44.9106,0.1595457,
2,0,0,1,0,50446,0.157909,0.157529,-6.83513,26,0.0144772,10,-0.00107673,-2.16525,-0.318009,-0.185529,49.5547,0.157529,
2,0,0,1,0,50446,0.155902,0.155602,-6.94216,26,0.0144082,10,-0.00108021,-2.15851,-0.290518,-0.203086,55.0339,0.155602,
2,0,0,1,0,50446,0.153904,0.153565,-7.05329,26,0.0143382,10,-0.00108314,-2.15161,-0.287138,-0.205476,56.5805,0.153565,
2,0,0,1,0,50446,0.151907,0.151565,-7.17052,26,0.0142671,10,-0.0010868,-2.14445,-0.268382,-0.219836,61.5625,0.151565,
2,0,0,1,0,50446,0.149909,0.149572,-7.29914,26,0.0141948,10,-0.00109175,-2.13673,-0.233978,-0.252161,71.9676,0.1495717,
2,0,0,1,0,50446,0.147921,0.14758,-7.45736,26,0.0141217,10,-0.00110056,-2.12742,-0.220145,-0.268006,77.947,0.14758,
2,0,0,1,0,50446,0.145923,0.145614,-7.60764,26,0.0140464,10,-0.00110778,-2.11875,-0.208884,-0.282454,84.025,0.145614,
2,0,0,1,0,50446.1,0.143926,0.14362,-7.79008,26,0.0139694,10,-0.00111881,-2.10846,-0.191009,-0.308886,93.9796,0.14362,
2,0,0,1,0,50446.1,0.141928,0.141573,-7.98741,26,0.0138905,10,-0.0011308,-2.09759,-0.174667,-0.337785,105.468,0.141573,
2,0,0,1,0,50446.1,0.139939,0.139595,-8.21458,26,0.0138103,10,-0.00114672,-2.08541,-0.166477,-0.354404,113.574,0.139595,
2,0,0,1,0,50446.1,0.137942,0.137592,-8.43957,26,0.0137271,10,-0.00116121,-2.07368,-0.159357,-0.370239,122.212,0.137592,
2,0,0,1,0,50446.1,0.135944,0.135572,-8.70625,26,0.0136414,10,-0.00118032,-2.06017,-0.145051,-0.406753,138.272,0.135572,
2,0,0,1,0,50446.1,0.133947,0.133632,-8.98709,26,0.0135529,10,-0.00120096,-2.04638,-0.139172,-0.423934,148.907,0.133632,
2,0,0,1,0,50446.1,0.13194,0.13158,-9.30066,26,0.0134614,10,-0.00122378,-2.03149,-0.137833,-0.428054,155.354,0.13158,
2,0,0,1,0,50446.1,0.129942,0.129564,-9.6191,26,0.0133668,10,-0.00124629,-2.01687,-0.132599,-0.444952,167.192,0.129564,
2,0,0,1,0,50446.1,0.127945,0.127619,-9.96299,26,0.0132688,10,-0.00127146,-2.00161,-0.131354,-0.449169,174.62,0.1276187,
2,0,0,1,0,50446.1,0.125947,0.125597,-10.3118,26,0.0131675,10,-0.00129513,-1.98667,-0.131637,-0.448203,180.56,0.125597,
2,0,0,1,0,50446.2,0.123941,0.12359,-10.6905,26,0.0130624,10,-0.00132123,-1.971,-0.133856,-0.440772,183.606,0.12359,
2,0,0,1,0,50446.2,0.121943,0.121611,-11.0437,26,0.0129538,10,-0.00134303,-1.95688,-0.144889,-0.407209,175.337,0.121611,
2,0,0,1,0,50446.2,0.119945,0.119642,-11.3827,26,0.0128416,10,-0.00136184,-1.94376,-0.14878,-0.396558,176.354,0.119642,
2,0,0,1,0,50446.2,0.117948,0.117585,-11.7537,26,0.0127259,10,-0.00138205,-1.92983,-0.145048,-0.406761,186.591,0.117585,
2,0,0,1,0,50446.2,0.115946,0.115618,-12.1335,26,0.0126064,10,-0.00140285,-1.91601,-0.152296,-0.387404,183.128,0.115618,
2,0,0,1,0,50446.2,0.113962,0.113628,-12.4782,26,0.0124845,10,-0.00141788,-1.90385,-0.165859,-0.355724,173.163,0.113628,
2,0,0,1,0,50446.2,0.111964,0.111658,-12.8193,26,0.012358,10,-0.00143137,-1.89214,-0.176027,-0.335176,167.577,0.111658,
2,0,0,1,0,50446.2,0.109967,0.109623,-13.1494,26,0.0122281,10,-0.00144148,-1.88109,-0.185562,-0.317953,163.12,0.109623,
2,0,0,1,0,50446.2,0.107969,0.107623,-13.4774,26,0.0120949,10,-0.00145048,-1.87039,-0.19681,-0.299782,157.519,0.107623,
2,0,0,1,0,50446.2,0.10598,0.105601,-13.7829,26,0.0119599,10,-0.00145549,-1.86066,-0.204605,-0.288361,155.084,0.105601,
2,0,0,1,0,50446.3,0.103983,0.103684,-14.0883,26,0.0118205,10,-0.00146073,-1.85114,-0.219345,-0.268983,147.74,0.103684,
2,0,0,1,0,50446.3,0.101985,0.101637,-14.3686,26,0.0116782,10,-0.00146038,-1.84259,-0.245863,-0.239971,134.463,0.101637,
2,0,0,1,0,50446.3,0.0999877,0.099654,-14.6302,26,0.0115332,10,-0.00145795,-1.83475,-0.257939,-0.228736,130.566,0.099654,
2,0,0,1,0,50446.3,0.0979811,0.0976664,-14.887,26,0.0113855,10,-0.00145396,-1.82719,-0.274874,-0.214643,124.629,0.0976664,
2,0,0,1,0,50446.3,0.0959835,0.0956578,-15.1282,26,0.0112354,10,-0.00144713,-1.82021,-0.308669,-0.191143,112.72,0.0956578,
2,0,0,1,0,50446.3,0.0939859,0.0936823,-15.3361,26,0.011083,10,-0.00143672,-1.81428,-0.341355,-0.172841,103.441,0.0936823,
2,0,0,1,0,50446.3,0.0919883,0.0916426,-15.5435,26,0.0109286,10,-0.00142445,-1.80845,-0.362037,-0.162967,98.8067,0.0916426,
2,0,0,1,0,50446.3,0.0899816,0.0896306,-15.7365,26,0.0107721,10,-0.00141047,-1.80309,-0.421033,-0.140132,85.9449,0.0896306,
2,0,0,1,0,50446.3,0.087984,0.0876334,-15.8881,26,0.0106139,10,-0.00139233,-1.79893,-0.503783,-0.117114,72.587,0.0876334,
2,0,0,1,0,50446.3,0.0859865,0.0856266,-16.0271,26,0.0104544,10,-0.00137235,-1.79515,-0.577439,-0.102175,63.8643,0.0856266,
2,0,0,1,0,50446.4,0.0839889,0.083625,-16.1441,26,0.0102935,10,-0.00135005,-1.79199,-0.717482,-0.0822321,51.7619,0.083625,
2,0,0,1,0,50446.4,0.0820004,0.0816833,-16.2312,26,0.0101332,10,-0.00132582,-1.78965,-0.904355,-0.0652399,41.3112,0.08168333,
2,0,0,1,0,50446.4,0.0800028,0.0796911,-16.3066,26,0.00997044,10,-0.00129949,-1.78764,-1.24469,-0.0474015,30.1393,0.07969109,
2,0,0,1,0,50446.4,0.0780052,0.0776368,-16.3532,26,0.00980715,10,-0.00126961,-1.7864,-1.86552,-0.0316266,20.1774,0.0776368,
2,0,0,1,0,50446.4,0.0760076,0.0756398,-16.3884,26,0.00964341,10,-0.00123961,-1.78546,-3.47976,-0.0169552,10.8352,0.0756398,
2,0,0,1,0,50446.4,0.0740191,0.0736814,-16.396,26,0.00948119,10,-0.00120808,-1.78526,-25.8383,-0.00228343,1.46071,0.0736814,
2,0,0,1,0,50446.4,0.0720215,0.0716998,-16.3941,26,0.00931719,10,-0.00117546,-1.78531,7.62403,0.00773869,-4.94888,0.0716998,
2,0,0,1,0,50446.4,0.0700239,0.06968,-16.3762,26,0.00915336,10,-0.0011411,-1.78579,3.03658,0.0194297,-12.4122,0.06968002,
2,0,0,1,0,50446.4,0.0680263,0.0676342,-16.3437,26,0.00898976,10,-0.00110539,-1.78665,2.77677,0.0212477,-13.5571,0.0676342,
2,0,0,1,0,50446.4,0.0660197,0.0656569,-16.3217,26,0.00882654,10,-0.00107163,-1.78724,2.05648,0.0286898,-18.2594,0.06565693,
2,0,0,1,0,50446.5,0.0640221,0.06371,-16.272,26,0.00866356,10,-0.00103669,-1.78856,1.42636,0.041364,-26.2638,0.06371,
2,0,0,1,0,50446.5,0.0620245,0.0616798,-16.2172,26,0.00850112,10,-0.00100028,-1.79002,1.44189,0.0409185,-25.9012,0.0616798,
2,0,0,1,0,50446.5,0.0600269,0.0596548,-16.167,26,0.00833917,10,-0.000964438,-1.79137,1.46365,0.0403101,-25.4336,0.0596548,
2,0,0,1,0,50446.5,0.0580248,0.0577383,-16.117,26,0.00817776,10,-0.000930567,-1.79272,1.48044,0.0398531,-25.0671,0.0577383,
2,0,0,1,0,50446.5,0.0560227,0.0556517,-16.0666,26,0.00801678,10,-0.000894135,-1.79408,1.42132,0.0415108,-26.0249,0.0556517,
2,0,0,1,0,50446.5,0.0540251,0.0537013,-16.0119,26,0.00785641,10,-0.000859861,-1.79556,1.42967,0.0412682,-25.7938,0.0537013,
2,0,0,1,0,50446.5,0.0520275,0.0516772,-15.9641,26,0.00769652,10,-0.000824981,-1.79686,1.24595,0.0473536,-29.4813,0.0516772,
2,0,0,1,0,50446.5,0.0500299,0.0496782,-15.8933,26,0.00753724,10,-0.000789552,-1.79879,1.35776,0.043454,-26.982,0.04967824,
2,0,0,1,0,50446.5,0.0480414,0.0477008,-15.8568,26,0.00738003,10,-0.000756382,-1.79978,1.49714,0.0394085,-24.369,0.0477008,
2,0,0,1,0,50446.5,0.0460438,0.045691,-15.7961,26,0.00722181,10,-0.000721742,-1.80145,1.2518,0.0471321,-29.061,0.045691,
2,0,0,1,0,50446.6,0.0440462,0.0437298,-15.7414,26,0.00706411,10,-0.000688369,-1.80296,1.16198,0.0507755,-31.1784,0.0437298,
2,0,0,1,0,50446.6,0.0420486,0.0417042,-15.6718,26,0.0069071,10,-0.000653581,-1.80488,1.31774,0.0447736,-27.4098,0.0417042,
2,0,0,1,0,50446.6,0.0400601,0.0397121,-15.6313,26,0.00675212,10,-0.000620751,-1.80601,1.36899,0.0430974,-26.2708,0.0397121,
2,0,0,1,0,50446.6,0.0380625,0.0377001,-15.5666,26,0.0065962,10,-0.000586864,-1.8078,1.05636,0.0558521,-33.9246,0.0377001,
2,0,0,1,0,50446.6,0.036065,0.0357298,-15.4962,26,0.00644091,10,-0.000553675,-1.80977,0.978851,0.0602748,-36.4472,0.0357298,
2,0,0,1,0,50446.6,0.0340674,0.0337221,-15.4217,26,0.00628633,10,-0.000520051,-1.81187,1.12591,0.0524018,-31.5603,0.03372211,
2,0,0,1,0,50446.6,0.0320607,0.0316858,-15.3686,26,0.00613235,10,-0.000486966,-1.81337,1.03362,0.0570808,-34.2016,0.0316858,
2,0,0,1,0,50446.6,0.0300631,0.0297112,-15.2845,26,0.00597914,10,-0.00045412,-1.81575,0.892549,0.0661028,-39.4428,0.0297112,
2,0,0,1,0,50446.6,0.0280655,0.0276662,-15.21,26,0.00582663,10,-0.000420804,-1.81787,0.8833,0.066795,-39.6381,0.02766623,
2,0,0,1,0,50446.6,0.0260679,0.0257401,-15.1271,26,0.00567496,10,-0.000389373,-1.82024,0.871199,0.0677228,-39.9934,0.0257401,
2,0,0,1,0,50446.7,0.0240613,0.0237594,-15.0538,26,0.00552405,10,-0.000357669,-1.82235,0.808409,0.0729829,-42.8401,0.0237594,
2,0,0,1,0,50446.7,0.0220637,0.021711,-14.9545,26,0.00537405,10,-0.000324676,-1.82523,0.749345,0.0787354,-45.9704,0.021711,
2,0,0,1,0,50446.7,0.0200661,0.0197068,-14.8675,26,0.00522493,10,-0.000292991,-1.82776,0.680326,0.0867231,-50.2719,0.0197068,
2,0,0,1,0,50446.7,0.0180685,0.0177009,-14.7529,26,0.00507683,10,-0.000261139,-1.83112,0.690999,0.0853837,-49.2144,0.0177009,
2,0,0,1,0,50446.7,0.01608,0.0157168,-14.6711,26,0.00493119,10,-0.000230582,-1.83354,0.674421,0.0874824,-50.0314,0.0157168,
2,0,0,1,0,50446.7,0.0140824,0.0137595,-14.5557,26,0.00478511,10,-0.000200279,-1.83697,0.614242,0.0960533,-54.5866,0.0137595,
2,0,0,1,0,50446.7,0.0120848,0.0117156,-14.4527,26,0.00464006,10,-0.000169322,-1.84005,0.562327,0.104921,-59.1128,0.0117156,
2,0,0,1,0,50446.7,0.0100872,0.00973051,-14.3175,26,0.00449629,10,-0.000139317,-1.84413,0.551331,0.107014,-59.8643,0.00973051,
2,0,0,1,0,50446.7,0.00810328,0.00775816,-14.2158,26,0.00435507,10,-0.000110288,-1.84723,0.558946,0.105556,-58.5022,0.007758155,
2,0,0,1,0,50446.7,0.00610116,0.00576613,-14.0856,26,0.0042136,10,-8.12194e-05,-1.85122,0.523009,0.112809,-62.0343,0.00576613,
2,0,0,1,0,50446.8,0.00410357,0.003729,-13.9658,26,0.00407337,10,-5.20786e-05,-1.85493,0.615503,0.0958565,-52.2902,0.003729,
2,0,0,1,0,50446.8,0.00210598,0.00164935,-13.8703,26,0.00393435,10,-2.2877e-05,-1.85791,0.585085,0.10084,-54.5271,0.00164935,
2,0,0,1,0,50446.8,0.00010174,-0.000314912,-13.7453,26,0.00379624,10,4.32858e-06,-1.86184,0.487578,0.121006,-64.8963,-0.000314912,
2,0,0,1,0,50446.8,-0.00189827,-0.00229479,-13.6144,26,0.00365942,10,3.12421e-05,-1.866,0.517677,0.113971,-60.6014,-0.00229479,
2,0,0,1,0,50446.8,-0.00389586,-0.00428594,-13.5047,26,0.00352378,10,5.78804e-05,-1.86952,0.539015,0.109459,-57.6701,-0.00428594,
2,0,0,1,0,50446.8,-0.00589345,-0.0062476,-13.3864,26,0.00338935,10,8.36329e-05,-1.87334,0.53487,0.110307,-57.6411,-0.0062476,
2,0,0,1,0,50446.8,-0.00789103,-0.00827086,-13.275,26,0.00325602,10,0.000109796,-1.87697,0.589602,0.100068,-51.8686,-0.008270856,
2,0,0,1,0,50446.8,-0.0098977,-0.0102811,-13.1772,26,0.00312376,10,0.000135476,-1.88018,0.662186,0.0890989,-45.8381,-0.0102811,
2,0,0,1,0,50446.8,-0.0118953,-0.0123061,-13.09,26,0.00299241,10,0.000161087,-1.88306,0.631095,0.0934883,-47.7295,-0.0123061,
2,0,0,1,0,50446.8,-0.0138929,-0.0142703,-12.9868,26,0.00286205,10,0.000185326,-1.8865,0.660069,0.0893846,-45.3503,-0.01427035,
2,0,0,1,0,50446.9,-0.0158905,-0.0162528,-12.911,26,0.00273254,10,0.000209841,-1.88904,0.80411,0.073373,-36.9761,-0.0162528,
2,0,0,1,0,50446.9,-0.017879,-0.0182634,-12.8391,26,0.00260511,10,0.000234487,-1.89146,0.880584,0.067001,-33.5836,-0.0182634,
2,0,0,1,0,50446.9,-0.0198766,-0.02027,-12.7761,26,0.00247705,10,0.000258972,-1.8936,0.871816,0.0676748,-33.7302,-0.02027,
2,0,0,1,0,50446.9,-0.0218741,-0.0222917,-12.7033,26,0.00234972,10,0.000283177,-1.89608,1.032,0.0571703,-28.3783,-0.0222917,
2,0,0,1,0,50446.9,-0.0238717,-0.0242903,-12.662,26,0.00222292,10,0.000307564,-1.8975,1.27048,0.0464392,-22.9411,-0.0242903,
2,0,0,1,0,50446.9,-0.0258602,-0.0262338,-12.6128,26,0.00209786,10,0.000330882,-1.89919,1.35688,0.0434819,-21.4147,-0.0262338,
2,0,0,1,0,50446.9,-0.0278578,-0.0282692,-12.5768,26,0.00197194,10,0.000355537,-1.90043,1.4338,0.0411494,-20.1905,-0.0282692,
2,0,0,1,0,50446.9,-0.0298554,-0.0302308,-12.5321,26,0.00184642,10,0.000378857,-1.90198,1.81141,0.0325713,-15.9469,-0.0302308,
2,0,0,1,0,50446.9,-0.031853,-0.0322359,-12.5136,26,0.0017212,10,0.000403386,-1.90262,2.60787,0.0226238,-11.0454,-0.0322359,
2,0,0,1,0,50446.9,-0.0338597,-0.0342695,-12.4875,26,0.00159624,10,0.000427941,-1.90352,3.10988,0.0189718,-9.25137,-0.03426953,
2,0,0,1,0,50447,-0.0358573,-0.0362624,-12.4763,26,0.00147142,10,0.000452422,-1.90391,3.84704,0.0153365,-7.46544,-0.0362624,
2,0,0,1,0,50447,-0.0378548,-0.0381963,-12.4582,26,0.0013467,10,0.000475857,-1.90454,5.10136,0.0115655,-5.62634,-0.0381963,
2,0,0,1,0,50447,-0.0398524,-0.0402473,-12.4539,26,0.00122207,10,0.000501237,-1.90469,-25.3552,-0.00232694,1.13158,-0.0402473,
2,0,0,1,0,50447,-0.0418591,-0.0422324,-12.4628,26,0.0010975,10,0.000526333,-1.90439,-4.36634,-0.0135125,6.57452,-0.0422324,
2,0,0,1,0,50447,-0.0438567,-0.0442644,-12.4803,26,0.000972788,10,0.000552433,-1.90377,-16.6279,-0.00354826,1.72629,-0.04426435,
2,0,0,1,0,50447,-0.0458543,-0.0462356,-12.4697,26,0.000848036,10,0.000576543,-1.90414,-6.23231,-0.00946679,4.61435,-0.04623555,
2,0,0,1,0,50447,-0.0478519,-0.0482276,-12.4986,26,0.00072318,10,0.000602777,-1.90314,-2.33048,-0.0253167,12.3447,-0.0482276,
2,0,0,1,0,50447,-0.0498585,-0.0502213,-12.5189,26,0.000598132,10,0.000628715,-1.90243,-2.18416,-0.0270127,13.2042,-0.05022132,
2,0,0,1,0,50447,-0.051838,-0.0522309,-12.5515,26,0.000474006,10,0.000655575,-1.90131,-2.84269,-0.020755,10.1567,-0.0522309,
2,0,0,1,0,50447,-0.0538355,-0.0542017,-12.5593,26,0.000348485,10,0.000680736,-1.90103,-2.09272,-0.028193,13.8404,-0.0542017,
2,0,0,1,0,50447.1,-0.0558331,-0.0562051,-12.6065,26,0.000222617,10,0.000708547,-1.89941,-1.60485,-0.0367636,18.0713,-0.0562051,
2,0,0,1,0,50447.1,-0.0578126,-0.0581894,-12.6314,26,9.76904e-05,10,0.000735012,-1.89855,-1.56354,-0.037735,18.6201,-0.0581894,
2,0,0,1,0,50447.1,-0.0598192,-0.0602101,-12.681,26,-2.89037e-05,10,0.000763527,-1.89684,-1.36924,-0.0430897,21.3134,-0.0602101,
2,0,0,1,0,50447.1,-0.0618168,-0.0621978,-12.7168,26,-0.000155886,10,0.000790957,-1.89562,-1.311,-0.0450037,22.3504,-0.06219776,
2,0,0,1,0,50447.1,-0.0638144,-0.0641889,-12.77,26,-0.000283346,10,0.000819691,-1.89381,-1.29738,-0.0454762,22.6502,-0.0641889,
2,0,0,1,0,50447.1,-0.065812,-0.066207,-12.8076,26,-0.000411245,10,0.000847954,-1.89253,-1.15056,-0.0512793,25.6608,-0.066207,
2,0,0,1,0,50447.1,-0.0678187,-0.0682701,-12.8747,26,-0.000539699,10,0.000878957,-1.89026,-1.04497,-0.0564612,28.3477,-0.0682701,
2,0,0,1,0,50447.1,-0.0698163,-0.0702491,-12.9222,26,-0.000668728,10,0.000907774,-1.88866,-1.07315,-0.0549784,27.7403,-0.07024914,
2,0,0,1,0,50447.1,-0.0718138,-0.07217,-12.9829,26,-0.000798293,10,0.000936975,-1.88663,-0.967234,-0.0609987,30.9061,-0.07217,
2,0,0,1,0,50447.1,-0.0738114,-0.074162,-13.0431,26,-0.000928459,10,0.000967305,-1.88462,-0.852246,-0.0692288,35.2684,-0.074162,
2,0,0,1,0,50447.2,-0.0758181,-0.0761957,-13.1249,26,-0.00105937,10,0.00100006,-1.88191,-0.919054,-0.0641964,32.8447,-0.0761957,
2,0,0,1,0,50447.2,-0.0778157,-0.0782172,-13.1763,26,-0.00119093,10,0.00103062,-1.88021,-0.869964,-0.0678189,34.9233,-0.0782172,
2,0,0,1,0,50447.2,-0.0798133,-0.080204,-13.2648,26,-0.00132316,10,0.00106389,-1.8773,-0.779691,-0.075671,39.1437,-0.08020404,
2,0,0,1,0,50447.2,-0.0818109,-0.0822273,-13.3333,26,-0.00145618,10,0.00109636,-1.87506,-0.745092,-0.0791849,41.247,-0.0822273,
2,0,0,1,0,50447.2,-0.0837994,-0.0842006,-13.4297,26,-0.00158867,10,0.00113079,-1.87193,-0.715203,-0.0824941,43.2001,-0.0842006,
2,0,0,1,0,50447.2,-0.085797,-0.0861722,-13.5037,26,-0.00172329,10,0.00116364,-1.86955,-0.733387,-0.0804487,42.4315,-0.0861722,
2,0,0,1,0,50447.2,-0.0877945,-0.0882153,-13.6,26,-0.00185878,10,0.00119973,-1.86646,-0.705661,-0.0836096,44.3511,-0.0882153,
2,0,0,1,0,50447.2,-0.0897921,-0.0901646,-13.6808,26,-0.00199517,10,0.00123352,-1.86389,-0.678628,-0.0869401,46.4564,-0.0901646,
2,0,0,1,0,50447.2,-0.0917806,-0.0921753,-13.784,26,-0.00213108,10,0.00127054,-1.86062,-0.672061,-0.0877897,47.1955,-0.0921753,
2,0,0,1,0,50447.2,-0.0937782,-0.094169,-13.8698,26,-0.00226938,10,0.0013061,-1.85793,-0.66847,-0.0882613,47.8105,-0.094169,
2,0,0,1,0,50447.3,-0.0957758,-0.0962001,-13.9764,26,-0.00240865,10,0.00134453,-1.8546,-0.640871,-0.0920623,50.1951,-0.0962001,
2,0,0,1,0,50447.3,-0.0977734,-0.0981973,-14.072,26,-0.0025489,10,0.00138183,-1.85164,-0.609339,-0.0968262,53.2073,-0.0981973,
2,0,0,1,0,50447.3,-0.0997412,-0.100117,-14.1848,26,-0.00268733,10,0.00142015,-1.84818,0.109812,0.537281,-289.162,-0.100117,
2,0,0,1,1,50447.3,-0.0996711,-0.100132,-13.5125,26,-0.00272904,10,0.00135304,-1.86926,-0.0173346,-3.4036,1648.25,-0.100132,
2,0,0,1,1,50447.3,-0.0976826,-0.0980556,-10.7871,26,-0.00284772,10,0.00105774,-1.9671,-0.0221963,-2.6581,1144.16,-0.0980556,
2,0,0,1,1,50447.3,-0.095685,-0.0960753,-8.8709,26,-0.00294544,10,0.000852274,-2.05203,-0.0232629,-2.53622,882.516,-0.0960753,
2,0,0,1,1,50447.3,-0.0936874,-0.0940759,-7.27495,26,-0.00302573,10,0.000684397,-2.13817,-0.0225803,-2.61289,743.318,-0.0940759,
2,0,0,1,1,50447.3,-0.0916898,-0.0920892,-5.90798,26,-0.00309133,10,0.000544062,-2.22856,-0.0208887,-2.82449,649.399,-0.0920892,
2,0,0,1,1,50447.3,-0.0897013,-0.0901034,-4.69523,26,-0.00314349,10,0.000423056,-2.32834,-0.0185486,-3.18083,578.56,-0.0901034,
2,0,0,1,1,50447.3,-0.0877037,-0.0881045,-3.60256,26,-0.00318474,10,0.000317401,-2.44339,-0.0155405,-3.79654,525.245,-0.0881045,
2,0,0,1,1,50447.4,-0.0857062,-0.0861142,-2.5999,26,-0.00321553,10,0.000223888,-2.58504,-0.0122253,-4.82604,478.332,-0.0861142,
2,0,0,1,1,50447.4,-0.0837086,-0.0841473,-1.70973,26,-0.00323689,10,0.000143869,-2.76707,-0.00838032,-7.0403,432.876,-0.0841473,
2,0,0,1,1,50447.4,-0.0817019,-0.0821032,-0.863659,26,-0.00324953,10,7.09092e-05,-3.06366,-0.00326958,-18.0451,397.861,-0.0821032,
2,0,0,1,1,50447.4,-0.0797043,-0.0800982,-0.0987436,26,-0.0032542,10,7.90918e-06,-4.00549,-0.0265504,-2.22218,369.125,-0.0800982,
2,1,0,1,1,50447.4,-0.0777067,-0.0781088,0.610793,26,-0.00325148,10,-4.77083e-05,-3.21411,0.00360979,16.3444,339.963,-0.0781088,
2,1,0,1,1,50447.4,-0.0757091,-0.0761098,1.25716,26,-0.00324203,10,-9.56823e-05,-2.90061,0.00822963,7.16921,316.571,-0.0761098,
2,1,0,1,1,50447.4,-0.0737025,-0.074077,1.88714,26,-0.00322617,10,-0.000139793,-2.7242,0.0138145,4.27088,297.74,-0.074077,
2,1,0,1,1,50447.4,-0.0717049,-0.0721154,2.44647,26,-0.00320443,10,-0.000176428,-2.61146,0.0199849,2.95223,275.456,-0.0721154,
2,1,0,1,1,50447.4,-0.0697073,-0.0701207,2.97692,26,-0.0031772,10,-0.000208744,-2.52623,0.0260513,2.26476,258.999,-0.07012073,
2,1,0,1,1,50447.4,-0.0677097,-0.0681478,3.47406,26,-0.0031449,10,-0.00023675,-2.45916,0.0325494,1.81263,243.42,-0.0681478,
2,1,0,1,1,50447.5,-0.0657212,-0.0661193,3.95094,26,-0.00310807,10,-0.000261233,-2.4033,0.0405237,1.45594,221.882,-0.0661193,
2,1,0,1,1,50447.5,-0.0637236,-0.0641096,4.37007,26,-0.00306644,10,-0.000280163,-2.35951,0.0476001,1.23949,210.736,-0.0641096,
2,1,0,1,1,50447.5,-0.061726,-0.0621436,4.78876,26,-0.00302055,10,-0.000297591,-2.31978,0.0545075,1.08242,200.928,-0.0621436,
2,1,0,1,1,50447.5,-0.0597284,-0.0601537,5.16491,26,-0.00297071,10,-0.000310689,-2.28694,0.0638652,0.923821,185.689,-0.0601537,
2,1,0,1,1,50447.5,-0.0577399,-0.0581538,5.52962,26,-0.00291774,10,-0.000321569,-2.2573,0.0736975,0.80057,171.94,-0.0581538,
2,1,0,1,1,50447.5,-0.0557423,-0.0561349,5.8559,26,-0.00286077,10,-0.000328721,-2.23241,0.0838685,0.703483,160.576,-0.0561349,
2,1,0,1,1,50447.5,-0.0537448,-0.0541039,6.17995,26,-0.00280051,10,-0.000334359,-2.20902,0.0939662,0.627885,150.733,-0.05410387,
2,1,0,1,1,50447.5,-0.0517472,-0.0521509,6.45643,26,-0.00273725,10,-0.000336709,-2.19001,0.102844,0.573684,144.683,-0.0521509,
2,1,0,1,1,50447.5,-0.049745,-0.0501432,6.75298,26,-0.00267114,10,-0.000338616,-2.1705,0.114024,0.517436,135.8,-0.0501432,
2,1,0,1,1,50447.5,-0.0477429,-0.0481443,7.00053,26,-0.00260236,10,-0.000337035,-2.15487,0.131182,0.449755,122.758,-0.0481443,
2,1,0,1,1,50447.6,-0.0457453,-0.0461748,7.24014,26,-0.00253106,10,-0.000334312,-2.14025,0.145668,0.405031,114.2,-0.0461748,
2,1,0,1,1,50447.6,-0.0437477,-0.0441785,7.45343,26,-0.00245756,10,-0.000329281,-2.12764,0.159304,0.37036,107.771,-0.0441785,
2,1,0,1,1,50447.6,-0.0417501,-0.0421274,7.67633,26,-0.00238186,10,-0.000323384,-2.11485,0.172254,0.342518,102.351,-0.0421274,
2,1,0,1,1,50447.6,-0.0397435,-0.0401701,7.86368,26,-0.0023041,10,-0.000315885,-2.10437,0.195222,0.30222,92.697,-0.0401701,
2,1,0,1,1,50447.6,-0.0377459,-0.0381503,8.04499,26,-0.00222451,10,-0.000306919,-2.09447,0.215593,0.273664,85.835,-0.0381503,
2,1,0,1,1,50447.6,-0.0357483,-0.0361071,8.21243,26,-0.0021432,10,-0.000296527,-2.08553,0.2337,0.25246,80.8686,-0.0361071,
2,1,0,1,1,50447.6,-0.0337507,-0.0340986,8.37265,26,-0.0020602,10,-0.000285496,-2.07714,0.251733,0.234375,76.4905,-0.0340986,
2,1,0,1,1,50447.6,-0.0317622,-0.0321614,8.51424,26,-0.00197659,10,-0.00027383,-2.06985,0.275072,0.214489,71.2666,-0.0321614,
2,1,0,1,1,50447.6,-0.0297646,-0.030119,8.65626,26,-0.00189072,10,-0.000260718,-2.06267,0.313917,0.187948,63.3809,-0.030119,
2,1,0,1,1,50447.6,-0.027767,-0.0281459,8.76875,26,-0.00180362,10,-0.000246804,-2.05706,0.345073,0.170978,58.5247,-0.0281459,
2,1,0,1,1,50447.7,-0.0257694,-0.026191,8.88615,26,-0.00171531,10,-0.000232737,-2.05129,0.373565,0.157938,54.718,-0.026191,
2,1,0,1,1,50447.7,-0.0237809,-0.0241619,8.98674,26,-0.00162684,10,-0.000217137,-2.0464,0.405704,0.145426,51.0163,-0.0241619,
2,1,0,1,1,50447.7,-0.0217833,-0.0221508,9.09226,26,-0.00153641,10,-0.000201401,-2.04133,0.465193,0.126829,44.9273,-0.0221508,
2,1,0,1,1,50447.7,-0.0197858,-0.0201449,9.16721,26,-0.00144512,10,-0.000184673,-2.03776,0.530614,0.111192,39.7977,-0.02014491,
2,1,0,1,1,50447.7,-0.0177882,-0.0181772,9.2504,26,-0.00135301,10,-0.000168146,-2.03384,0.532708,0.110755,39.9669,-0.0181772,
2,1,0,1,1,50447.7,-0.0157815,-0.0161704,9.32606,26,-0.00126012,10,-0.000150806,-2.0303,0.593221,0.099457,36.1881,-0.0161704,
2,1,0,1,1,50447.7,-0.0137839,-0.0141419,9.39643,26,-0.0011665,10,-0.000132884,-2.02704,0.751585,0.0785008,28.7472,-0.0141419,
2,1,0,1,1,50447.7,-0.0117863,-0.0121768,9.44087,26,-0.00107236,10,-0.00011496,-2.02499,0.767974,0.0768256,28.3418,-0.0121768,
2,1,0,1,1,50447.7,-0.00978874,-0.0101596,9.5093,26,-0.000977595,10,-9.6611e-05,-2.02185,0.771771,0.0764476,28.3377,-0.0101596,
2,1,0,1,1,50447.7,-0.00778208,-0.00812857,9.55558,26,-0.000882301,10,-7.76732e-05,-2.01974,0.990359,0.0595743,22.2113,-0.00812857,
2,1,0,1,1,50447.8,-0.00578449,-0.00619554,9.59735,26,-0.000786534,10,-5.94608e-05,-2.01785,1.20506,0.0489602,18.3276,-0.00619554,
2,1,0,1,1,50447.8,-0.0037869,-0.00417402,9.62806,26,-0.000690402,10,-4.01878e-05,-2.01646,1.16235,0.0507591,19.0882,-0.00417402,
2,1,0,1,1,50447.8,-0.00178931,-0.00216378,9.6743,26,-0.000593876,10,-2.09331e-05,-2.01438,1.61067,0.0366307,13.8009,-0.00216378,
2,1,0,1,1,50447.8,-2.55332e-05,-0.000439847,9.6796,26,-0.000509663,10,-4.25755e-06,-2.01414, , , ,-0.000439847,