File: Figure_codes/Fig_3-5/rawdata_trumpetplot_data/after 10th/20221101_1-115_003_TrumpetPlot_ParaChange_from10_every3_12_CV_C01_31.csv
mode,ox/red,error,control changes,counter inc.,time/s,control/V,Ewe/V,<I>/mA,cycle number,(Q-Qo)/C,I Range,P/W,log(|I|),Tafel slope mV/dec,alpha_eff,dI/d(E-IR),E-IR/V,
2,1,0,1,0,62270.6,2.44065e-05,-0.000401673,13.1727,32,0.0000000E+000,10,-5.29111e-06,-1.88033, , , ,-0.000401673,
2,1,0,1,0,62270.6,0.00200257,0.00159613,13.9891,32,4.2451e-05,10,2.23285e-05,-1.85421, , , ,0.00159613,
2,1,0,1,0,62270.6,0.004408,0.00402977,14.6923,32,9.99347e-05,10,5.92065e-05,-1.83291, , , ,0.00402977,
2,1,0,1,0,62270.6,0.0068051,0.00643477,15.2681,32,0.000159948,10,9.82466e-05,-1.81622,0.145599,0.405222,238.929,0.006434768,
2,1,0,1,0,62270.6,0.00920221,0.00883023,15.8013,32,0.000222164,10,0.000139529,-1.80131,0.168056,0.351073,215.112,0.008830227,
2,1,0,1,0,62270.6,0.0115993,0.0112066,16.2854,32,0.000286394,10,0.000182503,-1.7882,0.186621,0.31615,200.01,0.0112066,
2,1,0,1,0,62270.6,0.0140075,0.0136095,16.753,32,0.000352521,10,0.000228,-1.77591,0.204515,0.288487,187.863,0.0136095,
2,1,0,1,0,62270.6,0.0164046,0.0160484,17.1909,32,0.000420452,10,0.000275887,-1.7647,0.220568,0.267491,178.857,0.0160484,
2,1,0,1,0,62270.6,0.0188017,0.0184205,17.603,32,0.000490086,10,0.000324257,-1.75441,0.239057,0.246803,169.084,0.01842054,
2,1,0,1,0,62270.6,0.0212099,0.0208468,18.0096,32,0.000561352,10,0.000375441,-1.7445,0.25556,0.230865,161.774,0.0208468,
2,1,0,1,0,62270.6,0.023607,0.023239,18.3812,32,0.00063417,10,0.000427162,-1.73563,0.270945,0.217756,155.875,0.02323903,
2,1,0,1,0,62270.6,0.0260041,0.0256334,18.7415,32,0.000708451,10,0.00048041,-1.7272,0.287109,0.205497,150.147,0.0256334,
2,1,0,1,0,62270.6,0.0284012,0.028031,19.101,32,0.000784161,10,0.000535421,-1.71894,0.30167,0.195578,145.558,0.028031,
2,1,0,1,0,62270.6,0.0308067,0.0304572,19.4525,32,0.000861306,10,0.00059247,-1.71102,0.317969,0.185552,140.542,0.0304572,
2,1,0,1,0,62270.6,0.0332038,0.0328209,19.7759,32,0.000939789,10,0.000649063,-1.70386,0.332644,0.177367,136.705,0.0328209,
2,1,0,1,0,62270.6,0.0356009,0.0352259,20.0897,32,0.00101955,10,0.000707676,-1.69703,0.349568,0.16878,132.264,0.0352259,
2,1,0,1,0,62270.6,0.0380091,0.0376192,20.4118,32,0.00110058,10,0.000767875,-1.69012,0.361386,0.16326,129.932,0.0376192,
2,1,0,1,0,62270.6,0.0404062,0.0400422,20.7203,32,0.00118286,10,0.000829687,-1.6836,0.373207,0.158089,127.679,0.0400422,
2,1,0,1,0,62270.6,0.0428033,0.0424091,21.0217,32,0.00126638,10,0.000891512,-1.67733,0.392287,0.1504,123.251,0.0424091,
2,1,0,1,0,62270.6,0.0452032,0.0447939,21.3113,32,0.00135107,10,0.000954617,-1.67139,0.405762,0.145405,120.845,0.0447939,
2,1,0,1,0,62270.6,0.0476058,0.0472222,21.5954,32,0.00143694,10,0.00101978,-1.66564,0.42011,0.14044,118.309,0.0472222,
2,1,0,1,0,62270.6,0.0500029,0.0496453,21.8808,32,0.00152394,10,0.00108628,-1.65994,0.42165,0.139926,119.493,0.0496453,
2,1,0,1,0,62270.7,0.0524,0.0520259,22.1595,32,0.00161204,10,0.00115287,-1.65444,0.434623,0.13575,117.383,0.0520259,
2,1,0,1,0,62270.7,0.0548082,0.0544245,22.4621,32,0.00170131,10,0.00122249,-1.64855,0.446417,0.132164,115.695,0.0544245,
2,1,0,1,0,62270.7,0.0572053,0.0568656,22.7273,32,0.00179171,10,0.0012924,-1.64345,0.451888,0.130563,115.726,0.05686558,
2,1,0,1,0,62270.7,0.0596024,0.0592271,22.9893,32,0.00188317,10,0.00136159,-1.63847,0.473308,0.124655,111.877,0.0592271,
2,1,0,1,0,62270.7,0.0620051,0.0616448,23.2727,32,0.00197572,10,0.00143464,-1.63315,0.470537,0.125389,113.866,0.06164483,
2,1,0,1,0,62270.7,0.0644077,0.0640604,23.5401,32,0.00206937,10,0.00150799,-1.62819,0.476397,0.123846,113.737,0.0640604,
2,1,0,1,0,62270.7,0.0668048,0.0664474,23.8184,32,0.00216411,10,0.00158267,-1.62309,0.487862,0.120936,112.368,0.0664474,
2,1,0,1,0,62270.7,0.0692019,0.0688418,24.0829,32,0.00225994,10,0.00165791,-1.61829,0.491933,0.119935,112.691,0.0688418,
2,1,0,1,0,62270.7,0.0716074,0.0712468,24.3516,32,0.00235683,10,0.00173497,-1.61347,0.5029,0.11732,111.477,0.07124681,
2,1,0,1,0,62270.7,0.0740045,0.073638,24.6195,32,0.0024548,10,0.00181293,-1.60872,0.505379,0.116744,112.159,0.073638,
2,1,0,1,0,62270.7,0.0764016,0.076007,24.884,32,0.00255384,10,0.00189136,-1.60408,0.505982,0.116605,113.271,0.076007,
2,1,0,1,0,62270.7,0.0788042,0.0784374,25.1591,32,0.00265396,10,0.00197342,-1.5993,0.517188,0.114078,111.984,0.0784374,
2,1,0,1,0,62270.7,0.0812069,0.0808371,25.4379,32,0.00275519,10,0.00205633,-1.59452,0.520373,0.11338,112.493,0.0808371,
2,1,0,1,0,62270.7,0.083604,0.0832326,25.6939,32,0.00285746,10,0.00213857,-1.59017,0.520902,0.113265,113.602,0.0832326,
2,1,0,1,0,62270.7,0.0860011,0.0856546,25.9693,32,0.00296081,10,0.00222439,-1.58554,0.530167,0.111286,112.806,0.0856546,
2,1,0,1,0,62270.7,0.0884065,0.0880182,26.2475,32,0.00306527,10,0.00231026,-1.58091,0.523656,0.112669,115.392,0.0880182,
2,1,0,1,0,62270.7,0.0908036,0.0903956,26.5162,32,0.00317082,10,0.00239695,-1.57649,0.533084,0.110677,114.519,0.0903956,
2,1,0,1,0,62270.7,0.0932007,0.0928081,26.7988,32,0.00327749,10,0.00248715,-1.57188,0.540726,0.109112,114.087,0.0928081,
2,1,0,1,0,62270.7,0.0956034,0.095212,27.0638,32,0.00338523,10,0.0025768,-1.56761,0.540565,0.109145,115.282,0.095212,
2,1,0,1,0,62270.7,0.098006,0.0976202,27.343,32,0.00349407,10,0.00266923,-1.56315,0.553062,0.106679,113.833,0.0976202,
2,1,0,1,0,62270.7,0.100403,0.0999679,27.6197,32,0.00360401,10,0.00276108,-1.55878,0.546406,0.107978,116.393,0.0999679,
2,1,0,1,0,62270.7,0.1028,0.10241,27.8918,32,0.00371506,10,0.0028564,-1.55452,0.555977,0.106119,115.524,0.10241,
2,1,0,1,0,62270.7,0.105208,0.104836,28.184,32,0.00382724,10,0.00295471,-1.55,0.564629,0.104493,114.868,0.104836,
2,1,0,1,0,62270.7,0.107606,0.107227,28.4529,32,0.00394053,10,0.00305093,-1.54587,0.563502,0.104702,116.247,0.107227,
2,1,0,1,0,62270.7,0.110003,0.109567,28.7223,32,0.00405489,10,0.00314701,-1.54178,0.570107,0.103489,116.053,0.109567,
2,1,0,1,0,62270.8,0.112408,0.112051,29.0126,32,0.00417037,10,0.0032509,-1.53741,0.565063,0.104413,118.243,0.112051,
2,1,0,1,0,62270.8,0.114805,0.114378,29.2914,32,0.00428702,10,0.00335028,-1.53326,0.563946,0.10462,119.606,0.114378,
2,1,0,1,0,62270.8,0.117202,0.116835,29.5888,32,0.00440481,10,0.003457,-1.52887,0.561586,0.10506,121.316,0.116835,
2,1,0,1,0,62270.8,0.119599,0.119184,29.8725,32,0.00452376,10,0.00356031,-1.52473,0.560293,0.105302,122.782,0.119184,
2,1,0,1,0,62270.8,0.122008,0.121601,30.1712,32,0.00464389,10,0.00366885,-1.52041,0.564455,0.104526,123.093,0.121601,
2,1,0,1,0,62270.8,0.124405,0.123976,30.4698,32,0.00476518,10,0.00377751,-1.51613,0.561075,0.105155,125.054,0.123976,
2,1,0,1,0,62270.8,0.126802,0.126421,30.7688,32,0.00488769,10,0.00388982,-1.51189,0.562366,0.104914,125.997,0.126421,
2,1,0,1,0,62270.8,0.129207,0.128839,31.0799,32,0.00501141,10,0.00400429,-1.50752,0.566777,0.104097,126.231,0.128839,
2,1,0,1,0,62270.8,0.131604,0.131211,31.3819,32,0.00513637,10,0.00411764,-1.50332,0.56644,0.104159,127.521,0.131211,
2,1,0,1,0,62270.8,0.134001,0.133573,31.6813,32,0.00526254,10,0.00423178,-1.4992,0.55005,0.107263,132.742,0.133573,
2,1,0,1,0,62270.8,0.136399,0.135916,31.9796,32,0.00538988,10,0.00434653,-1.49513,0.540707,0.109116,136.401,0.1359157,
2,1,0,1,0,62270.8,0.138807,0.138395,32.3484,32,0.00551858,10,0.00447686,-1.49015,0.530167,0.111286,140.513,0.138395,
2,1,0,1,0,62270.8,0.141204,0.140784,32.6877,32,0.00564869,10,0.00460191,-1.48562,0.520442,0.113365,144.573,0.140784,
2,1,0,1,0,62270.8,0.143601,0.1432,33.0339,32,0.00578016,10,0.00473045,-1.48104,0.536585,0.109955,141.728,0.1432,
2,1,0,1,0,62270.8,0.146009,0.145635,33.3848,32,0.00591303,10,0.00486201,-1.47645,0.542176,0.108821,141.699,0.145635,
2,1,0,1,0,62270.8,0.148406,0.148046,33.7162,32,0.00604725,10,0.00499154,-1.47216,0.55315,0.106662,140.298,0.148046,
2,1,0,1,0,62270.8,0.150803,0.150409,34.0516,32,0.00618283,10,0.00512168,-1.46786,0.566065,0.104228,138.476,0.150409,
2,1,0,1,0,62270.8,0.153206,0.152813,34.3827,32,0.00631973,10,0.00525414,-1.46366,0.578158,0.102048,136.883,0.152813,
2,1,0,1,0,62270.8,0.155606,0.155199,34.7092,32,0.00645794,10,0.00538684,-1.45956,0.593626,0.0993892,134.575,0.155199,
2,1,0,1,0,62270.8,0.158003,0.157661,35.0325,32,0.00659746,10,0.00552327,-1.45553,0.602253,0.0979654,133.899,0.157661,
2,1,0,1,0,62270.8,0.1604,0.160026,35.3458,32,0.00673823,10,0.00565625,-1.45166,0.621515,0.0949293,130.909,0.160026,
2,1,0,1,0,62270.8,0.162808,0.162421,35.6691,32,0.00688029,10,0.0057934,-1.44771,0.644109,0.0915993,127.41,0.162421,
2,1,0,1,0,62270.8,0.165205,0.164819,35.9685,32,0.0070236,10,0.0059283,-1.44408,0.660485,0.0893283,125.312,0.1648192,
2,1,0,1,0,62270.8,0.167603,0.167268,36.2564,32,0.00716807,10,0.00606452,-1.44062,0.700619,0.0842113,119.097,0.1672677,
2,1,0,1,0,62270.8,0.170008,0.169643,36.5509,32,0.00731371,10,0.00620061,-1.4371,0.727541,0.081095,115.586,0.169643,
2,1,0,1,0,62270.9,0.172405,0.172026,36.8131,32,0.00746048,10,0.00633279,-1.434,0.761278,0.0775013,111.262,0.172026,
2,1,0,1,0,62270.9,0.174802,0.174434,37.0798,32,0.0076083,10,0.00646798,-1.43086,0.827248,0.0713208,103.117,0.1744339,
2,1,0,1,0,62270.9,0.177199,0.176824,37.3197,32,0.00775713,10,0.00659902,-1.42806,0.882719,0.0668389,97.2432,0.176824,
2,1,0,1,0,62270.9,0.179607,0.179301,37.5468,32,0.00790689,10,0.00673219,-1.42543,0.979569,0.0602306,88.1508,0.179301,
2,1,0,1,0,62270.9,0.182005,0.181652,37.7492,32,0.00805749,10,0.00685722,-1.42309,1.08505,0.0543756,80.0082,0.1816521,
2,1,0,1,0,62270.9,0.184402,0.184031,37.9258,32,0.00820886,10,0.00697951,-1.42107,1.23284,0.0478571,70.7539,0.184031,
2,1,0,1,0,62270.9,0.18681,0.18642,38.0874,32,0.00836088,10,0.00710024,-1.41922,1.50347,0.0392427,58.239,0.18642,
2,1,0,1,0,62270.9,0.189207,0.18882,38.2204,32,0.00851351,10,0.00721679,-1.41771,1.88027,0.0313785,46.7181,0.18882,
2,1,0,1,0,62270.9,0.191604,0.191216,38.3062,32,0.00866657,10,0.00732474,-1.41673,2.51535,0.023456,35.0199,0.191216,
2,1,0,1,0,62270.9,0.194001,0.193629,38.3742,32,0.00881993,10,0.00743038,-1.41596,3.92549,0.01503,22.4822,0.193629,
2,1,0,1,0,62270.9,0.196407,0.196056,38.4248,32,0.00897355,10,0.0075334,-1.41539,7.66888,0.00769343,11.5181,0.196056,
2,1,0,1,0,62270.9,0.198804,0.198411,38.436,32,0.00912728,10,0.00762611,-1.41526,-1039.41,-5.67632e-05,-0.0850092,0.198411,
2,1,0,1,0,62270.9,0.201201,0.200849,38.4171,32,0.009281,10,0.00771602,-1.41548,-6.14207,-0.00960588,-14.3792,0.200849,
2,1,0,1,0,62270.9,0.203609,0.20319,38.3734,32,0.00943457,10,0.0077971,-1.41597,-3.48585,-0.0169256,-25.3084,0.20319,
2,1,0,1,0,62270.9,0.206006,0.205617,38.2874,32,0.00958788,10,0.00787254,-1.41694,-2.2924,-0.0257372,-38.4021,0.205617,
2,1,0,1,0,62270.9,0.208403,0.208036,38.1924,32,0.00974084,10,0.00794539,-1.41802,-1.74255,-0.0338584,-50.3844,0.208036,
2,1,0,1,0,62270.9,0.210803,0.210455,38.0482,32,0.00989332,10,0.00800743,-1.41967,-1.39987,-0.0421467,-62.4812,0.210455,
2,1,0,1,0,62270.9,0.213206,0.212837,37.8874,32,0.0100452,10,0.00806382,-1.42151,-1.13751,-0.0518678,-76.5659,0.212837,
2,1,0,1,0,62270.9,0.215603,0.215242,37.686,32,0.0101963,10,0.0081116,-1.42382,-1.0183,-0.05794,-85.1029,0.215242,
2,1,0,1,0,62270.9,0.218,0.217613,37.4591,32,0.0103466,10,0.00815158,-1.42644,-0.888276,-0.0664208,-96.9912,0.217613,
2,1,0,1,0,62270.9,0.220408,0.220109,37.2266,32,0.010496,10,0.00819391,-1.42915,-0.788367,-0.0748383,-108.54,0.220109,
2,1,0,1,0,62270.9,0.222805,0.222503,36.9498,32,0.0106443,10,0.00822145,-1.43239,-0.720835,-0.0818495,-117.834,0.2225032,
2,1,0,1,0,62270.9,0.225202,0.224849,36.6432,32,0.0107914,10,0.00823919,-1.43601,-0.643276,-0.091718,-131.001,0.224849,
2,1,0,1,0,62270.9,0.227605,0.227247,36.3238,32,0.0109373,10,0.0082545,-1.43981,-0.602882,-0.0978632,-138.566,0.227247,
2,1,0,1,0,62270.9,0.230008,0.229653,35.9763,32,0.0110819,10,0.00826207,-1.44398,-0.567369,-0.103989,-145.853,0.229653,
2,1,0,1,0,62271,0.232405,0.232106,35.6192,32,0.0112251,10,0.00826743,-1.44832,-0.536391,-0.109994,-152.757,0.232106,
2,1,0,1,0,62271,0.234802,0.234444,35.2437,32,0.0113668,10,0.00826269,-1.45292,-0.509602,-0.115777,-159.078,0.234444,
2,1,0,1,0,62271,0.237207,0.236855,34.8562,32,0.0115069,10,0.00825587,-1.45772,-0.484129,-0.121868,-165.617,0.236855,
2,1,0,1,0,62271,0.239604,0.23926,34.4481,32,0.0116455,10,0.00824205,-1.46283,-0.469428,-0.125685,-168.87,0.23926,
2,1,0,1,0,62271,0.242001,0.241664,34.0363,32,0.0117824,10,0.00822533,-1.46806,-0.456537,-0.129234,-171.608,0.241664,
2,1,0,1,0,62271,0.244404,0.244036,33.624,32,0.0119177,10,0.00820546,-1.47335,-0.445558,-0.132418,-173.675,0.2440358,
2,1,0,1,0,62271,0.246807,0.246465,33.207,32,0.0120513,10,0.00818437,-1.47877,-0.434166,-0.135893,-176.005,0.246465,
2,1,0,1,0,62271,0.249204,0.248869,32.7792,32,0.0121833,10,0.00815773,-1.4844,-0.429241,-0.137452,-175.796,0.248869,
2,1,0,1,0,62271,0.251601,0.251237,32.3513,32,0.0123135,10,0.00812785,-1.49011,-0.419887,-0.140514,-177.401,0.251237,
2,1,0,1,0,62271,0.254006,0.253654,31.9332,32,0.012442,10,0.00809998,-1.49576,-0.42148,-0.139983,-174.455,0.253654,
2,1,0,1,0,62271,0.256404,0.256044,31.5077,32,0.0125689,10,0.00806736,-1.50158,-0.41997,-0.140486,-172.789,0.256044,
2,1,0,1,0,62271,0.258801,0.258482,31.1022,32,0.012694,10,0.00803936,-1.50721,-0.416223,-0.141751,-172.056,0.258482,
2,1,0,1,0,62271,0.261203,0.260833,30.6933,32,0.0128176,10,0.00800582,-1.51296,-0.418534,-0.140968,-168.846,0.260833,
2,1,0,1,0,62271,0.263606,0.263237,30.2844,32,0.0129395,10,0.00797197,-1.51878,-0.416401,-0.14169,-167.524,0.263237,
2,1,0,1,0,62271,0.266003,0.265637,29.8879,32,0.0130598,10,0.00793935,-1.5245,-0.424743,-0.138908,-162.122,0.265637,
2,1,0,1,0,62271,0.2684,0.268033,29.5022,32,0.0131785,10,0.00790756,-1.53015,-0.427552,-0.137995,-158.955,0.268033,
2,1,0,1,0,62271,0.270808,0.270466,29.1315,32,0.0132958,10,0.00787908,-1.53564,-0.431688,-0.136673,-155.388,0.270466,
2,1,0,1,0,62271,0.273205,0.272831,28.7593,32,0.0134115,10,0.00784644,-1.54122,-0.438215,-0.134637,-151.16,0.272831,
2,1,0,1,0,62271,0.275603,0.275284,28.389,32,0.0135258,10,0.00781502,-1.54685,-0.438835,-0.134447,-149.076,0.275284,
2,1,0,1,0,62271,0.278008,0.277666,28.0461,32,0.0136386,10,0.00778744,-1.55213,-0.447332,-0.131893,-144.428,0.277666,
2,1,0,1,0,62271,0.280405,0.280046,27.7034,32,0.0137501,10,0.00775822,-1.55747,-0.457659,-0.128917,-139.437,0.280046,
2,1,0,1,0,62271,0.282802,0.282455,27.3693,32,0.0138602,10,0.00773061,-1.56274,-0.45952,-0.128395,-137.219,0.282455,
2,1,0,1,0,62271,0.285199,0.284882,27.0507,32,0.013969,10,0.00770624,-1.56782,-0.472985,-0.12474,-131.747,0.284882,
2,1,0,1,0,62271,0.287608,0.287233,26.7333,32,0.0140765,10,0.00767868,-1.57295,-0.481998,-0.122407,-127.788,0.287233,
2,1,0,1,0,62271,0.290005,0.289694,26.4323,32,0.0141828,10,0.00765728,-1.57786,-0.487786,-0.120955,-124.851,0.289694,
2,1,0,1,0,62271.1,0.292402,0.292078,26.1397,32,0.0142879,10,0.00763482,-1.5827,-0.502487,-0.117416,-119.838,0.292078,
2,1,0,1,0,62271.1,0.294807,0.294451,25.856,32,0.0143919,10,0.00761331,-1.58744,-0.505848,-0.116636,-117.784,0.2944507,
2,1,0,1,0,62271.1,0.297204,0.296863,25.5792,32,0.0144947,10,0.00759353,-1.59211,-0.509197,-0.115869,-116.183,0.296863,
2,1,0,1,0,62271.1,0.299421,0.29908,25.3268,32,0.0145889,10,0.00757473,-1.59642,-0.134544,-0.43852,-425.805,0.29908,
2,1,0,0,0,62271.1,0.300012,0.299727,25.2509,32,0.0146142,10,0.0075684,-1.59772,0.00341668,17.2682,15601.9,0.299727,
2,1,0,1,0,62271.1,0.299243,0.298974,23.9297,32,0.0146456,10,0.00715438,-1.62106,0.0361487,1.63215,1384.85,0.298974,
2,1,0,1,0,62271.1,0.296846,0.296562,20.8812,32,0.0147347,10,0.00619256,-1.68025,0.0430811,1.36951,1098.04,0.296562,
2,1,0,1,0,62271.1,0.294449,0.294158,18.5107,32,0.0148131,10,0.00544507,-1.73258,0.0452334,1.30435,962.135,0.294158,
2,1,0,1,0,62271.1,0.292041,0.291723,16.4622,32,0.0148828,10,0.00480242,-1.78351,0.0466445,1.26489,820.07,0.2917234,
2,1,0,1,0,62271.1,0.289644,0.28931,14.6311,32,0.0149447,10,0.00423293,-1.83472,0.0461821,1.27755,732.981,0.28931,
2,1,0,1,0,62271.1,0.287247,0.286914,12.9695,32,0.0149997,10,0.00372114,-1.88708,0.0448866,1.31442,666.823,0.286914,
2,1,0,1,0,62271.1,0.284841,0.284531,11.454,32,0.0150484,10,0.00325901,-1.94104,0.0432086,1.36547,610.31,0.284531,
2,1,0,1,0,62271.1,0.282444,0.282121,10.0594,32,0.0150913,10,0.00283797,-1.99743,0.0407303,1.44855,566.671,0.282121,
2,1,0,1,0,62271.1,0.280047,0.279709,8.77162,32,0.0151288,10,0.0024535,-2.05692,0.0383495,1.53848,522.285,0.279709,
2,1,0,1,0,62271.1,0.27765,0.277372,7.56196,32,0.0151613,10,0.00209748,-2.12137,0.0352681,1.6729,488.195,0.277372,
2,1,0,1,0,62271.1,0.275242,0.274902,6.42516,32,0.0151891,10,0.00176629,-2.19212,0.0318989,1.84959,457.161,0.274902,
2,1,0,1,0,62271.1,0.272845,0.272537,5.38055,32,0.0152126,10,0.0014664,-2.26917,0.0284288,2.07536,424.889,0.272537,
2,1,0,1,0,62271.1,0.270448,0.270136,4.39505,32,0.015232,10,0.00118726,-2.35704,0.0242836,2.42962,400.525,0.270136,
2,1,0,1,0,62271.1,0.26804,0.267716,3.4592,32,0.0152476,10,0.000926083,-2.46102,0.0198835,2.96729,375.404,0.267716,
2,1,0,1,0,62271.1,0.265642,0.265337,2.5942,32,0.0152597,10,0.000688338,-2.586,0.0147602,3.99724,355.802,0.265337,
2,1,0,1,0,62271.1,0.263245,0.262899,1.76238,32,0.0152683,10,0.000463328,-2.7539,0.00839643,7.02679,336.296,0.262899,
2,1,0,1,0,62271.1,0.260843,0.260554,0.985818,32,0.0152737,10,0.000256859,-3.0062,0.0127084,4.64262,315.193,0.260554,
2,1,0,1,0,62271.1,0.258443,0.258183,0.253286,32,0.0152761,10,6.5394e-05,-3.59639,0.0478952,1.23185,299.926,0.2581827,
2,0,0,1,0,62271.1,0.256046,0.255677,-0.45066,32,0.0152756,10,-0.000115223,-3.34615,-0.0387198,-1.52377,284.396,0.255677,
2,0,0,1,0,62271.1,0.253649,0.253316,-1.11178,32,0.0152724,10,-0.000281632,-2.95398,-0.0100159,-5.89063,268.392,0.253316,
2,0,0,1,0,62271.1,0.25124,0.250952,-1.74495,32,0.0152666,10,-0.000437898,-2.75822,-0.0118584,-4.97536,255.662,0.2509518,
2,0,0,1,0,62271.1,0.248843,0.248502,-2.34487,32,0.0152584,10,-0.000582705,-2.62988,-0.0195108,-3.02396,244.009,0.248502,
2,0,0,1,0,62271.2,0.246446,0.246082,-2.90362,32,0.0152478,10,-0.000714531,-2.53706,-0.0272049,-2.16873,229.071,0.2460824,
2,0,0,1,0,62271.2,0.244041,0.243702,-3.45785,32,0.0152351,10,-0.000842685,-2.46119,-0.0342117,-1.72456,221.665,0.243702,
2,0,0,1,0,62271.2,0.241644,0.241242,-3.96926,32,0.0152201,10,-0.000957551,-2.40129,-0.0414253,-1.42425,213.057,0.241242,
2,0,0,1,0,62271.2,0.239247,0.23892,-4.46883,32,0.0152032,10,-0.00106769,-2.34981,-0.049746,-1.18602,201.516,0.23892,
2,0,0,1,0,62271.2,0.236849,0.236513,-4.94239,32,0.0151843,10,-0.00116894,-2.30606,-0.056991,-1.03525,195.55,0.236513,
2,0,0,1,0,62271.2,0.234441,0.234103,-5.39217,32,0.0151636,10,-0.00126232,-2.26824,-0.0659034,-0.89525,185.499,0.234103,
2,0,0,1,0,62271.2,0.232044,0.231728,-5.82972,32,0.0151411,10,-0.00135091,-2.23435,-0.0740625,-0.796625,179,0.231728,
2,0,0,1,0,62271.2,0.229647,0.229324,-6.24901,32,0.0151169,10,-0.00143305,-2.20419,-0.0826217,-0.714098,172.28,0.229324,
2,0,0,1,0,62271.2,0.227239,0.22693,-6.65773,32,0.0150911,10,-0.00151084,-2.17667,-0.0926377,-0.63689,163.669,0.22693,
2,0,0,1,0,62271.2,0.224842,0.224509,-7.04493,32,0.0150636,10,-0.00158165,-2.15212,-0.102137,-0.577656,157.314,0.224509,
2,0,0,1,0,62271.2,0.222445,0.222119,-7.40231,32,0.0150347,10,-0.0016442,-2.13063,-0.111331,-0.529951,152.313,0.222119,
2,0,0,1,0,62271.2,0.220047,0.219708,-7.7617,32,0.0150043,10,-0.00170531,-2.11004,-0.121806,-0.484377,146.076,0.219708,
2,0,0,1,0,62271.2,0.217642,0.217334,-8.11944,32,0.0149725,10,-0.00176463,-2.09047,-0.129364,-0.456078,143.658,0.217334,
2,0,0,1,0,62271.2,0.215245,0.214874,-8.45251,32,0.0149393,10,-0.00181622,-2.07301,-0.140166,-0.420929,138.118,0.214874,
2,0,0,1,0,62271.2,0.212848,0.212537,-8.77883,32,0.0149049,10,-0.00186583,-2.05656,-0.153268,-0.384947,131.255,0.212537,
2,0,0,1,0,62271.2,0.21044,0.210101,-9.08864,32,0.0148691,10,-0.00190953,-2.0415,-0.160917,-0.366649,129.611,0.210101,
2,0,0,1,0,62271.2,0.208043,0.207695,-9.38461,32,0.0148321,10,-0.00194913,-2.02758,-0.174126,-0.338835,123.824,0.207695,
2,0,0,1,0,62271.2,0.205645,0.205314,-9.69153,32,0.014794,10,-0.00198981,-2.01361,-0.183623,-0.321311,121.137,0.205314,
2,0,0,1,0,62271.2,0.203246,0.202884,-9.97421,32,0.0147546,10,-0.0020236,-2.00112,-0.193409,-0.305053,118.369,0.202884,
2,0,0,1,0,62271.2,0.200843,0.20047,-10.2553,32,0.0147141,10,-0.00205587,-1.98905,-0.208669,-0.282745,112.828,0.20047,
2,0,0,1,0,62271.2,0.198446,0.198084,-10.5222,32,0.0146725,10,-0.00208428,-1.97789,-0.216539,-0.272468,111.692,0.198084,
2,0,0,1,0,62271.2,0.196049,0.19569,-10.7774,32,0.0146299,10,-0.00210903,-1.96749,-0.226482,-0.260507,109.485,0.19569,
2,0,0,1,0,62271.2,0.19364,0.193237,-11.0517,32,0.0145862,10,-0.00213559,-1.95657,-0.238876,-0.24699,106.274,0.193237,
2,0,0,1,0,62271.2,0.191243,0.190933,-11.2995,32,0.0145415,10,-0.00215744,-1.94694,-0.248249,-0.237665,104.562,0.190933,
2,0,0,1,0,62271.2,0.188846,0.188471,-11.5439,32,0.0144958,10,-0.00217568,-1.93765,-0.261964,-0.225222,101.307,0.188471,
2,0,0,1,0,62271.3,0.186444,0.186063,-11.784,32,0.0144491,10,-0.00219257,-1.92871,-0.274314,-0.215082,98.7948,0.186063,
2,0,0,1,0,62271.3,0.184041,0.183747,-12.013,32,0.0144015,10,-0.00220736,-1.92035,-0.28003,-0.210691,98.7556,0.183747,
2,0,0,1,0,62271.3,0.181644,0.181282,-12.2529,32,0.0143529,10,-0.00222123,-1.91176,-0.287873,-0.204951,97.952,0.181282,
2,0,0,1,0,62271.3,0.179247,0.1789,-12.489,32,0.0143034,10,-0.00223428,-1.90347,-0.299105,-0.197255,96.0009,0.1789,
2,0,0,1,0,62271.3,0.176841,0.176505,-12.7202,32,0.014253,10,-0.00224519,-1.8955,-0.30592,-0.192861,95.6249,0.176505,
2,0,0,1,0,62271.3,0.174444,0.174098,-12.9394,32,0.0142016,10,-0.00225272,-1.88809,-0.315223,-0.187169,94.4928,0.174098,
2,0,0,1,0,62271.3,0.172047,0.171719,-13.1673,32,0.0141494,10,-0.00226109,-1.8805,-0.320469,-0.184105,94.6203,0.171719,
2,0,0,1,0,62271.3,0.169644,0.169327,-13.3936,32,0.0140963,10,-0.0022679,-1.8731,-0.32533,-0.181355,94.7673,0.169327,
2,0,0,1,0,62271.3,0.167242,0.166908,-13.6283,32,0.0140422,10,-0.00227467,-1.86556,-0.334098,-0.176595,93.8239,0.1669082,
2,0,0,1,0,62271.3,0.164845,0.164488,-13.85,32,0.0139872,10,-0.00227817,-1.85855,-0.337714,-0.174704,94.3965,0.164488,
2,0,0,1,0,62271.3,0.162448,0.162101,-14.0697,32,0.0139314,10,-0.00228072,-1.85171,-0.343535,-0.171744,94.3592,0.162101,
2,0,0,1,0,62271.3,0.160042,0.159659,-14.3062,32,0.0138746,10,-0.00228412,-1.84448,-0.340569,-0.17324,96.7529,0.159659,
2,0,0,1,0,62271.3,0.157645,0.157273,-14.5374,32,0.0138169,10,-0.00228635,-1.83751,-0.333872,-0.176714,100.323,0.157273,
2,0,0,1,0,62271.3,0.155248,0.154867,-14.7809,32,0.0137582,10,-0.00228908,-1.8303,-0.333958,-0.176669,101.956,0.154867,
2,0,0,1,0,62271.3,0.152845,0.152486,-15.0344,32,0.0136986,10,-0.00229253,-1.82291,-0.327609,-0.180093,105.67,0.152486,
2,0,0,1,0,62271.3,0.150443,0.150118,-15.279,32,0.0136379,10,-0.00229365,-1.81591,-0.324946,-0.181568,108.359,0.150118,
2,0,0,1,0,62271.3,0.148046,0.147757,-15.543,32,0.0135762,10,-0.00229659,-1.80847,-0.318602,-0.185184,112.502,0.147757,
2,0,0,1,0,62271.3,0.145648,0.14533,-15.8144,32,0.0135135,10,-0.0022983,-1.80095,-0.308405,-0.191307,118.266,0.14533,
2,0,0,1,0,62271.3,0.14324,0.142915,-16.1111,32,0.0134496,10,-0.00230252,-1.79288,-0.304913,-0.193498,121.766,0.142915,
2,0,0,1,0,62271.3,0.140843,0.140509,-16.4153,32,0.0133846,10,-0.00230651,-1.78475,-0.291263,-0.202566,129.901,0.140509,
2,0,0,1,0,62271.3,0.138446,0.138088,-16.7203,32,0.0133183,10,-0.00230888,-1.77676,-0.280701,-0.210188,137.505,0.138088,
2,0,0,1,0,62271.3,0.136041,0.135704,-17.0648,32,0.0132507,10,-0.00231576,-1.7679,-0.271566,-0.217259,145.02,0.135704,
2,0,0,1,0,62271.3,0.133644,0.13331,-17.4318,32,0.0131816,10,-0.00232384,-1.75866,-0.256874,-0.229684,156.519,0.13331,
2,0,0,1,0,62271.3,0.131246,0.130886,-17.8109,32,0.0131111,10,-0.0023312,-1.74931,-0.248695,-0.237239,165.245,0.130886,
2,0,0,1,0,62271.3,0.128849,0.128484,-18.2235,32,0.013039,10,-0.00234144,-1.73937,-0.240644,-0.245176,174.702,0.128484,
2,0,0,1,0,62271.4,0.126441,0.126088,-18.6538,32,0.0129652,10,-0.00235202,-1.72923,-0.230171,-0.256331,186.948,0.126088,
2,0,0,1,0,62271.4,0.124044,0.123703,-19.1102,32,0.0128897,10,-0.00236399,-1.71873,-0.222756,-0.264863,197.979,0.123703,
2,0,0,1,0,62271.4,0.121647,0.121354,-19.5929,32,0.0128122,10,-0.00237768,-1.7079,-0.217703,-0.271011,207.676,0.121354,
2,0,0,1,0,62271.4,0.119241,0.11894,-20.1132,32,0.0127328,10,-0.00239226,-1.69652,-0.213691,-0.276099,216.962,0.11894,
2,0,0,1,0,62271.4,0.116844,0.116473,-20.6505,32,0.0126512,10,-0.00240523,-1.68507,-0.211806,-0.278556,224.538,0.116473,
2,0,0,1,0,62271.4,0.114447,0.114089,-21.196,32,0.0125675,10,-0.00241824,-1.67375,-0.211081,-0.279513,231.335,0.114089,
2,0,0,1,0,62271.4,0.11205,0.111731,-21.7537,32,0.0124815,10,-0.00243056,-1.66247,-0.211232,-0.279314,237.246,0.111731,
2,0,0,1,0,62271.4,0.109642,0.109316,-22.3394,32,0.0123933,10,-0.00244206,-1.65093,-0.212808,-0.277245,241.643,0.109316,
2,0,0,1,0,62271.4,0.107245,0.106919,-22.9173,32,0.0123027,10,-0.00245029,-1.63984,-0.216427,-0.27261,243.716,0.106919,
2,0,0,1,0,62271.4,0.104848,0.104514,-23.5099,32,0.0122098,10,-0.00245711,-1.62875,-0.223504,-0.263978,241.944,0.104514,
2,0,0,1,0,62271.4,0.10244,0.102097,-24.1016,32,0.0121145,10,-0.0024607,-1.61795,-0.227535,-0.259301,243.574,0.102097,
2,0,0,1,0,62271.4,0.100042,0.0996901,-24.6684,32,0.0120169,10,-0.0024592,-1.60786,-0.233319,-0.252873,243.378,0.0996901,
2,0,0,1,0,62271.4,0.0976454,0.0973031,-25.2594,32,0.011917,10,-0.00245782,-1.59758,-0.240179,-0.24565,241.986,0.0973031,
2,0,0,1,0,62271.4,0.0952427,0.0949002,-25.8496,32,0.0118147,10,-0.00245314,-1.58755,-0.247352,-0.238526,240.169,0.0949002,
2,0,0,1,0,62271.4,0.0928428,0.0925324,-26.4161,32,0.0117102,10,-0.00244435,-1.57813,-0.259696,-0.227189,233.665,0.0925324,
2,0,0,1,0,62271.4,0.0904457,0.0901263,-26.9653,32,0.0116033,10,-0.00243029,-1.56919,-0.271115,-0.21762,228.711,0.0901263,
2,0,0,1,0,62271.4,0.0880486,0.0878029,-27.4793,32,0.0114944,10,-0.00241276,-1.56099,-0.27781,-0.212376,227.839,0.0878029,
2,0,0,1,0,62271.4,0.0856404,0.085329,-28.0387,32,0.0113833,10,-0.00239251,-1.55224,-0.287478,-0.205233,224.462,0.085329,
2,0,0,1,0,62271.4,0.0832433,0.0829887,-28.5905,32,0.01127,10,-0.00237269,-1.54378,-0.29968,-0.196876,219.175,0.0829887,
2,0,0,1,0,62271.4,0.0808462,0.080571,-29.1102,32,0.0111545,10,-0.00234543,-1.53596,-0.31476,-0.187445,212.482,0.080571,
2,0,0,1,0,62271.4,0.0784408,0.0781363,-29.598,32,0.0110371,10,-0.00231267,-1.52874,-0.33761,-0.174758,201.57,0.0781363,
2,0,0,1,0,62271.4,0.0760437,0.0757355,-30.0771,32,0.0109177,10,-0.00227791,-1.52176,-0.35474,-0.166319,194.971,0.0757355,
2,0,0,1,0,62271.4,0.0736466,0.0733167,-30.5401,32,0.0107964,10,-0.0022391,-1.51513,-0.371845,-0.158668,188.836,0.0733167,
2,0,0,1,0,62271.4,0.0712495,0.0709573,-30.9845,32,0.0106733,10,-0.00219858,-1.50885,-0.394745,-0.149464,180.429,0.0709573,
2,0,0,1,0,62271.4,0.0688413,0.0685396,-31.4101,32,0.0105485,10,-0.00215284,-1.50293,-0.420339,-0.140363,171.771,0.06853959,
2,0,0,1,0,62271.5,0.0664442,0.0661717,-31.8027,32,0.010422,10,-0.00210444,-1.49754,-0.448359,-0.131591,163.104,0.0661717,
2,0,0,1,0,62271.5,0.0640471,0.0637222,-32.1882,32,0.010294,10,-0.0020511,-1.4923,-0.47831,-0.123351,154.735,0.0637222,
2,0,0,1,0,62271.5,0.0616389,0.0613755,-32.5474,32,0.0101645,10,-0.00199761,-1.48748,-0.512306,-0.115166,146.088,0.0613755,
2,0,0,1,0,62271.5,0.0592417,0.0589981,-32.8866,32,0.0100336,10,-0.00194024,-1.48298,-0.548391,-0.107588,137.9,0.0589981,
2,0,0,1,0,62271.5,0.0568446,0.0565093,-33.2143,32,0.00990135,10,-0.00187692,-1.47868,-0.584776,-0.100893,130.615,0.0565093,
2,0,0,1,0,62271.5,0.0544475,0.0541668,-33.5059,32,0.00976789,10,-0.00181491,-1.47488,-0.627261,-0.0940597,122.894,0.0541668,
2,0,0,1,0,62271.5,0.0520421,0.0517565,-33.8037,32,0.00963322,10,-0.00174956,-1.47104,-0.664535,-0.0887839,117.019,0.0517565,
2,0,0,1,0,62271.5,0.049645,0.0493102,-34.0771,32,0.00949742,10,-0.00168035,-1.46754,-0.699454,-0.0843516,112.071,0.0493102,
2,0,0,1,0,62271.5,0.0472479,0.0469232,-34.336,32,0.00936057,10,-0.00161116,-1.46425,-0.768793,-0.0767437,102.721,0.0469232,
2,0,0,1,0,62271.5,0.0448397,0.0445161,-34.5874,32,0.00922271,10,-0.0015397,-1.46108,-0.827883,-0.0712661,96.0575,0.0445161,
2,0,0,1,0,62271.5,0.0424426,0.04211,-34.7946,32,0.00908394,10,-0.0014652,-1.45849,-0.900901,-0.06549,88.8483,0.04211,
2,0,0,1,0,62271.5,0.0400455,0.0396923,-35.001,32,0.00894433,10,-0.00138927,-1.45592,-0.991925,-0.0594803,81.1908,0.0396923,
2,0,0,1,0,62271.5,0.0376456,0.0372841,-35.1925,32,0.00880392,10,-0.00131212,-1.45355,-1.05335,-0.0560119,76.8623,0.03728411,
2,0,0,1,0,62271.5,0.035243,0.0349088,-35.3675,32,0.00866278,10,-0.00123464,-1.4514,-1.17564,-0.0501855,69.1982,0.0349088,
2,0,0,1,0,62271.5,0.0328459,0.0325271,-35.5312,32,0.00852096,10,-0.00115573,-1.44939,-1.25874,-0.0468723,64.9424,0.03252713,
2,0,0,1,0,62271.5,0.0304488,0.0301327,-35.6625,32,0.00837855,10,-0.00107461,-1.44779,-1.40176,-0.04209,58.5571,0.0301327,
2,0,0,1,0,62271.5,0.0280406,0.0277341,-35.8127,32,0.00823559,10,-0.000993232,-1.44596,-1.55838,-0.0378599,52.8744,0.0277341,
2,0,0,1,0,62271.5,0.0256435,0.0252962,-35.9304,32,0.0080921,10,-0.000908902,-1.44454,-1.6424,-0.0359229,50.3361,0.0252962,
2,0,0,1,0,62271.5,0.0232464,0.0229018,-36.0401,32,0.00794814,10,-0.000825385,-1.44321,-1.94452,-0.0303417,42.6512,0.02290182,
2,0,0,1,0,62271.5,0.0208437,0.0205127,-36.1467,32,0.00780377,10,-0.000741468,-1.44193,-2.1892,-0.0269505,37.9826,0.0205127,
2,0,0,1,0,62271.5,0.018441,0.0180526,-36.2256,32,0.00765901,10,-0.000653965,-1.44098,-2.424,-0.02434,34.3913,0.0180526,
2,0,0,1,0,62271.5,0.0160439,0.0157048,-36.2947,32,0.00751396,10,-0.000570002,-1.44016,-2.84697,-0.0207238,29.3485,0.01570484,
2,0,0,1,0,62271.5,0.0136468,0.0133179,-36.3697,32,0.00736862,10,-0.000484367,-1.43926,-3.1838,-0.0185313,26.29,0.0133179,
2,0,0,1,0,62271.5,0.0112414,0.0109277,-36.4281,32,0.007223,10,-0.000398075,-1.43856,-3.81863,-0.0154506,21.9488,0.01092771,
2,0,0,1,0,62271.5,0.00884431,0.00846969,-36.4775,32,0.00707719,10,-0.000308953,-1.43797,-5.06092,-0.011658,16.5834,0.00846969,
2,0,0,1,0,62271.6,0.0064472,0.00609544,-36.5056,32,0.00693122,10,-0.000222517,-1.43764,-5.0407,-0.0117047,16.6772,0.00609544,
2,0,0,1,0,62271.6,0.00404455,0.00373603,-36.5286,32,0.00678515,10,-0.000136472,-1.43737,-7.56361,-0.00780051,11.1211,0.00373603,
2,0,0,1,0,62271.6,0.0016419,0.00121969,-36.59,32,0.00663896,10,-4.46284e-05,-1.43664,-11.8949,-0.00496011,7.07325,0.00121969,
2,0,0,1,0,62271.6,-0.000755208,-0.00115774,-36.5846,32,0.00649262,10,4.23556e-05,-1.4367,-31.0627,-0.00189938,2.70873,-0.001157743,
2,0,0,1,0,62271.6,-0.00315231,-0.00352139,-36.5736,32,0.00634632,10,0.00012879,-1.43683,11.1957,0.00526989,-7.51798,-0.00352139,
2,0,0,1,0,62271.6,-0.00555774,-0.00594336,-36.5549,32,0.00620006,10,0.000217259,-1.43705,7.66591,0.00769641,-10.973,-0.00594336,
2,0,0,1,0,62271.6,-0.00795485,-0.00831125,-36.5183,32,0.0060539,10,0.000303513,-1.43749,6.30998,0.00935027,-13.3227,-0.00831125,
2,0,0,1,0,62271.6,-0.010352,-0.0107375,-36.4795,32,0.00590791,10,0.000391697,-1.43795,4.72436,0.0124885,-17.7747,-0.01073746,
2,0,0,1,0,62271.6,-0.0127546,-0.0131488,-36.4453,32,0.00576206,10,0.000479213,-1.43836,3.88274,0.0151955,-21.5948,-0.0131488,
2,0,0,1,0,62271.6,-0.0151573,-0.015539,-36.3843,32,0.00561641,10,0.000565375,-1.43909,3.26199,0.0180871,-25.6631,-0.015539,
2,0,0,1,0,62271.6,-0.0175544,-0.0179408,-36.3104,32,0.00547103,10,0.000651437,-1.43997,2.79205,0.0211314,-29.9378,-0.0179408,
2,0,0,1,0,62271.6,-0.0199515,-0.0203469,-36.2329,32,0.00532595,10,0.000737225,-1.4409,2.58109,0.0228586,-32.3195,-0.0203469,
2,0,0,1,0,62271.6,-0.0223597,-0.0227328,-36.1584,32,0.00518117,10,0.000821981,-1.44179,2.33138,0.0253069,-35.6924,-0.0227328,
2,0,0,1,0,62271.6,-0.0247568,-0.0251569,-36.0735,32,0.00503672,10,0.000907495,-1.44281,2.23235,0.0264295,-37.1874,-0.0251569,
2,0,0,1,0,62271.6,-0.0271539,-0.0275428,-35.9676,32,0.00489265,10,0.000990649,-1.44409,2.03858,0.0289417,-40.62,-0.02754279,
2,0,0,1,0,62271.6,-0.0295593,-0.0300008,-35.8739,32,0.00474898,10,0.00107624,-1.44522,1.86562,0.0316249,-44.2599,-0.0300008,
2,0,0,1,0,62271.6,-0.0319564,-0.0323486,-35.7678,32,0.00460571,10,0.00115704,-1.44651,1.87033,0.0315453,-44.0192,-0.0323486,
2,0,0,1,0,62271.6,-0.0343535,-0.0347546,-35.6487,32,0.00446291,10,0.00123896,-1.44796,1.81141,0.0325713,-45.3252,-0.0347546,
2,0,0,1,0,62271.6,-0.0367506,-0.0371586,-35.5444,32,0.00432053,10,0.00132078,-1.44923,1.73396,0.0340262,-47.1956,-0.03715856,
2,0,0,1,0,62271.6,-0.0391588,-0.0395625,-35.4405,32,0.00417856,10,0.00140211,-1.4505,1.75356,0.0336458,-46.5156,-0.0395625,
2,0,0,1,0,62271.6,-0.0415559,-0.0419558,-35.3144,32,0.00403708,10,0.00148164,-1.45205,1.70587,0.0345865,-47.6688,-0.04195584,
2,0,0,1,0,62271.6,-0.043953,-0.0443725,-35.2013,32,0.00389607,10,0.00156197,-1.45344,1.68518,0.0350111,-48.1091,-0.04437251,
2,0,0,1,0,62271.6,-0.0463585,-0.0467468,-35.0873,32,0.00375551,10,0.00164022,-1.45485,1.74894,0.0337347,-46.2002,-0.0467468,
2,0,0,1,0,62271.6,-0.0487556,-0.0491496,-34.9792,32,0.00361538,10,0.00171922,-1.45619,1.71197,0.0344632,-47.0432,-0.0491496,
2,0,0,1,0,62271.6,-0.0511527,-0.0515812,-34.8697,32,0.00347569,10,0.00179862,-1.45755,1.7814,0.0331199,-45.0731,-0.0515812,
2,0,0,1,0,62271.7,-0.0535498,-0.0539034,-34.7529,32,0.00333647,10,0.0018733,-1.45901,1.80626,0.0326641,-44.319,-0.0539034,
2,0,0,1,0,62271.7,-0.055958,-0.0563244,-34.6556,32,0.00319766,10,0.00195195,-1.46023,1.85603,0.0317882,-43.0034,-0.0563244,
2,0,0,1,0,62271.7,-0.0583551,-0.0587506,-34.5537,32,0.00305926,10,0.00203005,-1.4615,2.07874,0.0283826,-38.2904,-0.0587506,
2,0,0,1,0,62271.7,-0.0607522,-0.0611513,-34.4582,32,0.00292125,10,0.00210716,-1.46271,2.02775,0.0290962,-39.1384,-0.0611513,
2,0,0,1,0,62271.7,-0.0631604,-0.0635468,-34.3837,32,0.00278358,10,0.00218497,-1.46365,2.16025,0.0273117,-36.6427,-0.0635468,
2,0,0,1,0,62271.7,-0.0655575,-0.0659475,-34.279,32,0.00264627,10,0.00226061,-1.46497,2.38603,0.0247272,-33.0987,-0.0659475,
2,0,0,1,0,62271.7,-0.0679546,-0.0683494,-34.202,32,0.00250932,10,0.00233769,-1.46595,2.38611,0.0247264,-33.0272,-0.0683494,
2,0,0,1,0,62271.7,-0.0703573,-0.0707989,-34.1388,32,0.00237265,10,0.00241699,-1.46675,2.8563,0.0206561,-27.5273,-0.0707989,
2,0,0,1,0,62271.7,-0.0727571,-0.0731201,-34.0675,32,0.00223625,10,0.00249102,-1.46766,2.91874,0.0202142,-26.88,-0.0731201,
2,0,0,1,0,62271.7,-0.0751542,-0.0755326,-34.0151,32,0.00210009,10,0.00256925,-1.46833,3.26613,0.0180642,-23.9866,-0.0755326,
2,0,0,1,0,62271.7,-0.0775514,-0.0779429,-33.9441,32,0.00196418,10,0.0026457,-1.46924,3.70382,0.0159295,-21.1159,-0.0779429,
2,0,0,1,0,62271.7,-0.0799595,-0.0803595,-33.9095,32,0.00182848,10,0.00272495,-1.46968,3.98566,0.0148031,-19.5966,-0.0803595,
2,0,0,1,0,62271.7,-0.0823567,-0.0827221,-33.8647,32,0.00169296,10,0.00280136,-1.47025,5.69267,0.0103642,-13.7031,-0.0827221,
2,0,0,1,0,62271.7,-0.0847538,-0.0851558,-33.8265,32,0.00155758,10,0.00288052,-1.47074,5.93223,0.00994567,-13.1374,-0.0851558,
2,0,0,1,0,62271.7,-0.0871592,-0.0875639,-33.8123,32,0.00142233,10,0.00296074,-1.47093,7.55413,0.00781029,-10.3073,-0.0875639,
2,0,0,1,0,62271.7,-0.0895563,-0.0899562,-33.7834,32,0.00128713,10,0.00303903,-1.4713,10.6537,0.00553796,-7.30334,-0.0899562,
2,0,0,1,0,62271.7,-0.0919534,-0.0923177,-33.7658,32,0.00115205,10,0.00311719,-1.47152,15.7937,0.00373568,-4.92611,-0.0923177,
2,0,0,1,0,62271.7,-0.0943505,-0.094745,-33.7565,32,0.00101701,10,0.00319826,-1.47164,50.2714,0.00117363,-1.54704,-0.094745,
2,0,0,1,0,62271.7,-0.0967587,-0.0971543,-33.7651,32,0.000881967,10,0.00328042,-1.47153,-42.6588,-0.00138307,1.82297,-0.0971543,
2,0,0,1,0,62271.7,-0.0991558,-0.0995508,-33.7686,32,0.000746914,10,0.00336169,-1.47149,2.70916,0.021778,-28.6198,-0.0995508,
2,0,0,1,0,62271.7,-0.0999548,-0.100343,-33.7805,32,0.000703015,10,0.00338963,-1.47133,0.025638,2.30127,-2865.89,-0.100343,
2,0,0,1,1,62271.7,-0.0999548,-0.100553,-33.5903,32,0.000682838,10,0.0033776,-1.47379,-0.0370893,-1.59075,1879.8,-0.100553,
2,0,0,1,1,62271.7,-0.0979573,-0.0984246,-30.1243,32,0.000585524,10,0.00296498,-1.52108,-0.0480633,-1.22755,1382.72,-0.0984246,
2,0,0,1,1,62271.7,-0.0955546,-0.0959709,-27.0391,32,0.000471677,10,0.00259496,-1.56801,-0.0517716,-1.13962,1221.86,-0.0959709,
2,0,0,1,1,62271.7,-0.093152,-0.0935924,-24.4464,32,0.000369074,10,0.002288,-1.61178,-0.0546238,-1.08011,1043.66,-0.0935924,
2,0,0,1,1,62271.7,-0.0907548,-0.0911874,-22.1469,32,0.000276177,10,0.00201952,-1.65469,-0.055423,-1.06454,926.126,-0.0911874,
2,0,0,1,1,62271.8,-0.0883577,-0.0887919,-20.0711,32,0.000191983,10,0.00178215,-1.69743,-0.0548234,-1.07618,845.671,-0.0887919,
2,0,0,1,1,62271.8,-0.0859523,-0.0863572,-18.1356,32,0.000115796,10,0.00156614,-1.74147,-0.0539567,-1.09347,775.212,-0.0863572,
2,0,0,1,1,62271.8,-0.0835552,-0.0840338,-16.363,32,4.70214e-05,10,0.00137505,-1.78614,-0.0517705,-1.13965,726.977,-0.0840338,
2,0,0,1,1,62271.8,-0.0811581,-0.0815716,-14.6927,32,-1.48953e-05,10,0.00119851,-1.8329,-0.0493033,-1.19668,683.62,-0.0815716,
2,0,0,1,1,62271.8,-0.0787555,-0.0792185,-13.1115,32,-7.03281e-05,10,0.00103867,-1.88235,-0.0469378,-1.25698,639.78,-0.0792185,
2,0,0,1,1,62271.8,-0.0763528,-0.0768284,-11.6215,32,-0.00011963,10,0.000892861,-1.93474,-0.0437083,-1.34986,607.418,-0.0768284,
2,0,0,1,1,62271.8,-0.0739557,-0.0744064,-10.2036,32,-0.000163131,10,0.000759214,-1.99125,-0.0404012,-1.46035,575.137,-0.0744064,
2,0,0,1,1,62271.8,-0.0715586,-0.0719654,-8.85769,32,-0.000201096,10,0.000637447,-2.05268,-0.0367331,-1.60618,546.735,-0.0719654,
2,0,0,1,1,62271.8,-0.0691532,-0.0695922,-7.57499,32,-0.000233823,10,0.00052716,-2.12062,-0.0327022,-1.80416,521.942,-0.06959217,
2,0,0,1,1,62271.8,-0.066756,-0.0671872,-6.35032,32,-0.000261531,10,0.00042666,-2.1972,-0.0280768,-2.10138,503.213,-0.0671872,
2,0,0,1,1,62271.8,-0.0643589,-0.0647896,-5.18419,32,-0.000284448,10,0.000335881,-2.28532,-0.023494,-2.51128,480.787,-0.0647896,
2,0,0,1,1,62271.8,-0.0619563,-0.0623888,-4.03866,32,-0.000302759,10,0.000251967,-2.39376,-0.0185954,-3.17283,459.682,-0.0623888,
2,0,0,1,1,62271.8,-0.0595536,-0.0599764,-2.95186,32,-0.000316618,10,0.000177042,-2.5299,-0.0128652,-4.58603,443.577,-0.0599764,
2,0,0,1,1,62271.8,-0.0571565,-0.0575735,-1.9311,32,-0.00032627,10,0.00011118,-2.7142,-0.00459135,-12.8503,425.381,-0.0575735,
2,0,0,1,1,62271.8,-0.0547594,-0.0552046,-0.93249,32,-0.000331892,10,5.14777e-05,-3.03036,-0.0194954,-3.02635,406.038,-0.0552046,
2,0,0,1,1,62271.8,-0.0523512,-0.0528165,0.0332186,32,-0.000333581,10,-1.75449e-06,-4.47862,-0.504471,-0.116954,395.837,-0.0528165,
2,1,0,1,1,62271.8,-0.0499541,-0.0503691,0.949069,32,-0.000331524,10,-4.78038e-05,-3.0227,0.0208631,2.82796,377.242,-0.05036911,
2,1,0,1,1,62271.8,-0.047557,-0.0480245,1.84874,32,-0.000325831,10,-8.87847e-05,-2.73313,0.00473399,12.4631,363.85,-0.04802455,
2,1,0,1,1,62271.8,-0.0451544,-0.0455899,2.69459,32,-0.000316662,10,-0.000122846,-2.56951,0.0144949,4.07038,353.078,-0.0455899,
2,1,0,1,1,62271.8,-0.0427545,-0.0432283,3.52189,32,-0.000304136,10,-0.000152245,-2.45322,0.0218902,2.69527,336.624,-0.0432283,
2,1,0,1,1,62271.8,-0.0403574,-0.0408361,4.31498,32,-0.000288372,10,-0.000176207,-2.36502,0.0283696,2.07969,330.328,-0.0408361,
2,1,0,1,1,62271.8,-0.0379603,-0.0383971,5.08957,32,-0.000269475,10,-0.000195425,-2.29332,0.0356385,1.65551,315.529,-0.0383971,
2,1,0,1,1,62271.8,-0.0355521,-0.0360419,5.84853,32,-0.000247518,10,-0.000210792,-2.23295,0.0427038,1.38161,304.974,-0.0360419,
2,1,0,1,1,62271.8,-0.033155,-0.0336062,6.55795,32,-0.00022263,10,-0.000220388,-2.18323,0.0496742,1.18774,296.951,-0.0336062,
2,1,0,1,1,62271.8,-0.0307579,-0.0312129,7.24981,32,-0.000194957,10,-0.000226287,-2.13967,0.0577015,1.0225,284.364,-0.0312129,
2,1,0,1,1,62271.9,-0.0283524,-0.0288238,7.93238,32,-0.000164527,10,-0.000228641,-2.1006,0.0649976,0.907726,276.601,-0.0288238,
2,1,0,1,1,62271.9,-0.0259553,-0.0264463,8.57717,32,-0.000131422,10,-0.000226835,-2.06666,0.0732688,0.805254,266.064,-0.0264463,
2,1,0,1,1,62271.9,-0.0235582,-0.0240275,9.20741,32,-9.57777e-05,10,-0.000221231,-2.03586,0.0817196,0.721981,256.709,-0.0240275,
2,1,0,1,1,62271.9,-0.0211611,-0.0215844,9.81161,32,-5.76643e-05,10,-0.000211777,-2.00826,0.0909585,0.648648,246.118,-0.02158436,
2,1,0,1,1,62271.9,-0.0187529,-0.0192101,10.4003,32,-1.71718e-05,10,-0.000199791,-1.98295,0.0993627,0.593784,239.092,-0.0192101,
2,1,0,1,1,62271.9,-0.0163558,-0.0167436,10.9652,32,2.56089e-05,10,-0.000183597,-1.95998,0.107701,0.547814,232.899,-0.0167436,
2,1,0,1,1,62271.9,-0.0139587,-0.0143831,11.5133,32,7.06233e-05,10,-0.000165598,-1.9388,0.118068,0.499711,223.2,-0.01438314,
2,1,0,1,1,62271.9,-0.0115505,-0.0119633,12.0523,32,0.000117794,10,-0.000144186,-1.91893,0.12682,0.465226,217.388,-0.01196329,
2,1,0,1,1,62271.9,-0.0091534,-0.00954662,12.5572,32,0.000167064,10,-0.000119879,-1.90111,0.137348,0.429566,209.36,-0.00954662,
2,1,0,1,1,62271.9,-0.00675629,-0.00719464,13.041,32,0.000218311,10,-9.38255e-05,-1.88469,0.14849,0.397332,201.496,-0.00719464,
2,1,0,1,1,62271.9,-0.00435919,-0.00481403,13.5167,32,0.000271461,10,-6.50698e-05,-1.86913,0.164693,0.358243,187.332,-0.00481403,
2,1,0,1,1,62271.9,-0.00195376,-0.00237721,13.9839,32,0.000326527,10,-3.32427e-05,-1.85437, , , ,-0.00237721,
2,1,0,0,1,62271.9,-7.54729e-05,-0.000363498,14.2775,32,0.000370387,10,-5.18983e-06,-1.84535, , , ,-0.000363498,