File: Figure_codes/Fig_3-5/rawdata_trumpetplot_data/after 10th/20221101_1-115_003_TrumpetPlot_ParaChange_from10_every3_07_CV_C01_23.csv
mode,ox/red,error,control changes,counter inc.,time/s,control/V,Ewe/V,<I>/mA,cycle number,(Q-Qo)/C,I Range,P/W,log(|I|),Tafel slope mV/dec,alpha_eff,dI/d(E-IR),E-IR/V,
2,0,0,0,0,46478,2.44065e-05,-0.000325324,-2.69949,24,0.0000000E+000,10,8.78208e-07,-2.56872, , , ,-0.000325324,
2,0,0,1,0,46478,0.0013005,0.000938458,-1.33446,24,-3.98656e-05,10,-1.25233e-06,-2.87469, , , ,0.000938458,
2,0,0,1,0,46478.1,0.00279471,0.00251121,-0.389914,24,-6.01232e-05,10,-9.79156e-07,-3.40903,-0.0060985,-9.6745,531.13,0.00251121,
2,1,0,1,0,46478.1,0.00429425,0.0039799,0.228794,24,-6.13402e-05,10,9.10577e-07,-3.64056,0.054,1.09259,360.539,0.0039799,
2,1,0,1,0,46478.1,0.00579379,0.00547258,0.65928,24,-4.95468e-05,10,3.60796e-06,-3.18093,0.00277612,21.2527,261.361,0.00547258,
2,1,0,1,0,46478.1,0.007288,0.00700948,0.993033,24,-2.83566e-05,10,6.96064e-06,-3.00304,0.0100558,5.86725,199.099,0.00700948,
2,1,0,1,0,46478.2,0.00878882,0.00845359,1.24941,24,2.11088e-07,10,1.0562e-05,-2.9033,0.0173421,3.40212,156.161,0.00845359,
2,1,0,1,0,46478.2,0.0102896,0.00996952,1.4587,24,3.45624e-05,10,1.45425e-05,-2.83603,0.0264919,2.2271,121.88,0.00996952,
2,1,0,1,0,46478.2,0.0117838,0.0114456,1.62662,24,7.33595e-05,10,1.86176e-05,-2.78871,0.0357514,1.65028,102.01,0.0114456,
2,1,0,1,0,46478.2,0.0132834,0.0129754,1.75656,24,0.000116018,10,2.27922e-05,-2.75534,0.0455329,1.29577,87.981,0.01297544,
2,1,0,1,0,46478.3,0.0147816,0.0144673,1.87191,24,0.000161876,10,2.70815e-05,-2.72772,0.0581397,1.0148,73.5904,0.0144673,
2,1,0,1,0,46478.3,0.0162811,0.0160034,1.97981,24,0.000210543,10,3.16836e-05,-2.70338,0.074394,0.793075,60.6214,0.0160034,
2,1,0,1,0,46478.3,0.0177753,0.0174638,2.06463,24,0.000261332,10,3.60563e-05,-2.68516,0.0845363,0.697925,56.0118,0.0174638,
2,1,0,1,0,46478.3,0.0192761,0.0189554,2.1424,24,0.00031432,10,4.06099e-05,-2.6691,0.0953041,0.619071,51.6015,0.0189554,
2,1,0,1,0,46478.4,0.020777,0.0204598,2.21567,24,0.000369215,10,4.5332e-05,-2.6545,0.109648,0.538087,46.4001,0.02045976,
2,1,0,1,0,46478.4,0.0222712,0.0219756,2.28497,24,0.000425681,10,5.02136e-05,-2.64112,0.123119,0.479211,42.5732,0.0219756,
2,1,0,1,0,46478.4,0.0237707,0.0234843,2.34928,24,0.000484001,10,5.51712e-05,-2.62907,0.134601,0.438332,40.0431,0.0234843,
2,1,0,1,0,46478.4,0.0252703,0.0249602,2.40082,24,0.000543782,10,5.9925e-05,-2.61964,0.142057,0.415327,38.9682,0.0249602,
2,1,0,1,0,46478.5,0.0267645,0.0264871,2.45908,24,0.000604753,10,6.51339e-05,-2.60923,0.14524,0.406224,39.0159,0.0264871,
2,1,0,1,0,46478.5,0.0282653,0.0280015,2.51942,24,0.000667421,10,7.05475e-05,-2.5987,0.159036,0.370985,36.4228,0.0280015,
2,1,0,1,0,46478.5,0.0297648,0.0294559,2.57802,24,0.000731493,10,7.59379e-05,-2.58871,0.168149,0.35088,35.1528,0.0294559,
2,1,0,1,0,46478.5,0.031259,0.0309333,2.62124,24,0.000796643,10,8.10835e-05,-2.58149,0.168978,0.349158,35.7336,0.0309333,
2,1,0,1,0,46478.6,0.0327585,0.0324618,2.67299,24,0.000863226,10,8.67699e-05,-2.573,0.187748,0.314251,32.8164,0.0324618,
2,1,0,1,0,46478.6,0.034258,0.033889,2.72423,24,0.000931151,10,9.23215e-05,-2.56476,0.188223,0.313457,33.3368,0.033889,
2,1,0,1,0,46478.6,0.0357576,0.0355016,2.78268,24,0.00100038,10,9.87894e-05,-2.55554,0.188418,0.313134,33.8968,0.03550157,
2,1,0,1,0,46478.6,0.0372518,0.0369266,2.82767,24,0.00107061,10,0.000104416,-2.54857,0.184294,0.320141,35.3668,0.03692659,
2,1,0,1,0,46478.7,0.0387526,0.0384528,2.87297,24,0.00114227,10,0.000110474,-2.54167,0.209355,0.281818,31.6836,0.0384528,
2,1,0,1,0,46478.7,0.0402534,0.0399409,2.93002,24,0.00121523,10,0.000117027,-2.53313,0.210893,0.279762,31.9464,0.0399409,
2,1,0,1,0,46478.7,0.0417476,0.0414318,2.98612,24,0.00128919,10,0.00012372,-2.52489,0.207221,0.28472,33.0483,0.0414318,
2,1,0,1,0,46478.7,0.0432472,0.0429105,3.02898,24,0.00136471,10,0.000129975,-2.5187,0.208281,0.283271,33.4423,0.0429105,
2,1,0,1,0,46478.8,0.0447467,0.0444099,3.06348,24,0.00144131,10,0.000136049,-2.51379,0.229761,0.256788,30.8617,0.0444099,
2,1,0,1,0,46478.8,0.0462463,0.0459374,3.12189,24,0.00151914,10,0.000143412,-2.50558,0.223602,0.263861,32.1238,0.04593743,
2,1,0,1,0,46478.8,0.0477391,0.0474219,3.17514,24,0.00159793,10,0.000150571,-2.49824,0.21772,0.270991,33.5278,0.0474219,
2,1,0,1,0,46478.8,0.0492399,0.0489313,3.21783,24,0.00167823,10,0.000157453,-2.49244,0.227192,0.259692,32.6206,0.0489313,
2,1,0,1,0,46478.9,0.0507408,0.0504329,3.26113,24,0.00175969,10,0.000164468,-2.48663,0.23996,0.245874,31.3593,0.0504329,
2,1,0,1,0,46478.9,0.052235,0.0519337,3.31553,24,0.00184198,10,0.000172188,-2.47945,0.24865,0.237281,30.6886,0.0519337,
2,1,0,1,0,46478.9,0.0537345,0.0533967,3.36949,24,0.00192585,10,0.00017992,-2.47244,0.243837,0.241965,31.7272,0.0533967,
2,1,0,1,0,46478.9,0.0552341,0.0549281,3.41026,24,0.00201095,10,0.000187319,-2.46721,0.25501,0.231364,30.7442,0.0549281,
2,1,0,1,0,46479,0.0567283,0.056423,3.44874,24,0.00209682,10,0.000194589,-2.46234,0.283799,0.207894,28.0336,0.056423,
2,1,0,1,0,46479,0.0582291,0.0579005,3.49525,24,0.00218404,10,0.000202377,-2.45652,0.299997,0.196668,26.8328,0.0579005,
2,1,0,1,0,46479,0.0597299,0.0593635,3.54461,24,0.00227243,10,0.000210421,-2.45043,0.269956,0.218554,30.1902,0.0593635,
2,1,0,1,0,46479,0.0612228,0.0608856,3.5817,24,0.00236156,10,0.000218074,-2.44591,0.276739,0.213197,29.8261,0.0608856,
2,1,0,1,0,46479.1,0.0627223,0.062416,3.62651,24,0.00245214,10,0.000226352,-2.44051,0.295703,0.199524,28.2734,0.062416,
2,1,0,1,0,46479.1,0.0642218,0.0638989,3.66425,24,0.00254372,10,0.000234141,-2.43602,0.313409,0.188252,26.979,0.0638989,
2,1,0,1,0,46479.1,0.0657214,0.0654522,3.71827,24,0.00263643,10,0.000243369,-2.42966,0.293089,0.201304,29.1412,0.0654522,
2,1,0,1,0,46479.1,0.0672156,0.0669509,3.75686,24,0.00272982,10,0.000251525,-2.42518,0.306292,0.192627,28.2185,0.06695094,
2,1,0,1,0,46479.2,0.0687164,0.0683981,3.78909,24,0.0028246,10,0.000259166,-2.42146,0.360108,0.16384,24.2617,0.0683981,
2,1,0,1,0,46479.2,0.0702172,0.069868,3.83122,24,0.00292035,10,0.00026768,-2.41666,0.36014,0.163825,24.5012,0.069868,
2,1,0,1,0,46479.2,0.0717114,0.071404,3.87266,24,0.00301664,10,0.000276524,-2.41199,0.343447,0.171788,25.9339,0.07140404,
2,1,0,1,0,46479.2,0.073211,0.0729042,3.90499,24,0.00311425,10,0.00028469,-2.40838,0.342167,0.17243,26.3085,0.0729042,
2,1,0,1,0,46479.3,0.0747105,0.0743928,3.94089,24,0.00321278,10,0.000293173,-2.40441,0.400411,0.147349,22.6725,0.0743928,
2,1,0,1,0,46479.3,0.0762101,0.0759331,3.97347,24,0.00331214,10,0.000301718,-2.40083,0.461084,0.127959,19.8628,0.0759331,
2,1,0,1,0,46479.3,0.0777042,0.0773749,4.01329,24,0.00341193,10,0.000310528,-2.3965,0.412075,0.143178,22.386,0.0773749,
2,1,0,1,0,46479.3,0.0792037,0.0788968,4.04698,24,0.00351298,10,0.000319294,-2.39287,0.401351,0.147004,23.1879,0.0788968,
2,1,0,1,0,46479.4,0.0807046,0.080397,4.07247,24,0.00361491,10,0.000327414,-2.39014,0.463702,0.127237,20.2151,0.080397,
2,1,0,1,0,46479.4,0.0821988,0.0818525,4.10514,24,0.00371719,10,0.000336016,-2.38667,0.553405,0.106613,17.0842,0.0818525,
2,1,0,1,0,46479.4,0.0836983,0.0834014,4.13694,24,0.0038205,10,0.000345027,-2.38332,0.507613,0.11623,18.749,0.0834014,
2,1,0,1,0,46479.4,0.0851979,0.0849075,4.16327,24,0.00392462,10,0.000353493,-2.38057,0.461803,0.12776,20.74,0.0849075,
2,1,0,1,0,46479.5,0.0866921,0.0863562,4.18636,24,0.00402908,10,0.000361518,-2.37816,0.519949,0.113473,18.5552,0.0863562,
2,1,0,1,0,46479.5,0.0881929,0.0878458,4.2259,24,0.00413465,10,0.000371227,-2.37408,0.562619,0.104867,17.2795,0.0878458,
2,1,0,1,0,46479.5,0.0896937,0.0893675,4.25353,24,0.00424086,10,0.000380127,-2.37125,0.540837,0.10909,18.0975,0.0893675,
2,1,0,1,0,46479.5,0.0911879,0.0908102,4.28017,24,0.00434741,10,0.000388683,-2.36854,0.413439,0.142705,23.8294,0.0908102,
2,1,0,1,0,46479.6,0.0926861,0.0923583,4.31266,24,0.00445524,10,0.00039831,-2.36525,0.404145,0.145987,24.5746,0.0923583,
2,1,0,1,0,46479.6,0.0941856,0.0938698,4.34771,24,0.00456391,10,0.000408119,-2.36174,0.459353,0.128441,21.8087,0.0938698,
2,1,0,1,0,46479.6,0.0956852,0.0953984,4.38085,24,0.00467343,10,0.000417926,-2.35844,0.419493,0.140646,24.0679,0.0953984,
2,1,0,1,0,46479.6,0.0971794,0.0967975,4.41875,24,0.0047834,10,0.000427723,-2.3547,0.331846,0.177793,30.713,0.0967975,
2,1,0,1,0,46479.7,0.0986802,0.0984088,4.46206,24,0.00489492,10,0.000439106,-2.35046,0.331018,0.178238,31.1059,0.0984088,
2,1,0,1,0,46479.7,0.100181,0.0998472,4.51233,24,0.0050076,10,0.000450543,-2.3456,0.340733,0.173156,30.5191,0.0998472,
2,1,0,1,0,46479.7,0.101675,0.101368,4.56723,24,0.00512103,10,0.00046297,-2.34035,0.299933,0.19671,35.0537,0.101368,
2,1,0,1,0,46479.7,0.103175,0.102842,4.61898,24,0.00523622,10,0.000475026,-2.33545,0.251784,0.234328,42.3017,0.102842,
2,1,0,1,0,46479.8,0.104674,0.104364,4.6847,24,0.00535292,10,0.000488913,-2.32932,0.252791,0.233394,42.6935,0.104364,
2,1,0,1,0,46479.8,0.106169,0.10584,4.74609,24,0.0054708,10,0.000502324,-2.32366,0.264802,0.222808,41.2938,0.1058396,
2,1,0,1,0,46479.8,0.107668,0.107385,4.8186,24,0.00559078,10,0.000517446,-2.31708,0.255929,0.230532,43.3282,0.107385,
2,1,0,1,0,46479.8,0.109169,0.108874,4.88647,24,0.00571242,10,0.000532009,-2.311,0.233294,0.2529,48.239,0.108874,
2,1,0,1,0,46479.9,0.110663,0.110362,4.95549,24,0.00583533,10,0.0005469,-2.30491,0.222179,0.265552,51.4317,0.110362,
2,1,0,1,0,46479.9,0.112163,0.111838,5.03293,24,0.00596067,10,0.000562871,-2.29818,0.230517,0.255947,50.295,0.111838,
2,1,0,1,0,46479.9,0.113662,0.113317,5.11948,24,0.00608798,10,0.000580127,-2.29077,0.230319,0.256166,51.104,0.113317,
2,1,0,1,0,46479.9,0.115162,0.114844,5.18536,24,0.00621712,10,0.000595508,-2.28522,0.237322,0.248608,50.3239,0.114844,
2,1,0,1,0,46480,0.116656,0.116341,5.26058,24,0.00634765,10,0.000612023,-2.27897,0.245086,0.240732,49.4437,0.116341,
2,1,0,1,0,46480,0.118157,0.117842,5.33631,24,0.00648057,10,0.000628841,-2.27276,0.25644,0.230073,47.9089,0.117842,
2,1,0,1,0,46480,0.119658,0.119376,5.41012,24,0.00661525,10,0.000645836,-2.26679,0.303895,0.194146,40.9133,0.119376,
2,1,0,1,0,46480,0.121152,0.120822,5.46562,24,0.00675102,10,0.000660368,-2.26236,0.300183,0.196547,41.9041,0.120822,
2,1,0,1,0,46480.1,0.122651,0.12232,5.51966,24,0.00688881,10,0.000675165,-2.25809,0.315311,0.187117,40.3355,0.12232,
2,1,0,1,0,46480.1,0.124151,0.123878,5.58106,24,0.00702806,10,0.000691369,-2.25328,0.360706,0.163568,35.6277,0.123878,
2,1,0,1,0,46480.1,0.125649,0.125324,5.63617,24,0.00716867,10,0.000706345,-2.24902,0.42351,0.139312,30.5908,0.125324,
2,1,0,1,0,46480.1,0.127143,0.126813,5.6784,24,0.00730995,10,0.000720096,-2.24577,0.409991,0.143905,31.8447,0.126813,
2,1,0,1,0,46480.2,0.128644,0.128328,5.71622,24,0.00745279,10,0.000733552,-2.24289,0.461017,0.127978,28.5753,0.128328,
2,1,0,1,0,46480.2,0.130145,0.129837,5.75646,24,0.00759667,10,0.000747401,-2.23984,0.574728,0.102657,23.0644,0.129837,
2,1,0,1,0,46480.2,0.131639,0.131322,5.80002,24,0.00774094,10,0.000761671,-2.23657,0.66456,0.0887805,20.0474,0.131322,
2,1,0,1,0,46480.2,0.133139,0.132805,5.82833,24,0.00788664,10,0.000774034,-2.23446,0.670154,0.0880395,20.0012,0.132805,
2,1,0,1,0,46480.3,0.134638,0.134332,5.84753,24,0.00803292,10,0.000785508,-2.23303,0.810077,0.0728326,16.6413,0.134332,
2,1,0,1,0,46480.3,0.136132,0.135842,5.87665,24,0.00817931,10,0.000798297,-2.23087,0.843093,0.0699804,16.047,0.135842,
2,1,0,1,0,46480.3,0.137633,0.137284,5.90399,24,0.00832691,10,0.000810523,-2.22885,1.23982,0.0475877,10.9388,0.137284,
2,1,0,1,0,46480.3,0.139133,0.138813,5.9169,24,0.00847497,10,0.000821344,-2.22791,1.5774,0.0374032,8.61572,0.138813,
2,1,0,1,0,46480.4,0.140627,0.140324,5.91596,24,0.00862263,10,0.000830151,-2.22797,5.49774,0.0107317,2.47586,0.140324,
2,1,0,1,0,46480.4,0.142126,0.141813,5.91112,24,0.00877095,10,0.000838275,-2.22833,-2.86661,-0.0205818,-4.74506,0.141813,
2,1,0,1,0,46480.4,0.143626,0.143306,5.9067,24,0.00891916,10,0.000846465,-2.22866,-0.921948,-0.0639949,-14.7144,0.143306,
2,1,0,1,0,46480.4,0.145125,0.14483,5.88368,24,0.00906693,10,0.000852133,-2.23035,-0.561313,-0.105111,-24.0471,0.14483,
2,1,0,1,0,46480.5,0.14662,0.146326,5.82498,24,0.00921312,10,0.000852346,-2.23471,-0.36504,-0.161626,-36.707,0.146326,
2,1,0,1,0,46480.5,0.14812,0.147797,5.76795,24,0.00935849,10,0.000852487,-2.23898,-0.264918,-0.22271,-49.9718,0.147797,
2,1,0,1,0,46480.5,0.149621,0.149324,5.68866,24,0.00950204,10,0.000849453,-2.24499,-0.209675,-0.281388,-62.1842,0.149324,
2,1,0,1,0,46480.5,0.151116,0.150846,5.58687,24,0.00964272,10,0.00084276,-2.25283,-0.167239,-0.352789,-76.5002,0.150846,
2,1,0,1,0,46480.6,0.152615,0.152331,5.45388,24,0.00978109,10,0.000830798,-2.26329,-0.142844,-0.413039,-87.6582,0.152331,
2,1,0,1,0,46480.6,0.154115,0.153773,5.30949,24,0.00991604,10,0.000816454,-2.27495,-0.122462,-0.481783,-99.6721,0.153773,
2,1,0,1,0,46480.6,0.155614,0.155301,5.15989,24,0.0100473,10,0.000801338,-2.28736,-0.108271,-0.544928,-109.372,0.1553013,
2,1,0,1,0,46480.6,0.157107,0.156775,4.99169,24,0.010174,10,0.000782571,-2.30175,-0.100299,-0.588242,-114.277,0.156775,
2,1,0,1,0,46480.7,0.158608,0.158299,4.81241,24,0.010297,10,0.000761799,-2.31764,-0.094659,-0.62329,-116.978,0.158299,
2,1,0,1,0,46480.7,0.160109,0.159788,4.63326,24,0.0104154,10,0.000740338,-2.33411,-0.0893531,-0.660302,-119.388,0.159788,
2,1,0,1,0,46480.7,0.161603,0.161256,4.46068,24,0.0105289,10,0.000719311,-2.3506,-0.0894228,-0.659787,-114.834,0.161256,
2,1,0,1,0,46480.7,0.163102,0.162802,4.2944,24,0.0106387,10,0.000699134,-2.3671,-0.0910586,-0.647934,-108.559,0.162802,
2,1,0,1,0,46480.8,0.164602,0.164264,4.13259,24,0.0107444,10,0.000678837,-2.38378,-0.0937977,-0.629013,-101.658,0.164264,
2,1,0,1,0,46480.8,0.166096,0.165763,3.98247,24,0.0108459,10,0.000660147,-2.39985,-0.0961912,-0.613362,-95.6701,0.165763,
2,1,0,1,0,46480.8,0.167597,0.167294,3.85302,24,0.0109441,10,0.000644587,-2.4142,-0.0986632,-0.597994,-89.956,0.167294,
2,1,0,1,0,46480.8,0.169098,0.168796,3.72856,24,0.0110392,10,0.000629368,-2.42846,-0.108338,-0.544592,-79.2473,0.168796,
2,1,0,1,0,46480.9,0.170592,0.170277,3.60987,24,0.0111309,10,0.000614676,-2.44251,-0.114167,-0.516786,-73.0217,0.170277,
2,1,0,1,0,46480.9,0.17209,0.171758,3.50042,24,0.0112202,10,0.000601226,-2.45588,-0.121443,-0.485825,-66.6208,0.171758,
2,1,0,1,0,46480.9,0.17359,0.173272,3.41339,24,0.011307,10,0.000591444,-2.46681,-0.128969,-0.457476,-60.9762,0.173272,
2,1,0,1,0,46480.9,0.175089,0.174811,3.32613,24,0.0113915,10,0.000581445,-2.47806,-0.147198,-0.400822,-52.0952,0.174811,
2,1,0,1,0,46481,0.176583,0.176273,3.24717,24,0.0114737,10,0.000572386,-2.4885,-0.152239,-0.387549,-49.2388,0.176273,
2,1,0,1,0,46481,0.178084,0.177715,3.17054,24,0.0115544,10,0.000563454,-2.49887,-0.161564,-0.365181,-45.3648,0.177715,
2,1,0,1,0,46481,0.179585,0.179295,3.11231,24,0.0116333,10,0.000558023,-2.50692,-0.173731,-0.339606,-41.2995,0.179295,
2,1,0,1,0,46481,0.181079,0.180801,3.05666,24,0.0117105,10,0.000552649,-2.51475,-0.204229,-0.288891,-34.4555,0.180801,
2,1,0,1,0,46481.1,0.182579,0.182298,3.00438,24,0.0117866,10,0.000547692,-2.52225,-0.207577,-0.284233,-33.3211,0.182298,
2,1,0,1,0,46481.1,0.184078,0.183768,2.95224,24,0.0118615,10,0.000542527,-2.52985,-0.215759,-0.273453,-31.5788,0.183768,
2,1,0,1,0,46481.1,0.185578,0.185301,2.91596,24,0.0119351,10,0.000540332,-2.53522,-0.233114,-0.253095,-28.7823,0.185301,
2,1,0,1,0,46481.1,0.187072,0.186768,2.87351,24,0.0120075,10,0.000536679,-2.54159,-0.271315,-0.21746,-24.3456,0.186768,
2,1,0,1,0,46481.2,0.188573,0.188265,2.83522,24,0.0120792,10,0.000533774,-2.54741,-0.293006,-0.201361,-22.3058,0.1882654,
2,1,0,1,0,46481.2,0.190072,0.189777,2.80174,24,0.01215,10,0.000531704,-2.55257,-0.273103,-0.216035,-23.6396,0.189777,
2,1,0,1,0,46481.2,0.191567,0.191271,2.77166,24,0.0122198,10,0.000530139,-2.55726,-0.308201,-0.191434,-20.7245,0.191271,
2,1,0,1,0,46481.2,0.193066,0.192752,2.74433,24,0.0122891,10,0.000528974,-2.56156,-0.429733,-0.137295,-14.7041,0.192752,
2,1,0,1,0,46481.3,0.194566,0.194281,2.71896,24,0.0123578,10,0.000528241,-2.5656,-0.424366,-0.139031,-14.765,0.194281,
2,1,0,1,0,46481.3,0.19606,0.195699,2.6926,24,0.0124256,10,0.000526938,-2.56983,-0.365763,-0.161307,-16.9836,0.195699,
2,1,0,1,0,46481.3,0.197561,0.197261,2.67187,24,0.0124931,10,0.000527055,-2.57319,-0.417882,-0.141188,-14.749,0.197261,
2,1,0,1,0,46481.3,0.199062,0.198754,2.65845,24,0.01256,10,0.000528377,-2.57537,-0.501293,-0.117696,-12.2007,0.198754,
2,1,0,1,0,46481.4,0.200556,0.200254,2.63902,24,0.0126263,10,0.000528475,-2.57856,-0.750185,-0.0786472,-8.10204,0.200254,
2,1,0,1,0,46481.4,0.202055,0.201709,2.61806,24,0.0126924,10,0.000528087,-2.58202,-0.528884,-0.111556,-11.4146,0.201709,
2,1,0,1,0,46481.4,0.203554,0.203272,2.60681,24,0.0127581,10,0.000529891,-2.58389,-0.486133,-0.121366,-12.3238,0.203272,
2,1,0,1,0,46481.4,0.205053,0.204741,2.58622,24,0.0128233,10,0.000529505,-2.58733,-0.702652,-0.0839676,-8.49494,0.204741,
2,1,0,1,0,46481.5,0.206547,0.2062,2.57199,24,0.012888,10,0.000530344,-2.58973,-1.00547,-0.058679,-5.90537,0.2062,
2,1,0,1,0,46481.5,0.208048,0.207778,2.56419,24,0.0129527,10,0.000532781,-2.59105,-0.602938,-0.0978541,-9.79532,0.207778,
2,1,0,1,0,46481.5,0.209549,0.209266,2.55636,24,0.0130171,10,0.000534959,-2.59238,-0.605584,-0.0974266,-9.70326,0.209266,
2,1,0,1,0,46481.5,0.211043,0.210783,2.54407,24,0.0130809,10,0.000536248,-2.59447,-0.707252,-0.0834215,-8.27591,0.210783,
2,1,0,1,0,46481.6,0.212543,0.21224,2.52881,24,0.0131446,10,0.000536715,-2.59708,-1.16262,-0.0507474,-5.01395,0.21224,
2,1,0,1,0,46481.6,0.214042,0.213686,2.51497,24,0.0132081,10,0.000537413,-2.59947,-0.829447,-0.0711317,-7.00507,0.213686,
2,1,0,1,0,46481.6,0.215536,0.215239,2.51196,24,0.0132712,10,0.000540672,-2.59999,-0.773057,-0.0763203,-7.48418,0.215239,
2,1,0,1,0,46481.6,0.217036,0.216729,2.49993,24,0.0133342,10,0.000541807,-2.60207,-1.05387,-0.0559842,-5.46704,0.216729,
2,1,0,1,0,46481.7,0.218537,0.218236,2.48917,24,0.013397,10,0.000543225,-2.60395,-2.75469,-0.021418,-2.08708,0.218236,
2,1,0,1,0,46481.7,0.220031,0.21975,2.48704,24,0.0134594,10,0.000546528,-2.60432,-1.24468,-0.0474019,-4.60603,0.2197504,
2,1,0,1,0,46481.7,0.22153,0.221271,2.48409,24,0.0135219,10,0.000549658,-2.60483,-0.817425,-0.0721779,-6.98135,0.2212712,
2,1,0,1,0,46481.7,0.22303,0.222723,2.47121,24,0.0135842,10,0.000550395,-2.60709,-1.55315,-0.0379874,-3.65889,0.222723,
2,1,0,1,0,46481.8,0.224529,0.224221,2.46002,24,0.0136463,10,0.000551586,-2.60906,-1.76008,-0.0335212,-3.22847,0.224221,
2,1,0,1,0,46481.8,0.226024,0.225698,2.45471,24,0.013708,10,0.000554023,-2.61,-1.20772,-0.0488525,-4.69249,0.225698,
2,1,0,1,0,46481.8,0.227525,0.227261,2.4572,24,0.0137698,10,0.000558426,-2.60956,-0.830806,-0.0710154,-6.80242,0.227261,
2,1,0,1,0,46481.8,0.229025,0.228716,2.45265,24,0.0138314,10,0.00056096,-2.61036,-1.61388,-0.0365578,-3.48994,0.228716,
2,1,0,1,0,46481.9,0.23052,0.230219,2.43914,24,0.0138926,10,0.000561537,-2.61276,-3.91,-0.0150895,-1.43842,0.230219,
2,1,0,1,0,46481.9,0.232019,0.231715,2.43493,24,0.013954,10,0.00056421,-2.61351,-1.79802,-0.0328139,-3.11933,0.2317148,
2,1,0,1,0,46481.9,0.233519,0.233202,2.43523,24,0.0140152,10,0.000567901,-2.61346,-1.52731,-0.0386299,-3.6638,0.233202,
2,1,0,1,0,46481.9,0.235018,0.234741,2.4307,24,0.0140764,10,0.000570584,-2.61427,-1.30075,-0.0453584,-4.29268,0.234741,
2,1,0,1,0,46482,0.236511,0.236222,2.41859,24,0.0141371,10,0.000571324,-2.61644,-2.31088,-0.0255314,-2.41219,0.236222,
2,1,0,1,0,46482,0.238012,0.2377,2.41453,24,0.0141979,10,0.000573933,-2.61717,-2.26833,-0.0260103,-2.4544,0.2377,
2,1,0,1,0,46482,0.239513,0.239257,2.41677,24,0.0142587,10,0.000578229,-2.61676,-1.12717,-0.0523433,-4.9243,0.239257,
2,1,0,1,0,46482,0.241007,0.240738,2.41163,24,0.0143191,10,0.000580571,-2.61769,-1.44398,-0.0408593,-3.8368,0.2407382,
2,1,0,1,0,46482.1,0.242506,0.242205,2.39945,24,0.0143796,10,0.00058116,-2.61989,-2.87172,-0.0205452,-1.92768,0.242205,
2,1,0,1,0,46482.1,0.244006,0.243669,2.39321,24,0.0144399,10,0.00058315,-2.62102,-8.59807,-0.006862,-0.642698,0.243669,
2,1,0,1,0,46482.1,0.2455,0.245175,2.39775,24,0.0145001,10,0.000587868,-2.6202,-2.44688,-0.0241124,-2.25448,0.245175,
2,1,0,1,0,46482.1,0.247001,0.246672,2.39531,24,0.0145603,10,0.000590856,-2.62064,-1.99562,-0.0295647,-2.75725,0.246672,
2,1,0,1,0,46482.2,0.248502,0.248203,2.38957,24,0.0146205,10,0.000593098,-2.62168,-3.70946,-0.0159053,-1.48181,0.248203,
2,1,0,1,0,46482.2,0.249995,0.249698,2.3835,24,0.0146802,10,0.000595155,-2.62278,-2.07377,-0.0284506,-2.64743,0.249698,
2,1,0,1,0,46482.2,0.251494,0.25124,2.38318,24,0.0147402,10,0.000598749,-2.62284,-1.70696,-0.0345644,-3.21047,0.25124,
2,1,0,1,0,46482.2,0.252994,0.252668,2.38296,24,0.0148001,10,0.000602097,-2.62288,-1.25704,-0.0469355,-4.34867,0.252668,
2,1,0,1,0,46482.3,0.254493,0.254205,2.37243,24,0.0148599,10,0.000603083,-2.62481,-2.12391,-0.027779,-2.57523,0.254205,
2,1,0,1,0,46482.3,0.255988,0.255661,2.36372,24,0.0149192,10,0.000604312,-2.6264,-1.88777,-0.0312538,-2.893,0.255661,
2,1,0,1,0,46482.3,0.257488,0.257218,2.36506,24,0.0149788,10,0.000608334,-2.62616,-2.31669,-0.0254674,-2.35062,0.257218,
2,1,0,1,0,46482.3,0.258989,0.258701,2.36978,24,0.0150383,10,0.000613064,-2.62529,-4.06708,-0.0145067,-1.33644,0.258701,
2,1,0,1,0,46482.4,0.260483,0.260227,2.36139,24,0.0150975,10,0.000614498,-2.62683,-1.712,-0.0344626,-3.17181,0.260227,
2,1,0,1,0,46482.4,0.261983,0.261697,2.35277,24,0.0151568,10,0.000615713,-2.62842,-2.01669,-0.0292558,-2.69282,0.261697,
2,1,0,1,0,46482.4,0.263482,0.263134,2.35366,24,0.015216,10,0.000619328,-2.62826,-1.87589,-0.0314518,-2.88687,0.263134,
2,1,0,1,0,46482.4,0.264982,0.2647,2.35357,24,0.0152752,10,0.000622989,-2.62827,-3.29317,-0.0179159,-1.6405,0.2647,
2,1,0,1,0,46482.5,0.266476,0.266173,2.34468,24,0.015334,10,0.000624088,-2.62992,-3.20224,-0.0184246,-1.68583,0.266173,
2,1,0,1,0,46482.5,0.267976,0.267638,2.33367,24,0.015393,10,0.00062458,-2.63196,-2.27955,-0.0258824,-2.36859,0.267638,
2,1,0,1,0,46482.5,0.269477,0.269138,2.33847,24,0.0154518,10,0.000629371,-2.63107,-2.30726,-0.0255714,-2.33599,0.269138,
2,1,0,1,0,46482.5,0.270971,0.270706,2.3406,24,0.0155104,10,0.000633613,-2.63067,-2.44297,-0.0241509,-2.1981,0.270706,
2,1,0,1,0,46482.6,0.27247,0.272158,2.33387,24,0.0155692,10,0.000635182,-2.63192,-3.25152,-0.0181453,-1.6495,0.272158,
2,1,0,1,0,46482.6,0.27397,0.273659,2.32161,24,0.0156279,10,0.000635329,-2.63421,-1.36634,-0.043181,-3.92828,0.273659,
2,1,0,1,0,46482.6,0.275464,0.275144,2.32418,24,0.0156861,10,0.000639483,-2.63373,-1.4206,-0.0415316,-3.77136,0.275144,
2,1,0,1,0,46482.6,0.276965,0.276685,2.32683,24,0.0157446,10,0.000643799,-2.63324,-1.77397,-0.0332588,-3.011,0.276685,
2,1,0,1,0,46482.7,0.278466,0.278171,2.31729,24,0.015803,10,0.000644602,-2.63502,-2.23383,-0.0264121,-2.3886,0.2781707,
2,1,0,1,0,46482.7,0.27996,0.279664,2.3139,24,0.015861,10,0.000647114,-2.63566,-2.49501,-0.0236472,-2.13643,0.279664,
2,1,0,1,0,46482.7,0.281458,0.281114,2.30997,24,0.0159191,10,0.000649365,-2.63639,-2.56597,-0.0229933,-2.07448,0.281114,
2,1,0,1,0,46482.7,0.282958,0.282688,2.30695,24,0.0159772,10,0.000652147,-2.63696,-2.71076,-0.0217651,-1.95743,0.282688,
2,1,0,1,0,46482.8,0.284457,0.284181,2.30342,24,0.0160352,10,0.000654588,-2.63763,12.4885,0.00472435,0.424725,0.284181,
2,1,0,1,0,46482.8,0.285951,0.285658,2.29521,24,0.0160929,10,0.000655647,-2.63918,-2.43331,-0.0242468,-2.17692,0.285658,
2,1,0,1,0,46482.8,0.287452,0.287153,2.2916,24,0.0161507,10,0.000658039,-2.63986,-1.64938,-0.0357709,-3.20409,0.2871533,
2,1,0,1,0,46482.8,0.288953,0.288653,2.29602,24,0.0162084,10,0.000662755,-2.63902,-2.9781,-0.0198113,-1.76974,0.288653,
2,1,0,1,0,46482.9,0.290447,0.290121,2.28816,24,0.0162658,10,0.000663842,-2.64051,-3.33811,-0.0176746,-1.57889,0.290121,
2,1,0,1,0,46482.9,0.291947,0.291639,2.28415,24,0.0163233,10,0.000666146,-2.64128,-1.53474,-0.038443,-3.42675,0.291639,
2,1,0,1,0,46482.9,0.293446,0.293121,2.27348,24,0.0163808,10,0.000666404,-2.64331,-1.24584,-0.0473577,-4.21373,0.293121,
2,1,0,1,0,46482.9,0.29494,0.294644,2.27741,24,0.0164378,10,0.000671025,-2.64256,-2.95279,-0.0199811,-1.77619,0.294644,
2,1,0,1,0,46483,0.29644,0.296184,2.27691,24,0.0164951,10,0.000674385,-2.64265,-3.2278,-0.0182787,-1.62105,0.296184,
2,1,0,1,0,46483,0.297941,0.297648,2.26728,24,0.0165523,10,0.000674852,-2.64449,-2.39642,-0.0246201,-2.18387,0.297648,
2,1,0,1,0,46483,0.29944,0.29911,2.26431,24,0.0166094,10,0.000677276,-2.64507,-0.00852761,-6.9187,-483.665,0.2991097,
2,1,0,1,0,46483,0.299736,0.299434,1.8671,24,0.0166389,10,0.000559072,-2.72883,0.00193628,30.4709,1425.35,0.299434,
2,1,0,1,0,46483,0.298238,0.297921,0.750714,24,0.0166692,10,0.000223653,-3.12453,0.00243153,24.2645,590.868,0.297921,
2,1,0,1,0,46483.1,0.296744,0.296448,0.201031,24,0.01668,10,5.95951e-05,-3.69674,0.00597916,9.8676,310.064,0.296448,
2,0,0,1,0,46483.1,0.295243,0.294902,-0.132016,24,0.01668,10,-3.89317e-05,-3.87937,-0.0639421,-0.92271,188.698,0.294902,
2,0,0,1,0,46483.1,0.293742,0.293402,-0.354556,24,0.0166733,10,-0.000104027,-3.45032,-0.00360348,-16.3731,125.55,0.293402,
2,0,0,1,0,46483.1,0.292248,0.291903,-0.499716,24,0.0166623,10,-0.000145868,-3.30128,-0.0113275,-5.20855,89.6164,0.291903,
2,0,0,1,0,46483.2,0.290748,0.290469,-0.615031,24,0.0166479,10,-0.000178647,-3.2111,-0.0194452,-3.03417,68.5025,0.290469,
2,0,0,1,0,46483.2,0.289249,0.288912,-0.702103,24,0.016631,10,-0.000202846,-3.1536,-0.0291686,-2.02273,54.0545,0.288912,
2,0,0,1,0,46483.2,0.287754,0.287427,-0.776191,24,0.0166121,10,-0.000223098,-3.11003,-0.0403233,-1.46317,43.298,0.287427,
2,0,0,1,0,46483.2,0.286254,0.285926,-0.834672,24,0.0165916,10,-0.000238655,-3.07848,-0.0495768,-1.19007,38.189,0.285926,
2,0,0,1,0,46483.3,0.284754,0.284478,-0.883818,24,0.0165697,10,-0.000251427,-3.05364,-0.060613,-0.973389,33.3063,0.284478,
2,0,0,1,0,46483.3,0.28326,0.282951,-0.927598,24,0.0165467,10,-0.000262464,-3.03264,-0.070973,-0.831302,30.0246,0.282951,
2,0,0,1,0,46483.3,0.28176,0.281438,-0.973001,24,0.0165224,10,-0.000273839,-3.01189,-0.0889003,-0.663665,24.9674,0.281438,
2,0,0,1,0,46483.3,0.280261,0.279938,-1.00986,24,0.0164972,10,-0.000282697,-2.99574,-0.0925798,-0.637288,25.0044,0.279938,
2,0,0,1,0,46483.4,0.278761,0.278442,-1.03835,24,0.0164711,10,-0.00028912,-2.98366,-0.105791,-0.557702,22.6782,0.278442,
2,0,0,1,0,46483.4,0.277267,0.276932,-1.07249,24,0.0164443,10,-0.000297008,-2.96961,-0.125133,-0.471499,19.8335,0.276932,
2,0,0,1,0,46483.4,0.275766,0.27542,-1.10608,24,0.0164165,10,-0.000304636,-2.95621,-0.144941,-0.407062,17.5159,0.27542,
2,0,0,1,0,46483.4,0.274265,0.273968,-1.13885,24,0.0163881,10,-0.00031201,-2.94353,-0.132157,-0.446439,19.6955,0.273968,
2,0,0,1,0,46483.5,0.272771,0.272463,-1.15726,24,0.0163591,10,-0.000315311,-2.93657,-0.141238,-0.417733,18.9366,0.272463,
2,0,0,1,0,46483.5,0.271272,0.270974,-1.18019,24,0.0163294,10,-0.000319802,-2.92805,-0.173272,-0.340505,15.7535,0.270974,
2,0,0,1,0,46483.5,0.269772,0.269461,-1.21019,24,0.016299,10,-0.0003261,-2.91715,-0.186838,-0.315781,14.8544,0.269461,
2,0,0,1,0,46483.5,0.268273,0.267958,-1.23621,24,0.016268,10,-0.000331251,-2.90791,-0.192451,-0.306571,14.7101,0.267958,
2,0,0,1,0,46483.6,0.26678,0.266458,-1.25265,24,0.0162366,10,-0.000333777,-2.90217,-0.196193,-0.300724,14.7374,0.266458,
2,0,0,1,0,46483.6,0.265279,0.264993,-1.26955,24,0.0162047,10,-0.000336423,-2.89635,-0.198291,-0.297543,14.7783,0.264993,
2,0,0,1,0,46483.6,0.263778,0.263465,-1.29447,24,0.0161721,10,-0.000341048,-2.88791,-0.220822,-0.267183,13.4696,0.263465,
2,0,0,1,0,46483.6,0.262284,0.261956,-1.31744,24,0.0161392,10,-0.000345111,-2.88027,-0.254012,-0.232272,11.8913,0.261956,
2,0,0,1,0,46483.7,0.260784,0.2605,-1.32842,24,0.0161057,10,-0.000346053,-2.87666,-0.227176,-0.25971,13.5063,0.2605,
2,0,0,1,0,46483.7,0.259285,0.25898,-1.34634,24,0.0160718,10,-0.000348676,-2.87084,-0.279382,-0.21118,11.1482,0.25898,
2,0,0,1,0,46483.7,0.257791,0.257451,-1.37555,24,0.0160375,10,-0.000354138,-2.86152,-0.281514,-0.209581,11.1871,0.257451,
2,0,0,1,0,46483.7,0.25629,0.255976,-1.38895,24,0.0160026,10,-0.000355538,-2.85731,-0.272095,-0.216836,11.6785,0.255976,
2,0,0,1,0,46483.8,0.254789,0.254495,-1.39854,24,0.0159674,10,-0.000355921,-2.85433,-0.310456,-0.190043,10.378,0.254495,
2,0,0,1,0,46483.8,0.253296,0.252978,-1.41432,24,0.0159319,10,-0.000357792,-2.84945,-0.318392,-0.185306,10.2618,0.252978,
2,0,0,1,0,46483.8,0.251797,0.251486,-1.43591,24,0.0158959,10,-0.000361112,-2.84287,-0.296778,-0.198802,11.1206,0.251486,
2,0,0,1,0,46483.8,0.250297,0.249931,-1.45077,24,0.0158594,10,-0.000362592,-2.8384,-0.327613,-0.18009,10.165,0.249931,
2,0,0,1,0,46483.9,0.248797,0.248508,-1.46294,24,0.0158225,10,-0.000363552,-2.83477,-0.309967,-0.190343,10.8676,0.248508,
2,0,0,1,0,46483.9,0.247303,0.24697,-1.47379,24,0.0157855,10,-0.000363982,-2.83156,-0.366351,-0.161048,9.30756,0.2469697,
2,0,0,1,0,46483.9,0.245802,0.245491,-1.49441,24,0.015748,10,-0.000366864,-2.82553,-0.365595,-0.161381,9.38525,0.245491,
2,0,0,1,0,46483.9,0.244302,0.243977,-1.51477,24,0.0157099,10,-0.000369569,-2.81965,-0.390527,-0.151078,8.86811,0.243977,
2,0,0,1,0,46484,0.242807,0.242478,-1.52459,24,0.0156718,10,-0.000369679,-2.81685,-0.370872,-0.159084,9.45085,0.242478,
2,0,0,1,0,46484,0.241308,0.241019,-1.53258,24,0.0156331,10,-0.00036938,-2.81458,-0.363317,-0.162393,9.73981,0.241019,
2,0,0,1,0,46484,0.239808,0.239479,-1.55035,24,0.0155942,10,-0.000371275,-2.80957,-0.369602,-0.159631,9.66029,0.239479,
2,0,0,1,0,46484,0.238309,0.237996,-1.56904,24,0.0155548,10,-0.000373424,-2.80437,-0.322968,-0.182681,11.1028,0.237996,
2,0,0,1,0,46484.1,0.236815,0.236479,-1.57467,24,0.0155153,10,-0.000372376,-2.80281,-0.404031,-0.146028,8.96684,0.236479,
2,0,0,1,0,46484.1,0.235315,0.234998,-1.5821,24,0.0154753,10,-0.000371791,-2.80077,-0.415176,-0.142108,8.82743,0.234998,
2,0,0,1,0,46484.1,0.233814,0.233479,-1.60291,24,0.0154351,10,-0.000374245,-2.79509,-0.454349,-0.129856,8.12606,0.233479,
2,0,0,1,0,46484.1,0.23232,0.231991,-1.61735,24,0.0153946,10,-0.00037521,-2.7912,-0.411558,-0.143358,9.03182,0.231991,
2,0,0,1,0,46484.2,0.230821,0.230496,-1.62898,24,0.0153536,10,-0.000375474,-2.78808,-0.433862,-0.135988,8.63295,0.230496,
2,0,0,1,0,46484.2,0.229321,0.228943,-1.63884,24,0.0153123,10,-0.000375202,-2.78546,-0.51424,-0.114732,7.35081,0.228943,
2,0,0,1,0,46484.2,0.227827,0.227476,-1.64946,24,0.0152709,10,-0.000375213,-2.78266,-0.541648,-0.108927,7.03389,0.227476,
2,0,0,1,0,46484.2,0.226326,0.226049,-1.66821,24,0.015229,10,-0.000377097,-2.77775,-0.428488,-0.137693,8.93287,0.226049,
2,0,0,1,0,46484.3,0.224825,0.224511,-1.68017,24,0.0151868,10,-0.000377216,-2.77465,-0.432886,-0.136295,8.91437,0.224511,
2,0,0,1,0,46484.3,0.223331,0.223013,-1.68838,24,0.0151444,10,-0.000376531,-2.77253,-0.507711,-0.116208,7.66586,0.223013,
2,0,0,1,0,46484.3,0.221831,0.221531,-1.70399,24,0.0151017,10,-0.000377487,-2.76853,-0.595625,-0.0990556,6.57955,0.221531,
2,0,0,1,0,46484.3,0.220333,0.219983,-1.71681,24,0.0150585,10,-0.00037767,-2.76528,-0.417874,-0.141191,9.43784,0.219983,
2,0,0,1,0,46484.4,0.218834,0.21851,-1.72557,24,0.015015,10,-0.000377054,-2.76307,-0.382131,-0.154397,10.4053,0.21851,
2,0,0,1,0,46484.4,0.21734,0.217054,-1.73485,24,0.0149714,10,-0.000376555,-2.76074,-0.623907,-0.0945654,6.43451,0.217054,
2,0,0,1,0,46484.4,0.215839,0.215541,-1.75268,24,0.0149274,10,-0.000377775,-2.7563,-0.691747,-0.0852913,5.83231,0.215541,
2,0,0,1,0,46484.4,0.214338,0.21399,-1.76516,24,0.014883,10,-0.000377727,-2.75322,-0.443429,-0.133054,9.15012,0.21399,
2,0,0,1,0,46484.5,0.212844,0.212505,-1.77451,24,0.0148386,10,-0.000377092,-2.75092,-0.412202,-0.143134,9.90809,0.2125047,
2,0,0,1,0,46484.5,0.211344,0.211045,-1.78704,24,0.0147936,10,-0.000377147,-2.74786,-0.477461,-0.12357,8.62938,0.2110453,
2,0,0,1,0,46484.5,0.209845,0.209557,-1.79474,24,0.0147483,10,-0.000376101,-2.746,-0.706936,-0.0834588,5.85509,0.209557,
2,0,0,1,0,46484.5,0.20835,0.208068,-1.81399,24,0.0147029,10,-0.000377433,-2.74137,-0.462658,-0.127524,9.03112,0.208068,
2,0,0,1,0,46484.6,0.206851,0.206543,-1.82838,24,0.0146571,10,-0.000377638,-2.73793,-0.449287,-0.131319,9.34459,0.206543,
2,0,0,1,0,46484.6,0.20535,0.205057,-1.83931,24,0.0146107,10,-0.000377164,-2.73534,-0.54585,-0.108088,7.75047,0.205057,
2,0,0,1,0,46484.6,0.203856,0.203523,-1.84886,24,0.0145643,10,-0.000376286,-2.7331,-0.814475,-0.0724393,5.23033,0.203523,
2,0,0,1,0,46484.6,0.202356,0.202043,-1.86307,24,0.0145176,10,-0.000376419,-2.72977,-0.581153,-0.101522,7.37858,0.202043,
2,0,0,1,0,46484.7,0.200857,0.200513,-1.87215,24,0.0144705,10,-0.00037539,-2.72766,-0.420935,-0.140164,10.2542,0.200513,
2,0,0,1,0,46484.7,0.199357,0.199013,-1.88495,24,0.014423,10,-0.000375129,-2.7247,-0.516052,-0.11433,8.4082,0.199013,
2,0,0,1,0,46484.7,0.197863,0.197504,-1.89687,24,0.0143754,10,-0.000374641,-2.72196,-0.660552,-0.0893193,6.62598,0.197504,
2,0,0,1,0,46484.7,0.196362,0.196032,-1.91329,24,0.0143274,10,-0.000375067,-2.71822,-0.63545,-0.0928476,6.9198,0.196032,
2,0,0,1,0,46484.8,0.194861,0.194508,-1.92428,24,0.0142791,10,-0.000374289,-2.71573,-0.407062,-0.144941,10.8884,0.194508,
2,0,0,1,0,46484.8,0.193367,0.193059,-1.93984,24,0.0142306,10,-0.000374505,-2.71223,-0.39417,-0.149682,11.3294,0.193059,
2,0,0,1,0,46484.8,0.191868,0.191544,-1.95273,24,0.0141814,10,-0.000374033,-2.70936,-0.563658,-0.104673,7.9672,0.191544,
2,0,0,1,0,46484.8,0.190368,0.190069,-1.96134,24,0.014132,10,-0.00037279,-2.70745,-0.495442,-0.119086,9.12632,0.190069,
2,0,0,1,0,46484.9,0.18887,0.188544,-1.97551,24,0.0140823,10,-0.000372471,-2.70432,-0.362885,-0.162586,12.5661,0.188544,
2,0,0,1,0,46484.9,0.187376,0.187069,-1.99341,24,0.0140324,10,-0.000372904,-2.7004,-0.471284,-0.12519,9.75817,0.187069,
2,0,0,1,0,46484.9,0.185875,0.185574,-2.00797,24,0.013982,10,-0.000372627,-2.69724,-0.491373,-0.120072,9.40769,0.1855741,
2,0,0,1,0,46484.9,0.184374,0.184081,-2.02957,24,0.0139311,10,-0.000373605,-2.6926,-0.593356,-0.0994343,7.83646,0.184081,
2,0,0,1,0,46485,0.18288,0.182592,-2.04084,24,0.0138801,10,-0.000372642,-2.69019,-0.433119,-0.136221,10.8377,0.1825923,
2,0,0,1,0,46485,0.18138,0.181093,-2.05421,24,0.0138285,10,-0.000372003,-2.68736,-0.418861,-0.140858,11.3041,0.181093,
2,0,0,1,0,46485,0.179881,0.179563,-2.07341,24,0.0137764,10,-0.000372307,-2.68331,-0.549292,-0.107411,8.67816,0.179563,
2,0,0,1,0,46485,0.178387,0.178092,-2.09193,24,0.0137242,10,-0.000372556,-2.67945,-0.535148,-0.11025,8.98116,0.178092,
2,0,0,1,0,46485.1,0.176886,0.17658,-2.10854,24,0.0136714,10,-0.000372326,-2.67602,-0.39152,-0.150695,12.3873,0.17658,
2,0,0,1,0,46485.1,0.175385,0.175025,-2.12246,24,0.0136181,10,-0.000371483,-2.67316,-0.33566,-0.175773,14.5712,0.175025,
2,0,0,1,0,46485.1,0.173892,0.173576,-2.14603,24,0.0135645,10,-0.000372499,-2.66836,-0.377688,-0.156214,13.0636,0.173576,
2,0,0,1,0,46485.1,0.172392,0.172053,-2.1678,24,0.0135101,10,-0.000372977,-2.66398,-0.41948,-0.14065,11.87,0.172053,
2,0,0,1,0,46485.2,0.170893,0.170545,-2.1827,24,0.0134554,10,-0.000372248,-2.66101,-0.331648,-0.1779,15.1741,0.170545,
2,0,0,1,0,46485.2,0.169393,0.169052,-2.20473,24,0.0134,10,-0.000372715,-2.65664,-0.307765,-0.191705,16.5123,0.169052,
2,0,0,1,0,46485.2,0.167899,0.167585,-2.23129,24,0.0133443,10,-0.00037393,-2.65144,-0.330951,-0.178274,15.5515,0.167585,
2,0,0,1,0,46485.2,0.166398,0.166034,-2.26199,24,0.0132877,10,-0.000375567,-2.64551,-0.361553,-0.163185,14.3697,0.1660337,
2,0,0,1,0,46485.3,0.164898,0.164575,-2.27617,24,0.0132306,10,-0.000374602,-2.6428,-0.258899,-0.227888,20.3142,0.164575,
2,0,0,1,0,46485.3,0.163403,0.163071,-2.30639,24,0.013173,10,-0.000376105,-2.63707,-0.272375,-0.216613,19.5449,0.163071,
2,0,0,1,0,46485.3,0.161904,0.161611,-2.33861,24,0.0131144,10,-0.000377945,-2.63104,-0.281799,-0.209369,19.1351,0.161611,
2,0,0,1,0,46485.3,0.160404,0.160053,-2.37708,24,0.0130551,10,-0.000380458,-2.62396,-0.284317,-0.207515,19.1857,0.160053,
2,0,0,1,0,46485.4,0.158905,0.158572,-2.40243,24,0.012995,10,-0.000380959,-2.61935,-0.237771,-0.248138,23.3004,0.158572,
2,0,0,1,0,46485.4,0.157411,0.157122,-2.43487,24,0.0129343,10,-0.000382571,-2.61353,-0.204553,-0.288433,27.5535,0.157122,
2,0,0,1,0,46485.4,0.155911,0.155558,-2.47949,24,0.0128723,10,-0.000385704,-2.60564,-0.208531,-0.282932,27.4292,0.155558,
2,0,0,1,0,46485.4,0.15441,0.154065,-2.52867,24,0.0128092,10,-0.00038958,-2.59711,-0.196799,-0.299799,29.5238,0.154065,
2,0,0,1,0,46485.5,0.152916,0.152576,-2.57774,24,0.0127452,10,-0.000393301,-2.58876,-0.167846,-0.351512,35.351,0.152576,
2,0,0,1,0,46485.5,0.151417,0.151058,-2.6197,24,0.0126798,10,-0.000395726,-2.58175,-0.162828,-0.362345,37.2427,0.151058,
2,0,0,1,0,46485.5,0.149917,0.149589,-2.6882,24,0.0126129,10,-0.000402126,-2.57054,-0.154195,-0.382633,40.2191,0.149589,
2,0,0,1,0,46485.5,0.148423,0.148112,-2.75602,24,0.0125448,10,-0.000408199,-2.55972,-0.140407,-0.420208,45.1913,0.148112,
2,0,0,1,0,46485.6,0.146922,0.146549,-2.82651,24,0.0124746,10,-0.000414222,-2.54875,-0.1289,-0.45772,50.4371,0.146549,
2,0,0,1,0,46485.6,0.145421,0.145081,-2.89259,24,0.0124027,10,-0.00041966,-2.53871,-0.124922,-0.472296,53.5384,0.1450811,
2,0,0,1,0,46485.6,0.143927,0.143672,-2.97817,24,0.0123291,10,-0.000427879,-2.52605,-0.111734,-0.528041,61.6711,0.143672,
2,0,0,1,0,46485.6,0.142429,0.142108,-3.08772,24,0.0122528,10,-0.000438788,-2.51036,-0.105418,-0.559676,67.4488,0.142108,
2,0,0,1,0,46485.7,0.140929,0.140626,-3.19036,24,0.012174,10,-0.000448648,-2.49616,-0.0985014,-0.598976,74.5857,0.140626,
2,0,0,1,0,46485.7,0.13943,0.139101,-3.29037,24,0.0120924,10,-0.000457694,-2.48275,-0.0964534,-0.611694,78.884,0.139101,
2,0,0,1,0,46485.7,0.137935,0.137655,-3.41633,24,0.0120084,10,-0.000470276,-2.46644,-0.0969695,-0.608439,81.3672,0.137655,
2,0,0,1,0,46485.7,0.136435,0.136112,-3.54752,24,0.0119209,10,-0.00048286,-2.45008,-0.0947418,-0.622745,86.1746,0.136112,
2,0,0,1,0,46485.8,0.134934,0.134618,-3.68455,24,0.0118301,10,-0.000496009,-2.43362,-0.0949586,-0.621323,89.102,0.134618,
2,0,0,1,0,46485.8,0.13344,0.133091,-3.8112,24,0.0117363,10,-0.000507238,-2.41894,-0.0953703,-0.618641,92.0791,0.133091,
2,0,0,1,0,46485.8,0.13194,0.13162,-3.95067,24,0.0116388,10,-0.000519986,-2.40333,-0.0989978,-0.595973,91.9833,0.13162,
2,0,0,1,0,46485.8,0.13044,0.130143,-4.09618,24,0.0115378,10,-0.00053309,-2.38762,-0.102318,-0.576634,92.164,0.130143,
2,0,0,1,0,46485.9,0.128941,0.128619,-4.24025,24,0.0114332,10,-0.000545374,-2.37261,-0.104342,-0.565446,93.2898,0.128619,
2,0,0,1,0,46485.9,0.127447,0.127143,-4.37796,24,0.0113254,10,-0.000556627,-2.35873,-0.110424,-0.534304,91.1475,0.127143,
2,0,0,1,0,46485.9,0.125946,0.12562,-4.50834,24,0.011214,10,-0.000566339,-2.34598,-0.117307,-0.502956,88.5012,0.12562,
2,0,0,1,0,46485.9,0.124446,0.124143,-4.64611,24,0.0110991,10,-0.000576782,-2.33291,-0.121446,-0.485813,87.8882,0.124143,
2,0,0,1,0,46486,0.122952,0.122668,-4.77647,24,0.0109813,10,-0.000585921,-2.32089,-0.125586,-0.469799,87.3091,0.122668,
2,0,0,1,0,46486,0.121453,0.121198,-4.89088,24,0.01086,10,-0.000592764,-2.31061,-0.142056,-0.415328,79.3147,0.121198,
2,0,0,1,0,46486,0.119953,0.119621,-5.00525,24,0.0107357,10,-0.000598733,-2.30057,-0.152928,-0.385802,75.4467,0.119621,
2,0,0,1,0,46486,0.118459,0.118153,-5.12692,24,0.010609,10,-0.000605761,-2.29014,-0.158381,-0.37252,74.4828,0.118153,
2,0,0,1,0,46486.1,0.116958,0.116703,-5.24376,24,0.010479,10,-0.000611962,-2.28036,-0.170546,-0.345948,70.5848,0.116703,
2,0,0,1,0,46486.1,0.115457,0.115137,-5.33355,24,0.0103463,10,-0.00061409,-2.27298,-0.188465,-0.313056,65.109,0.115137,
2,0,0,1,0,46486.1,0.113963,0.113635,-5.42594,24,0.0102117,10,-0.000616576,-2.26552,-0.212103,-0.278167,58.913,0.113635,
2,0,0,1,0,46486.1,0.112464,0.112112,-5.52054,24,0.0100744,10,-0.000618921,-2.25802,-0.22568,-0.261432,56.2504,0.112112,
2,0,0,1,0,46486.2,0.110965,0.110675,-5.60308,24,0.00993499,10,-0.000620123,-2.25157,-0.23845,-0.247431,54.0018,0.110675,
2,0,0,1,0,46486.2,0.109466,0.109121,-5.67214,24,0.00979355,10,-0.00061895,-2.24625,-0.276598,-0.213306,47.1378,0.1091211,
2,0,0,1,0,46486.2,0.107972,0.107645,-5.73008,24,0.00965101,10,-0.000616813,-2.24184,-0.336882,-0.175136,39.1775,0.107645,
2,0,0,1,0,46486.2,0.106471,0.106183,-5.78794,24,0.00950656,10,-0.000614581,-2.23748,-0.422107,-0.139775,31.5464,0.106183,
2,0,0,1,0,46486.3,0.10497,0.104696,-5.83968,24,0.00936078,10,-0.00061139,-2.23361,-0.458816,-0.128592,29.232,0.104696,
2,0,0,1,0,46486.3,0.103476,0.103213,-5.87147,24,0.00921449,10,-0.000606014,-2.23125,-0.590882,-0.0998508,22.8368,0.103213,
2,0,0,1,0,46486.3,0.101976,0.101662,-5.90215,24,0.00906681,10,-0.000600021,-2.22899,-1.08121,-0.0545685,12.5561,0.101662,
2,0,0,1,0,46486.3,0.100477,0.100177,-5.9188,24,0.0089187,10,-0.000592927,-2.22777,-2.76808,-0.0213144,4.91731,0.100177,
2,0,0,1,0,46486.4,0.0989825,0.0986803,-5.92545,24,0.00877084,10,-0.000584726,-2.22728,-2.43721,-0.024208,5.58858,0.0986803,
2,0,0,1,0,46486.4,0.0974817,0.0971664,-5.92494,24,0.00862225,10,-0.000575705,-2.22732,17.2077,0.0034287,-0.791893,0.0971664,
2,0,0,1,0,46486.4,0.0959822,0.0956432,-5.91657,24,0.00847374,10,-0.00056588,-2.22793,1.57774,0.0373952,-8.62856,0.0956432,
2,0,0,1,0,46486.4,0.094488,0.0941484,-5.89919,24,0.00832617,10,-0.000555399,-2.22921,0.931693,0.0633256,-14.5664,0.0941484,
2,0,0,1,0,46486.5,0.0929884,0.0926946,-5.88159,24,0.0081785,10,-0.000545192,-2.2305,1.02382,0.0576273,-13.2066,0.0926946,
2,0,0,1,0,46486.5,0.0914889,0.0911818,-5.8547,24,0.00803136,10,-0.000533842,-2.2325,0.821801,0.0717936,-16.3886,0.0911818,
2,0,0,1,0,46486.5,0.0899894,0.089667,-5.81954,24,0.00788492,10,-0.000521821,-2.23511,0.56252,0.104885,-23.8231,0.089667,
2,0,0,1,0,46486.5,0.0884951,0.0882062,-5.78377,24,0.00773992,10,-0.000510165,-2.23779,0.506626,0.116457,-26.308,0.0882062,
2,0,0,1,0,46486.6,0.0869943,0.0867,-5.7566,24,0.00759533,10,-0.000499097,-2.23983,0.523171,0.112774,-25.2972,0.08670003,
2,0,0,1,0,46486.6,0.0854935,0.0851459,-5.71182,24,0.00745155,10,-0.000486338,-2.24323,0.601836,0.0980334,-21.8667,0.0851459,
2,0,0,1,0,46486.6,0.0839993,0.0836271,-5.67516,24,0.00730929,10,-0.000474597,-2.24602,0.458145,0.12878,-28.5369,0.0836271,
2,0,0,1,0,46486.6,0.0824997,0.0821904,-5.64671,24,0.00716735,10,-0.000464106,-2.2482,0.506546,0.116475,-25.641,0.0821904,
2,0,0,1,0,46486.7,0.0810002,0.0807104,-5.60372,24,0.0070264,10,-0.000452278,-2.25152,0.59849,0.0985814,-21.5651,0.0807104,
2,0,0,1,0,46486.7,0.0795007,0.0791661,-5.56502,24,0.00688627,10,-0.000440561,-2.25453,0.675129,0.0873907,-19.01,0.0791661,
2,0,0,1,0,46486.7,0.0780078,0.0777267,-5.53993,24,0.00674748,10,-0.0004306,-2.2565,0.627454,0.0940308,-20.3449,0.0777267,
2,0,0,1,0,46486.7,0.076507,0.0761699,-5.51257,24,0.00660889,10,-0.000419891,-2.25865,0.559901,0.105376,-22.6623,0.0761699,
2,0,0,1,0,46486.8,0.0750062,0.07466,-5.48627,24,0.00647107,10,-0.000409605,-2.26072,0.653504,0.0902825,-19.3076,0.07466,
2,0,0,1,0,46486.8,0.073512,0.0731913,-5.45516,24,0.00633448,10,-0.00039927,-2.26319,0.83491,0.0706663,-15.0448,0.0731913,
2,0,0,1,0,46486.8,0.0720124,0.0716764,-5.4247,24,0.00619807,10,-0.000388823,-2.26562,0.735765,0.0801886,-17.0013,0.0716764,
2,0,0,1,0,46486.8,0.0705129,0.0701995,-5.4057,24,0.00606221,10,-0.000379478,-2.26715,0.694659,0.0849338,-17.9155,0.0701995,
2,0,0,1,0,46486.9,0.0690187,0.0687148,-5.37894,24,0.00592753,10,-0.000369612,-2.2693,0.782412,0.0754078,-15.829,0.0687148,
2,0,0,1,0,46486.9,0.0675179,0.0672197,-5.35334,24,0.00579294,10,-0.00035985,-2.27138,0.965797,0.0610895,-12.7774,0.06721966,
2,0,0,1,0,46486.9,0.066017,0.0657246,-5.33576,24,0.0056589,10,-0.000350691,-2.2728,0.81198,0.0726619,-15.116,0.0657246,
2,0,0,1,0,46486.9,0.0645242,0.0642115,-5.31042,24,0.0055259,10,-0.00034099,-2.27487,0.68724,0.0858507,-17.7803,0.06421148,
2,0,0,1,0,46487,0.0630246,0.0627327,-5.28857,24,0.00539298,10,-0.000331767,-2.27666,0.715862,0.0824181,-17,0.0627327,
2,0,0,1,0,46487,0.0615251,0.0612467,-5.2609,24,0.00526071,10,-0.000322213,-2.27894,0.807438,0.0730706,-15.0168,0.0612467,
2,0,0,1,0,46487,0.0600256,0.0597061,-5.23452,24,0.00512903,10,-0.000312533,-2.28112,0.740375,0.0796893,-16.3001,0.0597061,
2,0,0,1,0,46487,0.0585314,0.0582391,-5.21398,24,0.00499845,10,-0.000303657,-2.28283,0.589097,0.100153,-20.3634,0.0582391,
2,0,0,1,0,46487.1,0.0570305,0.0567053,-5.1914,24,0.00486796,10,-0.00029438,-2.28472,0.63546,0.0928461,-18.779,0.0567053,
2,0,0,1,0,46487.1,0.0555297,0.0551713,-5.16188,24,0.00473823,10,-0.000284788,-2.28719,0.697839,0.0845467,-17.0374,0.0551713,
2,0,0,1,0,46487.1,0.0540355,0.0537067,-5.13422,24,0.00460968,10,-0.000275742,-2.28953,0.696541,0.0847043,-16.9714,0.0537067,
2,0,0,1,0,46487.1,0.052536,0.0521684,-5.11504,24,0.00448113,10,-0.000266844,-2.29115,0.638794,0.0923615,-18.4022,0.05216841,
2,0,0,1,0,46487.2,0.0510364,0.0507446,-5.08648,24,0.00435327,10,-0.000258111,-2.29358,0.584349,0.100967,-20.0304,0.0507446,
2,0,0,1,0,46487.2,0.0495369,0.0491872,-5.05138,24,0.00422619,10,-0.000248463,-2.29659,0.681055,0.0866303,-17.0866,0.0491872,
2,0,0,1,0,46487.2,0.0480427,0.047718,-5.02091,24,0.00410036,10,-0.000239588,-2.29922,0.64407,0.0916049,-17.9561,0.047718,
2,0,0,1,0,46487.2,0.0465432,0.0462206,-4.99459,24,0.0039747,10,-0.000230853,-2.3015,0.578492,0.101989,-19.8722,0.0462206,
2,0,0,1,0,46487.3,0.0450424,0.0447539,-4.96997,24,0.00384975,10,-0.000222425,-2.30365,0.539419,0.109377,-21.1757,0.0447539,
2,0,0,1,0,46487.3,0.0435482,0.0432219,-4.93165,24,0.0037261,10,-0.000213155,-2.30701,0.541573,0.108942,-20.9661,0.0432219,
2,0,0,1,0,46487.3,0.0420486,0.0417019,-4.89881,24,0.00360276,10,-0.00020429,-2.30991,0.605102,0.0975042,-18.6661,0.0417019,
2,0,0,1,0,46487.3,0.0405491,0.0402388,-4.87314,24,0.00348018,10,-0.000196089,-2.31219,0.506063,0.116586,-22.1658,0.0402388,
2,0,0,1,0,46487.4,0.0390549,0.0387507,-4.84715,24,0.00335873,10,-0.000187831,-2.31451,0.480662,0.122747,-23.1616,0.0387507,
2,0,0,1,0,46487.4,0.0375541,0.0372189,-4.80783,24,0.00323767,10,-0.000178942,-2.31805,0.503964,0.117072,-21.9805,0.0372189,
2,0,0,1,0,46487.4,0.0360532,0.0356955,-4.76827,24,0.00311754,10,-0.000170205,-2.32164,0.473706,0.12455,-23.2168,0.0356955,
2,0,0,1,0,46487.4,0.034559,0.034241,-4.73961,24,0.0029987,10,-0.000162289,-2.32426,0.442052,0.133469,-24.671,0.034241,
2,0,0,1,0,46487.5,0.0330595,0.0327509,-4.70441,24,0.00288025,10,-0.000154074,-2.32749,0.422449,0.139662,-25.6102,0.0327509,
2,0,0,1,0,46487.5,0.0315613,0.0312237,-4.66607,24,0.00276272,10,-0.000145692,-2.33105,0.453394,0.13013,-23.6923,0.0312237,
2,0,0,1,0,46487.5,0.0300618,0.0297661,-4.6208,24,0.00264619,10,-0.000137543,-2.33528,0.439528,0.134235,-24.2337,0.0297661,
2,0,0,1,0,46487.5,0.0285676,0.0282625,-4.58813,24,0.00253102,10,-0.000129672,-2.33836,0.408088,0.144577,-25.8899,0.0282625,
2,0,0,1,0,46487.6,0.0270667,0.0267249,-4.56181,24,0.00241628,10,-0.000121914,-2.34086,0.426228,0.138423,-24.5799,0.0267249,
2,0,0,1,0,46487.6,0.0255659,0.025264,-4.51747,24,0.00230248,10,-0.000114129,-2.3451,0.429028,0.13752,-24.2154,0.025264,
2,0,0,1,0,46487.6,0.0240717,0.0237371,-4.47166,24,0.0021901,10,-0.000106144,-2.34953,0.432239,0.136499,-23.8647,0.0237371,
2,0,0,1,0,46487.6,0.0225722,0.0222973,-4.44203,24,0.00207823,10,-9.90453e-05,-2.35242,0.396168,0.148927,-25.8147,0.0222973,
2,0,0,1,0,46487.7,0.0210726,0.020736,-4.40696,24,0.00196722,10,-9.13827e-05,-2.35586,0.422519,0.139639,-24.0141,0.020736,
2,0,0,1,0,46487.7,0.0195784,0.0192331,-4.37193,24,0.00185752,10,-8.40861e-05,-2.35933,0.451465,0.130686,-22.2754,0.0192331,
2,0,0,1,0,46487.7,0.0180789,0.0177551,-4.32796,24,0.00174826,10,-7.68435e-05,-2.36372,0.440154,0.134044,-22.6961,0.0177551,
2,0,0,1,0,46487.7,0.0165781,0.0162716,-4.30275,24,0.0016399,10,-7.00127e-05,-2.36625,0.455385,0.129561,-21.7694,0.0162716,
2,0,0,1,0,46487.8,0.0150839,0.0147645,-4.27977,24,0.00153272,10,-6.31887e-05,-2.36858,0.493336,0.119594,-19.9254,0.0147645,
2,0,0,1,0,46487.8,0.0135844,0.0132143,-4.24771,24,0.00142577,10,-5.61304e-05,-2.37185,0.49881,0.118282,-19.5671,0.0132143,
2,0,0,1,0,46487.8,0.0120848,0.011743,-4.21207,24,0.0013196,10,-4.94624e-05,-2.3755,0.506642,0.116453,-19.172,0.011743,
2,0,0,1,0,46487.8,0.0105853,0.0102929,-4.17975,24,0.00121426,10,-4.30218e-05,-2.37885,0.505976,0.116606,-19.0689,0.0102929,
2,0,0,1,0,46487.9,0.00909108,0.00871554,-4.16661,24,0.00110992,10,-3.63142e-05,-2.38022,0.561008,0.105168,-17.0622,0.00871554,
2,0,0,1,0,46487.9,0.00759027,0.0072654,-4.13443,24,0.00100579,10,-3.00383e-05,-2.38358,0.669654,0.0881052,-14.2181,0.0072654,
2,0,0,1,0,46487.9,0.00608945,0.00572988,-4.11376,24,0.000902246,10,-2.35713e-05,-2.38576,0.659703,0.0894342,-14.3567,0.00572988,
2,0,0,1,0,46487.9,0.00459524,0.00424918,-4.08844,24,0.000799721,10,-1.73726e-05,-2.38844,0.700343,0.0842444,-13.45,0.00424918,
2,0,0,1,0,46488,0.0030957,0.00278385,-4.07822,24,0.000697256,10,-1.13531e-05,-2.38953,1.88207,0.0313484,-4.99502,0.00278385,
2,0,0,1,0,46488,0.00159616,0.00119934,-4.0874,24,0.000594756,10,-4.90219e-06,-2.38855, , , ,0.00119934,
2,0,0,1,0,46488,0.000199195,-0.000143994,-4.0565,24,0.000499459,10,5.84111e-07,-2.39185, , , ,-0.000143994,