File: Figure_codes/Fig_3-5/rawdata_trumpetplot_data/after 10th/20221101_1-115_003_TrumpetPlot_ParaChange_from10_every3_09_CV_C01_19.csv
mode,ox/red,error,control changes,counter inc.,time/s,control/V,Ewe/V,<I>/mA,cycle number,(Q-Qo)/C,I Range,P/W,log(|I|),Tafel slope mV/dec,alpha_eff,dI/d(E-IR),E-IR/V,
2,0,0,0,0,38615,2.44065e-05,-0.000363498,-5.29514,20,0.0000000E+000,10,1.92477e-06,-2.27612, , , ,-0.000363498,
2,0,0,1,0,38615,0.00179726,0.00145851,-2.93547,20,-6.94666e-05,10,-4.28141e-06,-2.53232, , , ,0.00145851,
2,0,0,1,0,38615,0.00379485,0.00347098,-1.31958,20,-0.000110371,10,-4.58023e-06,-2.87956,-0.0035171,-16.7752,680.647,0.00347098,
2,0,0,1,0,38615.1,0.00579244,0.00545647,-0.214267,20,-0.000124743,10,-1.16914e-06,-3.66904,-0.0122478,-4.8172,484.411,0.00545647,
2,1,0,1,0,38615.1,0.00779002,0.00747765,0.621299,20,-0.000119942,10,4.64586e-06,-3.2067,0.00522342,11.2953,367.466,0.00747765,
2,1,0,1,0,38615.1,0.00978761,0.00948903,1.26756,20,-0.000100578,10,1.20279e-05,-2.89703,0.00872999,6.75831,289.138,0.00948903,
2,1,0,1,0,38615.1,0.0117852,0.0114411,1.76729,20,-6.97977e-05,10,2.02199e-05,-2.75269,0.0168214,3.50744,230.235,0.01144114,
2,1,0,1,0,38615.1,0.0137828,0.013444,2.17813,20,-3.00056e-05,10,2.92829e-05,-2.66192,0.0259967,2.26952,187.827,0.013444,
2,1,0,1,0,38615.2,0.0157804,0.0154386,2.51813,20,1.72932e-05,10,3.88765e-05,-2.59892,0.0364786,1.61739,156.464,0.0154386,
2,1,0,1,0,38615.2,0.017778,0.0174562,2.8059,20,7.06041e-05,10,4.89802e-05,-2.55193,0.0489361,1.20565,130.324,0.01745617,
2,1,0,1,0,38615.2,0.0197755,0.0194242,3.03755,20,0.000129285,10,5.90021e-05,-2.51748,0.0621664,0.949065,111.945,0.0194242,
2,1,0,1,0,38615.2,0.0217731,0.0214205,3.24969,20,0.000192427,10,6.961e-05,-2.48816,0.075209,0.78448,98.9889,0.0214205,
2,1,0,1,0,38615.2,0.0237707,0.0234616,3.43721,20,0.000259549,10,8.06424e-05,-2.46379,0.0882673,0.668425,89.3707,0.0234616,
2,1,0,1,0,38615.3,0.0257683,0.0254347,3.60844,20,0.00032987,10,9.17798e-05,-2.44268,0.104138,0.566555,79.4659,0.0254347,
2,1,0,1,0,38615.3,0.0277659,0.0274662,3.75544,20,0.000403771,10,0.000103148,-2.42534,0.117514,0.502066,73.5588,0.0274662,
2,1,0,1,0,38615.3,0.0297635,0.0294487,3.9037,20,0.000480617,10,0.000114959,-2.40852,0.131744,0.447838,67.9862,0.0294487,
2,1,0,1,0,38615.3,0.0317611,0.0314681,4.02751,20,0.000560176,10,0.000126738,-2.39496,0.14265,0.413599,65.0894,0.0314681,
2,1,0,1,0,38615.3,0.0337586,0.0334472,4.16396,20,0.000641909,10,0.000139273,-2.38049,0.149489,0.394678,63.9912,0.0334472,
2,1,0,1,0,38615.4,0.0357562,0.0354771,4.28405,20,0.00072663,10,0.000151986,-2.36815,0.169035,0.349041,58.278,0.0354771,
2,1,0,1,0,38615.4,0.0377538,0.0374045,4.39459,20,0.000813678,10,0.000164377,-2.35708,0.178255,0.330987,56.7834,0.0374045,
2,1,0,1,0,38615.4,0.0397514,0.0394502,4.50965,20,0.000902983,10,0.000177906,-2.34586,0.171257,0.344512,60.7118,0.0394502,
2,1,0,1,0,38615.4,0.041749,0.0414234,4.63858,20,0.000994182,10,0.000192146,-2.33361,0.180629,0.326637,58.9643,0.04142341,
2,1,0,1,0,38615.4,0.0437466,0.0434137,4.74336,20,0.00108817,10,0.000205927,-2.32391,0.208203,0.283377,52.4548,0.0434137,
2,1,0,1,0,38615.5,0.0457442,0.0454357,4.84904,20,0.00118421,10,0.000220319,-2.31434,0.213711,0.276074,52.2347,0.0454357,
2,1,0,1,0,38615.5,0.0477418,0.0474524,4.95432,20,0.00128241,10,0.000235094,-2.30502,0.205663,0.286877,55.5177,0.0474524,
2,1,0,1,0,38615.5,0.0497484,0.0494175,5.07011,20,0.00138275,10,0.000250552,-2.29498,0.2242,0.263158,51.9305,0.0494175,
2,1,0,1,0,38615.5,0.0517369,0.0514109,5.15988,20,0.00148466,10,0.000265274,-2.28736,0.244149,0.241655,48.7414,0.05141085,
2,1,0,1,0,38615.5,0.0537345,0.0534677,5.26752,20,0.00158915,10,0.000281642,-2.27839,0.235555,0.250472,51.4345,0.0534677,
2,1,0,1,0,38615.6,0.0557321,0.0553984,5.36498,20,0.00169571,10,0.000297212,-2.27043,0.253737,0.232524,48.6654,0.0553984,
2,1,0,1,0,38615.6,0.0577206,0.0574056,5.45916,20,0.00180359,10,0.000313386,-2.26287,0.253074,0.233134,49.7122,0.0574056,
2,1,0,1,0,38615.6,0.0597273,0.059398,5.56381,20,0.0019141,10,0.00033048,-2.25463,0.256452,0.230062,49.9115,0.059398,
2,1,0,1,0,38615.6,0.0617249,0.0614278,5.65991,20,0.00202653,10,0.000347676,-2.24719,0.280409,0.210407,46.4487,0.0614278,
2,1,0,1,0,38615.6,0.0637224,0.063412,5.75026,20,0.00214082,10,0.000364635,-2.24031,0.286104,0.206219,46.2905,0.063412,
2,1,0,1,0,38615.7,0.06572,0.0654166,5.84456,20,0.00225694,10,0.000382331,-2.23325,0.287631,0.205124,46.7789,0.0654166,
2,1,0,1,0,38615.7,0.0677176,0.067418,5.93765,20,0.00237448,10,0.000400305,-2.22639,0.31053,0.189998,43.9775,0.067418,
2,1,0,1,0,38615.7,0.0697152,0.0693612,6.01803,20,0.0024943,10,0.000417418,-2.22055,0.318258,0.185384,43.5835,0.0693612,
2,1,0,1,0,38615.7,0.0717128,0.0713998,6.11119,20,0.00261582,10,0.000436338,-2.21387,0.312629,0.188722,44.9809,0.07139983,
2,1,0,1,0,38615.7,0.0737104,0.0733455,6.19725,20,0.00273909,10,0.00045454,-2.2078,0.326483,0.180714,43.7124,0.07334549,
2,1,0,1,0,38615.8,0.075708,0.0753889,6.28556,20,0.00286349,10,0.000473862,-2.20166,0.350656,0.168256,41.2393,0.0753889,
2,1,0,1,0,38615.8,0.0777056,0.0773887,6.36398,20,0.00299008,10,0.0004925,-2.19627,0.38746,0.152274,37.8002,0.0773887,
2,1,0,1,0,38615.8,0.0797031,0.0793803,6.43644,20,0.00311824,10,0.000510926,-2.19135,0.393559,0.149914,37.669,0.0793803,
2,1,0,1,0,38615.8,0.0817007,0.0813558,6.51342,20,0.00324788,10,0.000529905,-2.18619,0.404436,0.145882,37.0654,0.0813558,
2,1,0,1,0,38615.8,0.0836983,0.0833817,6.58475,20,0.00337837,10,0.000549048,-2.18146,0.426754,0.138253,35.5261,0.0833817,
2,1,0,1,0,38615.9,0.0856959,0.0853597,6.65566,20,0.00351093,10,0.000568126,-2.17681,0.442109,0.133451,34.6533,0.0853597,
2,1,0,1,0,38615.9,0.0876935,0.0873705,6.72298,20,0.00364485,10,0.00058739,-2.17244,0.490086,0.120387,31.5651,0.0873705,
2,1,0,1,0,38615.9,0.0896911,0.0893452,6.78147,20,0.00378003,10,0.000605892,-2.16868,0.456677,0.129194,34.2389,0.0893452,
2,1,0,1,0,38615.9,0.0916887,0.0913376,6.85881,20,0.00391592,10,0.000626467,-2.16375,0.429654,0.13732,36.7386,0.0913376,
2,1,0,1,0,38615.9,0.0936863,0.0933778,6.92962,20,0.004054,10,0.000647072,-2.15929,0.47683,0.123734,33.4431,0.0933778,
2,1,0,1,0,38616,0.0956838,0.0953416,6.99272,20,0.00419339,10,0.000666697,-2.15535,0.452658,0.130341,35.6094,0.0953416,
2,1,0,1,0,38616,0.0976814,0.0973627,7.07152,20,0.00433423,10,0.000688502,-2.15049,0.376428,0.156736,43.3038,0.0973627,
2,1,0,1,0,38616,0.099679,0.0993582,7.16665,20,0.00447602,10,0.000712065,-2.14468,0.373992,0.157757,44.0775,0.0993582,
2,1,0,1,0,38616,0.101677,0.101357,7.24758,20,0.00462036,10,0.000734592,-2.13981,0.366476,0.160993,45.5973,0.101357,
2,1,0,1,0,38616,0.103674,0.103346,7.34849,20,0.00476651,10,0.000759439,-2.1338,0.310342,0.190113,54.5816,0.103346,
2,1,0,1,0,38616.1,0.105672,0.105368,7.46652,20,0.00491485,10,0.000786733,-2.12688,0.278865,0.211572,61.6876,0.105368,
2,1,0,1,0,38616.1,0.107667,0.107338,7.59476,20,0.00506485,10,0.00081521,-2.11949,0.276699,0.213228,63.17,0.107338,
2,1,0,1,0,38616.1,0.109667,0.109333,7.71697,20,0.00521811,10,0.00084372,-2.11255,0.280291,0.210496,63.439,0.109333,
2,1,0,1,0,38616.1,0.111665,0.111383,7.85136,20,0.005374,10,0.00087451,-2.10506,0.260002,0.226921,69.5702,0.111383,
2,1,0,1,0,38616.1,0.113662,0.113345,7.99608,20,0.00553268,10,0.000906314,-2.09712,0.255848,0.230606,71.9157,0.113345,
2,1,0,1,0,38616.2,0.11566,0.115284,8.13188,20,0.0056941,10,0.000937476,-2.08981,0.246618,0.239236,76.0674,0.115284,
2,1,0,1,0,38616.2,0.117657,0.117343,8.30017,20,0.00585788,10,0.000973964,-2.08091,0.244316,0.241491,78.1193,0.117343,
2,1,0,1,0,38616.2,0.119655,0.119328,8.44781,20,0.00602557,10,0.00100806,-2.07326,0.272187,0.216763,71.4182,0.119328,
2,1,0,1,0,38616.2,0.121652,0.121345,8.58603,20,0.00619612,10,0.00104187,-2.06621,0.280464,0.210365,70.4959,0.121345,
2,1,0,1,0,38616.2,0.12365,0.12329,8.7271,20,0.00636949,10,0.00107596,-2.05913,0.289696,0.203662,69.3313,0.12329,
2,1,0,1,0,38616.3,0.125648,0.125312,8.86104,20,0.00654478,10,0.00111039,-2.05252,0.327116,0.180364,62.3053,0.125312,
2,1,0,1,0,38616.3,0.127645,0.127299,8.97686,20,0.0067234,10,0.00114274,-2.04688,0.35811,0.164754,57.7132,0.127299,
2,1,0,1,0,38616.3,0.129643,0.129308,9.09167,20,0.00690429,10,0.00117563,-2.04136,0.389872,0.151332,53.6602,0.129308,
2,1,0,1,0,38616.3,0.13164,0.131371,9.19539,20,0.00708738,10,0.00120801,-2.03643,0.439793,0.134154,48.106,0.1313711,
2,1,0,1,0,38616.3,0.133638,0.133336,9.28547,20,0.00727161,10,0.00123809,-2.0322,0.477752,0.123495,44.7434,0.1333365,
2,1,0,1,0,38616.4,0.135636,0.135326,9.37236,20,0.00745842,10,0.00126833,-2.02815,0.514518,0.11467,41.9256,0.135326,
2,1,0,1,0,38616.4,0.137633,0.137303,9.45176,20,0.00764686,10,0.00129775,-2.02449,0.611631,0.0964634,35.5494,0.137303,
2,1,0,1,0,38616.4,0.139631,0.139306,9.51383,20,0.00783669,10,0.00132533,-2.02164,0.709036,0.0832116,30.8954,0.139306,
2,1,0,1,0,38616.4,0.141628,0.141316,9.57576,20,0.00802681,10,0.00135321,-2.01883,0.852837,0.0691808,25.8259,0.141316,
2,1,0,1,0,38616.4,0.143626,0.14331,9.61725,20,0.00821892,10,0.00137825,-2.01695,1.37355,0.0429545,16.1062,0.14331,
2,1,0,1,0,38616.5,0.145624,0.145289,9.63975,20,0.00841166,10,0.00140055,-2.01593,9.01296,0.00654613,2.45822,0.145289,
2,1,0,1,0,38616.5,0.147621,0.147318,9.6271,20,0.00860446,10,0.00141825,-2.0165,-2.19956,-0.0268236,-10.07,0.147318,
2,1,0,1,0,38616.5,0.149619,0.149319,9.59917,20,0.00879597,10,0.00143334,-2.01777,-0.816782,-0.0722347,-26.9869,0.149319,
2,1,0,1,0,38616.5,0.151616,0.151327,9.51892,20,0.00898738,10,0.00144047,-2.02141,-0.422077,-0.139785,-51.8014,0.151327,
2,1,0,1,0,38616.5,0.153614,0.153308,9.39254,20,0.0091767,10,0.00143995,-2.02722,-0.28753,-0.205196,-75.0375,0.153308,
2,1,0,1,0,38616.6,0.155611,0.155272,9.22291,20,0.00936304,10,0.00143206,-2.03513,-0.219142,-0.269232,-96.66,0.155272,
2,1,0,1,0,38616.6,0.157609,0.157278,9.00879,20,0.00954467,10,0.00141688,-2.04533,-0.170107,-0.34684,-121.508,0.157278,
2,1,0,1,0,38616.6,0.159607,0.159289,8.73472,20,0.00972236,10,0.00139135,-2.05875,-0.138818,-0.425016,-144.531,0.159289,
2,1,0,1,0,38616.6,0.161604,0.161319,8.42476,20,0.00989413,10,0.00135907,-2.07444,-0.119878,-0.492169,-161.494,0.161319,
2,1,0,1,0,38616.6,0.163602,0.163288,8.08901,20,0.0100594,10,0.00132084,-2.0921,-0.105509,-0.559196,-176.157,0.163288,
2,1,0,1,0,38616.7,0.165606,0.165269,7.7289,20,0.0102177,10,0.00127735,-2.11188,-0.0998759,-0.590733,-178.118,0.165269,
2,1,0,1,0,38616.7,0.167597,0.167302,7.37392,20,0.0103681,10,0.00123367,-2.1323,-0.0985294,-0.598806,-172.328,0.1673024,
2,1,0,1,0,38616.7,0.169595,0.169323,7.03023,20,0.0105122,10,0.00119038,-2.15303,-0.0956536,-0.616809,-169.28,0.169323,
2,1,0,1,0,38616.7,0.171592,0.171276,6.70122,20,0.0106496,10,0.00114776,-2.17385,-0.0963019,-0.612657,-160.417,0.171276,
2,1,0,1,0,38616.7,0.173581,0.173264,6.39808,20,0.0107799,10,0.00110856,-2.19395,-0.102583,-0.575143,-143.898,0.173264,
2,1,0,1,0,38616.8,0.175587,0.175253,6.129,20,0.0109053,10,0.00107412,-2.21261,-0.111215,-0.530502,-127.096,0.175253,
2,1,0,1,0,38616.8,0.177585,0.177288,5.88659,20,0.0110255,10,0.00104362,-2.23014,-0.117027,-0.504157,-115.945,0.177288,
2,1,0,1,0,38616.8,0.179582,0.179274,5.66279,20,0.0111411,10,0.00101519,-2.24697,-0.125824,-0.468907,-103.892,0.179274,
2,1,0,1,0,38616.8,0.18158,0.181271,5.47282,20,0.0112525,10,0.000992063,-2.26179,-0.141614,-0.416625,-89.1517,0.181271,
2,1,0,1,0,38616.8,0.183578,0.183264,5.3071,20,0.0113599,10,0.000972598,-2.27514,-0.153804,-0.383604,-79.5286,0.183264,
2,1,0,1,0,38616.9,0.185575,0.18527,5.1548,20,0.0114646,10,0.000955028,-2.28779,-0.164581,-0.358485,-72.2001,0.18527,
2,1,0,1,0,38616.9,0.187573,0.187283,5.01689,20,0.0115664,10,0.000939578,-2.29957,-0.183197,-0.322057,-63.2017,0.187283,
2,1,0,1,0,38616.9,0.18957,0.189236,4.90414,20,0.0116657,10,0.000928038,-2.30944,-0.203542,-0.289866,-55.4949,0.189236,
2,1,0,1,0,38616.9,0.191568,0.191264,4.79596,20,0.0117624,10,0.000917295,-2.31912,-0.221037,-0.266923,-50.0458,0.191264,
2,1,0,1,0,38616.9,0.193566,0.193204,4.70554,20,0.0118575,10,0.00090913,-2.32739,-0.247432,-0.23845,-43.8187,0.193204,
2,1,0,1,0,38617,0.195563,0.195223,4.62247,20,0.011951,10,0.000902414,-2.33513,-0.267604,-0.220475,-39.7891,0.195223,
2,1,0,1,0,38617,0.197561,0.197267,4.5439,20,0.0120428,10,0.000896359,-2.34257,-0.308177,-0.191449,-34.0212,0.197267,
2,1,0,1,0,38617,0.199558,0.199265,4.48498,20,0.0121328,10,0.000893698,-2.34824,-0.333884,-0.176708,-30.9111,0.199265,
2,1,0,1,0,38617,0.201556,0.201238,4.42113,20,0.0122219,10,0.0008897,-2.35447,-0.329356,-0.179137,-30.925,0.201238,
2,1,0,1,0,38617,0.203553,0.203227,4.36245,20,0.0123099,10,0.000886567,-2.36027,-0.377187,-0.156421,-26.6682,0.2032268,
2,1,0,1,0,38617.1,0.205551,0.205168,4.31633,20,0.0123968,10,0.000885573,-2.36489,-0.520195,-0.113419,-19.1389,0.205168,
2,1,0,1,0,38617.1,0.207549,0.207252,4.28542,20,0.0124825,10,0.000888161,-2.36801,-0.505379,-0.116744,-19.4857,0.207252,
2,1,0,1,0,38617.1,0.209546,0.209215,4.23748,20,0.0125678,10,0.000886543,-2.37289,-0.429936,-0.13723,-22.7119,0.209215,
2,1,0,1,0,38617.1,0.211544,0.211172,4.19638,20,0.0126522,10,0.000886158,-2.37713,-0.506919,-0.116389,-19.0729,0.211172,
2,1,0,1,0,38617.1,0.213541,0.213243,4.16065,20,0.0127359,10,0.000887229,-2.38084,-0.653897,-0.0902283,-14.6718,0.213243,
2,1,0,1,0,38617.2,0.215539,0.215227,4.13689,20,0.0128186,10,0.00089037,-2.38333,-0.611899,-0.0964212,-15.5406,0.2152269,
2,1,0,1,0,38617.2,0.217537,0.217201,4.09914,20,0.012901,10,0.000890337,-2.38731,-0.57288,-0.102988,-16.4933,0.217201,
2,1,0,1,0,38617.2,0.219534,0.219264,4.07031,20,0.0129828,10,0.000892471,-2.39037,-0.755291,-0.0781155,-12.4198,0.219264,
2,1,0,1,0,38617.2,0.221532,0.221251,4.04883,20,0.0130642,10,0.00089581,-2.39267,-0.815534,-0.0723453,-11.4287,0.221251,
2,1,0,1,0,38617.2,0.223525,0.223187,4.02547,20,0.0131447,10,0.000898433,-2.39518,-0.795645,-0.0741537,-11.6493,0.223187,
2,1,0,1,0,38617.3,0.225527,0.225274,4.00197,20,0.0132251,10,0.000901541,-2.39773,-0.934411,-0.0631414,-9.87086,0.225274,
2,1,0,1,0,38617.3,0.227525,0.227187,3.98598,20,0.0133052,10,0.000905565,-2.39946,-0.774454,-0.0761827,-11.8284,0.227187,
2,1,0,1,0,38617.3,0.229522,0.229254,3.9549,20,0.0133847,10,0.000906676,-2.40286,-0.900168,-0.0655434,-10.1435,0.229254,
2,1,0,1,0,38617.3,0.23152,0.231222,3.94506,20,0.0134639,10,0.000912183,-2.40395,-1.72226,-0.0342574,-5.27369,0.231222,
2,1,0,1,0,38617.3,0.233517,0.233179,3.9342,20,0.0135425,10,0.000917373,-2.40514,-1.16806,-0.050511,-7.74639,0.233179,
2,1,0,1,0,38617.4,0.235515,0.235203,3.91422,20,0.0136211,10,0.000920637,-2.40736,-0.931415,-0.0633445,-9.67791,0.235203,
2,1,0,1,0,38617.4,0.237512,0.237182,3.89546,20,0.0136993,10,0.000923932,-2.40944,-1.17208,-0.0503377,-7.65953,0.237182,
2,1,0,1,0,38617.4,0.23951,0.239191,3.88367,20,0.0137773,10,0.00092894,-2.41076,-1.51602,-0.0389176,-5.89851,0.239191,
2,1,0,1,0,38617.4,0.241508,0.241203,3.87174,20,0.0138547,10,0.000933875,-2.41209,-1.31714,-0.0447939,-6.76565,0.241203,
2,1,0,1,0,38617.4,0.243505,0.243188,3.85663,20,0.0139321,10,0.000937886,-2.41379,-1.77189,-0.0332978,-5.01827,0.243188,
2,1,0,1,0,38617.5,0.245503,0.245215,3.85161,20,0.0140093,10,0.000944473,-2.41436,-1.4236,-0.0414443,-6.21768,0.245215,
2,1,0,1,0,38617.5,0.2475,0.247201,3.83168,20,0.0140863,10,0.000947194,-2.41661,-1.36057,-0.0433643,-6.49634,0.247201,
2,1,0,1,0,38617.5,0.249498,0.249216,3.82561,20,0.0141627,10,0.000953406,-2.4173,-1.94293,-0.0303665,-4.53019,0.249216,
2,1,0,1,0,38617.5,0.251496,0.251211,3.81352,20,0.0142392,10,0.000957996,-2.41867,-1.62847,-0.0362304,-5.39401,0.251211,
2,1,0,1,0,38617.5,0.253493,0.253213,3.80406,20,0.0143155,10,0.000963236,-2.41975,-1.25898,-0.0468635,-6.94932,0.253213,
2,1,0,1,0,38617.6,0.255491,0.255195,3.78583,20,0.0143916,10,0.000966124,-2.42184,-1.82404,-0.0323458,-4.79016,0.2551949,
2,1,0,1,0,38617.6,0.257488,0.257153,3.78518,20,0.0144671,10,0.00097337,-2.42191,-6.34948,-0.0092921,-1.37189,0.257153,
2,1,0,1,0,38617.6,0.259486,0.25923,3.78029,20,0.0145429,10,0.000979964,-2.42247,-1.56754,-0.0376385,-5.54355,0.25923,
2,1,0,1,0,38617.6,0.261484,0.261214,3.76267,20,0.0146184,10,0.000982862,-2.4245,-1.29214,-0.0456607,-6.71281,0.2612139,
2,1,0,1,0,38617.6,0.263481,0.263179,3.75378,20,0.0146937,10,0.000987916,-2.42553,-3.24982,-0.0181548,-2.66221,0.263179,
2,1,0,1,0,38617.7,0.265479,0.265183,3.7521,20,0.0147685,10,0.000994995,-2.42573,-2.3882,-0.0247048,-3.61225,0.265183,
2,1,0,1,0,38617.7,0.267476,0.267171,3.73936,20,0.0148436,10,0.000999048,-2.4272,-1.35867,-0.0434249,-6.33729,0.267171,
2,1,0,1,0,38617.7,0.269474,0.269191,3.7267,20,0.0149183,10,0.0010032,-2.42868,-2.11392,-0.0279102,-4.06416,0.269191,
2,1,0,1,0,38617.7,0.271471,0.271204,3.72297,20,0.0149929,10,0.00100968,-2.42911,-4.92479,-0.0119802,-1.74081,0.271204,
2,1,0,1,0,38617.7,0.273469,0.273159,3.7198,20,0.0150671,10,0.0010161,-2.42948,-1.76911,-0.0333501,-4.83322,0.273159,
2,1,0,1,0,38617.8,0.275467,0.275146,3.70392,20,0.0151414,10,0.00101912,-2.43134,-1.56569,-0.037683,-5.45428,0.275146,
2,1,0,1,0,38617.8,0.277464,0.277205,3.69773,20,0.0152155,10,0.00102503,-2.43206,-1.57592,-0.0374385,-5.39614,0.277205,
2,1,0,1,0,38617.8,0.279462,0.279121,3.68247,20,0.0152894,10,0.00102785,-2.43386,-1.49077,-0.039577,-5.69399,0.279121,
2,1,0,1,0,38617.8,0.281464,0.281156,3.67523,20,0.0153631,10,0.00103331,-2.43472,-2.72836,-0.0216247,-3.10252,0.281156,
2,1,0,1,0,38617.8,0.283457,0.283157,3.66994,20,0.0154363,10,0.00103917,-2.43534,-1.95572,-0.0301679,-4.31693,0.283157,
2,1,0,1,0,38617.9,0.285455,0.285142,3.65803,20,0.0155098,10,0.00104306,-2.43675,-1.33099,-0.044328,-6.32726,0.285142,
2,1,0,1,0,38617.9,0.287452,0.287113,3.64491,20,0.015583,10,0.0010465,-2.43831,-2.01255,-0.0293161,-4.17568,0.287113,
2,1,0,1,0,38617.9,0.28945,0.289128,3.64138,20,0.0156559,10,0.00105283,-2.43873,-2.69049,-0.0219291,-3.11405,0.289128,
2,1,0,1,0,38617.9,0.291447,0.291131,3.6324,20,0.0157285,10,0.0010575,-2.43981,-1.5618,-0.0377768,-5.3529,0.291131,
2,1,0,1,0,38617.9,0.293445,0.293085,3.6202,20,0.0158012,10,0.00106103,-2.44127,-1.77011,-0.0333312,-4.71277,0.293085,
2,1,0,1,0,38618,0.295442,0.295142,3.6135,20,0.0158737,10,0.00106649,-2.44207,-2.36906,-0.0249044,-3.51175,0.295142,
2,1,0,1,0,38618,0.29744,0.297111,3.60606,20,0.015946,10,0.0010714,-2.44297,-2.49631,-0.0236349,-3.32688,0.297111,
2,1,0,1,0,38618,0.299438,0.29918,3.60006,20,0.0160179,10,0.00107707,-2.44369,-0.0336619,-1.75272,-228.324,0.29918,
2,1,0,1,0,38618,0.299737,0.2994,3.0834,20,0.0160472,10,0.000923168,-2.51097,0.00370458,15.9262,1370.24,0.2994,
2,1,0,1,0,38618,0.29774,0.297448,1.22683,20,0.0160874,10,0.000364918,-2.91122,0.00378178,15.6011,705.608,0.297448,
2,1,0,1,0,38618,0.295742,0.295416,0.272733,20,0.0161016,10,8.05698e-05,-3.56426,0.00681819,8.65333,382.287,0.295416,
2,0,0,1,0,38618.1,0.293745,0.293416,-0.3144,20,0.0161008,10,-9.22503e-05,-3.50252,-0.00972063,-6.06956,244.239,0.293416,
2,0,0,1,0,38618.1,0.291747,0.291426,-0.701799,20,0.0160904,10,-0.000204523,-3.15379,-0.00805798,-7.32194,167.922,0.291426,
2,0,0,1,0,38618.1,0.289754,0.289416,-0.986189,20,0.0160735,10,-0.000285419,-3.00604,-0.0173814,-3.39442,122.519,0.289416,
2,0,0,1,0,38618.1,0.287752,0.287435,-1.1908,20,0.0160516,10,-0.000342279,-2.92416,-0.0292998,-2.01366,90.9719,0.287435,
2,0,0,1,0,38618.1,0.285754,0.285441,-1.34779,20,0.0160262,10,-0.000384716,-2.87038,-0.04213,-1.40043,72.7066,0.285441,
2,0,0,1,0,38618.2,0.283757,0.283454,-1.48028,20,0.0159979,10,-0.000419592,-2.82965,-0.0559372,-1.05476,60.3464,0.283454,
2,0,0,1,0,38618.2,0.281759,0.281412,-1.59094,20,0.0159672,10,-0.000447709,-2.79835,-0.074014,-0.797146,49.0424,0.281412,
2,0,0,1,0,38618.2,0.279761,0.27945,-1.67661,20,0.0159347,10,-0.000468531,-2.77557,-0.0890789,-0.662334,43.3008,0.27945,
2,0,0,1,0,38618.2,0.277764,0.277454,-1.76229,20,0.0159003,10,-0.000488956,-2.75392,-0.102769,-0.574101,39.2988,0.277454,
2,0,0,1,0,38618.2,0.275766,0.275453,-1.83371,20,0.0158643,10,-0.000505102,-2.73667,-0.124794,-0.472779,33.7458,0.275453,
2,0,0,1,0,38618.3,0.273769,0.273456,-1.89723,20,0.0158271,10,-0.00051881,-2.72188,-0.135118,-0.436654,32.3331,0.273456,
2,0,0,1,0,38618.3,0.271771,0.271472,-1.96243,20,0.0157887,10,-0.000532744,-2.70721,-0.150809,-0.391223,29.874,0.271472,
2,0,0,1,0,38618.3,0.269774,0.26944,-2.01721,20,0.0157489,10,-0.000543516,-2.69525,-0.186524,-0.316312,24.842,0.26944,
2,0,0,1,0,38618.3,0.267776,0.267418,-2.06314,20,0.0157081,10,-0.000551721,-2.68547,-0.203102,-0.290494,23.3931,0.267418,
2,0,0,1,0,38618.3,0.265778,0.26546,-2.11032,20,0.0156665,10,-0.000560204,-2.67565,-0.196365,-0.300461,24.7645,0.26546,
2,0,0,1,0,38618.4,0.263781,0.263448,-2.16146,20,0.0156239,10,-0.000569431,-2.66525,-0.215657,-0.273583,23.0217,0.263448,
2,0,0,1,0,38618.4,0.261783,0.261447,-2.2027,20,0.0155804,10,-0.000575888,-2.65705,-0.263086,-0.224262,19.2533,0.261447,
2,0,0,1,0,38618.4,0.259786,0.259439,-2.23864,20,0.015536,10,-0.00058079,-2.65002,-0.237843,-0.248062,21.7413,0.259439,
2,0,0,1,0,38618.4,0.257788,0.257461,-2.28936,20,0.0154908,10,-0.00058942,-2.64029,-0.241807,-0.243996,21.726,0.257461,
2,0,0,1,0,38618.4,0.25579,0.255462,-2.32505,20,0.015445,10,-0.000593961,-2.63357,-0.341954,-0.172538,15.6273,0.255462,
2,0,0,1,0,38618.5,0.253793,0.25342,-2.3525,20,0.0153983,10,-0.000596171,-2.62847,-0.357628,-0.164976,15.1641,0.25342,
2,0,0,1,0,38618.5,0.251795,0.251464,-2.38567,20,0.015351,10,-0.00059991,-2.62239,-0.31862,-0.185174,17.244,0.251464,
2,0,0,1,0,38618.5,0.249798,0.249502,-2.42007,20,0.0153029,10,-0.000603812,-2.61617,-0.320293,-0.184206,17.4006,0.249502,
2,0,0,1,0,38618.5,0.2478,0.247447,-2.45557,20,0.0152545,10,-0.000607623,-2.60985,-0.352503,-0.167374,16.0174,0.247447,
2,0,0,1,0,38618.5,0.245802,0.245485,-2.48441,20,0.0152052,10,-0.000609885,-2.60478,-0.374163,-0.157685,15.2968,0.245485,
2,0,0,1,0,38618.6,0.243805,0.243495,-2.51602,20,0.0151552,10,-0.000612639,-2.59929,-0.406277,-0.145221,14.2396,0.243495,
2,0,0,1,0,38618.6,0.241807,0.241525,-2.5408,20,0.0151047,10,-0.000613666,-2.59503,-0.373861,-0.157813,15.6883,0.2415251,
2,0,0,1,0,38618.6,0.23981,0.239498,-2.57873,20,0.0150538,10,-0.0006176,-2.58859,-0.367761,-0.16043,16.1132,0.239498,
2,0,0,1,0,38618.6,0.237812,0.237443,-2.60657,20,0.015002,10,-0.000618912,-2.58393,-0.468819,-0.125848,12.7909,0.237443,
2,0,0,1,0,38618.6,0.235815,0.235487,-2.63004,20,0.0149498,10,-0.000619338,-2.58004,-0.480034,-0.122908,12.6216,0.235487,
2,0,0,1,0,38618.7,0.233817,0.233512,-2.65619,20,0.014897,10,-0.000620252,-2.57574,-0.416222,-0.141751,14.7122,0.233512,
2,0,0,1,0,38618.7,0.231815,0.231478,-2.68901,20,0.0148437,10,-0.000622447,-2.57041,-0.403775,-0.146121,15.321,0.231478,
2,0,0,1,0,38618.7,0.229822,0.229521,-2.71733,20,0.01479,10,-0.000623685,-2.56586,-0.540103,-0.109238,11.5618,0.229521,
2,0,0,1,0,38618.7,0.227824,0.227492,-2.7351,20,0.0147356,10,-0.000622213,-2.56303,-0.524728,-0.112439,12.0298,0.227492,
2,0,0,1,0,38618.7,0.225827,0.225501,-2.76569,20,0.0146807,10,-0.000623666,-2.5582,-0.50671,-0.116437,12.5425,0.2255013,
2,0,0,1,0,38618.8,0.223829,0.223489,-2.78531,20,0.0146253,10,-0.000622485,-2.55513,-0.498346,-0.118392,12.896,0.223489,
2,0,0,1,0,38618.8,0.221831,0.221552,-2.81662,20,0.0145696,10,-0.000624027,-2.55027,-0.519239,-0.113628,12.4607,0.221552,
2,0,0,1,0,38618.8,0.219834,0.219528,-2.83466,20,0.0145131,10,-0.000622288,-2.5475,-0.527725,-0.111801,12.398,0.2195285,
2,0,0,1,0,38618.8,0.217836,0.217531,-2.86647,20,0.0144561,10,-0.000623546,-2.54265,-0.569611,-0.10358,11.5525,0.217531,
2,0,0,1,0,38618.8,0.215839,0.215502,-2.88117,20,0.0143987,10,-0.000620898,-2.54043,-0.558365,-0.105666,11.9189,0.215502,
2,0,0,1,0,38618.9,0.213841,0.213525,-2.91422,20,0.014341,10,-0.000622259,-2.53548,-0.476717,-0.123763,14.0495,0.213525,
2,0,0,1,0,38618.9,0.211843,0.211565,-2.93649,20,0.0142826,10,-0.000621258,-2.53217,-0.672857,-0.0876858,10.0409,0.211565,
2,0,0,1,0,38618.9,0.209846,0.20955,-2.95413,20,0.0142236,10,-0.000619038,-2.52957,-0.591988,-0.0996642,11.5124,0.2095497,
2,0,0,1,0,38618.9,0.207848,0.207503,-2.98325,20,0.0141643,10,-0.000619033,-2.52531,-0.385253,-0.153146,17.8696,0.207503,
2,0,0,1,0,38618.9,0.205851,0.20554,-3.02579,20,0.0141045,10,-0.00062192,-2.51916,-0.48563,-0.121492,14.2788,0.20554,
2,0,0,1,0,38619,0.203853,0.203535,-3.03991,20,0.0140439,10,-0.000618728,-2.51714,-0.748383,-0.0788366,9.36729,0.203535,
2,0,0,1,0,38619,0.201856,0.201527,-3.06338,20,0.013983,10,-0.000617354,-2.5138,-0.55905,-0.105536,12.6253,0.2015274,
2,0,0,1,0,38619,0.199858,0.199499,-3.09087,20,0.0139215,10,-0.000616624,-2.50992,-0.486069,-0.121382,14.6492,0.199499,
2,0,0,1,0,38619,0.19786,0.197552,-3.12162,20,0.0138598,10,-0.000616681,-2.50562,-0.582888,-0.10122,12.3065,0.197552,
2,0,0,1,0,38619,0.195863,0.195515,-3.1399,20,0.0137973,10,-0.000613896,-2.50308,-0.543658,-0.108524,13.3348,0.195515,
2,0,0,1,0,38619.1,0.193865,0.193518,-3.17541,20,0.0137342,10,-0.000614498,-2.4982,-0.493781,-0.119486,14.7789,0.193518,
2,0,0,1,0,38619.1,0.191868,0.191526,-3.19885,20,0.0136706,10,-0.000612662,-2.49501,-0.503673,-0.11714,14.6498,0.191526,
2,0,0,1,0,38619.1,0.18987,0.18953,-3.23383,20,0.0136067,10,-0.000612907,-2.49028,-0.530805,-0.111152,13.9962,0.18953,
2,0,0,1,0,38619.1,0.187872,0.187563,-3.25431,20,0.0135419,10,-0.000610389,-2.48754,-0.623771,-0.0945861,12.0268,0.187563,
2,0,0,1,0,38619.1,0.185875,0.185489,-3.28243,20,0.0134766,10,-0.000608854,-2.4838,-0.527517,-0.111845,14.3306,0.185489,
2,0,0,1,0,38619.2,0.183877,0.183532,-3.31209,20,0.0134106,10,-0.000607872,-2.4799,-0.415994,-0.141829,18.3705,0.183532,
2,0,0,1,0,38619.2,0.18188,0.181505,-3.35561,20,0.0133444,10,-0.000609061,-2.47423,-0.424538,-0.138975,18.1586,0.181505,
2,0,0,1,0,38619.2,0.179882,0.179563,-3.38414,20,0.013277,10,-0.000607668,-2.47055,-0.54139,-0.108979,14.3916,0.179563,
2,0,0,1,0,38619.2,0.177885,0.177579,-3.41212,20,0.0132091,10,-0.00060592,-2.46698,-0.49786,-0.118507,15.7965,0.177579,
2,0,0,1,0,38619.2,0.175887,0.175582,-3.44704,20,0.0131405,10,-0.000605237,-2.46255,-0.370402,-0.159286,21.4785,0.175582,
2,0,0,1,0,38619.3,0.173896,0.17356,-3.49844,20,0.0130715,10,-0.000607189,-2.45613,-0.368549,-0.160087,21.8091,0.1735597,
2,0,0,1,0,38619.3,0.171892,0.171558,-3.5348,20,0.0130012,10,-0.000606422,-2.45164,-0.403894,-0.146078,20.1743,0.171558,
2,0,0,1,0,38619.3,0.169894,0.169548,-3.57938,20,0.0129301,10,-0.000606876,-2.44619,-0.354595,-0.166387,23.2566,0.169548,
2,0,0,1,0,38619.3,0.167897,0.167525,-3.62858,20,0.0128581,10,-0.000607879,-2.44026,-0.328912,-0.179379,25.4114,0.167525,
2,0,0,1,0,38619.3,0.165899,0.165554,-3.68086,20,0.0127852,10,-0.000609382,-2.43405,-0.322141,-0.18315,26.3055,0.1655543,
2,0,0,1,0,38619.4,0.163901,0.163579,-3.73239,20,0.0127115,10,-0.00061054,-2.42801,-0.292166,-0.20194,29.4651,0.1635787,
2,0,0,1,0,38619.4,0.161904,0.161607,-3.79716,20,0.0126363,10,-0.000613649,-2.42054,-0.284168,-0.207624,30.7396,0.161607,
2,0,0,1,0,38619.4,0.159906,0.159572,-3.85557,20,0.0125598,10,-0.00061524,-2.41391,-0.286791,-0.205725,30.9855,0.159572,
2,0,0,1,0,38619.4,0.157909,0.157575,-3.92212,20,0.0124821,10,-0.000618026,-2.40648,-0.231806,-0.254523,39.069,0.1575745,
2,0,0,1,0,38619.4,0.155911,0.155573,-4.01178,20,0.0124032,10,-0.000624126,-2.39666,-0.210457,-0.280342,43.8693,0.155573,
2,0,0,1,0,38619.5,0.153913,0.153553,-4.09853,20,0.0123221,10,-0.000629342,-2.38737,-0.211144,-0.27943,44.7252,0.153553,
2,0,0,1,0,38619.5,0.151916,0.151543,-4.19202,20,0.0122392,10,-0.000635273,-2.37758,-0.183429,-0.321651,52.7425,0.151543,
2,0,0,1,0,38619.5,0.149918,0.149613,-4.30633,20,0.0121543,10,-0.000644284,-2.36589,-0.15811,-0.373158,62.8469,0.149613,
2,0,0,1,0,38619.5,0.147921,0.147577,-4.4413,20,0.0120673,10,-0.000655433,-2.35249,-0.153617,-0.384071,66.5312,0.1475769,
2,0,0,1,0,38619.5,0.145923,0.145596,-4.57364,20,0.0119772,10,-0.000665901,-2.33974,-0.142274,-0.414692,74.2495,0.145596,
2,0,0,1,0,38619.6,0.143926,0.143588,-4.73747,20,0.0118841,10,-0.000680244,-2.32445,-0.121971,-0.483722,89.6531,0.143588,
2,0,0,1,0,38619.6,0.141928,0.141633,-4.92887,20,0.0117875,10,-0.000698092,-2.30725,-0.113267,-0.520891,100.317,0.141633,
2,0,0,1,0,38619.6,0.13993,0.139602,-5.13737,20,0.0116875,10,-0.000717186,-2.28926,-0.113616,-0.519295,104.095,0.139602,
2,0,0,1,0,38619.6,0.137933,0.137593,-5.34947,20,0.0115828,10,-0.000736048,-2.27169,-0.109613,-0.538256,112.546,0.137593,
2,0,0,1,0,38619.6,0.135935,0.135631,-5.58425,20,0.0114735,10,-0.000757398,-2.25303,-0.102135,-0.577665,126.175,0.135631,
2,0,0,1,0,38619.7,0.133938,0.133614,-5.8515,20,0.0113591,10,-0.000781842,-2.23273,-0.100144,-0.589154,134.537,0.133614,
2,0,0,1,0,38619.7,0.13194,0.131599,-6.12669,20,0.0112401,10,-0.000806267,-2.21277,-0.100853,-0.585012,139.881,0.131599,
2,0,0,1,0,38619.7,0.129942,0.129617,-6.41053,20,0.0111148,10,-0.000830916,-2.19311,-0.105049,-0.56164,140.361,0.129617,
2,0,0,1,0,38619.7,0.127945,0.127595,-6.68878,20,0.0109839,10,-0.000853452,-2.17465,-0.111361,-0.529811,138.164,0.127595,
2,0,0,1,0,38619.7,0.125947,0.125632,-6.96113,20,0.0108475,10,-0.000874542,-2.15732,-0.115056,-0.512793,139.329,0.125632,
2,0,0,1,0,38619.8,0.12395,0.123619,-7.24262,20,0.0107062,10,-0.00089533,-2.1401,-0.120493,-0.489654,138.197,0.123619,
2,0,0,1,0,38619.8,0.121952,0.121665,-7.50937,20,0.0105587,10,-0.000913629,-2.1244,-0.134455,-0.438808,128.391,0.121665,
2,0,0,1,0,38619.8,0.119955,0.119609,-7.75754,20,0.0104061,10,-0.000927871,-2.11028,-0.145348,-0.405922,122.825,0.119609,
2,0,0,1,0,38619.8,0.117957,0.117653,-8.00217,20,0.0102485,10,-0.000941479,-2.09679,-0.152782,-0.386171,120.529,0.117653,
2,0,0,1,0,38619.8,0.115955,0.115588,-8.24212,20,0.0100861,10,-0.000952694,-2.08396,-0.168321,-0.350521,112.543,0.115588,
2,0,0,1,0,38619.9,0.113962,0.113621,-8.45594,20,0.00991993,10,-0.000960772,-2.07284,-0.185089,-0.318766,105.087,0.113621,
2,0,0,1,0,38619.9,0.111964,0.111653,-8.65565,20,0.00974889,10,-0.000966433,-2.0627,-0.203241,-0.290295,97.9867,0.111653,
2,0,0,1,0,38619.9,0.109967,0.109652,-8.84488,20,0.00957397,10,-0.000969856,-2.05331,-0.231078,-0.255326,87.9925,0.109652,
2,0,0,1,0,38619.9,0.107969,0.107652,-9.00777,20,0.00939547,10,-0.000969701,-2.04538,-0.25518,-0.231209,81.2699,0.107652,
2,0,0,1,0,38619.9,0.105971,0.105647,-9.1703,20,0.00921459,10,-0.000968819,-2.03762,-0.288966,-0.204176,72.9386,0.105647,
2,0,0,1,0,38620,0.103974,0.103634,-9.30083,20,0.00902991,10,-0.00096388,-2.03148,-0.337806,-0.174656,63.3598,0.103634,
2,0,0,1,0,38620,0.101976,0.101682,-9.42155,20,0.00884275,10,-0.000958003,-2.02588,-0.431399,-0.136764,50.1754,0.101682,
2,0,0,1,0,38620,0.0999786,0.0996445,-9.50099,20,0.00865364,10,-0.000946722,-2.02223,-0.544735,-0.108309,40.1666,0.0996445,
2,0,0,1,0,38620,0.0979811,0.0976428,-9.58379,20,0.00846376,10,-0.000935788,-2.01846,-0.697232,-0.0846203,31.5831,0.0976428,
2,0,0,1,0,38620,0.0959835,0.0956785,-9.62625,20,0.00827172,10,-0.000921025,-2.01654,-1.36642,-0.0431785,16.2039,0.0956785,
2,0,0,1,0,38620.1,0.0939859,0.0936818,-9.64797,20,0.00807902,10,-0.00090384,-2.01556,-3.78803,-0.0155754,5.85859,0.09368179,
2,0,0,1,0,38620.1,0.0919883,0.0916345,-9.64995,20,0.00788607,10,-0.000884268,-2.01548,-68.9822,-0.000855293,0.322065,0.0916345,
2,0,0,1,0,38620.1,0.0899907,0.0896848,-9.64926,20,0.00769399,10,-0.000865392,-2.01551,1.75798,0.0335612,-12.6066,0.0896848,
2,0,0,1,0,38620.1,0.0879931,0.0876668,-9.59993,20,0.00750154,10,-0.000841595,-2.01773,0.903194,0.0653237,-24.4742,0.0876668,
2,0,0,1,0,38620.1,0.0859955,0.0856708,-9.55102,20,0.0073101,10,-0.000818244,-2.01995,0.751247,0.0785361,-29.2451,0.0856708,
2,0,0,1,0,38620.2,0.083998,0.0836836,-9.48344,20,0.00711979,10,-0.000793608,-2.02303,0.639662,0.0922362,-34.1346,0.0836836,
2,0,0,1,0,38620.2,0.0820004,0.0816746,-9.41461,20,0.0069318,10,-0.000768935,-2.0262,0.572558,0.103046,-37.8295,0.0816746,
2,0,0,1,0,38620.2,0.0800028,0.0796343,-9.33026,20,0.00674442,10,-0.000743009,-2.03011,0.530358,0.111246,-40.5202,0.0796343,
2,0,0,1,0,38620.2,0.0780052,0.0776617,-9.25201,20,0.00655863,10,-0.000718527,-2.03376,0.532035,0.110895,-40.04,0.0776617,
2,0,0,1,0,38620.2,0.0760076,0.0757185,-9.17347,20,0.00637446,10,-0.000694602,-2.03747,0.552037,0.106877,-38.2727,0.0757185,
2,0,0,1,0,38620.3,0.07401,0.073687,-9.09989,20,0.00619283,10,-0.000670544,-2.04096,0.556895,0.105945,-37.6151,0.073687,
2,0,0,1,0,38620.3,0.0720124,0.0716877,-9.02185,20,0.00601172,10,-0.000646755,-2.0447,0.568,0.103873,-36.594,0.0716877,
2,0,0,1,0,38620.3,0.0700148,0.069713,-8.95446,20,0.00583206,10,-0.000624242,-2.04796,0.581902,0.101392,-35.4197,0.069713,
2,0,0,1,0,38620.3,0.0680173,0.0677075,-8.88087,20,0.0056538,10,-0.000601302,-2.05154,0.711868,0.0828806,-28.7752,0.0677075,
2,0,0,1,0,38620.3,0.0660106,0.0656678,-8.83806,20,0.00547677,10,-0.000580376,-2.05364,0.778449,0.0757917,-26.1142,0.0656678,
2,0,0,1,0,38620.4,0.0640221,0.0637114,-8.77651,20,0.00530155,10,-0.000559164,-2.05668,0.66549,0.0886565,-30.3729,0.0637114,
2,0,0,1,0,38620.4,0.0620245,0.0617433,-8.71886,20,0.00512668,10,-0.000538332,-2.05954,0.72198,0.0817197,-27.8113,0.0617433,
2,0,0,1,0,38620.4,0.0600269,0.0596757,-8.66428,20,0.00495292,10,-0.000517046,-2.06227,0.801653,0.0735979,-24.8993,0.0596757,
2,0,0,1,0,38620.4,0.0580361,0.057727,-8.61886,20,0.00478101,10,-0.000497541,-2.06455,0.772304,0.0763948,-25.6806,0.057727,
2,0,0,1,0,38620.4,0.0560317,0.0557263,-8.56285,20,0.00460914,10,-0.000477176,-2.06738,0.772124,0.0764126,-25.5487,0.0557263,
2,0,0,1,0,38620.5,0.0540342,0.0536918,-8.51577,20,0.00443838,10,-0.000457227,-2.06978,0.79776,0.0739571,-24.5717,0.0536918,
2,0,0,1,0,38620.5,0.0520366,0.0516907,-8.46369,20,0.00426861,10,-0.000437494,-2.07244,0.716448,0.0823507,-27.1939,0.0516907,
2,0,0,1,0,38620.5,0.050039,0.0496995,-8.4072,20,0.00409987,10,-0.000417834,-2.07535,0.740717,0.0796526,-26.1482,0.0496995,
2,0,0,1,0,38620.5,0.0480414,0.047715,-8.35973,20,0.00393301,10,-0.000398884,-2.07781,0.734878,0.0802854,-26.1798,0.047715,
2,0,0,1,0,38620.5,0.0460438,0.0457498,-8.3038,20,0.00376642,10,-0.000379897,-2.08072,0.689347,0.0855882,-27.7375,0.0457498,
2,0,0,1,0,38620.6,0.0440462,0.0437091,-8.24862,20,0.00360093,10,-0.00036054,-2.08362,0.657255,0.0897672,-28.8865,0.0437091,
2,0,0,1,0,38620.6,0.0420486,0.0417178,-8.18733,20,0.00343668,10,-0.000341557,-2.08686,0.678369,0.0869733,-27.8107,0.0417178,
2,0,0,1,0,38620.6,0.0400511,0.0397442,-8.13835,20,0.00327424,10,-0.000323452,-2.08946,0.692246,0.0852298,-27.0494,0.0397442,
2,0,0,1,0,38620.6,0.0380535,0.0376433,-8.07711,20,0.00311215,10,-0.000304049,-2.09274,0.559198,0.105508,-33.233,0.0376433,
2,0,0,1,0,38620.6,0.0360559,0.0356937,-8.00375,20,0.00295144,10,-0.000285684,-2.09671,0.521354,0.113167,-35.3696,0.0356937,
2,0,0,1,0,38620.7,0.0340583,0.0337707,-7.94014,20,0.00279202,10,-0.000268144,-2.10017,0.578712,0.101951,-31.5952,0.0337707,
2,0,0,1,0,38620.7,0.0320607,0.0317235,-7.87831,20,0.00263466,10,-0.000249928,-2.10357,0.533917,0.110504,-33.9485,0.0317235,
2,0,0,1,0,38620.7,0.0300631,0.0297613,-7.80403,20,0.00247792,10,-0.000232258,-2.10768,0.478548,0.12329,-37.5455,0.0297613,
2,0,0,1,0,38620.7,0.0280655,0.027731,-7.7284,20,0.00232267,10,-0.000214316,-2.11191,0.467541,0.126192,-38.0564,0.027731,
2,0,0,1,0,38620.7,0.0260679,0.0257455,-7.6512,20,0.00216892,10,-0.000196984,-2.11627,0.459592,0.128375,-38.3341,0.0257455,
2,0,0,1,0,38620.8,0.0240704,0.0237282,-7.57496,20,0.0020175,10,-0.00017974,-2.12062,0.447428,0.131865,-38.9669,0.0237282,
2,0,0,1,0,38620.8,0.0220728,0.0216889,-7.49313,20,0.00186689,10,-0.000162517,-2.12534,0.418917,0.140839,-41.1849,0.02168886,
2,0,0,1,0,38620.8,0.0200752,0.019758,-7.41145,20,0.00171792,10,-0.000146435,-2.1301,0.390525,0.151079,-43.6708,0.019758,
2,0,0,1,0,38620.8,0.0180776,0.0177456,-7.32092,20,0.00157059,10,-0.000129914,-2.13543,0.440803,0.133847,-38.3082,0.0177456,
2,0,0,1,0,38620.8,0.01608,0.0157109,-7.25641,20,0.00142565,10,-0.000114005,-2.13928,0.469608,0.125637,-35.5484,0.0157109,
2,0,0,1,0,38620.9,0.0140824,0.0137698,-7.17959,20,0.00128141,10,-9.88617e-05,-2.1439,0.403687,0.146153,-40.9251,0.01376983,
2,0,0,1,0,38620.9,0.0120848,0.0117445,-7.09409,20,0.00113873,10,-8.33165e-05,-2.1491,0.410972,0.143562,-39.7806,0.0117445,
2,0,0,1,0,38620.9,0.0100872,0.00979096,-7.02131,20,0.000997667,10,-6.87453e-05,-2.15358,0.497217,0.11866,-32.549,0.00979096,
2,0,0,1,0,38620.9,0.00809193,0.00773256,-6.9635,20,0.000858645,10,-5.38457e-05,-2.15717,0.508597,0.116005,-31.4974,0.00773256,
2,0,0,1,0,38620.9,0.00609208,0.00573143,-6.89344,20,0.000720165,10,-3.95093e-05,-2.16156,0.447534,0.131834,-35.4651,0.00573143,
2,0,0,1,0,38621,0.00409449,0.00377281,-6.82307,20,0.000583028,10,-2.57421e-05,-2.16602,0.882159,0.0668813,-17.8988,0.00377281,
2,0,0,1,0,38621,0.0020969,0.00170184,-6.82132,20,0.000446986,10,-1.16088e-05,-2.16613,0.866709,0.0680736,-18.0303,0.00170184,
2,0,0,1,0,38621,9.14991e-05,-0.000249408,-6.75055,20,0.000311399,10,1.68364e-06,-2.17066,0.509292,0.115847,-30.5638,-0.000249408,
2,0,0,1,0,38621,-0.00189827,-0.00228717,-6.6994,20,0.000177581,10,1.53227e-05,-2.17396,0.664511,0.0887871,-23.2285,-0.00228717,
2,0,0,1,0,38621,-0.00389586,-0.00428138,-6.65689,20,4.40422e-05,10,2.85007e-05,-2.17673,0.852822,0.0691821,-17.9903,-0.00428138,
2,0,0,1,0,38621.1,-0.00589345,-0.00630754,-6.62707,20,-8.87094e-05,10,4.18005e-05,-2.17868,0.905283,0.065173,-16.8459,-0.00630754,
2,0,0,1,0,38621.1,-0.00789103,-0.00828349,-6.58947,20,-0.00022081,10,5.45838e-05,-2.18115,1.15651,0.0510153,-13.1423,-0.00828349,
2,0,0,1,0,38621.1,-0.00988862,-0.0102768,-6.57491,20,-0.000351805,10,6.75688e-05,-2.18211,2.12276,0.027794,-7.13247,-0.0102768,
2,0,0,1,0,38621.1,-0.0118862,-0.0122111,-6.56146,20,-0.00048311,10,8.01225e-05,-2.183,1.90131,0.0310312,-7.94318,-0.0122111,
2,0,0,1,0,38621.1,-0.0138838,-0.0142968,-6.54298,20,-0.000614096,10,9.35437e-05,-2.18422,2.26728,0.0260223,-6.64985,-0.0142968,
2,0,0,1,0,38621.2,-0.0158814,-0.0162858,-6.53436,20,-0.000744812,10,0.000106417,-2.1848,-9.71058,-0.00607585,1.55221,-0.0162858,
2,0,0,1,0,38621.2,-0.017879,-0.0182844,-6.54917,20,-0.000874946,10,0.000119748,-2.18381,-6.03923,-0.00976946,2.49325,-0.0182844,
2,0,0,1,0,38621.2,-0.0198766,-0.0202467,-6.54424,20,-0.00100578,10,0.000132499,-2.18414,-97.9267,-0.000602491,0.154,-0.0202467,
2,0,0,1,0,38621.2,-0.0218741,-0.0222807,-6.54978,20,-0.00113662,10,0.000145934,-2.18377,-3.49731,-0.0168701,4.31434,-0.0222807,
2,0,0,1,0,38621.2,-0.0238717,-0.0242592,-6.56155,20,-0.00126768,10,0.000159178,-2.18299,-1.54199,-0.0382622,9.80968,-0.0242592,
2,0,0,1,0,38621.3,-0.0258693,-0.0262715,-6.58893,20,-0.00139854,10,0.000173101,-2.18119,-1.54518,-0.0381833,9.80702,-0.0262715,
2,0,0,1,0,38621.3,-0.0278669,-0.028254,-6.60072,20,-0.00153036,10,0.000186497,-2.18041,-1.70241,-0.0346568,8.93581,-0.028254,
2,0,0,1,0,38621.3,-0.0298645,-0.030243,-6.62442,20,-0.00166261,10,0.000200342,-2.17885,-1.29288,-0.0456347,11.7975,-0.030243,
2,0,0,1,0,38621.3,-0.0318621,-0.0322337,-6.64767,20,-0.00179535,10,0.000214279,-2.17733,-1.05376,-0.0559901,14.5385,-0.0322337,
2,0,0,1,0,38621.3,-0.0338597,-0.0342364,-6.68248,20,-0.00192799,10,0.000228784,-2.17506,-0.900409,-0.0655258,17.0871,-0.0342364,
2,0,0,1,0,38621.4,-0.0358573,-0.0362315,-6.71599,20,-0.00206198,10,0.00024333,-2.17289,-0.844259,-0.0698838,18.3256,-0.0362315,
2,0,0,1,0,38621.4,-0.0378548,-0.0382527,-6.75608,20,-0.00219666,10,0.000258438,-2.17031,-0.927919,-0.0635831,16.7479,-0.0382527,
2,0,0,1,0,38621.4,-0.0398524,-0.0402095,-6.78261,20,-0.00233205,10,0.000272726,-2.1686,-0.76671,-0.0769521,20.4109,-0.0402095,
2,0,0,1,0,38621.4,-0.04185,-0.0422094,-6.83684,20,-0.00246751,10,0.000288579,-2.16514,-0.689637,-0.0855522,22.8002,-0.0422094,
2,0,0,1,0,38621.4,-0.0438476,-0.0442709,-6.87521,20,-0.00260463,10,0.000304371,-2.16271,-0.813879,-0.0724924,19.4532,-0.0442709,
2,0,0,1,0,38621.5,-0.0458452,-0.0462425,-6.91529,20,-0.00274256,10,0.00031978,-2.16019,-0.727551,-0.081094,21.8963,-0.0462425,
2,0,0,1,0,38621.5,-0.0478428,-0.0482428,-6.96218,20,-0.00288138,10,0.000335875,-2.15725,-0.562376,-0.104912,28.5461,-0.0482428,
2,0,0,1,0,38621.5,-0.0498495,-0.050227,-7.02903,20,-0.00302124,10,0.000353047,-2.1531,-0.561787,-0.105022,28.7681,-0.050227,
2,0,0,1,0,38621.5,-0.051838,-0.0521947,-7.07587,20,-0.00316158,10,0.000369323,-2.15022,-0.651105,-0.0906152,25.0335,-0.0521947,
2,0,0,1,0,38621.5,-0.0538355,-0.0542097,-7.12874,20,-0.0033036,10,0.000386446,-2.14699,-0.615524,-0.0958533,26.6708,-0.0542097,
2,0,0,1,0,38621.6,-0.0558331,-0.0562338,-7.18359,20,-0.00344676,10,0.00040396,-2.14366,-0.55575,-0.106163,29.7783,-0.0562338,
2,0,0,1,0,38621.6,-0.0578216,-0.0581512,-7.24611,20,-0.0035904,10,0.00042137,-2.1399,-0.525874,-0.112194,31.7289,-0.0581512,
2,0,0,1,0,38621.6,-0.0598283,-0.0602023,-7.30951,20,-0.00373601,10,0.000440049,-2.13611,-0.520592,-0.113332,32.3389,-0.0602023,
2,0,0,1,0,38621.6,-0.0618259,-0.0622086,-7.37732,20,-0.00388289,10,0.000458933,-2.1321,-0.49352,-0.119549,34.4259,-0.0622086,
2,0,0,1,0,38621.6,-0.0638235,-0.0642293,-7.44814,20,-0.00403119,10,0.000478389,-2.12795,-0.504264,-0.117002,33.9967,-0.0642293,
2,0,0,1,0,38621.7,-0.0658211,-0.0662169,-7.51359,20,-0.0041808,10,0.000497527,-2.12415,-0.471072,-0.125246,36.7617,-0.0662169,
2,0,0,1,0,38621.7,-0.0678187,-0.0681982,-7.59405,20,-0.00433124,10,0.0005179,-2.11953,-0.436762,-0.135085,40.0318,-0.0681982,
2,0,0,1,0,38621.7,-0.0698162,-0.0702165,-7.6737,20,-0.00448394,10,0.00053882,-2.115,-0.455908,-0.129412,38.7455,-0.0702165,
2,0,0,1,0,38621.7,-0.0718138,-0.0722123,-7.74958,20,-0.00463819,10,0.000559615,-2.11072,-0.438222,-0.134635,40.7421,-0.0722123,
2,0,0,1,0,38621.7,-0.0738114,-0.0741688,-7.83472,20,-0.00479404,10,0.000581092,-2.10598,-0.399279,-0.147766,45.2045,-0.0741688,
2,0,0,1,0,38621.8,-0.075809,-0.0761692,-7.92845,20,-0.00495093,10,0.000603904,-2.10081,-0.411287,-0.143452,44.3588,-0.0761692,
2,0,0,1,0,38621.8,-0.0778066,-0.0781804,-8.01267,20,-0.00511042,10,0.000626434,-2.09622,-0.423999,-0.139151,43.5298,-0.0781804,
2,0,0,1,0,38621.8,-0.0798042,-0.0801876,-8.10336,20,-0.00527163,10,0.000649789,-2.09133,-0.380641,-0.155002,49.0549,-0.0801876,
2,0,0,1,0,38621.8,-0.0818018,-0.0821349,-8.20666,20,-0.00543481,10,0.000674053,-2.08583,-0.367634,-0.160485,51.389,-0.0821349,
2,0,0,1,0,38621.8,-0.0837994,-0.0841535,-8.30717,20,-0.00559917,10,0.000699078,-2.08055,-0.383118,-0.154,49.9228,-0.0841535,
2,0,0,1,0,38621.9,-0.0857969,-0.086149,-8.40706,20,-0.00576629,10,0.000724259,-2.07536,-0.379461,-0.155484,51.0259,-0.086149,
2,0,0,1,0,38621.9,-0.0877945,-0.088159,-8.51155,20,-0.00593549,10,0.00075037,-2.06999,-0.380349,-0.155121,51.5224,-0.088159,
2,0,0,1,0,38621.9,-0.0897921,-0.0901868,-8.61509,20,-0.00610676,10,0.000776968,-2.06474,-0.38619,-0.152775,51.3607,-0.09018679,
2,0,0,1,0,38621.9,-0.0917897,-0.0921731,-8.71772,20,-0.00627928,10,0.000803539,-2.0596,-0.376021,-0.156906,53.3984,-0.0921731,
2,0,0,1,0,38621.9,-0.0937873,-0.0941378,-8.82607,20,-0.00645482,10,0.000830867,-2.05423,-0.381015,-0.15485,53.3199,-0.0941378,
2,0,0,1,0,38622,-0.0957849,-0.0961372,-8.92909,20,-0.00663244,10,0.000858417,-2.04919,-0.4018,-0.146839,51.1676,-0.0961372,
2,0,0,1,0,38622,-0.0977825,-0.0981657,-9.03217,20,-0.00681208,10,0.000886649,-2.04421,-0.394681,-0.149488,52.6991,-0.0981657,
2,0,0,1,0,38622,-0.0997501,-0.100097,-9.13777,20,-0.00699015,10,0.000914665,-2.03916,0.00917082,6.43345,-2020.02,-0.100097,
2,0,0,1,1,38622,-0.0987313,-0.0991057,-7.13326,20,-0.00711421,10,0.000706946,-2.14671,-0.0124485,-4.73953,1296.05,-0.0991057,
2,0,0,1,1,38622,-0.0967337,-0.0970868,-5.23618,20,-0.0072364,10,0.000508363,-2.28099,-0.0148958,-3.96085,819.778,-0.0970868,
2,0,0,1,1,38622,-0.0947362,-0.0950601,-3.81674,20,-0.00732614,10,0.00036282,-2.41831,-0.0138161,-4.27037,635.932,-0.0950601,
2,0,0,1,1,38622.1,-0.0927386,-0.0930654,-2.67888,20,-0.00739055,10,0.000249311,-2.57205,-0.0114685,-5.14455,528.61,-0.0930654,
2,0,0,1,1,38622.1,-0.090741,-0.0911001,-1.72345,20,-0.00743397,10,0.000157006,-2.7636,-0.00860771,-6.85432,440.616,-0.0911001,
2,0,0,1,1,38622.1,-0.0887434,-0.0890781,-0.921977,20,-0.00746013,10,8.21279e-05,-3.03528,-0.00452065,-13.0512,374.688,-0.0890781,
2,0,0,1,1,38622.1,-0.0867458,-0.0871,-0.224678,20,-0.00747133,10,1.95695e-05,-3.64844,-0.0103596,-5.69519,328.489,-0.0871,
2,1,0,1,1,38622.1,-0.0847482,-0.0851096,0.381633,20,-0.00746955,10,-3.24806e-05,-3.41835,0.00654172,9.01904,285.46,-0.0851096,
2,1,0,1,1,38622.2,-0.0827529,-0.083134,0.907481,20,-0.00745658,10,-7.54424e-05,-3.04216,0.00718478,8.2118,248.555,-0.083134,
2,1,0,1,1,38622.2,-0.080753,-0.0811064,1.37665,20,-0.0074335,10,-0.000111655,-2.86118,0.0135971,4.33916,220.069,-0.0811064,
2,1,0,1,1,38622.2,-0.0787555,-0.0791195,1.79093,20,-0.00740169,10,-0.000141697,-2.74692,0.0202641,2.91155,197.505,-0.0791195,
2,1,0,1,1,38622.2,-0.0767579,-0.0771501,2.15803,20,-0.00736204,10,-0.000166493,-2.66594,0.0278003,2.12228,176.002,-0.0771501,
2,1,0,1,1,38622.2,-0.0747603,-0.0751012,2.49816,20,-0.00731533,10,-0.000187615,-2.60238,0.0355927,1.65764,159.511,-0.0751012,
2,1,0,1,1,38622.3,-0.0727627,-0.0731177,2.80124,20,-0.00726239,10,-0.00020482,-2.55265,0.0447678,1.31791,142.465,-0.07311774,
2,1,0,1,1,38622.3,-0.0707651,-0.0711534,3.06058,20,-0.00720363,10,-0.000217771,-2.5142,0.055195,1.06894,127.132,-0.07115341,
2,1,0,1,1,38622.3,-0.0687675,-0.0691339,3.30771,20,-0.00713981,10,-0.000228675,-2.48047,0.065589,0.899541,115.456,-0.0691339,
2,1,0,1,1,38622.3,-0.0667699,-0.0671048,3.52802,20,-0.00707131,10,-0.000236747,-2.45247,0.0773398,0.762868,104.6,-0.0671048,
2,1,0,1,1,38622.3,-0.0647723,-0.0651225,3.72731,20,-0.0069989,10,-0.000242731,-2.4286,0.0898416,0.656711,95.1785,-0.0651225,
2,1,0,1,1,38622.4,-0.0627748,-0.0631369,3.90568,20,-0.00692246,10,-0.000246593,-2.4083,0.105239,0.560628,85.2598,-0.0631369,
2,1,0,1,1,38622.4,-0.0607772,-0.0610877,4.07131,20,-0.00684262,10,-0.000248707,-2.39027,0.120794,0.488433,77.3578,-0.06108766,
2,1,0,1,1,38622.4,-0.0587796,-0.0591425,4.21468,20,-0.00675971,10,-0.000249267,-2.37524,0.139182,0.423904,69.6095,-0.0591425,
2,1,0,1,1,38622.4,-0.056782,-0.057128,4.34695,20,-0.00667445,10,-0.000248332,-2.36182,0.161041,0.366366,62.0259,-0.057128,
2,1,0,1,1,38622.4,-0.0547844,-0.0551263,4.46379,20,-0.00658625,10,-0.000246072,-2.3503,0.185197,0.31858,55.4175,-0.05512628,
2,1,0,1,1,38622.5,-0.0527868,-0.0531142,4.56938,20,-0.00649585,10,-0.000242699,-2.34014,0.204528,0.28847,51.3882,-0.0531142,
2,1,0,1,1,38622.5,-0.0507892,-0.0511748,4.66685,20,-0.00640348,10,-0.000238825,-2.33098,0.22488,0.262362,47.7459,-0.0511748,
2,1,0,1,1,38622.5,-0.0487916,-0.0491633,4.75802,20,-0.00630969,10,-0.00023392,-2.32257,0.270459,0.218148,40.4252,-0.0491633,
2,1,0,1,1,38622.5,-0.0467941,-0.0471218,4.83069,20,-0.00621375,10,-0.000227631,-2.31599,0.338363,0.174369,32.8233,-0.0471218,
2,1,0,1,1,38622.5,-0.0447965,-0.0451645,4.88927,20,-0.00611644,10,-0.000220821,-2.31076,0.351003,0.16809,32.1044,-0.0451645,
2,1,0,1,1,38622.6,-0.0427989,-0.0431634,4.95777,20,-0.00601787,10,-0.000213994,-2.30471,0.37615,0.156853,30.3026,-0.0431634,
2,1,0,1,1,38622.6,-0.0408013,-0.0411249,5.01168,20,-0.00591861,10,-0.000206105,-2.30002,0.488165,0.120861,23.6072,-0.0411249,
2,1,0,1,1,38622.6,-0.0388037,-0.0391585,5.05232,20,-0.00581784,10,-0.000197841,-2.29651,0.586056,0.100673,19.8451,-0.03915849,
2,1,0,1,1,38622.6,-0.0368061,-0.0371535,5.09049,20,-0.00571631,10,-0.00018913,-2.29324,0.593407,0.0994258,19.7566,-0.0371535,
2,1,0,1,1,38622.6,-0.0348085,-0.0351788,5.13094,20,-0.00561397,10,-0.0001805,-2.2898,0.627444,0.0940323,18.8173,-0.0351788,
2,1,0,1,1,38622.7,-0.0328109,-0.0331976,5.16493,20,-0.00551144,10,-0.000171463,-2.28694,0.834407,0.0707089,14.2375,-0.0331976,
2,1,0,1,1,38622.7,-0.0308134,-0.0311817,5.18785,20,-0.00540786,10,-0.000161766,-2.28501,1.0292,0.0573262,11.6076,-0.0311817,
2,1,0,1,1,38622.7,-0.0288158,-0.0291658,5.21173,20,-0.0053038,10,-0.000152005,-2.28302,1.29512,0.0455556,9.25658,-0.02916584,
2,1,0,1,1,38622.7,-0.0268182,-0.0271504,5.22517,20,-0.00519939,10,-0.000141865,-2.2819,1.57589,0.0374392,7.6372,-0.0271504,
2,1,0,1,1,38622.7,-0.0248138,-0.0251883,5.24211,20,-0.00509477,10,-0.00013204,-2.28049,1.7299,0.034106,6.97329,-0.0251883,
2,1,0,1,1,38622.8,-0.022823,-0.0231948,5.25275,20,-0.0049903,10,-0.000121837,-2.27961,2.33839,0.025231,5.17193,-0.0231948,
2,1,0,1,1,38622.8,-0.0208254,-0.0212218,5.26262,20,-0.00488511,10,-0.000111682,-2.2788,5.31722,0.011096,2.27663,-0.0212218,
2,1,0,1,1,38622.8,-0.0188278,-0.0192077,5.26183,20,-0.00477988,10,-0.000101067,-2.27886,31.6798,0.00186239,0.38256,-0.0192077,
2,1,0,1,1,38622.8,-0.0168393,-0.0172029,5.26416,20,-0.00467509,10,-9.05586e-05,-2.27867,5.56944,0.0105935,2.17722,-0.01720286,
2,1,0,1,1,38622.8,-0.0148327,-0.0151952,5.27056,20,-0.00456957,10,-8.00874e-05,-2.27814,13.3476,0.00442026,0.908429,-0.0151952,
2,1,0,1,1,38622.9,-0.0128351,-0.013201,5.2678,20,-0.00446415,10,-6.95403e-05,-2.27837,-8.30227,-0.00710649,-1.46094,-0.013201,
2,1,0,1,1,38622.9,-0.0108375,-0.0111635,5.26467,20,-0.00435877,10,-5.8772e-05,-2.27863,-18.8427,-0.00313118,-0.643568,-0.0111635,
2,1,0,1,1,38622.9,-0.00883989,-0.00919139,5.26522,20,-0.00425337,10,-4.83946e-05,-2.27858,12.6672,0.00465768,0.957331,-0.00919139,
2,1,0,1,1,38622.9,-0.0068423,-0.00718888,5.26848,20,-0.00414845,10,-3.78745e-05,-2.27831,-19.7234,-0.00299137,-0.614539,-0.00718888,
2,1,0,1,1,38622.9,-0.00484471,-0.00520919,5.26277,20,-0.00404311,10,-2.74148e-05,-2.27879,-7.24547,-0.00814302,-1.67324,-0.00520919,
2,1,0,1,1,38623,-0.00284713,-0.0031768,5.26177,20,-0.00393782,10,-1.67156e-05,-2.27887,-7.61895,-0.00774385,-1.58954,-0.0031768,
2,1,0,1,1,38623,-0.000849538,-0.00121205,5.25642,20,-0.00383258,10,-6.37106e-06,-2.27931, , , ,-0.00121205,
2,1,0,1,1,38623,-2.55332e-05,-0.000344411,5.26172,20,-0.00378996,10,-1.81219e-06,-2.27887, , , ,-0.000344411,