File: Figure_codes/Fig_3-5/rawdata_trumpetplot_data/after 10th/20221101_1-115_003_TrumpetPlot_ParaChange_from10_every3_14_CV_C01_19.csv
mode,ox/red,error,control changes,counter inc.,time/s,control/V,Ewe/V,<I>/mA,cycle number,(Q-Qo)/C,I Range,P/W,log(|I|),Tafel slope mV/dec,alpha_eff,dI/d(E-IR),E-IR/V,
2,1,0,1,0,38631.6,2.44065e-05,-0.000248974,35.1069,20,0.0000000E+000,10,-8.74071e-06,-1.45461, , , ,-0.000248974,
2,1,0,1,0,38631.6,0.00332042,0.00292906,36.477,20,0.000111559,10,0.000106844,-1.43798, , , ,0.00292906,
2,1,0,1,0,38631.6,0.0073156,0.00694694,37.5648,20,0.000259812,10,0.000260961,-1.42522, , , ,0.00694694,
2,1,0,1,0,38631.6,0.0113108,0.0109585,38.5312,20,0.000412124,10,0.000422243,-1.41419,0.379591,0.15543,232.37,0.0109585,
2,1,0,1,0,38631.6,0.0153059,0.0149095,39.398,20,0.000568075,10,0.000587406,-1.40453,0.423734,0.139238,213.297,0.0149095,
2,1,0,1,0,38631.6,0.0193011,0.0189412,40.1978,20,0.000727369,10,0.000761394,-1.3958,0.467332,0.126249,197.534,0.0189412,
2,1,0,1,0,38631.6,0.0233462,0.0230015,40.9892,20,0.000889875,10,0.000942813,-1.38733,0.508231,0.116089,185.141,0.0230015,
2,1,0,1,0,38631.6,0.0273414,0.0269653,41.6931,20,0.00105531,10,0.00112427,-1.37994,0.545597,0.108138,175.515,0.0269653,
2,1,0,1,0,38631.6,0.0313366,0.0309471,42.3672,20,0.00122351,10,0.00131114,-1.37297,0.590218,0.099963,165,0.0309471,
2,1,0,1,0,38631.6,0.0353317,0.0349661,43.0104,20,0.00139434,10,0.0015039,-1.36643,0.627484,0.0940264,157.575,0.0349661,
2,1,0,1,0,38631.6,0.0393269,0.038985,43.6265,20,0.0015677,10,0.00170078,-1.36025,0.666884,0.0884711,150.401,0.038985,
2,1,0,1,0,38631.6,0.0433221,0.0429626,44.2139,20,0.00174345,10,0.00189954,-1.35444,0.703299,0.0838904,144.572,0.0429626,
2,1,0,1,0,38631.6,0.0473173,0.046954,44.7747,20,0.00192148,10,0.00210235,-1.34897,0.732674,0.0805269,140.611,0.046954,
2,1,0,1,0,38631.6,0.0513124,0.0509814,45.3257,20,0.00210174,10,0.00231077,-1.34366,0.764923,0.0771319,136.337,0.0509814,
2,1,0,1,0,38631.6,0.0553076,0.0549865,45.8765,20,0.00228421,10,0.00252259,-1.33841,0.779738,0.0756665,135.397,0.0549865,
2,1,0,1,0,38631.6,0.0593028,0.0588952,46.3861,20,0.00246878,10,0.00273192,-1.33361,0.813037,0.0725674,131.319,0.0588952,
2,1,0,1,0,38631.6,0.0633479,0.0629661,46.9427,20,0.00265544,10,0.0029558,-1.32843,0.844506,0.0698633,127.845,0.0629661,
2,1,0,1,0,38631.7,0.0673431,0.0669829,47.4271,20,0.00284422,10,0.0031768,-1.32397,0.868272,0.067951,125.672,0.0669829,
2,1,0,1,0,38631.7,0.0713383,0.0709414,47.9162,20,0.00303494,10,0.00339925,-1.31952,0.904319,0.0652424,121.991,0.0709414,
2,1,0,1,0,38631.7,0.0753334,0.0749752,48.4069,20,0.00322764,10,0.00362931,-1.31509,0.914731,0.0644998,121.812,0.0749752,
2,1,0,1,0,38631.7,0.0793286,0.0789443,48.8919,20,0.00342229,10,0.00385974,-1.31076,0.916093,0.064404,122.889,0.0789443,
2,1,0,1,0,38631.7,0.0833238,0.0829219,49.3686,20,0.00361887,10,0.00409374,-1.30655,0.915786,0.0644255,124.18,0.0829219,
2,1,0,1,0,38631.7,0.0873189,0.086927,49.8807,20,0.00381742,10,0.00433598,-1.30207,0.919132,0.064191,124.965,0.086927,
2,1,0,1,0,38631.7,0.0913141,0.0908993,50.3843,20,0.00401797,10,0.0045799,-1.2977,0.913946,0.0645552,126.916,0.0908993,
2,1,0,1,0,38631.7,0.0953093,0.0949098,50.887,20,0.00422059,10,0.00482968,-1.29339,0.925639,0.0637397,126.584,0.0949098,
2,1,0,1,0,38631.7,0.0993045,0.0989011,51.3966,20,0.0044252,10,0.00508319,-1.28907,0.938695,0.0628532,126.047,0.0989011,
2,1,0,1,0,38631.7,0.103319,0.102926,51.906,20,0.00463184,10,0.0053425,-1.28478,0.90688,0.0650582,131.86,0.102926,
2,1,0,1,0,38631.7,0.107345,0.106895,52.4005,20,0.00484055,10,0.00560132,-1.28066,0.89284,0.0660813,135.326,0.1068945,
2,1,0,1,0,38631.7,0.11134,0.110891,52.9943,20,0.00505138,10,0.0058766,-1.27577,0.869651,0.0678433,140.392,0.110891,
2,1,0,1,0,38631.7,0.115335,0.114925,53.5651,20,0.00526455,10,0.00615597,-1.27112,0.860217,0.0685873,143.328,0.114925,
2,1,0,1,0,38631.7,0.11933,0.118965,54.1577,20,0.00548006,10,0.00644287,-1.26634,0.876372,0.067323,142.224,0.1189651,
2,1,0,1,0,38631.7,0.123325,0.122987,54.707,20,0.00569783,10,0.00672826,-1.26196,0.871501,0.0676993,144.563,0.122987,
2,1,0,1,0,38631.7,0.127321,0.126987,55.2835,20,0.00591787,10,0.00702029,-1.2574,0.869718,0.0678381,146.454,0.126987,
2,1,0,1,0,38631.7,0.131316,0.130953,55.8821,20,0.00614025,10,0.00731794,-1.25273,0.850666,0.0693574,151.321,0.130953,
2,1,0,1,0,38631.7,0.135311,0.134919,56.4942,20,0.00636505,10,0.00762213,-1.248,0.840077,0.0702316,154.893,0.134919,
2,1,0,1,0,38631.7,0.139306,0.138924,57.1186,20,0.00659235,10,0.00793515,-1.24322,0.817875,0.0721382,160.939,0.138924,
2,1,0,1,0,38631.7,0.143301,0.142957,57.7571,20,0.00682214,10,0.00825678,-1.23839,0.805424,0.0732533,165.277,0.142957,
2,1,0,1,0,38631.7,0.147346,0.147018,58.4677,20,0.00705469,10,0.00859581,-1.23308,0.790603,0.0746266,170.301,0.147018,
2,1,0,1,0,38631.7,0.151342,0.150994,59.1509,20,0.00728997,10,0.00893141,-1.22804,0.774449,0.0761832,175.87,0.150994,
2,1,0,1,0,38631.7,0.155337,0.154963,59.85,20,0.00752803,10,0.00927452,-1.22294,0.783595,0.075294,175.904,0.154963,
2,1,0,1,0,38631.7,0.159332,0.158947,60.5693,20,0.00776895,10,0.00962728,-1.21775,0.786155,0.0750488,177.368,0.158947,
2,1,0,1,0,38631.7,0.163327,0.162996,61.2783,20,0.00801271,10,0.00998814,-1.21269,0.791159,0.0745741,178.306,0.162996,
2,1,0,1,0,38631.8,0.167322,0.166978,61.9861,20,0.00825931,10,0.0103503,-1.20771,0.807304,0.0730827,176.756,0.166978,
2,1,0,1,0,38631.8,0.171317,0.170961,62.7026,20,0.00850876,10,0.0107197,-1.20271,0.825071,0.071509,174.871,0.170961,
2,1,0,1,0,38631.8,0.175313,0.174941,63.3963,20,0.00876102,10,0.0110906,-1.19794,0.855748,0.0689455,170.416,0.174941,
2,1,0,1,0,38631.8,0.179308,0.178923,64.0633,20,0.00901603,10,0.0114624,-1.19339,0.889051,0.0663629,165.813,0.178923,
2,1,0,1,0,38631.8,0.183303,0.182919,64.7027,20,0.00927364,10,0.0118354,-1.18908,0.947256,0.0622852,157.15,0.182919,
2,1,0,1,0,38631.8,0.187348,0.186987,65.3599,20,0.00953377,10,0.0122215,-1.18469,1.0156,0.058094,147.921,0.186987,
2,1,0,1,0,38631.8,0.191343,0.190993,65.919,20,0.00979639,10,0.0125901,-1.18099,1.10942,0.0531809,136.554,0.190993,
2,1,0,1,0,38631.8,0.195338,0.19497,66.437,20,0.0100612,10,0.0129532,-1.17759,1.27072,0.0464303,120.166,0.19497,
2,1,0,1,0,38631.8,0.199334,0.198991,66.8973,20,0.0103279,10,0.013312,-1.17459,1.46497,0.0402737,104.922,0.198991,
2,1,0,1,0,38631.8,0.203329,0.202967,67.2802,20,0.0105963,10,0.0136557,-1.17211,1.79419,0.0328839,86.1455,0.202967,
2,1,0,1,0,38631.8,0.207324,0.206988,67.5972,20,0.0108661,10,0.0139918,-1.17007,2.34706,0.0251378,66.1468,0.206988,
2,1,0,1,0,38631.8,0.211319,0.211002,67.8181,20,0.011137,10,0.0143098,-1.16865,3.52098,0.0167567,44.2293,0.211002,
2,1,0,1,0,38631.8,0.215314,0.214969,67.9542,20,0.0114086,10,0.0146081,-1.16778,7.76063,0.00760248,20.1037,0.214969,
2,1,0,1,0,38631.8,0.219309,0.218942,67.9868,20,0.0116805,10,0.0148852,-1.16758,-54.0021,-0.00109255,-2.8907,0.218942,
2,1,0,1,0,38631.8,0.223305,0.222952,67.9181,20,0.0119523,10,0.0151425,-1.16801,-5.94691,-0.00992112,-26.2297,0.222952,
2,1,0,1,0,38631.8,0.227314,0.227012,67.7718,20,0.0122237,10,0.015385,-1.16895,-3.05556,-0.0193091,-50.9243,0.227012,
2,1,0,1,0,38631.8,0.231345,0.231007,67.5336,20,0.0124943,10,0.0156007,-1.17048,-2.06783,-0.0285324,-74.9556,0.231007,
2,1,0,1,0,38631.8,0.23534,0.234996,67.1692,20,0.0127637,10,0.0157845,-1.17283,-1.51349,-0.0389827,-101.861,0.234996,
2,1,0,1,0,38631.8,0.239335,0.239036,66.7125,20,0.0130315,10,0.0159467,-1.17579,-1.20824,-0.0488316,-126.764,0.239036,
2,1,0,1,0,38631.8,0.24333,0.243022,66.1411,20,0.0132971,10,0.0160737,-1.17953,-1.01165,-0.0583204,-150.134,0.243022,
2,1,0,1,0,38631.8,0.247326,0.246966,65.5105,20,0.0135604,10,0.0161789,-1.18369,-0.870623,-0.0677676,-172.764,0.246966,
2,1,0,1,0,38631.8,0.251321,0.250983,64.7691,20,0.0138209,10,0.0162559,-1.18863,-0.768811,-0.0767419,-193.437,0.250983,
2,1,0,1,0,38631.8,0.255316,0.255006,63.9535,20,0.0140783,10,0.0163085,-1.19414,-0.686335,-0.0859639,-213.985,0.255006,
2,1,0,1,0,38631.8,0.259311,0.258965,63.057,20,0.0143322,10,0.0163296,-1.20027,-0.625152,-0.0943771,-231.656,0.258965,
2,1,0,1,0,38631.8,0.263306,0.262971,62.0855,20,0.0145824,10,0.0163267,-1.20701,-0.584271,-0.100981,-244.242,0.262971,
2,1,0,1,0,38631.9,0.267302,0.267007,61.0568,20,0.0148287,10,0.0163026,-1.21427,-0.543226,-0.10861,-258.377,0.267007,
2,1,0,1,0,38631.9,0.271347,0.271036,60.0383,20,0.0150708,10,0.0162725,-1.22157,-0.513295,-0.114944,-268.706,0.271036,
2,1,0,1,0,38631.9,0.275342,0.275044,58.9026,20,0.0153085,10,0.0162008,-1.22987,-0.485476,-0.12153,-278.878,0.2750442,
2,1,0,1,0,38631.9,0.279337,0.279044,57.7667,20,0.0155418,10,0.0161195,-1.23832,-0.462203,-0.12765,-287.489,0.279044,
2,1,0,1,0,38631.9,0.283332,0.283,56.5967,20,0.0157704,10,0.0160169,-1.24721,-0.450192,-0.131055,-289.32,0.283,
2,1,0,1,0,38631.9,0.287327,0.287033,55.4393,20,0.0159944,10,0.0159129,-1.25618,-0.441591,-0.133608,-289.011,0.287033,
2,1,0,1,0,38631.9,0.291322,0.290976,54.2933,20,0.0162137,10,0.015798,-1.26525,-0.439135,-0.134355,-284.862,0.290976,
2,1,0,1,0,38631.9,0.295318,0.295016,53.1507,20,0.0164285,10,0.0156803,-1.27449,-0.436048,-0.135306,-283.141,0.295016,
2,1,0,1,0,38631.9,0.299013,0.298719,52.1191,20,0.0166232,10,0.015569,-1.283,-0.164673,-0.358285,-720.25,0.298719,
2,1,0,0,0,38631.9,0.300012,0.299746,51.8396,20,0.0166752,10,0.0155387,-1.28534,0.00482778,12.221,22491.2,0.299746,
2,1,0,1,0,38631.9,0.298714,0.29857,48.8233,20,0.0167394,10,0.0145772,-1.31137,0.0507872,1.16171,1975.28,0.29857,
2,1,0,1,0,38631.9,0.294718,0.294504,41.6312,20,0.0169189,10,0.0122605,-1.38058,0.0598989,0.984993,1562.14,0.294504,
2,1,0,1,0,38631.9,0.290723,0.290562,36.0075,20,0.0170734,10,0.0104624,-1.44361,0.0619787,0.95194,1366.02,0.290562,
2,1,0,1,0,38631.9,0.286728,0.28652,31.1779,20,0.0172071,10,0.0089331,-1.50615,0.062189,0.94872,1163.24,0.28652,
2,1,0,1,0,38631.9,0.282733,0.282509,26.8838,20,0.0173227,10,0.00759494,-1.57051,0.0606209,0.973262,1023.11,0.282509,
2,1,0,1,0,38631.9,0.278738,0.278512,23.0286,20,0.017422,10,0.00641374,-1.63773,0.0571404,1.03254,925.655,0.278512,
2,1,0,1,0,38631.9,0.274742,0.27446,19.533,20,0.0175067,10,0.00536104,-1.70923,0.0530951,1.11121,839.92,0.27446,
2,1,0,1,0,38631.9,0.270747,0.270499,16.3484,20,0.0175781,10,0.00442223,-1.78653,0.0484264,1.21834,765.577,0.270499,
2,1,0,1,0,38631.9,0.266702,0.266459,13.4029,20,0.0176372,10,0.00357131,-1.8728,0.0428084,1.37824,704.606,0.266459,
2,1,0,1,0,38631.9,0.262707,0.262441,10.7254,20,0.0176851,10,0.00281479,-1.96959,0.0367336,1.60616,645.971,0.262441,
2,1,0,1,0,38631.9,0.258712,0.258465,8.26273,20,0.0177228,10,0.00213562,-2.08288,0.0295298,1.99798,597.586,0.258465,
2,1,0,1,0,38631.9,0.254717,0.254439,5.97414,20,0.017751,10,0.00152006,-2.22372,0.0212431,2.77737,553.237,0.254439,
2,1,0,1,0,38631.9,0.250722,0.250485,3.85704,20,0.0177704,10,0.000966132,-2.41375,0.00785415,7.51195,511.6,0.250485,
2,1,0,1,0,38631.9,0.246726,0.246498,1.90502,20,0.0177817,10,0.000469585,-2.7201,0.0283639,2.08011,474.194,0.246498,
2,1,0,1,0,38631.9,0.242731,0.242462,0.0757974,20,0.0177854,10,1.8378e-05,-4.12035,0.201674,0.292552,441.677,0.242462,
2,0,0,1,0,38631.9,0.238736,0.238411,-1.62626,20,0.0177821,10,-0.000387719,-2.78881,-0.0408354,-1.44482,412.308,0.2384114,
2,0,0,1,0,38631.9,0.234741,0.234478,-3.21281,20,0.0177723,10,-0.000753333,-2.49312,-0.00841896,-7.00799,386.73,0.234478,
2,0,0,1,0,38632,0.230746,0.230471,-4.70303,20,0.0177563,10,-0.00108391,-2.32762,-0.0242941,-2.42857,361.933,0.230471,
2,0,0,1,0,38632,0.226701,0.226396,-6.13749,20,0.0177345,10,-0.0013895,-2.21201,-0.0373584,-1.5793,338.626,0.226396,
2,0,0,1,0,38632,0.222705,0.222389,-7.42542,20,0.0177072,10,-0.00165133,-2.12928,-0.0500453,-1.17893,319.711,0.222389,
2,0,0,1,0,38632,0.21871,0.218388,-8.66151,20,0.0176749,10,-0.00189157,-2.06241,-0.0636613,-0.92678,300.259,0.218388,
2,0,0,1,0,38632,0.214715,0.214479,-9.81584,20,0.0176378,10,-0.00210529,-2.00807,-0.0772286,-0.763965,283.609,0.214479,
2,0,0,1,0,38632,0.21072,0.210459,-10.9227,20,0.0175962,10,-0.00229878,-1.96167,-0.0915327,-0.644578,268.112,0.2104591,
2,0,0,1,0,38632,0.206725,0.206408,-11.9576,20,0.0175503,10,-0.00246814,-1.92236,-0.10668,-0.553054,253.278,0.206408,
2,0,0,1,0,38632,0.202729,0.20243,-12.9401,20,0.0175004,10,-0.00261945,-1.88806,-0.121682,-0.484871,241.451,0.2024297,
2,0,0,1,0,38632,0.198734,0.1984,-13.8883,20,0.0174466,10,-0.00275544,-1.85735,-0.136231,-0.433087,231.989,0.1984,
2,0,0,1,0,38632,0.194739,0.194434,-14.7919,20,0.0173892,10,-0.00287605,-1.82998,-0.151985,-0.388195,221.896,0.194434,
2,0,0,1,0,38632,0.190744,0.19045,-15.6597,20,0.0173282,10,-0.00298239,-1.80522,-0.166829,-0.353655,214.48,0.1904503,
2,0,0,1,0,38632,0.186735,0.186401,-16.4969,20,0.0172638,10,-0.00307502,-1.7826,-0.18329,-0.321894,205.91,0.186401,
2,0,0,1,0,38632,0.182704,0.182413,-17.3171,20,0.017196,10,-0.00315887,-1.76152,-0.198745,-0.296862,199.382,0.182413,
2,0,0,1,0,38632,0.178709,0.178364,-18.101,20,0.0171251,10,-0.00322856,-1.7423,-0.213012,-0.27698,194.662,0.178364,
2,0,0,1,0,38632,0.174713,0.174407,-18.8583,20,0.0170511,10,-0.00328903,-1.7245,-0.227584,-0.259245,190.18,0.174407,
2,0,0,1,0,38632,0.170718,0.170413,-19.6091,20,0.0169741,10,-0.00334164,-1.70754,-0.240419,-0.245405,187.315,0.170413,
2,0,0,1,0,38632,0.166723,0.166418,-20.3591,20,0.0168941,10,-0.00338812,-1.69124,-0.250477,-0.235551,186.735,0.166418,
2,0,0,1,0,38632,0.162728,0.162399,-21.0913,20,0.0168111,10,-0.00342522,-1.6759,-0.257563,-0.22907,188.435,0.162399,
2,0,0,1,0,38632,0.158733,0.158436,-21.8408,20,0.0167252,10,-0.00346036,-1.66073,-0.264246,-0.223277,190.372,0.158436,
2,0,0,1,0,38632,0.154737,0.154442,-22.6185,20,0.0166362,10,-0.00349325,-1.64554,-0.265939,-0.221856,195.87,0.154442,
2,0,0,1,0,38632,0.150742,0.150413,-23.4061,20,0.0165441,10,-0.00352057,-1.63067,-0.262474,-0.224784,205.717,0.150413,
2,0,0,1,0,38632,0.146747,0.1464,-24.2251,20,0.0164488,10,-0.00354656,-1.61573,-0.262181,-0.225035,213.313,0.1464,
2,0,0,1,0,38632,0.142702,0.142417,-25.1361,20,0.01635,10,-0.00357981,-1.5997,-0.25502,-0.231355,227.316,0.142417,
2,0,0,1,0,38632,0.138707,0.138407,-26.0391,20,0.0162475,10,-0.00360398,-1.58437,-0.248634,-0.237297,241.753,0.138407,
2,0,0,1,0,38632,0.134712,0.134457,-27.0332,20,0.0161413,10,-0.00363479,-1.5681,-0.245438,-0.240387,254.422,0.134457,
2,0,0,1,0,38632.1,0.130717,0.13046,-28.0787,20,0.016031,10,-0.00366314,-1.55162,-0.236443,-0.249532,274.387,0.13046,
2,0,0,1,0,38632.1,0.126721,0.126427,-29.2043,20,0.0159163,10,-0.00369222,-1.53455,-0.23062,-0.255832,292.657,0.126427,
2,0,0,1,0,38632.1,0.122726,0.122419,-30.4259,20,0.015797,10,-0.00372471,-1.51676,-0.224355,-0.262976,313.202,0.122419,
2,0,0,1,0,38632.1,0.118731,0.118459,-31.7149,20,0.0156726,10,-0.00375692,-1.49874,-0.220469,-0.267612,331.958,0.118459,
2,0,0,1,0,38632.1,0.114736,0.11445,-33.0931,20,0.0155429,10,-0.0037875,-1.48026,-0.219284,-0.269057,347.75,0.1144499,
2,0,0,1,0,38632.1,0.110741,0.110437,-34.5123,20,0.0154076,10,-0.00381144,-1.46203,-0.220823,-0.267183,360.02,0.110437,
2,0,0,1,0,38632.1,0.106745,0.106495,-35.9635,20,0.0152665,10,-0.00382993,-1.44414,-0.225115,-0.262088,367.695,0.106495,
2,0,0,1,0,38632.1,0.102703,0.102391,-37.4998,20,0.0151194,10,-0.00383964,-1.42597,-0.232149,-0.254147,371.007,0.102391,
2,0,0,1,0,38632.1,0.0987052,0.0984855,-38.9631,20,0.0149664,10,-0.0038373,-1.40935,-0.241087,-0.244724,371.215,0.0984855,
2,0,0,1,0,38632.1,0.09471,0.0944178,-40.4556,20,0.0148074,10,-0.00381973,-1.39302,-0.253987,-0.232295,365.777,0.0944178,
2,0,0,1,0,38632.1,0.0907148,0.0904402,-41.9232,20,0.0146425,10,-0.00379154,-1.37755,-0.267911,-0.220223,359.067,0.0904402,
2,0,0,1,0,38632.1,0.0867197,0.0864382,-43.3349,20,0.0144718,10,-0.00374579,-1.36316,-0.283239,-0.208304,351.194,0.0864382,
2,0,0,1,0,38632.1,0.0827245,0.0824362,-44.7259,20,0.0142956,10,-0.00368703,-1.34944,-0.301285,-0.195828,340.769,0.0824362,
2,0,0,1,0,38632.1,0.0787293,0.0784427,-46.066,20,0.0141139,10,-0.00361354,-1.33662,-0.322743,-0.182808,327.494,0.07844273,
2,0,0,1,0,38632.1,0.0747341,0.0744736,-47.3641,20,0.0139268,10,-0.00352738,-1.32455,-0.349326,-0.168897,310.806,0.0744736,
2,0,0,1,0,38632.1,0.070739,0.0704494,-48.5712,20,0.0137348,10,-0.00342181,-1.31362,-0.373217,-0.158085,298.623,0.0704494,
2,0,0,1,0,38632.1,0.0667438,0.0665439,-49.6653,20,0.0135383,10,-0.00330492,-1.30395,-0.403579,-0.146192,282.957,0.0665439,
2,0,0,1,0,38632.1,0.0627403,0.0625334,-50.8168,20,0.0133372,10,-0.00317775,-1.29399,-0.434967,-0.135642,268.313,0.0625334,
2,0,0,1,0,38632.1,0.0587035,0.0584647,-51.894,20,0.0131316,10,-0.00303396,-1.28488,-0.467088,-0.126315,254.777,0.0584647,
2,0,0,1,0,38632.1,0.0547083,0.0544648,-52.86,20,0.012922,10,-0.00287901,-1.27687,-0.523217,-0.112764,231.742,0.0544648,
2,0,0,1,0,38632.1,0.0507132,0.0504968,-53.7537,20,0.0127086,10,-0.00271439,-1.26959,-0.581618,-0.101441,212.073,0.0504968,
2,0,0,1,0,38632.1,0.046718,0.046446,-54.545,20,0.012492,10,-0.0025334,-1.26325,-0.639956,-0.0921939,195.77,0.046446,
2,0,0,1,0,38632.1,0.0427228,0.0425077,-55.278,20,0.0122722,10,-0.00234974,-1.25745,-0.707231,-0.0834239,179.642,0.0425077,
2,0,0,1,0,38632.1,0.0387276,0.0384749,-55.9904,20,0.0120496,10,-0.00215423,-1.25189,-0.766457,-0.0769776,167.852,0.0384749,
2,0,0,1,0,38632.1,0.0347325,0.0345196,-56.6239,20,0.0118243,10,-0.00195464,-1.247,-0.835672,-0.0706019,155.725,0.0345196,
2,0,0,1,0,38632.2,0.0307373,0.0304996,-57.2216,20,0.0115965,10,-0.00174524,-1.24244,-0.928993,-0.0635096,141.565,0.0304996,
2,0,0,1,0,38632.2,0.0267421,0.0264796,-57.774,20,0.0113665,10,-0.00152983,-1.23827,-1.00051,-0.0589698,132.757,0.02647963,
2,0,0,1,0,38632.2,0.022747,0.0224734,-58.2556,20,0.0111343,10,-0.0013092,-1.23466,-1.12076,-0.0526431,119.525,0.0224734,
2,0,0,1,0,38632.2,0.0187018,0.0184301,-58.7599,20,0.0109002,10,-0.00108295,-1.23092,-1.2681,-0.0465262,106.445,0.0184301,
2,0,0,1,0,38632.2,0.0147067,0.0144186,-59.1437,20,0.0106644,10,-0.000852767,-1.22809,-1.45478,-0.0405559,93.391,0.0144186,
2,0,0,1,0,38632.2,0.0107115,0.0104558,-59.4796,20,0.0104271,10,-0.000621909,-1.22563,-1.73159,-0.0340727,78.9714,0.0104558,
2,0,0,1,0,38632.2,0.00671632,0.00636266,-59.7602,20,0.0101886,10,-0.000380234,-1.22359,-1.96758,-0.0299861,69.8685,0.00636266,
2,0,0,1,0,38632.2,0.00272115,0.00246355,-60.0208,20,0.009949,10,-0.000147864,-1.2217,-2.32321,-0.0253959,59.4229,0.00246355,
2,0,0,1,0,38632.2,-0.00127403,-0.00164659,-60.2661,20,0.00970835,10,9.92336e-05,-1.21993,-2.79231,-0.0211294,49.6055,-0.00164659,
2,0,0,1,0,38632.2,-0.0052692,-0.00558812,-60.433,20,0.00946693,10,0.000337707,-1.21873,-3.65709,-0.016133,37.9823,-0.00558812,
2,0,0,1,0,38632.2,-0.00926438,-0.00962403,-60.5533,20,0.00922492,10,0.000582767,-1.21786,-5.64175,-0.0104578,24.6769,-0.00962403,
2,0,0,1,0,38632.2,-0.0132596,-0.0136112,-60.6314,20,0.00898254,10,0.000825263,-1.2173,-7.8399,-0.00752561,17.7912,-0.0136112,
2,0,0,1,0,38632.2,-0.0172547,-0.0176068,-60.66,20,0.00873996,10,0.00106803,-1.2171,-16.9889,-0.00347286,8.21599,-0.0176068,
2,0,0,1,0,38632.2,-0.0212915,-0.0216596,-60.719,20,0.00849725,10,0.00131515,-1.21668,71.2699,0.000827839,-1.95837,-0.02165965,
2,0,0,1,0,38632.2,-0.025295,-0.0256404,-60.6849,20,0.00825443,10,0.00155599,-1.21692,11.8037,0.00499845,-11.8147,-0.0256404,
2,0,0,1,0,38632.2,-0.0292902,-0.0296339,-60.6,20,0.00801187,10,0.00179581,-1.21753,5.69069,0.0103678,-24.489,-0.0296339,
2,0,0,1,0,38632.2,-0.0332854,-0.0336221,-60.4708,20,0.00776973,10,0.00203315,-1.21845,4.13229,0.0142778,-33.6644,-0.0336221,
2,0,0,1,0,38632.2,-0.0372805,-0.0376453,-60.3275,20,0.00752816,10,0.00227105,-1.21948,3.43023,0.0172,-40.4605,-0.0376453,
2,0,0,1,0,38632.2,-0.0412757,-0.0416398,-60.1462,20,0.00728724,10,0.00250448,-1.22079,2.99332,0.0197106,-46.2318,-0.0416398,
2,0,0,1,0,38632.2,-0.0452709,-0.0456567,-59.9517,20,0.00704705,10,0.00273719,-1.2222,2.60357,0.0226612,-52.9784,-0.0456567,
2,0,0,1,0,38632.2,-0.0492661,-0.0496067,-59.7318,20,0.00680772,10,0.00296309,-1.22379,2.41236,0.0244574,-56.9732,-0.0496067,
2,0,0,1,0,38632.2,-0.0532612,-0.053614,-59.4815,20,0.0065693,10,0.00318904,-1.22562,2.25415,0.0261739,-60.7441,-0.053614,
2,0,0,1,0,38632.2,-0.0572564,-0.0576424,-59.2345,20,0.00633189,10,0.00341442,-1.22743,2.29511,0.0257069,-59.446,-0.0576424,
2,0,0,1,0,38632.2,-0.0612544,-0.0615925,-58.9837,20,0.00609549,10,0.00363295,-1.22927,2.25435,0.0261716,-60.2586,-0.0615925,
2,0,0,1,0,38632.2,-0.0652967,-0.0656729,-58.7767,20,0.0058599,10,0.00386004,-1.23079,2.1615,0.0272959,-62.5673,-0.0656729,
2,0,0,1,0,38632.3,-0.0692919,-0.0696717,-58.5139,20,0.00562536,10,0.00407676,-1.23274,2.18427,0.0270113,-61.6554,-0.0696717,
2,0,0,1,0,38632.3,-0.0732871,-0.0736069,-58.2357,20,0.00539188,10,0.00428655,-1.23481,2.09867,0.028113,-63.9258,-0.0736069,
2,0,0,1,0,38632.3,-0.0772822,-0.0776491,-57.9937,20,0.00515945,10,0.00450316,-1.23662,2.18137,0.0270472,-61.2463,-0.0776491,
2,0,0,1,0,38632.3,-0.0812774,-0.0816469,-57.7555,20,0.00492799,10,0.00471556,-1.23841,2.37749,0.0248161,-55.965,-0.0816469,
2,0,0,1,0,38632.3,-0.0852726,-0.0856828,-57.5332,20,0.00469742,10,0.00492961,-1.24008,2.4228,0.024352,-54.7001,-0.08568278,
2,0,0,1,0,38632.3,-0.0892677,-0.089654,-57.3376,20,0.00446771,10,0.00514055,-1.24156,2.58356,0.0228367,-51.1098,-0.089654,
2,0,0,1,0,38632.3,-0.0932629,-0.0936178,-57.1202,20,0.00423883,10,0.00534747,-1.24321,2.83255,0.0208293,-46.4674,-0.0936178,
2,0,0,1,0,38632.3,-0.0972581,-0.0976145,-56.9394,20,0.00401072,10,0.00555811,-1.24459,3.34492,0.0176387,-39.2539,-0.0976145,
2,0,0,1,0,38632.3,-0.101253,-0.101612,-56.793,20,0.00378328,10,0.00577087,-1.2457,3.95426,0.0149206,-33.1065,-0.101612,
2,0,0,1,0,38632.3,-0.105298,-0.105636,-56.7102,20,0.00355628,10,0.00599067,-1.24634,4.51121,0.0130785,-28.9444,-0.105636,
2,0,0,1,0,38632.3,-0.109294,-0.109668,-56.5888,20,0.0033297,10,0.00620599,-1.24727,5.13531,0.0114891,-25.3736,-0.109668,
2,0,0,1,0,38632.3,-0.113289,-0.113604,-56.4766,20,0.0031036,10,0.00641599,-1.24813,5.61958,0.010499,-23.1608,-0.113604,
2,0,0,1,0,38632.3,-0.117284,-0.117665,-56.3857,20,0.00287789,10,0.00663461,-1.24883,7.35712,0.00801944,-17.6667,-0.117665,
2,0,0,1,0,38632.3,-0.121279,-0.121615,-56.3402,20,0.00265244,10,0.00685179,-1.24918,10.4563,0.00564253,-12.4149,-0.121615,
2,0,0,1,0,38632.3,-0.125274,-0.125619,-56.3071,20,0.00242718,10,0.00707322,-1.24944,18.1841,0.0032446,-7.13272,-0.125619,
2,0,0,1,0,38632.3,-0.129269,-0.129597,-56.2781,20,0.00220201,10,0.00729349,-1.24966,39.4944,0.00149388,-3.28319,-0.129597,
2,0,0,1,0,38632.3,-0.133265,-0.133616,-56.272,20,0.0019769,10,0.00751885,-1.24971,-104.907,-0.000562404,1.23609,-0.133616,
2,0,0,1,0,38632.3,-0.13726,-0.137609,-56.2876,20,0.00175179,10,0.00774567,-1.24959,-14.0798,-0.00419039,9.21568,-0.137609,
2,0,0,1,0,38632.3,-0.141255,-0.141622,-56.3268,20,0.00152656,10,0.00797714,-1.24928,-9.55447,-0.00617512,13.5875,-0.141622,
2,0,0,1,0,38632.3,-0.145286,-0.14564,-56.4259,20,0.00130109,10,0.00821789,-1.24852,-7.84078,-0.00752476,16.5688,-0.14564,
2,0,0,1,0,38632.3,-0.149295,-0.149643,-56.4897,20,0.00107523,10,0.00845331,-1.24803,-6.96165,-0.008475,18.6798,-0.149643,
2,0,0,1,0,38632.3,-0.15329,-0.153638,-56.5532,20,0.000849151,10,0.00868872,-1.24754,-7.04583,-0.00837374,18.4884,-0.153638,
2,0,0,1,0,38632.3,-0.157286,-0.157665,-56.6265,20,0.000622802,10,0.00892804,-1.24698,-5.92022,-0.00996584,22.0392,-0.157665,
2,0,0,1,0,38632.3,-0.161281,-0.16165,-56.7219,20,0.000396098,10,0.00916912,-1.24625,-5.39042,-0.0109453,24.2401,-0.16165,
2,0,0,1,0,38632.3,-0.165276,-0.165593,-56.8412,20,0.000168964,10,0.00941251,-1.24534,-5.00549,-0.0117871,26.1446,-0.165593,
2,0,0,1,0,38632.4,-0.169271,-0.169629,-56.9409,20,-5.86027e-05,10,0.00965881,-1.24458,-4.76979,-0.0123695,27.4879,-0.169629,
2,0,0,1,0,38632.4,-0.173266,-0.173596,-57.043,20,-0.000286591,10,0.00990243,-1.2438,-4.84591,-0.0121752,27.1119,-0.173596,
2,0,0,1,0,38632.4,-0.177261,-0.177603,-57.1604,20,-0.000514998,10,0.0101519,-1.2429,-4.46028,-0.0132279,29.5167,-0.1776031,
2,0,0,1,0,38632.4,-0.181257,-0.181638,-57.2763,20,-0.00074388,10,0.0104035,-1.24203,-3.96298,-0.0148878,33.2979,-0.181638,
2,0,0,1,0,38632.4,-0.185252,-0.18559,-57.412,20,-0.000973277,10,0.0106551,-1.241,-4.11717,-0.0143302,32.1114,-0.1855901,
2,0,0,1,0,38632.4,-0.189297,-0.1896,-57.5759,20,-0.00120333,10,0.0109164,-1.23976,-4.12116,-0.0143163,32.1447,-0.1895995,
2,0,0,1,0,38632.4,-0.193292,-0.193626,-57.6749,20,-0.00143385,10,0.0111674,-1.23901,-4.33666,-0.0136049,30.6018,-0.193626,
2,0,0,1,0,38632.4,-0.197287,-0.197603,-57.7895,20,-0.00166479,10,0.0114194,-1.23815,26.0473,0.00226511,-5.08728,-0.197603,
2,0,0,0,0,38632.4,-0.199984,-0.200189,-57.8587,20,-0.00182092,10,0.0115827,-1.23763,0.0630495,0.935772,-1975.85,-0.200189,
2,0,0,0,1,38632.4,-0.199984,-0.200456,-57.5207,20,-0.00185548,10,0.0115304,-1.24018,-0.0400461,-1.4733,2930.08,-0.200456,
2,0,0,1,1,38632.4,-0.196688,-0.197165,-50.6811,20,-0.00202037,10,0.00999257,-1.29515,-0.0679939,-0.867725,1634.42,-0.197165,
2,0,0,1,1,38632.4,-0.192693,-0.193133,-44.69,20,-0.00221013,10,0.00863111,-1.34979,-0.0734139,-0.803662,1431.22,-0.193133,
2,0,0,1,1,38632.4,-0.188698,-0.189135,-39.7924,20,-0.00237841,10,0.00752615,-1.4002,-0.0791147,-0.745753,1178.11,-0.189135,
2,0,0,1,1,38632.4,-0.184653,-0.185075,-35.5068,20,-0.00252844,10,0.0065714,-1.44969,-0.081274,-0.725939,1017.01,-0.185075,
2,0,0,1,1,38632.4,-0.180657,-0.181094,-31.7471,20,-0.00266246,10,0.00574921,-1.4983,-0.0809463,-0.728879,908.697,-0.181094,
2,0,0,1,1,38632.4,-0.176662,-0.177057,-28.3409,20,-0.00278223,10,0.00501796,-1.54759,-0.0789275,-0.747521,827.769,-0.177057,
2,0,0,1,1,38632.4,-0.172667,-0.17308,-25.2037,20,-0.00288893,10,0.00436227,-1.59854,-0.0758548,-0.777801,763.122,-0.17308,
2,0,0,1,1,38632.4,-0.168672,-0.169081,-22.2673,20,-0.00298353,10,0.00376497,-1.65233,-0.0713025,-0.827461,715.36,-0.169081,
2,0,0,1,1,38632.4,-0.164677,-0.165071,-19.5198,20,-0.00306679,10,0.00322215,-1.70953,-0.0665206,-0.886943,670.322,-0.1650712,
2,0,0,1,1,38632.4,-0.160681,-0.161116,-16.9373,20,-0.0031394,10,0.00272887,-1.77116,-0.0609741,-0.967624,631.515,-0.1611159,
2,0,0,1,1,38632.4,-0.156686,-0.157122,-14.5067,20,-0.00320202,10,0.00227932,-1.83843,-0.054481,-1.08295,600.341,-0.1571224,
2,0,0,1,1,38632.4,-0.152691,-0.153116,-12.1856,20,-0.00325514,10,0.00186581,-1.91415,-0.0475129,-1.24177,570.743,-0.1531162,
2,0,0,1,1,38632.4,-0.148696,-0.149139,-9.95478,20,-0.00329917,10,0.00148464,-2.00197,-0.0398458,-1.48071,546.724,-0.149139,
2,0,0,1,1,38632.4,-0.14467,-0.145088,-7.78937,20,-0.00333447,10,0.00113014,-2.1085,-0.0317734,-1.8569,521.437,-0.145088,
2,0,0,1,1,38632.4,-0.140656,-0.141102,-5.74782,20,-0.00336129,10,0.000811027,-2.2405,-0.0223157,-2.64387,503.759,-0.141102,
2,0,0,1,1,38632.4,-0.136661,-0.137032,-3.79863,20,-0.00338017,10,0.000520533,-2.42037,-0.00836904,-7.04979,482.702,-0.137032,
2,0,0,1,1,38632.5,-0.132665,-0.133189,-1.92004,20,-0.0033914,10,0.000255728,-2.71669,-0.0298387,-1.9773,464.362,-0.133189,
2,0,0,1,1,38632.5,-0.12867,-0.129152,-0.0971326,20,-0.00339524,10,1.25449e-05,-4.01264,-0.31636,-0.186497,452.319,-0.129152,
2,1,0,1,1,38632.5,-0.124675,-0.125118,1.67432,20,-0.00339189,10,-0.000209488,-2.77616,0.0382964,1.54061,433.793,-0.125118,
2,1,0,1,1,38632.5,-0.12068,-0.121152,3.38401,20,-0.00338159,10,-0.000409981,-2.47057,0.00872039,6.76575,421.354,-0.121152,
2,1,0,1,1,38632.5,-0.116685,-0.117159,5.03374,20,-0.00336458,10,-0.000589747,-2.29811,0.0231157,2.55238,409.515,-0.117159,
2,1,0,1,1,38632.5,-0.112689,-0.113148,6.64608,20,-0.00334106,10,-0.000751993,-2.17743,0.0346949,1.70054,399.506,-0.113148,
2,1,0,1,1,38632.5,-0.108694,-0.109155,8.21156,20,-0.00331116,10,-0.000896332,-2.08557,0.0456927,1.29123,390.659,-0.109155,
2,1,0,1,1,38632.5,-0.104699,-0.105191,9.76062,20,-0.00327505,10,-0.00102673,-2.01052,0.0565563,1.04321,381.534,-0.105191,
2,1,0,1,1,38632.5,-0.100654,-0.101098,11.3081,20,-0.0032327,10,-0.00114322,-1.94661,0.0677664,0.870638,371.287,-0.101098,
2,1,0,1,1,38632.5,-0.0966588,-0.0971352,12.7557,20,-0.00318441,10,-0.00123902,-1.8943,0.0790782,0.746097,362.279,-0.0971352,
2,1,0,1,1,38632.5,-0.0926637,-0.0930685,14.1842,20,-0.00313038,10,-0.0013201,-1.84819,0.0909148,0.648959,352.988,-0.0930685,
2,1,0,1,1,38632.5,-0.0886685,-0.089144,15.5742,20,-0.00307073,10,-0.00138834,-1.8076,0.102816,0.573841,343.805,-0.089144,
2,1,0,1,1,38632.5,-0.0846733,-0.0851271,16.9456,20,-0.00300553,10,-0.00144253,-1.77094,0.11422,0.516548,337.244,-0.08512713,
2,1,0,1,1,38632.5,-0.0806781,-0.0810721,18.2782,20,-0.00293495,10,-0.00148185,-1.73807,0.126942,0.464779,327.847,-0.0810721,
2,1,0,1,1,38632.5,-0.076683,-0.0771242,19.5613,20,-0.00285914,10,-0.00150865,-1.7086,0.139723,0.422263,319.512,-0.0771242,
2,1,0,1,1,38632.5,-0.0726878,-0.073117,20.8286,20,-0.00277823,10,-0.00152292,-1.68134,0.152036,0.388065,313.041,-0.073117,
2,1,0,1,1,38632.5,-0.0686926,-0.0691351,22.0552,20,-0.00269233,10,-0.00152479,-1.65649,0.164455,0.35876,307.106,-0.0691351,
2,1,0,1,1,38632.5,-0.0646974,-0.0651544,23.2611,20,-0.00260157,10,-0.00151556,-1.63337,0.178966,0.329671,297.668,-0.0651544,
2,1,0,1,1,38632.5,-0.0606523,-0.0610707,24.4915,20,-0.00250597,10,-0.00149571,-1.61099,0.192297,0.306817,291.169,-0.06107074,
2,1,0,1,1,38632.5,-0.0566571,-0.0570613,25.6078,20,-0.00240565,10,-0.00146122,-1.59163,0.207425,0.28444,282.732,-0.0570613,
2,1,0,1,1,38632.5,-0.052662,-0.0530891,26.7273,20,-0.00230085,10,-0.00141893,-1.57304,0.223902,0.263508,273.775,-0.0530891,
2,1,0,1,1,38632.5,-0.0486668,-0.0490531,27.8135,20,-0.00219168,10,-0.00136434,-1.55574,0.237874,0.24803,268.139,-0.0490531,
2,1,0,1,1,38632.5,-0.0446716,-0.0450703,28.872,20,-0.00207819,10,-0.00130127,-1.53952,0.254339,0.231974,260.392,-0.0450703,
2,1,0,1,1,38632.5,-0.0406764,-0.0410365,29.9047,20,-0.00196053,10,-0.00122718,-1.52426,0.269341,0.219053,254.757,-0.0410365,
2,1,0,1,1,38632.5,-0.0366813,-0.0370716,30.8981,20,-0.00183882,10,-0.00114544,-1.51007,0.285908,0.20636,248.114,-0.0370716,
2,1,0,1,1,38632.6,-0.0326861,-0.0330961,31.8786,20,-0.00171315,10,-0.00105506,-1.4965,0.303839,0.194182,240.898,-0.0330961,
2,1,0,1,1,38632.6,-0.0286909,-0.0291249,32.8283,20,-0.00158365,10,-0.00095612,-1.48375,0.319551,0.184634,235.965,-0.0291249,
2,1,0,1,1,38632.6,-0.0246957,-0.0250805,33.7485,20,-0.00145039,10,-0.000846429,-1.47175,0.339508,0.173781,228.384,-0.0250805,
2,1,0,1,1,38632.6,-0.0206756,-0.0210945,34.6682,20,-0.00131349,10,-0.000731307,-1.46007,0.360988,0.16344,220.494,-0.0210945,
2,1,0,1,1,38632.6,-0.0166554,-0.0170798,35.5365,20,-0.00117296,10,-0.000606955,-1.44933,0.379936,0.155289,214.777,-0.0170798,
2,1,0,1,1,38632.6,-0.0126603,-0.0130714,36.368,20,-0.00102905,10,-0.000475381,-1.43928,0.405591,0.145467,206.028,-0.0130714,
2,1,0,1,1,38632.6,-0.0086651,-0.00907898,37.1852,20,-0.000881868,10,-0.000337604,-1.42963,0.430675,0.136994,198.215,-0.00907898,
2,1,0,1,1,38632.6,-0.00466992,-0.00509928,37.9636,20,-0.000731488,10,-0.000193587,-1.42063, , , ,-0.00509928,
2,1,0,1,1,38632.6,-0.000974387,-0.0013449,38.6554,20,-0.000589704,10,-5.19878e-05,-1.41279, , , ,-0.0013449,
2,1,0,0,1,38632.6,-0.000175352,-0.000649808,38.7978,20,-0.000558742,10,-2.52111e-05,-1.41119, , , ,-0.000649808,