File: Figure_codes/Fig_3-5/rawdata_trumpetplot_data/after 10th/20221101_1-115_003_TrumpetPlot_ParaChange_from10_every3_05_CV_C01_23.csv
mode,ox/red,error,control changes,counter inc.,time/s,control/V,Ewe/V,<I>/mA,cycle number,(Q-Qo)/C,I Range,P/W,log(|I|),Tafel slope mV/dec,alpha_eff,dI/d(E-IR),E-IR/V,
2,0,0,1,0,46433,2.44065e-05,-0.000287149,-0.746238,24,0.0000000E+000,10,2.14282e-07,-3.12712, , , ,-0.0002871489,
2,0,0,1,0,46433.1,0.00129787,0.000926247,0.0282508,24,-1.53657e-05,10,2.61672e-08,-4.54897, , , ,0.0009262471,
2,1,0,1,0,46433.2,0.00279606,0.00245435,0.370311,24,2.64436e-06,10,9.08874e-07,-3.43143,0.00795062,7.4208,176.566,0.00245435,
2,1,0,1,0,46433.2,0.00429425,0.00399593,0.512982,24,3.76635e-05,10,2.04984e-06,-3.2899,0.0124521,4.73814,80.227,0.00399593,
2,1,0,1,0,46433.3,0.00579244,0.00551216,0.593762,24,8.06793e-05,10,3.27291e-06,-3.22639,0.027133,2.17448,48.0387,0.00551216,
2,1,0,1,0,46433.4,0.00729063,0.0069863,0.653479,24,0.000128719,10,4.5654e-06,-3.18477,0.0435612,1.35442,33.7828,0.0069863,
2,1,0,1,0,46433.5,0.00878882,0.00847947,0.697292,24,0.000180571,10,5.91266e-06,-3.15659,0.0588412,1.0027,26.8081,0.00847947,
2,1,0,1,0,46433.5,0.010287,0.00997026,0.73031,24,0.000235353,10,7.28138e-06,-3.13649,0.0838397,0.703724,19.8796,0.00997026,
2,1,0,1,0,46433.6,0.0117852,0.0114922,0.759799,24,0.00029246,10,8.73175e-06,-3.1193,0.0931943,0.633086,18.7251,0.0114922,
2,1,0,1,0,46433.7,0.0132847,0.0129815,0.786025,24,0.00035154,10,1.02038e-05,-3.10456,0.100076,0.589553,18.0676,0.01298152,
2,1,0,1,0,46433.8,0.0147802,0.0144629,0.808671,24,0.00041247,10,1.16957e-05,-3.09223,0.114849,0.513719,16.1688,0.0144629,
2,1,0,1,0,46433.8,0.0162798,0.0159472,0.83435,24,0.000475426,10,1.33056e-05,-3.07865,0.137279,0.429783,13.9163,0.01594721,
2,1,0,1,0,46433.9,0.017778,0.0174547,0.852137,24,0.000539814,10,1.48738e-05,-3.06949,0.16099,0.366483,12.1672,0.01745468,
2,1,0,1,0,46434,0.0192761,0.0189743,0.872555,24,0.000605525,10,1.65561e-05,-3.05921,0.160412,0.367803,12.507,0.0189743,
2,1,0,1,0,46434.1,0.0207743,0.0204733,0.889597,24,0.0006727,10,1.82129e-05,-3.05081,0.153158,0.385223,13.3638,0.0204733,
2,1,0,1,0,46434.1,0.0222725,0.0219999,0.909284,24,0.00074139,10,2.00041e-05,-3.0413,0.166086,0.355237,12.6009,0.0219999,
2,1,0,1,0,46434.2,0.0237707,0.023519,0.929537,24,0.000811509,10,2.18618e-05,-3.03173,0.18242,0.323429,11.7042,0.023519,
2,1,0,1,0,46434.3,0.0252689,0.0249045,0.945155,24,0.000882861,10,2.35386e-05,-3.0245,0.186719,0.315984,11.6793,0.02490453,
2,1,0,1,0,46434.4,0.0267671,0.0264849,0.963185,24,0.000955573,10,2.55099e-05,-3.01629,0.17736,0.332656,12.5054,0.0264849,
2,1,0,1,0,46434.4,0.0282653,0.0279556,0.985711,24,0.00102974,10,2.75561e-05,-3.00625,0.180205,0.327405,12.5705,0.0279556,
2,1,0,1,0,46434.5,0.0297644,0.029492,1.00249,24,0.0011055,10,2.95655e-05,-2.99892,0.194209,0.303797,11.867,0.02949205,
2,1,0,1,0,46434.6,0.0312599,0.030926,1.01758,24,0.00118235,10,3.14697e-05,-2.99243,0.184728,0.319389,12.7249,0.030926,
2,1,0,1,0,46434.7,0.0327599,0.0324708,1.03716,24,0.00126063,10,3.36775e-05,-2.98415,0.201982,0.292105,11.8336,0.0324708,
2,1,0,1,0,46434.7,0.034258,0.0339653,1.05728,24,0.00134036,10,3.5911e-05,-2.97581,0.187471,0.314715,12.9671,0.0339653,
2,1,0,1,0,46434.8,0.0357562,0.0354601,1.0763,24,0.00142145,10,3.81657e-05,-2.96807,0.221213,0.266712,11.1843,0.03546007,
2,1,0,1,0,46434.9,0.0372544,0.0369476,1.09425,24,0.00150394,10,4.04301e-05,-2.96088,0.20782,0.283899,12.1137,0.0369476,
2,1,0,1,0,46435,0.0387526,0.0384644,1.11188,24,0.00158765,10,4.27679e-05,-2.95394,0.198199,0.297681,12.9438,0.0384644,
2,1,0,1,0,46435,0.0402508,0.0399406,1.12924,24,0.00167293,10,4.51023e-05,-2.94722,0.194792,0.302887,13.366,0.0399406,
2,1,0,1,0,46435.1,0.041749,0.0414365,1.15338,24,0.00175977,10,4.77921e-05,-2.93803,0.2134,0.276476,12.4169,0.0414365,
2,1,0,1,0,46435.2,0.0432472,0.0429078,1.17075,24,0.00184788,10,5.02344e-05,-2.93153,0.226348,0.260661,11.8886,0.0429078,
2,1,0,1,0,46435.3,0.0447449,0.0444786,1.1861,24,0.00193724,10,5.27559e-05,-2.92588,0.20702,0.284997,13.1856,0.0444786,
2,1,0,1,0,46435.3,0.0462445,0.0459188,1.20339,24,0.00202814,10,5.52584e-05,-2.91959,0.210592,0.280163,13.1591,0.0459188,
2,1,0,1,0,46435.4,0.04774,0.0474357,1.22188,24,0.00212019,10,5.79609e-05,-2.91297,0.218694,0.269783,12.875,0.0474357,
2,1,0,1,0,46435.5,0.0492399,0.048935,1.24155,24,0.00221381,10,6.07553e-05,-2.90604,0.252548,0.233619,11.3005,0.048935,
2,1,0,1,0,46435.6,0.0507381,0.0504226,1.25484,24,0.00230851,10,6.32725e-05,-2.90141,0.244853,0.240961,11.829,0.0504226,
2,1,0,1,0,46435.6,0.0522363,0.0519164,1.27334,24,0.00240452,10,6.61073e-05,-2.89505,0.238563,0.247315,12.2914,0.0519164,
2,1,0,1,0,46435.7,0.0537345,0.0534086,1.29425,24,0.00250194,10,6.9124e-05,-2.88798,0.272017,0.216898,10.9242,0.0534086,
2,1,0,1,0,46435.8,0.0552327,0.0549018,1.31027,24,0.00260066,10,7.1936e-05,-2.88264,0.297639,0.198227,10.1089,0.0549018,
2,1,0,1,0,46435.9,0.0567309,0.0564098,1.31961,24,0.00270046,10,7.44388e-05,-2.87956,0.295566,0.199617,10.3162,0.0564098,
2,1,0,1,0,46435.9,0.0582291,0.0578924,1.33922,24,0.00280132,10,7.75303e-05,-2.87315,0.309933,0.190364,9.95194,0.0578924,
2,1,0,1,0,46436,0.0597291,0.0594052,1.35652,24,0.00290363,10,8.05846e-05,-2.86757,0.302853,0.194814,10.3012,0.0594052,
2,1,0,1,0,46436.1,0.0612246,0.0609292,1.3721,24,0.00300688,10,8.36007e-05,-2.86262,0.349781,0.168677,9.00465,0.0609292,
2,1,0,1,0,46436.2,0.0627241,0.0623912,1.38556,24,0.00311153,10,8.6447e-05,-2.85837,0.33326,0.177039,9.57447,0.0623912,
2,1,0,1,0,46436.2,0.0642218,0.0639108,1.39687,24,0.00321696,10,8.92754e-05,-2.85484,0.306727,0.192353,10.5135,0.0639108,
2,1,0,1,0,46436.3,0.06572,0.0654051,1.41382,24,0.00332349,10,9.2471e-05,-2.84961,0.320883,0.183868,10.1501,0.0654051,
2,1,0,1,0,46436.4,0.0672182,0.0668842,1.43062,24,0.00343129,10,9.56862e-05,-2.84447,0.352441,0.167404,9.3164,0.0668842,
2,1,0,1,0,46436.5,0.0687164,0.068429,1.44177,24,0.00354003,10,9.86591e-05,-2.8411,0.47155,0.125119,7.0348,0.068429,
2,1,0,1,0,46436.5,0.0702146,0.0698949,1.4518,24,0.00364956,10,0.000101474,-2.83809,0.442909,0.13321,7.54816,0.06989488,
2,1,0,1,0,46436.6,0.0717128,0.0713827,1.46486,24,0.00376,10,0.000104565,-2.83421,0.379856,0.155322,8.87276,0.0713827,
2,1,0,1,0,46436.7,0.073211,0.0729064,1.47604,24,0.00387137,10,0.000107613,-2.8309,0.481917,0.122428,7.05751,0.0729064,
2,1,0,1,0,46436.8,0.0747092,0.0743913,1.48815,24,0.00398368,10,0.000110705,-2.82735,0.515316,0.114493,6.63872,0.0743913,
2,1,0,1,0,46436.8,0.0762087,0.0759021,1.49767,24,0.00409689,10,0.000113676,-2.82458,0.511686,0.115305,6.74339,0.0759021,
2,1,0,1,0,46436.9,0.0777042,0.0773577,1.50897,24,0.00421046,10,0.000116731,-2.82132,0.452193,0.130475,7.6821,0.0773577,
2,1,0,1,0,46437,0.0792037,0.0788857,1.5205,24,0.00432525,10,0.000119945,-2.81801,0.472057,0.124985,7.40698,0.0788857,
2,1,0,1,0,46437.1,0.0807019,0.0804067,1.52795,24,0.00444072,10,0.000122857,-2.81589,0.624181,0.0945239,5.63501,0.0804067,
2,1,0,1,0,46437.1,0.0822001,0.0819123,1.53527,24,0.00455684,10,0.000125758,-2.81381,0.583254,0.101157,6.07192,0.0819123,
2,1,0,1,0,46437.2,0.0836983,0.0834064,1.54772,24,0.00467354,10,0.000129089,-2.81031,0.567592,0.103948,6.2879,0.0834064,
2,1,0,1,0,46437.3,0.0851965,0.0848991,1.55963,24,0.00479103,10,0.000132411,-2.80698,0.538392,0.109586,6.67,0.0848991,
2,1,0,1,0,46437.3,0.0866947,0.0863554,1.56969,24,0.00490942,10,0.000135551,-2.80419,0.518447,0.113801,6.96102,0.0863554,
2,1,0,1,0,46437.4,0.0881929,0.0878715,1.58181,24,0.00502859,10,0.000138996,-2.80085,0.460334,0.128168,7.9078,0.0878715,
2,1,0,1,0,46437.5,0.0896911,0.0893587,1.59498,24,0.00514847,10,0.000142526,-2.79724,0.372569,0.15836,9.84782,0.0893587,
2,1,0,1,0,46437.6,0.0911893,0.0908613,1.607,24,0.00526951,10,0.000146014,-2.79398,0.338517,0.17429,10.9244,0.0908613,
2,1,0,1,0,46437.6,0.0926884,0.0923837,1.62483,24,0.00539205,10,0.000150108,-2.78919,0.315444,0.187038,11.8572,0.0923837,
2,1,0,1,0,46437.7,0.0941839,0.0938717,1.64215,24,0.0055155,10,0.000154151,-2.78459,0.32742,0.180197,11.5576,0.09387169,
2,1,0,1,0,46437.8,0.0956838,0.0953849,1.65603,24,0.00564045,10,0.00015796,-2.78093,0.293848,0.200784,13.0314,0.0953849,
2,1,0,1,0,46437.9,0.097182,0.0968537,1.6798,24,0.0057667,10,0.000162695,-2.77474,0.243508,0.242292,15.9042,0.0968537,
2,1,0,1,0,46437.9,0.0986802,0.0983529,1.70327,24,0.00589479,10,0.000167522,-2.76872,0.237339,0.24859,16.5484,0.0983529,
2,1,0,1,0,46438,0.100178,0.0998684,1.72945,24,0.00602475,10,0.000172718,-2.76209,0.240782,0.245035,16.5381,0.0998684,
2,1,0,1,0,46438.1,0.101677,0.10137,1.75142,24,0.0061566,10,0.000177541,-2.75661,0.216584,0.272412,18.7073,0.10137,
2,1,0,1,0,46438.2,0.103175,0.102836,1.78778,24,0.00629035,10,0.000183848,-2.74769,0.215011,0.274405,19.1399,0.1028363,
2,1,0,1,0,46438.2,0.104673,0.10436,1.81886,24,0.0064266,10,0.000189817,-2.7402,0.197142,0.299277,21.2235,0.10436,
2,1,0,1,0,46438.3,0.106171,0.105875,1.8495,24,0.00656519,10,0.000195817,-2.73294,0.21176,0.278618,20.0727,0.1058754,
2,1,0,1,0,46438.4,0.107669,0.107382,1.87975,24,0.00670611,10,0.000201851,-2.7259,0.207607,0.284191,20.8478,0.107382,
2,1,0,1,0,46438.5,0.109168,0.108834,1.9113,24,0.0068494,10,0.000208015,-2.71867,0.214584,0.27495,20.5114,0.108834,
2,1,0,1,0,46438.5,0.110664,0.110349,1.94188,24,0.00699474,10,0.000214285,-2.71178,0.211038,0.27957,21.1602,0.110349,
2,1,0,1,0,46438.6,0.112164,0.111841,1.97045,24,0.00714284,10,0.000220378,-2.70543,0.239952,0.245882,18.8844,0.111841,
2,1,0,1,0,46438.7,0.113662,0.11332,2.00008,24,0.00729279,10,0.000226649,-2.69895,0.263008,0.224328,17.4721,0.11332,
2,1,0,1,0,46438.8,0.11516,0.114812,2.02219,24,0.0074445,10,0.000232172,-2.69418,0.283023,0.208464,16.4519,0.114812,
2,1,0,1,0,46438.8,0.116658,0.116356,2.04547,24,0.0075981,10,0.000238002,-2.68921,0.309625,0.190553,15.196,0.116356,
2,1,0,1,0,46438.9,0.118157,0.117811,2.06822,24,0.00775355,10,0.000243659,-2.6844,0.348028,0.169527,13.6747,0.117811,
2,1,0,1,0,46439,0.119655,0.119365,2.08754,24,0.00791044,10,0.000249179,-2.68037,0.470084,0.125509,10.2197,0.1193649,
2,1,0,1,0,46439.1,0.121153,0.120843,2.09862,24,0.00806844,10,0.000253604,-2.67807,0.494605,0.119287,9.78755,0.120843,
2,1,0,1,0,46439.1,0.122653,0.122287,2.11475,24,0.00822782,10,0.000258607,-2.67474,0.451949,0.130546,10.7576,0.122287,
2,1,0,1,0,46439.2,0.124149,0.123847,2.13005,24,0.00838789,10,0.000263801,-2.67161,0.520318,0.113392,9.41883,0.123847,
2,1,0,1,0,46439.3,0.125648,0.125328,2.14174,24,0.00854927,10,0.00026842,-2.66923,0.673685,0.087578,7.30909,0.125328,
2,1,0,1,0,46439.4,0.127146,0.126804,2.14728,24,0.0087112,10,0.000272283,-2.66811,0.842335,0.0700434,5.87225,0.126804,
2,1,0,1,0,46439.4,0.128644,0.128303,2.15801,24,0.00887377,10,0.000276879,-2.66595,0.861749,0.0684654,5.77201,0.128303,
2,1,0,1,0,46439.5,0.130142,0.129774,2.16699,24,0.00903708,10,0.000281218,-2.66414,1.05383,0.0559861,4.73433,0.129774,
2,1,0,1,0,46439.6,0.13164,0.131353,2.17695,24,0.00920109,10,0.000285948,-2.66215,1.8102,0.0325931,2.76277,0.131353,
2,1,0,1,0,46439.7,0.133139,0.13281,2.17974,24,0.00936546,10,0.000289491,-2.6616,9.64818,0.00611514,0.519876,0.1328098,
2,1,0,1,0,46439.7,0.134637,0.13431,2.17863,24,0.00952983,10,0.000292612,-2.66182,-3.99015,-0.0147864,-1.25672,0.13431,
2,1,0,1,0,46439.8,0.136135,0.135769,2.17663,24,0.00969425,10,0.000295519,-2.66222,-1.46062,-0.0403939,-3.42249,0.1357691,
2,1,0,1,0,46439.9,0.137633,0.137339,2.16846,24,0.0098582,10,0.000297815,-2.66385,-0.58186,-0.101399,-8.55388,0.137339,
2,1,0,1,0,46440,0.139133,0.138805,2.15212,24,0.0100214,10,0.000298726,-2.66713,-0.343334,-0.171844,-14.3581,0.138805,
2,1,0,1,0,46440,0.140628,0.140318,2.12224,24,0.0101825,10,0.00029779,-2.6732,-0.247276,-0.2386,-19.7018,0.140318,
2,1,0,1,0,46440.1,0.142128,0.141818,2.09034,24,0.0103419,10,0.000296448,-2.67978,-0.19554,-0.301729,-24.5123,0.141818,
2,1,0,1,0,46440.2,0.143626,0.143317,2.04722,24,0.0104982,10,0.000293402,-2.68884,-0.147029,-0.401281,-31.9193,0.143317,
2,1,0,1,0,46440.3,0.145124,0.14479,1.9932,24,0.0106508,10,0.000288596,-2.70045,-0.113336,-0.520574,-40.305,0.14479,
2,1,0,1,0,46440.3,0.146622,0.146287,1.92632,24,0.0107989,10,0.000281797,-2.71527,-0.10022,-0.588703,-44.1761,0.146287,
2,1,0,1,0,46440.4,0.14812,0.147827,1.85831,24,0.0109419,10,0.000274709,-2.73088,-0.0904086,-0.652593,-47.248,0.147827,
2,1,0,1,0,46440.5,0.149619,0.149301,1.78657,24,0.0110796,10,0.000266737,-2.74798,-0.0822783,-0.717079,-49.8369,0.149301,
2,1,0,1,0,46440.6,0.151117,0.150836,1.71036,24,0.0112118,10,0.000257983,-2.76691,-0.0760694,-0.775607,-51.6545,0.150836,
2,1,0,1,0,46440.6,0.152615,0.15233,1.63022,24,0.0113381,10,0.000248331,-2.78776,-0.0763199,-0.773062,-49.2946,0.15233,
2,1,0,1,0,46440.7,0.154113,0.153782,1.56121,24,0.0114587,10,0.000240086,-2.80654,-0.0781994,-0.754482,-46.0377,0.153782,
2,1,0,1,0,46440.8,0.155613,0.155304,1.49367,24,0.0115743,10,0.000231974,-2.82574,-0.0798552,-0.738837,-43.1609,0.155304,
2,1,0,1,0,46440.9,0.157108,0.156836,1.43146,24,0.0116849,10,0.000224504,-2.84422,-0.0824373,-0.715696,-40.0473,0.156836,
2,1,0,1,0,46440.9,0.158608,0.158302,1.37356,24,0.0117913,10,0.000217438,-2.86215,-0.089792,-0.657074,-35.3728,0.158302,
2,1,0,1,0,46441,0.160106,0.159775,1.32355,24,0.0118934,10,0.000211471,-2.87826,-0.0967805,-0.609627,-31.6229,0.159775,
2,1,0,1,0,46441.1,0.161604,0.161288,1.28003,24,0.011992,10,0.000206454,-2.89278,-0.113574,-0.519483,-26.0458,0.161288,
2,1,0,1,0,46441.2,0.163102,0.162762,1.24379,24,0.0120877,10,0.000202442,-2.90525,-0.119584,-0.493378,-23.9775,0.162762,
2,1,0,1,0,46441.2,0.164601,0.164246,1.2085,24,0.0121807,10,0.000198491,-2.91775,-0.134728,-0.43792,-20.696,0.164246,
2,1,0,1,0,46441.3,0.166099,0.165787,1.17788,24,0.0122712,10,0.000195276,-2.9289,-0.151157,-0.390322,-18.0244,0.1657867,
2,1,0,1,0,46441.4,0.167597,0.167308,1.15456,24,0.0123597,10,0.000193167,-2.93758,-0.180338,-0.327163,-14.7663,0.167308,
2,1,0,1,0,46441.5,0.169095,0.168762,1.1345,24,0.0124466,10,0.00019146,-2.9452,-0.191145,-0.308666,-13.6718,0.168762,
2,1,0,1,0,46441.5,0.170593,0.170316,1.11481,24,0.012532,10,0.000189869,-2.9528,-0.197042,-0.299429,-13.0431,0.170316,
2,1,0,1,0,46441.6,0.172092,0.171757,1.09412,24,0.012616,10,0.000187923,-2.96093,-0.230691,-0.255753,-10.9678,0.171757,
2,1,0,1,0,46441.7,0.173588,0.173288,1.08101,24,0.0126985,10,0.000187326,-2.96617,-0.288346,-0.204615,-8.64265,0.173288,
2,1,0,1,0,46441.8,0.175088,0.174737,1.06773,24,0.0127803,10,0.000186572,-2.97154,-0.2953,-0.199797,-8.32905,0.1747373,
2,1,0,1,0,46441.8,0.176586,0.176271,1.05721,24,0.0128611,10,0.000186354,-2.97584,-0.316522,-0.186401,-7.6822,0.176271,
2,1,0,1,0,46441.9,0.178084,0.177805,1.04293,24,0.012941,10,0.000185438,-2.98174,-0.325702,-0.181147,-7.40391,0.1778045,
2,1,0,1,0,46442,0.179582,0.179294,1.03706,24,0.0130201,10,0.000185938,-2.9842,-0.404442,-0.14588,-5.91749,0.179294,
2,1,0,1,0,46442.1,0.181081,0.180784,1.02974,24,0.0130986,10,0.000186161,-2.98727,-0.482842,-0.122193,-4.91028,0.180784,
2,1,0,1,0,46442.1,0.182579,0.182297,1.02066,24,0.0131767,10,0.000186063,-2.99112,-0.402913,-0.146434,-5.83489,0.182297,
2,1,0,1,0,46442.2,0.184077,0.183809,1.01707,24,0.0132542,10,0.000186946,-2.99265,-0.483282,-0.122082,-4.83705,0.183809,
2,1,0,1,0,46442.3,0.185577,0.185267,1.00968,24,0.0133311,10,0.000187061,-2.99581,-0.522304,-0.112961,-4.45045,0.185267,
2,1,0,1,0,46442.4,0.187073,0.186794,1.00259,24,0.0134075,10,0.000187278,-2.99888,-0.822572,-0.0717262,-2.80161,0.1867943,
2,1,0,1,0,46442.4,0.188572,0.188278,0.999456,24,0.0134838,10,0.000188176,-3.00024,-0.662892,-0.0890039,-3.46724,0.188278,
2,1,0,1,0,46442.5,0.19007,0.189749,0.994035,24,0.0135595,10,0.000188618,-3.0026,-0.779009,-0.0757373,-2.93483,0.189749,
2,1,0,1,0,46442.6,0.191568,0.191234,0.985693,24,0.0136348,10,0.000188498,-3.00626,-0.752819,-0.0783721,-3.02617,0.1912339,
2,1,0,1,0,46442.7,0.193066,0.192767,0.983514,24,0.0137098,10,0.000189589,-3.00722,-1.48187,-0.0398146,-1.52811,0.192767,
2,1,0,1,0,46442.7,0.194564,0.194242,0.982753,24,0.0137847,10,0.000190892,-3.00756,-0.969799,-0.0608374,-2.32678,0.194242,
2,1,0,1,0,46442.8,0.196063,0.195757,0.977248,24,0.0138593,10,0.000191303,-3.01,-0.740625,-0.0796625,-3.04267,0.195757,
2,1,0,1,0,46442.9,0.197561,0.197266,0.971032,24,0.0139335,10,0.000191551,-3.01277,-1.11312,-0.0530044,-2.01636,0.197266,
2,1,0,1,0,46443,0.199059,0.198732,0.971779,24,0.0140074,10,0.000193123,-3.01243,-1.15984,-0.0508692,-1.92747,0.198732,
2,1,0,1,0,46443,0.200557,0.200243,0.969185,24,0.0140812,10,0.000194073,-3.01359,-1.31137,-0.0449912,-1.69781,0.200243,
2,1,0,1,0,46443.1,0.202057,0.201748,0.965073,24,0.0141549,10,0.000194702,-3.01544,-0.82562,-0.0714615,-2.68936,0.201748,
2,1,0,1,0,46443.2,0.203552,0.203249,0.96069,24,0.0142282,10,0.000195259,-3.01742,-1.11635,-0.0528509,-1.9876,0.203249,
2,1,0,1,0,46443.3,0.205052,0.20473,0.958439,24,0.0143013,10,0.000196221,-3.01844,8.01783,0.0073586,0.276611,0.20473,
2,1,0,1,0,46443.3,0.20655,0.206269,0.956589,24,0.0143743,10,0.000197315,-3.01927,-5.30415,-0.0111234,-0.416046,0.206269,
2,1,0,1,0,46443.4,0.208048,0.207764,0.957768,24,0.0144474,10,0.000198989,-3.01874,-1.69797,-0.0347474,-1.29387,0.207764,
2,1,0,1,0,46443.5,0.209546,0.209253,0.956149,24,0.0145201,10,0.000200077,-3.01947,-1.09341,-0.0539594,-2.0085,0.209253,
2,1,0,1,0,46443.6,0.211044,0.210687,0.951732,24,0.0145925,10,0.000200517,-3.02149,-1.23697,-0.0476973,-1.7682,0.210687,
2,1,0,1,0,46443.6,0.212543,0.212262,0.950414,24,0.0146649,10,0.000201737,-3.02209,-1.26069,-0.0467998,-1.73331,0.212262,
2,1,0,1,0,46443.7,0.214041,0.213726,0.949034,24,0.0147371,10,0.000202833,-3.02272,-1.69034,-0.0349042,-1.29244,0.213726,
2,1,0,1,0,46443.8,0.215539,0.215244,0.946452,24,0.0148092,10,0.000203718,-3.0239,-0.869781,-0.0678332,-2.5038,0.215244,
2,1,0,1,0,46443.9,0.217037,0.216733,0.941476,24,0.014881,10,0.000204049,-3.02619,-1.65818,-0.0355813,-1.31346,0.2167331,
2,1,0,1,0,46443.9,0.218536,0.218237,0.941127,24,0.0149528,10,0.000205388,-3.02635,9.26443,0.00636845,0.233748,0.218237,
2,1,0,1,0,46444,0.220032,0.219729,0.942084,24,0.0150245,10,0.000207003,-3.02591,-4.41096,-0.0133758,-0.491348,0.219729,
2,1,0,1,0,46444.1,0.221532,0.221236,0.939198,24,0.0150962,10,0.000207784,-3.02724,-0.963208,-0.0612536,-2.24859,0.221236,
2,1,0,1,0,46444.2,0.22303,0.222752,0.934605,24,0.0151676,10,0.000208185,-3.02937,-1.25671,-0.046948,-1.71644,0.222752,
2,1,0,1,0,46444.2,0.224528,0.224235,0.936798,24,0.0152389,10,0.000210063,-3.02835,-1.55294,-0.0379926,-1.38828,0.224235,
2,1,0,1,0,46444.3,0.226026,0.225714,0.935164,24,0.0153101,10,0.00021108,-3.02911,-5.44091,-0.0108438,-0.395019,0.225714,
2,1,0,1,0,46444.4,0.227525,0.227227,0.933978,24,0.0153813,10,0.000212225,-3.02966,-0.952818,-0.0619216,-2.25505,0.227227,
2,1,0,1,0,46444.5,0.229023,0.228759,0.931942,24,0.0154523,10,0.00021319,-3.03061,-1.55007,-0.0380627,-1.38487,0.228759,
2,1,0,1,0,46444.5,0.230521,0.230236,0.929328,24,0.0155231,10,0.000213965,-3.03183,-7.24707,-0.00814123,-0.29659,0.230236,
2,1,0,1,0,46444.6,0.232019,0.231721,0.930125,24,0.0155939,10,0.00021553,-3.03146,-2.59386,-0.022746,-0.825802,0.231721,
2,1,0,1,0,46444.7,0.233517,0.233226,0.930891,24,0.0156647,10,0.000217108,-3.0311,-1.72278,-0.034247,-1.23819,0.2332264,
2,1,0,1,0,46444.8,0.235016,0.234668,0.926477,24,0.0157354,10,0.000217414,-3.03317,-1.96998,-0.0299496,-1.0823,0.234668,
2,1,0,1,0,46444.8,0.236512,0.236182,0.924412,24,0.0158058,10,0.000218329,-3.03413,-2.41412,-0.0244395,-0.882218,0.236182,
2,1,0,1,0,46444.9,0.238012,0.237712,0.925297,24,0.0158763,10,0.000219954,-3.03372,-7.06762,-0.00834793,-0.300793,0.237712,
2,1,0,1,0,46445,0.23951,0.239192,0.922961,24,0.0159466,10,0.000220765,-3.03482,-5.58046,-0.0105726,-0.380546,0.2391921,
2,1,0,1,0,46445.1,0.241008,0.240738,0.92093,24,0.0160169,10,0.000221703,-3.03577,-2.14245,-0.0275385,-0.991237,0.240738,
2,1,0,1,0,46445.1,0.242506,0.242186,0.919082,24,0.016087,10,0.000222589,-3.03665,-2.98235,-0.0197831,-0.711367,0.242186,
2,1,0,1,0,46445.2,0.244005,0.243705,0.920729,24,0.016157,10,0.000224386,-3.03587,-7.13177,-0.00827284,-0.297234,0.243705,
2,1,0,1,0,46445.3,0.245503,0.245185,0.921325,24,0.0162271,10,0.000225895,-3.03559,-5.47989,-0.0107666,-0.386326,0.245185,
2,1,0,1,0,46445.4,0.247001,0.246687,0.91709,24,0.0162971,10,0.000226234,-3.03759,-2.61354,-0.0225748,-0.80688,0.2466868,
2,1,0,1,0,46445.4,0.248501,0.248218,0.913949,24,0.016367,10,0.000226858,-3.03908,-1.21511,-0.0485555,-1.73643,0.248218,
2,1,0,1,0,46445.5,0.249997,0.249671,0.915452,24,0.0164366,10,0.000228562,-3.03836,-1.8187,-0.0324408,-1.15851,0.249671,
2,1,0,1,0,46445.6,0.251496,0.251193,0.913153,24,0.0165063,10,0.000229377,-3.03946,7.65965,0.0077027,0.274889,0.2511926,
2,1,0,1,0,46445.7,0.252994,0.252719,0.911699,24,0.0165758,10,0.000230403,-3.04015,-1.41241,-0.0417727,-1.4867,0.252719,
2,1,0,1,0,46445.7,0.254492,0.254195,0.912201,24,0.0166454,10,0.000231877,-3.03991,-3.25359,-0.0181338,-0.64555,0.254195,
2,1,0,1,0,46445.8,0.25599,0.255643,0.910365,24,0.0167147,10,0.000232728,-3.04078,-2.54613,-0.0231724,-0.824381,0.255643,
2,1,0,1,0,46445.9,0.257488,0.257184,0.909582,24,0.0167841,10,0.00023393,-3.04116,-10.3173,-0.00571855,-0.203221,0.257184,
2,1,0,1,0,46446,0.258987,0.258668,0.910478,24,0.0168534,10,0.000235512,-3.04073,-2.06979,-0.0285054,-1.0082,0.258668,
2,1,0,1,0,46446,0.260485,0.260201,0.909346,24,0.0169226,10,0.000236612,-3.04127,-1.65181,-0.0357184,-1.26507,0.260201,
2,1,0,1,0,46446.1,0.261983,0.261682,0.905331,24,0.0169916,10,0.000236909,-3.04319,-1.76915,-0.0333493,-1.17922,0.261682,
2,1,0,1,0,46446.2,0.263481,0.263231,0.904332,24,0.0170605,10,0.000238049,-3.04367,-4.30567,-0.0137029,-0.483604,0.263231,
2,1,0,1,0,46446.3,0.264981,0.26469,0.90258,24,0.0171295,10,0.000238904,-3.04451,-5.10587,-0.0115553,-0.407463,0.26469,
2,1,0,1,0,46446.3,0.266476,0.266157,0.899362,24,0.0171982,10,0.000239372,-3.04607,-4.18445,-0.0140998,-0.496714,0.2661573,
2,1,0,1,0,46446.4,0.267976,0.267655,0.899547,24,0.0172669,10,0.000240768,-3.04598,-10.1117,-0.0058348,-0.205253,0.267655,
2,1,0,1,0,46446.5,0.269474,0.269112,0.899726,24,0.0173354,10,0.000242127,-3.04589,-2.83681,-0.020798,-0.73064,0.269112,
2,1,0,1,0,46446.6,0.270972,0.270684,0.899758,24,0.0174039,10,0.00024355,-3.04587,-17.689,-0.00333541,-0.11686,0.270684,
2,1,0,1,0,46446.6,0.27247,0.272205,0.897624,24,0.0174725,10,0.000244338,-3.04691,-1.71699,-0.0343625,-1.20101,0.272205,
2,1,0,1,0,46446.7,0.273968,0.273682,0.89248,24,0.0175408,10,0.000244255,-3.0494,-1.40064,-0.0421237,-1.47579,0.2736817,
2,1,0,1,0,46446.8,0.275467,0.275175,0.893869,24,0.0176089,10,0.00024597,-3.04873,-1.19686,-0.0492956,-1.72379,0.275175,
2,1,0,1,0,46446.9,0.276965,0.276653,0.893836,24,0.017677,10,0.000247282,-3.04874,-1.81954,-0.0324257,-1.13129,0.276653,
2,1,0,1,0,46446.9,0.278463,0.278141,0.89213,24,0.0177451,10,0.000248138,-3.04957,-1.16222,-0.0507648,-1.76346,0.278141,
2,1,0,1,0,46447,0.279961,0.279678,0.892731,24,0.017813,10,0.000249677,-3.04928,-2.45485,-0.024034,-0.83594,0.279678,
2,1,0,1,0,46447.1,0.28146,0.281168,0.889198,24,0.0178807,10,0.000250014,-3.051,-3.14136,-0.0187817,-0.651928,0.281168,
2,1,0,1,0,46447.2,0.282956,0.282655,0.886588,24,0.0179482,10,0.000250599,-3.05228,-8.69011,-0.00678933,-0.234754,0.282655,
2,1,0,1,0,46447.2,0.284456,0.284188,0.885872,24,0.018016,10,0.000251754,-3.05263,-1.60671,-0.036721,-1.26867,0.2841883,
2,1,0,1,0,46447.3,0.285954,0.285668,0.884013,24,0.0180834,10,0.000252534,-3.05354,-1.5103,-0.0390651,-1.34727,0.285668,
2,1,0,1,0,46447.4,0.287452,0.287135,0.881376,24,0.0181506,10,0.000253074,-3.05484,-2.02351,-0.0291572,-1.0047,0.287135,
2,1,0,1,0,46447.5,0.28895,0.288649,0.880179,24,0.0182178,10,0.000254063,-3.05543,-52.2582,-0.00112901,-0.0387155,0.288649,
2,1,0,1,0,46447.5,0.290449,0.290138,0.879406,24,0.0182849,10,0.00025515,-3.05581,-3.01234,-0.0195861,-0.671636,0.290138,
2,1,0,1,0,46447.6,0.291947,0.291639,0.878806,24,0.0183519,10,0.000256294,-3.05611,-2.19043,-0.0269353,-0.922893,0.291639,
2,1,0,1,0,46447.7,0.293445,0.293159,0.874446,24,0.0184187,10,0.000256352,-3.05827,-1.4108,-0.0418201,-1.42987,0.293159,
2,1,0,1,0,46447.8,0.294943,0.294625,0.877053,24,0.0184854,10,0.000258401,-3.05697,-3.10601,-0.0189954,-0.648991,0.294625,
2,1,0,1,0,46447.8,0.296441,0.296147,0.876236,24,0.018552,10,0.000259495,-3.05738,-2.36798,-0.0249158,-0.848434,0.296147,
2,1,0,1,0,46447.9,0.29794,0.297638,0.874364,24,0.0186187,10,0.000260244,-3.05831,-0.880533,-0.0670049,-2.27141,0.297638,
2,1,0,1,0,46448,0.299436,0.299139,0.867391,24,0.018685,10,0.000259471,-3.06179,-0.00414249,-14.2426,-302.869,0.299139,
2,1,0,1,0,46448,0.299739,0.299449,0.583707,24,0.0187189,10,0.000174791,-3.2338,0.000615706,95.825,734.088,0.299449,
2,1,0,1,0,46448.1,0.298239,0.297931,0.0720937,24,0.0187373,10,2.14789e-05,-4.1421,0.00387585,15.2225,250.541,0.297931,
2,0,0,1,0,46448.2,0.296741,0.296402,-0.0639652,24,0.0187357,10,-1.89594e-05,-4.19406,0.0731577,0.806477,76.5128,0.296402,
2,0,0,1,0,46448.3,0.295243,0.294943,-0.127649,24,0.0187271,10,-3.76492e-05,-3.89398,-0.00497749,-11.8534,37.5111,0.294943,
2,0,0,1,0,46448.3,0.293745,0.293469,-0.168417,24,0.0187148,10,-4.94251e-05,-3.77361,-0.0144121,-4.09378,24.3534,0.293469,
2,0,0,1,0,46448.4,0.292246,0.291892,-0.19941,24,0.0186999,10,-5.82064e-05,-3.70025,-0.0234017,-2.52118,18.7665,0.2918925,
2,0,0,1,0,46448.5,0.290748,0.290403,-0.224992,24,0.0186829,10,-6.53383e-05,-3.64783,-0.031037,-1.90095,16.1615,0.290403,
2,0,0,1,0,46448.6,0.28925,0.288971,-0.243969,24,0.0186641,10,-7.04999e-05,-3.61267,-0.0403688,-1.46152,13.8123,0.288971,
2,0,0,1,0,46448.6,0.287752,0.287465,-0.26411,24,0.0186439,10,-7.59223e-05,-3.57822,-0.0548461,-1.07574,10.968,0.2874648,
2,0,0,1,0,46448.7,0.286254,0.285944,-0.277993,24,0.0186224,10,-7.94904e-05,-3.55597,-0.0578649,-1.01962,11.0552,0.285944,
2,0,0,1,0,46448.8,0.284754,0.284461,-0.295212,24,0.0185998,10,-8.39764e-05,-3.52987,-0.067475,-0.874398,9.96377,0.284461,
2,0,0,1,0,46448.9,0.283259,0.282941,-0.308261,24,0.018576,10,-8.72196e-05,-3.51108,-0.0732918,-0.805002,9.65543,0.282941,
2,0,0,1,0,46448.9,0.281759,0.281453,-0.320654,24,0.0185511,10,-9.02493e-05,-3.49396,-0.0941252,-0.626824,7.80921,0.281453,
2,0,0,1,0,46449,0.280261,0.279964,-0.33189,24,0.0185254,10,-9.29173e-05,-3.47901,-0.0922026,-0.639895,8.30529,0.279964,
2,0,0,1,0,46449.1,0.278763,0.278488,-0.344558,24,0.0184989,10,-9.59553e-05,-3.46274,-0.109133,-0.540627,7.29761,0.2784878,
2,0,0,1,0,46449.2,0.277264,0.276966,-0.356172,24,0.0184714,10,-9.86475e-05,-3.44834,-0.113915,-0.517931,7.17126,0.276966,
2,0,0,1,0,46449.2,0.275766,0.27546,-0.367467,24,0.0184431,10,-0.000101222,-3.43478,-0.138586,-0.425729,6.06332,0.27546,
2,0,0,1,0,46449.3,0.274268,0.273953,-0.374953,24,0.0184141,10,-0.000102719,-3.42602,-0.141031,-0.418347,6.14889,0.273953,
2,0,0,1,0,46449.4,0.27277,0.272424,-0.387006,24,0.0183845,10,-0.00010543,-3.41228,-0.14502,-0.40684,6.13194,0.272424,
2,0,0,1,0,46449.5,0.271272,0.270937,-0.393793,24,0.0183541,10,-0.000106693,-3.40473,-0.149442,-0.394802,6.06526,0.270937,
2,0,0,1,0,46449.5,0.269774,0.269458,-0.40545,24,0.0183229,10,-0.000109252,-3.39206,-0.146638,-0.402353,6.31216,0.269458,
2,0,0,1,0,46449.6,0.268274,0.267947,-0.413303,24,0.0182911,10,-0.000110743,-3.38373,-0.198321,-0.297498,4.81025,0.267947,
2,0,0,1,0,46449.7,0.266779,0.26648,-0.417583,24,0.0182589,10,-0.000111277,-3.37926,-0.16345,-0.360967,5.93747,0.26648,
2,0,0,1,0,46449.8,0.265279,0.265017,-0.428056,24,0.0182259,10,-0.000113442,-3.3685,-0.159465,-0.369987,6.16134,0.265017,
2,0,0,1,0,46449.8,0.263781,0.263456,-0.433925,24,0.0181923,10,-0.00011432,-3.36258,-0.203299,-0.290213,4.93482,0.263456,
2,0,0,1,0,46449.9,0.262283,0.261988,-0.44313,24,0.0181582,10,-0.000116095,-3.35347,-0.19884,-0.296721,5.13921,0.261988,
2,0,0,1,0,46450,0.260784,0.260479,-0.448283,24,0.0181236,10,-0.000116769,-3.34845,-0.203436,-0.290017,5.10671,0.260479,
2,0,0,1,0,46450.1,0.259286,0.258984,-0.45572,24,0.0180885,10,-0.000118024,-3.3413,-0.202277,-0.291679,5.19538,0.258984,
2,0,0,1,0,46450.1,0.257788,0.257522,-0.467911,24,0.0180526,10,-0.000120497,-3.32984,-0.221639,-0.266199,4.8238,0.257522,
2,0,0,1,0,46450.2,0.25629,0.255963,-0.473534,24,0.0180163,10,-0.000121207,-3.32465,-0.257447,-0.229173,4.20795,0.255963,
2,0,0,1,0,46450.3,0.25479,0.254477,-0.477488,24,0.0179795,10,-0.00012151,-3.32104,-0.243859,-0.241944,4.52439,0.254477,
2,0,0,1,0,46450.4,0.253294,0.253015,-0.483123,24,0.0179423,10,-0.000122238,-3.31594,-0.244658,-0.241153,4.55854,0.253015,
2,0,0,1,0,46450.4,0.251795,0.251488,-0.489774,24,0.0179045,10,-0.000123172,-3.31,-0.230339,-0.256144,4.9085,0.251488,
2,0,0,1,0,46450.5,0.250297,0.24998,-0.497528,24,0.0178662,10,-0.000124372,-3.30318,-0.312605,-0.188737,3.65473,0.24998,
2,0,0,1,0,46450.6,0.248799,0.248482,-0.503985,24,0.0178276,10,-0.000125231,-3.29758,-0.300825,-0.196127,3.85864,0.2484822,
2,0,0,1,0,46450.7,0.247301,0.246967,-0.509252,24,0.0177885,10,-0.000125768,-3.29307,-0.279524,-0.211073,4.20237,0.2469669,
2,0,0,1,0,46450.7,0.245802,0.2455,-0.51638,24,0.0177489,10,-0.000126771,-3.28703,-0.293111,-0.201289,4.04892,0.2455,
2,0,0,1,0,46450.8,0.244304,0.243942,-0.522889,24,0.0177087,10,-0.000127554,-3.28159,-0.297428,-0.198368,4.04693,0.243942,
2,0,0,1,0,46450.9,0.242806,0.242455,-0.527317,24,0.0176682,10,-0.000127851,-3.27793,-0.448903,-0.131431,2.70536,0.242455,
2,0,0,1,0,46451,0.241308,0.241041,-0.531063,24,0.0176274,10,-0.000128008,-3.27485,-0.399406,-0.147719,3.07337,0.241041,
2,0,0,1,0,46451,0.23981,0.239518,-0.539711,24,0.0175861,10,-0.000129271,-3.26784,-0.300292,-0.196476,4.12464,0.2395184,
2,0,0,1,0,46451.1,0.23831,0.237957,-0.545086,24,0.0175443,10,-0.000129707,-3.26353,-0.290246,-0.203276,4.31725,0.237957,
2,0,0,1,0,46451.2,0.236815,0.236506,-0.549293,24,0.0175021,10,-0.000129911,-3.2602,-0.36701,-0.160759,3.4496,0.236506,
2,0,0,1,0,46451.3,0.235315,0.234983,-0.552491,24,0.0174595,10,-0.000129826,-3.25767,-0.340581,-0.173233,3.74314,0.234983,
2,0,0,1,0,46451.3,0.233817,0.233486,-0.559842,24,0.0174166,10,-0.000130715,-3.25193,-0.438743,-0.134475,2.94157,0.233486,
2,0,0,1,0,46451.4,0.232319,0.23203,-0.568655,24,0.0173731,10,-0.000131945,-3.24515,-0.40144,-0.146971,3.24289,0.23203,
2,0,0,1,0,46451.5,0.230821,0.230496,-0.571662,24,0.0173293,10,-0.000131766,-3.24286,-0.512956,-0.11502,2.55773,0.230496,
2,0,0,1,0,46451.6,0.229322,0.229018,-0.574791,24,0.0172851,10,-0.000131638,-3.24049,-0.385151,-0.153187,3.44625,0.229018,
2,0,0,1,0,46451.6,0.227824,0.227504,-0.580968,24,0.0172405,10,-0.000132173,-3.23585,-0.392641,-0.150265,3.42078,0.227504,
2,0,0,1,0,46451.7,0.226326,0.226039,-0.58827,24,0.0171955,10,-0.000132972,-3.23042,-0.363947,-0.162111,3.7134,0.226039,
2,0,0,1,0,46451.8,0.224828,0.224527,-0.592071,24,0.0171501,10,-0.000132936,-3.22763,-0.511971,-0.115241,2.65971,0.224527,
2,0,0,1,0,46451.8,0.22333,0.223016,-0.598213,24,0.0171042,10,-0.000133411,-3.22314,-0.417407,-0.141349,3.29995,0.223016,
2,0,0,1,0,46451.9,0.22183,0.221559,-0.60295,24,0.0170581,10,-0.000133589,-3.21972,-0.324082,-0.182052,4.28906,0.221559,
2,0,0,1,0,46452,0.220335,0.220032,-0.610301,24,0.0170116,10,-0.000134286,-3.21446,-0.327477,-0.180165,4.2711,0.2200325,
2,0,0,1,0,46452.1,0.218835,0.21855,-0.613291,24,0.0169645,10,-0.000134035,-3.21233,-0.417824,-0.141208,3.38086,0.21855,
2,0,0,1,0,46452.1,0.217337,0.217031,-0.618004,24,0.016917,10,-0.000134126,-3.20901,-0.448471,-0.131558,3.17105,0.217031,
2,0,0,1,0,46452.2,0.215839,0.215551,-0.621587,24,0.0168694,10,-0.000133984,-3.2065,-0.426574,-0.138311,3.36867,0.215551,
2,0,0,1,0,46452.3,0.21434,0.214038,-0.627595,24,0.0168214,10,-0.000134329,-3.20232,-0.327814,-0.17998,4.41248,0.214038,
2,0,0,1,0,46452.4,0.212842,0.212491,-0.633546,24,0.0167729,10,-0.000134623,-3.19822,-0.401094,-0.147098,3.6386,0.212491,
2,0,0,1,0,46452.4,0.211344,0.21104,-0.638234,24,0.016724,10,-0.000134693,-3.19502,-0.543958,-0.108464,2.70497,0.21104,
2,0,0,1,0,46452.5,0.209846,0.20958,-0.641948,24,0.0166748,10,-0.000134539,-3.1925,-0.510049,-0.115675,2.90487,0.20958,
2,0,0,1,0,46452.6,0.208348,0.208045,-0.649476,24,0.0166253,10,-0.00013512,-3.18744,-0.376736,-0.156608,3.97517,0.208045,
2,0,0,1,0,46452.7,0.20685,0.206512,-0.658371,24,0.0165752,10,-0.000135962,-3.18153,-0.356625,-0.16544,4.22209,0.2065125,
2,0,0,1,0,46452.7,0.20535,0.205074,-0.659771,24,0.0165246,10,-0.000135302,-3.18061,-0.463411,-0.127317,3.27234,0.205074,
2,0,0,1,0,46452.8,0.203855,0.20354,-0.664741,24,0.0164738,10,-0.000135302,-3.17735,-0.583416,-0.101129,2.62599,0.20354,
2,0,0,1,0,46452.9,0.202355,0.202058,-0.668339,24,0.0164227,10,-0.000135043,-3.175,-0.533842,-0.11052,2.88654,0.202058,
2,0,0,1,0,46453,0.200857,0.200573,-0.675972,24,0.0163711,10,-0.000135582,-3.17007,-0.390351,-0.151146,3.97667,0.200573,
2,0,0,1,0,46453,0.199359,0.199015,-0.67978,24,0.0163191,10,-0.000135286,-3.16763,-0.477991,-0.123433,3.27149,0.1990151,
2,0,0,1,0,46453.1,0.19786,0.197509,-0.686572,24,0.0162666,10,-0.000135604,-3.16331,-0.444829,-0.132635,3.55233,0.197509,
2,0,0,1,0,46453.2,0.196362,0.196063,-0.690119,24,0.0162139,10,-0.000135307,-3.16108,-0.433796,-0.136009,3.67386,0.196063,
2,0,0,1,0,46453.3,0.194864,0.194555,-0.696933,24,0.0161607,10,-0.000135592,-3.15681,-0.384503,-0.153445,4.16748,0.194555,
2,0,0,1,0,46453.3,0.193366,0.19305,-0.702583,24,0.0161069,10,-0.000135634,-3.1533,-0.368121,-0.160273,4.4015,0.19305,
2,0,0,1,0,46453.4,0.191866,0.191518,-0.70737,24,0.0160528,10,-0.000135474,-3.15035,-0.529799,-0.111363,3.09041,0.1915184,
2,0,0,1,0,46453.5,0.19037,0.190048,-0.713292,24,0.0159983,10,-0.00013556,-3.14673,-0.40336,-0.146271,4.0772,0.190048,
2,0,0,1,0,46453.6,0.188871,0.188539,-0.717886,24,0.0159434,10,-0.00013535,-3.14394,-0.302024,-0.195349,5.48797,0.188539,
2,0,0,1,0,46453.6,0.187373,0.187029,-0.725138,24,0.0158879,10,-0.000135622,-3.13958,-0.383629,-0.153795,4.35238,0.187029,
2,0,0,1,0,46453.7,0.185875,0.185533,-0.7344,24,0.0158319,10,-0.000136256,-3.13407,-0.40428,-0.145938,4.17677,0.185533,
2,0,0,1,0,46453.8,0.184377,0.184052,-0.736695,24,0.0157756,10,-0.00013559,-3.13271,-0.422384,-0.139683,4.02822,0.184052,
2,0,0,1,0,46453.9,0.182878,0.182561,-0.746065,24,0.0157188,10,-0.000136202,-3.12722,-0.359948,-0.163912,4.774,0.182561,
2,0,0,1,0,46453.9,0.18138,0.181059,-0.753306,24,0.0156614,10,-0.000136393,-3.12303,-0.354479,-0.166441,4.8915,0.1810585,
2,0,0,1,0,46454,0.179882,0.17956,-0.761999,24,0.0156035,10,-0.000136825,-3.11805,-0.449715,-0.131194,3.88958,0.17956,
2,0,0,1,0,46454.1,0.178384,0.178048,-0.768689,24,0.0155451,10,-0.000136863,-3.11425,-0.430843,-0.136941,4.10076,0.178048,
2,0,0,1,0,46454.2,0.176886,0.176576,-0.773418,24,0.0154862,10,-0.000136567,-3.11159,-0.34018,-0.173437,5.24493,0.176576,
2,0,0,1,0,46454.2,0.175386,0.175085,-0.782809,24,0.0154267,10,-0.000137058,-3.10634,-0.299807,-0.196793,6.00008,0.175085,
2,0,0,1,0,46454.3,0.173891,0.173613,-0.791802,24,0.0153665,10,-0.000137467,-3.10138,-0.305555,-0.193091,5.96376,0.173613,
2,0,0,1,0,46454.4,0.172391,0.17211,-0.799776,24,0.0153057,10,-0.000137649,-3.09703,-0.312475,-0.188815,5.88731,0.17211,
2,0,0,1,0,46454.5,0.170893,0.170569,-0.806577,24,0.0152443,10,-0.000137577,-3.09335,-0.304402,-0.193823,6.10991,0.170569,
2,0,0,1,0,46454.5,0.169395,0.169099,-0.817749,24,0.0151822,10,-0.000138281,-3.08738,-0.233348,-0.252841,8.06607,0.169099,
2,0,0,1,0,46454.6,0.167897,0.167554,-0.82836,24,0.0151193,10,-0.000138795,-3.08178,-0.268126,-0.220046,7.12649,0.167554,
2,0,0,1,0,46454.7,0.166398,0.166079,-0.838822,24,0.0150555,10,-0.000139311,-3.07633,-0.314302,-0.187717,6.16176,0.166079,
2,0,0,1,0,46454.8,0.1649,0.164586,-0.846679,24,0.0149911,10,-0.000139352,-3.07228,-0.253447,-0.23279,7.73572,0.164586,
2,0,0,1,0,46454.8,0.163402,0.163074,-0.863176,24,0.0149257,10,-0.000140761,-3.0639,-0.224758,-0.262504,8.84592,0.163074,
2,0,0,1,0,46454.9,0.161904,0.161599,-0.877512,24,0.0148594,10,-0.000141805,-3.05675,-0.222524,-0.26514,9.07093,0.1615988,
2,0,0,1,0,46455,0.160406,0.160114,-0.893494,24,0.014792,10,-0.000143061,-3.04891,-0.207321,-0.284583,9.87259,0.160114,
2,0,0,1,0,46455.1,0.158906,0.158589,-0.901182,24,0.0147234,10,-0.000142918,-3.04519,-0.20464,-0.288311,10.1962,0.158589,
2,0,0,1,0,46455.1,0.157411,0.157087,-0.919461,24,0.014654,10,-0.000144436,-3.03647,-0.166827,-0.35366,12.7512,0.157087,
2,0,0,1,0,46455.2,0.155911,0.155535,-0.939882,24,0.014583,10,-0.000146185,-3.02693,-0.164599,-0.358447,13.1938,0.155535,
2,0,0,1,0,46455.3,0.154413,0.154109,-0.960843,24,0.0145105,10,-0.000148074,-3.01735,-0.162779,-0.362455,13.5698,0.154109,
2,0,0,1,0,46455.4,0.152915,0.152574,-0.981915,24,0.0144364,10,-0.000149814,-3.00793,-0.150459,-0.392132,15.0658,0.152574,
2,0,0,1,0,46455.4,0.151417,0.151072,-1.00534,24,0.0143608,10,-0.000151879,-2.99769,-0.141917,-0.415737,16.3803,0.151072,
2,0,0,1,0,46455.5,0.149918,0.149596,-1.03493,24,0.0142832,10,-0.000154822,-2.98509,-0.120648,-0.489024,19.766,0.149596,
2,0,0,1,0,46455.6,0.14842,0.148083,-1.06492,24,0.0142033,10,-0.000157697,-2.97268,-0.115802,-0.509491,21.2056,0.148083,
2,0,0,1,0,46455.7,0.146922,0.146563,-1.09989,24,0.014121,10,-0.000161203,-2.95865,-0.105063,-0.561568,24.1161,0.146563,
2,0,0,1,0,46455.7,0.145424,0.145107,-1.13552,24,0.0140361,10,-0.000164772,-2.9448,-0.0986234,-0.598235,26.6176,0.145107,
2,0,0,1,0,46455.8,0.143926,0.143626,-1.17964,24,0.0139481,10,-0.000169427,-2.92825,-0.0875454,-0.673936,31.0274,0.143626,
2,0,0,1,0,46455.9,0.142426,0.142143,-1.22702,24,0.0138567,10,-0.000174412,-2.91115,-0.0866383,-0.680992,32.649,0.142143,
2,0,0,1,0,46456,0.140931,0.140637,-1.27434,24,0.0137618,10,-0.00017922,-2.89471,-0.0884201,-0.667269,33.2243,0.140637,
2,0,0,1,0,46456,0.139431,0.139122,-1.32506,24,0.0136629,10,-0.000184345,-2.87776,-0.0873414,-0.67551,35.042,0.139122,
2,0,0,1,0,46456.1,0.137933,0.137617,-1.3809,24,0.0135602,10,-0.000190035,-2.85984,-0.0854297,-0.690627,37.3443,0.1376166,
2,0,0,1,0,46456.2,0.136435,0.136118,-1.44198,24,0.0134532,10,-0.00019628,-2.84104,-0.0837609,-0.704386,39.6032,0.136118,
2,0,0,1,0,46456.3,0.134936,0.134595,-1.49886,24,0.0133416,10,-0.00020174,-2.82424,-0.0890494,-0.662554,38.7472,0.134595,
2,0,0,1,0,46456.3,0.133438,0.133113,-1.56004,24,0.0132256,10,-0.000207662,-2.80686,-0.0903279,-0.653176,39.817,0.133113,
2,0,0,1,0,46456.4,0.13194,0.13162,-1.62077,24,0.0131052,10,-0.000213326,-2.79028,-0.0929052,-0.635056,40.2463,0.13162,
2,0,0,1,0,46456.5,0.130442,0.130121,-1.6827,24,0.0129802,10,-0.000218954,-2.77399,-0.0961999,-0.613306,40.1652,0.130121,
2,0,0,1,0,46456.6,0.128942,0.128622,-1.7414,24,0.0128503,10,-0.000223982,-2.7591,-0.106252,-0.555282,37.6475,0.128622,
2,0,0,1,0,46456.6,0.127446,0.127166,-1.80117,24,0.0127166,10,-0.000229049,-2.74444,-0.115999,-0.508626,35.6069,0.127166,
2,0,0,1,0,46456.7,0.125947,0.125632,-1.84912,24,0.0125786,10,-0.000232309,-2.73303,-0.126689,-0.465709,33.5721,0.125632,
2,0,0,1,0,46456.8,0.124449,0.124133,-1.89954,24,0.0124369,10,-0.000235795,-2.72135,-0.128624,-0.458702,33.9516,0.124133,
2,0,0,1,0,46456.9,0.122951,0.122623,-1.94806,24,0.0122914,10,-0.000238877,-2.7104,-0.144476,-0.408373,30.9957,0.1226235,
2,0,0,1,0,46456.9,0.121453,0.121114,-1.9937,24,0.0121424,10,-0.000241464,-2.70034,-0.166357,-0.354658,27.532,0.121114,
2,0,0,1,0,46457,0.119955,0.119664,-2.02906,24,0.0119905,10,-0.000242806,-2.6927,-0.18298,-0.32244,25.5577,0.119664,
2,0,0,1,0,46457.1,0.118456,0.118168,-2.06892,24,0.0118356,10,-0.00024448,-2.68426,-0.18947,-0.311395,25.0901,0.118168,
2,0,0,1,0,46457.2,0.116958,0.116642,-2.10396,24,0.0116779,10,-0.000245409,-2.67696,-0.231939,-0.254377,20.8175,0.116642,
2,0,0,1,0,46457.2,0.11546,0.115136,-2.13088,24,0.0115181,10,-0.000245341,-2.67144,-0.322076,-0.183186,15.1903,0.115136,
2,0,0,1,0,46457.3,0.113962,0.113632,-2.14938,24,0.0113564,10,-0.000244239,-2.66769,-0.386865,-0.152508,12.779,0.113632,
2,0,0,1,0,46457.4,0.112462,0.112129,-2.17004,24,0.0111932,10,-0.000243324,-2.66353,-0.460208,-0.128203,10.8334,0.112129,
2,0,0,1,0,46457.5,0.110967,0.110679,-2.18185,24,0.0110292,10,-0.000241485,-2.66117,-0.712422,-0.0828161,7.03517,0.110679,
2,0,0,1,0,46457.5,0.109467,0.109161,-2.18814,24,0.0108639,10,-0.000238858,-2.65993,-1.5237,-0.0387216,3.30418,0.109161,
2,0,0,1,0,46457.6,0.107969,0.107643,-2.1933,24,0.0106984,10,-0.000236095,-2.6589,-5.60024,-0.0105353,0.900672,0.107643,
2,0,0,1,0,46457.7,0.106471,0.106152,-2.19139,24,0.010533,10,-0.00023262,-2.65928,4.81451,0.0122546,-1.04846,0.106152,
2,0,0,1,0,46457.8,0.104973,0.104677,-2.18801,24,0.0103677,10,-0.000229035,-2.65995,1.94136,0.0303911,-2.59058,0.1046773,
2,0,0,1,0,46457.8,0.103474,0.103185,-2.18433,24,0.0102025,10,-0.000225391,-2.66068,0.882465,0.0668582,-5.69013,0.103185,
2,0,0,1,0,46457.9,0.101976,0.101641,-2.17714,24,0.010038,10,-0.000221287,-2.66211,0.698134,0.084511,-7.16646,0.1016414,
2,0,0,1,0,46458,0.100478,0.10016,-2.16005,24,0.00987441,10,-0.00021635,-2.66554,0.565632,0.104308,-8.79435,0.10016,
2,0,0,1,0,46458.1,0.0989798,0.0986796,-2.1486,24,0.00971168,10,-0.000212023,-2.66784,0.662533,0.0890522,-7.47129,0.0986796,
2,0,0,1,0,46458.1,0.0974817,0.0971438,-2.14078,24,0.00954986,10,-0.000207964,-2.66943,0.553683,0.106559,-8.88895,0.0971438,
2,0,0,1,0,46458.2,0.0959821,0.0956804,-2.12482,24,0.00938869,10,-0.000203304,-2.67268,0.548403,0.107585,-8.92079,0.0956804,
2,0,0,1,0,46458.3,0.0944866,0.0941888,-2.10681,24,0.00922914,10,-0.000198438,-2.67637,0.548506,0.107565,-8.86037,0.0941888,
2,0,0,1,0,46458.4,0.0929871,0.0927086,-2.09669,24,0.00907017,10,-0.000194381,-2.67847,0.696866,0.0846648,-6.93221,0.0927086,
2,0,0,1,0,46458.4,0.0914889,0.091194,-2.08835,24,0.00891222,10,-0.000190445,-2.6802,0.644911,0.0914855,-7.4421,0.091194,
2,0,0,1,0,46458.5,0.0899907,0.0896824,-2.07524,24,0.00875516,10,-0.000186112,-2.68293,0.509841,0.115722,-9.35471,0.0896824,
2,0,0,1,0,46458.6,0.0884925,0.0881656,-2.05588,24,0.00859905,10,-0.000181258,-2.687,0.557627,0.105805,-8.50854,0.0881656,
2,0,0,1,0,46458.7,0.0869943,0.0867075,-2.04768,24,0.00844408,10,-0.000177549,-2.68874,0.548145,0.107636,-8.61273,0.0867075,
2,0,0,1,0,46458.7,0.0854961,0.0851912,-2.03821,24,0.00828982,10,-0.000173637,-2.69075,0.645999,0.0913314,-7.26415,0.0851912,
2,0,0,1,0,46458.8,0.083998,0.0837161,-2.02769,24,0.00813636,10,-0.00016975,-2.693,0.615166,0.0959091,-7.5805,0.0837161,
2,0,0,1,0,46458.9,0.0824998,0.0822038,-2.01603,24,0.00798364,10,-0.000165725,-2.6955,0.583747,0.101071,-7.95278,0.0822038,
2,0,0,1,0,46459,0.081002,0.0807049,-2.0055,24,0.0078319,10,-0.000161853,-2.69778,0.663956,0.0888613,-6.95816,0.0807049,
2,0,0,1,0,46459,0.0795025,0.0791993,-1.99542,24,0.00768071,10,-0.000158036,-2.69996,0.935135,0.0630925,-4.91325,0.0791993,
2,0,0,1,0,46459.1,0.078007,0.0777263,-1.98538,24,0.0075306,10,-0.000154316,-2.70216,0.682144,0.086492,-6.69751,0.07772629,
2,0,0,1,0,46459.2,0.076507,0.0761851,-1.97564,24,0.00738074,10,-0.000150514,-2.70429,0.599901,0.0983495,-7.57346,0.0761851,
2,0,0,1,0,46459.3,0.0750088,0.0747083,-1.96237,24,0.00723208,10,-0.000146605,-2.70722,0.656788,0.0898311,-6.88868,0.0747083,
2,0,0,1,0,46459.3,0.0735106,0.0731891,-1.95357,24,0.00708419,10,-0.00014298,-2.70917,0.768293,0.0767936,-5.85296,0.0731891,
2,0,0,1,0,46459.4,0.0720124,0.0717347,-1.94298,24,0.00693696,10,-0.000139379,-2.71153,0.66006,0.0893858,-6.7826,0.0717347,
2,0,0,1,0,46459.5,0.0705142,0.0701992,-1.93387,24,0.00679046,10,-0.000135756,-2.71357,0.585301,0.100803,-7.59966,0.0701992,
2,0,0,1,0,46459.6,0.069016,0.068699,-1.91952,24,0.00664484,10,-0.000131869,-2.71681,0.608667,0.0969332,-7.27103,0.068699,
2,0,0,1,0,46459.6,0.0675179,0.0672292,-1.91135,24,0.00650014,10,-0.000128498,-2.71866,0.67237,0.0877493,-6.55156,0.0672292,
2,0,0,1,0,46459.7,0.0660179,0.0657293,-1.90319,24,0.00635596,10,-0.000125095,-2.72052,0.669932,0.0880686,-6.52797,0.06572932,
2,0,0,1,0,46459.8,0.0645224,0.0642443,-1.89167,24,0.00621281,10,-0.000121529,-2.72315,0.605162,0.0974945,-7.17602,0.0642443,
2,0,0,1,0,46459.9,0.0630228,0.0627329,-1.87629,24,0.00607019,10,-0.000117705,-2.7267,0.559309,0.105487,-7.7324,0.06273295,
2,0,0,1,0,46459.9,0.0615251,0.0612178,-1.86826,24,0.00592875,10,-0.000114371,-2.72856,0.617903,0.0954843,-6.96472,0.0612178,
2,0,0,1,0,46460,0.0600269,0.0597254,-1.85681,24,0.00578808,10,-0.000110899,-2.73123,0.595251,0.0991178,-7.18238,0.0597254,
2,0,0,1,0,46460.1,0.0585287,0.0582334,-1.84666,24,0.00564812,10,-0.000107537,-2.73361,0.484999,0.12165,-8.75197,0.0582334,
2,0,0,1,0,46460.2,0.0570305,0.0567136,-1.83282,24,0.00550907,10,-0.000103946,-2.73688,0.499512,0.118115,-8.45693,0.0567136,
2,0,0,1,0,46460.2,0.0555323,0.055219,-1.82113,24,0.00537104,10,-0.000100561,-2.73966,0.555097,0.106288,-7.56529,0.055219,
2,0,0,1,0,46460.3,0.0540341,0.0537303,-1.81184,24,0.00523377,10,-9.73506e-05,-2.74188,0.622205,0.094824,-6.70007,0.0537303,
2,0,0,1,0,46460.4,0.052536,0.0522029,-1.80076,24,0.00509716,10,-9.40049e-05,-2.74454,0.508967,0.115921,-8.13126,0.0522029,
2,0,0,1,0,46460.5,0.0510378,0.0506971,-1.78904,24,0.00496148,10,-9.06993e-05,-2.74738,0.458263,0.128747,-8.98443,0.0506971,
2,0,0,1,0,46460.5,0.0495382,0.0492271,-1.7745,24,0.00482676,10,-8.73537e-05,-2.75092,0.488222,0.120847,-8.37605,0.0492271,
2,0,0,1,0,46460.6,0.0480427,0.047711,-1.76244,24,0.00469324,10,-8.40878e-05,-2.75389,0.665916,0.0885998,-6.09242,0.047711,
2,0,0,1,0,46460.7,0.0465432,0.046218,-1.74812,24,0.00456016,10,-8.07947e-05,-2.75743,0.494813,0.119237,-8.14661,0.046218,
2,0,0,1,0,46460.8,0.045045,0.044713,-1.73861,24,0.00442816,10,-7.77382e-05,-2.7598,0.451286,0.130738,-8.85961,0.044713,
2,0,0,1,0,46460.8,0.0435468,0.0432477,-1.72209,24,0.00429724,10,-7.44763e-05,-2.76394,0.421517,0.139971,-9.42836,0.0432477,
2,0,0,1,0,46460.9,0.0420486,0.0417235,-1.71222,24,0.00416736,10,-7.14399e-05,-2.76644,0.459077,0.128519,-8.58947,0.0417235,
2,0,0,1,0,46461,0.0405504,0.0402542,-1.7008,24,0.00403831,10,-6.84645e-05,-2.76935,0.459737,0.128334,-8.5066,0.0402542,
2,0,0,1,0,46461.1,0.0390523,0.0387243,-1.6881,24,0.00391013,10,-6.53706e-05,-2.7726,0.39646,0.148817,-9.78146,0.0387243,
2,0,0,1,0,46461.1,0.0375541,0.0372416,-1.67191,24,0.00378305,10,-6.22647e-05,-2.77679,0.397048,0.148596,-9.70128,0.0372416,
2,0,0,1,0,46461.2,0.0360559,0.0357146,-1.6587,24,0.00365715,10,-5.92396e-05,-2.78023,0.434598,0.135757,-8.79235,0.0357146,
2,0,0,1,0,46461.3,0.0345577,0.0342969,-1.6445,24,0.00353217,10,-5.64014e-05,-2.78397,0.482033,0.122398,-7.85973,0.0342969,
2,0,0,1,0,46461.4,0.0330582,0.032733,-1.63352,24,0.00340796,10,-5.34699e-05,-2.78688,0.418159,0.141095,-8.98093,0.032733,
2,0,0,1,0,46461.4,0.0315626,0.0312062,-1.62024,24,0.00328509,10,-5.05614e-05,-2.79042,0.418967,0.140822,-8.89917,0.0312062,
2,0,0,1,0,46461.5,0.0300631,0.0297669,-1.60435,24,0.00316302,10,-4.77564e-05,-2.7947,0.424466,0.138998,-8.71479,0.0297669,
2,0,0,1,0,46461.6,0.0285649,0.0282568,-1.59428,24,0.00304196,10,-4.50494e-05,-2.79743,0.492642,0.119762,-7.44213,0.0282568,
2,0,0,1,0,46461.7,0.0270667,0.0267427,-1.58339,24,0.00292172,10,-4.2344e-05,-2.80041,0.514869,0.114592,-7.07407,0.0267427,
2,0,0,1,0,46461.7,0.0255685,0.0252231,-1.57104,24,0.00280242,10,-3.96266e-05,-2.80381,0.427894,0.137885,-8.45416,0.0252231,
2,0,0,1,0,46461.8,0.0240704,0.0237606,-1.55349,24,0.00268412,10,-3.69117e-05,-2.80869,0.452167,0.130483,-7.9333,0.0237606,
2,0,0,1,0,46461.9,0.0225722,0.0222512,-1.54473,24,0.0025667,10,-3.43721e-05,-2.81115,0.46642,0.126495,-7.6323,0.02225117,
2,0,0,1,0,46462,0.021074,0.020748,-1.53542,24,0.00245006,10,-3.1857e-05,-2.81377,0.472303,0.12492,-7.49189,0.020748,
2,0,0,1,0,46462,0.0195758,0.0192804,-1.52508,24,0.00233423,10,-2.94042e-05,-2.81671,0.47476,0.124273,-7.39086,0.0192804,
2,0,0,1,0,46462.1,0.018078,0.0177741,-1.51107,24,0.00221916,10,-2.6858e-05,-2.82072,0.571465,0.103243,-6.10459,0.01777414,
2,0,0,1,0,46462.2,0.0165785,0.0162511,-1.50475,24,0.00210475,10,-2.44538e-05,-2.82254,0.73975,0.0797566,-4.69053,0.0162511,
2,0,0,1,0,46462.3,0.015083,0.0147829,-1.49756,24,0.0019912,10,-2.21383e-05,-2.82461,0.7879,0.0748826,-4.37884,0.0147829,
2,0,0,1,0,46462.3,0.013583,0.0132616,-1.49073,24,0.00187786,10,-1.97695e-05,-2.8266,0.584597,0.100924,-5.86504,0.0132616,
2,0,0,1,0,46462.4,0.0120848,0.0117664,-1.48047,24,0.00176526,10,-1.74198e-05,-2.8296,0.641433,0.0919815,-5.32514,0.0117664,
2,0,0,1,0,46462.5,0.0105866,0.0102722,-1.47365,24,0.00165336,10,-1.51377e-05,-2.83161,0.759402,0.0776927,-4.47815,0.0102722,
2,0,0,1,0,46462.6,0.00908846,0.00876961,-1.4715,24,0.00154181,10,-1.29045e-05,-2.83224,1.21204,0.0486782,-2.79323,0.00876961,
2,0,0,1,0,46462.6,0.00759027,0.00729921,-1.46575,24,0.00143061,10,-1.06988e-05,-2.83394,0.980677,0.0601625,-3.43935,0.00729921,
2,0,0,1,0,46462.7,0.00609208,0.00575737,-1.46239,24,0.00131972,10,-8.41954e-06,-2.83494,1.36709,0.0431575,-2.46151,0.00575737,
2,0,0,1,0,46462.8,0.00459389,0.00429261,-1.45622,24,0.00120923,10,-6.25101e-06,-2.83677,1.9144,0.0308191,-1.75496,0.00429261,
2,0,0,1,0,46462.9,0.00309391,0.00279988,-1.45752,24,0.00109874,10,-4.0809e-06,-2.83638,-1.83116,-0.0322201,1.83515,0.002799884,
2,0,0,1,0,46462.9,0.0015984,0.00127358,-1.46992,24,0.000987771,10,-1.87206e-06,-2.83271, , , ,0.00127358,
2,0,0,1,0,46463,0.000199195,-0.000137683,-1.45588,24,0.000884157,10,2.00449e-07,-2.83688, , , ,-0.000137683,