File: Figure_codes/Fig_3-5/rawdata_trumpetplot_data/after 10th/20221101_1-115_003_TrumpetPlot_ParaChange_from10_every3_05_CV_C01_21.csv
mode,ox/red,error,control changes,counter inc.,time/s,control/V,Ewe/V,<I>/mA,cycle number,(Q-Qo)/C,I Range,P/W,log(|I|),Tafel slope mV/dec,alpha_eff,dI/d(E-IR),E-IR/V,
2,0,0,1,0,42492.8,2.44065e-05,-0.000344411,-0.736698,22,0.0000000E+000,10,2.53727e-07,-3.13271, , , ,-0.000344411,
2,0,0,1,0,42492.8,0.00129787,0.00091417,0.0392333,22,-1.49641e-05,10,3.58659e-08,-4.40634, , , ,0.00091417,
2,1,0,1,0,42492.9,0.00279606,0.00248486,0.383109,22,3.89143e-06,10,9.5197e-07,-3.41668,0.00743057,7.94017,178.056,0.00248486,
2,1,0,1,0,42493,0.00429425,0.00400201,0.52694,22,3.98077e-05,10,2.10882e-06,-3.27824,0.0124559,4.73672,82.4986,0.00400201,
2,1,0,1,0,42493,0.00579244,0.00547714,0.604843,22,8.3764e-05,10,3.31281e-06,-3.21836,0.0269991,2.18526,49.4507,0.00547714,
2,1,0,1,0,42493.1,0.00729063,0.00698005,0.668307,22,0.000132841,10,4.66482e-06,-3.17502,0.0434482,1.35794,34.5176,0.00698005,
2,1,0,1,0,42493.2,0.00878882,0.00844513,0.712146,22,0.000185712,10,6.01417e-06,-3.14743,0.0607156,0.971744,26.59,0.00844513,
2,1,0,1,0,42493.3,0.010287,0.0099548,0.743803,22,0.000241507,10,7.40441e-06,-3.12854,0.0820442,0.719124,20.711,0.0099548,
2,1,0,1,0,42493.3,0.0117852,0.0114526,0.773485,22,0.000299755,10,8.85839e-06,-3.11155,0.0912894,0.646296,19.4197,0.0114526,
2,1,0,1,0,42493.4,0.0132847,0.012943,0.800575,22,0.000359943,10,1.03618e-05,-3.0966,0.104796,0.563001,17.5917,0.012943,
2,1,0,1,0,42493.5,0.0147802,0.0144445,0.823194,22,0.000421921,10,1.18906e-05,-3.0845,0.118315,0.498667,15.9916,0.0144445,
2,1,0,1,0,42493.6,0.0162798,0.0159688,0.84801,22,0.000485955,10,1.35417e-05,-3.0716,0.138903,0.424758,13.9977,0.0159688,
2,1,0,1,0,42493.6,0.017778,0.0174512,0.868738,22,0.000551473,10,1.51605e-05,-3.06111,0.154292,0.382392,12.9166,0.0174512,
2,1,0,1,0,42493.7,0.0192761,0.0189478,0.886521,22,0.000618328,10,1.67977e-05,-3.05231,0.156758,0.376375,13.0336,0.01894784,
2,1,0,1,0,42493.8,0.0207743,0.0204454,0.907559,22,0.000686689,10,1.85554e-05,-3.04212,0.154107,0.382851,13.5216,0.0204454,
2,1,0,1,0,42493.9,0.0222725,0.021959,0.925011,22,0.000756577,10,2.03123e-05,-3.03385,0.172836,0.341365,12.3111,0.021959,
2,1,0,1,0,42493.9,0.0237707,0.0234827,0.943862,22,0.000827857,10,2.21644e-05,-3.02509,0.186134,0.316977,11.6796,0.0234827,
2,1,0,1,0,42494,0.0252689,0.02498,0.95862,22,0.000900366,10,2.39464e-05,-3.01835,0.183152,0.322138,12.1134,0.02498,
2,1,0,1,0,42494.1,0.0267671,0.026434,0.982636,22,0.000974243,10,2.5975e-05,-3.00761,0.171312,0.344401,13.1793,0.026434,
2,1,0,1,0,42494.2,0.0282653,0.0279715,1.00145,22,0.00104968,10,2.80121e-05,-2.99937,0.173566,0.339929,13.2432,0.0279715,
2,1,0,1,0,42494.2,0.0297644,0.0294131,1.01819,22,0.00112667,10,2.99481e-05,-2.99217,0.198396,0.297385,11.8008,0.0294131,
2,1,0,1,0,42494.3,0.0312599,0.0309711,1.03439,22,0.00120475,10,3.20362e-05,-2.98531,0.19283,0.305969,12.3918,0.0309711,
2,1,0,1,0,42494.4,0.0327599,0.0324092,1.05471,22,0.00128427,10,3.41823e-05,-2.97687,0.197775,0.298319,12.2893,0.0324092,
2,1,0,1,0,42494.5,0.034258,0.0339345,1.07234,22,0.00136526,10,3.63892e-05,-2.96967,0.186227,0.316817,13.2457,0.0339345,
2,1,0,1,0,42494.5,0.0357562,0.0354632,1.09269,22,0.00144766,10,3.87505e-05,-2.9615,0.223503,0.263979,11.2423,0.0354632,
2,1,0,1,0,42494.6,0.0372544,0.0369245,1.10922,22,0.00153139,10,4.09573e-05,-2.95498,0.207927,0.283753,12.3016,0.0369245,
2,1,0,1,0,42494.7,0.0387526,0.0384026,1.1286,22,0.00161642,10,4.33413e-05,-2.94746,0.208544,0.282914,12.4855,0.0384026,
2,1,0,1,0,42494.8,0.0402508,0.0399095,1.14814,22,0.00170295,10,4.58218e-05,-2.94,0.211563,0.278877,12.499,0.0399095,
2,1,0,1,0,42494.8,0.041749,0.041441,1.16699,22,0.00179103,10,4.83614e-05,-2.93293,0.223161,0.264383,12.0332,0.041441,
2,1,0,1,0,42494.9,0.0432472,0.0429315,1.19042,22,0.00188042,10,5.11067e-05,-2.9243,0.229121,0.257506,11.9092,0.0429315,
2,1,0,1,0,42495,0.0447449,0.0444366,1.20361,22,0.00197101,10,5.34843e-05,-2.91951,0.222249,0.265468,12.4666,0.0444366,
2,1,0,1,0,42495.1,0.0462445,0.0458973,1.22186,22,0.00206314,10,5.608e-05,-2.91298,0.221661,0.266172,12.6613,0.0458973,
2,1,0,1,0,42495.1,0.04774,0.0473776,1.23863,22,0.00215649,10,5.86833e-05,-2.90706,0.211917,0.278411,13.457,0.0473776,
2,1,0,1,0,42495.2,0.0492399,0.0488848,1.25769,22,0.00225143,10,6.14819e-05,-2.90043,0.256232,0.23026,11.2799,0.0488848,
2,1,0,1,0,42495.3,0.0507381,0.050393,1.27032,22,0.00234747,10,6.40153e-05,-2.89609,0.266198,0.22164,11.0181,0.050393,
2,1,0,1,0,42495.4,0.0522363,0.0519297,1.29108,22,0.00244477,10,6.70452e-05,-2.88905,0.252033,0.234097,11.81,0.0519297,
2,1,0,1,0,42495.4,0.0537345,0.0534373,1.31223,22,0.00254343,10,7.01223e-05,-2.88199,0.265826,0.22195,11.3336,0.0534373,
2,1,0,1,0,42495.5,0.0552327,0.0549294,1.32813,22,0.00264342,10,7.29535e-05,-2.87676,0.316904,0.186176,9.62608,0.0549294,
2,1,0,1,0,42495.6,0.0567309,0.0564191,1.34029,22,0.00274453,10,7.56177e-05,-2.8728,0.321678,0.183413,9.59881,0.0564191,
2,1,0,1,0,42495.7,0.0582291,0.057928,1.35463,22,0.00284672,10,7.84711e-05,-2.86818,0.293125,0.20128,10.6542,0.05792797,
2,1,0,1,0,42495.7,0.0597291,0.059433,1.37226,22,0.00295024,10,8.15574e-05,-2.86256,0.297075,0.198603,10.6267,0.059433,
2,1,0,1,0,42495.8,0.0612246,0.0608717,1.38878,22,0.00305476,10,8.45375e-05,-2.85737,0.330399,0.178572,9.66079,0.0608717,
2,1,0,1,0,42495.9,0.0627241,0.062417,1.40321,22,0.00316068,10,8.7584e-05,-2.85288,0.329016,0.179323,9.81549,0.062417,
2,1,0,1,0,42496,0.0642218,0.0639357,1.41607,22,0.00326735,10,9.05377e-05,-2.84891,0.332483,0.177453,9.82526,0.0639357,
2,1,0,1,0,42496,0.06572,0.0653786,1.43095,22,0.00337525,10,9.35538e-05,-2.84437,0.325987,0.180989,10.0947,0.0653786,
2,1,0,1,0,42496.1,0.0672182,0.0669105,1.44729,22,0.00348429,10,9.68392e-05,-2.83944,0.380952,0.154875,8.7285,0.0669105,
2,1,0,1,0,42496.2,0.0687164,0.068342,1.4591,22,0.00359427,10,9.97176e-05,-2.83592,0.452846,0.130287,7.39918,0.068342,
2,1,0,1,0,42496.3,0.0702146,0.0699013,1.46581,22,0.00370504,10,0.000102462,-2.83392,0.441392,0.133668,7.66631,0.0699013,
2,1,0,1,0,42496.3,0.0717128,0.0713723,1.48072,22,0.00381676,10,0.000105683,-2.82953,0.356576,0.165463,9.56338,0.0713723,
2,1,0,1,0,42496.4,0.073211,0.0728971,1.49446,22,0.00392944,10,0.000108942,-2.82552,0.464088,0.127131,7.41385,0.0728971,
2,1,0,1,0,42496.5,0.0747092,0.0743729,1.50298,22,0.00404298,10,0.000111781,-2.82305,0.499944,0.118013,6.92823,0.0743729,
2,1,0,1,0,42496.6,0.0762087,0.0758666,1.51335,22,0.00415741,10,0.000114812,-2.82006,0.49498,0.119197,7.05099,0.0758666,
2,1,0,1,0,42496.6,0.0777042,0.0773659,1.5228,22,0.00427225,10,0.000117813,-2.81736,0.458977,0.128547,7.65175,0.0773659,
2,1,0,1,0,42496.7,0.0792037,0.0788868,1.53823,22,0.0043883,10,0.000121346,-2.81298,0.502021,0.117525,7.04177,0.0788868,
2,1,0,1,0,42496.8,0.0807019,0.0803634,1.54843,22,0.00450495,10,0.000124437,-2.81011,0.69013,0.0854911,5.15115,0.0803634,
2,1,0,1,0,42496.9,0.0822001,0.0818975,1.5536,22,0.00462232,10,0.000127236,-2.80866,0.595497,0.0990769,6.00947,0.0818975,
2,1,0,1,0,42496.9,0.0836983,0.0833986,1.56454,22,0.00474023,10,0.000130481,-2.80561,0.579989,0.101726,6.2163,0.0833986,
2,1,0,1,0,42497,0.0851965,0.0848315,1.57548,22,0.00485901,10,0.00013365,-2.80259,0.459082,0.128517,7.90743,0.0848315,
2,1,0,1,0,42497.1,0.0866947,0.0863765,1.58593,22,0.00497865,10,0.000136987,-2.79972,0.549748,0.107322,6.642,0.0863765,
2,1,0,1,0,42497.2,0.0881929,0.0878888,1.59838,22,0.0050992,10,0.00014048,-2.79632,0.486107,0.121372,7.57234,0.0878888,
2,1,0,1,0,42497.2,0.0896911,0.08937,1.61054,22,0.00522052,10,0.000143934,-2.79303,0.386985,0.152461,9.59857,0.08937,
2,1,0,1,0,42497.3,0.0911893,0.0908509,1.62705,22,0.00534296,10,0.000147819,-2.7886,0.328699,0.179495,11.3898,0.0908509,
2,1,0,1,0,42497.4,0.0926883,0.0924161,1.64654,22,0.0054669,10,0.000152167,-2.78343,0.328385,0.179667,11.5363,0.0924161,
2,1,0,1,0,42497.5,0.0941839,0.0938861,1.65981,22,0.00559174,10,0.000155833,-2.77994,0.324096,0.182045,11.8122,0.0938861,
2,1,0,1,0,42497.5,0.0956838,0.0953551,1.67668,22,0.00571814,10,0.00015988,-2.77555,0.284824,0.207146,13.5961,0.0953551,
2,1,0,1,0,42497.6,0.097182,0.0968545,1.70078,22,0.00584597,10,0.000164728,-2.76935,0.236892,0.249059,16.5515,0.0968545,
2,1,0,1,0,42497.7,0.0986802,0.0983339,1.72483,22,0.00597555,10,0.00016961,-2.76325,0.237389,0.248537,16.7571,0.09833394,
2,1,0,1,0,42497.8,0.100178,0.0998675,1.75105,22,0.00610709,10,0.000174873,-2.7567,0.227359,0.259501,17.7397,0.0998675,
2,1,0,1,0,42497.8,0.101677,0.101292,1.7768,22,0.00624056,10,0.000179976,-2.75036,0.216042,0.273095,18.9641,0.1012923,
2,1,0,1,0,42497.9,0.103175,0.102815,1.80908,22,0.00637603,10,0.000186001,-2.74254,0.209814,0.281202,19.8771,0.102815,
2,1,0,1,0,42498,0.104673,0.104323,1.84255,22,0.00651389,10,0.00019222,-2.73458,0.189409,0.311496,22.3767,0.104323,
2,1,0,1,0,42498.1,0.106171,0.105827,1.87334,22,0.00665431,10,0.000198249,-2.72738,0.202441,0.291443,21.2648,0.105827,
2,1,0,1,0,42498.1,0.107669,0.107339,1.90316,22,0.00679715,10,0.000204283,-2.72052,0.210006,0.280944,20.8584,0.107339,
2,1,0,1,0,42498.2,0.109168,0.10882,1.93362,22,0.00694228,10,0.000210416,-2.71363,0.217942,0.270714,20.4621,0.10882,
2,1,0,1,0,42498.3,0.110664,0.110349,1.96428,22,0.00708946,10,0.000216755,-2.7068,0.215508,0.273772,21.0097,0.110349,
2,1,0,1,0,42498.4,0.112164,0.111837,1.99635,22,0.00723937,10,0.000223266,-2.69976,0.253264,0.232959,18.1163,0.111837,
2,1,0,1,0,42498.4,0.113662,0.113326,2.02727,22,0.00739132,10,0.000229742,-2.69309,0.281373,0.209686,16.5314,0.113326,
2,1,0,1,0,42498.5,0.11516,0.114837,2.04962,22,0.00754494,10,0.000235372,-2.68833,0.302819,0.194836,15.5831,0.1148369,
2,1,0,1,0,42498.6,0.116658,0.116308,2.07174,22,0.00770044,10,0.000240959,-2.68366,0.287208,0.205426,16.5767,0.116308,
2,1,0,1,0,42498.7,0.118157,0.117811,2.09824,22,0.00785788,10,0.000247195,-2.67815,0.348545,0.169275,13.8234,0.117811,
2,1,0,1,0,42498.7,0.119655,0.119347,2.11425,22,0.00801686,10,0.000252329,-2.67484,0.439245,0.134321,11.0695,0.119347,
2,1,0,1,0,42498.8,0.121153,0.120835,2.12725,22,0.00817696,10,0.000257045,-2.67218,0.520095,0.113441,9.42897,0.120835,
2,1,0,1,0,42498.9,0.122653,0.12235,2.14494,22,0.00833836,10,0.000262435,-2.66858,0.450743,0.130895,10.9419,0.12235,
2,1,0,1,0,42499,0.124149,0.123818,2.15543,22,0.00850051,10,0.000266881,-2.66647,0.512493,0.115124,9.68619,0.123818,
2,1,0,1,0,42499,0.125648,0.125303,2.17041,22,0.00866411,10,0.000271958,-2.66346,0.726276,0.0812363,6.87333,0.125303,
2,1,0,1,0,42499.1,0.127146,0.126788,2.17679,22,0.00882821,10,0.00027599,-2.66218,0.671425,0.0878728,7.47541,0.126788,
2,1,0,1,0,42499.2,0.128644,0.1283,2.18885,22,0.00899294,10,0.000280829,-2.65978,0.705983,0.0835714,7.1389,0.1283,
2,1,0,1,0,42499.3,0.130142,0.129794,2.19876,22,0.00915855,10,0.000285385,-2.65782,0.875409,0.0673971,5.77561,0.129794,
2,1,0,1,0,42499.3,0.13164,0.131291,2.20532,22,0.0093249,10,0.00028954,-2.65653,1.75492,0.0336198,2.88972,0.131291,
2,1,0,1,0,42499.4,0.133139,0.132837,2.21377,22,0.00949172,10,0.000294071,-2.65487,3.26523,0.0180692,1.55804,0.132837,
2,1,0,1,0,42499.5,0.134637,0.134305,2.21215,22,0.00965858,10,0.000297104,-2.65519,-5.89045,-0.0100162,-0.864802,0.134305,
2,1,0,1,0,42499.6,0.136135,0.135834,2.21077,22,0.0098255,10,0.000300299,-2.65546,-1.63574,-0.0360694,-3.10342,0.135834,
2,1,0,1,0,42499.6,0.137633,0.137291,2.20433,22,0.00999215,10,0.000302634,-2.65672,-0.573084,-0.102952,-8.8162,0.137291,
2,1,0,1,0,42499.7,0.139133,0.1388,2.1898,22,0.0101581,10,0.000303945,-2.6596,-0.361784,-0.163081,-13.8623,0.1388,
2,1,0,1,0,42499.8,0.140628,0.140283,2.16177,22,0.0103218,10,0.000303258,-2.66519,-0.255263,-0.231134,-19.4236,0.140283,
2,1,0,1,0,42499.9,0.142128,0.141781,2.12529,22,0.0104838,10,0.000301324,-2.67258,-0.204168,-0.288978,-23.8688,0.141781,
2,1,0,1,0,42499.9,0.143626,0.143307,2.08328,22,0.0106427,10,0.000298548,-2.68125,-0.147024,-0.401296,-32.485,0.143307,
2,1,0,1,0,42500,0.145124,0.144798,2.02723,22,0.0107979,10,0.000293539,-2.6931,-0.114587,-0.514892,-40.5888,0.144798,
2,1,0,1,0,42500.1,0.146622,0.146288,1.96314,22,0.0109486,10,0.000287184,-2.70705,-0.0990663,-0.595561,-45.4827,0.1462885,
2,1,0,1,0,42500.2,0.14812,0.147824,1.89234,22,0.0110942,10,0.000279733,-2.723,-0.0905743,-0.651399,-47.9558,0.147824,
2,1,0,1,0,42500.2,0.149619,0.149318,1.81857,22,0.0112344,10,0.000271545,-2.74027,-0.0816533,-0.722567,-51.114,0.1493178,
2,1,0,1,0,42500.3,0.151117,0.150769,1.74097,22,0.0113689,10,0.000262483,-2.75921,-0.0780442,-0.755982,-51.2682,0.150769,
2,1,0,1,0,42500.4,0.152615,0.152286,1.66054,22,0.0114974,10,0.000252877,-2.77975,-0.0753648,-0.782859,-50.8527,0.152286,
2,1,0,1,0,42500.5,0.154113,0.153758,1.58687,22,0.0116201,10,0.000243994,-2.79946,-0.076975,-0.766483,-47.583,0.153758,
2,1,0,1,0,42500.5,0.155613,0.155287,1.51833,22,0.0117377,10,0.000235777,-2.81863,-0.0804993,-0.732926,-43.5363,0.155287,
2,1,0,1,0,42500.6,0.157108,0.15678,1.45485,22,0.0118502,10,0.000228091,-2.83718,-0.0824886,-0.715251,-40.7269,0.15678,
2,1,0,1,0,42500.7,0.158608,0.15829,1.39976,22,0.0119583,10,0.000221568,-2.85395,-0.0880893,-0.669775,-36.6837,0.15829,
2,1,0,1,0,42500.8,0.160106,0.159792,1.34391,22,0.0120621,10,0.000214745,-2.87163,-0.0953268,-0.618924,-32.6143,0.159792,
2,1,0,1,0,42500.8,0.161604,0.161271,1.30226,22,0.0121624,10,0.000210017,-2.8853,-0.10796,-0.546501,-27.796,0.161271,
2,1,0,1,0,42500.9,0.163102,0.162786,1.26219,22,0.0122595,10,0.000205467,-2.89887,-0.115198,-0.512163,-25.282,0.162786,
2,1,0,1,0,42501,0.164601,0.164258,1.22763,22,0.0123539,10,0.000201648,-2.91093,-0.12791,-0.461261,-22.16,0.164258,
2,1,0,1,0,42501.1,0.166099,0.165782,1.19429,22,0.0124457,10,0.000197991,-2.92289,-0.144997,-0.406904,-19.0279,0.165782,
2,1,0,1,0,42501.1,0.167597,0.167279,1.1687,22,0.0125355,10,0.000195499,-2.9323,-0.175518,-0.336148,-15.3715,0.167279,
2,1,0,1,0,42501.2,0.169095,0.168783,1.14802,22,0.0126235,10,0.000193766,-2.94005,-0.185884,-0.317403,-14.2419,0.168783,
2,1,0,1,0,42501.3,0.170593,0.170278,1.12656,22,0.0127099,10,0.000191828,-2.94825,-0.196861,-0.299704,-13.2111,0.170278,
2,1,0,1,0,42501.4,0.172092,0.171748,1.10404,22,0.0127948,10,0.000189617,-2.95702,-0.223147,-0.2644,-11.4842,0.171748,
2,1,0,1,0,42501.4,0.173588,0.173255,1.09336,22,0.0128783,10,0.000189429,-2.96124,-0.27128,-0.217488,-9.28265,0.173255,
2,1,0,1,0,42501.5,0.175088,0.174767,1.07844,22,0.012961,10,0.000188475,-2.96721,-0.308702,-0.191123,-8.05084,0.174767,
2,1,0,1,0,42501.6,0.176586,0.17626,1.06803,22,0.0130425,10,0.000188252,-2.97142,-0.31083,-0.189814,-7.90935,0.17626,
2,1,0,1,0,42501.7,0.178084,0.177775,1.05325,22,0.0131231,10,0.000187242,-2.97747,-0.352007,-0.167611,-6.90913,0.177775,
2,1,0,1,0,42501.7,0.179582,0.179289,1.04582,22,0.0132029,10,0.000187504,-2.98054,-0.382711,-0.154163,-6.30787,0.1792887,
2,1,0,1,0,42501.8,0.181081,0.180784,1.03728,22,0.0132821,10,0.000187524,-2.9841,-0.468375,-0.125967,-5.10934,0.180784,
2,1,0,1,0,42501.9,0.182579,0.182286,1.02922,22,0.0133607,10,0.000187612,-2.98749,-0.379328,-0.155538,-6.24353,0.182286,
2,1,0,1,0,42502,0.184077,0.183767,1.02111,22,0.0134387,10,0.000187646,-2.99093,-0.429722,-0.137298,-5.47866,0.183767,
2,1,0,1,0,42502,0.185577,0.185269,1.01559,22,0.0135161,10,0.000188158,-2.99328,-0.519288,-0.113617,-4.50164,0.185269,
2,1,0,1,0,42502.1,0.187073,0.186747,1.0112,22,0.013593,10,0.000188839,-2.99516,-0.96824,-0.0609353,-2.39775,0.1867469,
2,1,0,1,0,42502.2,0.188572,0.188223,1.00564,22,0.0136697,10,0.000189285,-2.99756,-0.647349,-0.091141,-3.56969,0.188223,
2,1,0,1,0,42502.3,0.19007,0.189758,0.997825,22,0.013746,10,0.000189345,-3.00095,-0.579476,-0.101816,-3.97163,0.189758,
2,1,0,1,0,42502.3,0.191568,0.191267,0.991556,22,0.0138217,10,0.000189652,-3.00368,-0.704615,-0.0837337,-3.24741,0.191267,
2,1,0,1,0,42502.4,0.193066,0.192763,0.99023,22,0.0138972,10,0.00019088,-3.00426,-1.51157,-0.0390322,-1.50553,0.192763,
2,1,0,1,0,42502.5,0.194564,0.194234,0.987116,22,0.0139724,10,0.000191731,-3.00563,-0.937783,-0.0629143,-2.42046,0.194234,
2,1,0,1,0,42502.6,0.196063,0.195752,0.982783,22,0.0140473,10,0.000192382,-3.00754,-0.707786,-0.0833585,-3.19691,0.195752,
2,1,0,1,0,42502.6,0.197561,0.197216,0.973512,22,0.0141219,10,0.000191992,-3.01166,-0.822584,-0.0717252,-2.7382,0.1972158,
2,1,0,1,0,42502.7,0.199059,0.198724,0.976323,22,0.0141961,10,0.000194019,-3.01041,-0.859978,-0.0686064,-2.61151,0.198724,
2,1,0,1,0,42502.8,0.200557,0.200226,0.972966,22,0.0142702,10,0.000194813,-3.0119,-1.3961,-0.0422607,-1.60258,0.200226,
2,1,0,1,0,42502.9,0.202057,0.201735,0.968916,22,0.0143442,10,0.000195464,-3.01371,-1.1358,-0.0519456,-1.9621,0.201735,
2,1,0,1,0,42502.9,0.203552,0.203254,0.966256,22,0.0144177,10,0.000196396,-3.01491,-1.22693,-0.0480875,-1.8139,0.203254,
2,1,0,1,0,42503,0.205052,0.20471,0.962371,22,0.0144912,10,0.000197007,-3.01666,-5.58577,-0.0105626,-0.398528,0.2047103,
2,1,0,1,0,42503.1,0.20655,0.206234,0.962915,22,0.0145644,10,0.000198586,-3.01641,-3.20882,-0.0183868,-0.690185,0.206234,
2,1,0,1,0,42503.2,0.208048,0.207684,0.96034,22,0.0146378,10,0.000199447,-3.01758,-1.08867,-0.0541946,-2.02689,0.207684,
2,1,0,1,0,42503.2,0.209546,0.20922,0.957473,22,0.0147108,10,0.000200323,-3.01887,-1.03349,-0.0570878,-2.13517,0.20922,
2,1,0,1,0,42503.3,0.211044,0.210721,0.955436,22,0.0147835,10,0.00020133,-3.0198,-1.93151,-0.030546,-1.13773,0.210721,
2,1,0,1,0,42503.4,0.212543,0.212218,0.954518,22,0.0148561,10,0.000202566,-3.02022,-2.23346,-0.0264165,-0.981627,0.2122183,
2,1,0,1,0,42503.5,0.214041,0.213729,0.952724,22,0.0149286,10,0.000203624,-3.02103,-1.82988,-0.0322426,-1.19709,0.213729,
2,1,0,1,0,42503.5,0.215539,0.215163,0.950707,22,0.015001,10,0.000204557,-3.02195,-1.09758,-0.0537545,-1.99207,0.215163,
2,1,0,1,0,42503.6,0.217037,0.216755,0.945951,22,0.0150731,10,0.00020504,-3.02413,-2.67906,-0.0220227,-0.8148,0.2167553,
2,1,0,1,0,42503.7,0.218536,0.218207,0.943581,22,0.0151451,10,0.000205896,-3.02522,-13.0504,-0.00452093,-0.166776,0.218207,
2,1,0,1,0,42503.8,0.220032,0.219712,0.944607,22,0.015217,10,0.000207541,-3.02475,-17.8397,-0.00330724,-0.121874,0.2197118,
2,1,0,1,0,42503.8,0.221532,0.221207,0.943082,22,0.015289,10,0.000208617,-3.02545,-1.83135,-0.0322167,-1.18543,0.221207,
2,1,0,1,0,42503.9,0.22303,0.222732,0.937563,22,0.0153607,10,0.000208826,-3.028,-2.73208,-0.0215953,-0.793484,0.222732,
2,1,0,1,0,42504,0.224528,0.224244,0.936761,22,0.0154321,10,0.000210063,-3.02837,-2.70709,-0.0217947,-0.797997,0.224244,
2,1,0,1,0,42504.1,0.226026,0.225719,0.938347,22,0.0155036,10,0.000211803,-3.02764,-3.4432,-0.0171352,-0.626699,0.225719,
2,1,0,1,0,42504.1,0.227525,0.227206,0.935228,22,0.015575,10,0.000212489,-3.02908,-1.4727,-0.0400625,-1.46317,0.227206,
2,1,0,1,0,42504.2,0.229023,0.22872,0.933939,22,0.0156462,10,0.00021361,-3.02968,-1.56639,-0.0376663,-1.3765,0.22872,
2,1,0,1,0,42504.3,0.230521,0.230209,0.932891,22,0.0157172,10,0.00021476,-3.03017,-2.3388,-0.0252266,-0.918867,0.230209,
2,1,0,1,0,42504.4,0.232019,0.231665,0.931786,22,0.0157882,10,0.000215863,-3.03068,-3.60985,-0.0163442,-0.594436,0.231665,
2,1,0,1,0,42504.4,0.233517,0.233238,0.931489,22,0.0158592,10,0.000217259,-3.03082,-1.7818,-0.0331125,-1.20116,0.233238,
2,1,0,1,0,42504.5,0.235016,0.234703,0.930023,22,0.0159301,10,0.000218279,-3.03151,-3.42274,-0.0172376,-0.625625,0.234703,
2,1,0,1,0,42504.6,0.236512,0.236192,0.927041,22,0.0160006,10,0.00021896,-3.0329,-7.08164,-0.00833141,-0.302042,0.236192,
2,1,0,1,0,42504.7,0.238012,0.237726,0.926478,22,0.0160713,10,0.000220248,-3.03317,6.02525,0.00979213,0.353426,0.237726,
2,1,0,1,0,42504.7,0.23951,0.239211,0.924776,22,0.0161419,10,0.000221217,-3.03396,49.8943,0.0011825,0.0426915,0.239211,
2,1,0,1,0,42504.8,0.241008,0.240714,0.924192,22,0.0162123,10,0.000222466,-3.03424,-1.23207,-0.047887,-1.72854,0.240714,
2,1,0,1,0,42504.9,0.242506,0.242182,0.921307,22,0.0162826,10,0.000223124,-3.0356,-1.73219,-0.0340609,-1.2283,0.242182,
2,1,0,1,0,42505,0.244005,0.243677,0.920049,22,0.0163529,10,0.000224195,-3.03619,44.6778,0.00132057,0.0474905,0.243677,
2,1,0,1,0,42505,0.245503,0.245198,0.92328,22,0.0164231,10,0.000226387,-3.03467,-2.70808,-0.0217866,-0.783286,0.245198,
2,1,0,1,0,42505.1,0.247001,0.246723,0.922342,22,0.0164932,10,0.000227563,-3.03511,-3.11808,-0.0189219,-0.678127,0.246723,
2,1,0,1,0,42505.2,0.248501,0.248183,0.916998,22,0.0165633,10,0.000227583,-3.03763,-2.46506,-0.0239345,-0.857769,0.248183,
2,1,0,1,0,42505.3,0.249996,0.24966,0.915593,22,0.016633,10,0.000228587,-3.0383,-1.83947,-0.0320745,-1.14785,0.24966,
2,1,0,1,0,42505.3,0.251496,0.251179,0.918226,22,0.0167029,10,0.000230639,-3.03705,-10.6029,-0.00556453,-0.19866,0.2511785,
2,1,0,1,0,42505.4,0.252994,0.252685,0.914424,22,0.0167726,10,0.000231061,-3.03885,-2.67586,-0.022049,-0.785772,0.252685,
2,1,0,1,0,42505.5,0.254492,0.254172,0.913148,22,0.0168422,10,0.000232097,-3.03946,-2.45211,-0.0240609,-0.857819,0.254172,
2,1,0,1,0,42505.6,0.25599,0.25569,0.911386,22,0.0169117,10,0.000233032,-3.0403,20.2181,0.00291817,0.104144,0.25569,
2,1,0,1,0,42505.6,0.257488,0.257149,0.910078,22,0.0169811,10,0.000234025,-3.04092,-5.82663,-0.0101259,-0.359977,0.257149,
2,1,0,1,0,42505.7,0.258987,0.258726,0.910935,22,0.0170505,10,0.000235683,-3.04051,-1.94407,-0.0303486,-1.07627,0.258726,
2,1,0,1,0,42505.8,0.260485,0.260185,0.912321,22,0.0171199,10,0.000237372,-3.03985,-2.55299,-0.0231102,-0.820335,0.260185,
2,1,0,1,0,42505.9,0.261983,0.261692,0.907274,22,0.0171889,10,0.000237427,-3.04226,-1.8173,-0.0324657,-1.14892,0.261692,
2,1,0,1,0,42505.9,0.263481,0.263138,0.907031,22,0.017258,10,0.000238674,-3.04238,15.917,0.00370672,0.130944,0.263138,
2,1,0,1,0,42506,0.264981,0.264658,0.905927,22,0.0173271,10,0.000239761,-3.04291,-2.27054,-0.025985,-0.918289,0.264658,
2,1,0,1,0,42506.1,0.266476,0.266159,0.9039,22,0.0173959,10,0.000240581,-3.04388,-1.74336,-0.0338427,-1.1957,0.266159,
2,1,0,1,0,42506.2,0.267976,0.267648,0.898908,22,0.0174647,10,0.000240591,-3.04628,-1.78263,-0.0330972,-1.16407,0.267648,
2,1,0,1,0,42506.2,0.269474,0.269173,0.901693,22,0.0175333,10,0.000242711,-3.04494,12.5209,0.00471214,0.165563,0.2691727,
2,1,0,1,0,42506.3,0.270972,0.270629,0.900708,22,0.0176019,10,0.000243758,-3.04542,-3.65003,-0.0161642,-0.567126,0.270629,
2,1,0,1,0,42506.4,0.27247,0.272124,0.898053,22,0.0176705,10,0.000244382,-3.0467,-1.87673,-0.0314376,-1.1007,0.2721239,
2,1,0,1,0,42506.5,0.273968,0.273678,0.89417,22,0.0177389,10,0.000244714,-3.04858,-1.29098,-0.0457018,-1.59916,0.273678,
2,1,0,1,0,42506.5,0.275467,0.275165,0.895105,22,0.0178071,10,0.000246301,-3.04813,-1.3985,-0.042188,-1.4739,0.275165,
2,1,0,1,0,42506.6,0.276965,0.276616,0.893107,22,0.0178752,10,0.000247048,-3.0491,-2.1374,-0.0276036,-0.963575,0.276616,
2,1,0,1,0,42506.7,0.278463,0.27814,0.893925,22,0.0179433,10,0.000248637,-3.0487,-1.35887,-0.0434185,-1.51151,0.27814,
2,1,0,1,0,42506.8,0.279961,0.279644,0.889947,22,0.0180112,10,0.000248868,-3.05064,-1.84563,-0.0319675,-1.11208,0.279644,
2,1,0,1,0,42506.8,0.28146,0.281158,0.889965,22,0.018079,10,0.000250221,-3.05063,-4.09202,-0.0144183,-0.500104,0.281158,
2,1,0,1,0,42506.9,0.282956,0.282635,0.888864,22,0.0181466,10,0.000251224,-3.05116,-31.7853,-0.00185621,-0.0642043,0.282635,
2,1,0,1,0,42507,0.284456,0.28414,0.888465,22,0.0182144,10,0.000252449,-3.05136,-2.11341,-0.0279169,-0.965681,0.28414,
2,1,0,1,0,42507.1,0.285954,0.285663,0.884441,22,0.0182819,10,0.000252652,-3.05333,-1.75366,-0.033644,-1.16121,0.285663,
2,1,0,1,0,42507.1,0.287452,0.287126,0.880024,22,0.0183492,10,0.000252678,-3.05551,-1.24038,-0.0475662,-1.63971,0.287126,
2,1,0,1,0,42507.2,0.28895,0.288645,0.879694,22,0.0184164,10,0.000253919,-3.05567,-5.48271,-0.0107611,-0.369659,0.288645,
2,1,0,1,0,42507.3,0.290449,0.290126,0.880969,22,0.0184835,10,0.000255592,-3.05504,-2.8836,-0.0204605,-0.703105,0.290126,
2,1,0,1,0,42507.4,0.291947,0.291597,0.878093,22,0.0185505,10,0.00025605,-3.05646,-1.19748,-0.0492702,-1.68793,0.291597,
2,1,0,1,0,42507.4,0.293445,0.293096,0.874121,22,0.0186173,10,0.000256202,-3.05843,-1.56413,-0.0377207,-1.28949,0.293096,
2,1,0,1,0,42507.5,0.294943,0.294638,0.876369,22,0.018684,10,0.000258212,-3.05731,-2.61367,-0.0225737,-0.770231,0.294638,
2,1,0,1,0,42507.6,0.296441,0.296111,0.875923,22,0.0187507,10,0.000259371,-3.05753,-9.09214,-0.00648912,-0.221394,0.296111,
2,1,0,1,0,42507.7,0.29794,0.297654,0.873787,22,0.0188173,10,0.000260086,-3.05859,-6.10547,-0.00966346,-0.328643,0.297654,
2,1,0,1,0,42507.7,0.299436,0.299126,0.867502,22,0.0188836,10,0.000259492,-3.06173,-0.00392421,-15.0349,-314.636,0.299126,
2,1,0,1,0,42507.8,0.299739,0.299435,0.576355,22,0.0189175,10,0.000172581,-3.23931,0.000415783,141.901,698.027,0.299435,
2,1,0,1,0,42507.8,0.298239,0.297929,0.0603629,22,0.0189351,10,1.79838e-05,-4.21923,0.00401316,14.7016,258.26,0.2979289,
2,0,0,1,0,42507.9,0.296741,0.296478,-0.0722698,22,0.0189327,10,-2.14264e-05,-4.14104,-0.485149,-0.121612,76.1868,0.296478,
2,0,0,1,0,42508,0.295243,0.294959,-0.137276,22,0.0189233,10,-4.0491e-05,-3.8624,-0.00601235,-9.81313,36.4875,0.294959,
2,0,0,1,0,42508.1,0.293745,0.29338,-0.18039,22,0.0189101,10,-5.29229e-05,-3.74379,-0.0154721,-3.81331,24.3971,0.29338,
2,0,0,1,0,42508.1,0.292246,0.291911,-0.206636,22,0.0188945,10,-6.03193e-05,-3.68479,-0.0248526,-2.37399,18.6815,0.291911,
2,0,0,1,0,42508.2,0.290748,0.290431,-0.233177,22,0.0188768,10,-6.77216e-05,-3.63232,-0.0319803,-1.84488,16.4822,0.290431,
2,0,0,1,0,42508.3,0.28925,0.288917,-0.255376,22,0.0188572,10,-7.37823e-05,-3.59282,-0.0433117,-1.36222,13.2787,0.288917,
2,0,0,1,0,42508.4,0.287752,0.287415,-0.27205,22,0.0188363,10,-7.81911e-05,-3.56535,-0.0570916,-1.03343,10.9052,0.287415,
2,0,0,1,0,42508.4,0.286254,0.285939,-0.288029,22,0.0188141,10,-8.23587e-05,-3.54056,-0.0634353,-0.930082,10.456,0.285939,
2,0,0,1,0,42508.5,0.284754,0.284438,-0.301305,22,0.0187908,10,-8.57027e-05,-3.52099,-0.0672542,-0.877268,10.2973,0.284438,
2,0,0,1,0,42508.6,0.283259,0.282943,-0.318272,22,0.0187663,10,-9.00527e-05,-3.4972,-0.0840375,-0.702068,8.63445,0.282943,
2,0,0,1,0,42508.7,0.281759,0.28143,-0.331965,22,0.0187407,10,-9.34247e-05,-3.47891,-0.0950896,-0.620467,7.97589,0.28143,
2,0,0,1,0,42508.7,0.280261,0.279935,-0.338251,22,0.0187143,10,-9.46882e-05,-3.47076,-0.100365,-0.587854,7.84076,0.279935,
2,0,0,1,0,42508.8,0.278763,0.27843,-0.35244,22,0.0186871,10,-9.81299e-05,-3.45291,-0.107517,-0.548751,7.57016,0.27843,
2,0,0,1,0,42508.9,0.277264,0.276966,-0.364563,22,0.018659,10,-0.000100972,-3.43823,-0.119574,-0.493419,6.9899,0.276966,
2,0,0,1,0,42509,0.275766,0.275453,-0.375918,22,0.01863,10,-0.000103548,-3.42491,-0.145753,-0.404795,5.8952,0.275453,
2,0,0,1,0,42509,0.274268,0.273923,-0.385785,22,0.0186003,10,-0.000105676,-3.41365,-0.158648,-0.371892,5.59925,0.273923,
2,0,0,1,0,42509.1,0.27277,0.272427,-0.395344,22,0.01857,10,-0.000107703,-3.40302,-0.138797,-0.42508,6.55928,0.272427,
2,0,0,1,0,42509.2,0.271272,0.270984,-0.402199,22,0.018539,10,-0.00010899,-3.39556,-0.136162,-0.433308,6.80573,0.270984,
2,0,0,1,0,42509.3,0.269774,0.269448,-0.41335,22,0.0185072,10,-0.000111376,-3.38368,-0.168456,-0.350239,5.61432,0.269448,
2,0,0,1,0,42509.3,0.268274,0.267917,-0.423891,22,0.0184748,10,-0.000113567,-3.37275,-0.184098,-0.320481,5.25088,0.267917,
2,0,0,1,0,42509.4,0.266779,0.266474,-0.425584,22,0.0184419,10,-0.000113407,-3.37101,-0.183836,-0.320939,5.36653,0.266474,
2,0,0,1,0,42509.5,0.265279,0.264948,-0.435247,22,0.0184083,10,-0.000115318,-3.36126,-0.186364,-0.316584,5.36794,0.264948,
2,0,0,1,0,42509.6,0.263781,0.26348,-0.442203,22,0.0183741,10,-0.000116512,-3.35438,-0.190776,-0.309264,5.36401,0.26348,
2,0,0,1,0,42509.6,0.262283,0.261969,-0.452588,22,0.0183394,10,-0.000118564,-3.3443,-0.207714,-0.284044,5.01177,0.261969,
2,0,0,1,0,42509.7,0.260784,0.260456,-0.456223,22,0.0183041,10,-0.000118826,-3.34082,-0.246122,-0.239719,4.30049,0.260456,
2,0,0,1,0,42509.8,0.259286,0.258989,-0.464609,22,0.0182683,10,-0.000120328,-3.33291,-0.20665,-0.285507,5.18532,0.258989,
2,0,0,1,0,42509.9,0.257788,0.257506,-0.474802,22,0.0182319,10,-0.000122264,-3.32349,-0.243344,-0.242455,4.47898,0.257506,
2,0,0,1,0,42509.9,0.25629,0.255984,-0.481316,22,0.0181949,10,-0.000123209,-3.31757,-0.3043,-0.193887,3.61677,0.255984,
2,0,0,1,0,42510,0.25479,0.25447,-0.484104,22,0.0181575,10,-0.00012319,-3.31506,-0.279784,-0.210877,4.00144,0.25447,
2,0,0,1,0,42510.1,0.253294,0.252967,-0.492913,22,0.0181198,10,-0.00012469,-3.30723,-0.262206,-0.225014,4.32312,0.252967,
2,0,0,1,0,42510.2,0.251795,0.251447,-0.499516,22,0.0180814,10,-0.000125602,-3.30145,-0.294559,-0.200299,3.89716,0.251447,
2,0,0,1,0,42510.2,0.250297,0.249941,-0.505941,22,0.0180425,10,-0.000126456,-3.2959,-0.354342,-0.166506,3.2836,0.249941,
2,0,0,1,0,42510.3,0.248799,0.248479,-0.511955,22,0.0180033,10,-0.00012721,-3.29077,-0.359212,-0.164248,3.28072,0.248479,
2,0,0,1,0,42510.4,0.247301,0.246943,-0.517469,22,0.0179636,10,-0.000127786,-3.28612,-0.282042,-0.209189,4.22124,0.246943,
2,0,0,1,0,42510.5,0.245802,0.245467,-0.524701,22,0.0179234,10,-0.000128797,-3.28009,-0.228905,-0.257749,5.2671,0.245467,
2,0,0,1,0,42510.5,0.244304,0.244019,-0.530934,22,0.0178827,10,-0.000129558,-3.27496,-0.360529,-0.163648,3.37996,0.244019,
2,0,0,1,0,42510.6,0.242806,0.24248,-0.535768,22,0.0178416,10,-0.000129913,-3.27102,-0.476941,-0.123705,2.58383,0.24248,
2,0,0,1,0,42510.7,0.241308,0.240972,-0.540349,22,0.0178002,10,-0.000130209,-3.26733,-0.375161,-0.157266,3.32489,0.2409724,
2,0,0,1,0,42510.8,0.23981,0.239456,-0.546834,22,0.0177584,10,-0.000130943,-3.26214,-0.267711,-0.220387,4.68422,0.239456,
2,0,0,1,0,42510.8,0.23831,0.238006,-0.552428,22,0.017716,10,-0.000131481,-3.25772,-0.316662,-0.186319,4.01019,0.238006,
2,0,0,1,0,42510.9,0.236815,0.236474,-0.556525,22,0.0176733,10,-0.000131604,-3.25452,-0.351183,-0.168004,3.64501,0.236474,
2,0,0,1,0,42511,0.235315,0.23497,-0.558912,22,0.0176301,10,-0.000131328,-3.25266,-0.322975,-0.182677,4.00469,0.23497,
2,0,0,1,0,42511.1,0.233817,0.233531,-0.568108,22,0.0175866,10,-0.000132671,-3.24557,-0.360156,-0.163818,3.62524,0.233531,
2,0,0,1,0,42511.1,0.232319,0.231969,-0.573144,22,0.0175426,10,-0.000132952,-3.24174,-0.374369,-0.157598,3.52236,0.231969,
2,0,0,1,0,42511.2,0.230821,0.230471,-0.577698,22,0.0174982,10,-0.000133143,-3.2383,-0.489893,-0.120434,2.71327,0.230471,
2,0,0,1,0,42511.3,0.229322,0.229015,-0.581919,22,0.0174534,10,-0.000133268,-3.23514,-0.422188,-0.139748,3.18466,0.229015,
2,0,0,1,0,42511.4,0.227824,0.227487,-0.588124,22,0.0174083,10,-0.000133791,-3.23053,-0.469265,-0.125729,2.89653,0.227487,
2,0,0,1,0,42511.4,0.226326,0.22599,-0.595197,22,0.0173628,10,-0.000134509,-3.22534,-0.402565,-0.14656,3.40152,0.22599,
2,0,0,1,0,42511.5,0.224828,0.224562,-0.600663,22,0.0173168,10,-0.000134886,-3.22137,-0.486107,-0.121373,2.84046,0.2245616,
2,0,0,1,0,42511.6,0.22333,0.223018,-0.605919,22,0.0172704,10,-0.000135131,-3.21759,-0.374731,-0.157446,3.70999,0.223018,
2,0,0,1,0,42511.7,0.22183,0.2215,-0.610646,22,0.0172237,10,-0.000135258,-3.21421,-0.373371,-0.15802,3.75637,0.2215,
2,0,0,1,0,42511.7,0.220335,0.220015,-0.616535,22,0.0171766,10,-0.000135647,-3.21004,-0.293864,-0.200773,4.82716,0.2200145,
2,0,0,1,0,42511.8,0.218835,0.218517,-0.622955,22,0.017129,10,-0.000136126,-3.20554,-0.463978,-0.127161,3.07803,0.218517,
2,0,0,1,0,42511.9,0.217337,0.217026,-0.624811,22,0.017081,10,-0.0001356,-3.20425,-0.565382,-0.104354,2.54505,0.217026,
2,0,0,1,0,42512,0.215839,0.215516,-0.628161,22,0.0170329,10,-0.000135379,-3.20193,-0.456141,-0.129346,3.18223,0.215516,
2,0,0,1,0,42512,0.21434,0.213953,-0.636343,22,0.0169843,10,-0.000136148,-3.19631,-0.407763,-0.144692,3.58622,0.213953,
2,0,0,1,0,42512.1,0.212842,0.212482,-0.642892,22,0.0169353,10,-0.000136603,-3.19186,-0.397104,-0.148576,3.71638,0.212482,
2,0,0,1,0,42512.2,0.211344,0.210995,-0.643864,22,0.0168859,10,-0.000135852,-3.19121,-0.422287,-0.139715,3.51157,0.210995,
2,0,0,1,0,42512.3,0.209846,0.209501,-0.647361,22,0.0168362,10,-0.000135623,-3.18885,-0.519236,-0.113628,2.88863,0.2095013,
2,0,0,1,0,42512.3,0.208348,0.208029,-0.656323,22,0.0167862,10,-0.000136534,-3.18288,-0.384554,-0.153425,3.93421,0.208029,
2,0,0,1,0,42512.4,0.20685,0.206517,-0.663581,22,0.0167357,10,-0.000137041,-3.17811,-0.473637,-0.124568,3.21147,0.206517,
2,0,0,1,0,42512.5,0.20535,0.205,-0.666268,22,0.0166845,10,-0.000136585,-3.17635,-0.480593,-0.122765,3.17877,0.205,
2,0,0,1,0,42512.6,0.203855,0.203543,-0.671121,22,0.0166332,10,-0.000136602,-3.1732,-0.452318,-0.130439,3.42545,0.203543,
2,0,0,1,0,42512.6,0.202355,0.202008,-0.674167,22,0.0165816,10,-0.000136187,-3.17123,-0.445864,-0.132327,3.50106,0.202008,
2,0,0,1,0,42512.7,0.200857,0.200506,-0.679759,22,0.0165295,10,-0.000136296,-3.16764,-0.435522,-0.13547,3.59727,0.200506,
2,0,0,1,0,42512.8,0.199359,0.199059,-0.687493,22,0.016477,10,-0.000136851,-3.16273,-0.613591,-0.0961553,2.57074,0.199059,
2,0,0,1,0,42512.9,0.19786,0.197506,-0.69331,22,0.0164241,10,-0.000136933,-3.15907,-0.525353,-0.112305,3.02928,0.197506,
2,0,0,1,0,42512.9,0.196362,0.196028,-0.698926,22,0.0163709,10,-0.000137009,-3.15557,-0.422546,-0.13963,3.80205,0.196028,
2,0,0,1,0,42513,0.194864,0.194529,-0.703982,22,0.0163171,10,-0.000136945,-3.15244,-0.350789,-0.168192,4.61735,0.194529,
2,0,0,1,0,42513.1,0.193366,0.193005,-0.712855,22,0.0162628,10,-0.000137585,-3.147,-0.408146,-0.144556,3.99829,0.193005,
2,0,0,1,0,42513.2,0.191866,0.191586,-0.713521,22,0.0162081,10,-0.0001367,-3.14659,-0.507033,-0.116363,3.25559,0.1915857,
2,0,0,1,0,42513.2,0.19037,0.190027,-0.718956,22,0.0161531,10,-0.000136621,-3.1433,-0.494206,-0.119383,3.37162,0.190027,
2,0,0,1,0,42513.3,0.188871,0.188584,-0.72672,22,0.0160976,10,-0.000137048,-3.13863,-0.328923,-0.179373,5.09639,0.188584,
2,0,0,1,0,42513.4,0.187373,0.187071,-0.732844,22,0.0160416,10,-0.000137094,-3.13499,-0.380527,-0.155048,4.44448,0.187071,
2,0,0,1,0,42513.5,0.185875,0.185543,-0.741078,22,0.0159851,10,-0.000137501,-3.13014,-0.462611,-0.127537,3.67932,0.185543,
2,0,0,1,0,42513.5,0.184377,0.184057,-0.745568,22,0.0159282,10,-0.000137227,-3.12751,-0.428627,-0.137649,4.01329,0.184057,
2,0,0,1,0,42513.6,0.182878,0.18259,-0.754834,22,0.0158709,10,-0.000137825,-3.12215,-0.373052,-0.158155,4.65455,0.18259,
2,0,0,1,0,42513.7,0.18138,0.181019,-0.759635,22,0.015813,10,-0.000137508,-3.1194,-0.356784,-0.165366,4.91165,0.181019,
2,0,0,1,0,42513.8,0.179882,0.179573,-0.7661,22,0.0157545,10,-0.000137571,-3.11571,-0.483808,-0.121949,3.65261,0.179573,
2,0,0,1,0,42513.8,0.178384,0.178046,-0.774815,22,0.0156955,10,-0.000137953,-3.1108,-0.383295,-0.153929,4.6614,0.178046,
2,0,0,1,0,42513.9,0.176886,0.176537,-0.782033,22,0.0156361,10,-0.000138058,-3.10677,-0.355216,-0.166096,5.07673,0.176537,
2,0,0,1,0,42514,0.175386,0.175023,-0.790021,22,0.0155759,10,-0.000138272,-3.10236,-0.294567,-0.200294,6.17144,0.175023,
2,0,0,1,0,42514.1,0.173891,0.173558,-0.7997,22,0.0155152,10,-0.000138795,-3.09707,-0.287811,-0.204996,6.39063,0.173558,
2,0,0,1,0,42514.1,0.172391,0.172066,-0.80947,22,0.0154536,10,-0.000139282,-3.0918,-0.319678,-0.184561,5.82048,0.172066,
2,0,0,1,0,42514.2,0.170893,0.170589,-0.814643,22,0.0153916,10,-0.000138969,-3.08903,-0.289546,-0.203767,6.51455,0.170589,
2,0,0,1,0,42514.3,0.169395,0.169056,-0.826306,22,0.0153288,10,-0.000139692,-3.08286,-0.238071,-0.247826,7.98906,0.169056,
2,0,0,1,0,42514.4,0.167897,0.167542,-0.839512,22,0.0152651,10,-0.000140653,-3.07597,-0.273822,-0.215469,7.05198,0.167542,
2,0,0,1,0,42514.4,0.166398,0.166062,-0.848649,22,0.0152006,10,-0.000140928,-3.07127,-0.297311,-0.198446,6.57964,0.166062,
2,0,0,1,0,42514.5,0.1649,0.164548,-0.858212,22,0.0151354,10,-0.000141217,-3.06641,-0.239736,-0.246104,8.28419,0.164548,
2,0,0,1,0,42514.6,0.163402,0.163071,-0.87202,22,0.0150694,10,-0.000142201,-3.05947,-0.2345,-0.251599,8.56553,0.163071,
2,0,0,1,0,42514.7,0.161904,0.161567,-0.886395,22,0.0150022,10,-0.000143212,-3.05237,-0.218392,-0.270156,9.35446,0.161567,
2,0,0,1,0,42514.7,0.160406,0.160077,-0.903391,22,0.014934,10,-0.000144612,-3.04412,-0.213638,-0.276168,9.72161,0.160077,
2,0,0,1,0,42514.8,0.158906,0.158564,-0.916685,22,0.0148646,10,-0.000145353,-3.03778,-0.198228,-0.297637,10.6626,0.158564,
2,0,0,1,0,42514.9,0.157411,0.157094,-0.932845,22,0.0147943,10,-0.000146544,-3.03019,-0.172515,-0.342,12.4937,0.157094,
2,0,0,1,0,42515,0.155911,0.155582,-0.95347,22,0.0147222,10,-0.000148343,-3.02069,-0.156239,-0.377627,14.0763,0.155582,
2,0,0,1,0,42515,0.154413,0.154071,-0.975552,22,0.0146486,10,-0.000150304,-3.01075,-0.165158,-0.357233,13.6001,0.154071,
2,0,0,1,0,42515.1,0.152915,0.152569,-0.996115,22,0.0145735,10,-0.000151976,-3.00169,-0.152854,-0.385989,15.0607,0.152569,
2,0,0,1,0,42515.2,0.151417,0.151096,-1.02319,22,0.0144967,10,-0.000154601,-2.99004,-0.133073,-0.443365,17.7429,0.151096,
2,0,0,1,0,42515.3,0.149918,0.149581,-1.05146,22,0.0144177,10,-0.000157279,-2.97821,-0.114453,-0.515496,21.2105,0.149581,
2,0,0,1,0,42515.3,0.14842,0.148108,-1.08605,22,0.0143364,10,-0.000160854,-2.96415,-0.1149,-0.513491,21.7745,0.148108,
2,0,0,1,0,42515.4,0.146922,0.146577,-1.12188,22,0.0142525,10,-0.000164442,-2.95005,-0.102033,-0.578247,25.3551,0.146577,
2,0,0,1,0,42515.5,0.145424,0.145143,-1.15924,22,0.014166,10,-0.000168256,-2.93582,-0.0973633,-0.605978,27.5088,0.145143,
2,0,0,1,0,42515.6,0.143926,0.143621,-1.20278,22,0.0140763,10,-0.000172744,-2.91981,-0.0879934,-0.670505,31.5528,0.143621,
2,0,0,1,0,42515.6,0.142426,0.142104,-1.25366,22,0.0139828,10,-0.00017815,-2.90182,-0.0831937,-0.709188,34.7151,0.142104,
2,0,0,1,0,42515.7,0.140931,0.140629,-1.30175,22,0.0138859,10,-0.000183063,-2.88547,-0.0881261,-0.669495,34.1131,0.140629,
2,0,0,1,0,42515.8,0.139431,0.13915,-1.35382,22,0.0137848,10,-0.000188384,-2.86844,-0.0820323,-0.719228,38.132,0.13915,
2,0,0,1,0,42515.9,0.137933,0.137637,-1.41288,22,0.0136798,10,-0.000194464,-2.84989,-0.0834868,-0.706699,39.0702,0.137637,
2,0,0,1,0,42515.9,0.136435,0.136119,-1.47683,22,0.0135702,10,-0.000201025,-2.83067,-0.081424,-0.724602,41.7375,0.136119,
2,0,0,1,0,42516,0.134936,0.134589,-1.53754,22,0.013456,10,-0.000206936,-2.81317,-0.0878915,-0.671282,40.235,0.134589,
2,0,0,1,0,42516.1,0.133438,0.13313,-1.59773,22,0.0133372,10,-0.000212705,-2.7965,-0.0885125,-0.666573,41.5933,0.1331301,
2,0,0,1,0,42516.2,0.13194,0.131654,-1.66037,22,0.0132137,10,-0.000218593,-2.7798,-0.0947818,-0.622483,40.3866,0.131654,
2,0,0,1,0,42516.2,0.130442,0.130134,-1.72391,22,0.0130856,10,-0.00022434,-2.76348,-0.0978203,-0.603147,40.5315,0.130134,
2,0,0,1,0,42516.3,0.128942,0.128602,-1.78609,22,0.0129527,10,-0.000229694,-2.7481,-0.104625,-0.563919,39.163,0.128602,
2,0,0,1,0,42516.4,0.127446,0.127099,-1.8431,22,0.0128157,10,-0.000234256,-2.73445,-0.112948,-0.522364,37.4399,0.127099,
2,0,0,1,0,42516.5,0.125947,0.125649,-1.89345,22,0.0126744,10,-0.000237909,-2.72275,-0.12414,-0.475269,35.0998,0.125649,
2,0,0,1,0,42516.5,0.124449,0.124145,-1.94664,22,0.0125292,10,-0.000241667,-2.71071,-0.131104,-0.450026,34.0846,0.124145,
2,0,0,1,0,42516.6,0.122951,0.122631,-1.99612,22,0.0123803,10,-0.000244786,-2.69981,-0.147193,-0.400835,31.1596,0.122631,
2,0,0,1,0,42516.7,0.121453,0.12112,-2.03752,22,0.0122278,10,-0.000246784,-2.6909,-0.169097,-0.348912,27.7014,0.12112,
2,0,0,1,0,42516.8,0.119955,0.119634,-2.07428,22,0.0120722,10,-0.000248155,-2.68313,-0.198472,-0.297272,24.0915,0.119634,
2,0,0,1,0,42516.8,0.118456,0.118135,-2.11535,22,0.011914,10,-0.000249897,-2.67462,-0.20301,-0.290626,23.9569,0.118135,
2,0,0,1,0,42516.9,0.116958,0.116636,-2.14864,22,0.011753,10,-0.000250608,-2.66784,-0.245888,-0.239946,20.0648,0.116636,
2,0,0,1,0,42517,0.11546,0.115101,-2.17653,22,0.0115897,10,-0.000250521,-2.66224,-0.318505,-0.18524,15.6846,0.115101,
2,0,0,1,0,42517.1,0.113962,0.113618,-2.19227,22,0.0114247,10,-0.000249082,-2.65911,-0.41861,-0.140943,12.0512,0.113618,
2,0,0,1,0,42517.1,0.112462,0.112103,-2.21203,22,0.0112582,10,-0.000247975,-2.65521,-0.533964,-0.110494,9.52918,0.112103,
2,0,0,1,0,42517.2,0.110967,0.11065,-2.22444,22,0.0110909,10,-0.000246134,-2.65278,-0.721371,-0.0817887,7.08815,0.11065,
2,0,0,1,0,42517.3,0.109467,0.10918,-2.23164,22,0.0109225,10,-0.000243651,-2.65138,-2.70101,-0.0218437,1.89761,0.1091799,
2,0,0,1,0,42517.4,0.107969,0.107636,-2.23251,22,0.0107539,10,-0.000240298,-2.65121,100.341,0.000587994,-0.0511713,0.107636,
2,0,0,1,0,42517.4,0.106471,0.106152,-2.2298,22,0.0105856,10,-0.000236698,-2.65173,3.53243,0.0167024,-1.45424,0.106152,
2,0,0,1,0,42517.5,0.104973,0.104659,-2.2273,22,0.0104174,10,-0.000233108,-2.65222,1.61533,0.0365251,-3.17293,0.1046593,
2,0,0,1,0,42517.6,0.103474,0.103171,-2.22247,22,0.0102493,10,-0.000229296,-2.65316,0.854605,0.0690378,-5.97195,0.103171,
2,0,0,1,0,42517.7,0.101976,0.101653,-2.21258,22,0.010082,10,-0.000224914,-2.6551,0.585898,0.1007,-8.68229,0.101653,
2,0,0,1,0,42517.7,0.100478,0.100168,-2.19642,22,0.00991576,10,-0.000220011,-2.65829,0.590654,0.0998892,-8.56704,0.100168,
2,0,0,1,0,42517.8,0.0989799,0.0986951,-2.18377,22,0.00975047,10,-0.000215527,-2.66079,0.563258,0.104748,-8.92217,0.0986951,
2,0,0,1,0,42517.9,0.0974817,0.0971194,-2.17054,22,0.00958608,10,-0.000210802,-2.66343,0.557045,0.105916,-8.96776,0.0971194,
2,0,0,1,0,42518,0.0959821,0.0956625,-2.15506,22,0.00942255,10,-0.000206158,-2.66654,0.472774,0.124795,-10.4878,0.0956625,
2,0,0,1,0,42518,0.0944866,0.0941507,-2.13769,22,0.00926067,10,-0.000201265,-2.67005,0.497263,0.118649,-9.91548,0.09415067,
2,0,0,1,0,42518.1,0.0929871,0.0926769,-2.12516,22,0.00909962,10,-0.000196954,-2.67261,0.569774,0.10355,-8.59019,0.0926769,
2,0,0,1,0,42518.2,0.0914889,0.091141,-2.11476,22,0.00893965,10,-0.000192742,-2.67474,0.551521,0.106977,-8.81022,0.091141,
2,0,0,1,0,42518.3,0.0899907,0.0896482,-2.09849,22,0.00878062,10,-0.000188125,-2.67809,0.494179,0.11939,-9.76924,0.0896482,
2,0,0,1,0,42518.3,0.0884925,0.0881717,-2.0815,22,0.00862276,10,-0.000183529,-2.68162,0.509605,0.115776,-9.41681,0.0881717,
2,0,0,1,0,42518.4,0.0869943,0.086597,-2.0707,22,0.00846605,10,-0.000179317,-2.68388,0.522308,0.11296,-9.13629,0.086597,
2,0,0,1,0,42518.5,0.0854961,0.0851732,-2.06085,22,0.00831018,10,-0.000175529,-2.68595,0.553126,0.106667,-8.5637,0.0851732,
2,0,0,1,0,42518.6,0.083998,0.0836463,-2.0462,22,0.00815512,10,-0.000171157,-2.68905,0.539145,0.109433,-8.72866,0.0836463,
2,0,0,1,0,42518.6,0.0824998,0.0821691,-2.03524,22,0.00800101,10,-0.000167234,-2.69139,0.574903,0.102626,-8.14698,0.08216913,
2,0,0,1,0,42518.7,0.081002,0.080676,-2.02308,22,0.007848,10,-0.000163214,-2.69399,0.617185,0.0955954,-7.55288,0.080676,
2,0,0,1,0,42518.8,0.0795025,0.0791759,-2.01245,22,0.00769547,10,-0.000159337,-2.69628,0.778954,0.0757426,-5.94345,0.0791759,
2,0,0,1,0,42518.9,0.078007,0.0776652,-2.00409,22,0.00754398,10,-0.000155648,-2.69808,0.689729,0.0855409,-6.67553,0.0776652,
2,0,0,1,0,42518.9,0.076507,0.0761704,-1.99264,22,0.00739288,10,-0.00015178,-2.70057,0.587794,0.100375,-7.80254,0.0761704,
2,0,0,1,0,42519,0.0750088,0.0746688,-1.97931,22,0.00724302,10,-0.000147793,-2.70349,0.604601,0.097585,-7.54047,0.0746688,
2,0,0,1,0,42519.1,0.0735106,0.0731663,-1.96758,22,0.00709396,10,-0.000143961,-2.70607,0.659694,0.0894355,-6.86773,0.0731663,
2,0,0,1,0,42519.2,0.0720124,0.071656,-1.95797,22,0.00694561,10,-0.0001403,-2.70819,0.61804,0.095463,-7.29429,0.071656,
2,0,0,1,0,42519.2,0.0705142,0.0701867,-1.94912,22,0.00679802,10,-0.000136802,-2.71016,0.552388,0.106809,-8.12125,0.0701867,
2,0,0,1,0,42519.3,0.069016,0.0687412,-1.93508,22,0.00665134,10,-0.00013302,-2.7133,0.552089,0.106867,-8.08503,0.0687412,
2,0,0,1,0,42519.4,0.0675179,0.0671915,-1.92488,22,0.00650553,10,-0.000129336,-2.7156,0.713143,0.0827324,-6.21472,0.0671915,
2,0,0,1,0,42519.5,0.0660179,0.0656918,-1.91843,22,0.00636024,10,-0.000126025,-2.71705,0.623737,0.0945911,-7.06439,0.0656918,
2,0,0,1,0,42519.5,0.0645224,0.0642047,-1.90615,22,0.00621601,10,-0.000122384,-2.71984,0.575065,0.102597,-7.61255,0.0642047,
2,0,0,1,0,42519.6,0.0630229,0.0626874,-1.89079,22,0.00607235,10,-0.000118529,-2.72336,0.589188,0.100138,-7.39793,0.0626874,
2,0,0,1,0,42519.7,0.0615251,0.0611707,-1.87822,22,0.00592998,10,-0.000114892,-2.72625,0.603202,0.0978113,-7.18472,0.0611707,
2,0,0,1,0,42519.8,0.0600269,0.0596797,-1.86878,22,0.0057883,10,-0.000111528,-2.72844,0.598922,0.0985103,-7.18726,0.0596797,
2,0,0,1,0,42519.8,0.0585287,0.0581816,-1.85931,22,0.00564741,10,-0.000108178,-2.73065,0.531746,0.110955,-8.04037,0.05818161,
2,0,0,1,0,42519.9,0.0570305,0.0567139,-1.84795,22,0.00550732,10,-0.000104804,-2.73331,0.547965,0.107671,-7.75852,0.0567139,
2,0,0,1,0,42520,0.0555323,0.0552281,-1.83615,22,0.00536834,10,-0.000101407,-2.73609,0.534396,0.110405,-7.91144,0.0552281,
2,0,0,1,0,42520.1,0.0540342,0.053729,-1.82543,22,0.00523005,10,-9.80783e-05,-2.73864,0.599969,0.0983385,-6.99487,0.05372902,
2,0,0,1,0,42520.1,0.052536,0.0521946,-1.81519,22,0.0050925,10,-9.47429e-05,-2.74108,0.524128,0.112568,-7.96015,0.05219461,
2,0,0,1,0,42520.2,0.0510378,0.0506937,-1.80144,22,0.00495588,10,-9.13215e-05,-2.74438,0.458682,0.12863,-9.03578,0.0506937,
2,0,0,1,0,42520.3,0.0495382,0.0491994,-1.78677,22,0.00482014,10,-8.79079e-05,-2.74793,0.46616,0.126566,-8.83225,0.0491994,
2,0,0,1,0,42520.4,0.0480427,0.0477068,-1.77428,22,0.00468569,10,-8.46454e-05,-2.75098,0.554716,0.106361,-7.3653,0.0477068,
2,0,0,1,0,42520.4,0.0465432,0.0462412,-1.76303,22,0.00455168,10,-8.15247e-05,-2.75374,0.527432,0.111863,-7.69752,0.0462412,
2,0,0,1,0,42520.5,0.045045,0.0447027,-1.75088,22,0.00441878,10,-7.82689e-05,-2.75674,0.417264,0.141397,-9.66229,0.0447027,
2,0,0,1,0,42520.6,0.0435468,0.0431925,-1.73444,22,0.00428691,10,-7.49147e-05,-2.76084,0.447995,0.131698,-8.92767,0.0431925,
2,0,0,1,0,42520.7,0.0420486,0.0417232,-1.72326,22,0.00415611,10,-7.18998e-05,-2.76365,0.451256,0.130746,-8.79944,0.0417232,
2,0,0,1,0,42520.7,0.0405504,0.0402267,-1.71379,22,0.00402616,10,-6.89402e-05,-2.76604,0.480055,0.122903,-8.20677,0.0402267,
2,0,0,1,0,42520.8,0.0390523,0.0386783,-1.69901,22,0.00389709,10,-6.5715e-05,-2.7698,0.416928,0.141511,-9.37419,0.0386783,
2,0,0,1,0,42520.9,0.0375541,0.0371695,-1.68477,22,0.00376908,10,-6.26221e-05,-2.77346,0.374298,0.157628,-10.3723,0.0371695,
2,0,0,1,0,42521,0.0360559,0.0357389,-1.67076,22,0.00364226,10,-5.9711e-05,-2.77709,0.402073,0.14674,-9.57663,0.0357389,
2,0,0,1,0,42521,0.0345577,0.0342142,-1.65574,22,0.0035164,10,-5.66497e-05,-2.78101,0.409538,0.144065,-9.3219,0.0342142,
2,0,0,1,0,42521.1,0.0330582,0.0327518,-1.64619,22,0.0033913,10,-5.39158e-05,-2.78352,0.381543,0.154635,-9.91307,0.0327518,
2,0,0,1,0,42521.2,0.0315626,0.0312585,-1.6306,22,0.00326757,10,-5.097e-05,-2.78765,0.387792,0.152144,-9.67345,0.0312585,
2,0,0,1,0,42521.3,0.0300631,0.029751,-1.61563,22,0.00314472,10,-4.80667e-05,-2.79166,0.456393,0.129274,-8.1578,0.029751,
2,0,0,1,0,42521.3,0.0285649,0.0282146,-1.60383,22,0.00302289,10,-4.52516e-05,-2.79484,0.492146,0.119883,-7.49769,0.0282146,
2,0,0,1,0,42521.4,0.0270667,0.0267183,-1.59321,22,0.00290189,10,-4.25679e-05,-2.79773,0.493386,0.119582,-7.43163,0.0267183,
2,0,0,1,0,42521.5,0.0255685,0.0252074,-1.58121,22,0.00278182,10,-3.98583e-05,-2.80101,0.37566,0.157057,-9.68166,0.0252074,
2,0,0,1,0,42521.6,0.0240704,0.0237553,-1.56371,22,0.00266282,10,-3.71464e-05,-2.80584,0.411702,0.143307,-8.76978,0.0237553,
2,0,0,1,0,42521.6,0.0225722,0.0222602,-1.55389,22,0.00254469,10,-3.45899e-05,-2.80858,0.483355,0.122064,-7.4006,0.0222602,
2,0,0,1,0,42521.7,0.021074,0.0207288,-1.54617,22,0.00242736,10,-3.20502e-05,-2.81074,0.469439,0.125682,-7.58018,0.0207288,
2,0,0,1,0,42521.8,0.0195758,0.01925,-1.53428,22,0.00231086,10,-2.9535e-05,-2.81409,0.473707,0.12455,-7.44925,0.01925,
2,0,0,1,0,42521.9,0.018078,0.0177627,-1.52055,22,0.00219517,10,-2.7009e-05,-2.818,0.511105,0.115436,-6.85501,0.0177627,
2,0,0,1,0,42521.9,0.0165785,0.0162922,-1.51464,22,0.0020801,10,-2.46769e-05,-2.81969,0.592209,0.099627,-5.89134,0.0162922,
2,0,0,1,0,42522,0.015083,0.0147763,-1.50631,22,0.00196596,10,-2.22577e-05,-2.82209,0.701686,0.0840832,-4.93967,0.0147763,
2,0,0,1,0,42522.1,0.013583,0.0132403,-1.49729,22,0.00185202,10,-1.98245e-05,-2.8247,0.636575,0.0926835,-5.41253,0.0132403,
2,0,0,1,0,42522.2,0.0120848,0.0117444,-1.49021,22,0.00173882,10,-1.75016e-05,-2.82675,0.646658,0.0912384,-5.30751,0.0117444,
2,0,0,1,0,42522.2,0.0105866,0.0102808,-1.48104,22,0.00162637,10,-1.52263e-05,-2.82943,0.77181,0.0764437,-4.42581,0.0102808,
2,0,0,1,0,42522.3,0.00908845,0.00872823,-1.47682,22,0.00151431,10,-1.28901e-05,-2.83067,1.09241,0.0540092,-3.11169,0.00872823,
2,0,0,1,0,42522.4,0.00759027,0.0072416,-1.47202,22,0.0014026,10,-1.06598e-05,-2.83209,1.15972,0.0508743,-2.92279,0.0072416,
2,0,0,1,0,42522.5,0.00609208,0.00577206,-1.47133,22,0.00129126,10,-8.49262e-06,-2.83229,1.03721,0.0568834,-3.25917,0.00577206,
2,0,0,1,0,42522.5,0.00459389,0.00429074,-1.46411,22,0.00118028,10,-6.28212e-06,-2.83443,1.21211,0.0486756,-2.78118,0.00429074,
2,0,0,1,0,42522.6,0.00309391,0.00277381,-1.46392,22,0.00106934,10,-4.06063e-06,-2.83448,-1.28481,-0.0459212,2.63009,0.00277381,
2,0,0,1,0,42522.7,0.0015984,0.00123353,-1.47616,22,0.000957944,10,-1.82089e-06,-2.83087, , , ,0.00123353,
2,0,0,1,0,42522.7,0.000199195,-0.000180783,-1.46602,22,0.000853865,10,2.65032e-07,-2.83386, , , ,-0.000180783,