File: Figure_codes/Fig_3-5/rawdata_trumpetplot_data/after 10th/20221101_1-115_003_TrumpetPlot_ParaChange_from10_every3_14_CV_C01_20.csv
mode,ox/red,error,control changes,counter inc.,time/s,control/V,Ewe/V,<I>/mA,cycle number,(Q-Qo)/C,I Range,P/W,log(|I|),Tafel slope mV/dec,alpha_eff,dI/d(E-IR),E-IR/V,
2,1,0,1,0,40601.7,2.44065e-05,-0.000401673,32.4998,21,0.0000000E+000,10,-1.30543e-05,-1.48812, , , ,-0.000401673,
2,1,0,1,0,40601.7,0.00332042,0.00294921,33.7706,21,0.00010326,10,9.95966e-05,-1.47146, , , ,0.002949212,
2,1,0,1,0,40601.7,0.0073156,0.00692468,34.8007,21,0.000240543,10,0.000240984,-1.45841, , , ,0.00692468,
2,1,0,1,0,40601.7,0.0113108,0.0109489,35.7148,21,0.000381679,10,0.000391039,-1.44715,0.364334,0.161939,224.533,0.0109489,
2,1,0,1,0,40601.7,0.0153059,0.014917,36.5528,21,0.000526299,10,0.000545256,-1.43708,0.404078,0.146012,207.666,0.014917,
2,1,0,1,0,40601.7,0.0193011,0.0188649,37.3442,21,0.000674183,10,0.000704492,-1.42778,0.441935,0.133504,194.089,0.0188649,
2,1,0,1,0,40601.7,0.0233462,0.0229867,38.1363,21,0.000825263,10,0.000876625,-1.41866,0.477069,0.123672,183.432,0.0229867,
2,1,0,1,0,40601.7,0.0273414,0.0270077,38.8317,21,0.000979272,10,0.00104875,-1.41081,0.515674,0.114413,172.899,0.0270077,
2,1,0,1,0,40601.7,0.0313366,0.0309577,39.4951,21,0.00113599,10,0.00122268,-1.40346,0.555547,0.106202,163.41,0.03095773,
2,1,0,1,0,40601.8,0.0353317,0.0349915,40.1324,21,0.00129532,10,0.0014043,-1.3965,0.585143,0.10083,157.706,0.0349915,
2,1,0,1,0,40601.8,0.0393269,0.03895,40.7448,21,0.00145714,10,0.00158701,-1.38993,0.617109,0.0956071,151.848,0.03895,
2,1,0,1,0,40601.8,0.0433221,0.0429668,41.3485,21,0.00162139,10,0.00177661,-1.38354,0.651961,0.0904962,145.811,0.0429668,
2,1,0,1,0,40601.8,0.0473173,0.0469359,41.9214,21,0.00178798,10,0.00196762,-1.37756,0.682359,0.0864647,141.265,0.0469359,
2,1,0,1,0,40601.8,0.0513124,0.0509549,42.4601,21,0.00195681,10,0.00216355,-1.37202,0.717778,0.0821981,136.102,0.0509549,
2,1,0,1,0,40601.8,0.0553076,0.0549282,43.002,21,0.00212779,10,0.00236202,-1.36651,0.732188,0.0805804,135.211,0.0549282,
2,1,0,1,0,40601.8,0.0593028,0.0589461,43.5233,21,0.00230088,10,0.00256553,-1.36128,0.754578,0.0781894,132.783,0.0589461,
2,1,0,1,0,40601.8,0.0633479,0.0629502,44.0867,21,0.00247614,10,0.00277527,-1.35569,0.79121,0.0745693,128.114,0.0629502,
2,1,0,1,0,40601.8,0.0673431,0.0669638,44.5858,21,0.00265352,10,0.00298564,-1.3508,0.81066,0.0727802,126.478,0.0669638,
2,1,0,1,0,40601.8,0.0713383,0.0709807,45.0585,21,0.00283286,10,0.00319829,-1.34622,0.853347,0.0691395,121.568,0.0709807,
2,1,0,1,0,40601.8,0.0753334,0.0749614,45.5489,21,0.00301413,10,0.00341441,-1.34152,0.865886,0.0681383,121.109,0.0749614,
2,1,0,1,0,40601.8,0.0793286,0.0789698,46.0341,21,0.00319733,10,0.00363531,-1.33692,0.866559,0.0680854,122.299,0.0789698,
2,1,0,1,0,40601.8,0.0833238,0.0828858,46.5141,21,0.00338249,10,0.00385536,-1.33242,0.884578,0.0666984,121.059,0.0828858,
2,1,0,1,0,40601.8,0.0873189,0.0869186,47.0077,21,0.00356957,10,0.00408585,-1.32783,0.892241,0.0661256,121.277,0.0869186,
2,1,0,1,0,40601.8,0.0913141,0.0908983,47.4782,21,0.00375858,10,0.00431568,-1.32351,0.892,0.0661435,122.592,0.09089826,
2,1,0,1,0,40601.8,0.0953093,0.0949098,47.9673,21,0.00394954,10,0.00455257,-1.31905,0.885015,0.0666656,124.883,0.0949098,
2,1,0,1,0,40601.8,0.0993045,0.0989372,48.4819,21,0.00414249,10,0.00479666,-1.31442,0.866783,0.0680678,128.847,0.0989372,
2,1,0,1,0,40601.8,0.103319,0.102913,49.0051,21,0.0043375,10,0.00504325,-1.30976,0.875089,0.0674217,128.912,0.102913,
2,1,0,1,0,40601.8,0.107345,0.106918,49.5423,21,0.00453469,10,0.00529695,-1.30502,0.888822,0.06638,128.237,0.106918,
2,1,0,1,0,40601.8,0.11134,0.110927,50.0321,21,0.00473387,10,0.00554993,-1.30075,0.909788,0.0648503,126.559,0.110927,
2,1,0,1,0,40601.8,0.115335,0.114941,50.5341,21,0.00493506,10,0.00580844,-1.29642,0.900277,0.0655354,129.334,0.114941,
2,1,0,1,0,40601.8,0.11933,0.118826,51.0191,21,0.00513821,10,0.00606241,-1.29227,0.874971,0.0674308,134.471,0.1188262,
2,1,0,1,0,40601.8,0.123325,0.122883,51.6071,21,0.00534352,10,0.00634165,-1.28729,0.857885,0.0687738,138.589,0.1228833,
2,1,0,1,0,40601.8,0.127321,0.126895,52.1793,21,0.00555114,10,0.00662128,-1.2825,0.842585,0.0700226,142.538,0.126895,
2,1,0,1,0,40601.8,0.131316,0.130936,52.7509,21,0.00576106,10,0.00690699,-1.27777,0.848399,0.0695427,143.153,0.130936,
2,1,0,1,0,40601.9,0.135311,0.134937,53.3155,21,0.00597325,10,0.00719423,-1.27315,0.847364,0.0696277,144.926,0.134937,
2,1,0,1,0,40601.9,0.139306,0.138903,53.9004,21,0.00618775,10,0.00748692,-1.26841,0.825628,0.0714607,150.456,0.138903,
2,1,0,1,0,40601.9,0.143301,0.142942,54.505,21,0.00640461,10,0.00779105,-1.26356,0.814195,0.0724642,154.246,0.142942,
2,1,0,1,0,40601.9,0.147346,0.146973,55.1637,21,0.00662404,10,0.00810755,-1.25835,0.805867,0.0732131,157.587,0.146973,
2,1,0,1,0,40601.9,0.151342,0.150954,55.7861,21,0.00684602,10,0.00842116,-1.25347,0.795917,0.0741283,161.391,0.1509544,
2,1,0,1,0,40601.9,0.155337,0.154921,56.4247,21,0.0070705,10,0.00874139,-1.24853,0.796055,0.0741155,163.304,0.154921,
2,1,0,1,0,40601.9,0.159332,0.15895,57.0885,21,0.0072976,10,0.00907421,-1.24345,0.790667,0.0746205,166.297,0.15895,
2,1,0,1,0,40601.9,0.163327,0.162944,57.7719,21,0.00752738,10,0.00941361,-1.23828,0.791151,0.0745749,168.104,0.162944,
2,1,0,1,0,40601.9,0.167322,0.166922,58.4415,21,0.00775986,10,0.00975517,-1.23328,0.800156,0.0737356,168.12,0.166922,
2,1,0,1,0,40601.9,0.171317,0.170923,59.1146,21,0.00799506,10,0.010104,-1.22831,0.817401,0.07218,166.461,0.170923,
2,1,0,1,0,40601.9,0.175313,0.174941,59.7769,21,0.00823291,10,0.0104574,-1.22347,0.836328,0.0705465,164.502,0.174941,
2,1,0,1,0,40601.9,0.179308,0.178929,60.4327,21,0.00847342,10,0.0108132,-1.21873,0.850142,0.0694001,163.64,0.178929,
2,1,0,1,0,40601.9,0.183303,0.182937,61.0761,21,0.00871651,10,0.0111731,-1.21413,0.891636,0.0661705,157.607,0.182937,
2,1,0,1,0,40601.9,0.187348,0.186967,61.74,21,0.00896215,10,0.0115433,-1.20943,0.940702,0.0627191,150.862,0.186967,
2,1,0,1,0,40601.9,0.191343,0.190959,62.3015,21,0.00921031,10,0.0118971,-1.2055,1.00803,0.0585298,142.102,0.190959,
2,1,0,1,0,40601.9,0.195338,0.194951,62.8498,21,0.00946068,10,0.0122526,-1.2017,1.11378,0.0529726,129.776,0.194951,
2,1,0,1,0,40601.9,0.199334,0.198992,63.3574,21,0.00971315,10,0.0126076,-1.1982,1.20935,0.0487866,120.447,0.198992,
2,1,0,1,0,40601.9,0.203329,0.202991,63.8195,21,0.00996756,10,0.0129548,-1.19505,1.38004,0.0427525,106.283,0.202991,
2,1,0,1,0,40601.9,0.207324,0.206966,64.2295,21,0.0102237,10,0.0132933,-1.19227,1.60788,0.0366943,91.7769,0.2069661,
2,1,0,1,0,40601.9,0.211319,0.211017,64.5574,21,0.0104813,10,0.0136227,-1.19005,2.00392,0.0294423,74.0096,0.211017,
2,1,0,1,0,40601.9,0.215314,0.214957,64.8227,21,0.0107402,10,0.0139341,-1.18827,2.69443,0.021897,55.2643,0.214957,
2,1,0,1,0,40601.9,0.219309,0.21899,65.0037,21,0.0109998,10,0.0142352,-1.18706,4.01901,0.0146802,37.1555,0.21899,
2,1,0,1,0,40601.9,0.223305,0.22291,65.1107,21,0.0112601,10,0.0145138,-1.18635,8.30984,0.00710002,18.0018,0.22291,
2,1,0,1,0,40601.9,0.227314,0.226927,65.1485,21,0.0115206,10,0.014784,-1.1861,-59.781,-0.000986936,-2.50297,0.226927,
2,1,0,1,0,40601.9,0.231345,0.230984,65.1112,21,0.0117812,10,0.0150397,-1.18634,-6.31683,-0.00934012,-23.6644,0.230984,
2,1,0,1,0,40602,0.23534,0.235026,64.9635,21,0.0120414,10,0.0152681,-1.18733,-3.29586,-0.0179012,-45.2603,0.235026,
2,1,0,1,0,40602,0.239335,0.239005,64.7298,21,0.0123008,10,0.0154708,-1.1889,-2.21398,-0.0266489,-67.1554,0.239005,
2,1,0,1,0,40602,0.24333,0.242987,64.4217,21,0.0125591,10,0.0156536,-1.19097,-1.66857,-0.0353597,-88.6669,0.242987,
2,1,0,1,0,40602,0.247326,0.247023,64.0341,21,0.012816,10,0.0158179,-1.19359,-1.34604,-0.0438323,-109.229,0.247023,
2,1,0,1,0,40602,0.251321,0.251008,63.5464,21,0.0130711,10,0.0159507,-1.19691,-1.12892,-0.0522624,-129.273,0.251008,
2,1,0,1,0,40602,0.255316,0.254985,62.9844,21,0.0133241,10,0.01606,-1.20077,-0.965624,-0.0611004,-149.821,0.2549845,
2,1,0,1,0,40602,0.259311,0.259009,62.3505,21,0.0135748,10,0.0161493,-1.20516,-0.854016,-0.0690854,-167.695,0.259009,
2,1,0,1,0,40602,0.263306,0.262997,61.6409,21,0.0138227,10,0.0162114,-1.21013,-0.777996,-0.0758358,-182.058,0.262997,
2,1,0,1,0,40602,0.267301,0.266985,60.8671,21,0.0140676,10,0.0162506,-1.21562,-0.703787,-0.0838322,-198.728,0.266985,
2,1,0,1,0,40602,0.271347,0.271013,60.0663,21,0.0143094,10,0.0162787,-1.22137,-0.647487,-0.0911215,-213.078,0.271013,
2,1,0,1,0,40602,0.275342,0.275063,59.16,21,0.0145478,10,0.0162727,-1.22797,-0.604543,-0.0975944,-224.898,0.275063,
2,1,0,1,0,40602,0.279337,0.279022,58.2264,21,0.0147825,10,0.0162464,-1.23488,-0.56358,-0.104688,-237.581,0.2790218,
2,1,0,1,0,40602,0.283332,0.28301,57.2632,21,0.0150134,10,0.016206,-1.24212,-0.539375,-0.109386,-244.159,0.28301,
2,1,0,1,0,40602,0.287327,0.286968,56.2755,21,0.0152404,10,0.0161493,-1.24968,-0.521237,-0.113192,-248.348,0.286968,
2,1,0,1,0,40602,0.291322,0.29099,55.2715,21,0.0154634,10,0.0160834,-1.2575,-0.508951,-0.115925,-250.068,0.29099,
2,1,0,1,0,40602,0.295318,0.295003,54.2574,21,0.0156823,10,0.0160061,-1.26554,-0.499076,-0.118219,-252.199,0.295003,
2,1,0,1,0,40602,0.299013,0.298735,53.3309,21,0.0158813,10,0.0159318,-1.27302,-0.190018,-0.310497,-639.796,0.298735,
2,1,0,0,0,40602,0.300012,0.299632,53.0818,21,0.0159345,10,0.015905,-1.27505,0.00508224,11.6091,22147.4,0.299632,
2,1,0,1,0,40602,0.298714,0.298603,50.4002,21,0.0160007,10,0.0150497,-1.29757,0.0590229,0.999613,1779.18,0.298603,
2,1,0,1,0,40602,0.294718,0.294534,43.8767,21,0.0161881,10,0.0129232,-1.35777,0.068507,0.861226,1441.97,0.2945345,
2,1,0,1,0,40602,0.290723,0.290492,38.666,21,0.0163524,10,0.0112322,-1.41267,0.0718092,0.821622,1261.56,0.290492,
2,1,0,1,0,40602,0.286728,0.286479,34.115,21,0.0164974,10,0.00977321,-1.46705,0.0724404,0.814463,1092.65,0.286479,
2,1,0,1,0,40602,0.282733,0.282461,30.0355,21,0.0166252,10,0.00848384,-1.52237,0.0706769,0.834785,982.056,0.282461,
2,1,0,1,0,40602,0.278738,0.278499,26.3556,21,0.0167375,10,0.00734001,-1.57913,0.0681916,0.865209,889.992,0.278499,
2,1,0,1,0,40602,0.274742,0.274516,22.9765,21,0.0168358,10,0.00630743,-1.63872,0.0644997,0.914733,816.967,0.274516,
2,1,0,1,0,40602,0.270747,0.270479,19.8756,21,0.0169211,10,0.00537594,-1.70168,0.0607485,0.971217,747.871,0.270479,
2,1,0,1,0,40602,0.266702,0.266469,16.9705,21,0.0169944,10,0.00452211,-1.77031,0.0560327,1.05296,691.2,0.266469,
2,1,0,1,0,40602.1,0.262707,0.262408,14.3219,21,0.0170567,10,0.00375818,-1.844,0.0506208,1.16553,642.079,0.262408,
2,1,0,1,0,40602.1,0.258712,0.258456,11.876,21,0.0171088,10,0.00306941,-1.92533,0.0447721,1.31778,595.077,0.258456,
2,1,0,1,0,40602.1,0.254717,0.254465,9.5932,21,0.0171514,10,0.00244113,-2.01804,0.0381263,1.54749,555.217,0.254465,
2,1,0,1,0,40602.1,0.250722,0.250486,7.4597,21,0.0171853,10,0.00186855,-2.12728,0.0308492,1.91253,517.404,0.250486,
2,1,0,1,0,40602.1,0.246726,0.246457,5.46525,21,0.0172109,10,0.00134695,-2.26239,0.0224883,2.62358,482.844,0.246457,
2,1,0,1,0,40602.1,0.242731,0.242457,3.59779,21,0.0172288,10,0.000872308,-2.44396,0.010554,5.59028,451.424,0.242457,
2,1,0,1,0,40602.1,0.238736,0.238453,1.86185,21,0.0172395,10,0.000443962,-2.73006,0.0257671,2.28974,425.119,0.238453,
2,1,0,1,0,40602.1,0.234741,0.234462,0.226184,21,0.0172435,10,5.30316e-05,-3.64554,0.150295,0.392561,400.063,0.234462,
2,0,0,1,0,40602.1,0.230746,0.230509,-1.31432,21,0.0172412,10,-0.000302963,-2.8813,-0.0459805,-1.28315,374.621,0.230509,
2,0,0,1,0,40602.1,0.226701,0.226429,-2.81444,21,0.0172328,10,-0.00063727,-2.55061,-0.0116092,-5.0822,354.087,0.226429,
2,0,0,1,0,40602.1,0.222705,0.222353,-4.16961,21,0.0172187,10,-0.000927123,-2.3799,-0.0228045,-2.58721,332.778,0.222353,
2,0,0,1,0,40602.1,0.21871,0.218413,-5.45665,21,0.0171993,10,-0.00119181,-2.26307,-0.0360727,-1.63558,312.874,0.218413,
2,0,0,1,0,40602.1,0.214715,0.214429,-6.6654,21,0.0171749,10,-0.00142926,-2.17617,-0.0480279,-1.22845,299.809,0.214429,
2,0,0,1,0,40602.1,0.21072,0.210401,-7.82919,21,0.0171458,10,-0.00164727,-2.10628,-0.060982,-0.967499,282.891,0.210401,
2,0,0,1,0,40602.1,0.206725,0.20645,-8.93745,21,0.0171122,10,-0.00184513,-2.04879,-0.0737756,-0.799722,269.853,0.2064497,
2,0,0,1,0,40602.1,0.202729,0.202423,-9.98004,21,0.0170742,10,-0.00202019,-2.00087,-0.0871002,-0.677381,257.522,0.202423,
2,0,0,1,0,40602.1,0.198734,0.198421,-10.9852,21,0.0170321,10,-0.0021797,-1.95919,-0.101168,-0.583187,245.317,0.198421,
2,0,0,1,0,40602.1,0.194739,0.19443,-11.942,21,0.0169862,10,-0.00232189,-1.92292,-0.114486,-0.515346,236.717,0.19443,
2,0,0,1,0,40602.1,0.190744,0.190475,-12.8564,21,0.0169365,10,-0.00244882,-1.89088,-0.128413,-0.459455,228.191,0.190475,
2,0,0,1,0,40602.1,0.186735,0.186448,-13.7616,21,0.0168832,10,-0.00256583,-1.86133,-0.142535,-0.413934,220.12,0.186448,
2,0,0,1,0,40602.1,0.182704,0.182398,-14.6417,21,0.0168262,10,-0.0026706,-1.83441,-0.157921,-0.373604,211.289,0.182398,
2,0,0,1,0,40602.1,0.178709,0.178443,-15.461,21,0.0167659,10,-0.00275891,-1.81076,-0.172388,-0.342252,204.951,0.1784433,
2,0,0,1,0,40602.1,0.174713,0.174371,-16.2588,21,0.0167024,10,-0.00283508,-1.78891,-0.187252,-0.315083,198.991,0.174371,
2,0,0,1,0,40602.1,0.170718,0.170435,-17.0435,21,0.0166357,10,-0.00290482,-1.76844,-0.199595,-0.295598,195.877,0.170435,
2,0,0,1,0,40602.1,0.166723,0.166386,-17.8277,21,0.0165659,10,-0.00296629,-1.7489,-0.210055,-0.280878,194.724,0.166386,
2,0,0,1,0,40602.2,0.162728,0.16245,-18.5937,21,0.016493,10,-0.00302055,-1.73063,-0.221604,-0.26624,192.722,0.16245,
2,0,0,1,0,40602.2,0.158733,0.15845,-19.359,21,0.016417,10,-0.00306745,-1.71312,-0.229466,-0.257118,194.016,0.15845,
2,0,0,1,0,40602.2,0.154737,0.154377,-20.1382,21,0.0163379,10,-0.00310888,-1.69598,-0.235458,-0.250575,196.843,0.154377,
2,0,0,1,0,40602.2,0.150742,0.150424,-20.9247,21,0.0162557,10,-0.00314758,-1.67934,-0.23653,-0.24944,203.981,0.150424,
2,0,0,1,0,40602.2,0.146747,0.146435,-21.7462,21,0.0161703,10,-0.0031844,-1.66262,-0.237768,-0.248141,210.872,0.146435,
2,0,0,1,0,40602.2,0.142702,0.142397,-22.6337,21,0.0160815,10,-0.00322296,-1.64525,-0.238395,-0.247489,218.585,0.1423969,
2,0,0,1,0,40602.2,0.138707,0.138445,-23.4979,21,0.0159891,10,-0.00325317,-1.62897,-0.236689,-0.249272,228.915,0.138445,
2,0,0,1,0,40602.2,0.134712,0.134399,-24.4275,21,0.0158932,10,-0.00328304,-1.61212,-0.235122,-0.250934,239.96,0.134399,
2,0,0,1,0,40602.2,0.130717,0.130427,-25.4106,21,0.0157935,10,-0.00331423,-1.59498,-0.229529,-0.257048,255.741,0.130427,
2,0,0,1,0,40602.2,0.126721,0.126401,-26.4721,21,0.0156896,10,-0.00334609,-1.57721,-0.224571,-0.262723,272.143,0.126401,
2,0,0,1,0,40602.2,0.122726,0.122412,-27.5981,21,0.0155814,10,-0.00337835,-1.55912,-0.219996,-0.268187,289.463,0.122412,
2,0,0,1,0,40602.2,0.118731,0.118423,-28.7752,21,0.0154685,10,-0.00340766,-1.54098,-0.218139,-0.27047,304.374,0.118423,
2,0,0,1,0,40602.2,0.114736,0.114468,-30.0302,21,0.0153508,10,-0.00343749,-1.52244,-0.217511,-0.27125,318.298,0.114468,
2,0,0,1,0,40602.2,0.110741,0.110424,-31.3351,21,0.015228,10,-0.00346014,-1.50397,-0.216747,-0.272207,333.204,0.110424,
2,0,0,1,0,40602.2,0.106745,0.106445,-32.6805,21,0.0150998,10,-0.00347867,-1.48571,-0.222091,-0.265657,338.724,0.106445,
2,0,0,1,0,40602.2,0.102703,0.102425,-34.106,21,0.0149662,10,-0.0034933,-1.46717,-0.228478,-0.258231,342.682,0.102425,
2,0,0,1,0,40602.2,0.0987052,0.0984314,-35.4622,21,0.0148269,10,-0.00349059,-1.45023,-0.236566,-0.249402,344.206,0.0984314,
2,0,0,1,0,40602.2,0.09471,0.094422,-36.8186,21,0.0146822,10,-0.00347648,-1.43393,-0.249016,-0.236933,339.869,0.094422,
2,0,0,1,0,40602.2,0.0907148,0.0904402,-38.1894,21,0.0145321,10,-0.00345386,-1.41806,-0.25968,-0.227203,337.811,0.0904402,
2,0,0,1,0,40602.2,0.0867197,0.0864393,-39.539,21,0.0143765,10,-0.00341772,-1.40297,-0.273176,-0.215978,332.239,0.0864393,
2,0,0,1,0,40602.2,0.0827245,0.0824521,-40.8601,21,0.0142155,10,-0.003369,-1.3887,-0.289188,-0.20402,324.23,0.0824521,
2,0,0,1,0,40602.2,0.0787293,0.0784236,-42.1339,21,0.0140494,10,-0.00330429,-1.37537,-0.307465,-0.191892,314.519,0.0784236,
2,0,0,1,0,40602.2,0.0747341,0.0744874,-43.3618,21,0.0138783,10,-0.00322991,-1.36289,-0.329492,-0.179064,302.118,0.0744874,
2,0,0,1,0,40602.2,0.070739,0.0704865,-44.5564,21,0.0137023,10,-0.00314063,-1.35109,-0.353581,-0.166864,289.1,0.0704865,
2,0,0,1,0,40602.2,0.0667438,0.0664527,-45.6938,21,0.0135217,10,-0.00303648,-1.34014,-0.378431,-0.155907,277.087,0.0664527,
2,0,0,1,0,40602.3,0.0627403,0.0625154,-46.7329,21,0.0133367,10,-0.00292153,-1.33038,-0.405005,-0.145677,265.195,0.0625154,
2,0,0,1,0,40602.3,0.0587035,0.0585103,-47.7889,21,0.0131475,10,-0.00279614,-1.32067,-0.439176,-0.134343,249.912,0.05851027,
2,0,0,1,0,40602.3,0.0547083,0.0544892,-48.7988,21,0.0129541,10,-0.00265901,-1.31159,-0.469172,-0.125754,238.628,0.0544892,
2,0,0,1,0,40602.3,0.0507132,0.0504448,-49.6944,21,0.0127571,10,-0.00250682,-1.30369,-0.512755,-0.115065,222.488,0.0504448,
2,0,0,1,0,40602.3,0.046718,0.0464672,-50.5625,21,0.0125564,10,-0.0023495,-1.29617,-0.567592,-0.103948,204.55,0.04646723,
2,0,0,1,0,40602.3,0.0427228,0.042531,-51.3441,21,0.0123525,10,-0.00218371,-1.28951,-0.615963,-0.095785,191.411,0.042531,
2,0,0,1,0,40602.3,0.0387276,0.0384453,-52.0806,21,0.0121456,10,-0.00200225,-1.28332,-0.675427,-0.0873522,177.138,0.03844526,
2,0,0,1,0,40602.3,0.0347325,0.0345101,-52.7445,21,0.0119359,10,-0.00182022,-1.27782,-0.734117,-0.0803687,165.162,0.0345101,
2,0,0,1,0,40602.3,0.0307373,0.0305367,-53.3844,21,0.0117235,10,-0.00163019,-1.27259,-0.791573,-0.0745352,155.057,0.0305367,
2,0,0,1,0,40602.3,0.0267421,0.0264924,-53.993,21,0.0115087,10,-0.0014304,-1.26766,-0.840537,-0.0701932,147.719,0.0264924,
2,0,0,1,0,40602.3,0.022747,0.0225339,-54.5478,21,0.0112916,10,-0.00122917,-1.26322,-0.919108,-0.0641927,136.478,0.02253386,
2,0,0,1,0,40602.3,0.0187018,0.018429,-55.12,21,0.0110722,10,-0.00101581,-1.25869,-1.01243,-0.0582759,125.066,0.018429,
2,0,0,1,0,40602.3,0.0147067,0.0144154,-55.5846,21,0.0108507,10,-0.000801273,-1.25505,-1.12103,-0.0526299,113.917,0.0144154,
2,0,0,1,0,40602.3,0.0107115,0.0104473,-55.9997,21,0.0106275,10,-0.000585048,-1.25181,-1.28012,-0.0460894,100.587,0.0104473,
2,0,0,1,0,40602.3,0.00671632,0.00640614,-56.385,21,0.0104027,10,-0.00036121,-1.24884,-1.42207,-0.0414889,91.1805,0.00640614,
2,0,0,1,0,40602.3,0.00272115,0.00242113,-56.7302,21,0.0101764,10,-0.000137351,-1.24619,-1.61892,-0.036444,80.5684,0.00242113,
2,0,0,1,0,40602.3,-0.00127403,-0.00162326,-57.047,21,0.00994878,10,9.26022e-05,-1.24377,-1.86489,-0.0316373,70.3113,-0.00162326,
2,0,0,1,0,40602.3,-0.0052692,-0.0056772,-57.2988,21,0.00972007,10,0.000325297,-1.24185,-2.17672,-0.027105,60.5222,-0.0056772,
2,0,0,1,0,40602.3,-0.00926438,-0.00959964,-57.5104,21,0.00949042,10,0.000552079,-1.24025,-2.64681,-0.022291,49.9746,-0.00959964,
2,0,0,1,0,40602.3,-0.0132596,-0.0136059,-57.7001,21,0.00925996,10,0.00078506,-1.23882,-3.08974,-0.0190954,42.9557,-0.0136059,
2,0,0,1,0,40602.3,-0.0172547,-0.0176078,-57.8458,21,0.00902886,10,0.00101854,-1.23773,-3.92222,-0.0150425,33.922,-0.0176078,
2,0,0,1,0,40602.3,-0.0212915,-0.0216141,-57.9834,21,0.00879722,10,0.00125326,-1.2367,-5.71418,-0.0103252,23.3261,-0.0216141,
2,0,0,1,0,40602.3,-0.025295,-0.0256775,-58.0558,21,0.00856511,10,0.00149073,-1.23615,-9.25482,-0.00637506,14.4207,-0.0256775,
2,0,0,1,0,40602.3,-0.0292902,-0.0296477,-58.0743,21,0.00833285,10,0.00172177,-1.23602,-34.1148,-0.00172946,3.91573,-0.0296477,
2,0,0,1,0,40602.3,-0.0332854,-0.0336666,-58.0774,21,0.00810053,10,0.00195527,-1.23599,23.9094,0.00246764,-5.58674,-0.0336666,
2,0,0,1,0,40602.4,-0.0372805,-0.0376771,-58.0463,21,0.00786828,10,0.00218702,-1.23623,10.5016,0.00561817,-12.711,-0.0376771,
2,0,0,1,0,40602.4,-0.0412757,-0.0416102,-57.9668,21,0.00763625,10,0.00241201,-1.23682,6.59923,0.00894043,-20.2079,-0.0416102,
2,0,0,1,0,40602.4,-0.0452709,-0.0456598,-57.8708,21,0.00740457,10,0.00264237,-1.23754,4.90375,0.0120316,-27.1546,-0.0456598,
2,0,0,1,0,40602.4,-0.0492661,-0.0496258,-57.7549,21,0.00717335,10,0.00286613,-1.23841,4.2441,0.0139017,-31.313,-0.0496258,
2,0,0,1,0,40602.4,-0.0532612,-0.0535641,-57.6149,21,0.00694261,10,0.00308609,-1.23947,3.59338,0.0164191,-36.8942,-0.0535641,
2,0,0,1,0,40602.4,-0.0572564,-0.0576159,-57.4656,21,0.00671245,10,0.00331093,-1.24059,3.4713,0.0169965,-38.1072,-0.0576159,
2,0,0,1,0,40602.4,-0.0612544,-0.0615861,-57.2832,21,0.00648297,10,0.00352785,-1.24197,3.24365,0.0181894,-40.6664,-0.0615861,
2,0,0,1,0,40602.4,-0.0652967,-0.0656506,-57.1442,21,0.00625406,10,0.00375156,-1.24303,3.02237,0.0195211,-43.5141,-0.0656506,
2,0,0,1,0,40602.4,-0.0692919,-0.0696728,-56.9598,21,0.00602588,10,0.00396855,-1.24443,2.98907,0.0197386,-43.8555,-0.0696728,
2,0,0,1,0,40602.4,-0.0732871,-0.0736302,-56.7687,21,0.00579845,10,0.00417989,-1.24589,2.76486,0.0213393,-47.2742,-0.0736302,
2,0,0,1,0,40602.4,-0.0772822,-0.0776449,-56.579,21,0.00557178,10,0.00439307,-1.24735,2.7289,0.0216205,-47.7384,-0.0776449,
2,0,0,1,0,40602.4,-0.0812774,-0.0816564,-56.3876,21,0.00534587,10,0.00460441,-1.24882,2.84282,0.020754,-45.6836,-0.0816564,
2,0,0,1,0,40602.4,-0.0852726,-0.0856807,-56.1956,21,0.00512072,10,0.00481488,-1.2503,2.93759,0.0200845,-44.0717,-0.0856807,
2,0,0,1,0,40602.4,-0.0892678,-0.0896519,-56.0368,21,0.00489628,10,0.00502381,-1.25153,3.10338,0.0190115,-41.5902,-0.08965189,
2,0,0,1,0,40602.4,-0.0932629,-0.0936369,-55.8742,21,0.00467249,10,0.00523188,-1.25279,3.38886,0.01741,-37.9766,-0.0936369,
2,0,0,1,0,40602.4,-0.0972581,-0.097641,-55.7228,21,0.0044493,10,0.00544083,-1.25397,3.90008,0.0151279,-32.9278,-0.097641,
2,0,0,1,0,40602.4,-0.101253,-0.101615,-55.5905,21,0.00422669,10,0.00564885,-1.255,4.24765,0.01389,-30.1571,-0.1016154,
2,0,0,1,0,40602.4,-0.105298,-0.105676,-55.5092,21,0.00400451,10,0.00586597,-1.25564,4.93404,0.0119577,-25.9074,-0.105676,
2,0,0,1,0,40602.4,-0.109294,-0.10969,-55.39,21,0.00378272,10,0.00607575,-1.25657,5.5814,0.0105708,-22.8579,-0.10969,
2,0,0,1,0,40602.4,-0.113289,-0.113649,-55.3081,21,0.00356136,10,0.0062857,-1.25721,5.90872,0.00998524,-21.5642,-0.113649,
2,0,0,1,0,40602.4,-0.117284,-0.117665,-55.2236,21,0.00334031,10,0.00649787,-1.25787,7.46186,0.00790687,-17.0504,-0.117665,
2,0,0,1,0,40602.4,-0.121279,-0.121681,-55.164,21,0.00311954,10,0.00671244,-1.25834,9.59892,0.00614653,-13.2419,-0.121681,
2,0,0,1,0,40602.4,-0.125274,-0.125612,-55.1186,21,0.002899,10,0.00692357,-1.2587,16.0446,0.00367724,-7.91614,-0.125612,
2,0,0,1,0,40602.4,-0.129269,-0.129625,-55.0965,21,0.00267857,10,0.00714188,-1.25888,30.4619,0.00193685,-4.16729,-0.129625,
2,0,0,1,0,40602.4,-0.133265,-0.133635,-55.0972,21,0.0024582,10,0.00736294,-1.25887,-242.323,-0.000243476,0.523783,-0.133635,
2,0,0,1,0,40602.5,-0.13726,-0.137606,-55.0977,21,0.00223781,10,0.00758175,-1.25887,-19.6954,-0.00299563,6.44738,-0.137606,
2,0,0,1,0,40602.5,-0.141255,-0.141665,-55.127,21,0.00201736,10,0.00780955,-1.25864,-13.5637,-0.00434984,9.36605,-0.141665,
2,0,0,1,0,40602.5,-0.145286,-0.145678,-55.2,21,0.00179676,10,0.00804145,-1.25806,-9.13837,-0.00645629,13.911,-0.145678,
2,0,0,1,0,40602.5,-0.149295,-0.149624,-55.247,21,0.00157585,10,0.00826629,-1.25769,-7.41087,-0.00796128,17.1709,-0.149624,
2,0,0,1,0,40602.5,-0.15329,-0.153664,-55.3211,21,0.00135471,10,0.00850088,-1.25711,-7.26005,-0.00812667,17.5515,-0.153664,
2,0,0,1,0,40602.5,-0.157286,-0.157716,-55.4026,21,0.00113327,10,0.00873789,-1.25647,-6.13799,-0.00961227,20.7876,-0.157716,
2,0,0,1,0,40602.5,-0.161281,-0.161645,-55.4802,21,0.000911502,10,0.00896811,-1.25586,-5.7207,-0.0103134,22.3385,-0.161645,
2,0,0,1,0,40602.5,-0.165276,-0.165642,-55.5799,21,0.000689386,10,0.00920635,-1.25508,-5.17553,-0.0113998,24.7359,-0.165642,
2,0,0,1,0,40602.5,-0.169271,-0.169634,-55.6778,21,0.000466865,10,0.00944486,-1.25432,-4.7349,-0.0124607,27.085,-0.169634,
2,0,0,1,0,40602.5,-0.173266,-0.173614,-55.7958,21,0.00024389,10,0.00968693,-1.2534,-4.57241,-0.0129035,28.1019,-0.173614,
2,0,0,1,0,40602.5,-0.177261,-0.177593,-55.9122,21,2.04669e-05,10,0.00992958,-1.25249,-4.31746,-0.0136655,29.8209,-0.177593,
2,0,0,1,0,40602.5,-0.181257,-0.181609,-56.0286,21,-0.000203436,10,0.0101753,-1.25159,-3.92757,-0.015022,32.8648,-0.181609,
2,0,0,1,0,40602.5,-0.185252,-0.185609,-56.1542,21,-0.000427813,10,0.0104227,-1.25062,-3.90253,-0.0151184,33.1462,-0.185609,
2,0,0,1,0,40602.5,-0.189297,-0.189609,-56.3215,21,-0.00065282,10,0.0106791,-1.24933,-3.87424,-0.0152288,33.4587,-0.189609,
2,0,0,1,0,40602.5,-0.193292,-0.193644,-56.4442,21,-0.000878375,10,0.0109301,-1.24838,-3.9169,-0.0150629,33.1531,-0.193644,
2,0,0,1,0,40602.5,-0.197287,-0.197639,-56.565,21,-0.0011044,10,0.0111795,-1.24745,-135.924,-0.000434065,0.954185,-0.1976395,
2,0,0,0,0,40602.5,-0.199984,-0.200246,-56.6394,21,-0.00125723,10,0.0113418,-1.24688,0.0702297,0.8401,-1747.02,-0.200246,
2,0,0,0,1,40602.5,-0.199984,-0.200532,-56.3319,21,-0.00129106,10,0.0112964,-1.24925,-0.0445942,-1.32304,2605.28,-0.200532,
2,0,0,1,1,40602.5,-0.196688,-0.197192,-50.2456,21,-0.00145378,10,0.00990803,-1.2989,-0.0751622,-0.784969,1470.61,-0.197192,
2,0,0,1,1,40602.5,-0.192693,-0.193125,-44.8043,21,-0.001643,10,0.00865285,-1.34868,-0.0810686,-0.727779,1294.93,-0.193125,
2,0,0,1,1,40602.5,-0.188698,-0.189132,-40.295,21,-0.00181259,10,0.00762106,-1.39475,-0.0870055,-0.678118,1082.23,-0.189132,
2,0,0,1,1,40602.5,-0.184653,-0.185072,-36.3114,21,-0.00196531,10,0.00672022,-1.43996,-0.0887302,-0.664937,951.089,-0.185072,
2,0,0,1,1,40602.5,-0.180657,-0.181054,-32.7802,21,-0.00210306,10,0.00593498,-1.48439,-0.0886392,-0.66562,856.129,-0.181054,
2,0,0,1,1,40602.5,-0.176662,-0.177088,-29.5512,21,-0.00222734,10,0.00523315,-1.52943,-0.0870482,-0.677785,783.194,-0.177088,
2,0,0,1,1,40602.5,-0.172667,-0.1731,-26.5693,21,-0.00233922,10,0.00459913,-1.57562,-0.0840134,-0.702269,727.873,-0.1731,
2,0,0,1,1,40602.5,-0.168672,-0.169078,-23.7858,21,-0.00243961,10,0.00402166,-1.62368,-0.0803192,-0.734569,679.769,-0.169078,
2,0,0,1,1,40602.6,-0.164677,-0.165113,-21.1771,21,-0.00252923,10,0.00349661,-1.67413,-0.0757529,-0.778848,639.744,-0.165113,
2,0,0,1,1,40602.6,-0.160682,-0.161121,-18.6976,21,-0.00260869,10,0.00301258,-1.72821,-0.0705108,-0.836751,605.273,-0.1611212,
2,0,0,1,1,40602.6,-0.156686,-0.157123,-16.3487,21,-0.00267852,10,0.00256876,-1.78652,-0.0646767,-0.91223,574.929,-0.157123,
2,0,0,1,1,40602.6,-0.152691,-0.15311,-14.1204,21,-0.00273921,10,0.00216197,-1.85015,-0.0581185,-1.01517,548.394,-0.15311,
2,0,0,1,1,40602.6,-0.148696,-0.149129,-11.9877,21,-0.00279118,10,0.00178772,-1.92126,-0.0511154,-1.15425,524.447,-0.149129,
2,0,0,1,1,40602.6,-0.14467,-0.145096,-9.90966,21,-0.00283479,10,0.00143785,-2.00394,-0.0434699,-1.35726,503.888,-0.145096,
2,0,0,1,1,40602.6,-0.140656,-0.141089,-7.93948,21,-0.00287024,10,0.00112017,-2.10021,-0.0353616,-1.66848,484.299,-0.141089,
2,0,0,1,1,40602.6,-0.136661,-0.137067,-6.03654,21,-0.00289799,10,0.00082741,-2.21921,-0.0264646,-2.22939,465.27,-0.137067,
2,0,0,1,1,40602.6,-0.132665,-0.133083,-4.21664,21,-0.0029183,10,0.000561163,-2.37503,-0.0156156,-3.77827,449.971,-0.133083,
2,0,0,1,1,40602.6,-0.12867,-0.129087,-2.46116,21,-0.00293145,10,0.000317704,-2.60886,-0.0192401,-3.06652,435.238,-0.129087,
2,0,0,1,1,40602.6,-0.124675,-0.125119,-0.753553,21,-0.0029377,10,9.4284e-05,-3.12289,-0.0712044,-0.828601,422.114,-0.125119,
2,1,0,1,1,40602.6,-0.12068,-0.121136,0.897021,21,-0.00293723,10,-0.000108662,-3.0472,0.0726835,0.811739,410.366,-0.121136,
2,1,0,1,1,40602.6,-0.116685,-0.11713,2.51724,21,-0.00293022,10,-0.000294845,-2.59908,0.0183405,3.21692,397.454,-0.11713,
2,1,0,1,1,40602.6,-0.112689,-0.113155,4.07704,21,-0.00291687,10,-0.000461336,-2.38966,0.0177906,3.31636,387.14,-0.113155,
2,1,0,1,1,40602.6,-0.108694,-0.109156,5.59115,21,-0.00289736,10,-0.000610307,-2.2525,0.0300261,1.96495,378.589,-0.109156,
2,1,0,1,1,40602.6,-0.104699,-0.10518,7.0742,21,-0.00287187,10,-0.000744067,-2.15032,0.0411201,1.43482,369.234,-0.10518,
2,1,0,1,1,40602.6,-0.100654,-0.101171,8.55919,21,-0.00284041,10,-0.000865942,-2.06757,0.0519496,1.13572,360.809,-0.101171,
2,1,0,1,1,40602.6,-0.0966588,-0.0971681,9.97987,21,-0.00280317,10,-0.000969725,-2.00088,0.0631148,0.934804,350.773,-0.0971681,
2,1,0,1,1,40602.6,-0.0926636,-0.093148,11.367,21,-0.00276033,10,-0.00105881,-1.94436,0.0746332,0.790533,341.547,-0.093148,
2,1,0,1,1,40602.6,-0.0886685,-0.0891387,12.7012,21,-0.00271205,10,-0.00113217,-1.89615,0.0862077,0.684394,332.793,-0.0891387,
2,1,0,1,1,40602.6,-0.0846733,-0.0851515,14.0306,21,-0.00265845,10,-0.00119473,-1.85292,0.0977418,0.603631,325.352,-0.0851515,
2,1,0,1,1,40602.6,-0.0806781,-0.081123,15.3195,21,-0.00259962,10,-0.00124277,-1.81475,0.108982,0.541373,319.415,-0.081123,
2,1,0,1,1,40602.6,-0.076683,-0.0771189,16.5821,21,-0.00253567,10,-0.00127879,-1.78036,0.121379,0.486079,311.007,-0.0771189,
2,1,0,1,1,40602.6,-0.0726878,-0.0731021,17.8236,21,-0.00246673,10,-0.00130294,-1.74901,0.133589,0.441654,304.042,-0.0731021,
2,1,0,1,1,40602.6,-0.0686926,-0.0691404,19.0102,21,-0.00239294,10,-0.00131437,-1.72101,0.145072,0.406695,299.682,-0.0691404,
2,1,0,1,1,40602.7,-0.0646974,-0.0651279,20.1827,21,-0.00231443,10,-0.00131446,-1.69502,0.159088,0.370863,290.383,-0.06512785,
2,1,0,1,1,40602.7,-0.0606523,-0.0610972,21.3835,21,-0.00223121,10,-0.00130647,-1.66992,0.171978,0.343067,283.941,-0.0610972,
2,1,0,1,1,40602.7,-0.0566571,-0.0570582,22.4825,21,-0.00214338,10,-0.00128281,-1.64816,0.185826,0.317502,276.679,-0.0570582,
2,1,0,1,1,40602.7,-0.052662,-0.0530901,23.5675,21,-0.00205115,10,-0.0012512,-1.62769,0.202853,0.290851,266.239,-0.05309011,
2,1,0,1,1,40602.7,-0.0486668,-0.0490828,24.6221,21,-0.00195467,10,-0.00120852,-1.60868,0.21514,0.27424,262.403,-0.0490828,
2,1,0,1,1,40602.7,-0.0446716,-0.045048,25.6564,21,-0.00185399,10,-0.00115577,-1.5908,0.231146,0.25525,254.578,-0.045048,
2,1,0,1,1,40602.7,-0.0406764,-0.0410937,26.6716,21,-0.00174924,10,-0.00109603,-1.57395,0.245137,0.240682,249.554,-0.0410937,
2,1,0,1,1,40602.7,-0.0366813,-0.0370419,27.653,21,-0.00164049,10,-0.00102432,-1.55826,0.259775,0.227119,244.234,-0.0370419,
2,1,0,1,1,40602.7,-0.0326861,-0.0330877,28.6137,21,-0.00152785,10,-0.000946761,-1.54343,0.277763,0.212411,236.417,-0.0330877,
2,1,0,1,1,40602.7,-0.0286909,-0.0291323,29.5435,21,-0.00141143,10,-0.000860673,-1.52954,0.292546,0.201678,231.924,-0.02913234,
2,1,0,1,1,40602.7,-0.0246957,-0.0251102,30.4503,21,-0.00129135,10,-0.000764615,-1.51641,0.310385,0.190086,225.42,-0.0251102,
2,1,0,1,1,40602.7,-0.0206756,-0.0210722,31.3568,21,-0.00116767,10,-0.000660756,-1.50367,0.329754,0.178921,218.315,-0.0210722,
2,1,0,1,1,40602.7,-0.0166554,-0.0170426,32.2306,21,-0.00104038,10,-0.000549295,-1.49173,0.347846,0.169615,212.66,-0.0170426,
2,1,0,1,1,40602.7,-0.0126603,-0.0130619,33.052,21,-0.000909712,10,-0.000431721,-1.4808,0.371602,0.158772,204.273,-0.0130619,
2,1,0,1,1,40602.7,-0.0086651,-0.00906732,33.862,21,-0.000775801,10,-0.000307038,-1.47029,0.393088,0.150093,197.716,-0.00906732,
2,1,0,1,1,40602.7,-0.00466992,-0.00504732,34.6302,21,-0.000638741,10,-0.00017479,-1.46054, , , ,-0.00504732,
2,1,0,1,1,40602.7,-0.000974387,-0.00140058,35.3233,21,-0.000509286,10,-4.9473e-05,-1.45194, , , ,-0.00140058,
2,1,0,0,1,40602.7,-0.000175352,-0.000592546,35.4739,21,-0.000480985,10,-2.10199e-05,-1.45009, , , ,-0.000592546,