File: Figure_codes/Fig_3-5/rawdata_trumpetplot_data/after 10th/20221101_1-115_003_TrumpetPlot_ParaChange_from10_every3_13_CV_C01_17.csv
mode,ox/red,error,control changes,counter inc.,time/s,control/V,Ewe/V,<I>/mA,cycle number,(Q-Qo)/C,I Range,P/W,log(|I|),Tafel slope mV/dec,alpha_eff,dI/d(E-IR),E-IR/V,
2,1,0,1,0,34690.1,2.44065e-05,-0.000287149,18.6413,18,0.0000000E+000,10,-5.35283e-06,-1.72952, , , ,-0.0002871489,
2,1,0,1,0,34690.1,0.00266289,0.0022907,19.9402,18,6.03474e-05,10,4.5677e-05,-1.70027, , , ,0.0022907,
2,1,0,1,0,34690.1,0.00586735,0.00551752,21.0142,18,0.000142437,10,0.000115946,-1.67749, , , ,0.00551752,
2,1,0,1,0,34690.1,0.00906349,0.00872312,21.9149,18,0.000228409,10,0.000191166,-1.65926,0.178538,0.330461,279.609,0.00872312,
2,1,0,1,0,34690.1,0.0122624,0.011898,22.7395,18,0.000317819,10,0.000270554,-1.64322,0.20677,0.285341,251.469,0.01189798,
2,1,0,1,0,34690.1,0.0154641,0.0150898,23.5189,18,0.000410438,10,0.000354896,-1.62858,0.229016,0.257623,235.075,0.0150898,
2,1,0,1,0,34690.1,0.0186602,0.0182869,24.2253,18,0.000506019,10,0.000443007,-1.61573,0.253388,0.232845,219.115,0.01828693,
2,1,0,1,0,34690.1,0.0218675,0.021466,24.9104,18,0.000604376,10,0.000534727,-1.60362,0.278474,0.211869,205.158,0.02146603,
2,1,0,1,0,34690.1,0.0250636,0.0246769,25.5396,18,0.000705353,10,0.000630239,-1.59279,0.298773,0.197474,196.234,0.0246769,
2,1,0,1,0,34690.1,0.0282597,0.0279197,26.1511,18,0.000808807,10,0.00073013,-1.58251,0.322119,0.183162,186.499,0.0279197,
2,1,0,1,0,34690.1,0.031467,0.0311072,26.7411,18,0.000914676,10,0.000831842,-1.57282,0.33868,0.174206,181.398,0.0311072,
2,1,0,1,0,34690.1,0.0346631,0.034315,27.3067,18,0.00102285,10,0.00093703,-1.56373,0.360175,0.163809,174.214,0.034315,
2,1,0,1,0,34690.1,0.0378703,0.0374495,27.8565,18,0.00113323,10,0.00104321,-1.55507,0.381361,0.154709,167.873,0.0374495,
2,1,0,1,0,34690.1,0.0410665,0.0407198,28.3811,18,0.00124575,10,0.00115567,-1.54697,0.394816,0.149437,165.339,0.0407198,
2,1,0,1,0,34690.1,0.0442626,0.0439318,28.894,18,0.00136037,10,0.00126937,-1.53919,0.416774,0.141563,159.499,0.0439318,
2,1,0,1,0,34690.1,0.0474671,0.047095,29.4198,18,0.00147705,10,0.00138552,-1.53136,0.426783,0.138244,158.519,0.04709499,
2,1,0,1,0,34690.1,0.0506632,0.050307,29.9072,18,0.00159576,10,0.00150454,-1.52422,0.438573,0.134527,156.9,0.050307,
2,1,0,1,0,34690.1,0.0538621,0.0534882,30.4051,18,0.00171644,10,0.00162631,-1.51705,0.455243,0.129601,153.719,0.0534882,
2,1,0,1,0,34690.1,0.0570638,0.0567033,30.8979,18,0.00183912,10,0.00175201,-1.51007,0.463501,0.127292,153.412,0.05670334,
2,1,0,1,0,34690.1,0.06026,0.0598782,31.3848,18,0.00196373,10,0.00187926,-1.50328,0.471316,0.125181,153.292,0.0598782,
2,1,0,1,0,34690.2,0.0634672,0.0631411,31.8762,18,0.0020903,10,0.00201269,-1.49653,0.48131,0.122582,152.432,0.0631411,
2,1,0,1,0,34690.2,0.0666633,0.0663074,32.3702,18,0.00221885,10,0.00214638,-1.48985,0.489322,0.120575,152.258,0.06630744,
2,1,0,1,0,34690.2,0.0698595,0.069495,32.8477,18,0.00234935,10,0.00228275,-1.48349,0.492159,0.11988,153.672,0.06949503,
2,1,0,1,0,34690.2,0.0730667,0.0727717,33.3479,18,0.00248182,10,0.00242678,-1.47693,0.494311,0.119358,155.365,0.0727717,
2,1,0,1,0,34690.2,0.0762629,0.0758914,33.8355,18,0.00261624,10,0.00256782,-1.47063,0.499393,0.118143,156.019,0.07589139,
2,1,0,1,0,34690.2,0.0794701,0.0790896,34.3561,18,0.00275266,10,0.00271721,-1.464,0.499668,0.118078,158.263,0.0790896,
2,1,0,1,0,34690.2,0.0826662,0.0823143,34.8478,18,0.00289112,10,0.00286847,-1.45783,0.506697,0.11644,158.323,0.0823143,
2,1,0,1,0,34690.2,0.0858624,0.0854785,35.359,18,0.00303158,10,0.00302243,-1.4515,0.516695,0.114187,157.566,0.0854785,
2,1,0,1,0,34690.2,0.0890668,0.0887022,35.8638,18,0.00317407,10,0.00318119,-1.44534,0.510808,0.115503,161.689,0.0887022,
2,1,0,1,0,34690.2,0.092263,0.0919237,36.3783,18,0.00331861,10,0.00334403,-1.43916,0.518386,0.113815,161.612,0.0919237,
2,1,0,1,0,34690.2,0.0954674,0.095072,36.9106,18,0.00346523,10,0.00350916,-1.43285,0.521957,0.113036,162.763,0.095072,
2,1,0,1,0,34690.2,0.0986636,0.0982861,37.4288,18,0.00361396,10,0.00367873,-1.42679,0.523876,0.112622,164.463,0.0982861,
2,1,0,1,0,34690.2,0.10186,0.101501,37.947,18,0.00376478,10,0.00385167,-1.42082,0.535868,0.110102,163.043,0.101501,
2,1,0,1,0,34690.2,0.105067,0.104687,38.4773,18,0.00391768,10,0.00402807,-1.41479,0.533995,0.110488,165.909,0.104687,
2,1,0,1,0,34690.2,0.108263,0.107867,38.9967,18,0.0040727,10,0.00420645,-1.40897,0.53681,0.109909,167.311,0.1078669,
2,1,0,1,0,34690.2,0.111465,0.111029,39.543,18,0.00422983,10,0.00439042,-1.40293,0.53793,0.10968,169.299,0.111029,
2,1,0,1,0,34690.2,0.114666,0.114275,40.0841,18,0.00438915,10,0.00458061,-1.39703,0.538797,0.109503,171.309,0.114275,
2,1,0,1,0,34690.2,0.117863,0.117493,40.6455,18,0.00455066,10,0.00477557,-1.39099,0.543889,0.108478,172.05,0.117493,
2,1,0,1,0,34690.2,0.12107,0.120699,41.1949,18,0.00471439,10,0.00497218,-1.38516,0.544421,0.108372,174.197,0.120699,
2,1,0,1,0,34690.2,0.124266,0.123893,41.7562,18,0.00488034,10,0.00517329,-1.37928,0.544614,0.108334,176.561,0.123893,
2,1,0,1,0,34690.2,0.127462,0.127052,42.3098,18,0.00504852,10,0.00537554,-1.37356,0.55543,0.106224,175.371,0.127052,
2,1,0,1,0,34690.2,0.130667,0.130239,42.8959,18,0.00521899,10,0.00558674,-1.36758,0.543289,0.108598,181.831,0.130239,
2,1,0,1,0,34690.2,0.133863,0.133449,43.4309,18,0.00539171,10,0.00579582,-1.3622,0.533519,0.110587,187.741,0.1334492,
2,1,0,1,0,34690.2,0.137067,0.136616,44.0696,18,0.00556671,10,0.00602059,-1.35586,0.525802,0.11221,193.237,0.136616,
2,1,0,1,0,34690.2,0.140263,0.139853,44.7131,18,0.00574436,10,0.00625327,-1.34956,0.508701,0.115982,202.42,0.139853,
2,1,0,1,0,34690.3,0.143459,0.143093,45.3796,18,0.0059246,10,0.00649349,-1.34314,0.514993,0.114565,202.828,0.143093,
2,1,0,1,0,34690.3,0.146667,0.146309,46.034,18,0.00610752,10,0.00673517,-1.33692,0.521044,0.113234,203.324,0.146309,
2,1,0,1,0,34690.3,0.149863,0.149506,46.6841,18,0.00629304,10,0.00697955,-1.33083,0.529718,0.11138,202.868,0.149506,
2,1,0,1,0,34690.3,0.153064,0.152726,47.3306,18,0.00648113,10,0.00722863,-1.32486,0.539051,0.109452,202.116,0.152726,
2,1,0,1,0,34690.3,0.156266,0.155938,47.9856,18,0.00667183,10,0.0074828,-1.31889,0.549343,0.107401,201.04,0.1559383,
2,1,0,1,0,34690.3,0.159462,0.159118,48.623,18,0.00686512,10,0.00773682,-1.31316,0.565202,0.104387,197.929,0.159118,
2,1,0,1,0,34690.3,0.16267,0.162347,49.2658,18,0.00706095,10,0.00799817,-1.30745,0.586182,0.100651,193.305,0.162347,
2,1,0,1,0,34690.3,0.165866,0.165506,49.8601,18,0.00725926,10,0.00825217,-1.30225,0.610747,0.0966029,187.806,0.165506,
2,1,0,1,0,34690.3,0.169062,0.16872,50.4565,18,0.00745995,10,0.00851304,-1.29708,0.641851,0.0919217,180.846,0.16872,
2,1,0,1,0,34690.3,0.172266,0.171909,51.0252,18,0.00766299,10,0.00877169,-1.29222,0.672461,0.0877374,174.524,0.171909,
2,1,0,1,0,34690.3,0.175462,0.175114,51.5745,18,0.00786825,10,0.0090314,-1.28757,0.716614,0.0823316,165.5,0.175114,
2,1,0,1,0,34690.3,0.178667,0.178309,52.0944,18,0.00807565,10,0.00928889,-1.28321,0.775988,0.0760321,154.315,0.178309,
2,1,0,1,0,34690.3,0.181863,0.181505,52.5723,18,0.00828505,10,0.00954212,-1.27924,0.853928,0.0690925,141.498,0.1815047,
2,1,0,1,0,34690.3,0.185059,0.184691,52.9976,18,0.00849625,10,0.0097882,-1.27574,0.971765,0.0607143,125.332,0.184691,
2,1,0,1,0,34690.3,0.188266,0.18792,53.3866,18,0.00870908,10,0.0100324,-1.27257,1.13215,0.0521135,108.332,0.18792,
2,1,0,1,0,34690.3,0.191463,0.191133,53.7018,18,0.00892331,10,0.0102642,-1.27001,1.39315,0.04235,88.5272,0.191133,
2,1,0,1,0,34690.3,0.194664,0.19435,53.9639,18,0.00913869,10,0.0104879,-1.2679,1.90479,0.0309745,65.0376,0.19435,
2,1,0,1,0,34690.3,0.197866,0.197495,54.1311,18,0.00935493,10,0.0106906,-1.26655,2.97841,0.0198092,41.7222,0.197495,
2,1,0,1,0,34690.3,0.201062,0.20072,54.2191,18,0.00957166,10,0.0108829,-1.26585,7.73803,0.00762468,16.0885,0.20072,
2,1,0,1,0,34690.3,0.204269,0.203916,54.2351,18,0.00978861,10,0.0110594,-1.26572,-12.1635,-0.00485059,-10.2347,0.203916,
2,1,0,1,0,34690.3,0.207465,0.207157,54.1699,18,0.0100054,10,0.0112217,-1.26624,-3.42134,-0.0172447,-36.3333,0.207157,
2,1,0,1,0,34690.3,0.210662,0.210358,53.9994,18,0.0102218,10,0.0113592,-1.26761,-1.92203,-0.0306967,-64.4752,0.210358,
2,1,0,1,0,34690.3,0.213866,0.213499,53.7548,18,0.0104373,10,0.0114766,-1.26958,-1.35078,-0.0436785,-91.3379,0.213499,
2,1,0,1,0,34690.3,0.217062,0.216784,53.4054,18,0.0106516,10,0.0115775,-1.27241,-1.04139,-0.0566552,-117.722,0.216784,
2,1,0,1,0,34690.3,0.220267,0.219983,52.9985,18,0.0108643,10,0.0116587,-1.27574,-0.851004,-0.0693298,-142.943,0.219983,
2,1,0,1,0,34690.4,0.223463,0.223167,52.4916,18,0.0110753,10,0.0117144,-1.27991,-0.718145,-0.0821561,-167.78,0.223167,
2,1,0,1,0,34690.4,0.226659,0.226364,51.9158,18,0.0112841,10,0.0117519,-1.2847,-0.618299,-0.0954231,-192.77,0.226364,
2,1,0,1,0,34690.4,0.229866,0.229536,51.266,18,0.0114904,10,0.0117674,-1.29017,-0.552822,-0.106725,-212.931,0.229536,
2,1,0,1,0,34690.4,0.233062,0.232698,50.5473,18,0.011694,10,0.0117623,-1.2963,-0.50301,-0.117294,-230.835,0.232698,
2,1,0,1,0,34690.4,0.236264,0.235916,49.7768,18,0.0118946,10,0.0117432,-1.30297,-0.461995,-0.127707,-247.534,0.235916,
2,1,0,1,0,34690.4,0.239466,0.239139,48.967,18,0.012092,10,0.0117099,-1.3101,-0.435465,-0.135487,-258.387,0.239139,
2,1,0,1,0,34690.4,0.242662,0.242331,48.0989,18,0.0122861,10,0.0116558,-1.31787,-0.409125,-0.14421,-270.249,0.242331,
2,1,0,1,0,34690.4,0.245869,0.245564,47.2229,18,0.0124767,10,0.0115962,-1.32585,-0.388167,-0.151996,-279.714,0.245564,
2,1,0,1,0,34690.4,0.249065,0.248778,46.301,18,0.0126636,10,0.0115187,-1.33441,-0.376239,-0.156815,-283.126,0.248778,
2,1,0,1,0,34690.4,0.252261,0.25194,45.3863,18,0.0128469,10,0.0114346,-1.34308,-0.365875,-0.161257,-285.518,0.25194,
2,1,0,1,0,34690.4,0.255466,0.255136,44.4733,18,0.0130265,10,0.0113467,-1.3519,-0.359109,-0.164296,-285.053,0.255136,
2,1,0,1,0,34690.4,0.258662,0.258384,43.5625,18,0.0132025,10,0.0112559,-1.36089,-0.356029,-0.165717,-281.69,0.258384,
2,1,0,1,0,34690.4,0.261866,0.261544,42.6619,18,0.0133749,10,0.011158,-1.36996,-0.353013,-0.167133,-278.3,0.261544,
2,1,0,1,0,34690.4,0.265063,0.264762,41.7743,18,0.0135437,10,0.0110603,-1.37909,-0.355043,-0.166177,-271.139,0.264762,
2,1,0,1,0,34690.4,0.268259,0.267942,40.9095,18,0.013709,10,0.0109614,-1.38818,-0.357964,-0.164821,-263.43,0.267942,
2,1,0,1,0,34690.4,0.271466,0.271151,40.1008,18,0.0138709,10,0.0108734,-1.39685,-0.364268,-0.161969,-253.656,0.271151,
2,1,0,1,0,34690.4,0.274662,0.274341,39.2908,18,0.0140296,10,0.0107791,-1.40571,-0.369633,-0.159618,-244.947,0.274341,
2,1,0,1,0,34690.4,0.277869,0.277568,38.5261,18,0.0141852,10,0.0106936,-1.41424,-0.37504,-0.157316,-236.781,0.277568,
2,1,0,1,0,34690.4,0.281065,0.28074,37.7747,18,0.0143377,10,0.0106049,-1.4228,-0.385551,-0.153028,-225.927,0.28074,
2,1,0,1,0,34690.4,0.284262,0.283944,37.0717,18,0.0144873,10,0.0105263,-1.43096,-0.39683,-0.148678,-215.447,0.283944,
2,1,0,1,0,34690.4,0.287469,0.287113,36.4054,18,0.0146342,10,0.0104525,-1.43883,-0.409665,-0.14402,-204.836,0.287113,
2,1,0,1,0,34690.4,0.290665,0.290366,35.7688,18,0.0147784,10,0.0103861,-1.4465,-0.422677,-0.139586,-195.05,0.290366,
2,1,0,1,0,34690.4,0.293861,0.293582,35.144,18,0.0149202,10,0.0103177,-1.45415,-0.434274,-0.135859,-186.923,0.293582,
2,1,0,1,0,34690.4,0.297066,0.296788,34.5666,18,0.0150596,10,0.0102589,-1.46134,-0.430793,-0.136957,-186.499,0.296788,
2,1,0,1,0,34690.4,0.299638,0.299298,34.1277,18,0.0151695,10,0.0102143,-1.46689,-0.118998,-0.495805,-646.737,0.299298,
2,1,0,1,0,34690.4,0.300012,0.299689,34.0301,18,0.0151865,10,0.0101984,-1.46814,0.0106829,5.52283,6524.6,0.2996892,
2,1,0,1,0,34690.4,0.298983,0.298814,31.7603,18,0.0152284,10,0.00949043,-1.49812,0.0371528,1.58804,1718.61,0.2988143,
2,1,0,1,0,34690.5,0.295787,0.295528,26.3472,18,0.0153435,10,0.00778634,-1.57927,0.040496,1.45693,1454.49,0.295528,
2,1,0,1,0,34690.5,0.292579,0.29235,22.1871,18,0.01544,10,0.0064864,-1.6539,0.0417165,1.41431,1254.34,0.29235,
2,1,0,1,0,34690.5,0.289383,0.289122,18.6605,18,0.0155212,10,0.00539517,-1.72908,0.0411767,1.43285,1051.24,0.289122,
2,1,0,1,0,34690.5,0.286187,0.285924,15.5914,18,0.0155893,10,0.00445797,-1.80711,0.0391063,1.50871,917.048,0.285924,
2,1,0,1,0,34690.5,0.282983,0.282691,12.8521,18,0.0156458,10,0.00363317,-1.89103,0.0359601,1.64071,815.654,0.282691,
2,1,0,1,0,34690.5,0.279786,0.279528,10.4283,18,0.015692,10,0.002915,-1.98179,0.0321019,1.8379,732.252,0.279528,
2,1,0,1,0,34690.5,0.276582,0.276328,8.22517,18,0.0157291,10,0.00227285,-2.08486,0.0275512,2.14147,659.312,0.276328,
2,1,0,1,0,34690.5,0.273386,0.273147,6.23559,18,0.0157577,10,0.00170323,-2.20512,0.0220749,2.67272,600.677,0.273147,
2,1,0,1,0,34690.5,0.27019,0.269879,4.40509,18,0.0157788,10,0.00118884,-2.35605,0.0155448,3.79548,545.58,0.269879,
2,1,0,1,0,34690.5,0.266982,0.266741,2.7478,18,0.0157929,10,0.000732952,-2.56101,0.00821143,7.1851,498.789,0.266741,
2,1,0,1,0,34690.5,0.263786,0.26351,1.23182,18,0.0158007,10,0.000324597,-2.90945,0.0267853,2.2027,460.017,0.26351,
2,1,0,1,0,34690.5,0.260585,0.260305,-0.17017,18,0.0158026,10,-4.42961e-05,-3.76912,0.971287,0.0607442,421.258,0.260305,
2,0,0,1,0,34690.5,0.257383,0.257108,-1.46955,18,0.0157992,10,-0.000377833,-2.83282,-0.026377,-2.2368,390.136,0.257108,
2,0,0,1,0,34690.5,0.254187,0.253891,-2.66536,18,0.0157908,10,-0.000676711,-2.57424,-0.00883847,-6.67536,360.825,0.253891,
2,0,0,1,0,34690.5,0.25098,0.250652,-3.78474,18,0.0157778,10,-0.000948651,-2.42196,-0.0216361,-2.72692,334.148,0.250652,
2,0,0,1,0,34690.5,0.247783,0.247491,-4.79377,18,0.0157605,10,-0.00118641,-2.31932,-0.0321598,-1.83459,312.382,0.247491,
2,0,0,1,0,34690.5,0.244587,0.244279,-5.75661,18,0.0157393,10,-0.00140622,-2.23983,-0.042961,-1.37334,291.203,0.244279,
2,0,0,1,0,34690.5,0.241383,0.241095,-6.66257,18,0.0157143,10,-0.00160631,-2.17636,-0.0537476,-1.09772,273.557,0.2410953,
2,0,0,1,0,34690.5,0.238187,0.237885,-7.50231,18,0.0156859,10,-0.00178469,-2.1248,-0.065465,-0.901246,255.761,0.237885,
2,0,0,1,0,34690.5,0.234982,0.234689,-8.29562,18,0.0156542,10,-0.00194689,-2.08115,-0.0780727,-0.755706,238.76,0.234689,
2,0,0,1,0,34690.5,0.231786,0.231474,-9.03147,18,0.0156195,10,-0.00209055,-2.04424,-0.0903957,-0.652686,225.962,0.231474,
2,0,0,1,0,34690.5,0.22859,0.228288,-9.72051,18,0.0155819,10,-0.00221907,-2.01231,-0.103883,-0.567947,212.621,0.228288,
2,0,0,1,0,34690.5,0.225383,0.225077,-10.3966,18,0.0155416,10,-0.00234003,-1.98311,-0.116413,-0.506816,203.312,0.225077,
2,0,0,1,0,34690.5,0.222187,0.221885,-11.0181,18,0.0154986,10,-0.00244475,-1.95789,-0.130825,-0.450986,191.896,0.221885,
2,0,0,1,0,34690.5,0.218979,0.218662,-11.6363,18,0.0154533,10,-0.00254441,-1.93419,-0.146376,-0.40307,181.208,0.218662,
2,0,0,1,0,34690.6,0.215783,0.215484,-12.1774,18,0.0154056,10,-0.00262404,-1.91444,-0.160779,-0.366964,173.216,0.215484,
2,0,0,1,0,34690.6,0.212587,0.212252,-12.7205,18,0.0153557,10,-0.00269995,-1.8955,-0.176683,-0.333932,165.06,0.212252,
2,0,0,1,0,34690.6,0.20938,0.20906,-13.2395,18,0.0153038,10,-0.00276786,-1.87813,-0.190111,-0.310345,159.521,0.2090604,
2,0,0,1,0,34690.6,0.206184,0.205835,-13.7536,18,0.0152497,10,-0.00283097,-1.86158,-0.205329,-0.287344,153.357,0.205835,
2,0,0,1,0,34690.6,0.202988,0.202701,-14.2166,18,0.0151937,10,-0.00288172,-1.8472,-0.223083,-0.264476,146.115,0.202701,
2,0,0,1,0,34690.6,0.199783,0.199496,-14.6768,18,0.0151359,10,-0.00292796,-1.83337,-0.238354,-0.247531,141.412,0.199496,
2,0,0,1,0,34690.6,0.196587,0.196231,-15.1142,18,0.0150763,10,-0.00296586,-1.82062,-0.254124,-0.23217,136.6,0.196231,
2,0,0,1,0,34690.6,0.193382,0.193059,-15.5603,18,0.0150149,10,-0.00300405,-1.80798,-0.268858,-0.219447,132.856,0.193059,
2,0,0,1,0,34690.6,0.190186,0.189873,-15.9689,18,0.0149518,10,-0.00303207,-1.79673,-0.282527,-0.20883,129.831,0.189873,
2,0,0,1,0,34690.6,0.18699,0.186677,-16.3798,18,0.014887,10,-0.00305774,-1.78569,-0.298727,-0.197505,126.08,0.186677,
2,0,0,1,0,34690.6,0.183783,0.183437,-16.7752,18,0.0148207,10,-0.00307719,-1.77533,-0.307266,-0.192016,125.571,0.183437,
2,0,0,1,0,34690.6,0.180587,0.180208,-17.1805,18,0.0147527,10,-0.00309607,-1.76496,-0.321038,-0.183779,123.058,0.180208,
2,0,0,1,0,34690.6,0.17738,0.177123,-17.57,18,0.0146832,10,-0.00311204,-1.75523,-0.326268,-0.180833,123.875,0.1771231,
2,0,0,1,0,34690.6,0.174183,0.173843,-17.9591,18,0.0146121,10,-0.00312207,-1.74571,-0.334033,-0.176629,123.786,0.173843,
2,0,0,1,0,34690.6,0.170987,0.170694,-18.3537,18,0.0145394,10,-0.00313287,-1.73628,-0.344801,-0.171113,122.52,0.170694,
2,0,0,1,0,34690.6,0.16778,0.167469,-18.7574,18,0.0144652,10,-0.00314128,-1.72683,-0.342252,-0.172388,126.167,0.167469,
2,0,0,1,0,34690.6,0.164584,0.164257,-19.1463,18,0.0143894,10,-0.00314492,-1.71792,-0.345763,-0.170637,127.597,0.164257,
2,0,0,1,0,34690.6,0.161382,0.161072,-19.5705,18,0.0143119,10,-0.00315225,-1.7084,-0.342214,-0.172407,131.807,0.161072,
2,0,0,1,0,34690.6,0.158183,0.157867,-19.9904,18,0.0142327,10,-0.00315582,-1.69918,-0.336672,-0.175245,136.831,0.157867,
2,0,0,1,0,34690.6,0.154987,0.15466,-20.4457,18,0.0141518,10,-0.00316214,-1.6894,-0.332136,-0.177638,141.864,0.15466,
2,0,0,1,0,34690.6,0.151783,0.151496,-20.8924,18,0.0140691,10,-0.00316512,-1.68001,-0.320919,-0.183847,150.223,0.151496,
2,0,0,1,0,34690.6,0.148587,0.148298,-21.3826,18,0.0139845,10,-0.003171,-1.66994,-0.308744,-0.191097,159.976,0.148298,
2,0,0,1,0,34690.6,0.145385,0.145066,-21.9134,18,0.0138979,10,-0.00317889,-1.65929,-0.294311,-0.200468,171.912,0.145066,
2,0,0,1,0,34690.6,0.142183,0.141896,-22.4876,18,0.013809,10,-0.00319091,-1.64806,-0.281197,-0.209817,184.643,0.1418964,
2,0,0,1,0,34690.6,0.138987,0.138706,-23.0912,18,0.0137178,10,-0.00320288,-1.63655,-0.267996,-0.220153,199.031,0.138706,
2,0,0,1,0,34690.7,0.13578,0.135437,-23.7572,18,0.0136241,10,-0.00321762,-1.6242,-0.254211,-0.23209,215.955,0.135437,
2,0,0,1,0,34690.7,0.132584,0.132253,-24.4636,18,0.0135276,10,-0.00323538,-1.61148,-0.241384,-0.244423,234.303,0.132253,
2,0,0,1,0,34690.7,0.129388,0.129107,-25.2496,18,0.0134281,10,-0.00325989,-1.59775,-0.229074,-0.257559,254.736,0.129107,
2,0,0,1,0,34690.7,0.12618,0.125886,-26.0948,18,0.0133253,10,-0.00328498,-1.58345,-0.221197,-0.266731,272.331,0.125886,
2,0,0,1,0,34690.7,0.122984,0.12272,-26.9968,18,0.013219,10,-0.00331305,-1.56869,-0.215001,-0.274417,289.817,0.12272,
2,0,0,1,0,34690.7,0.119783,0.119503,-27.9359,18,0.0131091,10,-0.00333842,-1.55384,-0.210241,-0.280631,306.775,0.119503,
2,0,0,1,0,34690.7,0.116584,0.116312,-28.9578,18,0.0129952,10,-0.00336813,-1.53824,-0.207898,-0.283794,321.267,0.116312,
2,0,0,1,0,34690.7,0.113387,0.113099,-30.0177,18,0.0128772,10,-0.00339497,-1.52262,-0.207049,-0.284956,333.873,0.113099,
2,0,0,1,0,34690.7,0.110183,0.109904,-31.1142,18,0.0127548,10,-0.00341957,-1.50704,-0.210093,-0.280828,340.737,0.109904,
2,0,0,1,0,34690.7,0.106987,0.106703,-32.2095,18,0.0126281,10,-0.00343684,-1.49202,-0.215394,-0.273917,343.874,0.106703,
2,0,0,1,0,34690.7,0.103785,0.103499,-33.3236,18,0.0124969,10,-0.00344896,-1.47725,-0.223111,-0.264442,343.308,0.103499,
2,0,0,1,0,34690.7,0.100583,0.100304,-34.4175,18,0.0123613,10,-0.00345222,-1.46322,-0.230282,-0.256208,343.597,0.100304,
2,0,0,1,0,34690.7,0.0973873,0.097091,-35.513,18,0.0122213,10,-0.00344799,-1.44961,-0.240489,-0.245333,339.5,0.097091,
2,0,0,1,0,34690.7,0.0941801,0.0938929,-36.6109,18,0.012077,10,-0.0034375,-1.43639,-0.253821,-0.232448,330.986,0.0938929,
2,0,0,1,0,34690.7,0.0909839,0.0906597,-37.6826,18,0.0119283,10,-0.00341629,-1.42386,-0.265358,-0.222341,325.781,0.0906597,
2,0,0,1,0,34690.7,0.0877878,0.0875622,-38.6349,18,0.0117755,10,-0.00338296,-1.41302,-0.280334,-0.210463,317.027,0.0875622,
2,0,0,1,0,34690.7,0.0845806,0.0843884,-39.6512,18,0.0116188,10,-0.00334611,-1.40174,-0.296274,-0.19914,307.809,0.0843884,
2,0,0,1,0,34690.7,0.0813844,0.0811393,-40.6541,18,0.0114581,10,-0.00329865,-1.3909,-0.309572,-0.190586,301.498,0.0811393,
2,0,0,1,0,34690.7,0.0781828,0.0779539,-41.5935,18,0.0112935,10,-0.00324238,-1.38097,-0.33244,-0.177476,287.205,0.0779539,
2,0,0,1,0,34690.7,0.0749838,0.0747546,-42.4964,18,0.0111253,10,-0.0031768,-1.37165,-0.359096,-0.164301,271.67,0.07475464,
2,0,0,1,0,34690.7,0.0717877,0.0715628,-43.3348,18,0.0109535,10,-0.00310116,-1.36316,-0.386986,-0.15246,257.136,0.0715628,
2,0,0,1,0,34690.7,0.0685832,0.0683487,-44.1289,18,0.0107784,10,-0.00301616,-1.35528,-0.424071,-0.139128,238.975,0.0683487,
2,0,0,1,0,34690.7,0.0653871,0.0651739,-44.8797,18,0.0106003,10,-0.00292498,-1.34795,-0.457826,-0.12887,225.127,0.0651739,
2,0,0,1,0,34690.7,0.0621854,0.0619173,-45.5642,18,0.0104194,10,-0.00282121,-1.34138,-0.501018,-0.11776,208.88,0.0619173,
2,0,0,1,0,34690.7,0.0589837,0.0587425,-46.221,18,0.0102357,10,-0.00271514,-1.33516,-0.548622,-0.107542,193.528,0.0587425,
2,0,0,1,0,34690.8,0.0557876,0.0555751,-46.7971,18,0.0100496,10,-0.00260075,-1.32978,-0.598138,-0.0986395,179.794,0.0555751,
2,0,0,1,0,34690.8,0.0525804,0.0523376,-47.3639,18,0.00986121,10,-0.00247891,-1.32455,-0.6612,-0.0892317,164.612,0.0523376,
2,0,0,1,0,34690.8,0.0493842,0.0491257,-47.864,18,0.00967069,10,-0.00235135,-1.31999,-0.727621,-0.0810862,151.161,0.0491257,
2,0,0,1,0,34690.8,0.0461881,0.0459116,-48.3332,18,0.00947822,10,-0.00221905,-1.31575,-0.816488,-0.0722607,136.028,0.04591158,
2,0,0,1,0,34690.8,0.0429808,0.0426508,-48.7507,18,0.00928399,10,-0.00207926,-1.31202,-0.912244,-0.0646757,122.791,0.0426508,
2,0,0,1,0,34690.8,0.0397847,0.0394516,-49.1167,18,0.00908821,10,-0.00193773,-1.30877,-1.03208,-0.0571661,109.388,0.03945158,
2,0,0,1,0,34690.8,0.036583,0.0362948,-49.4395,18,0.00889106,10,-0.0017944,-1.30593,-1.1852,-0.0497808,95.8995,0.0362948,
2,0,0,1,0,34690.8,0.0333841,0.0330997,-49.7346,18,0.00869267,10,-0.0016462,-1.30334,-1.32191,-0.0446324,86.515,0.0330997,
2,0,0,1,0,34690.8,0.030188,0.0298538,-49.978,18,0.0084932,10,-0.00149203,-1.30122,-1.53333,-0.0384783,74.9603,0.0298538,
2,0,0,1,0,34690.8,0.0269835,0.0266588,-50.2235,18,0.00829276,10,-0.0013389,-1.29909,-1.76367,-0.033453,65.4782,0.0266588,
2,0,0,1,0,34690.8,0.0237874,0.0235052,-50.3982,18,0.00809148,10,-0.00118462,-1.29758,-2.03879,-0.0289388,56.8545,0.0235052,
2,0,0,1,0,34690.8,0.0205857,0.0202837,-50.5738,18,0.00788951,10,-0.00102582,-1.29607,-2.46966,-0.02389,47.1068,0.0202837,
2,0,0,1,0,34690.8,0.017384,0.0170547,-50.7057,18,0.00768693,10,-0.000864772,-1.29494,-2.88428,-0.0204557,40.441,0.0170547,
2,0,0,1,0,34690.8,0.0141879,0.0138396,-50.8274,18,0.00748384,10,-0.00070343,-1.2939,-3.73251,-0.0158071,31.3224,0.0138396,
2,0,0,1,0,34690.8,0.0109806,0.0106594,-50.9177,18,0.00728033,10,-0.000542754,-1.29313,-5.03964,-0.0117072,23.2348,0.0106594,
2,0,0,1,0,34690.8,0.00778448,0.00748987,-50.9745,18,0.00707654,10,-0.000381793,-1.29265,-5.82853,-0.0101226,20.1305,0.00748987,
2,0,0,1,0,34690.8,0.00458834,0.00430441,-51.0019,18,0.00687257,10,-0.000219533,-1.29241,-10.6147,-0.00555835,11.0608,0.00430441,
2,0,0,1,0,34690.8,0.0013811,0.00101715,-51.0855,18,0.00666842,10,-5.19617e-05,-1.2917,-28.8706,-0.0020436,4.06759,0.00101715,
2,0,0,1,0,34690.8,-0.00181504,-0.00221179,-51.0601,18,0.00646413,10,0.000112934,-1.29192,29.9806,0.00196794,-3.91513,-0.00221179,
2,0,0,1,0,34690.8,-0.0050195,-0.00541104,-51.027,18,0.00625997,10,0.000276109,-1.2922,6.92009,0.0085259,-16.962,-0.00541104,
2,0,0,1,0,34690.8,-0.00821564,-0.00859332,-50.9514,18,0.00605601,10,0.000437842,-1.29284,5.06564,0.0116471,-23.142,-0.00859332,
2,0,0,1,0,34690.8,-0.0114118,-0.0117692,-50.8686,18,0.00585237,10,0.000598685,-1.29355,3.7791,0.0156122,-30.9699,-0.0117692,
2,0,0,1,0,34690.8,-0.0146162,-0.0150024,-50.7641,18,0.0056491,10,0.000761584,-1.29444,3.14071,0.0187856,-37.1804,-0.0150024,
2,0,0,1,0,34690.8,-0.0178124,-0.0181783,-50.6316,18,0.0054463,10,0.000920398,-1.29558,2.56921,0.0229642,-45.3281,-0.0181783,
2,0,0,1,0,34690.8,-0.0210196,-0.0213606,-50.4767,18,0.0052441,10,0.00107821,-1.29691,2.14614,0.0274912,-54.093,-0.0213606,
2,0,0,1,0,34690.9,-0.0242158,-0.0246161,-50.2863,18,0.00504259,10,0.00123785,-1.29855,1.92066,0.0307186,-60.2365,-0.0246161,
2,0,0,1,0,34690.9,-0.0274119,-0.0277803,-50.0729,18,0.00484189,10,0.00139104,-1.3004,1.71531,0.0343962,-67.1793,-0.02778032,
2,0,0,1,0,34690.9,-0.0306191,-0.0309721,-49.8609,18,0.00464205,10,0.0015443,-1.30224,1.6011,0.0368497,-71.6599,-0.0309721,
2,0,0,1,0,34690.9,-0.0338153,-0.0341725,-49.616,18,0.00444311,10,0.0016955,-1.30438,1.51249,0.0390085,-75.4908,-0.0341725,
2,0,0,1,0,34690.9,-0.037017,-0.0373537,-49.3735,18,0.00424516,10,0.00184428,-1.30651,1.41764,0.0416184,-80.1497,-0.0373537,
2,0,0,1,0,34690.9,-0.0402187,-0.0406017,-49.105,18,0.00404822,10,0.00199375,-1.30887,1.38641,0.0425559,-81.5336,-0.0406017,
2,0,0,1,0,34690.9,-0.0434148,-0.0437744,-48.8348,18,0.00385238,10,0.00213772,-1.31127,1.35132,0.0436612,-83.2186,-0.0437744,
2,0,0,1,0,34690.9,-0.0466193,-0.0469758,-48.5721,18,0.0036576,10,0.00228171,-1.31361,1.33329,0.0442515,-83.875,-0.0469758,
2,0,0,1,0,34690.9,-0.0498154,-0.0501687,-48.3071,18,0.00346387,10,0.0024235,-1.31599,1.34755,0.0437832,-82.5393,-0.0501687,
2,0,0,1,0,34690.9,-0.0530115,-0.0533838,-48.0329,18,0.00327121,10,0.00256418,-1.31846,1.35131,0.0436612,-81.8673,-0.0533838,
2,0,0,1,0,34690.9,-0.056216,-0.0565725,-47.7785,18,0.00307961,10,0.00270295,-1.32077,1.40238,0.0420713,-78.4871,-0.0565725,
2,0,0,1,0,34690.9,-0.0594121,-0.0597982,-47.5224,18,0.00288903,10,0.00284176,-1.3231,1.45418,0.0405728,-75.2923,-0.0597982,
2,0,0,1,0,34690.9,-0.0626194,-0.0629869,-47.301,18,0.00269942,10,0.00297934,-1.32513,1.52977,0.0385679,-71.2287,-0.0629869,
2,0,0,1,0,34690.9,-0.0658155,-0.0661649,-47.0706,18,0.0025107,10,0.00311442,-1.32725,1.63221,0.0361474,-66.4398,-0.0661649,
2,0,0,1,0,34690.9,-0.0690117,-0.069344,-46.8688,18,0.00232283,10,0.00325007,-1.32912,1.73646,0.0339772,-62.1919,-0.069344,
2,0,0,1,0,34690.9,-0.0722189,-0.0725846,-46.6729,18,0.00213576,10,0.00338773,-1.33094,1.91704,0.0307766,-56.1035,-0.0725846,
2,0,0,1,0,34690.9,-0.075415,-0.0758114,-46.5034,18,0.00194943,10,0.00352549,-1.33251,2.13236,0.0276689,-50.2614,-0.0758114,
2,0,0,1,0,34690.9,-0.0786167,-0.0790043,-46.3503,18,0.00176376,10,0.00366187,-1.33395,2.40099,0.0245732,-44.4863,-0.07900434,
2,0,0,1,0,34690.9,-0.0818184,-0.0821707,-46.2241,18,0.00157863,10,0.00379827,-1.33513,2.76039,0.0213738,-38.5849,-0.0821707,
2,0,0,1,0,34690.9,-0.0850146,-0.0853933,-46.1031,18,0.001394,10,0.00393689,-1.33627,3.13116,0.0188429,-33.9254,-0.0853933,
2,0,0,1,0,34690.9,-0.088219,-0.0885947,-46.0102,18,0.00120981,10,0.00407626,-1.33715,3.81059,0.0154832,-27.8239,-0.0885947,
2,0,0,1,0,34690.9,-0.0914152,-0.0917748,-45.917,18,0.00102596,10,0.00421403,-1.33803,4.96795,0.0118761,-21.3051,-0.0917748,
2,0,0,1,0,34690.9,-0.0946141,-0.0949401,-45.8688,18,0.000842411,10,0.00435479,-1.33848,7.11272,0.008295,-14.864,-0.0949401,
2,0,0,1,0,34690.9,-0.0978158,-0.0981723,-45.8308,18,0.000658992,10,0.00449931,-1.33884,12.6253,0.00467317,-8.36456,-0.09817227,
2,0,0,1,0,34690.9,-0.101012,-0.101365,-45.8204,18,0.000475703,10,0.00464459,-1.33894,30.6758,0.00192334,-3.44134,-0.101365,
2,0,0,1,0,34691,-0.104219,-0.104554,-45.8101,18,0.000292454,10,0.00478962,-1.33904,-61.7589,-0.000955328,1.70914,-0.104554,
2,0,0,1,0,34691,-0.107415,-0.107806,-45.8245,18,0.000109177,10,0.00494016,-1.3389,-11.913,-0.00495257,8.86729,-0.107806,
2,0,0,1,0,34691,-0.110611,-0.110949,-45.8526,18,-7.41771e-05,10,0.00508731,-1.33864,-7.22367,-0.0081676,14.6321,-0.110949,
2,0,0,1,0,34691,-0.113819,-0.114168,-45.9339,18,-0.000257763,10,0.0052442,-1.33787,-5.23918,-0.0112613,20.1962,-0.114168,
2,0,0,1,0,34691,-0.117015,-0.117362,-45.9975,18,-0.000441617,10,0.00539838,-1.33727,-4.12963,-0.014287,25.658,-0.117362,
2,0,0,1,0,34691,-0.120216,-0.120585,-46.0826,18,-0.000625768,10,0.00555687,-1.33646,-3.62728,-0.0162657,29.2772,-0.120585,
2,0,0,1,0,34691,-0.123418,-0.123776,-46.1817,18,-0.000810298,10,0.00571618,-1.33553,-2.99659,-0.019689,35.5192,-0.123776,
2,0,0,1,0,34691,-0.126614,-0.12694,-46.3078,18,-0.000995274,10,0.00587832,-1.33435,-2.62858,-0.0224456,40.5947,-0.12694,
2,0,0,1,0,34691,-0.129819,-0.13018,-46.4528,18,-0.00118081,10,0.00604721,-1.33299,-2.41401,-0.0244406,44.3203,-0.13018,
2,0,0,1,0,34691,-0.133015,-0.133383,-46.6022,18,-0.00136692,10,0.00621594,-1.33159,-2.18012,-0.0270627,49.2415,-0.133383,
2,0,0,1,0,34691,-0.136214,-0.136589,-46.7496,18,-0.00155363,10,0.00638547,-1.33022,-2.09416,-0.0281735,51.4376,-0.136589,
2,0,0,1,0,34691,-0.139416,-0.139754,-46.9388,18,-0.00174103,10,0.00655988,-1.32847,-1.92794,-0.0306026,56.086,-0.139754,
2,0,0,1,0,34691,-0.142612,-0.142997,-47.1121,18,-0.00192914,10,0.00673687,-1.32687,-1.82364,-0.0323528,59.5057,-0.142997,
2,0,0,1,0,34691,-0.145819,-0.146194,-47.3207,18,-0.00211802,10,0.00691799,-1.32495,-1.8123,-0.0325553,60.1242,-0.146194,
2,0,0,1,0,34691,-0.149015,-0.149354,-47.5092,18,-0.00230771,10,0.00709568,-1.32322,-1.73248,-0.0340553,63.1497,-0.149354,
2,0,0,1,0,34691,-0.152211,-0.152538,-47.7074,18,-0.00249816,10,0.00727721,-1.32141,-1.737,-0.0339666,63.2637,-0.152538,
2,0,0,1,0,34691,-0.155418,-0.155767,-47.9185,18,-0.00268944,10,0.00746414,-1.3195,-1.7111,-0.0344807,64.4876,-0.1557672,
2,0,0,1,0,34691,-0.158615,-0.158988,-48.1301,18,-0.00288155,10,0.00765208,-1.31758,-1.67461,-0.035232,66.177,-0.158988,
2,0,0,1,0,34691,-0.161816,-0.162199,-48.3375,18,-0.00307449,10,0.00784028,-1.31572,-1.72926,-0.0341186,64.3503,-0.162199,
2,0,0,1,0,34691,-0.165018,-0.165312,-48.5528,18,-0.00326828,10,0.00802635,-1.31379,-1.75315,-0.0336537,63.7477,-0.165312,
2,0,0,1,0,34691,-0.168214,-0.16852,-48.7392,18,-0.00346288,10,0.00821351,-1.31212,-1.79721,-0.0328287,62.4393,-0.16852,
2,0,0,1,0,34691,-0.171419,-0.171771,-48.9449,18,-0.00365826,10,0.00840732,-1.31029,-1.84466,-0.0319842,61.0932,-0.171771,
2,0,0,1,0,34691,-0.174615,-0.174963,-49.1345,18,-0.00385443,10,0.00859671,-1.30861,-1.86447,-0.0316444,60.6711,-0.174963,
2,0,0,1,0,34691,-0.177814,-0.178132,-49.336,18,-0.00405139,10,0.00878833,-1.30684,-1.92062,-0.0307193,59.1314,-0.178132,
2,0,0,1,0,34691,-0.181015,-0.181344,-49.5172,18,-0.00424914,10,0.00897966,-1.30524,-1.98318,-0.0297502,57.4754,-0.181344,
2,0,0,1,0,34691.1,-0.184211,-0.184569,-49.7017,18,-0.0044476,10,0.00917339,-1.30363,-2.04724,-0.0288193,55.8916,-0.184569,
2,0,0,1,0,34691.1,-0.187419,-0.187803,-49.8725,18,-0.00464678,10,0.00936622,-1.30214,-2.11772,-0.0278601,54.2157,-0.187803,
2,0,0,1,0,34691.1,-0.190615,-0.190951,-50.0525,18,-0.00484664,10,0.0095576,-1.30057,-2.12089,-0.0278185,54.336,-0.1909515,
2,0,0,1,0,34691.1,-0.193811,-0.19413,-50.2104,18,-0.0050472,10,0.00974732,-1.29921,-2.25297,-0.0261877,51.2875,-0.19413,
2,0,0,1,0,34691.1,-0.197018,-0.197364,-50.3969,18,-0.00524845,10,0.00994653,-1.2976,-2.94061,-0.0200639,39.3411,-0.197364,
2,0,0,1,0,34691.1,-0.199647,-0.199907,-50.4933,18,-0.00541493,10,0.010094,-1.29677,0.253178,0.233038,-445.828,-0.199907,
2,0,0,1,0,34691.1,-0.200134,-0.200609,-50.4324,18,-0.00544523,10,0.0101172,-1.29729,-0.0150411,-3.92259,7073.84,-0.200609,
2,0,0,1,1,34691.1,-0.198935,-0.199425,-47.8495,18,-0.00551815,10,0.00954239,-1.32012,-0.0555151,-1.06277,1820.98,-0.199425,
2,0,0,1,1,34691.1,-0.195739,-0.196213,-42.2583,18,-0.00569729,10,0.00829163,-1.37409,-0.06449,-0.914871,1492.37,-0.196213,
2,0,0,1,1,34691.1,-0.192535,-0.192999,-37.914,18,-0.00585696,10,0.00731736,-1.4212,-0.0680398,-0.86714,1312.28,-0.192999,
2,0,0,1,1,34691.1,-0.189339,-0.189738,-34.21,18,-0.00600071,10,0.00649096,-1.46585,-0.0717389,-0.822427,1111.23,-0.189738,
2,0,0,1,1,34691.1,-0.186137,-0.186533,-30.931,18,-0.00613057,10,0.00576964,-1.50961,-0.0727799,-0.810663,985.668,-0.1865328,
2,0,0,1,1,34691.1,-0.182935,-0.18335,-27.9648,18,-0.00624798,10,0.00512737,-1.55339,-0.0722514,-0.816593,894.992,-0.1833505,
2,0,0,1,1,34691.1,-0.179739,-0.180152,-25.2513,18,-0.00635409,10,0.00454908,-1.59772,-0.0708248,-0.833042,822.573,-0.180152,
2,0,0,1,1,34691.1,-0.176532,-0.176918,-22.7359,18,-0.00644977,10,0.0040224,-1.64329,-0.0685144,-0.861132,763.96,-0.176918,
2,0,0,1,1,34691.1,-0.173336,-0.173731,-20.4002,18,-0.00653576,10,0.00354413,-1.69037,-0.0655651,-0.899869,714.209,-0.173731,
2,0,0,1,1,34691.1,-0.17014,-0.170564,-18.1966,18,-0.0066127,10,0.00310368,-1.74001,-0.0617875,-0.954886,674.047,-0.170564,
2,0,0,1,1,34691.1,-0.166932,-0.167347,-16.1055,18,-0.00668103,10,0.0026952,-1.79303,-0.0575458,-1.02527,639.195,-0.167347,
2,0,0,1,1,34691.1,-0.163736,-0.164136,-14.1202,18,-0.00674126,10,0.00231763,-1.85016,-0.0531854,-1.10933,604.648,-0.164136,
2,0,0,1,1,34691.1,-0.160532,-0.160965,-12.2407,18,-0.00679378,10,0.00197033,-1.91219,-0.047986,-1.22953,577.955,-0.160965,
2,0,0,1,1,34691.1,-0.157336,-0.15775,-10.4486,18,-0.00683897,10,0.00164827,-1.98094,-0.0425626,-1.38619,551.022,-0.15775,
2,0,0,1,1,34691.1,-0.154139,-0.154588,-8.73148,18,-0.00687714,10,0.00134978,-2.05891,-0.0366911,-1.60802,527.784,-0.154588,
2,0,0,1,1,34691.1,-0.150935,-0.151323,-7.05999,18,-0.00690853,10,0.00106834,-2.1512,-0.0302052,-1.95331,508.87,-0.151323,
2,0,0,1,1,34691.1,-0.147739,-0.148149,-5.47658,18,-0.00693341,10,0.000811352,-2.26149,-0.0233615,-2.52552,488.453,-0.148149,
2,0,0,1,1,34691.1,-0.144532,-0.144965,-3.94255,18,-0.00695209,10,0.00057153,-2.40422,-0.01531,-3.85369,472.865,-0.144965,
2,0,0,1,1,34691.1,-0.141335,-0.141761,-2.46625,18,-0.00696474,10,0.000349618,-2.60796,-0.0107242,-5.50158,455.469,-0.141761,
2,0,0,1,1,34691.2,-0.138139,-0.138594,-1.04083,18,-0.0069716,10,0.000144252,-2.98262,-0.0349433,-1.68845,441.204,-0.1385939,
2,1,0,1,1,34691.2,-0.134932,-0.135354,0.351093,18,-0.00697281,10,-4.7522e-05,-3.45458,0.153744,0.383755,425.838,-0.135354,
2,1,0,1,1,34691.2,-0.131736,-0.132181,1.69793,18,-0.00696856,10,-0.000224433,-2.77008,0.020951,2.81609,413.408,-0.132181,
2,1,0,1,1,34691.2,-0.12854,-0.128954,2.98773,18,-0.00695905,10,-0.000385279,-2.52466,0.0106809,5.52387,402.643,-0.128954,
2,1,0,1,1,34691.2,-0.125333,-0.125768,4.26138,18,-0.00694441,10,-0.000535947,-2.37045,0.0214984,2.74439,390.386,-0.125768,
2,1,0,1,1,34691.2,-0.122136,-0.122604,5.48493,18,-0.00692479,10,-0.000672474,-2.26083,0.030283,1.94829,383.221,-0.122604,
2,1,0,1,1,34691.2,-0.118932,-0.11936,6.70279,18,-0.0069003,10,-0.000800047,-2.17374,0.0391854,1.50566,372.838,-0.11936,
2,1,0,1,1,34691.2,-0.115736,-0.116219,7.86782,18,-0.00687104,10,-0.000914393,-2.10415,0.047976,1.22978,363.547,-0.116219,
2,1,0,1,1,34691.2,-0.11254,-0.113013,9.01717,18,-0.00683715,10,-0.00101905,-2.04493,0.0567578,1.0395,355.848,-0.113013,
2,1,0,1,1,34691.2,-0.109335,-0.109805,10.138,18,-0.00679871,10,-0.0011132,-1.99405,0.066281,0.89015,344.734,-0.109805,
2,1,0,1,1,34691.2,-0.106139,-0.106645,11.2275,18,-0.00675588,10,-0.00119736,-1.94972,0.075116,0.785452,338.478,-0.1066449,
2,1,0,1,1,34691.2,-0.102932,-0.103336,12.309,18,-0.00670869,10,-0.00127197,-1.90978,0.084683,0.696716,329.755,-0.103336,
2,1,0,1,1,34691.2,-0.0997357,-0.100214,13.3494,18,-0.00665727,10,-0.00133779,-1.87454,0.0947594,0.62263,320.499,-0.100214,
2,1,0,1,1,34691.2,-0.0965395,-0.0969963,14.3617,18,-0.00660172,10,-0.00139303,-1.84279,0.103792,0.568443,315.716,-0.09699627,
2,1,0,1,1,34691.2,-0.0933323,-0.093726,15.368,18,-0.00654215,10,-0.00144038,-1.81338,0.114243,0.516442,307.192,-0.093726,
2,1,0,1,1,34691.2,-0.0901362,-0.0905554,16.3442,18,-0.00647862,10,-0.00148005,-1.78664,0.124306,0.474636,300.419,-0.0905554,
2,1,0,1,1,34691.2,-0.0869345,-0.0873391,17.3043,18,-0.00641125,10,-0.00151134,-1.76185,0.134312,0.439275,294.516,-0.0873391,
2,1,0,1,1,34691.2,-0.0837328,-0.0841261,18.2281,18,-0.00634009,10,-0.00153346,-1.73926,0.145757,0.404783,286.193,-0.0841261,
2,1,0,1,1,34691.2,-0.0805366,-0.0809597,19.1279,18,-0.00626529,10,-0.00154859,-1.71833,0.156248,0.377605,280.565,-0.0809597,
2,1,0,1,1,34691.2,-0.0773322,-0.0777382,20.0124,18,-0.00618693,10,-0.00155572,-1.6987,0.168117,0.350946,272.886,-0.0777382,
2,1,0,1,1,34691.2,-0.074136,-0.0745771,20.8849,18,-0.00610506,10,-0.00155754,-1.68017,0.178977,0.329651,267.524,-0.0745771,
2,1,0,1,1,34691.2,-0.0709371,-0.0713227,21.722,18,-0.00601977,10,-0.00154927,-1.6631,0.191362,0.308317,260.356,-0.0713227,
2,1,0,1,1,34691.2,-0.0677354,-0.06815,22.5548,18,-0.00593111,10,-0.00153711,-1.64676,0.203982,0.289241,253.718,-0.06815,
2,1,0,1,1,34691.2,-0.0645393,-0.0649253,23.3483,18,-0.0058392,10,-0.00151589,-1.63175,0.21506,0.274341,249.254,-0.0649253,
2,1,0,1,1,34691.2,-0.061332,-0.0617208,24.1468,18,-0.00574414,10,-0.00149036,-1.61714,0.228128,0.258626,243.021,-0.06172077,
2,1,0,1,1,34691.3,-0.0581359,-0.0585279,24.9112,18,-0.00564595,10,-0.001458,-1.60361,0.240162,0.245667,238.18,-0.0585279,
2,1,0,1,1,34691.3,-0.0549398,-0.0553445,25.6668,18,-0.00554472,10,-0.00142052,-1.59063,0.254848,0.231511,231.268,-0.0553445,
2,1,0,1,1,34691.3,-0.0517325,-0.0521167,26.399,18,-0.00544049,10,-0.00137583,-1.57841,0.269939,0.218568,224.552,-0.0521167,
2,1,0,1,1,34691.3,-0.0485364,-0.0489376,27.1031,18,-0.00533342,10,-0.00132636,-1.56698,0.284952,0.207053,218.521,-0.0489376,
2,1,0,1,1,34691.3,-0.0453347,-0.0457033,27.791,18,-0.00522356,10,-0.00127014,-1.5561,0.299406,0.197057,213.347,-0.0457033,
2,1,0,1,1,34691.3,-0.042133,-0.0425316,28.4667,18,-0.00511098,10,-0.00121073,-1.54566,0.314109,0.187833,208.302,-0.0425316,
2,1,0,1,1,34691.3,-0.0389369,-0.0393218,29.1288,18,-0.00499573,10,-0.0011454,-1.53568,0.331254,0.178111,202.02,-0.0393218,
2,1,0,1,1,34691.3,-0.0357324,-0.0361353,29.7699,18,-0.00487789,10,-0.00107574,-1.52622,0.348977,0.169065,195.965,-0.0361353,
2,1,0,1,1,34691.3,-0.0325363,-0.0329212,30.3732,18,-0.00475754,10,-0.000999922,-1.51751,0.371548,0.158795,187.886,-0.0329212,
2,1,0,1,1,34691.3,-0.0293374,-0.0297622,30.969,18,-0.00463481,10,-0.000921707,-1.50907,0.390089,0.151247,182.531,-0.02976222,
2,1,0,1,1,34691.3,-0.0261357,-0.0264983,31.5381,18,-0.00450971,10,-0.000835707,-1.50116,0.406489,0.145145,178.422,-0.0264983,
2,1,0,1,1,34691.3,-0.0229395,-0.0233372,32.1059,18,-0.00438234,10,-0.000749262,-1.49342,0.432716,0.136348,170.553,-0.0233372,
2,1,0,1,1,34691.3,-0.0197323,-0.0201613,32.6498,18,-0.00425277,10,-0.000658263,-1.48612,0.452143,0.13049,165.941,-0.0201613,
2,1,0,1,1,34691.3,-0.0165361,-0.0169249,33.1585,18,-0.00412109,10,-0.000561205,-1.47941,0.478188,0.123383,159.467,-0.0169249,
2,1,0,1,1,34691.3,-0.01334,-0.0137469,33.6541,18,-0.00398739,10,-0.000462639,-1.47296,0.508766,0.115967,152.146,-0.0137469,
2,1,0,1,1,34691.3,-0.0101328,-0.0105211,34.1496,18,-0.00385173,10,-0.000359293,-1.46661,0.527677,0.111811,148.808,-0.0105211,
2,1,0,1,1,34691.3,-0.00693663,-0.00731977,34.6036,18,-0.00371415,10,-0.000253291,-1.46088,0.560779,0.105211,141.816,-0.007319768,
2,1,0,1,1,34691.3,-0.00373494,-0.00412476,35.0632,18,-0.00357478,10,-0.000144627,-1.45515, , , ,-0.00412476,
2,1,0,1,1,34691.3,-0.000774629,-0.00116994,35.4377,18,-0.00344432,10,-4.14599e-05,-1.45053, , , ,-0.00116994,
2,1,0,0,1,34691.3,-0.000125413,-0.000535284,35.5438,18,-0.00341594,10,-1.9026e-05,-1.44924, , , ,-0.000535284,