File: Figure_codes/Fig_3-5/rawdata_trumpetplot_data/after 10th/20221101_1-115_003_TrumpetPlot_ParaChange_from10_every3_12_CV_C01_21.csv
mode,ox/red,error,control changes,counter inc.,time/s,control/V,Ewe/V,<I>/mA,cycle number,(Q-Qo)/C,I Range,P/W,log(|I|),Tafel slope mV/dec,alpha_eff,dI/d(E-IR),E-IR/V,
2,1,0,1,0,42569.3,2.44065e-05,-0.000287149,15.484,22,0.0000000E+000,10,-4.44622e-06,-1.81012, , , ,-0.0002871489,
2,1,0,1,0,42569.3,0.00200257,0.00157386,16.4252,22,4.98761e-05,10,2.58511e-05,-1.78449, , , ,0.00157386,
2,1,0,1,0,42569.3,0.004408,0.00406582,17.2181,22,0.000117311,10,7.00058e-05,-1.76401, , , ,0.00406582,
2,1,0,1,0,42569.3,0.0068051,0.00645916,17.855,22,0.000187541,10,0.000115328,-1.74824,0.155298,0.379914,261.905,0.006459157,
2,1,0,1,0,42569.3,0.00920221,0.00884825,18.4328,22,0.000260182,10,0.000163098,-1.73441,0.180798,0.326331,233.259,0.00884825,
2,1,0,1,0,42569.3,0.0115993,0.011267,18.9639,22,0.000335053,10,0.000213667,-1.72207,0.200896,0.293685,216.271,0.01126704,
2,1,0,1,0,42569.3,0.0140075,0.0136699,19.4584,22,0.000411958,10,0.000265994,-1.71089,0.22448,0.26283,198.697,0.01366992,
2,1,0,1,0,42569.3,0.0164046,0.0160124,19.921,22,0.000490768,10,0.000318983,-1.70069,0.241542,0.244264,189.259,0.0160124,
2,1,0,1,0,42569.3,0.0188017,0.0184492,20.3405,22,0.00057135,10,0.000375265,-1.69164,0.26242,0.22483,178.118,0.0184492,
2,1,0,1,0,42569.3,0.0212099,0.0208107,20.7702,22,0.000653606,10,0.000432241,-1.68256,0.28658,0.205876,166.443,0.0208107,
2,1,0,1,0,42569.3,0.023607,0.0232507,21.1649,22,0.000737513,10,0.000492098,-1.67438,0.300845,0.196114,161.545,0.0232507,
2,1,0,1,0,42569.3,0.0260041,0.0256843,21.5309,22,0.000822945,10,0.000553006,-1.66694,0.324993,0.181542,152.315,0.0256843,
2,1,0,1,0,42569.3,0.0284012,0.0280533,21.892,22,0.000909818,10,0.000614142,-1.65972,0.341128,0.172955,147.579,0.0280533,
2,1,0,1,0,42569.3,0.0308067,0.0304795,22.2428,22,0.000998153,10,0.000677951,-1.65281,0.356278,0.165601,143.552,0.0304795,
2,1,0,1,0,42569.3,0.0332038,0.0328272,22.5782,22,0.00108782,10,0.000741179,-1.64631,0.372985,0.158183,139.245,0.0328272,
2,1,0,1,0,42569.3,0.0356009,0.0352693,22.9068,22,0.00117884,10,0.000807909,-1.64003,0.389786,0.151365,135.192,0.0352693,
2,1,0,1,0,42569.3,0.0380091,0.0376818,23.2327,22,0.00127115,10,0.000875449,-1.6339,0.407022,0.144955,131.27,0.0376818,
2,1,0,1,0,42569.3,0.0404062,0.0400783,23.5405,22,0.00136472,10,0.000943464,-1.62818,0.421769,0.139887,128.395,0.0400783,
2,1,0,1,0,42569.3,0.0428033,0.0424536,23.8418,22,0.00145951,10,0.00101217,-1.62266,0.431774,0.136645,127.105,0.0424536,
2,1,0,1,0,42569.3,0.0452032,0.0448798,24.1408,22,0.00155549,10,0.00108343,-1.61725,0.444885,0.132618,124.903,0.0448798,
2,1,0,1,0,42569.3,0.0476058,0.0472297,24.4463,22,0.00165271,10,0.00115459,-1.61179,0.462353,0.127608,121.619,0.04722967,
2,1,0,1,0,42569.3,0.0500029,0.0496389,24.7347,22,0.00175112,10,0.0012278,-1.60669,0.46182,0.127755,123.29,0.0496389,
2,1,0,1,0,42569.3,0.0524,0.0520524,25.0092,22,0.00185064,10,0.00130179,-1.6019,0.47886,0.123209,120.312,0.0520524,
2,1,0,1,0,42569.4,0.0548082,0.0544775,25.3241,22,0.00195133,10,0.00137959,-1.59647,0.480769,0.12272,121.233,0.0544775,
2,1,0,1,0,42569.4,0.0572053,0.056855,25.6043,22,0.00205322,10,0.00145573,-1.59169,0.479825,0.122961,122.826,0.056855,
2,1,0,1,0,42569.4,0.0596024,0.0592526,25.9002,22,0.00215625,10,0.00153465,-1.5867,0.497166,0.118673,119.923,0.0592526,
2,1,0,1,0,42569.4,0.0620051,0.0616671,26.1902,22,0.00226045,10,0.00161507,-1.58186,0.498998,0.118237,120.799,0.0616671,
2,1,0,1,0,42569.4,0.0644077,0.0640424,26.4711,22,0.0023658,10,0.00169527,-1.57723,0.505177,0.116791,120.677,0.0640424,
2,1,0,1,0,42569.4,0.0668048,0.0664347,26.7615,22,0.00247231,10,0.00177789,-1.57249,0.502867,0.117327,122.588,0.0664347,
2,1,0,1,0,42569.4,0.0692019,0.0688651,27.0602,22,0.00257997,10,0.0018635,-1.56767,0.506047,0.11659,123.126,0.0688651,
2,1,0,1,0,42569.4,0.0716074,0.071233,27.3628,22,0.00268885,10,0.00194914,-1.56284,0.51125,0.115403,123.167,0.071233,
2,1,0,1,0,42569.4,0.0740045,0.0736773,27.6574,22,0.00279891,10,0.00203772,-1.55819,0.511178,0.11542,124.554,0.0736773,
2,1,0,1,0,42569.4,0.0764016,0.0760144,27.9414,22,0.00291014,10,0.00212395,-1.55375,0.516736,0.114178,124.582,0.0760144,
2,1,0,1,0,42569.4,0.0788042,0.0784247,28.2509,22,0.00302255,10,0.00221557,-1.54897,0.517182,0.11408,125.796,0.0784247,
2,1,0,1,0,42569.4,0.0812069,0.0808594,28.5621,22,0.00313621,10,0.00230951,-1.54421,0.511825,0.115274,128.451,0.0808594,
2,1,0,1,0,42569.4,0.083604,0.0832464,28.8612,22,0.00325109,10,0.00240259,-1.53969,0.519626,0.113543,127.892,0.0832464,
2,1,0,1,0,42569.4,0.0860011,0.0855973,29.1724,22,0.00336719,10,0.00249708,-1.53503,0.5241,0.112574,128.152,0.0855973,
2,1,0,1,0,42569.4,0.0884065,0.0880426,29.4809,22,0.00348453,10,0.00259558,-1.53046,0.52483,0.112417,129.324,0.0880426,
2,1,0,1,0,42569.4,0.0908036,0.0904009,29.7849,22,0.00360309,10,0.00269258,-1.526,0.529193,0.11149,129.626,0.0904009,
2,1,0,1,0,42569.4,0.0932007,0.0928356,30.1013,22,0.00372288,10,0.00279447,-1.52141,0.528689,0.111597,131.124,0.0928356,
2,1,0,1,0,42569.4,0.0956034,0.0952162,30.4193,22,0.00384397,10,0.00289641,-1.51685,0.533756,0.110538,131.201,0.0952162,
2,1,0,1,0,42569.4,0.098006,0.0976573,30.7416,22,0.00396633,10,0.00300215,-1.51227,0.53642,0.109988,131.9,0.0976573,
2,1,0,1,0,42569.4,0.100403,0.100049,31.0507,22,0.00408994,10,0.00310657,-1.50793,0.536158,0.110042,133.388,0.100049,
2,1,0,1,0,42569.4,0.1028,0.102405,31.3635,22,0.00421479,10,0.00321177,-1.50358,0.535862,0.110103,134.853,0.102405,
2,1,0,1,0,42569.4,0.105208,0.104881,31.7084,22,0.00434096,10,0.0033256,-1.49883,0.537789,0.109708,135.717,0.104881,
2,1,0,1,0,42569.4,0.107606,0.107237,32.0335,22,0.00446849,10,0.00343518,-1.4944,0.537688,0.109729,137.12,0.107237,
2,1,0,1,0,42569.4,0.110003,0.109653,32.3541,22,0.00459728,10,0.00354771,-1.49007,0.552103,0.106864,134.912,0.109653,
2,1,0,1,0,42569.4,0.112408,0.112042,32.6849,22,0.00472738,10,0.00366207,-1.48565,0.558699,0.105602,134.676,0.1120417,
2,1,0,1,0,42569.5,0.114805,0.114435,32.9974,22,0.00485878,10,0.00377606,-1.48152,0.555998,0.106115,136.661,0.114435,
2,1,0,1,0,42569.5,0.117202,0.116868,33.3305,22,0.00499146,10,0.00389526,-1.47716,0.5673,0.104001,135.272,0.116868,
2,1,0,1,0,42569.5,0.119599,0.119156,33.6528,22,0.00512548,10,0.00400994,-1.47298,0.551035,0.107071,140.672,0.119156,
2,1,0,1,0,42569.5,0.122008,0.121608,33.9789,22,0.00526079,10,0.00413209,-1.46879,0.541988,0.108858,144.511,0.121608,
2,1,0,1,0,42569.5,0.124405,0.123983,34.3405,22,0.00539743,10,0.00425764,-1.46419,0.526956,0.111964,150.192,0.123983,
2,1,0,1,0,42569.5,0.126802,0.126411,34.7097,22,0.00553558,10,0.00438769,-1.45955,0.51065,0.115539,156.598,0.126411,
2,1,0,1,0,42569.5,0.129207,0.128801,35.1015,22,0.00567522,10,0.00452112,-1.45467,0.512322,0.115162,157.742,0.128801,
2,1,0,1,0,42569.5,0.131604,0.131258,35.4902,22,0.00581645,10,0.00465838,-1.44989,0.510154,0.115651,160.109,0.131258,
2,1,0,1,0,42569.5,0.134001,0.133649,35.8652,22,0.0059592,10,0.00479333,-1.44533,0.512484,0.115126,161.178,0.133649,
2,1,0,1,0,42569.5,0.136399,0.13602,36.2481,22,0.00610345,10,0.00493045,-1.44072,0.515641,0.114421,161.929,0.13602,
2,1,0,1,0,42569.5,0.138807,0.138447,36.6561,22,0.0062493,10,0.00507493,-1.43585,0.512681,0.115081,164.617,0.1384469,
2,1,0,1,0,42569.5,0.141204,0.140866,37.0459,22,0.00639672,10,0.00521849,-1.43126,0.506866,0.116401,168.314,0.140866,
2,1,0,1,0,42569.5,0.143601,0.143287,37.4517,22,0.00654575,10,0.00536633,-1.42653,0.518699,0.113746,166.239,0.143287,
2,1,0,1,0,42569.5,0.146009,0.145629,37.8655,22,0.00669642,10,0.00551431,-1.42176,0.519089,0.113661,167.872,0.145629,
2,1,0,1,0,42569.5,0.148406,0.148047,38.252,22,0.00684869,10,0.00566309,-1.41735,0.523427,0.112719,168.254,0.148047,
2,1,0,1,0,42569.5,0.150803,0.15045,38.6548,22,0.00700256,10,0.0058156,-1.4128,0.54145,0.108967,164.366,0.15045,
2,1,0,1,0,42569.5,0.153206,0.152815,39.055,22,0.007158,10,0.00596821,-1.40832,0.546803,0.1079,164.361,0.152815,
2,1,0,1,0,42569.5,0.155606,0.155246,39.4461,22,0.00731504,10,0.00612385,-1.404,0.570865,0.103352,158.979,0.155246,
2,1,0,1,0,42569.5,0.158003,0.157594,39.8211,22,0.00747363,10,0.00627556,-1.39989,0.585713,0.100732,156.475,0.157594,
2,1,0,1,0,42569.5,0.1604,0.160071,40.1843,22,0.00763367,10,0.00643233,-1.39594,0.606628,0.0972589,152.481,0.1600707,
2,1,0,1,0,42569.5,0.162808,0.162433,40.56,22,0.00779519,10,0.00658829,-1.3919,0.635902,0.0927816,146.738,0.162433,
2,1,0,1,0,42569.5,0.165205,0.164823,40.9065,22,0.00795815,10,0.00674235,-1.38821,0.649007,0.0909081,145.013,0.164823,
2,1,0,1,0,42569.5,0.167603,0.167236,41.236,22,0.00812246,10,0.00689614,-1.38472,0.698174,0.0845062,135.907,0.167236,
2,1,0,1,0,42569.5,0.170008,0.16963,41.5706,22,0.0082881,10,0.00705163,-1.38121,0.745155,0.0791782,128.296,0.16963,
2,1,0,1,0,42569.5,0.172405,0.17203,41.8642,22,0.008455,10,0.0072019,-1.37816,0.800899,0.0736672,120.21,0.17203,
2,1,0,1,0,42569.6,0.174802,0.174413,42.1368,22,0.00862305,10,0.00734919,-1.37534,0.883877,0.0667514,109.662,0.1744127,
2,1,0,1,0,42569.6,0.177199,0.176864,42.3935,22,0.00879215,10,0.00749789,-1.3727,0.983459,0.0599923,99.1286,0.176864,
2,1,0,1,0,42569.6,0.179607,0.179234,42.6238,22,0.00896221,10,0.00763965,-1.37035,1.14649,0.0514614,85.4529,0.179234,
2,1,0,1,0,42569.6,0.182005,0.181644,42.8172,22,0.00913312,10,0.00777747,-1.36838,1.35457,0.0435564,72.6553,0.181644,
2,1,0,1,0,42569.6,0.184402,0.184073,42.9623,22,0.00930471,10,0.0079082,-1.36691,1.77048,0.0333243,55.7814,0.184073,
2,1,0,1,0,42569.6,0.18681,0.186476,43.0918,22,0.00947682,10,0.00803558,-1.36561,2.59436,0.0227417,38.1646,0.186476,
2,1,0,1,0,42569.6,0.189207,0.18883,43.159,22,0.00964934,10,0.00814972,-1.36493,4.56308,0.0129299,21.7317,0.18883,
2,1,0,1,0,42569.6,0.191604,0.191269,43.1846,22,0.00982204,10,0.00825986,-1.36467,48.9675,0.00120488,2.02675,0.191269,
2,1,0,1,0,42569.6,0.194001,0.19363,43.17,22,0.00999475,10,0.00835902,-1.36482,-6.106,-0.00966263,-16.2458,0.19363,
2,1,0,1,0,42569.6,0.196407,0.196082,43.1113,22,0.0101673,10,0.00845335,-1.36541,-2.88572,-0.0204455,-34.3268,0.196082,
2,1,0,1,0,42569.6,0.198804,0.198472,43.0024,22,0.0103396,10,0.00853478,-1.36651,-1.86455,-0.031643,-52.9954,0.198472,
2,1,0,1,0,42569.6,0.201201,0.200833,42.8563,22,0.0105113,10,0.00860694,-1.36799,-1.33602,-0.0441611,-73.6907,0.200833,
2,1,0,1,0,42569.6,0.203609,0.203279,42.6587,22,0.0106823,10,0.00867161,-1.36999,-1.05707,-0.0558147,-92.7017,0.203279,
2,1,0,1,0,42569.6,0.206006,0.205665,42.4051,22,0.0108524,10,0.00872125,-1.37258,-0.862946,-0.0683704,-112.893,0.205665,
2,1,0,1,0,42569.6,0.208403,0.208039,42.1155,22,0.0110214,10,0.00876168,-1.37556,-0.735938,-0.0801698,-131.484,0.208039,
2,1,0,1,0,42569.6,0.210803,0.210486,41.7665,22,0.0111891,10,0.00879125,-1.37917,-0.644518,-0.0915413,-148.918,0.210486,
2,1,0,1,0,42569.6,0.213206,0.212885,41.3956,22,0.0113554,10,0.00881251,-1.38305,-0.568428,-0.103795,-167.315,0.212885,
2,1,0,1,0,42569.6,0.215603,0.215297,40.9708,22,0.0115201,10,0.00882087,-1.38753,-0.517968,-0.113907,-181.769,0.215297,
2,1,0,1,0,42569.6,0.218,0.217674,40.5035,22,0.0116831,10,0.00881655,-1.39251,-0.470738,-0.125335,-197.799,0.217674,
2,1,0,1,0,42569.6,0.220408,0.220072,40.0241,22,0.011844,10,0.00880816,-1.39768,-0.432601,-0.136384,-212.63,0.220072,
2,1,0,1,0,42569.6,0.222805,0.222494,39.4951,22,0.012003,10,0.0087874,-1.40346,-0.410612,-0.143688,-221.114,0.222494,
2,1,0,1,0,42569.6,0.225202,0.224834,38.9429,22,0.0121598,10,0.00875567,-1.40957,-0.382532,-0.154235,-234.115,0.224834,
2,1,0,1,0,42569.6,0.227605,0.227293,38.3766,22,0.0123144,10,0.00872273,-1.41593,-0.366424,-0.161015,-240.855,0.227293,
2,1,0,1,0,42569.6,0.230008,0.229634,37.7853,22,0.0124667,10,0.0086768,-1.42268,-0.354608,-0.166381,-245.112,0.229634,
2,1,0,1,0,42569.6,0.232405,0.232082,37.1857,22,0.0126166,10,0.00863013,-1.42962,-0.340769,-0.173138,-251.094,0.232082,
2,1,0,1,0,42569.7,0.234802,0.23448,36.5784,22,0.012764,10,0.00857691,-1.43678,-0.33429,-0.176493,-251.824,0.23448,
2,1,0,1,0,42569.7,0.237207,0.236877,35.9701,22,0.012909,10,0.00852049,-1.44406,-0.326685,-0.180602,-253.431,0.236877,
2,1,0,1,0,42569.7,0.239604,0.23926,35.3614,22,0.0130517,10,0.00846056,-1.45147,-0.322591,-0.182894,-252.333,0.23926,
2,1,0,1,0,42569.7,0.242002,0.241677,34.7539,22,0.0131918,10,0.00839923,-1.459,-0.322215,-0.183108,-248.411,0.241677,
2,1,0,1,0,42569.7,0.244404,0.244093,34.1528,22,0.0133296,10,0.00833646,-1.46657,-0.320565,-0.18405,-245.428,0.244093,
2,1,0,1,0,42569.7,0.246807,0.246496,33.5806,22,0.013465,10,0.00827749,-1.47391,-0.321605,-0.183455,-240.452,0.246496,
2,1,0,1,0,42569.7,0.249204,0.248871,33.0025,22,0.0135981,10,0.00821336,-1.48145,-0.324163,-0.182007,-234.529,0.248871,
2,1,0,1,0,42569.7,0.251601,0.251295,32.4412,22,0.0137289,10,0.00815233,-1.4889,-0.323612,-0.182317,-230.973,0.251295,
2,1,0,1,0,42569.7,0.254006,0.253665,31.9078,22,0.0138576,10,0.00809391,-1.4961,-0.329953,-0.178813,-222.746,0.253665,
2,1,0,1,0,42569.7,0.256404,0.256077,31.3678,22,0.013984,10,0.00803255,-1.50352,-0.334424,-0.176423,-216.161,0.256077,
2,1,0,1,0,42569.7,0.258801,0.258493,30.8592,22,0.0141084,10,0.00797689,-1.51062,-0.34068,-0.173183,-208.798,0.258493,
2,1,0,1,0,42569.7,0.261203,0.260872,30.3712,22,0.0142308,10,0.00792298,-1.51754,-0.349008,-0.169051,-200.529,0.260872,
2,1,0,1,0,42569.7,0.263606,0.263283,29.8996,22,0.0143513,10,0.00787207,-1.52433,-0.351455,-0.167873,-195.97,0.263283,
2,1,0,1,0,42569.7,0.266003,0.265681,29.4418,22,0.01447,10,0.00782214,-1.53103,-0.363854,-0.162153,-186.481,0.265681,
2,1,0,1,0,42569.7,0.2684,0.268061,28.9841,22,0.0145868,10,0.00776952,-1.53784,-0.37329,-0.158054,-179.071,0.268061,
2,1,0,1,0,42569.7,0.270808,0.270464,28.5824,22,0.0147019,10,0.00773051,-1.5439,-0.381652,-0.154591,-172.588,0.270464,
2,1,0,1,0,42569.7,0.273205,0.272895,28.1785,22,0.0148153,10,0.00768976,-1.55008,-0.398785,-0.147949,-162.8,0.272895,
2,1,0,1,0,42569.7,0.275603,0.275271,27.7867,22,0.0149272,10,0.00764887,-1.55616,-0.402707,-0.146508,-159.009,0.275271,
2,1,0,1,0,42569.7,0.278008,0.277663,27.4209,22,0.0150376,10,0.00761379,-1.56192,-0.412075,-0.143178,-153.297,0.277663,
2,1,0,1,0,42569.7,0.280405,0.280095,27.051,22,0.0151465,10,0.00757685,-1.56782,-0.428391,-0.137725,-145.55,0.280095,
2,1,0,1,0,42569.7,0.282802,0.282516,26.7036,22,0.015254,10,0.00754419,-1.57343,-0.437808,-0.134762,-140.633,0.282516,
2,1,0,1,0,42569.7,0.285199,0.284908,26.384,22,0.0153601,10,0.00751702,-1.57866,-0.456315,-0.129297,-133.249,0.284908,
2,1,0,1,0,42569.7,0.287608,0.287271,26.0698,22,0.015465,10,0.0074891,-1.58386,-0.466643,-0.126435,-128.703,0.287271,
2,1,0,1,0,42569.7,0.290005,0.289691,25.7724,22,0.0155687,10,0.00746602,-1.58885,-0.476782,-0.123746,-124.527,0.289691,
2,1,0,1,0,42569.7,0.292402,0.292085,25.472,22,0.0156711,10,0.00743999,-1.59394,-0.500584,-0.117862,-117.295,0.292085,
2,1,0,1,0,42569.8,0.294807,0.294454,25.1953,22,0.0157724,10,0.00741886,-1.59868,-0.5081,-0.116119,-114.33,0.294454,
2,1,0,1,0,42569.8,0.297204,0.296914,24.9387,22,0.0158727,10,0.00740465,-1.60313,-0.515352,-0.114485,-111.916,0.296914,
2,1,0,1,0,42569.8,0.299421,0.299136,24.6925,22,0.0159645,10,0.00738642,-1.60743,-0.117043,-0.50409,-473.97,0.299136,
2,1,0,0,0,42569.8,0.300012,0.299613,24.6295,22,0.0159891,10,0.00737932,-1.60854,0.00267529,22.0537,18941.4,0.299613,
2,1,0,1,0,42569.8,0.299243,0.299039,23.0221,22,0.0160195,10,0.0068845,-1.63786,0.0282813,2.08618,1654.37,0.2990391,
2,1,0,1,0,42569.8,0.296846,0.296617,19.3152,22,0.0161034,10,0.00572922,-1.7141,0.0324212,1.8198,1341.05,0.296617,
2,1,0,1,0,42569.8,0.294449,0.294181,16.4964,22,0.0161746,10,0.00485293,-1.78261,0.0343099,1.71962,1136.26,0.294181,
2,1,0,1,0,42569.8,0.292041,0.291767,14.1076,22,0.0162354,10,0.00411613,-1.85055,0.0347323,1.69871,944.507,0.291767,
2,1,0,1,0,42569.8,0.289644,0.289359,12.0226,22,0.0162874,10,0.00347883,-1.92,0.0332402,1.77496,834.064,0.289359,
2,1,0,1,0,42569.8,0.287247,0.286918,10.1539,22,0.0163315,10,0.00291333,-1.99337,0.0312917,1.88548,743.867,0.286918,
2,1,0,1,0,42569.8,0.284841,0.284558,8.47,22,0.0163686,10,0.00241021,-2.07212,0.0286193,2.06154,674.601,0.284558,
2,1,0,1,0,42569.8,0.282444,0.282143,6.94844,22,0.0163992,10,0.00196045,-2.15811,0.0255737,2.30706,613.525,0.282143,
2,1,0,1,0,42569.8,0.280047,0.27979,5.56723,22,0.0164241,10,0.00155765,-2.25436,0.0221662,2.66171,556.459,0.27979,
2,1,0,1,0,42569.8,0.27765,0.277379,4.30188,22,0.0164437,10,0.00119325,-2.36634,0.0180633,3.26629,510.938,0.277379,
2,1,0,1,0,42569.8,0.275242,0.274943,3.11981,22,0.0164584,10,0.000857771,-2.50587,0.013227,4.46056,469.168,0.274943,
2,1,0,1,0,42569.8,0.272845,0.272544,2.04403,22,0.0164686,10,0.000557088,-2.68951,0.00599937,9.83436,434.002,0.272544,
2,1,0,1,0,42569.8,0.270448,0.270132,1.03642,22,0.0164746,10,0.00027997,-2.98447,0.0154303,3.82365,402.277,0.270132,
2,1,0,1,0,42569.8,0.268039,0.267709,0.105161,22,0.0164768,10,2.81526e-05,-3.97815,0.0800199,0.737317,373.529,0.2677094,
2,0,0,1,0,42569.8,0.265642,0.265338,-0.744118,22,0.0164754,10,-0.000197443,-3.12836,-0.027617,-2.13636,348.588,0.265338,
2,0,0,1,0,42569.8,0.263245,0.262923,-1.54972,22,0.0164708,10,-0.000407457,-2.80975,-0.0065812,-8.96493,324.634,0.262923,
2,0,0,1,0,42569.8,0.260843,0.260548,-2.30445,22,0.016463,10,-0.00060042,-2.63743,-0.013823,-4.26825,305.834,0.260548,
2,0,0,1,0,42569.8,0.258443,0.258126,-3.00578,22,0.0164523,10,-0.000775871,-2.52204,-0.0217229,-2.71602,285.16,0.2581265,
2,0,0,1,0,42569.8,0.256046,0.255746,-3.67782,22,0.0164388,10,-0.000940586,-2.43441,-0.0296294,-1.99126,266.79,0.255746,
2,0,0,1,0,42569.8,0.253649,0.253323,-4.2872,22,0.0164228,10,-0.00108605,-2.36783,-0.0373183,-1.58099,253.011,0.253323,
2,0,0,1,0,42569.8,0.25124,0.250891,-4.88087,22,0.0164044,10,-0.00122457,-2.3115,-0.0459342,-1.28445,236.788,0.2508913,
2,0,0,1,0,42569.8,0.248843,0.248531,-5.43358,22,0.0163837,10,-0.00135041,-2.26491,-0.0540352,-1.09188,225.838,0.248531,
2,0,0,1,0,42569.8,0.246446,0.246145,-5.95121,22,0.0163609,10,-0.00146486,-2.2254,-0.063304,-0.932011,212.324,0.246145,
2,0,0,1,0,42569.9,0.244041,0.2437,-6.46049,22,0.016336,10,-0.00157442,-2.18973,-0.0728813,-0.809536,200.498,0.2437,
2,0,0,1,0,42569.9,0.241644,0.241329,-6.91126,22,0.0163092,10,-0.00166788,-2.16044,-0.0825896,-0.714375,190.305,0.2413286,
2,0,0,1,0,42569.9,0.239247,0.238945,-7.35556,22,0.0162806,10,-0.00175757,-2.13338,-0.0927108,-0.636387,181.128,0.2389448,
2,0,0,1,0,42569.9,0.236849,0.236523,-7.78234,22,0.0162503,10,-0.0018407,-2.10889,-0.101913,-0.578925,174.346,0.236523,
2,0,0,1,0,42569.9,0.234441,0.234129,-8.19392,22,0.0162183,10,-0.00191844,-2.08651,-0.113788,-0.518509,164.374,0.234129,
2,0,0,1,0,42569.9,0.232044,0.231745,-8.58219,22,0.0161847,10,-0.00198888,-2.0664,-0.123706,-0.476939,158.566,0.231745,
2,0,0,1,0,42569.9,0.229647,0.229294,-8.9419,22,0.0161496,10,-0.00205032,-2.04857,-0.135912,-0.434103,150.737,0.229294,
2,0,0,1,0,42569.9,0.227239,0.226948,-9.30051,22,0.0161131,10,-0.00211074,-2.03149,-0.148784,-0.396547,143.222,0.226948,
2,0,0,1,0,42569.9,0.224842,0.224536,-9.64001,22,0.0160752,10,-0.00216453,-2.01592,-0.158056,-0.373285,139.768,0.224536,
2,0,0,1,0,42569.9,0.222445,0.222118,-9.96089,22,0.0160359,10,-0.0022125,-2.0017,-0.171387,-0.344251,133.388,0.222118,
2,0,0,1,0,42569.9,0.220047,0.21974,-10.2773,22,0.0159954,10,-0.00225833,-1.98812,-0.18506,-0.318816,127.407,0.21974,
2,0,0,1,0,42569.9,0.217642,0.217327,-10.5838,22,0.0159537,10,-0.00230016,-1.97536,-0.196627,-0.30006,123.469,0.217327,
2,0,0,1,0,42569.9,0.215245,0.21493,-10.8639,22,0.0159107,10,-0.00233498,-1.96401,-0.208542,-0.282916,119.744,0.21493,
2,0,0,1,0,42569.9,0.212848,0.2125,-11.1484,22,0.0158667,10,-0.00236904,-1.95279,-0.221578,-0.266271,115.641,0.2125,
2,0,0,1,0,42569.9,0.21044,0.210085,-11.4334,22,0.0158215,10,-0.00240199,-1.94182,-0.23272,-0.253524,112.776,0.210085,
2,0,0,1,0,42569.9,0.208043,0.207755,-11.6908,22,0.0157752,10,-0.00242882,-1.93216,-0.245454,-0.240371,109.424,0.207755,
2,0,0,1,0,42569.9,0.205645,0.205302,-11.9497,22,0.0157279,10,-0.00245329,-1.92264,-0.260815,-0.226214,105.327,0.205302,
2,0,0,1,0,42569.9,0.203246,0.202924,-12.1963,22,0.0156796,10,-0.00247492,-1.91377,-0.273008,-0.216111,102.718,0.202924,
2,0,0,1,0,42569.9,0.200843,0.200512,-12.4416,22,0.0156303,10,-0.0024947,-1.90512,-0.284203,-0.207598,100.671,0.200512,
2,0,0,1,0,42569.9,0.198446,0.198122,-12.6802,22,0.01558,10,-0.00251224,-1.89687,-0.294373,-0.200426,99.0816,0.198122,
2,0,0,1,0,42569.9,0.196049,0.195724,-12.914,22,0.0155288,10,-0.00252757,-1.88894,-0.307418,-0.191921,96.6231,0.195724,
2,0,0,1,0,42569.9,0.19364,0.193301,-13.1498,22,0.0154767,10,-0.00254186,-1.88108,-0.320996,-0.183803,94.1659,0.193301,
2,0,0,1,0,42569.9,0.191243,0.190906,-13.3698,22,0.0154236,10,-0.00255238,-1.87387,-0.327655,-0.180067,93.8764,0.190906,
2,0,0,1,0,42569.9,0.188846,0.188516,-13.5848,22,0.0153697,10,-0.00256096,-1.86695,-0.340974,-0.173034,91.734,0.188516,
2,0,0,1,0,42569.9,0.186444,0.186145,-13.8132,22,0.0153149,10,-0.00257125,-1.85971,-0.348934,-0.169087,91.0698,0.186145,
2,0,0,1,0,42570,0.184041,0.183725,-14.0282,22,0.0152592,10,-0.00257733,-1.853,-0.35665,-0.165428,90.4787,0.183725,
2,0,0,1,0,42570,0.181644,0.181342,-14.2408,22,0.0152026,10,-0.00258246,-1.84647,-0.370391,-0.159291,88.4976,0.181342,
2,0,0,1,0,42570,0.179247,0.178923,-14.4528,22,0.0151452,10,-0.00258594,-1.84005,-0.374387,-0.157591,88.8931,0.178923,
2,0,0,1,0,42570,0.176841,0.176502,-14.6666,22,0.015087,10,-0.00258868,-1.83367,-0.373759,-0.157856,90.3884,0.176502,
2,0,0,1,0,42570,0.174444,0.17406,-14.8874,22,0.0150278,10,-0.00259129,-1.82718,-0.38003,-0.155251,90.165,0.17406,
2,0,0,1,0,42570,0.172047,0.171707,-15.1118,22,0.0149678,10,-0.00259479,-1.82068,-0.379118,-0.155624,91.7227,0.171707,
2,0,0,1,0,42570,0.169644,0.169326,-15.3181,22,0.014907,10,-0.00259375,-1.81479,-0.38353,-0.153834,91.9879,0.169326,
2,0,0,1,0,42570,0.167242,0.166913,-15.546,22,0.0148452,10,-0.00259484,-1.80838,-0.383044,-0.154029,93.5096,0.166913,
2,0,0,1,0,42570,0.164845,0.16452,-15.7649,22,0.0147826,10,-0.00259364,-1.80231,-0.370855,-0.159092,97.9936,0.16452,
2,0,0,1,0,42570,0.162448,0.162119,-16.0082,22,0.014719,10,-0.00259525,-1.79566,-0.373294,-0.158052,98.7831,0.162119,
2,0,0,1,0,42570,0.160042,0.159745,-16.257,22,0.0146544,10,-0.00259697,-1.78896,-0.365425,-0.161456,102.411,0.159745,
2,0,0,1,0,42570,0.157645,0.157331,-16.4927,22,0.0145889,10,-0.0025948,-1.78271,-0.35673,-0.165391,106.606,0.1573306,
2,0,0,1,0,42570,0.155248,0.154893,-16.7509,22,0.0145224,10,-0.00259459,-1.77596,-0.348949,-0.169079,110.764,0.154893,
2,0,0,1,0,42570,0.152845,0.152493,-17.0345,22,0.0144548,10,-0.00259764,-1.76867,-0.330825,-0.178342,118.721,0.152493,
2,0,0,1,0,42570,0.150443,0.150091,-17.3263,22,0.0143861,10,-0.00260052,-1.76129,-0.320788,-0.183922,124.456,0.150091,
2,0,0,1,0,42570,0.148046,0.147711,-17.6348,22,0.0143161,10,-0.00260484,-1.75363,-0.3079,-0.191621,132.065,0.147711,
2,0,0,1,0,42570,0.145648,0.145335,-17.9403,22,0.014245,10,-0.00260736,-1.74617,-0.294793,-0.20014,140.522,0.145335,
2,0,0,1,0,42570,0.14324,0.142911,-18.2999,22,0.0141725,10,-0.00261526,-1.73755,-0.281331,-0.209717,150.149,0.1429112,
2,0,0,1,0,42570,0.140843,0.140517,-18.6717,22,0.0140985,10,-0.00262369,-1.72882,-0.263695,-0.223743,163.436,0.140517,
2,0,0,1,0,42570,0.138446,0.13812,-19.0747,22,0.014023,10,-0.00263461,-1.71954,-0.252603,-0.233569,174.296,0.13812,
2,0,0,1,0,42570,0.136041,0.135697,-19.5155,22,0.0139458,10,-0.0026482,-1.70962,-0.242525,-0.243273,185.594,0.135697,
2,0,0,1,0,42570,0.133644,0.133352,-19.9661,22,0.0138668,10,-0.00266251,-1.69971,-0.230348,-0.256135,200.089,0.133352,
2,0,0,1,0,42570,0.131246,0.130926,-20.4516,22,0.0137859,10,-0.00267766,-1.68927,-0.220035,-0.26814,214.743,0.130926,
2,0,0,1,0,42570,0.128849,0.128553,-20.989,22,0.013703,10,-0.0026982,-1.67801,-0.210362,-0.280469,230.43,0.1285533,
2,0,0,1,0,42570,0.126441,0.126177,-21.56,22,0.0136178,10,-0.00272037,-1.66635,-0.202908,-0.290772,245.179,0.126177,
2,0,0,1,0,42570.1,0.124044,0.12376,-22.1762,22,0.0135303,10,-0.00274454,-1.65411,-0.197776,-0.298317,258.529,0.12376,
2,0,0,1,0,42570.1,0.121647,0.121339,-22.8022,22,0.0134403,10,-0.0027668,-1.64202,-0.196035,-0.300967,268.162,0.121339,
2,0,0,1,0,42570.1,0.119241,0.118961,-23.4689,22,0.0133477,10,-0.00279188,-1.62951,-0.194417,-0.303472,278.141,0.118961,
2,0,0,1,0,42570.1,0.116844,0.116519,-24.1499,22,0.0132524,10,-0.00281392,-1.61708,-0.194192,-0.303824,286.368,0.116519,
2,0,0,1,0,42570.1,0.114447,0.114171,-24.8434,22,0.0131543,10,-0.0028364,-1.60479,-0.196985,-0.299515,290.367,0.114171,
2,0,0,1,0,42570.1,0.11205,0.111735,-25.5525,22,0.0130535,10,-0.00285511,-1.59257,-0.20058,-0.294147,293.107,0.111735,
2,0,0,1,0,42570.1,0.109642,0.109331,-26.265,22,0.0129498,10,-0.00287159,-1.58062,-0.20436,-0.288706,295.665,0.1093313,
2,0,0,1,0,42570.1,0.107245,0.106906,-26.9674,22,0.0128432,10,-0.00288298,-1.56916,-0.208166,-0.283427,298.216,0.106906,
2,0,0,1,0,42570.1,0.104848,0.104543,-27.6902,22,0.0127339,10,-0.0028948,-1.55767,-0.213991,-0.275712,297.647,0.104543,
2,0,0,1,0,42570.1,0.10244,0.102123,-28.4191,22,0.0126216,10,-0.00290223,-1.54639,-0.224711,-0.262559,290.311,0.102123,
2,0,0,1,0,42570.1,0.100042,0.0997813,-29.1075,22,0.0125064,10,-0.00290439,-1.53599,-0.233208,-0.252993,286.713,0.0997813,
2,0,0,1,0,42570.1,0.0976454,0.0973519,-29.7411,22,0.0123886,10,-0.00289536,-1.52664,-0.242546,-0.243253,282.419,0.0973519,
2,0,0,1,0,42570.1,0.0952427,0.0949872,-30.4298,22,0.0122682,10,-0.00289045,-1.5167,-0.250477,-0.235551,279.752,0.0949872,
2,0,0,1,0,42570.1,0.0928428,0.0925599,-31.1198,22,0.0121451,10,-0.00288045,-1.50696,-0.256536,-0.229987,278.738,0.0925599,
2,0,0,1,0,42570.1,0.0904457,0.090174,-31.7952,22,0.0120192,10,-0.0028671,-1.49764,-0.270605,-0.21803,269.858,0.090174,
2,0,0,1,0,42570.1,0.0880486,0.0877891,-32.4066,22,0.0118907,10,-0.00284495,-1.48937,-0.284938,-0.207063,261.455,0.0877891,
2,0,0,1,0,42570.1,0.0856404,0.0853354,-33.0345,22,0.0117598,10,-0.00281901,-1.48103,-0.306968,-0.192202,247.32,0.0853354,
2,0,0,1,0,42570.1,0.0832433,0.082994,-33.6209,22,0.0116264,10,-0.00279033,-1.47339,-0.319177,-0.184851,242.091,0.082994,
2,0,0,1,0,42570.1,0.0808462,0.0805466,-34.1763,22,0.0114908,10,-0.00275278,-1.46628,-0.341363,-0.172837,230.195,0.0805466,
2,0,0,1,0,42570.1,0.0784408,0.078167,-34.7361,22,0.0113529,10,-0.00271521,-1.45922,-0.365883,-0.161254,218.104,0.078167,
2,0,0,1,0,42570.1,0.0760437,0.0757408,-35.2431,22,0.0112129,10,-0.00266934,-1.45293,-0.38849,-0.15187,208.409,0.0757408,
2,0,0,1,0,42570.1,0.0736466,0.0733973,-35.7139,22,0.0110709,10,-0.00262131,-1.44716,-0.422263,-0.139723,194.461,0.0733973,
2,0,0,1,0,42570.1,0.0712495,0.0709913,-36.1677,22,0.0109271,10,-0.00256759,-1.44168,-0.448971,-0.131411,185.247,0.0709913,
2,0,0,1,0,42570.1,0.0688413,0.068565,-36.6033,22,0.0107815,10,-0.00250971,-1.43648,-0.480902,-0.122686,175.009,0.068565,
2,0,0,1,0,42570.1,0.0664442,0.0661887,-37.0126,22,0.0106342,10,-0.00244981,-1.43165,-0.517428,-0.114026,164.446,0.0661887,
2,0,0,1,0,42570.2,0.0640471,0.063754,-37.4016,22,0.0104853,10,-0.0023845,-1.42711,-0.562508,-0.104887,152.828,0.063754,
2,0,0,1,0,42570.2,0.0616389,0.0613638,-37.7509,22,0.010335,10,-0.00231654,-1.42307,-0.615434,-0.0958674,141.012,0.06136382,
2,0,0,1,0,42570.2,0.0592417,0.058926,-38.0764,22,0.0101833,10,-0.00224369,-1.41934,-0.677036,-0.0871445,129.308,0.058926,
2,0,0,1,0,42570.2,0.0568446,0.0565294,-38.3747,22,0.0100304,10,-0.0021693,-1.41596,-0.737897,-0.0799569,119.593,0.0565294,
2,0,0,1,0,42570.2,0.0544475,0.0541234,-38.6469,22,0.0098763,10,-0.0020917,-1.41289,-0.829705,-0.0711096,107.088,0.0541234,
2,0,0,1,0,42570.2,0.0520421,0.0517067,-38.9058,22,0.00972116,10,-0.00201169,-1.40999,-0.923822,-0.0638651,96.8005,0.0517067,
2,0,0,1,0,42570.2,0.049645,0.0493346,-39.1035,22,0.0095651,10,-0.00192916,-1.40778,-1.01621,-0.0580589,88.5302,0.0493346,
2,0,0,1,0,42570.2,0.0472479,0.0469306,-39.3038,22,0.00940827,10,-0.00184455,-1.40557,-1.1667,-0.05057,77.5131,0.04693063,
2,0,0,1,0,42570.2,0.0448397,0.0444991,-39.499,22,0.00925066,10,-0.00175767,-1.40341,-1.27024,-0.0464478,71.5033,0.0444991,
2,0,0,1,0,42570.2,0.0424426,0.042145,-39.6469,22,0.00909237,10,-0.00167092,-1.40179,-1.46262,-0.0403386,62.3474,0.04214501,
2,0,0,1,0,42570.2,0.0400455,0.0397421,-39.7894,22,0.00893348,10,-0.00158132,-1.40023,-1.71944,-0.0343135,53.2359,0.0397421,
2,0,0,1,0,42570.2,0.0376456,0.0372937,-39.9047,22,0.00877408,10,-0.00148819,-1.39898,-1.96683,-0.0299975,46.6786,0.0372937,
2,0,0,1,0,42570.2,0.035243,0.034912,-40.0093,22,0.00861423,10,-0.00139681,-1.39784,-2.35605,-0.025042,39.0696,0.034912,
2,0,0,1,0,42570.2,0.0328459,0.0324784,-40.0982,22,0.00845401,10,-0.00130232,-1.39688,-2.59221,-0.0227605,35.5973,0.0324784,
2,0,0,1,0,42570.2,0.0304488,0.0301391,-40.1646,22,0.00829346,10,-0.00121052,-1.39616,-3.22376,-0.0183016,28.6749,0.0301391,
2,0,0,1,0,42570.2,0.0280406,0.0277256,-40.2453,22,0.00813266,10,-0.00111582,-1.39529,-4.11001,-0.0143552,22.5247,0.0277256,
2,0,0,1,0,42570.2,0.0256435,0.0253238,-40.2843,22,0.00797159,10,-0.00102015,-1.39486,-4.96742,-0.0118774,18.6595,0.0253238,
2,0,0,1,0,42570.2,0.0232463,0.0229294,-40.3133,22,0.00781039,10,-0.000924358,-1.39455,-7.67909,-0.0076832,12.0849,0.0229294,
2,0,0,1,0,42570.2,0.0208437,0.0204852,-40.3447,22,0.00764909,10,-0.000826468,-1.39421,-11.3267,-0.00520895,8.19735,0.0204852,
2,0,0,1,0,42570.2,0.018441,0.0181618,-40.3608,22,0.00748767,10,-0.000733026,-1.39404,-25.0873,-0.00235179,3.7017,0.0181618,
2,0,0,1,0,42570.2,0.0160439,0.0157154,-40.363,22,0.00732623,10,-0.000634323,-1.39402,45.1358,0.00130717,-2.05767,0.0157154,
2,0,0,1,0,42570.2,0.0136468,0.0132988,-40.3489,22,0.00716482,10,-0.000536591,-1.39417,13.9777,0.00422099,-6.64346,0.0132988,
2,0,0,1,0,42570.2,0.0112414,0.0108853,-40.325,22,0.00700345,10,-0.000438949,-1.39443,9.08826,0.00649189,-10.2138,0.0108853,
2,0,0,1,0,42570.2,0.00884431,0.00853013,-40.2969,22,0.0068422,10,-0.000343737,-1.39473,6.48663,0.00909563,-14.2985,0.00853013,
2,0,0,1,0,42570.2,0.0064472,0.00609438,-40.2648,22,0.00668107,10,-0.000245389,-1.39507,6.95283,0.00848575,-13.3333,0.00609438,
2,0,0,1,0,42570.3,0.00404455,0.00372331,-40.212,22,0.00652015,10,-0.000149722,-1.39564,4.57888,0.0128853,-20.2152,0.00372331,
2,0,0,1,0,42570.3,0.0016419,0.0012971,-40.1971,22,0.00635939,10,-5.21397e-05,-1.3958,3.46199,0.0170422,-26.6949,0.0012971,
2,0,0,1,0,42570.3,-0.000755208,-0.00109412,-40.1023,22,0.00619881,10,4.38767e-05,-1.39683,2.974,0.0198386,-31.0176,-0.00109412,
2,0,0,1,0,42570.3,-0.00315231,-0.00350867,-40.0084,22,0.00603861,10,0.000140376,-1.39785,2.18767,0.0269694,-42.0953,-0.00350867,
2,0,0,1,0,42570.3,-0.00555774,-0.00593382,-39.9124,22,0.00587876,10,0.000236833,-1.39889,2.01757,0.029243,-45.5166,-0.00593382,
2,0,0,1,0,42570.3,-0.00795485,-0.00832079,-39.7923,22,0.00571935,10,0.000331103,-1.4002,1.86207,0.0316852,-49.1804,-0.00832079,
2,0,0,1,0,42570.3,-0.010352,-0.010729,-39.6638,22,0.00556046,10,0.000425552,-1.40161,1.65929,0.0355574,-55.0184,-0.010729,
2,0,0,1,0,42570.3,-0.0127546,-0.0131234,-39.5356,22,0.00540208,10,0.00051884,-1.40301,1.55528,0.0379354,-58.4952,-0.0131234,
2,0,0,1,0,42570.3,-0.0151573,-0.0155475,-39.3835,22,0.00524426,10,0.000612314,-1.40469,1.43353,0.0411572,-63.2216,-0.0155475,
2,0,0,1,0,42570.3,-0.0175544,-0.0179334,-39.23,22,0.00508705,10,0.000703526,-1.40638,1.34788,0.0437725,-66.985,-0.0179334,
2,0,0,1,0,42570.3,-0.0199515,-0.0203098,-39.058,22,0.00493049,10,0.000793259,-1.40829,1.2753,0.0462635,-70.4977,-0.0203098,
2,0,0,1,0,42570.3,-0.0223597,-0.0227763,-38.889,22,0.0047746,10,0.000885745,-1.41017,1.20246,0.0490662,-74.435,-0.0227763,
2,0,0,1,0,42570.3,-0.0247568,-0.0251039,-38.7098,22,0.00461942,10,0.000971765,-1.41218,1.19746,0.0492708,-74.4145,-0.0251039,
2,0,0,1,0,42570.3,-0.0271539,-0.0275354,-38.5153,22,0.004465,10,0.00106053,-1.41437,1.15975,0.0508731,-76.4806,-0.0275354,
2,0,0,1,0,42570.3,-0.0295593,-0.0299192,-38.343,22,0.00431131,10,0.00114719,-1.41631,1.1105,0.0531295,-79.469,-0.0299192,
2,0,0,1,0,42570.3,-0.0319564,-0.0323645,-38.1557,22,0.00415834,10,0.00123489,-1.41844,1.11499,0.0529154,-78.7558,-0.0323645,
2,0,0,1,0,42570.3,-0.0343535,-0.0347196,-37.9457,22,0.00400617,10,0.00131746,-1.42084,1.1087,0.0532156,-78.8431,-0.03471962,
2,0,0,1,0,42570.3,-0.0367506,-0.037131,-37.7595,22,0.00385479,10,0.00140205,-1.42297,1.09202,0.0540286,-79.6459,-0.037131,
2,0,0,1,0,42570.3,-0.0391588,-0.0395243,-37.5857,22,0.00370411,10,0.00148555,-1.42498,1.14147,0.0516876,-75.8074,-0.0395243,
2,0,0,1,0,42570.3,-0.0415559,-0.0419527,-37.392,22,0.00355418,10,0.00156869,-1.42722,1.1429,0.0516229,-75.3412,-0.0419527,
2,0,0,1,0,42570.3,-0.043953,-0.0443259,-37.2174,22,0.00340499,10,0.00164969,-1.42925,1.14859,0.0513673,-74.6281,-0.0443259,
2,0,0,1,0,42570.3,-0.0463585,-0.0467478,-37.035,22,0.0032565,10,0.00173131,-1.43139,1.19178,0.0495058,-71.579,-0.0467478,
2,0,0,1,0,42570.3,-0.0487556,-0.0491199,-36.8696,22,0.00310871,10,0.00181103,-1.43333,1.22553,0.0481425,-69.2983,-0.0491199,
2,0,0,1,0,42570.3,-0.0511527,-0.0515334,-36.7062,22,0.00296158,10,0.0018916,-1.43526,1.32478,0.0445358,-63.8368,-0.0515334,
2,0,0,1,0,42570.3,-0.0535498,-0.0539395,-36.5512,22,0.00281509,10,0.00197155,-1.4371,1.37286,0.042976,-61.3417,-0.0539395,
2,0,0,1,0,42570.4,-0.055958,-0.0563381,-36.4228,22,0.00266914,10,0.00205199,-1.43863,1.43969,0.0409811,-58.2589,-0.0563381,
2,0,0,1,0,42570.4,-0.0583551,-0.0587484,-36.2789,22,0.00252377,10,0.00213133,-1.44035,1.62861,0.0362271,-51.3274,-0.0587484,
2,0,0,1,0,42570.4,-0.0607522,-0.0611195,-36.1477,22,0.00237895,10,0.00220933,-1.44192,1.64906,0.0357779,-50.5183,-0.0611195,
2,0,0,1,0,42570.4,-0.0631604,-0.0635616,-36.0573,22,0.00223456,10,0.00229186,-1.44301,1.86803,0.0315842,-44.4551,-0.0635616,
2,0,0,1,0,42570.4,-0.0655575,-0.0659242,-35.9385,22,0.00209059,10,0.00236922,-1.44444,2.09583,0.0281512,-39.5045,-0.06592422,
2,0,0,1,0,42570.4,-0.0679546,-0.068343,-35.8524,22,0.00194703,10,0.00245026,-1.44548,2.13948,0.0275768,-38.6062,-0.068343,
2,0,0,1,0,42570.4,-0.0703573,-0.0707448,-35.7675,22,0.00180382,10,0.00253037,-1.44651,2.5043,0.0235595,-32.8985,-0.0707448,
2,0,0,1,0,42570.4,-0.0727571,-0.0731774,-35.6861,22,0.00166092,10,0.00261142,-1.4475,2.74774,0.0214722,-29.9242,-0.0731774,
2,0,0,1,0,42570.4,-0.0751542,-0.0755156,-35.623,22,0.00151831,10,0.00269009,-1.44827,3.4778,0.0169647,-23.6058,-0.0755156,
2,0,0,1,0,42570.4,-0.0775514,-0.0778888,-35.5668,22,0.00137592,10,0.00277025,-1.44896,4.23873,0.0139192,-19.3353,-0.0778888,
2,0,0,1,0,42570.4,-0.0799595,-0.0803532,-35.5407,22,0.00123372,10,0.00285581,-1.44927,5.09584,0.0115781,-16.0614,-0.0803532,
2,0,0,1,0,42570.4,-0.0823567,-0.0827444,-35.5011,22,0.00109165,10,0.00293752,-1.44976,8.57235,0.0068826,-9.54109,-0.0827444,
2,0,0,1,0,42570.4,-0.0847538,-0.085178,-35.4678,22,0.00094972,10,0.00302108,-1.45017,10.888,0.00541883,-7.50852,-0.085178,
2,0,0,1,0,42570.4,-0.0871592,-0.087529,-35.4748,22,0.000807867,10,0.00310507,-1.45008,27.0385,0.00218207,-3.02202,-0.087529,
2,0,0,1,0,42570.4,-0.0895563,-0.0899446,-35.4687,22,0.000665981,10,0.00319021,-1.45016,-92.1895,-0.000639986,0.885972,-0.0899446,
2,0,0,1,0,42570.4,-0.0919534,-0.0923549,-35.4721,22,0.000524115,10,0.00327602,-1.45011,-23.4088,-0.00252042,3.49111,-0.0923549,
2,0,0,1,0,42570.4,-0.0943505,-0.0947132,-35.4762,22,0.000382229,10,0.00336007,-1.45006,-11.4145,-0.00516887,7.16184,-0.0947132,
2,0,0,1,0,42570.4,-0.0967587,-0.0971861,-35.5085,22,0.000240257,10,0.00345093,-1.44967,-8.46171,-0.00697259,9.66292,-0.0971861,
2,0,0,1,0,42570.4,-0.0991558,-0.0995466,-35.5374,22,9.81708e-05,10,0.00353763,-1.44931,3.85441,0.0153071,-21.1572,-0.0995466,
2,0,0,1,0,42570.4,-0.0999548,-0.100209,-35.548,22,5.19676e-05,10,0.00356224,-1.44918,0.0219116,2.69264,-3500.7,-0.100209,
2,0,0,1,1,42570.4,-0.0999548,-0.1004,-35.3559,22,3.07276e-05,10,0.00354974,-1.45154,-0.0321708,-1.83396,2244.15,-0.1004,
2,0,0,1,1,42570.4,-0.0979573,-0.098414,-31.2098,22,-7.07456e-05,10,0.00307148,-1.50571,-0.0405176,-1.45616,1684.22,-0.098414,
2,0,0,1,1,42570.4,-0.0955546,-0.0959709,-27.513,22,-0.000187612,10,0.00264045,-1.56046,-0.043579,-1.35386,1478.42,-0.0959709,
2,0,0,1,1,42570.4,-0.0931519,-0.0936019,-24.4197,22,-0.000291051,10,0.00228573,-1.61226,-0.0461461,-1.27855,1235.75,-0.0936019,
2,0,0,1,1,42570.4,-0.0907548,-0.0911704,-21.7104,22,-0.000382963,10,0.00197935,-1.66333,-0.0460346,-1.28165,1092.86,-0.0911704,
2,0,0,1,1,42570.4,-0.0883578,-0.0887569,-19.276,22,-0.000464644,10,0.00171088,-1.71498,-0.0450274,-1.31031,987.199,-0.0887569,
2,0,0,1,1,42570.5,-0.0859523,-0.086371,-17.0217,22,-0.000536972,10,0.00147018,-1.769,-0.0432747,-1.36338,904.525,-0.086371,
2,0,0,1,1,42570.5,-0.0835552,-0.084019,-14.9595,22,-0.00060069,10,0.00125688,-1.82508,-0.0405361,-1.45549,844.844,-0.084019,
2,0,0,1,1,42570.5,-0.0811581,-0.0815684,-13.0252,22,-0.000656422,10,0.00106244,-1.88522,-0.0379461,-1.55484,782.672,-0.0815684,
2,0,0,1,1,42570.5,-0.0787555,-0.0791952,-11.1979,22,-0.000704654,10,0.00088682,-1.95086,-0.0348031,-1.69525,731.003,-0.0791952,
2,0,0,1,1,42570.5,-0.0763528,-0.0767626,-9.5015,22,-0.00074586,10,0.00072936,-2.02221,-0.0308103,-1.91494,695.025,-0.0767626,
2,0,0,1,1,42570.5,-0.0739557,-0.0743449,-7.88771,22,-0.00078046,10,0.000586411,-2.10305,-0.0267833,-2.20286,655.101,-0.0743449,
2,0,0,1,1,42570.5,-0.0715586,-0.0719834,-6.36335,22,-0.000808786,10,0.000458056,-2.19631,-0.0222988,-2.64588,622.6,-0.0719834,
2,0,0,1,1,42570.5,-0.0691532,-0.0695816,-4.89999,22,-0.000831161,10,0.000340949,-2.30981,-0.0174599,-3.37917,590.966,-0.0695816,
2,0,0,1,1,42570.5,-0.066756,-0.0671681,-3.52792,22,-0.000847874,10,0.000236964,-2.45248,-0.011742,-5.02468,563.367,-0.0671681,
2,0,0,1,1,42570.5,-0.0643589,-0.0647769,-2.23332,22,-0.000859233,10,0.000144667,-2.65105,-0.00711338,-8.29423,534.92,-0.06477686,
2,0,0,1,1,42570.5,-0.0619563,-0.0624196,-0.975422,22,-0.000865521,10,6.08854e-05,-3.01081,-0.0231481,-2.54881,509.639,-0.0624196,
2,0,0,1,1,42570.5,-0.0595536,-0.0600082,0.220989,22,-0.000866884,10,-1.32612e-05,-3.65563,0.230341,0.256142,489.946,-0.0600082,
2,1,0,1,1,42570.5,-0.0571565,-0.0575788,1.35913,22,-0.000863595,10,-7.82573e-05,-2.86674,0.0173601,3.3986,464.607,-0.0575788,
2,1,0,1,1,42570.5,-0.0547594,-0.0552024,2.45763,22,-0.000855833,10,-0.000135667,-2.60948,0.00734868,8.02865,443.785,-0.0552024,
2,1,0,1,1,42570.5,-0.0523512,-0.0527858,3.50051,22,-0.000843789,10,-0.000184777,-2.45587,0.0159379,3.70187,425.565,-0.0527858,
2,1,0,1,1,42570.5,-0.0499541,-0.0504009,4.48456,22,-0.000827717,10,-0.000226026,-2.34828,0.0232424,2.53847,407.113,-0.0504009,
2,1,0,1,1,42570.5,-0.047557,-0.0479662,5.44991,22,-0.000807738,10,-0.000261412,-2.26361,0.030224,1.95209,392.85,-0.0479662,
2,1,0,1,1,42570.5,-0.0451544,-0.0455824,6.37407,22,-0.00078398,10,-0.000290545,-2.19558,0.0372947,1.582,377.886,-0.0455824,
2,1,0,1,1,42570.5,-0.0427545,-0.0431976,7.26723,22,-0.000756596,10,-0.000313927,-2.13863,0.0446937,1.3201,362.869,-0.0431976,
2,1,0,1,1,42570.5,-0.0403574,-0.0407989,8.11301,22,-0.000725746,10,-0.000331002,-2.09082,0.0521777,1.13075,350.034,-0.04079894,
2,1,0,1,1,42570.5,-0.0379603,-0.0384014,8.9207,22,-0.000691587,10,-0.000342567,-2.0496,0.0604404,0.976167,334.351,-0.0384014,
2,1,0,1,1,42570.5,-0.0355521,-0.0360091,9.72507,22,-0.000654193,10,-0.000350191,-2.01211,0.0684383,0.86209,322.111,-0.0360091,
2,1,0,1,1,42570.5,-0.033155,-0.033585,10.4812,22,-0.000613703,10,-0.000352011,-1.97959,0.0770689,0.765549,308.882,-0.03358499,
2,1,0,1,1,42570.5,-0.0307579,-0.0312139,11.2005,22,-0.00057027,10,-0.00034961,-1.95076,0.0871682,0.676852,292.665,-0.0312139,
2,1,0,1,1,42570.5,-0.0283524,-0.0287591,11.899,22,-0.00052401,10,-0.000342205,-1.92449,0.0956147,0.61706,283.908,-0.0287591,
2,1,0,1,1,42570.6,-0.0259553,-0.0263435,12.5539,22,-0.000475016,10,-0.000330712,-1.90122,0.105499,0.559246,272.06,-0.0263435,
2,1,0,1,1,42570.6,-0.0235582,-0.0240021,13.2019,22,-0.000423443,10,-0.000316872,-1.87936,0.115136,0.512439,262.305,-0.0240021,
2,1,0,1,1,42570.6,-0.0211611,-0.0215791,13.8217,22,-0.00036933,10,-0.00029826,-1.85944,0.125341,0.470717,252.198,-0.0215791,
2,1,0,1,1,42570.6,-0.0187529,-0.0191741,14.4132,22,-0.000312788,10,-0.00027636,-1.84124,0.138517,0.42594,238.102,-0.0191741,
2,1,0,1,1,42570.6,-0.0163558,-0.0167478,14.9739,22,-0.000253965,10,-0.00025078,-1.82467,0.149334,0.395087,229.709,-0.0167478,
2,1,0,1,1,42570.6,-0.0139587,-0.0143206,15.5071,22,-0.000192947,10,-0.00022207,-1.80947,0.16123,0.365938,220.66,-0.0143206,
2,1,0,1,1,42570.6,-0.0115505,-0.0119728,16.0284,22,-0.000129829,10,-0.000191905,-1.79511,0.173879,0.339317,211.458,-0.0119728,
2,1,0,1,1,42570.6,-0.0091534,-0.00954875,16.5371,22,-6.46387e-05,10,-0.000157909,-1.78154,0.185983,0.317233,203.838,-0.00954875,
2,1,0,1,1,42570.6,-0.00675629,-0.0071395,17.0056,22,2.49774e-06,10,-0.000121412,-1.76941,0.201041,0.293473,194.092,-0.0071395,
2,1,0,1,1,42570.6,-0.00435919,-0.00473874,17.4602,22,7.14734e-05,10,-8.27393e-05,-1.75795,0.222609,0.265039,179.354,-0.00473874,
2,1,0,1,1,42570.6,-0.00195376,-0.00233586,17.8988,22,0.000142258,10,-4.18091e-05,-1.74718, , , ,-0.00233586,
2,1,0,0,1,42570.6,-7.54729e-05,-0.000458935,18.1674,22,0.000198232,10,-8.33767e-06,-1.74071, , , ,-0.000458935,