File: Figure_codes/Fig_3-5/rawdata_trumpetplot_data/after 10th/20221101_1-115_003_TrumpetPlot_ParaChange_from10_every3_11_CV_C01_14.csv
mode,ox/red,error,control changes,counter inc.,time/s,control/V,Ewe/V,<I>/mA,cycle number,(Q-Qo)/C,I Range,P/W,log(|I|),Tafel slope mV/dec,alpha_eff,dI/d(E-IR),E-IR/V,
2,1,0,1,0,28776.3,2.44065e-05,-0.000363498,9.48433,15,0.0000000E+000,10,-3.44754e-06,-2.02299, , , ,-0.000363498,
2,1,0,1,0,28776.4,0.00214129,0.00176898,10.5707,15,5.16665e-05,10,1.86994e-05,-1.97589, , , ,0.00176898,
2,1,0,1,0,28776.4,0.00454949,0.00422382,11.4473,15,0.000117947,10,4.83512e-05,-1.9413,0.0790842,0.74604,327.308,0.00422382,
2,1,0,1,0,28776.4,0.0069466,0.0066267,12.1189,15,0.000188746,10,8.03082e-05,-1.91654,0.102537,0.575403,270.067,0.0066267,
2,1,0,1,0,28776.4,0.0093437,0.00897444,12.7308,15,0.000263398,10,0.000114252,-1.89514,0.121451,0.485793,239.872,0.00897444,
2,1,0,1,0,28776.4,0.0117408,0.0113784,13.2702,15,0.000341477,10,0.000150994,-1.87712,0.142634,0.413647,213.313,0.0113784,
2,1,0,1,0,28776.4,0.0141462,0.0138194,13.7559,15,0.00042262,10,0.000190098,-1.86151,0.161068,0.366305,196.012,0.0138194,
2,1,0,1,0,28776.4,0.0165433,0.0162234,14.2065,15,0.000506569,10,0.000230478,-1.84751,0.180019,0.327744,181.168,0.01622338,
2,1,0,1,0,28776.4,0.0189404,0.0186125,14.6086,15,0.000593096,10,0.000271901,-1.83539,0.203297,0.290216,165.159,0.0186125,
2,1,0,1,0,28776.4,0.0213486,0.0210143,14.9996,15,0.000681991,10,0.000315206,-1.82392,0.22551,0.26163,152.873,0.0210143,
2,1,0,1,0,28776.4,0.0237457,0.0234225,15.3514,15,0.000773095,10,0.000359568,-1.81385,0.243447,0.242352,145.007,0.02342248,
2,1,0,1,0,28776.4,0.0261429,0.0258116,15.6863,15,0.000866253,10,0.000404889,-1.80448,0.266578,0.221324,135.385,0.0258116,
2,1,0,1,0,28776.4,0.02854,0.0282081,16.0045,15,0.000961375,10,0.000451458,-1.79576,0.282544,0.208817,130.28,0.0282081,
2,1,0,1,0,28776.4,0.0309482,0.0306099,16.3149,15,0.00105838,10,0.000499399,-1.78741,0.301499,0.195689,124.458,0.0306099,
2,1,0,1,0,28776.4,0.0333453,0.032964,16.604,15,0.00115715,10,0.000547333,-1.77979,0.32284,0.182753,118.328,0.032964,
2,1,0,1,0,28776.4,0.0357424,0.035387,16.888,15,0.00125764,10,0.000597617,-1.77242,0.337695,0.174714,115.019,0.035387,
2,1,0,1,0,28776.4,0.0381478,0.0377984,17.1521,15,0.00135979,10,0.000648322,-1.76568,0.354669,0.166352,111.354,0.0377984,
2,1,0,1,0,28776.4,0.0405449,0.0401864,17.4198,15,0.00146352,10,0.000700041,-1.75896,0.365382,0.161475,109.761,0.0401864,
2,1,0,1,0,28776.5,0.042942,0.0426233,17.6861,15,0.00156889,10,0.000753839,-1.75237,0.37451,0.157539,108.66,0.0426233,
2,1,0,1,0,28776.5,0.0453391,0.0450261,17.9293,15,0.00167577,10,0.000807288,-1.74644,0.39227,0.150407,105.288,0.0450261,
2,1,0,1,0,28776.5,0.0477473,0.0474078,18.1919,15,0.00178419,10,0.00086244,-1.74012,0.389509,0.151473,107.495,0.0474078,
2,1,0,1,0,28776.5,0.0501444,0.0498001,18.4507,15,0.00189415,10,0.000918848,-1.73399,0.406839,0.145021,104.376,0.04980009,
2,1,0,1,0,28776.5,0.0525415,0.0521669,18.6966,15,0.00200561,10,0.000975345,-1.72824,0.414723,0.142264,103.835,0.05216692,
2,1,0,1,0,28776.5,0.0549469,0.0546175,18.9581,15,0.00211859,10,0.00103545,-1.7222,0.417672,0.141259,104.483,0.0546175,
2,1,0,1,0,28776.5,0.057344,0.0570215,19.2084,15,0.0022331,10,0.00109529,-1.71651,0.419033,0.1408,105.535,0.0570215,
2,1,0,1,0,28776.5,0.0597411,0.0594116,19.466,15,0.00234915,10,0.00115651,-1.71072,0.419119,0.140772,106.932,0.0594116,
2,1,0,1,0,28776.5,0.0621438,0.061806,19.7143,15,0.00246671,10,0.00121846,-1.70522,0.425507,0.138658,106.709,0.061806,
2,1,0,1,0,28776.5,0.0645465,0.0642099,19.9736,15,0.00258581,10,0.0012825,-1.69954,0.421787,0.139881,109.054,0.0642099,
2,1,0,1,0,28776.5,0.0669436,0.0665853,20.2386,15,0.00270649,10,0.00134759,-1.69382,0.438158,0.134655,106.277,0.0665853,
2,1,0,1,0,28776.5,0.0693407,0.0689691,20.4874,15,0.0028287,10,0.001413,-1.68851,0.436151,0.135274,108.223,0.0689691,
2,1,0,1,0,28776.5,0.0717489,0.0713794,20.7551,15,0.00295244,10,0.00148148,-1.68288,0.438225,0.134634,109.057,0.0713794,
2,1,0,1,0,28776.5,0.074146,0.0737367,21.0224,15,0.0030778,10,0.00155012,-1.67732,0.442272,0.133402,109.413,0.0737367,
2,1,0,1,0,28776.5,0.0765431,0.0762063,21.2804,15,0.00320474,10,0.0016217,-1.67202,0.435938,0.13534,112.436,0.0762063,
2,1,0,1,0,28776.5,0.0789485,0.078588,21.5652,15,0.00333326,10,0.00169476,-1.66625,0.43827,0.13462,113.281,0.078588,
2,1,0,1,0,28776.5,0.0813456,0.0810089,21.8371,15,0.00346349,10,0.001769,-1.66081,0.44757,0.131823,112.258,0.0810089,
2,1,0,1,0,28776.6,0.0837427,0.0833991,22.1017,15,0.00359533,10,0.00184326,-1.65557,0.457155,0.129059,111.295,0.0833991,
2,1,0,1,0,28776.6,0.0861398,0.0858285,22.3583,15,0.00372873,10,0.00191898,-1.65056,0.464341,0.127062,110.891,0.0858285,
2,1,0,1,0,28776.6,0.088548,0.0881974,22.6304,15,0.00386375,10,0.00199594,-1.64531,0.466621,0.126441,111.638,0.0881974,
2,1,0,1,0,28776.6,0.0909451,0.090577,22.8984,15,0.00400036,10,0.00207407,-1.6402,0.487533,0.121017,108.09,0.090577,
2,1,0,1,0,28776.6,0.0933422,0.0929735,23.1455,15,0.00413854,10,0.00215192,-1.63553,0.488263,0.120836,109.201,0.0929735,
2,1,0,1,0,28776.6,0.0957477,0.0953668,23.4067,15,0.00427819,10,0.00223222,-1.63066,0.481725,0.122477,111.965,0.0953668,
2,1,0,1,0,28776.6,0.0981447,0.0977856,23.6854,15,0.00441952,10,0.00231609,-1.62552,0.478562,0.123286,113.909,0.0977856,
2,1,0,1,0,28776.6,0.100542,0.100238,23.957,15,0.00456249,10,0.00240141,-1.62057,0.494795,0.119241,111.456,0.100238,
2,1,0,1,0,28776.6,0.102939,0.102585,24.2158,15,0.00470702,10,0.00248418,-1.6159,0.500226,0.117947,111.5,0.102585,
2,1,0,1,0,28776.6,0.105347,0.105047,24.494,15,0.00485319,10,0.00257303,-1.61094,0.520221,0.113413,108.328,0.105047,
2,1,0,1,0,28776.6,0.107744,0.107429,24.7495,15,0.00500095,10,0.00265881,-1.60643,0.527988,0.111745,107.916,0.107429,
2,1,0,1,0,28776.6,0.110141,0.109766,25.0046,15,0.00515022,10,0.00274466,-1.60198,0.521891,0.11305,110.368,0.109766,
2,1,0,1,0,28776.6,0.11255,0.112174,25.2824,15,0.00530109,10,0.00283604,-1.59718,0.516209,0.114295,112.756,0.112174,
2,1,0,1,0,28776.6,0.114947,0.114593,25.5452,15,0.0054536,10,0.00292731,-1.59269,0.511826,0.115274,114.952,0.114593,
2,1,0,1,0,28776.6,0.117344,0.116987,25.823,15,0.00560773,10,0.00302096,-1.58799,0.507284,0.116306,117.274,0.116987,
2,1,0,1,0,28776.6,0.119744,0.119402,26.1083,15,0.00576357,10,0.00311738,-1.58322,0.490567,0.120269,122.6,0.119402,
2,1,0,1,0,28776.7,0.122146,0.121793,26.4128,15,0.00592118,10,0.0032169,-1.57819,0.48215,0.122368,126.149,0.121793,
2,1,0,1,0,28776.7,0.124543,0.124202,26.7151,15,0.00608062,10,0.00331808,-1.57324,0.483232,0.122094,127.31,0.124202,
2,1,0,1,0,28776.7,0.126941,0.126581,27.0258,15,0.00624189,10,0.00342095,-1.56822,0.462867,0.127466,134.551,0.126581,
2,1,0,1,0,28776.7,0.129349,0.129026,27.3711,15,0.00640508,10,0.00353159,-1.56271,0.454388,0.129845,138.684,0.129026,
2,1,0,1,0,28776.7,0.131746,0.131427,27.7056,15,0.00657033,10,0.00364126,-1.55743,0.4512,0.130763,141.35,0.131427,
2,1,0,1,0,28776.7,0.134143,0.133787,28.0346,15,0.00673757,10,0.00375068,-1.55231,0.448521,0.131543,144.009,0.133787,
2,1,0,1,0,28776.7,0.13654,0.136195,28.3899,15,0.00690687,10,0.00386655,-1.54684,0.44072,0.133872,148.337,0.136195,
2,1,0,1,0,28776.7,0.138945,0.138653,28.7531,15,0.00707836,10,0.00398669,-1.54132,0.439941,0.134109,150.438,0.138653,
2,1,0,1,0,28776.7,0.141343,0.141012,29.0983,15,0.00725195,10,0.00410321,-1.53613,0.45479,0.12973,147.364,0.141012,
2,1,0,1,0,28776.7,0.14374,0.143415,29.4575,15,0.00742767,10,0.00422464,-1.5308,0.453506,0.130098,149.565,0.1434149,
2,1,0,1,0,28776.7,0.146148,0.145834,29.8258,15,0.00760558,10,0.0043496,-1.52541,0.465562,0.126728,147.423,0.145834,
2,1,0,1,0,28776.7,0.148545,0.148163,30.1668,15,0.0077856,10,0.00446961,-1.52047,0.492225,0.119864,141.094,0.148163,
2,1,0,1,0,28776.7,0.150942,0.150591,30.5071,15,0.00796765,10,0.00459408,-1.5156,0.501876,0.117559,139.951,0.150591,
2,1,0,1,0,28776.7,0.153345,0.153014,30.838,15,0.00815171,10,0.00471863,-1.51091,0.511675,0.115308,138.739,0.153014,
2,1,0,1,0,28776.7,0.155747,0.155448,31.1739,15,0.00833778,10,0.00484593,-1.50621,0.541015,0.109054,132.547,0.155448,
2,1,0,1,0,28776.7,0.158144,0.157764,31.4665,15,0.00852574,10,0.00496429,-1.50215,0.579167,0.10187,125.068,0.1577643,
2,1,0,1,0,28776.7,0.160542,0.160209,31.7582,15,0.00871544,10,0.00508794,-1.49814,0.618751,0.0953533,118.152,0.160209,
2,1,0,1,0,28776.8,0.162947,0.162608,32.0482,15,0.00890692,10,0.0052113,-1.4942,0.678669,0.0869349,108.59,0.162608,
2,1,0,1,0,28776.8,0.165344,0.164972,32.2776,15,0.00909995,10,0.0053249,-1.4911,0.778574,0.0757796,95.422,0.164972,
2,1,0,1,0,28776.8,0.167741,0.167428,32.4992,15,0.00929431,10,0.00544127,-1.48813,0.869155,0.067882,86.0533,0.167428,
2,1,0,1,0,28776.8,0.170149,0.169811,32.7112,15,0.00948997,10,0.00555471,-1.4853,1.07581,0.0548424,69.8829,0.169811,
2,1,0,1,0,28776.8,0.172547,0.172231,32.8406,15,0.00968666,10,0.00565619,-1.48359,1.56263,0.0377569,48.3225,0.172231,
2,1,0,1,0,28776.8,0.174944,0.174595,32.9293,15,0.00988399,10,0.0057493,-1.48242,2.71358,0.0217425,27.9089,0.1745951,
2,1,0,1,0,28776.8,0.177341,0.176975,32.9765,15,0.0100817,10,0.005836,-1.4818,20.0852,0.00293748,3.77289,0.176975,
2,1,0,1,0,28776.8,0.179746,0.179401,32.9538,15,0.0102796,10,0.00591194,-1.48209,-3.14042,-0.0187873,-24.1147,0.179401,
2,1,0,1,0,28776.8,0.182143,0.181805,32.8589,15,0.010477,10,0.0059739,-1.48335,-1.41562,-0.041678,-53.35,0.181805,
2,1,0,1,0,28776.8,0.18454,0.184223,32.6977,15,0.0106737,10,0.00602364,-1.48548,-0.9162,-0.0643965,-82.0307,0.184223,
2,1,0,1,0,28776.8,0.186949,0.186596,32.4813,15,0.0108692,10,0.00606088,-1.48837,-0.66545,-0.0886618,-112.114,0.186596,
2,1,0,1,0,28776.8,0.189346,0.189041,32.1606,15,0.0110632,10,0.00607968,-1.49268,-0.511927,-0.115251,-144.35,0.189041,
2,1,0,1,0,28776.8,0.191743,0.191401,31.775,15,0.011255,10,0.00608177,-1.49792,-0.425519,-0.138654,-171.67,0.191401,
2,1,0,1,0,28776.8,0.19414,0.19378,31.324,15,0.0114443,10,0.00606997,-1.50412,-0.35741,-0.165077,-201.395,0.19378,
2,1,0,1,0,28776.8,0.196548,0.196214,30.8154,15,0.0116307,10,0.00604641,-1.51123,-0.311736,-0.189262,-227.106,0.196214,
2,1,0,1,0,28776.8,0.198945,0.198639,30.2271,15,0.0118138,10,0.00600427,-1.5196,-0.273942,-0.215374,-253.742,0.198639,
2,1,0,1,0,28776.8,0.201342,0.201039,29.6052,15,0.0119932,10,0.00595182,-1.52863,-0.252027,-0.234102,-270.045,0.201039,
2,1,0,1,0,28776.9,0.203748,0.203422,28.9387,15,0.0121688,10,0.00588678,-1.53852,-0.232851,-0.253381,-285.797,0.203422,
2,1,0,1,0,28776.9,0.206145,0.205825,28.2293,15,0.0123403,10,0.0058103,-1.5493,-0.221828,-0.265972,-292.948,0.205825,
2,1,0,1,0,28776.9,0.208542,0.208245,27.5354,15,0.0125075,10,0.00573411,-1.56011,-0.21565,-0.273591,-293.778,0.208245,
2,1,0,1,0,28776.9,0.210939,0.21062,26.8081,15,0.0126705,10,0.00564633,-1.57173,-0.208415,-0.283088,-296.123,0.2106203,
2,1,0,1,0,28776.9,0.213347,0.213013,26.0966,15,0.0128291,10,0.0055589,-1.58342,-0.202286,-0.291666,-297.034,0.213013,
2,1,0,1,0,28776.9,0.215744,0.215482,25.3972,15,0.0129836,10,0.00547264,-1.59521,-0.203238,-0.290301,-287.812,0.215482,
2,1,0,1,0,28776.9,0.218141,0.217823,24.7137,15,0.0131338,10,0.00538319,-1.60706,-0.205658,-0.286884,-276.885,0.217823,
2,1,0,1,0,28776.9,0.220547,0.220221,24.0657,15,0.0132801,10,0.00529977,-1.6186,-0.208579,-0.282866,-265.726,0.220221,
2,1,0,1,0,28776.9,0.222944,0.222651,23.4274,15,0.0134225,10,0.00521612,-1.63028,-0.212223,-0.27801,-254.511,0.222651,
2,1,0,1,0,28776.9,0.225341,0.225029,22.8424,15,0.0135612,10,0.00514021,-1.64126,-0.21901,-0.269394,-240.396,0.2250291,
2,1,0,1,0,28776.9,0.227744,0.227416,22.2848,15,0.0136965,10,0.00506792,-1.65199,-0.22513,-0.262071,-228.004,0.227416,
2,1,0,1,0,28776.9,0.230146,0.229807,21.7412,15,0.0138285,10,0.00499628,-1.66272,-0.238629,-0.247246,-210.083,0.229807,
2,1,0,1,0,28776.9,0.232543,0.232187,21.2471,15,0.0139574,10,0.00493331,-1.6727,-0.242772,-0.243026,-201.734,0.232187,
2,1,0,1,0,28776.9,0.234941,0.234636,20.7919,15,0.0140835,10,0.00487853,-1.68211,-0.256625,-0.229907,-186.64,0.234636,
2,1,0,1,0,28776.9,0.237349,0.236996,20.3497,15,0.0142068,10,0.00482278,-1.69144,-0.268283,-0.219917,-174.867,0.236996,
2,1,0,1,0,28776.9,0.239746,0.239445,19.9409,15,0.0143277,10,0.00477476,-1.70026,-0.278775,-0.21164,-164.904,0.239445,
2,1,0,1,0,28777,0.242143,0.241811,19.5636,15,0.0144461,10,0.00473069,-1.70855,-0.296074,-0.199275,-152.298,0.241811,
2,1,0,1,0,28777,0.244548,0.244213,19.2113,15,0.0145624,10,0.00469166,-1.71644,-0.304394,-0.193828,-145.443,0.2442129,
2,1,0,1,0,28777,0.246946,0.246588,18.8782,15,0.0146766,10,0.00465514,-1.72404,-0.326615,-0.180641,-133.228,0.246588,
2,1,0,1,0,28777,0.249343,0.249032,18.5656,15,0.0147889,10,0.00462344,-1.73129,-0.344368,-0.171328,-124.286,0.249032,
2,1,0,1,0,28777,0.25174,0.251407,18.2779,15,0.0148995,10,0.00459518,-1.73807,-0.362647,-0.162693,-116.14,0.2514067,
2,1,0,1,0,28777,0.254148,0.253827,18.0166,15,0.0150083,10,0.00457308,-1.74433,-0.385026,-0.153236,-107.787,0.253827,
2,1,0,1,0,28777,0.256545,0.256233,17.7531,15,0.0151155,10,0.00454893,-1.75072,-0.404582,-0.14583,-101.138,0.256233,
2,1,0,1,0,28777,0.258942,0.258608,17.5271,15,0.0152214,10,0.00453265,-1.75629,-0.422507,-0.139643,-95.4887,0.258608,
2,1,0,1,0,28777,0.261348,0.261075,17.2961,15,0.0153258,10,0.00451559,-1.76205,-0.435844,-0.13537,-91.453,0.261075,
2,1,0,1,0,28777,0.263745,0.263404,17.0812,15,0.0154289,10,0.00449926,-1.76748,-0.459826,-0.128309,-85.613,0.263404,
2,1,0,1,0,28777,0.266142,0.265805,16.8913,15,0.0155308,10,0.00448979,-1.77234,-0.495901,-0.118975,-78.4564,0.265805,
2,1,0,1,0,28777,0.268539,0.268241,16.6953,15,0.0156316,10,0.00447837,-1.7774,-0.503136,-0.117264,-76.4682,0.268241,
2,1,0,1,0,28777,0.270947,0.27062,16.525,15,0.0157312,10,0.00447201,-1.78186,-0.531713,-0.110962,-71.5984,0.2706202,
2,1,0,1,0,28777,0.273344,0.272999,16.3662,15,0.0158299,10,0.00446795,-1.78605,-0.559449,-0.105461,-67.3568,0.272999,
2,1,0,1,0,28777,0.275741,0.27543,16.2025,15,0.0159275,10,0.00446264,-1.79042,-0.587746,-0.100383,-63.5202,0.2754302,
2,1,0,1,0,28777,0.278149,0.277799,16.0586,15,0.0160243,10,0.00446107,-1.79429,-0.618387,-0.0954095,-59.7951,0.277799,
2,1,0,1,0,28777,0.280547,0.280205,15.9067,15,0.0161202,10,0.00445713,-1.79842,-0.652793,-0.0903808,-56.148,0.280205,
2,1,0,1,0,28777.1,0.282944,0.282638,15.7765,15,0.0162152,10,0.00445903,-1.80199,-0.650248,-0.0907346,-55.8894,0.282638,
2,1,0,1,0,28777.1,0.285344,0.285039,15.6494,15,0.0163095,10,0.00446068,-1.8055,-0.683283,-0.0863478,-52.7491,0.285039,
2,1,0,1,0,28777.1,0.287746,0.28745,15.5183,15,0.016403,10,0.00446074,-1.80915,-0.704358,-0.0837642,-50.7647,0.2874499,
2,1,0,1,0,28777.1,0.290143,0.289835,15.4071,15,0.0164957,10,0.0044655,-1.81228,-0.705468,-0.0836324,-50.2699,0.289835,
2,1,0,1,0,28777.1,0.29254,0.292214,15.2914,15,0.0165878,10,0.00446836,-1.81555,-0.769867,-0.0766367,-45.738,0.2922143,
2,1,0,1,0,28777.1,0.294949,0.294647,15.1845,15,0.0166792,10,0.00447405,-1.8186,-0.803636,-0.0734163,-43.5199,0.294647,
2,1,0,1,0,28777.1,0.297346,0.297023,15.0829,15,0.01677,10,0.00447998,-1.82151,-0.897471,-0.0657403,-38.7444,0.297023,
2,1,0,1,0,28777.1,0.299621,0.299309,14.9829,15,0.0168557,10,0.00448453,-1.8244,-0.0827542,-0.712955,-403.715,0.299309,
2,1,0,1,0,28777.1,0.299962,0.299651,14.8486,15,0.0168736,10,0.00444941,-1.82831,0.0113377,5.20387,2557.22,0.299651,
2,1,0,1,0,28777.1,0.297903,0.297662,11.437,15,0.0169392,10,0.00340434,-1.94169,0.0195278,3.02133,1308.62,0.297662,
2,1,0,1,0,28777.1,0.295506,0.295268,8.71696,15,0.0169991,10,0.00257384,-2.05963,0.0198345,2.97462,1028.14,0.2952683,
2,1,0,1,0,28777.1,0.293101,0.292823,6.57972,15,0.0170446,10,0.00192669,-2.18179,0.0186149,3.16951,812.803,0.292823,
2,1,0,1,0,28777.1,0.290704,0.290399,4.81413,15,0.0170784,10,0.00139802,-2.31748,0.0161125,3.66174,678.26,0.2903989,
2,1,0,1,0,28777.1,0.288307,0.28803,3.33617,15,0.0171026,10,0.000960916,-2.47675,0.012794,4.61155,574.296,0.28803,
2,1,0,1,0,28777.1,0.28591,0.285618,2.0923,15,0.0171187,10,0.000597598,-2.67938,0.00848296,6.95512,487.074,0.285618,
2,1,0,1,0,28777.1,0.283501,0.283231,0.988079,15,0.0171278,10,0.000279854,-3.00521,0.00631652,9.34059,428.677,0.283231,
2,1,0,1,0,28777.1,0.281104,0.280815,0.0409217,15,0.0171307,10,1.14914e-05,-4.38805,0.0572115,1.03126,372.492,0.280815,
2,0,0,1,0,28777.1,0.278707,0.278369,-0.78122,15,0.0171284,10,-0.000217467,-3.10723,-0.00894001,-6.59955,326.794,0.278369,
2,0,0,1,0,28777.2,0.276302,0.275983,-1.52068,15,0.0171213,10,-0.000419681,-2.81796,-0.00976464,-6.04221,287.844,0.275983,
2,0,0,1,0,28777.2,0.273905,0.273591,-2.17275,15,0.0171101,10,-0.000594446,-2.66299,-0.0178941,-3.29717,257.731,0.273591,
2,0,0,1,0,28777.2,0.271508,0.271207,-2.76009,15,0.0170952,10,-0.000748555,-2.55908,-0.0264166,-2.23344,230.351,0.271207,
2,0,0,1,0,28777.2,0.269105,0.268795,-3.2892,15,0.017077,10,-0.000884121,-2.48291,-0.0351845,-1.67687,209.088,0.268795,
2,0,0,1,0,28777.2,0.266702,0.266379,-3.76322,15,0.0170558,10,-0.00100244,-2.42444,-0.0450378,-1.31001,188.621,0.266379,
2,0,0,1,0,28777.2,0.264305,0.263975,-4.19865,15,0.0170318,10,-0.00110834,-2.37689,-0.0549471,-1.07376,173.251,0.263975,
2,0,0,1,0,28777.2,0.261908,0.261582,-4.58981,15,0.0170054,10,-0.00120061,-2.3382,-0.0662076,-0.891136,158.2,0.261582,
2,0,0,1,0,28777.2,0.2595,0.259181,-4.95681,15,0.0169768,10,-0.00128471,-2.3048,-0.0765148,-0.771093,147.95,0.259181,
2,0,0,1,0,28777.2,0.257103,0.256813,-5.29577,15,0.016946,10,-0.00136002,-2.27607,-0.0909468,-0.648731,133.013,0.256813,
2,0,0,1,0,28777.2,0.254706,0.254411,-5.59676,15,0.0169132,10,-0.00142388,-2.25206,-0.104902,-0.562428,122.481,0.2544108,
2,0,0,1,0,28777.2,0.2523,0.251968,-5.89145,15,0.0168788,10,-0.00148446,-2.22978,-0.115776,-0.509603,116.708,0.251968,
2,0,0,1,0,28777.2,0.249903,0.249566,-6.16505,15,0.0168425,10,-0.00153859,-2.21006,-0.12943,-0.455846,109.088,0.249566,
2,0,0,1,0,28777.2,0.247506,0.24717,-6.40735,15,0.0168048,10,-0.00158371,-2.19332,-0.143527,-0.411073,102.613,0.24717,
2,0,0,1,0,28777.2,0.245109,0.24479,-6.64656,15,0.0167656,10,-0.00162701,-2.1774,-0.156796,-0.376286,97.4715,0.24479,
2,0,0,1,0,28777.2,0.242701,0.24239,-6.88458,15,0.016725,10,-0.00166875,-2.16212,-0.17134,-0.344345,92.1323,0.24239,
2,0,0,1,0,28777.2,0.240304,0.239992,-7.09182,15,0.016683,10,-0.00170198,-2.14924,-0.193563,-0.30481,84.2099,0.239992,
2,0,0,1,0,28777.3,0.237906,0.237586,-7.28624,15,0.0166399,10,-0.00173111,-2.1375,-0.204309,-0.288779,82.0127,0.237586,
2,0,0,1,0,28777.3,0.235501,0.23521,-7.48076,15,0.0165956,10,-0.00175955,-2.12605,-0.215965,-0.273192,79.6647,0.23521,
2,0,0,1,0,28777.3,0.233104,0.232755,-7.66609,15,0.0165501,10,-0.00178432,-2.11543,-0.231129,-0.255268,76.1941,0.232755,
2,0,0,1,0,28777.3,0.230707,0.230395,-7.84004,15,0.0165036,10,-0.0018063,-2.10568,-0.24908,-0.236872,72.4289,0.230395,
2,0,0,1,0,28777.3,0.22831,0.228018,-7.99439,15,0.016456,10,-0.00182287,-2.09721,-0.267497,-0.220563,68.8884,0.228018,
2,0,0,1,0,28777.3,0.225902,0.225589,-8.17891,15,0.0164074,10,-0.00184507,-2.0873,-0.279951,-0.210751,67.0874,0.225589,
2,0,0,1,0,28777.3,0.223504,0.223199,-8.33233,15,0.0163579,10,-0.00185977,-2.07923,-0.307182,-0.192068,62.3749,0.223199,
2,0,0,1,0,28777.3,0.221107,0.22076,-8.47145,15,0.0163075,10,-0.00187016,-2.07204,-0.304612,-0.193689,64.1085,0.22076,
2,0,0,1,0,28777.3,0.218699,0.218336,-8.63618,15,0.0162562,10,-0.00188559,-2.06368,-0.321959,-0.183253,61.6184,0.218336,
2,0,0,1,0,28777.3,0.216302,0.215986,-8.78148,15,0.0162039,10,-0.00189668,-2.05643,-0.353608,-0.166852,57.0817,0.215986,
2,0,0,1,0,28777.3,0.213905,0.213551,-8.90511,15,0.0161509,10,-0.0019017,-2.05036,-0.352968,-0.167154,58.1626,0.213551,
2,0,0,1,0,28777.3,0.211505,0.211178,-9.05126,15,0.016097,10,-0.00191143,-2.04329,-0.357926,-0.164838,58.1786,0.211178,
2,0,0,1,0,28777.3,0.209102,0.208752,-9.18525,15,0.0160423,10,-0.00191744,-2.03691,-0.372266,-0.158489,56.7713,0.208752,
2,0,0,1,0,28777.3,0.206705,0.206422,-9.31511,15,0.0159867,10,-0.00192284,-2.03081,-0.392843,-0.150187,54.5978,0.206422,
2,0,0,1,0,28777.3,0.204308,0.203948,-9.44468,15,0.0159304,10,-0.00192623,-2.02481,-0.396839,-0.148675,54.809,0.2039482,
2,0,0,1,0,28777.3,0.2019,0.20155,-9.58468,15,0.0158734,10,-0.00193179,-2.01842,-0.414764,-0.14225,53.1311,0.20155,
2,0,0,1,0,28777.3,0.199503,0.199168,-9.70563,15,0.0158155,10,-0.00193305,-2.01298,-0.440936,-0.133806,50.6275,0.199168,
2,0,0,1,0,28777.4,0.197106,0.196777,-9.82121,15,0.0157569,10,-0.00193259,-2.00783,-0.436856,-0.135056,51.8402,0.196777,
2,0,0,1,0,28777.4,0.194709,0.194388,-9.9492,15,0.0156976,10,-0.001934,-2.00221,-0.427529,-0.138002,53.6197,0.194388,
2,0,0,1,0,28777.4,0.192303,0.191979,-10.0937,15,0.0156374,10,-0.00193778,-1.99595,-0.44602,-0.132281,52.0205,0.191979,
2,0,0,1,0,28777.4,0.189906,0.189561,-10.2001,15,0.0155765,10,-0.00193355,-1.99139,-0.448442,-0.131567,52.4356,0.189561,
2,0,0,1,0,28777.4,0.187509,0.187193,-10.3308,15,0.0155149,10,-0.00193385,-1.98587,-0.438339,-0.134599,54.2873,0.187193,
2,0,0,1,0,28777.4,0.185101,0.184812,-10.4684,15,0.0154525,10,-0.0019347,-1.98012,-0.435204,-0.135569,55.3116,0.184812,
2,0,0,1,0,28777.4,0.182704,0.182346,-10.5896,15,0.0153893,10,-0.00193097,-1.97512,-0.456796,-0.12916,53.4183,0.182346,
2,0,0,1,0,28777.4,0.180307,0.179983,-10.7189,15,0.0153254,10,-0.00192921,-1.96985,-0.438863,-0.134438,56.2776,0.179983,
2,0,0,1,0,28777.4,0.177904,0.177613,-10.8624,15,0.0152606,10,-0.0019293,-1.96408,-0.438126,-0.134664,57.0624,0.177613,
2,0,0,1,0,28777.4,0.175501,0.175158,-11.0013,15,0.015195,10,-0.00192696,-1.95856,-0.432662,-0.136365,58.5398,0.175158,
2,0,0,1,0,28777.4,0.173104,0.172755,-11.1392,15,0.0151286,10,-0.00192436,-1.95315,-0.435704,-0.135413,58.8996,0.172755,
2,0,0,1,0,28777.4,0.170707,0.170398,-11.2799,15,0.0150613,10,-0.00192207,-1.9477,-0.403827,-0.146102,64.4005,0.170398,
2,0,0,1,0,28777.4,0.168302,0.167958,-11.4563,15,0.0149931,10,-0.00192418,-1.94096,-0.397793,-0.148318,66.2193,0.167958,
2,0,0,1,0,28777.4,0.165905,0.165578,-11.6002,15,0.014924,10,-0.00192074,-1.93554,-0.386318,-0.152724,69.201,0.165578,
2,0,0,1,0,28777.4,0.163507,0.163239,-11.7679,15,0.0148538,10,-0.00192098,-1.9293,-0.361851,-0.163051,75.0086,0.163239,
2,0,0,1,0,28777.4,0.161099,0.160742,-11.9616,15,0.0147826,10,-0.00192273,-1.92221,-0.355228,-0.16609,77.515,0.160742,
2,0,0,1,0,28777.4,0.158702,0.15837,-12.1412,15,0.0147103,10,-0.0019228,-1.91574,-0.336777,-0.17519,83.1391,0.15837,
2,0,0,1,0,28777.5,0.156305,0.155979,-12.3429,15,0.0146368,10,-0.00192523,-1.90858,-0.317705,-0.185707,89.6908,0.155979,
2,0,0,1,0,28777.5,0.153908,0.153586,-12.577,15,0.014562,10,-0.00193166,-1.90042,-0.298724,-0.197507,97.009,0.1535863,
2,0,0,1,0,28777.5,0.151503,0.151208,-12.8112,15,0.0144858,10,-0.00193716,-1.89241,-0.284363,-0.207481,103.866,0.151208,
2,0,0,1,0,28777.5,0.149105,0.148769,-13.0731,15,0.0144081,10,-0.00194487,-1.88362,-0.267285,-0.220738,112.816,0.148769,
2,0,0,1,0,28777.5,0.146708,0.14634,-13.3639,15,0.0143288,10,-0.00195566,-1.87407,-0.244085,-0.24172,126.224,0.14634,
2,0,0,1,0,28777.5,0.1443,0.144011,-13.683,15,0.0142477,10,-0.00197049,-1.86382,-0.230646,-0.255804,136.774,0.144011,
2,0,0,1,0,28777.5,0.141903,0.141594,-14.0233,15,0.0141645,10,-0.00198562,-1.85315,-0.216064,-0.273068,149.685,0.141594,
2,0,0,1,0,28777.5,0.139506,0.139149,-14.3965,15,0.0140793,10,-0.00200326,-1.84174,-0.197892,-0.298142,167.936,0.139149,
2,0,0,1,0,28777.5,0.137109,0.136768,-14.8158,15,0.0139916,10,-0.00202633,-1.82928,-0.186922,-0.315639,182.808,0.136768,
2,0,0,1,0,28777.5,0.134701,0.13441,-15.2697,15,0.0139013,10,-0.0020524,-1.81617,-0.177869,-0.331706,198.013,0.13441,
2,0,0,1,0,28777.5,0.132303,0.131999,-15.7555,15,0.0138082,10,-0.0020797,-1.80257,-0.171117,-0.344793,212.546,0.131999,
2,0,0,1,0,28777.5,0.129906,0.129592,-16.3037,15,0.013712,10,-0.00211284,-1.78771,-0.162772,-0.362471,230.832,0.129592,
2,0,0,1,0,28777.5,0.127501,0.127116,-16.8806,15,0.0136124,10,-0.0021458,-1.77261,-0.160413,-0.3678,242.361,0.127116,
2,0,0,1,0,28777.5,0.125104,0.124795,-17.4703,15,0.0135093,10,-0.00218021,-1.7577,-0.158904,-0.371293,253.455,0.124795,
2,0,0,1,0,28777.5,0.122707,0.122396,-18.1035,15,0.0134025,10,-0.00221578,-1.74224,-0.156554,-0.376866,266.296,0.122396,
2,0,0,1,0,28777.5,0.12031,0.119998,-18.7509,15,0.0132919,10,-0.00225007,-1.72698,-0.158142,-0.373082,272.925,0.119998,
2,0,0,1,0,28777.6,0.117901,0.117596,-19.3996,15,0.0131774,10,-0.00228132,-1.71221,-0.161816,-0.364612,276.09,0.117596,
2,0,0,1,0,28777.6,0.115504,0.115211,-20.0738,15,0.0130589,10,-0.00231272,-1.69737,-0.165744,-0.355972,278.717,0.115211,
2,0,0,1,0,28777.6,0.113107,0.112805,-20.7294,15,0.0129364,10,-0.00233839,-1.68341,-0.171342,-0.344341,278.518,0.1128052,
2,0,0,1,0,28777.6,0.110702,0.110404,-21.4091,15,0.0128099,10,-0.00236366,-1.6694,-0.178981,-0.329643,275.047,0.110404,
2,0,0,1,0,28777.6,0.108305,0.10798,-22.057,15,0.0126794,10,-0.00238172,-1.65645,-0.1922,-0.306972,263.71,0.10798,
2,0,0,1,0,28777.6,0.105908,0.105619,-22.6681,15,0.0125451,10,-0.00239418,-1.64458,-0.200013,-0.294981,260.953,0.105619,
2,0,0,1,0,28777.6,0.103505,0.103229,-23.2987,15,0.0124072,10,-0.0024051,-1.63267,-0.206209,-0.286118,260.041,0.103229,
2,0,0,1,0,28777.6,0.101102,0.100801,-23.9145,15,0.0122655,10,-0.00241062,-1.62134,-0.217732,-0.270975,252.639,0.100801,
2,0,0,1,0,28777.6,0.0987052,0.0984112,-24.5273,15,0.0121201,10,-0.00241376,-1.61035,-0.231976,-0.254336,243.052,0.09841124,
2,0,0,1,0,28777.6,0.0963081,0.0960296,-25.0912,15,0.0119712,10,-0.0024095,-1.60048,-0.245589,-0.240238,235.01,0.0960296,
2,0,0,1,0,28777.6,0.0938999,0.0936065,-25.6457,15,0.0118189,10,-0.0024006,-1.59099,-0.261518,-0.225606,225.588,0.0936065,
2,0,0,1,0,28777.6,0.0915028,0.0912227,-26.1773,15,0.0116634,10,-0.00238796,-1.58208,-0.281666,-0.209468,213.698,0.0912227,
2,0,0,1,0,28777.6,0.0891057,0.0888167,-26.6745,15,0.0115048,10,-0.00236914,-1.5739,-0.307779,-0.191696,199.271,0.0888167,
2,0,0,1,0,28777.6,0.0867002,0.0864064,-27.1381,15,0.0113433,10,-0.00234491,-1.56642,-0.333038,-0.177157,187.423,0.0864064,
2,0,0,1,0,28777.6,0.0843031,0.0840109,-27.5676,15,0.0111791,10,-0.00231598,-1.5596,-0.358539,-0.164557,176.867,0.0840109,
2,0,0,1,0,28777.6,0.081906,0.0816473,-27.9783,15,0.0110124,10,-0.00228435,-1.55318,-0.394262,-0.149647,163.237,0.0816473,
2,0,0,1,0,28777.6,0.0795089,0.0792423,-28.3481,15,0.0108434,10,-0.00224637,-1.54748,-0.436691,-0.135107,149.376,0.0792423,
2,0,0,1,0,28777.7,0.0771007,0.0768288,-28.705,15,0.0106721,10,-0.00220537,-1.54204,-0.482094,-0.122383,136.942,0.0768288,
2,0,0,1,0,28777.7,0.0747036,0.074427,-29.0168,15,0.0104989,10,-0.00215963,-1.53735,-0.548203,-0.107624,121.752,0.074427,
2,0,0,1,0,28777.7,0.0723065,0.0720124,-29.302,15,0.010324,10,-0.0021101,-1.5331,-0.623781,-0.0945845,107.992,0.0720124,
2,0,0,1,0,28777.7,0.0699011,0.0695894,-29.5411,15,0.0101474,10,-0.00205574,-1.52957,-0.738521,-0.0798894,91.9815,0.0695894,
2,0,0,1,0,28777.7,0.067504,0.0672024,-29.7361,15,0.00996956,10,-0.00199834,-1.52672,-0.871232,-0.0677202,78.5141,0.0672024,
2,0,0,1,0,28777.7,0.0651069,0.0648059,-29.9089,15,0.00979057,10,-0.00193827,-1.5242,-1.11182,-0.0530661,61.8653,0.06480591,
2,0,0,1,0,28777.7,0.0627098,0.0624051,-30.0253,15,0.00961072,10,-0.00187373,-1.52251,-1.44475,-0.0408377,47.838,0.0624051,
2,0,0,1,0,28777.7,0.0603016,0.0600033,-30.134,15,0.0094302,10,-0.00180814,-1.52094,-1.87687,-0.0314353,36.9385,0.0600033,
2,0,0,1,0,28777.7,0.0579045,0.0576015,-30.2139,15,0.00924913,10,-0.00174037,-1.51979,-2.92403,-0.0201776,23.764,0.0576015,
2,0,0,1,0,28777.7,0.0555074,0.0551562,-30.2479,15,0.00906773,10,-0.00166836,-1.51931,-4.94373,-0.0119343,14.0824,0.0551562,
2,0,0,1,0,28777.7,0.0530992,0.0527936,-30.2764,15,0.00888617,10,-0.0015984,-1.5189,-12.6835,-0.0046517,5.49293,0.0527936,
2,0,0,1,0,28777.7,0.0507021,0.0504013,-30.2814,15,0.00870449,10,-0.00152622,-1.51882,47.321,0.0012468,-1.47237,0.0504013,
2,0,0,1,0,28777.7,0.048305,0.0479762,-30.2694,15,0.00852285,10,-0.00145221,-1.519,8.52846,0.00691801,-8.1687,0.0479762,
2,0,0,1,0,28777.7,0.0459051,0.045586,-30.2295,15,0.00834137,10,-0.00137804,-1.51957,5.01094,0.0117742,-13.8904,0.045586,
2,0,0,1,0,28777.7,0.0435024,0.0431948,-30.1925,15,0.00816006,10,-0.00130416,-1.5201,4.37146,0.0134966,-15.9029,0.0431948,
2,0,0,1,0,28777.7,0.0411053,0.0407665,-30.1491,15,0.00797901,10,-0.00122907,-1.52073,3.07767,0.0191703,-22.5495,0.0407665,
2,0,0,1,0,28777.7,0.0387082,0.0383859,-30.0959,15,0.00779826,10,-0.00115526,-1.52149,2.75835,0.0213896,-25.1162,0.0383859,
2,0,0,1,0,28777.8,0.0363,0.0359968,-30.0289,15,0.00761792,10,-0.00108094,-1.52246,2.63347,0.0224039,-26.2545,0.03599678,
2,0,0,1,0,28777.8,0.0339029,0.0335727,-29.9703,15,0.00743794,10,-0.00100618,-1.52331,2.23365,0.0264142,-30.8711,0.0335727,
2,0,0,1,0,28777.8,0.0315058,0.0311921,-29.8861,15,0.00725837,10,-0.00093221,-1.52453,2.12208,0.0278029,-32.4266,0.0311921,
2,0,0,1,0,28777.8,0.0291087,0.0287881,-29.7957,15,0.00707936,10,-0.000857762,-1.52585,2.07131,0.0284844,-33.1404,0.0287881,
2,0,0,1,0,28777.8,0.0267033,0.0263757,-29.7349,15,0.00690076,10,-0.000784278,-1.52673,1.96708,0.0299938,-34.7809,0.0263757,
2,0,0,1,0,28777.8,0.0243062,0.0239665,-29.6404,15,0.00672263,10,-0.000710376,-1.52812,1.71672,0.0343678,-39.7416,0.0239665,
2,0,0,1,0,28777.8,0.0219091,0.0215721,-29.5315,15,0.00654513,10,-0.000637055,-1.52971,1.66651,0.0354033,-40.8186,0.0215721,
2,0,0,1,0,28777.8,0.0195009,0.019166,-29.445,15,0.0063682,10,-0.000564342,-1.53099,1.61153,0.0366111,-42.0544,0.01916601,
2,0,0,1,0,28777.8,0.0171038,0.0167907,-29.3301,15,0.00619188,10,-0.000492472,-1.53269,1.42549,0.0413894,-47.372,0.0167907,
2,0,0,1,0,28777.8,0.0147067,0.0143942,-29.2145,15,0.00601624,10,-0.000420518,-1.5344,1.36197,0.0433196,-49.3794,0.01439418,
2,0,0,1,0,28777.8,0.012304,0.0119446,-29.0929,15,0.00584133,10,-0.000347505,-1.53621,1.28826,0.0457982,-51.9877,0.0119446,
2,0,0,1,0,28777.8,0.00990136,0.00957251,-28.965,15,0.00566716,10,-0.000277268,-1.53813,1.17151,0.0503624,-56.9047,0.00957251,
2,0,0,1,0,28777.8,0.00750426,0.00719296,-28.8164,15,0.00549382,10,-0.000207275,-1.54036,1.02371,0.0576336,-64.7927,0.00719296,
2,0,0,1,0,28777.8,0.00510715,0.00483143,-28.6537,15,0.00532141,10,-0.000138438,-1.54282,1.08546,0.0543549,-60.8335,0.00483143,
2,0,0,1,0,28777.8,0.00270173,0.00235432,-28.4946,15,0.00514997,10,-6.70855e-05,-1.54524,0.997459,0.0591503,-65.7864,0.00235432,
2,0,0,1,0,28777.8,0.000304623,-6.87051e-05,-28.3545,15,0.00497932,10,1.9481e-06,-1.54738,0.883677,0.0667664,-73.7746,-6.87051e-05,
2,0,0,1,0,28777.9,-0.00209248,-0.00245992,-28.1409,15,0.00480986,10,6.92244e-05,-1.55066,0.775616,0.0760685,-83.573,-0.00245992,
2,0,0,1,0,28777.9,-0.00450068,-0.00486599,-27.9461,15,0.00464164,10,0.000135985,-1.55368,0.735638,0.0802024,-87.416,-0.00486599,
2,0,0,1,0,28777.9,-0.00689779,-0.00724554,-27.7268,15,0.00447462,10,0.000200896,-1.5571,0.698667,0.0844465,-91.3084,-0.00724554,
2,0,0,1,0,28777.9,-0.00929489,-0.00966009,-27.4895,15,0.00430899,10,0.000265551,-1.56083,0.666048,0.0885822,-95.0646,-0.00966009,
2,0,0,1,0,28777.9,-0.011692,-0.0120948,-27.259,15,0.00414476,10,0.000329692,-1.56449,0.637898,0.0924913,-98.3867,-0.0120948,
2,0,0,1,0,28777.9,-0.0140974,-0.0145199,-27.0324,15,0.00398187,10,0.000392508,-1.56812,0.624537,0.09447,-99.6222,-0.0145199,
2,0,0,1,0,28777.9,-0.0164945,-0.0168889,-26.7879,15,0.00382044,10,0.000452417,-1.57206,0.601672,0.0980601,-102.527,-0.0168889,
2,0,0,1,0,28777.9,-0.0188916,-0.0192462,-26.545,15,0.00366047,10,0.000510889,-1.57602,0.616766,0.0956603,-99.1492,-0.0192462,
2,0,0,1,0,28777.9,-0.0212998,-0.0216745,-26.3187,15,0.00350191,10,0.000570444,-1.57974,0.638184,0.0924499,-94.9559,-0.0216745,
2,0,0,1,0,28777.9,-0.0236969,-0.0240763,-26.0905,15,0.00334471,10,0.000628163,-1.58352,0.625991,0.0942505,-95.9436,-0.02407632,
2,0,0,1,0,28777.9,-0.026094,-0.0264431,-25.8624,15,0.00318888,10,0.000683884,-1.58733,0.683203,0.0863579,-87.2309,-0.0264431,
2,0,0,1,0,28777.9,-0.0284912,-0.0288322,-25.6514,15,0.0030344,10,0.000739587,-1.59089,0.722647,0.0816443,-81.7883,-0.0288322,
2,0,0,1,0,28777.9,-0.0308994,-0.0312956,-25.4665,15,0.00288104,10,0.00079699,-1.59403,0.742102,0.0795039,-78.996,-0.0312956,
2,0,0,1,0,28777.9,-0.0332965,-0.0336751,-25.2637,15,0.00272886,10,0.00085076,-1.5975,0.764908,0.0771335,-76.1182,-0.0336751,
2,0,0,1,0,28777.9,-0.0356936,-0.0360706,-25.0895,15,0.00257783,10,0.000904994,-1.60051,0.852261,0.0692277,-67.854,-0.0360706,
2,0,0,1,0,28777.9,-0.038099,-0.0384894,-24.9494,15,0.00242772,10,0.000960286,-1.60294,0.925145,0.0637738,-62.0835,-0.0384894,
2,0,0,1,0,28777.9,-0.0404961,-0.0408891,-24.7911,15,0.00227851,10,0.00101369,-1.6057,0.955934,0.0617197,-59.7587,-0.0408891,
2,0,0,1,0,28778,-0.0428932,-0.0432676,-24.6519,15,0.0021302,10,0.00106663,-1.60815,1.11147,0.0530831,-51.1234,-0.0432676,
2,0,0,1,0,28778,-0.0452903,-0.0456863,-24.5421,15,0.00198262,10,0.00112124,-1.61009,1.29263,0.0456433,-43.7393,-0.0456863,
2,0,0,1,0,28778,-0.0476985,-0.0480617,-24.4498,15,0.00183565,10,0.0011751,-1.61172,1.42875,0.0412949,-39.4034,-0.0480617,
2,0,0,1,0,28778,-0.0500956,-0.0504433,-24.3552,15,0.00168926,10,0.00122856,-1.61341,1.6084,0.0366825,-34.8876,-0.0504433,
2,0,0,1,0,28778,-0.0524927,-0.0528706,-24.2771,15,0.0015434,10,0.00128354,-1.6148,2.10832,0.0279844,-26.5349,-0.0528706,
2,0,0,1,0,28778,-0.0548981,-0.0553074,-24.2245,15,0.00139791,10,0.00133979,-1.61575,2.54983,0.0231388,-21.8747,-0.0553074,
2,0,0,1,0,28778,-0.0572953,-0.057688,-24.1713,15,0.00125272,10,0.00139439,-1.6167,2.76805,0.0213146,-20.112,-0.057688,
2,0,0,1,0,28778,-0.0596924,-0.0600623,-24.1191,15,0.00110787,10,0.00144865,-1.61764,4.79822,0.0122962,-11.5889,-0.0600623,
2,0,0,1,0,28778,-0.062095,-0.0624408,-24.1078,15,0.0009632,10,0.00150531,-1.61784,6.48112,0.00910336,-8.56391,-0.0624408,
2,0,0,1,0,28778,-0.0644977,-0.064885,-24.0946,15,0.000818563,10,0.00156338,-1.61808,11.0564,0.00533629,-5.01694,-0.064885,
2,0,0,1,0,28778,-0.0668948,-0.0672678,-24.0764,15,0.000674077,10,0.00161956,-1.61841,30.0896,0.00196081,-1.84413,-0.0672678,
2,0,0,1,0,28778,-0.0692919,-0.0696791,-24.0933,15,0.000529581,10,0.0016788,-1.6181,-11.6109,-0.00508141,4.77848,-0.0696791,
2,0,0,1,0,28778,-0.0717001,-0.0720693,-24.1153,15,0.000384969,10,0.00173797,-1.61771,-6.68881,-0.00882071,8.3014,-0.0720693,
2,0,0,1,0,28778,-0.0740972,-0.0744732,-24.1294,15,0.000240275,10,0.00179699,-1.61745,-4.81114,-0.0122632,11.557,-0.0744732,
2,0,0,1,0,28778,-0.0764943,-0.0768549,-24.1699,15,9.54016e-05,10,0.00185758,-1.61672,-2.98872,-0.0197409,18.6254,-0.0768549,
2,0,0,1,0,28778,-0.0788997,-0.0792535,-24.2113,15,-4.97331e-05,10,0.00191883,-1.61598,-2.77597,-0.0212538,20.0828,-0.0792535,
2,0,0,1,0,28778,-0.0812968,-0.081666,-24.2563,15,-0.000195174,10,0.00198091,-1.61518,-2.50513,-0.0235517,22.3028,-0.081666,
2,0,0,1,0,28778.1,-0.0836939,-0.0840604,-24.3196,15,-0.000340902,10,0.00204432,-1.61404,-2.10033,-0.0280909,26.6746,-0.0840604,
2,0,0,1,0,28778.1,-0.086091,-0.0864696,-24.3897,15,-0.000487029,10,0.00210896,-1.61279,-1.79233,-0.0329181,31.3411,-0.0864696,
2,0,0,1,0,28778.1,-0.0884992,-0.0888587,-24.4768,15,-0.000633652,10,0.00217497,-1.61125,-1.72169,-0.0342687,32.7252,-0.0888587,
2,0,0,1,0,28778.1,-0.0908963,-0.0913093,-24.546,15,-0.000780723,10,0.00224128,-1.61002,-1.59505,-0.0369895,35.469,-0.0913093,
2,0,0,1,0,28778.1,-0.0932934,-0.0936348,-24.6453,15,-0.000928292,10,0.00230766,-1.60827,-1.36845,-0.0431145,41.4881,-0.0936348,
2,0,0,1,0,28778.1,-0.0956989,-0.0960302,-24.7638,15,-0.0010765,10,0.00237807,-1.60618,-1.3219,-0.0446326,43.1105,-0.0960302,
2,0,0,1,0,28778.1,-0.098096,-0.0984787,-24.8511,15,-0.00122533,10,0.0024473,-1.60465,-1.47789,-0.0399217,38.6546,-0.0984787,
2,0,0,0,0,28778.1,-0.0999548,-0.100343,-24.9244,15,-0.00134234,10,0.00250098,-1.60338,0.0287105,2.055,-1881.38,-0.100343,
2,0,0,1,1,28778.1,-0.0994555,-0.0998922,-23.6505,15,-0.00138335,10,0.0023625,-1.62616,-0.0255445,-2.3097,1948.04,-0.0998922,
2,0,0,1,1,28778.1,-0.0970583,-0.0974225,-19.6802,15,-0.00151227,10,0.0019173,-1.70597,-0.0310837,-1.8981,1476.25,-0.09742254,
2,0,0,1,1,28778.1,-0.0946501,-0.0950398,-16.6346,15,-0.00162068,10,0.00158095,-1.77899,-0.0327352,-1.80234,1180.23,-0.0950398,
2,0,0,1,1,28778.1,-0.0922531,-0.0926645,-14.0593,15,-0.00171233,10,0.0013028,-1.85204,-0.0319582,-1.84616,1015.6,-0.09266451,
2,0,0,1,1,28778.1,-0.0898559,-0.0902775,-11.7964,15,-0.00178956,10,0.00106495,-1.92825,-0.0298475,-1.97671,906.709,-0.09027753,
2,0,0,1,1,28778.1,-0.0874588,-0.0878375,-9.75185,15,-0.00185391,10,0.000856578,-2.01091,-0.0273279,-2.15896,815.664,-0.08783754,
2,0,0,1,1,28778.1,-0.0850534,-0.0855089,-7.88605,15,-0.00190652,10,0.000674327,-2.10314,-0.0240246,-2.45582,747.473,-0.0855089,
2,0,0,1,1,28778.1,-0.0826563,-0.0830519,-6.19799,15,-0.00194853,10,0.000514755,-2.20775,-0.0204209,-2.8892,681.749,-0.0830519,
2,0,0,1,1,28778.1,-0.0802592,-0.0806681,-4.62897,15,-0.00198079,10,0.00037341,-2.33452,-0.0163054,-3.61844,624.753,-0.0806681,
2,0,0,1,1,28778.2,-0.077851,-0.0782567,-3.16097,15,-0.00200396,10,0.000247367,-2.50018,-0.01134,-5.2028,582.669,-0.0782567,
2,0,0,1,1,28778.2,-0.0754539,-0.0758496,-1.82279,15,-0.00201873,10,0.000138258,-2.73926,-0.00472808,-12.4786,542.009,-0.07584963,
2,0,0,1,1,28778.2,-0.0730568,-0.073433,-0.561436,15,-0.00202572,10,4.12279e-05,-3.2507,-0.0179413,-3.2885,512.547,-0.073433,
2,1,0,1,1,28778.2,-0.0706597,-0.0710683,0.608085,15,-0.00202542,10,-4.32156e-05,-3.21604,0.0194423,3.03462,479.794,-0.0710683,
2,1,0,1,1,28778.2,-0.0682542,-0.0686442,1.72202,15,-0.00201825,10,-0.000118207,-2.76396,0.00567973,10.3878,445.28,-0.0686442,
2,1,0,1,1,28778.2,-0.0658571,-0.0662466,2.74642,15,-0.00200471,10,-0.000181941,-2.56123,0.0135051,4.36871,418.924,-0.0662466,
2,1,0,1,1,28778.2,-0.06346,-0.0638861,3.7127,15,-0.00198522,10,-0.00023719,-2.43031,0.0206163,2.86182,393.995,-0.0638861,
2,1,0,1,1,28778.2,-0.0610518,-0.0614949,4.64279,15,-0.00196005,10,-0.000285508,-2.33322,0.0278007,2.12225,370.408,-0.0614949,
2,1,0,1,1,28778.2,-0.0586547,-0.0590782,5.48998,15,-0.00192953,10,-0.000324338,-2.26043,0.0353975,1.66678,349.714,-0.0590782,
2,1,0,1,1,28778.2,-0.0562576,-0.0567103,6.30022,15,-0.00189406,10,-0.000357287,-2.20064,0.0430269,1.37123,332.513,-0.0567103,
2,1,0,1,1,28778.2,-0.053855,-0.0543043,7.08558,15,-0.0018538,10,-0.000384777,-2.14962,0.0519951,1.13472,309.2,-0.0543043,
2,1,0,1,1,28778.2,-0.0514523,-0.0518717,7.79934,15,-0.00180904,10,-0.000404565,-2.10794,0.0608538,0.969537,292.39,-0.05187171,
2,1,0,1,1,28778.2,-0.0490552,-0.049437,8.48089,15,-0.00176012,10,-0.00041927,-2.07156,0.0699345,0.843646,277.434,-0.049437,
2,1,0,1,1,28778.2,-0.0466581,-0.0470681,9.13264,15,-0.0017072,10,-0.000429856,-2.0394,0.0795164,0.741985,262.575,-0.0470681,
2,1,0,1,1,28778.2,-0.0442527,-0.0446609,9.74783,15,-0.00165048,10,-0.000435347,-2.01109,0.0908693,0.649284,245.476,-0.0446609,
2,1,0,1,1,28778.2,-0.0418556,-0.042239,10.3065,15,-0.00159025,10,-0.000435336,-1.98689,0.102821,0.573813,229.841,-0.042239,
2,1,0,1,1,28778.2,-0.0394585,-0.0398668,10.8505,15,-0.0015267,10,-0.000432576,-1.96455,0.113447,0.520068,219.515,-0.0398668,
2,1,0,1,1,28778.3,-0.0370558,-0.0374735,11.3678,15,-0.00146,10,-0.000425991,-1.94432,0.126653,0.465841,205.77,-0.0374735,
2,1,0,1,1,28778.3,-0.0346532,-0.0350134,11.8392,15,-0.0013903,10,-0.00041453,-1.92668,0.140438,0.420113,193.448,-0.0350134,
2,1,0,1,1,28778.3,-0.0322561,-0.032672,12.2789,15,-0.00131789,10,-0.000401175,-1.91084,0.15564,0.37908,181.327,-0.032672,
2,1,0,1,1,28778.3,-0.0298589,-0.0302458,12.7084,15,-0.00124287,10,-0.000384376,-1.89591,0.170185,0.346682,171.539,-0.0302458,
2,1,0,1,1,28778.3,-0.0274535,-0.0278503,13.1102,15,-0.00116535,10,-0.000365124,-1.88239,0.189572,0.311227,158.758,-0.0278503,
2,1,0,1,1,28778.3,-0.0250564,-0.0254591,13.4637,15,-0.00108558,10,-0.000342773,-1.87084,0.208666,0.282748,148.485,-0.0254591,
2,1,0,1,1,28778.3,-0.0226593,-0.023053,13.8269,15,-0.00100366,10,-0.000318752,-1.85927,0.221784,0.266025,143.21,-0.023053,
2,1,0,1,1,28778.3,-0.0202511,-0.0206151,14.1577,15,-0.000919669,10,-0.000291863,-1.84901,0.247311,0.238566,131.482,-0.0206151,
2,1,0,1,1,28778.3,-0.017854,-0.0182515,14.4505,15,-0.000833812,10,-0.000263743,-1.84012,0.267926,0.22021,124.088,-0.0182515,
2,1,0,1,1,28778.3,-0.0154569,-0.0158147,14.7388,15,-0.000746201,10,-0.00023309,-1.83154,0.287993,0.204866,117.734,-0.0158147,
2,1,0,1,1,28778.3,-0.0130598,-0.0134394,15.0075,15,-0.000656901,10,-0.000201692,-1.82369,0.314844,0.187394,109.661,-0.0134394,
2,1,0,1,1,28778.3,-0.0106516,-0.0110524,15.2653,15,-0.000566028,10,-0.000168718,-1.8163,0.344175,0.171424,102.005,-0.0110524,
2,1,0,1,1,28778.3,-0.00825448,-0.00865164,15.494,15,-0.000473709,10,-0.000134048,-1.80984,0.379626,0.155416,93.9201,-0.00865164,
2,1,0,1,1,28778.3,-0.00585738,-0.00620846,15.7164,15,-0.000380034,10,-9.75746e-05,-1.80365,0.407562,0.144763,88.7401,-0.00620846,
2,1,0,1,1,28778.3,-0.00345195,-0.00380876,15.9292,15,-0.000285071,10,-6.06705e-05,-1.79781,0.454237,0.129888,80.6085,-0.00380876,
2,1,0,1,1,28778.3,-0.00105485,-0.00142391,16.1093,15,-0.000188911,10,-2.29381e-05,-1.79292, , , ,-0.00142391,
2,1,0,0,1,28778.3,-7.54729e-05,-0.000458935,16.1652,15,-0.000148556,10,-7.41878e-06,-1.79142, , , ,-0.000458935,