File: Figure_codes/Fig_3-5/rawdata_trumpetplot_data/after 10th/20221101_1-115_003_TrumpetPlot_ParaChange_from10_every3_07_CV_C01_4.csv
mode,ox/red,error,control changes,counter inc.,time/s,control/V,Ewe/V,<I>/mA,cycle number,(Q-Qo)/C,I Range,P/W,log(|I|),Tafel slope mV/dec,alpha_eff,dI/d(E-IR),E-IR/V,
2,0,0,0,0,9045.54,2.44065e-05,-0.000306236,-2.71539,5,0.0000000E+000,10,8.31552e-07,-2.56617, , , ,-0.000306236,
2,0,0,1,0,9045.56,0.0013005,0.00093243,-0.776408,5,-3.30467e-05,10,-7.23946e-07,-3.10991, , , ,0.00093243,
2,1,0,1,0,9045.59,0.00279471,0.0024898,0.434576,5,-3.54255e-05,10,1.08201e-06,-3.36193,-0.0805634,-0.732342,637.351,0.0024898,
2,1,0,1,0,9045.61,0.00429425,0.00397732,1.07666,5,-1.54478e-05,10,4.28223e-06,-2.96792,0.00341303,17.2867,365.645,0.00397732,
2,1,0,1,0,9045.64,0.00579379,0.00548625,1.46122,5,1.71234e-05,10,8.0166e-06,-2.83529,0.0131056,4.50189,229.032,0.00548625,
2,1,0,1,0,9045.66,0.007288,0.00700622,1.7259,5,5.7544e-05,10,1.20921e-05,-2.76298,0.0247924,2.37976,153.089,0.00700622,
2,1,0,1,0,9045.69,0.00878882,0.00848875,1.92272,5,0.000103825,10,1.63215e-05,-2.71608,0.0390478,1.51097,110.168,0.00848875,
2,1,0,1,0,9045.71,0.0102896,0.00998936,2.0661,5,0.000154115,10,2.0639e-05,-2.68485,0.056905,1.03682,81.9019,0.00998936,
2,1,0,1,0,9045.74,0.0117838,0.0115034,2.17518,5,0.000207253,10,2.5022e-05,-2.6625,0.0706656,0.834918,70.0127,0.0115034,
2,1,0,1,0,9045.76,0.0132834,0.0129842,2.2555,5,0.000263023,10,2.92858e-05,-2.64676,0.0871955,0.67664,59.5741,0.0129842,
2,1,0,1,0,9045.79,0.0147816,0.0145055,2.33997,5,0.000321031,10,3.39425e-05,-2.63079,0.100976,0.584296,53.2658,0.0145055,
2,1,0,1,0,9045.81,0.0162811,0.015984,2.41678,5,0.000381041,10,3.86298e-05,-2.61676,0.124785,0.472813,44.4499,0.015984,
2,1,0,1,0,9045.84,0.0177753,0.0174515,2.48451,5,0.00044251,10,4.33585e-05,-2.60476,0.132583,0.445005,43.0386,0.0174515,
2,1,0,1,0,9045.86,0.0192761,0.0189687,2.53684,5,0.000505665,10,4.81205e-05,-2.59571,0.145859,0.404501,40.1264,0.0189687,
2,1,0,1,0,9045.89,0.020777,0.0205198,2.60474,5,0.000570352,10,5.34486e-05,-2.58424,0.15809,0.373204,37.8132,0.0205198,
2,1,0,1,0,9045.91,0.0222712,0.0220138,2.66128,5,0.00063632,10,5.8585e-05,-2.57491,0.1564,0.377237,39.1058,0.0220138,
2,1,0,1,0,9045.94,0.0237707,0.0235029,2.7166,5,0.000703998,10,6.38479e-05,-2.56597,0.161702,0.364868,38.7091,0.0235029,
2,1,0,1,0,9045.96,0.0252703,0.0249922,2.76048,5,0.000772995,10,6.89906e-05,-2.55901,0.175534,0.336116,36.4256,0.0249922,
2,1,0,1,0,9045.99,0.0267645,0.0264537,2.82093,5,0.000843073,10,7.46241e-05,-2.54961,0.175643,0.335908,37.0442,0.0264537,
2,1,0,1,0,9046.01,0.0282653,0.0279754,2.89101,5,0.000914857,10,8.08771e-05,-2.53895,0.181266,0.325488,36.5472,0.0279754,
2,1,0,1,0,9046.04,0.0297648,0.0294795,2.94321,5,0.000988113,10,8.67646e-05,-2.53118,0.182854,0.322663,36.9099,0.0294795,
2,1,0,1,0,9046.06,0.031259,0.0309683,2.98165,5,0.00106235,10,9.23367e-05,-2.52554,0.195621,0.301603,35.2142,0.0309683,
2,1,0,1,0,9046.09,0.0327585,0.0324414,3.03809,5,0.00113812,10,9.85598e-05,-2.5174,0.198267,0.297579,35.3857,0.0324414,
2,1,0,1,0,9046.11,0.034258,0.0339986,3.10315,5,0.00121535,10,0.000105503,-2.5082,0.185429,0.318182,38.4648,0.0339986,
2,1,0,1,0,9046.14,0.0357576,0.035433,3.15302,5,0.00129402,10,0.000111721,-2.50127,0.196993,0.299503,36.8529,0.035433,
2,1,0,1,0,9046.16,0.0372518,0.0369437,3.20557,5,0.00137371,10,0.000118425,-2.4941,0.205288,0.287402,36.0503,0.0369437,
2,1,0,1,0,9046.19,0.0387526,0.0383956,3.25795,5,0.00145498,10,0.000125091,-2.48705,0.212803,0.277251,35.3429,0.0383956,
2,1,0,1,0,9046.21,0.0402534,0.0399281,3.32271,5,0.00153768,10,0.000132669,-2.47851,0.19572,0.301451,39.0231,0.0399281,
2,1,0,1,0,9046.24,0.0417476,0.0414571,3.3795,5,0.00162157,10,0.000140104,-2.47115,0.200096,0.294859,38.8247,0.0414571,
2,1,0,1,0,9046.26,0.0432472,0.0429085,3.42324,5,0.00170711,10,0.000146886,-2.46556,0.227224,0.259656,34.7714,0.0429085,
2,1,0,1,0,9046.29,0.0447467,0.0444458,3.47438,5,0.0017939,10,0.000154422,-2.45912,0.235902,0.250104,33.9945,0.0444458,
2,1,0,1,0,9046.31,0.0462463,0.0459377,3.54023,5,0.00188207,10,0.00016263,-2.45097,0.228477,0.258232,35.6198,0.0459377,
2,1,0,1,0,9046.34,0.0477391,0.0473977,3.5892,5,0.00197123,10,0.00017012,-2.445,0.209675,0.281388,39.4472,0.0473977,
2,1,0,1,0,9046.36,0.0492399,0.0489471,3.63833,5,0.0020621,10,0.000178085,-2.4391,0.233266,0.25293,35.9859,0.0489471,
2,1,0,1,0,9046.39,0.0507408,0.0504289,3.69099,5,0.00215428,10,0.000186132,-2.43286,0.259643,0.227235,32.7622,0.0504289,
2,1,0,1,0,9046.41,0.052235,0.0519332,3.75091,5,0.00224736,10,0.000194797,-2.42586,0.239575,0.246269,36.0159,0.0519332,
2,1,0,1,0,9046.43,0.0537345,0.0534253,3.80534,5,0.00234215,10,0.000203301,-2.41961,0.231666,0.254677,37.7615,0.0534253,
2,1,0,1,0,9046.46,0.0552341,0.0549503,3.85329,5,0.00243832,10,0.000211739,-2.41417,0.28119,0.209823,31.5222,0.0549503,
2,1,0,1,0,9046.48,0.0567283,0.056419,3.89684,5,0.00253529,10,0.000219856,-2.40929,0.292635,0.201616,30.7104,0.056419,
2,1,0,1,0,9046.51,0.0582291,0.0579161,3.95781,5,0.00263375,10,0.000229221,-2.40254,0.280986,0.209975,32.3458,0.0579161,
2,1,0,1,0,9046.53,0.0597299,0.0594408,4.0024,5,0.00273358,10,0.000237906,-2.39768,0.259082,0.227727,35.5222,0.0594408,
2,1,0,1,0,9046.56,0.0612228,0.0609132,4.04239,5,0.00283422,10,0.000246235,-2.39336,0.307936,0.191598,30.2816,0.0609132,
2,1,0,1,0,9046.58,0.0627223,0.0624178,4.09333,5,0.00293648,10,0.000255496,-2.38792,0.328599,0.17955,28.7128,0.0624178,
2,1,0,1,0,9046.61,0.0642218,0.0639347,4.14238,5,0.00303984,10,0.000264842,-2.38275,0.319838,0.184469,29.8324,0.0639347,
2,1,0,1,0,9046.63,0.0657214,0.0654021,4.18857,5,0.00314443,10,0.000273942,-2.37793,0.277929,0.212284,34.7006,0.0654021,
2,1,0,1,0,9046.66,0.0672156,0.0668879,4.23768,5,0.00324983,10,0.00028345,-2.37287,0.31362,0.188126,31.1001,0.0668879,
2,1,0,1,0,9046.68,0.0687164,0.0684292,4.28273,5,0.00335681,10,0.000293064,-2.36828,0.363025,0.162523,27.1637,0.0684292,
2,1,0,1,0,9046.71,0.0702172,0.069913,4.32552,5,0.00346478,10,0.00030241,-2.36396,0.346437,0.170305,28.7473,0.069913,
2,1,0,1,0,9046.73,0.0717114,0.071412,4.36911,5,0.00357345,10,0.000312007,-2.35961,0.319984,0.184384,31.4248,0.071412,
2,1,0,1,0,9046.76,0.073211,0.0729359,4.41048,5,0.00368366,10,0.000321683,-2.35551,0.321969,0.183247,31.5945,0.0729359,
2,1,0,1,0,9046.78,0.0747105,0.0743719,4.45444,5,0.00379495,10,0.000331285,-2.35121,0.417962,0.141161,24.5369,0.0743719,
2,1,0,1,0,9046.81,0.0762101,0.0758906,4.48959,5,0.00390725,10,0.000340718,-2.34779,0.427639,0.137967,24.1803,0.0758906,
2,1,0,1,0,9046.83,0.0777042,0.0773897,4.52951,5,0.00401997,10,0.000350537,-2.34395,0.35774,0.164924,29.1755,0.0773897,
2,1,0,1,0,9046.86,0.0792037,0.078879,4.57094,5,0.00413417,10,0.000360551,-2.33999,0.388183,0.15199,27.1103,0.078879,
2,1,0,1,0,9046.88,0.0807046,0.0803723,4.61126,5,0.00424945,10,0.000370618,-2.33618,0.471107,0.125237,22.5228,0.0803723,
2,1,0,1,0,9046.91,0.0821988,0.0818866,4.64685,5,0.00436518,10,0.000380514,-2.33284,0.440871,0.133826,24.2729,0.08188659,
2,1,0,1,0,9046.93,0.0836983,0.0833762,4.68359,5,0.00448225,10,0.0003905,-2.32942,0.380789,0.154942,28.3618,0.0833762,
2,1,0,1,0,9046.96,0.0851979,0.0849032,4.72865,5,0.00460036,10,0.000401477,-2.32526,0.386983,0.152462,28.1484,0.0849032,
2,1,0,1,0,9046.98,0.0866921,0.0863745,4.76853,5,0.00471905,10,0.00041188,-2.32162,0.483511,0.122024,22.7179,0.0863745,
2,1,0,1,0,9047.01,0.0881929,0.0878505,4.81899,5,0.00483924,10,0.000423351,-2.31704,0.448658,0.131503,24.6737,0.0878505,
2,1,0,1,0,9047.03,0.0896937,0.0893388,4.84753,5,0.00496029,10,0.000433073,-2.31448,0.372645,0.158327,29.9935,0.0893388,
2,1,0,1,0,9047.06,0.0911879,0.090862,4.89046,5,0.00508195,10,0.000444357,-2.31065,0.330651,0.178436,34.0927,0.090862,
2,1,0,1,0,9047.08,0.0926861,0.0923312,4.94362,5,0.00520532,10,0.00045645,-2.30596,0.340532,0.173259,33.4429,0.0923312,
2,1,0,1,0,9047.11,0.0941856,0.0938724,4.99828,5,0.00532998,10,0.0004692,-2.30118,0.320735,0.183952,35.878,0.0938724,
2,1,0,1,0,9047.13,0.0956852,0.0953702,5.04494,5,0.00545596,10,0.000481137,-2.29714,0.275928,0.213824,42.2232,0.0953702,
2,1,0,1,0,9047.16,0.0971794,0.0969067,5.10845,5,0.00558292,10,0.000495043,-2.29171,0.264221,0.223298,44.6073,0.0969067,
2,1,0,1,0,9047.18,0.0986802,0.0983867,5.18244,5,0.00571206,10,0.000509883,-2.28547,0.279347,0.211207,42.7371,0.0983867,
2,1,0,1,0,9047.21,0.100181,0.0998582,5.25793,5,0.0058429,10,0.000525047,-2.27919,0.269746,0.218724,44.7973,0.0998582,
2,1,0,1,0,9047.23,0.101675,0.101363,5.32339,5,0.005975,10,0.000539592,-2.27381,0.231806,0.254523,52.9099,0.101363,
2,1,0,1,0,9047.26,0.103175,0.102853,5.40062,5,0.00610946,10,0.000555471,-2.26756,0.22749,0.259352,54.8014,0.102853,
2,1,0,1,0,9047.28,0.104674,0.104381,5.49254,5,0.00624608,10,0.000573315,-2.26023,0.214962,0.274467,58.9055,0.104381,
2,1,0,1,0,9047.31,0.106169,0.105901,5.58603,5,0.00638442,10,0.000591564,-2.2529,0.219375,0.268946,58.5654,0.105901,
2,1,0,1,0,9047.33,0.107668,0.107372,5.67674,5,0.00652562,10,0.000609525,-2.2459,0.205056,0.287726,63.7176,0.107372,
2,1,0,1,0,9047.36,0.109169,0.108844,5.76451,5,0.00666903,10,0.000627435,-2.23924,0.207419,0.284449,64.0669,0.108844,
2,1,0,1,0,9047.38,0.110663,0.110322,5.85713,5,0.00681423,10,0.000646169,-2.23232,0.217564,0.271185,62.0691,0.110322,
2,1,0,1,0,9047.41,0.112163,0.111833,5.96499,5,0.00696245,10,0.000667083,-2.22439,0.22535,0.261815,60.8298,0.111833,
2,1,0,1,0,9047.43,0.113662,0.113349,6.05609,5,0.00711307,10,0.000686455,-2.21781,0.227965,0.258811,61.0417,0.113349,
2,1,0,1,0,9047.46,0.115162,0.114837,6.13645,5,0.00726589,10,0.00070469,-2.21208,0.235806,0.250206,59.9867,0.114837,
2,1,0,1,0,9047.48,0.116656,0.116332,6.22558,5,0.00742027,10,0.000724237,-2.20582,0.247014,0.238853,58.0442,0.116332,
2,1,0,1,0,9047.51,0.118157,0.117828,6.32467,5,0.00757757,10,0.000745226,-2.19896,0.280053,0.210675,51.8388,0.117828,
2,1,0,1,0,9047.53,0.119657,0.119367,6.39868,5,0.00773694,10,0.000763794,-2.19391,0.307049,0.192152,47.8776,0.119367,
2,1,0,1,0,9047.56,0.121152,0.120862,6.45732,5,0.00789736,10,0.000780446,-2.18995,0.310096,0.190263,47.9871,0.120862,
2,1,0,1,0,9047.58,0.122651,0.122355,6.52956,5,0.00806007,10,0.000798922,-2.18512,0.34359,0.171716,43.7368,0.122355,
2,1,0,1,0,9047.61,0.124151,0.12381,6.59555,5,0.00822455,10,0.000816596,-2.18075,0.352853,0.167208,42.985,0.12381,
2,1,0,1,0,9047.63,0.125649,0.125319,6.6516,5,0.00839063,10,0.000833573,-2.17707,0.39755,0.148409,38.4787,0.125319,
2,1,0,1,0,9047.66,0.127143,0.126818,6.69693,5,0.00855741,10,0.00084929,-2.17412,0.418826,0.14087,36.9004,0.126818,
2,1,0,1,0,9047.68,0.128644,0.128334,6.75692,5,0.00872607,10,0.000867141,-2.17025,0.448289,0.131612,34.7529,0.128334,
2,1,0,1,0,9047.71,0.130145,0.129856,6.81989,5,0.00889624,10,0.000885607,-2.16622,0.443863,0.132924,35.3474,0.129856,
2,1,0,1,0,9047.73,0.131639,0.13136,6.88065,5,0.0090672,10,0.000903845,-2.16237,0.460076,0.12824,34.3446,0.13136,
2,1,0,1,0,9047.76,0.133139,0.132869,6.92033,5,0.00924009,10,0.000919494,-2.15987,0.486709,0.121222,32.773,0.132869,
2,1,0,1,0,9047.78,0.134638,0.134346,6.96283,5,0.009414,10,0.000935431,-2.15721,0.545888,0.108081,29.4101,0.134346,
2,1,0,1,0,9047.81,0.136132,0.135827,7.01573,5,0.00958852,10,0.000952926,-2.15393,0.559757,0.105403,28.8195,0.135827,
2,1,0,1,0,9047.83,0.137633,0.137332,7.05896,5,0.00976482,10,0.000969419,-2.15126,0.644415,0.091556,25.1672,0.137332,
2,1,0,1,0,9047.86,0.139133,0.138816,7.08647,5,0.00994204,10,0.000983719,-2.14957,0.892595,0.0660994,18.2518,0.138816,
2,1,0,1,0,9047.88,0.140627,0.140318,7.09877,5,0.0101191,10,0.000996082,-2.14882,2.10777,0.0279917,7.74889,0.1403175,
2,1,0,1,0,9047.91,0.142126,0.141863,7.11337,5,0.0102973,10,0.00100912,-2.14792,-4.40913,-0.0133813,-3.70327,0.141863,
2,1,0,1,0,9047.93,0.143626,0.143335,7.10317,5,0.0104755,10,0.00101813,-2.14855,-0.916594,-0.0643687,-17.7728,0.143335,
2,1,0,1,0,9047.96,0.145125,0.144808,7.0548,5,0.0106529,10,0.00102159,-2.15152,-0.428623,-0.13765,-37.7962,0.144808,
2,1,0,1,0,9047.98,0.14662,0.146355,6.97715,5,0.0108282,10,0.00102114,-2.15632,-0.27343,-0.215777,-58.6471,0.146355,
2,1,0,1,0,9048.01,0.14812,0.147857,6.88625,5,0.0110021,10,0.00101818,-2.16202,-0.197193,-0.2992,-80.0308,0.147857,
2,1,0,1,0,9048.03,0.149621,0.149303,6.76071,5,0.0111731,10,0.00100939,-2.17001,-0.156919,-0.37599,-98.5964,0.149303,
2,1,0,1,0,9048.06,0.151115,0.150839,6.58873,5,0.0113396,10,0.000993838,-2.1812,-0.12632,-0.467069,-119.489,0.150839,
2,1,0,1,0,9048.08,0.152615,0.152322,6.38186,5,0.0115023,10,0.0009721,-2.19505,-0.105161,-0.561047,-139.418,0.1523224,
2,1,0,1,0,9048.11,0.154115,0.153802,6.17192,5,0.0116597,10,0.000949252,-2.20958,-0.0923318,-0.639,-153.458,0.153802,
2,1,0,1,0,9048.13,0.155614,0.155339,5.93491,5,0.0118113,10,0.000921925,-2.22659,-0.0837364,-0.704592,-162.537,0.155339,
2,1,0,1,0,9048.16,0.157107,0.156851,5.67904,5,0.0119564,10,0.000890763,-2.24573,-0.0768383,-0.767846,-169.919,0.156851,
2,1,0,1,0,9048.18,0.158608,0.158305,5.42425,5,0.0120956,10,0.000858686,-2.26566,-0.0739439,-0.797902,-169.01,0.158305,
2,1,0,1,0,9048.21,0.160109,0.159794,5.18334,5,0.0122285,10,0.000828267,-2.28539,-0.0732548,-0.805408,-162.902,0.159794,
2,1,0,1,0,9048.23,0.161603,0.161298,4.95278,5,0.0123549,10,0.000798872,-2.30515,-0.0755977,-0.780447,-150.738,0.161298,
2,1,0,1,0,9048.26,0.163102,0.162823,4.73073,5,0.0124762,10,0.000770272,-2.32507,-0.079013,-0.746712,-138.155,0.162823,
2,1,0,1,0,9048.28,0.164602,0.164335,4.52942,5,0.0125924,10,0.000744344,-2.34396,-0.0809982,-0.728411,-129.223,0.164335,
2,1,0,1,0,9048.31,0.166096,0.165781,4.35418,5,0.0127033,10,0.000721839,-2.36109,-0.0880367,-0.670175,-114.244,0.165781,
2,1,0,1,0,9048.33,0.167597,0.167312,4.20202,5,0.0128105,10,0.00070305,-2.37654,-0.100225,-0.588677,-96.6238,0.167312,
2,1,0,1,0,9048.36,0.169098,0.16879,4.05226,5,0.0129141,10,0.000683981,-2.3923,-0.107259,-0.550073,-87.238,0.16879,
2,1,0,1,0,9048.38,0.170592,0.170263,3.9268,5,0.0130139,10,0.000668589,-2.40596,-0.109071,-0.54093,-83.1462,0.170263,
2,1,0,1,0,9048.41,0.17209,0.171819,3.8064,5,0.0131109,10,0.000654011,-2.41949,-0.11493,-0.513357,-76.4819,0.171819,
2,1,0,1,0,9048.43,0.17359,0.173269,3.70867,5,0.0132052,10,0.000642596,-2.43078,-0.130736,-0.451292,-65.3984,0.173269,
2,1,0,1,0,9048.46,0.175089,0.174791,3.609,5,0.0132971,10,0.000630822,-2.44261,-0.139522,-0.422871,-59.7036,0.1747915,
2,1,0,1,0,9048.48,0.176583,0.176277,3.5264,5,0.0133864,10,0.000621625,-2.45267,-0.147596,-0.399739,-55.1098,0.176277,
2,1,0,1,0,9048.51,0.178084,0.177767,3.44563,5,0.013474,10,0.000612517,-2.46273,-0.151604,-0.389172,-52.444,0.177767,
2,1,0,1,0,9048.53,0.179585,0.179285,3.37713,5,0.0135597,10,0.000605468,-2.47145,-0.174351,-0.338397,-44.6816,0.179285,
2,1,0,1,0,9048.56,0.181079,0.180763,3.31339,5,0.0136434,10,0.000598937,-2.47973,-0.196918,-0.299618,-38.8153,0.180763,
2,1,0,1,0,9048.58,0.182579,0.182275,3.25022,5,0.0137259,10,0.000592433,-2.48809,-0.18646,-0.316423,-40.2218,0.182275,
2,1,0,1,0,9048.61,0.184078,0.18378,3.19999,5,0.013807,10,0.000588093,-2.49485,-0.199153,-0.296254,-37.026,0.18378,
2,1,0,1,0,9048.63,0.185578,0.185295,3.14897,5,0.0138866,10,0.000583489,-2.50183,-0.230263,-0.256229,-31.5227,0.185295,
2,1,0,1,0,9048.66,0.187072,0.186772,3.09886,5,0.0139647,10,0.000578779,-2.5088,-0.27351,-0.215714,-26.1304,0.186772,
2,1,0,1,0,9048.68,0.188573,0.188311,3.05524,5,0.0140421,10,0.000575336,-2.51495,-0.260047,-0.226882,-27.0874,0.188311,
2,1,0,1,0,9048.71,0.190072,0.189747,3.02028,5,0.0141185,10,0.000573088,-2.51995,-0.240125,-0.245706,-28.9391,0.189747,
2,1,0,1,0,9048.73,0.191567,0.191241,2.98372,5,0.0141935,10,0.000570609,-2.52524,-0.30675,-0.192339,-22.3689,0.191241,
2,1,0,1,0,9048.76,0.193066,0.192761,2.94153,5,0.014268,10,0.000567012,-2.53143,-0.420189,-0.140413,-16.1619,0.192761,
2,1,0,1,0,9048.78,0.194566,0.194217,2.91439,5,0.0143417,10,0.000566024,-2.53545,-0.343227,-0.171898,-19.6052,0.194217,
2,1,0,1,0,9048.81,0.19606,0.195776,2.8879,5,0.0144144,10,0.000565381,-2.53942,-0.308301,-0.191371,-21.5711,0.195776,
2,1,0,1,0,9048.83,0.197561,0.197276,2.86071,5,0.0144867,10,0.000564348,-2.54353,-0.333779,-0.176764,-19.7485,0.197276,
2,1,0,1,0,9048.86,0.199062,0.198772,2.83324,5,0.0145583,10,0.000563169,-2.54772,-0.414805,-0.142235,-15.7479,0.198772,
2,1,0,1,0,9048.88,0.200556,0.200236,2.80835,5,0.014629,10,0.000562333,-2.55155,-0.438117,-0.134667,-14.7893,0.200236,
2,1,0,1,0,9048.91,0.202055,0.201777,2.79431,5,0.0146994,10,0.000563827,-2.55373,-0.410918,-0.143581,-15.6236,0.201777,
2,1,0,1,0,9048.93,0.203553,0.203255,2.77329,5,0.0147694,10,0.000563685,-2.557,-0.478346,-0.123342,-13.339,0.203255,
2,1,0,1,0,9048.96,0.205053,0.204758,2.74849,5,0.0148387,10,0.000562777,-2.56091,-0.854337,-0.0690594,-7.44807,0.204758,
2,1,0,1,0,9048.98,0.206547,0.206214,2.72799,5,0.0149075,10,0.00056255,-2.56416,-0.633007,-0.093206,-9.95941,0.206214,
2,1,0,1,0,9049.01,0.208048,0.207761,2.72619,5,0.0149762,10,0.000566395,-2.56444,-0.45232,-0.130439,-13.8379,0.207761,
2,1,0,1,0,9049.03,0.209549,0.209262,2.70815,5,0.0150445,10,0.000566712,-2.56733,-0.513355,-0.11493,-12.1215,0.209262,
2,1,0,1,0,9049.06,0.211043,0.210778,2.68474,5,0.015112,10,0.000565883,-2.5711,-0.732419,-0.080555,-8.45278,0.210778,
2,1,0,1,0,9049.08,0.212543,0.212272,2.66643,5,0.0151795,10,0.000566009,-2.57407,-0.730042,-0.0808173,-8.4404,0.212272,
2,1,0,1,0,9049.11,0.214042,0.213697,2.66276,5,0.0152466,10,0.000569026,-2.57467,-0.624031,-0.0945466,-9.84458,0.2136974,
2,1,0,1,0,9049.13,0.215536,0.215272,2.65739,5,0.0153132,10,0.000572063,-2.57554,-0.69354,-0.0850708,-8.79375,0.215272,
2,1,0,1,0,9049.16,0.217036,0.216705,2.63533,5,0.0153797,10,0.000571088,-2.57917,-1.01165,-0.0583208,-6.01285,0.216705,
2,1,0,1,0,9049.18,0.218537,0.2183,2.62037,5,0.0154459,10,0.000572028,-2.58164,-1.55002,-0.038064,-3.9086,0.2183003,
2,1,0,1,0,9049.21,0.220031,0.219745,2.62006,5,0.0155116,10,0.000575746,-2.58169,-0.829693,-0.0711106,-7.26777,0.219745,
2,1,0,1,0,9049.23,0.22153,0.221231,2.61766,5,0.0155775,10,0.000579109,-2.58209,-0.729277,-0.080902,-8.22753,0.221231,
2,1,0,1,0,9049.26,0.22303,0.222772,2.59345,5,0.015643,10,0.000577749,-2.58612,-1.81524,-0.0325027,-3.29936,0.222772,
2,1,0,1,0,9049.28,0.224529,0.224229,2.58358,5,0.0157083,10,0.000579313,-2.58778,-1.15458,-0.0511007,-5.17716,0.224229,
2,1,0,1,0,9049.31,0.226024,0.225741,2.58079,5,0.0157731,10,0.00058259,-2.58825,-0.745968,-0.0790919,-7.97564,0.225741,
2,1,0,1,0,9049.33,0.227525,0.22721,2.58237,5,0.015838,10,0.000586738,-2.58798,-0.761843,-0.0774438,-7.76791,0.22721,
2,1,0,1,0,9049.36,0.229025,0.228751,2.56919,5,0.0159028,10,0.000587705,-2.5902,-1.30842,-0.0450927,-4.51918,0.228751,
2,1,0,1,0,9049.38,0.23052,0.230203,2.55481,5,0.0159669,10,0.000588126,-2.59264,-2.18493,-0.0270031,-2.69865,0.230203,
2,1,0,1,0,9049.41,0.232019,0.231732,2.55179,5,0.0160313,10,0.000591332,-2.59316,-0.977816,-0.0603386,-6.0088,0.231732,
2,1,0,1,0,9049.43,0.233519,0.233175,2.55574,5,0.0160955,10,0.000595933,-2.59248,-1.43527,-0.0411073,-4.08081,0.233175,
2,1,0,1,0,9049.46,0.235018,0.234717,2.54432,5,0.0161595,10,0.000597194,-2.59443,-1.72288,-0.0342451,-3.39331,0.234717,
2,1,0,1,0,9049.48,0.236511,0.236208,2.52651,5,0.016223,10,0.000596784,-2.59748,-1.85427,-0.0318185,-3.15423,0.236208,
2,1,0,1,0,9049.51,0.238012,0.237726,2.52447,5,0.0162866,10,0.000600133,-2.59783,-1.03808,-0.0568357,-5.60665,0.237726,
2,1,0,1,0,9049.53,0.239513,0.239227,2.52905,5,0.0163502,10,0.000605018,-2.59704,-1.11307,-0.0530065,-5.21121,0.239227,
2,1,0,1,0,9049.56,0.241007,0.240736,2.51588,5,0.0164133,10,0.000605663,-2.59931,-1.5611,-0.037794,-3.70667,0.240736,
2,1,0,1,0,9049.58,0.242506,0.242204,2.50152,5,0.0164765,10,0.000605878,-2.6018,-1.84132,-0.0320423,-3.1406,0.242204,
2,1,0,1,0,9049.61,0.244006,0.243709,2.50194,5,0.0165396,10,0.000609745,-2.60172,-1.85833,-0.031749,-3.11032,0.243709,
2,1,0,1,0,9049.63,0.2455,0.245227,2.50544,5,0.0166023,10,0.0006144,-2.60112,-1.96823,-0.0299761,-2.9246,0.245227,
2,1,0,1,0,9049.66,0.247001,0.24669,2.49813,5,0.0166652,10,0.000616265,-2.60238,-1.63307,-0.0361282,-3.51084,0.24669,
2,1,0,1,0,9049.68,0.248502,0.248193,2.47846,5,0.0167279,10,0.000615135,-2.60582,-1.47188,-0.0400849,-3.89706,0.248193,
2,1,0,1,0,9049.71,0.249995,0.24968,2.48177,5,0.0167901,10,0.000619649,-2.60524,-1.1837,-0.0498438,-4.83321,0.24968,
2,1,0,1,0,9049.73,0.251494,0.251225,2.48177,5,0.0168526,10,0.000623481,-2.60524,-1.98801,-0.0296779,-2.87261,0.251225,
2,1,0,1,0,9049.76,0.252994,0.252712,2.47451,5,0.0169149,10,0.000625338,-2.60651,-1.70254,-0.0346541,-3.34226,0.252712,
2,1,0,1,0,9049.78,0.254493,0.254204,2.46041,5,0.0169772,10,0.000625446,-2.60899,-1.44959,-0.0407011,-3.92649,0.2542035,
2,1,0,1,0,9049.81,0.255988,0.25569,2.46017,5,0.0170389,10,0.000629042,-2.60903,-1.27317,-0.0463409,-4.46431,0.2556901,
2,1,0,1,0,9049.83,0.257488,0.257203,2.46676,5,0.0171008,10,0.000634459,-2.60787,-2.61265,-0.0225824,-2.16721,0.257203,
2,1,0,1,0,9049.86,0.258989,0.258733,2.46313,5,0.0171627,10,0.000637292,-2.60851,49.3647,0.00119519,0.114326,0.258733,
2,1,0,1,0,9049.88,0.260483,0.260198,2.4477,5,0.0172243,10,0.000636887,-2.61124,-1.1586,-0.0509237,-4.86747,0.2601977,
2,1,0,1,0,9049.91,0.261983,0.261699,2.44007,5,0.0172858,10,0.000638565,-2.6126,-0.961869,-0.0613389,-5.85378,0.2616989,
2,1,0,1,0,9049.93,0.263482,0.263189,2.43965,5,0.0173473,10,0.000642088,-2.61267,-2.18426,-0.0270114,-2.5712,0.263189,
2,1,0,1,0,9049.96,0.264982,0.264656,2.43453,5,0.0174086,10,0.000644312,-2.61358,-4.31245,-0.0136813,-1.30047,0.264656,
2,1,0,1,0,9049.98,0.266476,0.266189,2.42719,5,0.0174696,10,0.000646092,-2.6149,-1.72111,-0.0342802,-3.25357,0.2661891,
2,1,0,1,0,9050.01,0.267976,0.267689,2.42115,5,0.0175307,10,0.000648116,-2.61598,-1.02039,-0.0578209,-5.47195,0.267689,
2,1,0,1,0,9050.03,0.269477,0.2692,2.42164,5,0.0175917,10,0.000651907,-2.61589,-2.40578,-0.0245243,-2.31448,0.2692,
2,1,0,1,0,9050.06,0.270971,0.270698,2.42243,5,0.0176523,10,0.000655747,-2.61575,-4.63739,-0.0127227,-1.1993,0.270698,
2,1,0,1,0,9050.08,0.27247,0.272168,2.41145,5,0.0177132,10,0.00065632,-2.61772,-1.79482,-0.0328723,-3.09284,0.272168,
2,1,0,1,0,9050.11,0.27397,0.27367,2.4032,5,0.0177739,10,0.000657682,-2.61921,-0.818806,-0.0720561,-6.77966,0.27367,
2,1,0,1,0,9050.13,0.275464,0.275219,2.40173,5,0.0178341,10,0.000661,-2.61948,-1.03097,-0.0572278,-5.36538,0.275219,
2,1,0,1,0,9050.16,0.276965,0.276688,2.39807,5,0.0178945,10,0.000663517,-2.62014,-4.59248,-0.0128471,-1.20151,0.276688,
2,1,0,1,0,9050.18,0.278466,0.278173,2.39021,5,0.0179548,10,0.00066489,-2.62156,-1.35549,-0.0435267,-4.06488,0.278173,
2,1,0,1,0,9050.21,0.27996,0.279671,2.38529,5,0.0180147,10,0.000667096,-2.62246,-0.941731,-0.0626506,-5.84229,0.279671,
2,1,0,1,0,9050.23,0.281458,0.281073,2.38325,5,0.0180747,10,0.000669867,-2.62283,-1.71023,-0.0344982,-3.20741,0.281073,
2,1,0,1,0,9050.26,0.282958,0.282675,2.38007,5,0.0181347,10,0.000672786,-2.62341,-11.3723,-0.00518805,-0.480933,0.282675,
2,1,0,1,0,9050.28,0.284457,0.284166,2.37082,5,0.0181945,10,0.000673708,-2.6251,-1.8162,-0.0324853,-3.01502,0.284166,
2,1,0,1,0,9050.31,0.285951,0.285646,2.36597,5,0.018254,10,0.00067583,-2.62599,-0.760577,-0.0775727,-7.17807,0.285646,
2,1,0,1,0,9050.33,0.287452,0.28716,2.36477,5,0.0183135,10,0.000679069,-2.62621,-1.53008,-0.03856,-3.55553,0.28716,
2,1,0,1,0,9050.36,0.288953,0.28867,2.35822,5,0.0183729,10,0.000680748,-2.62741,-4.6848,-0.0125939,-1.15663,0.28867,
2,1,0,1,0,9050.38,0.290447,0.290184,2.34932,5,0.018432,10,0.000681735,-2.62906,-2.89295,-0.0203944,-1.87372,0.290184,
2,1,0,1,0,9050.41,0.291947,0.291613,2.34426,5,0.0184911,10,0.000683617,-2.62999,-0.661749,-0.0891577,-8.1722,0.291613,
2,1,0,1,0,9050.43,0.293446,0.293167,2.34106,5,0.0185502,10,0.000686321,-2.63059,-0.788249,-0.0748494,-6.83895,0.293167,
2,1,0,1,0,9050.46,0.29494,0.29463,2.34239,5,0.0186088,10,0.000690139,-2.63034,15.4877,0.00380947,0.347723,0.29463,
2,1,0,1,0,9050.48,0.29644,0.296175,2.33751,5,0.0186676,10,0.000692313,-2.63125,-4.03433,-0.0146245,-1.33171,0.296175,
2,1,0,1,0,9050.51,0.297941,0.29768,2.3319,5,0.0187264,10,0.00069416,-2.63229,-0.957959,-0.0615893,-5.59371,0.29768,
2,1,0,1,0,9050.53,0.29944,0.299164,2.32776,5,0.018785,10,0.000696382,-2.63306,-0.00482497,-12.228,-742.378,0.299164,
2,1,0,1,0,9050.54,0.299736,0.299456,1.71387,5,0.0188145,10,0.000513229,-2.76602,0.00070485,83.7057,2020.85,0.299456,
2,1,0,1,0,9050.57,0.298238,0.297946,0.17927,5,0.0188338,10,5.34126e-05,-3.74649,0.00531307,11.1047,714.752,0.297946,
2,0,0,1,0,9050.59,0.296744,0.296466,-0.329608,5,0.0188305,10,-9.77177e-05,-3.482,-0.0437922,-1.34727,277.734,0.296466,
2,0,0,1,0,9050.62,0.295243,0.294951,-0.561208,5,0.0188185,10,-0.000165529,-3.25088,-0.00773222,-7.63041,122.915,0.294951,
2,0,0,1,0,9050.64,0.293742,0.293416,-0.688996,5,0.0188024,10,-0.000202162,-3.16178,-0.0199886,-2.95168,73.1547,0.293416,
2,0,0,1,0,9050.67,0.292248,0.291955,-0.765547,5,0.0187839,10,-0.000223505,-3.11603,-0.0319133,-1.84876,53.8345,0.291955,
2,0,0,1,0,9050.69,0.290748,0.290469,-0.832068,5,0.0187633,10,-0.00024169,-3.07984,-0.0452076,-1.30509,41.8348,0.290469,
2,0,0,1,0,9050.72,0.289249,0.288939,-0.895109,5,0.0187413,10,-0.000258631,-3.04812,-0.0591608,-0.997282,34.4697,0.288939,
2,0,0,1,0,9050.74,0.287754,0.28741,-0.94273,5,0.018718,10,-0.00027095,-3.02561,-0.070596,-0.835741,30.4224,0.28741,
2,0,0,1,0,9050.77,0.286254,0.285939,-0.976306,5,0.0186935,10,-0.000279164,-3.01041,-0.0784807,-0.751778,28.7398,0.285939,
2,0,0,1,0,9050.79,0.284754,0.284462,-1.01836,5,0.0186681,10,-0.000289683,-2.9921,-0.0887451,-0.664825,26.4945,0.284462,
2,0,0,1,0,9050.82,0.28326,0.282948,-1.06123,5,0.0186417,10,-0.000300274,-2.97419,-0.114879,-0.513585,21.0909,0.282948,
2,0,0,1,0,9050.84,0.28176,0.281408,-1.09818,5,0.0186143,10,-0.000309037,-2.95933,-0.121543,-0.485426,20.5294,0.281408,
2,0,0,1,0,9050.87,0.280261,0.279948,-1.11648,5,0.0185862,10,-0.000312555,-2.95215,-0.122534,-0.4815,21.0242,0.279948,
2,0,0,1,0,9050.89,0.278761,0.278455,-1.14644,5,0.0185574,10,-0.000319233,-2.94065,-0.146685,-0.402222,18.0889,0.278455,
2,0,0,1,0,9050.92,0.277267,0.276965,-1.18156,5,0.0185279,10,-0.000327252,-2.92754,-0.175365,-0.336441,15.467,0.2769649,
2,0,0,1,0,9050.94,0.275766,0.275434,-1.21081,5,0.0184976,10,-0.0003335,-2.91692,-0.177156,-0.333039,15.5975,0.2754344,
2,0,0,1,0,9050.97,0.274265,0.273958,-1.22934,5,0.0184667,10,-0.000336788,-2.91033,-0.164176,-0.359371,17.2494,0.273958,
2,0,0,1,0,9050.99,0.272771,0.272491,-1.24762,5,0.0184354,10,-0.000339965,-2.90392,-0.182371,-0.323517,15.8813,0.272491,
2,0,0,1,0,9051.02,0.271272,0.270952,-1.27892,5,0.0184033,10,-0.000346525,-2.89316,-0.212497,-0.277651,13.8265,0.270952,
2,0,0,1,0,9051.04,0.269772,0.269478,-1.31042,5,0.0183706,10,-0.000353128,-2.88259,-0.18686,-0.315744,15.9563,0.269478,
2,0,0,1,0,9051.07,0.268273,0.267986,-1.32015,5,0.0183373,10,-0.000353782,-2.87938,-0.214779,-0.274701,14.1591,0.267986,
2,0,0,1,0,9051.09,0.26678,0.266452,-1.33372,5,0.0183037,10,-0.000355373,-2.87493,-0.245585,-0.240243,12.6152,0.266452,
2,0,0,1,0,9051.12,0.265279,0.264973,-1.36163,5,0.0182696,10,-0.000360795,-2.86594,-0.264221,-0.223298,11.8596,0.264973,
2,0,0,1,0,9051.14,0.263778,0.263487,-1.38463,5,0.0182348,10,-0.000364832,-2.85867,-0.258541,-0.228204,12.2476,0.263487,
2,0,0,1,0,9051.17,0.262284,0.261989,-1.40199,5,0.0181997,10,-0.000367306,-2.85325,-0.262198,-0.225021,12.2593,0.261989,
2,0,0,1,0,9051.19,0.260784,0.260538,-1.40261,5,0.0181642,10,-0.000365435,-2.85306,-0.271094,-0.217637,12.0351,0.260538,
2,0,0,1,0,9051.22,0.259285,0.258999,-1.43121,5,0.0181282,10,-0.000370683,-2.8443,-0.272388,-0.216602,12.1291,0.258999,
2,0,0,1,0,9051.24,0.257791,0.257485,-1.45657,5,0.0180918,10,-0.000375046,-2.83667,-0.281286,-0.209751,11.8874,0.257485,
2,0,0,1,0,9051.27,0.25629,0.255939,-1.47079,5,0.0180548,10,-0.000376434,-2.83245,-0.279134,-0.211368,12.0766,0.255939,
2,0,0,1,0,9051.29,0.254789,0.254541,-1.48039,5,0.0180174,10,-0.00037682,-2.82962,-0.301764,-0.195517,11.3598,0.254541,
2,0,0,1,0,9051.32,0.253296,0.252962,-1.4996,5,0.0179799,10,-0.000379341,-2.82403,-0.385975,-0.15286,8.951,0.252962,
2,0,0,1,0,9051.34,0.251797,0.251472,-1.51772,5,0.0179417,10,-0.000381664,-2.81881,-0.265427,-0.222284,13.1424,0.2514725,
2,0,0,1,0,9051.37,0.250297,0.250012,-1.53024,5,0.0179032,10,-0.000382579,-2.81524,-0.311944,-0.189136,11.2892,0.250012,
2,0,0,1,0,9051.39,0.248797,0.248482,-1.53827,5,0.0178642,10,-0.000382232,-2.81297,-0.397032,-0.148603,8.97734,0.248482,
2,0,0,1,0,9051.42,0.247303,0.247,-1.56083,5,0.0178252,10,-0.000385525,-2.80664,-0.396554,-0.148782,9.07065,0.247,
2,0,0,1,0,9051.44,0.245802,0.245518,-1.58382,5,0.0177855,10,-0.000388855,-2.80029,-0.351339,-0.167929,10.2974,0.245518,
2,0,0,1,0,9051.47,0.244302,0.244002,-1.59905,5,0.0177454,10,-0.00039017,-2.79614,-0.30083,-0.196124,12.1814,0.244002,
2,0,0,1,0,9051.49,0.242807,0.242488,-1.60283,5,0.0177051,10,-0.000388667,-2.79511,-0.46031,-0.128174,8.03341,0.242488,
2,0,0,1,0,9051.52,0.241308,0.241005,-1.61682,5,0.0176644,10,-0.000389662,-2.79134,-0.565751,-0.104286,6.59829,0.241005,
2,0,0,1,0,9051.54,0.239808,0.239463,-1.63497,5,0.0176233,10,-0.000391515,-2.78649,-0.336477,-0.175346,11.1538,0.239463,
2,0,0,1,0,9051.57,0.238309,0.238015,-1.64633,5,0.0175818,10,-0.000391851,-2.78348,-0.359923,-0.163924,10.5359,0.238015,
2,0,0,1,0,9051.59,0.236815,0.236523,-1.65471,5,0.0175402,10,-0.000391375,-2.78128,-0.440213,-0.134026,8.68556,0.236523,
2,0,0,1,0,9051.62,0.235315,0.234996,-1.66413,5,0.0174981,10,-0.000391065,-2.77881,-0.498537,-0.118346,7.72749,0.234996,
2,0,0,1,0,9051.64,0.233814,0.233505,-1.6951,5,0.0174556,10,-0.000395814,-2.77081,-0.409388,-0.144118,9.49417,0.233505,
2,0,0,1,0,9051.67,0.23232,0.231983,-1.70584,5,0.017413,10,-0.000395725,-2.76806,-0.344982,-0.171023,11.3492,0.2319828,
2,0,0,1,0,9051.69,0.230821,0.230524,-1.71143,5,0.0173697,10,-0.000394526,-2.76664,-0.604055,-0.0976733,6.54457,0.230524,
2,0,0,1,0,9051.72,0.229321,0.229008,-1.7248,5,0.0173262,10,-0.000394994,-2.76326,-0.656586,-0.0898588,6.07141,0.229008,
2,0,0,1,0,9051.74,0.227827,0.227505,-1.74506,5,0.0172827,10,-0.00039701,-2.75819,-0.429956,-0.137223,9.33485,0.227505,
2,0,0,1,0,9051.77,0.226326,0.226064,-1.75734,5,0.0172385,10,-0.000397271,-2.75514,-0.379722,-0.155377,10.6243,0.226064,
2,0,0,1,0,9051.79,0.224825,0.2245,-1.76785,5,0.017194,10,-0.000396881,-2.75256,-0.538808,-0.109501,7.55685,0.2245,
2,0,0,1,0,9051.82,0.223331,0.223018,-1.78394,5,0.0171493,10,-0.000397851,-2.74862,-0.553007,-0.106689,7.41518,0.223018,
2,0,0,1,0,9051.84,0.221831,0.221517,-1.79292,5,0.0171043,10,-0.000397162,-2.74644,-0.411822,-0.143266,10.0289,0.221517,
2,0,0,1,0,9051.87,0.220333,0.220026,-1.81163,5,0.0170588,10,-0.000398607,-2.74193,-0.300811,-0.196136,13.8218,0.220026,
2,0,0,1,0,9051.89,0.218834,0.218557,-1.81609,5,0.0170129,10,-0.000396918,-2.74086,-0.395632,-0.149129,10.6312,0.218557,
2,0,0,1,0,9051.92,0.217339,0.21705,-1.83471,5,0.0169669,10,-0.000398224,-2.73643,-0.826313,-0.0714015,5.11735,0.21705,
2,0,0,1,0,9051.94,0.215839,0.21554,-1.84899,5,0.0169204,10,-0.000398532,-2.73306,-0.493835,-0.119473,8.60922,0.21554,
2,0,0,1,0,9051.97,0.214338,0.214014,-1.86137,5,0.0168737,10,-0.00039836,-2.73017,-0.367547,-0.160523,11.6244,0.214014,
2,0,0,1,0,9051.99,0.212844,0.212516,-1.86988,5,0.0168267,10,-0.000397381,-2.72819,-0.50019,-0.117955,8.6274,0.212516,
2,0,0,1,0,9052.02,0.211344,0.21106,-1.88653,5,0.0167793,10,-0.000398171,-2.72434,-0.671523,-0.08786,6.47857,0.21106,
2,0,0,1,0,9052.04,0.209845,0.209497,-1.90119,5,0.0167314,10,-0.000398293,-2.72097,-0.557061,-0.105913,7.84607,0.209497,
2,0,0,1,0,9052.07,0.20835,0.208049,-1.91896,5,0.0166835,10,-0.000399237,-2.71694,-0.288396,-0.20458,15.3301,0.208049,
2,0,0,1,0,9052.09,0.206851,0.20651,-1.93166,5,0.016635,10,-0.000398908,-2.71407,-0.372286,-0.15848,11.9499,0.20651,
2,0,0,1,0,9052.12,0.20535,0.205012,-1.94922,5,0.0165859,10,-0.000399612,-2.71014,-0.627153,-0.0940759,7.13078,0.2050115,
2,0,0,1,0,9052.14,0.203856,0.203517,-1.9646,5,0.0165368,10,-0.00039983,-2.70672,-0.544042,-0.108447,8.29281,0.203517,
2,0,0,1,0,9052.17,0.202356,0.202023,-1.97541,5,0.0164872,10,-0.000399078,-2.70434,-0.389571,-0.151448,11.6804,0.202023,
2,0,0,1,0,9052.19,0.200857,0.200559,-1.98442,5,0.0164373,10,-0.000397993,-2.70237,-0.386289,-0.152735,11.8679,0.200559,
2,0,0,1,0,9052.22,0.199357,0.199051,-2.00044,5,0.0163869,10,-0.000398189,-2.69888,-0.67097,-0.0879323,6.88392,0.199051,
2,0,0,1,0,9052.24,0.197863,0.197504,-2.02409,5,0.0163363,10,-0.000399767,-2.69377,-0.517858,-0.113931,8.97253,0.197504,
2,0,0,1,0,9052.27,0.196362,0.196062,-2.03676,5,0.0162852,10,-0.000399331,-2.69106,-0.394323,-0.149624,11.8879,0.196062,
2,0,0,1,0,9052.29,0.194861,0.194548,-2.04973,5,0.0162336,10,-0.000398771,-2.6883,-0.324667,-0.181725,14.5786,0.194548,
2,0,0,1,0,9052.32,0.193367,0.193053,-2.07148,5,0.0161818,10,-0.000399905,-2.68372,-0.481685,-0.122487,9.91896,0.193053,
2,0,0,1,0,9052.34,0.191868,0.191524,-2.096,5,0.0161293,10,-0.000401435,-2.67861,-0.467449,-0.126217,10.2833,0.191524,
2,0,0,1,0,9052.37,0.190368,0.190059,-2.10054,5,0.0160765,10,-0.000399226,-2.67767,-0.347328,-0.169868,13.959,0.190059,
2,0,0,1,0,9052.39,0.18887,0.188545,-2.11922,5,0.0160232,10,-0.000399568,-2.67382,-0.322022,-0.183217,15.2148,0.188545,
2,0,0,1,0,9052.42,0.187376,0.187045,-2.13991,5,0.0159696,10,-0.00040026,-2.6696,-0.381993,-0.154453,12.9557,0.1870448,
2,0,0,1,0,9052.44,0.185875,0.185545,-2.17284,5,0.0159152,10,-0.00040316,-2.66297,-0.454381,-0.129847,10.9404,0.185545,
2,0,0,1,0,9052.47,0.184374,0.184041,-2.18449,5,0.0158603,10,-0.000402035,-2.66065,-0.325457,-0.181283,15.4575,0.184041,
2,0,0,1,0,9052.49,0.18288,0.182566,-2.20584,5,0.0158052,10,-0.000402712,-2.65643,-0.307529,-0.191852,16.552,0.182566,
2,0,0,1,0,9052.52,0.18138,0.18113,-2.23109,5,0.0157493,10,-0.000404117,-2.65148,-0.32943,-0.179097,15.6348,0.18113,
2,0,0,1,0,9052.54,0.179881,0.17957,-2.2647,5,0.0156927,10,-0.000406674,-2.64499,-0.363272,-0.162413,14.2896,0.1795703,
2,0,0,1,0,9052.57,0.178387,0.178051,-2.28405,5,0.0156356,10,-0.000406679,-2.64129,-0.294368,-0.200429,17.8774,0.178051,
2,0,0,1,0,9052.59,0.176886,0.176569,-2.3056,5,0.0155778,10,-0.000407097,-2.63722,-0.277854,-0.212342,19.1857,0.1765689,
2,0,0,1,0,9052.62,0.175385,0.175018,-2.3401,5,0.0155193,10,-0.000409559,-2.63077,-0.279029,-0.211447,19.2979,0.175018,
2,0,0,1,0,9052.64,0.173892,0.17354,-2.375,5,0.0154602,10,-0.000412157,-2.62434,-0.282318,-0.208984,19.3141,0.17354,
2,0,0,1,0,9052.67,0.172392,0.172042,-2.40416,5,0.0154001,10,-0.000413617,-2.61904,-0.239815,-0.246023,23.0463,0.172042,
2,0,0,1,0,9052.69,0.170893,0.170591,-2.42728,5,0.0153392,10,-0.000414072,-2.61488,-0.221192,-0.266736,25.3975,0.170591,
2,0,0,1,0,9052.72,0.169393,0.169049,-2.47147,5,0.0152775,10,-0.000417799,-2.60704,-0.208936,-0.282383,27.2908,0.169049,
2,0,0,1,0,9052.74,0.167899,0.167608,-2.51914,5,0.0152148,10,-0.000422227,-2.59875,-0.212024,-0.278271,27.3497,0.167608,
2,0,0,1,0,9052.77,0.166398,0.166105,-2.56208,5,0.0151509,10,-0.000425574,-2.59141,-0.193432,-0.305017,30.4745,0.166105,
2,0,0,1,0,9052.79,0.164898,0.164591,-2.59693,5,0.0150859,10,-0.000427431,-2.58554,-0.183481,-0.321559,32.7743,0.1645911,
2,0,0,1,0,9052.82,0.163403,0.163074,-2.65168,5,0.01502,10,-0.00043242,-2.57648,-0.173004,-0.341032,35.401,0.163074,
2,0,0,1,0,9052.84,0.161904,0.16159,-2.71577,5,0.0149525,10,-0.00043884,-2.56611,-0.170586,-0.345866,36.6084,0.16159,
2,0,0,1,0,9052.87,0.160404,0.160068,-2.77844,5,0.0148835,10,-0.00044474,-2.5562,-0.155608,-0.379158,40.9731,0.160068,
2,0,0,1,0,9052.89,0.158905,0.158625,-2.82809,5,0.0148129,10,-0.000448606,-2.54851,-0.138819,-0.425013,47.1151,0.158625,
2,0,0,1,0,9052.92,0.157411,0.157121,-2.90252,5,0.0147411,10,-0.000456046,-2.53723,-0.133059,-0.443413,50.5016,0.157121,
2,0,0,1,0,9052.94,0.155911,0.155588,-2.98874,5,0.014667,10,-0.000465012,-2.52451,-0.126307,-0.467114,54.5505,0.155588,
2,0,0,1,0,9052.97,0.15441,0.154063,-3.07946,5,0.0145907,10,-0.00047443,-2.51153,-0.118717,-0.496978,59.6377,0.1540627,
2,0,0,1,0,9052.99,0.152916,0.152589,-3.16453,5,0.0145125,10,-0.000482873,-2.49969,-0.111707,-0.528165,65.4335,0.152589,
2,0,0,1,0,9053.02,0.151417,0.151067,-3.26709,5,0.0144317,10,-0.000493549,-2.48584,-0.108762,-0.54247,69.4223,0.151067,
2,0,0,1,0,9053.04,0.149917,0.149631,-3.38808,5,0.0143481,10,-0.000506962,-2.47005,-0.0993799,-0.593682,78.5161,0.149631,
2,0,0,1,0,9053.07,0.148423,0.148143,-3.50987,5,0.0142618,10,-0.000519961,-2.45471,-0.092218,-0.639788,87.7299,0.148143,
2,0,0,1,0,9053.09,0.146922,0.14662,-3.64788,5,0.0141719,10,-0.000534853,-2.43796,-0.087688,-0.67284,95.9454,0.14662,
2,0,0,1,0,9053.12,0.145421,0.145104,-3.78789,5,0.0140785,10,-0.000549637,-2.4216,-0.085391,-0.690939,102.559,0.145104,
2,0,0,1,0,9053.14,0.143927,0.143611,-3.95616,5,0.0139817,10,-0.000568149,-2.40273,-0.0802811,-0.734917,113.558,0.143611,
2,0,0,1,0,9053.17,0.142429,0.142133,-4.13405,5,0.0138801,10,-0.000587586,-2.38362,-0.0803868,-0.733951,118.359,0.142133,
2,0,0,1,0,9053.19,0.140929,0.140612,-4.31497,5,0.013774,10,-0.000606736,-2.36502,-0.0800414,-0.737119,124.17,0.140612,
2,0,0,1,0,9053.22,0.13943,0.139133,-4.49692,5,0.0136634,10,-0.000625671,-2.34708,-0.0806407,-0.73164,128.75,0.139133,
2,0,0,1,0,9053.24,0.137935,0.137638,-4.69608,5,0.0135483,10,-0.00064636,-2.32826,-0.0818348,-0.720964,132.233,0.1376383,
2,0,0,1,0,9053.27,0.136435,0.13616,-4.90867,5,0.0134278,10,-0.000668362,-2.30904,-0.0811781,-0.726797,139.017,0.13616,
2,0,0,1,0,9053.29,0.134934,0.13461,-5.11486,5,0.0133021,10,-0.000688513,-2.29117,-0.0844978,-0.698243,139.006,0.13461,
2,0,0,1,0,9053.32,0.13344,0.133122,-5.31361,5,0.0131716,10,-0.000707358,-2.27461,-0.0923152,-0.639114,132.452,0.133122,
2,0,0,1,0,9053.34,0.13194,0.131604,-5.50683,5,0.0130359,10,-0.000724721,-2.2591,-0.0955899,-0.61722,132.96,0.131604,
2,0,0,1,0,9053.37,0.13044,0.130126,-5.7244,5,0.012895,10,-0.000744893,-2.24227,-0.098135,-0.601212,133.864,0.130126,
2,0,0,1,0,9053.39,0.128941,0.128656,-5.91046,5,0.012749,10,-0.000760416,-2.22838,-0.105444,-0.559539,128.83,0.128656,
2,0,0,1,0,9053.42,0.127447,0.127154,-6.09599,5,0.012599,10,-0.000775132,-2.21496,-0.11944,-0.493971,117.211,0.127154,
2,0,0,1,0,9053.44,0.125946,0.12564,-6.26442,5,0.012444,10,-0.000787061,-2.20312,-0.133376,-0.442357,107.932,0.12564,
2,0,0,1,0,9053.47,0.124446,0.124113,-6.42668,5,0.012285,10,-0.000797634,-2.19201,-0.140828,-0.41895,104.717,0.124113,
2,0,0,1,0,9053.49,0.122952,0.122664,-6.56546,5,0.0121228,10,-0.000805348,-2.18273,-0.15625,-0.377601,96.5659,0.122664,
2,0,0,1,0,9053.52,0.121453,0.121167,-6.69442,5,0.0119565,10,-0.000811144,-2.17429,-0.190343,-0.309967,80.8427,0.121167,
2,0,0,1,0,9053.54,0.119953,0.119637,-6.80497,5,0.0117872,10,-0.000814129,-2.16717,-0.221596,-0.26625,70.6706,0.119637,
2,0,0,1,0,9053.57,0.118459,0.118142,-6.9172,5,0.0116158,10,-0.000817214,-2.16007,-0.238288,-0.247599,66.6849,0.118142,
2,0,0,1,0,9053.59,0.116958,0.116667,-7.01027,5,0.0114413,10,-0.000817865,-2.15427,-0.275297,-0.214314,58.5091,0.116667,
2,0,0,1,0,9053.62,0.115457,0.115124,-7.08804,5,0.0112646,10,-0.000816001,-2.14947,-0.361647,-0.163143,45.0065,0.115124,
2,0,0,1,0,9053.64,0.113963,0.113681,-7.14526,5,0.0110869,10,-0.000812281,-2.14598,-0.4655,-0.126745,35.2791,0.113681,
2,0,0,1,0,9053.66,0.112464,0.112166,-7.19878,5,0.0109072,10,-0.000807456,-2.14274,-0.572083,-0.103132,28.9182,0.112166,
2,0,0,1,0,9053.69,0.110965,0.110645,-7.22669,5,0.0107264,10,-0.000799599,-2.14106,-0.679832,-0.0867861,24.456,0.110645,
2,0,0,1,0,9053.71,0.109466,0.109165,-7.254,5,0.0105448,10,-0.000791881,-2.13942,-1.74515,-0.0338081,9.56193,0.109165,
2,0,0,1,0,9053.74,0.107972,0.107668,-7.26457,5,0.0103635,10,-0.000782161,-2.13879,-3094.32,-1.90672e-05,0.00539909,0.107668,
2,0,0,1,0,9053.76,0.106471,0.106175,-7.26794,5,0.0101815,10,-0.000771671,-2.13859,4.47133,0.0131952,-3.73526,0.106175,
2,0,0,1,0,9053.79,0.10497,0.104697,-7.25605,5,0.00999956,10,-0.000759688,-2.1393,2.05771,0.0286726,-8.10286,0.104697,
2,0,0,1,0,9053.81,0.103476,0.103165,-7.23877,5,0.0098187,10,-0.000746786,-2.14034,0.885339,0.0666411,-18.7908,0.103165,
2,0,0,1,0,9053.84,0.101976,0.101675,-7.20818,5,0.00963773,10,-0.000732895,-2.14217,0.559271,0.105495,-29.5943,0.101675,
2,0,0,1,0,9053.86,0.100477,0.10017,-7.15526,5,0.00945784,10,-0.000716745,-2.14537,0.476903,0.123715,-34.5069,0.10017,
2,0,0,1,0,9053.89,0.0989825,0.0986816,-7.09985,5,0.00927997,10,-0.000700624,-2.14875,0.451392,0.130707,-36.1731,0.0986816,
2,0,0,1,0,9053.91,0.0974817,0.0971456,-7.03464,5,0.0091028,10,-0.000683385,-2.15276,0.367076,0.16073,-44.1304,0.0971456,
2,0,0,1,0,9053.94,0.0959822,0.095658,-6.97245,5,0.00892729,10,-0.00066697,-2.15661,0.294878,0.200082,-54.337,0.095658,
2,0,0,1,0,9053.96,0.094488,0.0941866,-6.88995,5,0.00875434,10,-0.000648941,-2.16178,0.30316,0.194617,-52.2441,0.0941866,
2,0,0,1,0,9053.99,0.0929884,0.0926763,-6.80044,5,0.00858277,10,-0.00063024,-2.16746,0.308276,0.191387,-50.815,0.0926763,
2,0,0,1,0,9054.01,0.0914889,0.0911911,-6.71655,5,0.00841327,10,-0.00061249,-2.17285,0.287585,0.205157,-53.8422,0.0911911,
2,0,0,1,0,9054.04,0.0899894,0.0896843,-6.63661,5,0.00824577,10,-0.0005952,-2.17805,0.249725,0.236259,-61.1417,0.0896843,
2,0,0,1,0,9054.06,0.0884951,0.0881843,-6.54783,5,0.0080811,10,-0.000577416,-2.1839,0.252583,0.233587,-59.6991,0.0881843,
2,0,0,1,0,9054.09,0.0869943,0.0866712,-6.46209,5,0.00791815,10,-0.000560077,-2.18963,0.26194,0.225243,-56.8379,0.0866712,
2,0,0,1,0,9054.11,0.0854935,0.0851675,-6.37711,5,0.00775725,10,-0.000543123,-2.19538,0.28826,0.204676,-50.9975,0.0851675,
2,0,0,1,0,9054.14,0.0839993,0.0836496,-6.3045,5,0.00759891,10,-0.000527368,-2.20035,0.276455,0.213416,-52.4777,0.0836496,
2,0,0,1,0,9054.16,0.0824998,0.0822263,-6.23547,5,0.00744176,10,-0.000512719,-2.20513,0.296694,0.198858,-48.3508,0.0822263,
2,0,0,1,0,9054.19,0.0810002,0.080699,-6.16109,5,0.00728654,10,-0.000497194,-2.21034,0.339454,0.173808,-41.8298,0.080699,
2,0,0,1,0,9054.21,0.0795007,0.079186,-6.09181,5,0.00713295,10,-0.000482386,-2.21525,0.384319,0.153518,-36.5824,0.079186,
2,0,0,1,0,9054.24,0.0780078,0.0776717,-6.04167,5,0.00698131,10,-0.000469267,-2.21884,0.368869,0.159948,-37.7229,0.0776717,
2,0,0,1,0,9054.26,0.076507,0.0761807,-5.99707,5,0.00683041,10,-0.000456861,-2.22206,0.387414,0.152292,-35.6035,0.0761807,
2,0,0,1,0,9054.29,0.0750062,0.0747185,-5.93878,5,0.00668088,10,-0.000443737,-2.2263,0.461217,0.127922,-29.6713,0.0747185,
2,0,0,1,0,9054.31,0.073512,0.0732075,-5.89153,5,0.00653317,10,-0.000431305,-2.22977,0.51677,0.114171,-26.2807,0.0732075,
2,0,0,1,0,9054.34,0.0720124,0.07168,-5.85555,5,0.00638587,10,-0.000419726,-2.23243,0.490304,0.120334,-27.518,0.07168,
2,0,0,1,0,9054.36,0.0705129,0.0701665,-5.81993,5,0.00623952,10,-0.000408364,-2.23508,0.487706,0.120975,-27.4479,0.0701665,
2,0,0,1,0,9054.39,0.0690187,0.0687178,-5.77309,5,0.00609478,10,-0.000396714,-2.23859,0.53653,0.109966,-24.8005,0.06871777,
2,0,0,1,0,9054.41,0.0675179,0.0671853,-5.73865,5,0.00595043,10,-0.000385553,-2.24119,0.662209,0.0890958,-19.9831,0.0671853,
2,0,0,1,0,9054.44,0.066017,0.0657196,-5.71325,5,0.0058069,10,-0.000375472,-2.24312,0.559213,0.105505,-23.4979,0.0657196,
2,0,0,1,0,9054.46,0.0645242,0.0642419,-5.68136,5,0.0056646,10,-0.000364981,-2.24555,0.553582,0.106579,-23.5807,0.0642419,
2,0,0,1,0,9054.49,0.0630246,0.0627116,-5.64021,5,0.00552264,10,-0.000353707,-2.2487,0.592483,0.099581,-21.9278,0.0627116,
2,0,0,1,0,9054.51,0.0615251,0.0612006,-5.59766,5,0.00538163,10,-0.00034258,-2.25199,0.54035,0.109188,-23.9147,0.0612006,
2,0,0,1,0,9054.54,0.0600256,0.0597324,-5.56507,5,0.00524144,10,-0.000332415,-2.25453,0.531163,0.111077,-24.1748,0.0597324,
2,0,0,1,0,9054.56,0.0585314,0.0582057,-5.54419,5,0.0051026,10,-0.000322703,-2.25616,0.544603,0.108336,-23.4074,0.0582057,
2,0,0,1,0,9054.59,0.0570305,0.0567259,-5.51335,5,0.00496404,10,-0.00031275,-2.25858,0.577311,0.102198,-21.961,0.0567259,
2,0,0,1,0,9054.61,0.0555297,0.0552035,-5.4675,5,0.00482642,10,-0.000301825,-2.26221,0.563091,0.104779,-22.3785,0.0552035,
2,0,0,1,0,9054.64,0.0540355,0.0537294,-5.43689,5,0.00469013,10,-0.000292121,-2.26465,0.558466,0.105646,-22.4148,0.0537294,
2,0,0,1,0,9054.66,0.052536,0.0522313,-5.4144,5,0.00455409,10,-0.000282802,-2.26645,0.546911,0.107879,-22.7455,0.0522313,
2,0,0,1,0,9054.69,0.0510364,0.050667,-5.37265,5,0.00441889,10,-0.000272216,-2.26981,0.513226,0.114959,-24.0897,0.050667,
2,0,0,1,0,9054.71,0.0495369,0.0491874,-5.32722,5,0.00428473,10,-0.000262032,-2.2735,0.501988,0.117533,-24.4791,0.0491874,
2,0,0,1,0,9054.74,0.0480427,0.0477325,-5.29636,5,0.00415203,10,-0.000252809,-2.27602,0.557619,0.105807,-21.8663,0.0477325,
2,0,0,1,0,9054.76,0.0465432,0.0462962,-5.2654,5,0.00401959,10,-0.000243768,-2.27857,0.488497,0.120779,-24.7656,0.0462962,
2,0,0,1,0,9054.79,0.0450424,0.0447441,-5.22576,5,0.00388801,10,-0.000233822,-2.28185,0.47327,0.124664,-25.3895,0.0447441,
2,0,0,1,0,9054.81,0.0435482,0.0432239,-5.17627,5,0.00375799,10,-0.000223739,-2.28598,0.46523,0.126819,-25.6689,0.0432239,
2,0,0,1,0,9054.84,0.0420486,0.0417354,-5.1421,5,0.00362855,10,-0.000214608,-2.28886,0.41403,0.142502,-28.6274,0.0417354,
2,0,0,1,0,9054.86,0.0405491,0.040244,-5.11309,5,0.00349997,10,-0.000205771,-2.29132,0.430805,0.136953,-27.2742,0.040244,
2,0,0,1,0,9054.89,0.0390549,0.0387404,-5.06469,5,0.00337286,10,-0.000196208,-2.29545,0.412302,0.143099,-28.2574,0.0387404,
2,0,0,1,0,9054.91,0.0375541,0.0372365,-5.01364,5,0.00324634,10,-0.00018669,-2.29985,0.378599,0.155838,-30.535,0.0372365,
2,0,0,1,0,9054.94,0.0360532,0.035759,-4.97852,5,0.00312102,10,-0.000178027,-2.3029,0.352162,0.167537,-32.5369,0.035759,
2,0,0,1,0,9054.96,0.034559,0.034241,-4.93179,5,0.00299729,10,-0.000168869,-2.307,0.381092,0.154818,-29.7727,0.034241,
2,0,0,1,0,9054.99,0.0330595,0.0327112,-4.88657,5,0.00287417,10,-0.000159846,-2.311,0.37868,0.155804,-29.6875,0.0327112,
2,0,0,1,0,9055.01,0.0315613,0.0312361,-4.8306,5,0.0027522,10,-0.000150889,-2.316,0.355551,0.16594,-31.322,0.0312361,
2,0,0,1,0,9055.04,0.0300618,0.0297302,-4.78213,5,0.00263153,10,-0.000142174,-2.32038,0.313814,0.188009,-35.1067,0.0297302,
2,0,0,1,0,9055.06,0.0285676,0.0282215,-4.73819,5,0.0025125,10,-0.000133719,-2.32439,0.347265,0.169899,-31.3983,0.0282215,
2,0,0,1,0,9055.09,0.0270667,0.0267269,-4.69593,5,0.00239414,10,-0.000125508,-2.32828,0.370231,0.15936,-29.1957,0.0267269,
2,0,0,1,0,9055.11,0.0255659,0.0252434,-4.64528,5,0.00227695,10,-0.000117263,-2.33299,0.337402,0.174866,-31.6952,0.0252434,
2,0,0,1,0,9055.14,0.0240717,0.0237595,-4.58567,5,0.00216148,10,-0.000108953,-2.3386,0.330342,0.178603,-32.0572,0.0237595,
2,0,0,1,0,9055.16,0.0225722,0.0222529,-4.55182,5,0.00204678,10,-0.000101291,-2.34182,0.324446,0.181848,-32.2509,0.0222529,
2,0,0,1,0,9055.19,0.0210726,0.0207631,-4.51016,5,0.00193311,10,-9.36448e-05,-2.34581,0.381416,0.154687,-27.2043,0.0207631,
2,0,0,1,0,9055.21,0.0195784,0.0192603,-4.46052,5,0.00182104,10,-8.59108e-05,-2.35061,0.349679,0.168726,-29.4113,0.0192603,
2,0,0,1,0,9055.24,0.0180789,0.0177371,-4.41267,5,0.00170961,10,-7.82678e-05,-2.3553,0.339854,0.173604,-29.971,0.0177371,
2,0,0,1,0,9055.26,0.0165781,0.0162729,-4.38376,5,0.00159923,10,-7.13363e-05,-2.35815,0.378575,0.155848,-26.631,0.0162729,
2,0,0,1,0,9055.29,0.0150839,0.014733,-4.34595,5,0.00149017,10,-6.40289e-05,-2.36192,0.503224,0.117244,-19.883,0.014733,
2,0,0,1,0,9055.31,0.0135844,0.01327,-4.30538,5,0.00138152,10,-5.71324e-05,-2.36599,0.504551,0.116936,-19.6753,0.01327,
2,0,0,1,0,9055.34,0.0120848,0.0118096,-4.27109,5,0.00127371,10,-5.04398e-05,-2.36946,0.402999,0.146402,-24.4646,0.0118096,
2,0,0,1,0,9055.36,0.0105853,0.0102852,-4.24805,5,0.00116681,10,-4.36919e-05,-2.37181,0.489643,0.120496,-19.9751,0.0102852,
2,0,0,1,0,9055.39,0.00909108,0.00879741,-4.22183,5,0.00106099,10,-3.71412e-05,-2.3745,0.615615,0.0958391,-15.7733,0.00879741,
2,0,0,1,0,9055.41,0.00759027,0.00726314,-4.1912,5,0.0009554,10,-3.04413e-05,-2.37766,0.654011,0.0902125,-14.7669,0.00726314,
2,0,0,1,0,9055.44,0.00608945,0.00578613,-4.17107,5,0.000850429,10,-2.41344e-05,-2.37975,0.571884,0.103168,-16.8009,0.00578613,
2,0,0,1,0,9055.46,0.00459524,0.00429252,-4.14726,5,0.000746529,10,-1.78022e-05,-2.38224,0.609932,0.0967321,-15.6565,0.00429252,
2,0,0,1,0,9055.49,0.0030957,0.00277198,-4.13512,5,0.000642605,10,-1.14625e-05,-2.38351,-8.94877,-0.00659308,1.06628,0.00277198,
2,0,0,1,0,9055.51,0.00159616,0.001237,-4.15637,5,0.000538486,10,-5.14142e-06,-2.38129, , , ,0.001237,
2,0,0,1,0,9055.54,0.000199195,-0.000168808,-4.11705,5,0.000441599,10,6.94989e-07,-2.38541, , , ,-0.000168808,