File: Figure_codes/Fig_3-5/rawdata_trumpetplot_data/after 10th/20221101_1-115_003_TrumpetPlot_ParaChange_from10_every3_09_CV_C01_23.csv
mode,ox/red,error,control changes,counter inc.,time/s,control/V,Ewe/V,<I>/mA,cycle number,(Q-Qo)/C,I Range,P/W,log(|I|),Tafel slope mV/dec,alpha_eff,dI/d(E-IR),E-IR/V,
2,0,0,0,0,46495.5,2.44065e-05,-0.000306236,-5.25316,24,0.0000000E+000,10,1.60871e-06,-2.27958, , , ,-0.000306236,
2,0,0,1,0,46495.5,0.00179726,0.00143486,-3.01671,24,-7.00508e-05,10,-4.32855e-06,-2.52047, , , ,0.00143486,
2,0,0,1,0,46495.6,0.00379485,0.00346683,-1.48359,24,-0.000113675,10,-5.14336e-06,-2.82869,-0.00468546,-12.5921,643.321,0.00346683,
2,0,0,1,0,46495.6,0.00579244,0.00548261,-0.412702,24,-0.000131904,10,-2.26269e-06,-3.38436,-0.00706552,-8.35041,476.284,0.005482615,
2,1,0,1,0,46495.6,0.00779002,0.00743616,0.406936,24,-0.00013148,10,3.02604e-06,-3.39047,0.0099328,5.93991,363.897,0.00743616,
2,1,0,1,0,46495.6,0.00978761,0.00948469,1.04364,24,-0.000116672,10,9.89862e-06,-2.98145,0.00691956,8.52656,284.218,0.00948469,
2,1,0,1,0,46495.6,0.0117852,0.0114516,1.54818,24,-9.0498e-05,10,1.77291e-05,-2.81018,0.0144788,4.07493,231.029,0.0114516,
2,1,0,1,0,46495.7,0.0137828,0.0134375,1.95685,24,-5.52636e-05,10,2.62952e-05,-2.70844,0.0232099,2.54201,188.769,0.0134375,
2,1,0,1,0,46495.7,0.0157804,0.0154755,2.30778,24,-1.24653e-05,10,3.5714e-05,-2.63681,0.0327465,1.80172,159.059,0.0154755,
2,1,0,1,0,46495.7,0.017778,0.0174653,2.59751,24,3.65265e-05,10,4.53663e-05,-2.58544,0.0441486,1.3364,133.701,0.0174653,
2,1,0,1,0,46495.7,0.0197755,0.0194375,2.8375,24,9.09708e-05,10,5.5154e-05,-2.54706,0.0570788,1.03366,113.757,0.0194375,
2,1,0,1,0,46495.7,0.0217731,0.021484,3.05467,24,0.000150032,10,6.56265e-05,-2.51504,0.0691546,0.85316,101.13,0.02148401,
2,1,0,1,0,46495.8,0.0237707,0.023479,3.24622,24,0.000213137,10,7.62182e-05,-2.48862,0.0817081,0.722083,91.1174,0.023479,
2,1,0,1,0,46495.8,0.0257683,0.0254807,3.41884,24,0.000279536,10,8.71145e-05,-2.46612,0.0951114,0.620325,82.529,0.0254807,
2,1,0,1,0,46495.8,0.0277659,0.0274879,3.57707,24,0.000349589,10,9.83263e-05,-2.44647,0.107631,0.548171,76.3315,0.0274879,
2,1,0,1,0,46495.8,0.0297635,0.0294448,3.72142,24,0.000422658,10,0.000109577,-2.42929,0.124081,0.475496,68.884,0.0294448,
2,1,0,1,0,46495.8,0.0317611,0.0314542,3.85028,24,0.000498461,10,0.000121108,-2.41451,0.132469,0.445387,66.9843,0.0314542,
2,1,0,1,0,46495.9,0.0337587,0.0334389,3.98896,24,0.00057652,10,0.000133387,-2.39914,0.142646,0.413613,64.2082,0.0334389,
2,1,0,1,0,46495.9,0.0357562,0.0354667,4.10792,24,0.000657574,10,0.000145694,-2.38638,0.162342,0.36343,58.2183,0.0354667,
2,1,0,1,0,46495.9,0.0377538,0.037451,4.22254,24,0.000740975,10,0.000158138,-2.37443,0.169086,0.348935,57.4823,0.037451,
2,1,0,1,0,46495.9,0.0397514,0.0394402,4.33633,24,0.000826636,10,0.000171026,-2.36288,0.164389,0.358905,60.8265,0.0394402,
2,1,0,1,0,46495.9,0.041749,0.0414356,4.46491,24,0.000914236,10,0.000185006,-2.35019,0.176803,0.333705,57.9736,0.0414356,
2,1,0,1,0,46496,0.0437466,0.0434475,4.56865,24,0.00100457,10,0.000198496,-2.34021,0.203975,0.289251,51.5597,0.0434475,
2,1,0,1,0,46496,0.0457442,0.0454426,4.67151,24,0.00109693,10,0.000212286,-2.33054,0.207668,0.284108,51.804,0.0454426,
2,1,0,1,0,46496,0.0477418,0.0474732,4.77719,24,0.00119146,10,0.000226789,-2.32083,0.197882,0.298157,55.6432,0.0474732,
2,1,0,1,0,46496,0.0497484,0.0494423,4.89406,24,0.00128813,10,0.000241973,-2.31033,0.210857,0.279811,53.3064,0.04944225,
2,1,0,1,0,46496,0.0517369,0.0514142,4.98727,24,0.00138639,10,0.000256416,-2.30214,0.232033,0.254274,49.5398,0.0514142,
2,1,0,1,0,46496.1,0.0537345,0.0534291,5.09157,24,0.00148718,10,0.000272038,-2.29315,0.23128,0.255102,50.652,0.0534291,
2,1,0,1,0,46496.1,0.0557321,0.0554051,5.18942,24,0.00159003,10,0.00028752,-2.28488,0.24913,0.236824,47.9289,0.0554051,
2,1,0,1,0,46496.1,0.0577206,0.0573813,5.28099,24,0.00169426,10,0.00030303,-2.27728,0.250244,0.23577,48.6336,0.0573813,
2,1,0,1,0,46496.1,0.0597273,0.0593794,5.3827,24,0.00180104,10,0.000319621,-2.269,0.254613,0.231724,48.6418,0.0593794,
2,1,0,1,0,46496.1,0.0617249,0.0614217,5.47753,24,0.00190973,10,0.000336439,-2.26142,0.275601,0.214077,45.7374,0.0614217,
2,1,0,1,0,46496.2,0.0637224,0.063412,5.56714,24,0.00202026,10,0.000353024,-2.25437,0.282572,0.208796,45.3685,0.063412,
2,1,0,1,0,46496.2,0.06572,0.065414,5.65865,24,0.00213254,10,0.000370155,-2.24729,0.276049,0.21373,47.2191,0.065414,
2,1,0,1,0,46496.2,0.0677176,0.0674068,5.75578,24,0.00224629,10,0.000387979,-2.2399,0.290793,0.202893,45.5184,0.0674068,
2,1,0,1,0,46496.2,0.0697152,0.0693832,5.83933,24,0.00236232,10,0.000405151,-2.23364,0.316226,0.186575,42.5248,0.0693832,
2,1,0,1,0,46496.2,0.0717128,0.0713944,5.92535,24,0.00248001,10,0.000423037,-2.22729,0.331253,0.178112,41.1625,0.0713944,
2,1,0,1,0,46496.3,0.0737104,0.073404,6.00483,24,0.0025994,10,0.000440779,-2.2215,0.330463,0.178537,41.8648,0.073404,
2,1,0,1,0,46496.3,0.075708,0.0753784,6.09214,24,0.00271993,10,0.000459216,-2.21523,0.343198,0.171912,40.8295,0.07537844,
2,1,0,1,0,46496.3,0.0777056,0.0773778,6.16708,24,0.00284257,10,0.000477195,-2.20992,0.377267,0.156388,37.6424,0.0773778,
2,1,0,1,0,46496.3,0.0797031,0.0794002,6.24353,24,0.00296675,10,0.000495738,-2.20457,0.373872,0.157808,38.4572,0.0794002,
2,1,0,1,0,46496.3,0.0817007,0.0814105,6.32216,24,0.00309246,10,0.00051469,-2.19913,0.383561,0.153822,37.9339,0.0814105,
2,1,0,1,0,46496.4,0.0836983,0.0833937,6.39502,24,0.003219,10,0.000533304,-2.19416,0.427803,0.137914,34.3934,0.0833937,
2,1,0,1,0,46496.4,0.0856959,0.0853709,6.45838,24,0.0033476,10,0.000551358,-2.18988,0.450135,0.131072,33.0475,0.0853709,
2,1,0,1,0,46496.4,0.0876935,0.0873701,6.52643,24,0.00347753,10,0.000570215,-2.18532,0.467949,0.126082,32.0952,0.0873701,
2,1,0,1,0,46496.4,0.0896911,0.0893884,6.58732,24,0.0036087,10,0.00058883,-2.18129,0.439653,0.134197,34.5402,0.0893884,
2,1,0,1,0,46496.4,0.0916887,0.0913584,6.66418,24,0.0037406,10,0.000608829,-2.17625,0.43244,0.136435,35.4498,0.0913584,
2,1,0,1,0,46496.5,0.0936862,0.0933734,6.72859,24,0.00387461,10,0.000628272,-2.17208,0.481616,0.122504,32.1725,0.0933734,
2,1,0,1,0,46496.5,0.0956838,0.0954197,6.79484,24,0.00400991,10,0.000648362,-2.16782,0.435283,0.135544,35.9689,0.0954197,
2,1,0,1,0,46496.5,0.0976814,0.0973358,6.87111,24,0.00414659,10,0.000668805,-2.16297,0.394098,0.149709,40.1638,0.0973358,
2,1,0,1,0,46496.5,0.099679,0.0993876,6.95421,24,0.00428413,10,0.000691163,-2.15775,0.400701,0.147242,39.9423,0.0993876,
2,1,0,1,0,46496.5,0.101677,0.101345,7.03123,24,0.00442413,10,0.000712576,-2.15297,0.369097,0.159849,43.9269,0.101345,
2,1,0,1,0,46496.6,0.103674,0.103372,7.12921,24,0.00456578,10,0.000736957,-2.14696,0.328781,0.179451,49.9439,0.103372,
2,1,0,1,0,46496.6,0.105672,0.105374,7.23246,24,0.00470948,10,0.00076211,-2.14071,0.294451,0.200373,56.6223,0.1053736,
2,1,0,1,0,46496.6,0.107667,0.107332,7.35348,24,0.00485461,10,0.000789267,-2.13351,0.282566,0.208801,59.9056,0.107332,
2,1,0,1,0,46496.6,0.109667,0.109367,7.47168,24,0.00500286,10,0.000817154,-2.12658,0.28035,0.210452,61.411,0.109367,
2,1,0,1,0,46496.6,0.111665,0.111379,7.60198,24,0.00515361,10,0.0008467,-2.11907,0.265274,0.222412,65.9988,0.111379,
2,1,0,1,0,46496.7,0.113662,0.113386,7.73691,24,0.00530708,10,0.000877254,-2.11143,0.260979,0.226072,68.2519,0.113386,
2,1,0,1,0,46496.7,0.11566,0.115323,7.87115,24,0.00546318,10,0.000907721,-2.10396,0.250219,0.235793,72.5112,0.115323,
2,1,0,1,0,46496.7,0.117657,0.117348,8.02425,24,0.00562147,10,0.000941633,-2.0956,0.257447,0.229173,71.67,0.1173484,
2,1,0,1,0,46496.7,0.119655,0.119312,8.15709,24,0.00578336,10,0.000973242,-2.08846,0.284801,0.207162,65.9308,0.119312,
2,1,0,1,0,46496.7,0.121652,0.121331,8.2868,24,0.00594784,10,0.00100544,-2.08161,0.289449,0.203836,65.9454,0.1213306,
2,1,0,1,0,46496.8,0.12365,0.123357,8.42381,24,0.00611505,10,0.00103913,-2.07449,0.280165,0.210591,69.2258,0.123357,
2,1,0,1,0,46496.8,0.125648,0.125286,8.56063,24,0.00628417,10,0.00107253,-2.06749,0.310842,0.189807,63.3279,0.125286,
2,1,0,1,0,46496.8,0.127645,0.127332,8.67555,24,0.00645664,10,0.00110467,-2.0617,0.365106,0.161597,54.6876,0.127332,
2,1,0,1,0,46496.8,0.129643,0.129357,8.78328,24,0.00663126,10,0.00113618,-2.05634,0.395405,0.149214,51.1158,0.129357,
2,1,0,1,0,46496.8,0.13164,0.131346,8.8807,24,0.006808,10,0.00116644,-2.05155,0.424871,0.138866,48.116,0.1313455,
2,1,0,1,0,46496.9,0.133638,0.133322,8.97404,24,0.00698583,10,0.00119644,-2.04701,0.476182,0.123902,43.3605,0.133322,
2,1,0,1,0,46496.9,0.135636,0.135342,9.05401,24,0.00716619,10,0.00122539,-2.04316,0.543535,0.108549,38.3419,0.135342,
2,1,0,1,0,46496.9,0.137633,0.137337,9.12796,24,0.00734805,10,0.0012536,-2.03963,0.6345,0.0929866,33.0941,0.137337,
2,1,0,1,0,46496.9,0.139631,0.139305,9.18514,24,0.0075313,10,0.00127953,-2.03691,0.712106,0.0828529,29.706,0.139305,
2,1,0,1,0,46496.9,0.141628,0.141318,9.24623,24,0.00771476,10,0.00130666,-2.03404,0.828054,0.0712514,25.6842,0.141318,
2,1,0,1,0,46497,0.143626,0.143315,9.28814,24,0.00790018,10,0.00133113,-2.03207,1.35321,0.0436001,15.787,0.143315,
2,1,0,1,0,46497,0.145624,0.145328,9.30954,24,0.00808621,10,0.00135294,-2.03107,9.21143,0.00640509,2.32292,0.145328,
2,1,0,1,0,46497,0.147621,0.147304,9.29741,24,0.00827232,10,0.00136955,-2.03164,-2.31401,-0.0254968,-9.24519,0.147304,
2,1,0,1,0,46497,0.149619,0.149321,9.27262,24,0.00845718,10,0.0013846,-2.0328,-0.865691,-0.0681537,-24.5984,0.1493213,
2,1,0,1,0,46497,0.151616,0.151304,9.19901,24,0.00864201,10,0.00139185,-2.03626,-0.461127,-0.127947,-45.8407,0.1513043,
2,1,0,1,0,46497.1,0.153614,0.153337,9.08856,24,0.00882499,10,0.00139361,-2.04151,-0.310235,-0.190178,-67.2797,0.153337,
2,1,0,1,0,46497.1,0.155611,0.155274,8.93195,24,0.00900526,10,0.0013869,-2.04905,-0.23953,-0.246316,-85.7173,0.155274,
2,1,0,1,0,46497.1,0.157609,0.157317,8.74739,24,0.00918123,10,0.00137611,-2.05812,-0.183271,-0.321927,-109.423,0.157317,
2,1,0,1,0,46497.1,0.159607,0.159307,8.4906,24,0.00935371,10,0.00135261,-2.07106,-0.145566,-0.405314,-134.118,0.159307,
2,1,0,1,0,46497.1,0.161604,0.161281,8.21567,24,0.00952088,10,0.00132504,-2.08536,-0.128734,-0.45831,-146.606,0.161281,
2,1,0,1,0,46497.2,0.163602,0.163272,7.90931,24,0.00968223,10,0.00129137,-2.10186,-0.117858,-0.500604,-154.344,0.163272,
2,1,0,1,0,46497.2,0.165606,0.165317,7.59272,24,0.0098373,10,0.00125521,-2.1196,-0.110042,-0.53616,-158.716,0.165317,
2,1,0,1,0,46497.2,0.167597,0.167301,7.2699,24,0.00998523,10,0.00121626,-2.13847,-0.104954,-0.562149,-159.527,0.167301,
2,1,0,1,0,46497.2,0.169595,0.169288,6.95927,24,0.0101276,10,0.00117812,-2.15744,-0.104739,-0.563304,-153.005,0.169288,
2,1,0,1,0,46497.2,0.171592,0.171295,6.6587,24,0.0102638,10,0.0011406,-2.17661,-0.105836,-0.557466,-145.042,0.171295,
2,1,0,1,0,46497.3,0.173581,0.173265,6.38246,24,0.0103935,10,0.00110586,-2.19501,-0.110831,-0.532343,-132.751,0.173265,
2,1,0,1,0,46497.3,0.175587,0.175292,6.1281,24,0.0105187,10,0.00107421,-2.21267,-0.118441,-0.498138,-119.356,0.175292,
2,1,0,1,0,46497.3,0.177585,0.177284,5.90274,24,0.010639,10,0.00104646,-2.22895,-0.123796,-0.476591,-109.836,0.177284,
2,1,0,1,0,46497.3,0.179582,0.179301,5.68779,24,0.0107548,10,0.00101983,-2.24506,-0.131326,-0.449264,-99.9554,0.179301,
2,1,0,1,0,46497.3,0.18158,0.181277,5.50365,24,0.0108668,10,0.000997685,-2.25935,-0.146566,-0.402549,-86.6193,0.181277,
2,1,0,1,0,46497.4,0.183578,0.183283,5.34292,24,0.0109748,10,0.000979264,-2.27222,-0.157454,-0.374713,-78.1589,0.183283,
2,1,0,1,0,46497.4,0.185575,0.185307,5.18866,24,0.01108,10,0.000961496,-2.28494,-0.163282,-0.361338,-73.2762,0.185307,
2,1,0,1,0,46497.4,0.187573,0.18725,5.05218,24,0.0111825,10,0.000946022,-2.29652,-0.183011,-0.322385,-63.6817,0.1872503,
2,1,0,1,0,46497.4,0.18957,0.189269,4.93634,24,0.0112824,10,0.000934298,-2.30659,-0.204013,-0.289197,-55.7462,0.189269,
2,1,0,1,0,46497.4,0.191568,0.191273,4.82794,24,0.0113796,10,0.000923454,-2.31624,-0.214897,-0.27455,-51.7871,0.191273,
2,1,0,1,0,46497.5,0.193566,0.193224,4.73154,24,0.0114753,10,0.000914248,-2.325,-0.239137,-0.246721,-45.6104,0.193224,
2,1,0,1,0,46497.5,0.195563,0.195239,4.64702,24,0.0115691,10,0.000907282,-2.33283,-0.245889,-0.239945,-43.4819,0.195239,
2,1,0,1,0,46497.5,0.197561,0.197255,4.55627,24,0.0116613,10,0.000898747,-2.34139,-0.283342,-0.208229,-37.1509,0.197255,
2,1,0,1,0,46497.5,0.199558,0.199279,4.49693,24,0.0117515,10,0.000896146,-2.34708,-0.333585,-0.176867,-31.0192,0.199279,
2,1,0,1,0,46497.5,0.201556,0.201259,4.43206,24,0.0118409,10,0.000891993,-2.35339,-0.315989,-0.186715,-32.3039,0.201259,
2,1,0,1,0,46497.6,0.203553,0.20321,4.36995,24,0.0119289,10,0.000888019,-2.35952,-0.340096,-0.17348,-29.6074,0.2032102,
2,1,0,1,0,46497.6,0.205551,0.205227,4.31459,24,0.0120159,10,0.00088547,-2.36506,-0.449202,-0.131344,-22.1688,0.205227,
2,1,0,1,0,46497.6,0.207549,0.207268,4.27999,24,0.0121014,10,0.000887106,-2.36856,-0.479189,-0.123125,-20.5342,0.207268,
2,1,0,1,0,46497.6,0.209546,0.20923,4.23238,24,0.0121866,10,0.000885543,-2.37342,-0.398214,-0.148162,-24.4635,0.20923,
2,1,0,1,0,46497.6,0.211544,0.211277,4.18193,24,0.0122709,10,0.000883544,-2.37862,-0.458827,-0.128589,-21.0268,0.211277,
2,1,0,1,0,46497.7,0.213541,0.213255,4.14776,24,0.0123542,10,0.00088453,-2.38219,-0.621149,-0.0949853,-15.3892,0.213255,
2,1,0,1,0,46497.7,0.215539,0.215232,4.12106,24,0.0124366,10,0.000886985,-2.38499,-0.585911,-0.100698,-16.1741,0.2152323,
2,1,0,1,0,46497.7,0.217537,0.217219,4.08365,24,0.0125187,10,0.000887045,-2.38895,-0.566134,-0.104216,-16.6264,0.217219,
2,1,0,1,0,46497.7,0.219534,0.21921,4.05493,24,0.0126001,10,0.000888879,-2.39202,-0.629349,-0.0937477,-14.8315,0.21921,
2,1,0,1,0,46497.7,0.221532,0.221235,4.02408,24,0.012681,10,0.000890268,-2.39533,-0.728115,-0.0810312,-12.7414,0.221235,
2,1,0,1,0,46497.8,0.223525,0.223264,4.00327,24,0.012761,10,0.000893786,-2.39758,-0.809851,-0.0728529,-11.377,0.223264,
2,1,0,1,0,46497.8,0.225527,0.225205,3.97891,24,0.0128409,10,0.000896071,-2.40024,-0.769517,-0.0766714,-11.908,0.225205,
2,1,0,1,0,46497.8,0.227525,0.227227,3.95608,24,0.0129203,10,0.000898928,-2.40273,-0.751961,-0.0784615,-12.1091,0.227227,
2,1,0,1,0,46497.8,0.229522,0.229231,3.93016,24,0.0129993,10,0.000900915,-2.40559,-0.86389,-0.0682958,-10.4884,0.229231,
2,1,0,1,0,46497.8,0.23152,0.231224,3.91416,24,0.0130779,10,0.000905047,-2.40736,-1.13035,-0.0521963,-7.9736,0.231224,
2,1,0,1,0,46497.9,0.233517,0.233211,3.89843,24,0.0131558,10,0.000909155,-2.40911,-1.11305,-0.0530076,-8.06371,0.233211,
2,1,0,1,0,46497.9,0.235515,0.235245,3.88173,24,0.0132338,10,0.000913159,-2.41097,-1.01923,-0.0578868,-8.7678,0.235245,
2,1,0,1,0,46497.9,0.237512,0.237172,3.86369,24,0.0133113,10,0.000916361,-2.413,-1.00351,-0.0587936,-8.86631,0.237172,
2,1,0,1,0,46497.9,0.23951,0.239213,3.84655,24,0.0133886,10,0.000920146,-2.41493,-1.53057,-0.0385477,-5.79487,0.239213,
2,1,0,1,0,46497.9,0.241508,0.241217,3.84025,24,0.0134652,10,0.000926335,-2.41564,-1.69349,-0.0348393,-5.21585,0.241217,
2,1,0,1,0,46498,0.243505,0.24321,3.8257,24,0.0135419,10,0.000930448,-2.41729,-1.21193,-0.0486825,-7.26869,0.24321,
2,1,0,1,0,46498,0.245503,0.245196,3.81133,24,0.0136184,10,0.000934523,-2.41892,-1.24842,-0.0472597,-7.03012,0.2451957,
2,1,0,1,0,46498,0.2475,0.247214,3.79755,24,0.0136946,10,0.000938809,-2.4205,-1.47561,-0.0399834,-5.9289,0.247214,
2,1,0,1,0,46498,0.249498,0.249169,3.78778,24,0.0137702,10,0.000943797,-2.42162,-1.53467,-0.0384449,-5.68081,0.249169,
2,1,0,1,0,46498,0.251496,0.251192,3.77495,24,0.013846,10,0.000948239,-2.42309,-1.54651,-0.0381503,-5.62281,0.251192,
2,1,0,1,0,46498.1,0.253493,0.25317,3.76528,24,0.0139215,10,0.000953256,-2.4242,-1.54488,-0.0381906,-5.60947,0.25317,
2,1,0,1,0,46498.1,0.255491,0.255241,3.75224,24,0.0139967,10,0.000957726,-2.42571,-2.24918,-0.0262318,-3.84677,0.255241,
2,1,0,1,0,46498.1,0.257488,0.257183,3.74984,24,0.0140715,10,0.000964397,-2.42599,-2.31111,-0.0255289,-3.73105,0.2571834,
2,1,0,1,0,46498.1,0.259486,0.259197,3.73748,24,0.0141465,10,0.000968743,-2.42742,-1.21411,-0.0485952,-7.08455,0.2591967,
2,1,0,1,0,46498.1,0.261484,0.261212,3.7213,24,0.0142212,10,0.000972049,-2.42931,-1.44258,-0.0408988,-5.94669,0.261212,
2,1,0,1,0,46498.2,0.263481,0.263176,3.71382,24,0.0142957,10,0.000977388,-2.43018,-5.02089,-0.0117509,-1.70503,0.263176,
2,1,0,1,0,46498.2,0.265479,0.265191,3.71452,24,0.0143697,10,0.000985057,-2.4301,-1.9398,-0.0304154,-4.39793,0.265191,
2,1,0,1,0,46498.2,0.267476,0.267174,3.69624,24,0.014444,10,0.000987538,-2.43224,-1.28266,-0.0459981,-6.64437,0.267174,
2,1,0,1,0,46498.2,0.269474,0.269176,3.68804,24,0.0145179,10,0.000992732,-2.4332,-2.32773,-0.0253466,-3.6491,0.269176,
2,1,0,1,0,46498.2,0.271471,0.271168,3.68166,24,0.0145917,10,0.000998348,-2.43396,-3.77986,-0.0156091,-2.24392,0.271168,
2,1,0,1,0,46498.3,0.273469,0.273163,3.67909,24,0.014665,10,0.00100499,-2.43426,-1.6496,-0.0357663,-5.12477,0.273163,
2,1,0,1,0,46498.3,0.275467,0.275155,3.66123,24,0.0147386,10,0.0010074,-2.43637,-1.48188,-0.0398143,-5.6987,0.275155,
2,1,0,1,0,46498.3,0.277464,0.277218,3.65598,24,0.0148119,10,0.00101351,-2.437,-2.32784,-0.0253454,-3.61432,0.277218,
2,1,0,1,0,46498.3,0.279462,0.279178,3.64669,24,0.014885,10,0.00101808,-2.4381,-1.83751,-0.0321086,-4.57008,0.279178,
2,1,0,1,0,46498.3,0.281464,0.281137,3.63807,24,0.014958,10,0.0010228,-2.43913,-2.67911,-0.0220223,-3.12877,0.281137,
2,1,0,1,0,46498.4,0.283457,0.2832,3.63411,24,0.0150304,10,0.00102918,-2.4396,-2.61403,-0.0225705,-3.19892,0.2832,
2,1,0,1,0,46498.4,0.285455,0.285183,3.62513,24,0.0151031,10,0.00103383,-2.44068,-1.3627,-0.0432963,-6.12008,0.285183,
2,1,0,1,0,46498.4,0.287452,0.287167,3.60983,24,0.0151756,10,0.00103662,-2.44251,-1.56559,-0.0376854,-5.31605,0.287167,
2,1,0,1,0,46498.4,0.28945,0.289167,3.60395,24,0.0152478,10,0.00104214,-2.44322,-2.2496,-0.0262269,-3.6873,0.289167,
2,1,0,1,0,46498.4,0.291447,0.291163,3.59509,24,0.0153196,10,0.00104676,-2.44429,-1.69716,-0.0347639,-4.8764,0.291163,
2,1,0,1,0,46498.5,0.293445,0.293147,3.58455,24,0.0153916,10,0.0010508,-2.44557,-1.89451,-0.0311426,-4.35893,0.293147,
2,1,0,1,0,46498.5,0.295442,0.295138,3.57777,24,0.0154634,10,0.00105593,-2.44639,-3.06145,-0.0192719,-2.69193,0.295138,
2,1,0,1,0,46498.5,0.29744,0.29719,3.57366,24,0.015535,10,0.00106206,-2.44689,-2.21782,-0.0266027,-3.7068,0.29719,
2,1,0,1,0,46498.5,0.299438,0.299138,3.56294,24,0.0156062,10,0.00106581,-2.44819,-0.0357939,-1.64832,-213.857,0.299138,
2,1,0,1,0,46498.5,0.299737,0.299465,3.08707,24,0.0156354,10,0.00092447,-2.51045,0.00396027,14.898,1327.9,0.2994653,
2,1,0,1,0,46498.5,0.29774,0.297475,1.35512,24,0.0156771,10,0.000403115,-2.86802,0.00469027,12.5792,661.231,0.297475,
2,1,0,1,0,46498.6,0.295742,0.295445,0.429031,24,0.0156939,10,0.000126755,-3.36751,0.00437108,13.4978,375.034,0.295445,
2,0,0,1,0,46498.6,0.293745,0.293432,-0.161089,24,0.015696,10,-4.72687e-05,-3.79293,-0.0342852,-1.72086,247.571,0.293432,
2,0,0,1,0,46498.6,0.291747,0.291445,-0.56125,24,0.0156885,10,-0.000163574,-3.25084,-0.00549836,-10.7305,174.307,0.291445,
2,0,0,1,0,46498.6,0.289754,0.289442,-0.856626,24,0.0156741,10,-0.000247943,-3.06721,-0.0141908,-4.15762,128.383,0.289442,
2,0,0,1,0,46498.6,0.287752,0.28743,-1.07679,24,0.0156546,10,-0.000309501,-2.96787,-0.0244157,-2.41647,98.035,0.28743,
2,0,0,1,0,46498.7,0.285754,0.285462,-1.24677,24,0.0156312,10,-0.000355907,-2.90421,-0.0368217,-1.60231,76.505,0.285462,
2,0,0,1,0,46498.7,0.283757,0.28343,-1.38281,24,0.0156048,10,-0.00039193,-2.85924,-0.0490992,-1.20165,64.3727,0.2834298,
2,0,0,1,0,46498.7,0.281759,0.281424,-1.50673,24,0.0155758,10,-0.00042403,-2.82196,-0.0622066,-0.948452,55.1204,0.281424,
2,0,0,1,0,46498.7,0.279761,0.279476,-1.60077,24,0.0155447,10,-0.000447376,-2.79567,-0.0800475,-0.737063,45.91,0.279476,
2,0,0,1,0,46498.7,0.277764,0.277459,-1.68878,24,0.0155117,10,-0.000468565,-2.77243,-0.095226,-0.619578,40.6539,0.277459,
2,0,0,1,0,46498.8,0.275766,0.275449,-1.76446,24,0.0154771,10,-0.00048602,-2.75339,-0.114091,-0.517131,35.4929,0.275449,
2,0,0,1,0,46498.8,0.273769,0.273468,-1.83041,24,0.015441,10,-0.000500559,-2.73745,-0.127191,-0.46387,33.1307,0.273468,
2,0,0,1,0,46498.8,0.271771,0.271439,-1.8973,24,0.0154038,10,-0.000515003,-2.72186,-0.1389,-0.424767,31.3742,0.271439,
2,0,0,1,0,46498.8,0.269774,0.26946,-1.95617,24,0.0153652,10,-0.00052711,-2.70859,-0.16045,-0.367716,28.0255,0.26946,
2,0,0,1,0,46498.8,0.267776,0.267435,-2.00954,24,0.0153255,10,-0.000537421,-2.6969,-0.194806,-0.302865,23.6797,0.2674346,
2,0,0,1,0,46498.9,0.265778,0.26544,-2.05135,24,0.0152848,10,-0.00054451,-2.68796,-0.19582,-0.301298,24.1943,0.2654404,
2,0,0,1,0,46498.9,0.263781,0.263434,-2.10634,24,0.0152433,10,-0.000554882,-2.67647,-0.197542,-0.29867,24.4747,0.263434,
2,0,0,1,0,46498.9,0.261783,0.261456,-2.14885,24,0.0152007,10,-0.000561832,-2.66779,-0.242856,-0.242942,20.3493,0.2614564,
2,0,0,1,0,46498.9,0.259786,0.259486,-2.18668,24,0.0151572,10,-0.000567412,-2.66022,-0.25623,-0.230261,19.6605,0.259486,
2,0,0,1,0,46498.9,0.257788,0.257469,-2.22725,24,0.015113,10,-0.000573447,-2.65223,-0.23684,-0.249114,21.6829,0.257469,
2,0,0,1,0,46499,0.25579,0.25544,-2.27441,24,0.0150681,10,-0.000580975,-2.64313,-0.269397,-0.219007,19.3615,0.25544,
2,0,0,1,0,46499,0.253793,0.25352,-2.3037,24,0.0150223,10,-0.000584035,-2.63757,-0.342008,-0.172511,15.5182,0.2535204,
2,0,0,1,0,46499,0.251795,0.251487,-2.33575,24,0.0149757,10,-0.00058741,-2.63157,-0.317925,-0.185578,16.9304,0.251487,
2,0,0,1,0,46499,0.249798,0.249493,-2.37189,24,0.0149286,10,-0.00059177,-2.6249,-0.308727,-0.191107,17.6832,0.249493,
2,0,0,1,0,46499,0.2478,0.247488,-2.40647,24,0.0148809,10,-0.000595572,-2.61862,-0.357016,-0.165259,15.4989,0.2474878,
2,0,0,1,0,46499.1,0.245802,0.245446,-2.43461,24,0.0148325,10,-0.000597565,-2.61357,-0.363972,-0.1621,15.4172,0.245446,
2,0,0,1,0,46499.1,0.243805,0.243509,-2.46782,24,0.0147833,10,-0.000600935,-2.60769,-0.379956,-0.155281,14.9307,0.243509,
2,0,0,1,0,46499.1,0.241807,0.241527,-2.49312,24,0.0147336,10,-0.000602156,-2.60326,-0.380495,-0.155061,15.116,0.241527,
2,0,0,1,0,46499.1,0.23981,0.239515,-2.52818,24,0.0146835,10,-0.000605538,-2.59719,-0.377859,-0.156143,15.3809,0.239515,
2,0,0,1,0,46499.1,0.237812,0.23749,-2.55522,24,0.0146326,10,-0.000606839,-2.59257,-0.447484,-0.131848,13.1449,0.23749,
2,0,0,1,0,46499.2,0.235815,0.235486,-2.58114,24,0.0145811,10,-0.000607823,-2.58819,-0.475127,-0.124177,12.5049,0.235486,
2,0,0,1,0,46499.2,0.233817,0.233462,-2.60558,24,0.0145292,10,-0.000608305,-2.58409,-0.42045,-0.140326,14.2913,0.233462,
2,0,0,1,0,46499.2,0.231815,0.231491,-2.63824,24,0.0144766,10,-0.000610729,-2.57869,-0.400774,-0.147215,15.1417,0.231491,
2,0,0,1,0,46499.2,0.229822,0.229498,-2.6656,24,0.0144238,10,-0.000611752,-2.5742,-0.48933,-0.120573,12.5315,0.229498,
2,0,0,1,0,46499.2,0.227824,0.22751,-2.68813,24,0.0143702,10,-0.000611576,-2.57055,-0.484556,-0.121761,12.7868,0.22751,
2,0,0,1,0,46499.3,0.225827,0.225537,-2.71626,24,0.0143161,10,-0.000612616,-2.56603,-0.483743,-0.121966,12.9183,0.225537,
2,0,0,1,0,46499.3,0.223829,0.223496,-2.73998,24,0.0142615,10,-0.000612375,-2.56225,-0.535702,-0.110136,11.7763,0.223496,
2,0,0,1,0,46499.3,0.221831,0.221528,-2.76346,24,0.0142066,10,-0.000612186,-2.55855,-0.525848,-0.1122,12.1024,0.221528,
2,0,0,1,0,46499.3,0.219834,0.219538,-2.78789,24,0.014151,10,-0.000612046,-2.55472,-0.475201,-0.124158,13.5201,0.2195376,
2,0,0,1,0,46499.3,0.217836,0.217554,-2.81719,24,0.0140948,10,-0.000612893,-2.55018,-0.568247,-0.103828,11.3888,0.217554,
2,0,0,1,0,46499.4,0.215839,0.215539,-2.83343,24,0.0140383,10,-0.000610714,-2.54769,-0.537814,-0.109703,12.1661,0.215539,
2,0,0,1,0,46499.4,0.213841,0.213526,-2.8662,24,0.0139814,10,-0.000612009,-2.54269,-0.489364,-0.120565,13.4576,0.213526,
2,0,0,1,0,46499.4,0.211843,0.211559,-2.88698,24,0.0139238,10,-0.000610768,-2.53956,-0.657276,-0.0897645,10.1114,0.211559,
2,0,0,1,0,46499.4,0.209846,0.209537,-2.90653,24,0.0138657,10,-0.000609027,-2.53662,-0.582698,-0.101253,11.4991,0.209537,
2,0,0,1,0,46499.4,0.207848,0.207547,-2.93312,24,0.0138072,10,-0.00060876,-2.53267,-0.414464,-0.142353,16.3301,0.207547,
2,0,0,1,0,46499.5,0.205851,0.205496,-2.97253,24,0.0137483,10,-0.000610843,-2.52687,-0.504955,-0.116842,13.4978,0.205496,
2,0,0,1,0,46499.5,0.203853,0.203545,-2.98714,24,0.0136887,10,-0.000608017,-2.52474,-0.712721,-0.0827813,9.6645,0.203545,
2,0,0,1,0,46499.5,0.201856,0.20157,-3.01047,24,0.0136286,10,-0.000606821,-2.52137,-0.550437,-0.107188,12.601,0.20157,
2,0,0,1,0,46499.5,0.199858,0.199541,-3.03759,24,0.0135681,10,-0.000606125,-2.51747,-0.497209,-0.118662,14.0732,0.199541,
2,0,0,1,0,46499.5,0.19786,0.197518,-3.06749,24,0.0135073,10,-0.000605886,-2.51322,-0.605795,-0.0973927,11.6339,0.197518,
2,0,0,1,0,46499.6,0.195863,0.19554,-3.08414,24,0.0134457,10,-0.000603073,-2.51087,-0.532064,-0.110889,13.3905,0.19554,
2,0,0,1,0,46499.6,0.193865,0.193521,-3.12102,24,0.0133836,10,-0.000603983,-2.5057,-0.488855,-0.12069,14.665,0.193521,
2,0,0,1,0,46499.6,0.191868,0.191526,-3.14301,24,0.0133209,10,-0.000601967,-2.50265,-0.535647,-0.110147,13.5324,0.191526,
2,0,0,1,0,46499.6,0.18987,0.189519,-3.17517,24,0.013258,10,-0.000601756,-2.49823,-0.494104,-0.119408,14.7834,0.1895193,
2,0,0,1,0,46499.6,0.187872,0.187549,-3.2018,24,0.0131942,10,-0.000600494,-2.49461,-0.5608,-0.105207,13.1437,0.187549,
2,0,0,1,0,46499.7,0.185875,0.185551,-3.22733,24,0.0131299,10,-0.000598835,-2.49116,-0.639566,-0.0922501,11.6107,0.1855513,
2,0,0,1,0,46499.7,0.183877,0.183546,-3.24827,24,0.013065,10,-0.000596208,-2.48835,-0.449915,-0.131136,16.6855,0.183546,
2,0,0,1,0,46499.7,0.18188,0.181588,-3.29345,24,0.0129999,10,-0.000598052,-2.48235,-0.404007,-0.146037,18.7241,0.181588,
2,0,0,1,0,46499.7,0.179882,0.179578,-3.32258,24,0.0129337,10,-0.000596661,-2.47852,-0.557504,-0.105829,13.7172,0.1795776,
2,0,0,1,0,46499.7,0.177885,0.177528,-3.34914,24,0.0128669,10,-0.000594568,-2.47507,-0.518222,-0.113851,14.8954,0.177528,
2,0,0,1,0,46499.8,0.175887,0.175564,-3.38236,24,0.0127995,10,-0.000593822,-2.47078,-0.410055,-0.143883,19.0172,0.175564,
2,0,0,1,0,46499.8,0.173896,0.173567,-3.42448,24,0.0127317,10,-0.000594376,-2.46541,-0.391422,-0.150732,20.1348,0.173567,
2,0,0,1,0,46499.8,0.171892,0.171535,-3.4635,24,0.0126626,10,-0.00059411,-2.46049,-0.424692,-0.138924,18.768,0.171535,
2,0,0,1,0,46499.8,0.169894,0.169597,-3.49898,24,0.012593,10,-0.000593417,-2.45606,-0.372725,-0.158294,21.6596,0.169597,
2,0,0,1,0,46499.8,0.167897,0.167586,-3.54903,24,0.0125224,10,-0.000594767,-2.44989,-0.343455,-0.171784,23.776,0.167586,
2,0,0,1,0,46499.9,0.165899,0.165587,-3.59433,24,0.0124508,10,-0.000595174,-2.44438,-0.356303,-0.16559,23.2351,0.165587,
2,0,0,1,0,46499.9,0.163901,0.163576,-3.6422,24,0.0123787,10,-0.000595776,-2.43864,-0.315497,-0.187007,26.6202,0.1635758,
2,0,0,1,0,46499.9,0.161904,0.161575,-3.70112,24,0.0123052,10,-0.000598009,-2.43167,-0.296149,-0.199224,28.7593,0.161575,
2,0,0,1,0,46499.9,0.159906,0.159612,-3.75619,24,0.0122306,10,-0.000599534,-2.42525,-0.292958,-0.201394,29.5529,0.159612,
2,0,0,1,0,46499.9,0.157909,0.157568,-3.81955,24,0.0121547,10,-0.000601839,-2.41799,-0.250349,-0.235671,35.192,0.157568,
2,0,0,1,0,46500,0.155911,0.155605,-3.8972,24,0.0120778,10,-0.000606425,-2.40925,-0.224092,-0.263284,40.0611,0.155605,
2,0,0,1,0,46500,0.153913,0.153583,-3.9792,24,0.011999,10,-0.000611137,-2.4002,-0.221067,-0.266888,41.4565,0.153583,
2,0,0,1,0,46500,0.151916,0.151575,-4.06429,24,0.0119185,10,-0.000616044,-2.39102,-0.200605,-0.29411,46.7437,0.151575,
2,0,0,1,0,46500,0.149918,0.149564,-4.16703,24,0.0118361,10,-0.00062324,-2.38017,-0.173488,-0.340081,55.3992,0.149564,
2,0,0,1,0,46500,0.147921,0.147577,-4.28576,24,0.0117519,10,-0.00063248,-2.36797,-0.165881,-0.355676,59.4546,0.147577,
2,0,0,1,0,46500.1,0.145923,0.145621,-4.40149,24,0.0116649,10,-0.000640949,-2.3564,-0.149432,-0.394827,68.0774,0.145621,
2,0,0,1,0,46500.1,0.143926,0.143651,-4.55307,24,0.0115754,10,-0.000654052,-2.3417,-0.131089,-0.450077,80.0978,0.143651,
2,0,0,1,0,46500.1,0.141928,0.141615,-4.72238,24,0.0114825,10,-0.000668759,-2.32584,-0.122243,-0.482645,89.0798,0.1416146,
2,0,0,1,0,46500.1,0.13993,0.139646,-4.90982,24,0.0113866,10,-0.000685636,-2.30893,-0.116701,-0.505565,96.9844,0.139646,
2,0,0,1,0,46500.1,0.137933,0.13758,-5.11367,24,0.0112864,10,-0.000703539,-2.29127,-0.1141,-0.517089,103.238,0.13758,
2,0,0,1,0,46500.2,0.135935,0.135602,-5.32735,24,0.011182,10,-0.000722396,-2.27349,-0.108211,-0.54523,113.593,0.135602,
2,0,0,1,0,46500.2,0.133938,0.133567,-5.56958,24,0.0110729,10,-0.00074391,-2.25418,-0.105283,-0.560395,121.803,0.133567,
2,0,0,1,0,46500.2,0.13194,0.131569,-5.81849,24,0.0109595,10,-0.000765534,-2.23519,-0.103411,-0.57054,129.63,0.131569,
2,0,0,1,0,46500.2,0.129942,0.129617,-6.08151,24,0.0108405,10,-0.000788269,-2.21599,-0.105687,-0.558252,132.372,0.129617,
2,0,0,1,0,46500.2,0.127945,0.127626,-6.34051,24,0.0107161,10,-0.000809212,-2.19788,-0.11243,-0.524773,129.756,0.127626,
2,0,0,1,0,46500.3,0.125947,0.125646,-6.59683,24,0.0105867,10,-0.000828865,-2.18066,-0.115284,-0.511777,131.784,0.125646,
2,0,0,1,0,46500.3,0.12395,0.123665,-6.86252,24,0.0104527,10,-0.00084865,-2.16352,-0.121531,-0.485472,129.842,0.123665,
2,0,0,1,0,46500.3,0.121952,0.121648,-7.1159,24,0.0103128,10,-0.000865636,-2.14777,-0.131845,-0.447495,124.088,0.121648,
2,0,0,1,0,46500.3,0.119955,0.119707,-7.35355,24,0.010168,10,-0.000880275,-2.1335,-0.143745,-0.41045,117.73,0.119707,
2,0,0,1,0,46500.3,0.117957,0.117635,-7.58841,24,0.0100184,10,-0.000892661,-2.11985,-0.152426,-0.387073,114.575,0.117635,
2,0,0,1,0,46500.4,0.115955,0.115632,-7.82051,24,0.00986426,10,-0.0009043,-2.10676,-0.165602,-0.356275,108.496,0.115632,
2,0,0,1,0,46500.4,0.113962,0.113642,-8.02163,24,0.00970645,10,-0.000911592,-2.09574,-0.182786,-0.322782,101.025,0.113642,
2,0,0,1,0,46500.4,0.111964,0.111656,-8.22219,24,0.00954385,10,-0.000918055,-2.08501,-0.192501,-0.306492,98.2724,0.111656,
2,0,0,1,0,46500.4,0.109967,0.109659,-8.41302,24,0.00937735,10,-0.000922564,-2.07505,-0.215039,-0.274369,89.9565,0.109659,
2,0,0,1,0,46500.4,0.107969,0.107651,-8.58247,24,0.00920729,10,-0.00092391,-2.06639,-0.244913,-0.240901,80.6039,0.107651,
2,0,0,1,0,46500.5,0.105971,0.105654,-8.73581,24,0.00903483,10,-0.000922977,-2.0587,-0.274896,-0.214627,73.108,0.1056544,
2,0,0,1,0,46500.5,0.103974,0.103645,-8.87529,24,0.00885861,10,-0.000919884,-2.05182,-0.315695,-0.186889,64.6466,0.103645,
2,0,0,1,0,46500.5,0.101976,0.101689,-8.99213,24,0.00867981,10,-0.000914405,-2.04614,-0.391319,-0.150772,52.8474,0.101689,
2,0,0,1,0,46500.5,0.0999786,0.099618,-9.08813,24,0.0084989,10,-0.000905342,-2.04153,-0.45295,-0.130257,46.1803,0.099618,
2,0,0,1,0,46500.5,0.0979811,0.0976843,-9.17709,24,0.00831703,10,-0.000896458,-2.0373,-0.595418,-0.09909,35.4175,0.0976843,
2,0,0,1,0,46500.6,0.0959835,0.0956345,-9.22922,24,0.00813286,10,-0.000882632,-2.03484,-0.971564,-0.0607268,21.8538,0.0956345,
2,0,0,1,0,46500.6,0.0939859,0.093649,-9.26528,24,0.00794782,10,-0.000867684,-2.03314,-1.57432,-0.0374765,13.5376,0.093649,
2,0,0,1,0,46500.6,0.0919883,0.0916926,-9.28258,24,0.00776226,10,-0.000851144,-2.03233,-3.10674,-0.018991,6.87723,0.0916926,
2,0,0,1,0,46500.6,0.0899907,0.0896467,-9.2928,24,0.00757734,10,-0.000833069,-2.03185,3.43281,0.0171871,-6.21798,0.08964666,
2,0,0,1,0,46500.6,0.0879931,0.0876685,-9.25756,24,0.00739174,10,-0.000811596,-2.0335,1.32841,0.0444141,-16.0521,0.0876685,
2,0,0,1,0,46500.7,0.0859955,0.0856591,-9.22879,24,0.00720679,10,-0.000790531,-2.03486,1.14559,0.0515019,-18.5331,0.0856591,
2,0,0,1,0,46500.7,0.083998,0.0836918,-9.18386,24,0.0070226,10,-0.000768614,-2.03697,0.833471,0.0707883,-25.3561,0.08369185,
2,0,0,1,0,46500.7,0.0820004,0.0816763,-9.1278,24,0.0068403,10,-0.000745525,-2.03963,0.716351,0.0823619,-29.3302,0.0816763,
2,0,0,1,0,46500.7,0.0800028,0.0796746,-9.06603,24,0.00665833,10,-0.000722333,-2.04258,0.661584,0.0891799,-31.5505,0.0796746,
2,0,0,1,0,46500.7,0.0780052,0.0777152,-9.00283,24,0.00647756,10,-0.000699657,-2.04562,0.610553,0.0966338,-33.9357,0.07771524,
2,0,0,1,0,46500.8,0.0760076,0.075697,-8.93105,24,0.00629814,10,-0.000676053,-2.0491,0.658277,0.0896279,-31.2699,0.07569696,
2,0,0,1,0,46500.8,0.07401,0.0736823,-8.87672,24,0.00612092,10,-0.000654057,-2.05175,0.700531,0.0842218,-29.1638,0.0736823,
2,0,0,1,0,46500.8,0.0720124,0.0717033,-8.81458,24,0.00594397,10,-0.000632034,-2.0548,0.68495,0.0861377,-29.6432,0.07170327,
2,0,0,1,0,46500.8,0.0700148,0.0697256,-8.75943,24,0.00576819,10,-0.000610756,-2.05752,0.706824,0.083472,-28.5298,0.0697256,
2,0,0,1,0,46500.8,0.0680173,0.0677309,-8.70125,24,0.00559361,10,-0.000589344,-2.06042,0.836933,0.0704955,-23.9674,0.0677309,
2,0,0,1,0,46500.9,0.0660106,0.0657389,-8.66388,24,0.00542,10,-0.000569554,-2.06229,0.877393,0.0672447,-22.7148,0.0657389,
2,0,0,1,0,46500.9,0.0640221,0.0637031,-8.60976,24,0.00524809,10,-0.000548468,-2.06501,0.74342,0.079363,-26.6684,0.0637031,
2,0,0,1,0,46500.9,0.0620245,0.0617246,-8.55683,24,0.00507639,10,-0.000528167,-2.06769,0.768586,0.0767644,-25.6417,0.06172464,
2,0,0,1,0,46500.9,0.0600269,0.0597524,-8.50845,24,0.00490566,10,-0.000508401,-2.07015,0.901439,0.0654509,-21.7446,0.05975242,
2,0,0,1,0,46500.9,0.0580361,0.0576828,-8.46894,24,0.00473667,10,-0.000488512,-2.07217,0.86616,0.0681168,-22.4981,0.0576828,
2,0,0,1,0,46501,0.0560317,0.0557263,-8.41787,24,0.00456765,10,-0.000469097,-2.0748,0.823273,0.0716652,-23.5546,0.0557263,
2,0,0,1,0,46501,0.0540342,0.053687,-8.37482,24,0.00439964,10,-0.000449619,-2.07702,0.88966,0.0663174,-21.6733,0.053687,
2,0,0,1,0,46501,0.0520366,0.0516872,-8.33033,24,0.00423252,10,-0.000430571,-2.07934,0.773081,0.076318,-24.7978,0.0516872,
2,0,0,1,0,46501,0.050039,0.0497368,-8.27686,24,0.00406636,10,-0.000411665,-2.08213,0.778443,0.0757923,-24.4978,0.0497368,
2,0,0,1,0,46501,0.0480414,0.0477523,-8.23394,24,0.00390197,10,-0.00039319,-2.08439,0.773632,0.0762637,-24.4903,0.0477523,
2,0,0,1,0,46501.1,0.0460438,0.045783,-8.18003,24,0.00373779,10,-0.000374506,-2.08724,0.693067,0.0851289,-27.1735,0.045783,
2,0,0,1,0,46501.1,0.0440462,0.0437249,-8.1245,24,0.00357467,10,-0.000355243,-2.0902,0.664933,0.0887307,-28.1305,0.0437249,
2,0,0,1,0,46501.1,0.0420486,0.041768,-8.06709,24,0.00341272,10,-0.000336946,-2.09328,0.705358,0.0836454,-26.3493,0.041768,
2,0,0,1,0,46501.1,0.0400511,0.0397242,-8.01908,24,0.00325255,10,-0.000318552,-2.09588,0.692495,0.0851992,-26.6435,0.0397242,
2,0,0,1,0,46501.1,0.0380535,0.0377135,-7.95906,24,0.00309268,10,-0.000300164,-2.09914,0.567742,0.10392,-32.2629,0.0377135,
2,0,0,1,0,46501.2,0.0360559,0.0357606,-7.8912,24,0.00293412,10,-0.000282194,-2.10286,0.562471,0.104894,-32.3172,0.0357606,
2,0,0,1,0,46501.2,0.0340583,0.0337221,-7.83007,24,0.00277683,10,-0.000264047,-2.10623,0.591634,0.0997239,-30.474,0.03372211,
2,0,0,1,0,46501.2,0.0320607,0.0317592,-7.76927,24,0.00262149,10,-0.000246746,-2.10962,0.549047,0.107459,-32.5647,0.0317592,
2,0,0,1,0,46501.2,0.0300631,0.0297355,-7.70025,24,0.00246676,10,-0.000228971,-2.1135,0.495965,0.11896,-35.7368,0.0297355,
2,0,0,1,0,46501.2,0.0280655,0.0277567,-7.62623,24,0.00231348,10,-0.000211679,-2.11769,0.457227,0.129039,-38.3934,0.0277567,
2,0,0,1,0,46501.3,0.0260679,0.025767,-7.54789,24,0.00216163,10,-0.000194487,-2.12217,0.470037,0.125522,-36.9964,0.025767,
2,0,0,1,0,46501.3,0.0240704,0.0237698,-7.47873,24,0.002012,10,-0.000177768,-2.12617,0.480203,0.122865,-35.8452,0.0237698,
2,0,0,1,0,46501.3,0.0220728,0.0217409,-7.40357,24,0.00186314,10,-0.00016096,-2.13056,0.438816,0.134453,-38.8327,0.0217409,
2,0,0,1,0,46501.3,0.0200752,0.0197576,-7.32292,24,0.00171584,10,-0.000144683,-2.13532,0.413646,0.142634,-40.7569,0.0197576,
2,0,0,1,0,46501.3,0.0180776,0.0177395,-7.24049,24,0.00157009,10,-0.000128443,-2.14023,0.439891,0.134124,-37.9356,0.0177395,
2,0,0,1,0,46501.4,0.01608,0.0157848,-7.17221,24,0.00142664,10,-0.000113212,-2.14435,0.480189,0.122868,-34.3909,0.0157848,
2,0,0,1,0,46501.4,0.0140824,0.0137698,-7.10396,24,0.00128384,10,-9.78204e-05,-2.1485,0.459634,0.128363,-35.5665,0.01376983,
2,0,0,1,0,46501.4,0.0120848,0.0117184,-7.02759,24,0.00114252,10,-8.23518e-05,-2.15319,0.432276,0.136487,-37.4376,0.0117184,
2,0,0,1,0,46501.4,0.0100872,0.0097449,-6.95328,24,0.00100275,10,-6.7759e-05,-2.15781,0.484625,0.121744,-33.0802,0.0097449,
2,0,0,1,0,46501.4,0.00809193,0.00778939,-6.89761,24,0.00086494,10,-5.37282e-05,-2.1613,0.512478,0.115127,-30.9651,0.00778939,
2,0,0,1,0,46501.5,0.00609208,0.00578435,-6.83064,24,0.000727611,10,-3.95109e-05,-2.16554,0.494657,0.119275,-31.8085,0.00578435,
2,0,0,1,0,46501.5,0.00409449,0.00375936,-6.76942,24,0.0005916,10,-2.54487e-05,-2.16945,0.950283,0.0620868,-16.4701,0.00375936,
2,0,0,1,0,46501.5,0.0020969,0.00173437,-6.76394,24,0.000456562,10,-1.17312e-05,-2.1698,0.82258,0.0717255,-18.8413,0.00173437,
2,0,0,1,0,46501.5,9.14991e-05,-0.000321853,-6.69253,24,0.000322037,10,2.15401e-06,-2.17441,0.533904,0.110507,-28.9204,-0.000321853,
2,0,0,1,0,46501.5,-0.00189827,-0.00227265,-6.64805,24,0.000189247,10,1.51087e-05,-2.17731,0.653777,0.0902449,-23.4076,-0.00227265,
2,0,0,1,0,46501.6,-0.00389586,-0.00427516,-6.59999,24,5.67432e-05,10,2.8216e-05,-2.18046,0.749213,0.0787493,-20.3064,-0.00427516,
2,0,0,1,0,46501.6,-0.00589345,-0.00628181,-6.56664,24,-7.50114e-05,10,4.12504e-05,-2.18266,0.880445,0.0670116,-17.1713,-0.00628181,
2,0,0,1,0,46501.6,-0.00789103,-0.00824532,-6.53182,24,-0.000206077,10,5.38569e-05,-2.18497,1.26718,0.0465601,-11.8889,-0.00824532,
2,0,0,1,0,46501.6,-0.00988862,-0.0102872,-6.51902,24,-0.000336021,10,6.70623e-05,-2.18582,1.99104,0.0296327,-7.53625,-0.0102872,
2,0,0,1,0,46501.6,-0.0118862,-0.0122853,-6.50137,24,-0.000466298,10,7.98711e-05,-2.18699,1.63019,0.036192,-9.18231,-0.0122853,
2,0,0,1,0,46501.7,-0.0138838,-0.0142244,-6.48287,24,-0.000596255,10,9.22147e-05,-2.18823,2.34196,0.0251926,-6.37968,-0.0142244,
2,0,0,1,0,46501.7,-0.0158814,-0.0162368,-6.47616,24,-0.0007259,10,0.000105152,-2.18868,53.5965,0.00110082,-0.27849,-0.0162368,
2,0,0,1,0,46501.7,-0.017879,-0.0182396,-6.48175,24,-0.00085494,10,0.000118225,-2.18831,-38.936,-0.00151531,0.383031,-0.0182396,
2,0,0,1,0,46501.7,-0.0198766,-0.0202678,-6.47771,24,-0.000984609,10,0.000131289,-2.18858,-27.7094,-0.00212924,0.538708,-0.0202678,
2,0,0,1,0,46501.7,-0.0218741,-0.0222567,-6.48392,24,-0.00111426,10,0.00014431,-2.18816,-3.18039,-0.0185512,4.6965,-0.0222567,
2,0,0,1,0,46501.8,-0.0238717,-0.0241982,-6.49617,24,-0.00124413,10,0.000157195,-2.18734,-1.89786,-0.0310876,7.88578,-0.0241982,
2,0,0,1,0,46501.8,-0.0258693,-0.026265,-6.51553,24,-0.00137368,10,0.00017113,-2.18605,-1.9519,-0.030227,7.68164,-0.026265,
2,0,0,1,0,46501.8,-0.0278669,-0.0282501,-6.52729,24,-0.00150414,10,0.000184397,-2.18527,-1.7645,-0.0334373,8.5247,-0.0282501,
2,0,0,1,0,46501.8,-0.0298645,-0.0302677,-6.54965,24,-0.00163494,10,0.000198243,-2.18378,-1.34121,-0.0439901,11.2445,-0.0302677,
2,0,0,1,0,46501.8,-0.0318621,-0.0322398,-6.57215,24,-0.00176623,10,0.000211885,-2.18229,-1.08559,-0.0543481,13.9506,-0.0322398,
2,0,0,1,0,46501.9,-0.0338597,-0.0342348,-6.60499,24,-0.0018974,10,0.00022612,-2.18013,-1.03354,-0.0570852,14.7067,-0.0342348,
2,0,0,1,0,46501.9,-0.0358573,-0.0362058,-6.63048,24,-0.00202985,10,0.000240062,-2.17845,-0.953803,-0.0618576,16.0223,-0.0362058,
2,0,0,1,0,46501.9,-0.0378548,-0.0382274,-6.66896,24,-0.00216295,10,0.000254937,-2.17594,-0.889806,-0.0663066,17.2477,-0.0382274,
2,0,0,1,0,46501.9,-0.0398524,-0.0402357,-6.69999,24,-0.00229672,10,0.000269579,-2.17393,-0.759977,-0.077634,20.3278,-0.0402357,
2,0,0,1,0,46501.9,-0.04185,-0.0422003,-6.74972,24,-0.00243056,10,0.00028484,-2.17071,-0.749234,-0.0787471,20.7167,-0.0422003,
2,0,0,1,0,46502,-0.0438476,-0.0442014,-6.78215,24,-0.00256595,10,0.000299781,-2.16863,-0.873255,-0.0675633,17.893,-0.0442014,
2,0,0,1,0,46502,-0.0458452,-0.0462546,-6.82227,24,-0.0027021,10,0.000315561,-2.16607,-0.730716,-0.0807428,21.5076,-0.0462546,
2,0,0,1,0,46502,-0.0478428,-0.048228,-6.86875,24,-0.00283909,10,0.000331266,-2.16312,-0.566034,-0.104234,27.9771,-0.048228,
2,0,0,1,0,46502,-0.0498495,-0.0502127,-6.933,24,-0.0029771,10,0.000348124,-2.15908,-0.596465,-0.0989161,26.7218,-0.0502127,
2,0,0,1,0,46502,-0.051838,-0.0522279,-6.97563,24,-0.0031155,10,0.000364323,-2.15642,-0.701112,-0.084152,22.9191,-0.0522279,
2,0,0,1,0,46502.1,-0.0538355,-0.0542026,-7.02445,24,-0.0032555,10,0.000380743,-2.15339,-0.629502,-0.0937249,25.7033,-0.05420262,
2,0,0,1,0,46502.1,-0.0558331,-0.056235,-7.07863,24,-0.00339657,10,0.000398067,-2.15005,-0.570383,-0.103439,28.5898,-0.056235,
2,0,0,1,0,46502.1,-0.0578217,-0.0582467,-7.14007,24,-0.00353808,10,0.000415885,-2.1463,-0.540978,-0.109062,30.3839,-0.0582467,
2,0,0,1,0,46502.1,-0.0598283,-0.0601884,-7.19875,24,-0.00368153,10,0.000433281,-2.14274,-0.52633,-0.112097,31.5082,-0.0601884,
2,0,0,1,0,46502.1,-0.0618259,-0.0622034,-7.26473,24,-0.00382616,10,0.000451891,-2.13878,-0.532898,-0.110715,31.3754,-0.0622034,
2,0,0,1,0,46502.2,-0.0638235,-0.0641907,-7.32432,24,-0.00397211,10,0.000470153,-2.13523,-0.539107,-0.10944,31.2932,-0.0641907,
2,0,0,1,0,46502.2,-0.0658211,-0.0661753,-7.38903,24,-0.00411929,10,0.000488971,-2.13141,-0.477834,-0.123474,35.6361,-0.0661753,
2,0,0,1,0,46502.2,-0.0678187,-0.0681833,-7.4666,24,-0.00426721,10,0.000509097,-2.12688,-0.452331,-0.130435,38.0016,-0.0681833,
2,0,0,1,0,46502.2,-0.0698162,-0.0701986,-7.54192,24,-0.00441732,10,0.000529433,-2.12252,-0.476976,-0.123696,36.3941,-0.0701986,
2,0,0,1,0,46502.2,-0.0718138,-0.0721733,-7.61182,24,-0.00456885,10,0.00054937,-2.11851,-0.464127,-0.12712,37.7888,-0.0721733,
2,0,0,1,0,46502.3,-0.0738114,-0.0741858,-7.69259,24,-0.00472194,10,0.000570681,-2.11393,-0.425911,-0.138527,41.6019,-0.0741858,
2,0,0,1,0,46502.3,-0.075809,-0.076194,-7.77908,24,-0.00487599,10,0.000592719,-2.10907,-0.444152,-0.132837,40.2984,-0.076194,
2,0,0,1,0,46502.3,-0.0778066,-0.0782038,-7.85451,24,-0.00503244,10,0.000614252,-2.10488,-0.422618,-0.139606,42.8433,-0.0782038,
2,0,0,1,0,46502.3,-0.0798042,-0.080149,-7.94853,24,-0.00519056,10,0.000637066,-2.09971,-0.392198,-0.150434,46.6527,-0.080149,
2,0,0,1,0,46502.3,-0.0818018,-0.0821553,-8.03886,24,-0.00535047,10,0.000660435,-2.09481,-0.397476,-0.148437,46.5856,-0.0821553,
2,0,0,1,0,46502.4,-0.0837994,-0.0841635,-8.13555,24,-0.00551151,10,0.000684716,-2.08961,-0.400579,-0.147287,46.7459,-0.0841635,
2,0,0,1,0,46502.4,-0.085797,-0.086171,-8.22658,24,-0.00567519,10,0.000708892,-2.08478,-0.39207,-0.150483,48.3447,-0.086171,
2,0,0,1,0,46502.4,-0.0877945,-0.0881631,-8.32891,24,-0.00584082,10,0.000734302,-2.07941,-0.381663,-0.154586,50.2342,-0.0881631,
2,0,0,1,0,46502.4,-0.0897921,-0.0901669,-8.42731,24,-0.00600843,10,0.000759864,-2.07431,-0.384412,-0.153481,50.4845,-0.0901669,
2,0,0,1,0,46502.4,-0.0917897,-0.0921154,-8.52844,24,-0.00617714,10,0.0007856,-2.06913,-0.387816,-0.152134,50.6279,-0.09211541,
2,0,0,1,0,46502.5,-0.0937873,-0.0941235,-8.62762,24,-0.00634876,10,0.000812062,-2.06411,-0.405015,-0.145674,49.0456,-0.0941235,
2,0,0,1,0,46502.5,-0.0957849,-0.0961463,-8.72613,24,-0.00652238,10,0.000838985,-2.05918,-0.416949,-0.141504,48.1831,-0.0961463,
2,0,0,1,0,46502.5,-0.0977825,-0.0981782,-8.82299,24,-0.00669789,10,0.000866226,-2.05438,-0.402603,-0.146546,50.4738,-0.0981782,
2,0,0,1,0,46502.5,-0.0997501,-0.10009,-8.92516,24,-0.00687184,10,0.000893315,-2.04938,0.00948976,6.21723,-1917.31,-0.10009,
2,0,0,1,1,46502.5,-0.0987313,-0.0991044,-7.04723,24,-0.00699347,10,0.000698412,-2.15198,-0.0130773,-4.51162,1220.84,-0.0991044,
2,0,0,1,1,46502.6,-0.0967337,-0.0970898,-5.26302,24,-0.00711503,10,0.000510986,-2.27877,-0.0157187,-3.75349,780.636,-0.0970898,
2,0,0,1,1,46502.6,-0.0947362,-0.095093,-3.9158,24,-0.00720591,10,0.000372365,-2.40718,-0.0146953,-4.01489,614.057,-0.095093,
2,0,0,1,1,46502.6,-0.0927386,-0.093121,-2.8259,24,-0.00727267,10,0.000263151,-2.54884,-0.0128079,-4.60654,502.055,-0.093121,
2,0,0,1,1,46502.6,-0.090741,-0.0910939,-1.908,24,-0.00731922,10,0.000173807,-2.71942,-0.010019,-5.88879,424.982,-0.0910939,
2,0,0,1,1,46502.6,-0.0887434,-0.089127,-1.12856,24,-0.00734913,10,0.000100585,-2.94748,-0.00632416,-9.32931,365.712,-0.089127,
2,0,0,1,1,46502.7,-0.0867458,-0.0870917,-0.444372,24,-0.00736446,10,3.87011e-05,-3.35225,-0.00457208,-12.9044,319.278,-0.0870917,
2,1,0,1,1,46502.7,-0.0847482,-0.085122,0.150159,24,-0.00736704,10,-1.27818e-05,-3.82345,0.0220163,2.67983,281.617,-0.085122,
2,1,0,1,1,46502.7,-0.0827529,-0.0831244,0.672893,24,-0.00735859,10,-5.59338e-05,-3.17205,0.00456385,12.9277,246.224,-0.0831244,
2,1,0,1,1,46502.7,-0.080753,-0.0811059,1.13902,24,-0.00734012,10,-9.23811e-05,-2.94347,0.0109652,5.38068,221.054,-0.0811059,
2,1,0,1,1,46502.7,-0.0787555,-0.0791386,1.55396,24,-0.00731289,10,-0.000122979,-2.80856,0.0175633,3.35927,196.454,-0.0791386,
2,1,0,1,1,46502.8,-0.0767579,-0.0770967,1.92664,24,-0.00727784,10,-0.000148538,-2.7152,0.0246811,2.3905,175.832,-0.0770967,
2,1,0,1,1,46502.8,-0.0747603,-0.0751268,2.25937,24,-0.00723574,10,-0.000169739,-2.64601,0.0315626,1.8693,162.938,-0.0751268,
2,1,0,1,1,46502.8,-0.0727627,-0.0731406,2.57125,24,-0.00718728,10,-0.000188063,-2.58986,0.0397218,1.48533,147.153,-0.0731406,
2,1,0,1,1,46502.8,-0.0707651,-0.0711825,2.83979,24,-0.0071329,10,-0.000202143,-2.54671,0.0498939,1.18251,130.23,-0.07118246,
2,1,0,1,1,46502.8,-0.0687675,-0.06917,3.08834,24,-0.00707339,10,-0.00021362,-2.51028,0.0604323,0.976299,117.036,-0.06917,
2,1,0,1,1,46502.9,-0.0667699,-0.0671152,3.31581,24,-0.0070091,10,-0.000222541,-2.47941,0.070632,0.835315,107.632,-0.0671152,
2,1,0,1,1,46502.9,-0.0647723,-0.0651177,3.52449,24,-0.00694076,10,-0.000229507,-2.4529,0.083652,0.705303,96.4713,-0.0651177,
2,1,0,1,1,46502.9,-0.0627748,-0.0631248,3.70077,24,-0.00686832,10,-0.00023361,-2.43171,0.0962958,0.612695,88.4336,-0.0631248,
2,1,0,1,1,46502.9,-0.0607772,-0.0611219,3.87785,24,-0.00679227,10,-0.000237022,-2.41141,0.110544,0.533722,80.3986,-0.0611219,
2,1,0,1,1,46502.9,-0.0587796,-0.0591117,4.02341,24,-0.00671304,10,-0.000237831,-2.39541,0.128202,0.46021,72.1982,-0.0591117,
2,1,0,1,1,46503,-0.056782,-0.0571417,4.16522,24,-0.00663131,10,-0.000238008,-2.38036,0.144131,0.40935,66.3521,-0.05714165,
2,1,0,1,1,46503,-0.0547844,-0.0551541,4.28601,24,-0.00654656,10,-0.000236391,-2.36795,0.16786,0.351483,58.7307,-0.0551541,
2,1,0,1,1,46503,-0.0527868,-0.0531449,4.39995,24,-0.00645946,10,-0.000233835,-2.35655,0.191457,0.308164,52.7949,-0.0531449,
2,1,0,1,1,46503,-0.0507892,-0.0511901,4.49529,24,-0.00637031,10,-0.000230114,-2.34724,0.204904,0.28794,50.5699,-0.0511901,
2,1,0,1,1,46503,-0.0487916,-0.0491524,4.60185,24,-0.00627961,10,-0.000226192,-2.33707,0.233348,0.252841,45.2585,-0.0491524,
2,1,0,1,1,46503.1,-0.0467941,-0.0471287,4.6791,24,-0.00618664,10,-0.00022052,-2.32984,0.308741,0.191099,34.8383,-0.0471287,
2,1,0,1,1,46503.1,-0.0447965,-0.0451476,4.74137,24,-0.00609219,10,-0.000214061,-2.3241,0.327943,0.179909,33.3187,-0.0451476,
2,1,0,1,1,46503.1,-0.0427989,-0.0431317,4.81228,24,-0.00599641,10,-0.000207562,-2.31765,0.322536,0.182925,34.3368,-0.0431317,
2,1,0,1,1,46503.1,-0.0408013,-0.0411456,4.87879,24,-0.00589978,10,-0.000200741,-2.31169,0.40148,0.146956,27.9163,-0.0411456,
2,1,0,1,1,46503.1,-0.0388037,-0.0391593,4.92317,24,-0.00580156,10,-0.000192788,-2.30776,0.492543,0.119787,23.0202,-0.0391593,
2,1,0,1,1,46503.2,-0.0368061,-0.0371863,4.96993,24,-0.00570247,10,-0.000184813,-2.30365,0.547297,0.107803,20.8884,-0.0371863,
2,1,0,1,1,46503.2,-0.0348085,-0.0351493,5.00693,24,-0.00560248,10,-0.00017599,-2.30043,0.599667,0.098388,19.231,-0.0351493,
2,1,0,1,1,46503.2,-0.0328109,-0.0331776,5.04702,24,-0.00550226,10,-0.000167448,-2.29696,0.652297,0.0904496,17.799,-0.0331776,
2,1,0,1,1,46503.2,-0.0308134,-0.0311696,5.07777,24,-0.00540084,10,-0.000158272,-2.29433,0.9209,0.0640677,12.6833,-0.0311696,
2,1,0,1,1,46503.2,-0.0288158,-0.0291385,5.09825,24,-0.00529891,10,-0.000148555,-2.29258,1.18142,0.0499401,9.93518,-0.0291385,
2,1,0,1,1,46503.2,-0.0268182,-0.0271786,5.11742,24,-0.00519656,10,-0.000139084,-2.29095,1.13998,0.0517551,10.3393,-0.0271786,
2,1,0,1,1,46503.3,-0.0248138,-0.0251428,5.13956,24,-0.00509389,10,-0.000129223,-2.28907,1.41023,0.0418371,8.38306,-0.0251428,
2,1,0,1,1,46503.3,-0.022823,-0.0231579,5.15112,24,-0.00499132,10,-0.000119289,-2.2881,1.99874,0.0295186,5.93431,-0.0231579,
2,1,0,1,1,46503.3,-0.0208254,-0.021206,5.16293,24,-0.00488799,10,-0.000109485,-2.2871,2.7233,0.0216649,4.36264,-0.021206,
2,1,0,1,1,46503.3,-0.0188278,-0.0191994,5.16839,24,-0.00478455,10,-9.92299e-05,-2.28664,7.87977,0.00748753,1.50957,-0.0191994,
2,1,0,1,1,46503.3,-0.0168393,-0.0172003,5.16897,24,-0.00468154,10,-8.89077e-05,-2.2866,3.81811,0.0154527,3.12071,-0.0172003,
2,1,0,1,1,46503.4,-0.0148327,-0.0151505,5.18103,24,-0.00457772,10,-7.84954e-05,-2.28558,4.68911,0.0125824,2.54073,-0.0151505,
2,1,0,1,1,46503.4,-0.0128351,-0.0131806,5.17919,24,-0.00447394,10,-6.8265e-05,-2.28574,-56.5282,-0.00104373,-0.211024,-0.0131806,
2,1,0,1,1,46503.4,-0.0108375,-0.0112107,5.1802,24,-0.00437021,10,-5.80739e-05,-2.28565,12.087,0.00488127,0.987011,-0.01121074,
2,1,0,1,1,46503.4,-0.00883989,-0.00921872,5.1831,24,-0.00426639,10,-4.77815e-05,-2.28541,-24.1928,-0.00243874,-0.49294,-0.009218717,
2,1,0,1,1,46503.4,-0.0068423,-0.00720838,5.17823,24,-0.00416304,10,-3.73266e-05,-2.28582,-16.2729,-0.00362565,-0.733189,-0.007208379,
2,1,0,1,1,46503.5,-0.00484471,-0.00519591,5.18015,24,-0.00405929,10,-2.69156e-05,-2.28566,-11.3777,-0.0051856,-1.04753,-0.005195911,
2,1,0,1,1,46503.5,-0.00284713,-0.00321539,5.17404,24,-0.00395557,10,-1.66366e-05,-2.28617,-4.76732,-0.0123759,-2.4996,-0.00321539,
2,1,0,1,1,46503.5,-0.000849538,-0.00125189,5.17029,24,-0.00385191,10,-6.47263e-06,-2.28649, , , ,-0.00125189,
2,1,0,1,1,46503.5,-2.55332e-05,-0.000401673,5.20066,24,-0.00380996,10,-2.08896e-06,-2.28394, , , ,-0.000401673,