File: Figure_codes/Fig_3-5/rawdata_trumpetplot_data/after 10th/20221101_1-115_003_TrumpetPlot_ParaChange_from10_every3_04_CV_C01_11.csv
mode,ox/red,error,control changes,counter inc.,time/s,control/V,Ewe/V,<I>/mA,cycle number,(Q-Qo)/C,I Range,P/W,log(|I|),Tafel slope mV/dec,alpha_eff,dI/d(E-IR),E-IR/V,
2,0,0,1,0,22731.5,2.44065e-05,-0.000306236,-0.376068,12,0.0000000E+000,10,1.15166e-07,-3.42473, , , ,-0.000306236,
2,1,0,1,0,22731.6,0.00129787,0.000982158,0.181176,12,4.1496e-06,10,1.77943e-07,-3.7419, , , ,0.000982158,
2,1,0,1,0,22731.7,0.00279606,0.00248687,0.299728,12,4.49369e-05,10,7.45385e-07,-3.52327,0.00690601,8.54328,61.5699,0.00248687,
2,1,0,1,0,22731.9,0.00429425,0.00400326,0.330387,12,9.50345e-05,10,1.32262e-06,-3.48098,0.0381899,1.54491,19.3721,0.00400326,
2,1,0,1,0,22732,0.00579244,0.00547828,0.354297,12,0.000149294,10,1.94094e-06,-3.45063,0.0511637,1.15316,15.7688,0.00547828,
2,1,0,1,0,22732.2,0.00729063,0.00697133,0.378369,12,0.000207104,10,2.63774e-06,-3.42208,0.0653579,0.902722,13.1418,0.00697133,
2,1,0,1,0,22732.3,0.00878882,0.00846015,0.395506,12,0.000267877,10,3.34604e-06,-3.40285,0.0823127,0.716779,10.9777,0.00846015,
2,1,0,1,0,22732.5,0.010287,0.00996698,0.413439,12,0.000331212,10,4.12074e-06,-3.38359,0.102012,0.578363,9.21495,0.00996698,
2,1,0,1,0,22732.6,0.0117852,0.0114484,0.423649,12,0.000396703,10,4.85009e-06,-3.37299,0.108563,0.543466,8.9863,0.0114484,
2,1,0,1,0,22732.8,0.0132838,0.0129748,0.438069,12,0.000463976,10,5.68385e-06,-3.35846,0.111235,0.530408,9.11111,0.0129748,
2,1,0,1,0,22732.9,0.0147814,0.0144868,0.450169,12,0.000533311,10,6.5215e-06,-3.34662,0.124932,0.472256,8.28233,0.0144868,
2,1,0,1,0,22733.1,0.0162789,0.0159137,0.46251,12,0.000604706,10,7.36023e-06,-3.33488,0.15564,0.37908,6.81193,0.01591368,
2,1,0,1,0,22733.2,0.017778,0.0174937,0.473067,12,0.000677704,10,8.27572e-06,-3.32508,0.156664,0.376603,6.93279,0.0174937,
2,1,0,1,0,22733.4,0.0192761,0.0189518,0.483305,12,0.000752027,10,9.15951e-06,-3.31578,0.159023,0.371016,7.00044,0.0189518,
2,1,0,1,0,22733.5,0.0207743,0.0204629,0.494462,12,0.000828215,10,1.01181e-05,-3.30587,0.148134,0.398288,7.66673,0.0204629,
2,1,0,1,0,22733.7,0.0222725,0.0219623,0.507354,12,0.00090611,10,1.11427e-05,-3.29469,0.164175,0.359372,7.10749,0.0219623,
2,1,0,1,0,22733.8,0.0237707,0.0234766,0.515834,12,0.000985532,10,1.211e-05,-3.28749,0.179206,0.32923,6.66042,0.0234766,
2,1,0,1,0,22734,0.0252689,0.0249601,0.525599,12,0.00106636,10,1.3119e-05,-3.27935,0.171731,0.34356,7.09082,0.0249601,
2,1,0,1,0,22734.1,0.0267671,0.0264711,0.537786,12,0.00114885,10,1.42358e-05,-3.26939,0.148293,0.397861,8.34957,0.0264711,
2,1,0,1,0,22734.3,0.0282662,0.027925,0.550871,12,0.00123309,10,1.53831e-05,-3.25895,0.168884,0.349352,7.49187,0.02792497,
2,1,0,1,0,22734.4,0.0297635,0.0294574,0.559148,12,0.00131898,10,1.64711e-05,-3.25247,0.190374,0.309917,6.74536,0.0294574,
2,1,0,1,0,22734.6,0.031261,0.0309898,0.567334,12,0.00140627,10,1.75816e-05,-3.24616,0.182742,0.322859,7.18551,0.0309898,
2,1,0,1,0,22734.7,0.0327599,0.0324444,0.579258,12,0.00149497,10,1.87937e-05,-3.23713,0.189657,0.311088,7.0461,0.0324444,
2,1,0,1,0,22734.9,0.034258,0.0339428,0.592264,12,0.0015855,10,2.01031e-05,-3.22748,0.180866,0.326208,7.51777,0.0339428,
2,1,0,1,0,22735,0.0357562,0.0354602,0.601702,12,0.00167772,10,2.13365e-05,-3.22062,0.217761,0.270939,6.34381,0.0354602,
2,1,0,1,0,22735.2,0.0372544,0.0369193,0.611071,12,0.00177147,10,2.25603e-05,-3.21391,0.206215,0.28611,6.85193,0.0369193,
2,1,0,1,0,22735.3,0.0387526,0.0384071,0.622181,12,0.00186653,10,2.38962e-05,-3.20608,0.19344,0.305004,7.42987,0.0384071,
2,1,0,1,0,22735.5,0.0402508,0.0399288,0.632832,12,0.00196346,10,2.52682e-05,-3.19871,0.204294,0.2888,7.14221,0.0399288,
2,1,0,1,0,22735.6,0.041749,0.0414515,0.645573,12,0.00206219,10,2.676e-05,-3.19005,0.231483,0.254878,6.40079,0.0414515,
2,1,0,1,0,22735.8,0.0432472,0.0429276,0.655747,12,0.00216229,10,2.81496e-05,-3.18326,0.248569,0.237359,6.05647,0.0429276,
2,1,0,1,0,22735.9,0.0447458,0.0444444,0.663395,12,0.00226366,10,2.94842e-05,-3.17823,0.235462,0.250572,6.4781,0.0444444,
2,1,0,1,0,22736.1,0.0462433,0.0459495,0.674243,12,0.00236653,10,3.09811e-05,-3.17118,0.199607,0.29558,7.76312,0.0459495,
2,1,0,1,0,22736.2,0.0477409,0.0474228,0.682855,12,0.00247106,10,3.23829e-05,-3.16567,0.22068,0.267355,7.13317,0.0474228,
2,1,0,1,0,22736.4,0.0492399,0.0489539,0.692201,12,0.00257706,10,3.38859e-05,-3.15977,0.263215,0.224152,6.06202,0.0489539,
2,1,0,1,0,22736.5,0.0507381,0.0503907,0.699574,12,0.00268423,10,3.5252e-05,-3.15517,0.244461,0.241348,6.61079,0.0503907,
2,1,0,1,0,22736.7,0.0522363,0.0518965,0.710124,12,0.00279285,10,3.6853e-05,-3.14867,0.23576,0.250255,6.94397,0.0518965,
2,1,0,1,0,22736.8,0.0537345,0.0534214,0.721794,12,0.00290305,10,3.85592e-05,-3.14159,0.324648,0.181735,5.10785,0.0534214,
2,1,0,1,0,22737,0.0552327,0.054889,0.730268,12,0.0030146,10,4.00837e-05,-3.13652,0.330431,0.178555,5.07246,0.054889,
2,1,0,1,0,22737.1,0.0567309,0.0563905,0.734927,12,0.00312729,10,4.14429e-05,-3.13376,0.32049,0.184093,5.29861,0.0563905,
2,1,0,1,0,22737.3,0.0582291,0.0578761,0.749043,12,0.00324115,10,4.33517e-05,-3.12549,0.286211,0.206141,6.01695,0.0578761,
2,1,0,1,0,22737.4,0.0597282,0.0593975,0.755954,12,0.00335663,10,4.49018e-05,-3.1215,0.30816,0.191459,5.64198,0.0593975,
2,1,0,1,0,22737.6,0.0612255,0.0608761,0.764496,12,0.00347334,10,4.65396e-05,-3.11662,0.408258,0.144516,4.28889,0.0608761,
2,1,0,1,0,22737.7,0.062723,0.0624309,0.771751,12,0.00359126,10,4.81811e-05,-3.11252,0.310037,0.1903,5.73498,0.0624309,
2,1,0,1,0,22737.9,0.0642218,0.0639056,0.778566,12,0.00370999,10,4.97547e-05,-3.1087,0.288712,0.204356,6.22406,0.0639056,
2,1,0,1,0,22738,0.06572,0.0654135,0.786516,12,0.00383018,10,5.14488e-05,-3.10429,0.289978,0.203464,6.2498,0.0654135,
2,1,0,1,0,22738.2,0.0672182,0.0669055,0.797417,12,0.00395173,10,5.33516e-05,-3.09831,0.397053,0.148595,4.60396,0.0669055,
2,1,0,1,0,22738.3,0.0687164,0.0684039,0.802205,12,0.00407433,10,5.48739e-05,-3.09571,0.469762,0.125596,3.9291,0.0684039,
2,1,0,1,0,22738.5,0.0702146,0.0699234,0.807611,12,0.00419744,10,5.64709e-05,-3.0928,0.478196,0.12338,3.88862,0.0699234,
2,1,0,1,0,22738.6,0.0717128,0.0713942,0.814834,12,0.00432174,10,5.81744e-05,-3.08893,0.352211,0.167513,5.31851,0.0713942,
2,1,0,1,0,22738.8,0.073211,0.0728841,0.820847,12,0.0044471,10,5.98267e-05,-3.08574,0.422164,0.139756,4.47577,0.07288409,
2,1,0,1,0,22738.9,0.0747092,0.0744111,0.828858,12,0.00457348,10,6.16762e-05,-3.08152,0.606254,0.0973189,3.13981,0.0744111,
2,1,0,1,0,22739.1,0.0762078,0.0758841,0.829687,12,0.00470055,10,6.29601e-05,-3.08109,0.49671,0.118782,3.85886,0.0758841,
2,1,0,1,0,22739.2,0.0777053,0.0774012,0.837286,12,0.00482819,10,6.48069e-05,-3.07713,0.419671,0.140586,4.60746,0.0774012,
2,1,0,1,0,22739.4,0.0792029,0.0789083,0.84704,12,0.00495701,10,6.68385e-05,-3.0721,0.395289,0.149258,4.90251,0.0789083,
2,1,0,1,0,22739.5,0.0807019,0.0803875,0.850084,12,0.00508704,10,6.83361e-05,-3.07054,0.51622,0.114292,3.79081,0.0803875,
2,1,0,1,0,22739.7,0.0822001,0.0818594,0.85372,12,0.00521769,10,6.9885e-05,-3.06868,0.508032,0.116134,3.88069,0.0818594,
2,1,0,1,0,22739.8,0.0836983,0.0833779,0.863417,12,0.00534919,10,7.19899e-05,-3.06378,0.413416,0.142713,4.8131,0.0833779,
2,1,0,1,0,22740,0.0851965,0.0848826,0.868753,12,0.0054819,10,7.3742e-05,-3.0611,0.378623,0.155828,5.29865,0.0848826,
2,1,0,1,0,22740.1,0.0866947,0.0863672,0.878835,12,0.00561577,10,7.59025e-05,-3.05609,0.453528,0.130091,4.45716,0.08636716,
2,1,0,1,0,22740.3,0.0881929,0.0878687,0.886744,12,0.00575077,10,7.7917e-05,-3.0522,0.375457,0.157142,5.43535,0.0878687,
2,1,0,1,0,22740.4,0.0896911,0.089384,0.895027,12,0.00588673,10,8.00011e-05,-3.04816,0.308954,0.190967,6.69283,0.089384,
2,1,0,1,0,22740.6,0.0911902,0.0908761,0.908531,12,0.00602437,10,8.25637e-05,-3.04166,0.263789,0.223663,7.89844,0.0908761,
2,1,0,1,0,22740.7,0.0926875,0.0923754,0.920019,12,0.00616402,10,8.49871e-05,-3.0362,0.240262,0.245565,8.78703,0.0923754,
2,1,0,1,0,22740.9,0.094185,0.0938636,0.929135,12,0.00630517,10,8.72119e-05,-3.03192,0.25252,0.233645,8.50291,0.0938636,
2,1,0,1,0,22741,0.0956838,0.0953636,0.940868,12,0.0064481,10,8.97247e-05,-3.02647,0.229643,0.256921,9.47074,0.0953636,
2,1,0,1,0,22741.2,0.097182,0.0968641,0.955447,12,0.00659314,10,9.25485e-05,-3.01979,0.187044,0.315434,11.7702,0.0968641,
2,1,0,1,0,22741.3,0.0986802,0.0983572,0.974172,12,0.00674064,10,9.58168e-05,-3.01136,0.202502,0.291355,11.0838,0.0983572,
2,1,0,1,0,22741.5,0.100178,0.0998555,0.991009,12,0.00689058,10,9.89577e-05,-3.00392,0.211445,0.279033,10.7776,0.0998555,
2,1,0,1,0,22741.6,0.101677,0.101353,1.00495,12,0.00704299,10,0.000101854,-2.99786,0.194657,0.303096,11.9186,0.1013528,
2,1,0,1,0,22741.8,0.103175,0.102865,1.02651,12,0.00719794,10,0.000105591,-2.98864,0.188563,0.312892,12.5362,0.102865,
2,1,0,1,0,22741.9,0.104673,0.104321,1.04805,12,0.00735589,10,0.000109334,-2.97962,0.206946,0.285099,11.6178,0.104321,
2,1,0,1,0,22742.1,0.106171,0.105838,1.06378,12,0.0075167,10,0.000112588,-2.97315,0.227298,0.259571,10.7475,0.105838,
2,1,0,1,0,22742.2,0.10767,0.107334,1.07839,12,0.00768012,10,0.000115748,-2.96722,0.231224,0.255164,10.7522,0.107334,
2,1,0,1,0,22742.4,0.109167,0.108843,1.09332,12,0.00784559,10,0.000119001,-2.96125,0.239899,0.245936,10.5185,0.1088431,
2,1,0,1,0,22742.5,0.110665,0.110322,1.11119,12,0.0080138,10,0.000122588,-2.95421,0.23415,0.251976,10.9347,0.110322,
2,1,0,1,0,22742.7,0.112164,0.111847,1.12562,12,0.00818443,10,0.000125896,-2.94861,0.287569,0.205168,8.9971,0.1118466,
2,1,0,1,0,22742.8,0.113662,0.113369,1.1413,12,0.0083572,10,0.000129388,-2.9426,0.318866,0.185031,8.2109,0.113369,
2,1,0,1,0,22743,0.11516,0.114854,1.14877,12,0.00853136,10,0.000131941,-2.93977,0.3661,0.161158,7.22728,0.114854,
2,1,0,1,0,22743.1,0.116658,0.116362,1.16295,12,0.00870754,10,0.000135323,-2.93444,0.327994,0.179881,8.1456,0.116362,
2,1,0,1,0,22743.3,0.118157,0.117784,1.17419,12,0.00888557,10,0.0001383,-2.93026,0.42001,0.140473,6.43522,0.117784,
2,1,0,1,0,22743.4,0.119655,0.119362,1.18489,12,0.00906494,10,0.000141431,-2.92632,0.517188,0.114079,5.2706,0.119362,
2,1,0,1,0,22743.6,0.121153,0.120849,1.18938,12,0.00924542,10,0.000143736,-2.92468,0.463723,0.127231,5.91895,0.120849,
2,1,0,1,0,22743.7,0.122652,0.122321,1.20086,12,0.00942747,10,0.00014689,-2.92051,0.377816,0.156161,7.31952,0.1223211,
2,1,0,1,0,22743.9,0.124149,0.12381,1.21184,12,0.00961088,10,0.000150039,-2.91655,0.418254,0.141062,6.6591,0.12381,
2,1,0,1,0,22744,0.125647,0.125313,1.21888,12,0.00979583,10,0.000152741,-2.91404,0.491509,0.120038,5.70422,0.125313,
2,1,0,1,0,22744.2,0.127146,0.126834,1.22306,12,0.00998204,10,0.000155126,-2.91255,0.52639,0.112084,5.36181,0.126834,
2,1,0,1,0,22744.3,0.128644,0.128327,1.23594,12,0.0101692,10,0.000158605,-2.908,0.510158,0.11565,5.5766,0.128327,
2,1,0,1,0,22744.5,0.130142,0.129832,1.24516,12,0.0103578,10,0.000161662,-2.90477,0.663991,0.0888566,4.30083,0.129832,
2,1,0,1,0,22744.6,0.13164,0.131354,1.2494,12,0.0105476,10,0.000164113,-2.9033,3.38001,0.0174555,0.847316,0.131354,
2,1,0,1,0,22744.8,0.133139,0.132826,1.24971,12,0.0107378,10,0.000165993,-2.90319,-3.03199,-0.0194591,-0.946764,0.132826,
2,1,0,1,0,22744.9,0.134637,0.134299,1.24707,12,0.0109275,10,0.000167479,-2.90411,-0.839941,-0.0702431,-3.41727,0.134299,
2,1,0,1,0,22745.1,0.136135,0.135808,1.23979,12,0.0111169,10,0.000168373,-2.90665,-0.416272,-0.141734,-6.82533,0.135808,
2,1,0,1,0,22745.2,0.137633,0.137331,1.23075,12,0.0113048,10,0.000169021,-2.90983,-0.235452,-0.250582,-11.9493,0.137331,
2,1,0,1,0,22745.4,0.139132,0.138829,1.21077,12,0.0114905,10,0.00016809,-2.91694,-0.177514,-0.332368,-15.5933,0.138829,
2,1,0,1,0,22745.5,0.140629,0.140285,1.18438,12,0.0116723,10,0.00016615,-2.92651,-0.142803,-0.413156,-18.9796,0.140285,
2,1,0,1,0,22745.7,0.142127,0.141807,1.1506,12,0.0118499,10,0.000163163,-2.93908,-0.121954,-0.48379,-21.6285,0.141807,
2,1,0,1,0,22745.8,0.143626,0.143296,1.11471,12,0.0120228,10,0.000159733,-2.95284,-0.0976646,-0.604108,-26.1302,0.143296,
2,1,0,1,0,22746,0.145124,0.144787,1.07108,12,0.0121893,10,0.000155078,-2.97018,-0.0807032,-0.731074,-30.4787,0.144787,
2,1,0,1,0,22746.1,0.146622,0.146289,1.02324,12,0.012349,10,0.000149688,-2.99002,-0.0753666,-0.78284,-31.3085,0.1462886,
2,1,0,1,0,22746.3,0.14812,0.147809,0.978365,12,0.0125019,10,0.000144611,-3.0095,-0.0739517,-0.797818,-30.4027,0.147809,
2,1,0,1,0,22746.4,0.149619,0.14929,0.934405,12,0.0126479,10,0.000139497,-3.02946,-0.0702788,-0.839513,-30.5847,0.14929,
2,1,0,1,0,22746.6,0.151117,0.150809,0.890272,12,0.0127871,10,0.000134261,-3.05048,-0.0698818,-0.844282,-29.2803,0.150809,
2,1,0,1,0,22746.7,0.152615,0.1523,0.844622,12,0.0129197,10,0.000128636,-3.07334,-0.0740281,-0.796994,-26.4332,0.1523,
2,1,0,1,0,22746.9,0.154114,0.153802,0.809296,12,0.0130463,10,0.000124471,-3.09189,-0.07955,-0.741672,-23.496,0.153802,
2,1,0,1,0,22747,0.155612,0.15533,0.775569,12,0.0131675,10,0.000120469,-3.11038,-0.0860816,-0.685396,-20.8074,0.15533,
2,1,0,1,0,22747.2,0.157109,0.15683,0.743463,12,0.0132843,10,0.000116597,-3.12874,-0.0904216,-0.652499,-19.0159,0.15683,
2,1,0,1,0,22747.3,0.158608,0.15831,0.719261,12,0.0133968,10,0.000113867,-3.14311,-0.103278,-0.571272,-16.1282,0.15831,
2,1,0,1,0,22747.5,0.160106,0.159812,0.69632,12,0.0135054,10,0.00011128,-3.15719,-0.121687,-0.48485,-13.266,0.159812,
2,1,0,1,0,22747.6,0.161604,0.161285,0.678906,12,0.0136111,10,0.000109497,-3.16819,-0.13291,-0.44391,-11.7857,0.161285,
2,1,0,1,0,22747.8,0.163102,0.162844,0.66284,12,0.0137143,10,0.000107939,-3.17859,-0.143971,-0.409804,-10.6093,0.162844,
2,1,0,1,0,22747.9,0.164601,0.164267,0.649121,12,0.0138152,10,0.000106629,-3.18767,-0.15201,-0.388132,-9.84953,0.164267,
2,1,0,1,0,22748.1,0.166099,0.165789,0.635023,12,0.0139138,10,0.00010528,-3.19721,-0.169522,-0.348037,-8.64671,0.165789,
2,1,0,1,0,22748.2,0.167597,0.167281,0.625011,12,0.0140109,10,0.000104553,-3.20411,-0.229821,-0.256721,-6.25305,0.167281,
2,1,0,1,0,22748.4,0.169095,0.168754,0.615444,12,0.0141065,10,0.000103859,-3.21081,-0.221954,-0.26582,-6.39233,0.168754,
2,1,0,1,0,22748.5,0.170594,0.170282,0.605976,12,0.0142008,10,0.000103187,-3.21754,-0.249773,-0.236214,-5.60247,0.170282,
2,1,0,1,0,22748.7,0.172091,0.171781,0.595985,12,0.0142935,10,0.000102379,-3.22476,-0.27079,-0.217881,-5.09063,0.171781,
2,1,0,1,0,22748.8,0.173589,0.173303,0.590523,12,0.0143852,10,0.000102339,-3.22876,-0.348726,-0.169187,-3.9021,0.173303,
2,1,0,1,0,22749,0.175088,0.174775,0.584508,12,0.014476,10,0.000102158,-3.23321,-0.363795,-0.162179,-3.70441,0.174775,
2,1,0,1,0,22749.1,0.176586,0.176226,0.579888,12,0.0145659,10,0.000102191,-3.23666,-0.400817,-0.147199,-3.32377,0.176226,
2,1,0,1,0,22749.3,0.178084,0.177765,0.572418,12,0.0146551,10,0.000101756,-3.24229,-0.476518,-0.123815,-2.77686,0.177765,
2,1,0,1,0,22749.4,0.179582,0.179278,0.569231,12,0.0147434,10,0.000102051,-3.24471,-0.524204,-0.112552,-2.50918,0.179278,
2,1,0,1,0,22749.6,0.181081,0.180766,0.566958,12,0.0148312,10,0.000102487,-3.24645,-0.485673,-0.121481,-2.68807,0.1807656,
2,1,0,1,0,22749.7,0.182579,0.18228,0.562877,12,0.0149185,10,0.000102601,-3.24959,-0.368758,-0.159996,-3.50968,0.18228,
2,1,0,1,0,22749.9,0.184077,0.183771,0.558849,12,0.0150052,10,0.0001027,-3.25271,-0.472869,-0.12477,-2.73041,0.183771,
2,1,0,1,0,22750,0.185576,0.185286,0.55751,12,0.0150912,10,0.000103299,-3.25375,-0.67734,-0.0871054,-1.89115,0.185286,
2,1,0,1,0,22750.2,0.187074,0.186794,0.554474,12,0.015177,10,0.000103573,-3.25612,-1.06028,-0.0556454,-1.19918,0.186794,
2,1,0,1,0,22750.3,0.188571,0.188262,0.55149,12,0.0152624,10,0.000103825,-3.25846,-1.30902,-0.045072,-0.96719,0.1882621,
2,1,0,1,0,22750.5,0.19007,0.189766,0.547895,12,0.0153475,10,0.000103972,-3.2613,-0.616315,-0.0957303,-2.0483,0.189766,
2,1,0,1,0,22750.6,0.191568,0.191228,0.545713,12,0.015432,10,0.000104355,-3.26304,-0.722698,-0.0816385,-1.73922,0.191228,
2,1,0,1,0,22750.8,0.193066,0.192735,0.541876,12,0.0155161,10,0.000104439,-3.2661,-1.26331,-0.0467028,-0.990571,0.192735,
2,1,0,1,0,22750.9,0.194564,0.194238,0.54205,12,0.0156002,10,0.000105287,-3.26596,-1.06888,-0.055198,-1.16719,0.194238,
2,1,0,1,0,22751.1,0.196063,0.195736,0.540348,12,0.015684,10,0.000105766,-3.26733,-0.525247,-0.112328,-2.36921,0.195736,
2,1,0,1,0,22751.2,0.197561,0.197213,0.535366,12,0.0157673,10,0.000105581,-3.27135,-1.26274,-0.0467237,-0.982443,0.197213,
2,1,0,1,0,22751.4,0.199059,0.198719,0.536343,12,0.0158503,10,0.000106582,-3.27056,-0.793371,-0.0743662,-1.55664,0.198719,
2,1,0,1,0,22751.5,0.200557,0.200215,0.535293,12,0.0159331,10,0.000107173,-3.27141,-0.892844,-0.066081,-1.37675,0.200215,
2,1,0,1,0,22751.7,0.202056,0.201764,0.532593,12,0.0160158,10,0.000107458,-3.2736,-0.998995,-0.0590593,-1.22716,0.2017644,
2,1,0,1,0,22751.8,0.203553,0.203247,0.530002,12,0.016098,10,0.000107721,-3.27572,-0.902923,-0.0653434,-1.35387,0.203247,
2,1,0,1,0,22752,0.205051,0.204716,0.529397,12,0.01618,10,0.000108376,-3.27622,2.53172,0.0233044,0.485335,0.204716,
2,1,0,1,0,22752.1,0.20655,0.206243,0.527404,12,0.016262,10,0.000108773,-3.27786,-1.64201,-0.0359316,-0.741552,0.206243,
2,1,0,1,0,22752.3,0.208048,0.207725,0.525416,12,0.016344,10,0.000109142,-3.2795,-0.587356,-0.10045,-2.064,0.207725,
2,1,0,1,0,22752.4,0.209546,0.209252,0.524842,12,0.0164255,10,0.000109824,-3.27997,-1.61,-0.0366459,-0.752406,0.209252,
2,1,0,1,0,22752.6,0.211044,0.210726,0.524491,12,0.0165066,10,0.000110524,-3.28026,-0.950244,-0.0620893,-1.27049,0.210726,
2,1,0,1,0,22752.7,0.212543,0.212259,0.523104,12,0.0165877,10,0.000111033,-3.28141,-2.05502,-0.0287101,-0.584643,0.212259,
2,1,0,1,0,22752.9,0.214041,0.213744,0.521885,12,0.0166686,10,0.00011155,-3.28242,-2.00992,-0.0293544,-0.597702,0.213744,
2,1,0,1,0,22753,0.215539,0.215221,0.520872,12,0.0167494,10,0.000112103,-3.28327,-0.976052,-0.0604476,-1.229,0.215221,
2,1,0,1,0,22753.2,0.217038,0.216728,0.519472,12,0.0168298,10,0.000112584,-3.28444,-1.34376,-0.0439066,-0.891586,0.216728,
2,1,0,1,0,22753.3,0.218535,0.218242,0.519683,12,0.0169102,10,0.000113417,-3.28426,-39.512,-0.00149322,-0.0301583,0.218242,
2,1,0,1,0,22753.5,0.220033,0.219752,0.518684,12,0.0169905,10,0.000113982,-3.2851,-20.0328,-0.00294517,-0.0594893,0.219752,
2,1,0,1,0,22753.6,0.221532,0.221259,0.517018,12,0.0170706,10,0.000114395,-3.28649,-1.077,-0.054782,-1.10475,0.221259,
2,1,0,1,0,22753.8,0.22303,0.222739,0.511656,12,0.0171505,10,0.000113966,-3.29102,-1.09801,-0.0537335,-1.08113,0.222739,
2,1,0,1,0,22753.9,0.224528,0.224231,0.513829,12,0.0172301,10,0.000115216,-3.28918,-2.6061,-0.0226392,-0.454377,0.224231,
2,1,0,1,0,22754.1,0.226026,0.225771,0.512719,12,0.0173097,10,0.000115757,-3.29012,-1.34993,-0.043706,-0.873658,0.225771,
2,1,0,1,0,22754.2,0.227525,0.227194,0.512009,12,0.0173891,10,0.000116326,-3.29072,-1.24647,-0.0473335,-0.943138,0.227194,
2,1,0,1,0,22754.4,0.229023,0.228771,0.511411,12,0.0174683,10,0.000116996,-3.29123,-1.02199,-0.0577306,-1.15469,0.228771,
2,1,0,1,0,22754.5,0.230521,0.230196,0.510678,12,0.0175473,10,0.000117556,-3.29185,-1.23258,-0.047867,-0.954091,0.230196,
2,1,0,1,0,22754.6,0.232019,0.231749,0.508591,12,0.0176262,10,0.000117865,-3.29363,-2.81594,-0.0209522,-0.417251,0.231749,
2,1,0,1,0,22754.8,0.233518,0.23318,0.509135,12,0.0177051,10,0.00011872,-3.29317,-2.33272,-0.0252923,-0.50087,0.23318,
2,1,0,1,0,22754.9,0.235015,0.234699,0.50701,12,0.0177838,10,0.000118995,-3.29498,-1.99193,-0.0296195,-0.586697,0.234699,
2,1,0,1,0,22755.1,0.236513,0.236236,0.505492,12,0.0178622,10,0.000119415,-3.29629,-6.95055,-0.00848853,-0.167593,0.2362358,
2,1,0,1,0,22755.2,0.238012,0.237722,0.505042,12,0.0179407,10,0.00012006,-3.29667,-3.06882,-0.0192257,-0.378744,0.237722,
2,1,0,1,0,22755.4,0.23951,0.239225,0.502819,12,0.0180189,10,0.000120287,-3.29859,-1.27014,-0.0464517,-0.914138,0.239225,
2,1,0,1,0,22755.5,0.241008,0.240704,0.503965,12,0.0180971,10,0.000121306,-3.2976,-2.28879,-0.0257778,-0.506764,0.240704,
2,1,0,1,0,22755.7,0.242506,0.242216,0.500455,12,0.018175,10,0.000121218,-3.30064,-1.89201,-0.0311838,-0.610921,0.242216,
2,1,0,1,0,22755.8,0.244005,0.243675,0.502592,12,0.0182529,10,0.000122469,-3.29878,-2.91117,-0.0202668,-0.395847,0.243675,
2,1,0,1,0,22756,0.245503,0.245218,0.502009,12,0.0183306,10,0.000123102,-3.29929,-1.68687,-0.0349761,-0.684333,0.245218,
2,1,0,1,0,22756.1,0.247001,0.246699,0.500667,12,0.0184083,10,0.000123514,-3.30045,-2.38545,-0.0247333,-0.482628,0.246699,
2,1,0,1,0,22756.3,0.2485,0.24821,0.496319,12,0.0184858,10,0.000123191,-3.30424,-1.17593,-0.0501732,-0.976219,0.24821,
2,1,0,1,0,22756.4,0.249997,0.249721,0.500266,12,0.0185631,10,0.000124927,-3.3008,-5.33972,-0.0110493,-0.214922,0.249721,
2,1,0,1,0,22756.6,0.251495,0.251184,0.497193,12,0.0186404,10,0.000124887,-3.30348,-8.23018,-0.00716874,-0.139088,0.251184,
2,1,0,1,0,22756.7,0.252994,0.252679,0.49663,12,0.0187177,10,0.000125488,-3.30397,-1.21346,-0.0486214,-0.941055,0.2526792,
2,1,0,1,0,22756.9,0.254492,0.254153,0.495905,12,0.0187947,10,0.000126036,-3.3046,-1.69017,-0.0349077,-0.6761,0.254153,
2,1,0,1,0,22757,0.25599,0.255695,0.496135,12,0.0188715,10,0.000126859,-3.3044,-7.40938,-0.00796288,-0.154102,0.255695,
2,1,0,1,0,22757.2,0.257488,0.257204,0.494133,12,0.0189483,10,0.000127093,-3.30616,-2.76778,-0.0213168,-0.410628,0.257204,
2,1,0,1,0,22757.3,0.258987,0.258686,0.495849,12,0.0190252,10,0.000128269,-3.30465,-6.81389,-0.00865879,-0.167094,0.258686,
2,1,0,1,0,22757.5,0.260485,0.260209,0.493944,12,0.0191018,10,0.000128529,-3.30632,-0.89544,-0.0658894,-1.26657,0.260209,
2,1,0,1,0,22757.6,0.261983,0.261709,0.493809,12,0.0191782,10,0.000129234,-3.30644,-1.58977,-0.0371123,-0.712742,0.261709,
2,1,0,1,0,22757.8,0.263481,0.263162,0.491922,12,0.0192545,10,0.000129455,-3.3081,-3.13158,-0.0188403,-0.360306,0.2631624,
2,1,0,1,0,22757.9,0.26498,0.264736,0.492408,12,0.0193308,10,0.000130358,-3.30767,-2.78555,-0.0211807,-0.40683,0.264736,
2,1,0,1,0,22758.1,0.266477,0.266181,0.488645,12,0.019407,10,0.000130068,-3.31101,-1.69359,-0.0348373,-0.665689,0.266181,
2,1,0,1,0,22758.2,0.267976,0.267688,0.48822,12,0.019483,10,0.000130691,-3.31138,-6.23034,-0.00946979,-0.18138,0.267688,
2,1,0,1,0,22758.4,0.269474,0.269168,0.48741,12,0.0195588,10,0.000131195,-3.31211,3.88844,0.0151732,0.289464,0.2691685,
2,1,0,1,0,22758.5,0.270972,0.270655,0.490272,12,0.0196346,10,0.000132695,-3.30956,-3.14249,-0.0187749,-0.357004,0.270655,
2,1,0,1,0,22758.7,0.27247,0.2722,0.487307,12,0.0197103,10,0.000132645,-3.3122,-0.991356,-0.0595144,-1.12617,0.2722,
2,1,0,1,0,22758.8,0.273968,0.273685,0.484654,12,0.0197858,10,0.000132642,-3.31457,-1.83275,-0.0321921,-0.61028,0.2736848,
2,1,0,1,0,22759,0.275467,0.275174,0.484236,12,0.019861,10,0.000133249,-3.31494,-2.63314,-0.0224067,-0.424005,0.2751736,
2,1,0,1,0,22759.1,0.276965,0.276693,0.485567,12,0.0199363,10,0.000134353,-3.31375,-2.44681,-0.0241131,-0.45638,0.276693,
2,1,0,1,0,22759.3,0.278463,0.278131,0.483279,12,0.0200115,10,0.000134415,-3.3158,-0.991789,-0.0594885,-1.12088,0.278131,
2,1,0,1,0,22759.4,0.279962,0.279674,0.482477,12,0.0200866,10,0.000134936,-3.31652,-1.1615,-0.0507962,-0.95808,0.2796737,
2,1,0,1,0,22759.6,0.281459,0.281185,0.481554,12,0.0201612,10,0.000135406,-3.31736,-3.42567,-0.0172229,-0.323797,0.281185,
2,1,0,1,0,22759.7,0.282957,0.282634,0.481198,12,0.0202359,10,0.000136003,-3.31768,16.8477,0.00350196,0.0655972,0.282634,
2,1,0,1,0,22759.9,0.284456,0.28415,0.478482,12,0.0203107,10,0.000135961,-3.32013,-4.753,-0.0124132,-0.232202,0.28415,
2,1,0,1,0,22760,0.285954,0.285657,0.47994,12,0.0203852,10,0.000137098,-3.31881,-1.94637,-0.0303128,-0.568053,0.285657,
2,1,0,1,0,22760.2,0.287452,0.287152,0.478211,12,0.0204594,10,0.000137319,-3.32038,-2.30183,-0.0256318,-0.478708,0.287152,
2,1,0,1,0,22760.3,0.28895,0.288612,0.476757,12,0.0205335,10,0.000137598,-3.3217,-18.3554,-0.00321432,-0.0597115,0.288612,
2,1,0,1,0,22760.5,0.290449,0.290149,0.4764,12,0.0206076,10,0.000138227,-3.32203,4.02119,0.0146723,0.272889,0.290149,
2,1,0,1,0,22760.6,0.291947,0.291659,0.475052,12,0.0206816,10,0.000138553,-3.32326,-1.6765,-0.0351924,-0.654798,0.2916587,
2,1,0,1,0,22760.8,0.293445,0.293117,0.473959,12,0.0207553,10,0.000138925,-3.32426,-1.34116,-0.0439916,-0.815784,0.293117,
2,1,0,1,0,22760.9,0.294943,0.294652,0.474985,12,0.0208289,10,0.000139955,-3.32332,-7.26256,-0.00812386,-0.150311,0.294652,
2,1,0,1,0,22761.1,0.296442,0.296138,0.475417,12,0.0209025,10,0.000140789,-3.32293,-1.66208,-0.0354977,-0.654156,0.296138,
2,1,0,1,0,22761.2,0.297939,0.297696,0.473012,12,0.020976,10,0.000140814,-3.32513,-1.84285,-0.0320156,-0.589248,0.297696,
2,1,0,1,0,22761.4,0.299437,0.299154,0.468928,12,0.0210493,10,0.000140282,-3.32889,-0.0019893,-29.6586,-231.948,0.299154,
2,1,0,1,0,22761.5,0.299738,0.299452,0.209194,12,0.0210835,10,6.26436e-05,-3.67945,0.000987751,59.7316,397.977,0.299452,
2,1,0,1,0,22761.6,0.29824,0.297954,-0.00820628,12,0.0210892,10,-2.4451e-06,-5.08585,0.00420284,14.0381,133.771,0.2979542,
2,0,0,1,0,22761.8,0.296741,0.296429,-0.0453961,12,0.0210821,10,-1.34567e-05,-4.34298,-0.00527672,-11.1812,21.9335,0.296429,
2,0,0,1,0,22761.9,0.295243,0.294928,-0.0672273,12,0.0210708,10,-1.98272e-05,-4.17245,-0.010318,-5.71816,13.0177,0.294928,
2,0,0,1,0,22762.1,0.293745,0.293438,-0.0852158,12,0.0210566,10,-2.50056e-05,-4.06948,-0.0184299,-3.20132,10.0294,0.293438,
2,0,0,1,0,22762.2,0.292246,0.292003,-0.0992144,12,0.0210403,10,-2.89709e-05,-4.00343,-0.0255137,-2.31248,8.6453,0.292003,
2,0,0,1,0,22762.4,0.290748,0.290426,-0.110766,12,0.021022,10,-3.21694e-05,-3.95559,-0.030935,-1.90722,8.01996,0.290426,
2,0,0,1,0,22762.5,0.28925,0.288938,-0.121278,12,0.0210021,10,-3.50419e-05,-3.91622,-0.0443385,-1.33067,6.14317,0.288938,
2,0,0,1,0,22762.7,0.287752,0.287456,-0.13038,12,0.0209806,10,-3.74785e-05,-3.88479,-0.0514658,-1.14639,5.79976,0.287456,
2,0,0,1,0,22762.8,0.286253,0.285949,-0.13802,12,0.020958,10,-3.94668e-05,-3.86006,-0.0537536,-1.0976,5.9062,0.285949,
2,0,0,1,0,22763,0.284755,0.28444,-0.146317,12,0.0209339,10,-4.16184e-05,-3.83471,-0.0605359,-0.974628,5.54498,0.2844401,
2,0,0,1,0,22763.1,0.283258,0.282947,-0.154143,12,0.0209088,10,-4.36144e-05,-3.81207,-0.0723154,-0.81587,4.85934,0.2829468,
2,0,0,1,0,22763.3,0.281759,0.281462,-0.15969,12,0.0208825,10,-4.49468e-05,-3.79672,-0.0894085,-0.659893,4.0947,0.281462,
2,0,0,1,0,22763.4,0.280261,0.279958,-0.165388,12,0.0208554,10,-4.63018e-05,-3.7815,-0.0952212,-0.61961,4.01211,0.279958,
2,0,0,1,0,22763.6,0.278763,0.278489,-0.173118,12,0.0208274,10,-4.82115e-05,-3.76166,-0.0958655,-0.615446,4.16341,0.278489,
2,0,0,1,0,22763.7,0.277264,0.276921,-0.179522,12,0.0207984,10,-4.97135e-05,-3.74588,-0.113775,-0.518566,3.60292,0.276921,
2,0,0,1,0,22763.9,0.275766,0.275458,-0.182461,12,0.0207685,10,-5.02603e-05,-3.73883,-0.159364,-0.370223,2.65255,0.2754578,
2,0,0,1,0,22764,0.274268,0.273954,-0.188836,12,0.0207378,10,-5.17324e-05,-3.72392,-0.109698,-0.53784,3.98725,0.273954,
2,0,0,1,0,22764.2,0.27277,0.272443,-0.195768,12,0.0207063,10,-5.33355e-05,-3.70826,-0.108184,-0.545365,4.17665,0.272443,
2,0,0,1,0,22764.3,0.271272,0.270996,-0.199858,12,0.020674,10,-5.41605e-05,-3.69928,-0.162044,-0.364098,2.83905,0.270996,
2,0,0,1,0,22764.5,0.269773,0.269489,-0.20681,12,0.0206408,10,-5.57331e-05,-3.68443,-0.146784,-0.401952,3.20481,0.2694895,
2,0,0,1,0,22764.6,0.268275,0.267961,-0.210704,12,0.0206071,10,-5.64603e-05,-3.67633,-0.155149,-0.38028,3.11699,0.267961,
2,0,0,1,0,22764.8,0.266778,0.266454,-0.214152,12,0.0205727,10,-5.70616e-05,-3.66928,-0.145206,-0.406318,3.39604,0.266454,
2,0,0,1,0,22764.9,0.265279,0.264966,-0.216577,12,0.0205376,10,-5.73856e-05,-3.66439,-0.121435,-0.485857,4.11737,0.2649661,
2,0,0,1,0,22765.1,0.263781,0.263436,-0.224354,12,0.0205017,10,-5.91028e-05,-3.64907,-0.1585,-0.37224,3.25547,0.263436,
2,0,0,1,0,22765.2,0.262283,0.261946,-0.226854,12,0.0204653,10,-5.94234e-05,-3.64425,-0.186786,-0.31587,2.79177,0.261946,
2,0,0,1,0,22765.4,0.260784,0.260499,-0.229996,12,0.0204283,10,-5.99135e-05,-3.63828,-0.184791,-0.31928,2.90023,0.260499,
2,0,0,1,0,22765.5,0.259286,0.259005,-0.23451,12,0.0203907,10,-6.0739e-05,-3.62984,-0.194559,-0.30325,2.77759,0.259005,
2,0,0,1,0,22765.7,0.257788,0.257514,-0.242666,12,0.0203524,10,-6.24898e-05,-3.61499,-0.216463,-0.272563,2.55438,0.257514,
2,0,0,1,0,22765.8,0.25629,0.256036,-0.243323,12,0.0203135,10,-6.22995e-05,-3.61382,-0.260953,-0.226094,2.13885,0.256036,
2,0,0,1,0,22766,0.254791,0.254436,-0.245229,12,0.0202741,10,-6.23952e-05,-3.61043,-0.23196,-0.254354,2.44922,0.254436,
2,0,0,1,0,22766.1,0.253293,0.25301,-0.249647,12,0.0202343,10,-6.31631e-05,-3.60267,-0.254209,-0.232093,2.2643,0.25301,
2,0,0,1,0,22766.3,0.251796,0.251446,-0.254795,12,0.0201939,10,-6.40673e-05,-3.59381,-0.240514,-0.245308,2.44351,0.251446,
2,0,0,1,0,22766.4,0.250297,0.249972,-0.256497,12,0.0201529,10,-6.4117e-05,-3.59092,-0.315915,-0.186759,1.86712,0.249972,
2,0,0,1,0,22766.6,0.248799,0.248508,-0.262689,12,0.0201114,10,-6.52803e-05,-3.58056,-0.303896,-0.194145,1.98004,0.248508,
2,0,0,1,0,22766.7,0.247301,0.246966,-0.263264,12,0.0200697,10,-6.50171e-05,-3.57961,-0.228326,-0.258402,2.65017,0.246966,
2,0,0,1,0,22766.9,0.245802,0.245537,-0.268437,12,0.0200273,10,-6.59114e-05,-3.57116,-0.222921,-0.264668,2.74622,0.245537,
2,0,0,1,0,22767,0.244304,0.244016,-0.269112,12,0.0199843,10,-6.56674e-05,-3.57007,-0.309927,-0.190367,2.00347,0.244016,
2,0,0,1,0,22767.2,0.242806,0.242497,-0.274265,12,0.0199409,10,-6.65084e-05,-3.56183,-0.50019,-0.117955,1.2652,0.242497,
2,0,0,1,0,22767.3,0.241308,0.240979,-0.275348,12,0.0198972,10,-6.6353e-05,-3.56012,-0.332085,-0.177665,1.91578,0.240979,
2,0,0,1,0,22767.5,0.23981,0.239497,-0.280949,12,0.0198529,10,-6.72865e-05,-3.55137,-0.191224,-0.308539,3.36384,0.239497,
2,0,0,1,0,22767.6,0.238311,0.238005,-0.282416,12,0.0198081,10,-6.72164e-05,-3.54911,-0.294629,-0.200252,2.20936,0.238005,
2,0,0,1,0,22767.8,0.236814,0.23649,-0.285762,12,0.0197628,10,-6.75799e-05,-3.544,-0.255037,-0.231339,2.57893,0.23649,
2,0,0,1,0,22767.9,0.235316,0.234993,-0.286294,12,0.0197171,10,-6.7277e-05,-3.54319,-0.324775,-0.181664,2.04182,0.234993,
2,0,0,1,0,22768.1,0.233817,0.233449,-0.293181,12,0.0196709,10,-6.84426e-05,-3.53286,-0.289964,-0.203474,2.32326,0.233449,
2,0,0,1,0,22768.2,0.232319,0.232037,-0.295666,12,0.0196242,10,-6.86055e-05,-3.5292,-0.309717,-0.190497,2.19047,0.232037,
2,0,0,1,0,22768.4,0.230821,0.230515,-0.298384,12,0.0195769,10,-6.87818e-05,-3.52522,-0.525262,-0.112325,1.30103,0.230515,
2,0,0,1,0,22768.5,0.229322,0.228963,-0.298699,12,0.0195294,10,-6.8391e-05,-3.52477,-0.37854,-0.155862,1.83416,0.2289632,
2,0,0,1,0,22768.7,0.227824,0.227501,-0.304217,12,0.0194815,10,-6.92096e-05,-3.51682,-0.382782,-0.154135,1.83315,0.2275009,
2,0,0,1,0,22768.8,0.226326,0.22608,-0.305887,12,0.019433,10,-6.91548e-05,-3.51444,-0.382834,-0.154114,1.84224,0.22608,
2,0,0,1,0,22769,0.224828,0.224503,-0.308878,12,0.0193841,10,-6.93441e-05,-3.51021,-0.533983,-0.11049,1.33149,0.224503,
2,0,0,1,0,22769.1,0.223329,0.223024,-0.313736,12,0.0193347,10,-6.99706e-05,-3.50344,-0.413038,-0.142844,1.74139,0.223024,
2,0,0,1,0,22769.3,0.221831,0.221507,-0.315697,12,0.0192851,10,-6.99292e-05,-3.50073,-0.362706,-0.162666,2.00445,0.221507,
2,0,0,1,0,22769.4,0.220334,0.220032,-0.318152,12,0.0192348,10,-7.00034e-05,-3.49737,-0.274255,-0.215128,2.66453,0.220032,
2,0,0,1,0,22769.6,0.218835,0.218548,-0.321446,12,0.0191839,10,-7.02513e-05,-3.49289,-0.291071,-0.2027,2.54709,0.218548,
2,0,0,1,0,22769.7,0.217337,0.217001,-0.323796,12,0.0191328,10,-7.02639e-05,-3.48973,-0.521583,-0.113117,1.43712,0.217001,
2,0,0,1,0,22769.9,0.215839,0.215529,-0.326019,12,0.0190813,10,-7.02665e-05,-3.48676,-0.348169,-0.169458,2.17316,0.215529,
2,0,0,1,0,22770,0.21434,0.214045,-0.329882,12,0.0190292,10,-7.06097e-05,-3.48164,-0.358631,-0.164515,2.11562,0.214045,
2,0,0,1,0,22770.2,0.212842,0.212525,-0.333183,12,0.0189767,10,-7.08096e-05,-3.47732,-0.370113,-0.159411,2.08079,0.212525,
2,0,0,1,0,22770.3,0.211344,0.211066,-0.336784,12,0.0189237,10,-7.10836e-05,-3.47265,-0.391694,-0.150628,1.9758,0.211066,
2,0,0,1,0,22770.5,0.209846,0.209521,-0.337329,12,0.0188703,10,-7.06774e-05,-3.47195,-0.44496,-0.132596,1.75912,0.209521,
2,0,0,1,0,22770.6,0.208348,0.208054,-0.342273,12,0.0188165,10,-7.12113e-05,-3.46563,-0.371027,-0.159018,2.12666,0.208054,
2,0,0,1,0,22770.8,0.206849,0.206534,-0.350469,12,0.018762,10,-7.23836e-05,-3.45535,-0.275306,-0.214307,2.89232,0.2065338,
2,0,0,1,0,22770.9,0.205352,0.204979,-0.350017,12,0.0187069,10,-7.17461e-05,-3.45591,-0.36989,-0.159507,2.16935,0.204979,
2,0,0,1,0,22771.1,0.203854,0.203509,-0.350635,12,0.0186516,10,-7.13575e-05,-3.45514,-0.41594,-0.141847,1.95707,0.203509,
2,0,0,1,0,22771.2,0.202355,0.202064,-0.354243,12,0.0185959,10,-7.15796e-05,-3.4507,-0.428648,-0.137642,1.91257,0.202064,
2,0,0,1,0,22771.4,0.200857,0.200533,-0.359057,12,0.0185396,10,-7.20027e-05,-3.44484,-0.345222,-0.170904,2.39865,0.200533,
2,0,0,1,0,22771.5,0.199359,0.199031,-0.362482,12,0.0184828,10,-7.21451e-05,-3.44071,-0.47145,-0.125146,1.7657,0.199031,
2,0,0,1,0,22771.7,0.19786,0.197585,-0.365488,12,0.0184256,10,-7.22149e-05,-3.43713,-0.384,-0.153646,2.18949,0.197585,
2,0,0,1,0,22771.8,0.196362,0.196031,-0.369605,12,0.0183679,10,-7.2454e-05,-3.43226,-0.374956,-0.157352,2.26944,0.196031,
2,0,0,1,0,22772,0.194864,0.19453,-0.372034,12,0.0183097,10,-7.23716e-05,-3.42942,-0.275226,-0.21437,3.12288,0.19453,
2,0,0,1,0,22772.1,0.193366,0.193047,-0.378376,12,0.0182507,10,-7.30445e-05,-3.42208,-0.328729,-0.179479,2.63837,0.193047,
2,0,0,1,0,22772.3,0.191867,0.191569,-0.379236,12,0.0181912,10,-7.265e-05,-3.42109,-0.380172,-0.155193,2.31505,0.191569,
2,0,0,1,0,22772.4,0.190369,0.190052,-0.384415,12,0.0181313,10,-7.3059e-05,-3.4152,-0.304365,-0.193846,2.90294,0.190052,
2,0,0,1,0,22772.6,0.188872,0.188561,-0.388043,12,0.0180708,10,-7.317e-05,-3.41112,-0.277176,-0.212861,3.21705,0.188561,
2,0,0,1,0,22772.7,0.187373,0.187049,-0.392463,12,0.0180097,10,-7.34097e-05,-3.4062,-0.317933,-0.185573,2.83957,0.187049,
2,0,0,1,0,22772.9,0.185875,0.185596,-0.395334,12,0.017948,10,-7.33724e-05,-3.40304,-0.356933,-0.165297,2.54724,0.185596,
2,0,0,1,0,22773,0.184377,0.184044,-0.399174,12,0.0178857,10,-7.34658e-05,-3.39884,-0.312067,-0.189062,2.95829,0.184044,
2,0,0,1,0,22773.2,0.182878,0.182573,-0.403774,12,0.017823,10,-7.3718e-05,-3.39386,-0.307708,-0.19174,3.03508,0.182573,
2,0,0,1,0,22773.3,0.18138,0.18109,-0.409639,12,0.0177593,10,-7.41816e-05,-3.3876,-0.291404,-0.202468,3.23233,0.18109,
2,0,0,1,0,22773.5,0.179882,0.179584,-0.412322,12,0.0176948,10,-7.40465e-05,-3.38476,-0.464662,-0.126974,2.04581,0.179584,
2,0,0,1,0,22773.6,0.178384,0.178055,-0.419189,12,0.0176297,10,-7.46387e-05,-3.37759,-0.306899,-0.192246,3.15438,0.1780552,
2,0,0,1,0,22773.8,0.176886,0.176567,-0.42367,12,0.0175642,10,-7.48064e-05,-3.37297,-0.277235,-0.212816,3.52209,0.176567,
2,0,0,1,0,22773.9,0.175387,0.175062,-0.428394,12,0.0174975,10,-7.49955e-05,-3.36816,-0.268359,-0.219855,3.68003,0.175062,
2,0,0,1,0,22774.1,0.17389,0.173543,-0.436073,12,0.0174301,10,-7.56772e-05,-3.36044,-0.254699,-0.231646,3.9268,0.173543,
2,0,0,1,0,22774.2,0.172392,0.17206,-0.440217,12,0.0173617,10,-7.57439e-05,-3.35633,-0.240349,-0.245476,4.23006,0.1720603,
2,0,0,1,0,22774.4,0.170893,0.170584,-0.447339,12,0.0172925,10,-7.63087e-05,-3.34936,-0.226796,-0.260146,4.54196,0.170584,
2,0,0,1,0,22774.5,0.169395,0.169076,-0.454789,12,0.0172222,10,-7.68937e-05,-3.34219,-0.188724,-0.312626,5.54362,0.169076,
2,0,0,1,0,22774.7,0.167897,0.167554,-0.462483,12,0.0171506,10,-7.74909e-05,-3.3349,-0.210644,-0.280093,5.05817,0.167554,
2,0,0,1,0,22774.8,0.166398,0.166084,-0.468711,12,0.0170779,10,-7.78455e-05,-3.3291,-0.215806,-0.273394,5.03849,0.166084,
2,0,0,1,0,22775,0.1649,0.164594,-0.476158,12,0.0170043,10,-7.83729e-05,-3.32225,-0.173002,-0.341037,6.37251,0.1645944,
2,0,0,1,0,22775.1,0.163402,0.163075,-0.488905,12,0.0169292,10,-7.97281e-05,-3.31078,-0.166197,-0.355001,6.75665,0.163075,
2,0,0,1,0,22775.3,0.161904,0.161576,-0.499064,12,0.0168526,10,-8.06369e-05,-3.30184,-0.162332,-0.363454,7.06692,0.161576,
2,0,0,1,0,22775.4,0.160405,0.160131,-0.51053,12,0.0167742,10,-8.17518e-05,-3.29198,-0.164922,-0.357745,7.11527,0.160131,
2,0,0,1,0,22775.6,0.158907,0.158588,-0.519975,12,0.0166943,10,-8.24618e-05,-3.28402,-0.148456,-0.397423,8.09708,0.158588,
2,0,0,1,0,22775.7,0.15741,0.157043,-0.534899,12,0.0166126,10,-8.40021e-05,-3.27173,-0.128262,-0.459995,9.62553,0.157043,
2,0,0,1,0,22775.9,0.155911,0.155594,-0.546583,12,0.0165287,10,-8.50449e-05,-3.26234,-0.118986,-0.495857,10.6498,0.155594,
2,0,0,1,0,22776,0.154413,0.154082,-0.563886,12,0.0164423,10,-8.68844e-05,-3.24881,-0.121439,-0.48584,10.7303,0.154082,
2,0,0,1,0,22776.2,0.152915,0.152619,-0.583941,12,0.0163533,10,-8.91207e-05,-3.23363,-0.103721,-0.568831,12.9718,0.152619,
2,0,0,1,0,22776.3,0.151417,0.151105,-0.602301,12,0.0162617,10,-9.10107e-05,-3.22019,-0.100533,-0.586871,13.8777,0.151105,
2,0,0,1,0,22776.5,0.149918,0.149624,-0.625722,12,0.0161668,10,-9.36228e-05,-3.20362,-0.0951442,-0.620111,15.1582,0.149624,
2,0,0,1,0,22776.6,0.14842,0.148122,-0.650798,12,0.0160684,10,-9.63976e-05,-3.18655,-0.0913422,-0.645923,16.436,0.148122,
2,0,0,1,0,22776.8,0.146922,0.146617,-0.676911,12,0.0159661,10,-9.92469e-05,-3.16947,-0.0824045,-0.71598,18.988,0.146617,
2,0,0,1,0,22776.9,0.145424,0.145116,-0.706958,12,0.0158597,10,-0.000102591,-3.15061,-0.0765658,-0.770579,21.3391,0.145116,
2,0,0,1,0,22777.1,0.143925,0.143633,-0.740586,12,0.0157484,10,-0.000106372,-3.13042,-0.069096,-0.853885,24.6671,0.143633,
2,0,0,1,0,22777.2,0.142428,0.142146,-0.778292,12,0.0156317,10,-0.000110631,-3.10886,-0.072661,-0.81199,24.6627,0.142146,
2,0,0,1,0,22777.4,0.14093,0.140635,-0.815024,12,0.0155095,10,-0.000114621,-3.08883,-0.0737852,-0.799618,25.4541,0.140635,
2,0,0,1,0,22777.5,0.139431,0.139083,-0.851243,12,0.0153816,10,-0.000118394,-3.06995,-0.0731292,-0.806791,26.8553,0.139083,
2,0,0,1,0,22777.7,0.137933,0.137583,-0.895373,12,0.015248,10,-0.000123188,-3.048,-0.0736909,-0.800641,27.8797,0.137583,
2,0,0,1,0,22777.8,0.136435,0.136147,-0.936824,12,0.0151079,10,-0.000127546,-3.02834,-0.0775138,-0.761155,27.7478,0.136147,
2,0,0,1,0,22778,0.134936,0.134638,-0.976785,12,0.0149616,10,-0.000131512,-3.0102,-0.0862404,-0.684134,26.0043,0.134638,
2,0,0,1,0,22778.1,0.133438,0.133146,-1.0161,12,0.0148093,10,-0.00013529,-2.99306,-0.093123,-0.63357,25.1251,0.133146,
2,0,0,1,0,22778.3,0.13194,0.131632,-1.05488,12,0.0146514,10,-0.000138855,-2.9768,-0.0954891,-0.617872,25.4601,0.131632,
2,0,0,1,0,22778.4,0.130442,0.130113,-1.09323,12,0.0144875,10,-0.000142244,-2.96129,-0.10497,-0.562067,23.9233,0.130113,
2,0,0,1,0,22778.6,0.128943,0.128626,-1.12806,12,0.014318,10,-0.000145098,-2.94767,-0.123754,-0.476752,20.883,0.128626,
2,0,0,1,0,22778.7,0.127445,0.127127,-1.15788,12,0.0141439,10,-0.000147198,-2.93634,-0.13946,-0.423059,19.0545,0.127127,
2,0,0,1,0,22778.9,0.125948,0.125614,-1.18372,12,0.0139659,10,-0.000148692,-2.92675,-0.159215,-0.370569,17.0694,0.125614,
2,0,0,1,0,22779,0.124449,0.124132,-1.20966,12,0.0137836,10,-0.000150158,-2.91734,-0.175184,-0.33679,15.8259,0.124132,
2,0,0,1,0,22779.2,0.122951,0.122629,-1.22887,12,0.0135981,10,-0.000150694,-2.9105,-0.228712,-0.257966,12.3112,0.122629,
2,0,0,1,0,22779.3,0.121453,0.12118,-1.24302,12,0.0134099,10,-0.00015063,-2.90552,-0.327507,-0.180149,8.72483,0.1211803,
2,0,0,1,0,22779.5,0.119955,0.119648,-1.25129,12,0.0132202,10,-0.000149715,-2.90264,-0.467583,-0.126181,6.16684,0.119648,
2,0,0,1,0,22779.6,0.118456,0.118169,-1.26271,12,0.0130286,10,-0.000149213,-2.8987,-0.483068,-0.122136,6.00907,0.118169,
2,0,0,1,0,22779.8,0.116958,0.116639,-1.27189,12,0.0128359,10,-0.000148352,-2.89555,-0.99244,-0.0594494,2.94212,0.116639,
2,0,0,1,0,22779.9,0.11546,0.115127,-1.27466,12,0.0126424,10,-0.000146748,-2.89461,-22.294,-0.00264645,0.131086,0.1151275,
2,0,0,1,0,22780.1,0.113962,0.113667,-1.26751,12,0.0124489,10,-0.000144074,-2.89705,2.87686,0.0205085,-1.01577,0.113667,
2,0,0,1,0,22780.2,0.112463,0.112171,-1.27067,12,0.0122557,10,-0.000142532,-2.89597,1.19059,0.0495552,-2.45339,0.112171,
2,0,0,1,0,22780.4,0.110966,0.110669,-1.26502,12,0.012063,10,-0.000139998,-2.8979,1.08841,0.0542077,-2.67119,0.110669,
2,0,0,1,0,22780.5,0.109468,0.109163,-1.26053,12,0.0118709,10,-0.000137604,-2.89945,0.584841,0.100882,-4.94909,0.109163,
2,0,0,1,0,22780.7,0.107969,0.107714,-1.25009,12,0.0116797,10,-0.000134653,-2.90306,0.509553,0.115788,-5.66047,0.107714,
2,0,0,1,0,22780.8,0.106471,0.106171,-1.24295,12,0.0114902,10,-0.000131966,-2.90555,0.507725,0.116205,-5.65236,0.1061713,
2,0,0,1,0,22781,0.104973,0.104658,-1.2346,12,0.0113017,10,-0.00012921,-2.90848,0.518876,0.113707,-5.48,0.1046581,
2,0,0,1,0,22781.1,0.103474,0.10315,-1.22913,12,0.0111141,10,-0.000126785,-2.9104,0.420405,0.140341,-6.71338,0.1031502,
2,0,0,1,0,22781.3,0.101976,0.101651,-1.21965,12,0.0109281,10,-0.000123978,-2.91377,0.346872,0.170091,-8.07096,0.1016508,
2,0,0,1,0,22781.4,0.100478,0.1002,-1.20535,12,0.010744,10,-0.000120776,-2.91889,0.410712,0.143653,-6.7669,0.1002,
2,0,0,1,0,22781.6,0.0989799,0.0986583,-1.19671,12,0.0105614,10,-0.000118065,-2.92201,0.460911,0.128007,-5.9658,0.0986583,
2,0,0,1,0,22781.7,0.0974808,0.0971495,-1.18879,12,0.0103799,10,-0.000115491,-2.92489,0.420606,0.140274,-6.49454,0.0971495,
2,0,0,1,0,22781.9,0.0959833,0.095659,-1.17624,12,0.0102001,10,-0.000112518,-2.9295,0.414194,0.142445,-6.53704,0.095659,
2,0,0,1,0,22782,0.0944857,0.0941869,-1.1619,12,0.010022,10,-0.000109436,-2.93483,0.430721,0.13698,-6.23785,0.0941869,
2,0,0,1,0,22782.2,0.0929871,0.0926607,-1.15502,12,0.00984532,10,-0.000107025,-2.93741,0.495948,0.118964,-5.36968,0.0926607,
2,0,0,1,0,22782.3,0.0914889,0.091121,-1.15015,12,0.00966987,10,-0.000104802,-2.93925,0.449065,0.131384,-5.88375,0.091121,
2,0,0,1,0,22782.5,0.0899907,0.0896756,-1.13733,12,0.0094957,10,-0.000101991,-2.94411,0.430909,0.13692,-6.06805,0.08967562,
2,0,0,1,0,22782.6,0.0884925,0.0881857,-1.12743,12,0.00932309,10,-9.94233e-05,-2.94791,0.405466,0.145512,-6.41629,0.0881857,
2,0,0,1,0,22782.8,0.0869943,0.0866641,-1.12004,12,0.00915206,10,-9.70675e-05,-2.95077,0.457553,0.128947,-5.63999,0.0866641,
2,0,0,1,0,22782.9,0.0854962,0.0852071,-1.11255,12,0.00898211,10,-9.47973e-05,-2.95368,0.406462,0.145155,-6.30657,0.0852071,
2,0,0,1,0,22783.1,0.083998,0.0836589,-1.10382,12,0.00881323,10,-9.23439e-05,-2.9571,0.357102,0.165219,-7.10198,0.0836589,
2,0,0,1,0,22783.2,0.0824998,0.0822157,-1.096,12,0.00864564,10,-9.01086e-05,-2.96019,0.419484,0.140649,-6.02159,0.0822157,
2,0,0,1,0,22783.4,0.0810011,0.0807347,-1.08599,12,0.00847959,10,-8.76767e-05,-2.96418,0.498237,0.118418,-5.03253,0.0807347,
2,0,0,1,0,22783.5,0.0795036,0.079203,-1.08167,12,0.00831454,10,-8.56715e-05,-2.96591,0.543849,0.108486,-4.57185,0.079203,
2,0,0,1,0,22783.7,0.0780061,0.0776748,-1.07182,12,0.00815042,10,-8.32532e-05,-2.96988,0.582603,0.10127,-4.23552,0.0776748,
2,0,0,1,0,22783.8,0.076507,0.0762169,-1.06614,12,0.00798737,10,-8.12576e-05,-2.97219,0.502022,0.117525,-4.88566,0.0762169,
2,0,0,1,0,22783.9,0.0750088,0.0747398,-1.05541,12,0.00782579,10,-7.88808e-05,-2.97658,0.541924,0.108871,-4.48579,0.0747398,
2,0,0,1,0,22784.1,0.0735106,0.0732107,-1.04968,12,0.00766516,10,-7.68481e-05,-2.97894,0.531902,0.110923,-4.54037,0.0732107,
2,0,0,1,0,22784.2,0.0720124,0.0716964,-1.04267,12,0.00750554,10,-7.47556e-05,-2.98185,0.554035,0.106491,-4.3393,0.0716964,
2,0,0,1,0,22784.4,0.0705142,0.0702055,-1.03718,12,0.00734698,10,-7.28157e-05,-2.98415,0.43195,0.13659,-5.52397,0.0702055,
2,0,0,1,0,22784.5,0.0690161,0.0687326,-1.02689,12,0.00718954,10,-7.05809e-05,-2.98848,0.493404,0.119578,-4.80472,0.0687326,
2,0,0,1,0,22784.7,0.0675179,0.0671611,-1.02499,12,0.00703319,10,-6.88395e-05,-2.98928,0.613176,0.0962203,-3.84516,0.0671611,
2,0,0,1,0,22784.8,0.0660188,0.0657223,-1.01918,12,0.0068775,10,-6.69827e-05,-2.99175,0.574908,0.102625,-4.06584,0.0657223,
2,0,0,1,0,22785,0.0645213,0.0642448,-1.01209,12,0.00672274,10,-6.50212e-05,-2.99478,0.460058,0.128245,-5.04863,0.0642448,
2,0,0,1,0,22785.1,0.0630237,0.0627465,-0.999689,12,0.00656915,10,-6.2727e-05,-3.00014,0.461451,0.127857,-5.00209,0.0627465,
2,0,0,1,0,22785.3,0.0615251,0.0612058,-0.997886,12,0.00641664,10,-6.10765e-05,-3.00092,0.482896,0.122179,-4.75659,0.0612058,
2,0,0,1,0,22785.4,0.0600269,0.0597266,-0.988652,12,0.00626506,10,-5.90488e-05,-3.00496,0.512539,0.115113,-4.44974,0.0597266,
2,0,0,1,0,22785.6,0.0585287,0.058224,-0.984624,12,0.00611438,10,-5.73287e-05,-3.00673,0.412062,0.143182,-5.48476,0.058224,
2,0,0,1,0,22785.7,0.0570305,0.0566842,-0.974848,12,0.00596472,10,-5.52585e-05,-3.01106,0.440271,0.134008,-5.1055,0.0566842,
2,0,0,1,0,22785.9,0.0555323,0.0551976,-0.969827,12,0.00581647,10,-5.35321e-05,-3.01331,0.503579,0.117161,-4.43535,0.0551976,
2,0,0,1,0,22786,0.0540342,0.0536833,-0.962961,12,0.00566901,10,-5.16949e-05,-3.01639,0.505056,0.116819,-4.38439,0.0536833,
2,0,0,1,0,22786.2,0.052536,0.052186,-0.956895,12,0.00552223,10,-4.99365e-05,-3.01914,0.434561,0.135769,-5.05794,0.052186,
2,0,0,1,0,22786.3,0.0510378,0.0507248,-0.950723,12,0.00537666,10,-4.82252e-05,-3.02195,0.389262,0.151569,-5.61109,0.0507248,
2,0,0,1,0,22786.5,0.0495391,0.0492024,-0.940007,12,0.00523239,10,-4.62506e-05,-3.02687,0.508855,0.115947,-4.26262,0.04920239,
2,0,0,1,0,22786.6,0.0480416,0.0477363,-0.934128,12,0.00508913,10,-4.45918e-05,-3.02959,0.599596,0.0983996,-3.58172,0.0477363,
2,0,0,1,0,22786.8,0.0465441,0.0462212,-0.925876,12,0.00494685,10,-4.27951e-05,-3.03345,0.549902,0.107292,-3.88447,0.0462212,
2,0,0,1,0,22786.9,0.045045,0.0447388,-0.920791,12,0.00480555,10,-4.11951e-05,-3.03584,0.381613,0.154607,-5.55614,0.04473877,
2,0,0,1,0,22787.1,0.0435468,0.0432044,-0.908668,12,0.00466555,10,-3.92584e-05,-3.04159,0.450003,0.13111,-4.66973,0.0432044,
2,0,0,1,0,22787.2,0.0420486,0.0417866,-0.904284,12,0.00452679,10,-3.77869e-05,-3.0437,0.51802,0.113895,-4.02632,0.0417866,
2,0,0,1,0,22787.4,0.0405504,0.040214,-0.901778,12,0.00438884,10,-3.62641e-05,-3.0449,0.44192,0.133508,-4.67796,0.040214,
2,0,0,1,0,22787.5,0.0390523,0.038722,-0.892087,12,0.00425171,10,-3.45434e-05,-3.04959,0.409752,0.14399,-5.00262,0.038722,
2,0,0,1,0,22787.7,0.0375541,0.0372279,-0.884505,12,0.00411591,10,-3.29283e-05,-3.0533,0.388081,0.15203,-5.25957,0.0372279,
2,0,0,1,0,22787.8,0.0360559,0.0357306,-0.877223,12,0.0039814,10,-3.13437e-05,-3.05689,0.387775,0.15215,-5.21764,0.0357306,
2,0,0,1,0,22788,0.0345568,0.0342554,-0.871239,12,0.00384769,10,-2.98447e-05,-3.05986,0.456054,0.129371,-4.39461,0.0342554,
2,0,0,1,0,22788.1,0.0330593,0.0327281,-0.864135,12,0.00371499,10,-2.82815e-05,-3.06342,0.362151,0.162915,-5.48204,0.0327281,
2,0,0,1,0,22788.3,0.0315618,0.0312337,-0.857391,12,0.00358344,10,-2.67795e-05,-3.06682,0.375519,0.157116,-5.2548,0.0312337,
2,0,0,1,0,22788.4,0.0300631,0.0297287,-0.849379,12,0.00345308,10,-2.52509e-05,-3.0709,0.510159,0.11565,-3.83148,0.02972872,
2,0,0,1,0,22788.6,0.0285649,0.0282654,-0.84298,12,0.0033236,10,-2.38271e-05,-3.07418,0.607561,0.0971096,-3.19168,0.0282654,
2,0,0,1,0,22788.7,0.0270667,0.0267288,-0.835598,12,0.0031949,10,-2.23346e-05,-3.078,0.46732,0.126252,-4.11646,0.0267288,
2,0,0,1,0,22788.9,0.0255685,0.025257,-0.830092,12,0.00306728,10,-2.09656e-05,-3.08087,0.373092,0.158138,-5.13014,0.025257,
2,0,0,1,0,22789,0.0240704,0.0237554,-0.819971,12,0.00294082,10,-1.94788e-05,-3.0862,0.456535,0.129234,-4.15664,0.0237554,
2,0,0,1,0,22789.2,0.0225722,0.0222698,-0.817721,12,0.00281522,10,-1.82105e-05,-3.08739,0.622945,0.0947114,-3.01963,0.0222698,
2,0,0,1,0,22789.3,0.021074,0.0208192,-0.812471,12,0.00269039,10,-1.6915e-05,-3.09019,0.524307,0.11253,-3.5696,0.0208192,
2,0,0,1,0,22789.5,0.0195758,0.0192381,-0.807566,12,0.0025664,10,-1.5536e-05,-3.09282,0.534121,0.110462,-3.46656,0.0192381,
2,0,0,1,0,22789.6,0.0180772,0.0177702,-0.79881,12,0.00244303,10,-1.4195e-05,-3.09756,0.77968,0.075672,-2.36956,0.0177702,
2,0,0,1,0,22789.8,0.0165796,0.0162416,-0.797628,12,0.00232071,10,-1.29548e-05,-3.0982,0.768585,0.0767644,-2.39271,0.0162416,
2,0,0,1,0,22789.9,0.0150821,0.0147504,-0.794899,12,0.00219877,10,-1.17251e-05,-3.09969,0.856817,0.0688595,-2.13495,0.0147504,
2,0,0,1,0,22790.1,0.013583,0.0132574,-0.789462,12,0.0020772,10,-1.04662e-05,-3.10267,0.726868,0.0811702,-2.49733,0.0132574,
2,0,0,1,0,22790.2,0.0120848,0.0117676,-0.785393,12,0.00195632,10,-9.24215e-06,-3.10491,0.756919,0.0779475,-2.39469,0.0117676,
2,0,0,1,0,22790.4,0.0105866,0.010301,-0.783829,12,0.00183614,10,-8.07423e-06,-3.10578,1.10962,0.0531716,-1.62779,0.010301,
2,0,0,1,0,22790.5,0.00908846,0.00877084,-0.782631,12,0.00171606,10,-6.86433e-06,-3.10644,1.4233,0.041453,-1.26392,0.008770844,
2,0,0,1,0,22790.7,0.00759027,0.0072428,-0.780057,12,0.00159627,10,-5.6498e-06,-3.10787,0.998821,0.0590696,-1.79801,0.0072428,
2,0,0,1,0,22790.8,0.00609208,0.00576459,-0.779433,12,0.0014768,10,-4.49311e-06,-3.10822,1.38621,0.0425621,-1.29382,0.005764591,
2,0,0,1,0,22791,0.00459389,0.00431502,-0.777169,12,0.00135774,10,-3.35349e-06,-3.10948,3.04121,0.0194001,-0.588255,0.00431502,
2,0,0,1,0,22791.1,0.0030948,0.00278361,-0.780231,12,0.00123841,10,-2.17186e-06,-3.10778,-0.802251,-0.0735431,2.23575,0.00278361,
2,0,0,1,0,22791.3,0.00159728,0.00124691,-0.787755,12,0.00111757,10,-9.82259e-07,-3.10361, , , ,0.00124691,
2,0,0,1,0,22791.4,0.000199195,-0.000166899,-0.779201,12,0.0010055,10,1.30048e-07,-3.10835, , , ,-0.000166899,