File: Figure_codes/Fig_3-5/rawdata_trumpetplot_data/after 10th/20221101_1-115_003_TrumpetPlot_ParaChange_from10_every3_11_CV_C01_0.csv
mode,ox/red,error,control changes,counter inc.,time/s,control/V,Ewe/V,<I>/mA,cycle number,(Q-Qo)/C,I Range,P/W,log(|I|),Tafel slope mV/dec,alpha_eff,dI/d(E-IR),E-IR/V,
2,1,0,0,0,1194.52,2.44065e-05,-0.000287149,10.4854,1,0.0000000E+000,10,-3.01089e-06,-1.97941, , , ,-0.0002871489,
2,1,0,1,0,1194.53,0.00214129,0.0017308,12.0298,1,5.79572e-05,10,2.08213e-05,-1.91974, , , ,0.0017308,
2,1,0,1,0,1194.53,0.00454949,0.00425563,13.3881,1,0.00013457,10,5.69749e-05,-1.87328,0.0592014,0.996598,507.513,0.00425563,
2,1,0,1,0,1194.54,0.0069466,0.00662988,14.4393,1,0.00021822,10,9.57311e-05,-1.84045,0.0792403,0.744571,413.778,0.00662988,
2,1,0,1,0,1194.54,0.0093437,0.00898611,15.3262,1,0.000307678,10,0.000137723,-1.81457,0.101236,0.582799,344.82,0.00898611,
2,1,0,1,0,1194.55,0.0117408,0.0114166,16.0647,1,0.000401969,10,0.000183404,-1.79413,0.128071,0.46068,286.755,0.0114166,
2,1,0,1,0,1194.56,0.0141462,0.0137813,16.6863,1,0.000500331,10,0.000229958,-1.77764,0.155917,0.378406,245.307,0.0137813,
2,1,0,1,0,1194.56,0.0165433,0.0162223,17.2489,1,0.000602241,10,0.000279818,-1.76324,0.188606,0.312822,209.48,0.0162223,
2,1,0,1,0,1194.57,0.0189404,0.0186157,17.7032,1,0.000707207,10,0.000329558,-1.75195,0.223441,0.264052,181.875,0.0186157,
2,1,0,1,0,1194.57,0.0213486,0.0210069,18.1203,1,0.000814728,10,0.000380651,-1.74183,0.260065,0.226867,160.049,0.0210069,
2,1,0,1,0,1194.58,0.0237457,0.0234225,18.4744,1,0.000924557,10,0.000432717,-1.73343,0.302297,0.195172,140.409,0.0234225,
2,1,0,1,0,1194.59,0.0261429,0.0257925,18.7881,1,0.00103641,10,0.000484591,-1.72612,0.337791,0.174664,127.93,0.0257925,
2,1,0,1,0,1194.59,0.02854,0.0282463,19.0772,1,0.00115007,10,0.000538859,-1.71949,0.369314,0.159756,118.81,0.02824627,
2,1,0,1,0,1194.6,0.0309482,0.0306757,19.3506,1,0.00126542,10,0.000593594,-1.7133,0.410272,0.143807,108.523,0.0306757,
2,1,0,1,0,1194.6,0.0333453,0.0329873,19.6009,1,0.00138229,10,0.000646581,-1.70772,0.450706,0.130906,100.072,0.0329873,
2,1,0,1,0,1194.61,0.0357424,0.0354189,19.8386,1,0.00150064,10,0.00070266,-1.70249,0.462485,0.127572,98.7345,0.0354189,
2,1,0,1,0,1194.62,0.0381478,0.0378398,20.0666,1,0.00162038,10,0.000759314,-1.69753,0.474012,0.124469,97.4723,0.0378398,
2,1,0,1,0,1194.62,0.0405449,0.0401928,20.3112,1,0.00174154,10,0.000816364,-1.69226,0.501687,0.117603,93.1531,0.0401928,
2,1,0,1,0,1194.63,0.042942,0.042637,20.5313,1,0.00186409,10,0.000875395,-1.68758,0.490995,0.120164,96.3039,0.042637,
2,1,0,1,0,1194.63,0.0453391,0.0450208,20.7493,1,0.00198793,10,0.000934149,-1.683,0.485106,0.121623,98.6117,0.0450208,
2,1,0,1,0,1194.64,0.0477473,0.0474598,21.0112,1,0.00211326,10,0.000997189,-1.67755,0.467674,0.126156,103.366,0.0474598,
2,1,0,1,0,1194.65,0.0501444,0.0498022,21.256,1,0.00224007,10,0.00105859,-1.67252,0.47155,0.125119,103.774,0.0498022,
2,1,0,1,0,1194.65,0.0525415,0.0522009,21.4933,1,0.00236831,10,0.00112197,-1.6677,0.449692,0.131201,110.198,0.0522009,
2,1,0,1,0,1194.66,0.0549469,0.0545889,21.7802,1,0.00249815,10,0.00118896,-1.66194,0.427454,0.138026,117.307,0.0545889,
2,1,0,1,0,1194.66,0.057344,0.0570055,22.0547,1,0.00262969,10,0.00125724,-1.6565,0.42326,0.139394,120.03,0.0570055,
2,1,0,1,0,1194.67,0.0597411,0.059365,22.342,1,0.00276291,10,0.00132633,-1.65088,0.413818,0.142575,124.434,0.059365,
2,1,0,1,0,1194.68,0.0621438,0.061823,22.6491,1,0.00289792,10,0.00140023,-1.64495,0.387291,0.15234,134.801,0.061823,
2,1,0,1,0,1194.68,0.0645465,0.0642195,22.9854,1,0.00303487,10,0.00147611,-1.63855,0.3751,0.157291,141.134,0.0642195,
2,1,0,1,0,1194.69,0.0669436,0.0666499,23.3321,1,0.00317389,10,0.00155508,-1.63205,0.384843,0.153309,139.533,0.0666499,
2,1,0,1,0,1194.69,0.0693407,0.0689945,23.6732,1,0.00331494,10,0.00163332,-1.62574,0.37082,0.159107,147.081,0.0689945,
2,1,0,1,0,1194.7,0.0717489,0.0714334,24.0337,1,0.00345806,10,0.00171681,-1.61918,0.37143,0.158846,148.988,0.0714334,
2,1,0,1,0,1194.71,0.074146,0.0738088,24.4014,1,0.00360339,10,0.00180104,-1.61259,0.375149,0.157271,149.707,0.0738088,
2,1,0,1,0,1194.71,0.0765431,0.0761894,24.7533,1,0.00375087,10,0.00188594,-1.60637,0.374183,0.157677,152.364,0.0761894,
2,1,0,1,0,1194.72,0.0789485,0.0785922,25.1321,1,0.00390051,10,0.00197518,-1.59977,0.361873,0.16304,159.992,0.0785922,
2,1,0,1,0,1194.72,0.0813456,0.0809898,25.5291,1,0.00405249,10,0.00206759,-1.59297,0.347299,0.169882,169.235,0.0809898,
2,1,0,1,0,1194.73,0.0837427,0.0833662,25.9259,1,0.00420689,10,0.00216134,-1.58627,0.346139,0.170452,172.544,0.0833662,
2,1,0,1,0,1194.74,0.0861398,0.0857945,26.3482,1,0.00436377,10,0.00226053,-1.57925,0.343614,0.171704,176.565,0.0857945,
2,1,0,1,0,1194.74,0.088548,0.0881985,26.7813,1,0.00452324,10,0.00236207,-1.57217,0.360113,0.163837,171.099,0.0881985,
2,1,0,1,0,1194.75,0.0909451,0.0906088,27.1808,1,0.00468518,10,0.00246281,-1.56574,0.374083,0.157719,167.338,0.0906088,
2,1,0,1,0,1194.75,0.0933422,0.0930116,27.599,1,0.00484955,10,0.00256703,-1.55911,0.367946,0.16035,172.738,0.0930116,
2,1,0,1,0,1194.76,0.0957477,0.0954039,28.0202,1,0.00501641,10,0.00267324,-1.55253,0.36671,0.16089,175.869,0.0954039,
2,1,0,1,0,1194.77,0.0981447,0.0978323,28.4319,1,0.00518582,10,0.00278156,-1.54619,0.380723,0.154969,171.855,0.09783227,
2,1,0,1,0,1194.77,0.100542,0.100208,28.8391,1,0.00535766,10,0.0028899,-1.54002,0.384052,0.153625,172.932,0.100208,
2,1,0,1,0,1194.78,0.102939,0.102574,29.2392,1,0.00553192,10,0.00299919,-1.53404,0.379981,0.155271,177.302,0.1025744,
2,1,0,1,0,1194.78,0.105347,0.105014,29.6899,1,0.00570878,10,0.00311787,-1.52739,0.388812,0.151744,175.639,0.105014,
2,1,0,1,0,1194.79,0.107744,0.107425,30.0946,1,0.00588819,10,0.0032329,-1.52151,0.395777,0.149074,175.087,0.1074247,
2,1,0,1,0,1194.8,0.110141,0.109792,30.5084,1,0.00607001,10,0.00334957,-1.51558,0.389154,0.151611,180.667,0.109792,
2,1,0,1,0,1194.8,0.11255,0.112212,30.9677,1,0.00625446,10,0.00347496,-1.50909,0.391817,0.15058,181.866,0.112212,
2,1,0,1,0,1194.81,0.114947,0.114606,31.3892,1,0.00644158,10,0.00359739,-1.50322,0.3904,0.151127,185.182,0.114606,
2,1,0,1,0,1194.81,0.117344,0.117028,31.841,1,0.00663128,10,0.00372628,-1.49701,0.378877,0.155723,193.664,0.117028,
2,1,0,1,0,1194.82,0.119744,0.1194,32.3167,1,0.00682378,10,0.00385861,-1.49057,0.373564,0.157938,199.196,0.1194,
2,1,0,1,0,1194.83,0.122146,0.121823,32.8028,1,0.00701922,10,0.00399613,-1.48409,0.36731,0.160627,205.694,0.121823,
2,1,0,1,0,1194.83,0.124543,0.124216,33.3058,1,0.00721758,10,0.00413712,-1.47748,0.357623,0.164978,214.53,0.124216,
2,1,0,1,0,1194.84,0.126941,0.126639,33.8277,1,0.00741902,10,0.00428391,-1.47073,0.34478,0.171124,226.114,0.126639,
2,1,0,1,0,1194.84,0.129349,0.129019,34.3955,1,0.00762372,10,0.00443766,-1.4635,0.331218,0.17813,239.145,0.129019,
2,1,0,1,0,1194.85,0.131746,0.13142,34.9686,1,0.00783187,10,0.00459556,-1.45632,0.328199,0.179769,245.406,0.13142,
2,1,0,1,0,1194.86,0.134143,0.13378,35.5545,1,0.00804349,10,0.00475648,-1.44911,0.32057,0.184047,255.601,0.13378,
2,1,0,1,0,1194.86,0.13654,0.13624,36.1808,1,0.00825876,10,0.00492928,-1.44152,0.319865,0.184453,260.472,0.13624,
2,1,0,1,0,1194.87,0.138945,0.138638,36.8226,1,0.00847788,10,0.005105,-1.43389,0.324598,0.181763,261.109,0.138638,
2,1,0,1,0,1194.87,0.141343,0.14103,37.442,1,0.00870071,10,0.00528044,-1.42664,0.32405,0.182071,266.22,0.14103,
2,1,0,1,0,1194.88,0.14374,0.143446,38.1108,1,0.0089274,10,0.00546683,-1.41895,0.322948,0.182692,271.582,0.143446,
2,1,0,1,0,1194.89,0.146148,0.145792,38.7624,1,0.00915811,10,0.00565127,-1.41159,0.333223,0.177059,267.667,0.145792,
2,1,0,1,0,1194.89,0.148545,0.148211,39.3961,1,0.00939263,10,0.00583893,-1.40455,0.342478,0.172274,264.882,0.148211,
2,1,0,1,0,1194.9,0.150942,0.150594,40.034,1,0.00963098,10,0.00602887,-1.39757,0.346903,0.170076,265.629,0.150594,
2,1,0,1,0,1194.9,0.153345,0.153016,40.6681,1,0.00987315,10,0.00622287,-1.39075,0.360901,0.16348,259.326,0.153016,
2,1,0,1,0,1194.91,0.155747,0.155434,41.2752,1,0.010119,10,0.00641555,-1.38431,0.376533,0.156693,252.261,0.155434,
2,1,0,1,0,1194.92,0.158144,0.157854,41.868,1,0.0103686,10,0.00660906,-1.37812,0.400255,0.147406,240.702,0.157854,
2,1,0,1,0,1194.92,0.160542,0.160188,42.4385,1,0.0106215,10,0.00679815,-1.37224,0.424276,0.13906,230.174,0.160188,
2,1,0,1,0,1194.93,0.162947,0.162587,42.9858,1,0.0108779,10,0.00698893,-1.36668,0.458648,0.128639,215.57,0.162587,
2,1,0,1,0,1194.93,0.165344,0.165016,43.4812,1,0.0111374,10,0.0071751,-1.3617,0.500955,0.117775,199.722,0.165016,
2,1,0,1,0,1194.94,0.167741,0.167393,43.9401,1,0.0113997,10,0.00735526,-1.35714,0.56112,0.105147,180.151,0.167393,
2,1,0,1,0,1194.95,0.170149,0.169808,44.3737,1,0.0116647,10,0.00753502,-1.35287,0.663107,0.0889751,153.776,0.1698084,
2,1,0,1,0,1194.95,0.172547,0.172229,44.6835,1,0.0119319,10,0.0076958,-1.34985,0.856214,0.068908,119.966,0.172229,
2,1,0,1,0,1194.96,0.174944,0.174622,44.9283,1,0.0122008,10,0.00784546,-1.34748,1.3178,0.0447716,78.3336,0.1746216,
2,1,0,1,0,1194.96,0.177341,0.177041,45.0579,1,0.0124709,10,0.00797712,-1.34623,3.93434,0.0149961,26.3,0.177041,
2,1,0,1,0,1194.97,0.179746,0.179422,45.057,1,0.0127413,10,0.00808422,-1.34624,-3.07171,-0.0192075,-33.6732,0.179422,
2,1,0,1,0,1194.98,0.182143,0.181836,44.8948,1,0.0130112,10,0.00816347,-1.3478,-0.971273,-0.060745,-106.055,0.181836,
2,1,0,1,0,1194.98,0.18454,0.184227,44.5597,1,0.0132797,10,0.00820909,-1.35106,-0.552856,-0.106719,-184.804,0.184227,
2,1,0,1,0,1194.99,0.186949,0.186624,44.0115,1,0.0135454,10,0.00821362,-1.35643,-0.367488,-0.16055,-274.523,0.186624,
2,1,0,1,0,1194.99,0.189346,0.189058,43.2467,1,0.0138072,10,0.00817613,-1.36405,-0.267912,-0.220222,-369.88,0.189058,
2,1,0,1,0,1195,0.191743,0.191432,42.2548,1,0.0140638,10,0.00808894,-1.37412,-0.214149,-0.275509,-452.203,0.191432,
2,1,0,1,0,1195.01,0.19414,0.193837,41.0557,1,0.0143136,10,0.00795813,-1.38663,-0.173536,-0.339988,-542.012,0.193837,
2,1,0,1,0,1195.01,0.196548,0.196237,39.6451,1,0.0145557,10,0.00777983,-1.40181,-0.145503,-0.405489,-624.505,0.196237,
2,1,0,1,0,1195.02,0.198945,0.198615,38.0698,1,0.0147887,10,0.00756124,-1.41942,-0.126831,-0.465188,-688.487,0.1986154,
2,1,0,1,0,1195.02,0.201342,0.200982,36.3752,1,0.015012,10,0.00731077,-1.43919,-0.115455,-0.51102,-722.978,0.200982,
2,1,0,1,0,1195.03,0.203748,0.203434,34.591,1,0.0152247,10,0.00703698,-1.46104,-0.107573,-0.548466,-739.056,0.203434,
2,1,0,1,0,1195.04,0.206145,0.205844,32.7862,1,0.0154267,10,0.00674886,-1.48431,-0.102074,-0.578014,-739.391,0.205844,
2,1,0,1,0,1195.04,0.208542,0.208225,31.0371,1,0.015618,10,0.00646268,-1.50812,-0.100226,-0.588669,-712.891,0.208225,
2,1,0,1,0,1195.05,0.210939,0.210666,29.3162,1,0.0157989,10,0.00617593,-1.53289,-0.098655,-0.598044,-685.416,0.210666,
2,1,0,1,0,1195.05,0.213347,0.213062,27.7369,1,0.0159699,10,0.00590968,-1.55694,-0.0999286,-0.590422,-640.687,0.213062,
2,1,0,1,0,1195.06,0.215744,0.215431,26.2703,1,0.0161317,10,0.00565946,-1.58053,-0.103671,-0.569109,-584.922,0.215431,
2,1,0,1,0,1195.07,0.218141,0.217835,24.932,1,0.0162851,10,0.00543106,-1.60324,-0.111306,-0.530069,-517.712,0.217835,
2,1,0,1,0,1195.07,0.220547,0.220247,23.7525,1,0.0164309,10,0.0052314,-1.62429,-0.118678,-0.497144,-462.581,0.220247,
2,1,0,1,0,1195.08,0.222944,0.22266,22.7038,1,0.0165701,10,0.00505523,-1.6439,-0.12944,-0.455809,-405.598,0.22266,
2,1,0,1,0,1195.08,0.225341,0.225029,21.8006,1,0.0167035,10,0.00490577,-1.66153,-0.142253,-0.414754,-354.284,0.225029,
2,1,0,1,0,1195.09,0.227744,0.227499,21.0113,1,0.0168318,10,0.00478004,-1.67755,-0.156689,-0.376541,-309.831,0.227499,
2,1,0,1,0,1195.1,0.230146,0.229852,20.3185,1,0.0169557,10,0.00467024,-1.69211,-0.177873,-0.331697,-264.095,0.229852,
2,1,0,1,0,1195.1,0.232543,0.232193,19.7444,1,0.0170757,10,0.00458452,-1.70456,-0.19883,-0.296736,-229.199,0.232193,
2,1,0,1,0,1195.11,0.234941,0.234654,19.235,1,0.0171926,10,0.00451358,-1.71591,-0.22349,-0.263994,-198.655,0.234654,
2,1,0,1,0,1195.11,0.237349,0.237038,18.7911,1,0.0173066,10,0.00445421,-1.72605,-0.253678,-0.232579,-171.151,0.237038,
2,1,0,1,0,1195.12,0.239746,0.239439,18.4255,1,0.0174182,10,0.00441179,-1.73458,-0.285336,-0.206774,-148.914,0.239439,
2,1,0,1,0,1195.13,0.242143,0.24181,18.0885,1,0.0175277,10,0.00437397,-1.7426,-0.322105,-0.18317,-129.585,0.24181,
2,1,0,1,0,1195.13,0.244548,0.244201,17.7978,1,0.0176353,10,0.00434625,-1.74963,-0.361321,-0.16329,-113.638,0.244201,
2,1,0,1,0,1195.14,0.246946,0.246638,17.5441,1,0.0177413,10,0.00432703,-1.75587,-0.403305,-0.146291,-100.251,0.246638,
2,1,0,1,0,1195.14,0.249343,0.249038,17.3105,1,0.0178458,10,0.00431097,-1.76169,-0.440486,-0.133943,-90.5949,0.249038,
2,1,0,1,0,1195.15,0.25174,0.251446,17.0944,1,0.017949,10,0.00429832,-1.76715,-0.48424,-0.121841,-81.4051,0.251446,
2,1,0,1,0,1195.16,0.254148,0.253839,16.9226,1,0.018051,10,0.00429562,-1.77153,-0.530787,-0.111156,-73.4274,0.253839,
2,1,0,1,0,1195.16,0.256545,0.256245,16.744,1,0.018152,10,0.00429058,-1.77614,-0.551688,-0.106944,-69.9286,0.256245,
2,1,0,1,0,1195.17,0.258942,0.258624,16.5897,1,0.018252,10,0.00429048,-1.78016,-0.612039,-0.0963991,-62.4218,0.258624,
2,1,0,1,0,1195.17,0.261348,0.261025,16.443,1,0.018351,10,0.00429203,-1.78402,-0.634,-0.0930599,-59.763,0.261025,
2,1,0,1,0,1195.18,0.263745,0.263447,16.3053,1,0.0184492,10,0.00429558,-1.78767,-0.692136,-0.0852434,-54.2367,0.263447,
2,1,0,1,0,1195.19,0.266142,0.265836,16.181,1,0.0185467,10,0.00430149,-1.79099,-0.732981,-0.0804933,-50.8247,0.265836,
2,1,0,1,0,1195.19,0.268539,0.268286,16.0412,1,0.0186433,10,0.00430364,-1.79476,-0.77529,-0.0761005,-47.7317,0.268286,
2,1,0,1,0,1195.2,0.270947,0.270664,15.9438,1,0.0187393,10,0.0043154,-1.79741,-0.82226,-0.0717535,-44.6403,0.270664,
2,1,0,1,0,1195.2,0.273344,0.273043,15.8438,1,0.0188347,10,0.00432603,-1.80014,-0.811534,-0.0727018,-44.9197,0.273043,
2,1,0,1,0,1195.21,0.275741,0.275412,15.7136,1,0.0189293,10,0.00432772,-1.80372,-0.849517,-0.0694512,-42.6577,0.275412,
2,1,0,1,0,1195.22,0.278149,0.277852,15.626,1,0.0190233,10,0.00434171,-1.80615,-0.9177,-0.0642912,-39.2194,0.277852,
2,1,0,1,0,1195.22,0.280547,0.280245,15.5397,1,0.0191168,10,0.00435493,-1.80856,-0.90826,-0.0649594,-39.3756,0.280245,
2,1,0,1,0,1195.23,0.282944,0.282651,15.4375,1,0.0192097,10,0.00436342,-1.81142,-0.880458,-0.0670106,-40.387,0.2826505,
2,1,0,1,0,1195.23,0.285344,0.285025,15.3476,1,0.0193021,10,0.00437444,-1.81396,-0.938206,-0.062886,-37.683,0.285025,
2,1,0,1,0,1195.24,0.287746,0.28741,15.2608,1,0.0193939,10,0.00438611,-1.81642,-1.01261,-0.058265,-34.7052,0.2874096,
2,1,0,1,0,1195.25,0.290143,0.289844,15.1769,1,0.0194852,10,0.00439893,-1.81882,-0.954121,-0.061837,-36.6144,0.2898443,
2,1,0,1,0,1195.25,0.29254,0.292208,15.09,1,0.019576,10,0.00440943,-1.82131,-1.04139,-0.0566551,-33.3886,0.292208,
2,1,0,1,0,1195.26,0.294949,0.294632,15.0149,1,0.0196663,10,0.00442386,-1.82348,-1.15485,-0.0510888,-29.946,0.294632,
2,1,0,1,0,1195.26,0.297346,0.297041,14.9497,1,0.0197562,10,0.00444068,-1.82537,-1.17288,-0.0503034,-29.3287,0.2970413,
2,1,0,1,0,1195.27,0.299621,0.299341,14.8522,1,0.0198411,10,0.00444586,-1.82821,-0.0624619,-0.944576,-521.842,0.299341,
2,1,0,0,0,1195.27,0.299962,0.299613,14.7106,1,0.0198589,10,0.00440749,-1.83237,0.00638509,9.24028,3953.06,0.299613,
2,1,0,1,0,1195.28,0.297903,0.297722,9.39197,1,0.0199185,10,0.0027962,-2.02724,0.0092951,6.34743,2043.01,0.297722,
2,1,0,1,0,1195.28,0.295506,0.295279,5.10416,1,0.0199609,10,0.00150715,-2.29208,0.00667215,8.84272,1550.98,0.295279,
2,1,0,1,0,1195.29,0.293101,0.292826,2.03273,1,0.0199816,10,0.000595235,-2.69192,0.00726857,8.11714,1125.93,0.292826,
2,1,0,1,0,1195.29,0.290704,0.290407,-0.217731,1,0.0199865,10,-6.32308e-05,-3.66208,0.0666864,0.884738,827.017,0.290407,
2,0,0,1,0,1195.3,0.288307,0.288052,-1.90057,1,0.0199798,10,-0.000547462,-2.72112,-0.00718373,-8.21301,629.851,0.2880522,
2,0,0,1,0,1195.31,0.28591,0.285637,-3.17782,1,0.0199642,10,-0.000907703,-2.49787,-0.0126565,-4.66162,480.751,0.2856366,
2,0,0,1,0,1195.31,0.283501,0.283216,-4.20258,1,0.0199418,10,-0.00119024,-2.37648,-0.0235909,-2.50096,378.298,0.283216,
2,0,0,1,0,1195.32,0.281104,0.280785,-4.99475,1,0.0199141,10,-0.00140245,-2.30149,-0.03722,-1.58517,295.801,0.280785,
2,0,0,1,0,1195.32,0.278707,0.278411,-5.6093,1,0.0198822,10,-0.00156169,-2.25109,-0.0522952,-1.12821,241.794,0.278411,
2,0,0,1,0,1195.33,0.276302,0.276003,-6.15039,1,0.0198468,10,-0.00169752,-2.2111,-0.0686095,-0.859939,202.468,0.276003,
2,0,0,1,0,1195.34,0.273905,0.273616,-6.58141,1,0.0198085,10,-0.00180078,-2.18168,-0.0907156,-0.650385,165.071,0.273616,
2,0,0,1,0,1195.34,0.271508,0.271207,-6.93656,1,0.0197679,10,-0.00188124,-2.15886,-0.110798,-0.532499,143.431,0.271207,
2,0,0,1,0,1195.35,0.269105,0.268769,-7.27012,1,0.0197253,10,-0.00195398,-2.13846,-0.130414,-0.452407,127.508,0.268769,
2,0,0,1,0,1195.35,0.266702,0.266376,-7.54602,1,0.0196808,10,-0.00201008,-2.12228,-0.155614,-0.379143,111.069,0.266376,
2,0,0,1,0,1195.36,0.264305,0.26401,-7.79114,1,0.0196347,10,-0.00205694,-2.1084,-0.183605,-0.321342,97.527,0.26401,
2,0,0,1,0,1195.37,0.261908,0.261615,-8.00993,1,0.0195872,10,-0.00209552,-2.09637,-0.201068,-0.293434,91.7167,0.261615,
2,0,0,1,0,1195.37,0.2595,0.259252,-8.23604,1,0.0195384,10,-0.00213521,-2.08428,-0.221685,-0.266143,85.2928,0.259252,
2,0,0,1,0,1195.38,0.257103,0.256827,-8.43014,1,0.0194884,10,-0.00216509,-2.07417,-0.25974,-0.22715,74.5505,0.256827,
2,0,0,1,0,1195.38,0.254706,0.254418,-8.60183,1,0.0194373,10,-0.00218846,-2.06541,-0.269004,-0.219328,73.6426,0.254418,
2,0,0,1,0,1195.39,0.2523,0.251991,-8.77819,1,0.0193852,10,-0.00221202,-2.0566,-0.287617,-0.205134,70.2084,0.251991,
2,0,0,1,0,1195.4,0.249903,0.24964,-8.95112,1,0.019332,10,-0.00223456,-2.04812,-0.31275,-0.188649,65.7225,0.24964,
2,0,0,1,0,1195.4,0.247506,0.247215,-9.08603,1,0.0192778,10,-0.0022462,-2.04163,-0.328529,-0.179588,63.7679,0.247215,
2,0,0,1,0,1195.41,0.245109,0.244808,-9.24387,1,0.0192228,10,-0.00226297,-2.03415,-0.332644,-0.177367,63.9953,0.244808,
2,0,0,1,0,1195.41,0.242701,0.2424,-9.40581,1,0.0191668,10,-0.00227997,-2.0266,-0.348727,-0.169187,61.9535,0.2423996,
2,0,0,1,0,1195.42,0.240304,0.240018,-9.53556,1,0.01911,10,-0.00228871,-2.02065,-0.399896,-0.147538,54.9169,0.240018,
2,0,0,1,0,1195.43,0.237906,0.237627,-9.67051,1,0.0190523,10,-0.00229797,-2.01455,-0.385954,-0.152868,57.7163,0.237627,
2,0,0,1,0,1195.43,0.235501,0.235184,-9.8168,1,0.0189939,10,-0.00230875,-2.00803,-0.401462,-0.146963,56.2399,0.235184,
2,0,0,1,0,1195.44,0.233104,0.232807,-9.94012,1,0.0189346,10,-0.00231413,-2.00261,-0.412417,-0.143059,55.4768,0.232807,
2,0,0,1,0,1195.44,0.230707,0.230439,-10.0721,1,0.0188745,10,-0.002321,-1.99688,-0.423594,-0.139284,54.8053,0.230439,
2,0,0,1,0,1195.45,0.22831,0.228018,-10.197,1,0.0188137,10,-0.0023251,-1.99153,-0.426828,-0.138229,55.0689,0.228018,
2,0,0,1,0,1195.46,0.225902,0.22561,-10.3494,1,0.018752,10,-0.00233494,-1.98508,-0.449485,-0.131261,52.9183,0.22561,
2,0,0,1,0,1195.46,0.223504,0.223214,-10.4669,1,0.0186896,10,-0.00233635,-1.98018,-0.450876,-0.130856,53.4274,0.223214,
2,0,0,1,0,1195.47,0.221107,0.22083,-10.5874,1,0.0186264,10,-0.00233801,-1.97521,-0.431863,-0.136617,56.5418,0.22083,
2,0,0,1,0,1195.47,0.218699,0.218406,-10.7412,1,0.0185625,10,-0.00234595,-1.96895,-0.434344,-0.135837,56.8079,0.218406,
2,0,0,1,0,1195.48,0.216302,0.216065,-10.855,1,0.0184976,10,-0.0023454,-1.96437,-0.471777,-0.125059,52.9961,0.216065,
2,0,0,1,0,1195.49,0.213905,0.213608,-10.98,1,0.0184321,10,-0.00234543,-1.9594,-0.448229,-0.131629,56.528,0.213608,
2,0,0,1,0,1195.49,0.211505,0.211226,-11.1328,1,0.0183658,10,-0.00235153,-1.9534,-0.447269,-0.131912,57.2341,0.211226,
2,0,0,1,0,1195.5,0.209102,0.208774,-11.2621,1,0.0182986,10,-0.00235124,-1.94838,-0.446586,-0.132113,58.1024,0.208774,
2,0,0,1,0,1195.5,0.206705,0.20635,-11.4073,1,0.0182306,10,-0.00235389,-1.94282,-0.449382,-0.131291,58.4477,0.20635,
2,0,0,1,0,1195.51,0.204308,0.203999,-11.5538,1,0.0181617,10,-0.00235696,-1.93728,-0.428181,-0.137792,62.0759,0.2039991,
2,0,0,1,0,1195.52,0.2019,0.201633,-11.7122,1,0.0180919,10,-0.00236157,-1.93136,-0.435385,-0.135512,61.8823,0.201633,
2,0,0,1,0,1195.52,0.199503,0.199193,-11.851,1,0.0180213,10,-0.00236064,-1.92624,-0.426337,-0.138388,64.01,0.199193,
2,0,0,1,0,1195.53,0.197106,0.196825,-12.006,1,0.0179497,10,-0.00236309,-1.9206,-0.401955,-0.146783,68.8311,0.196825,
2,0,0,1,0,1195.53,0.194709,0.194407,-12.1634,1,0.0178772,10,-0.00236465,-1.91494,-0.400161,-0.147441,70.0792,0.194407,
2,0,0,1,0,1195.54,0.192303,0.192003,-12.3474,1,0.0178036,10,-0.00237074,-1.90842,-0.384814,-0.153321,73.8758,0.192003,
2,0,0,1,0,1195.55,0.189906,0.189572,-12.5136,1,0.017729,10,-0.00237224,-1.90262,-0.371769,-0.158701,77.6653,0.189572,
2,0,0,1,0,1195.55,0.187509,0.187204,-12.724,1,0.0176532,10,-0.00238199,-1.89538,-0.351321,-0.167938,83.3718,0.187204,
2,0,0,1,0,1195.56,0.185101,0.184783,-12.9324,1,0.0175762,10,-0.00238969,-1.88832,-0.341522,-0.172756,87.1498,0.184783,
2,0,0,1,0,1195.56,0.182704,0.182425,-13.1293,1,0.0174981,10,-0.00239512,-1.88176,-0.334489,-0.176388,90.5965,0.182425,
2,0,0,1,0,1195.57,0.180307,0.180025,-13.3768,1,0.0174185,10,-0.00240817,-1.87365,-0.305764,-0.19296,100.784,0.180025,
2,0,0,1,0,1195.58,0.177904,0.177525,-13.6284,1,0.0173375,10,-0.00241938,-1.86556,-0.292093,-0.201991,107.481,0.177525,
2,0,0,1,0,1195.58,0.175501,0.175183,-13.8888,1,0.017255,10,-0.00243307,-1.85734,-0.274146,-0.215214,116.837,0.175183,
2,0,0,1,0,1195.59,0.173104,0.172805,-14.1755,1,0.0171708,10,-0.0024496,-1.84846,-0.258195,-0.22851,126.626,0.172805,
2,0,0,1,0,1195.59,0.170707,0.170414,-14.495,1,0.0170847,10,-0.00247014,-1.83878,-0.240158,-0.245672,139.127,0.1704139,
2,0,0,1,0,1195.6,0.168302,0.168009,-14.8372,1,0.0169967,10,-0.00249279,-1.82865,-0.230668,-0.255779,148.25,0.168009,
2,0,0,1,0,1195.61,0.165905,0.165599,-15.2097,1,0.0169065,10,-0.0025187,-1.81788,-0.218624,-0.26987,160.475,0.1655986,
2,0,0,1,0,1195.61,0.163507,0.16321,-15.6142,1,0.0168141,10,-0.00254838,-1.80648,-0.203193,-0.290364,177.28,0.1632095,
2,0,0,1,0,1195.62,0.161099,0.16079,-16.0773,1,0.016719,10,-0.00258507,-1.79379,-0.193496,-0.304915,191.347,0.16079,
2,0,0,1,0,1195.62,0.158702,0.158383,-16.531,1,0.0166211,10,-0.00261823,-1.7817,-0.180849,-0.32624,210.997,0.158383,
2,0,0,1,0,1195.63,0.156305,0.156022,-17.0591,1,0.0165203,10,-0.00266159,-1.76804,-0.171311,-0.344404,229.931,0.156022,
2,0,0,1,0,1195.64,0.153908,0.153632,-17.6423,1,0.0164162,10,-0.00271042,-1.75344,-0.164309,-0.359079,247.603,0.1536319,
2,0,0,1,0,1195.64,0.151503,0.151188,-18.2607,1,0.0163084,10,-0.00276079,-1.73848,-0.15481,-0.381112,272.215,0.151188,
2,0,0,1,0,1195.65,0.149105,0.148828,-18.9412,1,0.0161968,10,-0.00281898,-1.72259,-0.149218,-0.395395,292.784,0.148828,
2,0,0,1,0,1195.65,0.146708,0.146432,-19.6749,1,0.0160808,10,-0.00288104,-1.70609,-0.141818,-0.416025,319.955,0.146432,
2,0,0,1,0,1195.66,0.1443,0.144034,-20.456,1,0.0159604,10,-0.00294636,-1.68918,-0.135579,-0.435169,348.409,0.144034,
2,0,0,1,0,1195.67,0.141903,0.141616,-21.3266,1,0.015835,10,-0.0030202,-1.67108,-0.132427,-0.445529,371.15,0.141616,
2,0,0,1,0,1195.67,0.139506,0.139235,-22.2475,1,0.0157042,10,-0.00309763,-1.65272,-0.130658,-0.451562,392.275,0.139235,
2,0,0,1,0,1195.68,0.137109,0.136839,-23.1874,1,0.0155678,10,-0.00317294,-1.63475,-0.130659,-0.451556,409.286,0.136839,
2,0,0,1,0,1195.68,0.134701,0.134415,-24.2092,1,0.0154255,10,-0.00325408,-1.61602,-0.130422,-0.452377,427.464,0.134415,
2,0,0,1,0,1195.69,0.132303,0.13201,-25.2407,1,0.015277,10,-0.00333204,-1.5979,-0.132457,-0.445427,438.82,0.13201,
2,0,0,1,0,1195.7,0.129906,0.129604,-26.3149,1,0.0151223,10,-0.00341052,-1.5798,-0.135111,-0.436677,448.292,0.129604,
2,0,0,1,0,1195.7,0.127501,0.127216,-27.4128,1,0.014961,10,-0.00348735,-1.56205,-0.138087,-0.427266,456.631,0.127216,
2,0,0,1,0,1195.71,0.125104,0.124795,-28.5048,1,0.0147932,10,-0.00355726,-1.54508,-0.144674,-0.407812,452.634,0.124795,
2,0,0,1,0,1195.71,0.122707,0.122491,-29.5375,1,0.0146189,10,-0.00361807,-1.52963,-0.150086,-0.393107,453.226,0.122491,
2,0,0,1,0,1195.72,0.12031,0.120119,-30.6098,1,0.0144383,10,-0.00367681,-1.51414,-0.156222,-0.377668,451.596,0.120119,
2,0,0,1,0,1195.73,0.117901,0.117646,-31.7407,1,0.0142511,10,-0.00373417,-1.49838,-0.163388,-0.361103,446.416,0.117646,
2,0,0,1,0,1195.73,0.115504,0.115267,-32.7918,1,0.0140574,10,-0.00377983,-1.48423,-0.174648,-0.337822,431.617,0.115267,
2,0,0,1,0,1195.74,0.113107,0.11285,-33.8155,1,0.0138574,10,-0.00381607,-1.47088,-0.1848,-0.319264,420.844,0.11285,
2,0,0,1,0,1195.74,0.110702,0.110463,-34.8161,1,0.0136514,10,-0.00384589,-1.45822,-0.20068,-0.294,398.724,0.110463,
2,0,0,1,0,1195.75,0.108305,0.108058,-35.7502,1,0.0134396,10,-0.00386309,-1.44672,-0.21821,-0.270382,376.53,0.108058,
2,0,0,1,0,1195.76,0.105908,0.10568,-36.6256,1,0.0132224,10,-0.00387061,-1.43622,-0.235069,-0.25099,358.38,0.10568,
2,0,0,1,0,1195.76,0.103505,0.103288,-37.4665,1,0.013,10,-0.00386984,-1.42636,-0.250383,-0.235639,344.126,0.103288,
2,0,0,1,0,1195.77,0.101102,0.100861,-38.2711,1,0.0127727,10,-0.00386005,-1.41713,-0.270402,-0.218194,325.439,0.100861,
2,0,0,1,0,1195.77,0.0987052,0.098477,-39.0174,1,0.0125407,10,-0.00384232,-1.40874,-0.300989,-0.196021,298.056,0.098477,
2,0,0,1,0,1195.78,0.0963081,0.0960222,-39.7063,1,0.0123044,10,-0.00381268,-1.40114,-0.337875,-0.174621,270.205,0.0960222,
2,0,0,1,0,1195.79,0.0938999,0.0936362,-40.3305,1,0.0120642,10,-0.0037764,-1.39437,-0.379907,-0.155301,244.057,0.09363623,
2,0,0,1,0,1195.79,0.0915028,0.0912493,-40.9012,1,0.0118204,10,-0.0037322,-1.38826,-0.442682,-0.133278,212.279,0.09124925,
2,0,0,1,0,1195.8,0.0891057,0.0887615,-41.3711,1,0.0115735,10,-0.00367216,-1.3833,-0.533535,-0.110583,178.226,0.0887615,
2,0,0,1,0,1195.8,0.0867002,0.0864234,-41.7528,1,0.0113241,10,-0.00360841,-1.37931,-0.650304,-0.0907268,147.654,0.0864234,
2,0,0,1,0,1195.81,0.0843031,0.0839844,-42.0883,1,0.0110725,10,-0.00353476,-1.37584,-0.827404,-0.0713073,116.874,0.08398442,
2,0,0,1,0,1195.82,0.081906,0.0815943,-42.3178,1,0.0108192,10,-0.00345289,-1.37348,-1.18684,-0.0497117,81.9611,0.0815943,
2,0,0,1,0,1195.82,0.0795089,0.0792115,-42.4592,1,0.0105648,10,-0.00336326,-1.37203,-2.05565,-0.0287013,47.5031,0.0792115,
2,0,0,1,0,1195.83,0.0771007,0.0767736,-42.553,1,0.0103097,10,-0.00326695,-1.37107,-6.94715,-0.0084927,14.0729,0.0767736,
2,0,0,1,0,1195.83,0.0747036,0.074393,-42.5367,1,0.0100544,10,-0.00316443,-1.37124,3.6524,0.0161537,-26.7606,0.074393,
2,0,0,1,0,1195.84,0.0723065,0.0720198,-42.4231,1,0.00979954,10,-0.0030553,-1.3724,1.65525,0.0356441,-58.9268,0.0720198,
2,0,0,1,0,1195.85,0.0699011,0.0696212,-42.2535,1,0.00954552,10,-0.00294174,-1.37414,1.11576,0.0528786,-87.0643,0.0696212,
2,0,0,1,0,1195.85,0.067504,0.0671738,-42.0044,1,0.00929277,10,-0.00282159,-1.37671,0.82099,0.0718645,-117.624,0.0671738,
2,0,0,1,0,1195.86,0.0651069,0.0647805,-41.6875,1,0.00904168,10,-0.00270054,-1.37999,0.677806,0.0870455,-141.445,0.0647805,
2,0,0,1,0,1195.86,0.0627098,0.062421,-41.2988,1,0.00879273,10,-0.00257792,-1.38406,0.584654,0.100914,-162.592,0.062421,
2,0,0,1,0,1195.87,0.0603016,0.060015,-40.9135,1,0.00854609,10,-0.00245542,-1.38813,0.542401,0.108776,-173.523,0.060015,
2,0,0,1,0,1195.88,0.0579045,0.057592,-40.4796,1,0.00830194,10,-0.0023313,-1.39276,0.496093,0.118929,-187.726,0.05759196,
2,0,0,1,0,1195.88,0.0555074,0.0551806,-40.006,1,0.00806056,10,-0.00220756,-1.39787,0.48873,0.120721,-188.572,0.0551806,
2,0,0,1,0,1195.89,0.0530992,0.0527883,-39.5692,1,0.00782192,10,-0.00208879,-1.40264,0.487448,0.121039,-186.827,0.0527883,
2,0,0,1,0,1195.89,0.0507021,0.0504321,-39.1066,1,0.00758591,10,-0.00197223,-1.40775,0.467601,0.126176,-192.501,0.05043209,
2,0,0,1,0,1195.9,0.048305,0.0480377,-38.6379,1,0.00735274,10,-0.00185608,-1.41299,0.473137,0.124699,-188.125,0.0480377,
2,0,0,1,0,1195.91,0.0459051,0.045603,-38.1872,1,0.00712235,10,-0.00174145,-1.41808,0.477915,0.123453,-184.018,0.045603,
2,0,0,1,0,1195.91,0.0435024,0.0432234,-37.7566,1,0.00689451,10,-0.00163197,-1.42301,0.474992,0.124213,-182.983,0.0432234,
2,0,0,1,0,1195.92,0.0411053,0.0407972,-37.3154,1,0.00666934,10,-0.00152236,-1.42811,0.465427,0.126765,-184.655,0.0407972,
2,0,0,1,0,1195.92,0.0387082,0.0383869,-36.8805,1,0.00644679,10,-0.00141573,-1.4332,0.487688,0.120979,-174.209,0.0383869,
2,0,0,1,0,1195.93,0.0363,0.0359957,-36.4791,1,0.00622676,10,-0.00131309,-1.43796,0.480046,0.122905,-174.893,0.0359957,
2,0,0,1,0,1195.94,0.0339029,0.0335791,-36.0621,1,0.0060092,10,-0.00121093,-1.44295,0.457321,0.129012,-181.411,0.0335791,
2,0,0,1,0,1195.94,0.0315058,0.0311847,-35.6082,1,0.00579427,10,-0.00111043,-1.44845,0.455139,0.129631,-180.183,0.0311847,
2,0,0,1,0,1195.95,0.0291087,0.0287818,-35.1693,1,0.00558202,10,-0.00101224,-1.45384,0.440697,0.133879,-183.731,0.0287818,
2,0,0,1,0,1195.95,0.0267033,0.0264012,-34.7365,1,0.00537228,10,-0.000917084,-1.45921,0.413814,0.142576,-193.022,0.0264012,
2,0,0,1,0,1195.96,0.0243062,0.0239633,-34.2442,1,0.00516534,10,-0.000820603,-1.46541,0.386792,0.152537,-203.82,0.0239633,
2,0,0,1,0,1195.97,0.0219091,0.0215837,-33.7508,1,0.00496141,10,-0.000728469,-1.47172,0.373788,0.157844,-207.943,0.0215837,
2,0,0,1,0,1195.97,0.0195009,0.0191543,-33.27,1,0.00476037,10,-0.000637265,-1.47795,0.350122,0.168512,-218.454,0.0191543,
2,0,0,1,0,1195.98,0.0171038,0.0168045,-32.717,1,0.00456242,10,-0.000549792,-1.48523,0.324098,0.182044,-232.317,0.0168045,
2,0,0,1,0,1195.98,0.0147067,0.0143751,-32.1545,1,0.00436787,10,-0.000462224,-1.49276,0.313908,0.187953,-235.826,0.0143751,
2,0,0,1,0,1195.99,0.012304,0.0119913,-31.5996,1,0.00417666,10,-0.00037892,-1.50032,0.30293,0.194764,-239.929,0.0119913,
2,0,0,1,0,1196,0.00990136,0.00963719,-31.0103,1,0.0039889,10,-0.000298853,-1.50849,0.288331,0.204626,-247.433,0.00963719,
2,0,0,1,0,1196,0.00750426,0.00719296,-30.3928,1,0.00380477,10,-0.000218614,-1.51723,0.276936,0.213046,-252.723,0.00719296,
2,0,0,1,0,1196.01,0.00510715,0.00480174,-29.7858,1,0.00362429,10,-0.000143024,-1.52599,0.295805,0.199456,-232.266,0.00480174,
2,0,0,1,0,1196.01,0.00270173,0.00241159,-29.2115,1,0.00344734,10,-7.0446e-05,-1.53445,0.292039,0.202028,-230.549,0.00241159,
2,0,0,1,0,1196.02,0.000304623,-0.000109001,-28.698,1,0.0032735,10,3.12809e-06,-1.54215,0.293781,0.20083,-224.797,-0.000109001,
2,0,0,1,0,1196.03,-0.00209248,-0.00245886,-28.1291,1,0.0031031,10,6.91655e-05,-1.55084,0.292029,0.202034,-222.214,-0.00245886,
2,0,0,1,0,1196.03,-0.00450068,-0.00485538,-27.6514,1,0.00293584,10,0.000134258,-1.55828,0.312599,0.18874,-203.679,-0.00485538,
2,0,0,1,0,1196.04,-0.00689779,-0.00729644,-27.1671,1,0.00277146,10,0.000198223,-1.56596,0.333855,0.176723,-187.498,-0.00729644,
2,0,0,1,0,1196.04,-0.00929489,-0.00962615,-26.7136,1,0.00260991,10,0.000257149,-1.57327,0.35872,0.164474,-171.873,-0.00962615,
2,0,0,1,0,1196.05,-0.011692,-0.0120333,-26.3431,1,0.00245079,10,0.000316993,-1.57933,0.407135,0.144915,-149.157,-0.0120333,
2,0,0,1,0,1196.06,-0.0140974,-0.0144552,-26.0119,1,0.00229373,10,0.000376008,-1.58483,0.445606,0.132404,-134.518,-0.0144552,
2,0,0,1,0,1196.06,-0.0164945,-0.0168433,-25.696,1,0.00213868,10,0.000432806,-1.59013,0.497852,0.118509,-119.101,-0.0168433,
2,0,0,1,0,1196.07,-0.0188916,-0.0192695,-25.443,1,0.00198532,10,0.000490274,-1.59443,0.614878,0.095954,-95.4241,-0.0192695,
2,0,0,1,0,1196.07,-0.0212998,-0.0216787,-25.2372,1,0.00183334,10,0.000547111,-1.59796,0.701703,0.0840812,-82.8719,-0.0216787,
2,0,0,1,0,1196.08,-0.0236969,-0.0240445,-25.046,1,0.00168252,10,0.000602218,-1.60126,0.822502,0.0717324,-70.1651,-0.0240445,
2,0,0,1,0,1196.09,-0.026094,-0.0264569,-24.8876,1,0.00153276,10,0.000658451,-1.60402,1.07312,0.0549798,-53.4911,-0.0264569,
2,0,0,1,0,1196.09,-0.0284912,-0.0288206,-24.7726,1,0.00138383,10,0.000713959,-1.60603,1.33032,0.0443502,-42.9188,-0.02882058,
2,0,0,1,0,1196.1,-0.0308994,-0.0312977,-24.6981,1,0.00123539,10,0.000772995,-1.60734,1.69689,0.0347694,-33.5096,-0.0312977,
2,0,0,1,0,1196.1,-0.0332965,-0.0336465,-24.6063,1,0.00108751,10,0.000827916,-1.60895,2.41452,0.0244355,-23.512,-0.03364649,
2,0,0,1,0,1196.11,-0.0356936,-0.0360207,-24.5782,1,0.000939995,10,0.000885325,-1.60945,5.17254,0.0114064,-10.9537,-0.0360207,
2,0,0,1,0,1196.12,-0.038099,-0.0384363,-24.5912,1,0.000792493,10,0.000945198,-1.60922,24.0011,0.00245822,-2.35757,-0.0384363,
2,0,0,1,0,1196.12,-0.0404961,-0.040817,-24.5594,1,0.000645075,10,0.00100244,-1.60978,-35.1609,-0.001678,1.61047,-0.040817,
2,0,0,1,0,1196.13,-0.0428932,-0.0432729,-24.5852,1,0.000497648,10,0.00106387,-1.60933,-3.82345,-0.0154311,14.8196,-0.0432729,
2,0,0,1,0,1196.13,-0.0452903,-0.0456694,-24.6282,1,0.000349995,10,0.00112475,-1.60857,-3.04376,-0.0193839,18.6337,-0.0456694,
2,0,0,1,0,1196.14,-0.0476985,-0.0480595,-24.6723,1,0.000202065,10,0.00118574,-1.60779,-2.42993,-0.0242805,23.3968,-0.0480595,
2,0,0,1,0,1196.15,-0.0500956,-0.050437,-24.7372,1,5.38311e-05,10,0.00124767,-1.60665,-2.00861,-0.0293735,28.3716,-0.050437,
2,0,0,1,0,1196.15,-0.0524927,-0.0528346,-24.8165,1,-9.48436e-05,10,0.00131117,-1.60526,-1.64615,-0.0358413,34.7325,-0.0528346,
2,0,0,1,0,1196.16,-0.0548981,-0.0552523,-24.9112,1,-0.000244034,10,0.0013764,-1.60361,-1.48799,-0.0396508,38.5553,-0.05525228,
2,0,0,1,0,1196.16,-0.0572953,-0.0576403,-25.001,1,-0.000393776,10,0.00144107,-1.60204,-1.38248,-0.0426768,41.6709,-0.0576403,
2,0,0,1,0,1196.17,-0.0596924,-0.0600973,-25.1094,1,-0.000544103,10,0.00150901,-1.60016,-1.16121,-0.0508089,49.826,-0.0600973,
2,0,0,1,0,1196.18,-0.062095,-0.0624853,-25.2543,1,-0.000695163,10,0.00157803,-1.59766,-1.13707,-0.0518879,51.0877,-0.0624853,
2,0,0,1,0,1196.18,-0.0644977,-0.06485,-25.3548,1,-0.000847008,10,0.00164426,-1.59594,-1.05708,-0.0558143,55.2522,-0.06485,
2,0,0,1,0,1196.19,-0.0668948,-0.0672306,-25.4858,1,-0.000999527,10,0.00171343,-1.5937,-1.03842,-0.0568172,56.5542,-0.0672306,
2,0,0,1,0,1196.19,-0.0692919,-0.0696399,-25.6359,1,-0.00115292,10,0.00178528,-1.59115,-0.972534,-0.0606663,60.6914,-0.0696399,
2,0,0,1,0,1196.2,-0.0717001,-0.0720523,-25.7848,1,-0.00130723,10,0.00185785,-1.58864,-0.934969,-0.0631037,63.5179,-0.0720523,
2,0,0,1,0,1196.21,-0.0740972,-0.074382,-25.9336,1,-0.00146238,10,0.001929,-1.58614,-0.921063,-0.0640564,64.8923,-0.074382,
2,0,0,1,0,1196.21,-0.0764943,-0.0768316,-26.1106,1,-0.00161854,10,0.00200612,-1.58318,-0.854211,-0.0690696,70.3806,-0.0768316,
2,0,0,1,0,1196.22,-0.0788997,-0.0792504,-26.2789,1,-0.0017757,10,0.00208261,-1.58039,-0.847707,-0.0695995,71.4054,-0.0792504,
2,0,0,1,0,1196.22,-0.0812968,-0.0816617,-26.4515,1,-0.00193392,10,0.00216008,-1.57755,-0.812649,-0.0726021,74.9574,-0.0816617,
2,0,0,1,0,1196.23,-0.0836939,-0.0840667,-26.6472,1,-0.00209325,10,0.00224014,-1.57435,-0.762839,-0.0773427,80.4428,-0.0840667,
2,0,0,1,0,1196.24,-0.086091,-0.0864781,-26.8339,1,-0.00225368,10,0.00232055,-1.57132,-0.750481,-0.0786163,82.37,-0.0864781,
2,0,0,1,0,1196.24,-0.0884992,-0.088882,-27.0422,1,-0.00241536,10,0.00240356,-1.56796,-0.71413,-0.082618,87.2004,-0.088882,
2,0,0,1,0,1196.25,-0.0908963,-0.0912436,-27.244,1,-0.00257824,10,0.00248584,-1.56473,-0.718633,-0.0821003,87.3597,-0.0912436,
2,0,0,1,0,1196.25,-0.0932934,-0.0936761,-27.471,1,-0.00274241,10,0.00257338,-1.56113,-0.671727,-0.0878333,94.1836,-0.0936761,
2,0,0,1,0,1196.26,-0.0956989,-0.0960398,-27.7039,1,-0.00290793,10,0.00266067,-1.55746,-0.660143,-0.0893746,96.6059,-0.0960398,
2,0,0,1,0,1196.27,-0.098096,-0.0984437,-27.914,1,-0.0030748,10,0.00274796,-1.55418,-0.715083,-0.0825079,89.6876,-0.0984437,
2,0,0,1,0,1196.27,-0.0999548,-0.100267,-28.1141,1,-0.00320649,10,0.0028189,-1.55108,0.0235528,2.50501,-2536.83,-0.100267,
2,0,0,1,1,1196.27,-0.0994555,-0.099924,-26.39,1,-0.00325245,10,0.002637,-1.57856,-0.0183045,-3.22324,2893.08,-0.099924,
2,0,0,1,1,1196.28,-0.0970583,-0.0974841,-20.2843,1,-0.00339108,10,0.00197739,-1.69284,-0.0202931,-2.90739,2286.97,-0.0974841,
2,0,0,1,1,1196.28,-0.0946501,-0.0950812,-15.3937,1,-0.00349726,10,0.00146365,-1.81266,-0.0185837,-3.17482,1895.21,-0.0950812,
2,0,0,1,1,1196.29,-0.092253,-0.0926592,-11.2753,1,-0.00357658,10,0.00104476,-1.94787,-0.0155966,-3.78289,1621.44,-0.0926592,
2,0,0,1,1,1196.3,-0.0898559,-0.0902648,-7.71708,1,-0.00363295,10,0.00069658,-2.11255,-0.0117626,-5.0159,1405.88,-0.0902648,
2,0,0,1,1,1196.3,-0.0874588,-0.0878916,-4.57854,1,-0.00366933,10,0.000402415,-2.33927,-0.00670501,-8.79939,1226.31,-0.0878916,
2,0,0,1,1,1196.31,-0.0850534,-0.0854972,-1.81975,1,-0.00368802,10,0.000155584,-2.73999,-0.010496,-5.62117,1073.94,-0.0854972,
2,1,0,1,1,1196.31,-0.0826563,-0.083054,0.606142,1,-0.00369129,10,-5.03425e-05,-3.21743,0.0583019,1.01197,956.418,-0.083054,
2,1,0,1,1,1196.32,-0.0802592,-0.080683,2.78699,1,-0.0036808,10,-0.000224863,-2.55486,0.00433079,13.6234,855.466,-0.080683,
2,1,0,1,1,1196.33,-0.077851,-0.0782589,4.75388,1,-0.00365788,10,-0.000372033,-2.32295,0.0120682,4.88889,772.93,-0.0782589,
2,1,0,1,1,1196.33,-0.0754539,-0.0758825,6.46438,1,-0.00362402,10,-0.000490534,-2.18947,0.0199975,2.95036,697.576,-0.0758825,
2,1,0,1,1,1196.34,-0.0730568,-0.0734881,8.02662,1,-0.00358034,10,-0.000589861,-2.09547,0.0284729,2.07214,626.161,-0.0734881,
2,1,0,1,1,1196.34,-0.0706597,-0.0711563,9.45808,1,-0.00352765,10,-0.000673002,-2.0242,0.0375591,1.57086,565.085,-0.0711563,
2,1,0,1,1,1196.35,-0.0682542,-0.0686696,10.7608,1,-0.00346678,10,-0.000738939,-1.96816,0.0480048,1.22904,506.384,-0.0686696,
2,1,0,1,1,1196.36,-0.0658571,-0.0662911,11.9191,1,-0.00339858,10,-0.000790128,-1.92376,0.0594363,0.99266,455.244,-0.0662911,
2,1,0,1,1,1196.36,-0.06346,-0.0638776,12.9567,1,-0.0033238,10,-0.000827644,-1.88751,0.0710894,0.829941,415.638,-0.0638776,
2,1,0,1,1,1196.37,-0.0610518,-0.0614281,13.9204,1,-0.00324302,10,-0.000855102,-1.85635,0.0854507,0.690456,371.548,-0.0614281,
2,1,0,1,1,1196.37,-0.0586547,-0.0590051,14.7663,1,-0.00315682,10,-0.000871284,-1.83073,0.10028,0.588355,336.657,-0.0590051,
2,1,0,1,1,1196.38,-0.0562576,-0.0566446,15.5264,1,-0.00306585,10,-0.000879486,-1.80893,0.118873,0.496328,299.045,-0.0566446,
2,1,0,1,1,1196.39,-0.053855,-0.0542343,16.2092,1,-0.00297054,10,-0.000879093,-1.79024,0.138203,0.426909,268.646,-0.0542343,
2,1,0,1,1,1196.39,-0.0514523,-0.0518166,16.8117,1,-0.00287136,10,-0.000871125,-1.77439,0.158637,0.371919,243.185,-0.0518166,
2,1,0,1,1,1196.4,-0.0490552,-0.0494306,17.3598,1,-0.00276877,10,-0.000858105,-1.76046,0.18448,0.319819,216.048,-0.04943065,
2,1,0,1,1,1196.4,-0.0466581,-0.0470638,17.8594,1,-0.00266301,10,-0.000840531,-1.74813,0.212576,0.277548,192.766,-0.0470638,
2,1,0,1,1,1196.41,-0.0442527,-0.0446259,18.291,1,-0.00255447,10,-0.000816253,-1.73776,0.243118,0.242681,172.826,-0.0446259,
2,1,0,1,1,1196.42,-0.0418556,-0.0422517,18.6773,1,-0.00244351,10,-0.000789146,-1.72869,0.283084,0.208418,151.592,-0.0422517,
2,1,0,1,1,1196.42,-0.0394585,-0.0398414,19.0308,1,-0.0023303,10,-0.000758214,-1.72054,0.317615,0.18576,137.651,-0.0398414,
2,1,0,1,1,1196.43,-0.0370558,-0.0374247,19.3295,1,-0.0022152,10,-0.000723403,-1.71378,0.370331,0.159317,120.01,-0.0374247,
2,1,0,1,1,1196.43,-0.0346532,-0.0350399,19.6026,1,-0.00209835,10,-0.000686874,-1.70769,0.423497,0.139316,106.382,-0.0350399,
2,1,0,1,1,1196.44,-0.0322561,-0.0326147,19.8383,1,-0.00197999,10,-0.000647019,-1.7025,0.50794,0.116155,89.774,-0.0326147,
2,1,0,1,1,1196.45,-0.0298589,-0.0302118,20.0377,1,-0.00186032,10,-0.000605374,-1.69815,0.585838,0.10071,78.6566,-0.0302118,
2,1,0,1,1,1196.45,-0.0274535,-0.0278238,20.2231,1,-0.00173952,10,-0.000562682,-1.69415,0.683687,0.0862968,68.0069,-0.0278238,
2,1,0,1,1,1196.46,-0.0250564,-0.025404,20.3639,1,-0.00161777,10,-0.000517324,-1.69114,0.84182,0.0700863,55.6359,-0.02540395,
2,1,0,1,1,1196.46,-0.0226593,-0.0229799,20.4933,1,-0.00149517,10,-0.000470933,-1.68839,1.00597,0.0586501,46.8326,-0.0229799,
2,1,0,1,1,1196.47,-0.0202511,-0.0206045,20.5935,1,-0.00137193,10,-0.000424321,-1.68627,1.24157,0.0475206,38.1593,-0.0206045,
2,1,0,1,1,1196.48,-0.017854,-0.0182239,20.6619,1,-0.00124815,10,-0.000376541,-1.68483,1.42859,0.0412995,33.2948,-0.0182239,
2,1,0,1,1,1196.48,-0.0154569,-0.0158062,20.7427,1,-0.00112389,10,-0.000327863,-1.68314,2.15534,0.0273738,22.1339,-0.0158062,
2,1,0,1,1,1196.49,-0.0130598,-0.0134563,20.7708,1,-0.000999311,10,-0.000279499,-1.68255,2.82038,0.0209192,16.9625,-0.0134563,
2,1,0,1,1,1196.49,-0.0106516,-0.0110301,20.822,1,-0.000874516,10,-0.000229669,-1.68148,3.26222,0.0180858,14.6888,-0.0110301,
2,1,0,1,1,1196.5,-0.00825448,-0.00859544,20.8516,1,-0.000749487,10,-0.000179229,-1.68086,7.71529,0.00764716,6.2165,-0.00859544,
2,1,0,1,1,1196.51,-0.00585738,-0.00620634,20.8508,1,-0.000624369,10,-0.000129407,-1.68088,54.0985,0.0010906,0.887447,-0.00620634,
2,1,0,1,1,1196.51,-0.00345195,-0.00382255,20.8517,1,-0.000499273,10,-7.97066e-05,-1.68086,-15.3103,-0.00385361,-3.13495,-0.00382255,
2,1,0,1,1,1196.52,-0.00105485,-0.00144405,20.8454,1,-0.000374167,10,-3.01019e-05,-1.68099, , , ,-0.00144405,
2,1,0,1,1,1196.52,-7.54729e-05,-0.000382585,20.8362,1,-0.000322069,10,-7.97164e-06,-1.68118, , , ,-0.000382585,