File: Figure_codes/Fig_3-5/rawdata_trumpetplot_data/after 10th/20221101_1-115_003_TrumpetPlot_ParaChange_from10_every3_14_CV_C01_30.csv
mode,ox/red,error,control changes,counter inc.,time/s,control/V,Ewe/V,<I>/mA,cycle number,(Q-Qo)/C,I Range,P/W,log(|I|),Tafel slope mV/dec,alpha_eff,dI/d(E-IR),E-IR/V,
2,1,0,1,0,60303,2.44065e-05,-0.000287149,28.6842,31,0.0000000E+000,10,-8.23664e-06,-1.54236, , , ,-0.0002871489,
2,1,0,1,0,60303,0.00332042,0.00294073,29.8985,31,9.13443e-05,10,8.79234e-05,-1.52435, , , ,0.00294073,
2,1,0,1,0,60303,0.0073156,0.00696391,30.8864,31,0.000213062,10,0.00021509,-1.51023, , , ,0.00696391,
2,1,0,1,0,60303,0.0113108,0.0108927,31.7651,31,0.000338472,10,0.000346008,-1.49805,0.336044,0.175572,216.494,0.0108927,
2,1,0,1,0,60303,0.0153059,0.0149339,32.5869,31,0.000467264,10,0.00048665,-1.48696,0.368969,0.159905,202.701,0.0149339,
2,1,0,1,0,60303,0.0193011,0.0189094,33.3556,31,0.000599243,10,0.000630735,-1.47683,0.403959,0.146054,189.614,0.0189094,
2,1,0,1,0,60303,0.0233462,0.0229633,34.1295,31,0.00073434,10,0.000783726,-1.46687,0.432677,0.13636,181.006,0.0229633,
2,1,0,1,0,60303,0.0273414,0.0269621,34.8121,31,0.0008723,10,0.000938607,-1.45827,0.462113,0.127674,173.015,0.0269621,
2,1,0,1,0,60303.1,0.0313366,0.0309143,35.4794,31,0.00101297,10,0.00109682,-1.45002,0.496895,0.118737,164.149,0.0309143,
2,1,0,1,0,60303.1,0.0353317,0.0349279,36.1271,31,0.00115625,10,0.00126184,-1.44217,0.519722,0.113522,159.811,0.03492789,
2,1,0,1,0,60303.1,0.0393269,0.0389235,36.7493,31,0.00130207,10,0.00143041,-1.43475,0.550198,0.107234,153.576,0.0389235,
2,1,0,1,0,60303.1,0.0433221,0.0429096,37.3607,31,0.00145037,10,0.00160313,-1.42759,0.577461,0.102171,148.749,0.04290957,
2,1,0,1,0,60303.1,0.0473173,0.0469455,37.9414,31,0.00160102,10,0.00178118,-1.42089,0.603678,0.0977342,144.537,0.0469455,
2,1,0,1,0,60303.1,0.0513124,0.0509273,38.507,31,0.00175399,10,0.00196106,-1.41446,0.629522,0.0937219,140.726,0.0509273,
2,1,0,1,0,60303.1,0.0553076,0.054925,39.0621,31,0.00190918,10,0.00214549,-1.40824,0.643457,0.0916922,139.737,0.054925,
2,1,0,1,0,60303.1,0.0593028,0.058892,39.6098,31,0.00206659,10,0.0023327,-1.4022,0.670305,0.0880196,135.993,0.058892,
2,1,0,1,0,60303.1,0.0633479,0.0629576,40.1789,31,0.00222619,10,0.00252957,-1.396,0.695366,0.0848473,132.841,0.0629576,
2,1,0,1,0,60303.1,0.0673431,0.0669861,40.6908,31,0.00238799,10,0.00272572,-1.3905,0.721565,0.0817667,129.692,0.0669861,
2,1,0,1,0,60303.1,0.0713382,0.070951,41.191,31,0.0025518,10,0.00292254,-1.3852,0.749748,0.0786931,126.473,0.070951,
2,1,0,1,0,60303.1,0.0753334,0.0749434,41.6915,31,0.00271762,10,0.00312451,-1.37995,0.768577,0.0767652,124.869,0.0749434,
2,1,0,1,0,60303.1,0.0793286,0.0789348,42.1996,31,0.00288545,10,0.00333101,-1.37469,0.785179,0.0751421,123.668,0.0789348,
2,1,0,1,0,60303.1,0.0833238,0.0829537,42.6847,31,0.00305527,10,0.00354085,-1.36973,0.801731,0.0735908,122.527,0.0829537,
2,1,0,1,0,60303.1,0.0873189,0.0869154,43.1653,31,0.00322703,10,0.00375173,-1.36486,0.822254,0.071754,120.853,0.0869154,
2,1,0,1,0,60303.1,0.0913141,0.0909099,43.6479,31,0.00340071,10,0.00396802,-1.36004,0.826945,0.0713469,121.529,0.0909099,
2,1,0,1,0,60303.1,0.0953093,0.0948918,44.128,31,0.00357633,10,0.00418739,-1.35529,0.83169,0.0709399,122.189,0.0948918,
2,1,0,1,0,60303.1,0.0993045,0.0988842,44.6207,31,0.00375388,10,0.00441228,-1.35046,0.83438,0.0707112,123.154,0.0988842,
2,1,0,1,0,60303.1,0.103319,0.102896,45.1179,31,0.00393338,10,0.00464244,-1.34565,0.840141,0.0702263,123.64,0.1028957,
2,1,0,1,0,60303.1,0.107345,0.106926,45.6203,31,0.00411495,10,0.00487801,-1.34084,0.854718,0.0690286,122.842,0.106926,
2,1,0,1,0,60303.1,0.11134,0.110933,46.1113,31,0.00429845,10,0.00511525,-1.33619,0.863423,0.0683326,122.935,0.110933,
2,1,0,1,0,60303.1,0.115335,0.114927,46.5915,31,0.00448392,10,0.00535462,-1.33169,0.875529,0.0673878,122.541,0.114927,
2,1,0,1,0,60303.1,0.11933,0.118956,47.0923,31,0.00467135,10,0.00560189,-1.32705,0.886633,0.0665439,122.269,0.118956,
2,1,0,1,0,60303.1,0.123325,0.122941,47.5827,31,0.00486074,10,0.00584985,-1.32255,0.897646,0.0657275,121.99,0.122941,
2,1,0,1,0,60303.1,0.127321,0.1269,48.0637,31,0.0050521,10,0.00609928,-1.31818,0.897956,0.0657048,123.247,0.1269,
2,1,0,1,0,60303.2,0.131316,0.130864,48.5356,31,0.00524536,10,0.00635156,-1.31394,0.87592,0.0673577,127.736,0.130864,
2,1,0,1,0,60303.2,0.135311,0.134826,49.0482,31,0.00544052,10,0.00661295,-1.30938,0.856662,0.068872,132.005,0.134826,
2,1,0,1,0,60303.2,0.139306,0.13885,49.6149,31,0.00563792,10,0.00688903,-1.30439,0.822232,0.0717559,139.019,0.13885,
2,1,0,1,0,60303.2,0.143301,0.142893,50.1748,31,0.00583755,10,0.00716964,-1.29951,0.818088,0.0721194,141.23,0.142893,
2,1,0,1,0,60303.2,0.147346,0.146909,50.7662,31,0.00603954,10,0.007458,-1.29443,0.827517,0.0712976,141.19,0.146909,
2,1,0,1,0,60303.2,0.151342,0.150946,51.3249,31,0.00624376,10,0.00774728,-1.28967,0.82691,0.07135,142.89,0.150946,
2,1,0,1,0,60303.2,0.155337,0.154932,51.8856,31,0.00645023,10,0.00803873,-1.28495,0.835387,0.0706259,143.066,0.154932,
2,1,0,1,0,60303.2,0.159332,0.15897,52.472,31,0.00665901,10,0.00834148,-1.28007,0.83467,0.0706866,144.753,0.15897,
2,1,0,1,0,60303.2,0.163327,0.162948,53.0607,31,0.00687012,10,0.00864612,-1.27523,0.838295,0.070381,145.7,0.162948,
2,1,0,1,0,60303.2,0.167322,0.166909,53.6356,31,0.00708358,10,0.00895228,-1.27055,0.849484,0.0694539,145.346,0.166909,
2,1,0,1,0,60303.2,0.171317,0.170956,54.2202,31,0.00729935,10,0.00926926,-1.26584,0.870855,0.0677495,143.294,0.170956,
2,1,0,1,0,60303.2,0.175313,0.174907,54.7884,31,0.00751742,10,0.00958286,-1.26131,0.892777,0.0660859,141.23,0.174907,
2,1,0,1,0,60303.2,0.179308,0.178887,55.3447,31,0.00773776,10,0.00990042,-1.25692,0.910931,0.0647689,139.862,0.178887,
2,1,0,1,0,60303.2,0.183303,0.182928,55.8979,31,0.00796032,10,0.0102253,-1.2526,0.960996,0.0613946,133.829,0.182928,
2,1,0,1,0,60303.2,0.187348,0.186949,56.4571,31,0.00818505,10,0.0105546,-1.24828,1.01164,0.0583212,128.3,0.186949,
2,1,0,1,0,60303.2,0.191343,0.190937,56.9337,31,0.00841188,10,0.0108707,-1.24463,1.08602,0.054327,120.552,0.190937,
2,1,0,1,0,60303.2,0.195338,0.194942,57.4046,31,0.00864061,10,0.0111906,-1.24105,1.19631,0.0493183,110.352,0.194942,
2,1,0,1,0,60303.2,0.199334,0.198955,57.83,31,0.00887112,10,0.0115056,-1.23785,1.30881,0.0450792,101.586,0.198955,
2,1,0,1,0,60303.2,0.203329,0.202913,58.2188,31,0.00910328,10,0.0118134,-1.23494,1.4991,0.039357,89.2676,0.202913,
2,1,0,1,0,60303.2,0.207324,0.206934,58.5588,31,0.00933687,10,0.0121178,-1.23241,1.7368,0.0339705,77.4852,0.2069343,
2,1,0,1,0,60303.2,0.211319,0.210983,58.8366,31,0.00957171,10,0.0124135,-1.23035,2.09841,0.0281165,64.4477,0.210983,
2,1,0,1,0,60303.2,0.215314,0.214906,59.066,31,0.00980756,10,0.0126937,-1.22866,2.66143,0.0221685,51.0149,0.214906,
2,1,0,1,0,60303.2,0.219309,0.218917,59.2502,31,0.0100442,10,0.0129709,-1.22731,3.5225,0.0167495,38.6608,0.218917,
2,1,0,1,0,60303.2,0.223305,0.222909,59.3738,31,0.0102815,10,0.013235,-1.22641,5.31265,0.0111056,25.6896,0.222909,
2,1,0,1,0,60303.2,0.227314,0.226882,59.4512,31,0.0105192,10,0.0134884,-1.22584,12.5779,0.00469076,10.8626,0.226882,
2,1,0,1,0,60303.3,0.231345,0.230994,59.4793,31,0.0107571,10,0.0137394,-1.22563,-46.4188,-0.00127104,-2.94404,0.230994,
2,1,0,1,0,60303.3,0.23534,0.23496,59.4244,31,0.0109949,10,0.0139623,-1.22604,-7.61848,-0.00774433,-17.9247,0.23496,
2,1,0,1,0,60303.3,0.239335,0.23898,59.3264,31,0.0112324,10,0.0141778,-1.22675,-4.16436,-0.0141678,-32.7424,0.23898,
2,1,0,1,0,60303.3,0.24333,0.24298,59.1627,31,0.0114694,10,0.0143753,-1.22795,-2.90251,-0.0203272,-46.8445,0.24298,
2,1,0,1,0,60303.3,0.247326,0.247021,58.9545,31,0.0117056,10,0.014563,-1.22948,-2.20507,-0.0267565,-61.4366,0.247021,
2,1,0,1,0,60303.3,0.251321,0.250934,58.6761,31,0.0119408,10,0.0147238,-1.23154,-1.82492,-0.0323302,-73.8995,0.250934,
2,1,0,1,0,60303.3,0.255316,0.254938,58.346,31,0.0121749,10,0.0148746,-1.23399,-1.50993,-0.0390747,-88.8228,0.254938,
2,1,0,1,0,60303.3,0.259311,0.258983,57.98,31,0.0124075,10,0.0150159,-1.23672,-1.32113,-0.0446587,-100.85,0.258983,
2,1,0,1,0,60303.3,0.263306,0.262913,57.5429,31,0.0126385,10,0.0151288,-1.24001,-1.18877,-0.049631,-111.273,0.262913,
2,1,0,1,0,60303.3,0.267302,0.266976,57.0583,31,0.0128677,10,0.0152332,-1.24368,-1.04415,-0.0565051,-125.628,0.266976,
2,1,0,1,0,60303.3,0.271347,0.271002,56.5585,31,0.0130949,10,0.0153275,-1.2475,-0.955084,-0.0617747,-136.076,0.271002,
2,1,0,1,0,60303.3,0.275342,0.274993,55.9687,31,0.0133199,10,0.015391,-1.25205,-0.874607,-0.0674589,-147.092,0.274993,
2,1,0,1,0,60303.3,0.279337,0.27898,55.3566,31,0.0135425,10,0.0154434,-1.25683,-0.800029,-0.0737473,-159.094,0.2789804,
2,1,0,1,0,60303.3,0.283332,0.283009,54.6999,31,0.0137626,10,0.0154806,-1.26201,-0.755384,-0.078106,-166.514,0.283009,
2,1,0,1,0,60303.3,0.287327,0.286989,54.0151,31,0.01398,10,0.0155017,-1.26748,-0.712018,-0.082863,-174.473,0.286989,
2,1,0,1,0,60303.3,0.291322,0.290984,53.306,31,0.0141946,10,0.0155112,-1.27322,-0.686653,-0.085924,-178.686,0.290984,
2,1,0,1,0,60303.3,0.295318,0.294948,52.5706,31,0.0144062,10,0.0155056,-1.27926,-0.671059,-0.0879208,-181.36,0.294948,
2,1,0,1,0,60303.3,0.299013,0.2987,51.8962,31,0.0145995,10,0.0155014,-1.28486,-0.224364,-0.262966,-526.376,0.2986998,
2,1,0,0,0,60303.3,0.300012,0.299689,51.7118,31,0.0146513,10,0.0154975,-1.28641,0.00633865,9.30797,17445.2,0.2996892,
2,1,0,1,0,60303.3,0.298714,0.298546,49.3256,31,0.014716,10,0.014726,-1.30693,0.068216,0.8649,1529.25,0.298546,
2,1,0,1,0,60303.3,0.294718,0.294442,43.7474,31,0.0149011,10,0.0128811,-1.35905,0.0804051,0.733784,1232.55,0.294442,
2,1,0,1,0,60303.3,0.290723,0.290461,39.2977,31,0.0150666,10,0.0114145,-1.40563,0.0848701,0.69518,1084.15,0.290461,
2,1,0,1,0,60303.3,0.286728,0.286452,35.3963,31,0.0152155,10,0.0101394,-1.45104,0.0866585,0.680834,947.282,0.286452,
2,1,0,1,0,60303.3,0.282733,0.282438,31.8626,31,0.0153495,10,0.00899922,-1.49672,0.0862987,0.683672,853.071,0.282438,
2,1,0,1,0,60303.3,0.278738,0.278475,28.6215,31,0.0154701,10,0.00797036,-1.54331,0.0836715,0.705138,788.436,0.2784746,
2,1,0,1,0,60303.3,0.274742,0.274427,25.6192,31,0.0155782,10,0.00703061,-1.59143,0.0806361,0.731682,730.389,0.274427,
2,1,0,1,0,60303.3,0.270747,0.270502,22.8211,31,0.0156748,10,0.00617318,-1.64166,0.0774395,0.761885,676.524,0.270502,
2,1,0,1,0,60303.4,0.266702,0.266443,20.1799,31,0.0157604,10,0.00537679,-1.69508,0.0727234,0.811294,636.913,0.266443,
2,1,0,1,0,60303.4,0.262707,0.2624,17.7466,31,0.015836,10,0.00465671,-1.75088,0.0686616,0.859286,591.455,0.2624,
2,1,0,1,0,60303.4,0.258712,0.258482,15.4634,31,0.0159022,10,0.00399701,-1.81069,0.0634404,0.930007,555.176,0.258482,
2,1,0,1,0,60303.4,0.254717,0.254412,13.3043,31,0.0159594,10,0.00338476,-1.87601,0.0573379,1.02899,526.334,0.254412,
2,1,0,1,0,60303.4,0.250722,0.250398,11.2721,31,0.0160084,10,0.00282251,-1.948,0.0512887,1.15035,495.341,0.250398,
2,1,0,1,0,60303.4,0.246726,0.246458,9.35571,31,0.0160494,10,0.00230579,-2.02892,0.0444882,1.3262,469.079,0.246458,
2,1,0,1,0,60303.4,0.242731,0.242492,7.54299,31,0.016083,10,0.00182911,-2.12246,0.0373463,1.57981,442.259,0.242492,
2,1,0,1,0,60303.4,0.238736,0.238491,5.83609,31,0.0161095,10,0.00139185,-2.23388,0.0293064,2.01321,418.3,0.238491,
2,1,0,1,0,60303.4,0.234741,0.234438,4.21354,31,0.0161294,10,0.000987814,-2.37535,0.0197543,2.9867,397.001,0.234438,
2,1,0,1,0,60303.4,0.230746,0.230451,2.66003,31,0.016143,10,0.000613006,-2.57511,0.0112923,5.22478,375.45,0.230451,
2,1,0,1,0,60303.4,0.226701,0.226405,1.1567,31,0.0161505,10,0.000261883,-2.93678,0.0365527,1.61411,359.33,0.226405,
2,1,0,1,0,60303.4,0.222705,0.222366,-0.217873,31,0.0161522,10,-4.84475e-05,-3.6618,-0.74754,-0.0789256,339.73,0.222366,
2,0,0,1,0,60303.4,0.21871,0.218433,-1.53743,31,0.0161486,10,-0.000335825,-2.81321,-0.0296646,-1.9889,322.591,0.218433,
2,0,0,1,0,60303.4,0.214715,0.214394,-2.7949,31,0.0161398,10,-0.00059921,-2.55363,-0.0116072,-5.08307,309.755,0.214394,
2,0,0,1,0,60303.4,0.21072,0.210401,-4.00629,31,0.016126,10,-0.000842927,-2.39726,-0.0262562,-2.24709,294.841,0.210401,
2,0,0,1,0,60303.4,0.206725,0.206414,-5.15931,31,0.0161076,10,-0.00106495,-2.28741,-0.038222,-1.54361,283.133,0.206414,
2,0,0,1,0,60303.4,0.202729,0.202431,-6.25565,31,0.0160846,10,-0.00126634,-2.20373,-0.0503731,-1.17126,270.011,0.202431,
2,0,0,1,0,60303.4,0.198734,0.198412,-7.32005,31,0.0160574,10,-0.00145238,-2.13549,-0.0624914,-0.94413,259.116,0.198412,
2,0,0,1,0,60303.4,0.194739,0.194385,-8.3306,31,0.016026,10,-0.00161935,-2.07932,-0.0743202,-0.793862,250.893,0.194385,
2,0,0,1,0,60303.4,0.190744,0.190389,-9.31161,31,0.0159906,10,-0.00177283,-2.03098,-0.0868286,-0.6795,241.947,0.190389,
2,0,0,1,0,60303.4,0.186735,0.186427,-10.2709,31,0.0159513,10,-0.00191476,-1.98839,-0.0994267,-0.593402,233.565,0.1864271,
2,0,0,1,0,60303.4,0.182704,0.182369,-11.2016,31,0.0159082,10,-0.00204282,-1.95072,-0.112045,-0.526573,226.547,0.182369,
2,0,0,1,0,60303.4,0.178709,0.178371,-12.071,31,0.0158616,10,-0.00215311,-1.91826,-0.126049,-0.468072,218.055,0.178371,
2,0,0,1,0,60303.4,0.174713,0.174398,-12.9343,31,0.0158115,10,-0.00225572,-1.88826,-0.139017,-0.424408,212.458,0.174398,
2,0,0,1,0,60303.4,0.170718,0.170362,-13.7739,31,0.015758,10,-0.00234656,-1.86094,-0.1505,-0.392028,209.143,0.170362,
2,0,0,1,0,60303.5,0.166723,0.166361,-14.6026,31,0.0157011,10,-0.0024293,-1.83557,-0.163427,-0.361018,204.451,0.166361,
2,0,0,1,0,60303.5,0.162728,0.162434,-15.4041,31,0.015641,10,-0.00250215,-1.81236,-0.174033,-0.339016,202.911,0.162434,
2,0,0,1,0,60303.5,0.158733,0.158372,-16.2108,31,0.0155777,10,-0.00256734,-1.79019,-0.184362,-0.320022,201.804,0.158372,
2,0,0,1,0,60303.5,0.154737,0.154401,-17.0126,31,0.0155112,10,-0.00262677,-1.76923,-0.193405,-0.305059,202.047,0.154401,
2,0,0,1,0,60303.5,0.150742,0.150418,-17.82,31,0.0154415,10,-0.00268044,-1.74909,-0.198628,-0.297038,206.463,0.150418,
2,0,0,1,0,60303.5,0.146747,0.146416,-18.6405,31,0.0153685,10,-0.00272927,-1.72954,-0.205714,-0.286805,208.535,0.146416,
2,0,0,1,0,60303.5,0.142702,0.142386,-19.5113,31,0.0152921,10,-0.00277814,-1.70971,-0.210272,-0.280589,213.296,0.1423863,
2,0,0,1,0,60303.5,0.138707,0.138406,-20.3482,31,0.0152123,10,-0.00281631,-1.69147,-0.212967,-0.277038,220.056,0.138406,
2,0,0,1,0,60303.5,0.134712,0.134401,-21.2362,31,0.015129,10,-0.00285418,-1.67292,-0.215824,-0.273371,226.984,0.134401,
2,0,0,1,0,60303.5,0.130717,0.130389,-22.1674,31,0.0150421,10,-0.00289038,-1.65429,-0.213888,-0.275845,239.013,0.130389,
2,0,0,1,0,60303.5,0.126721,0.126387,-23.1429,31,0.0149514,10,-0.00292495,-1.63558,-0.212944,-0.277068,250.636,0.1263869,
2,0,0,1,0,60303.5,0.122726,0.122436,-24.1652,31,0.0148567,10,-0.00295868,-1.61681,-0.211489,-0.278975,263.551,0.122436,
2,0,0,1,0,60303.5,0.118731,0.11844,-25.2367,31,0.0147578,10,-0.00298904,-1.59797,-0.211805,-0.278558,274.799,0.1184402,
2,0,0,1,0,60303.5,0.114736,0.114452,-26.3675,31,0.0146545,10,-0.00301782,-1.57893,-0.212566,-0.277561,285.803,0.114452,
2,0,0,1,0,60303.5,0.110741,0.110386,-27.5398,31,0.0145466,10,-0.00304002,-1.56004,-0.213391,-0.276488,297.335,0.110386,
2,0,0,1,0,60303.5,0.106745,0.106446,-28.7351,31,0.0144339,10,-0.00305874,-1.54159,-0.218494,-0.27003,302.773,0.106446,
2,0,0,1,0,60303.5,0.102703,0.10238,-30.0118,31,0.0143163,10,-0.00307262,-1.52271,-0.224122,-0.263249,307.46,0.10238,
2,0,0,1,0,60303.5,0.0987052,0.0983911,-31.2304,31,0.0141938,10,-0.00307279,-1.50542,-0.233275,-0.25292,307.305,0.0983911,
2,0,0,1,0,60303.5,0.09471,0.0944241,-32.4476,31,0.0140663,10,-0.00306383,-1.48882,-0.245915,-0.23992,303.106,0.0944241,
2,0,0,1,0,60303.5,0.0907148,0.0904168,-33.661,31,0.0139339,10,-0.00304352,-1.47287,-0.25681,-0.229741,301.108,0.0904168,
2,0,0,1,0,60303.5,0.0867197,0.0864117,-34.852,31,0.0137968,10,-0.00301162,-1.45777,-0.269571,-0.218867,297.007,0.0864117,
2,0,0,1,0,60303.5,0.0827245,0.0823821,-36.0508,31,0.0136548,10,-0.00296994,-1.44309,-0.283599,-0.20804,291.785,0.0823821,
2,0,0,1,0,60303.5,0.0787293,0.0784099,-37.2039,31,0.0135082,10,-0.00291715,-1.42941,-0.299418,-0.197049,285.176,0.0784099,
2,0,0,1,0,60303.5,0.0747342,0.0744662,-38.3151,31,0.013357,10,-0.00285318,-1.41663,-0.319357,-0.184746,275.434,0.0744662,
2,0,0,1,0,60303.5,0.070739,0.0704377,-39.4074,31,0.0132015,10,-0.00277577,-1.40442,-0.341221,-0.172909,265.09,0.0704377,
2,0,0,1,0,60303.6,0.0667438,0.0664623,-40.4357,31,0.0130417,10,-0.00268744,-1.39324,-0.365785,-0.161297,253.809,0.0664623,
2,0,0,1,0,60303.6,0.0627403,0.0624316,-41.4396,31,0.0128778,10,-0.00258714,-1.38258,-0.397606,-0.148388,239.102,0.0624316,
2,0,0,1,0,60303.6,0.0587035,0.0584,-42.3929,31,0.01271,10,-0.00247574,-1.37271,-0.425138,-0.138778,228.765,0.05839999,
2,0,0,1,0,60303.6,0.0547083,0.0544638,-43.2268,31,0.0125386,10,-0.0023543,-1.36425,-0.457264,-0.129028,217.291,0.0544638,
2,0,0,1,0,60303.6,0.0507132,0.0504745,-44.0931,31,0.0123639,10,-0.00222558,-1.35563,-0.493585,-0.119534,205.284,0.05047451,
2,0,0,1,0,60303.6,0.046718,0.0464619,-44.9096,31,0.0121858,10,-0.00208659,-1.34766,-0.524981,-0.112385,196.408,0.0464619,
2,0,0,1,0,60303.6,0.0427228,0.0424981,-45.6573,31,0.0120046,10,-0.00194035,-1.34049,-0.569862,-0.103534,184.052,0.04249813,
2,0,0,1,0,60303.6,0.0387276,0.038458,-46.3705,31,0.0118205,10,-0.00178332,-1.33376,-0.618534,-0.0953868,172.27,0.038458,
2,0,0,1,0,60303.6,0.0347325,0.0344634,-47.04,31,0.0116336,10,-0.00162116,-1.32753,-0.665254,-0.088688,162.495,0.0344634,
2,0,0,1,0,60303.6,0.0307373,0.0304381,-47.6701,31,0.0114441,10,-0.00145099,-1.32175,-0.717124,-0.0822731,152.772,0.0304381,
2,0,0,1,0,60303.6,0.0267421,0.0264722,-48.2614,31,0.0112521,10,-0.00127759,-1.3164,-0.757561,-0.0778816,146.517,0.0264722,
2,0,0,1,0,60303.6,0.022747,0.0224893,-48.8101,31,0.0110579,10,-0.00109771,-1.31149,-0.813488,-0.0725272,138.036,0.02248932,
2,0,0,1,0,60303.6,0.0187018,0.0184333,-49.3887,31,0.0108615,10,-0.000910394,-1.30637,-0.86805,-0.0679685,130.774,0.0184333,
2,0,0,1,0,60303.6,0.0147067,0.0144207,-49.881,31,0.0106629,10,-0.000719319,-1.30206,-0.930914,-0.0633786,123.163,0.0144207,
2,0,0,1,0,60303.6,0.0107115,0.0104675,-50.3544,31,0.0104623,10,-0.000527084,-1.29796,-1.02986,-0.0572894,112.433,0.0104675,
2,0,0,1,0,60303.6,0.00671632,0.00640826,-50.7907,31,0.01026,10,-0.00032548,-1.29422,-1.11232,-0.0530425,104.993,0.00640826,
2,0,0,1,0,60303.6,0.00272115,0.00235644,-51.1962,31,0.010056,10,-0.000120641,-1.29076,-1.24321,-0.0474578,94.6683,0.00235644,
2,0,0,1,0,60303.6,-0.00127403,-0.00163705,-51.567,31,0.00985035,10,8.44176e-05,-1.28763,-1.38256,-0.0426745,85.7279,-0.001637047,
2,0,0,1,0,60303.6,-0.0052692,-0.00564433,-51.8797,31,0.00964342,10,0.000292826,-1.285,-1.57136,-0.0375472,75.9061,-0.00564433,
2,0,0,1,0,60303.6,-0.00926438,-0.00961025,-52.1639,31,0.0094353,10,0.000501308,-1.28263,-1.81845,-0.0324452,65.9605,-0.00961025,
2,0,0,1,0,60303.6,-0.0132596,-0.0136334,-52.4099,31,0.00922611,10,0.000714527,-1.28059,-2.01989,-0.0292095,59.6834,-0.0136334,
2,0,0,1,0,60303.6,-0.0172547,-0.0176047,-52.6202,31,0.00901602,10,0.000926361,-1.27885,-2.39139,-0.0246719,50.6176,-0.0176047,
2,0,0,1,0,60303.6,-0.0212915,-0.0216543,-52.8352,31,0.00880513,10,0.00114411,-1.27708,-2.85802,-0.0206437,42.4987,-0.0216543,
2,0,0,1,0,60303.6,-0.025295,-0.0256871,-52.9777,31,0.00859347,10,0.00136084,-1.27591,-3.58142,-0.0164739,34.0062,-0.02568708,
2,0,0,1,0,60303.6,-0.0292902,-0.0296827,-53.092,31,0.00838132,10,0.00157591,-1.27497,-5.06969,-0.0116378,24.0844,-0.02968269,
2,0,0,1,0,60303.7,-0.0332854,-0.0336677,-53.1665,31,0.00816879,10,0.00178999,-1.27436,-7.53454,-0.00783061,16.2298,-0.0336677,
2,0,0,1,0,60303.7,-0.0372805,-0.0376432,-53.2203,31,0.00795601,10,0.00200338,-1.27392,-12.6497,-0.00466415,9.67825,-0.0376432,
2,0,0,1,0,60303.7,-0.0412757,-0.0416632,-53.237,31,0.00774308,10,0.00221802,-1.27379,-28.2742,-0.00208671,4.33257,-0.04166317,
2,0,0,1,0,60303.7,-0.0452709,-0.045663,-53.2467,31,0.00753011,10,0.0024314,-1.27371,78.2623,0.000753875,-1.56545,-0.045663,
2,0,0,1,0,60303.7,-0.0492661,-0.0496533,-53.2357,31,0.00731715,10,0.00264333,-1.2738,22.0222,0.00267912,-5.56169,-0.0496533,
2,0,0,1,0,60303.7,-0.0532612,-0.0536012,-53.1953,31,0.00710428,10,0.00285133,-1.27413,12.5987,0.00468304,-9.71739,-0.0536012,
2,0,0,1,0,60303.7,-0.0572564,-0.0575852,-53.1484,31,0.00689158,10,0.00306056,-1.27451,10.6209,0.00555509,-11.5213,-0.0575852,
2,0,0,1,0,60303.7,-0.0612544,-0.0616444,-53.0914,31,0.00667911,10,0.00327279,-1.27498,8.9723,0.00657579,-13.6235,-0.0616444,
2,0,0,1,0,60303.7,-0.0652967,-0.0657058,-53.0508,31,0.00646676,10,0.00348574,-1.27531,7.39595,0.00797734,-16.5053,-0.0657058,
2,0,0,1,0,60303.7,-0.0692919,-0.0696823,-52.9762,31,0.00625472,10,0.0036915,-1.27592,6.55406,0.00900206,-18.5997,-0.0696823,
2,0,0,1,0,60303.7,-0.0732871,-0.0736864,-52.8827,31,0.00604302,10,0.00389673,-1.27669,5.50791,0.0107119,-22.1042,-0.0736864,
2,0,0,1,0,60303.7,-0.0772822,-0.0776937,-52.7929,31,0.00583167,10,0.00410167,-1.27742,5.27701,0.0111806,-23.0352,-0.0776937,
2,0,0,1,0,60303.7,-0.0812774,-0.0816532,-52.6983,31,0.0056207,10,0.00430298,-1.2782,5.46268,0.0108006,-22.216,-0.0816532,
2,0,0,1,0,60303.7,-0.0852726,-0.0857029,-52.6072,31,0.00541009,10,0.00450859,-1.27895,5.52484,0.010679,-21.9296,-0.0857029,
2,0,0,1,0,60303.7,-0.0892678,-0.0896296,-52.5285,31,0.00519982,10,0.00470811,-1.27961,5.68317,0.0103815,-21.2821,-0.08962962,
2,0,0,1,0,60303.7,-0.0932629,-0.0936167,-52.4437,31,0.00498989,10,0.00490961,-1.28031,5.95121,0.00991395,-20.2918,-0.0936167,
2,0,0,1,0,60303.7,-0.0972581,-0.0976537,-52.3578,31,0.00478028,10,0.00511293,-1.28102,7.07507,0.00833914,-17.0508,-0.0976537,
2,0,0,1,0,60303.7,-0.101253,-0.101607,-52.2845,31,0.004571,10,0.00531246,-1.28163,7.59494,0.00776833,-15.8609,-0.1016069,
2,0,0,1,0,60303.7,-0.105298,-0.105697,-52.2545,31,0.00436192,10,0.00552314,-1.28188,8.62185,0.00684308,-13.953,-0.1056969,
2,0,0,1,0,60303.7,-0.109294,-0.109679,-52.1889,31,0.00415304,10,0.00572402,-1.28242,9.47144,0.00622926,-12.686,-0.109679,
2,0,0,1,0,60303.7,-0.113289,-0.113682,-52.1341,31,0.0039444,10,0.0059267,-1.28288,9.36077,0.0063029,-12.8284,-0.113682,
2,0,0,1,0,60303.7,-0.117284,-0.117698,-52.0803,31,0.00373597,10,0.00612973,-1.28333,10.97,0.0053783,-10.936,-0.117698,
2,0,0,1,0,60303.7,-0.121279,-0.121711,-52.0491,31,0.00352772,10,0.00633495,-1.28359,14.6195,0.00403569,-8.20083,-0.121711,
2,0,0,1,0,60303.7,-0.125274,-0.125663,-52.0141,31,0.00331961,10,0.00653627,-1.28388,23.3404,0.0025278,-5.13381,-0.125663,
2,0,0,1,0,60303.7,-0.129269,-0.129645,-52.0032,31,0.00311156,10,0.00674196,-1.28397,38.3245,0.00153949,-3.12568,-0.129645,
2,0,0,1,0,60303.8,-0.133265,-0.133612,-51.9986,31,0.00290356,10,0.00694765,-1.28401,2250.84,2.62125e-05,-0.0532096,-0.133612,
2,0,0,1,0,60303.8,-0.13726,-0.13765,-51.9992,31,0.00269557,10,0.0071577,-1.284,-27.192,-0.00216976,4.40656,-0.13765,
2,0,0,1,0,60303.8,-0.141255,-0.141635,-52.0133,31,0.00248754,10,0.00736691,-1.28389,-17.1819,-0.00343384,6.97596,-0.141635,
2,0,0,1,0,60303.8,-0.145286,-0.145667,-52.0738,31,0.0022794,10,0.00758542,-1.28338,-13.0138,-0.00453365,9.21349,-0.145667,
2,0,0,1,0,60303.8,-0.149295,-0.149679,-52.1107,31,0.00207102,10,0.0077999,-1.28307,-10.4263,-0.00565876,11.5072,-0.149679,
2,0,0,1,0,60303.8,-0.15329,-0.153677,-52.1469,31,0.0018625,10,0.00801379,-1.28277,-10.8834,-0.00542111,11.0359,-0.153677,
2,0,0,1,0,60303.8,-0.157286,-0.157667,-52.1978,31,0.0016538,10,0.00822989,-1.28235,-9.16788,-0.00643551,13.1143,-0.157667,
2,0,0,1,0,60303.8,-0.161281,-0.161679,-52.2505,31,0.0014449,10,0.00844781,-1.28191,-7.53096,-0.00783433,15.9828,-0.161679,
2,0,0,1,0,60303.8,-0.165276,-0.165644,-52.3201,31,0.00123575,10,0.0086665,-1.28133,-6.9426,-0.00849825,17.3579,-0.165644,
2,0,0,1,0,60303.8,-0.169271,-0.169639,-52.402,31,0.0010263,10,0.00888945,-1.28065,-6.24711,-0.00944436,19.3153,-0.169639,
2,0,0,1,0,60303.8,-0.173266,-0.173672,-52.4756,31,0.000816538,10,0.00911355,-1.28004,-6.08482,-0.00969626,19.8586,-0.173672,
2,0,0,1,0,60303.8,-0.177261,-0.177607,-52.5582,31,0.000606466,10,0.00933472,-1.27936,-5.91551,-0.00997378,20.4607,-0.177607,
2,0,0,1,0,60303.8,-0.181257,-0.181614,-52.6372,31,0.000396068,10,0.00955963,-1.27871,-5.11142,-0.0115428,23.7243,-0.181614,
2,0,0,1,0,60303.8,-0.185252,-0.185588,-52.7283,31,0.000185327,10,0.00978575,-1.27796,-5.25186,-0.0112341,23.1245,-0.185588,
2,0,0,1,0,60303.8,-0.189297,-0.189636,-52.8543,31,-2.58911e-05,10,0.0100231,-1.27692,-5.19314,-0.0113611,23.4218,-0.189636,
2,0,0,1,0,60303.8,-0.193292,-0.193653,-52.9292,31,-0.000237478,10,0.0102499,-1.2763,-5.3748,-0.0109772,22.6601,-0.1936534,
2,0,0,1,0,60303.8,-0.197287,-0.197617,-53.0121,31,-0.000449379,10,0.0104761,-1.27563,13.9056,0.00424289,-8.74409,-0.197617,
2,0,0,0,0,60303.8,-0.199984,-0.200246,-53.0605,31,-0.000592578,10,0.0106251,-1.27523,0.0691015,0.853817,-1664.67,-0.200246,
2,0,0,0,1,60303.8,-0.199984,-0.200494,-52.7593,31,-0.000624272,10,0.0105779,-1.2777,-0.0453967,-1.29965,2404.66,-0.200494,
2,0,0,1,1,60303.8,-0.196688,-0.197156,-47.0987,31,-0.000776648,10,0.00928578,-1.32699,-0.0777587,-0.758757,1339.3,-0.197156,
2,0,0,1,1,60303.8,-0.192693,-0.193127,-42.2156,31,-0.000954458,10,0.008153,-1.37453,-0.084838,-0.695443,1169.62,-0.193127,
2,0,0,1,1,60303.8,-0.188698,-0.189156,-38.208,31,-0.00111475,10,0.00722728,-1.41785,-0.0925387,-0.637571,966.008,-0.189156,
2,0,0,1,1,60303.8,-0.184653,-0.185044,-34.6886,31,-0.00126009,10,0.00641891,-1.45981,-0.0960867,-0.614029,839.926,-0.185044,
2,0,0,1,1,60303.8,-0.180657,-0.18109,-31.5786,31,-0.00139224,10,0.00571855,-1.50061,-0.0972951,-0.606402,752.252,-0.18109,
2,0,0,1,1,60303.8,-0.176662,-0.17709,-28.7452,31,-0.00151256,10,0.00509048,-1.54143,-0.096359,-0.612293,688.927,-0.17709,
2,0,0,1,1,60303.8,-0.172667,-0.173097,-26.1278,31,-0.00162198,10,0.00452265,-1.5829,-0.0944415,-0.624725,637.46,-0.173097,
2,0,0,1,1,60303.9,-0.168672,-0.169053,-23.672,31,-0.00172129,10,0.00400183,-1.62576,-0.0907983,-0.649792,599.541,-0.169053,
2,0,0,1,1,60303.9,-0.164677,-0.165083,-21.3748,31,-0.00181112,10,0.00352862,-1.6701,-0.0867616,-0.680024,565.276,-0.165083,
2,0,0,1,1,60303.9,-0.160682,-0.161138,-19.1815,31,-0.00189196,10,0.00309087,-1.71712,-0.0820677,-0.718918,535.632,-0.161138,
2,0,0,1,1,60303.9,-0.156686,-0.157138,-17.1065,31,-0.0019643,10,0.00268808,-1.76684,-0.0766588,-0.769645,510.075,-0.157138,
2,0,0,1,1,60303.9,-0.152691,-0.153129,-15.1425,31,-0.00202858,10,0.00231876,-1.8198,-0.070806,-0.833263,486.151,-0.153129,
2,0,0,1,1,60303.9,-0.148696,-0.149127,-13.2361,31,-0.00208512,10,0.00197386,-1.87824,-0.0641943,-0.919085,466.744,-0.149127,
2,0,0,1,1,60303.9,-0.14467,-0.145113,-11.391,31,-0.00213421,10,0.00165299,-1.94344,-0.0569561,-1.03589,450.754,-0.1451133,
2,0,0,1,1,60303.9,-0.140656,-0.141121,-9.6304,31,-0.00217604,10,0.00135905,-2.01636,-0.0498174,-1.18432,431.943,-0.141121,
2,0,0,1,1,60303.9,-0.136661,-0.137126,-7.9293,31,-0.00221098,10,0.00108732,-2.10077,-0.0417748,-1.41233,417.362,-0.137126,
2,0,0,1,1,60303.9,-0.132665,-0.133078,-6.30374,31,-0.00223928,10,0.000838888,-2.2004,-0.0332067,-1.77675,403.571,-0.133078,
2,0,0,1,1,60303.9,-0.12867,-0.12913,-4.7201,31,-0.00226115,10,0.000609505,-2.32605,-0.0237153,-2.48785,391.041,-0.12913,
2,0,0,1,1,60303.9,-0.124675,-0.125133,-3.17821,31,-0.00227679,10,0.0003977,-2.49782,-0.0108746,-5.42551,382.138,-0.1251331,
2,0,0,1,1,60303.9,-0.12068,-0.121146,-1.68032,31,-0.00228634,10,0.000203564,-2.77461,-0.0267985,-2.20161,369.85,-0.121146,
2,0,0,1,1,60303.9,-0.116685,-0.117147,-0.216106,31,-0.00228997,10,2.53162e-05,-3.66533,-0.17598,-0.335265,360.11,-0.117147,
2,1,0,1,1,60303.9,-0.112689,-0.113138,1.19454,31,-0.00228787,10,-0.000135148,-2.9228,0.0433097,1.36228,350.961,-0.113138,
2,1,0,1,1,60303.9,-0.108694,-0.109147,2.57837,31,-0.00228017,10,-0.000281423,-2.58865,0.0115307,5.11679,344.148,-0.109147,
2,1,0,1,1,60303.9,-0.104699,-0.105154,3.93224,31,-0.002267,10,-0.00041349,-2.40536,0.021586,2.73325,336.835,-0.105154,
2,1,0,1,1,60303.9,-0.100654,-0.101127,5.29737,31,-0.00224835,10,-0.000535705,-2.27594,0.0329863,1.78862,330.486,-0.101127,
2,1,0,1,1,60303.9,-0.0966588,-0.0971352,6.58477,31,-0.00222445,10,-0.000639613,-2.18146,0.0440005,1.34089,322.065,-0.0971352,
2,1,0,1,1,60303.9,-0.0926636,-0.0932,7.84878,31,-0.00219545,10,-0.000731506,-2.1052,0.0551101,1.07058,314.584,-0.0932,
2,1,0,1,1,60303.9,-0.0886685,-0.089145,9.08816,31,-0.00216145,10,-0.000810164,-2.04152,0.0658036,0.896608,308.646,-0.089145,
2,1,0,1,1,60303.9,-0.0846733,-0.0851791,10.3142,31,-0.00212251,10,-0.000878552,-1.98657,0.0769289,0.766942,301.455,-0.0851791,
2,1,0,1,1,60303.9,-0.0806781,-0.0811686,11.5128,31,-0.00207874,10,-0.000934477,-1.93882,0.0876361,0.673238,296.668,-0.0811686,
2,1,0,1,1,60303.9,-0.076683,-0.0771773,12.6789,31,-0.00203024,10,-0.000978524,-1.89692,0.0992751,0.594308,289.617,-0.0771773,
2,1,0,1,1,60303.9,-0.0726878,-0.0731806,13.8243,31,-0.00197711,10,-0.00101167,-1.85936,0.110783,0.532574,283.84,-0.0731806,
2,1,0,1,1,60304,-0.0686926,-0.0691903,14.9448,31,-0.00191946,10,-0.00103404,-1.82551,0.121954,0.483789,279.728,-0.0691903,
2,1,0,1,1,60304,-0.0646974,-0.0651819,16.0504,31,-0.00185735,10,-0.0010462,-1.79451,0.134284,0.439368,272.95,-0.0651819,
2,1,0,1,1,60304,-0.0606523,-0.0610877,17.1796,31,-0.0017908,10,-0.00104946,-1.76499,0.147001,0.401357,266.31,-0.0610877,
2,1,0,1,1,60304,-0.0566571,-0.0571006,18.2133,31,-0.00171991,10,-0.00103999,-1.73961,0.159815,0.369178,260.255,-0.0571006,
2,1,0,1,1,60304,-0.052662,-0.0530647,19.2392,31,-0.00164489,10,-0.00102092,-1.71581,0.174583,0.337947,252.27,-0.0530647,
2,1,0,1,1,60304,-0.0486668,-0.0490913,20.2381,31,-0.00156585,10,-0.000993516,-1.69383,0.186988,0.315528,247.937,-0.04909132,
2,1,0,1,1,60304,-0.0446716,-0.045084,21.2169,31,-0.00148283,10,-0.000956542,-1.67332,0.199493,0.295749,243.8,-0.045084,
2,1,0,1,1,60304,-0.0406764,-0.0410768,22.1862,31,-0.00139592,10,-0.000911339,-1.65392,0.213498,0.276349,238.213,-0.0410768,
2,1,0,1,1,60304,-0.0366813,-0.0371268,23.1249,31,-0.00130521,10,-0.000858552,-1.63592,0.226772,0.260174,233.841,-0.03712675,
2,1,0,1,1,60304,-0.0326861,-0.0331057,24.0461,31,-0.00121076,10,-0.000796063,-1.61896,0.242094,0.243707,227.819,-0.0331057,
2,1,0,1,1,60304,-0.0286909,-0.0291472,24.9435,31,-0.0011127,10,-0.000727034,-1.60304,0.257232,0.229365,222.609,-0.0291472,
2,1,0,1,1,60304,-0.0246957,-0.0251664,25.8109,31,-0.0010111,10,-0.000649568,-1.5882,0.271833,0.217045,218.151,-0.0251664,
2,1,0,1,1,60304,-0.0206756,-0.0210764,26.6978,31,-0.000906006,10,-0.000562695,-1.57352,0.288499,0.204507,212.36,-0.0210764,
2,1,0,1,1,60304,-0.0166554,-0.0170861,27.5408,31,-0.000797416,10,-0.000470565,-1.56002,0.305844,0.192909,206.589,-0.0170861,
2,1,0,1,1,60304,-0.0126603,-0.0131361,28.3437,31,-0.000685557,10,-0.000372325,-1.54754,0.324396,0.181877,200.667,-0.0131361,
2,1,0,1,1,60304,-0.0086651,-0.0090652,29.1373,31,-0.000570512,10,-0.000264135,-1.53555,0.34248,0.172273,195.271,-0.0090652,
2,1,0,1,1,60304,-0.00466992,-0.00509822,29.9041,31,-0.000452362,10,-0.000152458,-1.52427, , , ,-0.00509822,
2,1,0,1,1,60304,-0.000974387,-0.00141489,30.6009,31,-0.00034039,10,-4.3297e-05,-1.51427, , , ,-0.00141489,
2,1,0,0,1,60304,-0.000175352,-0.00070707,30.7539,31,-0.000315868,10,-2.17451e-05,-1.5121, , , ,-0.00070707,