File: Figure_codes/Fig_3-5/rawdata_trumpetplot_data/after 10th/20221101_1-115_003_TrumpetPlot_ParaChange_from10_every3_07_CV_C01_19.csv
mode,ox/red,error,control changes,counter inc.,time/s,control/V,Ewe/V,<I>/mA,cycle number,(Q-Qo)/C,I Range,P/W,log(|I|),Tafel slope mV/dec,alpha_eff,dI/d(E-IR),E-IR/V,
2,0,0,0,0,38597.5,2.44065e-05,-0.000325324,-2.71539,20,0.0000000E+000,10,8.83381e-07,-2.56617, , , ,-0.000325324,
2,0,0,1,0,38597.5,0.0013005,0.000928663,-1.27973,20,-3.93172e-05,10,-1.18844e-06,-2.89288, , , ,0.000928663,
2,0,0,1,0,38597.5,0.00279471,0.00247329,-0.282872,20,-5.74153e-05,10,-6.99625e-07,-3.54841,-0.00762619,-7.7365,548.212,0.00247329,
2,1,0,1,0,38597.6,0.00429425,0.00398944,0.349919,20,-5.5693e-05,10,1.39598e-06,-3.45603,0.0197847,2.9821,363.885,0.00398944,
2,1,0,1,0,38597.6,0.00579379,0.00541274,0.78561,20,-4.07605e-05,10,4.2523e-06,-3.10479,0.00453933,12.9975,264.467,0.00541274,
2,1,0,1,0,38597.6,0.007288,0.00697231,1.11728,20,-1.63816e-05,10,7.79006e-06,-2.95184,0.0117111,5.03796,197.303,0.00697231,
2,1,0,1,0,38597.6,0.00878882,0.00847544,1.38301,20,1.53871e-05,10,1.17216e-05,-2.85917,0.0198954,2.96551,150.662,0.00847544,
2,1,0,1,0,38597.7,0.0102896,0.0099763,1.58043,20,5.28702e-05,10,1.57668e-05,-2.80123,0.0295083,1.99944,119.108,0.0099763,
2,1,0,1,0,38597.7,0.0117838,0.0114737,1.73528,20,9.46056e-05,10,1.99102e-05,-2.76063,0.0389364,1.51529,100.907,0.0114737,
2,1,0,1,0,38597.7,0.0132834,0.0129337,1.86505,20,0.000140073,10,2.41219e-05,-2.72931,0.0517792,1.13945,82.3145,0.0129337,
2,1,0,1,0,38597.7,0.0147816,0.0144699,1.9776,20,0.000188659,10,2.86157e-05,-2.70386,0.0649922,0.907802,69.684,0.0144699,
2,1,0,1,0,38597.8,0.0162811,0.0159696,2.08408,20,0.000239934,10,3.32819e-05,-2.68109,0.0776969,0.759361,61.2051,0.0159696,
2,1,0,1,0,38597.8,0.0177753,0.0174505,2.16362,20,0.000293273,10,3.77562e-05,-2.66482,0.0927129,0.636373,53.5146,0.0174505,
2,1,0,1,0,38597.8,0.0192761,0.0189715,2.23638,20,0.000348757,10,4.24274e-05,-2.65045,0.105239,0.560631,48.9908,0.0189715,
2,1,0,1,0,38597.8,0.020777,0.0204351,2.31535,20,0.000406113,10,4.73145e-05,-2.63538,0.118452,0.498094,44.7737,0.0204351,
2,1,0,1,0,38597.9,0.0222712,0.0219738,2.3832,20,0.000464986,10,5.23679e-05,-2.62284,0.127452,0.462919,42.8668,0.0219738,
2,1,0,1,0,38597.9,0.0237707,0.0234742,2.442,20,0.000525705,10,5.73242e-05,-2.61225,0.139251,0.423696,40.2987,0.0234742,
2,1,0,1,0,38597.9,0.0252703,0.0249731,2.49067,20,0.000587826,10,6.21997e-05,-2.60368,0.155311,0.379883,37.0672,0.0249731,
2,1,0,1,0,38597.9,0.0267645,0.0264472,2.55465,20,0.000651104,10,6.75631e-05,-2.59267,0.159282,0.370411,36.9466,0.0264472,
2,1,0,1,0,38598,0.0282653,0.0279704,2.62106,20,0.000716113,10,7.33119e-05,-2.58152,0.158577,0.372059,37.8843,0.0279704,
2,1,0,1,0,38598,0.0297648,0.0294318,2.66444,20,0.000782521,10,7.84194e-05,-2.57439,0.171364,0.344297,35.7996,0.0294318,
2,1,0,1,0,38598,0.031259,0.0309446,2.71231,20,0.000849973,10,8.39313e-05,-2.56666,0.177764,0.331901,35.2074,0.0309446,
2,1,0,1,0,38598,0.0327585,0.0324012,2.76862,20,0.000918958,10,8.97067e-05,-2.55774,0.190824,0.309186,33.4294,0.0324012,
2,1,0,1,0,38598.1,0.034258,0.0339318,2.82508,20,0.000989258,10,9.58601e-05,-2.54897,0.186902,0.315673,34.7306,0.0339318,
2,1,0,1,0,38598.1,0.0357576,0.0354366,2.87296,20,0.00106093,10,0.000101808,-2.54167,0.192506,0.306485,34.3485,0.0354366,
2,1,0,1,0,38598.1,0.0372518,0.0369246,2.91799,20,0.00113356,10,0.000107746,-2.53492,0.208926,0.282397,32.244,0.0369246,
2,1,0,1,0,38598.1,0.0387526,0.0384106,2.97123,20,0.0012076,10,0.000114127,-2.52706,0.210408,0.280408,32.5719,0.03841063,
2,1,0,1,0,38598.2,0.0402534,0.0399665,3.0307,20,0.00128295,10,0.000121126,-2.51846,0.200075,0.294889,34.7548,0.0399665,
2,1,0,1,0,38598.2,0.0417476,0.0414486,3.07657,20,0.00135937,10,0.000127519,-2.51193,0.202345,0.291581,34.9563,0.0414486,
2,1,0,1,0,38598.2,0.0432472,0.0429619,3.12642,20,0.00143732,10,0.000134317,-2.50495,0.215023,0.274389,33.4822,0.0429619,
2,1,0,1,0,38598.2,0.0447467,0.0444582,3.17639,20,0.00151644,10,0.000141217,-2.49807,0.235443,0.250591,31.0437,0.0444582,
2,1,0,1,0,38598.3,0.0462463,0.0459289,3.22976,20,0.00159687,10,0.000148339,-2.49083,0.231922,0.254396,31.9822,0.0459289,
2,1,0,1,0,38598.3,0.0477391,0.0473781,3.27059,20,0.0016782,10,0.000154955,-2.48537,0.217791,0.270902,34.6221,0.0473781,
2,1,0,1,0,38598.3,0.0492399,0.0489506,3.31801,20,0.00176105,10,0.000162419,-2.47912,0.236261,0.249724,32.3777,0.0489506,
2,1,0,1,0,38598.3,0.0507408,0.0504221,3.36613,20,0.00184512,10,0.000169727,-2.47287,0.25914,0.227676,29.9409,0.0504221,
2,1,0,1,0,38598.4,0.052235,0.0519587,3.41934,20,0.00193,10,0.000177665,-2.46606,0.239846,0.245991,32.7811,0.0519587,
2,1,0,1,0,38598.4,0.0537345,0.0534122,3.46816,20,0.00201645,10,0.000185242,-2.4599,0.242452,0.243347,32.9099,0.05341218,
2,1,0,1,0,38598.4,0.0552341,0.0548981,3.51117,20,0.00210413,10,0.000192757,-2.45455,0.250174,0.235836,32.3175,0.05489815,
2,1,0,1,0,38598.4,0.0567283,0.0563944,3.55423,20,0.00219258,10,0.000200439,-2.44925,0.311515,0.189397,26.3104,0.0563944,
2,1,0,1,0,38598.5,0.0582291,0.0579164,3.61202,20,0.00228247,10,0.000209195,-2.44225,0.277904,0.212303,29.8109,0.0579164,
2,1,0,1,0,38598.5,0.0597299,0.0594122,3.6515,20,0.00237352,10,0.000216944,-2.43753,0.264616,0.222965,31.7131,0.0594122,
2,1,0,1,0,38598.5,0.0612228,0.0609099,3.69081,20,0.00246533,10,0.000224807,-2.43288,0.298052,0.197952,28.5227,0.0609099,
2,1,0,1,0,38598.5,0.0627223,0.0623804,3.73533,20,0.00255862,10,0.000233011,-2.42767,0.316911,0.186172,27.1424,0.0623804,
2,1,0,1,0,38598.6,0.0642218,0.0639241,3.78126,20,0.00265292,10,0.000241714,-2.42236,0.308079,0.191509,28.2528,0.0639241,
2,1,0,1,0,38598.6,0.0657214,0.0654049,3.82244,20,0.00274832,10,0.000250007,-2.41766,0.277089,0.212928,31.7387,0.0654049,
2,1,0,1,0,38598.6,0.0672156,0.0668836,3.86311,20,0.00284446,10,0.000258379,-2.41306,0.302013,0.195356,29.4577,0.0668836,
2,1,0,1,0,38598.6,0.0687164,0.0684141,3.90478,20,0.00294196,10,0.000267142,-2.4084,0.382285,0.154335,23.5161,0.0684141,
2,1,0,1,0,38598.7,0.0702172,0.0699203,3.94671,20,0.00304042,10,0.000275955,-2.40376,0.352362,0.167441,25.7363,0.0699203,
2,1,0,1,0,38598.7,0.0717114,0.071385,3.98055,20,0.00313941,10,0.000284151,-2.40006,0.319988,0.184382,28.612,0.071385,
2,1,0,1,0,38598.7,0.073211,0.0729052,4.01705,20,0.00323979,10,0.000292864,-2.39609,0.345819,0.17061,26.75,0.0729052,
2,1,0,1,0,38598.7,0.0747105,0.0743721,4.04829,20,0.00334111,10,0.00030108,-2.39273,0.417241,0.141405,22.3756,0.07437212,
2,1,0,1,0,38598.8,0.0762101,0.0758896,4.08502,20,0.00344327,10,0.00031001,-2.38881,0.42606,0.138478,22.078,0.07588955,
2,1,0,1,0,38598.8,0.0777042,0.077394,4.12043,20,0.00354583,10,0.000318896,-2.38506,0.374112,0.157707,25.3589,0.077394,
2,1,0,1,0,38598.8,0.0792037,0.0788702,4.15132,20,0.00364967,10,0.000327416,-2.38181,0.412832,0.142915,23.171,0.0788702,
2,1,0,1,0,38598.8,0.0807046,0.0803339,4.18492,20,0.00375435,10,0.000336191,-2.37831,0.511087,0.11544,18.8467,0.0803339,
2,1,0,1,0,38598.9,0.0821988,0.0818938,4.2153,20,0.0038594,10,0.000345207,-2.37517,0.535692,0.110138,18.0984,0.0818938,
2,1,0,1,0,38598.9,0.0836983,0.0834022,4.24472,20,0.00396555,10,0.000354019,-2.37215,0.491186,0.120117,19.9149,0.0834022,
2,1,0,1,0,38598.9,0.0851979,0.0848817,4.27068,20,0.00407242,10,0.000362503,-2.3695,0.465821,0.126658,21.141,0.0848817,
2,1,0,1,0,38598.9,0.0866921,0.08637,4.29995,20,0.00417965,10,0.000371387,-2.36654,0.563932,0.104623,17.5715,0.08637,
2,1,0,1,0,38599,0.0881929,0.0878375,4.34104,20,0.00428805,10,0.000381306,-2.36241,0.538785,0.109506,18.5146,0.0878375,
2,1,0,1,0,38599,0.0896937,0.0893409,4.36354,20,0.00439712,10,0.000389842,-2.36016,0.47192,0.125021,21.2964,0.0893409,
2,1,0,1,0,38599,0.0911879,0.0908233,4.39638,20,0.00450657,10,0.000399294,-2.3569,0.413193,0.14279,24.5059,0.0908233,
2,1,0,1,0,38599,0.0926861,0.0923715,4.43137,20,0.00461734,10,0.000409332,-2.35346,0.423345,0.139366,24.1303,0.0923715,
2,1,0,1,0,38599.1,0.0941856,0.0938925,4.47525,20,0.00472904,10,0.000420193,-2.34918,0.442549,0.133319,23.2638,0.0938925,
2,1,0,1,0,38599.1,0.0956852,0.09534,4.50221,20,0.00484163,10,0.000429241,-2.34657,0.358918,0.164383,28.9349,0.09534,
2,1,0,1,0,38599.1,0.0971794,0.0968562,4.54341,20,0.00495474,10,0.000440057,-2.34262,0.323402,0.182436,32.4059,0.0968562,
2,1,0,1,0,38599.1,0.0986802,0.0984126,4.59264,20,0.00506944,10,0.000451973,-2.33794,0.339652,0.173707,31.1812,0.0984126,
2,1,0,1,0,38599.2,0.100181,0.0998793,4.64953,20,0.0051854,10,0.000464391,-2.33259,0.325068,0.181501,32.915,0.0998793,
2,1,0,1,0,38599.2,0.101675,0.101338,4.69949,20,0.00530215,10,0.000476235,-2.32795,0.27997,0.210737,38.6741,0.101338,
2,1,0,1,0,38599.2,0.103175,0.102847,4.75385,20,0.00542069,10,0.000488917,-2.32295,0.244529,0.24128,44.8664,0.102847,
2,1,0,1,0,38599.2,0.104674,0.104358,4.82469,20,0.00554087,10,0.000503492,-2.31653,0.245141,0.240678,45.3684,0.104358,
2,1,0,1,0,38599.3,0.106169,0.105849,4.89879,20,0.00566239,10,0.000518533,-2.30991,0.246783,0.239077,45.6764,0.105849,
2,1,0,1,0,38599.3,0.107668,0.107336,4.96954,20,0.0057862,10,0.000533412,-2.30368,0.22693,0.259992,50.454,0.107336,
2,1,0,1,0,38599.3,0.109169,0.108843,5.04146,20,0.0059117,10,0.000548725,-2.29744,0.229008,0.257633,50.7749,0.108843,
2,1,0,1,0,38599.3,0.110663,0.110382,5.12135,20,0.00603869,10,0.000565305,-2.29062,0.222758,0.264861,52.963,0.110382,
2,1,0,1,0,38599.4,0.112163,0.111843,5.20803,20,0.0061682,10,0.000582483,-2.28333,0.232529,0.253732,51.4694,0.1118431,
2,1,0,1,0,38599.4,0.113662,0.113336,5.28131,20,0.00629969,10,0.000598565,-2.27726,0.235058,0.251001,51.7088,0.113336,
2,1,0,1,0,38599.4,0.115162,0.114828,5.3522,20,0.00643306,10,0.000614585,-2.27147,0.236776,0.249181,52.1165,0.114828,
2,1,0,1,0,38599.4,0.116656,0.116336,5.43356,20,0.00656783,10,0.000632121,-2.26492,0.248651,0.23728,50.3192,0.116336,
2,1,0,1,0,38599.5,0.118157,0.117829,5.51534,20,0.00670511,10,0.000649865,-2.25843,0.272291,0.21668,46.5617,0.117829,
2,1,0,1,0,38599.5,0.119657,0.119365,5.58757,20,0.00684423,10,0.000666958,-2.25278,0.281985,0.209231,45.5212,0.119365,
2,1,0,1,0,38599.5,0.121152,0.120808,5.6374,20,0.00698436,10,0.000681044,-2.24892,0.295892,0.199397,43.9189,0.120808,
2,1,0,1,0,38599.5,0.122651,0.122354,5.70387,20,0.00712663,10,0.000697891,-2.24383,0.322849,0.182748,40.6764,0.122354,
2,1,0,1,0,38599.6,0.124151,0.123827,5.76653,20,0.00727042,10,0.000714055,-2.23909,0.363849,0.162155,36.4506,0.123827,
2,1,0,1,0,38599.6,0.125649,0.125319,5.81621,20,0.00741563,10,0.000728882,-2.23536,0.391498,0.150703,34.1661,0.125319,
2,1,0,1,0,38599.6,0.127143,0.126814,5.85743,20,0.00756149,10,0.000742803,-2.23229,0.431792,0.13664,31.2579,0.1268138,
2,1,0,1,0,38599.6,0.128644,0.128349,5.90192,20,0.00770895,10,0.000757508,-2.22901,0.517135,0.11409,26.3053,0.1283493,
2,1,0,1,0,38599.7,0.130145,0.129788,5.94843,20,0.0078575,10,0.000772037,-2.2256,0.558912,0.105562,24.4632,0.129788,
2,1,0,1,0,38599.7,0.131639,0.131332,5.98611,20,0.00800644,10,0.000786166,-2.22286,0.600175,0.0983046,22.9218,0.131332,
2,1,0,1,0,38599.7,0.133139,0.132839,6.0093,20,0.00815683,10,0.000798267,-2.22118,0.641362,0.0919917,21.5919,0.132839,
2,1,0,1,0,38599.7,0.134638,0.134342,6.03639,20,0.00830789,10,0.000810939,-2.21922,0.85941,0.0686518,16.1893,0.134342,
2,1,0,1,0,38599.8,0.136132,0.135848,6.07146,20,0.00845908,10,0.000824798,-2.21671,0.923299,0.0639013,15.1194,0.135848,
2,1,0,1,0,38599.8,0.137633,0.137309,6.09743,20,0.00861153,10,0.000837232,-2.21485,1.02212,0.0577234,13.7018,0.137309,
2,1,0,1,0,38599.8,0.139133,0.138811,6.1084,20,0.00876447,10,0.000847916,-2.21407,1.58858,0.0371402,8.84089,0.138811,
2,1,0,1,0,38599.8,0.140627,0.140311,6.10895,20,0.00891701,10,0.000857151,-2.21403,14.7566,0.00399821,0.953221,0.140311,
2,1,0,1,0,38599.9,0.142126,0.141844,6.11816,20,0.00907026,10,0.000867827,-2.21338,-3.19454,-0.018469,-4.39833,0.141844,
2,1,0,1,0,38599.9,0.143626,0.143319,6.1083,20,0.00922345,10,0.000875433,-2.21408,-1.15277,-0.0511813,-12.1606,0.143319,
2,1,0,1,0,38599.9,0.145125,0.144771,6.07028,20,0.00937614,10,0.000878799,-2.21679,-0.525463,-0.112282,-26.5501,0.144771,
2,1,0,1,0,38599.9,0.14662,0.146316,6.01799,20,0.00952718,10,0.00088053,-2.22055,-0.332344,-0.177527,-41.6381,0.146316,
2,1,0,1,0,38600,0.14812,0.147819,5.95527,20,0.00967732,10,0.000880303,-2.2251,-0.246483,-0.239368,-55.4513,0.147819,
2,1,0,1,0,38600,0.149621,0.149286,5.86961,20,0.00982548,10,0.000876252,-2.23139,-0.198652,-0.297002,-67.6926,0.149286,
2,1,0,1,0,38600,0.151116,0.150804,5.75357,20,0.00997055,10,0.000867664,-2.24006,-0.158748,-0.371658,-83.0915,0.150804,
2,1,0,1,0,38600,0.152615,0.152308,5.60596,20,0.0101131,10,0.000853831,-2.25135,-0.132134,-0.446518,-97.5254,0.152308,
2,1,0,1,0,38600.1,0.154115,0.153747,5.456,20,0.0102518,10,0.000838843,-2.26313,-0.113232,-0.521055,-110.699,0.153747,
2,1,0,1,0,38600.1,0.155614,0.155279,5.28771,20,0.0103865,10,0.000821069,-2.27673,-0.104264,-0.565871,-116.406,0.155279,
2,1,0,1,0,38600.1,0.157107,0.156806,5.10377,20,0.0105163,10,0.000800303,-2.29211,-0.0935578,-0.630626,-125.342,0.156806,
2,1,0,1,0,38600.1,0.158608,0.158336,4.90924,20,0.0106419,10,0.000777309,-2.30899,-0.0874028,-0.675036,-129.289,0.158336,
2,1,0,1,0,38600.2,0.160109,0.159808,4.7143,20,0.0107625,10,0.000753382,-2.32658,-0.0832126,-0.709028,-130.422,0.159808,
2,1,0,1,0,38600.2,0.161603,0.161277,4.53059,20,0.0108779,10,0.00073068,-2.34384,-0.0830238,-0.710639,-125.421,0.161277,
2,1,0,1,0,38600.2,0.163102,0.162772,4.34313,20,0.0109891,10,0.000706939,-2.3622,-0.0873586,-0.675377,-114.6,0.162772,
2,1,0,1,0,38600.2,0.164602,0.164295,4.17271,20,0.0110959,10,0.000685556,-2.37958,-0.0885945,-0.665955,-108.63,0.164295,
2,1,0,1,0,38600.3,0.166096,0.16575,4.00744,20,0.0111981,10,0.000664235,-2.39713,-0.0894618,-0.659499,-103.601,0.16575,
2,1,0,1,0,38600.3,0.167597,0.167302,3.87121,20,0.0112969,10,0.00064766,-2.41215,-0.0974627,-0.60536,-91.5339,0.167302,
2,1,0,1,0,38600.3,0.169098,0.168809,3.73654,20,0.0113924,10,0.000630759,-2.42753,-0.107441,-0.54914,-80.2642,0.168809,
2,1,0,1,0,38600.3,0.170592,0.170318,3.61889,20,0.0114844,10,0.00061636,-2.44143,-0.108687,-0.542844,-76.8776,0.170318,
2,1,0,1,0,38600.4,0.17209,0.171799,3.50419,20,0.0115738,10,0.000602015,-2.45541,-0.117842,-0.500672,-68.7717,0.171799,
2,1,0,1,0,38600.4,0.17359,0.173277,3.41735,20,0.0116606,10,0.000592148,-2.46631,-0.129582,-0.45531,-60.7735,0.173277,
2,1,0,1,0,38600.4,0.175089,0.174753,3.32638,20,0.0117453,10,0.000581296,-2.47803,-0.146285,-0.403322,-52.4677,0.174753,
2,1,0,1,0,38600.4,0.176583,0.176277,3.24215,20,0.0118275,10,0.000571517,-2.48917,-0.150176,-0.392872,-49.8986,0.176277,
2,1,0,1,0,38600.5,0.178084,0.177763,3.1746,20,0.0119082,10,0.000564325,-2.49831,-0.159226,-0.370543,-46.0001,0.1777626,
2,1,0,1,0,38600.5,0.179585,0.179285,3.11664,20,0.0119872,10,0.000558766,-2.50631,-0.179705,-0.328316,-39.939,0.179285,
2,1,0,1,0,38600.5,0.181079,0.18074,3.05797,20,0.0120644,10,0.000552698,-2.51457,-0.210325,-0.280518,-33.5218,0.18074,
2,1,0,1,0,38600.5,0.182579,0.182278,3.00177,20,0.0121406,10,0.000547158,-2.52262,-0.215255,-0.274093,-32.2169,0.182278,
2,1,0,1,0,38600.6,0.184078,0.183776,2.96243,20,0.0122155,10,0.000544422,-2.52835,-0.224604,-0.262685,-30.4276,0.183776,
2,1,0,1,0,38600.6,0.185578,0.185239,2.92308,20,0.0122894,10,0.000541469,-2.53416,-0.246185,-0.239657,-27.3252,0.185239,
2,1,0,1,0,38600.6,0.187072,0.186772,2.88106,20,0.012362,10,0.000538102,-2.54045,-0.299484,-0.197006,-22.1807,0.186772,
2,1,0,1,0,38600.6,0.188573,0.188262,2.84524,20,0.012434,10,0.000535651,-2.54588,-0.293986,-0.20069,-22.3202,0.1882624,
2,1,0,1,0,38600.7,0.190072,0.189754,2.81772,20,0.0125051,10,0.000534673,-2.5501,-0.285066,-0.20697,-22.7541,0.189754,
2,1,0,1,0,38600.7,0.191567,0.191261,2.78498,20,0.0125752,10,0.00053266,-2.55518,-0.379637,-0.155412,-16.9055,0.191261,
2,1,0,1,0,38600.7,0.193066,0.192726,2.76063,20,0.0126449,10,0.000532046,-2.55899,-0.485959,-0.121409,-13.0879,0.192726,
2,1,0,1,0,38600.7,0.194566,0.194261,2.73412,20,0.012714,10,0.000531134,-2.56318,-0.476128,-0.123916,-13.2535,0.194261,
2,1,0,1,0,38600.8,0.19606,0.195726,2.71206,20,0.0127823,10,0.000530819,-2.5667,-0.366434,-0.161011,-17.0763,0.195726,
2,1,0,1,0,38600.8,0.197561,0.197285,2.69528,20,0.0128503,10,0.000531739,-2.5694,-0.443844,-0.132929,-13.968,0.197285,
2,1,0,1,0,38600.8,0.199062,0.198742,2.67681,20,0.0129178,10,0.000531993,-2.57238,-0.528473,-0.111642,-11.6656,0.198742,
2,1,0,1,0,38600.8,0.200556,0.200212,2.65527,20,0.0129845,10,0.000531617,-2.57589,-0.533022,-0.11069,-11.4786,0.200212,
2,1,0,1,0,38600.9,0.202055,0.201729,2.64317,20,0.0130512,10,0.000533203,-2.57788,-0.49617,-0.118911,-12.2447,0.201729,
2,1,0,1,0,38600.9,0.203553,0.203247,2.62892,20,0.0131174,10,0.00053432,-2.58022,-0.643844,-0.0916372,-9.40208,0.203247,
2,1,0,1,0,38600.9,0.205053,0.204741,2.6098,20,0.0131832,10,0.000534333,-2.58339,-1.15695,-0.0509963,-5.21831,0.204741,
2,1,0,1,0,38600.9,0.206547,0.206223,2.59645,20,0.0132485,10,0.000535448,-2.58562,-0.773165,-0.0763097,-7.75616,0.2062228,
2,1,0,1,0,38601,0.208048,0.207751,2.58912,20,0.0133139,10,0.000537892,-2.58685,-0.689847,-0.0855263,-8.63273,0.207751,
2,1,0,1,0,38601,0.209549,0.209233,2.58571,20,0.0133789,10,0.000541015,-2.58742,-0.813845,-0.0724954,-7.29303,0.209233,
2,1,0,1,0,38601,0.211043,0.210696,2.56814,20,0.0134434,10,0.000541098,-2.59038,-0.781504,-0.0754955,-7.5697,0.210696,
2,1,0,1,0,38601,0.212543,0.21224,2.55142,20,0.0135078,10,0.000541515,-2.59322,-0.925459,-0.0637521,-6.36334,0.21224,
2,1,0,1,0,38601.1,0.214042,0.213723,2.54636,20,0.013572,10,0.000544217,-2.59408,-0.798974,-0.0738447,-7.34819,0.213723,
2,1,0,1,0,38601.1,0.215536,0.215221,2.54391,20,0.0136357,10,0.000547503,-2.5945,-0.914305,-0.0645299,-6.39279,0.2152207,
2,1,0,1,0,38601.1,0.217036,0.216726,2.52425,20,0.0136994,10,0.000547069,-2.59787,-1.72886,-0.0341265,-3.37129,0.216726,
2,1,0,1,0,38601.1,0.218537,0.218263,2.51723,20,0.0137629,10,0.000549417,-2.59908,-1.48778,-0.0396563,-3.90597,0.218263,
2,1,0,1,0,38601.2,0.220031,0.219737,2.51503,20,0.013826,10,0.000552645,-2.59946,-1.12967,-0.0522278,-5.12782,0.219737,
2,1,0,1,0,38601.2,0.22153,0.221207,2.51387,20,0.0138892,10,0.000556086,-2.59966,-1.25718,-0.0469305,-4.58125,0.221207,
2,1,0,1,0,38601.2,0.22303,0.2227,2.49434,20,0.0139522,10,0.000555489,-2.60305,-1.57324,-0.0375023,-3.65641,0.2227,
2,1,0,1,0,38601.2,0.224529,0.224245,2.48924,20,0.0140149,10,0.000558198,-2.60393,-1.31453,-0.0448828,-4.37175,0.2242447,
2,1,0,1,0,38601.3,0.226024,0.225718,2.4862,20,0.0140773,10,0.000561181,-2.60446,-1.03368,-0.0570779,-5.53745,0.225718,
2,1,0,1,0,38601.3,0.227525,0.227208,2.48593,20,0.0141398,10,0.000564823,-2.60451,-1.02683,-0.0574582,-5.5605,0.227208,
2,1,0,1,0,38601.3,0.229025,0.228735,2.47533,20,0.0142022,10,0.000566194,-2.60637,-1.45181,-0.040639,-3.92459,0.228735,
2,1,0,1,0,38601.3,0.23052,0.230215,2.46774,20,0.0142641,10,0.000568112,-2.6077,-2.26975,-0.0259941,-2.50847,0.230215,
2,1,0,1,0,38601.4,0.232019,0.231687,2.46281,20,0.0143261,10,0.000570601,-2.60857,-1.24863,-0.0472517,-4.54527,0.2316867,
2,1,0,1,0,38601.4,0.233519,0.233199,2.46051,20,0.014388,10,0.000573789,-2.60897,-1.17147,-0.050364,-4.83178,0.233199,
2,1,0,1,0,38601.4,0.235018,0.234756,2.45697,20,0.0144499,10,0.000576789,-2.6096,-2.08513,-0.0282956,-2.71036,0.234756,
2,1,0,1,0,38601.4,0.236511,0.236178,2.44442,20,0.0145113,10,0.000577319,-2.61182,-2.24574,-0.0262719,-2.51085,0.2361781,
2,1,0,1,0,38601.5,0.238012,0.237752,2.4415,20,0.0145728,10,0.000580472,-2.61234,-1.44274,-0.0408943,-3.89832,0.2377518,
2,1,0,1,0,38601.5,0.239513,0.239223,2.44255,20,0.0146342,10,0.000584315,-2.61216,-1.27397,-0.046312,-4.39983,0.239223,
2,1,0,1,0,38601.5,0.241007,0.240703,2.43844,20,0.0146953,10,0.00058694,-2.61289,-2.71343,-0.0217437,-2.06538,0.240703,
2,1,0,1,0,38601.5,0.242506,0.242182,2.42572,20,0.0147564,10,0.000587465,-2.61516,-1.96811,-0.029978,-2.84549,0.242182,
2,1,0,1,0,38601.6,0.244006,0.243689,2.42189,20,0.0148174,10,0.000590188,-2.61585,-1.33463,-0.0442071,-4.18362,0.243689,
2,1,0,1,0,38601.6,0.2455,0.245215,2.42781,20,0.0148782,10,0.000595335,-2.61479,-2.31185,-0.0255207,-2.41185,0.245215,
2,1,0,1,0,38601.6,0.247001,0.2467,2.42219,20,0.0149391,10,0.000597554,-2.61579,-2.68775,-0.0219515,-2.06781,0.2467,
2,1,0,1,0,38601.6,0.248502,0.248211,2.40936,20,0.0149999,10,0.000598031,-2.6181,-1.84155,-0.0320382,-3.01777,0.248211,
2,1,0,1,0,38601.7,0.249995,0.249711,2.40602,20,0.0150602,10,0.000600811,-2.6187,-1.69594,-0.0347891,-3.26912,0.2497113,
2,1,0,1,0,38601.7,0.251494,0.251218,2.40461,20,0.0151208,10,0.00060408,-2.61896,-2.76184,-0.0213626,-2.00172,0.251218,
2,1,0,1,0,38601.7,0.252994,0.252701,2.40048,20,0.0151812,10,0.000606604,-2.6197,-2.10293,-0.028056,-2.62656,0.252701,
2,1,0,1,0,38601.7,0.254493,0.254215,2.39476,20,0.0152416,10,0.000608785,-2.62074,-2.107,-0.0280019,-2.62056,0.254215,
2,1,0,1,0,38601.8,0.255988,0.255706,2.38978,20,0.0153016,10,0.000611082,-2.62164,-1.75242,-0.0336678,-3.1498,0.255706,
2,1,0,1,0,38601.8,0.257488,0.257244,2.39344,20,0.0153617,10,0.000615699,-2.62098,-3.56055,-0.0165705,-1.54304,0.257244,
2,1,0,1,0,38601.8,0.258989,0.258715,2.39022,20,0.0154218,10,0.000618386,-2.62156,-24.3452,-0.00242348,-0.2255,0.258715,
2,1,0,1,0,38601.8,0.260483,0.260204,2.38324,20,0.0154816,10,0.00062013,-2.62283,-4.57157,-0.0129059,-1.20066,0.2602044,
2,1,0,1,0,38601.9,0.261983,0.261676,2.37599,20,0.0155415,10,0.00062174,-2.62416,-1.32236,-0.0446174,-4.14754,0.261676,
2,1,0,1,0,38601.9,0.263482,0.26318,2.37878,20,0.0156012,10,0.000626048,-2.62365,-5.58735,-0.0105596,-0.97809,0.26318,
2,1,0,1,0,38601.9,0.264982,0.264639,2.36943,20,0.015661,10,0.000627045,-2.62536,-5.79966,-0.010173,-0.941948,0.264639,
2,1,0,1,0,38601.9,0.266476,0.266188,2.36263,20,0.0157203,10,0.000628904,-2.6266,-3.62702,-0.0162668,-1.50345,0.266188,
2,1,0,1,0,38602,0.267976,0.267692,2.35768,20,0.0157798,10,0.000631132,-2.62752,-1.60524,-0.0367547,-3.39335,0.267692,
2,1,0,1,0,38602,0.269477,0.269222,2.36256,20,0.0158392,10,0.000636053,-2.62662,-2.37401,-0.0248525,-2.28706,0.269222,
2,1,0,1,0,38602,0.270971,0.270688,2.36097,20,0.0158983,10,0.000639086,-2.62691,-4.29134,-0.0137486,-1.26309,0.270688,
2,1,0,1,0,38602,0.27247,0.272168,2.35455,20,0.0159577,10,0.000640835,-2.62809,-2.31791,-0.0254539,-2.33691,0.272168,
2,1,0,1,0,38602.1,0.27397,0.273661,2.34132,20,0.0160168,10,0.000640728,-2.63054,-1.35564,-0.0435218,-3.99017,0.273661,
2,1,0,1,0,38602.1,0.275464,0.27512,2.34552,20,0.0160756,10,0.000645299,-2.62976,-1.18395,-0.0498332,-4.55956,0.27512,
2,1,0,1,0,38602.1,0.276965,0.276653,2.3417,20,0.0161345,10,0.00064784,-2.63047,-4.05434,-0.0145523,-1.32885,0.2766535,
2,1,0,1,0,38602.1,0.278466,0.27816,2.33695,20,0.0161934,10,0.000650045,-2.63135,-5.21093,-0.0113224,-1.03254,0.27816,
2,1,0,1,0,38602.2,0.27996,0.279639,2.33223,20,0.0162519,10,0.000652184,-2.63223,-2.27776,-0.0259026,-2.36075,0.279639,
2,1,0,1,0,38602.2,0.281458,0.281154,2.32806,20,0.0163106,10,0.000654544,-2.633,-1.55213,-0.0380122,-3.45273,0.281154,
2,1,0,1,0,38602.2,0.282958,0.282651,2.32925,20,0.0163691,10,0.000658363,-2.63278,-14.7915,-0.00398878,-0.361483,0.282651,
2,1,0,1,0,38602.2,0.284457,0.284147,2.32275,20,0.0164276,10,0.000660002,-2.634,-6.00802,-0.00982021,-0.890015,0.284147,
2,1,0,1,0,38602.3,0.285951,0.285684,2.31506,20,0.0164858,10,0.000661375,-2.63544,-1.3162,-0.0448261,-4.05937,0.285684,
2,1,0,1,0,38602.3,0.287452,0.2871,2.31242,20,0.016544,10,0.000663895,-2.63593,-1.25004,-0.0471987,-4.25712,0.2871,
2,1,0,1,0,38602.3,0.288953,0.288624,2.31236,20,0.0166022,10,0.000667401,-2.63595,-3.16739,-0.0186273,-1.67698,0.288624,
2,1,0,1,0,38602.3,0.290447,0.290152,2.30628,20,0.01666,10,0.000669173,-2.63709,-19.8837,-0.00296725,-0.266966,0.290152,
2,1,0,1,0,38602.4,0.291947,0.291636,2.3007,20,0.016718,10,0.000670968,-2.63814,-1.33989,-0.0440334,-3.95763,0.291636,
2,1,0,1,0,38602.4,0.293446,0.293076,2.29507,20,0.0167759,10,0.000672629,-2.6392,-1.26337,-0.0467004,-4.18548,0.293076,
2,1,0,1,0,38602.4,0.29494,0.294611,2.29584,20,0.0168334,10,0.00067638,-2.63906,-2.82218,-0.0209058,-1.87065,0.294611,
2,1,0,1,0,38602.4,0.29644,0.296122,2.28837,20,0.016891,10,0.000677636,-2.64047,-4.39918,-0.0134116,-1.19875,0.296122,
2,1,0,1,0,38602.5,0.297941,0.297651,2.28556,20,0.0169487,10,0.000680299,-2.64101,-2.00389,-0.0294427,-2.62982,0.297651,
2,1,0,1,0,38602.5,0.29944,0.299177,2.2837,20,0.0170061,10,0.000683231,-2.64136,-0.00762693,-7.73575,-534.482,0.299177,
2,1,0,1,0,38602.5,0.299736,0.299465,1.85108,20,0.0170358,10,0.000554332,-2.73258,0.00172593,34.1844,1496.82,0.2994647,
2,1,0,1,0,38602.5,0.298238,0.297968,0.670965,20,0.0170647,10,0.000199926,-3.1733,0.00192481,30.6523,615.79,0.297968,
2,1,0,1,0,38602.5,0.296744,0.296412,0.110275,20,0.0170732,10,3.26867e-05,-3.95752,0.00790285,7.46566,313.698,0.296412,
2,0,0,1,0,38602.6,0.295243,0.294938,-0.218462,20,0.017071,10,-6.44327e-05,-3.66062,-0.0149452,-3.94776,183.084,0.294938,
2,0,0,1,0,38602.6,0.293742,0.293367,-0.425729,20,0.0170624,10,-0.000124895,-3.37087,-0.00588644,-10.023,119.159,0.2933667,
2,0,0,1,0,38602.6,0.292248,0.291946,-0.560156,20,0.0170495,10,-0.000163536,-3.25169,-0.0140446,-4.2009,84.1804,0.291946,
2,0,0,1,0,38602.6,0.290748,0.290427,-0.66811,20,0.0170336,10,-0.000194037,-3.17515,-0.0233463,-2.52716,63.2153,0.290427,
2,0,0,1,0,38602.7,0.289249,0.288928,-0.749509,20,0.0170154,10,-0.000216554,-3.12522,-0.033814,-1.74484,50.193,0.2889275,
2,0,0,1,0,38602.7,0.287754,0.287434,-0.822725,20,0.0169953,10,-0.000236479,-3.08475,-0.0447202,-1.31932,41.5396,0.287434,
2,0,0,1,0,38602.7,0.286254,0.285903,-0.875951,20,0.0169736,10,-0.000250437,-3.05752,-0.0570685,-1.03384,34.9605,0.285903,
2,0,0,1,0,38602.7,0.284754,0.284486,-0.924181,20,0.0169507,10,-0.000262916,-3.03424,-0.0679785,-0.867921,31.1939,0.284486,
2,0,0,1,0,38602.8,0.28326,0.282882,-0.969473,20,0.0169267,10,-0.000274246,-3.01346,-0.0789867,-0.746961,28.0719,0.282882,
2,0,0,1,0,38602.8,0.28176,0.281404,-1.01238,20,0.0169015,10,-0.000284889,-2.99465,-0.0956279,-0.616975,24.1098,0.281404,
2,0,0,1,0,38602.8,0.280261,0.279952,-1.04109,20,0.0168754,10,-0.000291454,-2.98251,-0.101701,-0.580134,23.5203,0.279952,
2,0,0,1,0,38602.8,0.278761,0.278474,-1.07315,20,0.0168485,10,-0.000298845,-2.96934,-0.117848,-0.500643,21.0328,0.278474,
2,0,0,1,0,38602.9,0.277267,0.27693,-1.10651,20,0.0168209,10,-0.000306427,-2.95604,-0.125776,-0.469089,20.2704,0.27693,
2,0,0,1,0,38602.9,0.275766,0.275435,-1.13969,20,0.0167924,10,-0.00031391,-2.94321,-0.142972,-0.412669,18.1517,0.275435,
2,0,0,1,0,38602.9,0.274265,0.273951,-1.16401,20,0.0167632,10,-0.000318882,-2.93404,-0.148538,-0.397204,17.993,0.273951,
2,0,0,1,0,38602.9,0.272771,0.272462,-1.18306,20,0.0167336,10,-0.00032234,-2.92699,-0.152125,-0.38784,17.9922,0.272462,
2,0,0,1,0,38603,0.271272,0.270942,-1.21488,20,0.0167031,10,-0.000329162,-2.91547,-0.183855,-0.320905,15.1675,0.270942,
2,0,0,1,0,38603,0.269772,0.269477,-1.23889,20,0.016672,10,-0.000333852,-2.90697,-0.179607,-0.328495,15.8232,0.269477,
2,0,0,1,0,38603,0.268273,0.267948,-1.26356,20,0.0166403,10,-0.000338569,-2.8984,-0.18123,-0.325553,15.9975,0.267948,
2,0,0,1,0,38603,0.26678,0.266434,-1.27351,20,0.0166083,10,-0.000339306,-2.895,-0.202403,-0.291497,14.5722,0.266434,
2,0,0,1,0,38603.1,0.265279,0.264985,-1.29785,20,0.0165757,10,-0.00034391,-2.88678,-0.203355,-0.290133,14.6965,0.264985,
2,0,0,1,0,38603.1,0.263778,0.263468,-1.32254,20,0.0165425,10,-0.000348446,-2.87859,-0.221007,-0.26696,13.7472,0.263468,
2,0,0,1,0,38603.1,0.262284,0.261994,-1.33712,20,0.0165089,10,-0.000350317,-2.87383,-0.237018,-0.248926,12.9979,0.261994,
2,0,0,1,0,38603.1,0.260784,0.260456,-1.35149,20,0.0164748,10,-0.000352005,-2.86919,-0.265363,-0.222337,11.7851,0.260456,
2,0,0,1,0,38603.2,0.259285,0.258977,-1.37303,20,0.0164402,10,-0.000355583,-2.86232,-0.259454,-0.227401,12.2513,0.258977,
2,0,0,1,0,38603.2,0.257791,0.257451,-1.4001,20,0.0164053,10,-0.000360458,-2.85384,-0.295041,-0.199972,10.8507,0.257451,
2,0,0,1,0,38603.2,0.25629,0.255971,-1.41639,20,0.0163698,10,-0.000362556,-2.84882,-0.269462,-0.218955,12.0048,0.2559714,
2,0,0,1,0,38603.2,0.254789,0.25444,-1.42168,20,0.0163339,10,-0.000361733,-2.8472,-0.304306,-0.193884,10.7838,0.25444,
2,0,0,1,0,38603.3,0.253296,0.253,-1.43986,20,0.0162978,10,-0.000364285,-2.84168,-0.383146,-0.153988,8.68084,0.253,
2,0,0,1,0,38603.3,0.251797,0.251455,-1.46236,20,0.0162611,10,-0.000367717,-2.83495,-0.320373,-0.18416,10.4675,0.251455,
2,0,0,1,0,38603.3,0.250297,0.249964,-1.47455,20,0.016224,10,-0.000368585,-2.83134,-0.345893,-0.170573,9.80008,0.249964,
2,0,0,1,0,38603.3,0.248797,0.248464,-1.4847,20,0.0161865,10,-0.000368895,-2.82836,-0.377197,-0.156417,9.08939,0.248464,
2,0,0,1,0,38603.4,0.247303,0.246969,-1.5014,20,0.0161488,10,-0.0003708,-2.8235,-0.375746,-0.157021,9.23624,0.246969,
2,0,0,1,0,38603.4,0.245802,0.245495,-1.52144,20,0.0161107,10,-0.000373507,-2.81774,-0.350728,-0.168222,9.94461,0.245495,
2,0,0,1,0,38603.4,0.244302,0.243983,-1.53396,20,0.016072,10,-0.000374261,-2.81419,-0.292215,-0.201906,12.079,0.243983,
2,0,0,1,0,38603.4,0.242807,0.242485,-1.54763,20,0.0160332,10,-0.000375276,-2.81033,-0.397721,-0.148345,8.95582,0.242485,
2,0,0,1,0,38603.5,0.241308,0.241009,-1.55693,20,0.0159939,10,-0.000375235,-2.80773,-0.403382,-0.146263,8.91909,0.241009,
2,0,0,1,0,38603.5,0.239808,0.239502,-1.57798,20,0.0159543,10,-0.000377931,-2.8019,-0.322864,-0.18274,11.2056,0.239502,
2,0,0,1,0,38603.5,0.238309,0.237962,-1.5911,20,0.0159143,10,-0.000378621,-2.7983,-0.312607,-0.188735,11.6823,0.237962,
2,0,0,1,0,38603.5,0.236815,0.2365,-1.59772,20,0.0158742,10,-0.000377862,-2.7965,-0.387855,-0.152119,9.51125,0.2365,
2,0,0,1,0,38603.6,0.235315,0.234992,-1.60995,20,0.0158336,10,-0.000378326,-2.79319,-0.503036,-0.117288,7.40302,0.234992,
2,0,0,1,0,38603.6,0.233814,0.233515,-1.6291,20,0.0157927,10,-0.000380419,-2.78805,-0.447997,-0.131697,8.34943,0.233515,
2,0,0,1,0,38603.6,0.23232,0.231967,-1.64413,20,0.0157515,10,-0.000381386,-2.78406,-0.366876,-0.160817,10.2892,0.2319673,
2,0,0,1,0,38603.6,0.230821,0.230515,-1.65227,20,0.0157099,10,-0.000380874,-2.78192,-0.450159,-0.131065,8.45116,0.2305149,
2,0,0,1,0,38603.7,0.229321,0.229006,-1.66132,20,0.0156679,10,-0.000380453,-2.77955,-0.605623,-0.0974204,6.3428,0.229006,
2,0,0,1,0,38603.7,0.227827,0.227543,-1.67628,20,0.0156259,10,-0.000381424,-2.77565,-0.578173,-0.102046,6.69168,0.227543,
2,0,0,1,0,38603.7,0.226326,0.225998,-1.69508,20,0.0155833,10,-0.000383085,-2.77081,-0.402625,-0.146538,9.67595,0.225998,
2,0,0,1,0,38603.7,0.224825,0.224506,-1.708,20,0.0155404,10,-0.000383457,-2.76751,-0.434614,-0.135753,9.01636,0.224506,
2,0,0,1,0,38603.8,0.223331,0.223021,-1.71816,20,0.0154974,10,-0.000383187,-2.76494,-0.582792,-0.101237,6.79051,0.223021,
2,0,0,1,0,38603.8,0.221831,0.221542,-1.73026,20,0.0154539,10,-0.000383326,-2.76189,-0.511886,-0.11526,7.77119,0.221542,
2,0,0,1,0,38603.8,0.220333,0.22004,-1.74488,20,0.0154101,10,-0.000383943,-2.75823,-0.32896,-0.179353,12.1758,0.22004,
2,0,0,1,0,38603.8,0.218834,0.218563,-1.74907,20,0.015366,10,-0.000382281,-2.75719,-0.451588,-0.13065,8.94674,0.218563,
2,0,0,1,0,38603.9,0.217339,0.217027,-1.76506,20,0.0153217,10,-0.000383066,-2.75324,-0.621611,-0.0949146,6.55778,0.217027,
2,0,0,1,0,38603.9,0.215839,0.215503,-1.77597,20,0.015277,10,-0.000382727,-2.75057,-0.658696,-0.089571,6.20322,0.2155035,
2,0,0,1,0,38603.9,0.214338,0.214017,-1.79283,20,0.0152319,10,-0.000383697,-2.74646,-0.447908,-0.131724,9.19725,0.214017,
2,0,0,1,0,38603.9,0.212844,0.212497,-1.80131,20,0.0151868,10,-0.000382773,-2.74441,-0.434842,-0.135681,9.55291,0.2124967,
2,0,0,1,0,38604,0.211344,0.210986,-1.81205,20,0.0151411,10,-0.000382318,-2.74183,-0.593018,-0.0994911,7.05004,0.210986,
2,0,0,1,0,38604,0.209845,0.209553,-1.82417,20,0.0150952,10,-0.000382261,-2.73893,-0.818738,-0.0720622,5.13856,0.209553,
2,0,0,1,0,38604,0.20835,0.20806,-1.84072,20,0.0150491,10,-0.000382982,-2.73501,-0.38589,-0.152893,10.9822,0.20806,
2,0,0,1,0,38604,0.206851,0.206539,-1.85337,20,0.0150026,10,-0.000382795,-2.73204,-0.429053,-0.137512,9.95887,0.2065395,
2,0,0,1,0,38604.1,0.20535,0.205004,-1.86374,20,0.0149556,10,-0.000382074,-2.72962,-0.520745,-0.113299,8.23536,0.205004,
2,0,0,1,0,38604.1,0.203856,0.203552,-1.8831,20,0.0149085,10,-0.000383308,-2.72513,-0.714625,-0.0825608,6.0533,0.203552,
2,0,0,1,0,38604.1,0.202356,0.202046,-1.88793,20,0.014861,10,-0.000381449,-2.72401,-0.474995,-0.124212,9.16914,0.202046,
2,0,0,1,0,38604.1,0.200857,0.200493,-1.90022,20,0.0148132,10,-0.000380981,-2.7212,-0.399277,-0.147767,10.9715,0.200493,
2,0,0,1,0,38604.2,0.199357,0.199044,-1.91272,20,0.014765,10,-0.000380716,-2.71835,-0.747016,-0.0789809,5.90716,0.199044,
2,0,0,1,0,38604.2,0.197863,0.197515,-1.93017,20,0.0147167,10,-0.000381238,-2.7144,-0.635957,-0.0927736,6.96961,0.197515,
2,0,0,1,0,38604.2,0.196362,0.196042,-1.94587,20,0.0146679,10,-0.000381472,-2.71089,-0.52234,-0.112953,8.54667,0.196042,
2,0,0,1,0,38604.2,0.194861,0.194526,-1.956,20,0.0146188,10,-0.000380493,-2.70863,-0.42559,-0.138631,10.5741,0.194526,
2,0,0,1,0,38604.3,0.193367,0.19303,-1.97304,20,0.0145695,10,-0.000380855,-2.70486,-0.479741,-0.122983,9.46897,0.19303,
2,0,0,1,0,38604.3,0.191868,0.191514,-1.9887,20,0.0145196,10,-0.000380863,-2.70143,-0.579507,-0.101811,7.88459,0.191514,
2,0,0,1,0,38604.3,0.190368,0.190042,-1.99473,20,0.0144694,10,-0.000379081,-2.70012,-0.423445,-0.139333,10.8714,0.190042,
2,0,0,1,0,38604.3,0.18887,0.18852,-2.00914,20,0.0144189,10,-0.000378762,-2.69699,-0.39949,-0.147688,11.6162,0.18852,
2,0,0,1,0,38604.4,0.187376,0.187068,-2.02332,20,0.0143682,10,-0.000378498,-2.69394,-0.425569,-0.138638,10.9739,0.187068,
2,0,0,1,0,38604.4,0.185875,0.185585,-2.04662,20,0.0143168,10,-0.000379822,-2.68896,-0.549148,-0.107439,8.54826,0.185585,
2,0,0,1,0,38604.4,0.184374,0.184064,-2.05961,20,0.0142651,10,-0.000379101,-2.68621,-0.448004,-0.131695,10.565,0.184064,
2,0,0,1,0,38604.4,0.18288,0.182544,-2.07051,20,0.0142133,10,-0.000377959,-2.68392,-0.394737,-0.149467,12.1017,0.182544,
2,0,0,1,0,38604.5,0.18138,0.181062,-2.09353,20,0.0141608,10,-0.000379059,-2.67912,-0.45797,-0.128829,10.5162,0.1810617,
2,0,0,1,0,38604.5,0.179881,0.179594,-2.11051,20,0.0141078,10,-0.000379035,-2.67561,-0.658119,-0.0896494,7.3783,0.179594,
2,0,0,1,0,38604.5,0.178387,0.178047,-2.12997,20,0.0140547,10,-0.000379234,-2.67163,-0.4232,-0.139414,11.5762,0.178047,
2,0,0,1,0,38604.5,0.176886,0.176545,-2.14339,20,0.0140009,10,-0.000378404,-2.6689,-0.35723,-0.16516,13.8183,0.1765448,
2,0,0,1,0,38604.6,0.175385,0.175089,-2.15979,20,0.0139466,10,-0.000378157,-2.66559,-0.365583,-0.161386,13.6362,0.175089,
2,0,0,1,0,38604.6,0.173892,0.17356,-2.18789,20,0.013892,10,-0.000379729,-2.65998,-0.349921,-0.16861,14.3642,0.17356,
2,0,0,1,0,38604.6,0.172393,0.172081,-2.21142,20,0.0138367,10,-0.000380542,-2.65533,-0.342167,-0.17243,14.8139,0.172081,
2,0,0,1,0,38604.6,0.170893,0.170539,-2.22611,20,0.0137808,10,-0.000379639,-2.65245,-0.319402,-0.18472,16.0804,0.170539,
2,0,0,1,0,38604.7,0.169393,0.169078,-2.24806,20,0.0137245,10,-0.000380098,-2.64819,-0.29244,-0.201751,17.7544,0.1690782,
2,0,0,1,0,38604.7,0.167899,0.167562,-2.28239,20,0.0136676,10,-0.000382442,-2.64161,-0.312105,-0.189039,16.8158,0.167562,
2,0,0,1,0,38604.7,0.166398,0.166071,-2.30879,20,0.0136098,10,-0.000383424,-2.63662,-0.305916,-0.192863,17.342,0.166071,
2,0,0,1,0,38604.7,0.164898,0.164596,-2.33063,20,0.0135514,10,-0.000383612,-2.63253,-0.2605,-0.226487,20.6372,0.164596,
2,0,0,1,0,38604.8,0.163403,0.163077,-2.35515,20,0.0134926,10,-0.00038407,-2.62798,-0.259397,-0.22745,20.9694,0.1630768,
2,0,0,1,0,38604.8,0.161904,0.161601,-2.39494,20,0.0134327,10,-0.000387023,-2.62071,-0.27525,-0.214351,20.0247,0.161601,
2,0,0,1,0,38604.8,0.160404,0.160097,-2.43736,20,0.013372,10,-0.000390214,-2.61308,-0.245006,-0.24081,22.8022,0.160097,
2,0,0,1,0,38604.8,0.158905,0.158562,-2.46523,20,0.0133103,10,-0.000390892,-2.60814,-0.203803,-0.289495,27.8691,0.158562,
2,0,0,1,0,38604.9,0.157411,0.15707,-2.50237,20,0.0132481,10,-0.000393048,-2.60165,-0.18975,-0.310935,30.5231,0.15707,
2,0,0,1,0,38604.9,0.155911,0.155552,-2.54969,20,0.0131844,10,-0.00039661,-2.59351,-0.184926,-0.319047,31.8102,0.155552,
2,0,0,1,0,38604.9,0.15441,0.154073,-2.60544,20,0.0131195,10,-0.000401428,-2.58412,-0.1816,-0.32489,32.9416,0.154073,
2,0,0,1,0,38604.9,0.152916,0.152566,-2.65673,20,0.0130536,10,-0.000405327,-2.57565,-0.159404,-0.370129,38.3629,0.152566,
2,0,0,1,0,38605,0.151417,0.151091,-2.70321,20,0.0129862,10,-0.000408432,-2.56812,-0.152661,-0.386476,41.0183,0.151091,
2,0,0,1,0,38605,0.149917,0.149584,-2.77722,20,0.0129171,10,-0.000415428,-2.55639,-0.140636,-0.419524,45.5746,0.149584,
2,0,0,1,0,38605,0.148423,0.148129,-2.85112,20,0.0128467,10,-0.000422332,-2.54498,-0.132199,-0.446295,49.6949,0.148129,
2,0,0,1,0,38605,0.146922,0.146574,-2.93089,20,0.012774,10,-0.000429594,-2.533,-0.120481,-0.489703,56.0436,0.146574,
2,0,0,1,0,38605.1,0.145421,0.145081,-3.01225,20,0.0126993,10,-0.000437019,-2.52111,-0.112218,-0.525763,61.9751,0.1450806,
2,0,0,1,0,38605.1,0.143927,0.143618,-3.10823,20,0.0126227,10,-0.000446396,-2.50749,-0.106176,-0.555682,67.5599,0.143618,
2,0,0,1,0,38605.1,0.142429,0.142136,-3.22143,20,0.0125431,10,-0.000457882,-2.49195,-0.101337,-0.582216,73.1579,0.142136,
2,0,0,1,0,38605.1,0.140929,0.140592,-3.33155,20,0.0124608,10,-0.00046839,-2.47735,-0.0962955,-0.612698,79.7598,0.140592,
2,0,0,1,0,38605.2,0.13943,0.139121,-3.44394,20,0.0123756,10,-0.000479126,-2.46294,-0.0937807,-0.629128,84.9827,0.139121,
2,0,0,1,0,38605.2,0.137935,0.1376,-3.58451,20,0.0122876,10,-0.000493227,-2.44557,-0.0946524,-0.623334,87.2284,0.1376,
2,0,0,1,0,38605.2,0.136435,0.136113,-3.7263,20,0.0121958,10,-0.000507197,-2.42872,-0.0937297,-0.62947,91.366,0.136113,
2,0,0,1,0,38605.2,0.134934,0.134617,-3.86245,20,0.0121005,10,-0.000519952,-2.41314,-0.0906388,-0.650935,98.1099,0.134617,
2,0,0,1,0,38605.3,0.13344,0.13313,-4.00714,20,0.0120021,10,-0.000533471,-2.39717,-0.0945748,-0.623845,97.7403,0.13313,
2,0,0,1,0,38605.3,0.13194,0.131645,-4.15965,20,0.0118995,10,-0.000547598,-2.38094,-0.0974011,-0.605742,98.367,0.131645,
2,0,0,1,0,38605.3,0.13044,0.130088,-4.31591,20,0.0117931,10,-0.000561448,-2.36493,-0.0986335,-0.598174,100.543,0.130088,
2,0,0,1,0,38605.3,0.128941,0.128624,-4.46627,20,0.0116829,10,-0.000574471,-2.35005,-0.101769,-0.579745,100.816,0.1286242,
2,0,0,1,0,38605.4,0.127447,0.127121,-4.61249,20,0.0115693,10,-0.000586344,-2.33606,-0.11057,-0.533599,96.0364,0.127121,
2,0,0,1,0,38605.4,0.125946,0.125637,-4.75545,20,0.0114518,10,-0.000597461,-2.32281,-0.115704,-0.50992,94.5484,0.125637,
2,0,0,1,0,38605.4,0.124446,0.12414,-4.89838,20,0.0113307,10,-0.000608084,-2.30995,-0.123448,-0.477935,91.0764,0.12414,
2,0,0,1,0,38605.4,0.122952,0.122691,-5.03303,20,0.0112067,10,-0.000617505,-2.29817,-0.127523,-0.462661,90.6027,0.122691,
2,0,0,1,0,38605.5,0.121453,0.121184,-5.15501,20,0.0110789,10,-0.000624707,-2.28777,-0.143575,-0.410935,82.5952,0.121184,
2,0,0,1,0,38605.5,0.119953,0.119612,-5.27302,20,0.010948,10,-0.000630715,-2.27794,-0.156573,-0.376822,77.5174,0.119612,
2,0,0,1,0,38605.5,0.118459,0.118146,-5.39192,20,0.0108147,10,-0.000637035,-2.26826,-0.17124,-0.344547,72.3936,0.118146,
2,0,0,1,0,38605.5,0.116958,0.116639,-5.50457,20,0.010678,10,-0.000642051,-2.25928,-0.174412,-0.338279,72.5527,0.1166395,
2,0,0,1,0,38605.6,0.115457,0.115153,-5.6061,20,0.0105387,10,-0.00064556,-2.25134,-0.197405,-0.298878,65.2859,0.1151532,
2,0,0,1,0,38605.6,0.113963,0.113609,-5.69153,20,0.0103975,10,-0.000646612,-2.24477,-0.226416,-0.260583,57.8782,0.113609,
2,0,0,1,0,38605.6,0.112464,0.112155,-5.78635,20,0.0102537,10,-0.000648966,-2.2376,-0.251504,-0.234588,52.8626,0.112155,
2,0,0,1,0,38605.6,0.110965,0.110642,-5.86186,20,0.0101077,10,-0.00064857,-2.23196,-0.263095,-0.224253,51.2039,0.1106424,
2,0,0,1,0,38605.7,0.109466,0.109136,-5.92434,20,0.00995983,10,-0.000646557,-2.22736,-0.315353,-0.187092,43.2286,0.109136,
2,0,0,1,0,38605.7,0.107972,0.107687,-5.9874,20,0.00981092,10,-0.000644763,-2.22276,-0.395833,-0.149053,34.7805,0.107687,
2,0,0,1,0,38605.7,0.106471,0.10612,-6.0402,20,0.00966018,10,-0.000640988,-2.21895,-0.488859,-0.120689,28.4237,0.10612,
2,0,0,1,0,38605.7,0.10497,0.104677,-6.08227,20,0.00950825,10,-0.000636672,-2.21593,-0.512412,-0.115142,27.2731,0.104677,
2,0,0,1,0,38605.8,0.103476,0.103125,-6.1158,20,0.00935589,10,-0.000630692,-2.21355,-0.761538,-0.0774748,18.4561,0.103125,
2,0,0,1,0,38605.8,0.101976,0.101653,-6.13333,20,0.00920229,10,-0.000623471,-2.2123,-1.81642,-0.0324815,7.76703,0.101653,
2,0,0,1,0,38605.8,0.100477,0.100117,-6.14044,20,0.00904841,10,-0.000614761,-2.2118,-5.13007,-0.0115008,2.75425,0.100117,
2,0,0,1,0,38605.8,0.0989825,0.0986449,-6.14774,20,0.00889497,10,-0.000606443,-2.21128,53.5642,0.00110148,-0.263673,0.09864492,
2,0,0,1,0,38605.9,0.0974817,0.0971461,-6.13772,20,0.00874094,10,-0.000596255,-2.21199,2.11023,0.027959,-6.69189,0.0971461,
2,0,0,1,0,38605.9,0.0959822,0.0956653,-6.12269,20,0.00858724,10,-0.000585729,-2.21306,0.929035,0.0635068,-15.1635,0.0956653,
2,0,0,1,0,38605.9,0.094488,0.0941824,-6.09717,20,0.00843466,10,-0.000574247,-2.21487,0.740624,0.0796626,-18.9337,0.0941824,
2,0,0,1,0,38605.9,0.0929884,0.0926547,-6.06856,20,0.00828219,10,-0.000562281,-2.21691,0.677549,0.0870786,-20.6041,0.0926547,
2,0,0,1,0,38606,0.0914889,0.0911901,-6.03432,20,0.0081305,10,-0.000550271,-2.21937,0.600459,0.0982581,-23.1111,0.0911901,
2,0,0,1,0,38606,0.0899893,0.0896892,-5.99104,20,0.00797972,10,-0.000537331,-2.2225,0.445107,0.132552,-30.9621,0.0896892,
2,0,0,1,0,38606,0.0884952,0.0881871,-5.94552,20,0.00783065,10,-0.000524318,-2.22581,0.436704,0.135103,-31.3469,0.0881871,
2,0,0,1,0,38606,0.0869943,0.0866754,-5.90212,20,0.00768219,10,-0.000511569,-2.22899,0.441438,0.133654,-30.7746,0.08667542,
2,0,0,1,0,38606.1,0.0854935,0.0851592,-5.85477,20,0.00753479,10,-0.000498588,-2.23249,0.480523,0.122783,-28.0652,0.0851592,
2,0,0,1,0,38606.1,0.0839993,0.0836653,-5.80773,20,0.00738911,10,-0.000485905,-2.23599,0.415727,0.14192,-32.1903,0.0836653,
2,0,0,1,0,38606.1,0.0824998,0.0822067,-5.76541,20,0.00724399,10,-0.000473955,-2.23917,0.421525,0.139968,-31.4936,0.0822067,
2,0,0,1,0,38606.1,0.0810002,0.0806983,-5.7238,20,0.00710001,10,-0.000461901,-2.24232,0.504415,0.116967,-26.1388,0.0806983,
2,0,0,1,0,38606.2,0.0795007,0.0791855,-5.68344,20,0.00695703,10,-0.000450046,-2.24539,0.56091,0.105186,-23.3376,0.0791855,
2,0,0,1,0,38606.2,0.0780078,0.0776853,-5.64609,20,0.00681553,10,-0.000438618,-2.24825,0.545768,0.108105,-23.8343,0.0776853,
2,0,0,1,0,38606.2,0.076507,0.0761859,-5.6157,20,0.00667436,10,-0.000427838,-2.2506,0.506086,0.116581,-25.5144,0.0761859,
2,0,0,1,0,38606.2,0.0750062,0.0746738,-5.57878,20,0.0065341,10,-0.000416589,-2.25346,0.602798,0.0978768,-21.3118,0.0746738,
2,0,0,1,0,38606.3,0.073512,0.0731861,-5.54502,20,0.00639521,10,-0.000405818,-2.2561,0.710209,0.0830741,-17.981,0.0731861,
2,0,0,1,0,38606.3,0.0720124,0.0716596,-5.51436,20,0.00625649,10,-0.000395157,-2.2585,0.636382,0.0927116,-19.9865,0.0716596,
2,0,0,1,0,38606.3,0.0705129,0.0701678,-5.49133,20,0.00611846,10,-0.000385314,-2.26032,0.622929,0.0947139,-20.2925,0.07016775,
2,0,0,1,0,38606.3,0.0690187,0.0687228,-5.46406,20,0.00598168,10,-0.000375506,-2.26248,0.682774,0.0864122,-18.4195,0.0687228,
2,0,0,1,0,38606.4,0.0675179,0.0671717,-5.43412,20,0.00584507,10,-0.000365019,-2.26487,0.898272,0.0656817,-13.9424,0.0671717,
2,0,0,1,0,38606.4,0.066017,0.0656804,-5.41191,20,0.00570905,10,-0.000355457,-2.26665,0.770053,0.0766181,-16.175,0.0656804,
2,0,0,1,0,38606.4,0.0645242,0.0641792,-5.39236,20,0.00557411,10,-0.000346078,-2.26822,0.673397,0.0876155,-18.401,0.0641792,
2,0,0,1,0,38606.4,0.0630246,0.0627082,-5.36245,20,0.0054393,10,-0.000336269,-2.27064,0.727509,0.0810987,-16.9608,0.0627082,
2,0,0,1,0,38606.5,0.0615251,0.0611841,-5.33307,20,0.0053052,10,-0.000326299,-2.27302,0.786173,0.0750471,-15.6366,0.0611841,
2,0,0,1,0,38606.5,0.0600256,0.0596989,-5.30574,20,0.00517172,10,-0.000316747,-2.27525,0.704891,0.0837009,-17.3508,0.0596989,
2,0,0,1,0,38606.5,0.0585314,0.0582308,-5.28229,20,0.0050394,10,-0.000307592,-2.27718,0.613949,0.0960992,-19.7981,0.0582308,
2,0,0,1,0,38606.5,0.0570305,0.0566744,-5.26278,20,0.00490719,10,-0.000298265,-2.27879,0.727128,0.0811411,-16.6406,0.0566744,
2,0,0,1,0,38606.6,0.0555297,0.0552366,-5.224,20,0.00477576,10,-0.000288556,-2.282,0.763071,0.0773191,-15.7759,0.0552366,
2,0,0,1,0,38606.6,0.0540355,0.053707,-5.19984,20,0.0046455,10,-0.000279268,-2.28401,0.710846,0.0829997,-16.8522,0.053707,
2,0,0,1,0,38606.6,0.052536,0.0521896,-5.17633,20,0.00451532,10,-0.000270151,-2.28598,0.619052,0.095307,-19.2362,0.0521896,
2,0,0,1,0,38606.6,0.0510364,0.0507121,-5.15258,20,0.0043858,10,-0.000261298,-2.28798,0.595404,0.0990924,-19.8951,0.0507121,
2,0,0,1,0,38606.7,0.0495369,0.0492321,-5.1115,20,0.00425708,10,-0.00025165,-2.29145,0.655392,0.0900225,-17.9901,0.0492321,
2,0,0,1,0,38606.7,0.0480427,0.0477165,-5.08162,20,0.00412962,10,-0.000242477,-2.294,0.625954,0.0942561,-18.7277,0.04771645,
2,0,0,1,0,38606.7,0.0465432,0.0462161,-5.05882,20,0.00400238,10,-0.000233799,-2.29595,0.558492,0.105642,-20.857,0.0462161,
2,0,0,1,0,38606.7,0.0450424,0.044729,-5.03253,20,0.0038759,10,-0.0002251,-2.29821,0.589287,0.100121,-19.6342,0.044729,
2,0,0,1,0,38606.8,0.0435482,0.0432157,-4.98861,20,0.00375069,10,-0.000215586,-2.30202,0.584248,0.100985,-19.6726,0.0432157,
2,0,0,1,0,38606.8,0.0420486,0.041748,-4.9619,20,0.0036258,10,-0.00020715,-2.30435,0.530065,0.111307,-21.5764,0.041748,
2,0,0,1,0,38606.8,0.0405491,0.0401862,-4.93081,20,0.00350172,10,-0.000198151,-2.30708,0.520854,0.113276,-21.8012,0.0401862,
2,0,0,1,0,38606.8,0.0390549,0.0387459,-4.90692,20,0.00337885,10,-0.000190123,-2.30919,0.468079,0.126047,-24.0691,0.0387459,
2,0,0,1,0,38606.9,0.0375541,0.037231,-4.86819,20,0.00325629,10,-0.000181247,-2.31263,0.501698,0.117601,-22.325,0.037231,
2,0,0,1,0,38606.9,0.0360532,0.0357392,-4.82886,20,0.00313472,10,-0.00017258,-2.31615,0.452695,0.130331,-24.5867,0.0357392,
2,0,0,1,0,38606.9,0.034559,0.0342075,-4.79835,20,0.00301448,10,-0.00016414,-2.31891,0.431206,0.136825,-25.586,0.0342075,
2,0,0,1,0,38606.9,0.0330595,0.0327535,-4.76615,20,0.00289459,10,-0.000156108,-2.32183,0.437521,0.134851,-25.0238,0.0327535,
2,0,0,1,0,38607,0.0315613,0.0312206,-4.72031,20,0.00277562,10,-0.000147371,-2.32603,0.462024,0.127699,-23.5308,0.0312206,
2,0,0,1,0,38607,0.0300618,0.0297455,-4.67471,20,0.00265772,10,-0.000139051,-2.33025,0.393572,0.149909,-27.4019,0.0297455,
2,0,0,1,0,38607,0.0285676,0.0282167,-4.64476,20,0.00254123,10,-0.00013106,-2.33304,0.408884,0.144295,-26.1482,0.0282167,
2,0,0,1,0,38607,0.0270667,0.0267131,-4.60714,20,0.00242517,10,-0.000123071,-2.33657,0.42855,0.137674,-24.7465,0.0267131,
2,0,0,1,0,38607.1,0.0255659,0.0252507,-4.56601,20,0.00231003,10,-0.000115295,-2.34046,0.408179,0.144544,-25.7661,0.0252507,
2,0,0,1,0,38607.1,0.0240717,0.0237812,-4.51983,20,0.00219641,10,-0.000107487,-2.34488,0.39504,0.149352,-26.4032,0.0237812,
2,0,0,1,0,38607.1,0.0225722,0.0222444,-4.48773,20,0.00208333,10,-9.98269e-05,-2.34797,0.378477,0.155888,-27.2963,0.0222444,
2,0,0,1,0,38607.1,0.0210726,0.0207241,-4.45255,20,0.00197114,10,-9.22751e-05,-2.35139,0.433821,0.136001,-23.6201,0.0207241,
2,0,0,1,0,38607.2,0.0195784,0.0192269,-4.4186,20,0.0018603,10,-8.49559e-05,-2.35472,0.434758,0.135708,-23.3781,0.0192269,
2,0,0,1,0,38607.2,0.0180789,0.0177705,-4.37029,20,0.00174993,10,-7.76621e-05,-2.35949,0.422286,0.139716,-23.8892,0.0177705,
2,0,0,1,0,38607.2,0.0165781,0.0162362,-4.34693,20,0.00164047,10,-7.05776e-05,-2.36182,0.45465,0.12977,-22.022,0.0162362,
2,0,0,1,0,38607.2,0.0150839,0.014742,-4.31892,20,0.00153225,10,-6.36698e-05,-2.36462,0.518101,0.113877,-19.1645,0.014742,
2,0,0,1,0,38607.3,0.0135844,0.0132084,-4.28502,20,0.00142428,10,-5.65981e-05,-2.36805,0.506598,0.116463,-19.4581,0.0132084,
2,0,0,1,0,38607.3,0.0120848,0.0117379,-4.25242,20,0.00131709,10,-4.99143e-05,-2.37136,0.494016,0.119429,-19.8538,0.0117379,
2,0,0,1,0,38607.3,0.0105853,0.010263,-4.22132,20,0.00121076,10,-4.33233e-05,-2.37455,0.484256,0.121836,-20.0925,0.010263,
2,0,0,1,0,38607.3,0.00909108,0.00874391,-4.20163,20,0.00110547,10,-3.67387e-05,-2.37658,0.595673,0.0990477,-16.2124,0.00874391,
2,0,0,1,0,38607.4,0.00759027,0.00726641,-4.17702,20,0.0010004,10,-3.03519e-05,-2.37913,0.688243,0.0857255,-13.9616,0.007266406,
2,0,0,1,0,38607.4,0.00608945,0.00578337,-4.15082,20,0.000895893,10,-2.40057e-05,-2.38187,0.699592,0.0843349,-13.6746,0.00578337,
2,0,0,1,0,38607.4,0.00459524,0.00426776,-4.13004,20,0.000792409,10,-1.7626e-05,-2.38405,0.590885,0.0998502,-16.1005,0.00426776,
2,0,0,1,0,38607.4,0.0030957,0.00278023,-4.11419,20,0.000688962,10,-1.14384e-05,-2.38572,2.05122,0.0287634,-4.62656,0.00278023,
2,0,0,1,0,38607.5,0.00159616,0.00121765,-4.12568,20,0.000585522,10,-5.02365e-06,-2.3845, , , ,0.00121765,
2,0,0,1,0,38607.5,0.000199195,-0.0002108,-4.09701,20,0.000489298,10,8.63649e-07,-2.38753, , , ,-0.0002108,