File: Figure_codes/Fig_3-5/rawdata_trumpetplot_data/after 10th/20221101_1-115_003_TrumpetPlot_ParaChange_from10_every3_04_CV_C01_19.csv
mode,ox/red,error,control changes,counter inc.,time/s,control/V,Ewe/V,<I>/mA,cycle number,(Q-Qo)/C,I Range,P/W,log(|I|),Tafel slope mV/dec,alpha_eff,dI/d(E-IR),E-IR/V,
2,0,0,1,0,38492.5,2.44065e-05,-0.000439847,-0.392605,20,0.0000000E+000,10,1.72686e-07,-3.40604, , , ,-0.000439847,
2,1,0,1,0,38492.6,0.00129787,0.000933379,0.131132,20,-2.33201e-06,10,1.22396e-07,-3.88229, , , ,0.000933379,
2,1,0,1,0,38492.8,0.00279606,0.00245824,0.268,20,3.21766e-05,10,6.58809e-07,-3.57187,0.00403427,14.6247,71.0762,0.00245824,
2,1,0,1,0,38492.9,0.00429425,0.00397993,0.30893,20,7.80748e-05,10,1.22952e-06,-3.51014,0.0267022,2.20956,25.1499,0.00397993,
2,1,0,1,0,38493.1,0.00579244,0.00545495,0.334076,20,0.000128774,10,1.82237e-06,-3.47615,0.0433394,1.36135,17.5226,0.00545495,
2,1,0,1,0,38493.2,0.00729063,0.00696497,0.357998,20,0.000183152,10,2.49345e-06,-3.44612,0.0603303,0.97795,13.4908,0.00696497,
2,1,0,1,0,38493.4,0.00878882,0.00846545,0.377106,20,0.000240636,10,3.19237e-06,-3.42354,0.0757715,0.778656,11.3422,0.00846545,
2,1,0,1,0,38493.5,0.010287,0.0099638,0.392426,20,0.000300703,10,3.91006e-06,-3.40624,0.0950224,0.620906,9.43962,0.0099638,
2,1,0,1,0,38493.7,0.0117852,0.0114982,0.405512,20,0.000362854,10,4.66266e-06,-3.392,0.101684,0.580229,9.17339,0.0114982,
2,1,0,1,0,38493.8,0.0132838,0.0129327,0.418895,20,0.000427019,10,5.41742e-06,-3.3779,0.104813,0.562908,9.2199,0.01293265,
2,1,0,1,0,38494,0.0147814,0.0144394,0.431327,20,0.000493093,10,6.22812e-06,-3.36519,0.124176,0.475131,7.98759,0.0144394,
2,1,0,1,0,38494.1,0.0162789,0.0159644,0.443794,20,0.000561152,10,7.0849e-06,-3.35282,0.140354,0.420365,7.23974,0.0159644,
2,1,0,1,0,38494.3,0.017778,0.0174598,0.453114,20,0.000630697,10,7.91129e-06,-3.34379,0.149596,0.394396,6.98756,0.0174598,
2,1,0,1,0,38494.4,0.0192761,0.018956,0.462917,20,0.00070162,10,8.77508e-06,-3.3345,0.150451,0.392154,7.09582,0.018956,
2,1,0,1,0,38494.6,0.0207743,0.0204353,0.474628,20,0.000774278,10,9.69916e-06,-3.32365,0.145158,0.406455,7.51743,0.0204353,
2,1,0,1,0,38494.7,0.0222725,0.0219411,0.486073,20,0.000848671,10,1.0665e-05,-3.3133,0.149239,0.39534,7.49441,0.0219411,
2,1,0,1,0,38494.9,0.0237707,0.0234585,0.495151,20,0.000924622,10,1.16155e-05,-3.30526,0.177363,0.332651,6.43761,0.0234585,
2,1,0,1,0,38495,0.0252689,0.0249389,0.505001,20,0.00100198,10,1.25942e-05,-3.29671,0.171348,0.344328,6.80947,0.0249389,
2,1,0,1,0,38495.2,0.0267671,0.0264669,0.516688,20,0.00108091,10,1.36751e-05,-3.28677,0.146556,0.402576,8.10317,0.0264669,
2,1,0,1,0,38495.3,0.0282662,0.0279173,0.528584,20,0.00116157,10,1.47567e-05,-3.27689,0.181151,0.325696,6.70555,0.0279173,
2,1,0,1,0,38495.5,0.0297635,0.0294544,0.537695,20,0.00124373,10,1.58375e-05,-3.26946,0.184609,0.319594,6.6984,0.0294544,
2,1,0,1,0,38495.6,0.031261,0.0309551,0.543366,20,0.00132729,10,1.68199e-05,-3.26491,0.190635,0.309492,6.60832,0.03095508,
2,1,0,1,0,38495.8,0.0327599,0.0324487,0.557058,20,0.00141226,10,1.80758e-05,-3.2541,0.185631,0.317834,6.9265,0.0324487,
2,1,0,1,0,38495.9,0.034258,0.0339693,0.568227,20,0.0014989,10,1.93023e-05,-3.24548,0.192009,0.307278,6.80827,0.0339693,
2,1,0,1,0,38496.1,0.0357562,0.0354061,0.578392,20,0.0015871,10,2.04786e-05,-3.23778,0.226304,0.260711,5.86682,0.0354061,
2,1,0,1,0,38496.2,0.0372544,0.0369777,0.587102,20,0.0016768,10,2.17097e-05,-3.23129,0.197772,0.298323,6.86265,0.0369777,
2,1,0,1,0,38496.4,0.0387526,0.0384516,0.596772,20,0.00176784,10,2.29469e-05,-3.22419,0.193672,0.304639,7.13367,0.0384516,
2,1,0,1,0,38496.5,0.0402508,0.0399426,0.607894,20,0.00186069,10,2.42808e-05,-3.21617,0.204813,0.288067,6.84352,0.0399426,
2,1,0,1,0,38496.7,0.041749,0.0413942,0.62067,20,0.0019552,10,2.56922e-05,-3.20714,0.228561,0.258137,6.22272,0.0413942,
2,1,0,1,0,38496.8,0.0432472,0.0429276,0.629359,20,0.00205113,10,2.70169e-05,-3.2011,0.231378,0.254994,6.25553,0.0429276,
2,1,0,1,0,38497,0.0447458,0.0444309,0.637916,20,0.00214832,10,2.83432e-05,-3.19524,0.201335,0.293043,7.29748,0.0444309,
2,1,0,1,0,38497.1,0.0462433,0.0459187,0.649384,20,0.00224715,10,2.98189e-05,-3.1875,0.196793,0.299807,7.57109,0.0459187,
2,1,0,1,0,38497.3,0.0477409,0.0474279,0.657662,20,0.00234741,10,3.11915e-05,-3.182,0.225597,0.261528,6.71387,0.0474279,
2,1,0,1,0,38497.4,0.0492399,0.0489507,0.668232,20,0.00244931,10,3.27104e-05,-3.17507,0.253051,0.233155,6.06901,0.0489507,
2,1,0,1,0,38497.6,0.0507381,0.0504109,0.675231,20,0.00255227,10,3.4039e-05,-3.17055,0.294399,0.200408,5.29498,0.0504109,
2,1,0,1,0,38497.7,0.0522363,0.0518615,0.685045,20,0.00265661,10,3.55275e-05,-3.16428,0.237759,0.24815,6.63286,0.0518615,
2,1,0,1,0,38497.9,0.0537345,0.0534171,0.695593,20,0.00276235,10,3.71566e-05,-3.15764,0.264557,0.223014,6.03523,0.0534171,
2,1,0,1,0,38498,0.0552327,0.0549547,0.705042,20,0.00286953,10,3.87454e-05,-3.15179,0.335705,0.17575,4.81178,0.0549547,
2,1,0,1,0,38498.2,0.0567309,0.0564499,0.708988,20,0.00297779,10,4.00223e-05,-3.14936,0.322309,0.183054,5.07328,0.0564499,
2,1,0,1,0,38498.3,0.0582291,0.0579133,0.71748,20,0.00308708,10,4.15516e-05,-3.14419,0.326951,0.180455,5.05982,0.0579133,
2,1,0,1,0,38498.5,0.0597282,0.0593832,0.72878,20,0.00319779,10,4.32773e-05,-3.1374,0.314526,0.187584,5.31759,0.0593832,
2,1,0,1,0,38498.6,0.0612255,0.0608969,0.734319,20,0.00330977,10,4.47178e-05,-3.13412,0.392315,0.150389,4.30194,0.0608969,
2,1,0,1,0,38498.8,0.062723,0.0624375,0.740516,20,0.00342286,10,4.6236e-05,-3.13047,0.323593,0.182328,5.28701,0.0624375,
2,1,0,1,0,38498.9,0.0642218,0.0638982,0.748749,20,0.00353691,10,4.78437e-05,-3.12566,0.307817,0.191672,5.61391,0.0638982,
2,1,0,1,0,38499.1,0.06572,0.0654082,0.755916,20,0.00365222,10,4.94431e-05,-3.12153,0.306026,0.192794,5.69021,0.0654082,
2,1,0,1,0,38499.2,0.0672182,0.0668758,0.766354,20,0.00376899,10,5.12506e-05,-3.11557,0.398588,0.148023,4.41214,0.0668758,
2,1,0,1,0,38499.4,0.0687164,0.068388,0.772879,20,0.00388663,10,5.28556e-05,-3.11189,0.464879,0.126915,3.82079,0.068388,
2,1,0,1,0,38499.5,0.0702146,0.0698566,0.775459,20,0.00400499,10,5.41709e-05,-3.11044,0.436311,0.135225,4.11013,0.0698566,
2,1,0,1,0,38499.7,0.0717128,0.0713931,0.784034,20,0.0041243,10,5.59746e-05,-3.10567,0.358287,0.164673,5.03391,0.0713931,
2,1,0,1,0,38499.8,0.073211,0.0728862,0.791533,20,0.00424478,10,5.76919e-05,-3.10153,0.494777,0.119246,3.67738,0.0728862,
2,1,0,1,0,38500,0.0747092,0.074358,0.795358,20,0.00436614,10,5.91413e-05,-3.09944,0.539133,0.109435,3.40176,0.074358,
2,1,0,1,0,38500.1,0.0762078,0.0758853,0.798801,20,0.00448817,10,6.06173e-05,-3.09756,0.590681,0.0998847,3.12865,0.0758853,
2,1,0,1,0,38500.3,0.0777053,0.0773947,0.806057,20,0.0046109,10,6.23846e-05,-3.09363,0.426259,0.138414,4.35823,0.0773947,
2,1,0,1,0,38500.4,0.0792029,0.0788852,0.813337,20,0.00473471,10,6.41602e-05,-3.08973,0.425329,0.138716,4.39745,0.0788852,
2,1,0,1,0,38500.6,0.0807019,0.0803811,0.818397,20,0.00485944,10,6.57837e-05,-3.08704,0.549112,0.107446,3.42579,0.08038114,
2,1,0,1,0,38500.7,0.0822001,0.0818488,0.822587,20,0.00498488,10,6.73277e-05,-3.08482,0.58123,0.101509,3.26383,0.0818488,
2,1,0,1,0,38500.9,0.0836983,0.0833906,0.827737,20,0.0051109,10,6.90255e-05,-3.08211,0.465004,0.126881,4.11089,0.0833906,
2,1,0,1,0,38501,0.0851965,0.084872,0.835876,20,0.00523803,10,7.09424e-05,-3.07786,0.426426,0.138359,4.51916,0.08487197,
2,1,0,1,0,38501.2,0.0866947,0.0863523,0.843329,20,0.00536626,10,7.28234e-05,-3.074,0.517048,0.114109,3.75132,0.0863523,
2,1,0,1,0,38501.3,0.0881929,0.0878538,0.851674,20,0.00549559,10,7.48228e-05,-3.06973,0.445461,0.132447,4.40201,0.0878538,
2,1,0,1,0,38501.5,0.0896911,0.0893596,0.858349,20,0.00562573,10,7.67017e-05,-3.06634,0.339755,0.173655,5.83227,0.0893596,
2,1,0,1,0,38501.6,0.0911902,0.0908685,0.868145,20,0.00575747,10,7.8887e-05,-3.06141,0.265991,0.221812,7.50629,0.0908685,
2,1,0,1,0,38501.8,0.0926875,0.0923722,0.879139,20,0.00589088,10,8.1208e-05,-3.05594,0.254099,0.232193,7.96251,0.0923722,
2,1,0,1,0,38501.9,0.094185,0.0938976,0.888263,20,0.00602586,10,8.34057e-05,-3.05146,0.272304,0.21667,7.53861,0.0938976,
2,1,0,1,0,38502.1,0.0956838,0.09537,0.90013,20,0.0061624,10,8.58454e-05,-3.04569,0.233852,0.252296,8.891,0.09537,
2,1,0,1,0,38502.2,0.097182,0.0968503,0.912798,20,0.0063009,10,8.84047e-05,-3.03963,0.21079,0.279899,9.99228,0.0968503,
2,1,0,1,0,38502.4,0.0986802,0.0983593,0.931031,20,0.00644152,10,9.15755e-05,-3.03104,0.212063,0.278219,10.1011,0.0983593,
2,1,0,1,0,38502.5,0.100178,0.0998608,0.945312,20,0.00658449,10,9.43996e-05,-3.02442,0.204959,0.287862,10.6049,0.0998608,
2,1,0,1,0,38502.7,0.101677,0.101388,0.958003,20,0.00672958,10,9.71298e-05,-3.01863,0.205606,0.286956,10.7604,0.101388,
2,1,0,1,0,38502.8,0.103175,0.102893,0.978223,20,0.00687717,10,0.000100652,-3.00956,0.192231,0.306922,11.7297,0.102893,
2,1,0,1,0,38503,0.104673,0.104327,0.998403,20,0.00702752,10,0.000104161,-3.00069,0.194615,0.303162,11.7712,0.104327,
2,1,0,1,0,38503.1,0.106171,0.105844,1.01384,20,0.0071807,10,0.000107308,-2.99403,0.211181,0.279381,11.0264,0.105844,
2,1,0,1,0,38503.3,0.10767,0.107329,1.02848,20,0.00733622,10,0.000110385,-2.9878,0.224721,0.262548,10.5423,0.107329,
2,1,0,1,0,38503.4,0.109167,0.108843,1.04353,20,0.00749386,10,0.000113582,-2.98149,0.225067,0.262144,10.6964,0.108843,
2,1,0,1,0,38503.6,0.110665,0.11032,1.05902,20,0.00765397,10,0.000116831,-2.9751,0.252991,0.233209,9.64083,0.11032,
2,1,0,1,0,38503.7,0.112164,0.111847,1.07578,20,0.00781651,10,0.000120322,-2.96828,0.299034,0.197302,8.26828,0.1118466,
2,1,0,1,0,38503.9,0.113662,0.11335,1.08816,20,0.00798089,10,0.000123343,-2.96331,0.282585,0.208787,8.84777,0.11335,
2,1,0,1,0,38504,0.11516,0.114831,1.09827,20,0.0081469,10,0.000126115,-2.95929,0.340104,0.173476,7.43008,0.114831,
2,1,0,1,0,38504.2,0.116658,0.116319,1.11005,20,0.00831473,10,0.00012912,-2.95466,0.341689,0.172672,7.4616,0.116319,
2,1,0,1,0,38504.3,0.118157,0.1178,1.12084,20,0.00848443,10,0.000132034,-2.95046,0.387432,0.152285,6.64835,0.1178,
2,1,0,1,0,38504.5,0.119655,0.119326,1.12996,20,0.00865539,10,0.000134834,-2.94694,0.585205,0.100819,4.44195,0.119326,
2,1,0,1,0,38504.6,0.121153,0.120841,1.13466,20,0.00882738,10,0.000137114,-2.94513,0.507357,0.116289,5.15564,0.120841,
2,1,0,1,0,38504.8,0.122652,0.122304,1.14184,20,0.00900058,10,0.000139651,-2.9424,0.417935,0.14117,6.2935,0.122304,
2,1,0,1,0,38504.9,0.124149,0.123833,1.15104,20,0.00917488,10,0.000142538,-2.93891,0.544693,0.108318,4.86333,0.123833,
2,1,0,1,0,38505.1,0.125647,0.125359,1.15723,20,0.00935028,10,0.000145069,-2.93658,0.636605,0.0926792,4.18009,0.125359,
2,1,0,1,0,38505.2,0.127146,0.126813,1.15914,20,0.00952663,10,0.000146994,-2.93587,0.723768,0.0815179,3.69607,0.126813,
2,1,0,1,0,38505.4,0.128644,0.128315,1.16838,20,0.00970345,10,0.000149921,-2.93242,0.751578,0.0785015,3.57737,0.1283147,
2,1,0,1,0,38505.5,0.130142,0.129804,1.1733,20,0.00988123,10,0.000152298,-2.93059,1.05541,0.0559024,2.55555,0.129804,
2,1,0,1,0,38505.7,0.13164,0.13132,1.17607,20,0.0100598,10,0.000154441,-2.92957,-6.30263,-0.00936118,-0.427673,0.1313199,
2,1,0,1,0,38505.8,0.133139,0.132859,1.17477,20,0.0102384,10,0.000156079,-2.93005,-1.61675,-0.036493,-1.6712,0.132859,
2,1,0,1,0,38506,0.134637,0.13432,1.17015,20,0.0104164,10,0.000157174,-2.93176,-0.583591,-0.101098,-4.61426,0.13432,
2,1,0,1,0,38506.1,0.136135,0.135802,1.16478,20,0.0105937,10,0.000158179,-2.93376,-0.431772,-0.136646,-6.17915,0.135802,
2,1,0,1,0,38506.3,0.137633,0.137306,1.1533,20,0.0107696,10,0.000158355,-2.93806,-0.240124,-0.245707,-10.9755,0.137306,
2,1,0,1,0,38506.4,0.139132,0.138791,1.13448,20,0.0109434,10,0.000157455,-2.9452,-0.182211,-0.323801,-14.2295,0.138791,
2,1,0,1,0,38506.6,0.140629,0.140284,1.10735,20,0.0111134,10,0.000155344,-2.95572,-0.140756,-0.419165,-18.04,0.140284,
2,1,0,1,0,38506.7,0.142127,0.141825,1.07803,20,0.0112795,10,0.000152892,-2.96737,-0.125301,-0.470865,-19.6813,0.141825,
2,1,0,1,0,38506.9,0.143626,0.143323,1.04505,20,0.0114411,10,0.00014978,-2.98086,-0.0958642,-0.615454,-24.9592,0.143323,
2,1,0,1,0,38507,0.145124,0.144805,1.0029,20,0.0115971,10,0.000145225,-2.99874,-0.0805,-0.732919,-28.6362,0.144805,
2,1,0,1,0,38507.2,0.146622,0.146278,0.958244,20,0.0117466,10,0.00014017,-3.01852,-0.0761163,-0.77513,-29.0625,0.146278,
2,1,0,1,0,38507.3,0.14812,0.147764,0.917898,20,0.0118897,10,0.000135632,-3.03721,-0.0739038,-0.798335,-28.5441,0.147764,
2,1,0,1,0,38507.5,0.149619,0.149261,0.875222,20,0.0120265,10,0.000130636,-3.05788,-0.0705846,-0.835876,-28.5632,0.149261,
2,1,0,1,0,38507.6,0.151117,0.150796,0.834996,20,0.0121569,10,0.000125914,-3.07832,-0.072392,-0.815007,-26.5495,0.150796,
2,1,0,1,0,38507.8,0.152615,0.152257,0.794278,20,0.0122812,10,0.000120934,-3.10003,-0.0749688,-0.786994,-24.4934,0.152257,
2,1,0,1,0,38507.9,0.154114,0.153788,0.762277,20,0.0124001,10,0.000117229,-3.11789,-0.0797294,-0.740003,-22.0809,0.153788,
2,1,0,1,0,38508.1,0.155612,0.155297,0.73368,20,0.0125143,10,0.000113938,-3.13449,-0.0915016,-0.644797,-18.4932,0.1552971,
2,1,0,1,0,38508.2,0.157109,0.156805,0.704082,20,0.0126243,10,0.000110404,-3.15238,-0.097593,-0.604552,-16.6898,0.156805,
2,1,0,1,0,38508.4,0.158608,0.158359,0.683196,20,0.0127307,10,0.00010819,-3.16545,-0.1141,-0.517088,-13.8578,0.1583592,
2,1,0,1,0,38508.5,0.160106,0.159785,0.663482,20,0.0128338,10,0.000106015,-3.17817,-0.130546,-0.451949,-11.7668,0.159785,
2,1,0,1,0,38508.7,0.161604,0.161264,0.647575,20,0.0129344,10,0.00010443,-3.18871,-0.150375,-0.392351,-9.94273,0.161264,
2,1,0,1,0,38508.8,0.163102,0.162809,0.634139,20,0.0130328,10,0.000103243,-3.19782,-0.164176,-0.35937,-8.9082,0.162809,
2,1,0,1,0,38509,0.164601,0.164258,0.621748,20,0.0131293,10,0.000102127,-3.20639,-0.180841,-0.326253,-7.92502,0.164258,
2,1,0,1,0,38509.1,0.166099,0.165744,0.61118,20,0.0132238,10,0.000101299,-3.21383,-0.215803,-0.273397,-6.53481,0.165744,
2,1,0,1,0,38509.3,0.167597,0.167289,0.601934,20,0.0133169,10,0.000100697,-3.22045,-0.26981,-0.218672,-5.13944,0.167289,
2,1,0,1,0,38509.4,0.169095,0.168771,0.594294,20,0.0134089,10,0.0001003,-3.226,-0.283863,-0.207847,-4.82372,0.168771,
2,1,0,1,0,38509.6,0.170594,0.17024,0.586869,20,0.0134998,10,9.99089e-05,-3.23146,-0.287154,-0.205465,-4.72181,0.17024,
2,1,0,1,0,38509.7,0.172091,0.171766,0.578071,20,0.0135895,10,9.92928e-05,-3.23802,-0.358979,-0.164355,-3.72767,0.171766,
2,1,0,1,0,38509.8,0.173589,0.173219,0.574791,20,0.0136783,10,9.95645e-05,-3.24049,-0.486568,-0.121257,-2.72123,0.173219,
2,1,0,1,0,38510,0.175088,0.174772,0.571125,20,0.0137665,10,9.98167e-05,-3.24327,-0.447433,-0.131863,-2.93758,0.174772,
2,1,0,1,0,38510.1,0.176586,0.176268,0.566272,20,0.0138539,10,9.98159e-05,-3.24697,-0.388502,-0.151866,-3.3499,0.176268,
2,1,0,1,0,38510.3,0.178084,0.177776,0.560783,20,0.0139407,10,9.9694e-05,-3.2512,-0.459002,-0.12854,-2.81852,0.177776,
2,1,0,1,0,38510.4,0.179582,0.179251,0.557674,20,0.0140267,10,9.99638e-05,-3.25362,-0.504863,-0.116863,-2.55151,0.179251,
2,1,0,1,0,38510.6,0.181081,0.18077,0.55525,20,0.0141124,10,0.000100373,-3.25551,-0.562616,-0.104867,-2.27379,0.18077,
2,1,0,1,0,38510.7,0.182579,0.18223,0.551402,20,0.0141977,10,0.000100482,-3.25853,-0.556333,-0.106052,-2.28381,0.18223,
2,1,0,1,0,38510.9,0.184077,0.183746,0.550212,20,0.0142825,10,0.0001011,-3.25947,-0.546689,-0.107922,-2.31687,0.1837464,
2,1,0,1,0,38511,0.185576,0.185233,0.545919,20,0.0143667,10,0.000101122,-3.26287,-1.1523,-0.0512018,-1.0933,0.1852331,
2,1,0,1,0,38511.2,0.187074,0.186756,0.544729,20,0.0144506,10,0.000101731,-3.26382,-1.14127,-0.051697,-1.09844,0.186756,
2,1,0,1,0,38511.3,0.188571,0.188239,0.54322,20,0.0145343,10,0.000102255,-3.26502,-1.27081,-0.0464272,-0.983075,0.188239,
2,1,0,1,0,38511.5,0.19007,0.189779,0.540569,20,0.0146178,10,0.000102589,-3.26715,-1.27634,-0.046226,-0.973563,0.189779,
2,1,0,1,0,38511.6,0.191568,0.19121,0.538858,20,0.0147007,10,0.000103035,-3.26853,-2.00487,-0.0294284,-0.618934,0.19121,
2,1,0,1,0,38511.8,0.193066,0.192728,0.536679,20,0.0147836,10,0.000103433,-3.27029,-1.91724,-0.0307735,-0.643862,0.192728,
2,1,0,1,0,38511.9,0.194564,0.194209,0.536476,20,0.0148662,10,0.000104189,-3.27045,-0.961408,-0.0613683,-1.28162,0.194209,
2,1,0,1,0,38512.1,0.196063,0.19576,0.533581,20,0.0149486,10,0.000104454,-3.2728,-0.945205,-0.0624203,-1.30232,0.19576,
2,1,0,1,0,38512.2,0.197561,0.197227,0.5316,20,0.0150306,10,0.000104846,-3.27442,-1.07758,-0.0547523,-1.13864,0.197227,
2,1,0,1,0,38512.4,0.199059,0.198742,0.532118,20,0.0151123,10,0.000105754,-3.27399,-0.951165,-0.0620292,-1.28592,0.198742,
2,1,0,1,0,38512.5,0.200557,0.200228,0.52989,20,0.015194,10,0.000106099,-3.27581,-2.18927,-0.0269497,-0.556033,0.200228,
2,1,0,1,0,38512.7,0.202056,0.201776,0.528011,20,0.0152755,10,0.00010654,-3.27736,-1.24399,-0.0474279,-0.976221,0.201776,
2,1,0,1,0,38512.8,0.203553,0.203218,0.526561,20,0.0153568,10,0.000107007,-3.27855,-1.46062,-0.0403939,-0.830096,0.203218,
2,1,0,1,0,38513,0.205051,0.204731,0.52448,20,0.0154377,10,0.000107377,-3.28027,7.36058,0.00801567,0.165388,0.204731,
2,1,0,1,0,38513.1,0.20655,0.206245,0.523905,20,0.0155187,10,0.000108053,-3.28075,-1.48455,-0.0397428,-0.813598,0.206245,
2,1,0,1,0,38513.3,0.208048,0.207759,0.52455,20,0.0155998,10,0.00010898,-3.28021,-1.04702,-0.0563504,-1.14972,0.207759,
2,1,0,1,0,38513.4,0.209546,0.209206,0.522942,20,0.0156804,10,0.000109403,-3.28155,-1.01588,-0.0580775,-1.18413,0.209206,
2,1,0,1,0,38513.6,0.211044,0.210728,0.521564,20,0.0157607,10,0.000109908,-3.28269,-1.49723,-0.039406,-0.802831,0.210728,
2,1,0,1,0,38513.7,0.212543,0.212237,0.521962,20,0.0158409,10,0.00011078,-3.28236,-2.19022,-0.026938,-0.546473,0.212237,
2,1,0,1,0,38513.9,0.214041,0.213723,0.516838,20,0.0159211,10,0.00011046,-3.28665,-2.50178,-0.0235832,-0.477672,0.213723,
2,1,0,1,0,38514,0.215539,0.215221,0.518899,20,0.0160011,10,0.000111678,-3.28492,-1.54642,-0.0381526,-0.772659,0.215221,
2,1,0,1,0,38514.2,0.217038,0.21673,0.515961,20,0.0160809,10,0.000111824,-3.28738,-5.77722,-0.0102125,-0.206747,0.21673,
2,1,0,1,0,38514.3,0.218535,0.218231,0.517462,20,0.0161605,10,0.000112926,-3.28612,5.52256,0.0106834,0.215341,0.2182309,
2,1,0,1,0,38514.5,0.220033,0.219749,0.516524,20,0.0162403,10,0.000113505,-3.28691,-4.52609,-0.0130355,-0.262521,0.219749,
2,1,0,1,0,38514.6,0.221532,0.221228,0.516606,20,0.0163199,10,0.000114287,-3.28684,-1.88357,-0.0313235,-0.629666,0.221228,
2,1,0,1,0,38514.8,0.22303,0.222724,0.511874,20,0.0163993,10,0.000114006,-3.29084,-1.48049,-0.0398517,-0.800267,0.222724,
2,1,0,1,0,38514.9,0.224528,0.22423,0.513455,20,0.0164784,10,0.000115132,-3.2895,-2.6358,-0.0223841,-0.448405,0.22423,
2,1,0,1,0,38515.1,0.226026,0.225724,0.514062,20,0.0165576,10,0.000116036,-3.28898,-1.75201,-0.0336756,-0.673236,0.225724,
2,1,0,1,0,38515.2,0.227524,0.227183,0.512527,20,0.0166366,10,0.000116437,-3.29028,-1.16145,-0.0507984,-1.01467,0.227183,
2,1,0,1,0,38515.4,0.229023,0.22869,0.510122,20,0.0167155,10,0.00011666,-3.29233,-3.84674,-0.0153377,-0.306189,0.2286896,
2,1,0,1,0,38515.5,0.230521,0.230216,0.511017,20,0.0167941,10,0.000117644,-3.29156,-2.9872,-0.0197509,-0.394352,0.230216,
2,1,0,1,0,38515.7,0.232019,0.231709,0.509803,20,0.0168727,10,0.000118126,-3.2926,-6.10688,-0.00966123,-0.192129,0.231709,
2,1,0,1,0,38515.8,0.233518,0.233205,0.510269,20,0.0169514,10,0.000118998,-3.2922,-1.51516,-0.0389398,-0.772873,0.233205,
2,1,0,1,0,38516,0.235015,0.234715,0.509167,20,0.0170298,10,0.000119509,-3.29314,-6.13495,-0.00961703,-0.190465,0.234715,
2,1,0,1,0,38516.1,0.236513,0.236198,0.508426,20,0.017108,10,0.000120089,-3.29377,-4.6772,-0.0126144,-0.25015,0.236198,
2,1,0,1,0,38516.3,0.238012,0.237689,0.50693,20,0.0171863,10,0.000120492,-3.29505,-6.3313,-0.00931879,-0.184248,0.237689,
2,1,0,1,0,38516.4,0.23951,0.23918,0.506191,20,0.0172645,10,0.000121071,-3.29569,14.3406,0.00411419,0.0812878,0.23918,
2,1,0,1,0,38516.6,0.241008,0.240681,0.504948,20,0.0173425,10,0.000121531,-3.29675,-1.07713,-0.054775,-1.08067,0.240681,
2,1,0,1,0,38516.7,0.242506,0.242195,0.503864,20,0.0174203,10,0.000122033,-3.29769,-5.29147,-0.01115,-0.21998,0.242195,
2,1,0,1,0,38516.9,0.244005,0.243659,0.503691,20,0.017498,10,0.000122729,-3.29784,6.08985,0.00968825,0.190419,0.243659,
2,1,0,1,0,38517,0.245503,0.245203,0.504925,20,0.0175758,10,0.000123809,-3.29677,-2.02395,-0.0291509,-0.572863,0.245203,
2,1,0,1,0,38517.2,0.247001,0.246719,0.502822,20,0.0176535,10,0.000124056,-3.29859,-1.52171,-0.0387721,-0.759409,0.246719,
2,1,0,1,0,38517.3,0.2485,0.24819,0.501503,20,0.017731,10,0.000124468,-3.29973,-2.26677,-0.0260282,-0.509631,0.24819,
2,1,0,1,0,38517.5,0.249997,0.249651,0.500914,20,0.0178082,10,0.000125054,-3.30024,-1.93825,-0.0304398,-0.595032,0.249651,
2,1,0,1,0,38517.6,0.251495,0.25116,0.500896,20,0.0178855,10,0.000125805,-3.30025,-3.39303,-0.0173886,-0.340158,0.25116,
2,1,0,1,0,38517.8,0.252994,0.252701,0.499468,20,0.0179627,10,0.000126216,-3.30149,-1.6108,-0.0366277,-0.712765,0.252701,
2,1,0,1,0,38517.9,0.254492,0.254157,0.498947,20,0.0180398,10,0.000126811,-3.30195,-1.22449,-0.0481832,-0.940012,0.254157,
2,1,0,1,0,38518.1,0.25599,0.255691,0.498641,20,0.0181166,10,0.000127498,-3.30221,-3.63647,-0.0162245,-0.315489,0.255691,
2,1,0,1,0,38518.2,0.257488,0.257174,0.497616,20,0.0181934,10,0.000127974,-3.30311,-3.60155,-0.0163818,-0.317839,0.257174,
2,1,0,1,0,38518.4,0.258987,0.258684,0.497348,20,0.0182703,10,0.000128656,-3.30334,-1.9645,-0.0300331,-0.581885,0.258684,
2,1,0,1,0,38518.5,0.260485,0.260203,0.49741,20,0.0183469,10,0.000129427,-3.30329,-1.21133,-0.0487068,-0.943548,0.260203,
2,1,0,1,0,38518.7,0.261983,0.261634,0.495104,20,0.0184233,10,0.000129536,-3.3053,-1.62264,-0.0363606,-0.702426,0.261634,
2,1,0,1,0,38518.8,0.263481,0.263186,0.496461,20,0.0184997,10,0.000130661,-3.30411,3.8149,0.0154657,0.298795,0.263186,
2,1,0,1,0,38519,0.26498,0.264674,0.494758,20,0.0185761,10,0.000130949,-3.30561,-2.65969,-0.0221831,-0.428533,0.264674,
2,1,0,1,0,38519.1,0.266477,0.266123,0.493561,20,0.0186523,10,0.000131348,-3.30666,-4.46425,-0.0132161,-0.254722,0.266123,
2,1,0,1,0,38519.3,0.267976,0.267653,0.490843,20,0.0187284,10,0.000131376,-3.30906,-3.66527,-0.016097,-0.309296,0.2676532,
2,1,0,1,0,38519.4,0.269474,0.269146,0.492357,20,0.0188043,10,0.000132516,-3.30772,-15.0635,-0.00391675,-0.0751658,0.2691462,
2,1,0,1,0,38519.6,0.270972,0.270593,0.492389,20,0.0188802,10,0.000133237,-3.30769,-1.18059,-0.0499748,-0.956595,0.270593,
2,1,0,1,0,38519.7,0.27247,0.272182,0.491521,20,0.018956,10,0.000133783,-3.30846,-1.32589,-0.0444984,-0.851358,0.272182,
2,1,0,1,0,38519.9,0.273968,0.273624,0.48761,20,0.0190316,10,0.000133422,-3.31193,-1.61304,-0.0365769,-0.698286,0.2736243,
2,1,0,1,0,38520,0.275467,0.275119,0.487884,20,0.019107,10,0.000134226,-3.31168,-1.52873,-0.0385942,-0.737314,0.275119,
2,1,0,1,0,38520.2,0.276965,0.276668,0.487325,20,0.0191824,10,0.000134827,-3.31218,-1.83521,-0.032149,-0.612581,0.276668,
2,1,0,1,0,38520.3,0.278463,0.278137,0.487737,20,0.0192577,10,0.000135658,-3.31181,-0.857234,-0.068826,-1.30426,0.278137,
2,1,0,1,0,38520.5,0.279962,0.279644,0.485217,20,0.0193328,10,0.000135688,-3.31406,-1.69385,-0.0348319,-0.661287,0.279644,
2,1,0,1,0,38520.6,0.281459,0.281171,0.487105,20,0.0194076,10,0.00013696,-3.31238,-5.73028,-0.0102962,-0.195284,0.281171,
2,1,0,1,0,38520.8,0.282957,0.282601,0.483675,20,0.0194824,10,0.000136687,-3.31545,4.78734,0.0123242,0.232525,0.282601,
2,1,0,1,0,38520.9,0.284456,0.284141,0.484957,20,0.0195573,10,0.000137796,-3.3143,-1.65492,-0.0356513,-0.671581,0.284141,
2,1,0,1,0,38521.1,0.285954,0.285652,0.481951,20,0.019632,10,0.00013767,-3.317,-4.26013,-0.0138494,-0.260945,0.285652,
2,1,0,1,0,38521.2,0.287452,0.287148,0.481568,20,0.0197064,10,0.000138281,-3.31734,-1.6355,-0.0360746,-0.680201,0.2871477,
2,1,0,1,0,38521.4,0.28895,0.288668,0.480885,20,0.0197807,10,0.000138816,-3.31796,3.71,0.015903,0.298543,0.2886683,
2,1,0,1,0,38521.5,0.290449,0.290161,0.481029,20,0.0198549,10,0.000139576,-3.31783,-1.74229,-0.0338635,-0.635644,0.290161,
2,1,0,1,0,38521.7,0.291947,0.291594,0.479954,20,0.0199291,10,0.000139952,-3.3188,-1.49913,-0.0393562,-0.736602,0.291594,
2,1,0,1,0,38521.8,0.293445,0.29315,0.477443,20,0.020003,10,0.000139962,-3.32108,-1.86256,-0.0316768,-0.592734,0.29315,
2,1,0,1,0,38522,0.294943,0.294636,0.478036,20,0.0200768,10,0.000140847,-3.32054,-2.63462,-0.0223941,-0.41735,0.294636,
2,1,0,1,0,38522.1,0.296442,0.296159,0.480994,20,0.0201507,10,0.00014245,-3.31786,-1.7497,-0.0337201,-0.628596,0.296159,
2,1,0,1,0,38522.3,0.297939,0.297623,0.477151,20,0.0202244,10,0.000142011,-3.32134,-1.33903,-0.0440617,-0.817471,0.297623,
2,1,0,1,0,38522.4,0.299437,0.299127,0.474596,20,0.0202979,10,0.000141965,-3.32368,-0.00262998,-22.4336,-207.46,0.299127,
2,1,0,1,0,38522.5,0.299738,0.299439,0.251206,20,0.0203334,10,7.52211e-05,-3.59997,0.000702164,84.0259,417.302,0.299439,
2,1,0,1,0,38522.7,0.29824,0.297931,0.00853823,20,0.0203439,10,2.5438e-06,-5.06863,0.00367002,16.0762,138.13,0.297931,
2,0,0,1,0,38522.8,0.296741,0.296436,-0.032593,20,0.0203394,10,-9.66174e-06,-4.48688,-0.0182321,-3.23605,25.3198,0.2964358,
2,0,0,1,0,38523,0.295243,0.294952,-0.0571921,20,0.0203301,10,-1.6869e-05,-4.24266,-0.00731606,-8.06445,14.2601,0.294952,
2,0,0,1,0,38523.1,0.293745,0.293406,-0.0753249,20,0.0203179,10,-2.21008e-05,-4.12306,-0.015568,-3.78982,10.4978,0.293406,
2,0,0,1,0,38523.3,0.292246,0.291904,-0.0895856,20,0.0203034,10,-2.61504e-05,-4.04776,-0.0221193,-2.66736,8.92869,0.291904,
2,0,0,1,0,38523.4,0.290748,0.290396,-0.102395,20,0.0202868,10,-2.97349e-05,-3.98972,-0.0283339,-2.08231,7.94861,0.290396,
2,0,0,1,0,38523.6,0.28925,0.288944,-0.112942,20,0.0202684,10,-3.26339e-05,-3.94714,-0.0373311,-1.58045,6.9068,0.288944,
2,0,0,1,0,38523.7,0.287752,0.287429,-0.123752,20,0.0202486,10,-3.55698e-05,-3.90745,-0.0488131,-1.20869,5.73241,0.287429,
2,0,0,1,0,38523.9,0.286253,0.285933,-0.130985,20,0.0202274,10,-3.74529e-05,-3.88278,-0.0526784,-1.12,5.72067,0.285933,
2,0,0,1,0,38524,0.284755,0.284453,-0.138738,20,0.020205,10,-3.94643e-05,-3.85781,-0.0533682,-1.10553,5.94793,0.284453,
2,0,0,1,0,38524.2,0.283258,0.282966,-0.149243,20,0.0201812,10,-4.22306e-05,-3.82611,-0.0648976,-0.909125,5.23126,0.2829659,
2,0,0,1,0,38524.3,0.281759,0.28141,-0.155427,20,0.0201563,10,-4.37386e-05,-3.80847,-0.0768207,-0.768022,4.57594,0.2814098,
2,0,0,1,0,38524.5,0.280261,0.279949,-0.158604,20,0.0201305,10,-4.44009e-05,-3.79969,-0.0890079,-0.662862,4.16865,0.279949,
2,0,0,1,0,38524.6,0.278763,0.278428,-0.167644,20,0.0201038,10,-4.66767e-05,-3.77561,-0.0973584,-0.606009,3.92753,0.278428,
2,0,0,1,0,38524.8,0.277264,0.276987,-0.17323,20,0.0200761,10,-4.79823e-05,-3.76138,-0.104774,-0.563118,3.78685,0.276987,
2,0,0,1,0,38524.9,0.275766,0.27543,-0.177455,20,0.0200475,10,-4.88765e-05,-3.75091,-0.143956,-0.409847,2.84233,0.27543,
2,0,0,1,0,38525.1,0.274268,0.273954,-0.184007,20,0.020018,10,-5.04094e-05,-3.73517,-0.121712,-0.484751,3.49486,0.273954,
2,0,0,1,0,38525.2,0.27277,0.27248,-0.188115,20,0.0199878,10,-5.12575e-05,-3.72558,-0.124546,-0.47372,3.5165,0.27248,
2,0,0,1,0,38525.4,0.271272,0.270942,-0.194993,20,0.0199568,10,-5.28317e-05,-3.70998,-0.13577,-0.434557,3.28858,0.2709415,
2,0,0,1,0,38525.5,0.269773,0.269461,-0.201085,20,0.0199248,10,-5.41846e-05,-3.69662,-0.144327,-0.408794,3.17623,0.269461,
2,0,0,1,0,38525.7,0.268275,0.267923,-0.206242,20,0.0198921,10,-5.52569e-05,-3.68562,-0.14815,-0.398246,3.18768,0.267923,
2,0,0,1,0,38525.8,0.266778,0.26651,-0.207929,20,0.019859,10,-5.54153e-05,-3.68208,-0.148631,-0.396957,3.24076,0.26651,
2,0,0,1,0,38526,0.265279,0.264964,-0.214881,20,0.0198249,10,-5.69357e-05,-3.6678,-0.133205,-0.442925,3.70292,0.264964,
2,0,0,1,0,38526.1,0.263781,0.26346,-0.218029,20,0.0197902,10,-5.74419e-05,-3.66149,-0.151523,-0.389379,3.32453,0.26346,
2,0,0,1,0,38526.3,0.262283,0.261945,-0.223538,20,0.0197548,10,-5.85547e-05,-3.65065,-0.194948,-0.302645,2.63623,0.261945,
2,0,0,1,0,38526.4,0.260784,0.260486,-0.224604,20,0.0197189,10,-5.85062e-05,-3.64858,-0.173301,-0.340448,3.02567,0.260486,
2,0,0,1,0,38526.6,0.259286,0.258962,-0.231859,20,0.0196823,10,-6.00428e-05,-3.63478,-0.161837,-0.364565,3.28876,0.258962,
2,0,0,1,0,38526.7,0.257788,0.257491,-0.237961,20,0.0196451,10,-6.12728e-05,-3.62349,-0.230595,-0.25586,2.34714,0.257491,
2,0,0,1,0,38526.9,0.25629,0.255957,-0.239147,20,0.0196072,10,-6.12114e-05,-3.62133,-0.319531,-0.184645,1.71971,0.255957,
2,0,0,1,0,38527,0.254791,0.254506,-0.241829,20,0.0195688,10,-6.15469e-05,-3.61649,-0.229596,-0.256973,2.4364,0.254506,
2,0,0,1,0,38527.2,0.253293,0.252936,-0.247307,20,0.0195299,10,-6.25528e-05,-3.60676,-0.261487,-0.225633,2.18431,0.252936,
2,0,0,1,0,38527.3,0.251796,0.251474,-0.250002,20,0.0194905,10,-6.28689e-05,-3.60206,-0.240848,-0.244968,2.39452,0.2514739,
2,0,0,1,0,38527.5,0.250297,0.250015,-0.253152,20,0.0194504,10,-6.32919e-05,-3.59662,-0.309337,-0.19073,1.88451,0.250015,
2,0,0,1,0,38527.6,0.248799,0.248474,-0.25657,20,0.0194098,10,-6.3751e-05,-3.59079,-0.250191,-0.23582,2.37115,0.248474,
2,0,0,1,0,38527.8,0.247301,0.246969,-0.260454,20,0.0193689,10,-6.43241e-05,-3.58427,-0.235269,-0.250777,2.55592,0.2469689,
2,0,0,1,0,38527.9,0.245802,0.245458,-0.264017,20,0.0193274,10,-6.48051e-05,-3.57837,-0.258237,-0.228472,2.34826,0.245458,
2,0,0,1,0,38528.1,0.244304,0.243965,-0.268941,20,0.0192851,10,-6.56121e-05,-3.57034,-0.284436,-0.207428,2.16448,0.243965,
2,0,0,1,0,38528.2,0.242806,0.242474,-0.272306,20,0.0192426,10,-6.60272e-05,-3.56494,-0.337008,-0.17507,1.8488,0.242474,
2,0,0,1,0,38528.4,0.241308,0.240997,-0.273302,20,0.0191996,10,-6.58648e-05,-3.56336,-0.369011,-0.159887,1.71183,0.240997,
2,0,0,1,0,38528.5,0.23981,0.239489,-0.276379,20,0.0191562,10,-6.61896e-05,-3.5585,-0.212337,-0.277861,2.9984,0.239489,
2,0,0,1,0,38528.7,0.238311,0.237927,-0.279496,20,0.0191122,10,-6.64997e-05,-3.55362,-0.302818,-0.194836,2.13242,0.237927,
2,0,0,1,0,38528.8,0.236814,0.236449,-0.284084,20,0.0190677,10,-6.71712e-05,-3.54655,-0.310102,-0.19026,2.10754,0.236449,
2,0,0,1,0,38529,0.235316,0.235024,-0.28335,20,0.0190228,10,-6.65942e-05,-3.54768,-0.333277,-0.17703,1.97947,0.235024,
2,0,0,1,0,38529.1,0.233817,0.233464,-0.288487,20,0.0189775,10,-6.73512e-05,-3.53987,-0.280615,-0.210253,2.36909,0.233464,
2,0,0,1,0,38529.3,0.232319,0.23202,-0.293001,20,0.0189316,10,-6.79822e-05,-3.53313,-0.328335,-0.179695,2.04464,0.23202,
2,0,0,1,0,38529.4,0.230821,0.230524,-0.295557,20,0.0188853,10,-6.8133e-05,-3.52936,-0.476253,-0.123884,1.4189,0.230524,
2,0,0,1,0,38529.6,0.229322,0.229018,-0.297285,20,0.0188385,10,-6.80838e-05,-3.52683,-0.357433,-0.165066,1.92204,0.229018,
2,0,0,1,0,38529.7,0.227824,0.227472,-0.300704,20,0.0187914,10,-6.84018e-05,-3.52186,-0.318308,-0.185355,2.18715,0.227472,
2,0,0,1,0,38529.9,0.226326,0.226,-0.304517,20,0.0187438,10,-6.8821e-05,-3.51639,-0.348071,-0.169506,2.0122,0.226,
2,0,0,1,0,38530,0.224828,0.224501,-0.307088,20,0.0186956,10,-6.89415e-05,-3.51274,-0.48633,-0.121317,1.44787,0.224501,
2,0,0,1,0,38530.2,0.223329,0.223015,-0.311267,20,0.0186471,10,-6.94171e-05,-3.50687,-0.354099,-0.16662,2.01482,0.223015,
2,0,0,1,0,38530.3,0.221831,0.221538,-0.312665,20,0.0185983,10,-6.92672e-05,-3.50492,-0.284105,-0.20767,2.53067,0.221538,
2,0,0,1,0,38530.5,0.220334,0.220042,-0.316548,20,0.0185488,10,-6.96537e-05,-3.49956,-0.353182,-0.167053,2.05214,0.220042,
2,0,0,1,0,38530.6,0.218835,0.218531,-0.318525,20,0.0184988,10,-6.96075e-05,-3.49686,-0.338537,-0.174279,2.16531,0.218531,
2,0,0,1,0,38530.8,0.217337,0.217044,-0.320565,20,0.0184484,10,-6.95768e-05,-3.49408,-0.7543,-0.0782182,0.981628,0.217044,
2,0,0,1,0,38530.9,0.215839,0.215513,-0.324402,20,0.0183979,10,-6.99129e-05,-3.48892,-0.436228,-0.13525,1.71423,0.215513,
2,0,0,1,0,38531.1,0.21434,0.214006,-0.325539,20,0.0183467,10,-6.96673e-05,-3.4874,-0.268965,-0.219359,2.78357,0.214006,
2,0,0,1,0,38531.2,0.212842,0.212489,-0.330592,20,0.0182951,10,-7.0247e-05,-3.48071,-0.421219,-0.14007,1.80932,0.212489,
2,0,0,1,0,38531.4,0.211344,0.211037,-0.332977,20,0.018243,10,-7.02704e-05,-3.47759,-0.435213,-0.135566,1.76214,0.211037,
2,0,0,1,0,38531.5,0.209846,0.209542,-0.335942,20,0.0181905,10,-7.03939e-05,-3.47374,-0.409191,-0.144187,1.8882,0.209542,
2,0,0,1,0,38531.7,0.208348,0.208001,-0.339599,20,0.0181376,10,-7.0637e-05,-3.46903,-0.332326,-0.177537,2.35304,0.208001,
2,0,0,1,0,38531.8,0.206849,0.206533,-0.346302,20,0.0180841,10,-7.15227e-05,-3.46055,-0.367382,-0.160596,2.14588,0.206533,
2,0,0,1,0,38532,0.205352,0.205009,-0.34512,20,0.01803,10,-7.07525e-05,-3.46203,-0.487214,-0.121097,1.62683,0.205009,
2,0,0,1,0,38532.1,0.203854,0.20352,-0.349826,20,0.0179756,10,-7.11967e-05,-3.45615,-0.554843,-0.106336,1.44855,0.20352,
2,0,0,1,0,38532.3,0.202355,0.202009,-0.351961,20,0.0179209,10,-7.10991e-05,-3.45351,-0.34797,-0.169555,2.32517,0.202009,
2,0,0,1,0,38532.4,0.200857,0.200524,-0.354543,20,0.0178657,10,-7.10944e-05,-3.45033,-0.382236,-0.154355,2.13766,0.200524,
2,0,0,1,0,38532.6,0.199359,0.199011,-0.358356,20,0.0178098,10,-7.13168e-05,-3.44569,-0.48578,-0.121454,1.68933,0.199011,
2,0,0,1,0,38532.7,0.19786,0.197527,-0.361254,20,0.0177537,10,-7.13575e-05,-3.44219,-0.419247,-0.140729,1.98568,0.197527,
2,0,0,1,0,38532.9,0.196362,0.196041,-0.363188,20,0.0176971,10,-7.11997e-05,-3.43987,-0.38433,-0.153514,2.18279,0.196041,
2,0,0,1,0,38533,0.194864,0.194537,-0.369401,20,0.0176399,10,-7.18623e-05,-3.4325,-0.353367,-0.166965,2.39604,0.194537,
2,0,0,1,0,38533.2,0.193366,0.193024,-0.371636,20,0.0175821,10,-7.17347e-05,-3.42988,-0.397788,-0.14832,2.14247,0.193024,
2,0,0,1,0,38533.3,0.191867,0.191531,-0.375875,20,0.0175239,10,-7.19918e-05,-3.42496,-0.47357,-0.124585,1.82762,0.191531,
2,0,0,1,0,38533.5,0.190369,0.190046,-0.376404,20,0.0174653,10,-7.15342e-05,-3.42435,-0.309711,-0.1905,2.81123,0.190046,
2,0,0,1,0,38533.6,0.188872,0.188526,-0.381654,20,0.0174062,10,-7.19518e-05,-3.41833,-0.256,-0.230469,3.43376,0.188526,
2,0,0,1,0,38533.8,0.187373,0.187076,-0.383901,20,0.0173464,10,-7.18186e-05,-3.41578,-0.30793,-0.191602,2.87438,0.187076,
2,0,0,1,0,38533.9,0.185875,0.185543,-0.388853,20,0.017286,10,-7.21489e-05,-3.41021,-0.307752,-0.191713,2.91263,0.185543,
2,0,0,1,0,38534.1,0.184377,0.184106,-0.390249,20,0.0172252,10,-7.18471e-05,-3.40866,-0.414517,-0.142334,2.1785,0.184106,
2,0,0,1,0,38534.2,0.182878,0.182558,-0.396771,20,0.0171638,10,-7.24336e-05,-3.40146,-0.398178,-0.148175,2.2989,0.182558,
2,0,0,1,0,38534.4,0.18138,0.181066,-0.400331,20,0.0171018,10,-7.24863e-05,-3.39758,-0.274809,-0.214695,3.36121,0.181066,
2,0,0,1,0,38534.5,0.179882,0.179551,-0.40625,20,0.0170391,10,-7.29428e-05,-3.39121,-0.531002,-0.111111,1.75643,0.179551,
2,0,0,1,0,38534.7,0.178384,0.178089,-0.409554,20,0.0169758,10,-7.29371e-05,-3.38769,-0.376232,-0.156818,2.50471,0.178089,
2,0,0,1,0,38534.8,0.176886,0.176565,-0.414907,20,0.016912,10,-7.32582e-05,-3.38205,-0.336339,-0.175418,2.83897,0.176565,
2,0,0,1,0,38535,0.175387,0.175042,-0.417965,20,0.0168474,10,-7.31614e-05,-3.37886,-0.263075,-0.224271,3.65894,0.175042,
2,0,0,1,0,38535.1,0.17389,0.173567,-0.423124,20,0.016782,10,-7.34402e-05,-3.37353,-0.261226,-0.225858,3.73408,0.173567,
2,0,0,1,0,38535.3,0.172392,0.17206,-0.427782,20,0.0167159,10,-7.36044e-05,-3.36878,-0.257806,-0.228854,3.82368,0.1720603,
2,0,0,1,0,38535.4,0.170893,0.170522,-0.435428,20,0.016649,10,-7.42501e-05,-3.36108,-0.230148,-0.256357,4.34414,0.170522,
2,0,0,1,0,38535.6,0.169395,0.169076,-0.439595,20,0.0165812,10,-7.43247e-05,-3.35695,-0.21219,-0.278052,4.7711,0.169076,
2,0,0,1,0,38535.7,0.167897,0.167542,-0.446261,20,0.0165123,10,-7.47676e-05,-3.35041,-0.230492,-0.255975,4.46855,0.167542,
2,0,0,1,0,38535.9,0.166398,0.166125,-0.452548,20,0.0164425,10,-7.51793e-05,-3.34434,-0.241605,-0.2442,4.31817,0.166125,
2,0,0,1,0,38536,0.1649,0.164547,-0.458472,20,0.0163718,10,-7.54401e-05,-3.33869,-0.2459,-0.239934,4.32647,0.164547,
2,0,0,1,0,38536.2,0.163402,0.163049,-0.46851,20,0.0163,10,-7.63903e-05,-3.32928,-0.182665,-0.322995,5.88732,0.163049,
2,0,0,1,0,38536.3,0.161904,0.161593,-0.476905,20,0.0162268,10,-7.70648e-05,-3.32157,-0.186314,-0.316669,5.88129,0.161593,
2,0,0,1,0,38536.5,0.160405,0.160123,-0.485731,20,0.0161524,10,-7.77767e-05,-3.3136,-0.19634,-0.3005,5.6821,0.160123,
2,0,0,1,0,38536.6,0.158907,0.1586,-0.493108,20,0.0160766,10,-7.8207e-05,-3.30706,-0.159608,-0.369656,7.14919,0.1586,
2,0,0,1,0,38536.8,0.15741,0.157086,-0.504214,20,0.0159995,10,-7.92049e-05,-3.29739,-0.149128,-0.395633,7.82767,0.157086,
2,0,0,1,0,38536.9,0.155911,0.155568,-0.515756,20,0.0159205,10,-8.02353e-05,-3.28756,-0.150627,-0.391695,7.91602,0.155568,
2,0,0,1,0,38537.1,0.154413,0.154068,-0.529631,20,0.0158397,10,-8.15991e-05,-3.27603,-0.148356,-0.397692,8.21296,0.154068,
2,0,0,1,0,38537.2,0.152915,0.152547,-0.543044,20,0.0157568,10,-8.28398e-05,-3.26517,-0.122923,-0.479977,10.1947,0.152547,
2,0,0,1,0,38537.4,0.151417,0.151107,-0.558641,20,0.015672,10,-8.44147e-05,-3.25287,-0.11829,-0.498775,10.903,0.151107,
2,0,0,1,0,38537.5,0.149918,0.149617,-0.576848,20,0.0155845,10,-8.63064e-05,-3.23894,-0.105775,-0.557789,12.5528,0.149617,
2,0,0,1,0,38537.7,0.14842,0.148056,-0.597004,20,0.0154942,10,-8.83901e-05,-3.22402,-0.0979959,-0.602066,14.0423,0.148056,
2,0,0,1,0,38537.8,0.146922,0.146569,-0.619112,20,0.0154007,10,-9.07423e-05,-3.20823,-0.0953454,-0.618803,14.9575,0.146569,
2,0,0,1,0,38538,0.145424,0.145077,-0.641293,20,0.015304,10,-9.30366e-05,-3.19294,-0.0890078,-0.662863,16.6576,0.145077,
2,0,0,1,0,38538.1,0.143925,0.143586,-0.666885,20,0.0152035,10,-9.57553e-05,-3.17595,-0.0787119,-0.749569,19.5876,0.143586,
2,0,0,1,0,38538.3,0.142428,0.142115,-0.698753,20,0.0150987,10,-9.93033e-05,-3.15568,-0.0775117,-0.761175,20.7507,0.142115,
2,0,0,1,0,38538.4,0.14093,0.140578,-0.728784,20,0.0149893,10,-0.000102451,-3.1374,-0.0808869,-0.729414,20.7751,0.140578,
2,0,0,1,0,38538.6,0.139431,0.139175,-0.758247,20,0.0148753,10,-0.000105529,-3.12019,-0.0782166,-0.754316,22.4014,0.1391754,
2,0,0,1,0,38538.7,0.137933,0.137606,-0.795628,20,0.0147563,10,-0.000109483,-3.09929,-0.0774544,-0.761738,23.6401,0.137606,
2,0,0,1,0,38538.9,0.136435,0.136081,-0.831873,20,0.0146319,10,-0.000113202,-3.07994,-0.0793379,-0.743654,24.0743,0.136081,
2,0,0,1,0,38539,0.134936,0.134604,-0.868436,20,0.0145021,10,-0.000116895,-3.06126,-0.0854384,-0.690556,23.2967,0.134604,
2,0,0,1,0,38539.2,0.133438,0.133115,-0.901898,20,0.014367,10,-0.000120056,-3.04484,-0.0895748,-0.658668,23.199,0.133115,
2,0,0,1,0,38539.3,0.13194,0.131643,-0.93721,20,0.0142268,10,-0.000123377,-3.02816,-0.0930278,-0.634219,23.2355,0.131643,
2,0,0,1,0,38539.4,0.130442,0.13008,-0.972672,20,0.0140813,10,-0.000126525,-3.01203,-0.0993033,-0.594139,22.4698,0.13008,
2,0,0,1,0,38539.6,0.128943,0.128626,-1.00639,20,0.0139303,10,-0.000129449,-2.99723,-0.112843,-0.522852,20.449,0.128626,
2,0,0,1,0,38539.7,0.127445,0.127112,-1.03524,20,0.013775,10,-0.000131592,-2.98496,-0.12641,-0.466736,18.8436,0.127112,
2,0,0,1,0,38539.9,0.125948,0.125594,-1.06405,20,0.0136154,10,-0.000133638,-2.97304,-0.131751,-0.447813,18.5433,0.125594,
2,0,0,1,0,38540,0.124449,0.124093,-1.08993,20,0.0134515,10,-0.000135253,-2.9626,-0.142086,-0.415241,17.5843,0.124093,
2,0,0,1,0,38540.2,0.122951,0.122619,-1.11388,20,0.0132838,10,-0.000136583,-2.95316,-0.172073,-0.342878,14.8583,0.122619,
2,0,0,1,0,38540.3,0.121453,0.121134,-1.13392,20,0.0131131,10,-0.000137356,-2.94542,-0.219722,-0.268521,11.8436,0.121134,
2,0,0,1,0,38540.5,0.119955,0.119618,-1.1481,20,0.0129396,10,-0.000137334,-2.94002,-0.265063,-0.222588,9.96631,0.119618,
2,0,0,1,0,38540.6,0.118456,0.118132,-1.16252,20,0.0127638,10,-0.00013733,-2.9346,-0.292081,-0.201999,9.1496,0.118132,
2,0,0,1,0,38540.8,0.116958,0.116617,-1.17809,20,0.012586,10,-0.000137386,-2.92882,-0.436535,-0.135155,6.1836,0.116617,
2,0,0,1,0,38540.9,0.11546,0.115134,-1.1847,20,0.0124067,10,-0.000136399,-2.92639,-0.760023,-0.0776292,3.57041,0.115134,
2,0,0,1,0,38541.1,0.113962,0.113625,-1.18555,20,0.0122265,10,-0.000134708,-2.92608,-1.27235,-0.0463707,2.14612,0.113625,
2,0,0,1,0,38541.2,0.112463,0.11214,-1.18778,20,0.0120461,10,-0.000133198,-2.92526,-7.56613,-0.00779791,0.361389,0.11214,
2,0,0,1,0,38541.4,0.110966,0.110662,-1.19168,20,0.0118652,10,-0.000131874,-2.92384,-3.48141,-0.0169471,0.785593,0.110662,
2,0,0,1,0,38541.5,0.109468,0.109119,-1.18894,20,0.0116845,10,-0.000129736,-2.92484,0.896687,0.0657978,-3.0445,0.109119,
2,0,0,1,0,38541.7,0.107969,0.107615,-1.18354,20,0.011504,10,-0.000127366,-2.92682,0.909072,0.0649013,-2.999,0.1076145,
2,0,0,1,0,38541.8,0.106471,0.106151,-1.17778,20,0.0113247,10,-0.000125023,-2.92894,0.811314,0.0727216,-3.3512,0.106151,
2,0,0,1,0,38542,0.104973,0.104656,-1.17298,20,0.0111459,10,-0.000122759,-2.93071,0.777892,0.075846,-3.47606,0.104656,
2,0,0,1,0,38542.1,0.103474,0.103169,-1.17012,20,0.0109677,10,-0.000120721,-2.93177,0.66725,0.0884227,-4.02748,0.103169,
2,0,0,1,0,38542.3,0.101976,0.101668,-1.16384,20,0.0107904,10,-0.000118325,-2.93411,0.527627,0.111821,-5.06872,0.101668,
2,0,0,1,0,38542.4,0.100478,0.100125,-1.15535,20,0.0106145,10,-0.000115679,-2.93729,0.483764,0.12196,-5.50156,0.100125,
2,0,0,1,0,38542.6,0.0989798,0.0986742,-1.14812,20,0.0104396,10,-0.00011329,-2.94001,0.685313,0.0860921,-3.85478,0.0986742,
2,0,0,1,0,38542.7,0.0974808,0.0971577,-1.14414,20,0.0102656,10,-0.000111162,-2.94152,0.658441,0.0896056,-3.99333,0.0971577,
2,0,0,1,0,38542.9,0.0959833,0.0956645,-1.13472,20,0.0100926,10,-0.000108552,-2.94511,0.539997,0.10926,-4.8372,0.0956645,
2,0,0,1,0,38543,0.0944857,0.0941215,-1.12475,20,0.00992084,10,-0.000105863,-2.94894,0.504886,0.116858,-5.14479,0.0941215,
2,0,0,1,0,38543.2,0.0929871,0.0926129,-1.1195,20,0.00975013,10,-0.000103681,-2.95097,0.666012,0.0885869,-3.87217,0.0926129,
2,0,0,1,0,38543.3,0.0914889,0.091122,-1.11597,20,0.0095803,10,-0.00010169,-2.95235,0.609153,0.0968558,-4.20529,0.091122,
2,0,0,1,0,38543.5,0.0899907,0.0896014,-1.10665,20,0.00941136,10,-9.91577e-05,-2.95599,0.464472,0.127026,-5.47512,0.0896014,
2,0,0,1,0,38543.6,0.0884925,0.0881794,-1.09819,20,0.00924364,10,-9.68375e-05,-2.95932,0.517386,0.114035,-4.89514,0.0881794,
2,0,0,1,0,38543.8,0.0869943,0.0866927,-1.0912,20,0.0090772,10,-9.45993e-05,-2.96209,0.492493,0.119799,-5.10767,0.0866927,
2,0,0,1,0,38543.9,0.0854961,0.0852039,-1.08665,20,0.00891156,10,-9.25869e-05,-2.96391,0.54856,0.107554,-4.56006,0.0852039,
2,0,0,1,0,38544.1,0.083998,0.083678,-1.07811,20,0.00874686,10,-9.02139e-05,-2.96734,0.41069,0.143661,-6.03723,0.083678,
2,0,0,1,0,38544.2,0.0824998,0.082187,-1.07292,20,0.00858322,10,-8.81804e-05,-2.96943,0.531309,0.111046,-4.64921,0.082187,
2,0,0,1,0,38544.4,0.0810011,0.0806883,-1.06521,20,0.00842076,10,-8.595e-05,-2.97256,0.61529,0.0958898,-3.98893,0.0806883,
2,0,0,1,0,38544.5,0.0795036,0.0791897,-1.05987,20,0.00825916,10,-8.39306e-05,-2.97475,0.65715,0.0897816,-3.70936,0.0791897,
2,0,0,1,0,38544.7,0.0780061,0.0776409,-1.05405,20,0.00809841,10,-8.18377e-05,-2.97714,0.509071,0.115897,-4.75753,0.0776409,
2,0,0,1,0,38544.8,0.076507,0.076166,-1.04719,20,0.00793849,10,-7.97606e-05,-2.97997,0.570592,0.103401,-4.22041,0.076166,
2,0,0,1,0,38545,0.0750088,0.0746751,-1.03723,20,0.00778002,10,-7.74554e-05,-2.98412,0.526577,0.112044,-4.54581,0.0746751,
2,0,0,1,0,38545.1,0.0735106,0.0731831,-1.03232,20,0.00762241,10,-7.55482e-05,-2.98619,0.701099,0.0841536,-3.38813,0.0731831,
2,0,0,1,0,38545.3,0.0720124,0.0716688,-1.02619,20,0.00746563,10,-7.35458e-05,-2.98877,0.568644,0.103756,-4.16043,0.0716688,
2,0,0,1,0,38545.4,0.0705142,0.0701525,-1.01964,20,0.00730993,10,-7.15301e-05,-2.99155,0.488103,0.120876,-4.8158,0.0701525,
2,0,0,1,0,38545.6,0.069016,0.0686732,-1.00989,20,0.00715529,10,-6.93521e-05,-2.99573,0.4944,0.119336,-4.7183,0.0686732,
2,0,0,1,0,38545.7,0.0675179,0.0671854,-1.00879,20,0.00700162,10,-6.7776e-05,-2.9962,0.701512,0.0841041,-3.30907,0.0671854,
2,0,0,1,0,38545.9,0.0660188,0.0656597,-1.00508,20,0.0068486,10,-6.5993e-05,-2.9978,0.557948,0.105745,-4.12958,0.0656597,
2,0,0,1,0,38546,0.0645213,0.0641653,-0.995596,20,0.00669645,10,-6.38827e-05,-3.00192,0.543191,0.108617,-4.21332,0.0641653,
2,0,0,1,0,38546.2,0.0630237,0.0627142,-0.987144,20,0.00654544,10,-6.1908e-05,-3.00562,0.575899,0.102449,-3.95409,0.0627142,
2,0,0,1,0,38546.3,0.0615251,0.0611846,-0.982845,20,0.0063954,10,-6.0135e-05,-3.00751,0.573493,0.102878,-3.95099,0.0611846,
2,0,0,1,0,38546.5,0.0600269,0.059699,-0.976126,20,0.00624623,10,-5.82737e-05,-3.01049,0.504352,0.116982,-4.4556,0.059699,
2,0,0,1,0,38546.6,0.0585287,0.0581837,-0.969845,20,0.00609794,10,-5.64291e-05,-3.0133,0.401828,0.146829,-5.54854,0.0581837,
2,0,0,1,0,38546.8,0.0570305,0.0566991,-0.961939,20,0.00595068,10,-5.45411e-05,-3.01685,0.495524,0.119066,-4.47554,0.0566991,
2,0,0,1,0,38546.9,0.0555323,0.0551647,-0.955829,20,0.0058047,10,-5.2728e-05,-3.01962,0.5298,0.111363,-4.16381,0.0551647,
2,0,0,1,0,38547.1,0.0540342,0.0536706,-0.951644,20,0.00565943,10,-5.10753e-05,-3.02153,0.582977,0.101205,-3.75137,0.0536706,
2,0,0,1,0,38547.2,0.052536,0.0521754,-0.945048,20,0.00551485,10,-4.93083e-05,-3.02455,0.474824,0.124256,-4.58062,0.0521754,
2,0,0,1,0,38547.4,0.0510378,0.050712,-0.938432,20,0.00537135,10,-4.75898e-05,-3.0276,0.413401,0.142719,-5.21915,0.050712,
2,0,0,1,0,38547.5,0.0495391,0.0492007,-0.930257,20,0.00522905,10,-4.57693e-05,-3.0314,0.53209,0.110883,-4.03284,0.0492007,
2,0,0,1,0,38547.7,0.0480416,0.0477091,-0.922615,20,0.00508782,10,-4.40171e-05,-3.03498,0.658979,0.0895324,-3.22664,0.0477091,
2,0,0,1,0,38547.8,0.0465441,0.0462159,-0.917171,20,0.00494742,10,-4.23879e-05,-3.03755,0.516321,0.11427,-4.09554,0.0462159,
2,0,0,1,0,38548,0.045045,0.0447133,-0.910243,20,0.00480795,10,-4.07e-05,-3.04084,0.413622,0.142642,-5.06455,0.0447133,
2,0,0,1,0,38548.1,0.0435468,0.0432044,-0.901981,20,0.00466976,10,-3.89695e-05,-3.0448,0.479594,0.123021,-4.33803,0.0432044,
2,0,0,1,0,38548.3,0.0420486,0.0417166,-0.896619,20,0.00453272,10,-3.74039e-05,-3.04739,0.471264,0.125195,-4.37792,0.0417166,
2,0,0,1,0,38548.4,0.0405504,0.0402225,-0.892726,20,0.00439649,10,-3.59077e-05,-3.04928,0.459285,0.12846,-4.46599,0.0402225,
2,0,0,1,0,38548.6,0.0390523,0.0387231,-0.883321,20,0.0042612,10,-3.42049e-05,-3.05388,0.377437,0.156318,-5.37403,0.0387231,
2,0,0,1,0,38548.7,0.0375541,0.0372205,-0.875324,20,0.00412706,10,-3.258e-05,-3.05783,0.403893,0.146078,-5.00142,0.0372205,
2,0,0,1,0,38548.9,0.0360559,0.035702,-0.869022,20,0.00399425,10,-3.10258e-05,-3.06097,0.455696,0.129472,-4.39948,0.035702,
2,0,0,1,0,38549,0.0345568,0.0342556,-0.863694,20,0.00386205,10,-2.95863e-05,-3.06364,0.501033,0.117757,-3.9648,0.0342556,
2,0,0,1,0,38549.2,0.0330593,0.0327182,-0.855756,20,0.00373091,10,-2.79988e-05,-3.06765,0.376517,0.156699,-5.22578,0.0327182,
2,0,0,1,0,38549.3,0.0315618,0.0312222,-0.851028,20,0.00360078,10,-2.6571e-05,-3.07006,0.436223,0.135252,-4.48119,0.0312222,
2,0,0,1,0,38549.5,0.0300631,0.0296916,-0.841711,20,0.0034719,10,-2.49917e-05,-3.07484,0.449194,0.131346,-4.31294,0.0296916,
2,0,0,1,0,38549.6,0.0285649,0.0282081,-0.837147,20,0.00334385,10,-2.36143e-05,-3.0772,0.489468,0.120539,-3.92534,0.0282081,
2,0,0,1,0,38549.8,0.0270667,0.0267479,-0.830828,20,0.00321663,10,-2.22229e-05,-3.08049,0.459202,0.128484,-4.15643,0.02674791,
2,0,0,1,0,38549.9,0.0255685,0.0251997,-0.823558,20,0.00309034,10,-2.07534e-05,-3.08431,0.395817,0.149059,-4.79299,0.0251997,
2,0,0,1,0,38550.1,0.0240704,0.023712,-0.814668,20,0.00296527,10,-1.93174e-05,-3.08902,0.453126,0.130207,-4.15223,0.02371197,
2,0,0,1,0,38550.2,0.0225722,0.0222635,-0.811432,20,0.00284097,10,-1.80653e-05,-3.09075,0.662535,0.0890519,-2.81919,0.0222635,
2,0,0,1,0,38550.4,0.021074,0.020745,-0.805454,20,0.00271735,10,-1.67091e-05,-3.09396,0.636809,0.0926494,-2.91411,0.020745,
2,0,0,1,0,38550.5,0.0195758,0.0192604,-0.80215,20,0.00259448,10,-1.54497e-05,-3.09574,0.487407,0.121049,-3.78681,0.0192604,
2,0,0,1,0,38550.7,0.0180772,0.017786,-0.792892,20,0.00247239,10,-1.41024e-05,-3.10079,0.707463,0.0833966,-2.59051,0.017786,
2,0,0,1,0,38550.8,0.0165796,0.0162783,-0.791748,20,0.00235115,10,-1.28883e-05,-3.10141,0.81905,0.0720347,-2.22971,0.0162783,
2,0,0,1,0,38551,0.0150821,0.0147661,-0.7892,20,0.00223033,10,-1.16534e-05,-3.10281,1.02375,0.0576311,-1.77195,0.0147661,
2,0,0,1,0,38551.1,0.013583,0.0132373,-0.785525,20,0.00210977,10,-1.03982e-05,-3.10484,0.773504,0.0762762,-2.33845,0.0132373,
2,0,0,1,0,38551.3,0.0120848,0.0117601,-0.781856,20,0.00199002,10,-9.19473e-06,-3.10687,0.776227,0.0760087,-2.32327,0.0117601,
2,0,0,1,0,38551.4,0.0105866,0.0102745,-0.778655,20,0.00187081,10,-8.00029e-06,-3.10865,1.3443,0.0438891,-1.3354,0.0102745,
2,0,0,1,0,38551.6,0.00908846,0.00874857,-0.77673,20,0.00175181,10,-6.79528e-06,-3.10973,1.64446,0.0358781,-1.08773,0.00874857,
2,0,0,1,0,38551.7,0.00759027,0.00728733,-0.775729,20,0.00163304,10,-5.65299e-06,-3.11029,1.74435,0.0338234,-1.02356,0.00728733,
2,0,0,1,0,38551.9,0.00609207,0.00578474,-0.774303,20,0.00151452,10,-4.47914e-06,-3.11109,3.20834,0.0183896,-0.555652,0.00578474,
2,0,0,1,0,38552,0.00459389,0.00427366,-0.773611,20,0.00139634,10,-3.30615e-06,-3.11148,2.70541,0.0218082,-0.659045,0.00427366,
2,0,0,1,0,38552.2,0.0030948,0.0027468,-0.774584,20,0.00127798,10,-2.12763e-06,-3.11093,-0.821476,-0.0718219,2.17012,0.0027468,
2,0,0,1,0,38552.3,0.00159728,0.0012164,-0.783472,20,0.00115826,10,-9.53018e-07,-3.10598, , , ,0.0012164,
2,0,0,1,0,38552.5,0.000199195,-0.000216526,-0.776095,20,0.00104702,10,1.68045e-07,-3.11009, , , ,-0.000216526,