File: Figure_codes/Fig_3-5/rawdata_trumpetplot_data/after 10th/20221101_1-115_003_TrumpetPlot_ParaChange_from10_every3_03_CV_C01_0.csv
mode,ox/red,error,control changes,counter inc.,time/s,control/V,Ewe/V,<I>/mA,cycle number,(Q-Qo)/C,I Range,P/W,log(|I|),Tafel slope mV/dec,alpha_eff,dI/d(E-IR),E-IR/V,
2,0,0,0,0,940.015,2.44065e-05,-0.000363498,-0.0885815,1,0.0000000E+000,10,3.21992e-08,-4.05266, , , ,-0.000363498,
2,1,0,1,0,940.27,0.00129787,0.000921715,0.159988,1,3.53186e-05,10,1.47463e-07,-3.79591, , , ,0.000921715,
2,1,0,1,0,940.57,0.00279606,0.00248369,0.187085,1,9.54498e-05,10,4.64662e-07,-3.72796,0.0301796,1.95496,13.0898,0.00248369,
2,1,0,1,0,940.869,0.00429469,0.00401532,0.195874,1,0.000158755,10,7.86498e-07,-3.70802,0.130222,0.453074,3.53204,0.004015319,
2,1,0,1,0,941.169,0.00579255,0.00544353,0.20295,1,0.000224704,10,1.10476e-06,-3.69261,0.0814681,0.72421,5.70602,0.00544353,
2,1,0,1,0,941.468,0.0072904,0.00697404,0.211608,1,0.000293123,10,1.47577e-06,-3.67447,0.0927286,0.636265,5.20556,0.00697404,
2,1,0,0,0,941.768,0.00878882,0.00852589,0.218266,1,0.000363602,10,1.86091e-06,-3.66101,0.138042,0.427406,3.60687,0.00852589,
2,1,0,0,0,942.068,0.010287,0.00997971,0.222924,1,0.000435787,10,2.22472e-06,-3.65184,0.163061,0.361829,3.11227,0.00997971,
2,1,0,0,0,942.367,0.0117852,0.0114759,0.22565,1,0.000509431,10,2.58955e-06,-3.64656,0.186758,0.315917,2.80596,0.0114759,
2,1,0,1,0,942.667,0.0132836,0.0129586,0.231031,1,0.000584226,10,2.99385e-06,-3.63633,0.166283,0.354818,3.22942,0.01295862,
2,1,0,1,0,942.967,0.0147815,0.0144578,0.236676,1,0.000660508,10,3.42181e-06,-3.62584,0.196878,0.299677,2.76398,0.0144578,
2,1,0,1,0,943.266,0.0162793,0.0159672,0.239729,1,0.000738298,10,3.8278e-06,-3.62028,0.303187,0.194599,1.81117,0.0159672,
2,1,0,1,0,943.566,0.017778,0.0174566,0.243934,1,0.000817117,10,4.25826e-06,-3.61273,0.230455,0.256016,2.44265,0.0174566,
2,1,0,1,0,943.866,0.0192761,0.0189677,0.247404,1,0.000896698,10,4.69268e-06,-3.60659,0.227001,0.25991,2.50195,0.0189677,
2,1,0,1,0,944.165,0.0207747,0.0204886,0.252647,1,0.000977776,10,5.17638e-06,-3.59749,0.201713,0.292495,2.85902,0.0204886,
2,1,0,1,0,944.465,0.0222725,0.0219697,0.256571,1,0.00106,10,5.63678e-06,-3.59079,0.206028,0.286368,2.85476,0.0219697,
2,1,0,1,0,944.764,0.0237704,0.0234761,0.259286,1,0.00114337,10,6.08702e-06,-3.58622,0.234645,0.251444,2.54775,0.0234761,
2,1,0,0,0,945.064,0.0252689,0.0249081,0.262707,1,0.00122755,10,6.54353e-06,-3.58053,0.201534,0.292755,3.0113,0.0249081,
2,1,0,0,0,945.364,0.0267671,0.0264754,0.265965,1,0.00131311,10,7.04153e-06,-3.57518,0.162689,0.362654,3.76394,0.0264754,
2,1,0,1,0,945.663,0.0282657,0.0279424,0.271188,1,0.00140003,10,7.57763e-06,-3.56673,0.212978,0.277024,2.93624,0.0279424,
2,1,0,1,0,945.963,0.0297635,0.0294762,0.274907,1,0.00148817,10,8.10323e-06,-3.56081,0.244454,0.241354,2.5886,0.0294762,
2,1,0,1,0,946.263,0.0312613,0.0309679,0.276914,1,0.00157731,10,8.57545e-06,-3.55765,0.240213,0.245616,2.68034,0.0309679,
2,1,0,1,0,946.562,0.0327598,0.0324381,0.283063,1,0.00166774,10,9.18201e-06,-3.54812,0.19032,0.310004,3.42802,0.0324381,
2,1,0,1,0,946.862,0.034258,0.0339269,0.289079,1,0.00175963,10,9.80753e-06,-3.53898,0.226769,0.260176,2.93022,0.0339269,
2,1,0,1,0,947.162,0.0357567,0.0354765,0.293533,1,0.00185304,10,1.04135e-05,-3.53234,0.210956,0.279679,3.1872,0.0354765,
2,1,0,1,0,947.461,0.0372545,0.0369734,0.297704,1,0.00194769,10,1.10071e-05,-3.52621,0.244264,0.241542,2.81654,0.0369734,
2,1,0,1,0,947.761,0.0387524,0.0384005,0.302597,1,0.00204368,10,1.16199e-05,-3.51914,0.18584,0.317477,3.78465,0.0384005,
2,1,0,0,0,948.061,0.0402508,0.0399266,0.307996,1,0.00214155,10,1.22973e-05,-3.51145,0.183161,0.322122,3.89855,0.0399266,
2,1,0,0,0,948.36,0.041749,0.0414356,0.313884,1,0.00224121,10,1.3006e-05,-3.50323,0.210609,0.280141,3.4392,0.0414356,
2,1,0,0,0,948.66,0.0432472,0.0429859,0.321396,1,0.0023422,10,1.38155e-05,-3.49296,0.21451,0.275045,3.44715,0.0429859,
2,1,0,1,0,948.959,0.0447456,0.0444166,0.327304,1,0.00244478,10,1.45377e-05,-3.48505,0.191753,0.307688,3.90337,0.04441664,
2,1,0,1,0,949.259,0.0462435,0.0459222,0.33294,1,0.00254949,10,1.52893e-05,-3.47763,0.173002,0.341037,4.40293,0.0459222,
2,1,0,1,0,949.559,0.0477413,0.0474393,0.33822,1,0.00265604,10,1.60449e-05,-3.4708,0.177076,0.33319,4.40895,0.0474393,
2,1,0,1,0,949.858,0.0492399,0.0489401,0.345123,1,0.0027644,10,1.68904e-05,-3.46203,0.202885,0.290805,3.91808,0.0489401,
2,1,0,1,0,950.158,0.0507381,0.0504544,0.349296,1,0.00287428,10,1.76235e-05,-3.45681,0.183977,0.320692,4.38894,0.0504544,
2,1,0,1,0,950.458,0.0522367,0.0519013,0.357511,1,0.00298628,10,1.85553e-05,-3.44671,0.151903,0.388405,5.38335,0.0519013,
2,1,0,1,0,950.757,0.0537345,0.0534308,0.36453,1,0.00310037,10,1.94771e-05,-3.43827,0.186991,0.315523,4.47365,0.0534308,
2,1,0,1,0,951.057,0.0552323,0.0549828,0.369141,1,0.00321639,10,2.02964e-05,-3.43281,0.195212,0.302236,4.35774,0.0549828,
2,1,0,0,0,951.357,0.0567309,0.0564011,0.372883,1,0.00333404,10,2.1031e-05,-3.42843,0.209687,0.281372,4.12326,0.0564011,
2,1,0,0,0,951.656,0.0582291,0.0579016,0.383746,1,0.00345366,10,2.22195e-05,-3.41596,0.199107,0.296323,4.4164,0.0579016,
2,1,0,1,0,951.956,0.0597277,0.0594045,0.389461,1,0.00357546,10,2.31357e-05,-3.40954,0.208365,0.283157,4.3021,0.0594045,
2,1,0,1,0,952.255,0.0612255,0.0609502,0.395888,1,0.00369923,10,2.41295e-05,-3.40243,0.284807,0.207158,3.18588,0.0609502,
2,1,0,1,0,952.555,0.0627233,0.0624366,0.40073,1,0.00382487,10,2.50202e-05,-3.39715,0.203188,0.290371,4.5527,0.0624366,
2,1,0,1,0,952.855,0.0642218,0.0639343,0.406612,1,0.00395176,10,2.59964e-05,-3.39082,0.197599,0.298584,4.76672,0.0639343,
2,1,0,1,0,953.154,0.06572,0.0653965,0.413053,1,0.00408098,10,2.70123e-05,-3.38399,0.218737,0.26973,4.34744,0.06539654,
2,1,0,1,0,953.454,0.0672187,0.0669135,0.421724,1,0.00421237,10,2.8219e-05,-3.37497,0.243168,0.24263,3.95726,0.0669135,
2,1,0,1,0,953.754,0.0687165,0.0684304,0.425897,1,0.00434533,10,2.91443e-05,-3.3707,0.263391,0.224002,3.71761,0.0684304,
2,1,0,1,0,954.053,0.0702144,0.0699339,0.431144,1,0.00447944,10,3.01516e-05,-3.36538,0.261688,0.225459,3.79926,0.0699339,
2,1,0,0,0,954.353,0.0717128,0.0714228,0.435201,1,0.00461558,10,3.10833e-05,-3.36131,0.237625,0.248291,4.21117,0.0714228,
2,1,0,0,0,954.653,0.073211,0.0728979,0.440582,1,0.00475346,10,3.21175e-05,-3.35597,0.276275,0.213556,3.68326,0.0728979,
2,1,0,0,0,954.952,0.0747092,0.0744068,0.447101,1,0.00489284,10,3.32674e-05,-3.34959,0.323936,0.182135,3.17543,0.0744068,
2,1,0,1,0,955.252,0.0762076,0.0758759,0.448998,1,0.00503349,10,3.40682e-05,-3.34776,0.301873,0.195446,3.45001,0.0758759,
2,1,0,1,0,955.551,0.0777054,0.0773918,0.457503,1,0.00517587,10,3.5407e-05,-3.33961,0.283729,0.207945,3.69843,0.0773918,
2,1,0,1,0,955.851,0.0792033,0.0788686,0.46469,1,0.0053197,10,3.66495e-05,-3.33284,0.346535,0.170257,3.06429,0.0788686,
2,1,0,1,0,956.151,0.0807019,0.0804395,0.467354,1,0.00546529,10,3.75937e-05,-3.33035,0.313383,0.188268,3.41199,0.0804395,
2,1,0,1,0,956.45,0.0822001,0.0819166,0.469959,1,0.00561205,10,3.84974e-05,-3.32794,0.36506,0.161617,2.97257,0.0819166,
2,1,0,1,0,956.75,0.0836986,0.0833815,0.47611,1,0.00576004,10,3.96988e-05,-3.32229,0.337316,0.17491,3.24794,0.0833815,
2,1,0,1,0,957.05,0.0851965,0.0848817,0.481294,1,0.00590976,10,4.0853e-05,-3.31759,0.282319,0.208983,3.9279,0.0848817,
2,1,0,1,0,957.349,0.0866944,0.0864177,0.48466,1,0.00606096,10,4.18832e-05,-3.31456,0.468125,0.126035,2.38696,0.0864177,
2,1,0,0,0,957.649,0.0881929,0.0878878,0.490524,1,0.00621364,10,4.31111e-05,-3.30934,0.332334,0.177532,3.40565,0.0878878,
2,1,0,0,0,957.949,0.0896911,0.0893808,0.496138,1,0.00636743,10,4.43452e-05,-3.3044,0.308365,0.191332,3.71027,0.0893808,
2,1,0,1,0,958.248,0.0911897,0.0908753,0.502342,1,0.00652327,10,4.56504e-05,-3.299,0.286329,0.206057,4.02563,0.0908753,
2,1,0,1,0,958.548,0.0926875,0.0923722,0.508648,1,0.0066812,10,4.69849e-05,-3.29358,0.293891,0.200755,3.97637,0.0923722,
2,1,0,1,0,958.847,0.0941853,0.0938936,0.515331,1,0.0068407,10,4.83863e-05,-3.28791,0.284601,0.207308,4.17517,0.09389364,
2,1,0,1,0,959.147,0.0956838,0.095387,0.520204,1,0.00700181,10,4.96207e-05,-3.28383,0.251815,0.234299,4.77407,0.09538696,
2,1,0,1,0,959.447,0.097182,0.0968493,0.529429,1,0.00716534,10,5.12748e-05,-3.27619,0.189532,0.311293,6.41813,0.0968493,
2,1,0,1,0,959.746,0.0986806,0.0983406,0.537785,1,0.00733145,10,5.2886e-05,-3.26939,0.212042,0.278247,5.84205,0.0983406,
2,1,0,1,0,960.046,0.100179,0.0998811,0.545857,1,0.00750009,10,5.45208e-05,-3.26292,0.219413,0.268899,5.74388,0.0998811,
2,1,0,1,0,960.346,0.101676,0.101358,0.552626,1,0.00767105,10,5.6013e-05,-3.25757,0.208707,0.282694,6.13134,0.101358,
2,1,0,0,0,960.645,0.103175,0.102883,0.566462,1,0.00784506,10,5.82793e-05,-3.24683,0.185714,0.317693,7.01445,0.102883,
2,1,0,0,0,960.945,0.104673,0.104383,0.579244,1,0.00802261,10,6.04635e-05,-3.23714,0.179029,0.329555,7.40746,0.104383,
2,1,0,0,0,961.245,0.106171,0.105861,0.589776,1,0.00820366,10,6.24341e-05,-3.22931,0.18852,0.312964,7.17465,0.105861,
2,1,0,1,0,961.544,0.10767,0.107377,0.597731,1,0.00838802,10,6.41828e-05,-3.22349,0.177625,0.332161,7.7923,0.107377,
2,1,0,1,0,961.844,0.109167,0.108882,0.611537,1,0.00857554,10,6.65851e-05,-3.21358,0.17017,0.346712,8.32205,0.108882,
2,1,0,1,0,962.143,0.110665,0.110345,0.624095,1,0.00876737,10,6.88656e-05,-3.20475,0.164279,0.359146,8.76903,0.110345,
2,1,0,1,0,962.443,0.112164,0.11185,0.636395,1,0.00896318,10,7.11806e-05,-3.19627,0.192649,0.306256,7.61227,0.11185,
2,1,0,1,0,962.743,0.113662,0.113332,0.649582,1,0.00916259,10,7.36186e-05,-3.18737,0.17673,0.333842,8.45872,0.1133322,
2,1,0,1,0,963.042,0.115161,0.114832,0.664744,1,0.00936505,10,7.63339e-05,-3.17735,0.185549,0.317976,8.21721,0.114832,
2,1,0,1,0,963.342,0.116658,0.116357,0.674882,1,0.00957177,10,7.85275e-05,-3.17077,0.163699,0.360417,9.46077,0.116357,
2,1,0,1,0,963.642,0.118156,0.117856,0.687608,1,0.00978244,10,8.1039e-05,-3.16266,0.201825,0.292333,7.83017,0.117856,
2,1,0,0,0,963.941,0.119655,0.119315,0.69974,1,0.00999649,10,8.34895e-05,-3.15506,0.229261,0.257349,7.02307,0.119315,
2,1,0,0,0,964.241,0.121153,0.120866,0.70618,1,0.010213,10,8.53534e-05,-3.15108,0.221856,0.265938,7.36219,0.1208664,
2,1,0,1,0,964.541,0.122652,0.122351,0.717697,1,0.0104332,10,8.78105e-05,-3.14406,0.18743,0.314784,8.81594,0.122351,
2,1,0,1,0,964.84,0.124149,0.123874,0.730396,1,0.0106568,10,9.04769e-05,-3.13644,0.224342,0.262992,7.49294,0.123874,
2,1,0,1,0,965.14,0.125647,0.125337,0.74007,1,0.0108836,10,9.27579e-05,-3.13073,0.24731,0.238567,6.88995,0.125337,
2,1,0,1,0,965.44,0.127146,0.126811,0.744723,1,0.0111131,10,9.44391e-05,-3.12801,0.271183,0.217565,6.36668,0.126811,
2,1,0,1,0,965.739,0.128644,0.128316,0.759583,1,0.0113454,10,9.74665e-05,-3.11942,0.254381,0.231935,6.87502,0.128316,
2,1,0,1,0,966.039,0.130143,0.129846,0.771391,1,0.0115811,10,0.000100162,-3.11273,0.317095,0.186064,5.57796,0.129846,
2,1,0,1,0,966.338,0.13164,0.131313,0.779147,1,0.0118196,10,0.000102312,-3.10838,0.525575,0.112258,3.39157,0.131313,
2,1,0,1,0,966.638,0.133138,0.132883,0.783826,1,0.0120599,10,0.000104157,-3.10578,0.55325,0.106643,3.26521,0.132883,
2,1,0,0,0,966.938,0.134637,0.134357,0.788218,1,0.0123014,10,0.000105902,-3.10335,0.575821,0.102462,3.15321,0.134357,
2,1,0,0,0,967.237,0.136135,0.135851,0.794616,1,0.0125449,10,0.000107949,-3.09984,0.919182,0.0641875,1.98144,0.135851,
2,1,0,0,0,967.537,0.137633,0.137316,0.79408,1,0.0127892,10,0.00010904,-3.10014,-1.46076,-0.0403901,-1.24774,0.137316,
2,1,0,1,0,967.837,0.139132,0.138799,0.793883,1,0.0130334,10,0.00011019,-3.10024,-0.708936,-0.0832234,-2.56389,0.138799,
2,1,0,1,0,968.136,0.140629,0.140302,0.788372,1,0.0132761,10,0.00011061,-3.10327,-0.359135,-0.164284,-5.02088,0.140302,
2,1,0,1,0,968.436,0.142127,0.141805,0.777604,1,0.0135169,10,0.000110268,-3.10924,-0.266207,-0.221632,-6.69088,0.141805,
2,1,0,1,0,968.736,0.143626,0.14333,0.768074,1,0.0137551,10,0.000110088,-3.1146,-0.174204,-0.338684,-10.0703,0.14333,
2,1,0,1,0,969.035,0.145124,0.144845,0.748363,1,0.0139886,10,0.000108397,-3.12589,-0.125246,-0.471073,-13.7253,0.144845,
2,1,0,1,0,969.335,0.146623,0.146281,0.724806,1,0.0142158,10,0.000106025,-3.13978,-0.109736,-0.537656,-15.2204,0.146281,
2,1,0,1,0,969.634,0.14812,0.147813,0.703866,1,0.0144365,10,0.000104041,-3.15251,-0.104088,-0.566829,-15.494,0.147813,
2,1,0,1,0,969.934,0.149618,0.149341,0.677821,1,0.0146499,10,0.000101227,-3.16889,-0.0865792,-0.681457,-17.9525,0.149341,
2,1,0,0,0,970.234,0.151117,0.150807,0.648626,1,0.0148552,10,9.78174e-05,-3.18801,-0.0755659,-0.780776,-19.6978,0.150807,
2,1,0,0,0,970.533,0.152615,0.152334,0.616626,1,0.0150515,10,9.39331e-05,-3.20998,-0.0738006,-0.799451,-19.3273,0.152334,
2,1,0,1,0,970.833,0.154114,0.153859,0.593133,1,0.0152389,10,9.1259e-05,-3.22685,-0.0734908,-0.802822,-18.5372,0.153859,
2,1,0,1,0,971.133,0.155612,0.15526,0.563484,1,0.0154183,10,8.74864e-05,-3.24912,-0.0712499,-0.828072,-18.2201,0.15526,
2,1,0,1,0,971.432,0.157109,0.156774,0.538693,1,0.0155896,10,8.44533e-05,-3.26866,-0.0691478,-0.853244,-17.9308,0.156774,
2,1,0,1,0,971.732,0.158608,0.158298,0.513131,1,0.0157534,10,8.12275e-05,-3.28977,-0.0741519,-0.795664,-16.0179,0.158298,
2,1,0,1,0,972.032,0.160106,0.159815,0.490534,1,0.0159097,10,7.83948e-05,-3.30933,-0.0791262,-0.745644,-14.3429,0.159815,
2,1,0,1,0,972.331,0.161605,0.161305,0.470443,1,0.0160601,10,7.5885e-05,-3.32749,-0.0863314,-0.683413,-12.5986,0.161305,
2,1,0,1,0,972.631,0.163102,0.162812,0.454123,1,0.0162048,10,7.39365e-05,-3.34283,-0.0974502,-0.605438,-10.7262,0.162812,
2,1,0,1,0,972.93,0.1646,0.164296,0.437558,1,0.0163444,10,7.18892e-05,-3.35896,-0.0976937,-0.603929,-10.3316,0.164296,
2,1,0,0,0,973.23,0.166099,0.165803,0.422843,1,0.0164791,10,7.01087e-05,-3.37382,-0.111683,-0.528283,-8.73545,0.165803,
2,1,0,0,0,973.53,0.167597,0.167276,0.409782,1,0.01661,10,6.85467e-05,-3.38745,-0.130253,-0.452963,-7.24739,0.167276,
2,1,0,0,0,973.829,0.169095,0.168788,0.397691,1,0.0167376,10,6.71256e-05,-3.40045,-0.134917,-0.437307,-6.82499,0.1687883,
2,1,0,1,0,974.129,0.170594,0.170326,0.387137,1,0.0168618,10,6.59395e-05,-3.41214,-0.128932,-0.457607,-6.97695,0.170326,
2,1,0,1,0,974.429,0.172091,0.171759,0.377633,1,0.0169828,10,6.48621e-05,-3.42293,-0.160261,-0.36815,-5.47133,0.171759,
2,1,0,1,0,974.728,0.173589,0.17328,0.370987,1,0.0171013,10,6.42846e-05,-3.43064,-0.191399,-0.308257,-4.47045,0.17328,
2,1,0,1,0,975.028,0.175088,0.174765,0.364543,1,0.0172177,10,6.37092e-05,-3.43825,-0.195432,-0.301895,-4.29091,0.174765,
2,1,0,1,0,975.328,0.176586,0.176254,0.358593,1,0.017332,10,6.32033e-05,-3.4454,-0.20186,-0.292282,-4.08053,0.176254,
2,1,0,1,0,975.627,0.178085,0.17776,0.350921,1,0.0174443,10,6.23797e-05,-3.45479,-0.219547,-0.268735,-3.69217,0.1777598,
2,1,0,1,0,975.927,0.179582,0.179293,0.347225,1,0.0175549,10,6.22549e-05,-3.45939,-0.240263,-0.245564,-3.32821,0.179293,
2,1,0,1,0,976.226,0.18108,0.18079,0.342545,1,0.0176641,10,6.19286e-05,-3.46528,-0.269784,-0.218693,-2.93622,0.18079,
2,1,0,0,0,976.526,0.182579,0.182267,0.3377,1,0.017772,10,6.15516e-05,-3.47147,-0.2152,-0.274163,-3.61331,0.182267,
2,1,0,0,0,976.826,0.184077,0.183806,0.33348,1,0.0178786,10,6.12956e-05,-3.47693,-0.280517,-0.210326,-2.74818,0.183806,
2,1,0,1,0,977.125,0.185576,0.185247,0.329557,1,0.0179837,10,6.10495e-05,-3.48207,-0.307203,-0.192055,-2.48252,0.185247,
2,1,0,1,0,977.425,0.187074,0.18678,0.328379,1,0.0180879,10,6.13347e-05,-3.48362,-0.375366,-0.15718,-2.00329,0.18678,
2,1,0,1,0,977.725,0.188571,0.188276,0.323916,1,0.0181913,10,6.09857e-05,-3.48957,-0.433972,-0.135953,-1.71793,0.188276,
2,1,0,1,0,978.024,0.19007,0.189748,0.321803,1,0.0182938,10,6.10616e-05,-3.49241,-0.413224,-0.14278,-1.78638,0.189748,
2,1,0,1,0,978.324,0.191568,0.191253,0.318139,1,0.0183953,10,6.0845e-05,-3.49738,-0.400158,-0.147442,-1.83825,0.191253,
2,1,0,1,0,978.624,0.193067,0.192756,0.315588,1,0.0184962,10,6.08314e-05,-3.50088,-0.717157,-0.0822692,-1.01192,0.192756,
2,1,0,1,0,978.923,0.194564,0.194253,0.314011,1,0.0185965,10,6.09975e-05,-3.50306,-0.534013,-0.110484,-1.35577,0.194253,
2,1,0,1,0,979.223,0.196062,0.195783,0.310555,1,0.018696,10,6.08013e-05,-3.50786,-0.385227,-0.153156,-1.86513,0.195783,
2,1,0,0,0,979.523,0.197561,0.197245,0.306624,1,0.0187949,10,6.04801e-05,-3.51339,-0.505188,-0.116788,-1.41163,0.197245,
2,1,0,0,0,979.822,0.199059,0.198766,0.30802,1,0.0188931,10,6.12238e-05,-3.51142,-0.515228,-0.114512,-1.36916,0.198766,
2,1,0,0,0,980.122,0.200557,0.200268,0.306553,1,0.0189908,10,6.13926e-05,-3.51349,-0.450783,-0.130883,-1.56221,0.200268,
2,1,0,1,0,980.421,0.202056,0.201746,0.30416,1,0.0190881,10,6.1363e-05,-3.5169,-0.461494,-0.127846,-1.51294,0.201746,
2,1,0,1,0,980.721,0.203553,0.203256,0.301436,1,0.0191847,10,6.12685e-05,-3.52081,-0.516426,-0.114247,-1.34667,0.203256,
2,1,0,1,0,981.021,0.205051,0.204748,0.300689,1,0.0192807,10,6.15655e-05,-3.52188,-1.90761,-0.0309287,-0.365041,0.204748,
2,1,0,1,0,981.32,0.20655,0.206222,0.298298,1,0.0193765,10,6.15155e-05,-3.52535,-0.788821,-0.0747952,-0.873181,0.2062217,
2,1,0,1,0,981.62,0.208048,0.207754,0.29734,1,0.0194721,10,6.17735e-05,-3.52675,-0.533793,-0.11053,-1.2787,0.207754,
2,1,0,1,0,981.92,0.209547,0.209263,0.29538,1,0.019567,10,6.18121e-05,-3.52962,-0.956286,-0.061697,-0.711492,0.209263,
2,1,0,1,0,982.219,0.211044,0.210728,0.294757,1,0.0196612,10,6.21135e-05,-3.53054,-0.786187,-0.0750458,-0.861905,0.210728,
2,1,0,1,0,982.519,0.212542,0.212233,0.294118,1,0.0197554,10,6.24214e-05,-3.53148,-0.748116,-0.0788648,-0.904331,0.212233,
2,1,0,0,0,982.819,0.214041,0.213695,0.292808,1,0.0198492,10,6.25717e-05,-3.53342,-1.0881,-0.0542231,-0.618898,0.213695,
2,1,0,0,0,983.118,0.215539,0.215217,0.290617,1,0.0199427,10,6.25458e-05,-3.53668,-0.620698,-0.0950543,-1.08078,0.215217,
2,1,0,1,0,983.418,0.217038,0.216701,0.290712,1,0.0200357,10,6.29976e-05,-3.53654,-0.934292,-0.0631494,-0.71787,0.216701,
2,1,0,1,0,983.717,0.218535,0.21822,0.288603,1,0.0201285,10,6.2979e-05,-3.5397,10.7416,0.00549267,0.0619104,0.21822,
2,1,0,1,0,984.017,0.220033,0.219763,0.288229,1,0.0202213,10,6.33421e-05,-3.54026,-1.81911,-0.0324334,-0.365574,0.219763,
2,1,0,1,0,984.317,0.221532,0.221239,0.287973,1,0.0203137,10,6.37109e-05,-3.54065,-1.13957,-0.0517739,-0.584214,0.221239,
2,1,0,1,0,984.616,0.22303,0.22276,0.285165,1,0.0204058,10,6.35233e-05,-3.5449,-1.22061,-0.0483365,-0.541087,0.2227598,
2,1,0,1,0,984.916,0.224529,0.224236,0.285325,1,0.0204975,10,6.39803e-05,-3.54466,-0.896244,-0.0658303,-0.734112,0.224236,
2,1,0,1,0,985.216,0.226026,0.225754,0.285413,1,0.020589,10,6.44333e-05,-3.54453,-1.78042,-0.0331382,-0.368977,0.225754,
2,1,0,1,0,985.515,0.227524,0.227187,0.28393,1,0.0206803,10,6.45052e-05,-3.54679,-1.65476,-0.0356548,-0.39507,0.227187,
2,1,0,0,0,985.815,0.229023,0.2287,0.284095,1,0.0207714,10,6.49725e-05,-3.54654,-0.986083,-0.0598327,-0.666091,0.2287,
2,1,0,0,0,986.115,0.230521,0.230261,0.282312,1,0.0208621,10,6.50054e-05,-3.54927,-306.905,-0.000192242,-0.00213145,0.2302611,
2,1,0,0,0,986.414,0.232019,0.231711,0.283362,1,0.0209528,10,6.5658e-05,-3.54766,-1.42174,-0.0414984,-0.456027,0.2317107,
2,1,0,1,0,986.714,0.233518,0.233239,0.282392,1,0.0210434,10,6.58648e-05,-3.54915,-0.762954,-0.077331,-0.848255,0.2332391,
2,1,0,1,0,987.013,0.235015,0.234673,0.281301,1,0.0211336,10,6.60139e-05,-3.55083,-2.98717,-0.0197511,-0.216562,0.234673,
2,1,0,1,0,987.313,0.236513,0.236208,0.281118,1,0.0212235,10,6.64025e-05,-3.55111,-4.50632,-0.0130927,-0.143176,0.236208,
2,1,0,1,0,987.613,0.238012,0.23772,0.278728,1,0.0213134,10,6.62593e-05,-3.55482,-2.4899,-0.0236957,-0.258129,0.23772,
2,1,0,1,0,987.912,0.23951,0.239199,0.279191,1,0.021403,10,6.67822e-05,-3.5541,-0.755319,-0.0781126,-0.852195,0.239199,
2,1,0,1,0,988.212,0.241009,0.240763,0.278273,1,0.0214925,10,6.69978e-05,-3.55553,-3.79465,-0.0155482,-0.169404,0.240763,
2,1,0,1,0,988.512,0.242506,0.242205,0.276894,1,0.0215816,10,6.70651e-05,-3.55769,-1.59578,-0.0369724,-0.401977,0.242205,
2,1,0,1,0,988.811,0.244004,0.243725,0.276782,1,0.0216707,10,6.74585e-05,-3.55786,-9.71121,-0.00607545,-0.0655502,0.243725,
2,1,0,0,0,989.111,0.245503,0.245255,0.276527,1,0.0217598,10,6.78198e-05,-3.55826,-2.49181,-0.0236776,-0.255796,0.245255,
2,1,0,0,0,989.411,0.247001,0.246725,0.275268,1,0.0218485,10,6.79156e-05,-3.56024,-25.4827,-0.0023153,-0.0249398,0.246725,
2,1,0,1,0,989.71,0.2485,0.248165,0.274706,1,0.0219372,10,6.81724e-05,-3.56113,-5.5913,-0.0105521,-0.113364,0.248165,
2,1,0,1,0,990.01,0.249997,0.24969,0.276581,1,0.0220256,10,6.90594e-05,-3.55818,-1.57875,-0.0373713,-0.401311,0.24969,
2,1,0,1,0,990.309,0.251495,0.251194,0.275798,1,0.022114,10,6.92789e-05,-3.55941,-1.31983,-0.0447027,-0.478301,0.251194,
2,1,0,1,0,990.609,0.252994,0.252677,0.274497,1,0.0222023,10,6.93591e-05,-3.56146,-1.01941,-0.0578767,-0.620843,0.252677,
2,1,0,1,0,990.909,0.254492,0.254225,0.273315,1,0.0222905,10,6.94835e-05,-3.56334,-2.92842,-0.0201474,-0.215664,0.254225,
2,1,0,1,0,991.208,0.255991,0.255631,0.273682,1,0.0223782,10,6.99615e-05,-3.56275,8.02925,0.00734813,0.0787074,0.255631,
2,1,0,1,0,991.508,0.257488,0.257176,0.272607,1,0.022466,10,7.01081e-05,-3.56446,-1.55486,-0.0379456,-0.403641,0.257176,
2,1,0,1,0,991.808,0.258986,0.258698,0.273664,1,0.0225538,10,7.07963e-05,-3.56278,-2.12148,-0.0278108,-0.296115,0.258698,
2,1,0,0,0,992.107,0.260485,0.260187,0.273182,1,0.0226414,10,7.10784e-05,-3.56355,-1.13958,-0.0517735,-0.548798,0.260187,
2,1,0,0,0,992.407,0.261983,0.261668,0.272191,1,0.0227286,10,7.12238e-05,-3.56513,-1.08521,-0.0543675,-0.576943,0.261668,
2,1,0,0,0,992.707,0.263481,0.263219,0.271153,1,0.0228159,10,7.13724e-05,-3.56679,-2.12025,-0.0278269,-0.293969,0.263219,
2,1,0,1,0,993.006,0.264979,0.264684,0.270698,1,0.022903,10,7.16495e-05,-3.56751,-1.4762,-0.0399676,-0.421926,0.264684,
2,1,0,1,0,993.306,0.266477,0.266168,0.270904,1,0.0229901,10,7.21061e-05,-3.56718,-3.30755,-0.017838,-0.188722,0.266168,
2,1,0,1,0,993.606,0.267976,0.267676,0.269528,1,0.0230769,10,7.21463e-05,-3.5694,-2.90379,-0.0203183,-0.213828,0.2676765,
2,1,0,1,0,993.905,0.269474,0.269159,0.269267,1,0.0231638,10,7.24757e-05,-3.56982,-3.19637,-0.0184584,-0.193684,0.269159,
2,1,0,1,0,994.205,0.270972,0.270666,0.271485,1,0.0232505,10,7.34816e-05,-3.56625,-0.78148,-0.0754978,-0.78971,0.270666,
2,1,0,1,0,994.504,0.27247,0.272199,0.269324,1,0.0233373,10,7.33098e-05,-3.56972,-1.66619,-0.03541,-0.369308,0.272199,
2,1,0,1,0,994.804,0.273968,0.273667,0.266815,1,0.0234236,10,7.30182e-05,-3.57379,-1.78927,-0.0329743,-0.345284,0.273667,
2,1,0,1,0,995.104,0.275466,0.275151,0.266718,1,0.0235097,10,7.33878e-05,-3.57395,3.24696,0.0181709,0.190235,0.275151,
2,1,0,0,0,995.403,0.276965,0.276672,0.266897,1,0.023596,10,7.38429e-05,-3.57366,-76.4908,-0.000771334,-0.00806068,0.276672,
2,1,0,0,0,995.703,0.278463,0.278176,0.267801,1,0.0236821,10,7.44957e-05,-3.57219,-0.83198,-0.0709152,-0.738123,0.278176,
2,1,0,1,0,996.003,0.279961,0.279688,0.26629,1,0.0237681,10,7.4478e-05,-3.57465,-1.84372,-0.0320005,-0.333986,0.279688,
2,1,0,1,0,996.302,0.281459,0.281129,0.266592,1,0.0238538,10,7.49466e-05,-3.57415,-7.06607,-0.00834977,-0.0868892,0.281129,
2,1,0,1,0,996.602,0.282957,0.282664,0.267261,1,0.0239395,10,7.5545e-05,-3.57306,-1.40095,-0.0421143,-0.43681,0.282664,
2,1,0,1,0,996.902,0.284456,0.28413,0.265556,1,0.0240252,10,7.54523e-05,-3.57584,-2.63409,-0.0223986,-0.232313,0.28413,
2,1,0,1,0,997.201,0.285954,0.285662,0.264889,1,0.0241107,10,7.56687e-05,-3.57694,-3.10757,-0.0189859,-0.196789,0.285662,
2,1,0,1,0,997.501,0.287452,0.287183,0.266138,1,0.0241959,10,7.64302e-05,-3.57489,-1.00519,-0.0586954,-0.606382,0.287183,
2,1,0,1,0,997.8,0.28895,0.288635,0.264512,1,0.0242811,10,7.63473e-05,-3.57755,3.66784,0.0160858,0.165617,0.288635,
2,1,0,1,0,998.1,0.290448,0.290135,0.263425,1,0.0243661,10,7.64288e-05,-3.57934,8.4159,0.00701054,0.0722571,0.290135,
2,1,0,0,0,998.4,0.291947,0.29163,0.263163,1,0.0244511,10,7.67463e-05,-3.57977,6.20991,0.00950095,0.0978106,0.29163,
2,1,0,0,0,998.699,0.293445,0.293134,0.261522,1,0.0245359,10,7.66608e-05,-3.58249,-1.0683,-0.0552277,-0.566972,0.293134,
2,1,0,0,0,998.999,0.294943,0.294653,0.263165,1,0.0246206,10,7.75425e-05,-3.57977,-4.49418,-0.0131281,-0.134574,0.294653,
2,1,0,1,0,999.299,0.296441,0.296164,0.263109,1,0.0247053,10,7.79234e-05,-3.57986,-3.19519,-0.0184653,-0.188376,0.296164,
2,1,0,1,0,999.598,0.297939,0.297696,0.262207,1,0.0247898,10,7.8058e-05,-3.58136,-1.5098,-0.0390781,-0.397736,0.297696,
2,1,0,1,0,999.898,0.299437,0.29912,0.260516,1,0.0248741,10,7.79256e-05,-3.58417,-0.00208373,-28.3147,-125.252,0.2991201,
2,1,0,1,0,1000.07,0.299737,0.299448,0.0756319,1,0.0249105,10,2.26478e-05,-4.12129,0.000833933,70.7491,210.433,0.299448,
2,1,0,1,0,1000.37,0.29824,0.297953,0.0152796,1,0.0249148,10,4.55259e-06,-4.81589,0.00218038,27.0595,70.7107,0.2979525,
2,1,0,1,0,1000.67,0.296741,0.296406,-0.000926878,1,0.0249112,10,-2.74732e-07,-6.03298,0.0156258,3.7758,9.49006,0.296406,
2,1,0,1,0,1000.97,0.295243,0.294977,-0.0109208,1,0.0249036,10,-3.22139e-06,-4.96174,-0.00620766,-9.50438,6.51174,0.294977,
2,0,0,1,0,1001.27,0.293744,0.293454,-0.0198652,1,0.0248933,10,-5.8295e-06,-4.70191,-0.00666352,-8.85418,5.04522,0.2934536,
2,0,0,1,0,1001.57,0.292246,0.291926,-0.0263336,1,0.0248809,10,-7.68746e-06,-4.57949,-0.0117309,-5.02945,4.6069,0.291926,
2,0,0,1,0,1001.87,0.290749,0.290408,-0.0318661,1,0.0248665,10,-9.25415e-06,-4.49667,-0.0159523,-3.69853,4.19594,0.290408,
2,0,0,0,0,1002.17,0.28925,0.288955,-0.0377299,1,0.0248502,10,-1.09022e-05,-4.42331,-0.024294,-2.42858,3.53016,0.288955,
2,0,0,0,0,1002.47,0.287752,0.287427,-0.0413178,1,0.0248325,10,-1.18758e-05,-4.38386,-0.0307157,-1.92084,3.10254,0.287427,
2,0,0,1,0,1002.77,0.286253,0.285953,-0.0456191,1,0.0248134,10,-1.30449e-05,-4.34085,-0.0356557,-1.65471,2.9705,0.285953,
2,0,0,1,0,1003.06,0.284755,0.284427,-0.0504738,1,0.0247929,10,-1.43561e-05,-4.29693,-0.0374126,-1.57701,3.10389,0.284427,
2,0,0,1,0,1003.36,0.283257,0.282923,-0.0549782,1,0.0247711,10,-1.55546e-05,-4.25981,-0.0493674,-1.19512,2.53695,0.282923,
2,0,0,1,0,1003.66,0.281759,0.281439,-0.0585702,1,0.0247481,10,-1.6484e-05,-4.23232,-0.0464829,-1.26928,2.84826,0.281439,
2,0,0,1,0,1003.96,0.280261,0.279963,-0.0605534,1,0.0247241,10,-1.69527e-05,-4.21786,-0.0622133,-0.94835,2.28526,0.2799634,
2,0,0,1,0,1004.26,0.278763,0.278441,-0.0650958,1,0.024699,10,-1.81253e-05,-4.18645,-0.0637167,-0.925974,2.35459,0.278441,
2,0,0,1,0,1004.56,0.277264,0.276979,-0.0698269,1,0.0246729,10,-1.93406e-05,-4.15598,-0.0689139,-0.856141,2.32016,0.276979,
2,0,0,1,0,1004.86,0.275766,0.275444,-0.0728737,1,0.0246457,10,-2.00726e-05,-4.13743,-0.0874091,-0.674987,1.87772,0.275444,
2,0,0,1,0,1005.16,0.274268,0.273968,-0.0749658,1,0.0246175,10,-2.05383e-05,-4.12514,-0.081885,-0.720522,2.1144,0.273968,
2,0,0,0,0,1005.46,0.27277,0.27247,-0.0770196,1,0.0245887,10,-2.09855e-05,-4.1134,-0.0976869,-0.603971,1.87024,0.27247,
2,0,0,0,0,1005.76,0.271272,0.270981,-0.0819944,1,0.024559,10,-2.22189e-05,-4.08622,-0.096178,-0.613446,1.949,0.270981,
2,0,0,1,0,1006.06,0.269773,0.269483,-0.0842986,1,0.0245281,10,-2.2717e-05,-4.07418,-0.0929386,-0.634828,2.06251,0.269483,
2,0,0,1,0,1006.36,0.268275,0.267973,-0.0862105,1,0.0244966,10,-2.31021e-05,-4.06444,-0.138762,-0.425189,1.42272,0.267973,
2,0,0,1,0,1006.66,0.266778,0.266476,-0.0889735,1,0.0244645,10,-2.37093e-05,-4.05074,-0.125719,-0.469301,1.62606,0.266476,
2,0,0,1,0,1006.96,0.265279,0.264988,-0.093259,1,0.0244314,10,-2.47125e-05,-4.03031,-0.103112,-0.572193,2.05375,0.264988,
2,0,0,1,0,1007.26,0.263781,0.2635,-0.0937949,1,0.0243975,10,-2.47149e-05,-4.02782,-0.150447,-0.392164,1.44173,0.2635,
2,0,0,1,0,1007.56,0.262282,0.262004,-0.0964009,1,0.0243629,10,-2.52574e-05,-4.01592,-0.168786,-0.349556,1.33096,0.262004,
2,0,0,1,0,1007.86,0.260784,0.260496,-0.0971247,1,0.0243277,10,-2.53006e-05,-4.01267,-0.114151,-0.516859,2.0024,0.260496,
2,0,0,1,0,1008.16,0.259286,0.259018,-0.100508,1,0.0242917,10,-2.60332e-05,-3.9978,-0.152589,-0.38666,1.51942,0.2590175,
2,0,0,0,0,1008.46,0.257788,0.257473,-0.104606,1,0.0242549,10,-2.69332e-05,-3.98044,-0.150756,-0.39136,1.57938,0.257473,
2,0,0,0,0,1008.76,0.25629,0.256009,-0.106287,1,0.0242174,10,-2.72105e-05,-3.97352,-0.225408,-0.261747,1.07639,0.256009,
2,0,0,1,0,1009.06,0.254791,0.254522,-0.106536,1,0.0241795,10,-2.71156e-05,-3.97251,-0.170101,-0.346853,1.45412,0.254522,
2,0,0,1,0,1009.36,0.253293,0.252999,-0.109272,1,0.024141,10,-2.76457e-05,-3.96149,-0.161914,-0.364392,1.56823,0.252999,
2,0,0,1,0,1009.66,0.251795,0.251475,-0.112511,1,0.0241017,10,-2.82938e-05,-3.9488,-0.248979,-0.236968,1.03614,0.251475,
2,0,0,1,0,1009.96,0.250297,0.250007,-0.113892,1,0.0240617,10,-2.84737e-05,-3.94351,-0.257559,-0.229073,1.01551,0.250007,
2,0,0,1,0,1010.26,0.248799,0.248509,-0.115416,1,0.0240211,10,-2.86818e-05,-3.93774,-0.205326,-0.287347,1.30756,0.248509,
2,0,0,1,0,1010.56,0.247301,0.247003,-0.119008,1,0.0239801,10,-2.93954e-05,-3.92442,-0.184255,-0.320209,1.49861,0.247003,
2,0,0,1,0,1010.86,0.245802,0.245485,-0.12148,1,0.0239383,10,-2.98215e-05,-3.91549,-0.156431,-0.377163,1.78271,0.245485,
2,0,0,1,0,1011.15,0.244304,0.24404,-0.123806,1,0.0238957,10,-3.02136e-05,-3.90726,-0.198106,-0.29782,1.42112,0.24404,
2,0,0,0,0,1011.45,0.242806,0.242466,-0.125599,1,0.0238526,10,-3.04536e-05,-3.90101,-0.175861,-0.335493,1.63597,0.242466,
2,0,0,0,0,1011.75,0.241308,0.241024,-0.126291,1,0.0238091,10,-3.04393e-05,-3.89863,-0.212565,-0.277563,1.38157,0.241024,
2,0,0,0,0,1012.05,0.23981,0.239495,-0.129239,1,0.0237648,10,-3.09521e-05,-3.88861,-0.169469,-0.348147,1.74128,0.239495,
2,0,0,1,0,1012.35,0.238311,0.238003,-0.131068,1,0.0237198,10,-3.11946e-05,-3.8825,-0.215208,-0.274153,1.39498,0.238003,
2,0,0,1,0,1012.65,0.236813,0.236507,-0.132067,1,0.0236744,10,-3.12348e-05,-3.87921,-0.309251,-0.190783,0.994011,0.236507,
2,0,0,1,0,1012.95,0.235316,0.235022,-0.134191,1,0.0236286,10,-3.15379e-05,-3.87228,-0.24015,-0.24568,1.29369,0.235022,
2,0,0,1,0,1013.25,0.233817,0.233517,-0.136765,1,0.023582,10,-3.1937e-05,-3.86402,-0.389859,-0.151337,0.803659,0.233517,
2,0,0,1,0,1013.55,0.232319,0.231958,-0.140116,1,0.0235348,10,-3.25011e-05,-3.85351,-0.270146,-0.218401,1.17311,0.231958,
2,0,0,1,0,1013.85,0.23082,0.230542,-0.14045,1,0.0234871,10,-3.23797e-05,-3.85248,-0.308339,-0.191348,1.04606,0.230542,
2,0,0,1,0,1014.15,0.229322,0.228978,-0.140998,1,0.0234389,10,-3.22854e-05,-3.85079,-0.3821,-0.15441,0.855792,0.228978,
2,0,0,1,0,1014.45,0.227824,0.227548,-0.143876,1,0.0233901,10,-3.27387e-05,-3.84201,-0.230767,-0.255669,1.44166,0.227548,
2,0,0,0,0,1014.75,0.226326,0.226042,-0.146394,1,0.0233406,10,-3.30912e-05,-3.83448,-0.254857,-0.231503,1.32679,0.226042,
2,0,0,0,0,1015.05,0.224828,0.224554,-0.146665,1,0.0232905,10,-3.29342e-05,-3.83367,-0.514745,-0.11462,0.662524,0.224554,
2,0,0,1,0,1015.35,0.223329,0.223056,-0.151034,1,0.0232398,10,-3.36891e-05,-3.82093,-0.24265,-0.243148,1.42053,0.223056,
2,0,0,1,0,1015.65,0.221831,0.221556,-0.151775,1,0.0231888,10,-3.36266e-05,-3.8188,-0.217947,-0.270708,1.6065,0.221556,
2,0,0,1,0,1015.95,0.220333,0.220012,-0.154609,1,0.023137,10,-3.40159e-05,-3.81077,-0.21397,-0.275739,1.65143,0.220012,
2,0,0,1,0,1016.25,0.218835,0.21856,-0.158065,1,0.0230843,10,-3.45466e-05,-3.80116,-0.189383,-0.311538,1.89905,0.21856,
2,0,0,1,0,1016.55,0.217337,0.217012,-0.158969,1,0.0230312,10,-3.44982e-05,-3.79869,-0.223604,-0.263859,1.6325,0.217012,
2,0,0,1,0,1016.85,0.215839,0.215529,-0.160466,1,0.0229775,10,-3.4585e-05,-3.79462,-0.263466,-0.223938,1.40292,0.215529,
2,0,0,1,0,1017.15,0.21434,0.214055,-0.161481,1,0.0229231,10,-3.45658e-05,-3.79188,-0.196186,-0.300735,1.89911,0.214055,
2,0,0,1,0,1017.45,0.212842,0.212504,-0.164461,1,0.022868,10,-3.49486e-05,-3.78394,-0.184655,-0.319515,2.06786,0.212504,
2,0,0,0,0,1017.75,0.211344,0.211054,-0.166738,1,0.0228123,10,-3.51908e-05,-3.77796,-0.298007,-0.197982,1.28832,0.211054,
2,0,0,0,0,1018.05,0.209846,0.209534,-0.168477,1,0.0227559,10,-3.53017e-05,-3.77346,-0.235671,-0.250349,1.64984,0.209534,
2,0,0,0,0,1018.35,0.208348,0.20803,-0.171541,1,0.0226989,10,-3.56856e-05,-3.76563,-0.236444,-0.24953,1.66674,0.20803,
2,0,0,1,0,1018.65,0.206849,0.206532,-0.176769,1,0.022641,10,-3.65086e-05,-3.75259,-0.273934,-0.21538,1.45961,0.206532,
2,0,0,1,0,1018.95,0.205351,0.205035,-0.176421,1,0.0225823,10,-3.61724e-05,-3.75345,-0.303602,-0.194334,1.33228,0.205035,
2,0,0,1,0,1019.25,0.203854,0.203561,-0.17817,1,0.0225232,10,-3.62684e-05,-3.74917,-0.282169,-0.209095,1.46647,0.203561,
2,0,0,1,0,1019.54,0.202355,0.202025,-0.180407,1,0.0224634,10,-3.64467e-05,-3.74375,-0.260804,-0.226223,1.59643,0.202025,
2,0,0,1,0,1019.84,0.200857,0.200509,-0.182381,1,0.0224027,10,-3.65692e-05,-3.73902,-0.254332,-0.23198,1.6712,0.200509,
2,0,0,1,0,1020.14,0.199358,0.199032,-0.186266,1,0.0223411,10,-3.70728e-05,-3.72987,-0.434288,-0.135855,0.985277,0.199032,
2,0,0,1,0,1020.44,0.19786,0.197527,-0.188964,1,0.0222789,10,-3.73255e-05,-3.72362,-0.266918,-0.221042,1.62754,0.1975273,
2,0,0,1,0,1020.74,0.196363,0.196051,-0.191941,1,0.0222159,10,-3.76302e-05,-3.71683,-0.214988,-0.274434,2.0449,0.196051,
2,0,0,0,0,1021.04,0.194864,0.194552,-0.194671,1,0.0221519,10,-3.78736e-05,-3.7107,-0.168334,-0.350494,2.65975,0.194552,
2,0,0,0,0,1021.34,0.193366,0.193006,-0.19776,1,0.0220868,10,-3.81688e-05,-3.70386,-0.219428,-0.26888,2.08049,0.193006,
2,0,0,1,0,1021.64,0.191867,0.191526,-0.20207,1,0.0220207,10,-3.87016e-05,-3.6945,-0.213511,-0.276333,2.17808,0.191526,
2,0,0,1,0,1021.94,0.190369,0.190012,-0.204297,1,0.021954,10,-3.88189e-05,-3.68974,-0.194735,-0.302976,2.42518,0.190012,
2,0,0,1,0,1022.24,0.188871,0.188559,-0.209477,1,0.0218859,10,-3.94987e-05,-3.67886,-0.155155,-0.380264,3.08382,0.1885587,
2,0,0,1,0,1022.54,0.187373,0.18706,-0.211864,1,0.0218167,10,-3.96314e-05,-3.67394,-0.197585,-0.298605,2.47396,0.18706,
2,0,0,1,0,1022.84,0.185875,0.185566,-0.216802,1,0.0217466,10,-4.02311e-05,-3.66394,-0.19524,-0.302193,2.55635,0.185566,
2,0,0,1,0,1023.14,0.184377,0.184085,-0.218007,1,0.0216753,10,-4.01318e-05,-3.66153,-0.158571,-0.372072,3.17997,0.184085,
2,0,0,1,0,1023.44,0.182878,0.182588,-0.225241,1,0.0216026,10,-4.11264e-05,-3.64735,-0.169423,-0.34824,3.04882,0.1825882,
2,0,0,1,0,1023.74,0.181381,0.181071,-0.229222,1,0.0215285,10,-4.15055e-05,-3.63974,-0.172408,-0.342212,3.06177,0.181071,
2,0,0,0,0,1024.04,0.179882,0.179561,-0.233059,1,0.0214529,10,-4.18484e-05,-3.63253,-0.20145,-0.292877,2.67795,0.179561,
2,0,0,0,0,1024.34,0.178384,0.178052,-0.241237,1,0.0213757,10,-4.29526e-05,-3.61756,-0.17034,-0.346366,3.26433,0.178052,
2,0,0,0,0,1024.64,0.176886,0.176547,-0.244501,1,0.0212973,10,-4.31659e-05,-3.61172,-0.156491,-0.377018,3.62394,0.1765473,
2,0,0,1,0,1024.94,0.175387,0.17502,-0.250632,1,0.0212169,10,-4.38655e-05,-3.60096,-0.135724,-0.434706,4.27261,0.17502,
2,0,0,1,0,1025.24,0.173889,0.173548,-0.259281,1,0.0211344,10,-4.49976e-05,-3.58623,-0.151342,-0.389846,3.91453,0.173548,
2,0,0,1,0,1025.54,0.172392,0.172072,-0.266394,1,0.02105,10,-4.58389e-05,-3.57448,-0.129555,-0.455407,4.70949,0.172072,
2,0,0,1,0,1025.84,0.170893,0.170581,-0.27233,1,0.0209636,10,-4.64544e-05,-3.5649,-0.118371,-0.498434,5.30148,0.170581,
2,0,0,1,0,1026.14,0.169395,0.169113,-0.282059,1,0.0208747,10,-4.76998e-05,-3.54966,-0.111556,-0.528884,5.78055,0.169113,
2,0,0,1,0,1026.44,0.167896,0.167581,-0.290591,1,0.0207826,10,-4.86976e-05,-3.53672,-0.103639,-0.569286,6.46105,0.167581,
2,0,0,1,0,1026.74,0.166398,0.166066,-0.29836,1,0.020688,10,-4.95476e-05,-3.52526,-0.10817,-0.545439,6.43865,0.166066,
2,0,0,1,0,1027.04,0.164901,0.16459,-0.309464,1,0.0205904,10,-5.09349e-05,-3.50939,-0.0903009,-0.653371,7.95515,0.16459,
2,0,0,0,0,1027.34,0.163402,0.163146,-0.323173,1,0.020489,10,-5.27243e-05,-3.49057,-0.0798184,-0.739178,9.33786,0.163146,
2,0,0,0,0,1027.63,0.161904,0.161605,-0.338945,1,0.0203837,10,-5.47753e-05,-3.46987,-0.0810891,-0.727595,9.60574,0.1616051,
2,0,0,1,0,1027.93,0.160405,0.160071,-0.351987,1,0.020274,10,-5.63429e-05,-3.45347,-0.0782526,-0.753969,10.3675,0.160071,
2,0,0,1,0,1028.23,0.158907,0.158598,-0.366434,1,0.0201598,10,-5.81156e-05,-3.436,-0.0759821,-0.776498,11.2116,0.158598,
2,0,0,1,0,1028.53,0.157409,0.157136,-0.388148,1,0.0200406,10,-6.09919e-05,-3.411,-0.0685503,-0.860682,13.0882,0.157136,
2,0,0,1,0,1028.83,0.155911,0.15562,-0.407519,1,0.0199155,10,-6.34182e-05,-3.38985,-0.0664376,-0.888052,14.1768,0.15562,
2,0,0,1,0,1029.13,0.154413,0.154107,-0.428623,1,0.0197838,10,-6.60538e-05,-3.36792,-0.0709676,-0.831366,13.8725,0.154107,
2,0,0,1,0,1029.43,0.152915,0.152628,-0.450805,1,0.0196457,10,-6.88054e-05,-3.34601,-0.0642148,-0.918792,16.2713,0.152628,
2,0,0,1,0,1029.73,0.151416,0.151083,-0.478609,1,0.0195005,10,-7.23094e-05,-3.32002,-0.0642062,-0.918914,17.1478,0.151083,
2,0,0,1,0,1030.03,0.149919,0.149558,-0.506388,1,0.0193471,10,-7.57344e-05,-3.29552,-0.0628442,-0.93883,18.4747,0.149558,
2,0,0,0,0,1030.33,0.14842,0.148092,-0.534765,1,0.0191853,10,-7.91946e-05,-3.27184,-0.0650403,-0.90713,18.8896,0.148092,
2,0,0,0,0,1030.63,0.146922,0.146616,-0.562388,1,0.019015,10,-8.24553e-05,-3.24996,-0.0669738,-0.880942,19.309,0.146616,
2,0,0,0,0,1030.93,0.145424,0.145139,-0.59207,1,0.0188362,10,-8.59325e-05,-3.22763,-0.0674051,-0.875304,20.158,0.145139,
2,0,0,1,0,1031.23,0.143925,0.143591,-0.61955,1,0.0186482,10,-8.89615e-05,-3.20792,-0.0702656,-0.839671,20.2489,0.143591,
2,0,0,1,0,1031.53,0.142427,0.142146,-0.649608,1,0.0184511,10,-9.23389e-05,-3.18735,-0.0814738,-0.724159,18.3079,0.142146,
2,0,0,1,0,1031.83,0.14093,0.140538,-0.67569,1,0.0182461,10,-9.49605e-05,-3.17025,-0.0997582,-0.59143,15.6,0.140538,
2,0,0,1,0,1032.13,0.139431,0.139152,-0.696382,1,0.0180336,10,-9.6903e-05,-3.15715,-0.101442,-0.581612,15.8355,0.139152,
2,0,0,1,0,1032.43,0.137933,0.137618,-0.722373,1,0.0178141,10,-9.94112e-05,-3.14124,-0.122392,-0.482057,13.5438,0.137618,
2,0,0,1,0,1032.73,0.136434,0.136091,-0.743925,1,0.0175881,10,-0.000101242,-3.12847,-0.145637,-0.405118,11.6806,0.136091,
2,0,0,1,0,1033.03,0.134936,0.134661,-0.758856,1,0.0173568,10,-0.000102189,-3.11984,-0.189046,-0.312093,9.19044,0.134661,
2,0,0,1,0,1033.33,0.133439,0.13311,-0.769092,1,0.0171211,10,-0.000102374,-3.11402,-0.230946,-0.255471,7.67286,0.13311,
2,0,0,0,0,1033.63,0.13194,0.131634,-0.780761,1,0.0168825,10,-0.000102774,-3.10748,-0.304529,-0.193742,5.91076,0.131634,
2,0,0,0,0,1033.93,0.130442,0.130127,-0.787713,1,0.0166407,10,-0.000102503,-3.10363,-0.383191,-0.15397,4.72909,0.130127,
2,0,0,1,0,1034.23,0.128943,0.12865,-0.794359,1,0.0163969,10,-0.000102195,-3.09998,-1.45356,-0.04059,1.25188,0.12865,
2,0,0,1,0,1034.53,0.127445,0.12716,-0.796773,1,0.0161522,10,-0.000101317,-3.09867,-5.63233,-0.0104752,0.324217,0.1271597,
2,0,0,1,0,1034.83,0.125947,0.125584,-0.796231,1,0.0159081,10,-9.99941e-05,-3.09896,16.7585,0.00352061,-0.109113,0.125584,
2,0,0,1,0,1035.13,0.124449,0.124145,-0.794386,1,0.0156639,10,-9.86191e-05,-3.09997,1.0133,0.0582255,-1.79414,0.124145,
2,0,0,1,0,1035.43,0.122951,0.122636,-0.789972,1,0.0154202,10,-9.68791e-05,-3.10239,0.609889,0.0967389,-2.97187,0.122636,
2,0,0,1,0,1035.73,0.121453,0.121108,-0.784857,1,0.0151781,10,-9.50527e-05,-3.10521,0.448827,0.131454,-4.01609,0.121108,
2,0,0,1,0,1036.02,0.119954,0.119683,-0.775058,1,0.0149385,10,-9.27611e-05,-3.11067,0.38925,0.151574,-4.60279,0.119683,
2,0,0,1,0,1036.32,0.118456,0.118158,-0.770024,1,0.0147005,10,-9.09846e-05,-3.1135,0.595881,0.0990131,-2.97082,0.118158,
2,0,0,0,0,1036.62,0.116958,0.116618,-0.7651,1,0.014464,10,-8.92248e-05,-3.11628,0.332247,0.177579,-5.28205,0.116618,
2,0,0,0,0,1036.92,0.11546,0.115111,-0.753494,1,0.0142302,10,-8.67351e-05,-3.12292,0.258215,0.228491,-6.72186,0.115111,
2,0,0,0,0,1037.22,0.113962,0.11369,-0.741016,1,0.0139998,10,-8.42458e-05,-3.13017,0.26614,0.221687,-6.43606,0.11369,
2,0,0,1,0,1037.52,0.112463,0.112178,-0.737129,1,0.013772,10,-8.26898e-05,-3.13246,0.254174,0.232125,-6.65815,0.112178,
2,0,0,1,0,1037.82,0.110965,0.110639,-0.725711,1,0.0135466,10,-8.02918e-05,-3.13924,0.250736,0.235307,-6.66596,0.1106388,
2,0,0,1,0,1038.12,0.109468,0.109137,-0.712963,1,0.0133245,10,-7.78103e-05,-3.14693,0.200632,0.294071,-8.18846,0.109137,
2,0,0,1,0,1038.42,0.107969,0.10767,-0.702489,1,0.0131053,10,-7.56368e-05,-3.15336,0.238169,0.247724,-6.81722,0.10767,
2,0,0,1,0,1038.72,0.106471,0.106167,-0.694178,1,0.0128901,10,-7.36988e-05,-3.15853,0.248596,0.237332,-6.4398,0.106167,
2,0,0,1,0,1039.02,0.104972,0.104666,-0.682212,1,0.0126774,10,-7.14046e-05,-3.16608,0.224718,0.262551,-6.99776,0.104666,
2,0,0,1,0,1039.32,0.103474,0.103167,-0.674268,1,0.0124675,10,-6.95622e-05,-3.17117,0.223054,0.26451,-6.93547,0.103167,
2,0,0,1,0,1039.62,0.101977,0.101638,-0.664158,1,0.0122611,10,-6.7504e-05,-3.17773,0.227926,0.258856,-6.68795,0.101638,
2,0,0,0,0,1039.92,0.100478,0.100167,-0.651464,1,0.0120584,10,-6.52554e-05,-3.18611,0.231104,0.255296,-6.50684,0.100167,
2,0,0,0,0,1040.22,0.0989798,0.0986795,-0.64421,1,0.0118583,10,-6.35703e-05,-3.19097,0.279333,0.211218,-5.29386,0.0986795,
2,0,0,1,0,1040.52,0.0974812,0.0971583,-0.636023,1,0.0116607,10,-6.17949e-05,-3.19653,0.245628,0.2402,-5.95546,0.0971583,
2,0,0,1,0,1040.82,0.0959834,0.095654,-0.625238,1,0.0114658,10,-5.98065e-05,-3.20395,0.252894,0.233299,-5.70025,0.095654,
2,0,0,1,0,1041.12,0.0944855,0.094172,-0.614493,1,0.011274,10,-5.7868e-05,-3.21148,0.272219,0.216737,-5.23871,0.094172,
2,0,0,1,0,1041.42,0.0929871,0.0926808,-0.608823,1,0.0110841,10,-5.64262e-05,-3.21551,0.338868,0.174109,-4.14146,0.0926808,
2,0,0,1,0,1041.72,0.0914889,0.0911623,-0.603398,1,0.0108963,10,-5.50071e-05,-3.2194,0.289718,0.203646,-4.79067,0.0911623,
2,0,0,1,0,1042.02,0.0899907,0.0896406,-0.596893,1,0.0107106,10,-5.35059e-05,-3.2241,0.275933,0.21382,-4.95446,0.0896406,
2,0,0,1,0,1042.32,0.0884923,0.0881442,-0.586129,1,0.0105271,10,-5.16638e-05,-3.23201,0.302332,0.19515,-4.48221,0.0881442,
2,0,0,1,0,1042.62,0.0869945,0.0866739,-0.582325,1,0.0103457,10,-5.04724e-05,-3.23483,0.388595,0.151829,-3.45273,0.0866739,
2,0,0,0,0,1042.92,0.0854961,0.0851392,-0.577126,1,0.0101656,10,-4.91361e-05,-3.23873,0.383558,0.153823,-3.47392,0.0851392,
2,0,0,0,0,1043.22,0.083998,0.0837023,-0.572683,1,0.00998709,10,-4.79349e-05,-3.24209,0.331476,0.177992,-3.96506,0.0837023,
2,0,0,0,0,1043.52,0.0824998,0.0822061,-0.567799,1,0.00980982,10,-4.66766e-05,-3.24581,0.416073,0.141802,-3.14709,0.0822061,
2,0,0,1,0,1043.82,0.0810013,0.0807117,-0.561939,1,0.00963467,10,-4.5355e-05,-3.25031,0.430524,0.137042,-3.01537,0.0807117,
2,0,0,1,0,1044.12,0.0795035,0.0791725,-0.557749,1,0.00946054,10,-4.41584e-05,-3.25356,0.420037,0.140464,-3.05873,0.0791725,
2,0,0,1,0,1044.41,0.0780056,0.0777064,-0.555484,1,0.00928764,10,-4.31647e-05,-3.25533,0.412722,0.142953,-3.08323,0.0777064,
2,0,0,1,0,1044.71,0.076507,0.0762021,-0.55016,1,0.00911601,10,-4.19233e-05,-3.25951,0.444894,0.132616,-2.84843,0.0762021,
2,0,0,1,0,1045.01,0.0750088,0.0747196,-0.545962,1,0.00894635,10,-4.07941e-05,-3.26284,0.399777,0.147582,-3.14326,0.0747196,
2,0,0,1,0,1045.31,0.0735103,0.0731988,-0.542689,1,0.00877748,10,-3.97242e-05,-3.26545,0.47039,0.125428,-2.64306,0.07319884,
2,0,0,1,0,1045.61,0.0720124,0.0717515,-0.537248,1,0.0086099,10,-3.85484e-05,-3.26983,0.407115,0.144922,-3.03577,0.0717515,
2,0,0,1,0,1045.91,0.0705146,0.0701857,-0.531879,1,0.00844383,10,-3.73303e-05,-3.27419,0.392346,0.150378,-3.12642,0.0701857,
2,0,0,0,0,1046.21,0.069016,0.0686955,-0.524946,1,0.00827936,10,-3.60614e-05,-3.27988,0.411618,0.143337,-2.9507,0.0686955,
2,0,0,0,0,1046.51,0.0675179,0.0672088,-0.522828,1,0.00811615,10,-3.51386e-05,-3.28164,0.482553,0.122266,-2.49201,0.0672088,
2,0,0,1,0,1046.81,0.0660192,0.0657215,-0.522233,1,0.00795417,10,-3.43219e-05,-3.28214,0.438005,0.134702,-2.71507,0.06572146,
2,0,0,1,0,1047.11,0.0645214,0.0641992,-0.513743,1,0.0077935,10,-3.29819e-05,-3.28925,0.310997,0.189713,-3.78713,0.0641992,
2,0,0,1,0,1047.41,0.0630235,0.0627139,-0.506521,1,0.0076346,10,-3.17659e-05,-3.2954,0.401812,0.146835,-2.91088,0.0627139,
2,0,0,1,0,1047.71,0.0615251,0.061209,-0.502298,1,0.00747741,10,-3.07452e-05,-3.29904,0.319169,0.184855,-3.62912,0.061209,
2,0,0,1,0,1048.01,0.0600269,0.0597223,-0.496879,1,0.00732153,10,-2.96747e-05,-3.30375,0.332475,0.177457,-3.45161,0.0597223,
2,0,0,1,0,1048.31,0.0585287,0.058208,-0.492847,1,0.0071672,10,-2.86877e-05,-3.30729,0.254425,0.231896,-4.44355,0.058208,
2,0,0,1,0,1048.61,0.0570303,0.0567106,-0.486841,1,0.00701441,10,-2.76091e-05,-3.31261,0.313462,0.188221,-3.58066,0.0567106,
2,0,0,1,0,1048.91,0.0555325,0.0551933,-0.481424,1,0.00686384,10,-2.65714e-05,-3.31747,0.328983,0.17934,-3.37612,0.0551933,
2,0,0,0,0,1049.21,0.0540341,0.0537268,-0.477246,1,0.00671441,10,-2.56409e-05,-3.32126,0.312259,0.188946,-3.5074,0.0537268,
2,0,0,0,0,1049.51,0.052536,0.0522295,-0.470779,1,0.00656628,10,-2.45886e-05,-3.32718,0.272771,0.216299,-3.96297,0.0522295,
2,0,0,0,0,1049.81,0.0510378,0.0507004,-0.465267,1,0.00642017,10,-2.35892e-05,-3.3323,0.250949,0.235107,-4.27428,0.0507004,
2,0,0,1,0,1050.11,0.0495394,0.0492889,-0.458237,1,0.00627604,10,-2.2586e-05,-3.33891,0.286008,0.206288,-3.69974,0.0492889,
2,0,0,1,0,1050.41,0.0480415,0.0477199,-0.453995,1,0.00613338,10,-2.16646e-05,-3.34295,0.391013,0.15089,-2.6666,0.0477199,
2,0,0,1,0,1050.71,0.0465436,0.0462378,-0.448282,1,0.0059921,10,-2.07276e-05,-3.34845,0.3017,0.195559,-3.42872,0.0462378,
2,0,0,1,0,1051.01,0.045045,0.0447441,-0.443601,1,0.00585225,10,-1.98485e-05,-3.35301,0.30178,0.195507,-3.38859,0.0447441,
2,0,0,1,0,1051.31,0.0435468,0.0432616,-0.435902,1,0.00571427,10,-1.88578e-05,-3.36061,0.289308,0.203935,-3.4924,0.0432616,
2,0,0,1,0,1051.61,0.0420483,0.0417398,-0.435273,1,0.00557757,10,-1.81682e-05,-3.36124,0.39968,0.147618,-2.49953,0.04173978,
2,0,0,1,0,1051.91,0.0405504,0.0402205,-0.431858,1,0.00544193,10,-1.73696e-05,-3.36466,0.324725,0.181692,-3.04815,0.0402205,
2,0,0,1,0,1052.21,0.0390526,0.0387605,-0.424649,1,0.00530765,10,-1.64596e-05,-3.37197,0.291545,0.20237,-3.36138,0.0387605,
2,0,0,0,0,1052.5,0.0375541,0.0372428,-0.421394,1,0.00517473,10,-1.56939e-05,-3.37531,0.381532,0.15464,-2.54464,0.0372428,
2,0,0,0,0,1052.8,0.0360559,0.0357306,-0.417956,1,0.00504314,10,-1.49338e-05,-3.37887,0.468073,0.126049,-2.0646,0.0357306,
2,0,0,1,0,1053.1,0.0345572,0.0342583,-0.414171,1,0.0049124,10,-1.41888e-05,-3.38282,0.408624,0.144387,-2.34119,0.0342583,
2,0,0,1,0,1053.4,0.0330594,0.0327592,-0.412019,1,0.00478249,10,-1.34974e-05,-3.38508,0.446465,0.132149,-2.12207,0.0327592,
2,0,0,1,0,1053.7,0.0315615,0.0311946,-0.410291,1,0.00465358,10,-1.27988e-05,-3.38691,0.594767,0.0991985,-1.58803,0.0311946,
2,0,0,1,0,1054,0.0300631,0.029769,-0.407694,1,0.00452576,10,-1.21367e-05,-3.38967,0.554814,0.106342,-1.69141,0.029769,
2,0,0,1,0,1054.3,0.0285649,0.0282866,-0.405654,1,0.00439827,10,-1.14745e-05,-3.39184,0.954785,0.061794,-0.9753,0.0282866,
2,0,0,1,0,1054.6,0.0270667,0.0267193,-0.403559,1,0.00427128,10,-1.07828e-05,-3.39409,0.712426,0.0828156,-1.30082,0.02671928,
2,0,0,1,0,1054.9,0.0255683,0.0252693,-0.401133,1,0.00414494,10,-1.01364e-05,-3.39671,0.5703,0.103454,-1.62432,0.0252693,
2,0,0,1,0,1055.2,0.0240706,0.023779,-0.399304,1,0.00401944,10,-9.49504e-06,-3.3987,1.22059,0.0483372,-0.756332,0.023779,
2,0,0,0,0,1055.5,0.0225722,0.0222931,-0.398429,1,0.003894,10,-8.88224e-06,-3.39965,19.7165,0.00299242,-0.0465178,0.0222931,
2,0,0,0,0,1055.8,0.021074,0.0208096,-0.397512,1,0.00376876,10,-8.27208e-06,-3.40065,1.42611,0.0413712,-0.64429,0.0208096,
2,0,0,0,0,1056.1,0.0195758,0.0192392,-0.397665,1,0.00364376,10,-7.65075e-06,-3.40048,1.99844,0.0295231,-0.458371,0.0192392,
2,0,0,1,0,1056.4,0.0180774,0.017747,-0.395281,1,0.00351896,10,-7.01506e-06,-3.40309,-3.32022,-0.0177699,0.275309,0.017747,
2,0,0,1,0,1056.7,0.0165795,0.0163031,-0.397201,1,0.00339433,10,-6.47562e-06,-3.40099,-2.43904,-0.0241898,0.374824,0.0163031,
2,0,0,1,0,1057,0.0150817,0.014752,-0.399781,1,0.00326937,10,-5.89756e-06,-3.39818,-74.4444,-0.000792538,0.0122679,0.014752,
2,0,0,1,0,1057.3,0.013583,0.0132458,-0.397244,1,0.00314425,10,-5.2618e-06,-3.40094,9.08514,0.00649412,-0.100572,0.0132458,
2,0,0,1,0,1057.6,0.0120848,0.0117601,-0.397176,1,0.0030192,10,-4.67084e-06,-3.40102,-1.43579,-0.0410925,0.639847,0.01176013,
2,0,0,1,0,1057.9,0.0105863,0.0102931,-0.39853,1,0.00289421,10,-4.10213e-06,-3.39954,-1.07375,-0.0549478,0.857438,0.0102931,
2,0,0,1,0,1058.2,0.00908845,0.00879093,-0.398759,1,0.00276865,10,-3.50546e-06,-3.39929,-1.04001,-0.0567301,0.885989,0.00879093,
2,0,0,1,0,1058.5,0.0075906,0.0073089,-0.401394,1,0.00264281,10,-2.93375e-06,-3.39643,-32.3401,-0.00182436,0.0285085,0.0073089,
2,0,0,0,0,1058.8,0.00609208,0.00578898,-0.403039,1,0.00251657,10,-2.33318e-06,-3.39465,-0.977531,-0.0603561,0.949468,0.00578898,
2,0,0,0,0,1059.1,0.00459389,0.00426836,-0.404233,1,0.00239028,10,-1.72541e-06,-3.39337,-1.23522,-0.0477646,0.753126,0.00426836,
2,0,0,1,0,1059.4,0.00309525,0.00276635,-0.406459,1,0.00226313,10,-1.12441e-06,-3.39098,-0.553705,-0.106555,1.68769,0.002766354,
2,0,0,1,0,1059.7,0.00159739,0.0012078,-0.409744,1,0.00213341,10,-4.94891e-07,-3.38749, , , ,0.0012078,
2,0,0,1,0,1059.98,0.000199195,-0.000201256,-0.408898,1,0.00201346,10,8.22931e-08,-3.38839, , , ,-0.000201256,