File: Figure_codes/Fig_3-5/rawdata_trumpetplot_data/after 10th/20221101_1-115_003_TrumpetPlot_ParaChange_from10_every3_13_CV_C01_6.csv
mode,ox/red,error,control changes,counter inc.,time/s,control/V,Ewe/V,<I>/mA,cycle number,(Q-Qo)/C,I Range,P/W,log(|I|),Tafel slope mV/dec,alpha_eff,dI/d(E-IR),E-IR/V,
2,1,0,1,0,13018.6,2.44065e-05,-0.000344411,23.0197,7,0.0000000E+000,10,-7.92824e-06,-1.6379, , , ,-0.000344411,
2,1,0,1,0,13018.6,0.00266289,0.00232145,24.2708,7,7.37663e-05,10,5.63434e-05,-1.61492, , , ,0.00232145,
2,1,0,1,0,13018.6,0.00586735,0.00550055,25.3922,7,0.000173287,10,0.000139671,-1.5953, , , ,0.00550055,
2,1,0,1,0,13018.6,0.00906349,0.0086998,26.3399,7,0.000276865,10,0.000229152,-1.57939,0.208409,0.283097,288.118,0.0086998,
2,1,0,1,0,13018.7,0.0122624,0.0118481,27.188,7,0.000384033,10,0.000322127,-1.56562,0.242371,0.243428,256.513,0.0118481,
2,1,0,1,0,13018.7,0.0154641,0.0151693,27.9725,7,0.000494462,10,0.000424324,-1.55327,0.272245,0.216717,235.294,0.0151693,
2,1,0,1,0,13018.7,0.0186602,0.0183007,28.6756,7,0.000607855,10,0.000524785,-1.54249,0.304077,0.19403,216.243,0.0183007,
2,1,0,1,0,13018.7,0.0218675,0.0215106,29.3542,7,0.000724,10,0.000631426,-1.53233,0.330262,0.178646,203.964,0.0215106,
2,1,0,1,0,13018.7,0.0250636,0.0247172,29.9708,7,0.000842733,10,0.000740796,-1.5233,0.358571,0.164542,191.941,0.0247172,
2,1,0,1,0,13018.7,0.0282597,0.0279324,30.5757,7,0.000963899,10,0.000854052,-1.51462,0.386005,0.152848,181.963,0.0279324,
2,1,0,1,0,13018.7,0.031467,0.0311306,31.1382,7,0.00108741,10,0.000969351,-1.50671,0.408579,0.144403,175.143,0.0311306,
2,1,0,1,0,13018.7,0.0346631,0.0343129,31.6838,7,0.0012131,10,0.00108716,-1.49916,0.432064,0.136554,168.64,0.0343129,
2,1,0,1,0,13018.7,0.0378703,0.0375142,32.2122,7,0.00134095,10,0.00120841,-1.49198,0.449413,0.131283,164.861,0.0375142,
2,1,0,1,0,13018.7,0.0410665,0.0407495,32.7372,7,0.00147088,10,0.00133402,-1.48496,0.467876,0.126102,160.936,0.0407495,
2,1,0,1,0,13018.7,0.0442626,0.0438735,33.239,7,0.00160288,10,0.00145831,-1.47835,0.485628,0.121492,157.472,0.0438735,
2,1,0,1,0,13018.7,0.0474671,0.047095,33.7409,7,0.0017369,10,0.00158903,-1.47184,0.497459,0.118603,156.099,0.04709499,
2,1,0,1,0,13018.7,0.0506632,0.0503388,34.2317,7,0.0018729,10,0.00172318,-1.46557,0.505302,0.116762,155.998,0.0503388,
2,1,0,1,0,13018.7,0.0538621,0.0535232,34.7311,7,0.00201087,10,0.00185892,-1.45928,0.508153,0.116107,157.422,0.0535232,
2,1,0,1,0,13018.7,0.0570638,0.0567511,35.2479,7,0.0021509,10,0.00200036,-1.45287,0.505211,0.116783,160.649,0.0567511,
2,1,0,1,0,13018.7,0.06026,0.059927,35.7609,7,0.00229298,10,0.00214304,-1.44659,0.50735,0.116291,162.292,0.059927,
2,1,0,1,0,13018.7,0.0634672,0.0631156,36.2842,7,0.00243713,10,0.0022901,-1.44028,0.510708,0.115526,163.57,0.0631156,
2,1,0,1,0,13018.7,0.0666633,0.066317,36.8074,7,0.00258337,10,0.00244096,-1.43406,0.509593,0.115779,166.364,0.066317,
2,1,0,1,0,13018.7,0.0698595,0.0694865,37.331,7,0.00273172,10,0.002594,-1.42793,0.509179,0.115873,168.906,0.0694865,
2,1,0,1,0,13018.7,0.0730667,0.0727653,37.8967,7,0.00288223,10,0.00275757,-1.4214,0.506186,0.116558,172.402,0.0727653,
2,1,0,1,0,13018.7,0.0762629,0.0758659,38.4378,7,0.00303497,10,0.00291612,-1.41524,0.504824,0.116872,175.347,0.0758659,
2,1,0,1,0,13018.7,0.0794701,0.0791129,39.0135,7,0.00318991,10,0.00308647,-1.40879,0.508613,0.116002,176.608,0.0791129,
2,1,0,1,0,13018.7,0.0826662,0.0823005,39.5779,7,0.00334715,10,0.00325728,-1.40255,0.506935,0.116386,179.778,0.0823005,
2,1,0,1,0,13018.7,0.0858624,0.0855008,40.1459,7,0.00350664,10,0.00343251,-1.39636,0.507699,0.116211,182.162,0.0855008,
2,1,0,1,0,13018.7,0.0890668,0.0886937,40.744,7,0.00366848,10,0.00361373,-1.38994,0.508283,0.116077,184.584,0.0886937,
2,1,0,1,0,13018.8,0.092263,0.0918802,41.3392,7,0.0038327,10,0.00379825,-1.38364,0.507981,0.116146,187.35,0.0918802,
2,1,0,1,0,13018.8,0.0954674,0.0950795,41.9367,7,0.00399932,10,0.00398732,-1.37741,0.511203,0.115414,188.913,0.0950795,
2,1,0,1,0,13018.8,0.0986636,0.0982861,42.5412,7,0.00416834,10,0.00418121,-1.37119,0.508931,0.115929,192.576,0.0982861,
2,1,0,1,0,13018.8,0.10186,0.10149,43.1613,7,0.00433982,10,0.00438042,-1.36491,0.510914,0.115479,194.564,0.1014896,
2,1,0,1,0,13018.8,0.105067,0.104727,43.8132,7,0.00451384,10,0.00458843,-1.3584,0.514739,0.114621,195.851,0.104727,
2,1,0,1,0,13018.8,0.108263,0.107893,44.4299,7,0.0046904,10,0.00479369,-1.35233,0.522618,0.112893,195.626,0.1078934,
2,1,0,1,0,13018.8,0.111465,0.111081,45.0471,7,0.00486942,10,0.00500388,-1.34633,0.538902,0.109482,192.369,0.111081,
2,1,0,1,0,13018.8,0.114666,0.114286,45.6645,7,0.00505092,10,0.00521879,-1.34042,0.532628,0.110771,197.468,0.114286,
2,1,0,1,0,13018.8,0.117863,0.117414,46.2537,7,0.00523481,10,0.00543082,-1.33485,0.528291,0.111681,201.915,0.117414,
2,1,0,1,0,13018.8,0.12107,0.12065,46.9489,7,0.00542127,10,0.00566439,-1.32837,0.524178,0.112557,206.348,0.12065,
2,1,0,1,0,13018.8,0.124266,0.123868,47.6291,7,0.00561048,10,0.00589974,-1.32213,0.513413,0.114917,213.557,0.123868,
2,1,0,1,0,13018.8,0.127462,0.127104,48.3095,7,0.00580243,10,0.00614032,-1.31597,0.521787,0.113073,213.183,0.127104,
2,1,0,1,0,13018.8,0.130667,0.130307,49.0072,7,0.00599713,10,0.00638599,-1.30974,0.517815,0.11394,217.96,0.130307,
2,1,0,1,0,13018.8,0.133863,0.133534,49.6955,7,0.0061946,10,0.00663605,-1.30368,0.515021,0.114558,222.3,0.133534,
2,1,0,1,0,13018.8,0.137067,0.136715,50.4292,7,0.0063949,10,0.00689444,-1.29732,0.511523,0.115342,227.104,0.136715,
2,1,0,1,0,13018.8,0.140263,0.139934,51.1616,7,0.00659817,10,0.00715922,-1.29106,0.500137,0.117968,235.656,0.139934,
2,1,0,1,0,13018.8,0.143459,0.14315,51.9238,7,0.0068044,10,0.00743288,-1.28463,0.498392,0.118381,240.011,0.14315,
2,1,0,1,0,13018.8,0.146667,0.14631,52.7062,7,0.00701374,10,0.00771144,-1.27814,0.490482,0.12029,247.521,0.14631,
2,1,0,1,0,13018.8,0.149863,0.149514,53.5011,7,0.00722623,10,0.00799919,-1.27164,0.488347,0.120816,252.346,0.149514,
2,1,0,1,0,13018.8,0.153064,0.152696,54.3204,7,0.00744196,10,0.00829449,-1.26504,0.494528,0.119306,252.883,0.152696,
2,1,0,1,0,13018.8,0.156266,0.155921,55.1466,7,0.00766096,10,0.00859854,-1.25848,0.497347,0.118629,255.193,0.155921,
2,1,0,1,0,13018.8,0.159462,0.159135,55.9496,7,0.00788325,10,0.00890356,-1.2522,0.50991,0.115707,252.518,0.159135,
2,1,0,1,0,13018.8,0.16267,0.162333,56.7722,7,0.00810876,10,0.00921598,-1.24586,0.524088,0.112577,249.233,0.162333,
2,1,0,1,0,13018.8,0.165866,0.16549,57.5514,7,0.0083375,10,0.0095242,-1.23994,0.536997,0.10987,246.605,0.16549,
2,1,0,1,0,13018.8,0.169062,0.168727,58.3382,7,0.00856935,10,0.00984322,-1.23405,0.563635,0.104678,238.088,0.168727,
2,1,0,1,0,13018.9,0.172266,0.171923,59.103,7,0.00880434,10,0.0101612,-1.22839,0.590799,0.0998647,229.996,0.171923,
2,1,0,1,0,13018.9,0.175462,0.175108,59.814,7,0.00904225,10,0.0104739,-1.2232,0.626301,0.0942039,219.602,0.175108,
2,1,0,1,0,13018.9,0.178667,0.178303,60.4983,7,0.00928294,10,0.010787,-1.21826,0.673569,0.0875931,206.517,0.178303,
2,1,0,1,0,13018.9,0.181863,0.181516,61.1468,7,0.00952632,10,0.0110991,-1.21363,0.729836,0.08084,192.575,0.181516,
2,1,0,1,0,13018.9,0.185059,0.184691,61.7399,7,0.00977218,10,0.0114028,-1.20943,0.816133,0.0722921,173.809,0.184691,
2,1,0,1,0,13018.9,0.188266,0.18792,62.2812,7,0.0100203,10,0.0117039,-1.20564,0.936272,0.0630158,152.767,0.18792,
2,1,0,1,0,13018.9,0.191463,0.191116,62.7253,7,0.0102704,10,0.0119878,-1.20256,1.15367,0.0511412,124.815,0.191116,
2,1,0,1,0,13018.9,0.194664,0.194296,63.0992,7,0.0105221,10,0.0122599,-1.19998,1.56143,0.0377858,92.7155,0.194296,
2,1,0,1,0,13018.9,0.197866,0.197505,63.3393,7,0.0107751,10,0.0125098,-1.19833,2.57695,0.0228953,56.3696,0.197505,
2,1,0,1,0,13018.9,0.201062,0.200712,63.4672,7,0.0110288,10,0.0127386,-1.19745,10.3676,0.00569081,14.034,0.200712,
2,1,0,1,0,13018.9,0.204269,0.20395,63.4487,7,0.0112826,10,0.0129404,-1.19758,-4.36349,-0.0135213,-33.3112,0.2039503,
2,1,0,1,0,13018.9,0.207465,0.207127,63.2792,7,0.0115361,10,0.0131069,-1.19874,-1.69602,-0.0347874,-85.4214,0.207127,
2,1,0,1,0,13018.9,0.210662,0.210298,62.9132,7,0.0117885,10,0.0132305,-1.20126,-1.02895,-0.0573403,-139.969,0.210298,
2,1,0,1,0,13018.9,0.213866,0.213512,62.3738,7,0.0120391,10,0.0133176,-1.205,-0.731083,-0.0807022,-195.317,0.213512,
2,1,0,1,0,13018.9,0.217062,0.216773,61.654,7,0.0122871,10,0.0133649,-1.21004,-0.562268,-0.104932,-250.979,0.216773,
2,1,0,1,0,13018.9,0.220267,0.219994,60.7661,7,0.0125319,10,0.0133682,-1.21634,-0.457208,-0.129044,-304.169,0.219994,
2,1,0,1,0,13018.9,0.223463,0.223148,59.6881,7,0.0127728,10,0.0133193,-1.22411,-0.384916,-0.15328,-355.043,0.223148,
2,1,0,1,0,13018.9,0.226659,0.226373,58.462,7,0.013009,10,0.0132342,-1.23313,-0.334571,-0.176345,-400.411,0.226373,
2,1,0,1,0,13018.9,0.229866,0.22958,57.1068,7,0.01324,10,0.0131106,-1.24331,-0.302735,-0.19489,-432.579,0.22958,
2,1,0,1,0,13018.9,0.233062,0.232722,55.6696,7,0.0134655,10,0.0129556,-1.25438,-0.279142,-0.211362,-457.639,0.232722,
2,1,0,1,0,13018.9,0.236264,0.235952,54.1492,7,0.013685,10,0.0127766,-1.26641,-0.260674,-0.226337,-477.038,0.235952,
2,1,0,1,0,13018.9,0.239466,0.239181,52.6003,7,0.0138983,10,0.012581,-1.27901,-0.250947,-0.23511,-481.815,0.239181,
2,1,0,1,0,13018.9,0.242662,0.242344,51.0178,7,0.0141054,10,0.0123639,-1.29228,-0.242554,-0.243245,-484.029,0.242344,
2,1,0,1,0,13018.9,0.245869,0.245583,49.4732,7,0.0143062,10,0.0121498,-1.30563,-0.238105,-0.24779,-478.516,0.245583,
2,1,0,1,0,13018.9,0.249065,0.248757,47.9515,7,0.0145009,10,0.0119283,-1.3192,-0.238789,-0.24708,-462.779,0.248757,
2,1,0,1,0,13019,0.252261,0.251951,46.4899,7,0.0146896,10,0.0117132,-1.33264,-0.240649,-0.245171,-445.516,0.251951,
2,1,0,1,0,13019,0.255466,0.255155,45.0892,7,0.0148726,10,0.0115047,-1.34593,-0.245257,-0.240564,-424.133,0.255155,
2,1,0,1,0,13019,0.258662,0.258391,43.7672,7,0.0150502,10,0.011309,-1.35885,-0.25156,-0.234537,-401.495,0.258391,
2,1,0,1,0,13019,0.261866,0.261587,42.5099,7,0.0152226,10,0.01112,-1.37151,-0.258742,-0.228026,-379.267,0.261587,
2,1,0,1,0,13019,0.265063,0.264782,41.3384,7,0.0153902,10,0.0109456,-1.38365,-0.268918,-0.219398,-355.014,0.264782,
2,1,0,1,0,13019,0.268259,0.267943,40.2394,7,0.0155532,10,0.0107818,-1.39535,-0.280822,-0.210097,-330.908,0.267943,
2,1,0,1,0,13019,0.271466,0.271145,39.2392,7,0.0157121,10,0.0106395,-1.40628,-0.295115,-0.199922,-306.954,0.271145,
2,1,0,1,0,13019,0.274662,0.274373,38.2788,7,0.015867,10,0.0105027,-1.41704,-0.310717,-0.189884,-284.448,0.274373,
2,1,0,1,0,13019,0.277869,0.277581,37.4096,7,0.0160182,10,0.0103842,-1.42702,-0.324222,-0.181974,-266.384,0.277581,
2,1,0,1,0,13019,0.281065,0.280783,36.5869,7,0.0161661,10,0.010273,-1.43667,-0.344489,-0.171268,-245.232,0.280783,
2,1,0,1,0,13019,0.284262,0.283942,35.8303,7,0.0163109,10,0.0101737,-1.44575,-0.362386,-0.16281,-228.3,0.2839421,
2,1,0,1,0,13019,0.287469,0.287156,35.1439,7,0.0164528,10,0.0100918,-1.45415,-0.381749,-0.154552,-212.391,0.287156,
2,1,0,1,0,13019,0.290665,0.290367,34.4905,7,0.016592,10,0.0100149,-1.4623,-0.408338,-0.144488,-194.906,0.2903671,
2,1,0,1,0,13019,0.293861,0.293561,33.873,7,0.0167286,10,0.0099438,-1.47015,-0.427474,-0.13802,-183.24,0.293561,
2,1,0,1,0,13019,0.297066,0.296776,33.3288,7,0.016863,10,0.0098912,-1.47718,-0.431991,-0.136577,-179.374,0.296776,
2,1,0,1,0,13019,0.299638,0.299307,32.9173,7,0.0169689,10,0.00985241,-1.48258,-0.109062,-0.540977,-676.835,0.299307,
2,1,0,1,0,13019,0.300012,0.299632,32.8286,7,0.0169854,10,0.0098365,-1.48375,0.00804599,7.33285,8095.4,0.299632,
2,1,0,1,0,13019,0.298983,0.298826,30.3095,7,0.0170254,10,0.00905728,-1.51842,0.0283179,2.08349,2045.42,0.298826,
2,1,0,1,0,13019,0.295787,0.295597,23.783,7,0.0171324,10,0.00703019,-1.62373,0.029531,1.9979,1749.9,0.295597,
2,1,0,1,0,13019,0.292579,0.292367,18.7212,7,0.0172166,10,0.00547346,-1.72767,0.0290459,2.03127,1507.41,0.292367,
2,1,0,1,0,13019,0.289383,0.289169,14.5192,7,0.0172825,10,0.00419849,-1.83806,0.0267572,2.20501,1237.88,0.2891688,
2,1,0,1,0,13019,0.286187,0.285983,10.9504,7,0.0173329,10,0.00313164,-1.96057,0.0230573,2.55884,1053.32,0.285983,
2,1,0,1,0,13019,0.282983,0.282737,7.8644,7,0.0173701,10,0.00222356,-2.10433,0.0181332,3.25371,909.711,0.282737,
2,1,0,1,0,13019,0.279786,0.279521,5.19052,7,0.0173959,10,0.00145086,-2.28479,0.0112759,5.23239,790.433,0.279521,
2,1,0,1,0,13019,0.276582,0.276338,2.84674,7,0.0174116,10,0.000786662,-2.54565,0.0145597,4.05228,693.419,0.276338,
2,1,0,1,0,13019,0.273386,0.273134,0.794195,7,0.0174186,10,0.000216922,-3.10007,0.0439236,1.34324,612.231,0.273134,
2,0,0,1,0,13019.1,0.27019,0.269905,-1.03355,7,0.0174179,10,-0.00027896,-2.98567,-0.0806226,-0.731805,542.494,0.269905,
2,0,0,1,0,13019.1,0.266982,0.266712,-2.652,7,0.0174103,10,-0.00070732,-2.57643,-0.015345,-3.8449,485.21,0.266712,
2,0,0,1,0,13019.1,0.263786,0.263524,-4.10473,7,0.0173966,10,-0.0010817,-2.38671,-0.0159507,-3.6989,433.439,0.263524,
2,0,0,1,0,13019.1,0.260585,0.260348,-5.40987,7,0.0173774,10,-0.00140845,-2.26681,-0.0279264,-2.1127,388.958,0.260348,
2,0,0,1,0,13019.1,0.257383,0.257061,-6.60095,7,0.0173533,10,-0.00169684,-2.18039,-0.0398459,-1.4807,351.933,0.257061,
2,0,0,1,0,13019.1,0.254187,0.253865,-7.64888,7,0.0173246,10,-0.00194178,-2.1164,-0.0523861,-1.12625,319.605,0.253865,
2,0,0,1,0,13019.1,0.25098,0.250662,-8.6312,7,0.0172919,10,-0.00216352,-2.06393,-0.0657088,-0.897901,291.969,0.250662,
2,0,0,1,0,13019.1,0.247783,0.247496,-9.51747,7,0.0172555,10,-0.00235554,-2.02148,-0.0792125,-0.744832,269.263,0.247496,
2,0,0,1,0,13019.1,0.244587,0.244248,-10.3419,7,0.0172157,10,-0.00252599,-1.9854,-0.0943784,-0.625143,247.07,0.244248,
2,0,0,1,0,13019.1,0.241383,0.241086,-11.0898,7,0.0171727,10,-0.00267359,-1.95508,-0.110485,-0.534011,227.387,0.241086,
2,0,0,1,0,13019.1,0.238187,0.237893,-11.7861,7,0.0171269,10,-0.00280384,-1.92863,-0.126539,-0.466261,211.775,0.237893,
2,0,0,1,0,13019.1,0.234982,0.234671,-12.4336,7,0.0170784,10,-0.00291781,-1.9054,-0.144369,-0.408676,196.172,0.234671,
2,0,0,1,0,13019.1,0.231786,0.231516,-13.0383,7,0.0170274,10,-0.00301857,-1.88478,-0.16144,-0.365462,184.383,0.231516,
2,0,0,1,0,13019.1,0.22859,0.228317,-13.5946,7,0.016974,10,-0.00310388,-1.86663,-0.180412,-0.327029,172.339,0.228317,
2,0,0,1,0,13019.1,0.225383,0.225125,-14.1404,7,0.0169185,10,-0.00318335,-1.84954,-0.199279,-0.296067,162.396,0.225125,
2,0,0,1,0,13019.1,0.222187,0.221914,-14.6323,7,0.0168609,10,-0.0032471,-1.83469,-0.216801,-0.272139,154.646,0.221914,
2,0,0,1,0,13019.1,0.218979,0.21868,-15.1227,7,0.0168013,10,-0.00330703,-1.82037,-0.23734,-0.248588,146.08,0.21868,
2,0,0,1,0,13019.1,0.215783,0.215533,-15.5716,7,0.0167399,10,-0.0033562,-1.80767,-0.255624,-0.230808,139.733,0.215533,
2,0,0,1,0,13019.1,0.212587,0.212306,-16.0129,7,0.0166767,10,-0.00339963,-1.79553,-0.274406,-0.21501,133.947,0.212306,
2,0,0,1,0,13019.1,0.20938,0.209066,-16.4275,7,0.0166117,10,-0.00343443,-1.78443,-0.295438,-0.199703,127.664,0.209066,
2,0,0,1,0,13019.1,0.206184,0.205907,-16.8337,7,0.0165452,10,-0.00346617,-1.77382,-0.311531,-0.189387,124.157,0.205907,
2,0,0,1,0,13019.1,0.202988,0.20265,-17.2163,7,0.0164771,10,-0.00348888,-1.76406,-0.329015,-0.179323,120.272,0.20265,
2,0,0,1,0,13019.1,0.199783,0.199455,-17.6084,7,0.0164074,10,-0.00351209,-1.75428,-0.341453,-0.172791,118.571,0.199455,
2,0,0,1,0,13019.1,0.196587,0.19627,-17.9665,7,0.0163362,10,-0.00352628,-1.74554,-0.355867,-0.165792,116.122,0.1962698,
2,0,0,1,0,13019.1,0.193382,0.193081,-18.3544,7,0.0162635,10,-0.00354389,-1.73626,-0.371702,-0.158729,113.5,0.193081,
2,0,0,1,0,13019.2,0.190186,0.189892,-18.6977,7,0.0161893,10,-0.00355056,-1.72821,-0.379987,-0.155268,113.212,0.189892,
2,0,0,1,0,13019.2,0.18699,0.186711,-19.0549,7,0.0161138,10,-0.00355776,-1.71999,-0.392238,-0.150419,111.897,0.186711,
2,0,0,1,0,13019.2,0.183783,0.183446,-19.4183,7,0.0160368,10,-0.00356221,-1.71179,-0.391034,-0.150882,114.353,0.183446,
2,0,0,1,0,13019.2,0.180587,0.180286,-19.7861,7,0.0159583,10,-0.00356717,-1.70364,-0.397711,-0.148349,114.524,0.180286,
2,0,0,1,0,13019.2,0.17738,0.177103,-20.1603,7,0.0158784,10,-0.00357044,-1.6955,-0.399759,-0.147589,116.07,0.177103,
2,0,0,1,0,13019.2,0.174183,0.173871,-20.5254,7,0.015797,10,-0.00356877,-1.68771,-0.394508,-0.149553,119.916,0.173871,
2,0,0,1,0,13019.2,0.170987,0.17066,-20.9024,7,0.0157141,10,-0.0035672,-1.6798,-0.392893,-0.150168,122.703,0.17066,
2,0,0,1,0,13019.2,0.16778,0.167461,-21.3241,7,0.0156296,10,-0.00357095,-1.67113,-0.378825,-0.155745,129.737,0.167461,
2,0,0,1,0,13019.2,0.164584,0.164282,-21.7335,7,0.0155435,10,-0.00357041,-1.66287,-0.367156,-0.160695,136.478,0.164282,
2,0,0,1,0,13019.2,0.161382,0.161077,-22.1852,7,0.0154556,10,-0.00357353,-1.65394,-0.359565,-0.164087,142.317,0.161077,
2,0,0,1,0,13019.2,0.158183,0.157895,-22.6446,7,0.0153659,10,-0.00357546,-1.64504,-0.341678,-0.172677,152.987,0.157895,
2,0,0,1,0,13019.2,0.154987,0.154642,-23.1484,7,0.0152743,10,-0.00357972,-1.63548,-0.325052,-0.181509,164.491,0.154642,
2,0,0,1,0,13019.2,0.151783,0.151441,-23.6979,7,0.0151806,10,-0.00358884,-1.62529,-0.307111,-0.192113,178.183,0.151441,
2,0,0,1,0,13019.2,0.148587,0.148291,-24.2885,7,0.0150846,10,-0.00360176,-1.6146,-0.289216,-0.204,193.983,0.148291,
2,0,0,1,0,13019.2,0.145385,0.145109,-24.9227,7,0.0149861,10,-0.00361652,-1.60341,-0.27436,-0.215046,209.933,0.145109,
2,0,0,1,0,13019.2,0.142183,0.14188,-25.624,7,0.0148849,10,-0.00363554,-1.59135,-0.257655,-0.228988,229.952,0.14188,
2,0,0,1,0,13019.2,0.138987,0.138674,-26.3782,7,0.0147809,10,-0.00365796,-1.57876,-0.24422,-0.241585,249.765,0.138674,
2,0,0,1,0,13019.2,0.13578,0.135499,-27.23,7,0.0146736,10,-0.00368963,-1.56495,-0.230926,-0.255493,272.538,0.135499,
2,0,0,1,0,13019.2,0.132584,0.132293,-28.1237,7,0.0145628,10,-0.00372058,-1.55093,-0.219058,-0.269334,296.763,0.132293,
2,0,0,1,0,13019.2,0.129388,0.129068,-29.116,7,0.0144482,10,-0.00375793,-1.53587,-0.210919,-0.279729,319.008,0.1290676,
2,0,0,1,0,13019.2,0.12618,0.125888,-30.1724,7,0.0143296,10,-0.00379836,-1.52039,-0.202453,-0.291425,344.288,0.1258885,
2,0,0,1,0,13019.2,0.122984,0.122717,-31.3076,7,0.0142065,10,-0.00384197,-1.50435,-0.196329,-0.300516,368.386,0.122717,
2,0,0,1,0,13019.2,0.119782,0.119508,-32.5255,7,0.0140788,10,-0.00388706,-1.48778,-0.192672,-0.306221,389.561,0.119508,
2,0,0,1,0,13019.2,0.116584,0.116293,-33.822,7,0.0139459,10,-0.00393326,-1.4708,-0.191478,-0.308129,407.009,0.116293,
2,0,0,1,0,13019.2,0.113387,0.113116,-35.1481,7,0.0138079,10,-0.00397581,-1.4541,-0.192448,-0.306577,420.454,0.113116,
2,0,0,1,0,13019.3,0.110183,0.109915,-36.5182,7,0.0136644,10,-0.00401388,-1.43749,-0.195947,-0.301102,428.833,0.109915,
2,0,0,1,0,13019.3,0.106987,0.106742,-37.8932,7,0.0135154,10,-0.00404478,-1.42144,-0.200946,-0.293611,433.677,0.106742,
2,0,0,1,0,13019.3,0.103785,0.103516,-39.3011,7,0.0133609,10,-0.0040683,-1.40559,-0.20889,-0.282445,432.385,0.103516,
2,0,0,1,0,13019.3,0.100583,0.100359,-40.6804,7,0.0132008,10,-0.00408265,-1.39061,-0.217712,-0.271,429.117,0.100359,
2,0,0,1,0,13019.3,0.0973873,0.0970879,-42.0643,7,0.0130352,10,-0.00408393,-1.37609,-0.229388,-0.257206,420.778,0.09708786,
2,0,0,1,0,13019.3,0.0941801,0.0939618,-43.3773,7,0.0128641,10,-0.00407581,-1.36274,-0.241109,-0.244703,413.222,0.0939618,
2,0,0,1,0,13019.3,0.0909839,0.0908039,-44.6501,7,0.012688,10,-0.00405441,-1.35018,-0.253535,-0.232709,405.06,0.0908039,
2,0,0,1,0,13019.3,0.0877878,0.0875675,-45.9662,7,0.0125066,10,-0.00402515,-1.33756,-0.266621,-0.221288,396.071,0.0875675,
2,0,0,1,0,13019.3,0.0845806,0.0843174,-47.2371,7,0.01232,10,-0.00398291,-1.32572,-0.281975,-0.209238,384.451,0.0843174,
2,0,0,1,0,13019.3,0.0813844,0.0811807,-48.4395,7,0.0121286,10,-0.00393235,-1.3148,-0.30167,-0.195578,368.55,0.0811807,
2,0,0,1,0,13019.3,0.0781828,0.077938,-49.5965,7,0.0119324,10,-0.00386545,-1.30455,-0.324427,-0.181859,350.903,0.077938,
2,0,0,1,0,13019.3,0.0749839,0.0747758,-50.6806,7,0.0117317,10,-0.00378968,-1.29516,-0.352016,-0.167606,330.502,0.0747758,
2,0,0,1,0,13019.3,0.0717877,0.0715628,-51.7127,7,0.0115268,10,-0.00370071,-1.2864,-0.379893,-0.155307,312.569,0.0715628,
2,0,0,1,0,13019.3,0.0685832,0.068371,-52.6731,7,0.0113179,10,-0.00360131,-1.27841,-0.411994,-0.143206,293.612,0.06837099,
2,0,0,1,0,13019.3,0.0653871,0.0651495,-53.5937,7,0.0111052,10,-0.0034916,-1.27089,-0.44862,-0.131514,274.342,0.0651495,
2,0,0,1,0,13019.3,0.0621854,0.0619916,-54.4342,7,0.0108891,10,-0.00337446,-1.26413,-0.491434,-0.120057,254.365,0.0619916,
2,0,0,1,0,13019.3,0.0589837,0.058751,-55.2275,7,0.0106696,10,-0.00324467,-1.25784,-0.548037,-0.107657,231.371,0.058751,
2,0,0,1,0,13019.3,0.0557876,0.0555422,-55.9363,7,0.0104472,10,-0.00310683,-1.25231,-0.624002,-0.094551,205.719,0.0555422,
2,0,0,1,0,13019.3,0.0525804,0.0522846,-56.5703,7,0.0102221,10,-0.00295776,-1.24741,-0.721356,-0.0817904,179.943,0.0522846,
2,0,0,1,0,13019.3,0.0493842,0.0490981,-57.0866,7,0.0099947,10,-0.00280284,-1.24347,-0.851627,-0.0692792,153.894,0.0490981,
2,0,0,1,0,13019.3,0.0461881,0.0459338,-57.5339,7,0.00976539,10,-0.00264275,-1.24008,-1.03268,-0.0571327,127.958,0.0459338,
2,0,0,1,0,13019.3,0.0429808,0.0426996,-57.9127,7,0.00953442,10,-0.00247285,-1.23723,-1.24804,-0.047274,106.578,0.0426996,
2,0,0,1,0,13019.3,0.0397847,0.0394442,-58.2133,7,0.00930213,10,-0.00229618,-1.23498,-1.57477,-0.0374658,84.9215,0.0394442,
2,0,0,1,0,13019.3,0.036583,0.0362757,-58.4532,7,0.00906876,10,-0.00212043,-1.23319,-2.12613,-0.02775,63.1571,0.0362757,
2,0,0,1,0,13019.3,0.0333841,0.0330563,-58.6275,7,0.00883456,10,-0.00193801,-1.2319,-2.87396,-0.0205291,46.8786,0.03305627,
2,0,0,1,0,13019.4,0.030188,0.0298623,-58.7235,7,0.00859983,10,-0.00175362,-1.23119,-4.48825,-0.0131454,30.0866,0.0298623,
2,0,0,1,0,13019.4,0.0269835,0.0267087,-58.8104,7,0.00836474,10,-0.00157075,-1.23055,-8.15271,-0.00723686,16.5883,0.0267087,
2,0,0,1,0,13019.4,0.0237874,0.0234755,-58.8383,7,0.00812941,10,-0.00138126,-1.23034,-21.5067,-0.00274333,6.29146,0.0234755,
2,0,0,1,0,13019.4,0.0205857,0.0202455,-58.84,7,0.00789404,10,-0.00119124,-1.23033,28.8015,0.00204851,-4.69929,0.0202455,
2,0,0,1,0,13019.4,0.017384,0.0170738,-58.8039,7,0.00765872,10,-0.00100401,-1.23059,10.3355,0.00570846,-13.0895,0.0170738,
2,0,0,1,0,13019.4,0.0141879,0.0138809,-58.7501,7,0.0074236,10,-0.000815506,-1.23099,6.46706,0.00912316,-20.9023,0.0138809,
2,0,0,1,0,13019.4,0.0109806,0.0106775,-58.6708,7,0.00718876,10,-0.000626455,-1.23158,4.88486,0.0120781,-27.6351,0.0106775,
2,0,0,1,0,13019.4,0.00778448,0.00748563,-58.5733,7,0.00695428,10,-0.000438458,-1.2323,4.65189,0.012683,-28.9877,0.00748563,
2,0,0,1,0,13019.4,0.00458834,0.00428108,-58.4504,7,0.00672023,10,-0.000250231,-1.23321,3.5787,0.0164864,-37.5941,0.00428108,
2,0,0,1,0,13019.4,0.0013811,0.00103306,-58.3777,7,0.00648661,10,-6.03075e-05,-1.23375,3.04681,0.0193645,-44.0514,0.00103306,
2,0,0,1,0,13019.4,-0.00181504,-0.00216089,-58.1881,7,0.0062535,10,0.000125738,-1.23517,2.61523,0.0225601,-51.1723,-0.00216089,
2,0,0,1,0,13019.4,-0.0050195,-0.00537816,-58.0066,7,0.00602115,10,0.000311969,-1.23652,2.08781,0.0282593,-63.9301,-0.005378163,
2,0,0,1,0,13019.4,-0.00821564,-0.00858802,-57.7919,7,0.00578956,10,0.000496317,-1.23813,1.9004,0.0310461,-69.9592,-0.00858802,
2,0,0,1,0,13019.4,-0.0114118,-0.0117894,-57.5579,7,0.00555889,10,0.000678572,-1.23989,1.65426,0.0356655,-80.0274,-0.0117894,
2,0,0,1,0,13019.4,-0.0146162,-0.0149526,-57.2933,7,0.00532918,10,0.000856682,-1.2419,1.47728,0.0399383,-89.1887,-0.0149526,
2,0,0,1,0,13019.4,-0.0178124,-0.0181359,-56.9856,7,0.00510064,10,0.00103349,-1.24423,1.32618,0.0444888,-98.8325,-0.0181359,
2,0,0,1,0,13019.4,-0.0210196,-0.0213447,-56.6541,7,0.00487339,10,0.00120927,-1.24677,1.18417,0.0498239,-110.027,-0.02134471,
2,0,0,1,0,13019.4,-0.0242158,-0.024597,-56.2921,7,0.00464752,10,0.00138462,-1.24955,1.09645,0.05381,-118.072,-0.02459698,
2,0,0,1,0,13019.4,-0.0274119,-0.0277835,-55.8815,7,0.0044232,10,0.00155258,-1.25273,0.987825,0.0597272,-130.106,-0.0277835,
2,0,0,1,0,13019.4,-0.0306191,-0.0309838,-55.4687,7,0.00420052,10,0.00171863,-1.25595,0.91885,0.0642107,-138.83,-0.0309838,
2,0,0,1,0,13019.4,-0.0338153,-0.0341565,-54.9872,7,0.00397966,10,0.00187817,-1.25974,0.869133,0.0678837,-145.565,-0.0341565,
2,0,0,1,0,13019.4,-0.037017,-0.0373781,-54.5177,7,0.0037607,10,0.00203777,-1.26346,0.82131,0.0718364,-152.754,-0.0373781,
2,0,0,1,0,13019.4,-0.0402187,-0.0405773,-54.0192,7,0.00354367,10,0.00219195,-1.26745,0.807904,0.0730284,-153.883,-0.0405773,
2,0,0,1,0,13019.4,-0.0434148,-0.0437766,-53.5145,7,0.00332865,10,0.00234268,-1.27153,0.785697,0.0750926,-156.814,-0.0437766,
2,0,0,1,0,13019.4,-0.0466193,-0.0470023,-53.0105,7,0.00311566,10,0.00249161,-1.27564,0.778213,0.0758148,-156.848,-0.0470023,
2,0,0,1,0,13019.5,-0.0498154,-0.0501676,-52.5121,7,0.00290467,10,0.00263441,-1.27974,0.799563,0.0737903,-151.305,-0.0501676,
2,0,0,1,0,13019.5,-0.0530115,-0.0533573,-52.0146,7,0.00269566,10,0.00277536,-1.28387,0.82116,0.0718496,-146.002,-0.0533573,
2,0,0,1,0,13019.5,-0.056216,-0.0565799,-51.5773,7,0.00248852,10,0.00291824,-1.28754,0.868652,0.0679214,-136.859,-0.05657991,
2,0,0,1,0,13019.5,-0.0594121,-0.0598343,-51.137,7,0.00228314,10,0.00305974,-1.29127,0.918851,0.0642107,-128.27,-0.0598343,
2,0,0,1,0,13019.5,-0.0626194,-0.0629858,-50.7578,7,0.00207941,10,0.00319703,-1.2945,0.964905,0.0611459,-121.221,-0.06298583,
2,0,0,1,0,13019.5,-0.0658155,-0.0662052,-50.3667,7,0.00187719,10,0.00333454,-1.29786,1.06134,0.05559,-109.424,-0.0662052,
2,0,0,1,0,13019.5,-0.0690117,-0.0693748,-50.0263,7,0.00167643,10,0.00347056,-1.3008,1.16676,0.0505673,-98.915,-0.0693748,
2,0,0,1,0,13019.5,-0.0722189,-0.0725592,-49.7445,7,0.00147691,10,0.00360942,-1.30325,1.32838,0.0444151,-86.3465,-0.0725592,
2,0,0,1,0,13019.5,-0.075415,-0.0757881,-49.4915,7,0.00127849,10,0.00375087,-1.30547,1.53988,0.0383147,-74.093,-0.0757881,
2,0,0,1,0,13019.5,-0.0786167,-0.0789619,-49.2652,7,0.001081,10,0.00389007,-1.30746,1.74845,0.0337442,-64.9603,-0.0789619,
2,0,0,1,0,13019.5,-0.0818184,-0.0821781,-49.0777,7,0.00088434,10,0.00403311,-1.30912,2.16237,0.0272849,-52.3438,-0.0821781,
2,0,0,1,0,13019.5,-0.0850146,-0.0853774,-48.9119,7,0.000688376,10,0.00417597,-1.31059,2.69414,0.0218994,-41.876,-0.0853774,
2,0,0,1,0,13019.5,-0.088219,-0.088565,-48.8227,7,0.000492951,10,0.00432398,-1.31138,3.60887,0.0163486,-31.1862,-0.088565,
2,0,0,1,0,13019.5,-0.0914152,-0.0917472,-48.7298,7,0.000297855,10,0.00447082,-1.31221,5.51967,0.010689,-20.3497,-0.0917472,
2,0,0,1,0,13019.5,-0.0946141,-0.0949327,-48.6799,7,0.000103047,10,0.00462131,-1.31265,8.5713,0.00688343,-13.0932,-0.0949327,
2,0,0,1,0,13019.5,-0.0978158,-0.098185,-48.6512,7,-9.16128e-05,10,0.00477682,-1.31291,43.2372,0.00136457,-2.5942,-0.098185,
2,0,0,1,0,13019.5,-0.101012,-0.101341,-48.6554,7,-0.000286222,10,0.00493078,-1.31287,-17.9831,-0.00328085,6.23816,-0.101341,
2,0,0,1,0,13019.5,-0.104219,-0.104579,-48.6965,7,-0.000480914,10,0.00509264,-1.3125,-7.36185,-0.00801429,15.2473,-0.104579,
2,0,0,1,0,13019.5,-0.107415,-0.107751,-48.7599,7,-0.000675843,10,0.00525392,-1.31194,-4.53169,-0.0130194,24.8029,-0.107751,
2,0,0,1,0,13019.5,-0.110611,-0.110994,-48.8465,7,-0.000871061,10,0.00542166,-1.31117,-3.59021,-0.0164336,31.3597,-0.110994,
2,0,0,1,0,13019.5,-0.113819,-0.114153,-48.9732,7,-0.0010667,10,0.00559042,-1.31004,-2.86126,-0.0206203,39.443,-0.114153,
2,0,0,1,0,13019.5,-0.117015,-0.117343,-49.0967,7,-0.00126284,10,0.00576118,-1.30895,-2.41113,-0.0244699,46.9329,-0.117343,
2,0,0,1,0,13019.5,-0.120216,-0.120607,-49.267,7,-0.00145956,10,0.00594195,-1.30744,-2.13289,-0.027662,53.2371,-0.120607,
2,0,0,1,0,13019.5,-0.123418,-0.123748,-49.4452,7,-0.001657,10,0.00611875,-1.30588,-1.86732,-0.0315961,61.0226,-0.123748,
2,0,0,1,0,13019.5,-0.126614,-0.126972,-49.6557,7,-0.00185522,10,0.00630487,-1.30403,-1.70603,-0.0345833,67.069,-0.126972,
2,0,0,1,0,13019.6,-0.129819,-0.130179,-49.88,7,-0.00205431,10,0.0064933,-1.30207,-1.58755,-0.0371643,72.386,-0.130179,
2,0,0,1,0,13019.6,-0.133015,-0.133339,-50.1208,7,-0.00225433,10,0.00668304,-1.29998,-1.47692,-0.039948,78.1923,-0.133339,
2,0,0,1,0,13019.6,-0.136214,-0.136561,-50.3726,7,-0.00245533,10,0.00687894,-1.29781,-1.41749,-0.0416229,81.8752,-0.136561,
2,0,0,1,0,13019.6,-0.139416,-0.139759,-50.6556,7,-0.00265742,10,0.00707959,-1.29537,-1.34697,-0.0438019,86.6255,-0.1397593,
2,0,0,1,0,13019.6,-0.142612,-0.142999,-50.9296,7,-0.00286063,10,0.00728288,-1.29303,-1.30447,-0.045229,89.9278,-0.142999,
2,0,0,1,0,13019.6,-0.145819,-0.146168,-51.2322,7,-0.00306497,10,0.00748853,-1.29046,-1.27108,-0.0464171,92.8402,-0.1461684,
2,0,0,1,0,13019.6,-0.149015,-0.14937,-51.5245,7,-0.00327052,10,0.0076962,-1.28799,-1.22556,-0.0481412,96.8446,-0.14937,
2,0,0,1,0,13019.6,-0.152211,-0.152617,-51.8492,7,-0.0034773,10,0.00791306,-1.28526,-1.21263,-0.0486544,98.4721,-0.152617,
2,0,0,1,0,13019.6,-0.155418,-0.155778,-52.1672,7,-0.00368538,10,0.0081265,-1.2826,-1.19375,-0.0494242,100.623,-0.155778,
2,0,0,1,0,13019.6,-0.158615,-0.158959,-52.4917,7,-0.00389473,10,0.00834404,-1.27991,-1.18413,-0.0498255,102.082,-0.158959,
2,0,0,1,0,13019.6,-0.161816,-0.162188,-52.8143,7,-0.00410536,10,0.00856584,-1.27725,-1.187,-0.0497051,102.457,-0.162188,
2,0,0,1,0,13019.6,-0.165018,-0.165361,-53.1502,7,-0.00431733,10,0.00878895,-1.2745,-1.18405,-0.0498291,103.359,-0.1653607,
2,0,0,1,0,13019.6,-0.168214,-0.16852,-53.4727,7,-0.0045306,10,0.0090112,-1.27187,-1.18191,-0.0499192,104.176,-0.16852,
2,0,0,1,0,13019.6,-0.171419,-0.171741,-53.8129,7,-0.0047452,10,0.00924189,-1.26911,-1.1977,-0.0492612,103.441,-0.171741,
2,0,0,1,0,13019.6,-0.174615,-0.174895,-54.138,7,-0.00496114,10,0.00946846,-1.2665,-1.21121,-0.0487118,102.904,-0.174895,
2,0,0,1,0,13019.6,-0.177814,-0.178082,-54.4661,7,-0.00517837,10,0.00969946,-1.26387,-1.21765,-0.0484542,102.998,-0.178082,
2,0,0,1,0,13019.6,-0.181015,-0.181334,-54.7913,7,-0.00539694,10,0.00993551,-1.26129,-1.2262,-0.0481163,102.894,-0.181334,
2,0,0,1,0,13019.6,-0.184211,-0.184495,-55.1265,7,-0.00561681,10,0.0101705,-1.25864,-1.22521,-0.0481549,103.604,-0.184495,
2,0,0,1,0,13019.6,-0.187419,-0.187701,-55.4558,7,-0.00583801,10,0.0104091,-1.25605,-1.24031,-0.0475686,102.934,-0.187701,
2,0,0,1,0,13019.6,-0.190615,-0.190907,-55.7948,7,-0.00606055,10,0.0106516,-1.25341,-1.2449,-0.0473935,103.18,-0.190907,
2,0,0,1,0,13019.6,-0.193811,-0.194113,-56.1067,7,-0.0062844,10,0.010891,-1.25099,-1.28538,-0.0459009,100.441,-0.194113,
2,0,0,1,0,13019.6,-0.197018,-0.197303,-56.4481,7,-0.00650956,10,0.0111374,-1.24835,-1.42939,-0.0412765,90.584,-0.197303,
2,0,0,1,0,13019.6,-0.199647,-0.199964,-56.6875,7,-0.00669626,10,0.0113355,-1.24651,0.310744,0.189867,-407.636,-0.1999644,
2,0,0,1,0,13019.6,-0.200134,-0.200589,-56.6719,7,-0.00673028,10,0.0113678,-1.24663,-0.0146802,-4.01903,8127.79,-0.200589,
2,0,0,1,1,13019.6,-0.198935,-0.199447,-53.932,7,-0.00681241,10,0.0107566,-1.26815,-0.054292,-1.08672,2080.94,-0.199447,
2,0,0,1,1,13019.6,-0.195739,-0.196196,-47.4499,7,-0.00701407,10,0.00930949,-1.32376,-0.0605163,-0.974944,1767.36,-0.196196,
2,0,0,1,1,13019.6,-0.192535,-0.192983,-42.1601,7,-0.00719253,10,0.0081362,-1.3751,-0.0617619,-0.955282,1597.51,-0.192983,
2,0,0,1,1,13019.7,-0.189339,-0.189763,-37.5372,7,-0.00735132,10,0.00712316,-1.42554,-0.0628926,-0.938107,1385.5,-0.189763,
2,0,0,1,1,13019.7,-0.186137,-0.186595,-33.4006,7,-0.00749266,10,0.00623241,-1.47625,-0.0619244,-0.952775,1246.8,-0.186595,
2,0,0,1,1,13019.7,-0.182935,-0.183335,-29.6301,7,-0.00761824,10,0.00543222,-1.52827,-0.0599578,-0.984025,1138.24,-0.1833346,
2,0,0,1,1,13019.7,-0.179739,-0.180157,-26.1678,7,-0.0077294,10,0.0047143,-1.58223,-0.0572621,-1.03035,1049.03,-0.180157,
2,0,0,1,1,13019.7,-0.176532,-0.176934,-22.935,7,-0.00782723,10,0.00405797,-1.6395,-0.0535885,-1.10098,979.524,-0.176934,
2,0,0,1,1,13019.7,-0.173336,-0.173754,-19.9295,7,-0.0079126,10,0.00346283,-1.7005,-0.0497612,-1.18566,912.977,-0.173754,
2,0,0,1,1,13019.7,-0.17014,-0.170547,-17.1045,7,-0.00798634,10,0.00291712,-1.76689,-0.0449139,-1.31362,863.189,-0.170547,
2,0,0,1,1,13019.7,-0.166932,-0.167318,-14.4467,7,-0.00804913,10,0.00241719,-1.84023,-0.0400275,-1.47399,810.822,-0.167318,
2,0,0,1,1,13019.7,-0.163736,-0.164185,-11.9299,7,-0.00810161,10,0.00195871,-1.92336,-0.034314,-1.71942,770.821,-0.164185,
2,0,0,1,1,13019.7,-0.160532,-0.160926,-9.52846,7,-0.00814426,10,0.00153338,-2.02098,-0.0282369,-2.08946,731.72,-0.160926,
2,0,0,1,1,13019.7,-0.157336,-0.157775,-7.2591,7,-0.00817759,10,0.0011453,-2.13912,-0.0215934,-2.73232,692.453,-0.157775,
2,0,0,1,1,13019.7,-0.154139,-0.154538,-5.09528,7,-0.00820205,10,0.000787416,-2.29283,-0.0133251,-4.42774,665.903,-0.154538,
2,0,0,1,1,13019.7,-0.150935,-0.151332,-3.0297,7,-0.00821807,10,0.000458489,-2.5186,-0.013757,-4.28871,632.772,-0.151332,
2,0,0,1,1,13019.7,-0.147739,-0.148205,-1.05775,7,-0.008226,10,0.000156765,-2.97562,-0.0452098,-1.30503,607.996,-0.148205,
2,1,0,1,1,13019.7,-0.144532,-0.14496,0.849883,7,-0.00822621,10,-0.000123199,-3.07064,0.077594,0.760368,586.369,-0.14496,
2,1,0,1,1,13019.7,-0.141335,-0.141781,2.66074,7,-0.00821898,10,-0.000377243,-2.575,0.0168635,3.49869,557.633,-0.141781,
2,1,0,1,1,13019.7,-0.138139,-0.138633,4.41622,7,-0.00820463,10,-0.000612234,-2.35495,0.0132997,4.43618,538.229,-0.138633,
2,1,0,1,1,13019.7,-0.134932,-0.135381,6.09365,7,-0.00818341,10,-0.000824963,-2.21512,0.0236229,2.49758,515.52,-0.135381,
2,1,0,1,1,13019.7,-0.131736,-0.132228,7.70221,7,-0.00815564,10,-0.00101845,-2.11338,0.0330417,1.78562,496.933,-0.1322283,
2,1,0,1,1,13019.7,-0.12854,-0.128996,9.25183,7,-0.00812157,10,-0.00119345,-2.03377,0.042239,1.39681,480.325,-0.128996,
2,1,0,1,1,13019.7,-0.125333,-0.125828,10.7797,7,-0.00808134,10,-0.00135638,-1.96739,0.0516558,1.14218,463.474,-0.125828,
2,1,0,1,1,13019.7,-0.122136,-0.122591,12.2368,7,-0.00803514,10,-0.00150012,-1.91233,0.0609732,0.967638,449.398,-0.122591,
2,1,0,1,1,13019.7,-0.118932,-0.119377,13.6584,7,-0.00798321,10,-0.0016305,-1.8646,0.07123,0.828302,432.017,-0.1193772,
2,1,0,1,1,13019.7,-0.115736,-0.11618,15.0113,7,-0.00792573,10,-0.00174402,-1.82358,0.0809999,0.728396,419.793,-0.11618,
2,1,0,1,1,13019.7,-0.11254,-0.112974,16.3325,7,-0.0078629,10,-0.00184515,-1.78695,0.0916577,0.643699,404.809,-0.112974,
2,1,0,1,1,13019.8,-0.109335,-0.109756,17.6249,7,-0.00779482,10,-0.00193444,-1.75387,0.102305,0.576705,391.794,-0.109756,
2,1,0,1,1,13019.8,-0.106139,-0.106558,18.8477,7,-0.00772174,10,-0.00200837,-1.72474,0.113708,0.518874,377.718,-0.106558,
2,1,0,1,1,13019.8,-0.102932,-0.103329,20.0463,7,-0.00764381,10,-0.00207137,-1.69797,0.125371,0.470602,364.927,-0.103329,
2,1,0,1,1,13019.8,-0.0997357,-0.100133,21.183,7,-0.00756122,10,-0.00212111,-1.67401,0.136933,0.430868,353.743,-0.100133,
2,1,0,1,1,13019.8,-0.0965395,-0.0969528,22.2972,7,-0.00747413,10,-0.00216177,-1.65175,0.149505,0.394636,341.291,-0.0969528,
2,1,0,1,1,13019.8,-0.0933323,-0.0937196,23.3892,7,-0.00738264,10,-0.00219203,-1.63098,0.161503,0.365319,331.329,-0.0937196,
2,1,0,1,1,13019.8,-0.0901362,-0.0905235,24.4167,7,-0.00728691,10,-0.00221029,-1.61231,0.174857,0.337418,319.835,-0.0905235,
2,1,0,1,1,13019.8,-0.0869345,-0.0873307,25.4247,7,-0.00718713,10,-0.00222036,-1.59474,0.188908,0.312321,308.567,-0.0873307,
2,1,0,1,1,13019.8,-0.0837328,-0.0841431,26.3942,7,-0.00708337,10,-0.00222089,-1.57849,0.201758,0.29243,300.076,-0.0841431,
2,1,0,1,1,13019.8,-0.0805366,-0.0809014,27.3445,7,-0.00697579,10,-0.00221221,-1.56313,0.21565,0.273592,290.883,-0.0809014,
2,1,0,1,1,13019.8,-0.0773322,-0.0777032,28.2638,7,-0.00686448,10,-0.00219619,-1.54877,0.230796,0.255637,280.888,-0.0777032,
2,1,0,1,1,13019.8,-0.074136,-0.074539,29.1456,7,-0.00674956,10,-0.00217249,-1.53543,0.245628,0.2402,272.285,-0.074539,
2,1,0,1,1,13019.8,-0.0709371,-0.0713376,29.9911,7,-0.00663121,10,-0.00213949,-1.52301,0.262592,0.224683,262.233,-0.0713376,
2,1,0,1,1,13019.8,-0.0677354,-0.0681489,30.8168,7,-0.00650949,10,-0.00210013,-1.51121,0.27851,0.211841,254.157,-0.0681489,
2,1,0,1,1,13019.8,-0.0645393,-0.0649433,31.6098,7,-0.00638453,10,-0.00205285,-1.50018,0.296043,0.199295,245.265,-0.0649433,
2,1,0,1,1,13019.8,-0.061332,-0.0617547,32.3948,7,-0.00625644,10,-0.00200053,-1.48952,0.315368,0.187083,235.841,-0.0617547,
2,1,0,1,1,13019.8,-0.0581359,-0.0585459,33.1285,7,-0.00612529,10,-0.00193954,-1.4798,0.333954,0.176671,227.852,-0.0585459,
2,1,0,1,1,13019.8,-0.0549398,-0.0553594,33.8331,7,-0.00599129,10,-0.00187298,-1.47066,0.356463,0.165515,218.171,-0.0553594,
2,1,0,1,1,13019.8,-0.0517325,-0.0521453,34.5259,7,-0.00585446,10,-0.00180036,-1.46186,0.374544,0.157525,211.868,-0.0521453,
2,1,0,1,1,13019.8,-0.0485364,-0.0489248,35.1939,7,-0.00571495,10,-0.00172186,-1.45353,0.398235,0.148154,203.079,-0.0489248,
2,1,0,1,1,13019.8,-0.0453347,-0.0457818,35.8328,7,-0.00557282,10,-0.00164049,-1.44572,0.423514,0.139311,194.4,-0.0457818,
2,1,0,1,1,13019.8,-0.042133,-0.0424988,36.4448,7,-0.00542819,10,-0.00154886,-1.43836,0.45025,0.131038,186.034,-0.0424988,
2,1,0,1,1,13019.8,-0.0389369,-0.0393419,37.0149,7,-0.00528121,10,-0.00145624,-1.43162,0.4813,0.122585,176.823,-0.0393419,
2,1,0,1,1,13019.8,-0.0357324,-0.036061,37.587,7,-0.00513195,10,-0.00135543,-1.42496,0.508174,0.116102,170.019,-0.036061,
2,1,0,1,1,13019.8,-0.0325363,-0.0328925,38.1119,7,-0.00498049,10,-0.0012536,-1.41894,0.539054,0.109451,162.533,-0.03289254,
2,1,0,1,1,13019.9,-0.0293374,-0.0296944,38.6218,7,-0.00482697,10,-0.00114685,-1.41317,0.575156,0.102581,154.381,-0.0296944,
2,1,0,1,1,13019.9,-0.0261357,-0.0264824,39.105,7,-0.00467144,10,-0.00103559,-1.40777,0.613299,0.0962011,146.58,-0.0264824,
2,1,0,1,1,13019.9,-0.0229395,-0.023316,39.5546,7,-0.00451408,10,-0.000922256,-1.4028,0.651811,0.090517,139.556,-0.023316,
2,1,0,1,1,13019.9,-0.0197323,-0.0200998,39.987,7,-0.00435494,10,-0.000803731,-1.39808,0.702697,0.0839622,130.855,-0.0200998,
2,1,0,1,1,13019.9,-0.0165361,-0.0169366,40.4022,7,-0.00419411,10,-0.000684276,-1.39359,0.745672,0.0791232,124.593,-0.0169366,
2,1,0,1,1,13019.9,-0.01334,-0.0137204,40.7749,7,-0.0040317,10,-0.000559448,-1.38961,0.80751,0.0730641,116.128,-0.0137204,
2,1,0,1,1,13019.9,-0.0101328,-0.0104925,41.1524,7,-0.00386778,10,-0.000431791,-1.38561,0.877133,0.0672646,107.868,-0.0104925,
2,1,0,1,1,13019.9,-0.00693663,-0.00729856,41.4736,7,-0.00370248,10,-0.000302698,-1.38223,0.930839,0.0633837,102.443,-0.00729856,
2,1,0,1,1,13019.9,-0.00373494,-0.00410143,41.7867,7,-0.00353594,10,-0.000171385,-1.37896, , , ,-0.00410143,
2,1,0,1,1,13019.9,-0.000774628,-0.00118743,42.0589,7,-0.0033808,10,-4.99421e-05,-1.37614, , , ,-0.00118743,
2,1,0,0,1,13019.9,-0.000125413,-0.000554371,42.1229,7,-0.00334713,10,-2.33518e-05,-1.37548, , , ,-0.000554371,