File: Figure_codes/Fig_3-5/rawdata_trumpetplot_data/after 10th/20221101_1-115_003_TrumpetPlot_ParaChange_from10_every3_07_CV_C01_30.csv
mode,ox/red,error,control changes,counter inc.,time/s,control/V,Ewe/V,<I>/mA,cycle number,(Q-Qo)/C,I Range,P/W,log(|I|),Tafel slope mV/dec,alpha_eff,dI/d(E-IR),E-IR/V,
2,0,0,0,0,60268.9,2.44065e-05,-0.00042076,-2.70776,31,0.0000000E+000,10,1.13932e-06,-2.56739, , , ,-0.00042076,
2,0,0,1,0,60269,0.0013005,0.000884712,-1.51239,31,-4.22021e-05,10,-1.33803e-06,-2.82034, , , ,0.000884712,
2,0,0,1,0,60269,0.00279471,0.00250579,-0.65572,31,-6.81419e-05,10,-1.6431e-06,-3.18328,-0.00307117,-19.2109,484.418,0.00250579,
2,0,0,1,0,60269,0.00429425,0.00397706,-0.0654265,31,-7.63848e-05,10,-2.60205e-07,-4.18425,-0.0153398,-3.84621,348.095,0.00397706,
2,1,0,1,0,60269,0.00579379,0.00544369,0.36897,31,-7.19403e-05,10,2.00856e-06,-3.43301,0.00763524,7.72733,265.801,0.005443688,
2,1,0,1,0,60269.1,0.007288,0.0069821,0.712312,31,-5.78609e-05,10,4.97344e-06,-3.14733,0.00606523,9.72758,210.325,0.0069821,
2,1,0,1,0,60269.1,0.00878882,0.00847267,0.989459,31,-3.60195e-05,10,8.38336e-06,-3.0046,0.0125576,4.69834,165.65,0.00847267,
2,1,0,1,0,60269.1,0.0102896,0.00996274,1.21842,31,-8.00778e-06,10,1.21388e-05,-2.9142,0.0195325,3.02061,136.188,0.00996274,
2,1,0,1,0,60269.1,0.0117838,0.011402,1.39821,31,2.49301e-05,10,1.59424e-05,-2.85443,0.0267805,2.20309,116.477,0.011402,
2,1,0,1,0,60269.2,0.0132834,0.0129035,1.54696,31,6.21661e-05,10,1.99612e-05,-2.81052,0.0353907,1.6671,99.3388,0.0129035,
2,1,0,1,0,60269.2,0.0147816,0.0144072,1.67904,31,0.000102974,10,2.41903e-05,-2.77494,0.0467191,1.26287,82.1364,0.0144072,
2,1,0,1,0,60269.2,0.0162811,0.0159219,1.80303,31,0.000147006,10,2.87076e-05,-2.744,0.0558452,1.05649,73.4879,0.0159219,
2,1,0,1,0,60269.2,0.0177753,0.017391,1.90287,31,0.000193553,10,3.30927e-05,-2.72059,0.0664008,0.888544,65.5806,0.017391,
2,1,0,1,0,60269.3,0.0192761,0.0189468,1.99178,31,0.000242606,10,3.77379e-05,-2.70076,0.0781278,0.755173,58.4704,0.0189468,
2,1,0,1,0,60269.3,0.020777,0.0204038,2.07409,31,0.000293828,10,4.23192e-05,-2.68317,0.0909955,0.648384,52.2454,0.0204038,
2,1,0,1,0,60269.3,0.0222712,0.0219222,2.15445,31,0.00034682,10,4.72304e-05,-2.66666,0.101801,0.57956,48.4013,0.0219222,
2,1,0,1,0,60269.3,0.0237707,0.0233992,2.22387,31,0.000401848,10,5.20368e-05,-2.65289,0.110822,0.532386,45.9967,0.02339918,
2,1,0,1,0,60269.4,0.0252703,0.0249313,2.28221,31,0.000458515,10,5.68984e-05,-2.64165,0.124074,0.475521,42.3114,0.0249313,
2,1,0,1,0,60269.4,0.0267645,0.0264122,2.34428,31,0.000516513,10,6.19177e-05,-2.62999,0.132468,0.445389,40.7343,0.0264122,
2,1,0,1,0,60269.4,0.0282653,0.0279083,2.41118,31,0.00057626,10,6.7292e-05,-2.61777,0.138435,0.426192,39.9115,0.0279083,
2,1,0,1,0,60269.4,0.0297648,0.0294258,2.46628,31,0.000637504,10,7.25722e-05,-2.60796,0.15304,0.385521,36.9476,0.0294258,
2,1,0,1,0,60269.5,0.031259,0.0309038,2.51209,31,0.00069987,10,7.76332e-05,-2.59997,0.156159,0.37782,37.0322,0.0309038,
2,1,0,1,0,60269.5,0.0327585,0.0324234,2.56996,31,0.000763741,10,8.33267e-05,-2.59007,0.179434,0.328811,32.966,0.0324234,
2,1,0,1,0,60269.5,0.034258,0.0339075,2.62438,31,0.000828984,10,8.89863e-05,-2.58097,0.181262,0.325495,33.2544,0.0339075,
2,1,0,1,0,60269.5,0.0357576,0.0353832,2.67162,31,0.000895535,10,9.45306e-05,-2.57322,0.177175,0.333005,34.6676,0.03538318,
2,1,0,1,0,60269.6,0.0372518,0.0368716,2.71769,31,0.000963054,10,0.000100205,-2.5658,0.185762,0.31761,33.7438,0.0368716,
2,1,0,1,0,60269.6,0.0387526,0.0383612,2.76657,31,0.00103202,10,0.000106129,-2.55806,0.206679,0.285467,30.8663,0.0383612,
2,1,0,1,0,60269.6,0.0402534,0.0398937,2.82461,31,0.00110222,10,0.000112684,-2.54904,0.199288,0.296054,32.5234,0.0398937,
2,1,0,1,0,60269.6,0.0417476,0.0414189,2.8718,31,0.00117345,10,0.000118947,-2.54185,0.203604,0.289779,32.3735,0.0414189,
2,1,0,1,0,60269.7,0.0432472,0.042894,2.9174,31,0.00124613,10,0.000125139,-2.535,0.217489,0.271279,30.8741,0.042894,
2,1,0,1,0,60269.7,0.0447467,0.0444223,2.95758,31,0.00131991,10,0.000131383,-2.52906,0.232764,0.253475,29.3107,0.04442231,
2,1,0,1,0,60269.7,0.0462463,0.0458925,3.01108,31,0.00139487,10,0.000138186,-2.52128,0.222884,0.264712,31.0348,0.0458925,
2,1,0,1,0,60269.7,0.0477391,0.0473859,3.05457,31,0.0014707,10,0.000144743,-2.51505,0.211903,0.27843,33.1766,0.0473859,
2,1,0,1,0,60269.8,0.0492399,0.0489041,3.09635,31,0.00154802,10,0.000151424,-2.50915,0.23282,0.253414,30.6199,0.0489041,
2,1,0,1,0,60269.8,0.0507408,0.0503671,3.14372,31,0.00162642,10,0.00015834,-2.50256,0.262416,0.224834,27.609,0.0503671,
2,1,0,1,0,60269.8,0.052235,0.0518738,3.18944,31,0.00170558,10,0.000165449,-2.49628,0.245735,0.240096,29.8732,0.0518738,
2,1,0,1,0,60269.8,0.0537345,0.0533936,3.24024,31,0.00178623,10,0.000173008,-2.48942,0.242976,0.242822,30.6124,0.05339361,
2,1,0,1,0,60269.9,0.0552341,0.0548682,3.27653,31,0.00186804,10,0.000179778,-2.48459,0.254512,0.231816,29.6375,0.0548682,
2,1,0,1,0,60269.9,0.0567283,0.0563236,3.31465,31,0.00195056,10,0.000186693,-2.47956,0.287259,0.205389,26.6313,0.0563236,
2,1,0,1,0,60269.9,0.0582291,0.0578744,3.36756,31,0.00203443,10,0.000194895,-2.47269,0.285247,0.206838,27.1414,0.0578744,
2,1,0,1,0,60269.9,0.0597299,0.0593944,3.41078,31,0.0021194,10,0.000202581,-2.46715,0.267538,0.220529,29.2878,0.0593944,
2,1,0,1,0,60269.9,0.0612228,0.0608738,3.44518,31,0.00220506,10,0.000209721,-2.46279,0.290206,0.203304,27.3327,0.0608738,
2,1,0,1,0,60270,0.0627223,0.062408,3.48659,31,0.00229206,10,0.000217591,-2.4576,0.319475,0.184678,25.1118,0.062408,
2,1,0,1,0,60270,0.0642218,0.063905,3.52729,31,0.00238002,10,0.000225412,-2.45256,0.309348,0.190724,26.2396,0.063905,
2,1,0,1,0,60270,0.0657214,0.0654282,3.56516,31,0.00246902,10,0.000233262,-2.44792,0.285048,0.206983,28.7741,0.06542816,
2,1,0,1,0,60270,0.0672156,0.066909,3.60439,31,0.00255868,10,0.000241166,-2.44317,0.316111,0.186643,26.241,0.066909,
2,1,0,1,0,60270.1,0.0687164,0.0683712,3.6418,31,0.00264965,10,0.000248994,-2.43868,0.36597,0.161215,22.8978,0.0683712,
2,1,0,1,0,60270.1,0.0702172,0.0698951,3.67749,31,0.0027415,10,0.000257039,-2.43445,0.370015,0.159453,22.8743,0.0698951,
2,1,0,1,0,60270.1,0.0717115,0.0713171,3.71582,31,0.00283388,10,0.000265001,-2.42995,0.327286,0.180271,26.0944,0.0713171,
2,1,0,1,0,60270.1,0.073211,0.0728423,3.74598,31,0.00292753,10,0.000272866,-2.42643,0.348971,0.169068,24.7378,0.0728423,
2,1,0,1,0,60270.2,0.0747105,0.0743027,3.78024,31,0.00302207,10,0.000280882,-2.42248,0.406098,0.145285,21.4575,0.0743027,
2,1,0,1,0,60270.2,0.0762101,0.0758199,3.81579,31,0.00311745,10,0.000289313,-2.41842,0.415981,0.141833,21.1089,0.0758199,
2,1,0,1,0,60270.2,0.0777042,0.0773553,3.85221,31,0.00321322,10,0.000297989,-2.41429,0.395788,0.14907,22.3785,0.0773553,
2,1,0,1,0,60270.2,0.0792037,0.0788521,3.87893,31,0.00331018,10,0.000305862,-2.41129,0.394017,0.14974,22.6688,0.0788521,
2,1,0,1,0,60270.3,0.0807046,0.0803771,3.90817,31,0.00340792,10,0.000314127,-2.40803,0.496187,0.118907,18.1268,0.0803771,
2,1,0,1,0,60270.3,0.0821988,0.0818402,3.9403,31,0.00350603,10,0.000322475,-2.40447,0.515369,0.114481,17.5907,0.0818402,
2,1,0,1,0,60270.3,0.0836983,0.0833777,3.96882,31,0.00360519,10,0.000330911,-2.40134,0.476987,0.123693,19.1445,0.0833777,
2,1,0,1,0,60270.3,0.0851979,0.0848302,3.9918,31,0.00370507,10,0.000338625,-2.39883,0.473602,0.124577,19.4271,0.0848302,
2,1,0,1,0,60270.4,0.0866921,0.0863253,4.02105,31,0.00380523,10,0.000347118,-2.39566,0.568616,0.103761,16.2823,0.0863253,
2,1,0,1,0,60270.4,0.0881929,0.0878445,4.05521,31,0.00390649,10,0.000356228,-2.39199,0.541269,0.109003,17.2278,0.0878445,
2,1,0,1,0,60270.4,0.0896937,0.0893185,4.07913,31,0.0040084,10,0.000364341,-2.38943,0.461676,0.127795,20.3316,0.0893185,
2,1,0,1,0,60270.4,0.0911879,0.0908527,4.10588,31,0.00411064,10,0.00037303,-2.38659,0.423791,0.13922,22.3156,0.0908527,
2,1,0,1,0,60270.5,0.0926861,0.0923575,4.13956,31,0.00421407,10,0.00038232,-2.38305,0.498123,0.118445,19.1457,0.0923575,
2,1,0,1,0,60270.5,0.0941856,0.0938174,4.17314,31,0.0043183,10,0.000391513,-2.37954,0.452885,0.130276,21.2115,0.0938174,
2,1,0,1,0,60270.5,0.0956852,0.0953305,4.20087,31,0.00442332,10,0.000400471,-2.37666,0.396993,0.148617,24.3917,0.0953305,
2,1,0,1,0,60270.5,0.0971794,0.0968108,4.23769,31,0.00452877,10,0.000410255,-2.37287,0.358065,0.164775,27.2735,0.0968108,
2,1,0,1,0,60270.6,0.0986802,0.0983169,4.27573,31,0.0046356,10,0.000420376,-2.36899,0.352825,0.167222,27.9559,0.09831693,
2,1,0,1,0,60270.6,0.100181,0.0998276,4.32914,31,0.00474352,10,0.000432168,-2.3636,0.347454,0.169807,28.6594,0.0998276,
2,1,0,1,0,60270.6,0.101675,0.101337,4.37083,31,0.00485214,10,0.000442928,-2.35944,0.305804,0.192934,32.93,0.101337,
2,1,0,1,0,60270.6,0.103175,0.102835,4.41956,31,0.00496238,10,0.000454487,-2.35462,0.275611,0.21407,36.984,0.102835,
2,1,0,1,0,60270.7,0.104674,0.104305,4.47981,31,0.00507401,10,0.000467266,-2.34874,0.262883,0.224434,39.2654,0.104305,
2,1,0,1,0,60270.7,0.106169,0.105798,4.53948,31,0.00518665,10,0.000480268,-2.34299,0.275911,0.213837,37.8731,0.105798,
2,1,0,1,0,60270.7,0.107668,0.107338,4.59925,31,0.00530126,10,0.000493676,-2.33731,0.24874,0.237195,42.5855,0.1073382,
2,1,0,1,0,60270.7,0.109169,0.108836,4.66271,31,0.00541737,10,0.000507468,-2.33136,0.243708,0.242093,44.108,0.108836,
2,1,0,1,0,60270.8,0.110663,0.110306,4.72566,31,0.00553466,10,0.000521267,-2.32554,0.249792,0.236197,43.5821,0.110306,
2,1,0,1,0,60270.8,0.112163,0.111783,4.79439,31,0.00565411,10,0.000535931,-2.31927,0.242117,0.243683,45.6182,0.111783,
2,1,0,1,0,60270.8,0.113662,0.113328,4.87129,31,0.00577527,10,0.000552055,-2.31236,0.245394,0.24043,45.6494,0.113328,
2,1,0,1,0,60270.8,0.115162,0.114776,4.93348,31,0.00589816,10,0.000566245,-2.30685,0.250119,0.235888,45.4413,0.114776,
2,1,0,1,0,60270.9,0.116656,0.116309,4.9994,31,0.00602224,10,0.000581475,-2.30108,0.258928,0.227863,44.4909,0.116309,
2,1,0,1,0,60270.9,0.118157,0.117774,5.07464,31,0.0061486,10,0.00059766,-2.2946,0.273511,0.215714,42.6436,0.117774,
2,1,0,1,0,60270.9,0.119657,0.119316,5.13802,31,0.00627662,10,0.000613048,-2.2892,0.293346,0.201128,40.2826,0.119316,
2,1,0,1,0,60270.9,0.121152,0.120783,5.18893,31,0.00640555,10,0.000626736,-2.28492,0.314923,0.187347,37.97,0.120783,
2,1,0,1,0,60271,0.122651,0.122285,5.24227,31,0.00653641,10,0.000641053,-2.28048,0.337598,0.174764,35.7657,0.122285,
2,1,0,1,0,60271,0.124151,0.123811,5.3017,31,0.00666867,10,0.000656408,-2.27559,0.372734,0.15829,32.7214,0.123811,
2,1,0,1,0,60271,0.125649,0.125316,5.35119,31,0.00680218,10,0.000670588,-2.27155,0.396893,0.148655,31.0047,0.125316,
2,1,0,1,0,60271,0.127143,0.126834,5.38412,31,0.00693627,10,0.000682888,-2.26889,0.426294,0.138402,29.1117,0.126834,
2,1,0,1,0,60271.1,0.128644,0.128326,5.42689,31,0.00707185,10,0.000696409,-2.26545,0.516032,0.114334,24.2332,0.128326,
2,1,0,1,0,60271.1,0.130145,0.129777,5.46546,31,0.00720842,10,0.000709288,-2.26237,0.550415,0.107192,22.842,0.129777,
2,1,0,1,0,60271.1,0.131639,0.131249,5.5056,31,0.00734534,10,0.000722607,-2.2592,0.602185,0.0979765,21.0016,0.131249,
2,1,0,1,0,60271.1,0.133139,0.132785,5.52805,31,0.00748357,10,0.000734042,-2.25743,0.616144,0.0957569,20.6547,0.132785,
2,1,0,1,0,60271.2,0.134638,0.134296,5.55379,31,0.00762244,10,0.00074585,-2.25541,0.848678,0.0695199,15.0716,0.134296,
2,1,0,1,0,60271.2,0.136132,0.135764,5.58289,31,0.00776141,10,0.000757957,-2.25314,0.958297,0.0615675,13.3932,0.135764,
2,1,0,1,0,60271.2,0.137633,0.137246,5.60137,31,0.00790151,10,0.000768765,-2.25171,1.06447,0.0554269,12.0941,0.137246,
2,1,0,1,0,60271.2,0.139133,0.138771,5.61098,31,0.00804203,10,0.000778639,-2.25096,1.55634,0.0379095,8.29201,0.138771,
2,1,0,1,0,60271.3,0.140627,0.140282,5.61607,31,0.0081822,10,0.000787837,-2.25057,5.10917,0.0115479,2.52896,0.140282,
2,1,0,1,0,60271.3,0.142126,0.14177,5.61771,31,0.00832304,10,0.000796425,-2.25044,-2.95686,-0.0199536,-4.36889,0.14177,
2,1,0,1,0,60271.3,0.143626,0.143271,5.61521,31,0.00846385,10,0.0008045,-2.25063,-1.45898,-0.0404393,-8.83339,0.1432714,
2,1,0,1,0,60271.3,0.145125,0.144742,5.58631,31,0.00860427,10,0.000808575,-2.25288,-0.653339,-0.0903053,-19.6648,0.144742,
2,1,0,1,0,60271.4,0.14662,0.146246,5.54476,31,0.00874335,10,0.000810897,-2.25612,-0.422797,-0.139547,-30.1919,0.146246,
2,1,0,1,0,60271.4,0.14812,0.147756,5.50134,31,0.00888191,10,0.000812857,-2.25953,-0.320713,-0.183965,-39.3983,0.147756,
2,1,0,1,0,60271.4,0.149621,0.149279,5.44077,31,0.00901906,10,0.000812192,-2.26434,-0.25642,-0.230091,-48.6548,0.1492788,
2,1,0,1,0,60271.4,0.151116,0.150741,5.35513,31,0.00915382,10,0.000807241,-2.27123,-0.204132,-0.289028,-60.2128,0.150741,
2,1,0,1,0,60271.5,0.152615,0.152243,5.24686,31,0.00928681,10,0.0007988,-2.2801,-0.163431,-0.361008,-73.8425,0.152243,
2,1,0,1,0,60271.5,0.154115,0.153782,5.13999,31,0.00941705,10,0.000790435,-2.28904,-0.144845,-0.407333,-81.5648,0.153782,
2,1,0,1,0,60271.5,0.155614,0.155244,5.01826,31,0.00954435,10,0.000779056,-2.29945,-0.13377,-0.441054,-86.086,0.155244,
2,1,0,1,0,60271.5,0.157107,0.156744,4.8753,31,0.00966787,10,0.000764174,-2.312,-0.120694,-0.48884,-92.8928,0.1567442,
2,1,0,1,0,60271.6,0.158608,0.158266,4.73105,31,0.00978834,10,0.000748763,-2.32504,-0.110913,-0.53195,-98.1382,0.158266,
2,1,0,1,0,60271.6,0.160109,0.159745,4.5851,31,0.00990508,10,0.000732447,-2.33865,-0.104839,-0.562768,-100.61,0.159745,
2,1,0,1,0,60271.6,0.161603,0.16124,4.44151,31,0.0100177,10,0.000716151,-2.35247,-0.104534,-0.564407,-97.6443,0.16124,
2,1,0,1,0,60271.6,0.163102,0.162755,4.29004,31,0.0101271,10,0.000698228,-2.36754,-0.107019,-0.551304,-92.3782,0.162755,
2,1,0,1,0,60271.7,0.164602,0.164246,4.14863,31,0.010233,10,0.000681396,-2.3821,-0.101721,-0.580019,-94.0356,0.164246,
2,1,0,1,0,60271.7,0.166096,0.165738,4.01575,31,0.010335,10,0.000665563,-2.39623,-0.104806,-0.562943,-88.3879,0.165738,
2,1,0,1,0,60271.7,0.167597,0.167197,3.89501,31,0.0104341,10,0.000651232,-2.40949,-0.113657,-0.519105,-78.9577,0.167197,
2,1,0,1,0,60271.7,0.169098,0.168698,3.77758,31,0.0105303,10,0.000637272,-2.42279,-0.121282,-0.48647,-71.8187,0.168698,
2,1,0,1,0,60271.8,0.170592,0.170248,3.66281,31,0.0106234,10,0.000623585,-2.43619,-0.12362,-0.477267,-68.4346,0.1702477,
2,1,0,1,0,60271.8,0.17209,0.171774,3.56685,31,0.0107142,10,0.000612691,-2.44771,-0.124776,-0.472849,-65.965,0.171774,
2,1,0,1,0,60271.8,0.17359,0.173221,3.47643,31,0.0108025,10,0.000602189,-2.45887,-0.139193,-0.423872,-57.5475,0.173221,
2,1,0,1,0,60271.8,0.175089,0.174765,3.38857,31,0.0108887,10,0.000592206,-2.46998,-0.146113,-0.403797,-53.4863,0.174765,
2,1,0,1,0,60271.9,0.176583,0.176225,3.30928,31,0.0109724,10,0.000583176,-2.48027,-0.146738,-0.402077,-52.051,0.176225,
2,1,0,1,0,60271.9,0.178084,0.177714,3.23687,31,0.0110546,10,0.000575237,-2.48987,-0.157314,-0.375047,-47.4298,0.177714,
2,1,0,1,0,60271.9,0.179585,0.179201,3.17335,31,0.0111351,10,0.000568668,-2.49848,-0.179425,-0.328827,-40.7759,0.179201,
2,1,0,1,0,60271.9,0.181079,0.180749,3.10967,31,0.0112136,10,0.000562071,-2.50729,-0.194653,-0.303103,-36.8687,0.180749,
2,1,0,1,0,60272,0.182579,0.182281,3.05355,31,0.011291,10,0.000556605,-2.51519,-0.193813,-0.304417,-36.3375,0.182281,
2,1,0,1,0,60272,0.184078,0.183739,3.00699,31,0.0113671,10,0.0005525,-2.52187,-0.205089,-0.28768,-33.7516,0.183739,
2,1,0,1,0,60272,0.185578,0.185192,2.95728,31,0.0114419,10,0.000547663,-2.52911,-0.22878,-0.25789,-29.7741,0.185192,
2,1,0,1,0,60272,0.187072,0.186748,2.91251,31,0.0115153,10,0.000543906,-2.53573,-0.260112,-0.226825,-25.7872,0.186748,
2,1,0,1,0,60272.1,0.188573,0.188235,2.87252,31,0.011588,10,0.00054071,-2.54174,-0.267034,-0.220946,-24.7919,0.188235,
2,1,0,1,0,60272.1,0.190072,0.189739,2.83958,31,0.0116597,10,0.000538781,-2.54675,-0.264015,-0.223473,-24.7334,0.189739,
2,1,0,1,0,60272.1,0.191567,0.191242,2.80088,31,0.0117302,10,0.000535647,-2.55271,-0.295382,-0.199741,-21.8587,0.191242,
2,1,0,1,0,60272.1,0.193066,0.192717,2.7699,31,0.0118002,10,0.000533806,-2.55754,-0.372795,-0.158264,-17.1251,0.192717,
2,1,0,1,0,60272.2,0.194566,0.194182,2.74098,31,0.0118695,10,0.000532251,-2.56209,-0.316651,-0.186325,-19.9549,0.194182,
2,1,0,1,0,60272.2,0.19606,0.195756,2.71646,31,0.0119378,10,0.000531763,-2.566,-0.333121,-0.177113,-18.7979,0.195756,
2,1,0,1,0,60272.2,0.197561,0.197227,2.6897,31,0.0120058,10,0.000530481,-2.5703,-0.388396,-0.151907,-15.9631,0.197227,
2,1,0,1,0,60272.2,0.199062,0.198696,2.66929,31,0.0120731,10,0.000530376,-2.5736,-0.398058,-0.148219,-15.444,0.198696,
2,1,0,1,0,60272.3,0.200556,0.200201,2.64704,31,0.0121396,10,0.000529941,-2.57724,-0.443349,-0.133078,-13.7578,0.200201,
2,1,0,1,0,60272.3,0.202055,0.201667,2.62865,31,0.0122058,10,0.000530112,-2.58027,-0.426798,-0.138239,-14.1627,0.201667,
2,1,0,1,0,60272.3,0.203553,0.203231,2.60961,31,0.0122716,10,0.000530352,-2.58342,-0.477937,-0.123447,-12.5671,0.203231,
2,1,0,1,0,60272.3,0.205053,0.204719,2.58859,31,0.0123369,10,0.000529934,-2.58694,-0.650044,-0.0907631,-9.20323,0.204719,
2,1,0,1,0,60272.4,0.206547,0.206194,2.5721,31,0.0124016,10,0.000530351,-2.58971,-0.64752,-0.0911169,-9.17478,0.2061937,
2,1,0,1,0,60272.4,0.208048,0.207698,2.56794,31,0.0124662,10,0.000533357,-2.59041,-0.511942,-0.115247,-11.523,0.207698,
2,1,0,1,0,60272.4,0.209549,0.209238,2.55317,31,0.0125305,10,0.000534219,-2.59292,-0.574997,-0.102609,-10.2011,0.209238,
2,1,0,1,0,60272.4,0.211043,0.210688,2.53195,31,0.0125941,10,0.000533451,-2.59654,-0.738248,-0.0799189,-7.91034,0.210688,
2,1,0,1,0,60272.5,0.212543,0.212215,2.51865,31,0.0126576,10,0.000534494,-2.59883,-0.625534,-0.0943194,-9.28582,0.212215,
2,1,0,1,0,60272.5,0.214042,0.21371,2.51019,31,0.0127209,10,0.000536451,-2.60029,-0.76372,-0.0772534,-7.57091,0.21371,
2,1,0,1,0,60272.5,0.215536,0.215177,2.50337,31,0.0127836,10,0.000538665,-2.60148,-0.755737,-0.0780695,-7.61753,0.215177,
2,1,0,1,0,60272.5,0.217036,0.216669,2.48555,31,0.0128463,10,0.000538541,-2.60458,-1.01131,-0.0583403,-5.67298,0.2166691,
2,1,0,1,0,60272.6,0.218537,0.21822,2.47565,31,0.0129087,10,0.000540235,-2.60631,-1.17502,-0.050212,-4.86237,0.21822,
2,1,0,1,0,60272.6,0.220031,0.219685,2.47545,31,0.0129707,10,0.000543819,-2.60635,-0.79355,-0.0743494,-7.16724,0.219685,
2,1,0,1,0,60272.6,0.22153,0.221187,2.47146,31,0.0130327,10,0.000546654,-2.60705,-1.1448,-0.0515372,-4.95101,0.221187,
2,1,0,1,0,60272.6,0.22303,0.222671,2.44827,31,0.0130946,10,0.000545158,-2.61114,-1.13617,-0.0519287,-4.97293,0.222671,
2,1,0,1,0,60272.7,0.22453,0.224167,2.43972,31,0.0131561,10,0.000546905,-2.61266,-0.898148,-0.0656907,-6.2776,0.224167,
2,1,0,1,0,60272.7,0.226024,0.225663,2.44071,31,0.0132173,10,0.000550778,-2.61248,-1.00703,-0.0585882,-5.57983,0.225663,
2,1,0,1,0,60272.7,0.227525,0.227187,2.43354,31,0.0132785,10,0.000552868,-2.61376,-0.944695,-0.062454,-5.92386,0.227187,
2,1,0,1,0,60272.7,0.229025,0.22872,2.42221,31,0.0133396,10,0.00055401,-2.61579,-1.1055,-0.0533694,-5.05314,0.22872,
2,1,0,1,0,60272.8,0.23052,0.230194,2.41754,31,0.0134002,10,0.000556503,-2.61663,-1.25241,-0.0471091,-4.44973,0.230194,
2,1,0,1,0,60272.8,0.232019,0.231722,2.41631,31,0.0134609,10,0.000559912,-2.61685,-1.07866,-0.0546977,-5.15326,0.231722,
2,1,0,1,0,60272.8,0.233519,0.23322,2.41264,31,0.0135215,10,0.000562676,-2.61751,-1.6763,-0.0351965,-3.30484,0.23322,
2,1,0,1,0,60272.8,0.235018,0.234689,2.40454,31,0.013582,10,0.000564318,-2.61897,-2.29403,-0.025719,-2.41184,0.234689,
2,1,0,1,0,60272.9,0.236511,0.236205,2.39388,31,0.0136421,10,0.000565445,-2.6209,-1.20107,-0.0491229,-4.59517,0.236205,
2,1,0,1,0,60272.9,0.238012,0.237687,2.39091,31,0.0137022,10,0.000568289,-2.62144,-1.50979,-0.0390783,-3.64335,0.237687,
2,1,0,1,0,60272.9,0.239513,0.239183,2.38977,31,0.0137623,10,0.000571591,-2.62164,-2.11442,-0.0279037,-2.59762,0.239183,
2,1,0,1,0,60272.9,0.241007,0.240666,2.38399,31,0.013822,10,0.000573744,-2.6227,-1.87819,-0.0314132,-2.91864,0.240666,
2,1,0,1,0,60273,0.242506,0.242115,2.37447,31,0.0138819,10,0.000574896,-2.62443,-1.53442,-0.0384509,-3.56914,0.242115,
2,1,0,1,0,60273,0.244006,0.243668,2.37202,31,0.0139415,10,0.000577983,-2.62488,-1.37248,-0.0429877,-3.98224,0.243668,
2,1,0,1,0,60273,0.2455,0.24516,2.37449,31,0.0140009,10,0.00058213,-2.62443,-2.55963,-0.0230502,-2.12765,0.24516,
2,1,0,1,0,60273,0.247001,0.246664,2.36561,31,0.0140605,10,0.000583509,-2.62606,-2.4566,-0.0240169,-2.2154,0.246664,
2,1,0,1,0,60273.1,0.248502,0.248145,2.35545,31,0.0141199,10,0.000584494,-2.62793,-1.82971,-0.0322455,-2.9719,0.248145,
2,1,0,1,0,60273.1,0.249995,0.249639,2.35568,31,0.014179,10,0.000588069,-2.62788,-1.41359,-0.0417376,-3.83683,0.249639,
2,1,0,1,0,60273.1,0.251494,0.251148,2.3562,31,0.0142381,10,0.000591754,-2.62779,-3.63157,-0.0162464,-1.49132,0.251148,
2,1,0,1,0,60273.1,0.252994,0.252642,2.34875,31,0.0142973,10,0.000593393,-2.62916,-3.0189,-0.0195435,-1.78949,0.252642,
2,1,0,1,0,60273.2,0.254493,0.254103,2.34103,31,0.0143563,10,0.000594865,-2.63059,-1.59702,-0.0369437,-3.38541,0.254103,
2,1,0,1,0,60273.2,0.255988,0.255608,2.34131,31,0.0144149,10,0.000598457,-2.63054,-1.30024,-0.0453763,-4.1501,0.255608,
2,1,0,1,0,60273.2,0.257488,0.257132,2.33855,31,0.0144737,10,0.000601316,-2.63105,-3.74415,-0.0157579,-1.43579,0.257132,
2,1,0,1,0,60273.2,0.258989,0.25869,2.33875,31,0.0145325,10,0.000605012,-2.63102,-3.23272,-0.0182509,-1.66312,0.2586903,
2,1,0,1,0,60273.3,0.260483,0.26016,2.33141,31,0.014591,10,0.00060654,-2.63238,-1.72807,-0.0341421,-3.10793,0.26016,
2,1,0,1,0,60273.3,0.261983,0.261642,2.32598,31,0.0146496,10,0.000608573,-2.63339,-1.84739,-0.031937,-2.90238,0.261642,
2,1,0,1,0,60273.3,0.263482,0.263104,2.32493,31,0.0147081,10,0.000611697,-2.63359,-1.95415,-0.0301922,-2.73681,0.263104,
2,1,0,1,0,60273.3,0.264982,0.264665,2.32174,31,0.0147665,10,0.000614483,-2.63419,-2.61995,-0.0225196,-2.04091,0.264665,
2,1,0,1,0,60273.4,0.266476,0.266148,2.31598,31,0.0148246,10,0.000616392,-2.63527,-3.14799,-0.0187421,-1.69586,0.266148,
2,1,0,1,0,60273.4,0.267976,0.267642,2.31119,31,0.0148828,10,0.000618573,-2.63616,-1.2381,-0.0476538,-4.30789,0.267642,
2,1,0,1,0,60273.4,0.269477,0.269111,2.31488,31,0.0149409,10,0.000622958,-2.63547,-7.34007,-0.00803807,-0.724623,0.269111,
2,1,0,1,0,60273.4,0.270971,0.270668,2.31249,31,0.0149988,10,0.000625919,-2.63592,5.4602,0.0108055,0.972433,0.270668,
2,1,0,1,0,60273.5,0.27247,0.27211,2.30218,31,0.0150568,10,0.000626446,-2.63786,-1.77247,-0.0332869,-2.99519,0.27211,
2,1,0,1,0,60273.5,0.27397,0.273641,2.29982,31,0.0151148,10,0.000629325,-2.63831,-1.09447,-0.0539073,-4.84599,0.273641,
2,1,0,1,0,60273.5,0.275464,0.275114,2.29906,31,0.0151723,10,0.000632503,-2.63845,-2.28121,-0.0258635,-2.32425,0.275114,
2,1,0,1,0,60273.5,0.276965,0.276613,2.29482,31,0.0152301,10,0.000634777,-2.63925,-8.57719,-0.00687871,-0.616445,0.2766133,
2,1,0,1,0,60273.6,0.278466,0.278139,2.29021,31,0.0152878,10,0.000636998,-2.64012,-2.1851,-0.0270011,-2.41504,0.278139,
2,1,0,1,0,60273.6,0.27996,0.279595,2.28992,31,0.0153451,10,0.00064025,-2.64018,-1.68357,-0.0350447,-3.12787,0.279595,
2,1,0,1,0,60273.6,0.281458,0.281099,2.28646,31,0.0154026,10,0.00064272,-2.64084,-3.23921,-0.0182143,-1.6246,0.281099,
2,1,0,1,0,60273.6,0.282958,0.28262,2.28132,31,0.01546,10,0.000644748,-2.64181,-9.18033,-0.00642679,-0.572245,0.28262,
2,1,0,1,0,60273.7,0.284457,0.284162,2.27603,31,0.0155173,10,0.00064676,-2.64282,-4.07388,-0.0144825,-1.28823,0.2841621,
2,1,0,1,0,60273.7,0.285951,0.285596,2.27524,31,0.0155744,10,0.000649798,-2.64297,-1.82602,-0.0323107,-2.86814,0.285596,
2,1,0,1,0,60273.7,0.287452,0.287086,2.27203,31,0.0156315,10,0.000652267,-2.64359,-1.47134,-0.0400996,-3.55359,0.287086,
2,1,0,1,0,60273.7,0.288953,0.288587,2.26797,31,0.0156885,10,0.000654508,-2.64436,11.8293,0.00498762,0.440922,0.288587,
2,1,0,1,0,60273.8,0.290447,0.290118,2.25962,31,0.0157453,10,0.000655556,-2.64596,-1.39226,-0.042377,-3.74461,0.290118,
2,1,0,1,0,60273.8,0.291947,0.291568,2.26211,31,0.0158022,10,0.00065956,-2.64549,-1.15247,-0.0511946,-4.51403,0.291568,
2,1,0,1,0,60273.8,0.293446,0.293086,2.25141,31,0.015859,10,0.000659858,-2.64754,-2.40972,-0.0244842,-2.1552,0.293086,
2,1,0,1,0,60273.8,0.29494,0.294642,2.25144,31,0.0159154,10,0.000663369,-2.64754,-3.45564,-0.0170736,-1.50126,0.294642,
2,1,0,1,0,60273.9,0.29644,0.296112,2.24744,31,0.015972,10,0.000665494,-2.64831,-4.11712,-0.0143304,-1.25872,0.296112,
2,1,0,1,0,60273.9,0.297941,0.297641,2.24901,31,0.0160285,10,0.000669399,-2.64801,-1.08628,-0.0543136,-4.75079,0.297641,
2,1,0,1,0,60273.9,0.29944,0.299094,2.24473,31,0.016085,10,0.000671385,-2.64884,-0.00982461,-6.00533,-431.649,0.299094,
2,1,0,1,0,60273.9,0.299736,0.299386,1.90619,31,0.0161145,10,0.000570686,-2.71983,0.00243152,24.2646,1262.26,0.299386,
2,1,0,1,0,60274,0.298238,0.297938,0.923178,31,0.0161479,10,0.00027505,-3.03471,0.00403558,14.62,516.659,0.297938,
2,1,0,1,0,60274,0.296744,0.296396,0.384237,31,0.0161632,10,0.000113886,-3.4154,0.00288899,20.4223,309.018,0.296396,
2,1,0,1,0,60274,0.295243,0.294935,0.0327583,31,0.0161677,10,9.66159e-06,-4.48468,0.0126551,4.66214,198.985,0.294935,
2,0,0,1,0,60274,0.293742,0.293389,-0.205147,31,0.016165,10,-6.01878e-05,-3.68794,-0.00835224,-7.06397,140.097,0.293389,
2,0,0,1,0,60274.1,0.292248,0.291904,-0.369471,31,0.0161574,10,-0.00010785,-3.43242,-0.00639694,-9.22316,104.305,0.291904,
2,0,0,1,0,60274.1,0.290748,0.290416,-0.504538,31,0.016146,10,-0.000146526,-3.29711,-0.0135926,-4.34061,78.5184,0.290416,
2,0,0,1,0,60274.1,0.289249,0.288886,-0.611404,31,0.0161316,10,-0.000176626,-3.21367,-0.0210682,-2.80043,63.5726,0.288886,
2,0,0,1,0,60274.1,0.287754,0.287409,-0.698804,31,0.0161149,10,-0.000200843,-3.15564,-0.0293498,-2.01024,53.0497,0.287409,
2,0,0,1,0,60274.2,0.286254,0.285915,-0.76493,31,0.0160963,10,-0.000218705,-3.11638,-0.038861,-1.51823,44.7431,0.285915,
2,0,0,1,0,60274.2,0.284754,0.284397,-0.82778,31,0.016076,10,-0.000235418,-3.08208,-0.0482509,-1.22277,39.0673,0.284397,
2,0,0,1,0,60274.2,0.28326,0.282911,-0.886316,31,0.0160543,10,-0.000250748,-3.05241,-0.0605607,-0.974229,33.1084,0.282911,
2,0,0,1,0,60274.2,0.28176,0.28144,-0.930567,31,0.0160313,10,-0.000261899,-3.03125,-0.0716305,-0.823671,29.5538,0.28144,
2,0,0,1,0,60274.3,0.280261,0.279937,-0.963482,31,0.0160073,10,-0.000269714,-3.01616,-0.0785449,-0.751163,28.3249,0.279937,
2,0,0,1,0,60274.3,0.278761,0.278398,-1.0023,31,0.0159822,10,-0.000279038,-2.999,-0.0968999,-0.608876,23.8164,0.278398,
2,0,0,1,0,60274.3,0.277267,0.276886,-1.04527,31,0.0159563,10,-0.000289419,-2.98077,-0.110196,-0.535408,21.6761,0.276886,
2,0,0,1,0,60274.3,0.275766,0.275413,-1.07876,31,0.0159294,10,-0.000297105,-2.96707,-0.122386,-0.48208,20.1071,0.275413,
2,0,0,1,0,60274.4,0.274265,0.273899,-1.1053,31,0.0159018,10,-0.000302739,-2.95652,-0.122178,-0.4829,20.8127,0.273899,
2,0,0,1,0,60274.4,0.272771,0.272391,-1.13061,31,0.0158736,10,-0.000307968,-2.94669,-0.147378,-0.400332,17.7314,0.272391,
2,0,0,1,0,60274.4,0.271272,0.27093,-1.16039,31,0.0158446,10,-0.000314386,-2.93539,-0.161261,-0.365866,16.5055,0.27093,
2,0,0,1,0,60274.4,0.269772,0.26943,-1.19021,31,0.0158148,10,-0.00032068,-2.92437,-0.162409,-0.363281,16.7723,0.26943,
2,0,0,1,0,60274.5,0.268273,0.267929,-1.20675,31,0.0157845,10,-0.000323323,-2.91838,-0.178931,-0.329737,15.5698,0.267929,
2,0,0,1,0,60274.5,0.26678,0.266395,-1.22689,31,0.0157537,10,-0.000326838,-2.91119,-0.194767,-0.302925,14.5735,0.2663953,
2,0,0,1,0,60274.5,0.265279,0.26489,-1.25606,31,0.0157222,10,-0.000332718,-2.90099,-0.199758,-0.295357,14.4339,0.26489,
2,0,0,1,0,60274.5,0.263778,0.263405,-1.27992,31,0.0156902,10,-0.000337136,-2.89282,-0.190986,-0.308923,15.3281,0.263405,
2,0,0,1,0,60274.6,0.262284,0.261911,-1.29273,31,0.0156578,10,-0.00033858,-2.88849,-0.234464,-0.251637,12.7144,0.261911,
2,0,0,1,0,60274.6,0.260784,0.260422,-1.31033,31,0.0156248,10,-0.000341237,-2.88262,-0.246552,-0.239301,12.2804,0.260422,
2,0,0,1,0,60274.6,0.259285,0.25894,-1.33434,31,0.0155914,10,-0.000345513,-2.87473,-0.234684,-0.251402,13.0602,0.25894,
2,0,0,1,0,60274.6,0.257791,0.257424,-1.35303,31,0.0155576,10,-0.000348302,-2.86869,-0.240208,-0.245621,12.9244,0.257424,
2,0,0,1,0,60274.7,0.25629,0.255918,-1.3688,31,0.0155232,10,-0.000350299,-2.86366,-0.261555,-0.225574,12.0291,0.255918,
2,0,0,1,0,60274.7,0.254789,0.254467,-1.38266,31,0.0154884,10,-0.000351842,-2.85928,-0.339009,-0.174037,9.41705,0.254467,
2,0,0,1,0,60274.7,0.253296,0.252937,-1.40182,31,0.0154534,10,-0.000354573,-2.85331,-0.318799,-0.18507,10.11,0.252937,
2,0,0,1,0,60274.7,0.251797,0.251394,-1.4195,31,0.0154178,10,-0.000356855,-2.84786,-0.25205,-0.23408,12.9457,0.251394,
2,0,0,1,0,60274.8,0.250297,0.249947,-1.4288,31,0.0153818,10,-0.000357125,-2.84503,-0.290895,-0.202822,11.3222,0.249947,
2,0,0,1,0,60274.8,0.248797,0.24848,-1.44303,31,0.0153454,10,-0.000358565,-2.84072,-0.356456,-0.165518,9.34556,0.24848,
2,0,0,1,0,60274.8,0.247303,0.246955,-1.46254,31,0.0153088,10,-0.000361183,-2.83489,-0.349486,-0.168819,9.61678,0.246955,
2,0,0,1,0,60274.8,0.245802,0.245467,-1.4784,31,0.0152717,10,-0.000362898,-2.83021,-0.326966,-0.180447,10.3716,0.245467,
2,0,0,1,0,60274.9,0.244302,0.244005,-1.49458,31,0.0152342,10,-0.000364686,-2.82548,-0.346157,-0.170443,9.91884,0.244005,
2,0,0,1,0,60274.9,0.242807,0.242468,-1.50582,31,0.0151965,10,-0.000365113,-2.82223,-0.442738,-0.133262,7.82286,0.242468,
2,0,0,1,0,60274.9,0.241308,0.240958,-1.51993,31,0.0151583,10,-0.00036624,-2.81818,-0.437973,-0.134712,7.9782,0.240958,
2,0,0,1,0,60274.9,0.239808,0.239463,-1.53163,31,0.0151198,10,-0.000366769,-2.81484,-0.32921,-0.179217,10.7208,0.2394627,
2,0,0,1,0,60275,0.238309,0.237945,-1.54243,31,0.0150809,10,-0.000367014,-2.81179,-0.355964,-0.165747,10.0156,0.2379445,
2,0,0,1,0,60275,0.236815,0.236481,-1.55824,31,0.0150418,10,-0.000368494,-2.80737,-0.454188,-0.129902,7.90872,0.236481,
2,0,0,1,0,60275,0.235315,0.23496,-1.57244,31,0.0150023,10,-0.00036946,-2.80343,-0.473196,-0.124684,7.65516,0.23496,
2,0,0,1,0,60275,0.233814,0.233445,-1.58709,31,0.0149624,10,-0.000370498,-2.7994,-0.389168,-0.151605,9.38726,0.233445,
2,0,0,1,0,60275.1,0.23232,0.231955,-1.59812,31,0.0149224,10,-0.000370691,-2.79639,-0.347702,-0.169685,10.583,0.231955,
2,0,0,1,0,60275.1,0.230821,0.230476,-1.61018,31,0.0148819,10,-0.00037111,-2.79312,-0.578559,-0.101978,6.41034,0.230476,
2,0,0,1,0,60275.1,0.229321,0.228996,-1.62487,31,0.0148411,10,-0.00037209,-2.78918,-0.795808,-0.0741385,4.69095,0.228996,
2,0,0,1,0,60275.1,0.227827,0.227524,-1.63841,31,0.0148001,10,-0.000372777,-2.78558,-0.477804,-0.123482,7.87475,0.227524,
2,0,0,1,0,60275.2,0.226326,0.225958,-1.64511,31,0.0147587,10,-0.000371724,-2.78381,-0.464448,-0.127033,8.16331,0.225958,
2,0,0,1,0,60275.2,0.224825,0.224467,-1.66169,31,0.014717,10,-0.000372995,-2.77945,-0.591579,-0.099733,6.45633,0.224467,
2,0,0,1,0,60275.2,0.223331,0.222951,-1.6747,31,0.0146751,10,-0.000373376,-2.77606,-0.494966,-0.1192,7.76837,0.222951,
2,0,0,1,0,60275.2,0.221831,0.22149,-1.68679,31,0.0146328,10,-0.000373606,-2.77294,-0.415769,-0.141906,9.31037,0.22149,
2,0,0,1,0,60275.3,0.220333,0.219977,-1.69475,31,0.0145902,10,-0.000372807,-2.77089,-0.361428,-0.163241,10.7963,0.219977,
2,0,0,1,0,60275.3,0.218834,0.218466,-1.70605,31,0.0145473,10,-0.000372715,-2.76801,-0.519689,-0.113529,7.57639,0.218466,
2,0,0,1,0,60275.3,0.217339,0.217016,-1.72012,31,0.0145042,10,-0.000373294,-2.76444,-0.631861,-0.093375,6.26624,0.217016,
2,0,0,1,0,60275.3,0.215839,0.21547,-1.73044,31,0.0144606,10,-0.000372857,-2.76184,-0.479482,-0.123049,8.30853,0.21547,
2,0,0,1,0,60275.4,0.214338,0.21397,-1.74183,31,0.0144169,10,-0.0003727,-2.75899,-0.444679,-0.13268,9.02096,0.21397,
2,0,0,1,0,60275.4,0.212844,0.21248,-1.7534,31,0.014373,10,-0.000372563,-2.75612,-0.627727,-0.0939899,6.44031,0.21248,
2,0,0,1,0,60275.4,0.211344,0.210959,-1.76769,31,0.0143286,10,-0.000372911,-2.75259,-0.64247,-0.091833,6.31791,0.210959,
2,0,0,1,0,60275.4,0.209845,0.209473,-1.7768,31,0.0142839,10,-0.000372191,-2.75036,-0.643975,-0.0916185,6.34787,0.209473,
2,0,0,1,0,60275.5,0.20835,0.207995,-1.78793,31,0.0142391,10,-0.000371881,-2.74765,-0.371421,-0.15885,11.1117,0.207995,
2,0,0,1,0,60275.5,0.206851,0.20655,-1.80357,31,0.0141938,10,-0.000372526,-2.74387,-0.460893,-0.128012,9.0119,0.20655,
2,0,0,1,0,60275.5,0.20535,0.205004,-1.81871,31,0.0141481,10,-0.000372841,-2.74024,-0.725044,-0.0813744,5.74783,0.205004,
2,0,0,1,0,60275.5,0.203856,0.203482,-1.83107,31,0.0141023,10,-0.000372589,-2.7373,-0.584752,-0.100897,7.19707,0.203482,
2,0,0,1,0,60275.6,0.202356,0.20204,-1.83613,31,0.0140562,10,-0.000370971,-2.7361,-0.51851,-0.113788,8.16228,0.20204,
2,0,0,1,0,60275.6,0.200857,0.200492,-1.84531,31,0.0140097,10,-0.000369971,-2.73393,-0.554811,-0.106343,7.67765,0.200492,
2,0,0,1,0,60275.6,0.199357,0.199036,-1.86223,31,0.0139629,10,-0.000370652,-2.72997,-0.633136,-0.093187,6.7616,0.1990363,
2,0,0,1,0,60275.6,0.197863,0.197491,-1.87511,31,0.0139161,10,-0.000370317,-2.72697,-0.46984,-0.125575,9.17496,0.197491,
2,0,0,1,0,60275.7,0.196362,0.195993,-1.88145,31,0.0138688,10,-0.000368752,-2.72551,-0.473682,-0.124556,9.15566,0.195993,
2,0,0,1,0,60275.7,0.194861,0.194514,-1.89523,31,0.0138212,10,-0.000368648,-2.72234,-0.472313,-0.124917,9.24437,0.194514,
2,0,0,1,0,60275.7,0.193367,0.193005,-1.9091,31,0.0137734,10,-0.000368465,-2.71917,-0.543098,-0.108636,8.09578,0.193005,
2,0,0,1,0,60275.7,0.191868,0.191535,-1.92468,31,0.013725,10,-0.000368644,-2.71564,-0.518337,-0.113826,8.5371,0.191535,
2,0,0,1,0,60275.8,0.190368,0.190024,-1.93061,31,0.0136764,10,-0.000366862,-2.71431,-0.415544,-0.141983,10.7362,0.190024,
2,0,0,1,0,60275.8,0.18887,0.188512,-1.94453,31,0.0136275,10,-0.000366567,-2.71119,-0.498042,-0.118464,9.01,0.1885117,
2,0,0,1,0,60275.8,0.187376,0.187041,-1.96152,31,0.0135784,10,-0.000366884,-2.70741,-0.596802,-0.0988602,7.56257,0.187041,
2,0,0,1,0,60275.8,0.185875,0.185474,-1.97711,31,0.0135288,10,-0.000366704,-2.70397,-0.481272,-0.122592,9.43634,0.185474,
2,0,0,1,0,60275.9,0.184374,0.183978,-1.98889,31,0.0134789,10,-0.000365913,-2.70139,-0.486864,-0.121184,9.40191,0.183978,
2,0,0,1,0,60275.9,0.18288,0.182549,-2.00049,31,0.0134288,10,-0.000365189,-2.69886,-0.511813,-0.115276,9.01809,0.182549,
2,0,0,1,0,60275.9,0.18138,0.181075,-2.0173,31,0.0133781,10,-0.000365282,-2.69523,-0.500431,-0.117898,9.28448,0.181075,
2,0,0,1,0,60275.9,0.179881,0.179507,-2.03661,31,0.0133271,10,-0.000365586,-2.69109,-0.527303,-0.11189,8.86675,0.179507,
2,0,0,1,0,60276,0.178387,0.17801,-2.04552,31,0.0132758,10,-0.000364124,-2.6892,-0.511486,-0.11535,9.23827,0.17801,
2,0,0,1,0,60276,0.176886,0.176523,-2.05777,31,0.0132241,10,-0.000363245,-2.6866,-0.44268,-0.133279,10.7618,0.176523,
2,0,0,1,0,60276,0.175385,0.175043,-2.08503,31,0.0131719,10,-0.00036497,-2.68089,-0.436226,-0.135251,10.9773,0.175043,
2,0,0,1,0,60276,0.173892,0.173549,-2.10231,31,0.0131195,10,-0.000364854,-2.6773,-0.389379,-0.151523,12.3737,0.173549,
2,0,0,1,0,60276.1,0.172393,0.172046,-2.11653,31,0.0130664,10,-0.00036414,-2.67437,-0.356124,-0.165673,13.6677,0.172046,
2,0,0,1,0,60276.1,0.170893,0.170549,-2.12849,31,0.0130129,10,-0.000363012,-2.67193,-0.410955,-0.143568,11.9522,0.170549,
2,0,0,1,0,60276.1,0.169393,0.169086,-2.15165,31,0.0129589,10,-0.000363814,-2.66723,-0.374369,-0.157599,13.2425,0.169086,
2,0,0,1,0,60276.1,0.167899,0.167524,-2.17524,31,0.0129046,10,-0.000364406,-2.66249,-0.334115,-0.176586,14.984,0.167524,
2,0,0,1,0,60276.2,0.166398,0.166036,-2.19551,31,0.0128496,10,-0.000364533,-2.65846,-0.357326,-0.165115,14.1602,0.166036,
2,0,0,1,0,60276.2,0.164898,0.164551,-2.21281,31,0.012794,10,-0.000364119,-2.65506,-0.361978,-0.162993,14.1203,0.164551,
2,0,0,1,0,60276.2,0.163403,0.16305,-2.24128,31,0.0127382,10,-0.00036544,-2.6495,-0.319923,-0.18442,16.1165,0.16305,
2,0,0,1,0,60276.2,0.161904,0.161549,-2.26957,31,0.0126815,10,-0.000366647,-2.64406,-0.274407,-0.215009,18.9974,0.161549,
2,0,0,1,0,60276.3,0.160404,0.160019,-2.29206,31,0.0126241,10,-0.000366773,-2.63977,-0.285122,-0.206929,18.5321,0.160019,
2,0,0,1,0,60276.3,0.158905,0.158577,-2.31669,31,0.012566,10,-0.000367372,-2.63513,-0.274782,-0.214716,19.4714,0.158577,
2,0,0,1,0,60276.3,0.157411,0.157073,-2.34867,31,0.0125075,10,-0.000368913,-2.62918,-0.285667,-0.206534,18.9817,0.157073,
2,0,0,1,0,60276.3,0.155911,0.15553,-2.38496,31,0.012448,10,-0.000370933,-2.62252,-0.238272,-0.247616,23.0377,0.1555299,
2,0,0,1,0,60276.4,0.15441,0.15405,-2.41836,31,0.0123875,10,-0.000372548,-2.61648,-0.21788,-0.270791,25.5464,0.15405,
2,0,0,1,0,60276.4,0.152916,0.152598,-2.45835,31,0.0123264,10,-0.000375139,-2.60936,-0.214651,-0.274865,26.3928,0.152598,
2,0,0,1,0,60276.4,0.151417,0.151117,-2.49644,31,0.0122641,10,-0.000377255,-2.60268,-0.205523,-0.287073,28.0391,0.151117,
2,0,0,1,0,60276.4,0.149917,0.14957,-2.55276,31,0.0122006,10,-0.000381815,-2.59299,-0.170124,-0.346806,34.47,0.14957,
2,0,0,1,0,60276.5,0.148423,0.148106,-2.59757,31,0.0121362,10,-0.000384715,-2.58543,-0.162537,-0.362995,36.8457,0.1481057,
2,0,0,1,0,60276.5,0.146922,0.146573,-2.65047,31,0.0120702,10,-0.000388488,-2.57668,-0.160024,-0.368695,38.2481,0.146573,
2,0,0,1,0,60276.5,0.145421,0.14509,-2.71131,31,0.0120027,10,-0.000393385,-2.56682,-0.150023,-0.393274,41.7362,0.1450904,
2,0,0,1,0,60276.5,0.143927,0.143543,-2.78528,31,0.0119339,10,-0.000399808,-2.55513,-0.130646,-0.451601,49.0993,0.143543,
2,0,0,1,0,60276.6,0.142429,0.142071,-2.85676,31,0.011863,10,-0.000405863,-2.54413,-0.122889,-0.480107,53.6381,0.142071,
2,0,0,1,0,60276.6,0.140929,0.140583,-2.93778,31,0.0117902,10,-0.000413001,-2.53198,-0.120733,-0.48868,56.2078,0.140583,
2,0,0,1,0,60276.6,0.13943,0.139088,-3.02438,31,0.0117152,10,-0.000420656,-2.51936,-0.116343,-0.507123,59.9982,0.139088,
2,0,0,1,0,60276.6,0.137935,0.137572,-3.12753,31,0.0116382,10,-0.00043026,-2.5048,-0.109148,-0.540553,66.0006,0.137572,
2,0,0,1,0,60276.7,0.136435,0.136087,-3.22889,31,0.0115584,10,-0.00043941,-2.49095,-0.101994,-0.578463,72.9807,0.136087,
2,0,0,1,0,60276.7,0.134934,0.134556,-3.33971,31,0.0114758,10,-0.000449378,-2.47629,-0.103659,-0.569173,74.2135,0.134556,
2,0,0,1,0,60276.7,0.13344,0.133112,-3.45596,31,0.0113908,10,-0.00046003,-2.46143,-0.10504,-0.561691,75.7255,0.133112,
2,0,0,1,0,60276.7,0.13194,0.131584,-3.57634,31,0.0113025,10,-0.000470588,-2.44656,-0.101039,-0.583936,81.5371,0.131584,
2,0,0,1,0,60276.8,0.13044,0.130057,-3.69689,31,0.0112112,10,-0.000480807,-2.43216,-0.100523,-0.586933,84.6471,0.130057,
2,0,0,1,0,60276.8,0.128941,0.128546,-3.81972,31,0.0111167,10,-0.000491007,-2.41797,-0.107489,-0.548893,81.8798,0.128546,
2,0,0,1,0,60276.8,0.127447,0.127065,-3.95235,31,0.0110195,10,-0.000502206,-2.40314,-0.112965,-0.522286,80.3874,0.127065,
2,0,0,1,0,60276.8,0.125946,0.125599,-4.07729,31,0.0109188,10,-0.000512103,-2.38963,-0.115078,-0.512695,81.4273,0.125599,
2,0,0,1,0,60276.9,0.124446,0.124103,-4.19695,31,0.010815,10,-0.000520855,-2.37707,-0.115191,-0.512191,83.7736,0.124103,
2,0,0,1,0,60276.9,0.122952,0.122623,-4.31342,31,0.0107086,10,-0.000528924,-2.36518,-0.124757,-0.472918,79.5934,0.1226228,
2,0,0,1,0,60276.9,0.121453,0.121132,-4.43528,31,0.0105988,10,-0.000537253,-2.35308,-0.135398,-0.435753,75.3392,0.121132,
2,0,0,1,0,60276.9,0.119953,0.119589,-4.54827,31,0.0104861,10,-0.000543921,-2.34215,-0.141059,-0.418263,74.1571,0.119589,
2,0,0,1,0,60277,0.118459,0.118107,-4.65734,31,0.010371,10,-0.000550064,-2.33186,-0.14425,-0.409013,74.316,0.118107,
2,0,0,1,0,60277,0.116958,0.116619,-4.76654,31,0.0102528,10,-0.000555867,-2.3218,-0.155431,-0.37959,70.5677,0.116619,
2,0,0,1,0,60277,0.115457,0.115078,-4.87161,31,0.0101319,10,-0.000560616,-2.31233,-0.176668,-0.33396,63.3615,0.1150781,
2,0,0,1,0,60277,0.113963,0.113657,-4.96779,31,0.010009,10,-0.000564625,-2.30384,-0.186169,-0.316916,61.2985,0.113657,
2,0,0,1,0,60277.1,0.112464,0.112164,-5.055,31,0.00988337,10,-0.00056699,-2.29628,-0.183927,-0.32078,63.247,0.112164,
2,0,0,1,0,60277.1,0.110965,0.110628,-5.1432,31,0.00975546,10,-0.00056898,-2.28877,-0.20084,-0.293766,58.9273,0.1106277,
2,0,0,1,0,60277.1,0.109466,0.109092,-5.22452,31,0.00962535,10,-0.000569951,-2.28195,-0.23955,-0.246295,50.1473,0.109092,
2,0,0,1,0,60277.1,0.107972,0.107611,-5.30646,31,0.00949382,10,-0.000571035,-2.27519,-0.260692,-0.226321,46.764,0.107611,
2,0,0,1,0,60277.2,0.106471,0.106164,-5.36821,31,0.00936006,10,-0.000569913,-2.27017,-0.280492,-0.210345,44.0552,0.106164,
2,0,0,1,0,60277.2,0.10497,0.104639,-5.43083,31,0.0092246,10,-0.000568278,-2.26513,-0.318646,-0.185159,39.2049,0.104639,
2,0,0,1,0,60277.2,0.103476,0.103137,-5.49221,31,0.00908817,10,-0.000566448,-2.26025,-0.413185,-0.142793,30.514,0.1031367,
2,0,0,1,0,60277.2,0.101976,0.101614,-5.53518,31,0.00894998,10,-0.000562453,-2.25687,-0.473847,-0.124513,26.8497,0.1016141,
2,0,0,1,0,60277.3,0.100477,0.100118,-5.56829,31,0.00881084,10,-0.000557485,-2.25428,-0.560529,-0.105258,22.8605,0.100118,
2,0,0,1,0,60277.3,0.0989825,0.0986276,-5.59464,31,0.00867141,10,-0.000551786,-2.25223,-0.697309,-0.084611,18.462,0.09862759,
2,0,0,1,0,60277.3,0.0974817,0.0971252,-5.62275,31,0.00853076,10,-0.000546111,-2.25005,-1.25313,-0.0470822,10.3139,0.0971252,
2,0,0,1,0,60277.3,0.0959822,0.0956088,-5.63955,31,0.00838965,10,-0.00053919,-2.24876,-2.34303,-0.0251811,5.52676,0.0956088,
2,0,0,1,0,60277.4,0.094488,0.0941138,-5.63482,31,0.00824892,10,-0.000530314,-2.24912,-9.25254,-0.00637663,1.40146,0.0941138,
2,0,0,1,0,60277.4,0.0929884,0.0926616,-5.63256,31,0.00810762,10,-0.000521922,-2.24929,6.4189,0.00919161,-2.02077,0.0926616,
2,0,0,1,0,60277.4,0.0914889,0.091161,-5.63085,31,0.00796641,10,-0.000513313,-2.24943,1.74829,0.0337472,-7.40631,0.09116096,
2,0,0,1,0,60277.4,0.0899893,0.0895734,-5.61991,31,0.00782539,10,-0.000503394,-2.25027,1.13365,0.0520441,-11.3885,0.0895734,
2,0,0,1,0,60277.5,0.0884951,0.0881112,-5.59529,31,0.00768537,10,-0.000493008,-2.25218,0.953575,0.0618724,-13.502,0.0881112,
2,0,0,1,0,60277.5,0.0869943,0.0866317,-5.56761,31,0.00754539,10,-0.000482331,-2.25433,0.794254,0.0742835,-16.1595,0.0866317,
2,0,0,1,0,60277.5,0.0854935,0.0851402,-5.54548,31,0.007406,10,-0.000472143,-2.25606,0.678241,0.0869897,-18.8228,0.0851402,
2,0,0,1,0,60277.5,0.0839993,0.0836547,-5.52741,31,0.00726782,10,-0.000462394,-2.25748,0.674297,0.0874985,-18.83,0.0836547,
2,0,0,1,0,60277.6,0.0824997,0.0821417,-5.49117,31,0.00712977,10,-0.000451054,-2.26033,0.697214,0.0846226,-18.1306,0.08214169,
2,0,0,1,0,60277.6,0.0810002,0.0806588,-5.45831,31,0.00699249,10,-0.00044026,-2.26294,0.624442,0.0944844,-20.1551,0.0806588,
2,0,0,1,0,60277.6,0.0795007,0.0791543,-5.43018,31,0.00685592,10,-0.000429822,-2.26519,0.620778,0.095042,-20.1545,0.07915426,
2,0,0,1,0,60277.6,0.0780078,0.0776624,-5.40906,31,0.00672054,10,-0.00042008,-2.26688,0.741179,0.0796029,-16.7965,0.0776624,
2,0,0,1,0,60277.7,0.076507,0.0761508,-5.38361,31,0.00658529,10,-0.000409966,-2.26893,0.768977,0.0767253,-16.1144,0.0761508,
2,0,0,1,0,60277.7,0.0750062,0.0746582,-5.34871,31,0.00645074,10,-0.000399325,-2.27175,0.707866,0.0833491,-17.4276,0.0746582,
2,0,0,1,0,60277.7,0.073512,0.0731902,-5.32915,31,0.00631736,10,-0.000390042,-2.27334,0.750351,0.0786299,-16.3638,0.07319025,
2,0,0,1,0,60277.7,0.0720124,0.0716509,-5.31073,31,0.00618398,10,-0.000380518,-2.27485,0.853919,0.0690932,-14.313,0.0716509,
2,0,0,1,0,60277.8,0.0705129,0.0701714,-5.28653,31,0.00605115,10,-0.000370963,-2.27683,0.847844,0.0695882,-14.3573,0.0701714,
2,0,0,1,0,60277.8,0.0690187,0.0686731,-5.26123,31,0.00591938,10,-0.000361305,-2.27891,0.959418,0.0614956,-12.6473,0.0686731,
2,0,0,1,0,60277.8,0.0675179,0.0671456,-5.24607,31,0.00578764,10,-0.000352251,-2.28017,0.82145,0.0718242,-14.7114,0.0671456,
2,0,0,1,0,60277.8,0.066017,0.0656347,-5.23502,31,0.00565637,10,-0.000343599,-2.28108,0.984315,0.0599402,-12.2171,0.0656347,
2,0,0,1,0,60277.9,0.0645242,0.0642081,-5.21147,31,0.00552601,10,-0.000334619,-2.28304,1.10324,0.053479,-10.8585,0.06420812,
2,0,0,1,0,60277.9,0.0630246,0.062646,-5.18407,31,0.00539567,10,-0.000324761,-2.28533,0.925271,0.0637651,-12.9103,0.062646,
2,0,0,1,0,60277.9,0.0615251,0.061156,-5.16646,31,0.00526586,10,-0.00031596,-2.28681,0.803593,0.0734203,-14.8127,0.06115596,
2,0,0,1,0,60277.9,0.0600256,0.0596775,-5.15044,31,0.00513652,10,-0.000307365,-2.28816,0.792195,0.0744766,-14.9565,0.0596775,
2,0,0,1,0,60278,0.0585314,0.0581379,-5.13163,31,0.00500818,10,-0.000298342,-2.28974,0.842249,0.0700505,-14.0066,0.0581379,
2,0,0,1,0,60278,0.0570305,0.0566239,-5.10453,31,0.00487986,10,-0.000289039,-2.29204,0.798176,0.0739186,-14.7222,0.0566239,
2,0,0,1,0,60278,0.0555297,0.0552105,-5.08105,31,0.00475215,10,-0.000280527,-2.29405,0.759781,0.077654,-15.4111,0.0552105,
2,0,0,1,0,60278,0.0540355,0.0536938,-5.06582,31,0.00462553,10,-0.000272003,-2.29535,0.811052,0.0727451,-14.3647,0.0536938,
2,0,0,1,0,60278.1,0.052536,0.0521785,-5.04144,31,0.00449885,10,-0.000263055,-2.29745,0.914293,0.0645308,-12.6838,0.0521785,
2,0,0,1,0,60278.1,0.0510364,0.0506902,-5.0122,31,0.00437275,10,-0.000254069,-2.29997,0.765884,0.0770352,-15.0769,0.05069017,
2,0,0,1,0,60278.1,0.0495369,0.0491684,-4.98357,31,0.00424732,10,-0.000245034,-2.30246,0.641084,0.0920316,-17.9341,0.0491684,
2,0,0,1,0,60278.1,0.0480427,0.0477026,-4.96818,31,0.00412299,10,-0.000236996,-2.3038,0.707044,0.083446,-16.1569,0.0477026,
2,0,0,1,0,60278.2,0.0465432,0.0462128,-4.94288,31,0.00399877,10,-0.000228424,-2.30602,0.784953,0.0751637,-14.4909,0.0462128,
2,0,0,1,0,60278.2,0.0450424,0.0446379,-4.9117,31,0.00387519,10,-0.000219248,-2.30877,0.656476,0.0898738,-17.2334,0.0446379,
2,0,0,1,0,60278.2,0.0435482,0.0431605,-4.88202,31,0.00375275,10,-0.00021071,-2.3114,0.566074,0.104227,-19.8872,0.0431605,
2,0,0,1,0,60278.2,0.0420486,0.0417405,-4.86295,31,0.00363052,10,-0.000202982,-2.3131,0.633318,0.0931602,-17.672,0.04174054,
2,0,0,1,0,60278.3,0.0405491,0.0401968,-4.83768,31,0.00350892,10,-0.000194459,-2.31536,0.671313,0.0878875,-16.5788,0.0401968,
2,0,0,1,0,60278.3,0.0390549,0.0387123,-4.80735,31,0.00338843,10,-0.000186103,-2.31809,0.618813,0.0953438,-17.8904,0.0387123,
2,0,0,1,0,60278.3,0.0375541,0.0371797,-4.77882,31,0.00326818,10,-0.000177675,-2.32068,0.49765,0.118557,-22.1148,0.0371797,
2,0,0,1,0,60278.3,0.0360532,0.0357376,-4.74892,31,0.00314871,10,-0.000169715,-2.32341,0.492112,0.119891,-22.2225,0.0357376,
2,0,0,1,0,60278.4,0.034559,0.0342124,-4.72148,31,0.00303044,10,-0.000161533,-2.32592,0.587864,0.100363,-18.4673,0.0342124,
2,0,0,1,0,60278.4,0.0330595,0.0327244,-4.68378,31,0.00291249,10,-0.000153274,-2.3294,0.522433,0.112933,-20.6539,0.0327244,
2,0,0,1,0,60278.4,0.0315613,0.0311783,-4.65135,31,0.00279534,10,-0.000145021,-2.33242,0.459274,0.128464,-23.3224,0.0311783,
2,0,0,1,0,60278.4,0.0300618,0.0296934,-4.62185,31,0.00267903,10,-0.000137238,-2.33518,0.451035,0.13081,-23.5755,0.02969335,
2,0,0,1,0,60278.5,0.0285676,0.0281776,-4.58978,31,0.00256402,10,-0.000129329,-2.33821,0.527319,0.111887,-20.0171,0.0281776,
2,0,0,1,0,60278.5,0.0270667,0.0267053,-4.547,31,0.00244935,10,-0.000121429,-2.34228,0.478747,0.123238,-21.8963,0.0267053,
2,0,0,1,0,60278.5,0.0255659,0.0252215,-4.51778,31,0.00233554,10,-0.000113945,-2.34508,0.423789,0.13922,-24.5532,0.0252215,
2,0,0,1,0,60278.5,0.0240717,0.0237074,-4.48647,31,0.00222306,10,-0.000106363,-2.3481,0.419639,0.140597,-24.5998,0.0237074,
2,0,0,1,0,60278.6,0.0225722,0.0222189,-4.44861,31,0.00211102,10,-9.88431e-05,-2.35178,0.483675,0.121983,-21.1745,0.0222189,
2,0,0,1,0,60278.6,0.0210726,0.0207326,-4.41339,31,0.00199983,10,-9.15012e-05,-2.35523,0.484978,0.121655,-20.976,0.02073263,
2,0,0,1,0,60278.6,0.0195784,0.0192389,-4.37985,31,0.00188988,10,-8.42636e-05,-2.35854,0.436258,0.135241,-23.1249,0.0192389,
2,0,0,1,0,60278.6,0.0180789,0.0177308,-4.34747,31,0.00178032,10,-7.7084e-05,-2.36176,0.46228,0.127628,-21.653,0.0177308,
2,0,0,1,0,60278.7,0.0165781,0.0162013,-4.32039,31,0.00167164,10,-6.99959e-05,-2.36448,0.513051,0.114998,-19.3794,0.01620128,
2,0,0,1,0,60278.7,0.0150839,0.0147041,-4.28737,31,0.00156412,10,-6.30421e-05,-2.36781,0.495052,0.119179,-19.9512,0.0147041,
2,0,0,1,0,60278.7,0.0135844,0.0132231,-4.25682,31,0.00145689,10,-5.62883e-05,-2.37091,0.490191,0.120361,-19.9929,0.01322306,
2,0,0,1,0,60278.7,0.0120848,0.0117144,-4.2308,31,0.0013504,10,-4.95612e-05,-2.37358,0.475636,0.124044,-20.4752,0.0117144,
2,0,0,1,0,60278.8,0.0105853,0.0102253,-4.19678,31,0.00124469,10,-4.29134e-05,-2.37708,0.605495,0.097441,-15.9775,0.0102253,
2,0,0,1,0,60278.8,0.00909108,0.00873136,-4.17493,31,0.00114005,10,-3.64528e-05,-2.37935,0.589552,0.100076,-16.3008,0.00873136,
2,0,0,1,0,60278.8,0.00759027,0.00725083,-4.14737,31,0.00103561,10,-3.00719e-05,-2.38223,0.529492,0.111428,-18.0442,0.00725083,
2,0,0,1,0,60278.8,0.00608945,0.0057246,-4.12764,31,0.000931792,10,-2.36291e-05,-2.3843,0.575833,0.10246,-16.4845,0.0057246,
2,0,0,1,0,60278.9,0.00459524,0.004227,-4.10109,31,0.000829003,10,-1.73353e-05,-2.3871,0.662133,0.089106,-14.2574,0.004227,
2,0,0,1,0,60278.9,0.0030957,0.00276734,-4.07489,31,0.000726354,10,-1.12766e-05,-2.38988,1.31602,0.0448322,-7.16037,0.00276734,
2,0,0,1,0,60278.9,0.00159616,0.00118464,-4.08345,31,0.000623845,10,-4.83741e-06,-2.38897, , , ,0.00118464,
2,0,0,1,0,60278.9,0.000199195,-0.000247066,-4.06432,31,0.000528581,10,1.00415e-06,-2.39101, , , ,-0.000247066,