File: Figure_codes/Fig_3-5/rawdata_trumpetplot_data/after 10th/20221101_1-115_003_TrumpetPlot_ParaChange_from10_every3_12_CV_C01_26.csv
mode,ox/red,error,control changes,counter inc.,time/s,control/V,Ewe/V,<I>/mA,cycle number,(Q-Qo)/C,I Range,P/W,log(|I|),Tafel slope mV/dec,alpha_eff,dI/d(E-IR),E-IR/V,
2,1,0,1,0,52419.9,2.44065e-05,-0.000344411,14.5421,27,0.0000000E+000,10,-5.00844e-06,-1.83737, , , ,-0.000344411,
2,1,0,1,0,52419.9,0.00200257,0.00156538,15.4486,27,4.69003e-05,10,2.41829e-05,-1.81111, , , ,0.00156538,
2,1,0,1,0,52419.9,0.004408,0.00406264,16.2049,27,0.000110345,10,6.58345e-05,-1.79035, , , ,0.00406264,
2,1,0,1,0,52419.9,0.0068051,0.00645704,16.8041,27,0.000176437,10,0.000108505,-1.77458,0.153264,0.384955,249.858,0.00645704,
2,1,0,1,0,52419.9,0.00920221,0.00884931,17.3594,27,0.000244837,10,0.000153619,-1.76046,0.177278,0.33281,224.156,0.00884931,
2,1,0,1,0,52419.9,0.0115993,0.011266,17.8724,27,0.000315354,10,0.00020135,-1.74782,0.196134,0.300815,208.808,0.011266,
2,1,0,1,0,52419.9,0.0140075,0.0136583,18.3558,27,0.000387867,10,0.000250708,-1.73623,0.216171,0.272932,194.646,0.0136583,
2,1,0,1,0,52419.9,0.0164046,0.0160442,18.806,27,0.000462249,10,0.000301726,-1.7257,0.234197,0.251925,184.257,0.0160442,
2,1,0,1,0,52419.9,0.0188017,0.0184057,19.2195,27,0.000538354,10,0.000353749,-1.71626,0.254364,0.231951,173.604,0.0184057,
2,1,0,1,0,52419.9,0.0212099,0.0208436,19.6371,27,0.000616093,10,0.000409307,-1.70692,0.273869,0.215432,164.703,0.0208436,
2,1,0,1,0,52420,0.023607,0.0232687,20.0242,27,0.000695447,10,0.000465937,-1.69844,0.28979,0.203596,158.72,0.0232687,
2,1,0,1,0,52420,0.0260041,0.0256917,20.395,27,0.000776321,10,0.000523982,-1.69048,0.309891,0.190389,151.255,0.02569175,
2,1,0,1,0,52420,0.0284012,0.0280554,20.7511,27,0.000858642,10,0.000582181,-1.68296,0.329443,0.17909,144.781,0.0280554,
2,1,0,1,0,52420,0.0308067,0.030471,21.0933,27,0.000942384,10,0.000642734,-1.67586,0.342162,0.172433,141.757,0.030471,
2,1,0,1,0,52420,0.0332038,0.0329142,21.4207,27,0.00102743,10,0.000705044,-1.66917,0.359686,0.164032,137.017,0.03291418,
2,1,0,1,0,52420,0.0356009,0.0352471,21.7495,27,0.0011138,10,0.000766606,-1.66255,0.373062,0.15815,134.115,0.0352471,
2,1,0,1,0,52420,0.0380091,0.0376754,22.0692,27,0.00120147,10,0.000831468,-1.65621,0.388169,0.151996,130.73,0.0376754,
2,1,0,1,0,52420,0.0404062,0.0400486,22.3778,27,0.00129038,10,0.000896199,-1.65018,0.405678,0.145436,126.855,0.0400486,
2,1,0,1,0,52420,0.0428033,0.0424547,22.6679,27,0.0013805,10,0.000962358,-1.64459,0.421585,0.139948,123.753,0.0424547,
2,1,0,1,0,52420,0.0452032,0.0447971,22.961,27,0.00147178,10,0.00102858,-1.63901,0.433956,0.135958,121.812,0.0447971,
2,1,0,1,0,52420,0.0476058,0.0472763,23.2574,27,0.00156426,10,0.00109952,-1.63344,0.446268,0.132208,119.907,0.0472763,
2,1,0,1,0,52420,0.0500029,0.0496453,23.5468,27,0.00165789,10,0.00116899,-1.62807,0.453717,0.130037,119.418,0.0496453,
2,1,0,1,0,52420,0.0524,0.0520662,23.8204,27,0.00175265,10,0.00124024,-1.62305,0.464891,0.126912,117.948,0.0520662,
2,1,0,1,0,52420,0.0548082,0.0544213,24.1103,27,0.00184853,10,0.00131211,-1.6178,0.478827,0.123218,115.891,0.0544213,
2,1,0,1,0,52420,0.0572053,0.0567818,24.3785,27,0.00194553,10,0.00138426,-1.61299,0.476886,0.123719,117.71,0.05678181,
2,1,0,1,0,52420,0.0596024,0.0592621,24.6613,27,0.00204362,10,0.00146148,-1.60798,0.493624,0.119524,115.029,0.0592621,
2,1,0,1,0,52420,0.0620051,0.0616289,24.946,27,0.00214285,10,0.0015374,-1.603,0.499598,0.118095,114.895,0.0616289,
2,1,0,1,0,52420,0.0644077,0.0640467,25.2175,27,0.00224321,10,0.00161509,-1.5983,0.505119,0.116804,114.909,0.0640467,
2,1,0,1,0,52420,0.0668048,0.0664347,25.4876,27,0.00234464,10,0.00169326,-1.59367,0.511239,0.115406,114.824,0.0664347,
2,1,0,1,0,52420,0.0692019,0.0688397,25.7618,27,0.00244717,10,0.00177344,-1.58902,0.509171,0.115875,116.55,0.0688397,
2,1,0,1,0,52420,0.0716074,0.0712447,26.0501,27,0.00255081,10,0.00185593,-1.58419,0.515477,0.114457,116.324,0.0712447,
2,1,0,1,0,52420,0.0740045,0.0736455,26.3362,27,0.0026556,10,0.00193954,-1.57945,0.515926,0.114358,117.476,0.0736455,
2,1,0,1,0,52420,0.0764016,0.0760218,26.6028,27,0.00276152,10,0.00202239,-1.57507,0.524874,0.112408,116.722,0.0760218,
2,1,0,1,0,52420,0.0788042,0.0784459,26.8903,27,0.00286852,10,0.00210944,-1.5704,0.529715,0.111381,116.899,0.0784459,
2,1,0,1,0,52420,0.0812069,0.0808488,27.1711,27,0.00297668,10,0.00219675,-1.56589,0.526661,0.112027,118.794,0.0808488,
2,1,0,1,0,52420.1,0.083604,0.0832347,27.4572,27,0.00308594,10,0.00228539,-1.56134,0.531667,0.110972,118.915,0.0832347,
2,1,0,1,0,52420.1,0.0860011,0.0856609,27.7479,27,0.00319637,10,0.00237691,-1.55677,0.538668,0.109529,118.558,0.0856609,
2,1,0,1,0,52420.1,0.0884065,0.0880532,28.0328,27,0.00330798,10,0.00246838,-1.55233,0.535768,0.110122,120.466,0.0880532,
2,1,0,1,0,52420.1,0.0908036,0.0904338,28.3075,27,0.0034207,10,0.00255996,-1.5481,0.540369,0.109185,120.675,0.0904338,
2,1,0,1,0,52420.1,0.0932007,0.0928134,28.6111,27,0.00353457,10,0.00265549,-1.54347,0.539343,0.109392,122.163,0.0928134,
2,1,0,1,0,52420.1,0.0956034,0.0952046,28.8996,27,0.00364962,10,0.00275137,-1.53911,0.531643,0.110977,125.172,0.0952046,
2,1,0,1,0,52420.1,0.098006,0.0976446,29.2045,27,0.00376587,10,0.00285166,-1.53455,0.550704,0.107136,122.061,0.0976446,
2,1,0,1,0,52420.1,0.100403,0.0999807,29.5025,27,0.00388332,10,0.00294968,-1.53014,0.544047,0.108446,124.833,0.0999807,
2,1,0,1,0,52420.1,0.1028,0.102415,29.7831,27,0.0040019,10,0.00305025,-1.52603,0.549457,0.107379,124.881,0.102415,
2,1,0,1,0,52420.1,0.105208,0.104812,30.0989,27,0.00412169,10,0.00315472,-1.52145,0.553693,0.106557,125.175,0.104812,
2,1,0,1,0,52420.1,0.107606,0.107243,30.4032,27,0.00424272,10,0.00326054,-1.51708,0.545138,0.108229,128.388,0.107243,
2,1,0,1,0,52420.1,0.110003,0.109596,30.7062,27,0.00436497,10,0.00336529,-1.51277,0.56557,0.10432,124.976,0.109596,
2,1,0,1,0,52420.1,0.112408,0.112026,31.017,27,0.00448843,10,0.0034747,-1.5084,0.57014,0.103483,125.197,0.1120258,
2,1,0,1,0,52420.1,0.114805,0.114448,31.3031,27,0.0046131,10,0.00358257,-1.50441,0.572996,0.102968,125.808,0.114448,
2,1,0,1,0,52420.1,0.117202,0.116837,31.6043,27,0.00473894,10,0.00369255,-1.50025,0.578148,0.10205,125.923,0.116837,
2,1,0,1,0,52420.1,0.119599,0.119213,31.916,27,0.00486601,10,0.00380482,-1.49599,0.576707,0.102305,127.402,0.119213,
2,1,0,1,0,52420.1,0.122008,0.121625,32.2257,27,0.00499434,10,0.00391944,-1.4918,0.558608,0.10562,132.871,0.1216246,
2,1,0,1,0,52420.1,0.124405,0.124021,32.5228,27,0.00512386,10,0.00403351,-1.48781,0.551815,0.10692,135.888,0.124021,
2,1,0,1,0,52420.1,0.126802,0.126385,32.8729,27,0.00525467,10,0.00415464,-1.48316,0.535212,0.110237,141.545,0.126385,
2,1,0,1,0,52420.1,0.129207,0.128837,33.2239,27,0.00538689,10,0.00428048,-1.47855,0.51959,0.113551,147.235,0.128837,
2,1,0,1,0,52420.1,0.131604,0.131229,33.5851,27,0.00552054,10,0.00440733,-1.47385,0.523268,0.112753,147.765,0.131229,
2,1,0,1,0,52420.1,0.134001,0.133619,33.9359,27,0.00565563,10,0.00453448,-1.46934,0.520973,0.11325,149.998,0.133619,
2,1,0,1,0,52420.1,0.136399,0.136024,34.2972,27,0.00579213,10,0.00466524,-1.46474,0.52744,0.111861,149.734,0.136024,
2,1,0,1,0,52420.1,0.138807,0.138426,34.6621,27,0.00593009,10,0.00479812,-1.46015,0.52345,0.112714,152.47,0.138426,
2,1,0,1,0,52420.1,0.141204,0.140829,35.0225,27,0.00606948,10,0.00493217,-1.45565,0.521664,0.1131,154.633,0.140829,
2,1,0,1,0,52420.2,0.143601,0.143202,35.397,27,0.00621035,10,0.00506891,-1.45103,0.527804,0.111784,154.428,0.143202,
2,1,0,1,0,52420.2,0.146009,0.145609,35.7794,27,0.00635274,10,0.0052098,-1.44637,0.533491,0.110592,154.338,0.145609,
2,1,0,1,0,52420.2,0.148406,0.148029,36.1451,27,0.00649661,10,0.00535051,-1.44195,0.543046,0.108646,153.195,0.148029,
2,1,0,1,0,52420.2,0.150803,0.150436,36.5053,27,0.00664195,10,0.00549171,-1.43764,0.553193,0.106654,151.949,0.150436,
2,1,0,1,0,52420.2,0.153206,0.152833,36.8725,27,0.00678875,10,0.00563536,-1.4333,0.557651,0.105801,152.236,0.152833,
2,1,0,1,0,52420.2,0.155606,0.155232,37.2416,27,0.006937,10,0.0057811,-1.42897,0.569398,0.103618,150.525,0.155232,
2,1,0,1,0,52420.2,0.158003,0.157605,37.6029,27,0.00708674,10,0.00592642,-1.42478,0.587776,0.100378,147.208,0.157605,
2,1,0,1,0,52420.2,0.1604,0.16003,37.9495,27,0.00723787,10,0.00607308,-1.42079,0.61352,0.0961664,142.32,0.16003,
2,1,0,1,0,52420.2,0.162808,0.16247,38.2912,27,0.00739037,10,0.00622118,-1.4169,0.63696,0.0926275,138.327,0.16247,
2,1,0,1,0,52420.2,0.165205,0.164834,38.6082,27,0.00754421,10,0.00636394,-1.41332,0.654311,0.0901711,135.834,0.164834,
2,1,0,1,0,52420.2,0.167603,0.167235,38.935,27,0.00769932,10,0.00651128,-1.40966,0.686612,0.0859291,130.495,0.167235,
2,1,0,1,0,52420.2,0.170008,0.16965,39.2562,27,0.00785573,10,0.00665984,-1.40609,0.720369,0.0819025,125.318,0.16965,
2,1,0,1,0,52420.2,0.172405,0.172046,39.5407,27,0.00801336,10,0.00680282,-1.40296,0.771965,0.0764284,117.814,0.172046,
2,1,0,1,0,52420.2,0.174802,0.174422,39.8098,27,0.00817209,10,0.00694371,-1.40001,0.842975,0.0699902,108.65,0.174422,
2,1,0,1,0,52420.2,0.177199,0.176843,40.067,27,0.00833187,10,0.00708557,-1.39721,0.904573,0.0652241,101.891,0.176843,
2,1,0,1,0,52420.2,0.179607,0.17927,40.3015,27,0.00849263,10,0.00722486,-1.39468,1.0187,0.0579168,90.9697,0.17927,
2,1,0,1,0,52420.2,0.182005,0.181649,40.5192,27,0.00865431,10,0.00736027,-1.39234,1.16827,0.0505018,79.7234,0.181649,
2,1,0,1,0,52420.2,0.184402,0.18406,40.6865,27,0.00881675,10,0.00748878,-1.39055,1.4041,0.0420198,66.6113,0.18406,
2,1,0,1,0,52420.2,0.18681,0.186475,40.8348,27,0.00897979,10,0.00761467,-1.38897,1.85425,0.0318188,50.6176,0.186475,
2,1,0,1,0,52420.2,0.189207,0.188832,40.9384,27,0.00914334,10,0.00773048,-1.38787,2.49974,0.0236025,37.6435,0.188832,
2,1,0,1,0,52420.2,0.191604,0.191257,41.0055,27,0.00930724,10,0.00784261,-1.38716,4.07242,0.0144877,23.1512,0.191257,
2,1,0,1,0,52420.2,0.194001,0.193643,41.0473,27,0.00947137,10,0.00794852,-1.38672,14.0478,0.00419996,6.71555,0.193643,
2,1,0,1,0,52420.2,0.196407,0.19607,41.057,27,0.00963562,10,0.00805006,-1.38661,-11.183,-0.00527585,-8.43471,0.19607,
2,1,0,1,0,52420.2,0.198804,0.198456,41.003,27,0.00979974,10,0.00813731,-1.38718,-3.96607,-0.0148762,-23.7645,0.198456,
2,1,0,1,0,52420.2,0.201201,0.200842,40.9247,27,0.0099636,10,0.00821941,-1.38801,-2.27884,-0.0258903,-41.2847,0.200842,
2,1,0,1,0,52420.3,0.203609,0.203256,40.8188,27,0.0101271,10,0.00829666,-1.38914,-1.71614,-0.0343795,-54.6607,0.203256,
2,1,0,1,0,52420.3,0.206006,0.205647,40.6616,27,0.01029,10,0.00836194,-1.39082,-1.29901,-0.0454191,-71.9262,0.205647,
2,1,0,1,0,52420.3,0.208403,0.208089,40.4765,27,0.0104523,10,0.00842271,-1.3928,-1.05109,-0.0561322,-88.4847,0.2080891,
2,1,0,1,0,52420.3,0.210803,0.21047,40.2322,27,0.0106137,10,0.00846766,-1.39543,-0.89463,-0.0659491,-103.372,0.21047,
2,1,0,1,0,52420.3,0.213206,0.212876,39.9676,27,0.0107741,10,0.00850813,-1.39829,-0.768159,-0.076807,-119.608,0.212876,
2,1,0,1,0,52420.3,0.215603,0.215245,39.6695,27,0.0109333,10,0.00853865,-1.40154,-0.705281,-0.0836546,-129.306,0.215245,
2,1,0,1,0,52420.3,0.218,0.217645,39.3334,27,0.0110913,10,0.00856075,-1.40524,-0.622754,-0.0947405,-145.189,0.217645,
2,1,0,1,0,52420.3,0.220408,0.220098,38.9872,27,0.0112479,10,0.00858101,-1.40908,-0.565448,-0.104342,-158.415,0.2200982,
2,1,0,1,0,52420.3,0.222805,0.222461,38.576,27,0.011403,10,0.00858164,-1.41368,-0.528199,-0.1117,-167.91,0.222461,
2,1,0,1,0,52420.3,0.225202,0.224871,38.1445,27,0.0115564,10,0.0085776,-1.41857,-0.482849,-0.122191,-181.732,0.224871,
2,1,0,1,0,52420.3,0.227605,0.227295,37.7132,27,0.0117081,10,0.00857202,-1.42351,-0.458738,-0.128614,-189.048,0.227295,
2,1,0,1,0,52420.3,0.230008,0.229692,37.2438,27,0.0118579,10,0.00855458,-1.42895,-0.435376,-0.135515,-196.701,0.229692,
2,1,0,1,0,52420.3,0.232405,0.232037,36.7655,27,0.0120059,10,0.00853098,-1.43456,-0.414767,-0.142248,-203.881,0.232037,
2,1,0,1,0,52420.3,0.234802,0.23447,36.2564,27,0.0121519,10,0.00850104,-1.44061,-0.399339,-0.147744,-208.914,0.23447,
2,1,0,1,0,52420.3,0.237207,0.2369,35.7548,27,0.0122959,10,0.00847034,-1.44667,-0.38934,-0.151538,-211.337,0.2369,
2,1,0,1,0,52420.3,0.239604,0.239288,35.2389,27,0.0124378,10,0.00843226,-1.45298,-0.381244,-0.154757,-212.735,0.239288,
2,1,0,1,0,52420.3,0.242001,0.241702,34.7231,27,0.0125777,10,0.00839263,-1.45938,-0.371307,-0.158898,-215.273,0.241702,
2,1,0,1,0,52420.3,0.244404,0.244092,34.2095,27,0.0127155,10,0.00835026,-1.46585,-0.365603,-0.161377,-215.356,0.244092,
2,1,0,1,0,52420.3,0.246807,0.246474,33.694,27,0.0128513,10,0.00830468,-1.47245,-0.360982,-0.163443,-214.849,0.246474,
2,1,0,1,0,52420.3,0.249204,0.248895,33.1701,27,0.0129849,10,0.00825586,-1.47925,-0.361168,-0.163359,-211.557,0.248895,
2,1,0,1,0,52420.3,0.251601,0.251291,32.6628,27,0.0131165,10,0.00820788,-1.48595,-0.359485,-0.164124,-209.297,0.251291,
2,1,0,1,0,52420.3,0.254006,0.253695,32.1779,27,0.0132462,10,0.00816337,-1.49244,-0.359288,-0.164213,-206.187,0.253695,
2,1,0,1,0,52420.3,0.256404,0.256103,31.6785,27,0.0133738,10,0.00811297,-1.49924,-0.361407,-0.163251,-201.867,0.256103,
2,1,0,1,0,52420.3,0.258801,0.25847,31.1958,27,0.0134995,10,0.00806317,-1.5059,-0.361629,-0.163151,-198.751,0.25847,
2,1,0,1,0,52420.3,0.261203,0.260887,30.7258,27,0.0136233,10,0.00801595,-1.5125,-0.367727,-0.160445,-192.529,0.260887,
2,1,0,1,0,52420.4,0.263606,0.263292,30.2705,27,0.0137453,10,0.00796998,-1.51898,-0.37181,-0.158683,-187.566,0.263292,
2,1,0,1,0,52420.4,0.266003,0.265681,29.8346,27,0.0138654,10,0.00792647,-1.52528,-0.380022,-0.155254,-180.846,0.265681,
2,1,0,1,0,52420.4,0.2684,0.268064,29.3964,27,0.0139838,10,0.0078801,-1.53171,-0.383501,-0.153846,-176.618,0.268064,
2,1,0,1,0,52420.4,0.270808,0.270511,28.9853,27,0.0141006,10,0.00784084,-1.53782,-0.386357,-0.152708,-172.835,0.270511,
2,1,0,1,0,52420.4,0.273205,0.272875,28.578,27,0.0142156,10,0.00779821,-1.54397,-0.402663,-0.146525,-163.56,0.272875,
2,1,0,1,0,52420.4,0.275603,0.275241,28.1822,27,0.0143291,10,0.0077569,-1.55003,-0.406016,-0.145314,-159.987,0.275241,
2,1,0,1,0,52420.4,0.278008,0.277685,27.8228,27,0.0144411,10,0.00772595,-1.5556,-0.414661,-0.142285,-154.542,0.2776846,
2,1,0,1,0,52420.4,0.280405,0.280108,27.4499,27,0.0145516,10,0.00768894,-1.56146,-0.426669,-0.138281,-148.205,0.280108,
2,1,0,1,0,52420.4,0.282802,0.282462,27.0964,27,0.0146606,10,0.0076537,-1.56709,-0.429253,-0.137448,-145.48,0.282462,
2,1,0,1,0,52420.4,0.285199,0.284871,26.755,27,0.0147683,10,0.00762172,-1.5726,-0.443596,-0.133004,-139.009,0.284871,
2,1,0,1,0,52420.4,0.287608,0.287255,26.4305,27,0.0148746,10,0.00759228,-1.57789,-0.457347,-0.129005,-133.171,0.287255,
2,1,0,1,0,52420.4,0.290005,0.289664,26.1215,27,0.0149797,10,0.00756646,-1.583,-0.469391,-0.125695,-128.203,0.289664,
2,1,0,1,0,52420.4,0.292402,0.292081,25.8154,27,0.0150835,10,0.00754019,-1.58812,-0.480776,-0.122718,-123.712,0.292081,
2,1,0,1,0,52420.4,0.294807,0.294473,25.524,27,0.0151862,10,0.00751613,-1.59305,-0.491134,-0.12013,-119.788,0.294473,
2,1,0,1,0,52420.4,0.297204,0.296874,25.2405,27,0.0152877,10,0.00749324,-1.5979,-0.490337,-0.120326,-119.098,0.296874,
2,1,0,1,0,52420.4,0.299421,0.299131,24.9875,27,0.0153806,10,0.00747453,-1.60228,-0.123154,-0.479077,-457.389,0.299131,
2,1,0,0,0,52420.4,0.300012,0.299651,24.9138,27,0.0154055,10,0.00746546,-1.60356,0.00300214,19.6527,17292.5,0.299651,
2,1,0,1,0,52420.4,0.299243,0.299046,23.4326,27,0.0154364,10,0.00700741,-1.63018,0.0318234,1.85398,1518.51,0.2990455,
2,1,0,1,0,52420.4,0.296846,0.296574,20.0508,27,0.0155226,10,0.00594655,-1.69787,0.0367692,1.6046,1231.15,0.296574,
2,1,0,1,0,52420.4,0.294449,0.294159,17.4379,27,0.0155972,10,0.00512951,-1.75851,0.0389345,1.51536,1055.2,0.294159,
2,1,0,1,0,52420.4,0.292041,0.291763,15.202,27,0.0156622,10,0.00443538,-1.8181,0.0395261,1.49268,894.388,0.291763,
2,1,0,1,0,52420.4,0.289644,0.289368,13.2211,27,0.0157188,10,0.00382576,-1.87873,0.0383805,1.53724,796.637,0.289368,
2,1,0,1,0,52420.4,0.287247,0.286961,11.4535,27,0.0157679,10,0.00328669,-1.94106,0.0369177,1.59815,713.614,0.286961,
2,1,0,1,0,52420.4,0.284841,0.284622,9.84012,27,0.0158103,10,0.00280071,-2.007,0.0349034,1.69038,645.839,0.284622,
2,1,0,1,0,52420.4,0.282444,0.282173,8.35902,27,0.0158466,10,0.00235869,-2.07784,0.0320425,1.8413,594.973,0.282173,
2,1,0,1,0,52420.4,0.280047,0.279752,7.01084,27,0.0158771,10,0.0019613,-2.15423,0.0292891,2.0144,541.566,0.279752,
2,1,0,1,0,52420.4,0.27765,0.277382,5.7544,27,0.0159025,10,0.00159617,-2.24,0.0255216,2.31177,504.894,0.277382,
2,1,0,1,0,52420.5,0.275242,0.274939,4.59636,27,0.0159231,10,0.00126372,-2.33759,0.0215695,2.73534,468.29,0.274939,
2,1,0,1,0,52420.5,0.272845,0.272593,3.52171,27,0.0159392,10,0.000959992,-2.45325,0.0170697,3.45642,434.01,0.272593,
2,1,0,1,0,52420.5,0.270448,0.270156,2.51682,27,0.0159511,10,0.000679933,-2.59915,0.0116736,5.05415,407.406,0.270156,
2,1,0,1,0,52420.5,0.268039,0.26773,1.56496,27,0.0159592,10,0.000418986,-2.8055,0.00665845,8.86092,378.299,0.26773,
2,1,0,1,0,52420.5,0.265642,0.265364,0.695257,27,0.0159636,10,0.000184496,-3.15785,0.0213971,2.75739,355.433,0.265364,
2,1,0,1,0,52420.5,0.263245,0.262951,-0.125542,27,0.0159647,10,-3.30114e-05,-3.90121,-0.560969,-0.105175,333.71,0.262951,
2,0,0,1,0,52420.5,0.260843,0.260555,-0.895671,27,0.0159625,10,-0.000233371,-3.04785,-0.0184865,-3.19152,311.709,0.260555,
2,0,0,1,0,52420.5,0.258443,0.258163,-1.62764,27,0.0159574,10,-0.000420195,-2.78844,-0.00697644,-8.45703,295.966,0.258163,
2,0,0,1,0,52420.5,0.256046,0.255709,-2.3143,27,0.0159494,10,-0.000591788,-2.63558,-0.0160622,-3.67322,277.715,0.255709,
2,0,0,1,0,52420.5,0.253649,0.253377,-2.95924,27,0.0159388,10,-0.000749803,-2.52882,-0.0236345,-2.49635,262.676,0.253377,
2,0,0,1,0,52420.5,0.25124,0.25089,-3.57965,27,0.0159257,10,-0.000898101,-2.44616,-0.0312017,-1.89092,248.365,0.25089,
2,0,0,1,0,52420.5,0.248843,0.248547,-4.15346,27,0.0159102,10,-0.00103233,-2.38159,-0.0390575,-1.51059,235.159,0.248547,
2,0,0,1,0,52420.5,0.246446,0.246123,-4.69515,27,0.0158924,10,-0.00115558,-2.32835,-0.0468776,-1.2586,224.476,0.2461227,
2,0,0,1,0,52420.5,0.244041,0.243706,-5.23344,27,0.0158725,10,-0.00127542,-2.28121,-0.0555248,-1.06259,211.682,0.243706,
2,0,0,1,0,52420.5,0.241644,0.241319,-5.72817,27,0.0158505,10,-0.00138232,-2.24198,-0.0638418,-0.924159,202.362,0.241319,
2,0,0,1,0,52420.5,0.239246,0.238923,-6.19074,27,0.0158266,10,-0.00147911,-2.20826,-0.0732679,-0.805263,191.996,0.238923,
2,0,0,1,0,52420.5,0.236849,0.236521,-6.63823,27,0.0158009,10,-0.00157008,-2.17795,-0.08239,-0.716106,183.639,0.236521,
2,0,0,1,0,52420.5,0.234441,0.2341,-7.07779,27,0.0157734,10,-0.00165691,-2.1501,-0.0913567,-0.64582,176.574,0.2341,
2,0,0,1,0,52420.5,0.232044,0.231712,-7.49245,27,0.0157442,10,-0.00173609,-2.12538,-0.101063,-0.583794,169.068,0.231712,
2,0,0,1,0,52420.5,0.229647,0.229304,-7.88919,27,0.0157134,10,-0.00180902,-2.10297,-0.111779,-0.527826,161.188,0.229304,
2,0,0,1,0,52420.5,0.227239,0.226916,-8.26216,27,0.0156811,10,-0.00187481,-2.08291,-0.12272,-0.480768,153.987,0.226916,
2,0,0,1,0,52420.5,0.224842,0.224515,-8.62279,27,0.0156473,10,-0.00193594,-2.06435,-0.133351,-0.442441,148.143,0.224515,
2,0,0,1,0,52420.5,0.222445,0.222145,-8.96564,27,0.0156121,10,-0.00199167,-2.04742,-0.143054,-0.412432,143.797,0.222145,
2,0,0,1,0,52420.5,0.220047,0.21972,-9.30899,27,0.0155755,10,-0.00204537,-2.0311,-0.155535,-0.379335,137.145,0.21972,
2,0,0,1,0,52420.5,0.217642,0.217328,-9.64076,27,0.0155376,10,-0.00209521,-2.01589,-0.166215,-0.354961,132.851,0.217328,
2,0,0,1,0,52420.6,0.215245,0.214939,-9.93602,27,0.0154984,10,-0.00213564,-2.00279,-0.177561,-0.332279,128.558,0.2149393,
2,0,0,1,0,52420.6,0.212848,0.212531,-10.2428,27,0.015458,10,-0.00217692,-1.98958,-0.191822,-0.307576,122.683,0.212531,
2,0,0,1,0,52420.6,0.21044,0.210114,-10.5438,27,0.0154164,10,-0.00221541,-1.977,-0.199641,-0.295531,121.208,0.210114,
2,0,0,1,0,52420.6,0.208043,0.207694,-10.8228,27,0.0153737,10,-0.00224782,-1.96566,-0.213918,-0.275807,116.147,0.207694,
2,0,0,1,0,52420.6,0.205645,0.205304,-11.1038,27,0.0153298,10,-0.00227967,-1.95453,-0.22752,-0.259318,112.06,0.205304,
2,0,0,1,0,52420.6,0.203246,0.202936,-11.3573,27,0.0152848,10,-0.00230481,-1.94472,-0.237912,-0.247991,109.743,0.202936,
2,0,0,1,0,52420.6,0.200843,0.200519,-11.6191,27,0.0152388,10,-0.00232985,-1.93483,-0.25197,-0.234155,106.042,0.200519,
2,0,0,1,0,52420.6,0.198446,0.198137,-11.8715,27,0.0151918,10,-0.00235219,-1.92549,-0.258013,-0.228671,105.843,0.198137,
2,0,0,1,0,52420.6,0.196049,0.19573,-12.1191,27,0.0151438,10,-0.00237208,-1.91653,-0.273963,-0.215357,101.711,0.19573,
2,0,0,1,0,52420.6,0.19364,0.193296,-12.3776,27,0.0150948,10,-0.00239254,-1.90736,-0.285565,-0.206608,99.5329,0.193296,
2,0,0,1,0,52420.6,0.191243,0.1909,-12.5975,27,0.0150448,10,-0.00240485,-1.89972,-0.293821,-0.200803,98.6378,0.1909,
2,0,0,1,0,52420.6,0.188846,0.188519,-12.8288,27,0.014994,10,-0.00241848,-1.89181,-0.311573,-0.189361,94.7826,0.188519,
2,0,0,1,0,52420.6,0.186444,0.18613,-13.066,27,0.0149422,10,-0.00243198,-1.88386,-0.315204,-0.18718,95.328,0.1861302,
2,0,0,1,0,52420.6,0.184041,0.183733,-13.2841,27,0.0148894,10,-0.00244071,-1.87667,-0.325278,-0.181383,93.9558,0.183733,
2,0,0,1,0,52420.6,0.181644,0.181302,-13.5124,27,0.0148358,10,-0.00244982,-1.86927,-0.338531,-0.174282,91.8461,0.181302,
2,0,0,1,0,52420.6,0.179247,0.178961,-13.7269,27,0.0147813,10,-0.00245658,-1.86243,-0.34425,-0.171387,91.7792,0.178961,
2,0,0,1,0,52420.6,0.176841,0.176501,-13.9505,27,0.0147259,10,-0.00246227,-1.85541,-0.350374,-0.168392,91.671,0.176501,
2,0,0,1,0,52420.6,0.174444,0.174096,-14.1685,27,0.0146697,10,-0.00246668,-1.84868,-0.354053,-0.166642,92.138,0.174096,
2,0,0,1,0,52420.6,0.172047,0.171672,-14.3952,27,0.0146125,10,-0.00247125,-1.84178,-0.35833,-0.164652,92.4584,0.171672,
2,0,0,1,0,52420.6,0.169644,0.169297,-14.6173,27,0.0145545,10,-0.00247467,-1.83513,-0.364669,-0.161791,92.2256,0.169297,
2,0,0,1,0,52420.6,0.167242,0.166928,-14.8355,27,0.0144956,10,-0.00247647,-1.8287,-0.364514,-0.161859,93.7249,0.166928,
2,0,0,1,0,52420.6,0.164845,0.16451,-15.0526,27,0.0144358,10,-0.0024763,-1.82239,-0.364671,-0.16179,95.1473,0.16451,
2,0,0,1,0,52420.6,0.162448,0.162144,-15.2882,27,0.0143751,10,-0.00247889,-1.81564,-0.364128,-0.162031,96.7087,0.162144,
2,0,0,1,0,52420.6,0.160042,0.159707,-15.5298,27,0.0143134,10,-0.00248021,-1.80883,-0.359797,-0.163982,99.3567,0.159707,
2,0,0,1,0,52420.6,0.157645,0.157362,-15.7606,27,0.0142508,10,-0.00248013,-1.80243,-0.356508,-0.165494,101.871,0.157362,
2,0,0,1,0,52420.7,0.155248,0.154897,-16.0077,27,0.0141873,10,-0.00247954,-1.79567,-0.351774,-0.167721,104.911,0.154897,
2,0,0,1,0,52420.7,0.152845,0.152533,-16.2673,27,0.0141227,10,-0.0024813,-1.78869,-0.341229,-0.172904,109.892,0.152533,
2,0,0,1,0,52420.7,0.150443,0.150116,-16.536,27,0.0140571,10,-0.00248231,-1.78157,-0.330756,-0.178379,115.228,0.150116,
2,0,0,1,0,52420.7,0.148046,0.147707,-16.8216,27,0.0139904,10,-0.00248468,-1.77413,-0.319897,-0.184434,121.234,0.147707,
2,0,0,1,0,52420.7,0.145648,0.145344,-17.1085,27,0.0139225,10,-0.00248661,-1.76679,-0.30915,-0.190846,127.689,0.145344,
2,0,0,1,0,52420.7,0.14324,0.142925,-17.4321,27,0.0138534,10,-0.00249148,-1.75865,-0.29799,-0.197993,134.934,0.142925,
2,0,0,1,0,52420.7,0.140843,0.140481,-17.7663,27,0.0137829,10,-0.00249582,-1.7504,-0.279098,-0.211395,146.901,0.140481,
2,0,0,1,0,52420.7,0.138446,0.138088,-18.1196,27,0.0137111,10,-0.0025021,-1.74185,-0.268701,-0.219575,155.714,0.138088,
2,0,0,1,0,52420.7,0.136041,0.135721,-18.5221,27,0.0136378,10,-0.00251383,-1.73231,-0.256237,-0.230256,166.7,0.1357206,
2,0,0,1,0,52420.7,0.133644,0.133301,-18.9307,27,0.0135629,10,-0.00252348,-1.72283,-0.242093,-0.243708,180.378,0.133301,
2,0,0,1,0,52420.7,0.131246,0.130933,-19.3579,27,0.0134863,10,-0.00253459,-1.71314,-0.23497,-0.251096,190.319,0.130933,
2,0,0,1,0,52420.7,0.128849,0.128571,-19.8362,27,0.0134079,10,-0.00255037,-1.70254,-0.225108,-0.262096,203.453,0.128571,
2,0,0,1,0,52420.7,0.126441,0.126121,-20.3492,27,0.0133274,10,-0.00256645,-1.69145,-0.216238,-0.272847,217.017,0.126121,
2,0,0,1,0,52420.7,0.124044,0.123713,-20.8815,27,0.0132449,10,-0.0025833,-1.68024,-0.211651,-0.27876,227.488,0.123713,
2,0,0,1,0,52420.7,0.121647,0.121348,-21.438,27,0.0131603,10,-0.00260146,-1.66882,-0.207318,-0.284586,238.513,0.121348,
2,0,0,1,0,52420.7,0.119241,0.11896,-22.0227,27,0.0130733,10,-0.00261982,-1.65713,-0.203365,-0.290118,249.773,0.11896,
2,0,0,1,0,52420.7,0.116844,0.116509,-22.6416,27,0.0129839,10,-0.00263796,-1.64509,-0.202418,-0.291476,257.724,0.1165092,
2,0,0,1,0,52420.7,0.114447,0.114101,-23.2822,27,0.012892,10,-0.00265652,-1.63298,-0.20078,-0.293854,266.972,0.114101,
2,0,0,1,0,52420.7,0.11205,0.111718,-23.9198,27,0.0127976,10,-0.00267228,-1.62124,-0.204262,-0.288845,269.515,0.111718,
2,0,0,1,0,52420.7,0.109642,0.109371,-24.5828,27,0.0127005,10,-0.00268863,-1.60937,-0.208506,-0.282965,271.181,0.109371,
2,0,0,1,0,52420.7,0.107245,0.106935,-25.2221,27,0.0126008,10,-0.00269712,-1.59822,-0.210823,-0.279856,275.349,0.106935,
2,0,0,1,0,52420.7,0.104848,0.104536,-25.876,27,0.0124986,10,-0.00270498,-1.5871,-0.220637,-0.267408,269.893,0.104536,
2,0,0,1,0,52420.7,0.10244,0.102176,-26.5473,27,0.0123937,10,-0.00271249,-1.57598,-0.224846,-0.262402,271.442,0.102176,
2,0,0,1,0,52420.7,0.100042,0.0997336,-27.1838,27,0.0122861,10,-0.00271113,-1.56569,-0.232186,-0.254106,269.237,0.0997336,
2,0,0,1,0,52420.7,0.0976454,0.0973158,-27.8331,27,0.012176,10,-0.0027086,-1.55544,-0.244409,-0.241399,261.814,0.0973158,
2,0,0,1,0,52420.8,0.0952427,0.0949267,-28.4632,27,0.0120634,10,-0.00270192,-1.54572,-0.252911,-0.233284,258.54,0.0949267,
2,0,0,1,0,52420.8,0.0928428,0.0925345,-29.0715,27,0.0119483,10,-0.00269012,-1.53653,-0.264231,-0.22329,252.894,0.0925345,
2,0,0,1,0,52420.8,0.0904457,0.0902069,-29.6468,27,0.0118307,10,-0.00267434,-1.52802,-0.274128,-0.215228,248.961,0.0902069,
2,0,0,1,0,52420.8,0.0880486,0.0877923,-30.2415,27,0.0117109,10,-0.00265497,-1.5194,-0.284262,-0.207555,244.878,0.0877923,
2,0,0,1,0,52420.8,0.0856404,0.0853492,-30.8476,27,0.0115887,10,-0.00263282,-1.51078,-0.297071,-0.198605,238.57,0.0853492,
2,0,0,1,0,52420.8,0.0832433,0.0829399,-31.421,27,0.0114641,10,-0.00260606,-1.50278,-0.309763,-0.190468,233.027,0.0829399,
2,0,0,1,0,52420.8,0.0808462,0.0805922,-31.9406,27,0.0113373,10,-0.00257416,-1.49566,-0.330269,-0.178643,222.432,0.0805922,
2,0,0,1,0,52420.8,0.0784408,0.0781744,-32.4827,27,0.0112084,10,-0.00253932,-1.48835,-0.352577,-0.167339,211.757,0.0781744,
2,0,0,1,0,52420.8,0.0760437,0.0757419,-32.9846,27,0.0110774,10,-0.00249832,-1.48169,-0.371984,-0.158609,203.694,0.07574188,
2,0,0,1,0,52420.8,0.0736466,0.0733613,-33.4494,27,0.0109445,10,-0.00245389,-1.47561,-0.402921,-0.146431,190.822,0.0733613,
2,0,0,1,0,52420.8,0.0712495,0.0710093,-33.8925,27,0.0108097,10,-0.00240668,-1.4699,-0.431393,-0.136766,180.637,0.0710093,
2,0,0,1,0,52420.8,0.0688413,0.068565,-34.3164,27,0.0106733,10,-0.00235291,-1.4645,-0.45768,-0.128911,172.39,0.068565,
2,0,0,1,0,52420.8,0.0664442,0.0661611,-34.7153,27,0.0105352,10,-0.0022968,-1.45948,-0.493616,-0.119526,161.711,0.0661611,
2,0,0,1,0,52420.8,0.0640471,0.0638165,-35.0948,27,0.0103955,10,-0.00223963,-1.45476,-0.534314,-0.110422,150.993,0.06381654,
2,0,0,1,0,52420.8,0.0616389,0.0613606,-35.4528,27,0.0102544,10,-0.00217541,-1.45035,-0.572955,-0.102975,142.228,0.0613606,
2,0,0,1,0,52420.8,0.0592418,0.0589429,-35.7693,27,0.0101119,10,-0.00210835,-1.44649,-0.627217,-0.0940663,131.157,0.0589429,
2,0,0,1,0,52420.8,0.0568446,0.0566026,-36.0747,27,0.00996816,10,-0.00204192,-1.4428,-0.663069,-0.0889801,125.188,0.0566026,
2,0,0,1,0,52420.8,0.0544475,0.0541223,-36.3663,27,0.00982327,10,-0.00196823,-1.4393,-0.713636,-0.0826752,117.216,0.0541223,
2,0,0,1,0,52420.8,0.0520421,0.051764,-36.6542,27,0.00967718,10,-0.00189737,-1.43588,-0.787027,-0.0749657,107.045,0.051764,
2,0,0,1,0,52420.8,0.049645,0.0493537,-36.8933,27,0.00953006,10,-0.00182082,-1.43305,-0.846795,-0.0696745,100.184,0.0493537,
2,0,0,1,0,52420.8,0.0472479,0.0469635,-37.1066,27,0.00938202,10,-0.00174265,-1.43055,-0.96056,-0.0614225,88.8848,0.0469635,
2,0,0,1,0,52420.8,0.0448397,0.0445532,-37.3249,27,0.00923314,10,-0.00166294,-1.428,-1.05283,-0.0560392,81.5425,0.0445532,
2,0,0,1,0,52420.8,0.0424426,0.0421535,-37.5085,27,0.00908348,10,-0.00158111,-1.42587,-1.14656,-0.0514584,75.245,0.0421535,
2,0,0,1,0,52420.8,0.0400455,0.0397241,-37.6785,27,0.0089331,10,-0.00149675,-1.42391,-1.32082,-0.0446692,65.6181,0.0397241,
2,0,0,1,0,52420.8,0.0376456,0.0373329,-37.8312,27,0.00878206,10,-0.00141235,-1.42215,-1.47194,-0.0400831,59.1201,0.0373329,
2,0,0,1,0,52420.9,0.035243,0.0349173,-37.9572,27,0.00863046,10,-0.00132536,-1.42071,-1.66252,-0.0354882,52.5324,0.0349173,
2,0,0,1,0,52420.9,0.0328459,0.032508,-38.0787,27,0.00847836,10,-0.00123786,-1.41932,-1.80225,-0.0327369,48.6324,0.032508,
2,0,0,1,0,52420.9,0.0304488,0.0301391,-38.1821,27,0.00832583,10,-0.00115077,-1.41814,-1.98343,-0.0297464,44.3119,0.0301391,
2,0,0,1,0,52420.9,0.0280406,0.0277044,-38.2995,27,0.00817287,10,-0.00106106,-1.41681,-2.39876,-0.0245961,36.7204,0.0277044,
2,0,0,1,0,52420.9,0.0256435,0.0252941,-38.3836,27,0.00801951,10,-0.000970879,-1.41585,-2.77076,-0.0212938,31.8577,0.0252941,
2,0,0,1,0,52420.9,0.0232463,0.0229411,-38.43,27,0.00786588,10,-0.000881625,-1.41533,-3.50407,-0.0168376,25.2468,0.0229411,
2,0,0,1,0,52420.9,0.0208437,0.0205117,-38.4888,27,0.00771204,10,-0.000789468,-1.41467,-4.41498,-0.0133636,20.0685,0.0205117,
2,0,0,1,0,52420.9,0.018441,0.0181045,-38.5418,27,0.00755797,10,-0.000697782,-1.41407,-4.86421,-0.0121294,18.2333,0.0181045,
2,0,0,1,0,52420.9,0.0160439,0.0157335,-38.5755,27,0.00740374,10,-0.000606927,-1.41369,-6.89982,-0.00855094,12.865,0.0157335,
2,0,0,1,0,52420.9,0.0136468,0.0132998,-38.6058,27,0.00724937,10,-0.000513451,-1.41335,-11.8416,-0.00498243,7.50137,0.0132998,
2,0,0,1,0,52420.9,0.0112414,0.0108906,-38.6125,27,0.00709493,10,-0.000420513,-1.41327,-29.904,-0.00197298,2.97138,0.0108906,
2,0,0,1,0,52420.9,0.00884431,0.00853755,-38.6136,27,0.00694047,10,-0.000329666,-1.41326,75.3552,0.000782959,-1.17948,0.00853755,
2,0,0,1,0,52420.9,0.0064472,0.00612407,-38.6041,27,0.00678603,10,-0.000236414,-1.41337,-213.67,-0.000276127,0.416124,0.006124069,
2,0,0,1,0,52420.9,0.00404455,0.00370952,-38.5945,27,0.00663165,10,-0.000143167,-1.41347,13.9061,0.00424275,-6.38859,0.003709523,
2,0,0,1,0,52420.9,0.0016419,0.00128013,-38.6165,27,0.00647727,10,-4.94343e-05,-1.41323,7.27025,0.00811527,-12.2078,0.00128013,
2,0,0,1,0,52420.9,-0.000755207,-0.0011079,-38.552,27,0.00632295,10,4.27119e-05,-1.41395,5.26061,0.0112154,-16.8575,-0.001107904,
2,0,0,1,0,52420.9,-0.00315231,-0.00348534,-38.4867,27,0.0061689,10,0.000134139,-1.41469,3.21519,0.0183504,-27.5607,-0.00348534,
2,0,0,1,0,52420.9,-0.00555774,-0.0058861,-38.4327,27,0.00601506,10,0.000226219,-1.4153,2.98497,0.0197657,-29.6285,-0.0058861,
2,0,0,1,0,52420.9,-0.00795485,-0.00831761,-38.352,27,0.00586149,10,0.000318997,-1.41621,2.65854,0.0221926,-33.1945,-0.00831761,
2,0,0,1,0,52420.9,-0.010352,-0.0107406,-38.2666,27,0.00570826,10,0.000411008,-1.41718,2.23462,0.0264027,-39.4057,-0.0107406,
2,0,0,1,0,52420.9,-0.0127546,-0.0131552,-38.1658,27,0.0055554,10,0.000502078,-1.41833,2.05785,0.0286706,-42.6837,-0.0131552,
2,0,0,1,0,52420.9,-0.0151573,-0.0155167,-38.0532,27,0.00540297,10,0.000590461,-1.41961,1.85431,0.0318177,-47.236,-0.0155167,
2,0,0,1,0,52420.9,-0.0175544,-0.0179047,-37.9428,27,0.00525101,10,0.000679356,-1.42087,1.76364,0.0334536,-49.5199,-0.0179047,
2,0,0,1,0,52420.9,-0.0199515,-0.0203151,-37.8143,27,0.0050995,10,0.0007682,-1.42234,1.634,0.0361078,-53.2623,-0.0203151,
2,0,0,1,0,52420.9,-0.0223597,-0.0226904,-37.6936,27,0.0049485,10,0.000855281,-1.42373,1.50246,0.0392688,-57.7228,-0.0226904,
2,0,0,1,0,52421,-0.0247568,-0.0251229,-37.5416,27,0.00479804,10,0.000943155,-1.42549,1.48597,0.0397046,-58.1604,-0.0251229,
2,0,0,1,0,52421,-0.0271539,-0.0275131,-37.3882,27,0.00464819,10,0.00102866,-1.42727,1.39495,0.0422954,-61.7266,-0.0275131,
2,0,0,1,0,52421,-0.0295593,-0.0299361,-37.2548,27,0.00449894,10,0.00111526,-1.42882,1.39051,0.0424304,-61.6724,-0.0299361,
2,0,0,1,0,52421,-0.0319564,-0.0323326,-37.0984,27,0.00435024,10,0.00119949,-1.43064,1.35956,0.0433964,-62.8074,-0.0323326,
2,0,0,1,0,52421,-0.0343535,-0.0347663,-36.9468,27,0.00420216,10,0.0012845,-1.43242,1.31467,0.0448783,-64.7047,-0.0347663,
2,0,0,1,0,52421,-0.0367506,-0.0371543,-36.7826,27,0.00405473,10,0.00136663,-1.43436,1.31269,0.0449457,-64.5311,-0.0371543,
2,0,0,1,0,52421,-0.0391588,-0.039536,-36.6336,27,0.00390789,10,0.00144835,-1.43612,1.32382,0.044568,-63.7304,-0.039536,
2,0,0,1,0,52421,-0.0415559,-0.0418965,-36.4812,27,0.0037617,10,0.00152843,-1.43793,1.3627,0.0432964,-61.6519,-0.0418965,
2,0,0,1,0,52421,-0.043953,-0.0443577,-36.3356,27,0.00361609,10,0.00161176,-1.43967,1.35475,0.0435506,-61.7583,-0.0443577,
2,0,0,1,0,52421,-0.0463585,-0.0467383,-36.1918,27,0.00347106,10,0.00169154,-1.44139,1.38334,0.0426504,-60.2387,-0.0467383,
2,0,0,1,0,52421,-0.0487556,-0.0491475,-36.04,27,0.00332661,10,0.00177128,-1.44322,1.3917,0.0423942,-59.6445,-0.04914752,
2,0,0,1,0,52421,-0.0511527,-0.0515387,-35.9004,27,0.00318274,10,0.00185026,-1.4449,1.47688,0.0399492,-56.0074,-0.0515387,
2,0,0,1,0,52421,-0.0535498,-0.0539236,-35.765,27,0.00303944,10,0.00192858,-1.44654,1.56033,0.0378126,-52.81,-0.0539236,
2,0,0,1,0,52421,-0.055958,-0.0563084,-35.6558,27,0.00289659,10,0.00200772,-1.44787,1.61017,0.0366421,-50.9883,-0.0563084,
2,0,0,1,0,52421,-0.0583551,-0.0587357,-35.5337,27,0.00275422,10,0.00208709,-1.44936,1.76971,0.0333389,-46.2439,-0.0587357,
2,0,0,1,0,52421,-0.0607522,-0.0611216,-35.4118,27,0.00261236,10,0.00216443,-1.45085,1.7612,0.0334999,-46.325,-0.0611216,
2,0,0,1,0,52421,-0.0631604,-0.0635574,-35.3195,27,0.00247091,10,0.00224482,-1.45199,1.93795,0.0304445,-41.9798,-0.0635574,
2,0,0,1,0,52421,-0.0655575,-0.0659041,-35.2112,27,0.00232986,10,0.00232056,-1.45332,2.23762,0.0263672,-36.2603,-0.0659041,
2,0,0,1,0,52421,-0.0679546,-0.0683271,-35.131,27,0.00218918,10,0.0024004,-1.45431,2.24449,0.0262866,-36.057,-0.0683271,
2,0,0,1,0,52421,-0.0703573,-0.07073,-35.0634,27,0.00204881,10,0.00248003,-1.45515,2.57026,0.0229548,-31.4084,-0.07073,
2,0,0,1,0,52421,-0.0727571,-0.0730936,-34.9757,27,0.00190875,10,0.0025565,-1.45623,2.84589,0.0207317,-28.3142,-0.07309363,
2,0,0,1,0,52421,-0.0751542,-0.075541,-34.9086,27,0.00176898,10,0.00263703,-1.45707,3.2503,0.0181522,-24.7554,-0.075541,
2,0,0,1,0,52421,-0.0775514,-0.0779227,-34.8593,27,0.00162946,10,0.00271633,-1.45768,4.13837,0.0142568,-19.4082,-0.0779227,
2,0,0,1,0,52421,-0.0799595,-0.080332,-34.8257,27,0.0014901,10,0.00279761,-1.4581,4.63118,0.0127397,-17.3151,-0.080332,
2,0,0,1,0,52421,-0.0823567,-0.0827592,-34.7881,27,0.00135089,10,0.00287903,-1.45857,5.94362,0.00992661,-13.4795,-0.0827592,
2,0,0,1,0,52421.1,-0.0847538,-0.0851017,-34.743,27,0.00121184,10,0.00295669,-1.45913,7.34165,0.00803634,-10.9061,-0.0851017,
2,0,0,1,0,52421.1,-0.0871592,-0.0875353,-34.7297,27,0.00107293,10,0.00304008,-1.4593,9.63907,0.00612092,-8.30072,-0.0875353,
2,0,0,1,0,52421.1,-0.0895563,-0.0899286,-34.721,27,0.000934039,10,0.00312241,-1.45941,35.0206,0.00168472,-2.28361,-0.0899286,
2,0,0,1,0,52421.1,-0.0919534,-0.0923072,-34.7088,27,0.000795186,10,0.00320387,-1.45956,1353.92,4.35771e-05,-0.0590635,-0.09230715,
2,0,0,1,0,52421.1,-0.0943505,-0.0947408,-34.721,27,0.000656334,10,0.0032895,-1.45941,-56.6068,-0.00104228,1.41262,-0.0947408,
2,0,0,1,0,52421.1,-0.0967587,-0.0971288,-34.7292,27,0.000517443,10,0.0033732,-1.45931,-14.4228,-0.00409073,5.54473,-0.0971288,
2,0,0,1,0,52421.1,-0.0991558,-0.0995116,-34.7345,27,0.000378525,10,0.00345649,-1.45924,2.70454,0.0218152,-29.4894,-0.0995116,
2,0,0,1,0,52421.1,-0.0999548,-0.100267,-34.753,27,0.000333366,10,0.00348456,-1.45901,0.0239633,2.4621,-3139.7,-0.100267,
2,0,0,1,1,52421.1,-0.0999548,-0.100419,-34.5536,27,0.000312608,10,0.00346984,-1.46151,-0.0335476,-1.7587,2118.4,-0.100419,
2,0,0,1,1,52421.1,-0.0979573,-0.0984109,-30.7039,27,0.000213065,10,0.0030216,-1.51281,-0.043649,-1.35169,1545.25,-0.0984109,
2,0,0,1,1,52421.1,-0.0955546,-0.0959984,-27.2923,27,9.76111e-05,10,0.00262002,-1.56396,-0.0465434,-1.26763,1373.22,-0.0959984,
2,0,0,1,1,52421.1,-0.0931519,-0.0935902,-24.4364,27,-5.44924e-06,10,0.00228701,-1.61196,-0.0495614,-1.19044,1150.52,-0.0935902,
2,0,0,1,1,52421.1,-0.0907548,-0.091217,-21.917,27,-9.78294e-05,10,0.0019992,-1.65922,-0.050132,-1.17689,1013.33,-0.091217,
2,0,0,1,1,52421.1,-0.0883577,-0.0887983,-19.6445,27,-0.000180671,10,0.0017444,-1.70676,-0.0494685,-1.19268,917.027,-0.08879827,
2,0,0,1,1,52421.1,-0.0859523,-0.0863816,-17.5473,27,-0.000254796,10,0.00151576,-1.75579,-0.0481758,-1.22468,839.011,-0.0863816,
2,0,0,1,1,52421.1,-0.0835552,-0.0839776,-15.6214,27,-0.000320901,10,0.00131185,-1.80628,-0.0457575,-1.28941,783.374,-0.0839776,
2,0,0,1,1,52421.1,-0.0811581,-0.0815578,-13.8128,27,-0.000379556,10,0.00112654,-1.85972,-0.0430328,-1.37105,733.993,-0.0815578,
2,0,0,1,1,52421.1,-0.0787555,-0.0791645,-12.0976,27,-0.000431162,10,0.000957703,-1.9173,-0.0398807,-1.47941,692.098,-0.07916446,
2,0,0,1,1,52421.1,-0.0763528,-0.0767669,-10.4902,27,-0.00047614,10,0.000805298,-1.97922,-0.0363091,-1.62494,656.478,-0.0767669,
2,0,0,1,1,52421.1,-0.0739557,-0.0743608,-8.96561,27,-0.000514878,10,0.00066669,-2.04742,-0.0325907,-1.81033,621.069,-0.0743608,
2,0,0,1,1,52421.1,-0.0715586,-0.0719781,-7.5239,27,-0.000547694,10,0.000541556,-2.12356,-0.0284427,-2.07434,591.016,-0.0719781,
2,0,0,1,1,52421.1,-0.0691532,-0.0695869,-6.14929,27,-0.000574893,10,0.00042791,-2.21117,-0.0239946,-2.45889,563.293,-0.0695869,
2,0,0,1,1,52421.1,-0.0667561,-0.0671967,-4.83405,27,-0.000596703,10,0.000324832,-2.31569,-0.0192898,-3.05861,534.103,-0.0671967,
2,0,0,1,1,52421.1,-0.0643589,-0.0648087,-3.58495,27,-0.000613384,10,0.000232336,-2.44552,-0.0138406,-4.26281,510.418,-0.0648087,
2,0,0,1,1,52421.1,-0.0619563,-0.0623602,-2.38695,27,-0.000625204,10,0.000148851,-2.62216,-0.00640993,-9.20447,486.02,-0.0623602,
2,0,0,1,1,52421.1,-0.0595536,-0.0599732,-1.24231,27,-0.000632324,10,7.45052e-05,-2.90577,-0.0159852,-3.69091,467.982,-0.05997321,
2,0,0,1,1,52421.2,-0.0571565,-0.0575629,-0.151831,27,-0.000634995,10,8.73985e-06,-3.81864,-0.102286,-0.576816,451.314,-0.0575629,
2,1,0,1,1,52421.2,-0.0547594,-0.0552226,0.901155,27,-0.000633382,10,-4.97641e-05,-3.0452,0.0263798,2.23656,428.078,-0.0552226,
2,1,0,1,1,52421.2,-0.0523512,-0.0528059,1.92502,27,-0.000627603,10,-0.000101653,-2.71556,0.0068634,8.59633,412.389,-0.0528059,
2,1,0,1,1,52421.2,-0.0499541,-0.0503479,2.87808,27,-0.000617896,10,-0.000144905,-2.5409,0.0133989,4.40334,395.282,-0.0503479,
2,1,0,1,1,52421.2,-0.047557,-0.0479577,3.80923,27,-0.000604419,10,-0.000182682,-2.41916,0.0207902,2.83787,380.314,-0.0479577,
2,1,0,1,1,52421.2,-0.0451544,-0.0456111,4.70042,27,-0.000587301,10,-0.000214391,-2.32786,0.0274974,2.14566,369.16,-0.0456111,
2,1,0,1,1,52421.2,-0.0427545,-0.0431986,5.57882,27,-0.000566632,10,-0.000240997,-2.25346,0.0344981,1.71024,355.548,-0.0431986,
2,1,0,1,1,52421.2,-0.0403574,-0.0407968,6.40396,27,-0.000542576,10,-0.000261261,-2.19355,0.0417727,1.41241,341.817,-0.0407968,
2,1,0,1,1,52421.2,-0.0379603,-0.0384141,7.20246,27,-0.000515277,10,-0.000276676,-2.14252,0.0493113,1.19648,328.476,-0.0384141,
2,1,0,1,1,52421.2,-0.0355521,-0.0359826,7.9916,27,-0.000484803,10,-0.000287558,-2.09737,0.0565557,1.04322,318.611,-0.0359826,
2,1,0,1,1,52421.2,-0.033155,-0.0336242,8.72378,27,-0.00045129,10,-0.00029333,-2.0593,0.0645302,0.9143,306.53,-0.0336242,
2,1,0,1,1,52421.2,-0.0307579,-0.0312563,9.44366,27,-0.000414873,10,-0.000295174,-2.02486,0.0730718,0.807425,293.791,-0.0312563,
2,1,0,1,1,52421.2,-0.0283524,-0.02881,10.1464,27,-0.000375634,10,-0.000292318,-1.99369,0.0820366,0.719191,281.198,-0.02881,
2,1,0,1,1,52421.2,-0.0259553,-0.0264389,10.7954,27,-0.000333655,10,-0.00028542,-1.96676,0.0912727,0.646415,269.799,-0.0264389,
2,1,0,1,1,52421.2,-0.0235582,-0.0239809,11.4355,27,-0.000289118,10,-0.000274233,-1.94175,0.100214,0.588738,260.903,-0.0239809,
2,1,0,1,1,52421.2,-0.0211611,-0.0215907,12.0514,27,-0.000242075,10,-0.000260199,-1.91896,0.109463,0.538993,251.863,-0.0215907,
2,1,0,1,1,52421.2,-0.0187529,-0.01919,12.6563,27,-0.00019258,10,-0.000242874,-1.89769,0.119382,0.494213,242.374,-0.01919,
2,1,0,1,1,52421.2,-0.0163558,-0.0167563,13.2341,27,-0.00014074,10,-0.000221755,-1.8783,0.129706,0.454874,233.321,-0.01675633,
2,1,0,1,1,52421.2,-0.0139587,-0.0143513,13.7694,27,-8.66742e-05,10,-0.00019761,-1.86108,0.141299,0.417555,223.356,-0.0143513,
2,1,0,1,1,52421.2,-0.0115505,-0.011958,14.299,27,-3.04752e-05,10,-0.000170987,-1.8447,0.15186,0.388515,215.935,-0.011958,
2,1,0,1,1,52421.2,-0.0091534,-0.00953496,14.8128,27,2.78071e-05,10,-0.000141239,-1.82936,0.162503,0.363069,208.973,-0.00953496,
2,1,0,1,1,52421.2,-0.00675629,-0.00719676,15.2984,27,8.80998e-05,10,-0.000110099,-1.81535,0.174255,0.338584,201.41,-0.00719676,
2,1,0,1,1,52421.2,-0.00435919,-0.00476737,15.7722,27,0.00015029,10,-7.5192e-05,-1.80211,0.196235,0.300659,183.487,-0.00476737,
2,1,0,1,1,52421.2,-0.00195376,-0.00238888,16.2263,27,0.000214346,10,-3.87625e-05,-1.78978, , , ,-0.00238888,
2,1,0,0,1,52421.2,-7.54729e-05,-0.000382585,16.4921,27,0.000265142,10,-6.30965e-06,-1.78272, , , ,-0.000382585,