File: Figure_codes/Fig_3-5/rawdata_trumpetplot_data/after 10th/20221101_1-115_003_TrumpetPlot_ParaChange_from10_every3_04_CV_C01_25.csv
mode,ox/red,error,control changes,counter inc.,time/s,control/V,Ewe/V,<I>/mA,cycle number,(Q-Qo)/C,I Range,P/W,log(|I|),Tafel slope mV/dec,alpha_eff,dI/d(E-IR),E-IR/V,
2,0,0,1,0,50313.3,2.44065e-05,-0.000363498,-0.395149,26,0.0000000E+000,10,1.43636e-07,-3.40324, , , ,-0.000363498,
2,1,0,1,0,50313.4,0.00129787,0.000922775,0.106804,26,-5.40811e-06,10,9.8556e-08,-3.97141, , , ,0.000922775,
2,1,0,1,0,50313.6,0.00279606,0.002454,0.252055,26,2.56443e-05,10,6.18543e-07,-3.59851,0.00211755,27.8625,75.8526,0.002454,
2,1,0,1,0,50313.7,0.00429425,0.00395448,0.296904,26,6.91527e-05,10,1.1741e-06,-3.52738,0.0231997,2.54313,27.1978,0.00395448,
2,1,0,1,0,50313.9,0.00579244,0.00546131,0.323538,26,0.000118082,10,1.76694e-06,-3.49008,0.0410482,1.43733,17.8154,0.00546131,
2,1,0,1,0,50314,0.00729063,0.00694058,0.348799,26,0.000170713,10,2.42087e-06,-3.45742,0.0562358,1.04915,14.0466,0.00694058,
2,1,0,1,0,50314.2,0.00878882,0.00845378,0.367763,26,0.000226635,10,3.10898e-06,-3.43443,0.0723419,0.815571,11.5844,0.00845378,
2,1,0,1,0,50314.3,0.010287,0.0100062,0.383469,26,0.000285112,10,3.83707e-06,-3.41627,0.0950209,0.620916,9.21011,0.0100062,
2,1,0,1,0,50314.5,0.0117852,0.0114558,0.395503,26,0.000345792,10,4.5308e-06,-3.40285,0.102046,0.578173,8.92183,0.0114558,
2,1,0,1,0,50314.6,0.0132838,0.0129738,0.409703,26,0.000408287,10,5.31539e-06,-3.38753,0.105708,0.558139,8.92033,0.0129738,
2,1,0,1,0,50314.8,0.0147814,0.0144375,0.42149,26,0.000472843,10,6.08526e-06,-3.37521,0.112227,0.52572,8.63765,0.0144375,
2,1,0,1,0,50314.9,0.0162789,0.0159709,0.433969,26,0.0005392,10,6.93089e-06,-3.36254,0.14247,0.414123,6.96977,0.0159709,
2,1,0,1,0,50315.1,0.017778,0.017446,0.444251,26,0.000607219,10,7.75042e-06,-3.35237,0.141076,0.418214,7.24913,0.017446,
2,1,0,1,0,50315.2,0.0192761,0.0189423,0.453173,26,0.000676529,10,8.58413e-06,-3.34374,0.148554,0.397163,7.02243,0.0189423,
2,1,0,1,0,50315.4,0.0207743,0.0204353,0.463132,26,0.000747512,10,9.46425e-06,-3.3343,0.149711,0.394093,7.11633,0.0204353,
2,1,0,1,0,50315.5,0.0222725,0.0219718,0.473261,26,0.000820028,10,1.03984e-05,-3.3249,0.160968,0.366532,6.75936,0.0219718,
2,1,0,1,0,50315.7,0.0237707,0.0234755,0.485225,26,0.000894066,10,1.13909e-05,-3.31406,0.166586,0.354172,6.70832,0.0234755,
2,1,0,1,0,50315.8,0.0252689,0.0249123,0.492572,26,0.000969475,10,1.22711e-05,-3.30753,0.184467,0.31984,6.16576,0.02491235,
2,1,0,1,0,50316,0.0267671,0.0264213,0.504312,26,0.00104641,10,1.33246e-05,-3.2973,0.150143,0.392958,7.74807,0.0264213,
2,1,0,1,0,50316.1,0.0282662,0.0279374,0.515542,26,0.00112501,10,1.44029e-05,-3.28774,0.162694,0.362643,7.28039,0.0279374,
2,1,0,1,0,50316.2,0.0297635,0.0294791,0.525823,26,0.00120521,10,1.55008e-05,-3.27916,0.195292,0.302112,6.19103,0.0294791,
2,1,0,1,0,50316.4,0.031261,0.0309082,0.531941,26,0.00128672,10,1.64413e-05,-3.27414,0.18507,0.318798,6.64053,0.0309082,
2,1,0,1,0,50316.5,0.0327599,0.0323808,0.545569,26,0.00136969,10,1.76659e-05,-3.26315,0.190982,0.30893,6.57258,0.0323808,
2,1,0,1,0,50316.7,0.034258,0.0339544,0.554712,26,0.00145422,10,1.88349e-05,-3.25593,0.18324,0.321981,6.95869,0.0339544,
2,1,0,1,0,50316.8,0.0357562,0.0354242,0.564712,26,0.00154033,10,2.00044e-05,-3.24817,0.218208,0.270384,5.95747,0.0354242,
2,1,0,1,0,50317,0.0372544,0.0369427,0.574105,26,0.00162793,10,2.1209e-05,-3.24101,0.219072,0.269318,6.04243,0.0369427,
2,1,0,1,0,50317.1,0.0387526,0.0384219,0.584355,26,0.00171679,10,2.2452e-05,-3.23332,0.211995,0.278308,6.37035,0.0384219,
2,1,0,1,0,50317.3,0.0402508,0.0398864,0.595182,26,0.00180732,10,2.37396e-05,-3.22535,0.213582,0.276241,6.40707,0.0398864,
2,1,0,1,0,50317.4,0.041749,0.0414165,0.606401,26,0.00189957,10,2.5115e-05,-3.21724,0.225071,0.262139,6.1791,0.0414165,
2,1,0,1,0,50317.6,0.0432472,0.0429053,0.615481,26,0.00199321,10,2.64074e-05,-3.21079,0.234378,0.25173,6.03184,0.0429053,
2,1,0,1,0,50317.7,0.0447458,0.0444135,0.62334,26,0.00208813,10,2.76847e-05,-3.20527,0.216167,0.272937,6.64829,0.0444135,
2,1,0,1,0,50317.9,0.0462433,0.0459155,0.633153,26,0.00218459,10,2.90715e-05,-3.19849,0.202357,0.291564,7.19264,0.0459155,
2,1,0,1,0,50318,0.0477409,0.0473962,0.643227,26,0.00228251,10,3.04865e-05,-3.19164,0.222327,0.265375,6.67508,0.0473962,
2,1,0,1,0,50318.2,0.0492399,0.0489412,0.651468,26,0.00238192,10,3.18836e-05,-3.18611,0.259761,0.227132,5.77931,0.0489412,
2,1,0,1,0,50318.3,0.0507381,0.0503748,0.656921,26,0.00248242,10,3.30923e-05,-3.18249,0.267803,0.220311,5.69325,0.0503748,
2,1,0,1,0,50318.5,0.0522363,0.0518902,0.669147,26,0.00258421,10,3.47222e-05,-3.17448,0.241033,0.244779,6.39623,0.05189015,
2,1,0,1,0,50318.6,0.0537345,0.053432,0.681108,26,0.00268757,10,3.6393e-05,-3.16678,0.256652,0.229883,6.08417,0.05343198,
2,1,0,1,0,50318.8,0.0552327,0.0548741,0.689168,26,0.00279225,10,3.78175e-05,-3.16168,0.336478,0.175346,4.69432,0.0548741,
2,1,0,1,0,50318.9,0.0567309,0.0563767,0.694097,26,0.0028981,10,3.91309e-05,-3.15858,0.31372,0.188066,5.10076,0.0563767,
2,1,0,1,0,50319.1,0.0582291,0.0579069,0.703567,26,0.00300486,10,4.07414e-05,-3.15269,0.338701,0.174195,4.78021,0.0579069,
2,1,0,1,0,50319.2,0.0597282,0.0593659,0.710844,26,0.00311301,10,4.21999e-05,-3.14823,0.29151,0.202395,5.61764,0.0593659,
2,1,0,1,0,50319.4,0.0612255,0.0608725,0.718299,26,0.00322223,10,4.37247e-05,-3.14369,0.359473,0.164129,4.59448,0.0608725,
2,1,0,1,0,50319.5,0.062723,0.0623927,0.726102,26,0.00333271,10,4.53034e-05,-3.139,0.353434,0.166934,4.72545,0.0623927,
2,1,0,1,0,50319.7,0.0642218,0.0638802,0.731723,26,0.00344415,10,4.67426e-05,-3.13565,0.318308,0.185355,5.30885,0.0638802,
2,1,0,1,0,50319.8,0.06572,0.0653817,0.7403,26,0.00355668,10,4.84021e-05,-3.13059,0.351797,0.167711,4.83853,0.0653817,
2,1,0,1,0,50320,0.0672182,0.0668663,0.748713,26,0.00367058,10,5.00637e-05,-3.12568,0.394289,0.149637,4.35994,0.0668663,
2,1,0,1,0,50320.1,0.0687164,0.0683604,0.753525,26,0.00378529,10,5.15112e-05,-3.1229,0.475637,0.124044,3.64712,0.0683604,
2,1,0,1,0,50320.3,0.0702146,0.0698778,0.759673,26,0.00390078,10,5.30843e-05,-3.11937,0.404305,0.145929,4.32549,0.0698778,
2,1,0,1,0,50320.4,0.0717128,0.0713433,0.766369,26,0.00401725,10,5.46753e-05,-3.11556,0.380796,0.154939,4.62321,0.07134331,
2,1,0,1,0,50320.6,0.073211,0.0729021,0.772352,26,0.0041348,10,5.63061e-05,-3.11218,0.470785,0.125322,3.7791,0.0729021,
2,1,0,1,0,50320.7,0.0747092,0.0743846,0.77783,26,0.00425324,10,5.78585e-05,-3.10912,0.561205,0.105131,3.18938,0.0743846,
2,1,0,1,0,50320.9,0.0762078,0.0758123,0.781114,26,0.00437251,10,5.92181e-05,-3.10729,0.560173,0.105325,3.22295,0.0758123,
2,1,0,1,0,50321,0.0777053,0.0774009,0.787301,26,0.0044923,10,6.09378e-05,-3.10386,0.448734,0.131481,4.04662,0.0774009,
2,1,0,1,0,50321.2,0.0792029,0.0788927,0.795542,26,0.00461308,10,6.27624e-05,-3.09934,0.421839,0.139864,4.33617,0.0788927,
2,1,0,1,0,50321.3,0.0807019,0.0803684,0.799531,26,0.00473489,10,6.4257e-05,-3.09716,0.558852,0.105574,3.29137,0.0803684,
2,1,0,1,0,50321.5,0.0822001,0.0818795,0.80156,26,0.00485739,10,6.56313e-05,-3.09606,0.543557,0.108544,3.41096,0.0818795,
2,1,0,1,0,50321.6,0.0836983,0.0833238,0.810093,26,0.00498045,10,6.75e-05,-3.09147,0.463892,0.127185,4.026,0.0833238,
2,1,0,1,0,50321.8,0.0851965,0.0848539,0.816268,26,0.00510453,10,6.92636e-05,-3.08817,0.441687,0.133579,4.26161,0.0848539,
2,1,0,1,0,50321.9,0.0866947,0.0863534,0.822266,26,0.00522964,10,7.10054e-05,-3.08499,0.491853,0.119954,3.84747,0.0863534,
2,1,0,1,0,50322.1,0.0881929,0.0878464,0.830552,26,0.00535575,10,7.2961e-05,-3.08063,0.397531,0.148416,4.81744,0.0878464,
2,1,0,1,0,50322.2,0.0896911,0.0893395,0.837454,26,0.00548266,10,7.48177e-05,-3.07704,0.334126,0.17658,5.79137,0.0893395,
2,1,0,1,0,50322.4,0.0911902,0.09086,0.847942,26,0.00561119,10,7.7044e-05,-3.07163,0.284781,0.207177,6.85088,0.09086,
2,1,0,1,0,50322.5,0.0926875,0.0923923,0.859301,26,0.00574123,10,7.93928e-05,-3.06585,0.262478,0.224781,7.52136,0.0923923,
2,1,0,1,0,50322.7,0.094185,0.0938552,0.869369,26,0.00587286,10,8.15949e-05,-3.0608,0.283774,0.207912,7.05082,0.0938552,
2,1,0,1,0,50322.8,0.0956838,0.0953668,0.875375,26,0.00600591,10,8.34817e-05,-3.05781,0.25042,0.235604,8.10299,0.0953668,
2,1,0,1,0,50323,0.097182,0.0968684,0.8922,26,0.00614081,10,8.6426e-05,-3.04954,0.207709,0.284052,9.89105,0.0968684,
2,1,0,1,0,50323.1,0.0986802,0.09832,0.90586,26,0.00627777,10,8.90642e-05,-3.04294,0.208211,0.283367,10.0333,0.09832,
2,1,0,1,0,50323.3,0.100178,0.0998046,0.921687,26,0.00641699,10,9.19886e-05,-3.03542,0.221587,0.266261,9.57159,0.09980461,
2,1,0,1,0,50323.4,0.101677,0.101323,0.933987,26,0.00655824,10,9.46345e-05,-3.02966,0.209006,0.282289,10.3201,0.101323,
2,1,0,1,0,50323.6,0.103175,0.10285,0.953807,26,0.00670176,10,9.80991e-05,-3.02054,0.196262,0.300618,11.1719,0.1028501,
2,1,0,1,0,50323.7,0.104673,0.104333,0.971654,26,0.00684793,10,0.000101375,-3.01249,0.199284,0.296059,11.1875,0.104333,
2,1,0,1,0,50323.9,0.106171,0.10586,0.986706,26,0.00699675,10,0.000104452,-3.00581,0.213908,0.27582,10.5884,0.10586,
2,1,0,1,0,50324,0.10767,0.107314,1.00173,26,0.007148,10,0.000107499,-2.99925,0.223412,0.264086,10.3197,0.107314,
2,1,0,1,0,50324.2,0.109167,0.108797,1.01666,26,0.00730133,10,0.00011061,-2.99282,0.227703,0.25911,10.2882,0.108797,
2,1,0,1,0,50324.3,0.110665,0.110333,1.03112,26,0.00745703,10,0.000113767,-2.98669,0.226921,0.260002,10.4652,0.110333,
2,1,0,1,0,50324.5,0.112164,0.111844,1.04707,26,0.00761513,10,0.000117109,-2.98002,0.299791,0.196804,8.023,0.111844,
2,1,0,1,0,50324.6,0.113662,0.113351,1.05876,26,0.00777506,10,0.000120011,-2.9752,0.342424,0.172301,7.10632,0.1133513,
2,1,0,1,0,50324.8,0.11516,0.114846,1.06782,26,0.00793641,10,0.000122635,-2.9715,0.355586,0.165923,6.92025,0.114846,
2,1,0,1,0,50324.9,0.116658,0.116312,1.07979,26,0.0080995,10,0.000125592,-2.96666,0.329609,0.179,7.53094,0.116312,
2,1,0,1,0,50325.1,0.118157,0.117807,1.09057,26,0.00826435,10,0.000128477,-2.96235,0.41264,0.142982,6.07353,0.117807,
2,1,0,1,0,50325.2,0.119655,0.119265,1.0961,26,0.00843045,10,0.000130727,-2.96015,0.571467,0.103243,4.42145,0.119265,
2,1,0,1,0,50325.4,0.121153,0.120808,1.10103,26,0.00859748,10,0.000133013,-2.9582,0.61218,0.0963768,4.1556,0.120808,
2,1,0,1,0,50325.5,0.122652,0.122305,1.10997,26,0.00876561,10,0.000135755,-2.95469,0.520641,0.113322,4.904,0.122305,
2,1,0,1,0,50325.7,0.124149,0.123818,1.11676,26,0.00893471,10,0.000138276,-2.95204,0.649204,0.0908805,3.96201,0.123818,
2,1,0,1,0,50325.8,0.125647,0.12526,1.12231,26,0.00910471,10,0.000140581,-2.94989,0.795898,0.0741301,3.23938,0.12526,
2,1,0,1,0,50326,0.127146,0.126788,1.12231,26,0.00927555,10,0.000142295,-2.94989,0.865554,0.0681644,2.99364,0.126788,
2,1,0,1,0,50326.1,0.128644,0.128301,1.13063,26,0.00944666,10,0.00014506,-2.94668,1.00142,0.0589162,2.59944,0.128301,
2,1,0,1,0,50326.3,0.130142,0.129771,1.13474,26,0.00961859,10,0.000147256,-2.9451,1.77221,0.0332917,1.46946,0.129771,
2,1,0,1,0,50326.4,0.13164,0.131345,1.13413,26,0.00979092,10,0.000148962,-2.94534,-1.97772,-0.0298323,-1.316,0.131345,
2,1,0,1,0,50326.6,0.133139,0.132794,1.13275,26,0.00996314,10,0.000150422,-2.94587,-1.05075,-0.0561502,-2.47922,0.132794,
2,1,0,1,0,50326.7,0.134637,0.134299,1.12646,26,0.0101346,10,0.000151282,-2.94828,-0.526815,-0.111994,-4.91671,0.134299,
2,1,0,1,0,50326.9,0.136135,0.135776,1.11992,26,0.0103052,10,0.000152058,-2.95081,-0.359185,-0.164261,-7.14708,0.135776,
2,1,0,1,0,50327,0.137633,0.137329,1.10707,26,0.0104742,10,0.000152033,-2.95583,-0.229194,-0.257424,-11.0557,0.137329,
2,1,0,1,0,50327.2,0.139132,0.138831,1.08847,26,0.010641,10,0.000151114,-2.96318,-0.176004,-0.335219,-14.1478,0.138831,
2,1,0,1,0,50327.3,0.140629,0.140277,1.06272,26,0.0108042,10,0.000149075,-2.97358,-0.13852,-0.425931,-17.6099,0.1402771,
2,1,0,1,0,50327.5,0.142127,0.141784,1.03659,26,0.0109636,10,0.000146973,-2.98439,-0.120187,-0.490901,-19.7234,0.1417841,
2,1,0,1,0,50327.6,0.143626,0.143264,1.00179,26,0.0111187,10,0.000143521,-2.99922,-0.0984756,-0.599133,-23.3089,0.143264,
2,1,0,1,0,50327.8,0.145124,0.144835,0.964031,26,0.0112683,10,0.000139625,-3.01591,-0.0835661,-0.706028,-26.5361,0.144835,
2,1,0,1,0,50327.9,0.146622,0.146281,0.923186,26,0.0114119,10,0.000135045,-3.03471,-0.0785776,-0.75085,-27.0292,0.146281,
2,1,0,1,0,50328.1,0.14812,0.147787,0.883517,26,0.0115495,10,0.000130572,-3.05379,-0.0755838,-0.78059,-26.87,0.147787,
2,1,0,1,0,50328.2,0.149619,0.149305,0.844268,26,0.0116811,10,0.000126054,-3.07352,-0.0742138,-0.795001,-26.18,0.149305,
2,1,0,1,0,50328.4,0.151117,0.1508,0.806966,26,0.0118067,10,0.00012169,-3.09314,-0.0743509,-0.793534,-24.9666,0.1508,
2,1,0,1,0,50328.5,0.152615,0.152261,0.768321,26,0.0119268,10,0.000116985,-3.11446,-0.0798062,-0.739291,-22.2426,0.152261,
2,1,0,1,0,50328.7,0.154114,0.153759,0.737668,26,0.0120418,10,0.000113423,-3.13214,-0.0885691,-0.666147,-19.2915,0.153759,
2,1,0,1,0,50328.8,0.155612,0.155277,0.710168,26,0.0121524,10,0.000110273,-3.14864,-0.0975417,-0.604869,-16.8241,0.155277,
2,1,0,1,0,50329,0.157109,0.15677,0.686095,26,0.0122593,10,0.000107559,-3.16362,-0.104291,-0.565727,-15.2074,0.1567699,
2,1,0,1,0,50329.1,0.158608,0.158275,0.665552,26,0.0123628,10,0.000105341,-3.17682,-0.118588,-0.497519,-12.9658,0.158275,
2,1,0,1,0,50329.3,0.160106,0.15973,0.647669,26,0.0124633,10,0.000103452,-3.18865,-0.13628,-0.432933,-11.0015,0.1597303,
2,1,0,1,0,50329.4,0.161604,0.161276,0.632982,26,0.0125615,10,0.000102085,-3.19861,-0.158229,-0.372878,-9.23037,0.161276,
2,1,0,1,0,50329.6,0.163102,0.162764,0.62133,26,0.0126576,10,0.00010113,-3.20668,-0.171907,-0.343209,-8.32836,0.162764,
2,1,0,1,0,50329.7,0.164601,0.164269,0.610141,26,0.0127519,10,0.000100227,-3.21457,-0.197672,-0.298474,-7.10079,0.164269,
2,1,0,1,0,50329.9,0.166099,0.165799,0.600309,26,0.0128444,10,9.95306e-05,-3.22163,-0.232106,-0.254194,-5.96318,0.165799,
2,1,0,1,0,50330,0.167597,0.167246,0.590642,26,0.0129357,10,9.87827e-05,-3.22868,-0.318049,-0.185506,-4.28134,0.167246,
2,1,0,1,0,50330.2,0.169095,0.168734,0.585699,26,0.013026,10,9.88275e-05,-3.23233,-0.322463,-0.182967,-4.18463,0.168734,
2,1,0,1,0,50330.3,0.170594,0.170247,0.578289,26,0.0131153,10,9.84518e-05,-3.23785,-0.319639,-0.184583,-4.17381,0.170247,
2,1,0,1,0,50330.5,0.172091,0.171697,0.570806,26,0.0132034,10,9.80054e-05,-3.24351,-0.390273,-0.151176,-3.38712,0.171697,
2,1,0,1,0,50330.6,0.173589,0.173226,0.566435,26,0.0132907,10,9.81214e-05,-3.24685,-0.510614,-0.115547,-2.55659,0.173226,
2,1,0,1,0,50330.8,0.175088,0.174746,0.563987,26,0.0133776,10,9.85543e-05,-3.24873,-0.55864,-0.105614,-2.32105,0.174746,
2,1,0,1,0,50330.9,0.176586,0.176251,0.558637,26,0.0134637,10,9.84605e-05,-3.25287,-0.448088,-0.131671,-2.86897,0.176251,
2,1,0,1,0,50331.1,0.178084,0.177752,0.553961,26,0.0135492,10,9.84676e-05,-3.25652,-0.49213,-0.119887,-2.60009,0.1777519,
2,1,0,1,0,50331.2,0.179582,0.179252,0.551417,26,0.0136341,10,9.88428e-05,-3.25852,-0.745341,-0.0791584,-1.7094,0.179252,
2,1,0,1,0,50331.4,0.181081,0.180738,0.549977,26,0.0137187,10,9.94017e-05,-3.25966,-0.810038,-0.0728361,-1.5628,0.180738,
2,1,0,1,0,50331.5,0.182579,0.182253,0.547091,26,0.0138029,10,9.97092e-05,-3.26194,-0.628476,-0.0938779,-2.00121,0.182253,
2,1,0,1,0,50331.7,0.184077,0.183729,0.545928,26,0.0138868,10,0.000100303,-3.26286,-0.779568,-0.075683,-1.61114,0.183729,
2,1,0,1,0,50331.8,0.185576,0.185264,0.542236,26,0.0139702,10,0.000100457,-3.26581,-0.794259,-0.0742831,-1.57094,0.185264,
2,1,0,1,0,50332,0.187074,0.186717,0.542184,26,0.0140534,10,0.000101235,-3.26585,-1.53357,-0.0384724,-0.810773,0.186717,
2,1,0,1,0,50332.1,0.188571,0.188192,0.538911,26,0.0141363,10,0.000101419,-3.26848,-1.68374,-0.035041,-0.735996,0.188192,
2,1,0,1,0,50332.3,0.19007,0.189728,0.537954,26,0.014219,10,0.000102065,-3.26925,-1.20205,-0.0490827,-1.03093,0.189728,
2,1,0,1,0,50332.4,0.191568,0.191225,0.532898,26,0.0143012,10,0.000101904,-3.27336,-1.1467,-0.051452,-1.07462,0.191225,
2,1,0,1,0,50332.6,0.193066,0.19272,0.533475,26,0.0143833,10,0.000102811,-3.27289,-2.88975,-0.020417,-0.425239,0.19272,
2,1,0,1,0,50332.7,0.194564,0.194204,0.531994,26,0.0144653,10,0.000103315,-3.27409,-1.03677,-0.0569074,-1.18341,0.194204,
2,1,0,1,0,50332.9,0.196063,0.195724,0.530592,26,0.0145471,10,0.00010385,-3.27524,-0.777312,-0.0759026,-1.57585,0.195724,
2,1,0,1,0,50333,0.197561,0.197236,0.526558,26,0.0146285,10,0.000103856,-3.27855,-1.30581,-0.0451827,-0.933537,0.197236,
2,1,0,1,0,50333.2,0.199059,0.198711,0.527984,26,0.0147096,10,0.000104916,-3.27738,-1.96273,-0.0300602,-0.619979,0.198711,
2,1,0,1,0,50333.3,0.200557,0.200233,0.527745,26,0.0147907,10,0.000105672,-3.27758,-1.94124,-0.030393,-0.625145,0.200233,
2,1,0,1,0,50333.5,0.202056,0.201744,0.525534,26,0.0148717,10,0.000106023,-3.2794,-1.71863,-0.0343297,-0.70395,0.201744,
2,1,0,1,0,50333.6,0.203553,0.203208,0.524056,26,0.0149524,10,0.000106492,-3.28062,-2.35002,-0.0251062,-0.514688,0.203208,
2,1,0,1,0,50333.8,0.205051,0.204713,0.524117,26,0.0150328,10,0.000107294,-3.28057,2.92368,0.02018,0.414345,0.204713,
2,1,0,1,0,50333.9,0.20655,0.206201,0.521977,26,0.0151132,10,0.000107632,-3.28235,-2.06337,-0.028594,-0.582557,0.2062005,
2,1,0,1,0,50334.1,0.208048,0.20773,0.522038,26,0.0151937,10,0.000108443,-3.2823,-1.6016,-0.0368382,-0.748815,0.20773,
2,1,0,1,0,50334.2,0.209546,0.209195,0.519438,26,0.0152739,10,0.000108664,-3.28447,-1.12759,-0.0523238,-1.06483,0.209195,
2,1,0,1,0,50334.4,0.211044,0.210689,0.520304,26,0.0153538,10,0.000109622,-3.28374,-1.66699,-0.0353931,-0.717978,0.2106892,
2,1,0,1,0,50334.5,0.212543,0.212226,0.520345,26,0.0154337,10,0.000110431,-3.28371,-2.73536,-0.0215693,-0.436029,0.212226,
2,1,0,1,0,50334.7,0.214041,0.2137,0.51915,26,0.0155134,10,0.000110942,-3.28471,-1.95614,-0.0301615,-0.609832,0.2137,
2,1,0,1,0,50334.8,0.215539,0.215177,0.517115,26,0.015593,10,0.000111271,-3.28641,-1.48692,-0.0396794,-0.801943,0.215177,
2,1,0,1,0,50335,0.217038,0.216687,0.514607,26,0.0156724,10,0.000111509,-3.28852,-3.23777,-0.0182224,-0.367908,0.216687,
2,1,0,1,0,50335.1,0.218535,0.218184,0.51612,26,0.0157518,10,0.000112609,-3.28725,6.50035,0.00907643,0.182485,0.218184,
2,1,0,1,0,50335.3,0.220033,0.219685,0.516352,26,0.0158311,10,0.000113435,-3.28705,9.69305,0.00608684,0.122539,0.219685,
2,1,0,1,0,50335.4,0.221532,0.22122,0.514963,26,0.0159104,10,0.00011392,-3.28822,-1.33055,-0.0443424,-0.891663,0.22122,
2,1,0,1,0,50335.6,0.22303,0.222716,0.5119,26,0.0159895,10,0.000114009,-3.29081,-3.9451,-0.0149553,-0.29943,0.222716,
2,1,0,1,0,50335.7,0.224528,0.224213,0.511735,26,0.0160684,10,0.000114737,-3.29095,-2.19278,-0.0269065,-0.538565,0.224213,
2,1,0,1,0,50335.9,0.226026,0.225715,0.513449,26,0.0161472,10,0.000115893,-3.2895,-15.6946,-0.00375925,-0.0752385,0.225715,
2,1,0,1,0,50336,0.227524,0.227168,0.511971,26,0.016226,10,0.000116303,-3.29075,-1.00709,-0.0585848,-1.16781,0.227168,
2,1,0,1,0,50336.2,0.229023,0.228676,0.51112,26,0.0163047,10,0.000116881,-3.29148,-1.29373,-0.0456047,-0.911381,0.228676,
2,1,0,1,0,50336.3,0.230521,0.230144,0.509453,26,0.0163831,10,0.000117248,-3.2929,-2.0656,-0.0285631,-0.56913,0.230144,
2,1,0,1,0,50336.5,0.232019,0.231702,0.510273,26,0.0164615,10,0.000118231,-3.2922,-11.9677,-0.00492995,-0.0981121,0.231702,
2,1,0,1,0,50336.6,0.233518,0.233155,0.508528,26,0.0165399,10,0.000118566,-3.29369,-1.6958,-0.0347919,-0.69017,0.233155,
2,1,0,1,0,50336.8,0.235015,0.234703,0.509442,26,0.0166181,10,0.000119567,-3.29291,-1.11307,-0.0530067,-1.05146,0.234703,
2,1,0,1,0,50336.9,0.236513,0.236168,0.506845,26,0.0166961,10,0.000119701,-3.29512,-2.98321,-0.0197774,-0.391851,0.236168,
2,1,0,1,0,50337.1,0.238012,0.237633,0.506191,26,0.0167741,10,0.000120288,-3.29569,-28.3441,-0.00208156,-0.0410417,0.237633,
2,1,0,1,0,50337.2,0.23951,0.23919,0.506285,26,0.0168521,10,0.000121098,-3.29561,-1.19565,-0.0493456,-0.973941,0.23919,
2,1,0,1,0,50337.4,0.241008,0.240685,0.504992,26,0.0169299,10,0.000121544,-3.29672,-1.18257,-0.0498914,-0.985309,0.240685,
2,1,0,1,0,50337.5,0.242506,0.242132,0.502793,26,0.0170075,10,0.000121742,-3.29861,-5.54808,-0.0106343,-0.209822,0.242132,
2,1,0,1,0,50337.7,0.244005,0.243654,0.503482,26,0.0170851,10,0.000122675,-3.29802,226.185,0.000260849,0.00513405,0.243654,
2,1,0,1,0,50337.8,0.245503,0.245193,0.505066,26,0.0171627,10,0.000123838,-3.29665,-1.69367,-0.0348355,-0.683863,0.245193,
2,1,0,1,0,50338,0.247001,0.246709,0.504185,26,0.0172401,10,0.000124387,-3.29741,-1.08067,-0.0545957,-1.07004,0.246709,
2,1,0,1,0,50338.1,0.2485,0.248167,0.500703,26,0.0173175,10,0.000124258,-3.30042,-2.26284,-0.0260734,-0.509254,0.248167,
2,1,0,1,0,50338.3,0.249997,0.249657,0.502558,26,0.0173945,10,0.000125467,-3.29881,-5.488,-0.0107507,-0.210313,0.249657,
2,1,0,1,0,50338.4,0.251495,0.251184,0.500785,26,0.0174716,10,0.000125789,-3.30035,-4.71952,-0.0125013,-0.243868,0.251184,
2,1,0,1,0,50338.6,0.252994,0.252677,0.50039,26,0.0175487,10,0.000126437,-3.30069,-1.35181,-0.0436453,-0.850623,0.252677,
2,1,0,1,0,50338.7,0.254492,0.254198,0.499657,26,0.0176257,10,0.000127012,-3.30133,-1.80355,-0.0327132,-0.636758,0.254198,
2,1,0,1,0,50338.9,0.25599,0.255642,0.498335,26,0.0177024,10,0.000127395,-3.30248,-2.26333,-0.0260678,-0.508832,0.255642,
2,1,0,1,0,50339,0.257488,0.257141,0.498417,26,0.0177791,10,0.000128164,-3.30241,-12.0138,-0.00491102,-0.0954061,0.257141,
2,1,0,1,0,50339.2,0.258987,0.258694,0.499056,26,0.0178558,10,0.000129103,-3.30185,-4.13219,-0.0142781,-0.27694,0.258694,
2,1,0,1,0,50339.3,0.260485,0.260181,0.496197,26,0.0179324,10,0.000129101,-3.30435,-1.87713,-0.031431,-0.610005,0.260181,
2,1,0,1,0,50339.5,0.261983,0.261584,0.495611,26,0.0180087,10,0.000129644,-3.30486,-1.24828,-0.047265,-0.915827,0.261584,
2,1,0,1,0,50339.6,0.263481,0.263117,0.494746,26,0.0180849,10,0.000130176,-3.30562,5.38833,0.0109496,0.211073,0.263117,
2,1,0,1,0,50339.8,0.26498,0.264638,0.494979,26,0.0181612,10,0.00013099,-3.30541,-2.29006,-0.0257635,-0.497705,0.264638,
2,1,0,1,0,50339.9,0.266477,0.266139,0.49367,26,0.0182374,10,0.000131385,-3.30656,-1.36814,-0.0431244,-0.832677,0.266139,
2,1,0,1,0,50340.1,0.267976,0.267633,0.491323,26,0.0183133,10,0.000131494,-3.30863,-4.26012,-0.0138494,-0.266842,0.267633,
2,1,0,1,0,50340.2,0.269474,0.269152,0.491783,26,0.0183891,10,0.000132364,-3.30823,-2.93877,-0.0200764,-0.385024,0.269152,
2,1,0,1,0,50340.4,0.270972,0.270612,0.493246,26,0.0184649,10,0.000133478,-3.30694,-2.19985,-0.02682,-0.513767,0.2706117,
2,1,0,1,0,50340.5,0.27247,0.272149,0.491162,26,0.0185407,10,0.000133669,-3.30878,-1.09947,-0.0536622,-1.025,0.272149,
2,1,0,1,0,50340.7,0.273968,0.273667,0.488252,26,0.0186162,10,0.000133618,-3.31136,-1.47295,-0.0400557,-0.766666,0.273667,
2,1,0,1,0,50340.8,0.275467,0.27513,0.490735,26,0.0186915,10,0.000135016,-3.30915,-1.57307,-0.0375062,-0.716661,0.27513,
2,1,0,1,0,50341,0.276965,0.276657,0.488008,26,0.0187668,10,0.000135011,-3.31157,-2.43883,-0.024192,-0.461311,0.276657,
2,1,0,1,0,50341.1,0.278463,0.278101,0.48751,26,0.0188421,10,0.000135577,-3.31202,-0.953199,-0.0618968,-1.17815,0.278101,
2,1,0,1,0,50341.3,0.279962,0.279649,0.487063,26,0.0189172,10,0.000136207,-3.31242,-1.64662,-0.0358309,-0.681282,0.279649,
2,1,0,1,0,50341.4,0.281459,0.281108,0.486894,26,0.018992,10,0.00013687,-3.31257,-2.74478,-0.0214953,-0.408297,0.281108,
2,1,0,1,0,50341.6,0.282957,0.282618,0.486152,26,0.0190668,10,0.000137395,-3.31323,13.555,0.00435264,0.0824052,0.282618,
2,1,0,1,0,50341.7,0.284456,0.284136,0.485205,26,0.0191417,10,0.000137864,-3.31408,-2.27204,-0.0259679,-0.490954,0.284136,
2,1,0,1,0,50341.9,0.285954,0.285621,0.485155,26,0.0192162,10,0.00013857,-3.31412,-3.33142,-0.0177102,-0.334746,0.285621,
2,1,0,1,0,50342,0.287452,0.287148,0.482678,26,0.0192906,10,0.0001386,-3.31634,-1.89414,-0.0311487,-0.58728,0.287148,
2,1,0,1,0,50342.2,0.28895,0.288615,0.482236,26,0.0193649,10,0.000139181,-3.31674,5.5187,0.0106909,0.200732,0.288615,
2,1,0,1,0,50342.3,0.290449,0.290097,0.480405,26,0.0194391,10,0.000139364,-3.31839,-1.64994,-0.0357589,-0.672218,0.290097,
2,1,0,1,0,50342.5,0.291947,0.291602,0.48082,26,0.0195132,10,0.000140208,-3.31802,-2.47123,-0.0238747,-0.448263,0.291602,
2,1,0,1,0,50342.6,0.293445,0.293147,0.47883,26,0.0195871,10,0.000140368,-3.31982,-2.33321,-0.0252871,-0.473927,0.293147,
2,1,0,1,0,50342.8,0.294943,0.294608,0.479847,26,0.0196609,10,0.000141367,-3.3189,-7.5895,-0.00777389,-0.145394,0.294608,
2,1,0,1,0,50342.9,0.296442,0.296093,0.480251,26,0.0197347,10,0.000142199,-3.31853,-1.45909,-0.0404363,-0.753722,0.296093,
2,1,0,1,0,50343.1,0.297939,0.297634,0.476938,26,0.0198084,10,0.000141953,-3.32154,-3.92412,-0.0150352,-0.279586,0.297634,
2,1,0,1,0,50343.2,0.299437,0.299101,0.475093,26,0.0198818,10,0.000142101,-3.32322,-0.00292396,-20.1781,-203.29,0.299101,
2,1,0,1,0,50343.3,0.299738,0.299397,0.271221,26,0.0199179,10,8.12026e-05,-3.56668,0.000440855,133.831,398.744,0.2993969,
2,1,0,1,0,50343.5,0.29824,0.297945,0.0215113,26,0.0199313,10,6.40917e-06,-4.66733,0.00336586,17.529,137.472,0.297945,
2,0,0,1,0,50343.6,0.296741,0.296443,-0.0271455,26,0.0199284,10,-8.04711e-06,-4.5663,-0.105087,-0.561439,28.2691,0.296443,
2,0,0,1,0,50343.8,0.295243,0.294869,-0.0529107,26,0.0199202,10,-1.56017e-05,-4.27646,-0.00563423,-10.4717,14.7068,0.294869,
2,0,0,1,0,50343.9,0.293745,0.293381,-0.0706578,26,0.0199089,10,-2.07296e-05,-4.15084,-0.0133528,-4.41853,11.1942,0.2933808,
2,0,0,1,0,50344.1,0.292246,0.291933,-0.0847388,26,0.0198953,10,-2.47381e-05,-4.07192,-0.0198928,-2.96589,9.35491,0.291933,
2,0,0,1,0,50344.2,0.290748,0.290425,-0.0979512,26,0.0198796,10,-2.84475e-05,-4.00899,-0.0269713,-2.18751,8.1203,0.290425,
2,0,0,1,0,50344.4,0.28925,0.288909,-0.10826,26,0.0198621,10,-3.12774e-05,-3.96553,-0.0340603,-1.73222,7.20643,0.288909,
2,0,0,1,0,50344.5,0.287752,0.287439,-0.119117,26,0.019843,10,-3.42389e-05,-3.92403,-0.0462005,-1.27704,5.91194,0.287439,
2,0,0,1,0,50344.7,0.286253,0.285913,-0.125637,26,0.0198227,10,-3.59212e-05,-3.90088,-0.0466242,-1.26544,6.20452,0.285913,
2,0,0,1,0,50344.8,0.284755,0.284439,-0.136206,26,0.019801,10,-3.87423e-05,-3.8658,-0.0538642,-1.09535,5.74281,0.284439,
2,0,0,1,0,50345,0.283258,0.282914,-0.142775,26,0.0197781,10,-4.03932e-05,-3.84535,-0.0643089,-0.917447,5.09698,0.282914,
2,0,0,1,0,50345.1,0.281759,0.281418,-0.149738,26,0.0197542,10,-4.21389e-05,-3.82467,-0.0845395,-0.697899,4.08059,0.281418,
2,0,0,1,0,50345.3,0.280261,0.279917,-0.154269,26,0.0197292,10,-4.31826e-05,-3.81172,-0.0788835,-0.747938,4.54077,0.279917,
2,0,0,1,0,50345.4,0.278763,0.278398,-0.162918,26,0.0197033,10,-4.5356e-05,-3.78803,-0.0853435,-0.691324,4.38054,0.278398,
2,0,0,1,0,50345.5,0.277264,0.276916,-0.169028,26,0.0196764,10,-4.68065e-05,-3.77204,-0.0921829,-0.640032,4.21087,0.276916,
2,0,0,1,0,50345.7,0.275766,0.275457,-0.174673,26,0.0196485,10,-4.81147e-05,-3.75778,-0.118635,-0.497324,3.37411,0.275457,
2,0,0,1,0,50345.8,0.274268,0.273956,-0.17994,26,0.0196198,10,-4.92958e-05,-3.74487,-0.120314,-0.490382,3.43881,0.273956,
2,0,0,1,0,50346,0.27277,0.272436,-0.186734,26,0.0195905,10,-5.08729e-05,-3.72878,-0.116279,-0.507402,3.69243,0.272436,
2,0,0,1,0,50346.1,0.271272,0.270931,-0.191292,26,0.0195602,10,-5.18269e-05,-3.7183,-0.11577,-0.50963,3.77172,0.270931,
2,0,0,1,0,50346.3,0.269773,0.26942,-0.197887,26,0.019529,10,-5.33146e-05,-3.70358,-0.133058,-0.443416,3.38069,0.26942,
2,0,0,1,0,50346.4,0.268275,0.26794,-0.20156,26,0.0194971,10,-5.4006e-05,-3.6956,-0.138733,-0.425277,3.31995,0.26794,
2,0,0,1,0,50346.6,0.266778,0.266422,-0.206748,26,0.0194646,10,-5.50822e-05,-3.68456,-0.14911,-0.395681,3.17854,0.266422,
2,0,0,1,0,50346.7,0.265279,0.264937,-0.211798,26,0.0194312,10,-5.61132e-05,-3.67408,-0.134186,-0.439689,3.60374,0.264937,
2,0,0,1,0,50346.9,0.263781,0.263473,-0.214177,26,0.0193972,10,-5.64299e-05,-3.66923,-0.148156,-0.398229,3.33608,0.263473,
2,0,0,1,0,50347,0.262283,0.261959,-0.219304,26,0.0193625,10,-5.74485e-05,-3.65895,-0.20182,-0.292339,2.50755,0.261959,
2,0,0,1,0,50347.2,0.260784,0.260516,-0.222083,26,0.0193272,10,-5.78562e-05,-3.65348,-0.19317,-0.30543,2.67401,0.260516,
2,0,0,1,0,50347.3,0.259286,0.258957,-0.228506,26,0.0192913,10,-5.91731e-05,-3.6411,-0.187512,-0.314647,2.79504,0.258957,
2,0,0,1,0,50347.5,0.257788,0.257444,-0.234492,26,0.0192547,10,-6.03684e-05,-3.62987,-0.182965,-0.322467,2.93391,0.257444,
2,0,0,1,0,50347.6,0.25629,0.255939,-0.236689,26,0.0192174,10,-6.05778e-05,-3.62582,-0.238223,-0.247667,2.27329,0.255939,
2,0,0,1,0,50347.8,0.254791,0.254428,-0.239825,26,0.0191796,10,-6.10181e-05,-3.62011,-0.194217,-0.303784,2.84484,0.254428,
2,0,0,1,0,50347.9,0.253293,0.252929,-0.244124,26,0.0191413,10,-6.17461e-05,-3.61239,-0.206098,-0.286272,2.73502,0.252929,
2,0,0,1,0,50348.1,0.251796,0.251444,-0.247357,26,0.0191024,10,-6.21964e-05,-3.60668,-0.229969,-0.256557,2.48724,0.251444,
2,0,0,1,0,50348.2,0.250297,0.249951,-0.251706,26,0.0190629,10,-6.29141e-05,-3.59911,-0.247592,-0.238295,2.32948,0.249951,
2,0,0,1,0,50348.4,0.248799,0.248426,-0.255475,26,0.0190229,10,-6.34666e-05,-3.59265,-0.254026,-0.23226,2.31336,0.248426,
2,0,0,1,0,50348.5,0.247301,0.246951,-0.258608,26,0.0189825,10,-6.38635e-05,-3.58736,-0.236818,-0.249136,2.50788,0.246951,
2,0,0,1,0,50348.7,0.245802,0.245489,-0.262819,26,0.0189414,10,-6.4519e-05,-3.58034,-0.227311,-0.259556,2.64327,0.245489,
2,0,0,1,0,50348.8,0.244304,0.243976,-0.265764,26,0.0188998,10,-6.484e-05,-3.5755,-0.26797,-0.220174,2.27318,0.2439764,
2,0,0,1,0,50349,0.242806,0.242456,-0.268025,26,0.0188578,10,-6.49842e-05,-3.57182,-0.318948,-0.184983,1.94119,0.242456,
2,0,0,1,0,50349.1,0.241308,0.240984,-0.272309,26,0.0188154,10,-6.56222e-05,-3.56494,-0.327184,-0.180327,1.91125,0.240984,
2,0,0,1,0,50349.3,0.23981,0.239479,-0.274094,26,0.0187725,10,-6.56398e-05,-3.5621,-0.214798,-0.274677,2.93371,0.239479,
2,0,0,1,0,50349.4,0.238311,0.237958,-0.278858,26,0.018729,10,-6.63566e-05,-3.55462,-0.246227,-0.239616,2.59113,0.237958,
2,0,0,1,0,50349.6,0.236814,0.236448,-0.280498,26,0.0186852,10,-6.63231e-05,-3.55207,-0.305532,-0.193106,2.11757,0.236448,
2,0,0,1,0,50349.7,0.235316,0.234975,-0.281787,26,0.0186409,10,-6.6213e-05,-3.55008,-0.32703,-0.180411,1.99619,0.234975,
2,0,0,1,0,50349.9,0.233817,0.233477,-0.287262,26,0.0185962,10,-6.70692e-05,-3.54172,-0.409513,-0.144073,1.60921,0.233477,
2,0,0,1,0,50350,0.232319,0.231965,-0.290704,26,0.0185509,10,-6.74333e-05,-3.53655,-0.33449,-0.176388,1.99382,0.231965,
2,0,0,1,0,50350.2,0.230821,0.230481,-0.292288,26,0.0185052,10,-6.73668e-05,-3.53419,-0.463532,-0.127284,1.44962,0.230481,
2,0,0,1,0,50350.3,0.229322,0.228984,-0.293098,26,0.0184591,10,-6.71149e-05,-3.53299,-0.367835,-0.160398,1.84956,0.228984,
2,0,0,1,0,50350.5,0.227824,0.227493,-0.297824,26,0.0184127,10,-6.77531e-05,-3.52604,-0.317923,-0.18558,2.1624,0.227493,
2,0,0,1,0,50350.6,0.226326,0.225972,-0.300854,26,0.0183656,10,-6.79846e-05,-3.52164,-0.391609,-0.150661,1.77352,0.225972,
2,0,0,1,0,50350.8,0.224828,0.224503,-0.302712,26,0.0183182,10,-6.79598e-05,-3.51897,-0.381568,-0.154625,1.83159,0.2245031,
2,0,0,1,0,50350.9,0.223329,0.223024,-0.308231,26,0.0182702,10,-6.87429e-05,-3.51112,-0.352047,-0.167591,2.00843,0.223024,
2,0,0,1,0,50351.1,0.221831,0.221528,-0.310008,26,0.018222,10,-6.86756e-05,-3.50863,-0.423109,-0.139444,1.68818,0.221528,
2,0,0,1,0,50351.2,0.220334,0.219982,-0.312956,26,0.0181732,10,-6.88447e-05,-3.50452,-0.285283,-0.206812,2.52127,0.219982,
2,0,0,1,0,50351.4,0.218835,0.218497,-0.315421,26,0.0181239,10,-6.89186e-05,-3.50111,-0.317512,-0.18582,2.29008,0.218497,
2,0,0,1,0,50351.5,0.217337,0.217017,-0.318878,26,0.0180741,10,-6.92018e-05,-3.49638,-0.526436,-0.112074,1.39224,0.217017,
2,0,0,1,0,50351.7,0.215839,0.215513,-0.320353,26,0.0180241,10,-6.90403e-05,-3.49437,-0.319775,-0.184504,2.3182,0.215513,
2,0,0,1,0,50351.8,0.21434,0.214033,-0.324691,26,0.0179736,10,-6.94944e-05,-3.48853,-0.35372,-0.166799,2.1028,0.214033,
2,0,0,1,0,50352,0.212842,0.212512,-0.325901,26,0.0179226,10,-6.92579e-05,-3.48691,-0.441138,-0.133745,1.70722,0.212512,
2,0,0,1,0,50352.1,0.211344,0.211001,-0.330321,26,0.0178712,10,-6.9698e-05,-3.48106,-0.464407,-0.127044,1.64054,0.211001,
2,0,0,1,0,50352.3,0.209846,0.209569,-0.33159,26,0.0178194,10,-6.94911e-05,-3.4794,-0.375475,-0.157134,2.0434,0.209569,
2,0,0,1,0,50352.4,0.208348,0.207974,-0.337143,26,0.0177671,10,-7.01169e-05,-3.47219,-0.314694,-0.187484,2.46335,0.207974,
2,0,0,1,0,50352.6,0.206849,0.206494,-0.343002,26,0.0177142,10,-7.08281e-05,-3.4647,-0.357568,-0.165004,2.18326,0.206494,
2,0,0,1,0,50352.7,0.205352,0.205027,-0.343017,26,0.0176607,10,-7.03276e-05,-3.46468,-0.44722,-0.131926,1.76039,0.205027,
2,0,0,1,0,50352.9,0.203854,0.203517,-0.34421,26,0.017607,10,-7.00527e-05,-3.46318,-0.433837,-0.135996,1.83753,0.203517,
2,0,0,1,0,50353,0.202355,0.201986,-0.347767,26,0.0175529,10,-7.02443e-05,-3.45871,-0.349397,-0.168862,2.30275,0.201986,
2,0,0,1,0,50353.2,0.200857,0.200514,-0.350868,26,0.0174983,10,-7.03538e-05,-3.45486,-0.337419,-0.174857,2.39703,0.200514,
2,0,0,1,0,50353.3,0.199359,0.19898,-0.354711,26,0.0174432,10,-7.05804e-05,-3.45013,-0.504795,-0.116879,1.61757,0.1989802,
2,0,0,1,0,50353.5,0.19786,0.197533,-0.357178,26,0.0173877,10,-7.05544e-05,-3.44711,-0.382266,-0.154343,2.15174,0.197533,
2,0,0,1,0,50353.6,0.196362,0.196006,-0.362364,26,0.0173318,10,-7.10254e-05,-3.44086,-0.427124,-0.138133,1.94424,0.196006,
2,0,0,1,0,50353.8,0.194864,0.194489,-0.363459,26,0.0172754,10,-7.06889e-05,-3.43954,-0.353179,-0.167054,2.36894,0.194489,
2,0,0,1,0,50353.9,0.193366,0.193021,-0.36926,26,0.0172183,10,-7.12748e-05,-3.43267,-0.359859,-0.163953,2.35848,0.1930207,
2,0,0,1,0,50354.1,0.191867,0.191511,-0.371521,26,0.0171608,10,-7.11504e-05,-3.43002,-0.642024,-0.0918969,1.33448,0.191511,
2,0,0,1,0,50354.2,0.190369,0.190028,-0.372675,26,0.017103,10,-7.08187e-05,-3.42867,-0.382293,-0.154332,2.25881,0.190028,
2,0,0,1,0,50354.4,0.188872,0.188545,-0.377084,26,0.0170446,10,-7.10973e-05,-3.42356,-0.283607,-0.208034,3.06259,0.188545,
2,0,0,1,0,50354.5,0.187373,0.187006,-0.382016,26,0.0169856,10,-7.14393e-05,-3.41792,-0.343495,-0.171764,2.55389,0.187006,
2,0,0,1,0,50354.7,0.185875,0.185494,-0.384896,26,0.016926,10,-7.13958e-05,-3.41466,-0.444311,-0.13279,1.9867,0.185494,
2,0,0,1,0,50354.8,0.184377,0.184033,-0.386056,26,0.0168661,10,-7.10469e-05,-3.41335,-0.416654,-0.141604,2.14449,0.184033,
2,0,0,1,0,50355,0.182878,0.182569,-0.390838,26,0.0168057,10,-7.1355e-05,-3.408,-0.339692,-0.173687,2.6526,0.182569,
2,0,0,1,0,50355.1,0.18138,0.181008,-0.397033,26,0.0167446,10,-7.18664e-05,-3.40117,-0.353892,-0.166717,2.57165,0.181008,
2,0,0,1,0,50355.3,0.179882,0.17955,-0.39799,26,0.0166828,10,-7.14593e-05,-3.40013,-0.68483,-0.0861527,1.33905,0.17955,
2,0,0,1,0,50355.4,0.178384,0.178088,-0.403467,26,0.0166205,10,-7.18527e-05,-3.39419,-0.409881,-0.143944,2.27036,0.178088,
2,0,0,1,0,50355.6,0.176886,0.176595,-0.407696,26,0.0165577,10,-7.1997e-05,-3.38966,-0.320773,-0.183931,2.92647,0.176595,
2,0,0,1,0,50355.7,0.175387,0.175054,-0.412613,26,0.0164942,10,-7.22295e-05,-3.38446,-0.318192,-0.185423,2.98148,0.175054,
2,0,0,1,0,50355.9,0.17389,0.17353,-0.416592,26,0.01643,10,-7.22914e-05,-3.38029,-0.314925,-0.187346,3.03752,0.17353,
2,0,0,1,0,50356,0.172392,0.172046,-0.421159,26,0.0163651,10,-7.24586e-05,-3.37555,-0.305281,-0.193265,3.18027,0.172046,
2,0,0,1,0,50356.2,0.170893,0.170537,-0.426152,26,0.0162995,10,-7.26747e-05,-3.37043,-0.277071,-0.212942,3.53811,0.170537,
2,0,0,1,0,50356.3,0.169395,0.169059,-0.430849,26,0.0162331,10,-7.28388e-05,-3.36567,-0.221568,-0.266284,4.47557,0.1690587,
2,0,0,1,0,50356.5,0.167897,0.167564,-0.438116,26,0.0161657,10,-7.34123e-05,-3.35841,-0.262318,-0.224918,3.8432,0.167564,
2,0,0,1,0,50356.6,0.166398,0.166031,-0.442377,26,0.0160976,10,-7.34484e-05,-3.35421,-0.274471,-0.214959,3.72589,0.166031,
2,0,0,1,0,50356.8,0.1649,0.164575,-0.447554,26,0.0160286,10,-7.36563e-05,-3.34915,-0.245207,-0.240613,4.22142,0.164575,
2,0,0,1,0,50356.9,0.163402,0.163092,-0.45599,26,0.0159587,10,-7.43682e-05,-3.34104,-0.229807,-0.256738,4.57042,0.163092,
2,0,0,1,0,50357.1,0.161904,0.161553,-0.464518,26,0.0158876,10,-7.50443e-05,-3.333,-0.205161,-0.287579,5.19711,0.161553,
2,0,0,1,0,50357.2,0.160405,0.160068,-0.472302,26,0.0158152,10,-7.56004e-05,-3.32578,-0.211805,-0.278558,5.12102,0.160068,
2,0,0,1,0,50357.4,0.158907,0.15857,-0.478664,26,0.0157418,10,-7.59017e-05,-3.31997,-0.181135,-0.325724,6.11129,0.15857,
2,0,0,1,0,50357.5,0.15741,0.157083,-0.488171,26,0.0156672,10,-7.66833e-05,-3.31143,-0.166733,-0.353859,6.78224,0.1570828,
2,0,0,1,0,50357.7,0.155911,0.155557,-0.499596,26,0.0155909,10,-7.77155e-05,-3.30138,-0.162994,-0.361975,7.07333,0.155557,
2,0,0,1,0,50357.8,0.154413,0.154051,-0.508713,26,0.0155129,10,-7.83676e-05,-3.29353,-0.156231,-0.377646,7.51751,0.154051,
2,0,0,1,0,50358,0.152915,0.152569,-0.522488,26,0.0154333,10,-7.97156e-05,-3.28192,-0.154402,-0.38212,7.80648,0.152569,
2,0,0,1,0,50358.1,0.151417,0.151075,-0.533916,26,0.015352,10,-8.06615e-05,-3.27253,-0.131666,-0.448104,9.39876,0.151075,
2,0,0,1,0,50358.3,0.149918,0.149583,-0.55088,26,0.0152685,10,-8.24024e-05,-3.25894,-0.116188,-0.5078,10.9159,0.149583,
2,0,0,1,0,50358.4,0.14842,0.1481,-0.567543,26,0.0151824,10,-8.4053e-05,-3.246,-0.111908,-0.52722,11.7061,0.1481,
2,0,0,1,0,50358.6,0.146922,0.146592,-0.586995,26,0.0150936,10,-8.60487e-05,-3.23137,-0.103161,-0.571919,13.1228,0.146592,
2,0,0,1,0,50358.7,0.145424,0.145084,-0.606953,26,0.015002,10,-8.80592e-05,-3.21684,-0.0963875,-0.612112,14.5495,0.145084,
2,0,0,1,0,50358.9,0.143925,0.143564,-0.629516,26,0.014907,10,-9.03759e-05,-3.20099,-0.0880588,-0.670007,16.5041,0.143564,
2,0,0,1,0,50359,0.142428,0.142138,-0.657197,26,0.0148084,10,-9.34129e-05,-3.1823,-0.0854047,-0.690828,17.7076,0.142138,
2,0,0,1,0,50359.2,0.14093,0.140583,-0.680787,26,0.0147059,10,-9.57072e-05,-3.16699,-0.0864539,-0.682445,18.2258,0.140583,
2,0,0,1,0,50359.3,0.139431,0.139123,-0.706981,26,0.0145991,10,-9.83576e-05,-3.15059,-0.080037,-0.737159,20.4939,0.139123,
2,0,0,1,0,50359.5,0.137933,0.137642,-0.743026,26,0.014488,10,-0.000102272,-3.129,-0.0812325,-0.72631,21.0447,0.137642,
2,0,0,1,0,50359.6,0.136435,0.136104,-0.774813,26,0.0143721,10,-0.000105455,-3.1108,-0.0835761,-0.705943,21.3334,0.136104,
2,0,0,1,0,50359.8,0.134936,0.134572,-0.807412,26,0.0142512,10,-0.000108655,-3.0929,-0.0884737,-0.666865,20.9596,0.134572,
2,0,0,1,0,50359.9,0.133438,0.133098,-0.838919,26,0.0141254,10,-0.000111659,-3.07628,-0.0891119,-0.662089,21.6976,0.133098,
2,0,0,1,0,50360.1,0.13194,0.131607,-0.873365,26,0.013995,10,-0.000114941,-3.0588,-0.092672,-0.636654,21.7115,0.131607,
2,0,0,1,0,50360.2,0.130442,0.130106,-0.904781,26,0.0138595,10,-0.000117717,-3.04346,-0.100017,-0.589899,20.7753,0.130106,
2,0,0,1,0,50360.4,0.128943,0.128607,-0.937233,26,0.013719,10,-0.000120534,-3.02815,-0.106741,-0.552739,20.1638,0.1286068,
2,0,0,1,0,50360.5,0.127445,0.127099,-0.967023,26,0.0135741,10,-0.000122908,-3.01456,-0.115636,-0.51022,19.2,0.127099,
2,0,0,1,0,50360.7,0.125948,0.125575,-0.99487,26,0.0134251,10,-0.000124931,-3.00223,-0.122503,-0.48162,18.6691,0.125575,
2,0,0,1,0,50360.8,0.124449,0.124068,-1.0216,26,0.0132717,10,-0.000126748,-2.99072,-0.131151,-0.449863,17.8713,0.124068,
2,0,0,1,0,50361,0.122951,0.122611,-1.04627,26,0.0131143,10,-0.000128284,-2.98036,-0.148896,-0.39625,16.1543,0.122611,
2,0,0,1,0,50361.1,0.121453,0.121127,-1.06725,26,0.0129534,10,-0.000129274,-2.97173,-0.184409,-0.319942,13.294,0.121127,
2,0,0,1,0,50361.3,0.119955,0.119629,-1.08582,26,0.0127896,10,-0.000129896,-2.96424,-0.223922,-0.263485,11.1704,0.119629,
2,0,0,1,0,50361.4,0.118456,0.118126,-1.10253,26,0.0126232,10,-0.000130238,-2.95761,-0.239833,-0.246004,10.5746,0.118126,
2,0,0,1,0,50361.6,0.116958,0.116601,-1.12189,26,0.0124542,10,-0.000130814,-2.95005,-0.316327,-0.186516,8.11927,0.116601,
2,0,0,1,0,50361.7,0.11546,0.115059,-1.12849,26,0.0122834,10,-0.000129843,-2.9475,-0.47567,-0.124036,5.45199,0.115059,
2,0,0,1,0,50361.9,0.113962,0.113624,-1.13409,26,0.0121114,10,-0.00012886,-2.94535,-0.625712,-0.0942926,4.17611,0.113624,
2,0,0,1,0,50362,0.112463,0.112098,-1.14019,26,0.0119385,10,-0.000127814,-2.94302,-0.885489,-0.0666299,2.96135,0.112098,
2,0,0,1,0,50362.2,0.110966,0.110598,-1.14355,26,0.0117651,10,-0.000126474,-2.94174,-1.37649,-0.0428626,1.9106,0.110598,
2,0,0,1,0,50362.3,0.109468,0.10914,-1.14452,26,0.0115912,10,-0.000124914,-2.94138,4.71278,0.0125192,-0.557568,0.10914,
2,0,0,1,0,50362.5,0.107969,0.107608,-1.14429,26,0.0114173,10,-0.000123135,-2.94146,2.26804,0.0260136,-1.16086,0.107608,
2,0,0,1,0,50362.6,0.106471,0.106108,-1.14007,26,0.011244,10,-0.000120971,-2.94307,2.04463,0.028856,-1.28493,0.106108,
2,0,0,1,0,50362.8,0.104973,0.104631,-1.13739,26,0.0110711,10,-0.000119006,-2.94409,1.26094,0.0467905,-2.07681,0.104631,
2,0,0,1,0,50362.9,0.103474,0.103118,-1.13537,26,0.0108984,10,-0.000117077,-2.94486,0.851261,0.0693089,-3.05921,0.103118,
2,0,0,1,0,50363.1,0.101976,0.101584,-1.13064,26,0.0107266,10,-0.000114855,-2.94667,0.700423,0.0842348,-3.712,0.101584,
2,0,0,1,0,50363.2,0.100478,0.100107,-1.12322,26,0.0105557,10,-0.000112442,-2.94954,0.689242,0.0856013,-3.75196,0.100107,
2,0,0,1,0,50363.4,0.0989798,0.0986201,-1.11938,26,0.0103856,10,-0.000110393,-2.95102,0.774406,0.0761874,-3.32236,0.0986201,
2,0,0,1,0,50363.5,0.0974808,0.0971568,-1.11296,26,0.010216,10,-0.000108131,-2.95352,0.768149,0.076808,-3.33707,0.0971568,
2,0,0,1,0,50363.7,0.0959833,0.0956582,-1.10645,26,0.0100475,10,-0.000105841,-2.95607,0.62228,0.0948126,-4.10013,0.0956582,
2,0,0,1,0,50363.8,0.0944857,0.0941575,-1.09805,26,0.00987992,10,-0.000103389,-2.95938,0.651313,0.0905863,-3.89674,0.0941575,
2,0,0,1,0,50364,0.0929871,0.0926956,-1.09342,26,0.00971311,10,-0.000101355,-2.96121,0.814095,0.0724732,-3.09602,0.0926956,
2,0,0,1,0,50364.1,0.0914889,0.091174,-1.09278,26,0.00954705,10,-9.96332e-05,-2.96147,0.772089,0.0764161,-3.25025,0.091174,
2,0,0,1,0,50364.3,0.0899907,0.0896544,-1.08512,26,0.00938171,10,-9.72858e-05,-2.96452,0.597282,0.0987808,-4.17635,0.0896544,
2,0,0,1,0,50364.4,0.0884925,0.0881677,-1.07634,26,0.00921731,10,-9.48981e-05,-2.96805,0.524926,0.112397,-4.73311,0.08816772,
2,0,0,1,0,50364.6,0.0869943,0.0866195,-1.07241,26,0.00905409,10,-9.28915e-05,-2.96964,0.605877,0.0973795,-4.08085,0.0866195,
2,0,0,1,0,50364.7,0.0854961,0.085136,-1.06642,26,0.0088915,10,-9.07911e-05,-2.97207,0.640941,0.0920522,-3.83115,0.085136,
2,0,0,1,0,50364.9,0.083998,0.0836684,-1.06062,26,0.00872975,10,-8.87405e-05,-2.97444,0.518884,0.113706,-4.70276,0.0836684,
2,0,0,1,0,50365,0.0824998,0.0821732,-1.05643,26,0.00856885,10,-8.68101e-05,-2.97616,0.578104,0.102058,-4.20265,0.0821732,
2,0,0,1,0,50365.2,0.0810011,0.0806425,-1.04787,26,0.00840909,10,-8.45027e-05,-2.97969,0.771398,0.0764845,-3.13243,0.0806425,
2,0,0,1,0,50365.3,0.0795036,0.0791301,-1.04315,26,0.00825007,10,-8.25442e-05,-2.98165,0.782892,0.0753616,-3.06376,0.0791301,
2,0,0,1,0,50365.5,0.0780061,0.0776756,-1.03857,26,0.00809184,10,-8.06712e-05,-2.98357,0.661409,0.0892035,-3.6095,0.0776756,
2,0,0,1,0,50365.6,0.076507,0.0761724,-1.03219,26,0.00793438,10,-7.86244e-05,-2.98624,0.666232,0.0885578,-3.5678,0.0761724,
2,0,0,1,0,50365.8,0.0750088,0.0746698,-1.02437,26,0.00777813,10,-7.64893e-05,-2.98954,0.578,0.102076,-4.08559,0.0746698,
2,0,0,1,0,50365.9,0.0735106,0.0731386,-1.01935,26,0.00762265,10,-7.4554e-05,-2.99168,0.712833,0.0827683,-3.29498,0.07313858,
2,0,0,1,0,50366.1,0.0720124,0.071672,-1.01494,26,0.007468,10,-7.27425e-05,-2.99356,0.611284,0.0965182,-3.81957,0.07167203,
2,0,0,1,0,50366.2,0.0705142,0.070162,-1.00832,26,0.0073142,10,-7.07457e-05,-2.9964,0.450591,0.130939,-5.15078,0.070162,
2,0,0,1,0,50366.4,0.069016,0.0687114,-0.999117,26,0.00716153,10,-6.86507e-05,-3.00038,0.580222,0.101685,-3.9794,0.0687114,
2,0,0,1,0,50366.5,0.0675179,0.0671971,-0.997097,26,0.0070098,10,-6.70021e-05,-3.00126,0.666795,0.088483,-3.43992,0.0671971,
2,0,0,1,0,50366.7,0.0660188,0.0656703,-0.993524,26,0.00685867,10,-6.5245e-05,-3.00282,0.646543,0.0912545,-3.5254,0.0656703,
2,0,0,1,0,50366.8,0.0645213,0.0641713,-0.98546,26,0.00670832,10,-6.32382e-05,-3.00636,0.56429,0.104556,-4.01258,0.0641713,
2,0,0,1,0,50367,0.0630237,0.0627037,-0.976556,26,0.00655909,10,-6.12337e-05,-3.0103,0.567799,0.10391,-3.96759,0.0627037,
2,0,0,1,0,50367.1,0.0615251,0.0612101,-0.972215,26,0.00641083,10,-5.95094e-05,-3.01224,0.603802,0.0977141,-3.71083,0.0612101,
2,0,0,1,0,50367.3,0.0600269,0.0596513,-0.965322,26,0.00626342,10,-5.75827e-05,-3.01533,0.606822,0.0972278,-3.66518,0.0596513,
2,0,0,1,0,50367.4,0.0585287,0.0581911,-0.960513,26,0.00611685,10,-5.58933e-05,-3.0175,0.464347,0.12706,-4.74863,0.05819108,
2,0,0,1,0,50367.6,0.0570305,0.0567182,-0.953438,26,0.0059712,10,-5.40772e-05,-3.02071,0.50168,0.117605,-4.37135,0.0567182,
2,0,0,1,0,50367.7,0.0555323,0.0551721,-0.947749,26,0.00582688,10,-5.22893e-05,-3.02331,0.552583,0.106771,-3.95279,0.0551721,
2,0,0,1,0,50367.9,0.0540342,0.0537172,-0.939654,26,0.00568321,10,-5.04756e-05,-3.02703,0.59285,0.0995193,-3.65156,0.0537172,
2,0,0,1,0,50368,0.052536,0.0522072,-0.936247,26,0.00554026,10,-4.88789e-05,-3.02861,0.545359,0.108186,-3.95158,0.0522072,
2,0,0,1,0,50368.2,0.0510378,0.0507131,-0.929454,26,0.00539834,10,-4.71355e-05,-3.03177,0.475132,0.124176,-4.50015,0.0507131,
2,0,0,1,0,50368.3,0.0495391,0.0492113,-0.920772,26,0.00525748,10,-4.53124e-05,-3.03585,0.516304,0.114274,-4.11238,0.0492113,
2,0,0,1,0,50368.5,0.0480416,0.0476677,-0.913855,26,0.00511771,10,-4.35614e-05,-3.03912,0.602207,0.097973,-3.4977,0.0476677,
2,0,0,1,0,50368.6,0.0465441,0.046241,-0.907786,26,0.00497884,10,-4.1977e-05,-3.04202,0.534486,0.110386,-3.91947,0.046241,
2,0,0,1,0,50368.8,0.045045,0.0447494,-0.902007,26,0.0048408,10,-4.03643e-05,-3.04479,0.470342,0.125441,-4.41459,0.0447494,
2,0,0,1,0,50368.9,0.0435468,0.0432245,-0.893789,26,0.00470396,10,-3.86336e-05,-3.04876,0.440488,0.133942,-4.68473,0.04322451,
2,0,0,1,0,50369.1,0.0420486,0.041706,-0.888615,26,0.00456816,10,-3.70606e-05,-3.05129,0.519301,0.113614,-3.94252,0.041706,
2,0,0,1,0,50369.2,0.0405504,0.0402373,-0.886142,26,0.00443316,10,-3.5656e-05,-3.0525,0.471155,0.125224,-4.31422,0.0402373,
2,0,0,1,0,50369.4,0.0390523,0.0387178,-0.878109,26,0.00429897,10,-3.39984e-05,-3.05645,0.399125,0.147823,-5.0464,0.03871778,
2,0,0,1,0,50369.5,0.0375541,0.0372014,-0.869184,26,0.00416593,10,-3.23349e-05,-3.06089,0.38832,0.151937,-5.16114,0.0372014,
2,0,0,1,0,50369.7,0.0360559,0.0357041,-0.861393,26,0.00403414,10,-3.07553e-05,-3.0648,0.422815,0.139541,-4.70482,0.0357041,
2,0,0,1,0,50369.8,0.0345568,0.0342014,-0.856112,26,0.00390318,10,-2.92802e-05,-3.06747,0.486832,0.121192,-4.04838,0.0342014,
2,0,0,1,0,50370,0.0330593,0.0326985,-0.850178,26,0.00377313,10,-2.77996e-05,-3.07049,0.396337,0.148863,-4.92976,0.0326985,
2,0,0,1,0,50370.1,0.0315618,0.0312223,-0.843803,26,0.00364418,10,-2.63454e-05,-3.07376,0.373217,0.158085,-5.19833,0.0312223,
2,0,0,1,0,50370.3,0.0300631,0.0297277,-0.834753,26,0.00351632,10,-2.48152e-05,-3.07844,0.498543,0.118345,-3.86228,0.0297277,
2,0,0,1,0,50370.4,0.0285649,0.0282431,-0.830557,26,0.00338937,10,-2.34575e-05,-3.08063,0.599451,0.0984234,-3.18143,0.0282431,
2,0,0,1,0,50370.6,0.0270667,0.0267129,-0.823481,26,0.00326308,10,-2.19976e-05,-3.08435,0.481533,0.122525,-3.93813,0.0267129,
2,0,0,1,0,50370.7,0.0255685,0.0252368,-0.818357,26,0.00313784,10,-2.06527e-05,-3.08706,0.418119,0.141108,-4.50769,0.0252368,
2,0,0,1,0,50370.9,0.0240704,0.0237629,-0.809232,26,0.00301365,10,-1.92297e-05,-3.09193,0.476044,0.123938,-3.93118,0.0237629,
2,0,0,1,0,50371,0.0225722,0.0222433,-0.805525,26,0.00289026,10,-1.79175e-05,-3.09392,0.62304,0.094697,-2.97707,0.0222433,
2,0,0,1,0,50371.2,0.021074,0.020729,-0.801361,26,0.00276758,10,-1.66115e-05,-3.09617,0.544781,0.1083,-3.39156,0.020729,
2,0,0,1,0,50371.3,0.0195758,0.0192318,-0.796676,26,0.00264566,10,-1.53215e-05,-3.09872,0.554033,0.106492,-3.30883,0.0192318,
2,0,0,1,0,50371.5,0.0180772,0.0177298,-0.788637,26,0.00252441,10,-1.39824e-05,-3.10312,0.613531,0.0961647,-2.97327,0.0177298,
2,0,0,1,0,50371.6,0.0165796,0.0162595,-0.788326,26,0.00240396,10,-1.28178e-05,-3.10329,0.910345,0.0648106,-1.99428,0.0162595,
2,0,0,1,0,50371.8,0.0150821,0.0147113,-0.784338,26,0.00228395,10,-1.15386e-05,-3.1055,0.968271,0.0609333,-1.86604,0.0147113,
2,0,0,1,0,50371.9,0.013583,0.0132521,-0.781432,26,0.00216424,10,-1.03556e-05,-3.10711,0.738331,0.0799099,-2.43154,0.01325212,
2,0,0,1,0,50372.1,0.0120848,0.0117495,-0.77718,26,0.00204519,10,-9.1315e-06,-3.10948,0.809022,0.0729275,-2.21666,0.0117495,
2,0,0,1,0,50372.2,0.0105866,0.0102194,-0.774998,26,0.00192678,10,-7.91999e-06,-3.1107,1.03543,0.0569814,-1.7255,0.0102194,
2,0,0,1,0,50372.4,0.00908846,0.00875918,-0.773028,26,0.00180847,10,-6.77109e-06,-3.1118,1.88325,0.0313288,-0.94657,0.00875918,
2,0,0,1,0,50372.5,0.00759027,0.00728733,-0.771291,26,0.00169049,10,-5.62066e-06,-3.11278,1.58684,0.0371809,-1.12091,0.00728733,
2,0,0,1,0,50372.7,0.00609207,0.00574974,-0.771256,26,0.00157263,10,-4.43452e-06,-3.1128,2.40195,0.0245634,-0.740046,0.00574974,
2,0,0,1,0,50372.8,0.00459389,0.00430441,-0.769327,26,0.00145511,10,-3.3115e-06,-3.11389,6.11174,0.00965355,-0.29039,0.00430441,
2,0,0,1,0,50373,0.0030948,0.00276704,-0.771852,26,0.00133741,10,-2.13574e-06,-3.11247,-0.84441,-0.0698713,2.10541,0.002767035,
2,0,0,1,0,50373.1,0.00159728,0.00122041,-0.779092,26,0.00121854,10,-9.5081e-07,-3.10841, , , ,0.00122041,
2,0,0,1,0,50373.3,0.000199195,-0.000182169,-0.773302,26,0.00110793,10,1.40871e-07,-3.11165, , , ,-0.000182169,