File: Figure_codes/Fig_3-5/rawdata_trumpetplot_data/after 10th/20221101_1-115_003_TrumpetPlot_ParaChange_from10_every3_10_CV_C01_0.csv
mode,ox/red,error,control changes,counter inc.,time/s,control/V,Ewe/V,<I>/mA,cycle number,(Q-Qo)/C,I Range,P/W,log(|I|),Tafel slope mV/dec,alpha_eff,dI/d(E-IR),E-IR/V,
2,1,0,1,0,1190.52,-2.44065e-05,-0.000344411,5.42582,1,0.0000000E+000,10,-1.86871e-06,-2.26554, , , ,-0.000344411,
2,1,0,1,0,1190.53,0.00179726,0.00143151,6.57685,1,5.34062e-05,10,9.41479e-06,-2.18198, , , ,0.00143151,
2,1,0,1,0,1190.54,0.00379485,0.00344283,7.51984,1,0.000124385,10,2.58896e-05,-2.12379,0.0432972,1.36268,390.599,0.00344283,
2,1,0,1,0,1190.55,0.00579244,0.00551062,8.17015,1,0.000203166,10,4.50226e-05,-2.08777,0.0654313,0.901709,284.179,0.005510624,
2,1,0,1,0,1190.56,0.00779002,0.0074464,8.65757,1,0.000287446,10,6.44677e-05,-2.0626,0.0869651,0.678433,227.958,0.0074464,
2,1,0,1,0,1190.57,0.00977853,0.00943437,9.0646,1,0.000375389,10,8.55187e-05,-2.04265,0.119268,0.494682,173.761,0.00943437,
2,1,0,1,0,1190.58,0.0117761,0.0114437,9.35215,1,0.000467551,10,0.000107024,-2.02909,0.162845,0.362308,131.883,0.0114437,
2,1,0,1,0,1190.59,0.0137737,0.0134531,9.5946,1,0.000562345,10,0.000129077,-2.01797,0.207165,0.284798,106.319,0.0134531,
2,1,0,1,0,1190.6,0.0157713,0.0154894,9.78229,1,0.000659269,10,0.000151522,-2.00956,0.245605,0.240223,91.6558,0.0154894,
2,1,0,1,0,1190.61,0.017778,0.0174467,9.96063,1,0.000758095,10,0.00017378,-2.00171,0.311714,0.189276,73.3358,0.0174467,
2,1,0,1,0,1190.62,0.0197755,0.0194795,10.0749,1,0.000858262,10,0.000196254,-1.99676,0.389419,0.151508,59.6065,0.0194795,
2,1,0,1,0,1190.63,0.0217731,0.0214949,10.2019,1,0.00095972,10,0.00021929,-1.99132,0.414218,0.142437,56.6296,0.0214949,
2,1,0,1,0,1190.64,0.0237707,0.0234618,10.3004,1,0.00106222,10,0.000241667,-1.98715,0.45499,0.129673,52.1561,0.0234618,
2,1,0,1,0,1190.65,0.0257774,0.0254998,10.4108,1,0.00116581,10,0.000265474,-1.98252,0.504526,0.116942,47.4441,0.0254998,
2,1,0,1,0,1190.66,0.027775,0.0274866,10.4914,1,0.0012703,10,0.000288373,-1.97917,0.526139,0.112138,45.9574,0.0274866,
2,1,0,1,0,1190.67,0.0297726,0.0294457,10.5922,1,0.00137578,10,0.000311893,-1.97502,0.552358,0.106815,44.097,0.0294457,
2,1,0,1,0,1190.68,0.0317701,0.0314377,10.6656,1,0.00148207,10,0.000335302,-1.97201,0.511134,0.11543,48.1506,0.03143771,
2,1,0,1,0,1190.69,0.0337587,0.0334632,10.7856,1,0.0015883,10,0.000360921,-1.96716,0.481817,0.122453,51.4613,0.0334632,
2,1,0,1,0,1190.7,0.0357562,0.0354411,10.8716,1,0.00169653,10,0.000385303,-1.96371,0.5541,0.106479,45.1913,0.0354411,
2,1,0,1,0,1190.71,0.0377538,0.0374286,10.9648,1,0.0018058,10,0.000410397,-1.96,0.493639,0.119521,51.1856,0.0374286,
2,1,0,1,0,1190.72,0.0397514,0.0394304,11.0758,1,0.00191594,10,0.000436724,-1.95562,0.405936,0.145343,62.907,0.0394304,
2,1,0,1,0,1190.73,0.0417399,0.0414317,11.2166,1,0.00202625,10,0.000464723,-1.95014,0.428952,0.137545,60.0948,0.0414317,
2,1,0,1,0,1190.74,0.0437375,0.0434159,11.3153,1,0.00213891,10,0.000491265,-1.94633,0.44818,0.131644,58.2175,0.0434159,
2,1,0,1,0,1190.75,0.0457351,0.045394,11.4473,1,0.00225273,10,0.000519639,-1.9413,0.406238,0.145235,64.8575,0.045394,
2,1,0,1,0,1190.76,0.0477327,0.0473557,11.5709,1,0.00236781,10,0.000547945,-1.93663,0.360948,0.163458,73.9701,0.0473557,
2,1,0,1,0,1190.77,0.0497393,0.0494154,11.7448,1,0.00248439,10,0.000580372,-1.93016,0.358955,0.164366,75.1816,0.0494154,
2,1,0,1,0,1190.78,0.0517369,0.0513466,11.8709,1,0.00260242,10,0.000609531,-1.92552,0.364994,0.161646,75.0414,0.0513466,
2,1,0,1,0,1190.79,0.0537345,0.0534419,12.0469,1,0.00272207,10,0.000643811,-1.91912,0.333561,0.176879,83.1021,0.0534419,
2,1,0,1,0,1190.8,0.0557321,0.0553984,12.2076,1,0.00284331,10,0.000676281,-1.91337,0.334638,0.17631,84.0344,0.0553984,
2,1,0,1,0,1190.81,0.0577297,0.0574086,12.3803,1,0.00296629,10,0.000710733,-1.90727,0.315778,0.18684,90.3343,0.0574086,
2,1,0,1,0,1190.82,0.0597364,0.0594232,12.5712,1,0.00309111,10,0.00074702,-1.90062,0.300127,0.196584,96.4545,0.0594232,
2,1,0,1,0,1190.83,0.0617339,0.0614091,12.7661,1,0.00321784,10,0.000783957,-1.89394,0.329223,0.17921,89.1641,0.0614091,
2,1,0,1,0,1190.84,0.0637315,0.0634228,12.9278,1,0.0033463,10,0.000819919,-1.88848,0.312428,0.188844,95.4769,0.0634228,
2,1,0,1,0,1190.85,0.0657291,0.0653819,13.1454,1,0.0034767,10,0.000859473,-1.88123,0.292423,0.201762,103.408,0.0653819,
2,1,0,1,0,1190.86,0.0677176,0.0674036,13.3395,1,0.00360781,10,0.000899128,-1.87486,0.325172,0.181442,94.4243,0.0674036,
2,1,0,1,0,1190.87,0.0697152,0.0694086,13.5257,1,0.00374221,10,0.000938797,-1.86884,0.326798,0.18054,95.3053,0.0694086,
2,1,0,1,0,1190.88,0.0717128,0.0713436,13.715,1,0.00387839,10,0.000978474,-1.86281,0.298588,0.197597,105.913,0.0713436,
2,1,0,1,0,1190.89,0.0737104,0.0733684,13.9451,1,0.0040168,10,0.00102313,-1.85558,0.293788,0.200825,109.198,0.0733684,
2,1,0,1,0,1190.9,0.0756989,0.0753507,14.1525,1,0.00415593,10,0.0010664,-1.84917,0.307768,0.191703,105.901,0.0753507,
2,1,0,1,0,1190.91,0.0776965,0.0773514,14.3668,1,0.00429859,10,0.0011113,-1.84264,0.323911,0.182149,102.067,0.0773514,
2,1,0,1,0,1190.92,0.0796941,0.0793972,14.5655,1,0.00444327,10,0.00115646,-1.83667,0.328035,0.179859,102.289,0.0793972,
2,1,0,1,0,1190.93,0.0816916,0.0813909,14.7801,1,0.00459006,10,0.00120296,-1.83032,0.327675,0.180056,103.795,0.0813909,
2,1,0,1,0,1190.94,0.0836983,0.08337,14.9779,1,0.0047388,10,0.00124871,-1.82455,0.339656,0.173705,101.564,0.08337,
2,1,0,1,0,1190.95,0.0856959,0.0853811,15.1853,1,0.0048897,10,0.00129654,-1.81858,0.357356,0.165102,97.759,0.0853811,
2,1,0,1,0,1190.96,0.0876935,0.0873575,15.3677,1,0.00504249,10,0.00134248,-1.81339,0.361754,0.163094,97.8855,0.0873575,
2,1,0,1,0,1190.97,0.0896911,0.0893469,15.5735,1,0.00519726,10,0.00139144,-1.80761,0.362823,0.162614,98.7955,0.0893469,
2,1,0,1,0,1190.98,0.0916978,0.0914179,15.7688,1,0.00535395,10,0.00144155,-1.8022,0.36833,0.160183,98.5965,0.0914179,
2,1,0,1,0,1190.99,0.0936953,0.0933873,15.9719,1,0.00551277,10,0.00149157,-1.79664,0.381944,0.154473,96.2005,0.0933873,
2,1,0,1,0,1191,0.0956929,0.0953525,16.1474,1,0.0056734,10,0.00153969,-1.7919,0.385152,0.153186,96.6266,0.0953525,
2,1,0,1,0,1191.01,0.0976905,0.0973523,16.355,1,0.00583597,10,0.0015922,-1.78635,0.372637,0.158331,101.022,0.0973523,
2,1,0,1,0,1191.02,0.099679,0.0993566,16.5519,1,0.00599879,10,0.00164454,-1.78115,0.389862,0.151335,97.745,0.0993566,
2,1,0,1,0,1191.03,0.101677,0.101352,16.7459,1,0.00616536,10,0.00169724,-1.77609,0.410587,0.143697,93.8781,0.101352,
2,1,0,1,0,1191.04,0.103674,0.103378,16.9294,1,0.00633371,10,0.00175014,-1.77136,0.378189,0.156007,103.213,0.103378,
2,1,0,1,0,1191.05,0.105672,0.105365,17.1602,1,0.00650421,10,0.00180808,-1.76548,0.365449,0.161445,108.007,0.105365,
2,1,0,1,0,1191.06,0.107656,0.107333,17.3566,1,0.00667504,10,0.00186294,-1.76054,0.362326,0.162837,110.445,0.107333,
2,1,0,1,0,1191.07,0.109658,0.109349,17.6001,1,0.00684989,10,0.00192455,-1.75448,0.345905,0.170567,117.096,0.109349,
2,1,0,1,0,1191.08,0.111655,0.111349,17.8268,1,0.00702704,10,0.00198501,-1.74893,0.334574,0.176344,122.81,0.111349,
2,1,0,1,0,1191.09,0.113653,0.11335,18.0915,1,0.00720669,10,0.00205068,-1.74252,0.316157,0.186616,131.716,0.11335,
2,1,0,1,0,1191.1,0.115651,0.115292,18.3461,1,0.00738887,10,0.00211516,-1.73646,0.291321,0.202526,145.281,0.115292,
2,1,0,1,0,1191.11,0.117657,0.117353,18.6731,1,0.0075741,10,0.00219135,-1.72878,0.280194,0.210568,153.282,0.117353,
2,1,0,1,0,1191.12,0.119655,0.11931,18.962,1,0.00776226,10,0.00226235,-1.72212,0.281779,0.209384,155.1,0.11931,
2,1,0,1,0,1191.13,0.121652,0.121336,19.2909,1,0.00795356,10,0.00234069,-1.71465,0.277094,0.212924,160.235,0.121336,
2,1,0,1,0,1191.14,0.12365,0.123336,19.6072,1,0.00814806,10,0.00241828,-1.70758,0.261066,0.225996,173.204,0.1233362,
2,1,0,1,0,1191.15,0.125657,0.125366,19.9889,1,0.00834616,10,0.00250594,-1.69921,0.261482,0.225637,175.758,0.125366,
2,1,0,1,0,1191.16,0.127654,0.127364,20.3152,1,0.00854771,10,0.00258743,-1.69218,0.267686,0.220407,174.901,0.127364,
2,1,0,1,0,1191.17,0.129652,0.129324,20.6812,1,0.00875281,10,0.00267458,-1.68442,0.258431,0.228301,184.236,0.129324,
2,1,0,1,0,1191.18,0.131649,0.131324,21.0447,1,0.0089615,10,0.00276368,-1.67686,0.263265,0.224109,184.056,0.131324,
2,1,0,1,0,1191.19,0.133638,0.133289,21.4109,1,0.00917179,10,0.00285384,-1.66937,0.276692,0.213234,178.08,0.133289,
2,1,0,1,0,1191.2,0.135636,0.135327,21.7575,1,0.00938769,10,0.00294437,-1.66239,0.279513,0.211081,179.311,0.135327,
2,1,0,1,0,1191.21,0.137633,0.137281,22.1266,1,0.00960719,10,0.00303756,-1.65508,0.291711,0.202255,174.479,0.137281,
2,1,0,1,0,1191.22,0.139631,0.139326,22.4553,1,0.00983012,10,0.00312861,-1.64868,0.306705,0.192368,168.645,0.139326,
2,1,0,1,0,1191.23,0.141619,0.141296,22.8037,1,0.0100542,10,0.00322207,-1.64199,0.314932,0.187342,166.583,0.141296,
2,1,0,1,0,1191.24,0.143617,0.143293,23.1161,1,0.0102838,10,0.00331237,-1.63609,0.331002,0.178247,160.856,0.143293,
2,1,0,1,0,1191.25,0.145614,0.145289,23.4461,1,0.0105167,10,0.00340647,-1.62993,0.363345,0.16238,148.365,0.1452892,
2,1,0,1,0,1191.26,0.147612,0.147297,23.7101,1,0.0107525,10,0.00349243,-1.62507,0.378287,0.155966,144.474,0.147297,
2,1,0,1,0,1191.27,0.149619,0.14931,24.027,1,0.0109912,10,0.00358746,-1.6193,0.392824,0.150195,140.617,0.14931,
2,1,0,1,0,1191.28,0.151616,0.151285,24.271,1,0.0112328,10,0.00367184,-1.61491,0.454215,0.129894,123.04,0.151285,
2,1,0,1,0,1191.29,0.153614,0.153293,24.5171,1,0.0114768,10,0.00375829,-1.61053,0.524065,0.112582,107.581,0.153293,
2,1,0,1,0,1191.3,0.155611,0.155281,24.7009,1,0.0117229,10,0.00383559,-1.60729,0.601169,0.0981421,94.6343,0.155281,
2,1,0,1,0,1191.31,0.157618,0.157329,24.899,1,0.011971,10,0.00391734,-1.60382,0.840767,0.0701741,68.0222,0.157329,
2,1,0,1,0,1191.32,0.159616,0.15931,24.9749,1,0.0122204,10,0.00397875,-1.6025,1.60487,0.036763,35.8263,0.15931,
2,1,0,1,0,1191.33,0.161613,0.161323,25.0421,1,0.0124706,10,0.00403988,-1.60133,14.7111,0.00401058,3.9103,0.161323,
2,1,0,1,0,1191.34,0.163611,0.16328,24.9904,1,0.0127208,10,0.00408043,-1.60223,-1.38746,-0.0425237,-41.4234,0.16328,
2,1,0,1,0,1191.35,0.165618,0.165265,24.8789,1,0.0129702,10,0.0041116,-1.60417,-0.599903,-0.0983492,-95.1935,0.165265,
2,1,0,1,0,1191.36,0.167597,0.167245,24.6129,1,0.0132152,10,0.0041164,-1.60884,-0.37228,-0.158483,-151.969,0.167245,
2,1,0,1,0,1191.37,0.169595,0.169309,24.2642,1,0.0134597,10,0.00410816,-1.61503,-0.253725,-0.232535,-219.335,0.169309,
2,1,0,1,0,1191.38,0.171592,0.171271,23.7299,1,0.0136997,10,0.00406426,-1.6247,-0.185947,-0.317294,-293.178,0.171271,
2,1,0,1,0,1191.39,0.173572,0.17329,23.0971,1,0.0139315,10,0.0040025,-1.63644,-0.148219,-0.39806,-357.39,0.17329,
2,1,0,1,0,1191.4,0.175578,0.175284,22.2958,1,0.0141586,10,0.0039081,-1.65178,-0.120771,-0.488527,-423.977,0.175284,
2,1,0,1,0,1191.41,0.177576,0.177293,21.3998,1,0.014377,10,0.00379405,-1.66959,-0.101407,-0.581813,-484.018,0.177293,
2,1,0,1,0,1191.42,0.179573,0.179271,20.3662,1,0.0145858,10,0.00365106,-1.69109,-0.0887135,-0.665062,-527.891,0.1792707,
2,1,0,1,0,1191.43,0.181571,0.181247,19.3127,1,0.014784,10,0.00350038,-1.71416,-0.0819697,-0.719778,-541.43,0.1812471,
2,1,0,1,0,1191.44,0.183578,0.18323,18.2223,1,0.0149716,10,0.00333887,-1.7394,-0.0783515,-0.753017,-535.1,0.18323,
2,1,0,1,0,1191.45,0.185575,0.185295,17.1465,1,0.0151483,10,0.00317717,-1.76582,-0.0755108,-0.781345,-522.833,0.185295,
2,1,0,1,0,1191.46,0.187573,0.187266,16.1125,1,0.0153144,10,0.00301732,-1.79284,-0.0750941,-0.785681,-494.964,0.187266,
2,1,0,1,0,1191.47,0.18957,0.189272,15.178,1,0.0154707,10,0.00287278,-1.81879,-0.0772718,-0.763538,-452.821,0.189272,
2,1,0,1,0,1191.48,0.191577,0.191235,14.3151,1,0.015618,10,0.00273755,-1.84421,-0.0828464,-0.712161,-399.204,0.191235,
2,1,0,1,0,1191.49,0.193575,0.19328,13.5782,1,0.0157574,10,0.00262439,-1.86716,-0.0909474,-0.648727,-344.458,0.19328,
2,1,0,1,0,1191.5,0.195572,0.195287,12.9195,1,0.0158897,10,0.002523,-1.88876,-0.0971865,-0.60708,-306.95,0.195287,
2,1,0,1,0,1191.51,0.19757,0.197274,12.3524,1,0.016016,10,0.00243679,-1.90825,-0.109477,-0.538927,-260.775,0.197274,
2,1,0,1,0,1191.52,0.199558,0.199227,11.8919,1,0.0161359,10,0.0023692,-1.92475,-0.125646,-0.469572,-218.353,0.199227,
2,1,0,1,0,1191.53,0.201556,0.201232,11.488,1,0.0162527,10,0.00231176,-1.93975,-0.139556,-0.422771,-189.837,0.201232,
2,1,0,1,0,1191.54,0.203553,0.203252,11.1278,1,0.0163657,10,0.00226176,-1.95359,-0.157354,-0.37495,-163.284,0.203252,
2,1,0,1,0,1191.55,0.205551,0.205229,10.8353,1,0.0164754,10,0.00222373,-1.96516,-0.188883,-0.312363,-132.402,0.205229,
2,1,0,1,0,1191.56,0.20754,0.20725,10.5985,1,0.0165814,10,0.00219654,-1.97476,-0.217639,-0.271091,-112.222,0.20725,
2,1,0,1,0,1191.57,0.209537,0.209267,10.3822,1,0.0166862,10,0.00217265,-1.98371,-0.219424,-0.268886,-108.9,0.2092673,
2,1,0,1,0,1191.58,0.211535,0.211279,10.1597,1,0.0167888,10,0.00214654,-1.99312,-0.239862,-0.245975,-97.7961,0.2112793,
2,1,0,1,0,1191.59,0.213532,0.213224,9.99527,1,0.0168896,10,0.00213123,-2.00021,-0.290135,-0.203353,-79.3654,0.213224,
2,1,0,1,0,1191.6,0.215539,0.215274,9.84269,1,0.0169887,10,0.00211887,-2.00689,-0.307145,-0.192091,-73.8033,0.215274,
2,1,0,1,0,1191.61,0.217537,0.217282,9.69573,1,0.0170864,10,0.00210671,-2.01342,-0.305713,-0.192991,-73.0486,0.217282,
2,1,0,1,0,1191.62,0.219534,0.219199,9.55597,1,0.0171826,10,0.00209466,-2.01973,-0.359435,-0.164146,-61.332,0.219199,
2,1,0,1,0,1191.63,0.221532,0.221236,9.45324,1,0.0172777,10,0.0020914,-2.02442,-0.394945,-0.149388,-55.0578,0.221236,
2,1,0,1,0,1191.64,0.223534,0.223264,9.33218,1,0.0173716,10,0.00208354,-2.03002,-0.415037,-0.142156,-51.8688,0.223264,
2,1,0,1,0,1191.65,0.225536,0.22523,9.24605,1,0.0174645,10,0.00208249,-2.03404,-0.432717,-0.136348,-49.1327,0.22523,
2,1,0,1,0,1191.66,0.227534,0.227273,9.1352,1,0.0175564,10,0.00207618,-2.03928,-0.428261,-0.137766,-49.1813,0.227273,
2,1,0,1,0,1191.67,0.229531,0.229232,9.04926,1,0.0176474,10,0.00207438,-2.04339,-0.439123,-0.134359,-47.4101,0.229232,
2,1,0,1,0,1191.68,0.231529,0.231211,8.94849,1,0.0177373,10,0.00206899,-2.04825,-0.557303,-0.105867,-37.083,0.231211,
2,1,0,1,0,1191.69,0.233517,0.233208,8.90181,1,0.0178257,10,0.00207597,-2.05052,-0.603065,-0.0978335,-33.9042,0.233208,
2,1,0,1,0,1191.7,0.235515,0.235254,8.81143,1,0.0179143,10,0.00207292,-2.05495,-0.528076,-0.111726,-38.4763,0.235254,
2,1,0,1,0,1191.71,0.237513,0.237231,8.747,1,0.018002,10,0.00207506,-2.05814,-0.57033,-0.103449,-35.2911,0.237231,
2,1,0,1,0,1191.72,0.23951,0.239217,8.67154,1,0.0180891,10,0.00207438,-2.0619,-0.665473,-0.0886587,-30.0578,0.239217,
2,1,0,1,0,1191.73,0.241499,0.241213,8.62734,1,0.0181747,10,0.00208102,-2.06412,-0.603196,-0.0978124,-32.8517,0.241213,
2,1,0,1,0,1191.74,0.243496,0.243198,8.54075,1,0.0182605,10,0.0020771,-2.0685,-0.645203,-0.0914441,-30.5728,0.243198,
2,1,0,1,0,1191.75,0.245494,0.245166,8.50646,1,0.0183458,10,0.0020855,-2.07025,-0.772254,-0.0763998,-25.3133,0.2451662,
2,1,0,1,0,1191.76,0.247491,0.247222,8.43891,1,0.0184305,10,0.00208628,-2.07371,-0.752014,-0.078456,-25.8849,0.247222,
2,1,0,1,0,1191.77,0.249498,0.249219,8.40156,1,0.0185147,10,0.00209383,-2.07564,-0.731419,-0.0806651,-26.4018,0.249219,
2,1,0,1,0,1191.78,0.251496,0.251178,8.33446,1,0.0185983,10,0.00209343,-2.07912,-0.78975,-0.0747072,-24.3537,0.251178,
2,1,0,1,0,1191.79,0.253493,0.253205,8.30449,1,0.0186816,10,0.00210274,-2.08069,-0.757931,-0.0778435,-25.1664,0.253205,
2,1,0,1,0,1191.8,0.255491,0.255189,8.23352,1,0.0187643,10,0.0021011,-2.08441,-0.923724,-0.0638719,-20.5981,0.255189,
2,1,0,1,0,1191.81,0.257497,0.257196,8.22229,1,0.0188466,10,0.00211474,-2.08501,-1.05718,-0.0558087,-17.8544,0.257196,
2,1,0,1,0,1191.82,0.259495,0.259223,8.16149,1,0.0189285,10,0.00211565,-2.08823,-0.804705,-0.0733188,-23.3928,0.259223,
2,1,0,1,0,1191.83,0.261493,0.261205,8.1285,1,0.01901,10,0.0021232,-2.08999,-0.87178,-0.0676776,-21.4448,0.261205,
2,1,0,1,0,1191.84,0.26349,0.26316,8.07706,1,0.019091,10,0.00212556,-2.09275,-1.18451,-0.0498095,-15.7397,0.26316,
2,1,0,1,0,1191.85,0.265479,0.265208,8.06549,1,0.0191709,10,0.00213903,-2.09337,-1.13854,-0.0518209,-16.2684,0.265208,
2,1,0,1,0,1191.86,0.267476,0.267207,8.01122,1,0.0192513,10,0.00214066,-2.0963,-0.884341,-0.0667163,-20.8925,0.267207,
2,1,0,1,0,1191.87,0.269474,0.269166,7.9828,1,0.0193313,10,0.0021487,-2.09784,-1.15662,-0.0510109,-15.8859,0.269166,
2,1,0,1,0,1191.88,0.271471,0.271172,7.94824,1,0.0194109,10,0.00215534,-2.09973,-1.59965,-0.0368831,-11.4575,0.271172,
2,1,0,1,0,1191.89,0.27346,0.273185,7.93675,1,0.0194895,10,0.0021682,-2.10036,-1.0322,-0.0571595,-17.6516,0.273185,
2,1,0,1,0,1191.9,0.275458,0.275179,7.8775,1,0.0195685,10,0.00216773,-2.10361,-0.925262,-0.0637657,-19.6549,0.275179,
2,1,0,1,0,1191.91,0.277455,0.277115,7.8595,1,0.0196472,10,0.00217799,-2.1046,-1.14657,-0.0514577,-15.7568,0.2771149,
2,1,0,1,0,1191.92,0.279453,0.27916,7.81478,1,0.0197256,10,0.00218157,-2.10708,-1.24628,-0.0473409,-14.4673,0.27916,
2,1,0,1,0,1191.93,0.281455,0.281128,7.80145,1,0.0198036,10,0.0021932,-2.10782,-1.2172,-0.048472,-14.7278,0.281128,
2,1,0,1,0,1191.94,0.283457,0.283138,7.75619,1,0.0198814,10,0.00219607,-2.11035,-1.13993,-0.0517575,-15.6948,0.283138,
2,1,0,1,0,1191.95,0.285455,0.285137,7.73853,1,0.019959,10,0.00220654,-2.11134,-0.993501,-0.059386,-17.893,0.285137,
2,1,0,1,0,1191.96,0.287452,0.287139,7.6846,1,0.0200361,10,0.00220655,-2.11438,-1.17447,-0.0502353,-15.1121,0.287139,
2,1,0,1,0,1191.97,0.28945,0.289149,7.67789,1,0.020113,10,0.00222006,-2.11476,-1.64004,-0.0359748,-10.7589,0.289149,
2,1,0,1,0,1191.98,0.291456,0.291134,7.64162,1,0.0201897,10,0.00222473,-2.11681,-1.20564,-0.0489366,-14.6081,0.291134,
2,1,0,1,0,1191.99,0.293454,0.293121,7.61988,1,0.0202661,10,0.00223354,-2.11805,-1.13005,-0.0522101,-15.5073,0.2931205,
2,1,0,1,0,1192,0.295452,0.29513,7.57965,1,0.020342,10,0.00223698,-2.12035,-1.50853,-0.039111,-11.5953,0.29513,
2,1,0,1,0,1192.01,0.297449,0.29713,7.57339,1,0.0204179,10,0.00225028,-2.12071,-2.01112,-0.0293368,-8.65805,0.29713,
2,1,0,1,0,1192.02,0.299438,0.299177,7.54461,1,0.0204927,10,0.00225717,-2.12236,-0.0489607,-1.20505,-336.956,0.299177,
2,1,0,1,0,1192.02,0.299746,0.29951,6.77121,1,0.0205242,10,0.00202805,-2.16933,0.00386783,15.254,2800.56,0.29951,
2,1,0,1,0,1192.03,0.29774,0.297442,2.68589,1,0.0205689,10,0.000798897,-2.57091,0.00339599,17.3734,1577.77,0.297442,
2,1,0,1,0,1192.04,0.295742,0.295502,0.447059,1,0.0205833,10,0.000132107,-3.34964,0.00843779,6.99236,897.467,0.295502,
2,0,0,1,0,1192.05,0.293745,0.293444,-0.902139,1,0.0205804,10,-0.000264727,-3.04473,-0.00693905,-8.5026,533.964,0.2934441,
2,0,0,1,0,1192.06,0.291747,0.291414,-1.73588,1,0.0205668,10,-0.000505858,-2.76048,-0.00985246,-5.98835,350.102,0.2914139,
2,0,0,1,0,1192.07,0.289745,0.289418,-2.31185,1,0.0205464,10,-0.000669089,-2.63604,-0.0208635,-2.82791,240.688,0.289418,
2,0,0,1,0,1192.08,0.287743,0.287425,-2.69604,1,0.0205211,10,-0.000774908,-2.56927,-0.035697,-1.6528,169.724,0.287425,
2,0,0,1,0,1192.09,0.285745,0.285488,-2.97875,1,0.0204927,10,-0.000850399,-2.52597,-0.0541178,-1.09022,125.051,0.285488,
2,0,0,1,0,1192.1,0.283748,0.283424,-3.19631,1,0.0204617,10,-0.00090591,-2.49535,-0.0744979,-0.791968,98.0739,0.283424,
2,0,0,1,0,1192.11,0.28175,0.281441,-3.3757,1,0.0204288,10,-0.000950058,-2.47164,-0.0946187,-0.623555,81.6623,0.281441,
2,0,0,1,0,1192.12,0.279761,0.279457,-3.5203,1,0.0203945,10,-0.000983772,-2.45342,-0.111588,-0.528731,72.5675,0.279457,
2,0,0,1,0,1192.13,0.277764,0.277499,-3.66172,1,0.0203586,10,-0.00101612,-2.43632,-0.132918,-0.443882,63.1514,0.277499,
2,0,0,1,0,1192.14,0.275766,0.275447,-3.77354,1,0.0203213,10,-0.00103941,-2.42325,-0.160486,-0.367633,54.0974,0.275447,
2,0,0,1,0,1192.15,0.273769,0.273438,-3.8814,1,0.0202831,10,-0.00106132,-2.41101,-0.170818,-0.345397,52.2618,0.273438,
2,0,0,1,0,1192.16,0.27178,0.271449,-3.98244,1,0.0202441,10,-0.00108103,-2.39985,-0.180379,-0.327089,50.8294,0.271449,
2,0,0,1,0,1192.17,0.269783,0.269452,-4.08402,1,0.0202037,10,-0.00110045,-2.38891,-0.203687,-0.28966,46.0375,0.269452,
2,0,0,1,0,1192.18,0.267785,0.267508,-4.1639,1,0.0201625,10,-0.00111388,-2.3805,-0.243298,-0.242501,39.3825,0.267508,
2,0,0,1,0,1192.19,0.265787,0.265505,-4.23948,1,0.0201205,10,-0.0011256,-2.37269,-0.235944,-0.250059,41.4451,0.2655046,
2,0,0,1,0,1192.2,0.263781,0.263479,-4.33089,1,0.0200775,10,-0.0011411,-2.36342,-0.230383,-0.256095,43.2368,0.263479,
2,0,0,1,0,1192.21,0.261783,0.261475,-4.41373,1,0.0200338,10,-0.00115408,-2.35519,-0.283064,-0.208434,35.8069,0.261475,
2,0,0,1,0,1192.22,0.259786,0.259494,-4.47357,1,0.0199894,10,-0.00116086,-2.34935,-0.294995,-0.200004,34.9977,0.259494,
2,0,0,1,0,1192.23,0.257788,0.257454,-4.55444,1,0.0199442,10,-0.00117256,-2.34157,-0.267081,-0.220907,39.2424,0.257454,
2,0,0,1,0,1192.24,0.255781,0.255485,-4.6309,1,0.0198982,10,-0.00118312,-2.33433,-0.307216,-0.192047,34.6471,0.255485,
2,0,0,1,0,1192.25,0.253784,0.253494,-4.69163,1,0.0198517,10,-0.0011893,-2.32868,-0.357716,-0.164935,30.1977,0.253494,
2,0,0,1,0,1192.26,0.251786,0.251464,-4.75231,1,0.0198044,10,-0.00119504,-2.32309,-0.330305,-0.178623,33.1676,0.251464,
2,0,0,1,0,1192.27,0.249789,0.249481,-4.82475,1,0.0197565,10,-0.00120368,-2.31653,-0.348509,-0.169293,31.815,0.249481,
2,0,0,1,0,1192.28,0.2478,0.247482,-4.879,1,0.0197085,10,-0.00120747,-2.31167,-0.37137,-0.158871,30.2878,0.247482,
2,0,0,1,0,1192.29,0.245802,0.24549,-4.94563,1,0.0196594,10,-0.0012141,-2.30578,-0.346907,-0.170074,32.8131,0.24549,
2,0,0,1,0,1192.3,0.243805,0.243526,-5.00881,1,0.0196095,10,-0.00121978,-2.30027,-0.397984,-0.148247,28.9475,0.243526,
2,0,0,1,0,1192.31,0.241807,0.241486,-5.06154,1,0.0195592,10,-0.00122229,-2.29572,-0.39454,-0.149541,29.5773,0.241486,
2,0,0,1,0,1192.32,0.239819,0.23951,-5.12759,1,0.0195088,10,-0.00122811,-2.29009,-0.353043,-0.167119,33.4413,0.2395103,
2,0,0,1,0,1192.33,0.237821,0.237531,-5.19378,1,0.0194572,10,-0.00123368,-2.28452,-0.428837,-0.137581,27.8297,0.237531,
2,0,0,1,0,1192.34,0.235824,0.23551,-5.23892,1,0.019405,10,-0.00123382,-2.28076,-0.481798,-0.122458,25.0604,0.23551,
2,0,0,1,0,1192.35,0.233826,0.233535,-5.29392,1,0.0193524,10,-0.00123632,-2.27622,-0.415137,-0.142122,29.386,0.2335351,
2,0,0,1,0,1192.36,0.231824,0.23147,-5.35763,1,0.0192991,10,-0.00124013,-2.27103,-0.387914,-0.152096,31.8018,0.23147,
2,0,0,1,0,1192.37,0.229822,0.229514,-5.42181,1,0.0192452,10,-0.00124438,-2.26586,-0.503561,-0.117166,24.721,0.229514,
2,0,0,1,0,1192.38,0.227824,0.227519,-5.4553,1,0.0191908,10,-0.00124119,-2.26318,-0.485316,-0.12157,25.9697,0.227519,
2,0,0,1,0,1192.39,0.225827,0.225509,-5.52582,1,0.0191359,10,-0.00124612,-2.2576,-0.419633,-0.140599,30.2645,0.225509,
2,0,0,1,0,1192.4,0.223829,0.223525,-5.57619,1,0.0190804,10,-0.00124642,-2.25366,-0.436417,-0.135192,29.4658,0.223525,
2,0,0,1,0,1192.41,0.221822,0.221494,-5.6441,1,0.0190242,10,-0.00125014,-2.24841,-0.43127,-0.136805,30.0908,0.221494,
2,0,0,1,0,1192.42,0.219825,0.219539,-5.69613,1,0.0189675,10,-0.00125052,-2.24442,-0.433006,-0.136257,30.3338,0.2195389,
2,0,0,1,0,1192.43,0.217827,0.217509,-5.76501,1,0.0189102,10,-0.00125394,-2.2392,-0.514744,-0.11462,25.7094,0.217509,
2,0,0,1,0,1192.44,0.21583,0.215542,-5.79889,1,0.0188523,10,-0.0012499,-2.23666,-0.416792,-0.141557,32.1994,0.215542,
2,0,0,1,0,1192.45,0.213841,0.213555,-5.89231,1,0.0187944,10,-0.00125833,-2.22971,-0.399715,-0.147605,33.7913,0.213555,
2,0,0,1,0,1192.46,0.211844,0.211557,-5.93356,1,0.0187353,10,-0.00125528,-2.22668,-0.510772,-0.115511,26.8049,0.211557,
2,0,0,1,0,1192.47,0.209846,0.209536,-6.00005,1,0.0186756,10,-0.00125722,-2.22185,-0.45937,-0.128437,30.0446,0.209536,
2,0,0,1,0,1192.48,0.207848,0.207522,-6.05477,1,0.0186153,10,-0.0012565,-2.2179,-0.347828,-0.169624,40.2522,0.207522,
2,0,0,1,0,1192.49,0.20586,0.205522,-6.16162,1,0.0185548,10,-0.00126635,-2.21031,-0.353787,-0.166767,39.9218,0.205522,
2,0,0,1,0,1192.5,0.203862,0.203541,-6.2137,1,0.0184929,10,-0.00126474,-2.20665,-0.50284,-0.117333,28.4712,0.2035411,
2,0,0,1,0,1192.51,0.201865,0.201579,-6.27386,1,0.0184306,10,-0.00126468,-2.20247,-0.437235,-0.134939,33.0676,0.201579,
2,0,0,1,0,1192.52,0.199867,0.199567,-6.3451,1,0.0183674,10,-0.00126628,-2.19756,-0.352558,-0.167348,41.5179,0.199567,
2,0,0,1,0,1192.53,0.19786,0.197558,-6.44082,1,0.0183035,10,-0.00127244,-2.19106,-0.387581,-0.152226,38.1452,0.1975581,
2,0,0,1,0,1192.54,0.195863,0.195584,-6.49704,1,0.0182388,10,-0.00127072,-2.18728,-0.382435,-0.154274,39.2517,0.1955843,
2,0,0,1,0,1192.55,0.193865,0.193543,-6.59843,1,0.0181734,10,-0.00127708,-2.18056,-0.353934,-0.166698,42.8269,0.193543,
2,0,0,1,0,1192.56,0.191868,0.191553,-6.6697,1,0.018107,10,-0.0012776,-2.17589,-0.340345,-0.173353,45.2488,0.191553,
2,0,0,1,0,1192.57,0.189861,0.189555,-6.77886,1,0.0180397,10,-0.00128497,-2.16884,-0.321277,-0.183642,48.4924,0.189555,
2,0,0,1,0,1192.58,0.187863,0.187558,-6.86341,1,0.0179714,10,-0.00128729,-2.16346,-0.31971,-0.184542,49.5306,0.187558,
2,0,0,1,0,1192.59,0.185866,0.185563,-6.97658,1,0.0179022,10,-0.0012946,-2.15636,-0.303749,-0.194239,52.8225,0.185563,
2,0,0,1,0,1192.6,0.183868,0.183571,-7.07399,1,0.0178319,10,-0.00129858,-2.15034,-0.273122,-0.21602,59.8187,0.183571,
2,0,0,1,0,1192.61,0.18188,0.181567,-7.21562,1,0.0177613,10,-0.00131012,-2.14173,-0.251247,-0.234829,66.042,0.181567,
2,0,0,1,0,1192.62,0.179882,0.179543,-7.34002,1,0.0176885,10,-0.00131785,-2.1343,-0.270881,-0.217808,62.3884,0.179543,
2,0,0,1,0,1192.63,0.177885,0.177573,-7.4648,1,0.0176144,10,-0.00132555,-2.12698,-0.255205,-0.231187,67.4314,0.177573,
2,0,0,1,0,1192.64,0.175887,0.175555,-7.60897,1,0.017539,10,-0.00133579,-2.11867,-0.222544,-0.265117,78.8447,0.175555,
2,0,0,1,0,1192.65,0.173908,0.173602,-7.77793,1,0.0174629,10,-0.00135026,-2.10914,-0.206123,-0.286238,86.9214,0.173602,
2,0,0,1,0,1192.66,0.171901,0.171566,-7.95565,1,0.0173841,10,-0.00136492,-2.09932,-0.204415,-0.288628,89.6347,0.171566,
2,0,0,1,0,1192.67,0.169903,0.169566,-8.1397,1,0.0173037,10,-0.00138021,-2.08939,-0.188012,-0.31381,99.832,0.169566,
2,0,0,1,0,1192.68,0.167906,0.16761,-8.35061,1,0.0172212,10,-0.00139965,-2.07828,-0.174451,-0.338204,110.284,0.16761,
2,0,0,1,0,1192.69,0.165908,0.165619,-8.57497,1,0.0171365,10,-0.00142018,-2.06677,-0.167768,-0.351677,117.811,0.165619,
2,0,0,1,0,1192.7,0.163901,0.163616,-8.8212,1,0.0170495,10,-0.00144329,-2.05447,-0.158411,-0.372449,128.356,0.163616,
2,0,0,1,0,1192.71,0.161904,0.161598,-9.09114,1,0.0169599,10,-0.00146911,-2.04138,-0.153558,-0.384219,136.38,0.161598,
2,0,0,1,0,1192.72,0.159906,0.159557,-9.37472,1,0.0168675,10,-0.0014958,-2.02804,-0.142333,-0.414522,151.927,0.159557,
2,0,0,1,0,1192.73,0.157909,0.157604,-9.69787,1,0.0167721,10,-0.00152842,-2.01332,-0.129442,-0.455802,172.844,0.157604,
2,0,0,1,0,1192.74,0.155902,0.155554,-10.0666,1,0.0166732,10,-0.0015659,-1.99712,-0.125356,-0.470658,184.913,0.155554,
2,0,0,1,0,1192.75,0.153904,0.153562,-10.4453,1,0.0165706,10,-0.001604,-1.98108,-0.120485,-0.489686,199.864,0.153562,
2,0,0,1,0,1192.76,0.151907,0.151586,-10.8596,1,0.0164641,10,-0.00164617,-1.96419,-0.112731,-0.523369,222.124,0.151586,
2,0,0,1,0,1192.77,0.149909,0.149642,-11.316,1,0.0163532,10,-0.00169335,-1.94631,-0.1083,-0.544785,240.894,0.149642,
2,0,0,1,0,1192.78,0.147921,0.147624,-11.8142,1,0.0162386,10,-0.00174405,-1.9276,-0.107885,-0.546879,252.277,0.147624,
2,0,0,1,0,1192.79,0.145923,0.145587,-12.339,1,0.0161178,10,-0.0017964,-1.90872,-0.105353,-0.560021,269.803,0.145587,
2,0,0,1,0,1192.8,0.143926,0.143634,-12.8907,1,0.0159915,10,-0.00185154,-1.88972,-0.10175,-0.579852,292.147,0.1436336,
2,0,0,1,0,1192.81,0.141928,0.14162,-13.498,1,0.0158595,10,-0.00191158,-1.86973,-0.100471,-0.587236,309.251,0.14162,
2,0,0,1,0,1192.82,0.139939,0.139673,-14.1155,1,0.0157228,10,-0.00197155,-1.8503,-0.103261,-0.571366,314.717,0.1396732,
2,0,0,1,0,1192.83,0.137942,0.137648,-14.7479,1,0.0155785,10,-0.00203002,-1.83127,-0.107077,-0.551003,317.157,0.137648,
2,0,0,1,0,1192.84,0.135944,0.135621,-15.4008,1,0.0154277,10,-0.00208866,-1.81246,-0.107388,-0.549408,330.116,0.135621,
2,0,0,1,0,1192.85,0.133947,0.133665,-16.0628,1,0.0152703,10,-0.00214704,-1.79418,-0.114229,-0.516508,323.184,0.133665,
2,0,0,1,0,1192.86,0.13194,0.131657,-16.6819,1,0.0151066,10,-0.00219628,-1.77775,-0.117259,-0.50316,328.1,0.131657,
2,0,0,1,0,1192.87,0.129942,0.129678,-17.3711,1,0.0149362,10,-0.00225265,-1.76017,-0.117018,-0.504194,341.458,0.129678,
2,0,0,1,0,1192.88,0.127945,0.127673,-18.042,1,0.0147589,10,-0.00230348,-1.74372,-0.128686,-0.458479,322.285,0.127673,
2,0,0,1,0,1192.89,0.125947,0.125654,-18.668,1,0.0145753,10,-0.0023457,-1.7289,-0.136631,-0.431819,314.553,0.125654,
2,0,0,1,0,1192.9,0.123941,0.123667,-19.3023,1,0.0143854,10,-0.00238705,-1.71439,-0.143783,-0.410341,308.735,0.123667,
2,0,0,1,0,1192.91,0.121943,0.121655,-19.9026,1,0.0141893,10,-0.00242124,-1.70109,-0.1614,-0.36555,283.412,0.121655,
2,0,0,1,0,1192.92,0.119945,0.119651,-20.4403,1,0.0139874,10,-0.00244571,-1.68951,-0.177197,-0.332963,265.46,0.119651,
2,0,0,1,0,1192.93,0.117948,0.117657,-20.9638,1,0.0137804,10,-0.00246654,-1.67853,-0.190989,-0.308918,252.496,0.117657,
2,0,0,1,0,1192.94,0.115946,0.115634,-21.4548,1,0.0135682,10,-0.00248089,-1.66848,-0.206781,-0.285326,238.658,0.115634,
2,0,0,1,0,1192.95,0.113962,0.113702,-21.9078,1,0.0133534,10,-0.00249095,-1.6594,-0.229849,-0.256691,219.23,0.113702,
2,0,0,1,0,1192.96,0.111964,0.111692,-22.3189,1,0.0131321,10,-0.00249284,-1.65133,-0.255169,-0.23122,201.309,0.1116918,
2,0,0,1,0,1192.97,0.109967,0.109694,-22.7146,1,0.0129069,10,-0.00249165,-1.6437,-0.296543,-0.198959,176.051,0.109694,
2,0,0,1,0,1192.98,0.107969,0.107647,-23.031,1,0.0126781,10,-0.00247922,-1.63769,-0.349335,-0.168892,151.726,0.107647,
2,0,0,1,0,1192.99,0.10598,0.105662,-23.3263,1,0.0124485,10,-0.00246471,-1.63215,-0.405566,-0.145476,132.247,0.1056622,
2,0,0,1,0,1193,0.103983,0.103664,-23.5577,1,0.012214,10,-0.00244209,-1.62787,-0.518193,-0.113857,104.574,0.103664,
2,0,0,1,0,1193.01,0.101985,0.101674,-23.7434,1,0.0119775,10,-0.00241408,-1.62446,-0.715163,-0.0824986,76.3372,0.101674,
2,0,0,1,0,1193.02,0.0999877,0.0996749,-23.8623,1,0.0117394,10,-0.00237847,-1.62229,-0.973781,-0.0605886,56.4085,0.0996749,
2,0,0,1,0,1193.03,0.0979811,0.0976898,-23.9681,1,0.0115002,10,-0.00234144,-1.62037,-1.77906,-0.0331636,30.9648,0.0976898,
2,0,0,1,0,1193.04,0.0959835,0.0956526,-23.9868,1,0.0112603,10,-0.0022944,-1.62003,-39.6908,-0.00148649,1.39063,0.0956526,
2,0,0,1,0,1193.05,0.0939859,0.0936762,-23.9737,1,0.0110205,10,-0.00224577,-1.62027,2.42711,0.0243087,-22.7129,0.0936762,
2,0,0,1,0,1193.06,0.0919883,0.0916469,-23.8958,1,0.0107811,10,-0.00218998,-1.62168,1.29712,0.0454855,-42.4068,0.09164691,
2,0,0,1,0,1193.07,0.0899816,0.0896887,-23.8046,1,0.0105425,10,-0.002135,-1.62334,0.734423,0.0803351,-74.4562,0.0896887,
2,0,0,1,0,1193.08,0.087984,0.0876906,-23.6013,1,0.0103054,10,-0.00206961,-1.62706,0.537845,0.109697,-101.039,0.0876906,
2,0,0,1,0,1193.09,0.0859865,0.0856717,-23.3987,1,0.0100705,10,-0.00200461,-1.63081,0.452849,0.130286,-118.792,0.0856717,
2,0,0,1,0,1193.1,0.0839889,0.0836901,-23.126,1,0.00983778,10,-0.00193542,-1.6359,0.385605,0.153006,-138.071,0.0836901,
2,0,0,1,0,1193.11,0.0820004,0.0816817,-22.8478,1,0.00961026,10,-0.00186625,-1.64116,0.343925,0.171549,-152.782,0.0816817,
2,0,0,1,0,1193.12,0.0800028,0.0797038,-22.517,1,0.00938343,10,-0.00179469,-1.64749,0.311056,0.189677,-166.658,0.0797038,
2,0,0,1,0,1193.13,0.0780052,0.0776925,-22.183,1,0.00916002,10,-0.00172345,-1.65398,0.295413,0.199721,-172.788,0.0776925,
2,0,0,1,0,1193.14,0.0760076,0.0756859,-21.8228,1,0.00893997,10,-0.00165168,-1.66109,0.287137,0.205477,-175.079,0.0756859,
2,0,0,1,0,1193.15,0.0740191,0.0737118,-21.486,1,0.00872574,10,-0.00158377,-1.66784,0.286863,0.205673,-172.406,0.0737118,
2,0,0,1,0,1193.16,0.0720215,0.071718,-21.1387,1,0.0085126,10,-0.00151602,-1.67492,0.285596,0.206586,-170.496,0.071718,
2,0,0,1,0,1193.17,0.0700239,0.0697572,-20.8118,1,0.00830296,10,-0.00145177,-1.68169,0.293055,0.201327,-163.494,0.0697572,
2,0,0,1,0,1193.18,0.0680263,0.0676975,-20.4813,1,0.00809657,10,-0.00138654,-1.68864,0.312452,0.188829,-151.117,0.0676975,
2,0,0,1,0,1193.19,0.0660197,0.0657298,-20.2032,1,0.00789337,10,-0.00132795,-1.69458,0.319721,0.184536,-145.424,0.0657298,
2,0,0,1,0,1193.2,0.0640221,0.0637439,-19.9064,1,0.0076928,10,-0.00126891,-1.70101,0.327057,0.180397,-140.244,0.06374386,
2,0,0,1,0,1193.21,0.0620245,0.0617128,-19.6398,1,0.00749515,10,-0.00121203,-1.70686,0.344389,0.171318,-131.327,0.0617128,
2,0,0,1,0,1193.22,0.0600269,0.0597364,-19.3801,1,0.00730007,10,-0.0011577,-1.71264,0.362622,0.162704,-123.143,0.0597364,
2,0,0,1,0,1193.23,0.0580248,0.0577235,-19.1486,1,0.00710756,10,-0.00110532,-1.71786,0.380578,0.155027,-115.829,0.0577235,
2,0,0,1,0,1193.24,0.0560227,0.0556847,-18.9108,1,0.00691719,10,-0.00105304,-1.72329,0.384989,0.153251,-113.165,0.0556847,
2,0,0,1,0,1193.25,0.0540251,0.0537169,-18.6952,1,0.00672926,10,-0.00100425,-1.72827,0.392231,0.150421,-109.742,0.05371695,
2,0,0,1,0,1193.26,0.0520275,0.0517483,-18.4788,1,0.00654334,10,-0.000956248,-1.73333,0.389514,0.151471,-109.212,0.0517483,
2,0,0,1,0,1193.27,0.0500299,0.0496956,-18.256,1,0.00635971,10,-0.000907242,-1.73859,0.405497,0.1455,-103.741,0.0496956,
2,0,0,1,0,1193.28,0.0480414,0.0477262,-18.0615,1,0.00617986,10,-0.000862009,-1.74325,0.407682,0.144721,-101.966,0.0477262,
2,0,0,1,0,1193.29,0.0460438,0.0457387,-17.8525,1,0.00600036,10,-0.000816552,-1.7483,0.388839,0.151734,-105.686,0.0457387,
2,0,0,1,0,1193.3,0.0440462,0.0436884,-17.6348,1,0.00582291,10,-0.000770437,-1.75363,0.364287,0.16196,-111.435,0.0436884,
2,0,0,1,0,1193.31,0.0420486,0.0417582,-17.409,1,0.0056478,10,-0.000726968,-1.75923,0.372943,0.158201,-107.56,0.0417582,
2,0,0,1,0,1193.32,0.0400601,0.0397329,-17.2093,1,0.0054764,10,-0.000683777,-1.76424,0.368009,0.160322,-107.576,0.0397329,
2,0,0,1,0,1193.33,0.0380625,0.0377634,-16.9792,1,0.00530556,10,-0.000641193,-1.77008,0.314026,0.187882,-124.37,0.0377634,
2,0,0,1,0,1193.34,0.036065,0.0357671,-16.7161,1,0.0051371,10,-0.000597886,-1.77686,0.305715,0.19299,-125.967,0.03576706,
2,0,0,1,0,1193.35,0.0340674,0.0337421,-16.4727,1,0.00497119,10,-0.000555822,-1.78324,0.310913,0.189763,-121.962,0.0337421,
2,0,0,1,0,1193.36,0.0320607,0.031724,-16.223,1,0.00480766,10,-0.000514659,-1.78987,0.28302,0.208466,-131.863,0.031724,
2,0,0,1,0,1193.37,0.0300631,0.0297476,-15.9459,1,0.00464688,10,-0.000474354,-1.79735,0.261598,0.225537,-140.347,0.0297476,
2,0,0,1,0,1193.38,0.0280655,0.0277834,-15.67,1,0.00448875,10,-0.000435364,-1.80493,0.260777,0.226247,-138.337,0.0277834,
2,0,0,1,0,1193.39,0.0260679,0.0257419,-15.3918,1,0.00433349,10,-0.000396214,-1.81271,0.255271,0.231127,-138.811,0.0257419,
2,0,0,1,0,1193.4,0.0240613,0.0237603,-15.1115,1,0.00418095,10,-0.000359054,-1.82069,0.250864,0.235187,-138.717,0.0237603,
2,0,0,1,0,1193.41,0.0220637,0.0217474,-14.8377,1,0.00403125,10,-0.000322682,-1.82863,0.251255,0.234821,-135.956,0.0217474,
2,0,0,1,0,1193.42,0.0200661,0.0197224,-14.5625,1,0.00388426,10,-0.000287209,-1.83676,0.245994,0.239843,-136.337,0.0197224,
2,0,0,1,0,1193.43,0.0180685,0.0177781,-14.2965,1,0.00374001,10,-0.000254166,-1.84477,0.265726,0.222033,-124.036,0.0177781,
2,0,0,1,0,1193.44,0.01608,0.0157406,-14.0687,1,0.00359964,10,-0.00022145,-1.85175,0.281696,0.209446,-114.972,0.0157406,
2,0,0,1,0,1193.45,0.0140824,0.013781,-13.837,1,0.00346019,10,-0.000190687,-1.85896,0.289359,0.203899,-110.192,0.013781,
2,0,0,1,0,1193.46,0.0120848,0.0117466,-13.6285,1,0.0033229,10,-0.000160089,-1.86555,0.308039,0.191534,-101.884,0.01174661,
2,0,0,1,0,1193.47,0.0100873,0.00973767,-13.425,1,0.00318777,10,-0.000130729,-1.87208,0.333416,0.176956,-92.8396,0.00973767,
2,0,0,1,0,1193.48,0.00810328,0.0077729,-13.2596,1,0.00305571,10,-0.000103066,-1.87747,0.379737,0.155371,-80.4318,0.0077729,
2,0,0,1,0,1193.49,0.00610116,0.00576527,-13.1055,1,0.00292396,10,-7.55568e-05,-1.88255,0.400106,0.147461,-75.4344,0.00576527,
2,0,0,1,0,1193.5,0.00410357,0.00376196,-12.9571,1,0.00279366,10,-4.8744e-05,-1.88749,0.566763,0.1041,-52.8161,0.00376196,
2,0,0,1,0,1193.51,0.00210598,0.0017899,-12.8956,1,0.00266466,10,-2.30817e-05,-1.88956,0.669422,0.0881357,-44.2623,0.0017899,
2,0,0,1,0,1193.52,0.00010174,-0.000242901,-12.7798,1,0.00253621,10,3.10423e-06,-1.89348,0.591828,0.0996912,-49.7748,-0.000242901,
2,0,0,1,0,1193.53,-0.00189827,-0.00229999,-12.692,1,0.00240884,10,2.91915e-05,-1.89647,0.665259,0.0886872,-43.9308,-0.00229999,
2,0,0,1,0,1193.54,-0.00389586,-0.0042122,-12.6054,1,0.00228234,10,5.30966e-05,-1.89944,0.771647,0.0764599,-37.6498,-0.0042122,
2,0,0,1,0,1193.55,-0.00589345,-0.00626148,-12.5428,1,0.0021566,10,7.85368e-05,-1.9016,0.94695,0.0623053,-30.5015,-0.00626148,
2,0,0,1,0,1193.56,-0.00789103,-0.00824049,-12.4826,1,0.00203142,10,0.000102862,-1.9037,1.60486,0.0367633,-17.9444,-0.00824049,
2,0,0,1,0,1193.57,-0.0098977,-0.0102594,-12.4711,1,0.00190661,10,0.000127946,-1.9041,3.45429,0.0170802,-8.30939,-0.0102594,
2,0,0,1,0,1193.58,-0.0118953,-0.0123269,-12.4486,1,0.00178199,10,0.000153453,-1.90488,2.29007,0.0257634,-12.5143,-0.0123269,
2,0,0,1,0,1193.59,-0.0138929,-0.0142122,-12.4216,1,0.00165762,10,0.000176539,-1.90582,3.5071,0.016823,-8.16263,-0.0142122,
2,0,0,1,0,1193.6,-0.0158905,-0.0162424,-12.4166,1,0.00153336,10,0.000201676,-1.906,-5.65425,-0.0104346,5.06262,-0.0162424,
2,0,0,1,0,1193.61,-0.017879,-0.018242,-12.442,1,0.00141031,10,0.000226967,-1.90511,-3.34209,-0.0176536,8.56653,-0.018242,
2,0,0,1,0,1193.62,-0.0198766,-0.0202779,-12.4512,1,0.00128583,10,0.000252485,-1.90479,-7.01824,-0.00840667,4.08473,-0.0202779,
2,0,0,1,0,1193.63,-0.0218741,-0.0222288,-12.4583,1,0.00116137,10,0.000276934,-1.90454,-3.26547,-0.0180679,8.79198,-0.0222288,
2,0,0,1,0,1193.64,-0.0238717,-0.0242266,-12.4859,1,0.00103662,10,0.000302492,-1.90358,-1.52397,-0.0387146,18.8808,-0.0242266,
2,0,0,1,0,1193.65,-0.0258602,-0.0262598,-12.5344,1,0.000912778,10,0.000329151,-1.9019,-1.45776,-0.040473,19.784,-0.0262598,
2,0,0,1,0,1193.66,-0.0278578,-0.0281998,-12.5645,1,0.000787247,10,0.000354317,-1.90085,-1.51072,-0.0390541,19.1619,-0.0281998,
2,0,0,1,0,1193.67,-0.0298554,-0.0301961,-12.6099,1,0.000661411,10,0.000380769,-1.89929,-1.36176,-0.0433264,21.3177,-0.0301961,
2,0,0,1,0,1193.68,-0.031853,-0.0322228,-12.6503,1,0.000535064,10,0.000407629,-1.8979,-1.14983,-0.0513119,25.3535,-0.0322228,
2,0,0,1,0,1193.69,-0.0338597,-0.0342105,-12.7116,1,0.000408298,10,0.000434872,-1.8958,-1.06543,-0.0553765,27.4588,-0.0342105,
2,0,0,1,0,1193.7,-0.0358573,-0.0362511,-12.7609,1,0.000280897,10,0.000462598,-1.89412,-0.988962,-0.0596585,29.7342,-0.0362511,
2,0,0,1,0,1193.71,-0.0378548,-0.0381989,-12.8302,1,0.000152901,10,0.000490101,-1.89177,-0.997284,-0.0591607,29.5961,-0.0381989,
2,0,0,1,0,1193.72,-0.0398524,-0.0401502,-12.8763,1,2.42973e-05,10,0.000516986,-1.89021,-0.863806,-0.0683023,34.3843,-0.0401502,
2,0,0,1,0,1193.73,-0.0418591,-0.0422142,-12.9683,1,-0.000104878,10,0.000547446,-1.88712,-0.797785,-0.0739548,37.3828,-0.0422142,
2,0,0,1,0,1193.74,-0.0438567,-0.0442158,-13.0283,1,-0.000234892,10,0.000576056,-1.88511,-0.944859,-0.0624432,31.7566,-0.0442158,
2,0,0,1,0,1193.75,-0.0458543,-0.0461844,-13.0944,1,-0.0003655,10,0.000604755,-1.88292,-0.899088,-0.0656221,33.5348,-0.0461844,
2,0,0,1,0,1193.76,-0.0478519,-0.048159,-13.1605,1,-0.000496827,10,0.000633798,-1.88073,-0.711581,-0.0829139,42.6493,-0.048159,
2,0,0,1,0,1193.77,-0.0498585,-0.050217,-13.2664,1,-0.000628882,10,0.000666196,-1.87725,-0.69017,-0.0854861,44.2038,-0.050217,
2,0,0,1,0,1193.78,-0.051838,-0.0521943,-13.3389,1,-0.000760623,10,0.000696215,-1.87488,-0.832306,-0.0708874,36.9041,-0.0521943,
2,0,0,1,0,1193.79,-0.0538355,-0.0541921,-13.4131,1,-0.000894327,10,0.000726882,-1.87247,-0.76753,-0.07687,40.2597,-0.0541921,
2,0,0,1,0,1193.8,-0.0558331,-0.0562281,-13.5013,1,-0.00102893,10,0.000759153,-1.86962,-0.70582,-0.0835907,44.0413,-0.0562281,
2,0,0,1,0,1193.81,-0.0578126,-0.0581556,-13.5876,1,-0.00116299,10,0.000790195,-1.86686,-0.700185,-0.0842634,44.6893,-0.0581556,
2,0,0,1,0,1193.82,-0.0598192,-0.0601797,-13.6779,1,-0.00129942,10,0.000823132,-1.86398,-0.634106,-0.0930444,49.7062,-0.0601797,
2,0,0,1,0,1193.83,-0.0618168,-0.0622255,-13.7899,1,-0.00143672,10,0.000858084,-1.86044,-0.620407,-0.0950989,51.144,-0.0622255,
2,0,0,1,0,1193.84,-0.0638144,-0.0641898,-13.883,1,-0.00157509,10,0.000891146,-1.85752,-0.677898,-0.0870337,47.1534,-0.0641898,
2,0,0,1,0,1193.85,-0.065812,-0.066154,-13.9752,1,-0.00171434,10,0.000924513,-1.85464,-0.625402,-0.0943393,51.491,-0.06615404,
2,0,0,1,0,1193.86,-0.0678187,-0.0681782,-14.0884,1,-0.00185479,10,0.000960518,-1.85114,-0.579268,-0.101853,55.9932,-0.0681782,
2,0,0,1,0,1193.87,-0.0698163,-0.0701372,-14.1982,1,-0.00199622,10,0.000995821,-1.84777,-0.609775,-0.0967571,53.6011,-0.0701372,
2,0,0,1,0,1193.88,-0.0718138,-0.0721579,-14.3017,1,-0.00213882,10,0.00103198,-1.84461,-0.594482,-0.099246,55.4276,-0.0721579,
2,0,0,1,0,1193.89,-0.0738114,-0.0741941,-14.423,1,-0.00228243,10,0.00107011,-1.84094,-0.520959,-0.113253,63.7728,-0.0741941,
2,0,0,1,0,1193.9,-0.0758181,-0.0761497,-14.5562,1,-0.00242745,10,0.00110845,-1.83695,-0.530118,-0.111296,63.1953,-0.0761497,
2,0,0,1,0,1193.91,-0.0778157,-0.0782007,-14.6762,1,-0.00257366,10,0.00114769,-1.83338,-0.544659,-0.108325,62.0678,-0.07820075,
2,0,0,1,0,1193.92,-0.0798133,-0.0802023,-14.8078,1,-0.00272113,10,0.00118762,-1.82951,-0.500013,-0.117997,68.2128,-0.0802023,
2,0,0,1,0,1193.93,-0.0818109,-0.0822108,-14.9498,1,-0.00286992,10,0.00122903,-1.82537,-0.465971,-0.126617,73.8934,-0.0822108,
2,0,0,1,0,1193.94,-0.0837994,-0.0841648,-15.1006,1,-0.00301874,10,0.00127094,-1.82101,-0.463508,-0.12729,74.9899,-0.0841648,
2,0,0,1,0,1193.95,-0.0857969,-0.0861062,-15.2419,1,-0.00317039,10,0.00131242,-1.81696,-0.467706,-0.126148,75.0761,-0.0861062,
2,0,0,1,0,1193.96,-0.0877945,-0.0881485,-15.3997,1,-0.00332362,10,0.00135746,-1.81249,-0.462598,-0.127541,76.6377,-0.0881485,
2,0,0,1,0,1193.97,-0.0897921,-0.0901622,-15.5527,1,-0.00347838,10,0.00140227,-1.80819,-0.457162,-0.129057,78.3476,-0.09016221,
2,0,0,1,0,1193.98,-0.0917806,-0.0921371,-15.7122,1,-0.00363317,10,0.00144767,-1.80376,-0.432901,-0.13629,83.6007,-0.0921371,
2,0,0,1,0,1193.99,-0.0937782,-0.094117,-15.8834,1,-0.00379113,10,0.00149489,-1.79906,-0.443212,-0.133119,82.4768,-0.094117,
2,0,0,1,0,1194,-0.0957758,-0.0961116,-16.04,1,-0.00395085,10,0.00154163,-1.7948,-0.454401,-0.129841,81.3092,-0.0961116,
2,0,0,1,0,1194.01,-0.0977734,-0.0981279,-16.2095,1,-0.00411213,10,0.0015906,-1.79023,-0.422104,-0.139776,88.4555,-0.0981279,
2,0,0,1,0,1194.02,-0.0997412,-0.100094,-16.3922,1,-0.00427192,10,0.00164076,-1.78536,0.0916362,0.64385,-397.673,-0.100094,
2,0,0,1,1,1194.02,-0.0996711,-0.10004,-15.4491,1,-0.0043199,10,0.00154553,-1.8111,-0.0114834,-5.13787,2684.93,-0.10004,
2,0,0,1,1,1194.03,-0.0976826,-0.0980031,-10.7791,1,-0.00444755,10,0.00105639,-1.96742,-0.0121935,-4.83864,2050.72,-0.0980031,
2,0,0,1,1,1194.04,-0.095685,-0.0960586,-7.28408,1,-0.00453678,10,0.000699698,-2.13763,-0.0104108,-5.6672,1594.64,-0.0960586,
2,0,0,1,1,1194.05,-0.0936874,-0.0940855,-4.53185,1,-0.00459504,10,0.000426381,-2.34372,-0.00778212,-7.58148,1268.66,-0.0940855,
2,0,0,1,1,1194.06,-0.0916898,-0.0920932,-2.25332,1,-0.00462839,10,0.000207515,-2.64718,-0.00381552,-15.4632,1030.87,-0.0920932,
2,0,0,1,1,1194.07,-0.0897013,-0.0900817,-0.40453,1,-0.00464101,10,3.64408e-05,-3.39305,-0.0143516,-4.11105,853.504,-0.0900817,
2,1,0,1,1,1194.08,-0.0877037,-0.0880689,1.18144,1,-0.00463676,10,-0.000104048,-2.92759,0.00499496,11.8119,736.354,-0.0880689,
2,1,0,1,1,1194.09,-0.0857062,-0.0861194,2.51316,1,-0.00461788,10,-0.000216432,-2.59978,0.00810099,7.28306,621.756,-0.0861194,
2,1,0,1,1,1194.1,-0.0837086,-0.0841031,3.64722,1,-0.00458675,10,-0.000306743,-2.43804,0.0151996,3.88169,524.687,-0.08410307,
2,1,0,1,1,1194.11,-0.0817019,-0.0820894,4.62767,1,-0.00454505,10,-0.000379882,-2.33464,0.0226856,2.60077,457.721,-0.0820894,
2,1,0,1,1,1194.12,-0.0797043,-0.0800592,5.49821,1,-0.00449428,10,-0.000440182,-2.25978,0.0307498,1.91871,403.282,-0.0800592,
2,1,0,1,1,1194.13,-0.0777067,-0.0781357,6.22211,1,-0.00443545,10,-0.000486169,-2.20606,0.0411394,1.43415,344.582,-0.0781357,
2,1,0,1,1,1194.14,-0.0757091,-0.0760916,6.86536,1,-0.0043699,10,-0.000522396,-2.16334,0.0528154,1.1171,296.924,-0.0760916,
2,1,0,1,1,1194.15,-0.0737025,-0.0740501,7.43521,1,-0.00429822,10,-0.000550578,-2.12871,0.0646377,0.91278,262.974,-0.0740501,
2,1,0,1,1,1194.16,-0.0717049,-0.072065,7.92423,1,-0.00422129,10,-0.00057106,-2.10104,0.0806618,0.731449,224.878,-0.07206504,
2,1,0,1,1,1194.17,-0.0697073,-0.0700383,8.33738,1,-0.00413985,10,-0.000583936,-2.07897,0.0963733,0.612203,198.618,-0.0700383,
2,1,0,1,1,1194.18,-0.0677097,-0.0680871,8.71433,1,-0.00405452,10,-0.000593333,-2.05977,0.112386,0.524977,177.916,-0.0680871,
2,1,0,1,1,1194.19,-0.0657212,-0.0660907,9.03972,1,-0.00396656,10,-0.000597442,-2.04384,0.138411,0.426267,149.943,-0.06609071,
2,1,0,1,1,1194.2,-0.0637236,-0.0640547,9.31895,1,-0.00387475,10,-0.000596923,-2.03063,0.167249,0.352767,127.968,-0.0640547,
2,1,0,1,1,1194.21,-0.061726,-0.0620641,9.555,1,-0.00378034,10,-0.000593022,-2.01977,0.189714,0.310995,115.854,-0.0620641,
2,1,0,1,1,1194.22,-0.0597284,-0.060114,9.7755,1,-0.00368365,10,-0.000587644,-2.00986,0.22132,0.266583,101.487,-0.060114,
2,1,0,1,1,1194.23,-0.0577399,-0.0581009,9.95721,1,-0.00358593,10,-0.000578523,-2.00186,0.260996,0.226057,87.7814,-0.0581009,
2,1,0,1,1,1194.24,-0.0557423,-0.0561158,10.1265,1,-0.00348552,10,-0.000568255,-1.99454,0.30908,0.190889,75.3089,-0.0561158,
2,1,0,1,1,1194.25,-0.0537447,-0.0540535,10.262,1,-0.00338352,10,-0.000554698,-1.98877,0.375943,0.156939,62.7934,-0.0540535,
2,1,0,1,1,1194.26,-0.0517472,-0.0520919,10.3791,1,-0.00328028,10,-0.000540669,-1.98384,0.42488,0.138863,56.2119,-0.0520919,
2,1,0,1,1,1194.27,-0.049745,-0.0501129,10.4835,1,-0.00317593,10,-0.00052536,-1.97949,0.449302,0.131315,53.7412,-0.0501129,
2,1,0,1,1,1194.28,-0.0477429,-0.0480835,10.5946,1,-0.00307049,10,-0.000509424,-1.97492,0.567927,0.103887,42.8547,-0.0480835,
2,1,0,1,1,1194.29,-0.0457453,-0.0460655,10.657,1,-0.00296418,10,-0.000490919,-1.97237,0.760659,0.0775643,32.2654,-0.0460655,
2,1,0,1,1,1194.3,-0.0437477,-0.0440891,10.7234,1,-0.00285732,10,-0.000472787,-1.96967,0.877339,0.0672488,28.1142,-0.04408909,
2,1,0,1,1,1194.31,-0.0417501,-0.0421326,10.7675,1,-0.00274979,10,-0.000453665,-1.96788,0.90286,0.0653479,27.4873,-0.0421326,
2,1,0,1,1,1194.32,-0.0397435,-0.0401155,10.8327,1,-0.00264174,10,-0.000434557,-1.96526,1.18786,0.0496693,20.9542,-0.0401155,
2,1,0,1,1,1194.33,-0.0377459,-0.0380922,10.8522,1,-0.0025333,10,-0.000413384,-1.96448,1.52677,0.0386436,16.3866,-0.0380922,
2,1,0,1,1,1194.34,-0.0357483,-0.0361106,10.8983,1,-0.00242463,10,-0.000393544,-1.96264,1.86376,0.0316565,13.4403,-0.0361106,
2,1,0,1,1,1194.35,-0.0337507,-0.0341203,10.9056,1,-0.00231559,10,-0.000372102,-1.96235,2.6534,0.0222357,9.47385,-0.0341203,
2,1,0,1,1,1194.36,-0.0317622,-0.0321081,10.9362,1,-0.00220749,10,-0.000351141,-1.96113,4.61049,0.0127969,5.45193,-0.0321081,
2,1,0,1,1,1194.37,-0.0297646,-0.0301302,10.9273,1,-0.00209814,10,-0.000329243,-1.96149,11.6333,0.00507166,2.16547,-0.0301302,
2,1,0,1,1,1194.38,-0.027767,-0.0281061,10.9449,1,-0.00198879,10,-0.000307618,-1.96079,-78.3564,-0.000752969,-0.321093,-0.0281061,
2,1,0,1,1,1194.39,-0.0257694,-0.0261696,10.9261,1,-0.00187941,10,-0.000285931,-1.96154,-16.9237,-0.00348623,-1.48872,-0.0261696,
2,1,0,1,1,1194.4,-0.0237809,-0.024109,10.9389,1,-0.00177119,10,-0.000263727,-1.96103,70.7346,0.000834104,0.355694,-0.024109,
2,1,0,1,1,1194.41,-0.0217833,-0.0221447,10.9275,1,-0.00166182,10,-0.000241987,-1.96148,-4.26104,-0.0138464,-5.90484,-0.02214474,
2,1,0,1,1,1194.42,-0.0197858,-0.0201284,10.9154,1,-0.00155262,10,-0.00021971,-1.96196,-2.75888,-0.0213855,-9.10504,-0.0201284,
2,1,0,1,1,1194.43,-0.0177882,-0.0181598,10.8912,1,-0.00144357,10,-0.000197783,-1.96292,-5.67293,-0.0104003,-4.42683,-0.0181598,
2,1,0,1,1,1194.44,-0.0157815,-0.0160958,10.8976,1,-0.00133466,10,-0.000175405,-1.96267,-3.68408,-0.0160149,-6.79851,-0.0160958,
2,1,0,1,1,1194.45,-0.0137839,-0.0141072,10.8637,1,-0.00122582,10,-0.000153256,-1.96402,-1.86211,-0.0316845,-13.4425,-0.0141072,
2,1,0,1,1,1194.46,-0.0117863,-0.0121482,10.8445,1,-0.00111731,10,-0.000131741,-1.96479,-2.4516,-0.0240659,-10.1842,-0.0121482,
2,1,0,1,1,1194.47,-0.00978874,-0.0101145,10.823,1,-0.00100893,10,-0.00010947,-1.96565,-4.67309,-0.0126255,-5.33815,-0.0101145,
2,1,0,1,1,1194.48,-0.00778207,-0.00812423,10.823,1,-0.000900749,10,-8.79287e-05,-1.96565,-2.16609,-0.0272381,-11.4809,-0.00812423,
2,1,0,1,1,1194.49,-0.00578449,-0.00616865,10.7777,1,-0.000792749,10,-6.64839e-05,-1.96747,-1.827,-0.0322933,-13.6059,-0.00616865,
2,1,0,1,1,1194.5,-0.0037869,-0.00411676,10.7685,1,-0.00068505,10,-4.43313e-05,-1.96784,-2.34075,-0.0252056,-10.5808,-0.00411676,
2,1,0,1,1,1194.51,-0.00178931,-0.00210565,10.7347,1,-0.000577519,10,-2.26036e-05,-1.96921,-1.60743,-0.0367046,-15.3854,-0.00210565,
2,1,0,0,1,1194.52,-2.55332e-05,-0.000478022,10.7125,1,-0.000484248,10,-5.12082e-06,-1.97011, , , ,-0.000478022,