File: Figure_codes/Fig_3-5/rawdata_trumpetplot_data/after 10th/20221101_1-115_003_TrumpetPlot_ParaChange_from10_every3_05_CV_C01_14.csv
mode,ox/red,error,control changes,counter inc.,time/s,control/V,Ewe/V,<I>/mA,cycle number,(Q-Qo)/C,I Range,P/W,log(|I|),Tafel slope mV/dec,alpha_eff,dI/d(E-IR),E-IR/V,
2,0,0,1,0,28701.8,2.44065e-05,-0.000458935,-0.757051,15,0.0000000E+000,10,3.47437e-07,-3.12087, , , ,-0.000458935,
2,0,0,1,0,28701.9,0.00129787,0.000935368,0.0642143,15,-1.40494e-05,10,6.0064e-08,-4.19237, , , ,0.000935368,
2,1,0,1,0,28702,0.00279606,0.00247872,0.399905,15,6.34155e-06,10,9.91253e-07,-3.39804,0.00691563,8.53139,171.744,0.00247872,
2,1,0,1,0,28702.1,0.00429425,0.00397912,0.528089,15,4.29503e-05,10,2.10133e-06,-3.27729,0.0141314,4.17511,74.5564,0.00397912,
2,1,0,1,0,28702.1,0.00579244,0.00550449,0.602917,15,8.68471e-05,10,3.31875e-06,-3.21974,0.0298018,1.97975,44.9376,0.00550449,
2,1,0,1,0,28702.2,0.00729063,0.00699779,0.66192,15,0.000135558,10,4.63198e-06,-3.17919,0.0452086,1.30506,32.9555,0.00699779,
2,1,0,1,0,28702.3,0.00878882,0.00849532,0.705286,15,0.000187908,10,5.99162e-06,-3.15164,0.0619616,0.952203,25.8294,0.00849532,
2,1,0,1,0,28702.4,0.010287,0.00996891,0.736379,15,0.000243101,10,7.34089e-06,-3.1329,0.0819345,0.720087,20.5407,0.00996891,
2,1,0,1,0,28702.4,0.0117852,0.0114622,0.763908,15,0.000300686,10,8.75607e-06,-3.11696,0.0900042,0.655525,19.5414,0.0114622,
2,1,0,1,0,28702.5,0.0132847,0.0129653,0.793606,15,0.000360259,10,1.02894e-05,-3.1004,0.0986548,0.598045,18.5293,0.01296533,
2,1,0,1,0,28702.6,0.0147802,0.0144767,0.820133,15,0.000421762,10,1.18728e-05,-3.08612,0.111825,0.527609,16.8363,0.0144767,
2,1,0,1,0,28702.7,0.0162798,0.0159803,0.841232,15,0.00048546,10,1.34431e-05,-3.07508,0.130561,0.451895,14.8097,0.0159803,
2,1,0,1,0,28702.7,0.017778,0.017465,0.863808,15,0.000550627,10,1.50864e-05,-3.06358,0.142972,0.412667,13.9349,0.017465,
2,1,0,1,0,28702.8,0.0192761,0.0189391,0.88372,15,0.000617225,10,1.67368e-05,-3.05369,0.141239,0.417731,14.4007,0.0189391,
2,1,0,1,0,28702.9,0.0207743,0.0204511,0.908297,15,0.000685507,10,1.85756e-05,-3.04177,0.149879,0.39365,13.8849,0.0204511,
2,1,0,1,0,28703,0.0222725,0.0219612,0.926597,15,0.000755381,10,2.03492e-05,-3.03311,0.160271,0.368127,13.2879,0.0219612,
2,1,0,1,0,28703,0.0237707,0.0234923,0.946232,15,0.000826761,10,2.22291e-05,-3.024,0.166143,0.355115,13.1173,0.0234923,
2,1,0,1,0,28703.1,0.0252689,0.0249782,0.961682,15,0.000899475,10,2.4021e-05,-3.01697,0.177696,0.332028,12.523,0.0249782,
2,1,0,1,0,28703.2,0.0267671,0.0264783,0.98532,15,0.000973726,10,2.60896e-05,-3.00642,0.159569,0.369747,14.1957,0.0264783,
2,1,0,1,0,28703.3,0.0282653,0.0279749,1.00766,15,0.00104955,10,2.81892e-05,-2.99668,0.172293,0.342439,13.4458,0.0279749,
2,1,0,1,0,28703.3,0.0297644,0.0294304,1.02723,15,0.00112703,10,3.02319e-05,-2.98833,0.18624,0.316796,12.6649,0.0294304,
2,1,0,1,0,28703.4,0.0312599,0.0309365,1.04233,15,0.00120563,10,3.22459e-05,-2.982,0.189512,0.311326,12.6918,0.0309365,
2,1,0,1,0,28703.5,0.0327599,0.0324724,1.06463,15,0.00128584,10,3.4571e-05,-2.9728,0.184002,0.320648,13.3247,0.0324724,
2,1,0,1,0,28703.6,0.034258,0.0339269,1.08373,15,0.00136752,10,3.67675e-05,-2.96508,0.186356,0.316599,13.3923,0.0339269,
2,1,0,1,0,28703.6,0.0357562,0.0354147,1.10352,15,0.00145077,10,3.90808e-05,-2.95722,0.216964,0.271934,11.6941,0.0354147,
2,1,0,1,0,28703.7,0.0372544,0.0369375,1.12469,15,0.00153548,10,4.15433e-05,-2.94897,0.206439,0.285798,12.5483,0.0369375,
2,1,0,1,0,28703.8,0.0387526,0.0384271,1.14077,15,0.00162139,10,4.38363e-05,-2.9428,0.203479,0.289957,12.9413,0.0384271,
2,1,0,1,0,28703.9,0.0402508,0.0399586,1.16357,15,0.00170896,10,4.64948e-05,-2.93421,0.182755,0.322837,14.6391,0.03995863,
2,1,0,1,0,28703.9,0.041749,0.0414173,1.18325,15,0.00179811,10,4.90071e-05,-2.92692,0.216682,0.272288,12.5643,0.0414173,
2,1,0,1,0,28704,0.0432472,0.04294,1.20381,15,0.00188861,10,5.16916e-05,-2.91944,0.236723,0.249236,11.6777,0.04294,
2,1,0,1,0,28704.1,0.0447449,0.0444487,1.2179,15,0.00198034,10,5.41343e-05,-2.91439,0.228404,0.258315,12.2795,0.0444487,
2,1,0,1,0,28704.2,0.0462445,0.0459636,1.23609,15,0.00207366,10,5.68153e-05,-2.90795,0.202067,0.291982,14.1017,0.0459636,
2,1,0,1,0,28704.2,0.04774,0.0474308,1.25715,15,0.00216822,10,5.96275e-05,-2.90061,0.224677,0.262599,12.8776,0.0474308,
2,1,0,1,0,28704.3,0.0492399,0.0489361,1.27277,15,0.0022644,10,6.22843e-05,-2.89525,0.23544,0.250595,12.4731,0.0489361,
2,1,0,1,0,28704.4,0.0507381,0.0504024,1.28683,15,0.00236162,10,6.48595e-05,-2.89048,0.261614,0.225523,11.3759,0.0504024,
2,1,0,1,0,28704.5,0.0522363,0.0518882,1.3086,15,0.00246018,10,6.79011e-05,-2.88319,0.243025,0.242773,12.4016,0.0518882,
2,1,0,1,0,28704.5,0.0537345,0.0534353,1.33078,15,0.00256016,10,7.11109e-05,-2.87589,0.271755,0.217108,11.2412,0.0534353,
2,1,0,1,0,28704.6,0.0552327,0.0549325,1.34446,15,0.00266147,10,7.38546e-05,-2.87145,0.311116,0.18964,9.93002,0.0549325,
2,1,0,1,0,28704.7,0.0567309,0.0564067,1.35714,15,0.00276396,10,7.6552e-05,-2.86737,0.308595,0.191189,10.1391,0.0564067,
2,1,0,1,0,28704.8,0.0582291,0.0578707,1.3754,15,0.0028675,10,7.95951e-05,-2.86157,0.295237,0.19984,10.7333,0.0578707,
2,1,0,1,0,28704.8,0.0597291,0.0593617,1.39317,15,0.00297248,10,8.27012e-05,-2.85599,0.277008,0.212991,11.5568,0.0593617,
2,1,0,1,0,28704.9,0.0612246,0.0609704,1.40905,15,0.00307842,10,8.59103e-05,-2.85107,0.327778,0.18,9.8786,0.0609704,
2,1,0,1,0,28705,0.0627241,0.062411,1.42286,15,0.00318577,10,8.88022e-05,-2.84684,0.348217,0.169435,9.39932,0.062411,
2,1,0,1,0,28705.1,0.0642219,0.0639268,1.43414,15,0.00329388,10,9.16802e-05,-2.84341,0.323926,0.18214,10.2159,0.0639268,
2,1,0,1,0,28705.1,0.06572,0.0654326,1.45159,15,0.00340312,10,9.49812e-05,-2.83816,0.31635,0.186502,10.556,0.0654326,
2,1,0,1,0,28705.2,0.0672182,0.0669458,1.46669,15,0.00351362,10,9.81889e-05,-2.83366,0.367648,0.160479,9.16907,0.0669458,
2,1,0,1,0,28705.3,0.0687164,0.0684398,1.47884,15,0.00362509,10,0.000101211,-2.83008,0.444178,0.13283,7.65189,0.0684398,
2,1,0,1,0,28705.4,0.0702146,0.0698981,1.48846,15,0.00373744,10,0.00010404,-2.82726,0.400767,0.147218,8.56108,0.0698981,
2,1,0,1,0,28705.4,0.0717128,0.0714134,1.50488,15,0.00385076,10,0.000107468,-2.8225,0.369141,0.159831,9.37742,0.07141342,
2,1,0,1,0,28705.5,0.073211,0.0729038,1.51537,15,0.00396504,10,0.000110476,-2.81948,0.421486,0.139981,8.28848,0.0729038,
2,1,0,1,0,28705.6,0.0747092,0.0743835,1.52836,15,0.00408018,10,0.000113685,-2.81578,0.531161,0.111077,6.61424,0.0743835,
2,1,0,1,0,28705.7,0.0762087,0.0758627,1.53319,15,0.00419629,10,0.000116312,-2.81441,0.509437,0.115814,6.94652,0.0758627,
2,1,0,1,0,28705.7,0.0777042,0.0773618,1.54951,15,0.00431275,10,0.000119873,-2.80981,0.463381,0.127325,7.7014,0.0773618,
2,1,0,1,0,28705.8,0.0792037,0.0788989,1.55965,15,0.00443033,10,0.000123055,-2.80697,0.506873,0.1164,7.0793,0.0788989,
2,1,0,1,0,28705.9,0.0807019,0.0804065,1.56921,15,0.00454876,10,0.000126175,-2.80432,0.547445,0.107773,6.58703,0.0804065,
2,1,0,1,0,28706,0.0822001,0.0818998,1.57824,15,0.00466796,10,0.000129257,-2.80183,0.616791,0.0956564,5.89951,0.08189977,
2,1,0,1,0,28706,0.0836983,0.0833651,1.58798,15,0.00478775,10,0.000132382,-2.79916,0.528913,0.11155,6.92799,0.0833651,
2,1,0,1,0,28706.1,0.0851965,0.0848528,1.60077,15,0.00490847,10,0.00013583,-2.79567,0.45703,0.129094,8.07224,0.0848528,
2,1,0,1,0,28706.2,0.0866947,0.0863174,1.61362,15,0.00503011,10,0.000139284,-2.7922,0.492113,0.119891,7.54687,0.0863174,
2,1,0,1,0,28706.3,0.0881929,0.0878761,1.62543,15,0.00515273,10,0.000142836,-2.78903,0.441483,0.13364,8.48667,0.0878761,
2,1,0,1,0,28706.3,0.0896911,0.0893944,1.63966,15,0.00527613,10,0.000146576,-2.78525,0.413729,0.142606,9.14591,0.0893944,
2,1,0,1,0,28706.4,0.0911893,0.0908774,1.6563,15,0.00540068,10,0.000150521,-2.78086,0.324936,0.181574,11.739,0.0908774,
2,1,0,1,0,28706.5,0.0926884,0.0923499,1.67434,15,0.0055268,10,0.000154625,-2.77616,0.305973,0.192827,12.5895,0.0923499,
2,1,0,1,0,28706.6,0.0941839,0.0938815,1.69154,15,0.00565398,10,0.000158804,-2.77172,0.30971,0.190501,12.5959,0.0938815,
2,1,0,1,0,28706.6,0.0956838,0.0953436,1.70879,15,0.00578276,10,0.000162922,-2.76731,0.27665,0.213266,14.282,0.0953436,
2,1,0,1,0,28706.7,0.097182,0.0968545,1.73451,15,0.00591301,10,0.000167995,-2.76082,0.223438,0.264056,17.895,0.0968545,
2,1,0,1,0,28706.8,0.0986802,0.0983445,1.75953,15,0.00604524,10,0.00017304,-2.7546,0.22657,0.260405,17.9164,0.0983445,
2,1,0,1,0,28706.9,0.100178,0.0998866,1.78843,15,0.00617947,10,0.00017864,-2.74753,0.234364,0.251745,17.5879,0.0998866,
2,1,0,1,0,28706.9,0.101677,0.101342,1.81365,15,0.00631569,10,0.000183798,-2.74145,0.219376,0.268944,19.0928,0.101342,
2,1,0,1,0,28707,0.103175,0.102835,1.84759,15,0.00645405,10,0.000189997,-2.73339,0.202763,0.290981,20.9968,0.1028353,
2,1,0,1,0,28707.1,0.104673,0.104331,1.88197,15,0.00659497,10,0.000196348,-2.72539,0.202759,0.290985,21.3392,0.104331,
2,1,0,1,0,28707.1,0.106171,0.105871,1.91569,15,0.00673841,10,0.000202816,-2.71768,0.207437,0.284424,21.2247,0.1058711,
2,1,0,1,0,28707.2,0.107669,0.107369,1.94446,15,0.00688417,10,0.000208775,-2.7112,0.20876,0.282621,21.474,0.107369,
2,1,0,1,0,28707.3,0.109168,0.108858,1.97692,15,0.00703241,10,0.000215203,-2.70401,0.212959,0.277049,21.3792,0.108858,
2,1,0,1,0,28707.4,0.110664,0.110353,2.00867,15,0.00718273,10,0.000221663,-2.69709,0.220984,0.266988,20.908,0.110353,
2,1,0,1,0,28707.4,0.112164,0.111849,2.0377,15,0.00733575,10,0.000227914,-2.69086,0.254135,0.23216,18.4273,0.111849,
2,1,0,1,0,28707.5,0.113662,0.113374,2.06644,15,0.0074906,10,0.00023428,-2.68478,0.280501,0.210338,16.9291,0.113374,
2,1,0,1,0,28707.6,0.11516,0.11485,2.08899,15,0.00764719,10,0.00023992,-2.68006,0.306163,0.192708,15.697,0.11485,
2,1,0,1,0,28707.7,0.116658,0.116317,2.11266,15,0.00780571,10,0.000245738,-2.67517,0.311676,0.189299,15.5741,0.116317,
2,1,0,1,0,28707.7,0.118157,0.117825,2.13695,15,0.00796614,10,0.000251786,-2.67021,0.345281,0.170875,14.211,0.117825,
2,1,0,1,0,28707.8,0.119655,0.119329,2.15357,15,0.00812797,10,0.000256983,-2.66684,0.501964,0.117538,9.87118,0.119329,
2,1,0,1,0,28707.9,0.121153,0.120867,2.1664,15,0.0082909,10,0.000261847,-2.66426,0.483092,0.12213,10.3356,0.120867,
2,1,0,1,0,28708,0.122653,0.122379,2.18308,15,0.00845523,10,0.000267163,-2.66093,0.430826,0.136946,11.6528,0.122379,
2,1,0,1,0,28708,0.124149,0.123842,2.19888,15,0.0086203,10,0.000272314,-2.6578,0.528889,0.111555,9.56333,0.123842,
2,1,0,1,0,28708.1,0.125648,0.125323,2.213,15,0.00878686,10,0.00027734,-2.65502,0.548286,0.107608,9.27821,0.125323,
2,1,0,1,0,28708.2,0.127146,0.126817,2.21911,15,0.00895413,10,0.000281422,-2.65382,0.647112,0.0911743,7.90887,0.126817,
2,1,0,1,0,28708.3,0.128644,0.12833,2.23655,15,0.00912233,10,0.000287016,-2.65042,0.616187,0.0957502,8.3566,0.12833,
2,1,0,1,0,28708.3,0.130142,0.129815,2.24946,15,0.00929154,10,0.000292014,-2.64792,0.634902,0.0929277,8.15141,0.129815,
2,1,0,1,0,28708.4,0.13164,0.131317,2.26019,15,0.00946169,10,0.000296801,-2.64586,1.1045,0.0534177,4.70145,0.131317,
2,1,0,1,0,28708.5,0.133139,0.132825,2.26941,15,0.00963256,10,0.000301434,-2.64409,1.37703,0.0428459,3.78861,0.1328245,
2,1,0,1,0,28708.6,0.134637,0.13429,2.27278,15,0.00980365,10,0.000305212,-2.64344,5.51062,0.0107066,0.948614,0.13429,
2,1,0,1,0,28708.6,0.136135,0.135823,2.27207,15,0.00997505,10,0.0003086,-2.64358,-3.69247,-0.0159785,-1.41267,0.135823,
2,1,0,1,0,28708.7,0.137633,0.137322,2.26892,15,0.0101462,10,0.000311572,-2.64418,-0.714864,-0.0825332,-7.27574,0.137322,
2,1,0,1,0,28708.8,0.139133,0.13881,2.25302,15,0.0103169,10,0.000312742,-2.64723,-0.367385,-0.160594,-14.0378,0.13881,
2,1,0,1,0,28708.9,0.140628,0.140263,2.22223,15,0.0104854,10,0.000311696,-2.65321,-0.245075,-0.240743,-20.8156,0.140263,
2,1,0,1,0,28708.9,0.142128,0.141808,2.19033,15,0.0106521,10,0.000310607,-2.65949,-0.196522,-0.300221,-25.5253,0.1418083,
2,1,0,1,0,28709,0.143626,0.143299,2.14621,15,0.0108157,10,0.000307549,-2.66833,-0.144264,-0.408973,-34.0436,0.143299,
2,1,0,1,0,28709.1,0.145124,0.14483,2.08697,15,0.0109754,10,0.000302255,-2.68048,-0.114908,-0.513453,-41.6265,0.14483,
2,1,0,1,0,28709.2,0.146622,0.14634,2.01462,15,0.0111303,10,0.000294818,-2.69581,-0.100531,-0.586883,-46.0928,0.14634,
2,1,0,1,0,28709.2,0.14812,0.147843,1.94432,15,0.0112799,10,0.000287454,-2.71123,-0.0885481,-0.666305,-50.3676,0.147843,
2,1,0,1,0,28709.3,0.149619,0.149259,1.87026,15,0.0114239,10,0.000279154,-2.7281,-0.0818199,-0.721096,-52.4737,0.149259,
2,1,0,1,0,28709.4,0.151117,0.150815,1.78877,15,0.0115619,10,0.000269774,-2.74744,-0.0747837,-0.788942,-54.8994,0.1508152,
2,1,0,1,0,28709.5,0.152615,0.152283,1.70268,15,0.0116938,10,0.00025929,-2.76887,-0.0739141,-0.798223,-53.1386,0.152283,
2,1,0,1,0,28709.5,0.154113,0.153767,1.62829,15,0.0118197,10,0.000250376,-2.78827,-0.0785595,-0.751023,-47.8688,0.153767,
2,1,0,1,0,28709.6,0.155613,0.155323,1.55904,15,0.0119403,10,0.000242155,-2.80714,-0.0791148,-0.745752,-45.4258,0.155323,
2,1,0,1,0,28709.7,0.157108,0.156822,1.49215,15,0.0120556,10,0.000234002,-2.82619,-0.080731,-0.730822,-42.6343,0.156822,
2,1,0,1,0,28709.8,0.158608,0.158272,1.4316,15,0.0121665,10,0.000226583,-2.84418,-0.0870101,-0.678082,-38.0601,0.1582723,
2,1,0,1,0,28709.8,0.160106,0.159799,1.37915,15,0.0122728,10,0.000220388,-2.86039,-0.0947714,-0.62255,-33.6652,0.159799,
2,1,0,1,0,28709.9,0.161604,0.161266,1.33355,15,0.0123755,10,0.000215056,-2.87499,-0.107163,-0.550563,-28.719,0.161266,
2,1,0,1,0,28710,0.163102,0.162784,1.29361,15,0.012475,10,0.000210579,-2.8882,-0.115848,-0.509289,-25.7602,0.162784,
2,1,0,1,0,28710.1,0.164601,0.164297,1.25774,15,0.0125717,10,0.000206643,-2.90041,-0.124642,-0.473355,-23.2972,0.164297,
2,1,0,1,0,28710.1,0.166099,0.165779,1.22585,15,0.0126658,10,0.000203221,-2.91156,-0.144141,-0.409321,-19.665,0.1657791,
2,1,0,1,0,28710.2,0.167597,0.167325,1.19959,15,0.0127577,10,0.000200721,-2.92097,-0.175106,-0.336938,-15.8056,0.167325,
2,1,0,1,0,28710.3,0.169095,0.168812,1.17832,15,0.0128478,10,0.000198915,-2.92874,-0.19158,-0.307965,-14.1622,0.168812,
2,1,0,1,0,28710.4,0.170593,0.170308,1.15436,15,0.0129363,10,0.000196596,-2.93766,-0.187941,-0.313928,-14.1721,0.170308,
2,1,0,1,0,28710.4,0.172092,0.171786,1.13334,15,0.0130234,10,0.000194692,-2.94564,-0.226571,-0.260404,-11.5707,0.171786,
2,1,0,1,0,28710.5,0.173588,0.173278,1.11869,15,0.0131088,10,0.000193844,-2.95129,-0.246169,-0.239673,-10.49,0.173278,
2,1,0,1,0,28710.6,0.175088,0.174787,1.10401,15,0.0131933,10,0.000192967,-2.95703,-0.308095,-0.1915,-8.26647,0.174787,
2,1,0,1,0,28710.7,0.176586,0.176264,1.09096,15,0.0132768,10,0.000192297,-2.96219,-0.295327,-0.199778,-8.50708,0.176264,
2,1,0,1,0,28710.7,0.178084,0.177786,1.07802,15,0.0133593,10,0.000191657,-2.96737,-0.331753,-0.177843,-7.50369,0.177786,
2,1,0,1,0,28710.8,0.179582,0.179271,1.07129,15,0.0134409,10,0.00019205,-2.97009,-0.358504,-0.164573,-6.88717,0.179271,
2,1,0,1,0,28710.9,0.181081,0.180794,1.06146,15,0.0135218,10,0.000191906,-2.9741,-0.444868,-0.132624,-5.50567,0.180794,
2,1,0,1,0,28711,0.182579,0.182268,1.05327,15,0.0136022,10,0.000191978,-2.97746,-0.42448,-0.138993,-5.71351,0.182268,
2,1,0,1,0,28711,0.184077,0.183754,1.04923,15,0.013682,10,0.000192799,-2.97913,-0.463447,-0.127307,-5.19722,0.183754,
2,1,0,1,0,28711.1,0.185577,0.185251,1.03808,15,0.0137612,10,0.000192306,-2.98377,-0.508383,-0.116054,-4.71132,0.185251,
2,1,0,1,0,28711.2,0.187073,0.186751,1.03257,15,0.0138398,10,0.000192832,-2.98608,-0.686517,-0.085941,-3.45438,0.186751,
2,1,0,1,0,28711.3,0.188572,0.188229,1.02678,15,0.0139181,10,0.00019327,-2.98852,-0.640182,-0.0921613,-3.68867,0.188229,
2,1,0,1,0,28711.3,0.19007,0.18976,1.02148,15,0.013996,10,0.000193835,-2.99077,-0.557778,-0.105777,-4.21928,0.18976,
2,1,0,1,0,28711.4,0.191568,0.191268,1.01349,15,0.0140733,10,0.000193849,-2.99418,-0.694394,-0.0849662,-3.3731,0.1912678,
2,1,0,1,0,28711.5,0.193066,0.192732,1.0094,15,0.0141503,10,0.000194544,-2.99594,-0.829795,-0.0711019,-2.80575,0.192732,
2,1,0,1,0,28711.6,0.194564,0.194267,1.00849,15,0.0142271,10,0.000195917,-2.99633,-0.955257,-0.0617635,-2.42599,0.194267,
2,1,0,1,0,28711.6,0.196063,0.195769,1.00264,15,0.0143036,10,0.000196286,-2.99886,-0.590565,-0.0999043,-3.90627,0.195769,
2,1,0,1,0,28711.7,0.197561,0.197242,0.995927,15,0.0143796,10,0.000196439,-3.00177,-1.19886,-0.0492135,-1.91768,0.1972423,
2,1,0,1,0,28711.8,0.199059,0.198747,0.99554,15,0.0144553,10,0.000197861,-3.00194,-1.19429,-0.0494015,-1.91686,0.198747,
2,1,0,1,0,28711.9,0.200557,0.200238,0.992205,15,0.0145309,10,0.000198677,-3.0034,-1.70191,-0.034667,-1.33889,0.2002379,
2,1,0,1,0,28711.9,0.202057,0.201805,0.988955,15,0.0146063,10,0.000199576,-3.00482,-1.02219,-0.057719,-2.22469,0.201805,
2,1,0,1,0,28712,0.203552,0.203229,0.982761,15,0.0146812,10,0.000199726,-3.00755,-1.71092,-0.0344844,-1.32804,0.203229,
2,1,0,1,0,28712.1,0.205052,0.204757,0.979446,15,0.014756,10,0.000200548,-3.00902,169.024,0.000349063,0.0134289,0.204757,
2,1,0,1,0,28712.2,0.20655,0.206221,0.976922,15,0.0148306,10,0.000201462,-3.01014,-2.01427,-0.029291,-1.11971,0.206221,
2,1,0,1,0,28712.2,0.208048,0.207732,0.977227,15,0.0149053,10,0.000203001,-3.01,-0.784631,-0.0751946,-2.86514,0.2077318,
2,1,0,1,0,28712.3,0.209546,0.209248,0.974659,15,0.0149796,10,0.000203946,-3.01115,-0.784456,-0.0752113,-2.86432,0.209248,
2,1,0,1,0,28712.4,0.211044,0.210795,0.970338,15,0.0150534,10,0.000204543,-3.01308,-1.07707,-0.0547782,-2.07424,0.210795,
2,1,0,1,0,28712.5,0.212543,0.212244,0.969869,15,0.0151273,10,0.000205849,-3.01329,-169.847,-0.000347371,-0.0131245,0.212244,
2,1,0,1,0,28712.5,0.214041,0.213726,0.96762,15,0.0152009,10,0.000206805,-3.0143,-2.23038,-0.0264529,-0.997448,0.213726,
2,1,0,1,0,28712.6,0.215539,0.215212,0.965158,15,0.0152744,10,0.000207713,-3.0154,-1.22085,-0.048327,-1.819,0.215212,
2,1,0,1,0,28712.7,0.217037,0.216735,0.960364,15,0.0153476,10,0.000208145,-3.01756,-1.58499,-0.0372243,-1.39744,0.2167353,
2,1,0,1,0,28712.8,0.218536,0.218256,0.95981,15,0.0154208,10,0.000209484,-3.01781,7.79727,0.00756675,0.283498,0.218256,
2,1,0,1,0,28712.8,0.220032,0.219693,0.961264,15,0.0154938,10,0.000211183,-3.01716,-1.94923,-0.0302684,-1.13212,0.219693,
2,1,0,1,0,28712.9,0.221532,0.221215,0.956875,15,0.0155668,10,0.000211675,-3.01914,-1.24718,-0.0473068,-1.76532,0.221215,
2,1,0,1,0,28713,0.22303,0.222752,0.950632,15,0.0156394,10,0.000211755,-3.02199,-2.72261,-0.0216704,-0.806095,0.222752,
2,1,0,1,0,28713.1,0.224528,0.224234,0.953388,15,0.0157119,10,0.000213782,-3.02073,-1.36791,-0.0431316,-1.6017,0.224234,
2,1,0,1,0,28713.1,0.226026,0.225747,0.951476,15,0.0157843,10,0.000214792,-3.0216,-2.69508,-0.0218917,-0.812754,0.225747,
2,1,0,1,0,28713.2,0.227525,0.22721,0.947912,15,0.0158566,10,0.000215375,-3.02323,-1.02762,-0.0574144,-2.12538,0.22721,
2,1,0,1,0,28713.3,0.229023,0.228709,0.945056,15,0.0159287,10,0.000216143,-3.02454,-0.966372,-0.0610531,-2.2553,0.228709,
2,1,0,1,0,28713.4,0.230521,0.230218,0.944705,15,0.0160006,10,0.000217488,-3.0247,-2.44063,-0.024174,-0.893407,0.230218,
2,1,0,1,0,28713.4,0.232019,0.231712,0.944675,15,0.0160724,10,0.000218892,-3.02472,-8.50055,-0.00694072,-0.255584,0.231712,
2,1,0,1,0,28713.5,0.233517,0.233228,0.943682,15,0.0161442,10,0.000220093,-3.02517,-2.23335,-0.0264177,-0.970117,0.233228,
2,1,0,1,0,28713.6,0.235016,0.23473,0.941303,15,0.016216,10,0.000220952,-3.02627,-3.15121,-0.018723,-0.686453,0.23473,
2,1,0,1,0,28713.7,0.236512,0.236246,0.937866,15,0.0162872,10,0.000221567,-3.02786,-3.19035,-0.0184933,-0.677515,0.236246,
2,1,0,1,0,28713.7,0.238012,0.237762,0.935704,15,0.0163587,10,0.000222475,-3.02886,35.9809,0.00163976,0.0598388,0.237762,
2,1,0,1,0,28713.8,0.23951,0.239207,0.935003,15,0.0164299,10,0.000223659,-3.02919,-2.46014,-0.0239824,-0.875952,0.239207,
2,1,0,1,0,28713.9,0.241008,0.240705,0.932846,15,0.0165011,10,0.000224541,-3.03019,-1.757,-0.03358,-1.22281,0.240705,
2,1,0,1,0,28714,0.242506,0.242192,0.928794,15,0.016572,10,0.000224946,-3.03208,-1.77179,-0.0332996,-1.21143,0.242192,
2,1,0,1,0,28714,0.244005,0.243708,0.929475,15,0.0166429,10,0.00022652,-3.03176,-4.21307,-0.014004,-0.508489,0.243708,
2,1,0,1,0,28714.1,0.245503,0.245187,0.930924,15,0.0167137,10,0.000228251,-3.03109,-2.51345,-0.0234737,-0.850466,0.245187,
2,1,0,1,0,28714.2,0.247001,0.246734,0.927753,15,0.0167844,10,0.000228908,-3.03257,-1.29648,-0.0455078,-1.64392,0.246734,
2,1,0,1,0,28714.3,0.248501,0.248171,0.924773,15,0.0168551,10,0.000229502,-3.03396,-2.22452,-0.0265225,-0.959385,0.248171,
2,1,0,1,0,28714.3,0.249997,0.249677,0.924972,15,0.0169253,10,0.000230944,-3.03387,-1.42608,-0.0413721,-1.49331,0.249677,
2,1,0,1,0,28714.4,0.251496,0.251196,0.922854,15,0.0169957,10,0.000231817,-3.03487,-8.63525,-0.00683246,-0.246276,0.251196,
2,1,0,1,0,28714.5,0.252994,0.252654,0.919962,15,0.017066,10,0.000232433,-3.03623,-0.888663,-0.0663919,-2.38395,0.252654,
2,1,0,1,0,28714.6,0.254492,0.254191,0.918785,15,0.0171361,10,0.000233547,-3.03679,-1.61768,-0.0364721,-1.31129,0.254191,
2,1,0,1,0,28714.6,0.25599,0.255659,0.916962,15,0.0172059,10,0.00023443,-3.03765,-8.85716,-0.00666128,-0.238907,0.255659,
2,1,0,1,0,28714.7,0.257488,0.257229,0.917156,15,0.0172758,10,0.000235919,-3.03756,-9.44047,-0.00624969,-0.223485,0.257229,
2,1,0,1,0,28714.8,0.258987,0.258705,0.917037,15,0.0173456,10,0.000237242,-3.03761,-1.67019,-0.0353254,-1.26359,0.258705,
2,1,0,1,0,28714.9,0.260485,0.260182,0.913481,15,0.0174154,10,0.000237671,-3.0393,-1.26856,-0.0465096,-1.66024,0.260182,
2,1,0,1,0,28714.9,0.261983,0.261613,0.911595,15,0.0174848,10,0.000238485,-3.0402,-1.5197,-0.0388233,-1.38379,0.261613,
2,1,0,1,0,28715,0.263481,0.263153,0.911305,15,0.0175542,10,0.000239812,-3.04034,-4.25213,-0.0138754,-0.492361,0.263153,
2,1,0,1,0,28715.1,0.264981,0.264679,0.907559,15,0.0176236,10,0.000240212,-3.04213,-4.39078,-0.0134372,-0.476818,0.264679,
2,1,0,1,0,28715.2,0.266476,0.266192,0.906226,15,0.0176927,10,0.00024123,-3.04276,-2.64098,-0.0223402,-0.791946,0.2661919,
2,1,0,1,0,28715.2,0.267976,0.267655,0.904686,15,0.0177618,10,0.000242144,-3.0435,-1.39894,-0.0421748,-1.49273,0.267655,
2,1,0,1,0,28715.3,0.269474,0.269168,0.904461,15,0.0178308,10,0.000243452,-3.04361,-24.0747,-0.00245071,-0.0866475,0.269168,
2,1,0,1,0,28715.4,0.270972,0.27068,0.905437,15,0.0178997,10,0.000245083,-3.04314,-2.39248,-0.0246606,-0.868984,0.27068,
2,1,0,1,0,28715.5,0.27247,0.272171,0.903496,15,0.0179685,10,0.000245905,-3.04407,-1.70193,-0.0346665,-1.21785,0.272171,
2,1,0,1,0,28715.5,0.273968,0.273672,0.896553,15,0.0180372,10,0.000245362,-3.04742,-1.48594,-0.0397056,-1.39513,0.273672,
2,1,0,1,0,28715.6,0.275467,0.275179,0.897495,15,0.0181056,10,0.000246972,-3.04697,-2.63766,-0.0223683,-0.784608,0.275179,
2,1,0,1,0,28715.7,0.276965,0.276662,0.895661,15,0.018174,10,0.000247795,-3.04786,-2.16945,-0.0271958,-0.952389,0.276662,
2,1,0,1,0,28715.8,0.278463,0.2782,0.896418,15,0.0182423,10,0.000249383,-3.04749,-1.07401,-0.0549343,-1.91767,0.2782,
2,1,0,1,0,28715.8,0.279961,0.279631,0.893211,15,0.0183104,10,0.00024977,-3.04905,-1.87494,-0.0314677,-1.09968,0.279631,
2,1,0,1,0,28715.9,0.28146,0.281167,0.891914,15,0.0183784,10,0.000250777,-3.04968,-2.15039,-0.0274369,-0.955391,0.281167,
2,1,0,1,0,28716,0.282956,0.282617,0.890569,15,0.0184462,10,0.00025169,-3.05033,-2.35852,-0.0250157,-0.867241,0.282617,
2,1,0,1,0,28716.1,0.284456,0.284184,0.889372,15,0.0185141,10,0.000252745,-3.05092,-1.88232,-0.0313443,-1.08586,0.284184,
2,1,0,1,0,28716.1,0.285954,0.28562,0.886944,15,0.0185817,10,0.000253328,-3.0521,-1.15186,-0.0512216,-1.7707,0.28562,
2,1,0,1,0,28716.2,0.287452,0.287138,0.881027,15,0.0186491,10,0.000252976,-3.05501,-1.76544,-0.0334193,-1.1542,0.287138,
2,1,0,1,0,28716.3,0.28895,0.288619,0.881101,15,0.0187164,10,0.000254302,-3.05497,-12.4976,-0.0047209,-0.162327,0.288619,
2,1,0,1,0,28716.4,0.290449,0.290159,0.882286,15,0.0187837,10,0.000256003,-3.05439,-1.63086,-0.0361773,-1.24607,0.290159,
2,1,0,1,0,28716.4,0.291947,0.291603,0.880132,15,0.0188508,10,0.00025665,-3.05545,-1.6541,-0.0356689,-1.22539,0.291603,
2,1,0,1,0,28716.5,0.293445,0.293099,0.87659,15,0.0189177,10,0.000256928,-3.0572,-1.46901,-0.0401632,-1.3751,0.2930989,
2,1,0,1,0,28716.6,0.294943,0.294667,0.876361,15,0.0189845,10,0.000258235,-3.05732,-2.1877,-0.026969,-0.922898,0.294667,
2,1,0,1,0,28716.7,0.296441,0.296158,0.878359,15,0.0190513,10,0.000260133,-3.05633,-4.85653,-0.0121486,-0.414896,0.2961584,
2,1,0,1,0,28716.7,0.29794,0.297643,0.872642,15,0.0191181,10,0.000259736,-3.05916,-3.45539,-0.0170748,-0.581806,0.297643,
2,1,0,1,0,28716.8,0.299436,0.299113,0.870327,15,0.0191844,10,0.000260326,-3.06032,-0.00355514,-16.5957,-334.359,0.299113,
2,1,0,1,0,28716.9,0.299739,0.299496,0.558561,15,0.0192181,10,0.000167286,-3.25293,0.000568273,103.823,747.156,0.299496,
2,1,0,1,0,28716.9,0.298239,0.29791,0.0463934,15,0.0192341,10,1.3821e-05,-4.33354,0.00393186,15.0056,255.28,0.29791,
2,0,0,1,0,28717,0.296741,0.296423,-0.0715027,15,0.0192313,10,-2.11951e-05,-4.14568,-0.0834533,-0.706982,66.2219,0.296423,
2,0,0,1,0,28717.1,0.295243,0.294959,-0.127746,15,0.0192223,10,-3.76797e-05,-3.89365,-0.00636962,-9.26272,33.5202,0.294959,
2,0,0,1,0,28717.2,0.293745,0.293424,-0.165981,15,0.01921,10,-4.87029e-05,-3.77994,-0.0156081,-3.78009,22.5668,0.2934241,
2,0,0,1,0,28717.2,0.292246,0.291927,-0.196667,15,0.0191953,10,-5.74123e-05,-3.70627,-0.0233173,-2.53031,18.6359,0.291927,
2,0,0,1,0,28717.3,0.290748,0.290469,-0.222874,15,0.0191785,10,-6.4738e-05,-3.65194,-0.0303512,-1.94391,16.3967,0.290469,
2,0,0,1,0,28717.4,0.28925,0.288953,-0.240826,15,0.01916,10,-6.95874e-05,-3.6183,-0.0425492,-1.38663,12.9296,0.288953,
2,0,0,1,0,28717.5,0.287752,0.287482,-0.260535,15,0.0191399,10,-7.4899e-05,-3.58413,-0.053182,-1.1094,11.1612,0.2874817,
2,0,0,1,0,28717.5,0.286254,0.285949,-0.277014,15,0.0191187,10,-7.92119e-05,-3.5575,-0.0602289,-0.979597,10.5118,0.285949,
2,0,0,1,0,28717.6,0.284754,0.284474,-0.291588,15,0.0190962,10,-8.29491e-05,-3.53523,-0.0644738,-0.915101,10.3609,0.284474,
2,0,0,1,0,28717.7,0.283259,0.282953,-0.308208,15,0.0190725,10,-8.72082e-05,-3.51116,-0.0746191,-0.790683,9.39769,0.282953,
2,0,0,1,0,28717.8,0.281759,0.281464,-0.320567,15,0.0190478,10,-9.02282e-05,-3.49408,-0.088607,-0.665862,8.22386,0.281464,
2,0,0,1,0,28717.8,0.280261,0.279967,-0.330083,15,0.0190222,10,-9.24122e-05,-3.48138,-0.0976627,-0.60412,7.82868,0.279967,
2,0,0,1,0,28717.9,0.278763,0.278447,-0.342568,15,0.0189958,10,-9.53869e-05,-3.46525,-0.107363,-0.549538,7.37034,0.278447,
2,0,0,1,0,28718,0.277264,0.277001,-0.355787,15,0.0189684,10,-9.85532e-05,-3.44881,-0.109309,-0.539755,7.46586,0.277001,
2,0,0,1,0,28718.1,0.275766,0.275488,-0.366711,15,0.0189402,10,-0.000101025,-3.43568,-0.152463,-0.386979,5.49025,0.275488,
2,0,0,1,0,28718.1,0.274268,0.273941,-0.377713,15,0.0189112,10,-0.000103471,-3.42284,-0.129584,-0.455302,6.68314,0.273941,
2,0,0,1,0,28718.2,0.27277,0.27249,-0.385974,15,0.0188816,10,-0.000105174,-3.41344,-0.131792,-0.447675,6.76362,0.27249,
2,0,0,1,0,28718.3,0.271272,0.270965,-0.396023,15,0.0188512,10,-0.000107308,-3.40228,-0.135201,-0.436388,6.717,0.270965,
2,0,0,1,0,28718.4,0.269774,0.269467,-0.406057,15,0.01882,10,-0.000109419,-3.39141,-0.15481,-0.381112,5.96489,0.269467,
2,0,0,1,0,28718.4,0.268274,0.267986,-0.41281,15,0.0187882,10,-0.000110627,-3.38425,-0.190123,-0.310326,4.99903,0.267986,
2,0,0,1,0,28718.5,0.266779,0.266492,-0.420513,15,0.018756,10,-0.000112063,-3.37622,-0.167608,-0.352013,5.77338,0.266492,
2,0,0,1,0,28718.6,0.265279,0.265,-0.427171,15,0.018723,10,-0.0001132,-3.3694,-0.18445,-0.319869,5.32451,0.265,
2,0,0,1,0,28718.7,0.263781,0.263454,-0.435737,15,0.0186894,10,-0.000114797,-3.36078,-0.183494,-0.321536,5.46146,0.263454,
2,0,0,1,0,28718.7,0.262283,0.26195,-0.443945,15,0.0186552,10,-0.000116292,-3.35267,-0.211318,-0.2792,4.84081,0.26195,
2,0,0,1,0,28718.8,0.260784,0.260501,-0.447755,15,0.0186206,10,-0.00011664,-3.34896,-0.225555,-0.261576,4.60882,0.260501,
2,0,0,1,0,28718.9,0.259286,0.258961,-0.460065,15,0.0185853,10,-0.000119139,-3.33718,-0.211256,-0.279282,4.99802,0.258961,
2,0,0,1,0,28719,0.257788,0.257492,-0.468262,15,0.0185494,10,-0.000120574,-3.32951,-0.253624,-0.232628,4.23042,0.257492,
2,0,0,1,0,28719,0.25629,0.25602,-0.475333,15,0.018513,10,-0.000121695,-3.323,-0.301266,-0.19584,3.60718,0.25602,
2,0,0,1,0,28719.1,0.25479,0.254502,-0.478536,15,0.0184761,10,-0.000121788,-3.32009,-0.262713,-0.224579,4.19836,0.254502,
2,0,0,1,0,28719.2,0.253294,0.252968,-0.487471,15,0.0184388,10,-0.000123315,-3.31205,-0.218482,-0.270045,5.11697,0.2529684,
2,0,0,1,0,28719.3,0.251795,0.251482,-0.493003,15,0.0184009,10,-0.000123981,-3.30715,-0.226184,-0.26085,5.02317,0.2514818,
2,0,0,1,0,28719.3,0.250297,0.249961,-0.498465,15,0.0183625,10,-0.000124597,-3.30236,-0.324297,-0.181932,3.5467,0.249961,
2,0,0,1,0,28719.4,0.248799,0.248495,-0.504919,15,0.0183238,10,-0.00012547,-3.29678,-0.261831,-0.225336,4.45118,0.248495,
2,0,0,1,0,28719.5,0.247301,0.247016,-0.508426,15,0.0182846,10,-0.000125589,-3.29377,-0.269876,-0.218619,4.3626,0.247016,
2,0,0,1,0,28719.6,0.245802,0.24551,-0.517829,15,0.0182449,10,-0.000127132,-3.28581,-0.29646,-0.199015,4.01811,0.24551,
2,0,0,1,0,28719.6,0.244304,0.243987,-0.524028,15,0.0182046,10,-0.000127856,-3.28065,-0.348399,-0.169346,3.45946,0.243987,
2,0,0,1,0,28719.7,0.242806,0.242484,-0.530116,15,0.018164,10,-0.000128545,-3.27563,-0.376333,-0.156776,3.2394,0.242484,
2,0,0,1,0,28719.8,0.241308,0.241023,-0.531909,15,0.0181231,10,-0.000128202,-3.27416,-0.321637,-0.183436,3.82554,0.241023,
2,0,0,1,0,28719.9,0.23981,0.239506,-0.53929,15,0.0180817,10,-0.000129163,-3.26818,-0.255904,-0.230555,4.84558,0.239506,
2,0,0,1,0,28719.9,0.23831,0.238033,-0.548297,15,0.0180397,10,-0.000130513,-3.26098,-0.280686,-0.210199,4.48756,0.238033,
2,0,0,1,0,28720,0.236815,0.236498,-0.550129,15,0.0179975,10,-0.000130104,-3.25954,-0.368857,-0.159954,3.44214,0.2364976,
2,0,0,1,0,28720.1,0.235315,0.235039,-0.552063,15,0.0179547,10,-0.000129756,-3.25801,-0.390212,-0.1512,3.28558,0.235039,
2,0,0,1,0,28720.2,0.233817,0.233522,-0.562408,15,0.0179117,10,-0.000131334,-3.24995,-0.303874,-0.194159,4.25983,0.233522,
2,0,0,1,0,28720.2,0.232319,0.231991,-0.567782,15,0.0178681,10,-0.00013172,-3.24582,-0.301348,-0.195787,4.33074,0.231991,
2,0,0,1,0,28720.3,0.230821,0.230517,-0.571243,15,0.0178242,10,-0.000131681,-3.24318,-0.457629,-0.128925,2.87274,0.230517,
2,0,0,1,0,28720.4,0.229322,0.229006,-0.576436,15,0.0177798,10,-0.000132007,-3.23925,-0.3912,-0.150818,3.4058,0.229006,
2,0,0,1,0,28720.5,0.227824,0.227508,-0.584984,15,0.0177351,10,-0.000133088,-3.23286,-0.386625,-0.152603,3.48664,0.227508,
2,0,0,1,0,28720.5,0.226326,0.226026,-0.588746,15,0.01769,10,-0.000133072,-3.23007,-0.416589,-0.141626,3.25744,0.226026,
2,0,0,1,0,28720.6,0.224828,0.224501,-0.594151,15,0.0176444,10,-0.000133387,-3.2261,-0.399943,-0.147521,3.41893,0.224501,
2,0,0,1,0,28720.7,0.22333,0.223013,-0.60229,15,0.0175984,10,-0.000134319,-3.22019,-0.366681,-0.160903,3.76141,0.223013,
2,0,0,1,0,28720.8,0.22183,0.221541,-0.606064,15,0.0175521,10,-0.000134268,-3.21748,-0.392626,-0.15027,3.54716,0.221541,
2,0,0,1,0,28720.8,0.220335,0.220025,-0.609087,15,0.0175054,10,-0.000134015,-3.21532,-0.303599,-0.194335,4.62778,0.220025,
2,0,0,1,0,28720.9,0.218835,0.218547,-0.616619,15,0.0174582,10,-0.00013476,-3.20998,-0.33746,-0.174836,4.20322,0.218547,
2,0,0,1,0,28721,0.217337,0.217018,-0.621369,15,0.0174106,10,-0.000134848,-3.20665,-0.554587,-0.106385,2.58212,0.217018,
2,0,0,1,0,28721.1,0.215839,0.215582,-0.623032,15,0.0173628,10,-0.000134315,-3.20549,-0.468205,-0.126013,3.08059,0.215582,
2,0,0,1,0,28721.1,0.21434,0.21399,-0.630918,15,0.0173146,10,-0.00013501,-3.20003,-0.358442,-0.164601,4.0539,0.21399,
2,0,0,1,0,28721.2,0.212842,0.212555,-0.635416,15,0.0172659,10,-0.000135061,-3.19694,-0.469315,-0.125715,3.12566,0.212555,
2,0,0,1,0,28721.3,0.211344,0.211089,-0.639267,15,0.0172169,10,-0.000134942,-3.19432,-0.466903,-0.126365,3.15224,0.211089,
2,0,0,1,0,28721.4,0.209846,0.20952,-0.644301,15,0.0171675,10,-0.000134994,-3.19091,-0.416781,-0.141561,3.57337,0.20952,
2,0,0,1,0,28721.4,0.208348,0.208048,-0.651626,15,0.0171178,10,-0.000135569,-3.186,-0.320703,-0.183971,4.68945,0.208048,
2,0,0,1,0,28721.5,0.20685,0.206549,-0.66136,15,0.0170676,10,-0.000136603,-3.17956,-0.366647,-0.160918,4.12352,0.206549,
2,0,0,1,0,28721.6,0.20535,0.205042,-0.662,15,0.0170167,10,-0.000135738,-3.17914,-0.509672,-0.115761,2.98363,0.2050416,
2,0,0,1,0,28721.7,0.203855,0.203527,-0.666097,15,0.0169657,10,-0.000135569,-3.17646,-0.544759,-0.108305,2.82335,0.203527,
2,0,0,1,0,28721.7,0.202355,0.202015,-0.671312,15,0.0169144,10,-0.000135615,-3.17308,-0.4597,-0.128344,3.37375,0.202015,
2,0,0,1,0,28721.8,0.200857,0.200548,-0.677385,15,0.0168627,10,-0.000135848,-3.16916,-0.390877,-0.150942,3.98831,0.200548,
2,0,0,1,0,28721.9,0.199359,0.199047,-0.683309,15,0.0168104,10,-0.000136011,-3.16538,-0.504905,-0.116854,3.10883,0.199047,
2,0,0,1,0,28721.9,0.19786,0.197537,-0.691839,15,0.0167577,10,-0.000136663,-3.16,-0.521172,-0.113206,3.04697,0.197537,
2,0,0,1,0,28722,0.196362,0.196059,-0.695789,15,0.0167048,10,-0.000136416,-3.15752,-0.445188,-0.132528,3.59797,0.196059,
2,0,0,1,0,28722.1,0.194864,0.194567,-0.701543,15,0.0166513,10,-0.000136497,-3.15395,-0.319203,-0.184835,5.03599,0.194567,
2,0,0,1,0,28722.2,0.193366,0.193023,-0.708267,15,0.0165972,10,-0.000136712,-3.1498,-0.339201,-0.173938,4.80143,0.193023,
2,0,0,1,0,28722.2,0.191866,0.191536,-0.713407,15,0.0165426,10,-0.000136643,-3.14666,-0.462427,-0.127588,3.55837,0.191536,
2,0,0,1,0,28722.3,0.19037,0.190017,-0.718136,15,0.0164879,10,-0.000136458,-3.14379,-0.440533,-0.133929,3.76629,0.190017,
2,0,0,1,0,28722.4,0.188871,0.188543,-0.724569,15,0.0164325,10,-0.000136612,-3.13992,-0.285408,-0.206721,5.84192,0.188543,
2,0,0,1,0,28722.5,0.187373,0.187066,-0.733148,15,0.0163767,10,-0.000137147,-3.13481,-0.388109,-0.152019,4.34644,0.187066,
2,0,0,1,0,28722.5,0.185875,0.185547,-0.73992,15,0.0163204,10,-0.00013729,-3.13082,-0.473476,-0.12461,3.58632,0.185547,
2,0,0,1,0,28722.6,0.184377,0.18404,-0.743752,15,0.0162636,10,-0.00013688,-3.12857,-0.427205,-0.138107,4.01771,0.18404,
2,0,0,1,0,28722.7,0.182878,0.182591,-0.753086,15,0.0162063,10,-0.000137506,-3.12316,-0.370365,-0.159302,4.67862,0.182591,
2,0,0,1,0,28722.8,0.18138,0.18108,-0.75992,15,0.0161484,10,-0.000137606,-3.11923,-0.394107,-0.149706,4.43831,0.18108,
2,0,0,1,0,28722.8,0.179882,0.17955,-0.768229,15,0.0160899,10,-0.000137936,-3.11451,-0.434344,-0.135837,4.07116,0.17955,
2,0,0,1,0,28722.9,0.178384,0.17807,-0.776105,15,0.0160309,10,-0.000138201,-3.11008,-0.367824,-0.160403,4.86329,0.17807,
2,0,0,1,0,28723,0.176886,0.17658,-0.782162,15,0.0159714,10,-0.000138114,-3.1067,-0.331981,-0.177721,5.44263,0.17658,
2,0,0,1,0,28723.1,0.175386,0.175084,-0.792647,15,0.0159111,10,-0.00013878,-3.10092,-0.292244,-0.201886,6.22968,0.175084,
2,0,0,1,0,28723.1,0.173891,0.173568,-0.802672,15,0.0158503,10,-0.000139318,-3.09546,-0.282857,-0.208586,6.52084,0.173568,
2,0,0,1,0,28723.2,0.172391,0.172048,-0.809128,15,0.0157886,10,-0.000139209,-3.09198,-0.27549,-0.214164,6.78261,0.172048,
2,0,0,1,0,28723.3,0.170893,0.170571,-0.819431,15,0.0157263,10,-0.000139771,-3.08649,-0.259839,-0.227063,7.27404,0.170571,
2,0,0,1,0,28723.4,0.169395,0.169057,-0.829798,15,0.0156632,10,-0.000140283,-3.08103,-0.223817,-0.263609,8.54432,0.1690574,
2,0,0,1,0,28723.4,0.167897,0.167583,-0.844841,15,0.0155992,10,-0.000141581,-3.07322,-0.2567,-0.22984,7.58125,0.167583,
2,0,0,1,0,28723.5,0.166398,0.166014,-0.857467,15,0.0155342,10,-0.000142352,-3.06678,-0.277421,-0.212673,7.1154,0.166014,
2,0,0,1,0,28723.6,0.1649,0.164566,-0.866228,15,0.0154685,10,-0.000142552,-3.06237,-0.245707,-0.240124,8.14137,0.164566,
2,0,0,1,0,28723.7,0.163402,0.163076,-0.880984,15,0.0154018,10,-0.000143667,-3.05503,-0.202988,-0.290658,10.0083,0.163076,
2,0,0,1,0,28723.7,0.161904,0.161581,-0.897765,15,0.015334,10,-0.000145061,-3.04684,-0.199119,-0.296305,10.3827,0.161581,
2,0,0,1,0,28723.8,0.160406,0.160085,-0.912764,15,0.015265,10,-0.00014612,-3.03964,-0.206249,-0.286063,10.1812,0.160085,
2,0,0,1,0,28723.9,0.158906,0.1586,-0.928719,15,0.0151948,10,-0.000147295,-3.03212,-0.173819,-0.339434,12.3546,0.1586,
2,0,0,1,0,28724,0.157411,0.157135,-0.949675,15,0.0151234,10,-0.000149227,-3.02243,-0.153157,-0.385225,14.2995,0.157135,
2,0,0,1,0,28724,0.155911,0.155593,-0.970191,15,0.0150501,10,-0.000150955,-3.01314,-0.145686,-0.404982,15.369,0.155593,
2,0,0,1,0,28724.1,0.154413,0.154064,-0.995445,15,0.0149752,10,-0.000153362,-3.00198,-0.147525,-0.399933,15.5293,0.154064,
2,0,0,1,0,28724.2,0.152915,0.152629,-1.02127,15,0.0148984,10,-0.000155876,-2.99086,-0.129862,-0.454328,18.135,0.152629,
2,0,0,1,0,28724.3,0.151417,0.15113,-1.04962,15,0.0148197,10,-0.00015863,-2.97897,-0.116718,-0.505493,20.7872,0.15113,
2,0,0,1,0,28724.3,0.149918,0.14956,-1.08426,15,0.0147387,10,-0.000162163,-2.96487,-0.105395,-0.5598,23.6496,0.14956,
2,0,0,1,0,28724.4,0.14842,0.148137,-1.11923,15,0.014655,10,-0.000165799,-2.95108,-0.103758,-0.568633,24.8972,0.148137,
2,0,0,1,0,28724.5,0.146922,0.14662,-1.15965,15,0.0145684,10,-0.000170028,-2.93567,-0.0962685,-0.612869,27.8193,0.14662,
2,0,0,1,0,28724.6,0.145424,0.145138,-1.19966,15,0.0144789,10,-0.000174116,-2.92094,-0.0895417,-0.658911,31.0546,0.145138,
2,0,0,1,0,28724.6,0.143926,0.143659,-1.25461,15,0.0143857,10,-0.000180237,-2.90149,-0.0809789,-0.728585,35.6887,0.1436595,
2,0,0,1,0,28724.7,0.142426,0.142078,-1.30875,15,0.0142885,10,-0.000185944,-2.88314,-0.0782646,-0.753853,38.5487,0.142078,
2,0,0,1,0,28724.8,0.140931,0.140602,-1.36572,15,0.0141872,10,-0.000192022,-2.86464,-0.0826589,-0.713777,38.0146,0.140602,
2,0,0,1,0,28724.9,0.139431,0.139098,-1.42128,15,0.0140814,10,-0.000197697,-2.84732,-0.0790999,-0.745892,41.5316,0.139098,
2,0,0,1,0,28724.9,0.137933,0.137597,-1.49051,15,0.0139711,10,-0.000205089,-2.82667,-0.0797214,-0.740078,43.0363,0.137597,
2,0,0,1,0,28725,0.136435,0.136118,-1.55639,15,0.0138558,10,-0.000211853,-2.80788,-0.0797883,-0.739457,44.8349,0.136118,
2,0,0,1,0,28725.1,0.134936,0.134589,-1.62403,15,0.0137355,10,-0.000218577,-2.78941,-0.0820753,-0.718852,45.4519,0.134589,
2,0,0,1,0,28725.2,0.133438,0.133137,-1.68914,15,0.01361,10,-0.000224887,-2.77234,-0.0874425,-0.674729,44.4401,0.133137,
2,0,0,1,0,28725.2,0.13194,0.131624,-1.75751,15,0.0134797,10,-0.00023133,-2.7551,-0.0924225,-0.638373,43.7923,0.131624,
2,0,0,1,0,28725.3,0.130442,0.130131,-1.82483,15,0.0133444,10,-0.000237466,-2.73878,-0.0994368,-0.593342,42.1069,0.130131,
2,0,0,1,0,28725.4,0.128942,0.128626,-1.88429,15,0.013204,10,-0.000242368,-2.72485,-0.10699,-0.551454,40.4291,0.128626,
2,0,0,1,0,28725.5,0.127446,0.127148,-1.94356,15,0.0130595,10,-0.000247119,-2.7114,-0.122776,-0.480552,36.3278,0.127148,
2,0,0,1,0,28725.5,0.125947,0.125607,-1.99434,15,0.0129107,10,-0.000250502,-2.7002,-0.127903,-0.461287,35.9032,0.125607,
2,0,0,1,0,28725.6,0.124449,0.124114,-2.04653,15,0.0127581,10,-0.000254003,-2.68898,-0.138384,-0.426349,33.9814,0.124114,
2,0,0,1,0,28725.7,0.122951,0.12261,-2.09607,15,0.0126016,10,-0.000256998,-2.6786,-0.154363,-0.382216,31.1602,0.12261,
2,0,0,1,0,28725.8,0.121453,0.12114,-2.13753,15,0.0124417,10,-0.000258941,-2.67009,-0.185222,-0.318536,26.5097,0.1211402,
2,0,0,1,0,28725.8,0.119955,0.119629,-2.17308,15,0.0122789,10,-0.000259963,-2.66292,-0.216958,-0.271942,23.046,0.119629,
2,0,0,1,0,28725.9,0.118456,0.118164,-2.20689,15,0.0121136,10,-0.000260776,-2.65622,-0.231958,-0.254357,21.8778,0.118164,
2,0,0,1,0,28726,0.116958,0.116676,-2.23788,15,0.0119458,10,-0.000261107,-2.65016,-0.302062,-0.195324,17.0018,0.116676,
2,0,0,1,0,28726.1,0.11546,0.115099,-2.25922,15,0.011776,10,-0.000260034,-2.64604,-0.431802,-0.136637,12.0095,0.115099,
2,0,0,1,0,28726.1,0.113962,0.113654,-2.27149,15,0.011605,10,-0.000258163,-2.64369,-0.557435,-0.105842,9.37691,0.113654,
2,0,0,1,0,28726.2,0.112462,0.112127,-2.28814,15,0.0114327,10,-0.000256563,-2.64052,-0.836897,-0.0704985,6.28012,0.112127,
2,0,0,1,0,28726.3,0.110967,0.110588,-2.29477,15,0.0112601,10,-0.000253774,-2.63926,-1.30316,-0.0452744,4.04476,0.1105881,
2,0,0,1,0,28726.4,0.109467,0.109151,-2.29768,15,0.0110866,10,-0.000250795,-2.63871,11.1597,0.00528688,-0.47292,0.109151,
2,0,0,1,0,28726.4,0.107969,0.107682,-2.29532,15,0.0109132,10,-0.000247165,-2.63916,1.93865,0.0304336,-2.72535,0.107682,
2,0,0,1,0,28726.5,0.106471,0.106209,-2.28996,15,0.0107403,10,-0.000243216,-2.64017,1.18103,0.0499564,-4.46568,0.106209,
2,0,0,1,0,28726.6,0.104973,0.104655,-2.28199,15,0.0105678,10,-0.000238823,-2.64169,1.02351,0.0576448,-5.13155,0.104655,
2,0,0,1,0,28726.7,0.103474,0.103194,-2.27549,15,0.0103957,10,-0.000234816,-2.64292,0.549138,0.107441,-9.50112,0.103194,
2,0,0,1,0,28726.7,0.101976,0.101668,-2.26344,15,0.0102245,10,-0.000230118,-2.64523,0.423377,0.139356,-12.2748,0.101668,
2,0,0,1,0,28726.8,0.100478,0.100136,-2.23593,15,0.0100552,10,-0.000223896,-2.65054,0.447881,0.131732,-11.5391,0.100136,
2,0,0,1,0,28726.9,0.0989798,0.0986421,-2.22694,15,0.00988682,10,-0.00021967,-2.65229,0.654923,0.0900869,-7.81328,0.0986421,
2,0,0,1,0,28727,0.0974817,0.0971588,-2.2135,15,0.00971933,10,-0.000215061,-2.65492,0.53432,0.110421,-9.5248,0.0971588,
2,0,0,1,0,28727,0.0959821,0.0956793,-2.19583,15,0.00955282,10,-0.000210096,-2.6584,0.44758,0.13182,-11.2906,0.0956793,
2,0,0,1,0,28727.1,0.0944866,0.0942056,-2.1719,15,0.00938809,10,-0.000204605,-2.66316,0.441655,0.133588,-11.3654,0.09420564,
2,0,0,1,0,28727.2,0.0929871,0.0926731,-2.1594,15,0.00922426,10,-0.000200118,-2.66567,0.509866,0.115717,-9.7658,0.0926731,
2,0,0,1,0,28727.3,0.0914889,0.0911486,-2.1486,15,0.00906173,10,-0.000195842,-2.66785,0.478653,0.123263,-10.3153,0.0911486,
2,0,0,1,0,28727.3,0.0899907,0.0896361,-2.13071,15,0.00890031,10,-0.000190988,-2.67148,0.431605,0.136699,-11.3492,0.0896361,
2,0,0,1,0,28727.4,0.0884925,0.0881542,-2.11033,15,0.0087402,10,-0.000186035,-2.67565,0.463682,0.127242,-10.5008,0.0881542,
2,0,0,1,0,28727.5,0.0869943,0.0866839,-2.09785,15,0.0085814,10,-0.00018185,-2.67823,0.465829,0.126656,-10.3837,0.0866839,
2,0,0,1,0,28727.6,0.0854961,0.0851805,-2.08373,15,0.00842354,10,-0.000177493,-2.68116,0.535863,0.110103,-8.96602,0.0851805,
2,0,0,1,0,28727.6,0.083998,0.0836601,-2.07242,15,0.00826666,10,-0.000173379,-2.68352,0.492051,0.119906,-9.69059,0.0836601,
2,0,0,1,0,28727.7,0.0824998,0.0821932,-2.06126,15,0.00811068,10,-0.000169421,-2.68587,0.537901,0.109686,-8.81487,0.0821932,
2,0,0,1,0,28727.8,0.081002,0.0807187,-2.04587,15,0.00795581,10,-0.00016514,-2.68912,0.607865,0.097061,-7.7558,0.0807187,
2,0,0,1,0,28727.9,0.0795025,0.0792341,-2.03459,15,0.00780157,10,-0.000161209,-2.69152,0.715043,0.0825126,-6.55377,0.0792341,
2,0,0,1,0,28727.9,0.078007,0.0776862,-2.02481,15,0.00764851,10,-0.0001573,-2.69362,0.700844,0.0841842,-6.65054,0.07768625,
2,0,0,1,0,28728,0.076507,0.0761556,-2.01407,15,0.00749584,10,-0.000153382,-2.69593,0.614886,0.0959528,-7.53489,0.0761556,
2,0,0,1,0,28728.1,0.0750088,0.0747121,-1.99919,15,0.00734437,10,-0.000149363,-2.69915,0.578202,0.10204,-7.96915,0.0747121,
2,0,0,1,0,28728.2,0.0735106,0.07318,-1.98936,15,0.00719372,10,-0.000145581,-2.70129,0.655605,0.0899932,-6.9859,0.07318,
2,0,0,1,0,28728.2,0.0720124,0.0716908,-1.98098,15,0.00704385,10,-0.000142018,-2.70312,0.636784,0.0926531,-7.16378,0.07169079,
2,0,0,1,0,28728.3,0.0705142,0.0702003,-1.96849,15,0.00689478,10,-0.000138188,-2.70587,0.561813,0.105017,-8.06818,0.0702003,
2,0,0,1,0,28728.4,0.0690161,0.068707,-1.95587,15,0.00674658,10,-0.000134382,-2.70866,0.644335,0.0915672,-6.99894,0.068707,
2,0,0,1,0,28728.5,0.0675179,0.067164,-1.94811,15,0.00659921,10,-0.000130843,-2.71039,0.727697,0.0810776,-6.16265,0.067164,
2,0,0,1,0,28728.5,0.0660179,0.065709,-1.94264,15,0.00645231,10,-0.000127649,-2.71161,0.598464,0.0985858,-7.44891,0.06570895,
2,0,0,1,0,28728.6,0.0645224,0.0642177,-1.92488,15,0.00630649,10,-0.000123611,-2.7156,0.513683,0.114857,-8.62545,0.0642177,
2,0,0,1,0,28728.7,0.0630229,0.0626946,-1.91303,15,0.00616125,10,-0.000119936,-2.71828,0.58905,0.100161,-7.48497,0.0626946,
2,0,0,1,0,28728.8,0.0615251,0.0611804,-1.90088,15,0.00601717,10,-0.000116297,-2.72105,0.653796,0.0902422,-6.70903,0.0611804,
2,0,0,1,0,28728.8,0.0600269,0.0597264,-1.89305,15,0.00587381,10,-0.000113065,-2.72284,0.71643,0.0823528,-6.08536,0.0597264,
2,0,0,1,0,28728.9,0.0585287,0.0582197,-1.88271,15,0.00573122,10,-0.000109611,-2.72522,0.549016,0.107465,-7.88258,0.0582197,
2,0,0,1,0,28729,0.0570305,0.0567012,-1.87175,15,0.00558943,10,-0.00010613,-2.72775,0.539243,0.109413,-7.9847,0.0567012,
2,0,0,1,0,28729.1,0.0555323,0.0552485,-1.85931,15,0.00544866,10,-0.000102724,-2.73065,0.554958,0.106314,-7.71911,0.0552485,
2,0,0,1,0,28729.1,0.0540342,0.0536949,-1.85066,15,0.00530868,10,-9.93709e-05,-2.73267,0.632846,0.0932297,-6.72204,0.0536949,
2,0,0,1,0,28729.2,0.052536,0.0522003,-1.83902,15,0.00516938,10,-9.59975e-05,-2.73541,0.605042,0.0975138,-6.98528,0.0522003,
2,0,0,1,0,28729.3,0.0510378,0.0507098,-1.82708,15,0.00503095,10,-9.26507e-05,-2.73824,0.5018,0.117577,-8.37259,0.0507098,
2,0,0,1,0,28729.4,0.0495382,0.0492178,-1.81245,15,0.0048934,10,-8.92047e-05,-2.74173,0.521365,0.113165,-8.01303,0.0492178,
2,0,0,1,0,28729.4,0.0480427,0.0477622,-1.80057,15,0.0047571,10,-8.5999e-05,-2.74459,0.607735,0.0970818,-6.81119,0.0477622,
2,0,0,1,0,28729.5,0.0465432,0.0462608,-1.78683,15,0.00462128,10,-8.26603e-05,-2.74792,0.538383,0.109587,-7.64956,0.04626077,
2,0,0,1,0,28729.6,0.045045,0.0446966,-1.77551,15,0.0044866,10,-7.93594e-05,-2.75068,0.447948,0.131712,-9.11974,0.0446966,
2,0,0,1,0,28729.7,0.0435468,0.0432507,-1.75981,15,0.00435287,10,-7.61132e-05,-2.75453,0.473398,0.124631,-8.57006,0.04325068,
2,0,0,1,0,28729.7,0.0420486,0.0417295,-1.75004,15,0.00422028,10,-7.30285e-05,-2.75695,0.479798,0.122968,-8.39737,0.0417295,
2,0,0,1,0,28729.8,0.0405504,0.0402163,-1.73887,15,0.00408847,10,-6.99308e-05,-2.75973,0.483672,0.121984,-8.25891,0.0402163,
2,0,0,1,0,28729.9,0.0390523,0.0387381,-1.72402,15,0.00395751,10,-6.67855e-05,-2.76346,0.424557,0.138968,-9.33997,0.0387381,
2,0,0,1,0,28730,0.0375541,0.0372302,-1.70963,15,0.00382767,10,-6.36499e-05,-2.7671,0.408078,0.14458,-9.65453,0.0372302,
2,0,0,1,0,28730,0.0360559,0.0357161,-1.69611,15,0.00369901,10,-6.05784e-05,-2.77055,0.409121,0.144212,-9.55691,0.0357161,
2,0,0,1,0,28730.1,0.0345577,0.0342704,-1.68316,15,0.00357124,10,-5.76825e-05,-2.77388,0.461392,0.127874,-8.39679,0.0342704,
2,0,0,1,0,28730.2,0.0330582,0.0327118,-1.66882,15,0.0034443,10,-5.45903e-05,-2.77759,0.424321,0.139046,-9.04721,0.0327118,
2,0,0,1,0,28730.3,0.0315626,0.0312281,-1.65601,15,0.0033187,10,-5.1714e-05,-2.78094,0.440405,0.133968,-8.65668,0.0312281,
2,0,0,1,0,28730.3,0.0300631,0.0297463,-1.64044,15,0.00319399,10,-4.87972e-05,-2.78504,0.410095,0.143869,-9.22097,0.0297463,
2,0,0,1,0,28730.4,0.0285649,0.0282556,-1.6268,15,0.00307033,10,-4.59661e-05,-2.78867,0.489411,0.120553,-7.6523,0.0282556,
2,0,0,1,0,28730.5,0.0270667,0.026779,-1.61584,15,0.00294756,10,-4.32705e-05,-2.7916,0.44722,0.131926,-8.31734,0.026779,
2,0,0,1,0,28730.6,0.0255685,0.0252796,-1.60424,15,0.00282582,10,-4.05544e-05,-2.79473,0.410077,0.143875,-8.9991,0.0252796,
2,0,0,1,0,28730.6,0.0240704,0.0237649,-1.58946,15,0.0027051,10,-3.77735e-05,-2.79875,0.463023,0.127423,-7.91342,0.0237649,
2,0,0,1,0,28730.7,0.0225722,0.0222178,-1.57651,15,0.00258533,10,-3.50265e-05,-2.8023,0.47736,0.123597,-7.61608,0.02221781,
2,0,0,1,0,28730.8,0.021074,0.0207458,-1.5669,15,0.00246627,10,-3.25066e-05,-2.80496,0.504479,0.116952,-7.15248,0.0207458,
2,0,0,1,0,28730.9,0.0195758,0.0192266,-1.55833,15,0.00234812,10,-2.99613e-05,-2.80734,0.422687,0.139583,-8.47927,0.01922659,
2,0,0,1,0,28730.9,0.018078,0.0177326,-1.54266,15,0.00223082,10,-2.73553e-05,-2.81173,0.514346,0.114709,-6.90856,0.0177326,
2,0,0,1,0,28731,0.0165785,0.0162754,-1.53268,15,0.0021143,10,-2.49451e-05,-2.81455,0.628613,0.0938574,-5.62058,0.0162754,
2,0,0,1,0,28731.1,0.015083,0.0147583,-1.52675,15,0.00199864,10,-2.25323e-05,-2.81623,0.708118,0.0833194,-4.95976,0.0147583,
2,0,0,1,0,28731.2,0.013583,0.0132936,-1.5165,15,0.00188326,10,-2.01597e-05,-2.81916,0.524179,0.112557,-6.66347,0.0132936,
2,0,0,1,0,28731.2,0.0120848,0.0117221,-1.50671,15,0.00176874,10,-1.76618e-05,-2.82197,0.597661,0.0987182,-5.82316,0.0117221,
2,0,0,1,0,28731.3,0.0105866,0.0102588,-1.49885,15,0.00165495,10,-1.53764e-05,-2.82424,0.766906,0.0769325,-4.51012,0.0102588,
2,0,0,1,0,28731.4,0.00908846,0.00873271,-1.49489,15,0.00154154,10,-1.30544e-05,-2.82539,1.1272,0.0523422,-3.05415,0.00873271,
2,0,0,1,0,28731.5,0.00759027,0.00726376,-1.48905,15,0.00142858,10,-1.08161e-05,-2.82709,0.992272,0.0594595,-3.45653,0.00726376,
2,0,0,1,0,28731.5,0.00609208,0.00576159,-1.48448,15,0.00131601,10,-8.55299e-06,-2.82842,0.970097,0.0608186,-3.52398,0.005761588,
2,0,0,1,0,28731.6,0.00459389,0.00426177,-1.47872,15,0.00120394,10,-6.30195e-06,-2.83011,1.27913,0.0461253,-2.66507,0.004261768,
2,0,0,1,0,28731.7,0.00309391,0.00279758,-1.47606,15,0.00109193,10,-4.12941e-06,-2.83089,-1.91138,-0.0308677,1.78292,0.00279758,
2,0,0,1,0,28731.8,0.0015984,0.00120643,-1.48872,15,0.000979436,10,-1.79604e-06,-2.82719, , , ,0.00120643,
2,0,0,1,0,28731.8,0.000199195,-0.000189557,-1.47971,15,0.000874473,10,2.80489e-07,-2.82982, , , ,-0.000189557,