File: Figure_codes/Fig_3-5/rawdata_trumpetplot_data/after 10th/20221101_1-115_003_TrumpetPlot_ParaChange_from10_every3_09_CV_C01_22.csv
mode,ox/red,error,control changes,counter inc.,time/s,control/V,Ewe/V,<I>/mA,cycle number,(Q-Qo)/C,I Range,P/W,log(|I|),Tafel slope mV/dec,alpha_eff,dI/d(E-IR),E-IR/V,
2,0,0,0,0,44525.4,2.44065e-05,-0.000382585,-5.27415,23,0.0000000E+000,10,2.01781e-06,-2.27785, , , ,-0.000382585,
2,0,0,1,0,44525.4,0.00179726,0.00144565,-2.9761,23,-6.96249e-05,10,-4.3024e-06,-2.52635, , , ,0.00144565,
2,0,0,1,0,44525.4,0.00379485,0.00347015,-1.40065,23,-0.000111784,10,-4.86045e-06,-2.85367,-0.00409682,-14.4014,663.031,0.003470148,
2,0,0,1,0,44525.4,0.00579244,0.0054656,-0.31075,23,-0.000128016,10,-1.69844e-06,-3.50759,-0.00908937,-6.4911,486.346,0.0054656,
2,1,0,1,0,44525.5,0.00779002,0.00741126,0.516098,23,-0.000125275,10,3.82494e-06,-3.28727,0.00706578,8.3501,363.832,0.00741126,
2,1,0,1,0,44525.5,0.00978761,0.00949597,1.15563,23,-0.000108058,10,1.09738e-05,-2.93718,0.00785704,7.50919,286.773,0.00949597,
2,1,0,1,0,44525.5,0.0117852,0.0113943,1.65832,23,-7.94407e-05,10,1.88954e-05,-2.78033,0.0154991,3.80668,233.053,0.0113943,
2,1,0,1,0,44525.5,0.0137828,0.0134201,2.07017,23,-4.17612e-05,10,2.7782e-05,-2.68399,0.0249612,2.36367,185.843,0.0134201,
2,1,0,1,0,44525.5,0.0157804,0.0154855,2.41864,23,3.48745e-06,10,3.74538e-05,-2.61643,0.0344809,1.71109,158.551,0.0154855,
2,1,0,1,0,44525.6,0.017778,0.0174354,2.70679,23,5.47972e-05,10,4.71941e-05,-2.56755,0.045737,1.28999,134.609,0.0174354,
2,1,0,1,0,44525.6,0.0197755,0.0194052,2.94626,23,0.000111552,10,5.71727e-05,-2.53073,0.0599698,0.983828,112.364,0.0194052,
2,1,0,1,0,44525.6,0.0217731,0.0214487,3.15775,23,0.000172826,10,6.77297e-05,-2.50062,0.0726759,0.811823,99.6142,0.0214487,
2,1,0,1,0,44525.6,0.0237707,0.0234641,3.35059,23,0.0002381,10,7.86187e-05,-2.47488,0.0847599,0.696084,90.6027,0.02346411,
2,1,0,1,0,44525.6,0.0257683,0.0254369,3.51909,23,0.000306635,10,8.95147e-05,-2.45357,0.100313,0.588159,80.5151,0.0254369,
2,1,0,1,0,44525.7,0.0277659,0.0274259,3.66958,23,0.000378733,10,0.000100642,-2.43538,0.115121,0.512503,73.2963,0.0274259,
2,1,0,1,0,44525.7,0.0297635,0.0294604,3.81399,23,0.000453814,10,0.000112362,-2.41862,0.127831,0.461546,68.528,0.0294604,
2,1,0,1,0,44525.7,0.0317611,0.0314091,3.94254,23,0.000531565,10,0.000123831,-2.40422,0.137034,0.430549,66.2835,0.0314091,
2,1,0,1,0,44525.7,0.0337586,0.0334501,4.07844,23,0.000611543,10,0.000136424,-2.38951,0.150252,0.392673,62.3234,0.0334501,
2,1,0,1,0,44525.7,0.0357562,0.0354393,4.19372,23,0.000694482,10,0.000148623,-2.3774,0.17014,0.346773,56.7104,0.0354393,
2,1,0,1,0,44525.8,0.0377538,0.0374335,4.30435,23,0.000779731,10,0.000161127,-2.36609,0.173643,0.339777,57.1272,0.0374335,
2,1,0,1,0,44525.8,0.0397514,0.0394796,4.42453,23,0.000867242,10,0.000174679,-2.35413,0.166686,0.353959,61.1249,0.0394796,
2,1,0,1,0,44525.8,0.041749,0.0414139,4.54764,23,0.000956632,10,0.000188335,-2.34221,0.186645,0.316108,55.9377,0.0414139,
2,1,0,1,0,44525.8,0.0437466,0.043435,4.64578,23,0.00104875,10,0.000201789,-2.33294,0.212492,0.277657,50.3679,0.043435,
2,1,0,1,0,44525.8,0.0457442,0.0454348,4.75017,23,0.0011429,10,0.000215823,-2.32329,0.20525,0.287454,53.3046,0.0454348,
2,1,0,1,0,44525.9,0.0477418,0.0474324,4.85886,23,0.00123921,10,0.000230468,-2.31347,0.20102,0.293503,55.6832,0.0474324,
2,1,0,1,0,44525.9,0.0497484,0.0494557,4.97407,23,0.00133765,10,0.000245996,-2.30329,0.223528,0.263949,51.0891,0.0494557,
2,1,0,1,0,44525.9,0.0517369,0.0514021,5.06167,23,0.00143763,10,0.000260181,-2.29571,0.23367,0.252493,49.9858,0.0514021,
2,1,0,1,0,44525.9,0.0537345,0.0534258,5.17251,23,0.00154015,10,0.000276346,-2.2863,0.235742,0.250273,50.4293,0.0534258,
2,1,0,1,0,44525.9,0.0557321,0.0554486,5.26573,23,0.00164473,10,0.000291978,-2.27854,0.255836,0.230617,47.3938,0.0554486,
2,1,0,1,0,44526,0.0577206,0.0573873,5.36027,23,0.00175065,10,0.000307612,-2.27081,0.245269,0.240552,50.3517,0.0573873,
2,1,0,1,0,44526,0.0597273,0.0593525,5.4623,23,0.00185915,10,0.000324201,-2.26262,0.26027,0.226688,48.2844,0.05935248,
2,1,0,1,0,44526,0.0617249,0.0614499,5.55643,23,0.00196952,10,0.000341442,-2.2552,0.283874,0.207839,45.0365,0.0614499,
2,1,0,1,0,44526,0.0637225,0.0633717,5.64331,23,0.00208173,10,0.000357626,-2.24847,0.279306,0.211238,46.5616,0.0633717,
2,1,0,1,0,44526,0.06572,0.065404,5.74054,23,0.00219574,10,0.000375454,-2.24105,0.275254,0.214348,48.0146,0.06540402,
2,1,0,1,0,44526.1,0.0677176,0.0674102,5.83722,23,0.00231121,10,0.000393488,-2.23379,0.306953,0.192212,43.7115,0.0674102,
2,1,0,1,0,44526.1,0.0697152,0.069384,5.91451,23,0.00242896,10,0.000410373,-2.22808,0.33326,0.177039,40.889,0.069384,
2,1,0,1,0,44526.1,0.0717128,0.0713791,5.9995,23,0.00254832,10,0.000428239,-2.22188,0.315937,0.186746,43.7346,0.07137908,
2,1,0,1,0,44526.1,0.0737104,0.0733492,6.08792,23,0.00266943,10,0.000446544,-2.21553,0.323061,0.182628,43.3743,0.0733492,
2,1,0,1,0,44526.1,0.075708,0.0753663,6.17244,23,0.00279168,10,0.000465194,-2.20954,0.354066,0.166636,40.1169,0.0753663,
2,1,0,1,0,44526.2,0.0777056,0.0773952,6.25024,23,0.00291605,10,0.000483738,-2.2041,0.372812,0.158257,38.5964,0.0773952,
2,1,0,1,0,44526.2,0.0797031,0.0793582,6.32652,23,0.00304197,10,0.000502061,-2.19884,0.399255,0.147775,36.4672,0.07935816,
2,1,0,1,0,44526.2,0.0817007,0.0814122,6.39672,23,0.00316938,10,0.000520772,-2.19404,0.418635,0.140934,35.1884,0.0814122,
2,1,0,1,0,44526.2,0.0836983,0.0834153,6.46928,23,0.00329758,10,0.000539637,-2.18914,0.421093,0.140112,35.3607,0.0834153,
2,1,0,1,0,44526.2,0.0856959,0.0853842,6.53718,23,0.00342785,10,0.000558172,-2.18461,0.440928,0.133809,34.1364,0.08538419,
2,1,0,1,0,44526.3,0.0876935,0.0873888,6.60492,23,0.00355946,10,0.000577196,-2.18013,0.470406,0.125424,32.3107,0.0873888,
2,1,0,1,0,44526.3,0.0896911,0.0893415,6.66504,23,0.00369231,10,0.000595465,-2.1762,0.456907,0.129129,33.6254,0.0893415,
2,1,0,1,0,44526.3,0.0916887,0.091414,6.74027,23,0.00382587,10,0.000616155,-2.17132,0.432474,0.136424,35.8698,0.091414,
2,1,0,1,0,44526.3,0.0936862,0.0933747,6.80971,23,0.00396159,10,0.000635855,-2.16687,0.454174,0.129906,34.5145,0.0933747,
2,1,0,1,0,44526.3,0.0956838,0.0953421,6.87584,23,0.00409861,10,0.000655557,-2.16267,0.435377,0.135515,36.3944,0.0953421,
2,1,0,1,0,44526.4,0.0976814,0.0973341,6.95381,23,0.00423704,10,0.000676843,-2.15778,0.388367,0.151918,41.2566,0.0973341,
2,1,0,1,0,44526.4,0.099679,0.0993686,7.04196,23,0.00437642,10,0.00069975,-2.15231,0.386769,0.152546,41.9023,0.0993686,
2,1,0,1,0,44526.4,0.101677,0.101388,7.12368,23,0.00451827,10,0.000722256,-2.1473,0.359068,0.164314,45.7355,0.101388,
2,1,0,1,0,44526.4,0.103674,0.103325,7.22292,23,0.00466189,10,0.000746308,-2.14129,0.31867,0.185144,52.2176,0.103325,
2,1,0,1,0,44526.4,0.105672,0.105355,7.3308,23,0.00480758,10,0.000772333,-2.13485,0.296828,0.198768,56.9143,0.105355,
2,1,0,1,0,44526.5,0.107667,0.10735,7.452,23,0.00495479,10,0.000799974,-2.12773,0.279772,0.210886,61.3364,0.10735,
2,1,0,1,0,44526.5,0.109667,0.109348,7.57573,23,0.00510519,10,0.00082839,-2.12058,0.271607,0.217225,64.2627,0.1093478,
2,1,0,1,0,44526.5,0.111665,0.111365,7.71001,23,0.0052582,10,0.000858625,-2.11295,0.256812,0.22974,69.1501,0.111365,
2,1,0,1,0,44526.5,0.113662,0.113325,7.85078,23,0.00541399,10,0.000889692,-2.10509,0.25507,0.231309,70.8603,0.113325,
2,1,0,1,0,44526.5,0.11566,0.115329,7.99087,23,0.00557253,10,0.000921577,-2.09741,0.250413,0.235611,73.5374,0.115329,
2,1,0,1,0,44526.6,0.117657,0.117338,8.14583,23,0.00573331,10,0.000955812,-2.08906,0.251219,0.234855,74.5761,0.1173376,
2,1,0,1,0,44526.6,0.119655,0.119257,8.28384,23,0.00589778,10,0.000987907,-2.08177,0.28928,0.203955,65.8838,0.119257,
2,1,0,1,0,44526.6,0.121652,0.121345,8.40986,23,0.00606493,10,0.0010205,-2.07521,0.293173,0.201246,66.1132,0.121345,
2,1,0,1,0,44526.6,0.12365,0.12333,8.55313,23,0.00623481,10,0.00105486,-2.06788,0.274502,0.214935,71.7286,0.12333,
2,1,0,1,0,44526.6,0.125648,0.125305,8.69388,23,0.00640671,10,0.00108939,-2.06079,0.320761,0.183937,62.2779,0.125305,
2,1,0,1,0,44526.7,0.127645,0.127282,8.79927,23,0.00658183,10,0.00111999,-2.05555,0.373575,0.157934,54.252,0.1272825,
2,1,0,1,0,44526.7,0.129643,0.129304,8.91085,23,0.00675916,10,0.00115221,-2.05008,0.384282,0.153533,53.3645,0.129304,
2,1,0,1,0,44526.7,0.13164,0.131302,9.01375,23,0.00693862,10,0.00118352,-2.04509,0.427944,0.137869,48.4604,0.131302,
2,1,0,1,0,44526.7,0.133638,0.133268,9.10293,23,0.00711918,10,0.00121313,-2.04082,0.496038,0.118942,42.2363,0.133268,
2,1,0,1,0,44526.7,0.135636,0.135343,9.18443,23,0.00730226,10,0.00124305,-2.03695,0.54115,0.109027,39.0684,0.135343,
2,1,0,1,0,44526.8,0.137633,0.137316,9.2611,23,0.00748692,10,0.0012717,-2.03334,0.642649,0.0918075,33.1433,0.137316,
2,1,0,1,0,44526.8,0.139631,0.139325,9.31641,23,0.0076729,10,0.00129801,-2.03075,0.727383,0.0811127,29.5032,0.139325,
2,1,0,1,0,44526.8,0.141628,0.141318,9.37916,23,0.00785906,10,0.00132544,-2.02784,0.882788,0.0668337,24.4269,0.141318,
2,1,0,1,0,44526.8,0.143626,0.143312,9.41381,23,0.0080471,10,0.00134912,-2.02623,1.641,0.0359537,13.1975,0.143312,
2,1,0,1,0,44526.8,0.145624,0.14532,9.43198,23,0.00823572,10,0.00137065,-2.0254,-44.7845,-0.00131742,-0.483959,0.14532,
2,1,0,1,0,44526.9,0.147621,0.147329,9.41187,23,0.00842434,10,0.00138664,-2.02632,-1.68276,-0.0350614,-12.8713,0.147329,
2,1,0,1,0,44526.9,0.149619,0.149275,9.38107,23,0.00861156,10,0.00140036,-2.02775,-0.784179,-0.0752379,-27.4762,0.149275,
2,1,0,1,0,44526.9,0.151616,0.151286,9.30315,23,0.00879862,10,0.00140743,-2.03137,-0.411562,-0.143356,-51.9032,0.151286,
2,1,0,1,0,44526.9,0.153614,0.153266,9.17395,23,0.00898358,10,0.00140605,-2.03744,-0.280929,-0.210017,-75.0232,0.153266,
2,1,0,1,0,44526.9,0.155611,0.15526,9.00502,23,0.00916561,10,0.00139812,-2.04552,-0.228088,-0.258673,-90.7363,0.15526,
2,1,0,1,0,44527,0.157609,0.157335,8.80476,23,0.00934297,10,0.00138529,-2.05528,-0.173152,-0.340741,-116.593,0.157335,
2,1,0,1,0,44527,0.159607,0.159295,8.53452,23,0.00951655,10,0.00135951,-2.06882,-0.137916,-0.427797,-142.253,0.159295,
2,1,0,1,0,44527,0.161604,0.161289,8.24221,23,0.00968447,10,0.00132938,-2.08396,-0.122595,-0.481257,-154.473,0.161289,
2,1,0,1,0,44527,0.163602,0.163259,7.92211,23,0.00984626,10,0.00129336,-2.10116,-0.110582,-0.53354,-164.693,0.163259,
2,1,0,1,0,44527,0.165606,0.165275,7.58571,23,0.0100014,10,0.00125373,-2.12,-0.104696,-0.563534,-166.783,0.165275,
2,1,0,1,0,44527.1,0.167597,0.167262,7.25461,23,0.0101492,10,0.00121342,-2.13939,-0.101667,-0.580326,-164.302,0.167262,
2,1,0,1,0,44527.1,0.169595,0.169248,6.93306,23,0.0102912,10,0.0011734,-2.15908,-0.102638,-0.574833,-155.562,0.169248,
2,1,0,1,0,44527.1,0.171592,0.171319,6.62338,23,0.0104269,10,0.00113471,-2.17892,-0.103826,-0.56826,-147.117,0.171319,
2,1,0,1,0,44527.1,0.173581,0.173259,6.34297,23,0.010556,10,0.00109897,-2.19771,-0.108463,-0.543966,-134.888,0.173259,
2,1,0,1,0,44527.1,0.175587,0.175261,6.09176,23,0.0106806,10,0.00106765,-2.21526,-0.114993,-0.513075,-122.094,0.175261,
2,1,0,1,0,44527.2,0.177585,0.177228,5.85835,23,0.0108001,10,0.00103826,-2.23222,-0.122916,-0.480001,-109.902,0.177228,
2,1,0,1,0,44527.2,0.179582,0.179304,5.64742,23,0.0109152,10,0.0010126,-2.24815,-0.134038,-0.440175,-97.2092,0.179304,
2,1,0,1,0,44527.2,0.18158,0.181288,5.46368,23,0.0110264,10,0.000990499,-2.26251,-0.144905,-0.407164,-87.0007,0.1812879,
2,1,0,1,0,44527.2,0.183578,0.183225,5.30627,23,0.0111337,10,0.000972241,-2.27521,-0.157097,-0.375565,-77.7952,0.183225,
2,1,0,1,0,44527.2,0.185575,0.18526,5.15465,23,0.0112384,10,0.000954952,-2.2878,-0.171297,-0.34443,-69.4239,0.18526,
2,1,0,1,0,44527.3,0.187573,0.187267,5.02566,23,0.0113403,10,0.00094114,-2.29881,-0.184923,-0.319052,-62.63,0.1872669,
2,1,0,1,0,44527.3,0.18957,0.189212,4.90714,23,0.0114397,10,0.000928491,-2.30917,-0.207858,-0.283848,-54.4436,0.189212,
2,1,0,1,0,44527.3,0.191568,0.191313,4.80539,23,0.0115365,10,0.000919333,-2.31827,-0.225546,-0.261588,-49.0888,0.191313,
2,1,0,1,0,44527.3,0.193566,0.193208,4.71102,23,0.0116317,10,0.000910204,-2.32689,-0.233734,-0.252423,-46.4324,0.1932075,
2,1,0,1,0,44527.3,0.195563,0.195253,4.62244,23,0.0117252,10,0.000902545,-2.33513,-0.258879,-0.227906,-41.1592,0.195253,
2,1,0,1,0,44527.4,0.197561,0.197241,4.54498,23,0.0118171,10,0.000896459,-2.34247,-0.308707,-0.19112,-33.9705,0.197241,
2,1,0,1,0,44527.4,0.199558,0.199238,4.48705,23,0.011907,10,0.000893993,-2.34804,-0.324797,-0.181652,-31.7676,0.199238,
2,1,0,1,0,44527.4,0.201556,0.201247,4.41775,23,0.0119962,10,0.000889057,-2.3548,-0.321968,-0.183248,-31.635,0.201247,
2,1,0,1,0,44527.4,0.203553,0.203238,4.36054,23,0.0120841,10,0.000886225,-2.36046,-0.362237,-0.162877,-27.7307,0.203238,
2,1,0,1,0,44527.4,0.205551,0.205213,4.30775,23,0.0121709,10,0.000884008,-2.36575,-0.471526,-0.125126,-21.0875,0.205213,
2,1,0,1,0,44527.5,0.207549,0.207228,4.27639,23,0.0122564,10,0.000886188,-2.36892,-0.500761,-0.117821,-19.626,0.207228,
2,1,0,1,0,44527.5,0.209546,0.20923,4.22892,23,0.0123416,10,0.000884817,-2.37377,-0.406682,-0.145077,-23.9408,0.20923,
2,1,0,1,0,44527.5,0.211544,0.211221,4.18079,23,0.0124258,10,0.000883071,-2.37874,-0.451207,-0.13076,-21.365,0.211221,
2,1,0,1,0,44527.5,0.213541,0.213177,4.14459,23,0.0125092,10,0.000883531,-2.38252,-0.627565,-0.0940142,-15.2271,0.213177,
2,1,0,1,0,44527.5,0.215539,0.21524,4.11959,23,0.0125915,10,0.000886702,-2.38515,-0.601245,-0.0981296,-15.7519,0.21524,
2,1,0,1,0,44527.6,0.217537,0.217165,4.08178,23,0.0126737,10,0.000886418,-2.38915,-0.57447,-0.102703,-16.3812,0.2171647,
2,1,0,1,0,44527.6,0.219534,0.219217,4.05445,23,0.0127552,10,0.000888804,-2.39207,-0.697691,-0.0845647,-13.382,0.219217,
2,1,0,1,0,44527.6,0.221532,0.221189,4.02792,23,0.0128362,10,0.000890932,-2.39492,-0.787036,-0.0749648,-11.7927,0.2211892,
2,1,0,1,0,44527.6,0.223525,0.223219,4.00725,23,0.0129163,10,0.000894495,-2.39715,-0.848302,-0.0695507,-10.8729,0.223219,
2,1,0,1,0,44527.6,0.225527,0.225264,3.98361,23,0.0129964,10,0.000897365,-2.39972,-0.790275,-0.0746575,-11.6085,0.225264,
2,1,0,1,0,44527.7,0.227525,0.227184,3.96122,23,0.013076,10,0.000899927,-2.40217,-0.741059,-0.0796158,-12.3015,0.227184,
2,1,0,1,0,44527.7,0.229522,0.229243,3.93467,23,0.0131551,10,0.000901995,-2.40509,-0.907805,-0.0649919,-9.99674,0.229243,
2,1,0,1,0,44527.7,0.23152,0.231171,3.92137,23,0.0132338,10,0.000906506,-2.40656,-1.60161,-0.036838,-5.6406,0.231171,
2,1,0,1,0,44527.7,0.233517,0.233225,3.9122,23,0.0133119,10,0.000912425,-2.40758,-1.24987,-0.0472048,-7.19729,0.233225,
2,1,0,1,0,44527.7,0.235515,0.235219,3.89223,23,0.0133901,10,0.000915528,-2.4098,-0.923742,-0.0638706,-9.70359,0.235219,
2,1,0,1,0,44527.8,0.237512,0.237208,3.87356,23,0.0134678,10,0.000918839,-2.41189,-1.19668,-0.0493029,-7.46044,0.237208,
2,1,0,1,0,44527.8,0.23951,0.23922,3.86239,23,0.0135453,10,0.000923959,-2.41314,-1.62019,-0.0364154,-5.48939,0.23922,
2,1,0,1,0,44527.8,0.241508,0.241211,3.85159,23,0.0136221,10,0.000929044,-2.41436,-1.15853,-0.0509265,-7.64635,0.2412108,
2,1,0,1,0,44527.8,0.243505,0.243182,3.83209,23,0.0136991,10,0.000931896,-2.41656,-1.299,-0.0454195,-6.80322,0.243182,
2,1,0,1,0,44527.8,0.245503,0.24519,3.82451,23,0.0137758,10,0.000937734,-2.41742,-1.60913,-0.0366659,-5.46774,0.24519,
2,1,0,1,0,44527.9,0.2475,0.247218,3.81002,23,0.0138522,10,0.000941906,-2.41907,-1.29112,-0.0456966,-6.79652,0.2472181,
2,1,0,1,0,44527.9,0.249498,0.249162,3.79752,23,0.0139281,10,0.000946197,-2.4205,-1.5919,-0.0370626,-5.49514,0.249162,
2,1,0,1,0,44527.9,0.251496,0.251193,3.78818,23,0.0140041,10,0.000951563,-2.42157,-1.92328,-0.0306767,-4.5356,0.251193,
2,1,0,1,0,44527.9,0.253493,0.253157,3.7794,23,0.0140798,10,0.000956782,-2.42258,-1.39221,-0.0423786,-6.2447,0.253157,
2,1,0,1,0,44527.9,0.255491,0.255175,3.76331,23,0.0141553,10,0.000960303,-2.42443,-1.78251,-0.0330994,-4.86953,0.255175,
2,1,0,1,0,44528,0.257488,0.257149,3.75996,23,0.0142303,10,0.000966869,-2.42482,-2.31296,-0.0255084,-3.73893,0.257149,
2,1,0,1,0,44528,0.259486,0.259197,3.74827,23,0.0143056,10,0.00097154,-2.42617,-1.41181,-0.0417904,-6.11226,0.259197,
2,1,0,1,0,44528,0.261484,0.261164,3.73542,23,0.0143806,10,0.000975558,-2.42766,-1.84306,-0.0320119,-4.67123,0.261164,
2,1,0,1,0,44528,0.263481,0.263164,3.72974,23,0.0144553,10,0.000981533,-2.42832,-3.50409,-0.0168375,-2.45137,0.263164,
2,1,0,1,0,44528,0.265479,0.265164,3.72561,23,0.0145296,10,0.000987898,-2.4288,-1.73002,-0.0341037,-4.951,0.2651639,
2,1,0,1,0,44528.1,0.267476,0.267151,3.71,23,0.0146041,10,0.000991131,-2.43063,-1.52689,-0.0386407,-5.60134,0.267151,
2,1,0,1,0,44528.1,0.269474,0.269179,3.70312,23,0.0146783,10,0.000996802,-2.43143,-2.24819,-0.0262433,-3.79187,0.269179,
2,1,0,1,0,44528.1,0.271471,0.271215,3.69459,23,0.0147524,10,0.00100203,-2.43243,-4.83398,-0.0122053,-1.76226,0.271215,
2,1,0,1,0,44528.1,0.273469,0.273128,3.69616,23,0.014826,10,0.00100953,-2.43225,-2.28694,-0.0257987,-3.71256,0.273128,
2,1,0,1,0,44528.1,0.275467,0.275122,3.68009,23,0.0148998,10,0.00101247,-2.43414,-1.19028,-0.0495682,-7.12222,0.275122,
2,1,0,1,0,44528.2,0.277464,0.277183,3.66728,23,0.0149734,10,0.00101651,-2.43566,-1.53107,-0.038535,-5.51757,0.277183,
2,1,0,1,0,44528.2,0.279462,0.279195,3.65761,23,0.0150468,10,0.00102119,-2.4368,-2.69924,-0.021858,-3.12304,0.279195,
2,1,0,1,0,44528.2,0.281464,0.281185,3.65478,23,0.01512,10,0.00102767,-2.43714,-2.10892,-0.0279764,-3.98496,0.281185,
2,1,0,1,0,44528.2,0.283457,0.283118,3.64198,23,0.0151927,10,0.00103111,-2.43866,-1.75213,-0.0336732,-4.79044,0.283118,
2,1,0,1,0,44528.2,0.285455,0.285164,3.63572,23,0.0152656,10,0.00103678,-2.43941,-1.97797,-0.0298285,-4.22977,0.285164,
2,1,0,1,0,44528.3,0.287452,0.287138,3.62497,23,0.0153383,10,0.00104087,-2.4407,-1.73566,-0.0339929,-4.8106,0.287138,
2,1,0,1,0,44528.3,0.28945,0.289133,3.61663,23,0.0154108,10,0.00104569,-2.4417,-2.62651,-0.0224633,-3.1723,0.289133,
2,1,0,1,0,44528.3,0.291447,0.291168,3.61219,23,0.0154829,10,0.00105175,-2.44223,-1.59386,-0.0370171,-5.20974,0.291168,
2,1,0,1,0,44528.3,0.293445,0.293134,3.59578,23,0.0155552,10,0.00105405,-2.44421,-1.49718,-0.0394073,-5.53821,0.293134,
2,1,0,1,0,44528.3,0.295442,0.295188,3.58992,23,0.0156272,10,0.0010597,-2.44491,-5.63145,-0.0104769,-1.46902,0.295188,
2,1,0,1,0,44528.4,0.29744,0.297198,3.58982,23,0.0156991,10,0.00106689,-2.44493,-2.5601,-0.023046,-3.22309,0.297198,
2,1,0,1,0,44528.4,0.299438,0.299142,3.57718,23,0.0157705,10,0.00107008,-2.44646,-0.0332102,-1.77656,-230.668,0.299142,
2,1,0,1,0,44528.4,0.299737,0.29942,3.07719,23,0.0157998,10,0.000921374,-2.51185,0.00391613,15.0659,1318.32,0.29942,
2,1,0,1,0,44528.4,0.29774,0.297407,1.28953,23,0.0158407,10,0.000383516,-2.88957,0.00424328,13.9043,678.984,0.297407,
2,1,0,1,0,44528.4,0.295742,0.295399,0.347232,23,0.0158562,10,0.000102572,-3.45938,0.00558937,10.5558,383.92,0.295399,
2,0,0,1,0,44528.5,0.293745,0.293402,-0.247762,23,0.0158568,10,-7.2694e-05,-3.60596,-0.0149681,-3.94171,249.127,0.293402,
2,0,0,1,0,44528.5,0.291747,0.291445,-0.638023,23,0.0158477,10,-0.000185948,-3.19516,-0.00697127,-8.4633,170.781,0.291445,
2,0,0,1,0,44528.5,0.289754,0.289385,-0.933767,23,0.015832,10,-0.000270218,-3.02976,-0.0158608,-3.71987,125.981,0.289385,
2,0,0,1,0,44528.5,0.287752,0.287404,-1.14703,23,0.0158111,10,-0.000329662,-2.94042,-0.0268243,-2.1995,95.4283,0.287404,
2,0,0,1,0,44528.5,0.285754,0.285433,-1.31093,23,0.0157865,10,-0.000374184,-2.88242,-0.0393902,-1.49783,75.4478,0.285433,
2,0,0,1,0,44528.6,0.283757,0.283444,-1.44585,23,0.0157589,10,-0.000409818,-2.83988,-0.0532702,-1.10756,61.8702,0.283444,
2,0,0,1,0,44528.6,0.281759,0.281424,-1.55896,23,0.0157288,10,-0.000438728,-2.80717,-0.0684958,-0.861367,52.0578,0.281424,
2,0,0,1,0,44528.6,0.279761,0.279406,-1.65607,23,0.0156967,10,-0.000462715,-2.78092,-0.0834847,-0.706716,45.4374,0.279406,
2,0,0,1,0,44528.6,0.277764,0.277458,-1.73917,23,0.0156628,10,-0.000482546,-2.75966,-0.100529,-0.586895,39.7062,0.277458,
2,0,0,1,0,44528.6,0.275766,0.275443,-1.8134,23,0.0156273,10,-0.000499488,-2.74151,-0.124828,-0.472651,33.2999,0.275443,
2,0,0,1,0,44528.7,0.273769,0.273439,-1.873,23,0.0155904,10,-0.000512152,-2.72746,-0.134861,-0.437488,32.0512,0.273439,
2,0,0,1,0,44528.7,0.271771,0.271415,-1.94251,23,0.0155524,10,-0.000527227,-2.71164,-0.136465,-0.432346,32.6924,0.271415,
2,0,0,1,0,44528.7,0.269774,0.269446,-2.00356,23,0.015513,10,-0.00053985,-2.6982,-0.164135,-0.359461,28.0197,0.269446,
2,0,0,1,0,44528.7,0.267776,0.267466,-2.05316,23,0.0154725,10,-0.00054915,-2.68758,-0.206479,-0.285744,22.8455,0.267466,
2,0,0,1,0,44528.7,0.265778,0.265472,-2.09434,23,0.0154311,10,-0.000555988,-2.67895,-0.206717,-0.285414,23.3909,0.265472,
2,0,0,1,0,44528.7,0.263781,0.263436,-2.14743,23,0.0153889,10,-0.00056571,-2.66808,-0.201784,-0.292392,24.4559,0.263436,
2,0,0,1,0,44528.8,0.261783,0.261449,-2.19273,23,0.0153456,10,-0.000573286,-2.65902,-0.251452,-0.234637,20.0235,0.261449,
2,0,0,1,0,44528.8,0.259786,0.259494,-2.22635,23,0.0153015,10,-0.000577726,-2.65241,-0.257692,-0.228955,19.9428,0.259494,
2,0,0,1,0,44528.8,0.257788,0.257499,-2.27151,23,0.0152566,10,-0.00058491,-2.64369,-0.243302,-0.242497,21.4791,0.257499,
2,0,0,1,0,44528.8,0.25579,0.255443,-2.31338,23,0.015211,10,-0.000590935,-2.63575,-0.308447,-0.191281,17.2158,0.255443,
2,0,0,1,0,44528.8,0.253793,0.253451,-2.34119,23,0.0151646,10,-0.000593377,-2.63056,-0.339495,-0.173788,15.9025,0.253451,
2,0,0,1,0,44528.9,0.251795,0.251489,-2.37625,23,0.0151175,10,-0.000597601,-2.62411,-0.319027,-0.184937,17.1426,0.251489,
2,0,0,1,0,44528.9,0.249798,0.249472,-2.4094,23,0.0150697,10,-0.000601077,-2.61809,-0.354512,-0.166426,15.6374,0.249472,
2,0,0,1,0,44528.9,0.2478,0.247466,-2.43916,23,0.0150215,10,-0.000603609,-2.61276,-0.369827,-0.159534,15.1881,0.2474658,
2,0,0,1,0,44528.9,0.245802,0.245502,-2.4697,23,0.0149724,10,-0.000606315,-2.60736,-0.349852,-0.168643,16.2644,0.245502,
2,0,0,1,0,44528.9,0.243805,0.243511,-2.50349,23,0.0149227,10,-0.000609627,-2.60145,-0.411801,-0.143273,13.9677,0.243511,
2,0,0,1,0,44529,0.241807,0.241431,-2.52655,23,0.0148724,10,-0.000609989,-2.59747,-0.371126,-0.158975,15.7287,0.241431,
2,0,0,1,0,44529,0.23981,0.239472,-2.56702,23,0.0148218,10,-0.000614728,-2.59057,-0.363838,-0.16216,16.1911,0.239472,
2,0,0,1,0,44529,0.237812,0.23748,-2.59053,23,0.0147703,10,-0.000615199,-2.58661,-0.494021,-0.119428,12.0764,0.23748,
2,0,0,1,0,44529,0.235815,0.235486,-2.61515,23,0.0147183,10,-0.000615831,-2.5825,-0.483095,-0.122129,12.4655,0.235486,
2,0,0,1,0,44529,0.233817,0.233487,-2.64031,23,0.0146658,10,-0.000616477,-2.57835,-0.427945,-0.137868,14.224,0.233487,
2,0,0,1,0,44529.1,0.231815,0.231474,-2.67222,23,0.0146127,10,-0.000618549,-2.57313,-0.408115,-0.144567,15.065,0.231474,
2,0,0,1,0,44529.1,0.229822,0.22951,-2.70021,23,0.0145593,10,-0.000619727,-2.5686,-0.507434,-0.116271,12.2363,0.22951,
2,0,0,1,0,44529.1,0.227824,0.227479,-2.7211,23,0.0145052,10,-0.000618994,-2.56525,-0.535882,-0.110099,11.7029,0.227479,
2,0,0,1,0,44529.1,0.225827,0.225498,-2.74717,23,0.0144506,10,-0.000619481,-2.56111,-0.539021,-0.109458,11.7244,0.225498,
2,0,0,1,0,44529.1,0.223829,0.223457,-2.76826,23,0.0143955,10,-0.000618587,-2.55779,-0.477371,-0.123594,13.3796,0.223457,
2,0,0,1,0,44529.2,0.221831,0.221498,-2.80069,23,0.0143401,10,-0.000620346,-2.55274,-0.478373,-0.123335,13.4512,0.221498,
2,0,0,1,0,44529.2,0.219834,0.219534,-2.82103,23,0.0142839,10,-0.000619311,-2.54959,-0.56205,-0.104973,11.5684,0.219534,
2,0,0,1,0,44529.2,0.217836,0.217494,-2.847,23,0.0142273,10,-0.000619207,-2.54561,-0.555219,-0.106264,11.7975,0.217494,
2,0,0,1,0,44529.2,0.215839,0.215508,-2.86852,23,0.0141701,10,-0.00061819,-2.54234,-0.508502,-0.116027,13.0075,0.215508,
2,0,0,1,0,44529.2,0.213841,0.213551,-2.8983,23,0.0141128,10,-0.000618934,-2.53786,-0.530773,-0.111159,12.5529,0.213551,
2,0,0,1,0,44529.3,0.211843,0.211501,-2.91883,23,0.0140547,10,-0.000617334,-2.53479,-0.619328,-0.0952646,10.8565,0.211501,
2,0,0,1,0,44529.3,0.209846,0.209527,-2.94198,23,0.0139961,10,-0.000616425,-2.53136,-0.569712,-0.103561,11.8924,0.209527,
2,0,0,1,0,44529.3,0.207848,0.207517,-2.9662,23,0.0139371,10,-0.000615537,-2.5278,-0.435479,-0.135483,15.7225,0.207517,
2,0,0,1,0,44529.3,0.205851,0.205498,-3.00533,23,0.0138777,10,-0.000617589,-2.52211,-0.461897,-0.127734,14.9355,0.205498,
2,0,0,1,0,44529.3,0.203853,0.203506,-3.0261,23,0.0138174,10,-0.000615831,-2.51912,-0.705898,-0.0835814,9.86713,0.203506,
2,0,0,1,0,44529.4,0.201856,0.201514,-3.04464,23,0.0137569,10,-0.000613538,-2.51646,-0.626229,-0.0942148,11.2082,0.201514,
2,0,0,1,0,44529.4,0.199858,0.199542,-3.07054,23,0.0136958,10,-0.000612701,-2.51279,-0.506884,-0.116397,13.9562,0.199542,
2,0,0,1,0,44529.4,0.19786,0.197543,-3.10006,23,0.0136344,10,-0.000612395,-2.50863,-0.625159,-0.094376,11.3936,0.197543,
2,0,0,1,0,44529.4,0.195863,0.195519,-3.11637,23,0.0135723,10,-0.00060931,-2.50635,-0.550064,-0.10726,13.0875,0.195519,
2,0,0,1,0,44529.4,0.193865,0.193498,-3.153,23,0.0135096,10,-0.000610099,-2.50128,-0.48036,-0.122824,15.0824,0.193498,
2,0,0,1,0,44529.5,0.191868,0.191516,-3.17674,23,0.0134464,10,-0.000608398,-2.49802,-0.51745,-0.114021,14.1553,0.1915163,
2,0,0,1,0,44529.5,0.18987,0.189521,-3.20929,23,0.013383,10,-0.000608229,-2.49359,-0.533281,-0.110636,13.8348,0.189521,
2,0,0,1,0,44529.5,0.187872,0.187542,-3.23172,23,0.0133186,10,-0.000606085,-2.49057,-0.594002,-0.0993263,12.5371,0.187542,
2,0,0,1,0,44529.5,0.185875,0.185536,-3.25926,23,0.0132537,10,-0.000604709,-2.48688,-0.538254,-0.109614,13.9441,0.1855357,
2,0,0,1,0,44529.5,0.183877,0.183536,-3.28758,23,0.0131883,10,-0.000603391,-2.48312,-0.419575,-0.140619,18.0841,0.183536,
2,0,0,1,0,44529.6,0.18188,0.181539,-3.33154,23,0.0131226,10,-0.000604804,-2.47735,-0.419396,-0.140679,18.2517,0.181539,
2,0,0,1,0,44529.6,0.179882,0.179489,-3.36145,23,0.0130558,10,-0.000603344,-2.47347,-0.595078,-0.0991466,12.9912,0.179489,
2,0,0,1,0,44529.6,0.177885,0.177543,-3.38345,23,0.0129883,10,-0.000600708,-2.47064,-0.519171,-0.113643,15.0391,0.177543,
2,0,0,1,0,44529.6,0.175887,0.175559,-3.42055,23,0.0129203,10,-0.00060051,-2.4659,-0.390843,-0.150956,20.1702,0.175559,
2,0,0,1,0,44529.6,0.173896,0.173535,-3.46428,23,0.0128519,10,-0.000601176,-2.46039,-0.396674,-0.148737,20.09,0.173535,
2,0,0,1,0,44529.7,0.171892,0.17152,-3.5017,23,0.0127822,10,-0.000600612,-2.45572,-0.392714,-0.150236,20.5511,0.17152,
2,0,0,1,0,44529.7,0.169894,0.169552,-3.54615,23,0.0127119,10,-0.000601257,-2.45024,-0.37023,-0.15936,22.0504,0.1695518,
2,0,0,1,0,44529.7,0.167897,0.167534,-3.58959,23,0.0126406,10,-0.000601379,-2.44496,-0.366536,-0.160966,22.5582,0.167534,
2,0,0,1,0,44529.7,0.165899,0.165566,-3.63606,23,0.0125685,10,-0.000602009,-2.43937,-0.335746,-0.175728,24.9592,0.165566,
2,0,0,1,0,44529.7,0.163901,0.163526,-3.68962,23,0.0124956,10,-0.000603351,-2.43302,-0.312427,-0.188844,27.1981,0.163526,
2,0,0,1,0,44529.8,0.161904,0.161552,-3.74525,23,0.0124213,10,-0.000605051,-2.42652,-0.296157,-0.199219,29.1347,0.1615517,
2,0,0,1,0,44529.8,0.159906,0.159548,-3.80554,23,0.0123459,10,-0.000607165,-2.41958,-0.285719,-0.206496,30.6671,0.159548,
2,0,0,1,0,44529.8,0.157909,0.15761,-3.86613,23,0.0122692,10,-0.00060934,-2.41272,-0.24914,-0.236815,35.8257,0.15761,
2,0,0,1,0,44529.8,0.155911,0.15557,-3.94803,23,0.0121915,10,-0.000614196,-2.40362,-0.219406,-0.268908,41.4505,0.15557,
2,0,0,1,0,44529.8,0.153913,0.153549,-4.03444,23,0.0121117,10,-0.000619486,-2.39422,-0.221137,-0.266803,41.9737,0.153549,
2,0,0,1,0,44529.9,0.151916,0.151585,-4.11533,23,0.0120302,10,-0.00062382,-2.3856,-0.198563,-0.297135,47.8832,0.151585,
2,0,0,1,0,44529.9,0.149918,0.149561,-4.22542,23,0.0119469,10,-0.000631958,-2.37413,-0.173527,-0.340004,56.0999,0.1495609,
2,0,0,1,0,44529.9,0.147921,0.147539,-4.3423,23,0.0118616,10,-0.000640657,-2.36228,-0.159435,-0.370057,62.8042,0.147539,
2,0,0,1,0,44529.9,0.145923,0.145598,-4.47428,23,0.0117735,10,-0.000651448,-2.34928,-0.142995,-0.412603,72.1853,0.145598,
2,0,0,1,0,44529.9,0.143926,0.143603,-4.62637,23,0.0116826,10,-0.000664363,-2.33476,-0.130296,-0.452814,81.928,0.143603,
2,0,0,1,0,44530,0.141928,0.141602,-4.80169,23,0.0115883,10,-0.000679929,-2.31861,-0.119155,-0.495152,92.9594,0.141602,
2,0,0,1,0,44530,0.13993,0.13959,-4.99946,23,0.0114909,10,-0.000697875,-2.30108,-0.113786,-0.518516,101.169,0.13959,
2,0,0,1,0,44530,0.137933,0.13764,-5.20258,23,0.011389,10,-0.000716081,-2.28378,-0.110467,-0.534098,108.677,0.13764,
2,0,0,1,0,44530,0.135935,0.13559,-5.43413,23,0.0112826,10,-0.000736816,-2.26487,-0.106741,-0.552742,117.301,0.13559,
2,0,0,1,0,44530,0.133938,0.133571,-5.67984,23,0.0111716,10,-0.000758661,-2.24566,-0.10278,-0.574041,127.349,0.133571,
2,0,0,1,0,44530.1,0.13194,0.1316,-5.94234,23,0.011056,10,-0.00078201,-2.22604,-0.102587,-0.575124,133.302,0.1316,
2,0,0,1,0,44530.1,0.129942,0.129624,-6.20591,23,0.0109346,10,-0.000804438,-2.20719,-0.106593,-0.553508,134.056,0.129624,
2,0,0,1,0,44530.1,0.127945,0.127612,-6.47696,23,0.0108078,10,-0.000826535,-2.18863,-0.111386,-0.529689,133.751,0.127612,
2,0,0,1,0,44530.1,0.125947,0.125619,-6.7417,23,0.0106757,10,-0.000846882,-2.17123,-0.11432,-0.516096,135.817,0.125619,
2,0,0,1,0,44530.1,0.12395,0.123639,-7.01644,23,0.0105389,10,-0.000867509,-2.15388,-0.123378,-0.478207,130.679,0.123639,
2,0,0,1,0,44530.2,0.121952,0.121583,-7.26903,23,0.0103961,10,-0.000883793,-2.13852,-0.134547,-0.438509,124.276,0.121583,
2,0,0,1,0,44530.2,0.119955,0.119645,-7.51286,23,0.0102483,10,-0.000898876,-2.12419,-0.140746,-0.419196,122.862,0.119645,
2,0,0,1,0,44530.2,0.117957,0.117619,-7.75607,23,0.0100956,10,-0.000912262,-2.11036,-0.150528,-0.391953,118.533,0.117619,
2,0,0,1,0,44530.2,0.115955,0.11562,-7.98993,23,0.00993818,10,-0.000923797,-2.09746,-0.1641,-0.359538,111.925,0.11562,
2,0,0,1,0,44530.2,0.113962,0.113641,-8.20133,23,0.00977702,10,-0.000932007,-2.08612,-0.182385,-0.323491,103.455,0.113641,
2,0,0,1,0,44530.3,0.111964,0.111632,-8.40256,23,0.00961106,10,-0.000937992,-2.07559,-0.201458,-0.292865,95.9326,0.111632,
2,0,0,1,0,44530.3,0.109967,0.109607,-8.58833,23,0.00944118,10,-0.00094134,-2.06609,-0.224613,-0.262674,87.9345,0.109607,
2,0,0,1,0,44530.3,0.107969,0.107617,-8.75557,23,0.00926776,10,-0.00094225,-2.05772,-0.246288,-0.239557,81.8061,0.107617,
2,0,0,1,0,44530.3,0.105971,0.105628,-8.91386,23,0.00909196,10,-0.000941549,-2.04993,-0.279034,-0.211444,73.4425,0.105628,
2,0,0,1,0,44530.3,0.103974,0.103664,-9.04593,23,0.00891238,10,-0.000937734,-2.04355,-0.330541,-0.178495,62.9719,0.103664,
2,0,0,1,0,44530.4,0.101976,0.101611,-9.1668,23,0.00873028,10,-0.000931447,-2.03778,-0.406782,-0.145041,51.7969,0.101611,
2,0,0,1,0,44530.4,0.0999787,0.0996068,-9.25606,23,0.00854615,10,-0.000921967,-2.03357,-0.49119,-0.120117,43.376,0.0996068,
2,0,0,1,0,44530.4,0.0979811,0.0976233,-9.33976,23,0.00836116,10,-0.000911779,-2.02966,-0.644268,-0.0915769,33.3144,0.0976233,
2,0,0,1,0,44530.4,0.0959835,0.0956727,-9.38713,23,0.00817395,10,-0.000898091,-2.02747,-1.16955,-0.0504465,18.4598,0.0956727,
2,0,0,1,0,44530.4,0.0939859,0.0936569,-9.41298,23,0.00798599,10,-0.000881591,-2.02627,-2.17994,-0.0270649,9.93606,0.09365689,
2,0,0,1,0,44530.5,0.0919883,0.0917025,-9.42657,23,0.00779762,10,-0.00086444,-2.02565,-6.36819,-0.0092648,3.40597,0.0917025,
2,0,0,1,0,44530.5,0.0899907,0.0896523,-9.42662,23,0.00761003,10,-0.000845118,-2.02564,2.49331,0.0236633,-8.68919,0.0896523,
2,0,0,1,0,44530.5,0.0879931,0.0876455,-9.39132,23,0.00742188,10,-0.000823107,-2.02727,1.07768,0.0547471,-20.0557,0.0876455,
2,0,0,1,0,44530.5,0.0859955,0.0856774,-9.3469,23,0.00723453,10,-0.000800818,-2.02933,0.870099,0.0678084,-24.7216,0.0856774,
2,0,0,1,0,44530.5,0.083998,0.0836446,-9.29241,23,0.00704816,10,-0.00077726,-2.03187,0.720174,0.0819246,-29.6941,0.0836446,
2,0,0,1,0,44530.6,0.0820004,0.081675,-9.22806,23,0.00686386,10,-0.000753702,-2.03489,0.625151,0.0943772,-33.9807,0.08167503,
2,0,0,1,0,44530.6,0.0800028,0.0797298,-9.15938,23,0.00667999,10,-0.000730276,-2.03813,0.621549,0.0949242,-33.9343,0.0797298,
2,0,0,1,0,44530.6,0.0780052,0.0776766,-9.09237,23,0.00649755,10,-0.000706265,-2.04132,0.591165,0.099803,-35.3926,0.0776766,
2,0,0,1,0,44530.6,0.0760076,0.0756326,-9.01438,23,0.00631658,10,-0.000681781,-2.04506,0.583971,0.101032,-35.5722,0.0756326,
2,0,0,1,0,44530.6,0.07401,0.0737109,-8.9513,23,0.00613795,10,-0.000659809,-2.04811,0.605561,0.0974303,-34.0219,0.0737109,
2,0,0,1,0,44530.7,0.0720124,0.0717106,-8.88094,23,0.00595968,10,-0.000636858,-2.05154,0.636096,0.0927534,-32.1686,0.0717106,
2,0,0,1,0,44530.7,0.0700148,0.0697013,-8.82232,23,0.00578269,10,-0.000614927,-2.05442,0.648057,0.0910414,-31.331,0.0697013,
2,0,0,1,0,44530.7,0.0680173,0.0677036,-8.7554,23,0.00560698,10,-0.000592772,-2.05772,0.831702,0.0709389,-24.2889,0.0677036,
2,0,0,1,0,44530.7,0.0660106,0.0656656,-8.7243,23,0.00543234,10,-0.000572886,-2.05927,0.901822,0.0654231,-22.2407,0.06566561,
2,0,0,1,0,44530.7,0.0640221,0.0636923,-8.66618,23,0.00525941,10,-0.000551969,-2.06217,0.67323,0.0876372,-29.6377,0.0636923,
2,0,0,1,0,44530.8,0.0620245,0.0617043,-8.60689,23,0.00508676,10,-0.000531082,-2.06515,0.766373,0.076986,-25.8809,0.0617043,
2,0,0,1,0,44530.8,0.0600269,0.0596649,-8.56195,23,0.00491512,10,-0.000510848,-2.06743,0.900357,0.0655296,-21.8977,0.0596649,
2,0,0,1,0,44530.8,0.0580361,0.0576494,-8.5181,23,0.00474528,10,-0.000491063,-2.06966,0.871459,0.0677025,-22.5042,0.0576494,
2,0,0,1,0,44530.8,0.0560317,0.0556907,-8.47252,23,0.00457541,10,-0.000471841,-2.07199,0.778697,0.0757676,-25.0422,0.0556907,
2,0,0,1,0,44530.8,0.0540342,0.0537248,-8.41982,23,0.00440657,10,-0.000452353,-2.0747,0.773833,0.0762438,-25.0617,0.0537248,
2,0,0,1,0,44530.9,0.0520366,0.0517089,-8.37272,23,0.00423868,10,-0.000432944,-2.07713,0.758038,0.0778325,-25.4205,0.0517089,
2,0,0,1,0,44530.9,0.050039,0.0497138,-8.31786,23,0.00407181,10,-0.000413513,-2.07999,0.776856,0.0759472,-24.6704,0.0497138,
2,0,0,1,0,44530.9,0.0480414,0.0477195,-8.2743,23,0.00390672,10,-0.000394846,-2.08227,0.818138,0.072115,-23.278,0.0477195,
2,0,0,1,0,44530.9,0.0460438,0.0456925,-8.22425,23,0.0037418,10,-0.000375787,-2.0849,0.693422,0.0850853,-27.2952,0.0456925,
2,0,0,1,0,44530.9,0.0440462,0.0437448,-8.16581,23,0.00357796,10,-0.000357212,-2.088,0.625174,0.0943738,-30.0708,0.0437448,
2,0,0,1,0,44531,0.0420486,0.041729,-8.10507,23,0.00341537,10,-0.000338216,-2.09124,0.693132,0.0851209,-26.9455,0.041729,
2,0,0,1,0,44531,0.0400511,0.0397016,-8.05687,23,0.00325455,10,-0.000319871,-2.09383,0.688796,0.0856567,-26.9145,0.0397016,
2,0,0,1,0,44531,0.0380535,0.0377365,-7.99761,23,0.00309404,10,-0.000301802,-2.09704,0.563753,0.104656,-32.6388,0.0377365,
2,0,0,1,0,44531,0.0360559,0.0356833,-7.92572,23,0.00293485,10,-0.000282816,-2.10096,0.551693,0.106943,-33.102,0.0356833,
2,0,0,1,0,44531,0.0340583,0.0337321,-7.86505,23,0.00277698,10,-0.000265305,-2.1043,0.599359,0.0984384,-30.2152,0.03373209,
2,0,0,1,0,44531.1,0.0320607,0.0316729,-7.80454,23,0.00262108,10,-0.000247192,-2.10765,0.519928,0.113477,-34.5242,0.0316729,
2,0,0,1,0,44531.1,0.0300631,0.0297227,-7.72663,23,0.00246583,10,-0.000229656,-2.11201,0.464487,0.127022,-38.3169,0.0297227,
2,0,0,1,0,44531.1,0.0280655,0.0277654,-7.65482,23,0.00231201,10,-0.000212539,-2.11607,0.496982,0.118717,-35.4695,0.0277654,
2,0,0,1,0,44531.1,0.0260679,0.0257305,-7.58503,23,0.00215968,10,-0.000195167,-2.12004,0.468476,0.12594,-37.2552,0.0257305,
2,0,0,1,0,44531.1,0.0240704,0.0237525,-7.50531,23,0.00200958,10,-0.00017827,-2.12463,0.43766,0.134808,-39.4911,0.02375246,
2,0,0,1,0,44531.2,0.0220728,0.0217526,-7.42794,23,0.00186029,10,-0.000161577,-2.12913,0.434352,0.135835,-39.3671,0.0217526,
2,0,0,1,0,44531.2,0.0200752,0.0197411,-7.3474,23,0.00171257,10,-0.000145046,-2.13387,0.415895,0.141863,-40.6708,0.0197411,
2,0,0,1,0,44531.2,0.0180776,0.0177378,-7.26465,23,0.00156646,10,-0.000128859,-2.13879,0.451373,0.130712,-37.1049,0.0177378,
2,0,0,1,0,44531.2,0.01608,0.0157777,-7.20034,23,0.00142261,10,-0.000113605,-2.14265,0.483956,0.121912,-34.2396,0.0157777,
2,0,0,1,0,44531.2,0.0140824,0.0137665,-7.12868,23,0.0012794,10,-9.8137e-05,-2.14699,0.450155,0.131066,-36.4541,0.0137665,
2,0,0,1,0,44531.3,0.0120848,0.0117557,-7.05372,23,0.00113771,10,-8.29214e-05,-2.15158,0.449181,0.13135,-36.1657,0.0117557,
2,0,0,1,0,44531.3,0.0100872,0.00971129,-6.98202,23,0.000997505,10,-6.78044e-05,-2.15602,0.505357,0.116749,-31.8489,0.00971129,
2,0,0,1,0,44531.3,0.00809193,0.00776726,-6.92669,23,0.000859286,10,-5.38014e-05,-2.15947,0.505796,0.116648,-31.5008,0.00776726,
2,0,0,1,0,44531.3,0.00609208,0.00576093,-6.85758,23,0.000721548,10,-3.9506e-05,-2.16383,0.499793,0.118049,-31.6186,0.00576093,
2,0,0,1,0,44531.3,0.00409449,0.00375372,-6.79979,23,0.000585063,10,-2.55245e-05,-2.1675,0.944205,0.0624865,-16.6414,0.00375372,
2,0,0,1,0,44531.4,0.0020969,0.00173524,-6.79059,23,0.000449563,10,-1.17833e-05,-2.16809,0.800952,0.0736623,-19.4349,0.00173524,
2,0,0,1,0,44531.4,9.14991e-05,-0.000290186,-6.72119,23,0.000314571,10,1.95039e-06,-2.17255,0.516246,0.114287,-30.0165,-0.000290186,
2,0,0,1,0,44531.4,-0.00189827,-0.00230501,-6.66931,23,0.000181296,10,1.53728e-05,-2.17592,0.678943,0.0868997,-22.6421,-0.002305011,
2,0,0,1,0,44531.4,-0.00389586,-0.00424777,-6.63159,23,4.82659e-05,10,2.81694e-05,-2.17838,0.896762,0.0657922,-17.0371,-0.00424777,
2,0,0,1,0,44531.4,-0.00589345,-0.00629468,-6.60134,23,-8.40061e-05,10,4.15533e-05,-2.18037,0.892101,0.066136,-17.0284,-0.006294677,
2,0,0,1,0,44531.5,-0.00789103,-0.00825735,-6.56331,23,-0.000215642,10,5.41956e-05,-2.18288,1.16066,0.0508333,-13.045,-0.00825735,
2,0,0,1,0,44531.5,-0.00988862,-0.0102447,-6.54981,23,-0.000346218,10,6.71006e-05,-2.18377,2.52576,0.0233593,-5.97235,-0.0102447,
2,0,0,1,0,44531.5,-0.0118862,-0.0123035,-6.53915,23,-0.000477093,10,8.04543e-05,-2.18448,2.0952,0.0281595,-7.18233,-0.0123035,
2,0,0,1,0,44531.5,-0.0138838,-0.0142387,-6.52113,23,-0.000607664,10,9.28523e-05,-2.18568,2.42356,0.0243443,-6.20108,-0.0142387,
2,0,0,1,0,44531.5,-0.0158814,-0.0162559,-6.51464,23,-0.000737979,10,0.000105901,-2.18611,-125.069,-0.000471741,0.120062,-0.0162559,
2,0,0,1,0,44531.6,-0.017879,-0.0182541,-6.52161,23,-0.000867704,10,0.000119046,-2.18565,-7.61023,-0.00775272,1.9723,-0.0182541,
2,0,0,1,0,44531.6,-0.0198766,-0.0202923,-6.5226,23,-0.000998106,10,0.000132359,-2.18558,-18.2643,-0.00323034,0.822386,-0.0202923,
2,0,0,1,0,44531.6,-0.0218741,-0.0222301,-6.52488,23,-0.00112847,10,0.000145049,-2.18543,-3.96415,-0.0148834,3.79302,-0.0222301,
2,0,0,1,0,44531.6,-0.0238717,-0.0242492,-6.53761,23,-0.00125908,10,0.000158532,-2.18458,-1.50843,-0.0391135,9.99085,-0.0242492,
2,0,0,1,0,44531.6,-0.0258693,-0.0262689,-6.56523,23,-0.00138942,10,0.000172461,-2.18275,-1.75986,-0.0335253,8.57639,-0.0262689,
2,0,0,1,0,44531.7,-0.0278669,-0.0282926,-6.57228,23,-0.00152068,10,0.000185947,-2.18228,-1.76702,-0.0333896,8.5774,-0.0282926,
2,0,0,1,0,44531.7,-0.0298645,-0.0302655,-6.59951,23,-0.00165234,10,0.000199738,-2.18049,-1.22521,-0.048155,12.3971,-0.0302655,
2,0,0,1,0,44531.7,-0.0318621,-0.0322046,-6.62078,23,-0.00178449,10,0.00021322,-2.17909,-1.10919,-0.053192,13.7562,-0.0322046,
2,0,0,1,0,44531.7,-0.0338597,-0.034202,-6.65366,23,-0.00191655,10,0.000227569,-2.17694,-0.952406,-0.0619484,16.0852,-0.034202,
2,0,0,1,0,44531.7,-0.0358573,-0.0362452,-6.68577,23,-0.0020499,10,0.000242327,-2.17485,-0.897226,-0.0657582,17.1643,-0.0362452,
2,0,0,1,0,44531.8,-0.0378548,-0.0382411,-6.72299,23,-0.00218399,10,0.000257094,-2.17244,-0.963033,-0.0612648,16.0623,-0.0382411,
2,0,0,1,0,44531.8,-0.0398524,-0.0402514,-6.75012,23,-0.00231872,10,0.000271702,-2.17069,-0.782279,-0.0754207,19.9061,-0.0402514,
2,0,0,1,0,44531.8,-0.04185,-0.0422589,-6.80297,23,-0.00245351,10,0.000287486,-2.1673,-0.689131,-0.0856151,22.7032,-0.0422589,
2,0,0,1,0,44531.8,-0.0438476,-0.0441893,-6.83953,23,-0.0025899,10,0.000302234,-2.16497,-0.840162,-0.0702246,18.747,-0.0441893,
2,0,0,1,0,44531.8,-0.0458452,-0.0462542,-6.87787,23,-0.00272712,10,0.00031813,-2.16255,-0.746204,-0.0790669,21.2369,-0.0462542,
2,0,0,1,0,44531.9,-0.0478428,-0.048225,-6.92523,23,-0.00286516,10,0.000333969,-2.15957,-0.576058,-0.10242,27.7124,-0.048225,
2,0,0,1,0,44531.9,-0.0498495,-0.0502482,-6.98855,23,-0.00300423,10,0.000351162,-2.15561,-0.591565,-0.0997354,27.1658,-0.0502482,
2,0,0,1,0,44531.9,-0.051838,-0.0522134,-7.03358,23,-0.00314373,10,0.000367247,-2.15282,-0.661542,-0.0891855,24.4933,-0.0522134,
2,0,0,1,0,44531.9,-0.0538356,-0.0542151,-7.08571,23,-0.00328487,10,0.000384152,-2.14962,-0.62859,-0.0938609,25.9544,-0.0542151,
2,0,0,1,0,44531.9,-0.0558331,-0.0562134,-7.1374,23,-0.00342715,10,0.000401218,-2.14646,-0.566414,-0.104164,29.0426,-0.0562134,
2,0,0,1,0,44532,-0.0578217,-0.0582536,-7.203,23,-0.00356982,10,0.000419601,-2.14249,-0.541957,-0.108865,30.5801,-0.0582536,
2,0,0,1,0,44532,-0.0598283,-0.0601619,-7.25814,23,-0.00371446,10,0.000436664,-2.13917,-0.530835,-0.111146,31.5129,-0.0601619,
2,0,0,1,0,44532,-0.0618259,-0.0621965,-7.32725,23,-0.00386032,10,0.000455729,-2.13506,-0.517572,-0.113994,32.5813,-0.0621965,
2,0,0,1,0,44532,-0.0638235,-0.0641915,-7.38943,23,-0.0040075,10,0.000474339,-2.13139,-0.545213,-0.108215,31.2091,-0.0641915,
2,0,0,1,0,44532,-0.0658211,-0.0662156,-7.45269,23,-0.00415599,10,0.000493485,-2.12769,-0.469495,-0.125667,36.5966,-0.0662156,
2,0,0,1,0,44532.1,-0.0678187,-0.0681712,-7.53508,23,-0.00430522,10,0.000513675,-2.12291,-0.438578,-0.134526,39.5378,-0.0681712,
2,0,0,1,0,44532.1,-0.0698162,-0.0701824,-7.60953,23,-0.00445667,10,0.000534055,-2.11864,-0.477268,-0.12362,36.7069,-0.0701824,
2,0,0,1,0,44532.1,-0.0718138,-0.0721808,-7.68226,23,-0.0046096,10,0.000554511,-2.11451,-0.450817,-0.130873,39.2668,-0.0721808,
2,0,0,1,0,44532.1,-0.0738114,-0.07419,-7.76689,23,-0.00476409,10,0.000576225,-2.10975,-0.41479,-0.142241,43.1226,-0.07419,
2,0,0,1,0,44532.1,-0.075809,-0.0761797,-7.8547,23,-0.00491963,10,0.000598368,-2.10487,-0.433161,-0.136208,41.726,-0.0761797,
2,0,0,1,0,44532.2,-0.0778066,-0.0781621,-7.93263,23,-0.00507761,10,0.000620032,-2.10058,-0.428036,-0.137839,42.7135,-0.0781621,
2,0,0,1,0,44532.2,-0.0798042,-0.0801962,-8.02626,23,-0.00523726,10,0.000643676,-2.09549,-0.394195,-0.149672,46.8864,-0.0801962,
2,0,0,1,0,44532.2,-0.0818018,-0.0821948,-8.12171,23,-0.00539878,10,0.000667562,-2.09035,-0.386433,-0.152678,48.3989,-0.0821948,
2,0,0,1,0,44532.2,-0.0837994,-0.084193,-8.2197,23,-0.00556147,10,0.00069204,-2.08514,-0.394147,-0.14969,47.9982,-0.084193,
2,0,0,1,0,44532.2,-0.0857969,-0.0861444,-8.31128,23,-0.00572681,10,0.000715971,-2.08033,-0.39039,-0.151131,49.0502,-0.0861444,
2,0,0,1,0,44532.3,-0.0877945,-0.0881424,-8.41342,23,-0.00589413,10,0.000741578,-2.07503,-0.382002,-0.15445,50.707,-0.0881424,
2,0,0,1,0,44532.3,-0.0897921,-0.090147,-8.51424,23,-0.00606347,10,0.000767533,-2.06985,-0.384792,-0.15333,50.9583,-0.090147,
2,0,0,1,0,44532.3,-0.0917897,-0.0921766,-8.61899,23,-0.006234,10,0.000794469,-2.06454,-0.393001,-0.150127,50.4764,-0.0921766,
2,0,0,1,0,44532.3,-0.0937873,-0.0941642,-8.71702,23,-0.00640745,10,0.000820832,-2.05963,-0.398344,-0.148113,50.3978,-0.0941642,
2,0,0,1,0,44532.3,-0.0957849,-0.0961507,-8.81928,23,-0.0065829,10,0.000847979,-2.05457,-0.400957,-0.147148,50.6371,-0.0961507,
2,0,0,1,0,44532.4,-0.0977825,-0.0981531,-8.919,23,-0.00676031,10,0.000875428,-2.04968,-0.398105,-0.148202,51.5959,-0.0981531,
2,0,0,1,0,44532.4,-0.0997501,-0.100096,-9.02283,23,-0.00693614,10,0.000903146,-2.04466,0.00941819,6.26448,-1946.13,-0.100096,
2,0,0,1,1,44532.4,-0.0987313,-0.0991018,-7.07266,23,-0.00705876,10,0.000700913,-2.15042,-0.0126849,-4.6512,1262.48,-0.0991018,
2,0,0,1,1,44532.4,-0.0967337,-0.0970916,-5.23014,23,-0.00718029,10,0.000507803,-2.28149,-0.0151846,-3.88552,803.614,-0.0970916,
2,0,0,1,1,44532.4,-0.0947362,-0.0950926,-3.8508,23,-0.00727033,10,0.000366182,-2.41445,-0.0141129,-4.18058,627.594,-0.0950926,
2,0,0,1,1,44532.5,-0.0927386,-0.0931105,-2.73168,23,-0.00733559,10,0.000254348,-2.56357,-0.0120019,-4.91589,516.86,-0.0931105,
2,0,0,1,1,44532.5,-0.090741,-0.0911171,-1.79602,23,-0.00738027,10,0.000163648,-2.74569,-0.00920959,-6.40637,432.021,-0.0911171,
2,0,0,1,1,44532.5,-0.0887434,-0.0891175,-1.00659,23,-0.00740796,10,8.97048e-05,-2.99715,-0.0052663,-11.2033,370.287,-0.0891175,
2,0,0,1,1,44532.5,-0.0867458,-0.0871067,-0.31102,23,-0.00742085,10,2.70919e-05,-3.50721,-0.00741555,-7.95626,322.905,-0.0871067,
2,1,0,1,1,44532.5,-0.0847482,-0.0851038,0.289463,23,-0.00742084,10,-2.46344e-05,-3.53841,0.00950495,6.20729,282.81,-0.08510375,
2,1,0,1,1,44532.6,-0.0827529,-0.0831136,0.81827,23,-0.00740969,10,-6.80093e-05,-3.0871,0.00611752,9.64443,251.539,-0.0831136,
2,1,0,1,1,44532.6,-0.080753,-0.0811415,1.28612,23,-0.00738845,10,-0.000104358,-2.89072,0.0124878,4.72462,222.725,-0.0811415,
2,1,0,1,1,44532.6,-0.0787555,-0.0791317,1.70514,23,-0.00735837,10,-0.00013493,-2.76824,0.0193418,3.05038,196.302,-0.0791317,
2,1,0,1,1,44532.6,-0.0767579,-0.0771262,2.07433,23,-0.00732047,10,-0.000159985,-2.68312,0.0262668,2.24618,178.724,-0.0771262,
2,1,0,1,1,44532.6,-0.0747603,-0.0751689,2.41338,23,-0.00727545,10,-0.000181411,-2.61737,0.0336913,1.7512,163.037,-0.0751689,
2,1,0,1,1,44532.7,-0.0727627,-0.0731265,2.72644,23,-0.00722415,10,-0.000199375,-2.5644,0.0432739,1.36341,143.14,-0.0731265,
2,1,0,1,1,44532.7,-0.0707651,-0.0711596,2.98727,23,-0.00716691,10,-0.000212573,-2.52473,0.0534986,1.10283,128.018,-0.0711596,
2,1,0,1,1,44532.7,-0.0687675,-0.0691389,3.23692,23,-0.00710458,10,-0.000223797,-2.48987,0.0632725,0.932475,117.076,-0.0691389,
2,1,0,1,1,44532.7,-0.0667699,-0.0671347,3.45849,23,-0.00703752,10,-0.000232185,-2.46111,0.0752541,0.78401,105.385,-0.0671347,
2,1,0,1,1,44532.7,-0.0647723,-0.0651225,3.66019,23,-0.00696648,10,-0.000238361,-2.4365,0.0854184,0.690718,98.3828,-0.0651225,
2,1,0,1,1,44532.8,-0.0627748,-0.0631777,3.84779,23,-0.00689132,10,-0.000243095,-2.41479,0.0987816,0.597277,89.3561,-0.0631777,
2,1,0,1,1,44532.8,-0.0607772,-0.0611853,4.012,23,-0.00681269,10,-0.000245475,-2.39664,0.121092,0.487232,76.0408,-0.0611853,
2,1,0,1,1,44532.8,-0.0587796,-0.0591503,4.15404,23,-0.00673093,10,-0.000245713,-2.38153,0.136082,0.433561,70.2536,-0.0591503,
2,1,0,1,1,44532.8,-0.056782,-0.0571545,4.29518,23,-0.00664674,10,-0.000245489,-2.36702,0.150845,0.391131,65.4007,-0.0571545,
2,1,0,1,1,44532.8,-0.0547844,-0.0551205,4.41759,23,-0.00655957,10,-0.0002435,-2.35481,0.179972,0.327828,56.3968,-0.0551205,
2,1,0,1,1,44532.9,-0.0527868,-0.0531175,4.52285,23,-0.00647011,10,-0.000240243,-2.34459,0.212448,0.277715,48.9193,-0.0531175,
2,1,0,1,1,44532.9,-0.0507892,-0.0511698,4.61086,23,-0.00637867,10,-0.000235937,-2.33622,0.219635,0.268628,48.4176,-0.0511698,
2,1,0,1,1,44532.9,-0.0487916,-0.0491442,4.71523,23,-0.00628576,10,-0.000231726,-2.3265,0.245178,0.240641,44.137,-0.0491442,
2,1,0,1,1,44532.9,-0.0467941,-0.0471192,4.78964,23,-0.00619063,10,-0.000225684,-2.3197,0.314377,0.187673,35.0468,-0.0471192,
2,1,0,1,1,44532.9,-0.0447965,-0.0451419,4.8555,23,-0.00609409,10,-0.000219187,-2.31377,0.342412,0.172307,32.6374,-0.0451419,
2,1,0,1,1,44533,-0.0427989,-0.0431929,4.91778,23,-0.00599628,10,-0.000212413,-2.30823,0.361848,0.163052,31.2906,-0.0431929,
2,1,0,1,1,44533,-0.0408013,-0.0411768,4.97957,23,-0.0058977,10,-0.000205043,-2.30281,0.447318,0.131897,25.5797,-0.0411768,
2,1,0,1,1,44533,-0.0388037,-0.0391502,5.02119,23,-0.00579759,10,-0.000196581,-2.29919,0.501015,0.117761,23.0965,-0.0391502,
2,1,0,1,1,44533,-0.0368061,-0.0371859,5.07174,23,-0.00569666,10,-0.000188597,-2.29484,0.549149,0.107439,21.2312,-0.0371859,
2,1,0,1,1,44533,-0.0348085,-0.0351551,5.10601,23,-0.00559489,10,-0.000179503,-2.29192,0.68372,0.0862927,17.1961,-0.0351551,
2,1,0,1,1,44533.1,-0.0328109,-0.0331781,5.14066,23,-0.00549293,10,-0.000170557,-2.28898,0.800364,0.0737165,14.7736,-0.0331781,
2,1,0,1,1,44533.1,-0.0308134,-0.0311934,5.16454,23,-0.00538986,10,-0.0001611,-2.28697,1.03961,0.0567521,11.4366,-0.0311934,
2,1,0,1,1,44533.1,-0.0288158,-0.0291606,5.18661,23,-0.00528631,10,-0.000151245,-2.28512,1.21858,0.0484171,9.79595,-0.0291606,
2,1,0,1,1,44533.1,-0.0268182,-0.0271686,5.20397,23,-0.00518239,10,-0.000141385,-2.28367,1.61819,0.0364605,7.40132,-0.0271686,
2,1,0,1,1,44533.1,-0.0248138,-0.025151,5.21629,23,-0.00507819,10,-0.000131195,-2.28264,1.65997,0.0355428,7.23848,-0.025151,
2,1,0,1,1,44533.2,-0.022823,-0.0231944,5.23274,23,-0.00497413,10,-0.00012137,-2.28127,2.38398,0.0247485,5.0478,-0.0231944,
2,1,0,1,1,44533.2,-0.0208254,-0.0212044,5.23621,23,-0.00486937,10,-0.00011103,-2.28098,6.55413,0.00900195,1.83964,-0.0212044,
2,1,0,1,1,44533.2,-0.0188278,-0.0192035,5.24008,23,-0.00476458,10,-0.000100628,-2.28066,5.70048,0.01035,2.11675,-0.0192035,
2,1,0,1,1,44533.2,-0.0168393,-0.0172311,5.24462,23,-0.00466022,10,-9.03703e-05,-2.28029,4.52517,0.0130382,2.66911,-0.0172311,
2,1,0,1,1,44533.2,-0.0148327,-0.0151471,5.25091,23,-0.00455515,10,-7.95358e-05,-2.27977,57.379,0.00102825,0.210481,-0.0151471,
2,1,0,1,1,44533.3,-0.0128351,-0.0131793,5.24547,23,-0.00445014,10,-6.91318e-05,-2.28022,-8.29083,-0.00711629,-1.45751,-0.0131793,
2,1,0,1,1,44533.3,-0.0108375,-0.0111747,5.24512,23,-0.00434515,10,-5.86128e-05,-2.28024,1107.08,5.32934e-05,0.01091,-0.0111747,
2,1,0,1,1,44533.3,-0.00883989,-0.00918965,5.24551,23,-0.00424014,10,-4.82044e-05,-2.28021,-20.3135,-0.00290447,-0.594412,-0.00918965,
2,1,0,1,1,44533.3,-0.0068423,-0.00720174,5.24275,23,-0.00413563,10,-3.7757e-05,-2.28044,-5.72238,-0.0103104,-2.10902,-0.00720174,
2,1,0,1,1,44533.3,-0.00484471,-0.00521956,5.23714,23,-0.00403074,10,-2.73356e-05,-2.28091,-9.13309,-0.00646003,-1.32111,-0.00521956,
2,1,0,1,1,44533.4,-0.00284713,-0.00319299,5.23746,23,-0.00392589,10,-1.67231e-05,-2.28088,-5.1729,-0.0114056,-2.32912,-0.00319299,
2,1,0,1,1,44533.4,-0.000849538,-0.00124193,5.22788,23,-0.0038211,10,-6.49266e-06,-2.28167, , , ,-0.00124193,
2,1,0,1,1,44533.4,-2.55332e-05,-0.000325324,5.24645,23,-0.00377869,10,-1.70679e-06,-2.28013, , , ,-0.000325324,