File: Figure_codes/Fig_3-5/rawdata_trumpetplot_data/after 10th/20221101_1-115_003_TrumpetPlot_ParaChange_from10_every3_05_CV_C01_1.csv
mode,ox/red,error,control changes,counter inc.,time/s,control/V,Ewe/V,<I>/mA,cycle number,(Q-Qo)/C,I Range,P/W,log(|I|),Tafel slope mV/dec,alpha_eff,dI/d(E-IR),E-IR/V,
2,0,0,1,0,3090.15,2.44065e-05,-0.000268062,-0.704896,2,0.0000000E+000,10,1.88956e-07,-3.15187, , , ,-0.000268062,
2,1,0,1,0,3090.21,0.00129787,0.000967969,0.336778,2,-6.23513e-08,10,3.25991e-07,-3.47266, , , ,0.000967969,
2,1,0,1,0,3090.29,0.00279606,0.0024518,0.623038,2,3.96481e-05,10,1.52756e-06,-3.20549,0.00520114,11.3437,144.43,0.0024518,
2,1,0,1,0,3090.36,0.00429425,0.00397017,0.686226,2,9.03126e-05,10,2.72443e-06,-3.16353,0.0355903,1.65775,42.2815,0.00397017,
2,1,0,1,0,3090.44,0.00579244,0.00550219,0.721791,2,0.00014483,10,3.97143e-06,-3.14159,0.0628629,0.93855,26.3309,0.00550219,
2,1,0,1,0,3090.51,0.00729063,0.0069896,0.765568,2,0.00020225,10,5.35101e-06,-3.11602,0.0846454,0.697026,20.6266,0.006989595,
2,1,0,1,0,3090.59,0.00878882,0.00854091,0.798795,2,0.000262151,10,6.82243e-06,-3.09756,0.102306,0.576701,17.7708,0.008540906,
2,1,0,1,0,3090.66,0.010287,0.0100074,0.8212,2,0.000324012,10,8.21809e-06,-3.08555,0.126114,0.467832,14.866,0.0100074,
2,1,0,1,0,3090.74,0.0117852,0.0115065,0.839164,2,0.000387565,10,9.65585e-06,-3.07615,0.139363,0.423356,13.8517,0.0115065,
2,1,0,1,0,3090.81,0.0132847,0.0129796,0.858126,2,0.000452669,10,1.11382e-05,-3.06645,0.135236,0.436276,14.7021,0.0129796,
2,1,0,1,0,3090.89,0.0147802,0.0144281,0.878581,2,0.000519178,10,1.26762e-05,-3.05622,0.150909,0.390964,13.4293,0.0144281,
2,1,0,1,0,3090.96,0.0162798,0.0159688,0.897567,2,0.000587427,10,1.4333e-05,-3.04693,0.18335,0.321789,11.2319,0.01596877,
2,1,0,1,0,3091.04,0.017778,0.017461,0.914525,2,0.000656771,10,1.59685e-05,-3.0388,0.193506,0.304901,10.8581,0.017461,
2,1,0,1,0,3091.11,0.0192761,0.0189721,0.927779,2,0.0007271,10,1.76019e-05,-3.03256,0.183754,0.321081,11.6605,0.0189721,
2,1,0,1,0,3091.19,0.0207743,0.0204713,0.948013,2,0.000798821,10,1.94071e-05,-3.02319,0.193792,0.30445,11.2246,0.0204713,
2,1,0,1,0,3091.26,0.0222725,0.0219845,0.961844,2,0.000871873,10,2.11457e-05,-3.0169,0.20195,0.292152,10.9882,0.0219845,
2,1,0,1,0,3091.34,0.0237707,0.0234684,0.978687,2,0.000946121,10,2.29682e-05,-3.00936,0.232138,0.254159,9.71561,0.02346837,
2,1,0,1,0,3091.41,0.0252689,0.024977,0.99221,2,0.00102148,10,2.47824e-05,-3.0034,0.213039,0.276944,10.786,0.024977,
2,1,0,1,0,3091.48,0.0267671,0.0264617,1.01182,2,0.00109805,10,2.67745e-05,-2.9949,0.185293,0.318415,12.5933,0.0264617,
2,1,0,1,0,3091.56,0.0282653,0.0279738,1.03419,2,0.00117601,10,2.89302e-05,-2.9854,0.192835,0.305962,12.3078,0.0279738,
2,1,0,1,0,3091.63,0.0297644,0.0294782,1.04669,2,0.00125545,10,3.08544e-05,-2.98018,0.214491,0.27507,11.2338,0.0294782,
2,1,0,1,0,3091.71,0.0312599,0.0309593,1.05971,2,0.00133593,10,3.28079e-05,-2.97481,0.197314,0.299015,12.4474,0.0309593,
2,1,0,1,0,3091.78,0.0327599,0.0324445,1.08206,2,0.00141773,10,3.51069e-05,-2.96575,0.208067,0.283563,11.9974,0.0324445,
2,1,0,1,0,3091.86,0.034258,0.0339628,1.1019,2,0.00150106,10,3.74237e-05,-2.95786,0.19814,0.297769,12.8117,0.0339628,
2,1,0,1,0,3091.93,0.0357562,0.0354729,1.1183,2,0.00158579,10,3.96693e-05,-2.95144,0.222976,0.264603,11.5424,0.0354729,
2,1,0,1,0,3092.01,0.0372544,0.0369536,1.13894,2,0.00167199,10,4.20879e-05,-2.9435,0.198977,0.296517,13.2064,0.0369536,
2,1,0,1,0,3092.08,0.0387526,0.0383962,1.16212,2,0.00175937,10,4.46209e-05,-2.93475,0.190241,0.310133,14.0945,0.0383962,
2,1,0,1,0,3092.16,0.0402508,0.0399364,1.18284,2,0.00184849,10,4.72384e-05,-2.92707,0.183365,0.321762,14.8411,0.0399364,
2,1,0,1,0,3092.23,0.041749,0.0414704,1.20496,2,0.00193948,10,4.99704e-05,-2.91903,0.206843,0.285241,13.3544,0.0414704,
2,1,0,1,0,3092.31,0.0432472,0.0429086,1.22724,2,0.00203193,10,5.2659e-05,-2.91107,0.207887,0.283808,13.5704,0.0429086,
2,1,0,1,0,3092.38,0.0447449,0.0444226,1.24679,2,0.00212561,10,5.53856e-05,-2.90421,0.195143,0.302343,14.7031,0.0444226,
2,1,0,1,0,3092.46,0.0462445,0.0459495,1.26787,2,0.00222126,10,5.82581e-05,-2.89692,0.168902,0.349315,17.2495,0.0459495,
2,1,0,1,0,3092.53,0.04774,0.047434,1.28763,2,0.00231844,10,6.10776e-05,-2.89021,0.192324,0.306774,15.4439,0.047434,
2,1,0,1,0,3092.61,0.0492399,0.0489152,1.31078,2,0.00241747,10,6.41172e-05,-2.88247,0.242811,0.242987,12.4449,0.0489152,
2,1,0,1,0,3092.68,0.0507381,0.0504447,1.32627,2,0.0025178,10,6.69034e-05,-2.87737,0.227083,0.259817,13.5179,0.0504447,
2,1,0,1,0,3092.76,0.0522363,0.0519411,1.35375,2,0.00261974,10,7.03154e-05,-2.86846,0.201783,0.292394,15.4551,0.0519411,
2,1,0,1,0,3092.83,0.0537345,0.0534236,1.37854,2,0.00272354,10,7.36466e-05,-2.86058,0.208501,0.282972,15.1986,0.05342355,
2,1,0,1,0,3092.91,0.0552327,0.0549609,1.40171,2,0.00282909,10,7.70393e-05,-2.85334,0.245914,0.239922,13.0775,0.0549609,
2,1,0,1,0,3092.98,0.0567309,0.0564233,1.41544,2,0.00293611,10,7.98638e-05,-2.84911,0.241989,0.243813,13.5097,0.0564233,
2,1,0,1,0,3093.06,0.0582291,0.057924,1.44006,2,0.00304447,10,8.34137e-05,-2.84162,0.240238,0.24559,13.805,0.057924,
2,1,0,1,0,3093.13,0.0597291,0.0594355,1.46254,2,0.00315478,10,8.69265e-05,-2.83489,0.226151,0.260888,14.8682,0.05943545,
2,1,0,1,0,3093.21,0.0612246,0.0609396,1.48187,2,0.00326641,10,9.03045e-05,-2.82919,0.272044,0.216877,12.5304,0.0609396,
2,1,0,1,0,3093.28,0.0627241,0.0624008,1.50515,2,0.00337988,10,9.39226e-05,-2.82242,0.25294,0.233257,13.6858,0.0624008,
2,1,0,1,0,3093.36,0.0642219,0.0639322,1.52344,2,0.00349449,10,9.7397e-05,-2.81717,0.237865,0.24804,14.7416,0.06393221,
2,1,0,1,0,3093.43,0.06572,0.065418,1.54326,2,0.00361077,10,0.000100957,-2.81156,0.254004,0.23228,13.9588,0.065418,
2,1,0,1,0,3093.51,0.0672182,0.0669022,1.56444,2,0.0037287,10,0.000104665,-2.80564,0.26788,0.220248,13.4176,0.0669022,
2,1,0,1,0,3093.58,0.0687164,0.0684436,1.57949,2,0.00384786,10,0.000108106,-2.80148,0.319591,0.184611,11.394,0.0684436,
2,1,0,1,0,3093.66,0.0702146,0.0699146,1.59623,2,0.00396834,10,0.0001116,-2.7969,0.302625,0.194961,12.1708,0.0699146,
2,1,0,1,0,3093.73,0.0717128,0.0713848,1.61842,2,0.00409032,10,0.000115531,-2.79091,0.270856,0.217828,13.7481,0.0713848,
2,1,0,1,0,3093.81,0.073211,0.0729211,1.63833,2,0.00421374,10,0.000119469,-2.7856,0.31355,0.188168,12.0336,0.0729211,
2,1,0,1,0,3093.88,0.0747092,0.0744123,1.65607,2,0.00433852,10,0.000123232,-2.78092,0.382091,0.154414,9.96737,0.0744123,
2,1,0,1,0,3093.96,0.0762087,0.0758818,1.66254,2,0.00446458,10,0.000126157,-2.77923,0.363037,0.162518,10.5945,0.0758818,
2,1,0,1,0,3094.03,0.0777042,0.0773764,1.68509,2,0.00459142,10,0.000130386,-2.77338,0.301062,0.195973,12.9104,0.0773764,
2,1,0,1,0,3094.11,0.0792037,0.0789134,1.70669,2,0.00472003,10,0.000134681,-2.76784,0.326323,0.180803,12.0226,0.0789134,
2,1,0,1,0,3094.18,0.0807019,0.0803809,1.72289,2,0.00484993,10,0.000138487,-2.76374,0.364118,0.162035,10.8641,0.0803809,
2,1,0,1,0,3094.26,0.0822001,0.0819295,1.73329,2,0.00498094,10,0.000142008,-2.76113,0.39504,0.149352,10.1197,0.0819295,
2,1,0,1,0,3094.33,0.0836983,0.0833843,1.75121,2,0.00511292,10,0.000146023,-2.75666,0.367976,0.160336,10.9679,0.0833843,
2,1,0,1,0,3094.41,0.0851965,0.0848965,1.76904,2,0.00524622,10,0.000150185,-2.75226,0.329867,0.17886,12.3686,0.0848965,
2,1,0,1,0,3094.48,0.0866947,0.0863458,1.78724,2,0.00538094,10,0.000154321,-2.74782,0.405877,0.145364,10.1201,0.0863458,
2,1,0,1,0,3094.56,0.0881929,0.0879111,1.80426,2,0.00551693,10,0.000158615,-2.7437,0.393845,0.149805,10.5477,0.0879111,
2,1,0,1,0,3094.63,0.0896911,0.0893936,1.82099,2,0.00565394,10,0.000162785,-2.73969,0.31175,0.189254,13.4833,0.0893936,
2,1,0,1,0,3094.71,0.0911893,0.0908784,1.84316,2,0.00579252,10,0.000167504,-2.73444,0.285405,0.206724,14.8593,0.0908784,
2,1,0,1,0,3094.78,0.0926884,0.0923947,1.8677,2,0.00593309,10,0.000172565,-2.72869,0.268956,0.219367,15.9595,0.0923947,
2,1,0,1,0,3094.86,0.0941839,0.0939191,1.88757,2,0.00607493,10,0.000177279,-2.7241,0.306059,0.192773,14.2113,0.0939191,
2,1,0,1,0,3094.93,0.0956838,0.0953762,1.90743,2,0.00621869,10,0.000181924,-2.71955,0.256632,0.229901,17.1761,0.0953762,
2,1,0,1,0,3095.01,0.097182,0.0968685,1.9373,2,0.00636415,10,0.000187663,-2.7128,0.224902,0.262336,19.8399,0.09686847,
2,1,0,1,0,3095.08,0.0986802,0.0983755,1.96536,2,0.00651193,10,0.000193343,-2.70656,0.225773,0.261324,20.0841,0.0983755,
2,1,0,1,0,3095.16,0.100178,0.0998693,1.99902,2,0.00666203,10,0.000199641,-2.69918,0.226736,0.260215,20.3058,0.0998693,
2,1,0,1,0,3095.23,0.101677,0.101383,2.02867,2,0.00681438,10,0.000205672,-2.69279,0.206212,0.286114,22.7256,0.101383,
2,1,0,1,0,3095.31,0.103175,0.102861,2.06861,2,0.0069691,10,0.000212779,-2.68432,0.192997,0.305704,24.7206,0.102861,
2,1,0,1,0,3095.38,0.104673,0.104342,2.11013,2,0.00712694,10,0.000220175,-2.67569,0.17889,0.329812,27.1074,0.104342,
2,1,0,1,0,3095.46,0.106171,0.105848,2.14976,2,0.00728788,10,0.000227547,-2.66761,0.194072,0.30401,25.417,0.105848,
2,1,0,1,0,3095.53,0.107669,0.107382,2.1871,2,0.00745172,10,0.000234854,-2.66013,0.191489,0.308112,26.2945,0.107382,
2,1,0,1,0,3095.6,0.109168,0.108863,2.22517,2,0.00761847,10,0.000242238,-2.65264,0.189767,0.310907,27.0537,0.108863,
2,1,0,1,0,3095.68,0.110664,0.110347,2.2684,2,0.00778803,10,0.00025031,-2.64428,0.186288,0.316713,28.0124,0.110347,
2,1,0,1,0,3095.75,0.112164,0.11181,2.30783,2,0.00796124,10,0.000258037,-2.6368,0.202306,0.291638,26.235,0.11181,
2,1,0,1,0,3095.83,0.113662,0.113379,2.35096,2,0.00813722,10,0.00026655,-2.62875,0.212848,0.277193,25.3879,0.113379,
2,1,0,1,0,3095.9,0.11516,0.114808,2.38576,2,0.00831578,10,0.000273905,-2.62237,0.216443,0.272589,25.3653,0.114808,
2,1,0,1,0,3095.98,0.116658,0.116322,2.42563,2,0.0084973,10,0.000282155,-2.61518,0.212979,0.277022,26.1587,0.116322,
2,1,0,1,0,3096.05,0.118157,0.11788,2.46365,2,0.00868191,10,0.000290414,-2.60842,0.247042,0.238825,22.9048,0.11788,
2,1,0,1,0,3096.13,0.119655,0.119335,2.49477,2,0.00886906,10,0.000297714,-2.60297,0.28003,0.210692,20.5027,0.119335,
2,1,0,1,0,3096.2,0.121153,0.120872,2.52155,2,0.00905826,10,0.000304786,-2.59833,0.293926,0.200731,19.7878,0.120872,
2,1,0,1,0,3096.28,0.122653,0.122349,2.55339,2,0.00925008,10,0.000312403,-2.59288,0.265338,0.222358,22.1425,0.1223487,
2,1,0,1,0,3096.35,0.124149,0.123833,2.585,2,0.00944382,10,0.000320107,-2.58754,0.287376,0.205306,20.7058,0.123833,
2,1,0,1,0,3096.43,0.125648,0.125319,2.61462,2,0.00964037,10,0.000327662,-2.58259,0.316381,0.186484,19.0105,0.125319,
2,1,0,1,0,3096.5,0.127146,0.126823,2.63741,2,0.00983876,10,0.000334485,-2.57882,0.341182,0.172928,17.8166,0.126823,
2,1,0,1,0,3096.58,0.128644,0.128332,2.66728,2,0.0100389,10,0.000342297,-2.57393,0.331889,0.17777,18.5339,0.1283318,
2,1,0,1,0,3096.65,0.130142,0.129831,2.69644,2,0.0102414,10,0.000350082,-2.56921,0.329103,0.179275,18.8402,0.129831,
2,1,0,1,0,3096.73,0.13164,0.131314,2.72638,2,0.010446,10,0.000358012,-2.56441,0.42231,0.139708,14.8189,0.131314,
2,1,0,1,0,3096.8,0.133139,0.132823,2.74551,2,0.0106524,10,0.000364666,-2.56138,0.466145,0.12657,13.5523,0.132823,
2,1,0,1,0,3096.88,0.134637,0.134312,2.76144,2,0.0108599,10,0.000370896,-2.55886,0.596779,0.098864,10.66,0.134312,
2,1,0,1,0,3096.95,0.136135,0.135848,2.78415,2,0.0110691,10,0.000378221,-2.55531,0.608835,0.0969063,10.4917,0.135848,
2,1,0,1,0,3097.03,0.137633,0.1373,2.79418,2,0.0112792,10,0.00038364,-2.55375,1.76802,0.0333707,3.62381,0.1373,
2,1,0,1,0,3097.1,0.139133,0.138811,2.79603,2,0.0114902,10,0.000388118,-2.55346,-3.56974,-0.0165278,-1.79532,0.138811,
2,1,0,1,0,3097.18,0.140628,0.140331,2.78163,2,0.0117,10,0.000390349,-2.5557,-0.752976,-0.0783557,-8.48269,0.140331,
2,1,0,1,0,3097.25,0.142128,0.141815,2.76744,2,0.0119096,10,0.000392464,-2.55792,-0.465865,-0.126646,-13.6104,0.141815,
2,1,0,1,0,3097.33,0.143626,0.143327,2.73813,2,0.0121173,10,0.000392447,-2.56255,-0.260559,-0.226436,-24.0601,0.143327,
2,1,0,1,0,3097.4,0.145124,0.144791,2.68802,2,0.0123222,10,0.000389203,-2.57057,-0.16695,-0.3534,-36.9564,0.144791,
2,1,0,1,0,3097.48,0.146622,0.146345,2.62509,2,0.0125229,10,0.000384169,-2.58086,-0.132088,-0.446672,-45.6288,0.146345,
2,1,0,1,0,3097.55,0.14812,0.147803,2.55531,2,0.0127185,10,0.000377682,-2.59256,-0.109959,-0.536562,-53.2513,0.1478029,
2,1,0,1,0,3097.63,0.149619,0.149291,2.47256,2,0.0129082,10,0.00036913,-2.60685,-0.0936922,-0.629722,-60.4658,0.149291,
2,1,0,1,0,3097.7,0.151117,0.150831,2.37478,2,0.0130911,10,0.00035819,-2.62438,-0.0815933,-0.723098,-66.6386,0.150831,
2,1,0,1,0,3097.78,0.152615,0.152253,2.26922,2,0.0132665,10,0.000345494,-2.64412,-0.0739348,-0.798,-70.5243,0.1522527,
2,1,0,1,0,3097.85,0.154113,0.153774,2.16402,2,0.0134338,10,0.00033277,-2.66474,-0.072453,-0.814321,-68.8983,0.1537741,
2,1,0,1,0,3097.93,0.155613,0.155253,2.06359,2,0.0135936,10,0.000320378,-2.68538,-0.0725893,-0.812792,-65.471,0.155253,
2,1,0,1,0,3098,0.157108,0.156817,1.96359,2,0.0137457,10,0.000307926,-2.70695,-0.0689691,-0.855456,-65.4956,0.156817,
2,1,0,1,0,3098.08,0.158608,0.158255,1.8674,2,0.0138909,10,0.000295525,-2.72876,-0.0719462,-0.820057,-60.0526,0.158255,
2,1,0,1,0,3098.15,0.160106,0.159776,1.78256,2,0.0140288,10,0.00028481,-2.74896,-0.0747029,-0.789795,-55.0952,0.159776,
2,1,0,1,0,3098.23,0.161604,0.16129,1.70818,2,0.0141609,10,0.000275512,-2.76747,-0.0835249,-0.706376,-47.1267,0.16129,
2,1,0,1,0,3098.3,0.163102,0.162801,1.63813,2,0.0142875,10,0.000266689,-2.78565,-0.0854115,-0.690774,-44.2347,0.162801,
2,1,0,1,0,3098.38,0.164601,0.164283,1.57629,2,0.0144091,10,0.000258958,-2.80236,-0.0905434,-0.651621,-40.1215,0.164283,
2,1,0,1,0,3098.45,0.166099,0.165755,1.51661,2,0.0145261,10,0.000251386,-2.81913,-0.0972658,-0.606585,-36.0377,0.165755,
2,1,0,1,0,3098.53,0.167597,0.167295,1.46735,2,0.0146393,10,0.00024548,-2.83347,-0.112832,-0.522901,-29.988,0.167295,
2,1,0,1,0,3098.6,0.169095,0.168784,1.42352,2,0.014749,10,0.000240268,-2.84663,-0.116274,-0.507423,-28.2606,0.168784,
2,1,0,1,0,3098.68,0.170593,0.170299,1.38167,2,0.0148555,10,0.000235297,-2.8596,-0.120002,-0.491659,-26.5892,0.1702992,
2,1,0,1,0,3098.75,0.172092,0.171786,1.33918,2,0.014959,10,0.000230052,-2.87316,-0.133423,-0.442202,-23.2629,0.171786,
2,1,0,1,0,3098.83,0.173588,0.173318,1.31069,2,0.0150596,10,0.000227167,-2.8825,-0.145434,-0.405681,-20.786,0.173318,
2,1,0,1,0,3098.9,0.175088,0.174739,1.28107,2,0.0151583,10,0.000223854,-2.89243,-0.145763,-0.404768,-20.235,0.174739,
2,1,0,1,0,3098.98,0.176586,0.176316,1.25547,2,0.0152547,10,0.000221359,-2.90119,-0.150096,-0.393081,-19.2281,0.176316,
2,1,0,1,0,3099.05,0.178084,0.177746,1.22784,2,0.0153492,10,0.000218243,-2.91086,-0.180764,-0.326392,-15.6982,0.177746,
2,1,0,1,0,3099.13,0.179582,0.179257,1.20606,2,0.0154416,10,0.000216194,-2.91863,-0.208042,-0.283596,-13.413,0.179257,
2,1,0,1,0,3099.2,0.181081,0.180744,1.18735,2,0.0155328,10,0.000214606,-2.92542,-0.236576,-0.249391,-11.5729,0.180744,
2,1,0,1,0,3099.28,0.182579,0.182325,1.17016,2,0.0156226,10,0.000213348,-2.93176,-0.213635,-0.276172,-12.6101,0.182325,
2,1,0,1,0,3099.35,0.184077,0.183798,1.15339,2,0.015711,10,0.000211991,-2.93802,-0.260019,-0.226906,-10.2348,0.183798,
2,1,0,1,0,3099.43,0.185577,0.185273,1.13959,2,0.0157982,10,0.000211135,-2.94325,-0.260523,-0.226468,-10.0754,0.185273,
2,1,0,1,0,3099.5,0.187073,0.186827,1.1253,2,0.0158843,10,0.000210237,-2.94873,-0.36259,-0.162718,-7.13623,0.186827,
2,1,0,1,0,3099.58,0.188572,0.188236,1.11472,2,0.0159697,10,0.000209831,-2.95283,-0.353701,-0.166807,-7.23377,0.188236,
2,1,0,1,0,3099.65,0.19007,0.189761,1.10191,2,0.0160541,10,0.000209099,-2.95786,-0.34176,-0.172636,-7.42524,0.189761,
2,1,0,1,0,3099.72,0.191568,0.191268,1.08793,2,0.0161374,10,0.000208086,-2.9634,-0.383484,-0.153853,-6.55242,0.191268,
2,1,0,1,0,3099.8,0.193066,0.192759,1.07961,2,0.0162201,10,0.000208104,-2.96673,-0.455866,-0.129424,-5.45552,0.192759,
2,1,0,1,0,3099.87,0.194564,0.194286,1.07485,2,0.0163023,10,0.000208828,-2.96865,-0.431285,-0.136801,-5.73405,0.194286,
2,1,0,1,0,3099.95,0.196063,0.195763,1.06525,2,0.0163838,10,0.000208536,-2.97255,-0.40287,-0.146449,-6.09178,0.195763,
2,1,0,1,0,3100.02,0.197561,0.197241,1.05238,2,0.0164646,10,0.000207572,-2.97783,-0.414058,-0.142492,-5.87793,0.197241,
2,1,0,1,0,3100.1,0.199059,0.198764,1.04931,2,0.0165447,10,0.000208566,-2.97909,-0.490254,-0.120346,-4.92664,0.198764,
2,1,0,1,0,3100.17,0.200557,0.200262,1.04525,2,0.0166245,10,0.000209323,-2.98078,-0.559756,-0.105403,-4.29045,0.200262,
2,1,0,1,0,3100.25,0.202057,0.201745,1.03913,2,0.0167039,10,0.000209639,-2.98333,-0.469073,-0.12578,-5.0804,0.201745,
2,1,0,1,0,3100.32,0.203552,0.203234,1.02668,2,0.0167826,10,0.000208656,-2.98857,-0.525,-0.112381,-4.52353,0.203234,
2,1,0,1,0,3100.4,0.205052,0.204726,1.02438,2,0.0168609,10,0.000209717,-2.98954,-2.27664,-0.0259154,-1.04226,0.204726,
2,1,0,1,0,3100.47,0.20655,0.206235,1.01881,2,0.0169389,10,0.000210115,-2.99191,-0.677889,-0.0870349,-3.46147,0.206235,
2,1,0,1,0,3100.55,0.208048,0.207742,1.01613,2,0.0170168,10,0.000211093,-2.99305,-0.669881,-0.0880753,-3.48053,0.207742,
2,1,0,1,0,3100.62,0.209546,0.209268,1.01047,2,0.017094,10,0.000211459,-2.99548,-0.482541,-0.122269,-4.82689,0.209268,
2,1,0,1,0,3100.7,0.211044,0.21075,1.00352,2,0.0171708,10,0.000211492,-2.99847,-0.736369,-0.0801229,-3.14304,0.21075,
2,1,0,1,0,3100.77,0.212543,0.212212,1.00449,2,0.0172474,10,0.000213164,-2.99806,-1.24544,-0.0473729,-1.84843,0.212212,
2,1,0,1,0,3100.85,0.214041,0.21375,1.00093,2,0.0173236,10,0.000213948,-2.9996,-0.801517,-0.0736104,-2.86609,0.21375,
2,1,0,1,0,3100.92,0.215539,0.215265,0.992743,2,0.0173996,10,0.000213703,-3.00316,-0.801455,-0.0736161,-2.85128,0.215265,
2,1,0,1,0,3101,0.217037,0.216747,0.985301,2,0.0174751,10,0.000213561,-3.00643,-0.845008,-0.0698218,-2.69725,0.216747,
2,1,0,1,0,3101.07,0.218536,0.218232,0.983474,2,0.0175506,10,0.000214625,-3.00724,-4.42081,-0.013346,-0.512084,0.2182318,
2,1,0,1,0,3101.15,0.220032,0.219747,0.984878,2,0.0176257,10,0.000216424,-3.00662,-1.50219,-0.0392759,-1.50616,0.219747,
2,1,0,1,0,3101.22,0.221532,0.221218,0.97872,2,0.0177007,10,0.00021651,-3.00934,-0.729321,-0.0808972,-3.08671,0.221218,
2,1,0,1,0,3101.3,0.22303,0.222757,0.970043,2,0.0177753,10,0.000216083,-3.01321,-0.901227,-0.0654663,-2.48827,0.222757,
2,1,0,1,0,3101.37,0.224528,0.224203,0.972186,2,0.0178496,10,0.000217967,-3.01225,-1.23095,-0.0479303,-1.81977,0.224203,
2,1,0,1,0,3101.45,0.226026,0.225776,0.968752,2,0.0179238,10,0.000218721,-3.01379,-1.35388,-0.0435784,-1.64876,0.225776,
2,1,0,1,0,3101.52,0.227525,0.227232,0.964217,2,0.0179978,10,0.000219101,-3.01583,-0.76983,-0.0766403,-2.88434,0.227232,
2,1,0,1,0,3101.6,0.229023,0.228707,0.963856,2,0.0180715,10,0.00022044,-3.01599,-0.870835,-0.067751,-2.54806,0.228707,
2,1,0,1,0,3101.67,0.230521,0.230259,0.96024,2,0.0181449,10,0.000221104,-3.01762,-1.48894,-0.0396255,-1.48914,0.230259,
2,1,0,1,0,3101.75,0.232019,0.231713,0.961284,2,0.0182182,10,0.000222742,-3.01715,-1.91723,-0.0307736,-1.15079,0.231713,
2,1,0,1,0,3101.82,0.233517,0.233195,0.958788,2,0.0182914,10,0.000223584,-3.01828,-0.788171,-0.0748568,-2.78841,0.233195,
2,1,0,1,0,3101.9,0.235016,0.234698,0.954456,2,0.0183644,10,0.000224009,-3.02024,-0.93426,-0.0631516,-2.3479,0.234698,
2,1,0,1,0,3101.97,0.236512,0.236196,0.952772,2,0.0184368,10,0.000225041,-3.02101,-2.42839,-0.0242959,-0.902348,0.236196,
2,1,0,1,0,3102.05,0.238012,0.237749,0.94954,2,0.0185094,10,0.000225752,-3.02249,-5.59366,-0.0105476,-0.389733,0.237749,
2,1,0,1,0,3102.12,0.23951,0.239245,0.945007,2,0.0185818,10,0.000226088,-3.02456,-1.44021,-0.0409662,-1.51047,0.239245,
2,1,0,1,0,3102.2,0.241008,0.240704,0.941004,2,0.0186541,10,0.000226503,-3.02641,-0.978114,-0.0603201,-2.2209,0.240704,
2,1,0,1,0,3102.27,0.242506,0.242204,0.937506,2,0.018726,10,0.000227068,-3.02803,-1.48122,-0.0398321,-1.4664,0.242204,
2,1,0,1,0,3102.35,0.244005,0.243696,0.939849,2,0.0187977,10,0.000229037,-3.02694,-8.94642,-0.00659482,-0.241815,0.243696,
2,1,0,1,0,3102.42,0.245503,0.245185,0.938978,2,0.0188695,10,0.000230224,-3.02734,-1.1783,-0.0500722,-1.82896,0.245185,
2,1,0,1,0,3102.5,0.247001,0.24671,0.934396,2,0.0189412,10,0.000230525,-3.02947,-1.88934,-0.0312279,-1.13826,0.24671,
2,1,0,1,0,3102.57,0.248501,0.248215,0.930736,2,0.0190126,10,0.000231023,-3.03117,-1.18466,-0.0498032,-1.8148,0.248215,
2,1,0,1,0,3102.65,0.249997,0.249718,0.932468,2,0.0190836,10,0.000232854,-3.03037,-2.56866,-0.0229692,-0.835269,0.249718,
2,1,0,1,0,3102.72,0.251496,0.251156,0.926903,2,0.0191548,10,0.000232797,-3.03297,-3.07437,-0.0191909,-0.694659,0.251156,
2,1,0,1,0,3102.8,0.252994,0.252684,0.92489,2,0.0192258,10,0.000233705,-3.03391,-1.04421,-0.0565022,-2.03972,0.252684,
2,1,0,1,0,3102.87,0.254492,0.254186,0.925419,2,0.0192966,10,0.000235229,-3.03366,-1.1206,-0.0526502,-1.90232,0.254186,
2,1,0,1,0,3102.95,0.25599,0.255701,0.923538,2,0.019367,10,0.00023615,-3.03455,-1.24717,-0.0473071,-1.7074,0.255701,
2,1,0,1,0,3103.02,0.257488,0.257197,0.921556,2,0.0194376,10,0.000237022,-3.03548,-2.13796,-0.0275963,-0.991581,0.257197,
2,1,0,1,0,3103.1,0.258987,0.258713,0.920071,2,0.019508,10,0.000238034,-3.03618,-1.37478,-0.0429158,-1.54225,0.258713,
2,1,0,1,0,3103.17,0.260485,0.260173,0.920213,2,0.0195782,10,0.000239414,-3.03611,-0.677253,-0.0871166,-3.12102,0.260173,
2,1,0,1,0,3103.25,0.261983,0.261676,0.914762,2,0.0196481,10,0.000239371,-3.03869,-1.56012,-0.0378176,-1.34989,0.261676,
2,1,0,1,0,3103.32,0.263481,0.263193,0.915966,2,0.019718,10,0.000241076,-3.03812,6.82479,0.00864495,0.307696,0.263193,
2,1,0,1,0,3103.4,0.264981,0.264664,0.911671,2,0.019788,10,0.000241287,-3.04016,-2.49849,-0.0236143,-0.8416,0.264664,
2,1,0,1,0,3103.47,0.266476,0.266169,0.910038,2,0.0198576,10,0.000242224,-3.04094,-1.87736,-0.0314272,-1.1171,0.266169,
2,1,0,1,0,3103.55,0.267976,0.267669,0.906257,2,0.0199271,10,0.000242577,-3.04275,-3.8699,-0.0152459,-0.541575,0.267669,
2,1,0,1,0,3103.62,0.269474,0.269194,0.905213,2,0.0199965,10,0.000243678,-3.04325,-17.8543,-0.00330453,-0.116764,0.269194,
2,1,0,1,0,3103.7,0.270972,0.270681,0.908716,2,0.0200658,10,0.000245972,-3.04157,-1.29327,-0.0456209,-1.60869,0.270681,
2,1,0,1,0,3103.77,0.27247,0.272168,0.903201,2,0.020135,10,0.000245823,-3.04422,-1.4575,-0.0404802,-1.42257,0.272168,
2,1,0,1,0,3103.84,0.273968,0.273683,0.89635,2,0.0202039,10,0.000245316,-3.04752,-0.968427,-0.0609235,-2.14033,0.273683,
2,1,0,1,0,3103.92,0.275467,0.275187,0.899355,2,0.0202727,10,0.000247491,-3.04607,-1.33928,-0.0440535,-1.54687,0.275187,
2,1,0,1,0,3103.99,0.276965,0.276717,0.895868,2,0.0203414,10,0.000247902,-3.04776,-1.27793,-0.0461683,-1.61925,0.276717,
2,1,0,1,0,3104.07,0.278463,0.278157,0.894661,2,0.02041,10,0.000248856,-3.04834,-0.709369,-0.0831726,-2.90366,0.278157,
2,1,0,1,0,3104.14,0.279961,0.279649,0.891093,2,0.0204784,10,0.000249193,-3.05008,-1.12706,-0.0523488,-1.82682,0.279649,
2,1,0,1,0,3104.22,0.28146,0.281148,0.89058,2,0.0205466,10,0.000250384,-3.05033,-2.61611,-0.0225526,-0.784589,0.281148,
2,1,0,1,0,3104.29,0.282956,0.282637,0.891261,2,0.0206147,10,0.000251904,-3.04999,1.57389,0.0374867,1.29982,0.282637,
2,1,0,1,0,3104.37,0.284456,0.284152,0.888309,2,0.0206828,10,0.000252415,-3.05144,-1.91318,-0.0308386,-1.06897,0.284152,
2,1,0,1,0,3104.44,0.285954,0.285631,0.886263,2,0.0207507,10,0.000253144,-3.05244,-1.88759,-0.0312567,-1.08135,0.285631,
2,1,0,1,0,3104.52,0.287452,0.287109,0.883221,2,0.0208183,10,0.00025358,-3.05393,-1.69823,-0.034742,-1.1967,0.287109,
2,1,0,1,0,3104.59,0.28895,0.288651,0.88149,2,0.0208859,10,0.000254443,-3.05478,-22.5405,-0.00261751,-0.0899365,0.288651,
2,1,0,1,0,3104.67,0.290449,0.290142,0.880159,2,0.0209533,10,0.000255371,-3.05544,-0.958829,-0.0615334,-2.11418,0.290142,
2,1,0,1,0,3104.74,0.291947,0.29164,0.877746,2,0.0210206,10,0.000255985,-3.05663,-1.121,-0.0526317,-1.80313,0.29164,
2,1,0,1,0,3104.82,0.293445,0.293166,0.873546,2,0.0210876,10,0.000256094,-3.05871,-1.05159,-0.0561056,-1.91229,0.293166,
2,1,0,1,0,3104.89,0.294943,0.29462,0.875687,2,0.0211545,10,0.000257995,-3.05765,-1.52997,-0.0385629,-1.31429,0.29462,
2,1,0,1,0,3104.97,0.296441,0.296159,0.875776,2,0.0212214,10,0.000259369,-3.05761,-2.19691,-0.0268558,-0.914679,0.296159,
2,1,0,1,0,3105.04,0.29794,0.29763,0.868609,2,0.0212883,10,0.000258524,-3.06118,-1.35334,-0.0435958,-1.47904,0.29763,
2,1,0,1,0,3105.12,0.299436,0.299171,0.865703,2,0.0213548,10,0.000258993,-3.06263,-0.0015577,-37.8763,-459.702,0.299171,
2,1,0,1,0,3105.16,0.299739,0.299453,0.402209,2,0.0213865,10,0.000120443,-3.39555,0.00144723,40.7676,811.819,0.299453,
2,0,0,1,0,3105.24,0.298239,0.29795,-0.0933986,2,0.0213889,10,-2.78281e-05,-4.02966,0.00551747,10.6933,277.908,0.29795,
2,0,0,1,0,3105.31,0.296741,0.296448,-0.159174,2,0.0213775,10,-4.71867e-05,-3.79813,-0.00617434,-9.55568,40.8903,0.296448,
2,0,0,1,0,3105.39,0.295243,0.294896,-0.202752,2,0.0213623,10,-5.97909e-05,-3.69303,-0.0189257,-3.11746,22.7293,0.294896,
2,0,0,1,0,3105.46,0.293745,0.293438,-0.231728,2,0.0213447,10,-6.79977e-05,-3.63502,-0.0284915,-2.0708,17.9823,0.2934382,
2,0,0,1,0,3105.54,0.292246,0.291943,-0.253878,2,0.0213253,10,-7.4118e-05,-3.59537,-0.0373598,-1.57924,15.2452,0.291943,
2,0,0,1,0,3105.61,0.290748,0.290424,-0.274917,2,0.021304,10,-7.98425e-05,-3.5608,-0.0449982,-1.31116,13.7765,0.290424,
2,0,0,1,0,3105.69,0.28925,0.288955,-0.29152,2,0.0212813,10,-8.42361e-05,-3.53533,-0.0620005,-0.951605,10.8684,0.288955,
2,0,0,1,0,3105.76,0.287752,0.287425,-0.308012,2,0.0212573,10,-8.85303e-05,-3.51143,-0.0690067,-0.85499,10.2584,0.287425,
2,0,0,1,0,3105.84,0.286254,0.285982,-0.322098,2,0.0212322,10,-9.21145e-05,-3.49201,-0.075385,-0.782649,9.85618,0.285982,
2,0,0,1,0,3105.91,0.284754,0.284451,-0.33421,2,0.021206,10,-9.50663e-05,-3.47598,-0.0824704,-0.715409,9.363,0.284451,
2,0,0,1,0,3105.99,0.283259,0.282957,-0.351924,2,0.0211788,10,-9.95796e-05,-3.45355,-0.0923873,-0.638616,8.67982,0.282957,
2,0,0,1,0,3106.06,0.281759,0.281414,-0.362512,2,0.0211506,10,-0.000102016,-3.44068,-0.106447,-0.554264,7.76562,0.281414,
2,0,0,1,0,3106.14,0.280261,0.279974,-0.369896,2,0.0211217,10,-0.000103561,-3.43192,-0.12645,-0.466587,6.74106,0.279974,
2,0,0,1,0,3106.21,0.278763,0.278487,-0.384564,2,0.021092,10,-0.000107096,-3.41503,-0.127863,-0.461431,6.90229,0.278487,
2,0,0,1,0,3106.28,0.277264,0.276988,-0.39177,2,0.0210614,10,-0.000108516,-3.40697,-0.147649,-0.399596,6.12031,0.276988,
2,0,0,1,0,3106.36,0.275766,0.275469,-0.403992,2,0.0210302,10,-0.000111288,-3.39363,-0.197978,-0.298012,4.66544,0.2754693,
2,0,0,1,0,3106.43,0.274268,0.273969,-0.41001,2,0.0209982,10,-0.00011233,-3.38721,-0.171624,-0.343775,5.51797,0.273969,
2,0,0,1,0,3106.51,0.27277,0.27249,-0.418839,2,0.0209657,10,-0.00011413,-3.37795,-0.173543,-0.339973,5.59438,0.27249,
2,0,0,1,0,3106.58,0.271272,0.270989,-0.430329,2,0.0209325,10,-0.000116615,-3.3662,-0.176003,-0.335222,5.58557,0.270989,
2,0,0,1,0,3106.66,0.269774,0.269499,-0.440005,2,0.0208985,10,-0.000118581,-3.35654,-0.180097,-0.327601,5.57169,0.2694988,
2,0,0,1,0,3106.73,0.268274,0.267948,-0.44653,2,0.0208638,10,-0.000119647,-3.35015,-0.209148,-0.282097,4.90514,0.267948,
2,0,0,1,0,3106.81,0.266779,0.266488,-0.450692,2,0.0208289,10,-0.000120104,-3.34612,-0.211755,-0.278624,4.94124,0.266488,
2,0,0,1,0,3106.88,0.265279,0.264957,-0.460436,2,0.0207932,10,-0.000121996,-3.33683,-0.166705,-0.353918,6.33684,0.264957,
2,0,0,1,0,3106.96,0.263781,0.263481,-0.467788,2,0.0207569,10,-0.000123253,-3.32995,-0.207449,-0.284407,5.19577,0.2634815,
2,0,0,1,0,3107.03,0.262283,0.262012,-0.47481,2,0.0207201,10,-0.000124406,-3.32348,-0.233013,-0.253204,4.68278,0.262012,
2,0,0,1,0,3107.11,0.260784,0.260488,-0.478484,2,0.0206829,10,-0.000124639,-3.32013,-0.208223,-0.283349,5.33708,0.260488,
2,0,0,1,0,3107.18,0.259286,0.259011,-0.490566,2,0.0206451,10,-0.000127062,-3.3093,-0.231014,-0.255396,4.87645,0.259011,
2,0,0,1,0,3107.26,0.257788,0.257484,-0.499177,2,0.0206067,10,-0.00012853,-3.30175,-0.260099,-0.226837,4.38238,0.257484,
2,0,0,1,0,3107.33,0.25629,0.255981,-0.501764,2,0.0205678,10,-0.000128442,-3.2995,-0.353233,-0.167029,3.26827,0.255981,
2,0,0,1,0,3107.41,0.25479,0.254507,-0.504518,2,0.0205285,10,-0.000128403,-3.29712,-0.268526,-0.219718,4.35162,0.2545068,
2,0,0,1,0,3107.48,0.253294,0.252998,-0.513039,2,0.0204889,10,-0.000129798,-3.28985,-0.251767,-0.234344,4.72529,0.2529977,
2,0,0,1,0,3107.56,0.251795,0.25149,-0.521265,2,0.0204486,10,-0.000131093,-3.28294,-0.28263,-0.208753,4.24924,0.25149,
2,0,0,1,0,3107.63,0.250297,0.249982,-0.523906,2,0.0204079,10,-0.000130967,-3.28075,-0.419329,-0.140701,2.88096,0.2499819,
2,0,0,1,0,3107.71,0.248799,0.24847,-0.531809,2,0.0203667,10,-0.000132139,-3.27424,-0.254419,-0.231901,4.81938,0.24847,
2,0,0,1,0,3107.78,0.247301,0.246954,-0.537998,2,0.0203252,10,-0.000132861,-3.26922,-0.25905,-0.227755,4.79672,0.246954,
2,0,0,1,0,3107.86,0.245802,0.245502,-0.546659,2,0.0202832,10,-0.000134206,-3.26228,-0.321877,-0.1833,3.89166,0.245502,
2,0,0,1,0,3107.93,0.244304,0.243991,-0.553514,2,0.0202405,10,-0.000135053,-3.25687,-0.343802,-0.17161,3.68904,0.243991,
2,0,0,1,0,3108.01,0.242806,0.242519,-0.558806,2,0.0201975,10,-0.000135521,-3.25274,-0.388969,-0.151683,3.29486,0.2425188,
2,0,0,1,0,3108.08,0.241308,0.240989,-0.560826,2,0.0201543,10,-0.000135153,-3.25117,-0.35519,-0.166108,3.65579,0.240989,
2,0,0,1,0,3108.16,0.23981,0.239522,-0.567394,2,0.0201105,10,-0.000135904,-3.24612,-0.221973,-0.265798,5.85226,0.239522,
2,0,0,1,0,3108.23,0.23831,0.238013,-0.573765,2,0.0200662,10,-0.000136563,-3.24127,-0.328176,-0.179782,4.02031,0.238013,
2,0,0,1,0,3108.31,0.236815,0.236471,-0.58031,2,0.0200215,10,-0.000137227,-3.23634,-0.302418,-0.195094,4.41347,0.236471,
2,0,0,1,0,3108.38,0.235315,0.23501,-0.581582,2,0.0199765,10,-0.000136677,-3.23539,-0.32868,-0.179506,4.11236,0.23501,
2,0,0,1,0,3108.46,0.233817,0.233509,-0.588641,2,0.019931,10,-0.000137453,-3.23015,-0.308805,-0.191059,4.38888,0.233509,
2,0,0,1,0,3108.53,0.232319,0.232001,-0.599155,2,0.019885,10,-0.000139005,-3.22246,-0.297303,-0.198451,4.60045,0.232001,
2,0,0,1,0,3108.61,0.230821,0.230545,-0.605159,2,0.0198386,10,-0.000139516,-3.21813,-0.755662,-0.0780772,1.8264,0.230545,
2,0,0,1,0,3108.68,0.229322,0.229015,-0.607027,2,0.0197918,10,-0.000139018,-3.21679,-0.497947,-0.118486,2.81267,0.2290145,
2,0,0,1,0,3108.76,0.227824,0.227502,-0.612905,2,0.0197448,10,-0.000139437,-3.21261,-0.50937,-0.115829,2.77763,0.227502,
2,0,0,1,0,3108.83,0.226326,0.226025,-0.618725,2,0.0196971,10,-0.000139847,-3.2085,-0.386702,-0.152572,3.67638,0.226025,
2,0,0,1,0,3108.91,0.224828,0.224496,-0.624431,2,0.0196491,10,-0.000140182,-3.20452,-0.573169,-0.102937,2.51046,0.224496,
2,0,0,1,0,3108.98,0.22333,0.223044,-0.632071,2,0.0196007,10,-0.00014098,-3.19923,-0.501492,-0.117649,2.89262,0.2230441,
2,0,0,1,0,3109.06,0.22183,0.221529,-0.63668,2,0.0195519,10,-0.000141043,-3.19608,-0.296922,-0.198706,4.9269,0.221529,
2,0,0,1,0,3109.13,0.220335,0.220031,-0.642678,2,0.0195027,10,-0.000141409,-3.19201,-0.30988,-0.190396,4.74732,0.220031,
2,0,0,1,0,3109.21,0.218835,0.218534,-0.649867,2,0.0194527,10,-0.000142018,-3.18718,-0.367399,-0.160588,4.05852,0.218534,
2,0,0,1,0,3109.28,0.217337,0.217011,-0.651448,2,0.0194026,10,-0.000141371,-3.18612,-0.52354,-0.112694,2.87773,0.217011,
2,0,0,1,0,3109.36,0.215839,0.215532,-0.654266,2,0.0193521,10,-0.000141015,-3.18425,-0.307064,-0.192143,4.9422,0.215532,
2,0,0,1,0,3109.43,0.21434,0.213992,-0.663076,2,0.0193011,10,-0.000141893,-3.17844,-0.283016,-0.208469,5.38983,0.2139917,
2,0,0,1,0,3109.51,0.212842,0.212528,-0.672853,2,0.0192496,10,-0.000143,-3.17208,-0.431487,-0.136736,3.59325,0.212528,
2,0,0,1,0,3109.58,0.211344,0.211024,-0.678711,2,0.0191977,10,-0.000143225,-3.16832,-0.382733,-0.154154,4.06584,0.211024,
2,0,0,1,0,3109.66,0.209846,0.209525,-0.677276,2,0.0191453,10,-0.000141906,-3.16923,-0.334999,-0.17612,4.6832,0.209525,
2,0,0,1,0,3109.73,0.208348,0.20803,-0.690562,2,0.0190925,10,-0.000143657,-3.1608,-0.301228,-0.195865,5.282,0.20803,
2,0,0,1,0,3109.81,0.20685,0.206491,-0.702484,2,0.0190391,10,-0.000145057,-3.15336,-0.365762,-0.161307,4.38427,0.2064914,
2,0,0,1,0,3109.88,0.20535,0.205033,-0.701124,2,0.0189849,10,-0.000143754,-3.15421,-0.466355,-0.126513,3.45547,0.205033,
2,0,0,1,0,3109.96,0.203855,0.203519,-0.707749,2,0.0189306,10,-0.000144041,-3.15012,-0.294593,-0.200277,5.56225,0.203519,
2,0,0,1,0,3110.03,0.202355,0.202052,-0.714845,2,0.0188758,10,-0.000144436,-3.14579,-0.38256,-0.154224,4.32405,0.202052,
2,0,0,1,0,3110.11,0.200857,0.200553,-0.723352,2,0.0188203,10,-0.00014507,-3.14065,-0.323503,-0.182379,5.1676,0.200553,
2,0,0,1,0,3110.18,0.199359,0.199042,-0.733089,2,0.0187643,10,-0.000145915,-3.13484,-0.422583,-0.139618,3.97944,0.199042,
2,0,0,1,0,3110.26,0.19786,0.197536,-0.7406,2,0.0187077,10,-0.000146295,-3.13042,-0.358667,-0.164498,4.74621,0.197536,
2,0,0,1,0,3110.33,0.196362,0.196078,-0.748649,2,0.0186507,10,-0.000146794,-3.12572,-0.331549,-0.177953,5.18398,0.196078,
2,0,0,1,0,3110.4,0.194864,0.194551,-0.756425,2,0.018593,10,-0.000147163,-3.12123,-0.289128,-0.204062,6.00739,0.194551,
2,0,0,1,0,3110.48,0.193366,0.193042,-0.763996,2,0.0185346,10,-0.000147483,-3.11691,-0.315621,-0.186933,5.56779,0.193042,
2,0,0,1,0,3110.55,0.191866,0.19151,-0.772295,2,0.0184755,10,-0.000147902,-3.11222,-0.378105,-0.156041,4.71059,0.19151,
2,0,0,1,0,3110.63,0.19037,0.190082,-0.777863,2,0.0184161,10,-0.000147858,-3.1091,-0.279595,-0.211019,6.43954,0.190082,
2,0,0,1,0,3110.7,0.188871,0.188577,-0.791527,2,0.0183558,10,-0.000149264,-3.10153,-0.208049,-0.283587,8.72279,0.188577,
2,0,0,1,0,3110.78,0.187373,0.187088,-0.799653,2,0.0182947,10,-0.000149605,-3.0971,-0.255341,-0.231063,7.22122,0.187088,
2,0,0,1,0,3110.85,0.185875,0.185517,-0.811028,2,0.0182327,10,-0.00015046,-3.09096,-0.283999,-0.207747,6.56488,0.185517,
2,0,0,1,0,3110.93,0.184377,0.184064,-0.815809,2,0.01817,10,-0.000150161,-3.08841,-0.257298,-0.229306,7.35786,0.184064,
2,0,0,1,0,3111,0.182878,0.182579,-0.83562,2,0.0181066,10,-0.000152567,-3.07799,-0.243787,-0.242015,7.90519,0.182579,
2,0,0,1,0,3111.08,0.18138,0.181051,-0.849084,2,0.0180421,10,-0.000153727,-3.07105,-0.210191,-0.280698,9.28304,0.181051,
2,0,0,1,0,3111.15,0.179882,0.179531,-0.861783,2,0.0179765,10,-0.000154717,-3.0646,-0.269811,-0.218672,7.34127,0.179531,
2,0,0,1,0,3111.23,0.178384,0.178084,-0.876891,2,0.01791,10,-0.00015616,-3.05705,-0.217712,-0.271001,9.26957,0.178084,
2,0,0,1,0,3111.3,0.176886,0.176574,-0.890192,2,0.0178427,10,-0.000157185,-3.05052,-0.195708,-0.301469,10.5195,0.176574,
2,0,0,1,0,3111.38,0.175386,0.175064,-0.908192,2,0.0177739,10,-0.000158992,-3.04182,-0.172279,-0.342467,12.1033,0.175064,
2,0,0,1,0,3111.45,0.173891,0.173602,-0.922945,2,0.017704,10,-0.000160225,-3.03482,-0.174199,-0.338693,12.228,0.173602,
2,0,0,1,0,3111.53,0.172391,0.172051,-0.944696,2,0.0176325,10,-0.000162536,-3.02471,-0.153992,-0.383136,14.1076,0.1720514,
2,0,0,1,0,3111.6,0.170893,0.170605,-0.963413,2,0.0175598,10,-0.000164363,-3.01619,-0.144537,-0.4082,15.3689,0.170605,
2,0,0,1,0,3111.68,0.169395,0.16909,-0.985448,2,0.0174854,10,-0.00016663,-3.00637,-0.133661,-0.441416,16.9749,0.16909,
2,0,0,1,0,3111.75,0.167897,0.167584,-1.01219,2,0.017409,10,-0.000169627,-2.99474,-0.133873,-0.440717,17.4002,0.167584,
2,0,0,1,0,3111.83,0.166398,0.16606,-1.03533,2,0.0173308,10,-0.000171927,-2.98492,-0.139017,-0.42441,17.2366,0.16606,
2,0,0,1,0,3111.9,0.1649,0.164592,-1.06198,2,0.0172506,10,-0.000174794,-2.97388,-0.123105,-0.479264,19.996,0.164592,
2,0,0,1,0,3111.98,0.163402,0.163083,-1.09793,2,0.0171682,10,-0.000179054,-2.95943,-0.109595,-0.538345,23.1111,0.163083,
2,0,0,1,0,3112.05,0.161904,0.161571,-1.13442,2,0.0170831,10,-0.000183289,-2.94523,-0.104535,-0.564404,24.9982,0.161571,
2,0,0,1,0,3112.13,0.160406,0.160126,-1.17223,2,0.0169953,10,-0.000187704,-2.93099,-0.104863,-0.562636,25.7832,0.160126,
2,0,0,1,0,3112.2,0.158906,0.158591,-1.21445,2,0.0169044,10,-0.000192601,-2.91562,-0.0923407,-0.638939,30.3769,0.158591,
2,0,0,1,0,3112.28,0.157411,0.15704,-1.26046,2,0.0168104,10,-0.000197943,-2.89947,-0.0835498,-0.706166,34.9428,0.15704,
2,0,0,1,0,3112.35,0.155911,0.155615,-1.31345,2,0.0167123,10,-0.000204393,-2.88159,-0.0829046,-0.711661,36.6338,0.155615,
2,0,0,1,0,3112.43,0.154413,0.154063,-1.37231,2,0.01661,10,-0.000211422,-2.86255,-0.0819544,-0.719912,38.6259,0.154063,
2,0,0,1,0,3112.5,0.152915,0.152596,-1.43509,2,0.0165034,10,-0.000218988,-2.84312,-0.0779965,-0.756445,42.4334,0.152596,
2,0,0,1,0,3112.58,0.151417,0.151113,-1.50036,2,0.0163921,10,-0.000226722,-2.82381,-0.0735146,-0.802562,47.1958,0.151113,
2,0,0,1,0,3112.65,0.149918,0.149594,-1.57805,2,0.0162753,10,-0.000236068,-2.80188,-0.0686469,-0.859471,52.9371,0.149594,
2,0,0,1,0,3112.73,0.14842,0.148112,-1.65958,2,0.0161526,10,-0.000245804,-2.78,-0.0692136,-0.852434,55.3133,0.148112,
2,0,0,1,0,3112.8,0.146922,0.146618,-1.74565,2,0.0160236,10,-0.000255944,-2.75804,-0.0690365,-0.854621,58.2103,0.146618,
2,0,0,1,0,3112.88,0.145424,0.1451,-1.83365,2,0.0158881,10,-0.000266062,-2.73668,-0.071656,-0.823379,58.961,0.1451,
2,0,0,1,0,3112.95,0.143926,0.143656,-1.92824,2,0.0157458,10,-0.000277003,-2.71484,-0.0691872,-0.852758,64.1409,0.143656,
2,0,0,1,0,3113.03,0.142426,0.142097,-2.02519,2,0.015596,10,-0.000287774,-2.69353,-0.0714918,-0.825269,65.0265,0.142097,
2,0,0,1,0,3113.1,0.140931,0.140607,-2.11809,2,0.0154394,10,-0.000297818,-2.67406,-0.0788559,-0.7482,61.7865,0.140607,
2,0,0,1,0,3113.18,0.139431,0.139121,-2.2075,2,0.0152754,10,-0.000307111,-2.6561,-0.0826222,-0.714094,61.5248,0.139121,
2,0,0,1,0,3113.25,0.137933,0.137617,-2.3023,2,0.0151048,10,-0.000316837,-2.63784,-0.0896208,-0.658329,59.063,0.137617,
2,0,0,1,0,3113.33,0.136435,0.136081,-2.39026,2,0.0149275,10,-0.000325269,-2.62155,-0.0971843,-0.607094,56.4442,0.136081,
2,0,0,1,0,3113.4,0.134936,0.134611,-2.47215,2,0.0147437,10,-0.000332777,-2.60693,-0.114599,-0.514837,49.4591,0.134611,
2,0,0,1,0,3113.48,0.133438,0.133136,-2.54123,2,0.0145543,10,-0.000338329,-2.59496,-0.12737,-0.463217,45.8584,0.133136,
2,0,0,1,0,3113.55,0.13194,0.131617,-2.60781,2,0.0143599,10,-0.000343233,-2.58372,-0.147601,-0.399727,40.6399,0.1316171,
2,0,0,1,0,3113.63,0.130442,0.130128,-2.66736,2,0.0141608,10,-0.000347098,-2.57392,-0.167009,-0.353274,36.6502,0.130128,
2,0,0,1,0,3113.7,0.128942,0.128647,-2.71543,2,0.0139573,10,-0.000349332,-2.56616,-0.210986,-0.27964,29.54,0.128647,
2,0,0,1,0,3113.78,0.127446,0.127122,-2.75817,2,0.013751,10,-0.000350624,-2.55938,-0.25587,-0.230585,24.7297,0.127122,
2,0,0,1,0,3113.85,0.125947,0.125638,-2.78575,2,0.0135416,10,-0.000349996,-2.55506,-0.332938,-0.17721,19.2404,0.125638,
2,0,0,1,0,3113.93,0.124449,0.124155,-2.81222,2,0.0133305,10,-0.00034915,-2.55095,-0.444202,-0.132823,14.5398,0.124155,
2,0,0,1,0,3114,0.122951,0.12261,-2.82848,2,0.0131176,10,-0.0003468,-2.54845,-0.639484,-0.0922619,10.1566,0.12261,
2,0,0,1,0,3114.08,0.121453,0.121138,-2.83722,2,0.0129038,10,-0.000343694,-2.54711,-2.3625,-0.0249736,2.75859,0.121138,
2,0,0,1,0,3114.15,0.119955,0.119598,-2.83251,2,0.0126898,10,-0.000338764,-2.54783,8.74272,0.00674847,-0.746994,0.119598,
2,0,0,1,0,3114.23,0.118456,0.118134,-2.8335,2,0.0124761,10,-0.000334732,-2.54768,3.11272,0.0189545,-2.09489,0.118134,
2,0,0,1,0,3114.3,0.116958,0.116614,-2.82928,2,0.0122625,10,-0.000329935,-2.54832,0.859476,0.0686465,-7.55838,0.116614,
2,0,0,1,0,3114.38,0.11546,0.115141,-2.8136,2,0.0120496,10,-0.000323962,-2.55074,0.545712,0.108116,-11.8415,0.115141,
2,0,0,1,0,3114.45,0.113962,0.113611,-2.79174,2,0.0118381,10,-0.000317172,-2.55413,0.47262,0.124836,-13.5956,0.113611,
2,0,0,1,0,3114.52,0.112462,0.112166,-2.77068,2,0.0116282,10,-0.000310777,-2.55741,0.396608,0.148761,-16.0863,0.112166,
2,0,0,1,0,3114.6,0.110967,0.110605,-2.74534,2,0.0114203,10,-0.000303648,-2.5614,0.396234,0.148902,-15.9451,0.110605,
2,0,0,1,0,3114.67,0.109467,0.10918,-2.71956,2,0.0112138,10,-0.000296921,-2.5655,0.319753,0.184517,-19.5537,0.10918,
2,0,0,1,0,3114.75,0.107969,0.107641,-2.68849,2,0.0110097,10,-0.000289392,-2.57049,0.289974,0.203467,-21.3413,0.107641,
2,0,0,1,0,3114.82,0.106471,0.106163,-2.65598,2,0.0108083,10,-0.000281965,-2.57578,0.276261,0.213566,-22.1563,0.106163,
2,0,0,1,0,3114.9,0.104973,0.104667,-2.6212,2,0.0106091,10,-0.000274352,-2.5815,0.266869,0.221082,-22.5952,0.104667,
2,0,0,1,0,3114.97,0.103474,0.103119,-2.58996,2,0.0104124,10,-0.000267075,-2.58671,0.241877,0.243926,-24.6153,0.103119,
2,0,0,1,0,3115.05,0.101976,0.101673,-2.55272,2,0.0102185,10,-0.000259542,-2.593,0.225033,0.262184,-26.0851,0.101673,
2,0,0,1,0,3115.12,0.100478,0.10019,-2.51064,2,0.0100276,10,-0.000251541,-2.60022,0.22312,0.264431,-25.9335,0.10019,
2,0,0,1,0,3115.2,0.0989799,0.0987216,-2.47408,2,0.00983953,10,-0.000244246,-2.60659,0.248045,0.23786,-22.9614,0.0987216,
2,0,0,1,0,3115.27,0.0974817,0.0971907,-2.44172,2,0.00965407,10,-0.000237312,-2.6123,0.247151,0.23872,-22.7268,0.0971907,
2,0,0,1,0,3115.35,0.0959821,0.0956667,-2.40674,2,0.009471,10,-0.000230245,-2.61857,0.233346,0.252843,-23.7264,0.0956667,
2,0,0,1,0,3115.42,0.0944866,0.0941817,-2.36502,2,0.00929113,10,-0.000222742,-2.62616,0.249514,0.23646,-21.895,0.0941817,
2,0,0,1,0,3115.5,0.0929871,0.0927147,-2.33698,2,0.00911328,10,-0.000216672,-2.63135,0.269637,0.218813,-19.9675,0.09271469,
2,0,0,1,0,3115.57,0.0914889,0.0911484,-2.31404,2,0.00893774,10,-0.000210922,-2.63563,0.28352,0.208099,-18.7527,0.0911484,
2,0,0,1,0,3115.65,0.0899907,0.0896658,-2.27964,2,0.00876439,10,-0.000204405,-2.64213,0.250746,0.235298,-20.9177,0.0896658,
2,0,0,1,0,3115.72,0.0884925,0.0881857,-2.24419,2,0.00859324,10,-0.000197906,-2.64894,0.286673,0.205809,-18.0947,0.08818569,
2,0,0,1,0,3115.8,0.0869943,0.0866405,-2.22387,2,0.0084244,10,-0.000192677,-2.65289,0.305015,0.193433,-16.8164,0.0866405,
2,0,0,1,0,3115.87,0.0854961,0.0851712,-2.20638,2,0.00825706,10,-0.00018792,-2.65632,0.342739,0.172142,-14.8142,0.0851712,
2,0,0,1,0,3115.95,0.083998,0.0836982,-2.18276,2,0.00809139,10,-0.000182693,-2.66099,0.307431,0.191913,-16.3264,0.0836982,
2,0,0,1,0,3116.02,0.0824998,0.0821763,-2.16076,2,0.00792722,10,-0.000177564,-2.66539,0.358319,0.164658,-13.8953,0.0821763,
2,0,0,1,0,3116.1,0.081002,0.0806861,-2.14053,2,0.00776487,10,-0.000172711,-2.66948,0.396943,0.148636,-12.4289,0.0806861,
2,0,0,1,0,3116.17,0.0795025,0.0791695,-2.12612,2,0.00760355,10,-0.000168324,-2.67241,0.512267,0.115174,-9.54281,0.0791695,
2,0,0,1,0,3116.25,0.078007,0.0776948,-2.11103,2,0.00744385,10,-0.000164016,-2.67551,0.458663,0.128635,-10.57,0.0776948,
2,0,0,1,0,3116.32,0.076507,0.0761562,-2.08948,2,0.00728483,10,-0.000159127,-2.67996,0.431708,0.136666,-11.1467,0.0761562,
2,0,0,1,0,3116.4,0.0750088,0.0746992,-2.07058,2,0.00712762,10,-0.00015467,-2.68391,0.447512,0.13184,-10.6843,0.0746992,
2,0,0,1,0,3116.47,0.0735106,0.0732027,-2.0583,2,0.00697149,10,-0.000150673,-2.68649,0.597264,0.0987837,-7.92408,0.0732027,
2,0,0,1,0,3116.55,0.0720124,0.0717199,-2.04193,2,0.00681641,10,-0.000146447,-2.68996,0.462424,0.127589,-10.1796,0.07171993,
2,0,0,1,0,3116.62,0.0705142,0.0701918,-2.03039,2,0.00666243,10,-0.000142517,-2.69242,0.424952,0.138839,-10.9855,0.0701918,
2,0,0,1,0,3116.7,0.0690161,0.0687029,-2.00862,2,0.00650972,10,-0.000137998,-2.6971,0.468517,0.125929,-9.89408,0.0687029,
2,0,0,1,0,3116.77,0.0675179,0.0672141,-1.99814,2,0.00635824,10,-0.000134303,-2.69937,0.576274,0.102382,-7.97933,0.0672141,
2,0,0,1,0,3116.85,0.0660179,0.065763,-1.98798,2,0.00620742,10,-0.000130735,-2.70159,0.492099,0.119894,-9.27549,0.065763,
2,0,0,1,0,3116.92,0.0645224,0.0642104,-1.9703,2,0.00605796,10,-0.000126514,-2.70547,0.400344,0.147373,-11.3005,0.06421043,
2,0,0,1,0,3117,0.0630229,0.0627274,-1.94983,2,0.00590942,10,-0.000122308,-2.71,0.41262,0.142989,-10.8974,0.0627274,
2,0,0,1,0,3117.07,0.0615251,0.0612133,-1.93514,2,0.00576253,10,-0.000118456,-2.71329,0.435567,0.135456,-10.2488,0.0612133,
2,0,0,1,0,3117.15,0.0600269,0.0597266,-1.91922,2,0.00561669,10,-0.000114629,-2.71687,0.41289,0.142895,-10.7091,0.0597266,
2,0,0,1,0,3117.22,0.0585287,0.0581944,-1.90589,2,0.00547191,10,-0.000110912,-2.7199,0.348624,0.169237,-12.5461,0.0581944,
2,0,0,1,0,3117.3,0.0570305,0.0567065,-1.88668,2,0.00532837,10,-0.000106987,-2.7243,0.391847,0.150569,-11.0905,0.0567065,
2,0,0,1,0,3117.37,0.0555323,0.0552201,-1.86887,2,0.00518655,10,-0.000103199,-2.72842,0.341128,0.172956,-12.635,0.0552201,
2,0,0,1,0,3117.45,0.0540342,0.0536851,-1.85217,2,0.00504579,10,-9.94342e-05,-2.73232,0.369057,0.159867,-11.5363,0.0536851,
2,0,0,1,0,3117.52,0.052536,0.0521966,-1.83863,2,0.0049061,10,-9.59704e-05,-2.7355,0.354676,0.166349,-11.8997,0.0521966,
2,0,0,1,0,3117.6,0.0510378,0.0507387,-1.8187,2,0.00476789,10,-9.22783e-05,-2.74024,0.297774,0.198137,-14.0361,0.0507387,
2,0,0,1,0,3117.67,0.0495382,0.0492145,-1.79323,2,0.0046312,10,-8.8253e-05,-2.74636,0.316846,0.18621,-13.0443,0.0492145,
2,0,0,1,0,3117.75,0.0480427,0.0477031,-1.77109,2,0.00449628,10,-8.44867e-05,-2.75176,0.348449,0.169322,-11.7147,0.0477031,
2,0,0,1,0,3117.82,0.0465432,0.0461903,-1.75397,2,0.0043624,10,-8.10165e-05,-2.75598,0.326075,0.18094,-12.391,0.0461903,
2,0,0,1,0,3117.9,0.045045,0.0447365,-1.73758,2,0.00423013,10,-7.77333e-05,-2.76006,0.269132,0.219223,-14.8317,0.0447365,
2,0,0,1,0,3117.97,0.0435468,0.0432266,-1.71004,2,0.00409953,10,-7.39192e-05,-2.76699,0.283686,0.207976,-13.9297,0.0432266,
2,0,0,1,0,3118.05,0.0420486,0.0417094,-1.6933,2,0.00397054,10,-7.06264e-05,-2.77127,0.294143,0.200583,-13.2721,0.0417094,
2,0,0,1,0,3118.12,0.0405504,0.0401895,-1.67766,2,0.00384277,10,-6.74242e-05,-2.7753,0.31929,0.184785,-12.068,0.0401895,
2,0,0,1,0,3118.2,0.0390523,0.0386898,-1.65886,2,0.00371638,10,-6.41812e-05,-2.78019,0.262283,0.224948,-14.524,0.0386898,
2,0,0,1,0,3118.27,0.0375541,0.0372396,-1.63434,2,0.00359157,10,-6.08623e-05,-2.78666,0.268575,0.219678,-14.0388,0.0372396,
2,0,0,1,0,3118.35,0.0360559,0.0357054,-1.61691,2,0.00346847,10,-5.77323e-05,-2.79131,0.308705,0.191121,-12.084,0.0357054,
2,0,0,1,0,3118.42,0.0345577,0.0342681,-1.60114,2,0.0033465,10,-5.48679e-05,-2.79557,0.350767,0.168203,-10.5055,0.0342681,
2,0,0,1,0,3118.5,0.0330582,0.0327368,-1.58359,2,0.00322564,10,-5.18417e-05,-2.80036,0.314744,0.187454,-11.5869,0.0327368,
2,0,0,1,0,3118.57,0.0315626,0.0312352,-1.5661,2,0.00310631,10,-4.89176e-05,-2.80518,0.337938,0.174588,-10.6831,0.0312352,
2,0,0,1,0,3118.64,0.0300631,0.0297363,-1.54757,2,0.00298811,10,-4.6019e-05,-2.81035,0.36997,0.159472,-9.6654,0.0297363,
2,0,0,1,0,3118.72,0.0285649,0.0282426,-1.53865,2,0.00287101,10,-4.34555e-05,-2.81286,0.461758,0.127772,-7.65277,0.0282426,
2,0,0,1,0,3118.79,0.0270667,0.0267636,-1.52419,2,0.00275479,10,-4.07928e-05,-2.81696,0.396504,0.148801,-8.85337,0.0267636,
2,0,0,1,0,3118.87,0.0255685,0.0252528,-1.51131,2,0.00263961,10,-3.81648e-05,-2.82065,0.395449,0.149198,-8.81156,0.02525278,
2,0,0,1,0,3118.94,0.0240704,0.0237524,-1.49745,2,0.0025255,10,-3.5568e-05,-2.82465,0.452781,0.130306,-7.63541,0.0237524,
2,0,0,1,0,3119.02,0.0225722,0.0222729,-1.48906,2,0.00241213,10,-3.31657e-05,-2.82709,0.668158,0.0883024,-5.12616,0.0222729,
2,0,0,1,0,3119.09,0.021074,0.0207382,-1.48108,2,0.00229953,10,-3.0715e-05,-2.82942,0.550937,0.10709,-6.1899,0.0207382,
2,0,0,1,0,3119.17,0.0195758,0.0192511,-1.46865,2,0.0021876,10,-2.82731e-05,-2.83308,0.540783,0.109101,-6.26303,0.0192511,
2,0,0,1,0,3119.24,0.018078,0.0177054,-1.46054,2,0.00207626,10,-2.58594e-05,-2.83549,0.693633,0.0850593,-4.86163,0.0177054,
2,0,0,1,0,3119.32,0.0165785,0.0162554,-1.45421,2,0.00196547,10,-2.36387e-05,-2.83737,1.08327,0.0544646,-3.10783,0.01625542,
2,0,0,1,0,3119.39,0.015083,0.0147716,-1.45371,2,0.00185521,10,-2.14737e-05,-2.83752,0.96787,0.0609586,-3.45629,0.0147716,
2,0,0,1,0,3119.47,0.013583,0.0132392,-1.44334,2,0.00174489,10,-1.91086e-05,-2.84063,0.872307,0.0676367,-3.81753,0.0132392,
2,0,0,1,0,3119.54,0.0120848,0.0117867,-1.44311,2,0.00163515,10,-1.70094e-05,-2.8407,1.44298,0.0408876,-2.30577,0.0117867,
2,0,0,1,0,3119.62,0.0105866,0.0102923,-1.43787,2,0.00152592,10,-1.4799e-05,-2.84228,1.7488,0.0337374,-1.9,0.0102923,
2,0,0,1,0,3119.69,0.00908846,0.00874766,-1.43817,2,0.00141666,10,-1.25806e-05,-2.84219,-33.4023,-0.00176635,0.0991454,0.00874766,
2,0,0,1,0,3119.77,0.00759027,0.00726615,-1.43835,2,0.00130745,10,-1.04512e-05,-2.84214,3.20097,0.0184319,-1.03442,0.00726615,
2,0,0,1,0,3119.84,0.00609208,0.00578549,-1.43956,2,0.00119825,10,-8.32856e-06,-2.84177,-10.2736,-0.00574287,0.32185,0.00578549,
2,0,0,1,0,3119.92,0.00459389,0.00424268,-1.43777,2,0.00108923,10,-6.10002e-06,-2.84231,-10.5007,-0.00561869,0.315468,0.004242681,
2,0,0,1,0,3119.99,0.00309391,0.0027675,-1.43851,2,0.000979913,10,-3.98107e-06,-2.84209,-0.619788,-0.0951938,5.36354,0.0027675,
2,0,0,1,0,3120.07,0.0015984,0.00123788,-1.46183,2,0.00086943,10,-1.80957e-06,-2.8351, , , ,0.00123788,
2,0,0,1,0,3120.14,0.000199195,-0.000217111,-1.44153,2,0.000766328,10,3.12972e-07,-2.84118, , , ,-0.000217111,