File: Figure_codes/Fig_3-5/rawdata_trumpetplot_data/after 10th/20221101_1-115_003_TrumpetPlot_ParaChange_from10_every3_03_CV_C01_17.csv
mode,ox/red,error,control changes,counter inc.,time/s,control/V,Ewe/V,<I>/mA,cycle number,(Q-Qo)/C,I Range,P/W,log(|I|),Tafel slope mV/dec,alpha_eff,dI/d(E-IR),E-IR/V,
2,0,0,1,0,34432.2,2.44065e-05,-0.000439847,-0.0962139,18,0.0000000E+000,10,4.23194e-08,-4.01676, , , ,-0.000439847,
2,1,0,0,0,34432.5,0.00129787,0.000937621,0.129588,18,2.20296e-05,10,1.21504e-07,-3.88744, , , ,0.000937621,
2,1,0,0,0,34432.8,0.00279606,0.00242961,0.16857,18,7.2665e-05,10,4.09559e-07,-3.77322,0.0156779,3.76325,20.4194,0.00242961,
2,1,0,1,0,34433.1,0.00429469,0.00396558,0.179992,18,0.0001293,10,7.13773e-07,-3.74475,0.0569427,1.03613,7.26136,0.00396558,
2,1,0,1,0,34433.4,0.00579255,0.00543807,0.190177,18,0.000189327,10,1.0342e-06,-3.72084,0.0632977,0.932103,6.89827,0.00543807,
2,1,0,1,0,34433.7,0.00729041,0.0069943,0.200206,18,0.000252333,10,1.4003e-06,-3.69852,0.08094,0.728935,5.66952,0.006994301,
2,1,0,1,0,34434,0.00878882,0.00842303,0.207854,18,0.000317937,10,1.75076e-06,-3.68224,0.0930932,0.633773,5.11673,0.00842303,
2,1,0,1,0,34434.3,0.010287,0.0099235,0.214171,18,0.000385655,10,2.12533e-06,-3.66924,0.123033,0.479545,4.00443,0.0099235,
2,1,0,1,0,34434.6,0.0117852,0.0114717,0.220513,18,0.000455392,10,2.52966e-06,-3.65657,0.120134,0.491119,4.22966,0.0114717,
2,1,0,1,0,34434.9,0.0132836,0.0129479,0.226408,18,0.000526837,10,2.93152e-06,-3.64511,0.1285,0.459145,4.08062,0.0129479,
2,1,0,1,0,34435.2,0.0147815,0.0145086,0.231918,18,0.00060025,10,3.3648e-06,-3.63466,0.137601,0.428776,3.89167,0.01450856,
2,1,0,1,0,34435.5,0.0162793,0.0159135,0.238007,18,0.000675543,10,3.78752e-06,-3.62341,0.169335,0.348421,3.24183,0.0159135,
2,1,0,0,0,34435.8,0.017778,0.0174768,0.244234,18,0.00075241,10,4.26842e-06,-3.61219,0.165466,0.356568,3.39934,0.01747678,
2,1,0,0,0,34436.1,0.0192761,0.0189285,0.250357,18,0.000830622,10,4.73888e-06,-3.60144,0.168681,0.349772,3.39481,0.0189285,
2,1,0,1,0,34436.4,0.0207747,0.0204495,0.254998,18,0.000910825,10,5.21459e-06,-3.59346,0.150075,0.393136,3.89128,0.0204495,
2,1,0,1,0,34436.7,0.0222725,0.0219708,0.260011,18,0.000992586,10,5.71266e-06,-3.58501,0.172337,0.342353,3.46831,0.0219708,
2,1,0,1,0,34437,0.0237704,0.0234541,0.265059,18,0.0010759,10,6.21672e-06,-3.57666,0.182802,0.322753,3.3507,0.0234541,
2,1,0,1,0,34437.3,0.0252689,0.0249951,0.268777,18,0.00116053,10,6.7181e-06,-3.57061,0.171097,0.344834,3.64858,0.0249951,
2,1,0,1,0,34437.6,0.0267671,0.0264213,0.275987,18,0.00124699,10,7.29194e-06,-3.55911,0.158362,0.372565,4.01053,0.0264213,
2,1,0,1,0,34437.9,0.0282657,0.0279456,0.282039,18,0.00133518,10,7.88173e-06,-3.54969,0.188567,0.312885,3.43603,0.0279456,
2,1,0,1,0,34438.2,0.0297635,0.0294371,0.287677,18,0.00142494,10,8.46837e-06,-3.5411,0.198092,0.297842,3.3334,0.0294371,
2,1,0,1,0,34438.5,0.0312613,0.0309214,0.290389,18,0.00151614,10,8.97921e-06,-3.53702,0.195473,0.301832,3.43931,0.0309214,
2,1,0,0,0,34438.8,0.0327599,0.0324677,0.297129,18,0.00160884,10,9.64711e-06,-3.52705,0.193919,0.304251,3.53926,0.0324677,
2,1,0,0,0,34439.1,0.034258,0.033947,0.303785,18,0.00170328,10,1.03126e-05,-3.51743,0.191591,0.307947,3.64094,0.033947,
2,1,0,1,0,34439.4,0.0357567,0.0354056,0.307721,18,0.00179948,10,1.0895e-05,-3.51184,0.2275,0.259341,3.1131,0.0354056,
2,1,0,1,0,34439.7,0.0372545,0.0369216,0.313665,18,0.00189726,10,1.1581e-05,-3.50353,0.208922,0.282402,3.46461,0.0369216,
2,1,0,1,0,34440,0.0387524,0.0383888,0.319463,18,0.00199628,10,1.22638e-05,-3.49558,0.207474,0.284373,3.55608,0.0383888,
2,1,0,1,0,34440.3,0.0402508,0.0399436,0.324233,18,0.00209721,10,1.2951e-05,-3.48914,0.214158,0.275498,3.49148,0.0399436,
2,1,0,1,0,34440.6,0.041749,0.0414218,0.330865,18,0.00219989,10,1.3705e-05,-3.48035,0.23681,0.249145,3.19931,0.0414218,
2,1,0,1,0,34440.9,0.0432472,0.0429255,0.336213,18,0.00230391,10,1.44321e-05,-3.47338,0.241496,0.24431,3.18713,0.0429255,
2,1,0,1,0,34441.2,0.0447456,0.0444155,0.339949,18,0.00240916,10,1.5099e-05,-3.46859,0.254656,0.231685,3.0722,0.0444155,
2,1,0,1,0,34441.5,0.0462435,0.0459241,0.344955,18,0.00251611,10,1.58418e-05,-3.46224,0.204186,0.288952,3.88267,0.0459241,
2,1,0,1,0,34441.8,0.0477413,0.0473894,0.349324,18,0.00262455,10,1.65543e-05,-3.45677,0.248655,0.237276,3.23668,0.04738944,
2,1,0,0,0,34442.1,0.0492399,0.0489422,0.354104,18,0.00273456,10,1.73306e-05,-3.45087,0.305633,0.193042,2.6704,0.0489422,
2,1,0,0,0,34442.4,0.0507381,0.0504183,0.357464,18,0.00284567,10,1.80227e-05,-3.44677,0.269366,0.219033,3.06674,0.0504183,
2,1,0,1,0,34442.7,0.0522367,0.0518969,0.363313,18,0.00295821,10,1.88548e-05,-3.43972,0.232416,0.253855,3.59415,0.0518969,
2,1,0,1,0,34443,0.0537345,0.0534341,0.369904,18,0.00307247,10,1.97655e-05,-3.43191,0.252818,0.23337,3.34828,0.0534341,
2,1,0,1,0,34443.3,0.0552323,0.0549003,0.373053,18,0.00318807,10,2.04807e-05,-3.42823,0.359127,0.164287,2.37837,0.0549003,
2,1,0,1,0,34443.6,0.0567309,0.056416,0.374743,18,0.00330485,10,2.11415e-05,-3.42627,0.323966,0.182118,2.6723,0.056416,
2,1,0,1,0,34443.9,0.0582291,0.0579101,0.380159,18,0.00342255,10,2.20151e-05,-3.42003,0.307284,0.192004,2.85665,0.0579101,
2,1,0,1,0,34444.2,0.0597277,0.0593984,0.385321,18,0.00354179,10,2.28875e-05,-3.41418,0.320214,0.184252,2.76931,0.0593984,
2,1,0,1,0,34444.5,0.0612255,0.0609155,0.388738,18,0.00366245,10,2.36801e-05,-3.41034,0.448613,0.131516,1.99061,0.0609155,
2,1,0,1,0,34444.8,0.0627233,0.0624282,0.392666,18,0.00378424,10,2.45134e-05,-3.40598,0.383509,0.153842,2.36477,0.0624282,
2,1,0,0,0,34445.1,0.0642218,0.0638844,0.39634,18,0.00390692,10,2.53199e-05,-3.40193,0.329102,0.179275,2.7832,0.0638844,
2,1,0,0,0,34445.4,0.06572,0.0653976,0.401138,18,0.00403094,10,2.62335e-05,-3.39671,0.366259,0.161088,2.51913,0.0653976,
2,1,0,1,0,34445.7,0.0672187,0.0668996,0.40543,18,0.00415641,10,2.71231e-05,-3.39208,0.441297,0.133697,2.10422,0.0668996,
2,1,0,1,0,34446,0.0687165,0.0683902,0.408607,18,0.00428279,10,2.79447e-05,-3.38869,0.434621,0.13575,2.15953,0.0683902,
2,1,0,1,0,34446.3,0.0702144,0.0698849,0.410049,18,0.0044097,10,2.86563e-05,-3.38716,0.431404,0.136763,2.19522,0.0698849,
2,1,0,1,0,34446.6,0.0717128,0.0713772,0.414102,18,0.00453798,10,2.95574e-05,-3.38289,0.326304,0.180813,2.91462,0.07137724,
2,1,0,1,0,34446.9,0.073211,0.0729233,0.418264,18,0.00466731,10,3.05012e-05,-3.37855,0.447913,0.131722,2.14504,0.0729233,
2,1,0,1,0,34447.2,0.0747092,0.0743792,0.420887,18,0.00479743,10,3.13052e-05,-3.37583,0.456435,0.129263,2.12133,0.07437925,
2,1,0,1,0,34447.5,0.0762076,0.075863,0.421947,18,0.00492829,10,3.20102e-05,-3.37474,0.475959,0.12396,2.05226,0.075863,
2,1,0,1,0,34447.8,0.0777054,0.0773633,0.426494,18,0.00506012,10,3.2995e-05,-3.37009,0.416868,0.141532,2.35566,0.0773633,
2,1,0,1,0,34448.1,0.0792033,0.0789226,0.43188,18,0.00519307,10,3.40851e-05,-3.36464,0.477443,0.123575,2.0704,0.0789226,
2,1,0,0,0,34448.4,0.0807019,0.0803748,0.432305,18,0.00532696,10,3.47464e-05,-3.36421,0.556832,0.105957,1.78712,0.0803748,
2,1,0,0,0,34448.7,0.0822001,0.0819357,0.434746,18,0.00546175,10,3.56212e-05,-3.36176,0.492837,0.119715,2.03582,0.0819357,
2,1,0,1,0,34449,0.0836986,0.0833718,0.440226,18,0.00559723,10,3.67025e-05,-3.35632,0.466696,0.126421,2.17189,0.0833718,
2,1,0,1,0,34449.3,0.0851965,0.0848699,0.443171,18,0.005734,10,3.76119e-05,-3.35343,0.383805,0.153724,2.65791,0.0848699,
2,1,0,1,0,34449.6,0.0866944,0.0863753,0.447337,18,0.00587195,10,3.86388e-05,-3.34937,0.432793,0.136324,2.37434,0.0863753,
2,1,0,1,0,34449.9,0.0881929,0.0878422,0.451675,18,0.00601115,10,3.96761e-05,-3.34517,0.358519,0.164566,2.90271,0.0878422,
2,1,0,1,0,34450.2,0.0896911,0.0893798,0.455473,18,0.00615133,10,4.07101e-05,-3.34154,0.283395,0.20819,3.71616,0.0893798,
2,1,0,1,0,34450.5,0.0911897,0.0908797,0.462035,18,0.00629343,10,4.19896e-05,-3.33532,0.235156,0.250898,4.5229,0.0908797,
2,1,0,1,0,34450.8,0.0926875,0.0923766,0.468076,18,0.00643757,10,4.32393e-05,-3.32968,0.260679,0.226332,4.12707,0.0923766,
2,1,0,1,0,34451.1,0.0941853,0.0938288,0.473004,18,0.00658341,10,4.43814e-05,-3.32514,0.26922,0.219152,4.05664,0.0938288,
2,1,0,0,0,34451.4,0.0956838,0.0953711,0.479277,18,0.00673085,10,4.57092e-05,-3.31941,0.244443,0.241365,4.53661,0.09537106,
2,1,0,0,0,34451.7,0.097182,0.0968599,0.487999,18,0.00688053,10,4.72675e-05,-3.31158,0.20045,0.294337,5.60754,0.0968599,
2,1,0,1,0,34452,0.0986807,0.0983279,0.495764,18,0.0070328,10,4.87474e-05,-3.30473,0.206083,0.286292,5.54255,0.0983279,
2,1,0,1,0,34452.3,0.100179,0.0998842,0.504431,18,0.00718738,10,5.03847e-05,-3.2972,0.227255,0.25962,5.11148,0.0998842,
2,1,0,1,0,34452.6,0.101676,0.101348,0.510676,18,0.00734417,10,5.17562e-05,-3.29185,0.215335,0.273992,5.48491,0.101348,
2,1,0,1,0,34452.9,0.103175,0.102852,0.52078,18,0.00750342,10,5.35633e-05,-3.28335,0.207128,0.284848,5.79778,0.102852,
2,1,0,1,0,34453.2,0.104673,0.104378,0.530921,18,0.00766534,10,5.54165e-05,-3.27497,0.202453,0.291425,6.01925,0.104378,
2,1,0,1,0,34453.5,0.106171,0.105813,0.538474,18,0.00783002,10,5.69775e-05,-3.26884,0.22868,0.258002,5.39637,0.105813,
2,1,0,1,0,34453.8,0.10767,0.107362,0.544488,18,0.00799701,10,5.84575e-05,-3.26401,0.256153,0.230331,4.9041,0.107362,
2,1,0,1,0,34454.1,0.109167,0.108838,0.55327,18,0.0081658,10,6.02168e-05,-3.25706,0.256476,0.230041,4.97068,0.108838,
2,1,0,1,0,34454.4,0.110665,0.110334,0.560173,18,0.00833708,10,6.18061e-05,-3.25168,0.274987,0.214556,4.68608,0.110334,
2,1,0,0,0,34454.7,0.112164,0.111848,0.567398,18,0.00851074,10,6.34622e-05,-3.24611,0.351157,0.168016,3.71027,0.111848,
2,1,0,0,0,34455,0.113662,0.113349,0.572943,18,0.00868612,10,6.49426e-05,-3.24189,0.348847,0.169129,3.78304,0.113349,
2,1,0,1,0,34455.3,0.115161,0.114845,0.578393,18,0.00886275,10,6.64253e-05,-3.23778,0.371879,0.158654,3.5773,0.114845,
2,1,0,1,0,34455.6,0.116658,0.116302,0.583844,18,0.00904139,10,6.79019e-05,-3.2337,0.357176,0.165185,3.75251,0.116302,
2,1,0,1,0,34455.9,0.118156,0.117833,0.588467,18,0.00922185,10,6.93411e-05,-3.23028,0.404724,0.145778,3.34948,0.117833,
2,1,0,1,0,34456.2,0.119655,0.119355,0.592878,18,0.00940352,10,7.07631e-05,-3.22703,0.622097,0.0948406,2.19712,0.119355,
2,1,0,1,0,34456.5,0.121153,0.120859,0.59551,18,0.00958616,10,7.19728e-05,-3.22511,0.433219,0.13619,3.17511,0.120859,
2,1,0,1,0,34456.8,0.122652,0.122308,0.601139,18,0.0097702,10,7.3524e-05,-3.22103,0.379346,0.155531,3.64501,0.122308,
2,1,0,1,0,34457.1,0.124149,0.123823,0.605628,18,0.00995573,10,7.49905e-05,-3.21779,0.445449,0.132451,3.12643,0.123823,
2,1,0,1,0,34457.4,0.125647,0.125369,0.609216,18,0.0101425,10,7.63771e-05,-3.21523,0.667612,0.0883746,2.09806,0.125369,
2,1,0,0,0,34457.7,0.127146,0.126803,0.608526,18,0.0103302,10,7.71626e-05,-3.21572,0.785608,0.0751011,1.79105,0.126803,
2,1,0,0,0,34458,0.128644,0.128316,0.614182,18,0.0105187,10,7.88093e-05,-3.2117,0.984709,0.0599162,1.43632,0.128316,
2,1,0,1,0,34458.3,0.130143,0.129824,0.617695,18,0.0107081,10,8.01917e-05,-3.20923,3.18346,0.0185333,0.445756,0.129824,
2,1,0,1,0,34458.6,0.131641,0.131299,0.617323,18,0.010898,10,8.10538e-05,-3.20949,-1.863,-0.0316693,-0.760493,0.131299,
2,1,0,1,0,34458.9,0.133138,0.132827,0.615429,18,0.0110875,10,8.17458e-05,-3.21082,-0.66457,-0.0887792,-2.12914,0.132827,
2,1,0,1,0,34459.2,0.134637,0.134312,0.610603,18,0.0112759,10,8.20115e-05,-3.21424,-0.411864,-0.143251,-3.40887,0.134312,
2,1,0,1,0,34459.5,0.136135,0.135782,0.603919,18,0.0114629,10,8.20014e-05,-3.21902,-0.255583,-0.230845,-5.4279,0.135782,
2,1,0,1,0,34459.8,0.137633,0.137327,0.596142,18,0.0116475,10,8.18665e-05,-3.22465,-0.170493,-0.346056,-7.99145,0.137327,
2,1,0,1,0,34460.1,0.139132,0.138833,0.584221,18,0.0118288,10,8.11093e-05,-3.23342,-0.141465,-0.417065,-9.44397,0.138833,
2,1,0,1,0,34460.4,0.140629,0.14029,0.566487,18,0.0120054,10,7.94724e-05,-3.24681,-0.123157,-0.479064,-10.5595,0.14029,
2,1,0,1,0,34460.7,0.142127,0.141851,0.549752,18,0.0121773,10,7.79831e-05,-3.25983,-0.10566,-0.558396,-11.9049,0.1418514,
2,1,0,0,0,34461,0.143626,0.143341,0.530386,18,0.0123437,10,7.60259e-05,-3.27541,-0.0872981,-0.675845,-13.9424,0.143341,
2,1,0,0,0,34461.3,0.145124,0.144779,0.506928,18,0.0125037,10,7.33924e-05,-3.29505,-0.0791469,-0.745449,-14.7784,0.144779,
2,1,0,1,0,34461.6,0.146623,0.14631,0.483986,18,0.012657,10,7.08121e-05,-3.31517,-0.076256,-0.773709,-14.6767,0.14631,
2,1,0,1,0,34461.9,0.14812,0.147799,0.464,18,0.0128038,10,6.85785e-05,-3.33348,-0.0771591,-0.764653,-13.8273,0.147799,
2,1,0,1,0,34462.2,0.149618,0.14931,0.444525,18,0.0129442,10,6.63723e-05,-3.3521,-0.076689,-0.769341,-13.3419,0.14931,
2,1,0,1,0,34462.5,0.151117,0.150811,0.425002,18,0.0130787,10,6.40951e-05,-3.37161,-0.0809947,-0.728443,-12.0877,0.150811,
2,1,0,1,0,34462.7,0.152615,0.152288,0.405502,18,0.0132078,10,6.17532e-05,-3.39201,-0.0884042,-0.667389,-10.6416,0.152288,
2,1,0,1,0,34463,0.154114,0.153796,0.392018,18,0.0133319,10,6.02906e-05,-3.40669,-0.0991395,-0.595121,-9.16674,0.153796,
2,1,0,1,0,34463.3,0.155612,0.155301,0.380768,18,0.0134522,10,5.91337e-05,-3.41934,-0.111878,-0.527362,-7.86209,0.155301,
2,1,0,1,0,34463.6,0.157109,0.156783,0.368849,18,0.013569,10,5.78294e-05,-3.43315,-0.117056,-0.504034,-7.27743,0.156783,
2,1,0,0,0,34463.9,0.158608,0.158234,0.360076,18,0.0136828,10,5.69762e-05,-3.44361,-0.146369,-0.403091,-5.68532,0.158234,
2,1,0,0,0,34464.2,0.160106,0.159758,0.352131,18,0.0137938,10,5.62557e-05,-3.4533,-0.162875,-0.362241,-5.00853,0.159758,
2,1,0,1,0,34464.5,0.161605,0.161278,0.345759,18,0.0139028,10,5.57632e-05,-3.46123,-0.180491,-0.326887,-4.41685,0.161278,
2,1,0,1,0,34464.8,0.163102,0.162787,0.340131,18,0.0140099,10,5.53688e-05,-3.46835,-0.199214,-0.296163,-3.935,0.162787,
2,1,0,1,0,34465.1,0.1646,0.164274,0.335415,18,0.0141154,10,5.50999e-05,-3.47442,-0.250438,-0.235587,-3.08387,0.164274,
2,1,0,1,0,34465.4,0.166099,0.165765,0.330828,18,0.0142193,10,5.48398e-05,-3.4804,-0.273029,-0.216095,-2.79387,0.165765,
2,1,0,1,0,34465.7,0.167597,0.167264,0.327575,18,0.0143221,10,5.47916e-05,-3.48469,-0.3885,-0.151866,-1.94121,0.167264,
2,1,0,1,0,34466,0.169095,0.168766,0.32324,18,0.0144241,10,5.45519e-05,-3.49048,-0.323292,-0.182498,-2.30933,0.168766,
2,1,0,1,0,34466.3,0.170594,0.170276,0.321163,18,0.0145249,10,5.46864e-05,-3.49327,-0.321941,-0.183263,-2.30329,0.170276,
2,1,0,1,0,34466.6,0.172091,0.171741,0.31722,18,0.0146247,10,5.44798e-05,-3.49864,-0.571375,-0.10326,-1.28223,0.171741,
2,1,0,1,0,34466.9,0.173589,0.173255,0.315712,18,0.0147238,10,5.46988e-05,-3.50071,-0.578942,-0.10191,-1.25698,0.173255,
2,1,0,0,0,34467.2,0.175088,0.174771,0.313932,18,0.0148222,10,5.48663e-05,-3.50316,-0.571826,-0.103178,-1.26112,0.174771,
2,1,0,0,0,34467.5,0.176586,0.176277,0.311748,18,0.01492,10,5.49539e-05,-3.5062,-0.493851,-0.119469,-1.44877,0.176277,
2,1,0,1,0,34467.8,0.178085,0.177752,0.30829,18,0.0150173,10,5.47993e-05,-3.51104,-0.550925,-0.107093,-1.29247,0.177752,
2,1,0,1,0,34468.1,0.179582,0.179291,0.308666,18,0.0151138,10,5.53409e-05,-3.51051,-0.638179,-0.0924505,-1.11466,0.179291,
2,1,0,1,0,34468.4,0.18108,0.180772,0.305694,18,0.01521,10,5.52607e-05,-3.51471,-1.00039,-0.0589773,-0.705517,0.180772,
2,1,0,1,0,34468.7,0.182579,0.182262,0.304884,18,0.015306,10,5.55687e-05,-3.51587,-0.531547,-0.110997,-1.32184,0.182262,
2,1,0,1,0,34469,0.184077,0.18377,0.30333,18,0.0154014,10,5.57429e-05,-3.51808,-1.00182,-0.0588926,-0.698837,0.18377,
2,1,0,1,0,34469.3,0.185576,0.18529,0.302299,18,0.0154963,10,5.6013e-05,-3.51956,-0.823306,-0.0716623,-0.845676,0.18529,
2,1,0,1,0,34469.6,0.187074,0.186755,0.301854,18,0.0155909,10,5.63728e-05,-3.5202,-1.10223,-0.0535279,-0.629174,0.1867549,
2,1,0,1,0,34469.9,0.188571,0.188233,0.300638,18,0.0156854,10,5.65899e-05,-3.52196,-1.34639,-0.0438209,-0.513151,0.188233,
2,1,0,0,0,34470.2,0.19007,0.189778,0.30053,18,0.0157796,10,5.7034e-05,-3.52211,-1.00103,-0.0589394,-0.687745,0.189778,
2,1,0,0,0,34470.5,0.191568,0.191252,0.298721,18,0.0158733,10,5.71309e-05,-3.52473,-0.866304,-0.0681054,-0.793764,0.191252,
2,1,0,1,0,34470.8,0.193067,0.192817,0.296858,18,0.0159668,10,5.72392e-05,-3.52745,-4.8103,-0.0122653,-0.142165,0.192817,
2,1,0,1,0,34471.1,0.194564,0.194216,0.296683,18,0.0160602,10,5.76205e-05,-3.52771,-1.2181,-0.0484359,-0.560924,0.194216,
2,1,0,1,0,34471.4,0.196062,0.195734,0.295617,18,0.0161532,10,5.78623e-05,-3.52927,-0.782173,-0.0754309,-0.871786,0.195734,
2,1,0,1,0,34471.7,0.197561,0.197225,0.293447,18,0.0162459,10,5.78751e-05,-3.53247,-1.37163,-0.0430146,-0.495368,0.197225,
2,1,0,1,0,34472,0.199059,0.19876,0.294329,18,0.0163383,10,5.85007e-05,-3.53117,-1.01327,-0.0582275,-0.667907,0.19876,
2,1,0,1,0,34472.3,0.200557,0.200239,0.293772,18,0.0164305,10,5.88247e-05,-3.53199,-2.18336,-0.0270226,-0.309041,0.200239,
2,1,0,1,0,34472.6,0.202056,0.201765,0.292917,18,0.0165225,10,5.91005e-05,-3.53325,-1.70986,-0.0345058,-0.393062,0.201765,
2,1,0,1,0,34472.9,0.203553,0.20322,0.290803,18,0.0166142,10,5.90968e-05,-3.5364,-0.711967,-0.082869,-0.944146,0.20322,
2,1,0,1,0,34473.2,0.205051,0.204709,0.290629,18,0.0167056,10,5.94944e-05,-3.53666,1.30762,0.0451202,0.515366,0.2047092,
2,1,0,0,0,34473.5,0.20655,0.206221,0.29013,18,0.016797,10,5.98308e-05,-3.53741,-2.98806,-0.0197452,-0.223681,0.206221,
2,1,0,0,0,34473.8,0.208048,0.207739,0.290016,18,0.0168885,10,6.02478e-05,-3.53758,-0.844172,-0.0698909,-0.787524,0.207739,
2,1,0,1,0,34474.1,0.209547,0.209197,0.289478,18,0.0169796,10,6.05579e-05,-3.53838,-1.98389,-0.0297395,-0.335513,0.2091966,
2,1,0,1,0,34474.4,0.211044,0.210736,0.289335,18,0.0170702,10,6.09732e-05,-3.5386,-1.89863,-0.0310751,-0.350346,0.210736,
2,1,0,1,0,34474.7,0.212542,0.212272,0.28832,18,0.0171609,10,6.12022e-05,-3.54013,-1.36546,-0.0432088,-0.484455,0.212272,
2,1,0,1,0,34475,0.214041,0.213737,0.287771,18,0.0172514,10,6.15073e-05,-3.54095,-2.21296,-0.0266611,-0.299118,0.2137368,
2,1,0,1,0,34475.3,0.215539,0.215189,0.287299,18,0.0173417,10,6.18234e-05,-3.54167,-1.98987,-0.0296502,-0.332574,0.2151885,
2,1,0,1,0,34475.6,0.217038,0.216726,0.287031,18,0.0174316,10,6.22071e-05,-3.54207,-1.21122,-0.0487114,-0.545487,0.2167263,
2,1,0,1,0,34475.9,0.218535,0.218251,0.285722,18,0.0175216,10,6.23592e-05,-3.54406,3.65061,0.0161617,0.179856,0.218251,
2,1,0,1,0,34476.2,0.220033,0.219747,0.286036,18,0.0176115,10,6.28555e-05,-3.54358,-2.50848,-0.0235202,-0.262345,0.2197468,
2,1,0,0,0,34476.5,0.221532,0.221234,0.285081,18,0.0177012,10,6.30696e-05,-3.54503,-1.09416,-0.0539226,-0.600332,0.221234,
2,1,0,0,0,34476.8,0.22303,0.222767,0.283566,18,0.0177907,10,6.31693e-05,-3.54735,7.26638,0.00811958,0.0902651,0.222767,
2,1,0,1,0,34477.1,0.224529,0.224245,0.284437,18,0.01788,10,6.37835e-05,-3.54601,-2.47154,-0.0238717,-0.264112,0.224245,
2,1,0,1,0,34477.4,0.226026,0.22575,0.283601,18,0.0179693,10,6.4023e-05,-3.54729,-3.18168,-0.0185437,-0.205064,0.22575,
2,1,0,1,0,34477.7,0.227524,0.227214,0.283749,18,0.0180583,10,6.44718e-05,-3.54707,-0.912712,-0.0646425,-0.715812,0.227214,
2,1,0,1,0,34478,0.229023,0.228746,0.282729,18,0.0181473,10,6.4673e-05,-3.54863,-1.49881,-0.0393646,-0.434795,0.228746,
2,1,0,1,0,34478.3,0.230521,0.230194,0.281674,18,0.018236,10,6.48398e-05,-3.55025,-13.78,-0.00428157,-0.0471874,0.2301943,
2,1,0,1,0,34478.6,0.232019,0.231722,0.280976,18,0.0183246,10,6.51084e-05,-3.55133,-2.16294,-0.0272776,-0.300025,0.231722,
2,1,0,1,0,34478.9,0.233518,0.233203,0.281461,18,0.0184132,10,6.56376e-05,-3.55058,-1.03347,-0.0570894,-0.626277,0.2332029,
2,1,0,1,0,34479.2,0.235015,0.234774,0.281884,18,0.0185016,10,6.61791e-05,-3.54993,-1.90387,-0.0309895,-0.339927,0.234774,
2,1,0,1,0,34479.5,0.236513,0.236203,0.280724,18,0.0185897,10,6.6308e-05,-3.55172,-3.1387,-0.0187976,-0.206057,0.236203,
2,1,0,0,0,34479.8,0.238012,0.237667,0.280209,18,0.0186779,10,6.65965e-05,-3.55252,-5.53066,-0.0106678,-0.116405,0.237667,
2,1,0,0,0,34480.1,0.23951,0.239177,0.279724,18,0.0187659,10,6.69035e-05,-3.55327,-1.99151,-0.0296257,-0.323471,0.239177,
2,1,0,1,0,34480.4,0.241009,0.240705,0.278944,18,0.0188538,10,6.71434e-05,-3.55448,-4.36701,-0.0135104,-0.147583,0.240705,
2,1,0,1,0,34480.7,0.242506,0.242166,0.279176,18,0.0189414,10,6.76071e-05,-3.55412,1759.72,3.35281e-05,0.000365078,0.242166,
2,1,0,1,0,34481,0.244004,0.243679,0.278767,18,0.0190291,10,6.79296e-05,-3.55476,2.81605,0.0209513,0.227317,0.243679,
2,1,0,1,0,34481.3,0.245503,0.245179,0.278678,18,0.0191169,10,6.8326e-05,-3.5549,-4.46666,-0.013209,-0.143503,0.245179,
2,1,0,1,0,34481.6,0.247001,0.246685,0.278374,18,0.0192045,10,6.86705e-05,-3.55537,-1.38727,-0.0425295,-0.462001,0.246685,
2,1,0,1,0,34481.9,0.2485,0.248201,0.275689,18,0.0192919,10,6.84263e-05,-3.55958,-2.59061,-0.0227745,-0.246727,0.248201,
2,1,0,1,0,34482.2,0.249997,0.249656,0.276752,18,0.019379,10,6.90927e-05,-3.55791,-1.84497,-0.0319788,-0.345796,0.2496559,
2,1,0,1,0,34482.5,0.251495,0.251144,0.277479,18,0.0194663,10,6.9687e-05,-3.55677,-2.73101,-0.0216037,-0.233024,0.251144,
2,1,0,0,0,34482.8,0.252994,0.252674,0.276564,18,0.0195535,10,6.98805e-05,-3.5582,-0.835274,-0.0706355,-0.761353,0.252674,
2,1,0,0,0,34483.1,0.254492,0.254175,0.276152,18,0.0196403,10,7.0191e-05,-3.55885,-2.15314,-0.0274018,-0.295538,0.254175,
2,1,0,1,0,34483.4,0.255991,0.255661,0.275048,18,0.019727,10,7.03191e-05,-3.56059,-53.4638,-0.00110355,-0.0118999,0.255661,
2,1,0,1,0,34483.7,0.257488,0.257144,0.276269,18,0.0198137,10,7.10408e-05,-3.55867,-5.17321,-0.0114049,-0.122282,0.257144,
2,1,0,1,0,34484,0.258986,0.258697,0.276561,18,0.0199004,10,7.15455e-05,-3.55821,4.01874,0.0146812,0.157455,0.258697,
2,1,0,1,0,34484.3,0.260485,0.260179,0.274987,18,0.019987,10,7.1546e-05,-3.56069,-12.8684,-0.00458487,-0.0491098,0.260179,
2,1,0,1,0,34484.6,0.261983,0.261653,0.275167,18,0.0200733,10,7.19983e-05,-3.5604,-6.55387,-0.00900231,-0.0965494,0.261653,
2,1,0,1,0,34484.9,0.263481,0.263185,0.274274,18,0.0201596,10,7.21848e-05,-3.56181,1.55464,0.0379509,0.40584,0.263185,
2,1,0,1,0,34485.2,0.26498,0.264676,0.274475,18,0.020246,10,7.26468e-05,-3.5615,-8.47518,-0.0069615,-0.0745291,0.264676,
2,1,0,1,0,34485.5,0.266477,0.266166,0.273785,18,0.0203322,10,7.28723e-05,-3.56259,-1.504,-0.0392287,-0.418985,0.266166,
2,1,0,0,0,34485.8,0.267976,0.267669,0.272349,18,0.0204181,10,7.28994e-05,-3.56487,-2.12068,-0.0278212,-0.296661,0.267669,
2,1,0,0,0,34486.1,0.269474,0.269117,0.272701,18,0.0205038,10,7.33883e-05,-3.56431,-5.13098,-0.0114988,-0.122048,0.269117,
2,1,0,0,0,34486.4,0.270972,0.27065,0.273765,18,0.0205895,10,7.40945e-05,-3.56262,-1.62329,-0.0363459,-0.386047,0.27065,
2,1,0,1,0,34486.7,0.27247,0.272166,0.272392,18,0.0206752,10,7.4136e-05,-3.56481,-1.18304,-0.0498713,-0.528395,0.272166,
2,1,0,1,0,34487,0.273968,0.273663,0.270917,18,0.0207605,10,7.414e-05,-3.56716,-1.20979,-0.0487688,-0.516435,0.273663,
2,1,0,1,0,34487.3,0.275466,0.275156,0.270397,18,0.0208457,10,7.44014e-05,-3.568,-2.19318,-0.0269016,-0.28401,0.2751562,
2,1,0,1,0,34487.6,0.276965,0.27658,0.270252,18,0.0209309,10,7.47463e-05,-3.56823,-2.05285,-0.0287405,-0.303873,0.27658,
2,1,0,1,0,34487.9,0.278463,0.27815,0.269456,18,0.0210159,10,7.49492e-05,-3.56951,-0.62273,-0.0947441,-0.996175,0.27815,
2,1,0,1,0,34488.2,0.279962,0.279628,0.269404,18,0.0211009,10,7.53328e-05,-3.5696,-1.3474,-0.0437879,-0.460545,0.279628,
2,1,0,1,0,34488.5,0.281459,0.281139,0.268787,18,0.0211855,10,7.55667e-05,-3.57059,-1.26074,-0.046798,-0.492019,0.281139,
2,1,0,1,0,34488.8,0.282957,0.282634,0.269196,18,0.0212701,10,7.6084e-05,-3.56993,-2.64823,-0.0222791,-0.233701,0.282634,
2,1,0,0,0,34489.1,0.284456,0.28417,0.268388,18,0.0213547,10,7.6268e-05,-3.57124,-2.62099,-0.0225106,-0.2349,0.28417,
2,1,0,0,0,34489.4,0.285954,0.285611,0.268238,18,0.0214391,10,7.66118e-05,-3.57148,-1.4523,-0.0406252,-0.424006,0.285611,
2,1,0,0,0,34489.7,0.287452,0.287135,0.266572,18,0.0215232,10,7.65422e-05,-3.57418,-3.09258,-0.0190779,-0.199202,0.287135,
2,1,0,1,0,34490,0.28895,0.288643,0.266603,18,0.0216073,10,7.69531e-05,-3.57413,1.75351,0.0336468,0.349783,0.288643,
2,1,0,1,0,34490.3,0.290448,0.290169,0.267227,18,0.0216914,10,7.7541e-05,-3.57312,-4.13142,-0.0142808,-0.148853,0.290169,
2,1,0,1,0,34490.6,0.291947,0.291597,0.265735,18,0.0217753,10,7.74877e-05,-3.57555,-4.41354,-0.013368,-0.139136,0.291597,
2,1,0,1,0,34490.9,0.293445,0.293136,0.26522,18,0.021859,10,7.77455e-05,-3.57639,-2.03681,-0.0289668,-0.300529,0.293136,
2,1,0,1,0,34491.2,0.294943,0.294661,0.266434,18,0.0219427,10,7.85076e-05,-3.57441,4.02945,0.0146422,0.151702,0.294661,
2,1,0,1,0,34491.5,0.296442,0.296134,0.266797,18,0.0220262,10,7.90075e-05,-3.57382,-2.61811,-0.0225353,-0.233481,0.296134,
2,1,0,1,0,34491.8,0.297939,0.297638,0.26549,18,0.0221098,10,7.90199e-05,-3.57595,2.57962,0.0228716,0.236156,0.297638,
2,1,0,1,0,34492.1,0.299437,0.299126,0.264289,18,0.0221931,10,7.90557e-05,-3.57792,-0.0026629,-22.1563,-116.593,0.299126,
2,1,0,1,0,34492.3,0.299737,0.299395,0.118808,18,0.0222318,10,3.55705e-05,-3.92516,0.00100488,58.7132,208.139,0.299395,
2,1,0,1,0,34492.6,0.29824,0.297921,0.0264159,18,0.0222438,10,7.86984e-06,-4.57813,0.00147173,40.0889,70.8382,0.297921,
2,1,0,0,0,34492.9,0.296741,0.296417,0.00728117,18,0.0222444,10,2.15826e-06,-5.1378,0.00710262,8.30679,11.3543,0.2964167,
2,0,0,0,0,34493.2,0.295243,0.294928,-0.00600924,18,0.0222402,10,-1.77229e-06,-5.22118,-0.0348939,-1.69084,7.35503,0.294928,
2,1,0,1,0,34493.5,0.293744,0.293419,-0.0159272,18,0.022233,10,-4.67334e-06,-4.79786,-0.00383184,-15.3973,5.57817,0.293419,
2,0,0,1,0,34493.8,0.292246,0.291975,-0.0232261,18,0.0222234,10,-6.78144e-06,-4.63402,-0.00972118,-6.06922,4.91693,0.291975,
2,0,0,1,0,34494.1,0.290749,0.290429,-0.0302553,18,0.0222114,10,-8.78701e-06,-4.5192,-0.0144897,-4.07185,4.52494,0.290429,
2,0,0,1,0,34494.4,0.28925,0.288925,-0.0359086,18,0.0221975,10,-1.03749e-05,-4.4448,-0.0213453,-2.76407,3.81708,0.288925,
2,0,0,1,0,34494.7,0.287752,0.287439,-0.0411633,18,0.0221818,10,-1.18319e-05,-4.38549,-0.0264037,-2.23453,3.63493,0.287439,
2,0,0,1,0,34495,0.286253,0.285916,-0.0454781,18,0.0221648,10,-1.30029e-05,-4.3422,-0.0318581,-1.85196,3.34885,0.285916,
2,0,0,1,0,34495.3,0.284755,0.284469,-0.0514145,18,0.0221461,10,-1.46258e-05,-4.28891,-0.035474,-1.66319,3.28364,0.284469,
2,0,0,1,0,34495.6,0.283257,0.282917,-0.0562346,18,0.022126,10,-1.59097e-05,-4.25,-0.047326,-1.24667,2.69861,0.282917,
2,0,0,0,0,34495.9,0.281759,0.28143,-0.0598467,18,0.0221046,10,-1.68427e-05,-4.22296,-0.0559644,-1.05424,2.42402,0.28143,
2,0,0,0,0,34496.2,0.280261,0.279945,-0.0624291,18,0.022082,10,-1.74767e-05,-4.20461,-0.0567821,-1.03906,2.54367,0.2799454,
2,0,0,0,0,34496.5,0.278763,0.278476,-0.0674104,18,0.0220585,10,-1.87722e-05,-4.17127,-0.0623227,-0.946685,2.47581,0.278476,
2,0,0,1,0,34496.8,0.277264,0.276973,-0.0708322,18,0.0220336,10,-1.96186e-05,-4.14977,-0.0699453,-0.843517,2.31171,0.276973,
2,0,0,1,0,34497.1,0.275766,0.275413,-0.0729146,18,0.0220078,10,-2.00817e-05,-4.13719,-0.0970436,-0.607974,1.74127,0.275413,
2,0,0,1,0,34497.4,0.274269,0.273951,-0.0758921,18,0.021981,10,-2.07908e-05,-4.1198,-0.0944832,-0.62445,1.89706,0.273951,
2,0,0,1,0,34497.7,0.27277,0.272466,-0.079973,18,0.0219534,10,-2.17899e-05,-4.09706,-0.0856548,-0.688811,2.18895,0.272466,
2,0,0,1,0,34498,0.271272,0.270989,-0.0828881,18,0.0219248,10,-2.24618e-05,-4.08151,-0.0981407,-0.601178,1.96023,0.270989,
2,0,0,1,0,34498.3,0.269773,0.269462,-0.0872246,18,0.021895,10,-2.35037e-05,-4.05936,-0.0980575,-0.601688,2.00484,0.2694619,
2,0,0,1,0,34498.6,0.268275,0.267964,-0.0895368,18,0.0218645,10,-2.39926e-05,-4.048,-0.0959977,-0.614598,2.1366,0.267964,
2,0,0,1,0,34498.9,0.266778,0.266455,-0.0918976,18,0.0218333,10,-2.44865e-05,-4.0367,-0.122915,-0.480007,1.71858,0.266455,
2,0,0,0,0,34499.2,0.265279,0.264972,-0.0948388,18,0.0218012,10,-2.51297e-05,-4.02301,-0.120098,-0.491264,1.82369,0.264972,
2,0,0,0,0,34499.5,0.263781,0.263466,-0.095675,18,0.0217682,10,-2.52071e-05,-4.0192,-0.131734,-0.447873,1.69995,0.263466,
2,0,0,1,0,34499.8,0.262282,0.261991,-0.0998751,18,0.0217346,10,-2.61664e-05,-4.00054,-0.152593,-0.386649,1.51466,0.261991,
2,0,0,1,0,34500.1,0.260784,0.260499,-0.102087,18,0.0217003,10,-2.65936e-05,-3.99103,-0.16299,-0.361986,1.43766,0.260499,
2,0,0,1,0,34500.4,0.259286,0.258991,-0.103917,18,0.0216652,10,-2.69136e-05,-3.98331,-0.12369,-0.476999,1.94261,0.258991,
2,0,0,1,0,34500.7,0.257788,0.257464,-0.10704,18,0.0216294,10,-2.75588e-05,-3.97046,-0.161186,-0.366037,1.53171,0.257464,
2,0,0,1,0,34501,0.25629,0.255991,-0.110329,18,0.0215928,10,-2.82432e-05,-3.95731,-0.230445,-0.256027,1.08616,0.2559908,
2,0,0,1,0,34501.3,0.254791,0.25454,-0.110094,18,0.0215557,10,-2.80234e-05,-3.95823,-0.171277,-0.344471,1.49313,0.25454,
2,0,0,1,0,34501.6,0.253293,0.252979,-0.113641,18,0.021518,10,-2.87487e-05,-3.94447,-0.169702,-0.347668,1.54361,0.252979,
2,0,0,1,0,34501.9,0.251795,0.251513,-0.115529,18,0.0214795,10,-2.90571e-05,-3.93731,-0.202072,-0.291975,1.31813,0.251513,
2,0,0,0,0,34502.2,0.250297,0.249968,-0.117277,18,0.0214404,10,-2.93154e-05,-3.93079,-0.231321,-0.255057,1.16857,0.249968,
2,0,0,0,0,34502.5,0.248799,0.248464,-0.119051,18,0.0214006,10,-2.95798e-05,-3.92427,-0.211408,-0.279081,1.31024,0.248464,
2,0,0,0,0,34502.8,0.247301,0.246979,-0.121442,18,0.0213605,10,-2.99937e-05,-3.91563,-0.208141,-0.283462,1.35226,0.2469795,
2,0,0,1,0,34503.1,0.245802,0.245526,-0.124123,18,0.0213196,10,-3.04756e-05,-3.90615,-0.233439,-0.252742,1.21891,0.245526,
2,0,0,1,0,34503.4,0.244304,0.243953,-0.125791,18,0.0212779,10,-3.06871e-05,-3.90035,-0.283594,-0.208044,1.01809,0.243953,
2,0,0,1,0,34503.7,0.242806,0.242453,-0.128905,18,0.0212357,10,-3.12533e-05,-3.88973,-0.328911,-0.17938,0.892279,0.242453,
2,0,0,1,0,34504,0.241308,0.241027,-0.128869,18,0.0211932,10,-3.10611e-05,-3.88985,-0.238055,-0.247842,1.2523,0.241027,
2,0,0,1,0,34504.3,0.23981,0.239545,-0.131453,18,0.0211499,10,-3.1489e-05,-3.88123,-0.17765,-0.332113,1.70054,0.239545,
2,0,0,1,0,34504.6,0.238311,0.237984,-0.133564,18,0.021106,10,-3.1786e-05,-3.87431,-0.256205,-0.230285,1.20542,0.237984,
2,0,0,1,0,34504.9,0.236813,0.236432,-0.135044,18,0.0210616,10,-3.19287e-05,-3.86952,-0.334151,-0.176567,0.931327,0.236432,
2,0,0,1,0,34505.2,0.235316,0.235033,-0.136316,18,0.0210167,10,-3.20388e-05,-3.86545,-0.202765,-0.290977,1.55764,0.235033,
2,0,0,0,0,34505.5,0.233817,0.233506,-0.139885,18,0.0209713,10,-3.2664e-05,-3.85423,-0.262509,-0.224754,1.22168,0.233506,
2,0,0,0,0,34505.8,0.232319,0.231979,-0.141226,18,0.0209252,10,-3.27615e-05,-3.85008,-0.277915,-0.212295,1.16434,0.231979,
2,0,0,1,0,34506.1,0.23082,0.230522,-0.142437,18,0.0208785,10,-3.28347e-05,-3.84638,-0.303364,-0.194486,1.0813,0.230522,
2,0,0,1,0,34506.4,0.229322,0.229006,-0.143059,18,0.0208316,10,-3.27613e-05,-3.84449,-0.344922,-0.171053,0.968458,0.229006,
2,0,0,1,0,34506.7,0.227825,0.227523,-0.146031,18,0.0207841,10,-3.32255e-05,-3.83555,-0.261431,-0.225681,1.29164,0.2275226,
2,0,0,1,0,34507,0.226326,0.225981,-0.147195,18,0.0207359,10,-3.32633e-05,-3.83211,-0.273735,-0.215537,1.2457,0.225981,
2,0,0,1,0,34507.3,0.224828,0.224516,-0.149074,18,0.0206872,10,-3.34694e-05,-3.8266,-0.511428,-0.115363,0.671998,0.224516,
2,0,0,1,0,34507.6,0.223329,0.223032,-0.150879,18,0.020638,10,-3.36509e-05,-3.82137,-0.290736,-0.202933,1.19395,0.223032,
2,0,0,1,0,34507.9,0.221831,0.22151,-0.152416,18,0.0205885,10,-3.37617e-05,-3.81697,-0.362871,-0.162592,0.969985,0.22151,
2,0,0,1,0,34508.2,0.220333,0.220017,-0.154499,18,0.0205383,10,-3.39924e-05,-3.81107,-0.23579,-0.250223,1.50206,0.220017,
2,0,0,0,0,34508.5,0.218835,0.218515,-0.155907,18,0.0204874,10,-3.40679e-05,-3.80714,-0.275788,-0.213933,1.2973,0.218515,
2,0,0,0,0,34508.8,0.217337,0.217002,-0.158293,18,0.0204361,10,-3.43499e-05,-3.80054,-0.408998,-0.144255,0.890419,0.217002,
2,0,0,0,0,34509.1,0.215839,0.215527,-0.15935,18,0.0203845,10,-3.43441e-05,-3.79765,-0.256111,-0.230369,1.4361,0.215527,
2,0,0,1,0,34509.4,0.21434,0.214013,-0.16136,18,0.0203322,10,-3.45331e-05,-3.79221,-0.229808,-0.256736,1.61601,0.214013,
2,0,0,1,0,34509.7,0.212842,0.212491,-0.162374,18,0.0202793,10,-3.45029e-05,-3.78948,-0.292761,-0.201529,1.28284,0.212491,
2,0,0,1,0,34510,0.211344,0.211036,-0.164674,18,0.0202259,10,-3.47522e-05,-3.78337,-0.390403,-0.151126,0.971182,0.211036,
2,0,0,1,0,34510.3,0.209846,0.209582,-0.164709,18,0.0201722,10,-3.45202e-05,-3.78328,-0.330447,-0.178546,1.16284,0.209582,
2,0,0,1,0,34510.6,0.208348,0.20804,-0.16824,18,0.0201178,10,-3.50007e-05,-3.77407,-0.255116,-0.231268,1.51469,0.20804,
2,0,0,1,0,34510.9,0.206849,0.20652,-0.172321,18,0.0200627,10,-3.55877e-05,-3.76366,-0.377155,-0.156434,1.0351,0.20652,
2,0,0,1,0,34511.2,0.205351,0.205046,-0.170807,18,0.020007,10,-3.50232e-05,-3.76749,-0.504552,-0.116935,0.778372,0.2050458,
2,0,0,1,0,34511.5,0.203854,0.203507,-0.172196,18,0.019951,10,-3.50431e-05,-3.76398,-0.34364,-0.171691,1.16549,0.203507,
2,0,0,0,0,34511.8,0.202355,0.202083,-0.175082,18,0.0198946,10,-3.5381e-05,-3.75676,-0.292906,-0.20143,1.38385,0.202083,
2,0,0,0,0,34512.1,0.200857,0.200543,-0.177655,18,0.0198374,10,-3.56276e-05,-3.75042,-0.302059,-0.195326,1.3585,0.200543,
2,0,0,1,0,34512.4,0.199358,0.199013,-0.178974,18,0.0197795,10,-3.56181e-05,-3.74721,-0.329923,-0.178829,1.24459,0.199013,
2,0,0,1,0,34512.7,0.19786,0.197526,-0.18132,18,0.0197211,10,-3.58155e-05,-3.74155,-0.316778,-0.186251,1.31565,0.197526,
2,0,0,1,0,34513,0.196363,0.196061,-0.182845,18,0.0196623,10,-3.58489e-05,-3.73792,-0.296042,-0.199296,1.42636,0.196061,
2,0,0,1,0,34513.3,0.194864,0.194549,-0.185853,18,0.0196027,10,-3.61575e-05,-3.73083,-0.267292,-0.220732,1.59165,0.194549,
2,0,0,1,0,34513.6,0.193366,0.193044,-0.187554,18,0.0195424,10,-3.62061e-05,-3.72687,-0.321696,-0.183403,1.3431,0.193044,
2,0,0,1,0,34513.9,0.191867,0.191572,-0.189286,18,0.0194815,10,-3.62619e-05,-3.72288,-0.50997,-0.115693,0.858406,0.191572,
2,0,0,1,0,34514.2,0.190369,0.190029,-0.191237,18,0.0194201,10,-3.63405e-05,-3.71843,-0.364198,-0.162,1.21247,0.190029,
2,0,0,1,0,34514.5,0.188871,0.188547,-0.193103,18,0.019358,10,-3.64091e-05,-3.71421,-0.290575,-0.203046,1.532,0.188547,
2,0,0,0,0,34514.8,0.187373,0.187044,-0.194515,18,0.0192953,10,-3.63829e-05,-3.71105,-0.281914,-0.209283,1.60022,0.187044,
2,0,0,0,0,34515.1,0.185875,0.185573,-0.199001,18,0.0192318,10,-3.69293e-05,-3.70115,-0.295757,-0.199488,1.53979,0.185573,
2,0,0,0,0,34515.4,0.184377,0.184052,-0.198522,18,0.0191677,10,-3.65383e-05,-3.70219,-0.32581,-0.181087,1.41571,0.184052,
2,0,0,1,0,34515.7,0.182878,0.182555,-0.202893,18,0.0191028,10,-3.70392e-05,-3.69273,-0.25177,-0.23434,1.85657,0.182555,
2,0,0,1,0,34516,0.181381,0.181087,-0.205384,18,0.0190372,10,-3.71923e-05,-3.68743,-0.29123,-0.202589,1.6224,0.181087,
2,0,0,1,0,34516.3,0.179882,0.179589,-0.207793,18,0.0189707,10,-3.73173e-05,-3.68237,-0.342337,-0.172345,1.39485,0.179589,
2,0,0,1,0,34516.6,0.178384,0.178063,-0.211814,18,0.0189035,10,-3.77162e-05,-3.67405,-0.305262,-0.193277,1.59003,0.178063,
2,0,0,1,0,34516.9,0.176886,0.176581,-0.212964,18,0.0188357,10,-3.76054e-05,-3.67169,-0.259594,-0.227278,1.8978,0.1765812,
2,0,0,1,0,34517.2,0.175387,0.175064,-0.216311,18,0.0187669,10,-3.78684e-05,-3.66492,-0.240694,-0.245124,2.06624,0.175064,
2,0,0,1,0,34517.5,0.173889,0.173577,-0.219437,18,0.0186972,10,-3.80892e-05,-3.65869,-0.270815,-0.217861,1.86552,0.173577,
2,0,0,1,0,34517.8,0.172392,0.172049,-0.22392,18,0.0186267,10,-3.85254e-05,-3.64991,-0.250966,-0.235091,2.03947,0.172049,
2,0,0,0,0,34518.1,0.170893,0.170571,-0.226209,18,0.0185553,10,-3.85846e-05,-3.64549,-0.227666,-0.259151,2.2782,0.170571,
2,0,0,0,0,34518.4,0.169395,0.169089,-0.229318,18,0.0184827,10,-3.87753e-05,-3.63956,-0.183782,-0.321032,2.87322,0.169089,
2,0,0,1,0,34518.7,0.167896,0.167544,-0.233501,18,0.0184089,10,-3.91217e-05,-3.63171,-0.212258,-0.277964,2.52687,0.167544,
2,0,0,1,0,34519,0.166398,0.166061,-0.23719,18,0.018334,10,-3.93879e-05,-3.6249,-0.211821,-0.278537,2.5817,0.166061,
2,0,0,1,0,34519.3,0.164901,0.164568,-0.239668,18,0.0182582,10,-3.94417e-05,-3.62039,-0.20081,-0.29381,2.77107,0.164568,
2,0,0,1,0,34519.6,0.163402,0.163098,-0.245503,18,0.018181,10,-4.00411e-05,-3.60994,-0.167814,-0.35158,3.36429,0.163098,
2,0,0,1,0,34519.9,0.161904,0.161591,-0.249615,18,0.0181023,10,-4.03357e-05,-3.60273,-0.160395,-0.367843,3.59033,0.161591,
2,0,0,1,0,34520.2,0.160405,0.160054,-0.256323,18,0.018022,10,-4.10256e-05,-3.59121,-0.160116,-0.368483,3.67047,0.160054,
2,0,0,1,0,34520.5,0.158907,0.158569,-0.258398,18,0.0179402,10,-4.09739e-05,-3.58771,-0.152951,-0.385745,3.93354,0.158569,
2,0,0,1,0,34520.8,0.157409,0.157114,-0.267199,18,0.0178569,10,-4.19805e-05,-3.57317,-0.141422,-0.41719,4.36871,0.157114,
2,0,0,0,0,34521,0.155911,0.155589,-0.273671,18,0.0177715,10,-4.25803e-05,-3.56277,-0.147441,-0.400161,4.27462,0.155589,
2,0,0,0,0,34521.3,0.154413,0.154084,-0.280853,18,0.0176838,10,-4.32749e-05,-3.55152,-0.137718,-0.42841,4.68943,0.154084,
2,0,0,0,0,34521.6,0.152915,0.152603,-0.289859,18,0.0175941,10,-4.42335e-05,-3.53781,-0.12209,-0.48325,5.45248,0.152603,
2,0,0,1,0,34521.9,0.151416,0.151097,-0.297,18,0.017502,10,-4.48759e-05,-3.52724,-0.112729,-0.523378,6.08535,0.151097,
2,0,0,1,0,34522.2,0.149919,0.14959,-0.307089,18,0.017407,10,-4.59375e-05,-3.51274,-0.097464,-0.605352,7.27322,0.14959,
2,0,0,1,0,34522.5,0.14842,0.148109,-0.317709,18,0.0173088,10,-4.70557e-05,-3.49797,-0.0933251,-0.632199,7.86963,0.148109,
2,0,0,1,0,34522.8,0.146922,0.146582,-0.329733,18,0.017207,10,-4.83331e-05,-3.48184,-0.0897641,-0.657278,8.46367,0.146582,
2,0,0,1,0,34523.1,0.145424,0.145087,-0.342822,18,0.0171016,10,-4.97391e-05,-3.46493,-0.082687,-0.713534,9.59889,0.145087,
2,0,0,1,0,34523.4,0.143925,0.143663,-0.358242,18,0.0169916,10,-5.1466e-05,-3.44582,-0.0761586,-0.774699,10.8606,0.143663,
2,0,0,1,0,34523.7,0.142427,0.142079,-0.374684,18,0.0168769,10,-5.32346e-05,-3.42634,-0.0778502,-0.757866,11.1237,0.142079,
2,0,0,1,0,34524,0.14093,0.140669,-0.392234,18,0.0167573,10,-5.51751e-05,-3.40645,-0.0798036,-0.739315,11.3464,0.140669,
2,0,0,0,0,34524.3,0.139431,0.13913,-0.409011,18,0.0166326,10,-5.69056e-05,-3.38827,-0.0769403,-0.766829,12.2892,0.1391298,
2,0,0,0,0,34524.6,0.137933,0.137642,-0.429788,18,0.0165024,10,-5.91568e-05,-3.36675,-0.0779844,-0.756561,12.6602,0.137642,
2,0,0,1,0,34524.9,0.136434,0.136061,-0.449124,18,0.0163661,10,-6.11082e-05,-3.34763,-0.0756827,-0.77957,13.6239,0.1360608,
2,0,0,1,0,34525.2,0.134936,0.1346,-0.468994,18,0.0162239,10,-6.31264e-05,-3.32883,-0.083588,-0.705843,12.8806,0.1346,
2,0,0,1,0,34525.5,0.133439,0.133088,-0.487335,18,0.0160757,10,-6.48583e-05,-3.31217,-0.0868353,-0.679447,12.9439,0.133088,
2,0,0,1,0,34525.8,0.13194,0.131593,-0.506874,18,0.0159219,10,-6.67013e-05,-3.2951,-0.0958341,-0.615647,12.2121,0.131593,
2,0,0,1,0,34526.1,0.130442,0.130109,-0.526127,18,0.0157622,10,-6.84538e-05,-3.27891,-0.103269,-0.571325,11.7124,0.130109,
2,0,0,1,0,34526.4,0.128943,0.128612,-0.544151,18,0.0155969,10,-6.99845e-05,-3.26428,-0.121878,-0.484091,10.2229,0.128612,
2,0,0,1,0,34526.7,0.127445,0.127102,-0.559424,18,0.0154269,10,-7.11036e-05,-3.25226,-0.130949,-0.450559,9.8051,0.127102,
2,0,0,1,0,34527,0.125947,0.125625,-0.572564,18,0.0152527,10,-7.19283e-05,-3.24218,-0.144274,-0.408944,9.10678,0.125625,
2,0,0,0,0,34527.3,0.124449,0.124123,-0.586363,18,0.0150741,10,-7.27811e-05,-3.23183,-0.165757,-0.355943,8.10585,0.124123,
2,0,0,0,0,34527.6,0.122951,0.122634,-0.59722,18,0.014892,10,-7.32395e-05,-3.22387,-0.209637,-0.281439,6.52705,0.122634,
2,0,0,0,0,34527.9,0.121453,0.121148,-0.605772,18,0.014707,10,-7.33883e-05,-3.21769,-0.263215,-0.224151,5.27842,0.121148,
2,0,0,1,0,34528.2,0.119954,0.119617,-0.610672,18,0.01452,10,-7.30469e-05,-3.21419,-0.356564,-0.165468,3.94494,0.1196173,
2,0,0,1,0,34528.5,0.118456,0.118127,-0.615789,18,0.0143313,10,-7.27415e-05,-3.21057,-0.408605,-0.144394,3.46747,0.118127,
2,0,0,1,0,34528.8,0.116958,0.116601,-0.621435,18,0.014141,10,-7.24602e-05,-3.2066,-0.631989,-0.0933561,2.25569,0.116601,
2,0,0,1,0,34529.1,0.11546,0.115118,-0.622089,18,0.0139501,10,-7.16136e-05,-3.20615,-9.46115,-0.00623603,0.151163,0.115118,
2,0,0,1,0,34529.4,0.113962,0.113621,-0.620147,18,0.013759,10,-7.04615e-05,-3.20751,-4.54613,-0.0129781,0.314554,0.113621,
2,0,0,1,0,34529.7,0.112463,0.112131,-0.622885,18,0.013568,10,-6.98445e-05,-3.20559,3.42802,0.0172111,-0.417243,0.112131,
2,0,0,1,0,34530,0.110965,0.110657,-0.622088,18,0.0133769,10,-6.88383e-05,-3.20615,1.71252,0.0344522,-0.8346,0.110657,
2,0,0,1,0,34530.3,0.109468,0.109135,-0.61971,18,0.0131863,10,-6.76318e-05,-3.20781,0.866726,0.0680723,-1.64299,0.109135,
2,0,0,0,0,34530.6,0.107969,0.107599,-0.617346,18,0.0129961,10,-6.64256e-05,-3.20947,1.01286,0.0582511,-1.40456,0.107599,
2,0,0,0,0,34530.9,0.106471,0.106146,-0.615312,18,0.0128069,10,-6.53128e-05,-3.2109,1.26058,0.0468037,-1.12521,0.106146,
2,0,0,1,0,34531.2,0.104972,0.104693,-0.613568,18,0.012618,10,-6.42361e-05,-3.21214,0.881982,0.0668948,-1.59879,0.104693,
2,0,0,1,0,34531.5,0.103474,0.103178,-0.611137,18,0.0124297,10,-6.30557e-05,-3.21386,0.605592,0.0974254,-2.31612,0.103178,
2,0,0,1,0,34531.8,0.101977,0.1016,-0.609125,18,0.0122424,10,-6.18872e-05,-3.21529,0.653769,0.090246,-2.13697,0.1016,
2,0,0,1,0,34532.1,0.100478,0.100166,-0.603733,18,0.0120564,10,-6.04737e-05,-3.21915,0.699777,0.0843126,-1.98892,0.100166,
2,0,0,1,0,34532.4,0.0989798,0.0986254,-0.601418,18,0.0118712,10,-5.93151e-05,-3.22082,0.838902,0.07033,-1.64788,0.0986254,
2,0,0,1,0,34532.7,0.0974812,0.0971404,-0.598397,18,0.0116866,10,-5.81285e-05,-3.22301,0.745461,0.0791456,-1.84649,0.0971404,
2,0,0,1,0,34533,0.0959834,0.0956434,-0.594282,18,0.0115032,10,-5.68392e-05,-3.22601,0.51292,0.115028,-2.67107,0.0956434,
2,0,0,1,0,34533.3,0.0944855,0.0941793,-0.589362,18,0.0113212,10,-5.55057e-05,-3.22962,0.585919,0.100697,-2.32017,0.09417928,
2,0,0,0,0,34533.6,0.0929871,0.0926935,-0.58638,18,0.0111399,10,-5.43536e-05,-3.23182,0.749282,0.0787421,-1.80253,0.0926935,
2,0,0,0,0,34533.9,0.0914889,0.0911803,-0.584174,18,0.0109598,10,-5.32652e-05,-3.23346,0.492797,0.119725,-2.72356,0.0911803,
2,0,0,0,0,34534.2,0.0899907,0.0896873,-0.579385,18,0.0107807,10,-5.19635e-05,-3.23703,0.41372,0.142608,-3.21408,0.08968728,
2,0,0,1,0,34534.5,0.0884923,0.0881483,-0.572997,18,0.0106029,10,-5.05087e-05,-3.24185,0.442175,0.133431,-2.99328,0.0881483,
2,0,0,1,0,34534.8,0.0869946,0.0866738,-0.569065,18,0.0104267,10,-4.9323e-05,-3.24484,0.518881,0.113706,-2.53609,0.0866738,
2,0,0,1,0,34535.1,0.0854961,0.0851562,-0.566894,18,0.0102515,10,-4.82745e-05,-3.2465,0.443725,0.132965,-2.94182,0.0851562,
2,0,0,1,0,34535.4,0.083998,0.0836589,-0.563055,18,0.0100773,10,-4.71046e-05,-3.24945,0.38571,0.152965,-3.35288,0.0836589,
2,0,0,1,0,34535.7,0.0824998,0.0821658,-0.558179,18,0.00990455,10,-4.58632e-05,-3.25323,0.464719,0.126958,-2.77098,0.0821658,
2,0,0,1,0,34536,0.0810014,0.0806925,-0.554556,18,0.00973326,10,-4.47486e-05,-3.25605,0.486968,0.121158,-2.62327,0.08069253,
2,0,0,1,0,34536.3,0.0795035,0.0791681,-0.55125,18,0.00956296,10,-4.36415e-05,-3.25865,0.565497,0.104333,-2.24156,0.0791681,
2,0,0,1,0,34536.6,0.0780056,0.0776478,-0.547569,18,0.00939375,10,-4.25175e-05,-3.26156,0.534224,0.110441,-2.3583,0.0776478,
2,0,0,0,0,34536.9,0.076507,0.0761925,-0.543851,18,0.00922554,10,-4.14374e-05,-3.26452,0.494581,0.119293,-2.52996,0.07619255,
2,0,0,0,0,34537.2,0.0750088,0.0746836,-0.540126,18,0.00905888,10,-4.03385e-05,-3.26751,0.471058,0.12525,-2.64198,0.0746836,
2,0,0,1,0,34537.5,0.0735103,0.0731787,-0.536395,18,0.00889319,10,-3.92527e-05,-3.27052,0.824707,0.0715405,-1.49392,0.0731787,
2,0,0,1,0,34537.8,0.0720124,0.0717187,-0.533192,18,0.00872844,10,-3.82399e-05,-3.27312,0.668319,0.0882812,-1.83548,0.07171873,
2,0,0,1,0,34538.1,0.0705146,0.0702174,-0.528466,18,0.00856477,10,-3.71075e-05,-3.27698,0.54083,0.109092,-2.25514,0.0702174,
2,0,0,1,0,34538.4,0.069016,0.0687241,-0.524132,18,0.00840241,10,-3.60205e-05,-3.28056,0.542414,0.108773,-2.23456,0.0687241,
2,0,0,1,0,34538.7,0.0675179,0.0671823,-0.522257,18,0.00824094,10,-3.50864e-05,-3.28212,0.736869,0.0800685,-1.63123,0.0671823,
2,0,0,1,0,34539,0.0660192,0.0657089,-0.521827,18,0.00808016,10,-3.42887e-05,-3.28247,0.55827,0.105684,-2.14193,0.0657089,
2,0,0,1,0,34539.3,0.0645214,0.064232,-0.516633,18,0.00792027,10,-3.31844e-05,-3.28682,0.487644,0.12099,-2.43255,0.064232,
2,0,0,1,0,34539.6,0.0630235,0.0626778,-0.511705,18,0.00776166,10,-3.20726e-05,-3.29098,0.51079,0.115507,-2.31155,0.0626778,
2,0,0,0,0,34539.9,0.0615251,0.0611963,-0.50908,18,0.00760423,10,-3.11538e-05,-3.29321,0.575772,0.102471,-2.03982,0.0611963,
2,0,0,0,0,34540.2,0.0600269,0.0597213,-0.505826,18,0.00744758,10,-3.02086e-05,-3.296,0.625862,0.09427,-1.86205,0.0597213,
2,0,0,0,0,34540.5,0.0585287,0.0582155,-0.503237,18,0.00729176,10,-2.92962e-05,-3.29823,0.446189,0.132231,-2.58938,0.0582155,
2,0,0,1,0,34540.8,0.0570303,0.0566841,-0.499312,18,0.00713691,10,-2.8303e-05,-3.30163,0.449297,0.131316,-2.56374,0.0566841,
2,0,0,1,0,34541.1,0.0555325,0.0552104,-0.496222,18,0.00698353,10,-2.73966e-05,-3.30432,0.580976,0.101553,-1.96669,0.0552104,
2,0,0,1,0,34541.4,0.0540342,0.0537204,-0.493143,18,0.00683088,10,-2.64919e-05,-3.30703,0.62179,0.0948873,-1.82245,0.0537204,
2,0,0,1,0,34541.7,0.052536,0.0522464,-0.490479,18,0.00667896,10,-2.56258e-05,-3.30938,0.706417,0.0835201,-1.59723,0.0522464,
2,0,0,1,0,34542,0.0510378,0.0507046,-0.487167,18,0.0065282,10,-2.47016e-05,-3.31232,0.411316,0.143442,-2.72388,0.0507046,
2,0,0,1,0,34542.3,0.0495394,0.0492791,-0.482734,18,0.00637856,10,-2.37887e-05,-3.31629,0.482777,0.12221,-2.303,0.0492791,
2,0,0,1,0,34542.6,0.0480415,0.047744,-0.479774,18,0.00622986,10,-2.29064e-05,-3.31896,0.577268,0.102206,-1.91033,0.047744,
2,0,0,1,0,34542.9,0.0465436,0.0462322,-0.47575,18,0.00608222,10,-2.1995e-05,-3.32262,0.578759,0.101942,-1.89896,0.0462322,
2,0,0,0,0,34543.2,0.045045,0.04469,-0.472777,18,0.00593554,10,-2.11284e-05,-3.32534,0.40561,0.14546,-2.68239,0.04469,
2,0,0,0,0,34543.5,0.0435468,0.0432521,-0.468192,18,0.00579001,10,-2.02503e-05,-3.32958,0.426255,0.138415,-2.5337,0.0432521,
2,0,0,1,0,34543.8,0.0420483,0.0417587,-0.465257,18,0.00564555,10,-1.94285e-05,-3.33231,0.488017,0.120897,-2.19804,0.0417587,
2,0,0,1,0,34544.1,0.0405504,0.0402363,-0.463709,18,0.00550195,10,-1.8658e-05,-3.33375,0.394755,0.14946,-2.69235,0.04023635,
2,0,0,1,0,34544.4,0.0390526,0.0386947,-0.459215,18,0.00535919,10,-1.77692e-05,-3.33798,0.353484,0.16691,-2.98337,0.0386947,
2,0,0,1,0,34544.7,0.0375541,0.0372565,-0.454076,18,0.00521775,10,-1.69173e-05,-3.34287,0.43518,0.135576,-2.41052,0.0372565,
2,0,0,1,0,34545,0.0360559,0.0357009,-0.451463,18,0.00507761,10,-1.61176e-05,-3.34538,0.460204,0.128204,-2.26491,0.0357009,
2,0,0,1,0,34545.3,0.0345572,0.0342445,-0.448019,18,0.00493814,10,-1.53422e-05,-3.3487,0.465475,0.126752,-2.21706,0.0342445,
2,0,0,1,0,34545.6,0.0330594,0.0327188,-0.446705,18,0.00479965,10,-1.46157e-05,-3.34998,0.386105,0.152808,-2.65074,0.0327188,
2,0,0,1,0,34545.9,0.0315615,0.0312019,-0.442298,18,0.00466218,10,-1.38005e-05,-3.35429,0.471963,0.12501,-2.156,0.0312019,
2,0,0,0,0,34546.2,0.0300631,0.0297234,-0.438044,18,0.00452605,10,-1.30202e-05,-3.35848,0.462588,0.127543,-2.18445,0.0297234,
2,0,0,0,0,34546.5,0.0285649,0.0282632,-0.436036,18,0.00439068,10,-1.23238e-05,-3.36048,0.500078,0.117982,-2.00359,0.0282632,
2,0,0,0,0,34546.8,0.0270667,0.0267172,-0.432615,18,0.00425602,10,-1.15582e-05,-3.3639,0.561856,0.105009,-1.77099,0.02671716,
2,0,0,1,0,34547.1,0.0255683,0.0252663,-0.430768,18,0.00412231,10,-1.08839e-05,-3.36576,0.443348,0.133078,-2.23566,0.0252663,
2,0,0,1,0,34547.4,0.0240706,0.0237619,-0.426194,18,0.0039897,10,-1.01272e-05,-3.37039,0.535031,0.110274,-1.84085,0.02376187,
2,0,0,1,0,34547.7,0.0225722,0.0222136,-0.424072,18,0.00385765,10,-9.42017e-06,-3.37256,0.992847,0.059425,-0.983772,0.0222136,
2,0,0,1,0,34548,0.021074,0.0207439,-0.422644,18,0.00372629,10,-8.76728e-06,-3.37403,0.575942,0.102441,-1.69004,0.0207439,
2,0,0,1,0,34548.3,0.0195758,0.0192466,-0.420078,18,0.00359552,10,-8.08507e-06,-3.37667,0.657523,0.0897307,-1.47422,0.0192466,
2,0,0,1,0,34548.6,0.0180774,0.0177882,-0.415976,18,0.00346558,10,-7.39946e-06,-3.38093,0.642899,0.0917717,-1.49855,0.0177882,
2,0,0,1,0,34548.9,0.0165795,0.016251,-0.417323,18,0.00333627,10,-6.78194e-06,-3.37953,1.05233,0.0560659,-0.912445,0.016251,
2,0,0,1,0,34549.2,0.0150817,0.0147659,-0.416552,18,0.00320724,10,-6.15075e-06,-3.38033,1.56599,0.0376758,-0.610358,0.0147659,
2,0,0,0,0,34549.5,0.013583,0.0132585,-0.413551,18,0.00307836,10,-5.48306e-06,-3.38347,0.991245,0.0595211,-0.96061,0.0132585,
2,0,0,0,0,34549.8,0.0120848,0.0117739,-0.412896,18,0.00295012,10,-4.8614e-06,-3.38416,1.21892,0.0484033,-0.781852,0.0117739,
2,0,0,1,0,34550.1,0.0105863,0.0102625,-0.41228,18,0.00282224,10,-4.23104e-06,-3.38481,1.66817,0.0353681,-0.569957,0.0102625,
2,0,0,1,0,34550.4,0.00908846,0.00875688,-0.41073,18,0.00269449,10,-3.59671e-06,-3.38644,4.27209,0.0138106,-0.22174,0.00875688,
2,0,0,1,0,34550.7,0.0075906,0.00726869,-0.411073,18,0.00256679,10,-2.98796e-06,-3.38608,2.68475,0.021976,-0.352724,0.00726869,
2,0,0,1,0,34551,0.00609207,0.00576141,-0.412149,18,0.0024392,10,-2.37456e-06,-3.38495,3.88891,0.0151714,-0.243679,0.00576141,
2,0,0,1,0,34551.3,0.00459389,0.00427366,-0.411815,18,0.00231183,10,-1.75996e-06,-3.3853,-30.2184,-0.00195245,0.0313074,0.00427366,
2,0,0,1,0,34551.6,0.00309525,0.00281103,-0.41154,18,0.00218411,10,-1.15685e-06,-3.38559,-1.30143,-0.0453346,0.728648,0.00281103,
2,0,0,1,0,34551.9,0.00159739,0.00121541,-0.415959,18,0.00205462,10,-5.05562e-07,-3.38095, , , ,0.001215414,
2,0,0,0,0,34552.2,0.000199195,-0.000159264,-0.4126,18,0.00193463,10,6.57123e-08,-3.38447, , , ,-0.000159264,