File: Figure_codes/Fig_3-5/rawdata_trumpetplot_data/after 10th/20221101_1-115_003_TrumpetPlot_ParaChange_from10_every3_02_CV_C01_34.csv
mode,ox/red,error,control changes,counter inc.,time/s,control/V,Ewe/V,<I>/mA,cycle number,(Q-Qo)/C,I Range,P/W,log(|I|),Tafel slope mV/dec,alpha_eff,dI/d(E-IR),E-IR/V,
2,0,0,1,0,67324.5,2.44065e-05,-0.000363498,-0.398965,35,0.0000000E+000,10,1.45023e-07,-3.39907, , , ,-0.000363498,
2,0,0,1,0,67325.7,0.00129791,0.000917488,-0.183733,35,-0.000276748,10,-1.68573e-07,-3.73581, , , ,0.000917488,
2,0,0,1,0,67327.2,0.00279612,0.00246148,-0.14784,35,-0.000506548,10,-3.63905e-07,-3.83021,-0.018123,-3.25553,20.3406,0.00246148,
2,0,0,1,0,67328.7,0.00429431,0.00398953,-0.127111,35,-0.000698084,10,-5.07112e-07,-3.89582,-0.0250887,-2.35165,11.8157,0.003989527,
2,0,0,1,0,67330.2,0.00579242,0.00544857,-0.111717,35,-0.000862943,10,-6.08698e-07,-3.95188,-0.0282242,-2.09041,9.28956,0.00544857,
2,0,0,1,0,67331.7,0.00729061,0.00699251,-0.099477,35,-0.00100657,10,-6.95594e-07,-4.00228,-0.0302251,-1.95202,7.64825,0.00699251,
2,0,0,1,0,67333.2,0.00878882,0.00849299,-0.089529,35,-0.00113432,10,-7.60368e-07,-4.04804,-0.0344279,-1.71373,6.03746,0.00849299,
2,0,0,1,0,67334.7,0.010287,0.00998923,-0.0812733,35,-0.00124788,10,-8.11858e-07,-4.09005,-0.051474,-1.14621,3.80492,0.00998923,
2,0,0,1,0,67336.2,0.0117852,0.0114834,-0.0742827,35,-0.00135039,10,-8.53018e-07,-4.12911,-0.038379,-1.5373,4.45224,0.0114834,
2,0,0,1,0,67337.7,0.0132834,0.0129468,-0.0679763,35,-0.00144642,10,-8.80074e-07,-4.16764,-0.0391169,-1.5083,3.98962,0.0129468,
2,0,0,1,0,67339.2,0.0147815,0.0144461,-0.0624856,35,-0.00153054,10,-9.02674e-07,-4.20422,-0.0393378,-1.49983,3.70266,0.0144461,
2,0,0,1,0,67340.7,0.0162797,0.0159254,-0.0575098,35,-0.00160666,10,-9.15865e-07,-4.24026,-0.0444806,-1.32642,2.98876,0.0159254,
2,0,0,1,0,67342.2,0.0177779,0.0174163,-0.0529127,35,-0.00167615,10,-9.21543e-07,-4.27644,-0.0413199,-1.42788,2.95523,0.0174163,
2,0,0,1,0,67343.7,0.0192761,0.0189167,-0.0486359,35,-0.0017394,10,-9.20034e-07,-4.31304,-0.0378257,-1.55978,2.97249,0.01891675,
2,0,0,1,0,67345.2,0.0207743,0.0204364,-0.0441536,35,-0.00179594,10,-9.02338e-07,-4.35503,-0.0391683,-1.50632,2.62613,0.0204364,
2,0,0,1,0,67346.7,0.0222725,0.0219814,-0.0407926,35,-0.00184647,10,-8.96676e-07,-4.38942,-0.0382426,-1.54278,2.45855,0.0219814,
2,0,0,1,0,67348.2,0.0237707,0.023466,-0.0377101,35,-0.00189189,10,-8.84904e-07,-4.42354,-0.0399378,-1.4773,2.1409,0.023466,
2,0,0,1,0,67349.7,0.0252689,0.0249622,-0.0342021,35,-0.00193237,10,-8.53759e-07,-4.46595,-0.0372899,-1.5822,2.09852,0.0249622,
2,0,0,1,0,67351.2,0.0267671,0.0264499,-0.0310437,35,-0.0019678,10,-8.21103e-07,-4.50803,-0.0354346,-1.66504,2.01629,0.0264499,
2,0,0,1,0,67352.7,0.0282653,0.0279271,-0.0283975,35,-0.00199878,10,-7.9306e-07,-4.54672,-0.0350468,-1.68347,1.82948,0.0279271,
2,0,0,1,0,67354.2,0.0297635,0.0294626,-0.025267,35,-0.0020255,10,-7.44431e-07,-4.59745,-0.0322812,-1.82769,1.79607,0.0294626,
2,0,0,1,0,67355.7,0.0312617,0.0309154,-0.0228754,35,-0.00204808,10,-7.07201e-07,-4.64063,-0.0277815,-2.12371,1.86939,0.0309154,
2,0,0,1,0,67357.2,0.0327599,0.0324826,-0.0197528,35,-0.00206682,10,-6.41624e-07,-4.70437,-0.0296772,-1.98806,1.53646,0.0324826,
2,0,0,1,0,67358.7,0.0342581,0.033928,-0.0174979,35,-0.00208126,10,-5.93669e-07,-4.75701,-0.0228338,-2.58389,1.74697,0.033928,
2,0,0,1,0,67360.2,0.0357563,0.0354603,-0.0146788,35,-0.00209218,10,-5.20516e-07,-4.83331,-0.0220282,-2.67838,1.54875,0.0354603,
2,0,0,1,0,67361.7,0.0372544,0.0369044,-0.0126381,35,-0.00209892,10,-4.66403e-07,-4.89832,-0.0162407,-3.63284,1.72991,0.0369044,
2,0,0,1,0,67363.2,0.0387526,0.0384102,-0.0105142,35,-0.00210256,10,-4.03852e-07,-4.97822,-0.0133849,-4.40796,1.63853,0.0384102,
2,0,0,1,0,67364.7,0.0402508,0.0399309,-0.00772617,35,-0.00210229,10,-3.08513e-07,-5.11204,-0.0113813,-5.18396,1.50123,0.03993091,
2,0,0,1,0,67366.2,0.041749,0.0414186,-0.00603368,35,-0.00209826,10,-2.49907e-07,-5.21942,-0.00985183,-5.98873,1.31651,0.0414186,
2,0,0,1,0,67367.7,0.0432472,0.0429509,-0.00315049,35,-0.00209133,10,-1.35317e-07,-5.50162,-0.00344288,-17.1368,1.45348,0.0429509,
2,0,0,1,0,67369.2,0.0447454,0.0444355,-0.00119128,35,-0.00208133,10,-5.2935e-08,-5.92399,-0.0118305,-4.98712,1.54097,0.0444355,
2,0,0,1,0,67370.7,0.0462435,0.0459444,0.00119501,35,-0.00206749,10,5.49038e-08,-5.92263,0.02295,2.5708,1.5104,0.0459444,
2,0,0,1,0,67372.2,0.0477417,0.0474014,0.00297911,35,-0.0020504,10,1.41214e-07,-5.52591,0.00180202,32.741,1.44021,0.0474014,
2,0,0,1,0,67373.7,0.0492399,0.0489496,0.00511214,35,-0.00202996,10,2.50237e-07,-5.2914,0.00761316,7.74974,1.42576,0.04894961,
2,1,0,1,0,67375.2,0.0507381,0.0504299,0.00708328,35,-0.00200692,10,3.57209e-07,-5.14977,0.0129899,4.542,1.26933,0.0504299,
2,0,0,1,0,67376.7,0.0522363,0.0518965,0.00879614,35,-0.00198041,10,4.56489e-07,-5.05571,0.0131902,4.473,1.53545,0.0518965,
2,1,0,1,0,67378.2,0.0537345,0.0534139,0.0114449,35,-0.00195046,10,6.11318e-07,-4.94139,0.0195943,3.01109,1.29735,0.0534139,
2,1,0,1,0,67379.7,0.0552327,0.0549579,0.0133451,35,-0.00191785,10,7.33418e-07,-4.87468,0.0307998,1.91559,0.954212,0.0549579,
2,1,0,1,0,67381.2,0.0567309,0.0563789,0.0138289,35,-0.00188258,10,7.7966e-07,-4.85921,0.0280486,2.10349,1.16443,0.0563789,
2,1,0,1,0,67382.7,0.0582291,0.0578942,0.0162094,35,-0.00184535,10,9.38428e-07,-4.79023,0.0338231,1.74437,1.08421,0.0578942,
2,1,0,1,0,67384.2,0.0597273,0.0594064,0.018466,35,-0.00180509,10,1.097e-06,-4.73363,0.0370049,1.59438,1.12184,0.0594064,
2,1,0,1,0,67385.7,0.0612255,0.0608983,0.0200491,35,-0.00176204,10,1.22096e-06,-4.6979,0.054153,1.08951,0.820117,0.0608983,
2,1,0,1,0,67387.2,0.0627237,0.0624285,0.0215844,35,-0.00171647,10,1.34748e-06,-4.66586,0.0479216,1.23118,1.02675,0.0624285,
2,1,0,1,0,67388.7,0.0642219,0.0638972,0.0227006,35,-0.00166898,10,1.45051e-06,-4.64396,0.0475769,1.2401,1.12945,0.0638972,
2,1,0,1,0,67390.2,0.0657201,0.0654178,0.0246342,35,-0.0016188,10,1.61152e-06,-4.60846,0.0529116,1.11507,1.07128,0.0654178,
2,1,0,1,0,67391.7,0.0672183,0.0668897,0.0266246,35,-0.0015656,10,1.78091e-06,-4.57472,0.059064,0.998917,1.01619,0.0668897,
2,1,0,1,0,67393.2,0.0687164,0.0684356,0.0285614,35,-0.0015103,10,1.95462e-06,-4.54422,0.0585836,1.00711,1.10272,0.0684356,
2,1,0,1,0,67394.7,0.0702146,0.0699075,0.0300607,35,-0.00145273,10,2.10147e-06,-4.522,0.0640221,0.921557,1.04675,0.0699075,
2,1,0,1,0,67396.2,0.0717128,0.07139,0.0313639,35,-0.00139256,10,2.23907e-06,-4.50357,0.0709618,0.831433,1.00083,0.07139,
2,1,0,1,0,67397.6,0.073211,0.0728703,0.0323396,35,-0.0013304,10,2.35659e-06,-4.49027,0.0816559,0.722544,0.915652,0.0728703,
2,1,0,1,0,67399.1,0.0747092,0.0743909,0.0340706,35,-0.00126603,10,2.53455e-06,-4.46762,0.0799987,0.737512,0.97889,0.0743909,
2,1,0,1,0,67400.6,0.0762074,0.0758522,0.0350608,35,-0.00119999,10,2.65944e-06,-4.45518,0.0839402,0.702881,0.976034,0.0758522,
2,1,0,1,0,67402.1,0.0777055,0.077413,0.0364391,35,-0.00113189,10,2.82086e-06,-4.43843,0.0799648,0.737825,1.04734,0.077413,
2,1,0,1,0,67403.6,0.0792037,0.0788848,0.0384599,35,-0.00106116,10,3.0339e-06,-4.41499,0.0855484,0.689668,1.02074,0.0788848,
2,1,0,1,0,67405.1,0.0807019,0.0803715,0.0393264,35,-0.000988581,10,3.16072e-06,-4.40532,0.0950136,0.620964,0.950324,0.0803715,
2,1,0,1,0,67406.6,0.0822001,0.0818296,0.040313,35,-0.000913739,10,3.2988e-06,-4.39455,0.0781275,0.755175,1.20664,0.0818296,
2,1,0,1,0,67408.1,0.0836983,0.0833365,0.0428338,35,-0.000836705,10,3.56962e-06,-4.36821,0.0783063,0.753451,1.25873,0.0833365,
2,1,0,1,0,67409.6,0.0851965,0.0848581,0.0444117,35,-0.000756568,10,3.76869e-06,-4.3525,0.083525,0.706375,1.22501,0.0848581,
2,1,0,1,0,67411.1,0.0866947,0.0863332,0.0458148,35,-0.000674032,10,3.95534e-06,-4.33899,0.113385,0.52035,0.92827,0.0863332,
2,1,0,1,0,67412.6,0.0881929,0.0878835,0.0472282,35,-0.000589267,10,4.15058e-06,-4.3258,0.0877037,0.67272,1.24386,0.0878835,
2,1,0,1,0,67414.1,0.0896911,0.089383,0.0493479,35,-0.000502498,10,4.41086e-06,-4.30673,0.0865976,0.681312,1.31902,0.089383,
2,1,0,1,0,67415.6,0.0911893,0.0908834,0.0508834,35,-0.000412623,10,4.62446e-06,-4.29342,0.109844,0.537127,1.06343,0.0908834,
2,1,0,1,0,67417.1,0.0926875,0.092421,0.0526446,35,-0.000319392,10,4.86547e-06,-4.27865,0.113197,0.521214,1.06993,0.09242104,
2,1,0,1,0,67418.6,0.0941857,0.0938791,0.0542222,35,-0.000224125,10,5.09033e-06,-4.26582,0.117316,0.502914,1.07343,0.0938791,
2,1,0,1,0,67420.1,0.0956839,0.0953722,0.056921,35,-0.000126476,10,5.42868e-06,-4.24473,0.095402,0.618436,1.36538,0.0953722,
2,1,0,1,0,67421.6,0.0971821,0.0968175,0.0587645,35,-2.51276e-05,10,5.68943e-06,-4.23089,0.086094,0.685297,1.55467,0.0968175,
2,1,0,1,0,67423.1,0.0986803,0.098372,0.0603119,35,7.90795e-05,10,5.933e-06,-4.2196,0.105488,0.559304,1.32369,0.09837202,
2,1,0,1,0,67424.6,0.100178,0.099846,0.0623188,35,0.000186188,10,6.22228e-06,-4.20538,0.12435,0.474468,1.15604,0.099846,
2,1,0,1,0,67426.1,0.101677,0.101356,0.0639395,35,0.000296148,10,6.48065e-06,-4.19423,0.112415,0.524839,1.31964,0.101356,
2,1,0,1,0,67427.6,0.103175,0.10286,0.0664223,35,0.000408938,10,6.83218e-06,-4.17769,0.107933,0.546636,1.41229,0.10286,
2,1,0,1,0,67429.1,0.104673,0.104336,0.0688955,35,0.000525196,10,7.18827e-06,-4.16181,0.122766,0.480589,1.27478,0.104336,
2,1,0,1,0,67430.6,0.106171,0.105838,0.0702516,35,0.000644432,10,7.43532e-06,-4.15334,0.156417,0.377196,1.03186,0.105838,
2,1,0,1,0,67432.1,0.107669,0.107377,0.0717426,35,0.000766179,10,7.7035e-06,-4.14422,0.137045,0.430514,1.20658,0.107377,
2,1,0,1,0,67433.6,0.109167,0.108893,0.0735293,35,0.000890127,10,8.00685e-06,-4.13354,0.158734,0.371691,1.07421,0.108893,
2,1,0,1,0,67435.1,0.110666,0.11034,0.0753761,35,0.00101703,10,8.31698e-06,-4.12277,0.158092,0.373202,1.09874,0.1103397,
2,1,0,1,0,67436.6,0.112164,0.111866,0.0768566,35,0.00114657,10,8.59761e-06,-4.11432,0.185923,0.317336,0.952762,0.111866,
2,1,0,1,0,67438.1,0.113662,0.113333,0.0790139,35,0.00127888,10,8.95491e-06,-4.1023,0.173956,0.339166,1.04839,0.113333,
2,1,0,1,0,67439.6,0.11516,0.11484,0.0805366,35,0.00141304,10,9.24884e-06,-4.09401,0.194932,0.30267,0.947648,0.11484,
2,1,0,1,0,67441.1,0.116658,0.116362,0.0823858,35,0.00155023,10,9.58656e-06,-4.08415,0.182543,0.323211,1.02975,0.116362,
2,1,0,1,0,67442.6,0.118157,0.117844,0.0833299,35,0.00168944,10,9.81995e-06,-4.0792,0.226003,0.261058,0.846032,0.1178442,
2,1,0,1,0,67444.1,0.119655,0.119371,0.0846135,35,0.00183049,10,1.01004e-05,-4.07256,0.265468,0.222249,0.733285,0.119371,
2,1,0,1,0,67445.6,0.121153,0.120864,0.0854425,35,0.00197272,10,1.03269e-05,-4.06833,0.233575,0.252595,0.848405,0.120864,
2,1,0,1,0,67447.1,0.122651,0.122267,0.0872963,35,0.00211739,10,1.06735e-05,-4.059,0.179291,0.329074,1.11164,0.122267,
2,1,0,1,0,67448.6,0.124149,0.123868,0.0883862,35,0.00226438,10,1.09483e-05,-4.05362,0.305517,0.193115,0.665531,0.123868,
2,1,0,1,0,67450.1,0.125648,0.125303,0.0893715,35,0.00241261,10,1.11985e-05,-4.0488,0.329972,0.178803,0.625075,0.125303,
2,1,0,1,0,67451.6,0.127146,0.126833,0.0896288,35,0.00256193,10,1.13679e-05,-4.04755,0.423293,0.139383,0.488909,0.126833,
2,1,0,1,0,67453.1,0.128644,0.128299,0.090797,35,0.00271292,10,1.16492e-05,-4.04193,0.720266,0.0819142,0.288788,0.128299,
2,1,0,1,0,67454.6,0.130142,0.129791,0.091512,35,0.00286455,10,1.18774e-05,-4.03852,-1.15957,-0.0508811,-0.179615,0.1297908,
2,1,0,1,0,67456.1,0.13164,0.131331,0.0903552,35,0.00301578,10,1.18664e-05,-4.04405,-0.259247,-0.227582,-0.793849,0.131331,
2,1,0,1,0,67457.6,0.133139,0.132831,0.0886604,35,0.00316514,10,1.17769e-05,-4.05227,-0.177876,-0.331691,-1.14999,0.132831,
2,1,0,1,0,67459.1,0.134637,0.134307,0.0870222,35,0.00331179,10,1.16877e-05,-4.06037,-0.161568,-0.365171,-1.24518,0.134307,
2,1,0,1,0,67460.6,0.136135,0.135806,0.0852999,35,0.00345587,10,1.15843e-05,-4.06905,-0.113877,-0.518104,-1.71169,0.135806,
2,1,0,1,0,67462.1,0.137633,0.137343,0.0826168,35,0.00359661,10,1.13468e-05,-4.08293,-0.0931009,-0.633721,-2.02471,0.137343,
2,1,0,1,0,67463.6,0.139131,0.138822,0.0792194,35,0.0037327,10,1.09974e-05,-4.10117,-0.0842975,-0.699902,-2.16439,0.1388223,
2,1,0,1,0,67465.1,0.14063,0.140315,0.0762289,35,0.00386369,10,1.06961e-05,-4.11788,-0.0813119,-0.725601,-2.15142,0.140315,
2,1,0,1,0,67466.6,0.142128,0.141814,0.0731558,35,0.00399035,10,1.03745e-05,-4.13575,-0.0782618,-0.75388,-2.13787,0.141814,
2,1,0,1,0,67468.1,0.143626,0.143306,0.0696895,35,0.00411217,10,9.98689e-06,-4.15683,-0.0726512,-0.8121,-2.2148,0.143306,
2,1,0,1,0,67469.6,0.145124,0.144823,0.0662164,35,0.00422848,10,9.58967e-06,-4.17903,-0.0685181,-0.861086,-2.25109,0.144823,
2,1,0,1,0,67471.1,0.146622,0.146314,0.0632427,35,0.00433976,10,9.2533e-06,-4.19899,-0.0762626,-0.773643,-1.9166,0.146314,
2,1,0,1,0,67472.6,0.14812,0.147803,0.0604793,35,0.00444659,10,8.93901e-06,-4.21839,-0.0952482,-0.619434,-1.46362,0.147803,
2,1,0,1,0,67474.1,0.149619,0.149291,0.0576905,35,0.00454931,10,8.61265e-06,-4.2389,-0.0953112,-0.619025,-1.41309,0.149291,
2,1,0,1,0,67475.6,0.151117,0.150791,0.0560634,35,0.00464889,10,8.45386e-06,-4.25132,-0.111214,-0.530508,-1.1636,0.150791,
2,1,0,1,0,67477.1,0.152615,0.152289,0.0539936,35,0.00474557,10,8.22266e-06,-4.26766,-0.142732,-0.413361,-0.885776,0.152289,
2,1,0,1,0,67478.6,0.154113,0.153753,0.0534638,35,0.00483988,10,8.22021e-06,-4.27194,-0.196216,-0.300689,-0.629611,0.1537528,
2,1,0,1,0,67480.1,0.155611,0.155295,0.0531754,35,0.00493336,10,8.25786e-06,-4.27429,-0.304077,-0.19403,-0.401652,0.155295,
2,1,0,1,0,67481.5,0.15711,0.15675,0.0517678,35,0.00502569,10,8.11458e-06,-4.28594,-0.26555,-0.222181,-0.452808,0.1567495,
2,1,0,1,0,67483,0.158608,0.158289,0.0517137,35,0.00511703,10,8.18573e-06,-4.28639,-0.360345,-0.163732,-0.330337,0.158289,
2,1,0,1,0,67484.5,0.160106,0.159754,0.0511013,35,0.00520727,10,8.16362e-06,-4.29157,-0.358981,-0.164354,-0.329281,0.1597537,
2,1,0,1,0,67486,0.161604,0.161264,0.050473,35,0.00529719,10,8.13946e-06,-4.29694,-0.372939,-0.158203,-0.313018,0.1612637,
2,1,0,1,0,67487.5,0.163102,0.162773,0.0503836,35,0.00538633,10,8.20107e-06,-4.29771,-0.510845,-0.115495,-0.227642,0.1627726,
2,1,0,1,0,67489,0.164601,0.164261,0.0499449,35,0.00547496,10,8.20402e-06,-4.30151,-0.793162,-0.0743858,-0.145318,0.164261,
2,1,0,1,0,67490.5,0.166099,0.165768,0.0500984,35,0.00556312,10,8.30473e-06,-4.30018,7.65145,0.00771095,0.0150155,0.165768,
2,1,0,1,0,67492,0.167597,0.167267,0.0499576,35,0.00565122,10,8.35623e-06,-4.3014,1.22115,0.048315,0.0945617,0.167267,
2,1,0,1,0,67493.5,0.169095,0.168798,0.0500128,35,0.00573962,10,8.44205e-06,-4.30092,1.24548,0.0473712,0.0925191,0.168798,
2,1,0,1,0,67495,0.170593,0.170222,0.0499627,35,0.00582803,10,8.50475e-06,-4.30135,1.37274,0.0429797,0.084792,0.170222,
2,1,0,1,0,67496.5,0.172091,0.171775,0.050399,35,0.00591634,10,8.6573e-06,-4.29758,1.03258,0.0571382,0.11195,0.171775,
2,1,0,1,0,67498,0.17359,0.173272,0.0513041,35,0.00600551,10,8.88955e-06,-4.28985,0.544573,0.108342,0.212824,0.173272,
2,1,0,1,0,67499.5,0.175088,0.174786,0.0506815,35,0.00609453,10,8.85842e-06,-4.29515,1.0036,0.0587884,0.1163,0.174786,
2,1,0,1,0,67501,0.176586,0.176296,0.0510563,35,0.00618389,10,9.00102e-06,-4.29195,2.05357,0.0287304,0.056887,0.176296,
2,1,0,1,0,67502.5,0.178084,0.177737,0.050586,35,0.00627304,10,8.99101e-06,-4.29597,-1.88125,-0.031362,-0.0622783,0.177737,
2,1,0,1,0,67504,0.179582,0.179237,0.0510322,35,0.00636234,10,9.14688e-06,-4.29216,9.32267,0.00632866,0.0126106,0.1792375,
2,1,0,1,0,67505.5,0.181081,0.180759,0.051449,35,0.00645184,10,9.29989e-06,-4.28862,-26.4075,-0.00223421,-0.00445207,0.180759,
2,1,0,1,0,67507,0.182579,0.182272,0.0510569,35,0.00654122,10,9.30627e-06,-4.29195,-1.01034,-0.0583964,-0.116288,0.182272,
2,1,0,1,0,67508.5,0.184077,0.183741,0.0513452,35,0.0066308,10,9.43423e-06,-4.2895,64.9655,0.000908174,0.0018137,0.183741,
2,1,0,1,0,67510,0.185575,0.185283,0.0513852,35,0.00672027,10,9.52079e-06,-4.28916,0.509907,0.115707,0.233141,0.185283,
2,1,0,1,0,67511.5,0.187073,0.186803,0.0518902,35,0.0068103,10,9.69322e-06,-4.28491,0.760316,0.0775994,0.155427,0.186803,
2,1,0,1,0,67513,0.188572,0.188283,0.0518411,35,0.00690108,10,9.76079e-06,-4.28533,0.587364,0.100449,0.202834,0.188283,
2,1,0,1,0,67514.5,0.19007,0.189776,0.0521994,35,0.00699193,10,9.90619e-06,-4.28233,1.2977,0.045465,0.092644,0.189776,
2,1,0,1,0,67516,0.191568,0.191213,0.0520863,35,0.00708279,10,9.95957e-06,-4.28328,13.9687,0.00422372,0.00862799,0.1912128,
2,1,0,1,0,67517.5,0.193066,0.192754,0.0524767,35,0.00717402,10,1.01151e-05,-4.28003,0.7508,0.0785828,0.160585,0.192754,
2,1,0,1,0,67519,0.194564,0.194233,0.0527913,35,0.00726542,10,1.02538e-05,-4.27744,53.4314,0.00110422,0.00226548,0.194233,
2,1,0,1,0,67520.5,0.196063,0.195751,0.0523144,35,0.00735683,10,1.02406e-05,-4.28138,2.28663,0.0258022,0.0530972,0.195751,
2,1,0,1,0,67522,0.197561,0.197245,0.0525322,35,0.00744823,10,1.03617e-05,-4.27957,0.842859,0.0699999,0.143705,0.197245,
2,1,0,1,0,67523.5,0.199059,0.198755,0.0530404,35,0.00753996,10,1.05421e-05,-4.27539,2.98087,0.0197929,0.0407024,0.1987554,
2,1,0,1,0,67525,0.200557,0.200221,0.0530286,35,0.00763185,10,1.06174e-05,-4.27549,1.75243,0.0336676,0.0697669,0.200221,
2,1,0,1,0,67526.5,0.202055,0.201734,0.0530206,35,0.00772371,10,1.06961e-05,-4.27556,0.794349,0.0742747,0.15475,0.2017341,
2,1,0,1,0,67528,0.203554,0.203222,0.0532139,35,0.00781604,10,1.08142e-05,-4.27397,0.399731,0.147599,0.305948,0.203222,
2,1,0,1,0,67529.5,0.205052,0.204725,0.053302,35,0.00790849,10,1.09123e-05,-4.27326,3.93196,0.0150052,0.0315793,0.204725,
2,1,0,1,0,67531,0.20655,0.206267,0.0539434,35,0.00800155,10,1.11268e-05,-4.26806,1.1834,0.0498562,0.104294,0.206267,
2,1,0,1,0,67532.5,0.208048,0.207708,0.053528,35,0.00809476,10,1.11182e-05,-4.27142,-1.30215,-0.0453098,-0.0950689,0.207708,
2,1,0,1,0,67534,0.209546,0.209239,0.0539798,35,0.0081878,10,1.12947e-05,-4.26777,0.637823,0.0925022,0.1946,0.209239,
2,1,0,1,0,67535.5,0.211044,0.210727,0.0540662,35,0.00828072,10,1.13932e-05,-4.26707,2.77304,0.0212763,0.0446519,0.210727,
2,1,0,1,0,67537,0.212543,0.212235,0.0541409,35,0.00837426,10,1.14906e-05,-4.26647,0.781408,0.0755047,0.158418,0.212235,
2,1,0,1,0,67538.5,0.214041,0.213703,0.0543627,35,0.00846801,10,1.16175e-05,-4.2647,6.08026,0.00970354,0.0205733,0.213703,
2,1,0,1,0,67540,0.215539,0.215234,0.0544443,35,0.0085619,10,1.17183e-05,-4.26405,1.24687,0.0473185,0.100746,0.215234,
2,1,0,1,0,67541.5,0.217037,0.216713,0.0545575,35,0.00865594,10,1.18233e-05,-4.26315,0.831614,0.0709464,0.151824,0.216713,
2,1,0,1,0,67543,0.218535,0.218234,0.0548648,35,0.00875043,10,1.19734e-05,-4.26071,0.967483,0.060983,0.131077,0.218234,
2,1,0,1,0,67544.5,0.220034,0.219695,0.055134,35,0.0088453,10,1.21127e-05,-4.25858,0.750891,0.0785733,0.16962,0.219695,
2,1,0,1,0,67546,0.221532,0.221243,0.0557522,35,0.0089406,10,1.23348e-05,-4.25374,1.42244,0.041478,0.090003,0.221243,
2,1,0,1,0,67547.5,0.22303,0.222762,0.0555207,35,0.00903625,10,1.23679e-05,-4.25555,0.927248,0.0636291,0.138019,0.222762,
2,1,0,1,0,67549,0.224528,0.22422,0.0558604,35,0.00913194,10,1.2525e-05,-4.2529,0.666155,0.088568,0.193426,0.22422,
2,1,0,1,0,67550.5,0.226026,0.2257,0.0560933,35,0.00922803,10,1.26603e-05,-4.25109,0.515074,0.114547,0.250851,0.2257,
2,1,0,1,0,67552,0.227524,0.227234,0.0561849,35,0.00932446,10,1.27671e-05,-4.25038,1.64427,0.0358822,0.0788397,0.227234,
2,1,0,1,0,67553.5,0.229023,0.22875,0.0563831,35,0.00942105,10,1.28976e-05,-4.24885,2.87206,0.0205427,0.045411,0.22875,
2,1,0,1,0,67555,0.230521,0.230214,0.0567627,35,0.00951792,10,1.30676e-05,-4.24594,0.692597,0.0851866,0.1892,0.230214,
2,1,0,1,0,67556.5,0.232019,0.2317,0.0570253,35,0.00961538,10,1.32128e-05,-4.24393,0.498333,0.118395,0.263762,0.2317,
2,1,0,1,0,67558,0.233517,0.233248,0.0573815,35,0.0097134,10,1.33841e-05,-4.24123,0.692855,0.0851549,0.190513,0.233248,
2,1,0,1,0,67559.5,0.235015,0.234708,0.0579118,35,0.00981188,10,1.35924e-05,-4.23723,0.825252,0.0714933,0.160756,0.234708,
2,1,0,1,0,67561,0.236514,0.236239,0.0583233,35,0.00991086,10,1.37782e-05,-4.23416,-1.72841,-0.0341354,-0.0770076,0.236239,
2,1,0,1,0,67562.5,0.238012,0.237696,0.0582931,35,0.0100098,10,1.3856e-05,-4.23438,-19.5896,-0.0030118,-0.00680649,0.237696,
2,1,0,1,0,67563.9,0.23951,0.239158,0.0583349,35,0.0101087,10,1.39513e-05,-4.23407,4.33364,0.0136144,0.0307361,0.239158,
2,1,0,1,0,67565.4,0.241008,0.240716,0.0582509,35,0.0102079,10,1.40219e-05,-4.2347,0.883351,0.0667911,0.152901,0.240716,
2,1,0,1,0,67566.9,0.242506,0.242209,0.0581562,35,0.0103072,10,1.40859e-05,-4.2354,0.818725,0.0720633,0.164946,0.242209,
2,1,0,1,0,67568.4,0.244005,0.243704,0.0587507,35,0.0104071,10,1.43178e-05,-4.23099,0.570166,0.103479,0.23694,0.243704,
2,1,0,1,0,67569.9,0.245503,0.245179,0.0585759,35,0.0105072,10,1.43616e-05,-4.23228,0.613541,0.0961632,0.222408,0.245179,
2,1,0,1,0,67571.4,0.247001,0.246704,0.0592395,35,0.0106077,10,1.46146e-05,-4.22739,0.75717,0.0779217,0.179542,0.246704,
2,1,0,1,0,67572.9,0.248499,0.248181,0.0592044,35,0.0107086,10,1.46934e-05,-4.22765,0.520652,0.113319,0.263563,0.248181,
2,1,0,1,0,67574.4,0.249997,0.24972,0.0593749,35,0.0108096,10,1.48271e-05,-4.2264,1.01145,0.0583324,0.135926,0.24972,
2,1,0,1,0,67575.9,0.251496,0.251211,0.060071,35,0.0109112,10,1.50905e-05,-4.22134,0.901513,0.0654455,0.153265,0.251211,
2,1,0,1,0,67577.4,0.252994,0.25268,0.060108,35,0.0110132,10,1.51881e-05,-4.22107,1.66958,0.0353382,0.0831305,0.2526803,
2,1,0,1,0,67578.9,0.254492,0.254206,0.0603178,35,0.0111152,10,1.53331e-05,-4.21955,-13.4157,-0.00439782,-0.0103881,0.254206,
2,1,0,1,0,67580.4,0.25599,0.255708,0.0607984,35,0.0112174,10,1.55466e-05,-4.21611,2.03354,0.0290135,0.0684167,0.255708,
2,1,0,1,0,67581.9,0.257488,0.257211,0.0606654,35,0.0113198,10,1.56038e-05,-4.21706,2.04408,0.0288639,0.0682151,0.257211,
2,1,0,1,0,67583.4,0.258987,0.258676,0.0606559,35,0.0114224,10,1.56902e-05,-4.21713,2.99414,0.0197052,0.0466385,0.258676,
2,1,0,1,0,67584.9,0.260485,0.260231,0.0606699,35,0.0115252,10,1.57882e-05,-4.21703,1.04833,0.05628,0.134126,0.260231,
2,1,0,1,0,67586.4,0.261983,0.261663,0.0611687,35,0.011628,10,1.60056e-05,-4.21347,0.657309,0.08976,0.21429,0.2616629,
2,1,0,1,0,67587.9,0.263481,0.263161,0.0615353,35,0.0117315,10,1.61937e-05,-4.21088,0.45001,0.131108,0.31323,0.263161,
2,1,0,1,0,67589.4,0.264979,0.264703,0.0614618,35,0.0118355,10,1.62691e-05,-4.21139,2.67825,0.0220293,0.0529895,0.264703,
2,1,0,1,0,67590.9,0.266477,0.26614,0.0620457,35,0.0119396,10,1.65128e-05,-4.20729,-3.98175,-0.0148176,-0.0356408,0.26614,
2,1,0,1,0,67592.4,0.267976,0.267654,0.0617226,35,0.0120436,10,1.65203e-05,-4.20956,5.30337,0.011125,0.0268472,0.267654,
2,1,0,1,0,67593.9,0.269474,0.269171,0.0618557,35,0.0121477,10,1.66497e-05,-4.20862,1.45575,0.0405289,0.0978831,0.269171,
2,1,0,1,0,67595.4,0.270972,0.270657,0.0621084,35,0.0122521,10,1.68101e-05,-4.20685,1.29025,0.0457275,0.110719,0.270657,
2,1,0,1,0,67596.9,0.27247,0.272159,0.0619639,35,0.0123566,10,1.6864e-05,-4.20786,1.90174,0.0310242,0.0752257,0.272159,
2,1,0,1,0,67598.4,0.273968,0.273619,0.0622317,35,0.0124612,10,1.70278e-05,-4.20599,0.494768,0.119248,0.291444,0.273619,
2,1,0,1,0,67599.9,0.275467,0.275128,0.0628249,35,0.0125663,10,1.72849e-05,-4.20187,0.460636,0.128084,0.313185,0.275128,
2,1,0,1,0,67601.4,0.276965,0.276671,0.0629081,35,0.0126719,10,1.74049e-05,-4.20129,0.745454,0.0791464,0.195106,0.2766709,
2,1,0,1,0,67602.9,0.278463,0.278168,0.0634569,35,0.0127778,10,1.76517e-05,-4.19752,-12.0034,-0.00491527,-0.0121147,0.278168,
2,1,0,1,0,67604.4,0.279961,0.279666,0.0630217,35,0.012884,10,1.7625e-05,-4.20051,1.60572,0.0367437,0.0910794,0.2796655,
2,1,0,1,0,67605.9,0.281459,0.281148,0.0633846,35,0.0129901,10,1.78205e-05,-4.19802,0.998581,0.0590838,0.146772,0.281148,
2,1,0,1,0,67607.4,0.282958,0.282693,0.0634783,35,0.0130967,10,1.79449e-05,-4.19737,0.988657,0.0596769,0.148433,0.282693,
2,1,0,1,0,67608.9,0.284456,0.284167,0.0641441,35,0.0132035,10,1.82276e-05,-4.19284,1521.6,3.87749e-05,9.68394e-05,0.284167,
2,1,0,1,0,67610.4,0.285954,0.285632,0.0639586,35,0.0133104,10,1.82686e-05,-4.1941,0.784108,0.0752447,0.187876,0.285632,
2,1,0,1,0,67611.9,0.287452,0.287164,0.0645061,35,0.0134174,10,1.85238e-05,-4.1904,0.806777,0.0731305,0.183407,0.287164,
2,1,0,1,0,67613.4,0.28895,0.288657,0.0646948,35,0.013525,10,1.86746e-05,-4.18913,0.513292,0.114944,0.289433,0.288657,
2,1,0,1,0,67614.9,0.290449,0.290122,0.0646027,35,0.0136331,10,1.87427e-05,-4.18975,3.04744,0.0193605,0.0488549,0.290122,
2,1,0,1,0,67616.4,0.291947,0.291654,0.0649386,35,0.0137413,10,1.89396e-05,-4.1875,2.29444,0.0257144,0.0650699,0.291654,
2,1,0,1,0,67617.9,0.293445,0.293136,0.0649509,35,0.0138491,10,1.90394e-05,-4.18741,-6.77147,-0.00871302,-0.0220847,0.293136,
2,1,0,1,0,67619.4,0.294943,0.294623,0.0651522,35,0.0139574,10,1.91953e-05,-4.18607,0.447365,0.131883,0.334659,0.294623,
2,1,0,1,0,67620.9,0.296441,0.296131,0.0654563,35,0.0140662,10,1.93837e-05,-4.18405,0.665835,0.0886105,0.225223,0.296131,
2,1,0,1,0,67622.4,0.297939,0.297625,0.065512,35,0.0141754,10,1.9498e-05,-4.18368,2.91424,0.0202454,0.0514936,0.297625,
2,1,0,1,0,67623.9,0.299438,0.299166,0.0650331,35,0.0142842,10,1.94557e-05,-4.18687,-0.0042579,-13.8566,-22.8358,0.299166,
2,1,0,1,0,67624.7,0.299737,0.299485,0.0329497,35,0.0143337,10,9.86791e-06,-4.48215,0.0020956,28.1542,39.9567,0.299485,
2,1,0,1,0,67626.2,0.298239,0.297897,0.0192384,35,0.0143586,10,5.73108e-06,-4.71583,0.00532014,11.0899,13.9483,0.297897,
2,1,0,1,0,67627.7,0.296741,0.296399,0.0145653,35,0.0143725,10,4.31713e-06,-4.83668,0.0115222,5.12053,2.98599,0.296399,
2,1,0,1,0,67629.2,0.295243,0.294936,0.0112159,35,0.0143802,10,3.30798e-06,-4.95017,0.0148171,3.98188,1.76598,0.294936,
2,1,0,1,0,67630.7,0.293745,0.293418,0.00814375,35,0.0143838,10,2.38952e-06,-5.08918,0.0118102,4.99569,1.61103,0.2934179,
2,0,0,1,0,67632.2,0.292246,0.291918,0.0061158,35,0.0143841,10,1.78531e-06,-5.21355,0.00994814,5.93076,1.41478,0.291918,
2,1,0,1,0,67633.7,0.290748,0.290423,0.00404229,35,0.014381,10,1.17398e-06,-5.39337,0.00630328,9.36021,1.39085,0.290423,
2,0,0,1,0,67635.2,0.28925,0.288956,0.00261277,35,0.014375,10,7.54974e-07,-5.5829,0.00491231,12.0106,1.05722,0.288956,
2,1,0,1,0,67636.7,0.287752,0.287465,0.000995007,35,0.0143664,10,2.8603e-07,-6.00217,0.00609273,9.68368,0.956205,0.287465,
2,0,0,1,0,67638.2,0.286254,0.285945,-0.000482016,35,0.0143563,10,-1.3783e-07,-6.31694,-0.0172732,-3.4157,0.827449,0.285945,
2,0,0,1,0,67639.7,0.284755,0.284423,-0.00135763,35,0.0143439,10,-3.86142e-07,-5.86722,-0.00404491,-14.5862,0.810955,0.284423,
2,0,0,1,0,67641.2,0.283257,0.282972,-0.00310064,35,0.0143293,10,-8.77394e-07,-5.50855,-0.00620048,-9.5154,0.872464,0.282972,
2,1,0,1,0,67642.7,0.281759,0.281464,-0.00374715,35,0.0143133,10,-1.05469e-06,-5.4263,-0.0126287,-4.6719,0.712189,0.281464,
2,1,0,1,0,67644.2,0.280261,0.279943,-0.00489578,35,0.0142955,10,-1.37054e-06,-5.31018,-0.0126263,-4.67278,0.891192,0.279943,
2,1,0,1,0,67645.7,0.278763,0.27847,-0.00645124,35,0.014276,10,-1.79648e-06,-5.19036,-0.0191478,-3.0813,0.732836,0.27847,
2,0,0,1,0,67647.2,0.277264,0.277011,-0.00741841,35,0.0142543,10,-2.05498e-06,-5.12969,-0.0210223,-2.80655,0.776968,0.277011,
2,0,0,1,0,67648.7,0.275766,0.27543,-0.00823904,35,0.0142314,10,-2.26928e-06,-5.08412,-0.0343632,-1.71695,0.560813,0.27543,
2,0,0,1,0,67650.2,0.274268,0.273956,-0.00933975,35,0.0142069,10,-2.55868e-06,-5.02966,-0.0330003,-1.78786,0.634854,0.2739563,
2,0,0,1,0,67651.7,0.27277,0.272482,-0.0100842,35,0.0141811,10,-2.74776e-06,-4.99636,-0.0337603,-1.74761,0.693423,0.272482,
2,0,0,1,0,67653.2,0.271272,0.270963,-0.011326,35,0.0141538,10,-3.06892e-06,-4.94592,-0.0652961,-0.903576,0.394196,0.270963,
2,0,0,1,0,67654.7,0.269774,0.269435,-0.0119519,35,0.0141251,10,-3.22025e-06,-4.92256,-0.0634682,-0.9296,0.430769,0.269435,
2,0,0,1,0,67656.2,0.268275,0.267991,-0.0126093,35,0.0140955,10,-3.37918e-06,-4.89931,-0.0618091,-0.954552,0.480151,0.267991,
2,0,0,1,0,67657.7,0.266777,0.266439,-0.0134362,35,0.0140647,10,-3.57993e-06,-4.87172,-0.0558849,-1.05574,0.549839,0.266439,
2,0,0,1,0,67659.2,0.265279,0.264934,-0.0145204,35,0.0140324,10,-3.84694e-06,-4.83802,-0.0741187,-0.79602,0.444924,0.2649343,
2,0,0,1,0,67660.7,0.263781,0.263502,-0.0153366,35,0.0139989,10,-4.04121e-06,-4.81427,-0.0563849,-1.04638,0.613577,0.263502,
2,0,0,1,0,67662.2,0.262283,0.261928,-0.0157305,35,0.0139641,10,-4.12027e-06,-4.80326,-0.066163,-0.891737,0.551862,0.261928,
2,0,0,1,0,67663.7,0.260784,0.260483,-0.0167793,35,0.0139283,10,-4.37071e-06,-4.77523,-0.0772674,-0.763582,0.504768,0.260483,
2,0,0,1,0,67665.2,0.259286,0.258986,-0.0175466,35,0.0138911,10,-4.54433e-06,-4.75581,-0.0744999,-0.791947,0.532078,0.258986,
2,0,0,1,0,67666.7,0.257788,0.257475,-0.0183693,35,0.0138529,10,-4.72963e-06,-4.73591,-0.112359,-0.525104,0.373718,0.257475,
2,0,0,1,0,67668.2,0.25629,0.255935,-0.0187813,35,0.0138136,10,-4.80678e-06,-4.72627,-0.13057,-0.451867,0.326438,0.255935,
2,0,0,1,0,67669.7,0.254792,0.254491,-0.0192408,35,0.0137735,10,-4.89661e-06,-4.71578,-0.111559,-0.528868,0.395909,0.254491,
2,0,0,1,0,67671.2,0.253293,0.252991,-0.0196275,35,0.0137329,10,-4.96559e-06,-4.70713,-0.0862791,-0.683828,0.535694,0.252991,
2,0,0,1,0,67672.7,0.251795,0.251461,-0.0205491,35,0.0136911,10,-5.16729e-06,-4.68721,-0.116442,-0.506689,0.410142,0.251461,
2,0,0,1,0,67674.2,0.250297,0.250001,-0.0209279,35,0.013648,10,-5.23199e-06,-4.67927,-0.15913,-0.370765,0.304938,0.2500006,
2,0,0,1,0,67675.7,0.248799,0.248525,-0.0215498,35,0.0136044,10,-5.35566e-06,-4.66656,-0.11539,-0.511307,0.437552,0.248525,
2,0,0,1,0,67677.2,0.247301,0.246984,-0.0221771,35,0.0135601,10,-5.47739e-06,-4.65409,-0.128998,-0.457371,0.39804,0.246984,
2,0,0,1,0,67678.7,0.245802,0.245496,-0.0228894,35,0.0135146,10,-5.61925e-06,-4.64037,-0.132442,-0.445476,0.399358,0.245496,
2,0,0,1,0,67680.2,0.244304,0.243997,-0.0233798,35,0.0134682,10,-5.70459e-06,-4.63116,-0.120529,-0.48951,0.446707,0.243997,
2,0,0,1,0,67681.7,0.242806,0.242524,-0.0241575,35,0.0134208,10,-5.85877e-06,-4.61695,-0.120325,-0.490339,0.464411,0.242524,
2,0,0,1,0,67683.2,0.241308,0.241019,-0.024896,35,0.0133725,10,-6.00042e-06,-4.60387,-0.123672,-0.47707,0.455122,0.241019,
2,0,0,1,0,67684.7,0.23981,0.239506,-0.0247988,35,0.0133234,10,-5.93946e-06,-4.60557,-0.15972,-0.369397,0.36158,0.239506,
2,0,0,1,0,67686.2,0.238312,0.237971,-0.0257323,35,0.0132735,10,-6.12356e-06,-4.58952,-0.147449,-0.400138,0.40091,0.237971,
2,0,0,1,0,67687.6,0.236813,0.236455,-0.025972,35,0.0132229,10,-6.14121e-06,-4.58549,-0.177005,-0.333325,0.343914,0.236455,
2,0,0,1,0,67689.1,0.235315,0.23499,-0.026693,35,0.0131714,10,-6.27257e-06,-4.5736,-0.130541,-0.451966,0.471,0.23499,
2,0,0,1,0,67690.6,0.233817,0.233521,-0.0276022,35,0.0131187,10,-6.44569e-06,-4.55906,-0.138488,-0.42603,0.45837,0.233521,
2,0,0,1,0,67692.1,0.232319,0.231967,-0.0282454,35,0.0130651,10,-6.552e-06,-4.54905,-0.201082,-0.293413,0.322917,0.231967,
2,0,0,1,0,67693.6,0.230821,0.230509,-0.0290011,35,0.0130101,10,-6.68502e-06,-4.53759,-0.153145,-0.385257,0.435442,0.230509,
2,0,0,1,0,67695.1,0.229322,0.228978,-0.0292823,35,0.0129544,10,-6.70501e-06,-4.53339,-0.23896,-0.246903,0.282661,0.228978,
2,0,0,1,0,67696.6,0.227824,0.227515,-0.0297624,35,0.0128981,10,-6.77138e-06,-4.52633,-0.160693,-0.36716,0.429151,0.227515,
2,0,0,1,0,67698.1,0.226326,0.226025,-0.0305405,35,0.012841,10,-6.9029e-06,-4.51512,-0.149719,-0.394071,0.469343,0.226025,
2,0,0,1,0,67699.6,0.224828,0.224492,-0.0308877,35,0.0127826,10,-6.93407e-06,-4.51021,-0.182122,-0.323959,0.390462,0.224492,
2,0,0,1,0,67701.1,0.22333,0.223013,-0.0316712,35,0.0127234,10,-7.0631e-06,-4.49934,-0.207099,-0.284887,0.349719,0.223013,
2,0,0,1,0,67702.6,0.221831,0.221541,-0.0322251,35,0.0126635,10,-7.13918e-06,-4.49181,-0.253399,-0.232835,0.292157,0.221541,
2,0,0,1,0,67704.1,0.220333,0.220038,-0.0326197,35,0.0126026,10,-7.17757e-06,-4.48652,-0.238519,-0.24736,0.315089,0.220038,
2,0,0,1,0,67705.6,0.218835,0.218519,-0.0336389,35,0.0125409,10,-7.35076e-06,-4.47316,-0.169253,-0.348591,0.454138,0.218519,
2,0,0,1,0,67707.1,0.217337,0.217036,-0.0339196,35,0.0124786,10,-7.36177e-06,-4.46955,-0.1827,-0.322934,0.424114,0.217036,
2,0,0,1,0,67708.6,0.215839,0.21556,-0.0343863,35,0.0124154,10,-7.41229e-06,-4.46361,-0.247355,-0.238524,0.319128,0.21556,
2,0,0,1,0,67710.1,0.21434,0.214005,-0.0349086,35,0.0123513,10,-7.47061e-06,-4.45707,-0.158617,-0.371964,0.505453,0.214005,
2,0,0,1,0,67711.6,0.212842,0.212545,-0.0352484,35,0.0122864,10,-7.49188e-06,-4.45286,-0.176201,-0.334846,0.466667,0.212545,
2,0,0,1,0,67713.1,0.211344,0.211017,-0.0360987,35,0.0122205,10,-7.61744e-06,-4.44251,-0.220335,-0.267774,0.376806,0.211017,
2,0,0,1,0,67714.6,0.209846,0.209558,-0.0364186,35,0.0121535,10,-7.63181e-06,-4.43868,-0.304571,-0.193715,0.275063,0.209558,
2,0,0,1,0,67716.1,0.208348,0.208005,-0.0366694,35,0.0120861,10,-7.62744e-06,-4.4357,-0.322378,-0.183015,0.264543,0.208005,
2,0,0,1,0,67717.6,0.20685,0.206544,-0.038224,35,0.0120176,10,-7.89495e-06,-4.41766,-0.251855,-0.234262,0.341537,0.206544,
2,0,0,1,0,67719.1,0.205351,0.205009,-0.0382945,35,0.0119482,10,-7.8507e-06,-4.41686,-0.43473,-0.135716,0.200396,0.205009,
2,0,0,1,0,67720.6,0.203853,0.203488,-0.0382865,35,0.0118783,10,-7.79085e-06,-4.41695,-0.22635,-0.260658,0.3904,0.203488,
2,0,0,1,0,67722.1,0.202355,0.202038,-0.038989,35,0.0118076,10,-7.87728e-06,-4.40906,-0.221362,-0.266532,0.407636,0.202038,
2,0,0,1,0,67723.6,0.200857,0.200517,-0.0396588,35,0.0117359,10,-7.95225e-06,-4.40166,-0.386882,-0.152501,0.237016,0.200517,
2,0,0,1,0,67725.1,0.199359,0.199039,-0.0402915,35,0.0116633,10,-8.01956e-06,-4.39479,-0.291202,-0.202609,0.318728,0.199039,
2,0,0,1,0,67726.6,0.19786,0.19753,-0.0406356,35,0.01159,10,-8.02672e-06,-4.39109,-0.205997,-0.286411,0.453524,0.19753,
2,0,0,1,0,67728.1,0.196362,0.196014,-0.0414219,35,0.011516,10,-8.11928e-06,-4.38277,-0.343486,-0.171768,0.27496,0.196014,
2,0,0,1,0,67729.6,0.194864,0.194509,-0.0417442,35,0.0114409,10,-8.11964e-06,-4.3794,-0.216977,-0.271918,0.444339,0.194509,
2,0,0,1,0,67731.1,0.193366,0.19306,-0.0425155,35,0.0113648,10,-8.20804e-06,-4.37145,-0.202039,-0.292023,0.485271,0.19306,
2,0,0,1,0,67732.6,0.191868,0.191578,-0.0435016,35,0.0112877,10,-8.33397e-06,-4.36149,-0.221694,-0.266133,0.449551,0.191578,
2,0,0,1,0,67734.1,0.190369,0.190059,-0.0439951,35,0.0112096,10,-8.36166e-06,-4.3566,-0.224149,-0.263218,0.453322,0.190059,
2,0,0,1,0,67735.6,0.188871,0.188516,-0.0442851,35,0.0111305,10,-8.34846e-06,-4.35374,-0.189668,-0.31107,0.538181,0.188516,
2,0,0,1,0,67737.1,0.187373,0.187047,-0.0448757,35,0.0110504,10,-8.39389e-06,-4.34799,-0.188503,-0.312993,0.553323,0.187047,
2,0,0,1,0,67738.6,0.185875,0.185534,-0.0454296,35,0.0109692,10,-8.42874e-06,-4.34266,-0.209313,-0.281875,0.499983,0.185534,
2,0,0,1,0,67740.1,0.184377,0.184076,-0.0462247,35,0.0108873,10,-8.50888e-06,-4.33513,-0.314635,-0.187519,0.339668,0.1840762,
2,0,0,1,0,67741.6,0.182878,0.182567,-0.0468703,35,0.0108043,10,-8.55698e-06,-4.3291,-0.22012,-0.268036,0.488594,0.182567,
2,0,0,1,0,67743.1,0.18138,0.181111,-0.0476463,35,0.0107203,10,-8.62929e-06,-4.32197,-0.297533,-0.198297,0.368559,0.181111,
2,0,0,1,0,67744.6,0.179882,0.179557,-0.0481402,35,0.0106353,10,-8.64389e-06,-4.31749,-0.294596,-0.200274,0.377882,0.1795567,
2,0,0,1,0,67746.1,0.178384,0.178054,-0.0486,35,0.0105496,10,-8.65344e-06,-4.31336,-0.197802,-0.298279,0.569384,0.178054,
2,0,0,1,0,67747.6,0.176886,0.176544,-0.0498976,35,0.0104627,10,-8.80912e-06,-4.30192,-0.184926,-0.319046,0.616995,0.176544,
2,0,0,1,0,67749.1,0.175388,0.175043,-0.050723,35,0.010374,10,-8.87869e-06,-4.29479,-0.206737,-0.285386,0.563443,0.175043,
2,0,0,1,0,67750.6,0.173889,0.173541,-0.051553,35,0.0102841,10,-8.94657e-06,-4.28775,-0.207418,-0.284449,0.57041,0.173541,
2,0,0,1,0,67752.1,0.172391,0.172029,-0.0520643,35,0.0101929,10,-8.95656e-06,-4.28346,-0.331919,-0.177754,0.361013,0.172029,
2,0,0,1,0,67753.6,0.170893,0.170592,-0.0530626,35,0.0101008,10,-9.05206e-06,-4.27521,-0.230028,-0.25649,0.528782,0.170592,
2,0,0,1,0,67755.1,0.169395,0.169059,-0.0533671,35,0.0100075,10,-9.02216e-06,-4.27273,-0.169224,-0.348649,0.732922,0.169059,
2,0,0,1,0,67756.6,0.167897,0.16756,-0.0545065,35,0.00991258,10,-9.13313e-06,-4.26355,-0.197857,-0.298195,0.635071,0.16756,
2,0,0,1,0,67758.1,0.166398,0.166087,-0.0556133,35,0.00981596,10,-9.23667e-06,-4.25482,-0.218257,-0.270323,0.59192,0.1660874,
2,0,0,1,0,67759.6,0.1649,0.164619,-0.0563748,35,0.00971828,10,-9.28035e-06,-4.24892,-0.193906,-0.304271,0.672572,0.164619,
2,0,0,1,0,67761.1,0.163402,0.163057,-0.0579552,35,0.00961864,10,-9.44999e-06,-4.23691,-0.15469,-0.381408,0.860215,0.163057,
2,0,0,1,0,67762.6,0.161904,0.161575,-0.059365,35,0.00951737,10,-9.59193e-06,-4.22647,-0.198456,-0.297295,0.685389,0.161575,
2,0,0,1,0,67764.1,0.160406,0.160103,-0.0602061,35,0.00941405,10,-9.63921e-06,-4.22036,-0.193278,-0.305259,0.714751,0.160103,
2,0,0,1,0,67765.6,0.158907,0.158568,-0.0607556,35,0.0093096,10,-9.63389e-06,-4.21641,-0.160279,-0.368109,0.882746,0.158568,
2,0,0,1,0,67767.1,0.157409,0.157111,-0.0624782,35,0.00920321,10,-9.81601e-06,-4.20427,-0.13389,-0.440659,1.07066,0.157111,
2,0,0,1,0,67768.6,0.155911,0.155565,-0.0641805,35,0.00909416,10,-9.98425e-06,-4.1926,-0.142763,-0.413272,1.03198,0.155565,
2,0,0,1,0,67770.1,0.154413,0.154113,-0.0656029,35,0.00898276,10,-1.01103e-05,-4.18308,-0.150729,-0.391431,0.997458,0.154113,
2,0,0,1,0,67771.5,0.152915,0.15257,-0.0670778,35,0.00886898,10,-1.02341e-05,-4.17342,-0.133662,-0.441413,1.15637,0.15257,
2,0,0,1,0,67773,0.151416,0.151113,-0.0690913,35,0.00875275,10,-1.04406e-05,-4.16058,-0.138927,-0.424684,1.14277,0.151113,
2,0,0,1,0,67774.5,0.149918,0.149607,-0.0710484,35,0.00863355,10,-1.06293e-05,-4.14845,-0.113177,-0.521309,1.44296,0.149607,
2,0,0,1,0,67776,0.14842,0.148094,-0.0727123,35,0.00851138,10,-1.07683e-05,-4.13839,-0.108981,-0.54138,1.54059,0.148094,
2,0,0,1,0,67777.5,0.146922,0.14659,-0.075562,35,0.00838564,10,-1.10766e-05,-4.1217,-0.100491,-0.587119,1.72471,0.14659,
2,0,0,1,0,67779,0.145424,0.145106,-0.0775938,35,0.00825633,10,-1.12593e-05,-4.11017,-0.10474,-0.5633,1.71529,0.145106,
2,0,0,1,0,67780.5,0.143926,0.143616,-0.0802385,35,0.0081227,10,-1.15236e-05,-4.09562,-0.0846899,-0.696659,2.20116,0.143616,
2,0,0,1,0,67782,0.142427,0.142088,-0.0836364,35,0.00798453,10,-1.18838e-05,-4.0776,-0.0890807,-0.662321,2.173,0.142088,
2,0,0,1,0,67783.5,0.140929,0.140603,-0.0869078,35,0.00784171,10,-1.22195e-05,-4.06094,-0.0846961,-0.696608,2.37999,0.140603,
2,0,0,1,0,67785,0.139431,0.139114,-0.0904619,35,0.00769339,10,-1.25845e-05,-4.04353,-0.0792873,-0.744129,2.63424,0.139114,
2,0,0,1,0,67786.5,0.137933,0.137595,-0.0947845,35,0.00753911,10,-1.30419e-05,-4.02326,-0.0812856,-0.725836,2.68068,0.1375954,
2,0,0,1,0,67788,0.136435,0.13614,-0.0989312,35,0.00737833,10,-1.34685e-05,-4.00467,-0.0815129,-0.723811,2.78483,0.13614,
2,0,0,1,0,67789.5,0.134936,0.134564,-0.103198,35,0.00721144,10,-1.38867e-05,-3.98633,-0.091538,-0.644541,2.58861,0.134564,
2,0,0,1,0,67791,0.133438,0.133125,-0.106532,35,0.00703843,10,-1.41821e-05,-3.97252,-0.0887361,-0.664893,2.77744,0.133125,
2,0,0,1,0,67792.5,0.13194,0.131604,-0.110843,35,0.00685957,10,-1.45874e-05,-3.95529,-0.0968375,-0.609268,2.64514,0.131604,
2,0,0,1,0,67794,0.130442,0.130118,-0.115076,35,0.00667443,10,-1.49735e-05,-3.93902,-0.103979,-0.56742,2.54354,0.1301184,
2,0,0,1,0,67795.5,0.128944,0.128673,-0.118685,35,0.00648345,10,-1.52716e-05,-3.9256,-0.118837,-0.496479,2.2917,0.128673,
2,0,0,1,0,67797,0.127445,0.127068,-0.12214,35,0.00628722,10,-1.55201e-05,-3.91314,-0.141711,-0.416341,1.97526,0.127068,
2,0,0,1,0,67798.5,0.125947,0.125617,-0.124999,35,0.0060867,10,-1.5702e-05,-3.90309,-0.180187,-0.327438,1.59068,0.125617,
2,0,0,1,0,67800,0.124449,0.12412,-0.127311,35,0.00588208,10,-1.58019e-05,-3.89513,-0.168308,-0.350549,1.73598,0.12412,
2,0,0,1,0,67801.5,0.122951,0.122638,-0.129566,35,0.00567387,10,-1.58897e-05,-3.88751,-0.237284,-0.248647,1.24918,0.122638,
2,0,0,1,0,67803,0.121453,0.121134,-0.131058,35,0.00546262,10,-1.58755e-05,-3.88254,-0.38038,-0.155108,0.792446,0.121134,
2,0,0,1,0,67804.5,0.119955,0.119628,-0.132256,35,0.00525002,10,-1.58215e-05,-3.87859,-0.358478,-0.164585,0.855885,0.119628,
2,0,0,1,0,67806,0.118456,0.118157,-0.13518,35,0.00503507,10,-1.59725e-05,-3.86909,-0.392847,-0.150186,0.777546,0.118157,
2,0,0,1,0,67807.5,0.116958,0.116638,-0.134098,35,0.00481758,10,-1.56408e-05,-3.87258,-0.688002,-0.0857555,0.447394,0.116638,
2,0,0,1,0,67809,0.11546,0.115094,-0.134537,35,0.00460067,10,-1.54843e-05,-3.87116,-2.08712,-0.0282687,0.148502,0.115094,
2,0,0,1,0,67810.5,0.113962,0.113627,-0.134161,35,0.004384,10,-1.52443e-05,-3.87237,-3.09398,-0.0190693,0.0999521,0.113627,
2,0,0,1,0,67812,0.112464,0.112164,-0.135085,35,0.00416649,10,-1.51517e-05,-3.86939,-0.70486,-0.0837046,0.438865,0.112164,
2,0,0,1,0,67813.5,0.110965,0.110658,-0.135054,35,0.00394876,10,-1.49448e-05,-3.86949,-1.33076,-0.0443354,0.233228,0.110658,
2,0,0,1,0,67815,0.109467,0.109134,-0.135215,35,0.0037305,10,-1.47566e-05,-3.86898,69.4628,0.000849376,-0.0044743,0.1091341,
2,0,0,1,0,67816.5,0.107969,0.107627,-0.135328,35,0.00351195,10,-1.4565e-05,-3.86861,3.4104,0.0173,-0.0913735,0.107627,
2,0,0,1,0,67818,0.106471,0.106183,-0.134971,35,0.00329368,10,-1.43316e-05,-3.86976,-3.77409,-0.0156329,0.0828458,0.106183,
2,0,0,1,0,67819.5,0.104973,0.104648,-0.134902,35,0.00307554,10,-1.41171e-05,-3.86998,4.82173,0.0122363,-0.0646179,0.104648,
2,0,0,1,0,67821,0.103474,0.103141,-0.135171,35,0.00285678,10,-1.39416e-05,-3.86912,-30.1076,-0.00195964,0.0103481,0.103141,
2,0,0,1,0,67822.5,0.101976,0.101627,-0.135358,35,0.00263842,10,-1.37561e-05,-3.86852,1.43056,0.0412425,-0.216966,0.1016274,
2,0,0,1,0,67824,0.100478,0.100138,-0.135454,35,0.0024203,10,-1.3564e-05,-3.86821,0.747376,0.0789429,-0.414264,0.100138,
2,0,0,1,0,67825.5,0.0989798,0.0986275,-0.13449,35,0.00220274,10,-1.32644e-05,-3.87131,-11.8117,-0.00499505,0.0263229,0.0986275,
2,0,0,1,0,67827,0.0974816,0.0971578,-0.133963,35,0.00198587,10,-1.30156e-05,-3.87301,0.967142,0.0610045,-0.319263,0.0971578,
2,0,0,1,0,67828.5,0.0959834,0.0956636,-0.13403,35,0.00176738,10,-1.28218e-05,-3.8728,0.94382,0.0625119,-0.325919,0.0956636,
2,0,0,1,0,67830,0.0944852,0.0941802,-0.132349,35,0.00155223,10,-1.24647e-05,-3.87828,0.348383,0.169354,-0.886912,0.0941802,
2,0,0,1,0,67831.5,0.0929871,0.0926162,-0.132699,35,0.00133735,10,-1.229e-05,-3.87713,0.945163,0.0624231,-0.322181,0.0926162,
2,0,0,1,0,67833,0.0914889,0.0910966,-0.132346,35,0.00112282,10,-1.20563e-05,-3.87829,0.551228,0.107034,-0.55155,0.0910966,
2,0,0,1,0,67834.5,0.0899907,0.0896725,-0.131143,35,0.000910153,10,-1.17599e-05,-3.88225,0.482236,0.122347,-0.626719,0.0896725,
2,0,0,1,0,67836,0.0884925,0.0881476,-0.129774,35,0.000698665,10,-1.14392e-05,-3.88681,1.02741,0.0574262,-0.292008,0.0881476,
2,0,0,1,0,67837.5,0.0869943,0.0867054,-0.129476,35,0.000488373,10,-1.12263e-05,-3.88781,0.518075,0.113883,-0.576463,0.0867054,
2,0,0,1,0,67839,0.0854961,0.0851774,-0.128841,35,0.000278756,10,-1.09743e-05,-3.88995,0.436925,0.135035,-0.679866,0.0851774,
2,0,0,1,0,67840.5,0.083998,0.0836663,-0.128239,35,7.04625e-05,10,-1.07293e-05,-3.89198,0.399397,0.147723,-0.739124,0.0836663,
2,0,0,1,0,67842,0.0824998,0.0822051,-0.127158,35,-0.000136607,10,-1.0453e-05,-3.89566,0.405586,0.145469,-0.724818,0.0822051,
2,0,0,1,0,67843.5,0.0810016,0.0806569,-0.126532,35,-0.000342019,10,-1.02057e-05,-3.8978,0.51849,0.113792,-0.563644,0.0806569,
2,0,0,1,0,67845,0.0795034,0.0791585,-0.126015,35,-0.000546974,10,-9.97514e-06,-3.89958,0.626842,0.0941226,-0.463166,0.0791585,
2,0,0,1,0,67846.5,0.0780052,0.0776814,-0.125521,35,-0.000750802,10,-9.75064e-06,-3.90128,0.574204,0.102751,-0.502626,0.0776814,
2,0,0,1,0,67848,0.076507,0.0761597,-0.124832,35,-0.000953793,10,-9.50713e-06,-3.90368,-0.163611,-0.360612,1.81552,0.0761597,
2,0,0,1,0,67849.5,0.0750088,0.0747133,-0.130082,35,-0.00115676,10,-9.71882e-06,-3.88578,5.13594,0.0114877,-0.0558524,0.0747133,
2,0,0,1,0,67851,0.0735106,0.0731927,-0.125227,35,-0.00136602,10,-9.1657e-06,-3.9023,0.820028,0.0719488,-0.346167,0.0731927,
2,0,0,1,0,67852.5,0.0720124,0.0717187,-0.122862,35,-0.00156798,10,-8.81152e-06,-3.91058,0.299614,0.19692,-0.955678,0.0717187,
2,0,0,1,0,67853.9,0.0705142,0.0701747,-0.122262,35,-0.00176775,10,-8.57973e-06,-3.91271,0.419437,0.140665,-0.673394,0.0701747,
2,0,0,1,0,67855.4,0.069016,0.0686976,-0.12131,35,-0.0019661,10,-8.33372e-06,-3.9161,0.684936,0.0861394,-0.408771,0.0686976,
2,0,0,1,0,67856.9,0.0675178,0.0671928,-0.121077,35,-0.00216365,10,-8.13551e-06,-3.91694,1.00745,0.0585635,-0.275832,0.0671928,
2,0,0,1,0,67858.4,0.0660196,0.0657591,-0.121157,35,-0.00236031,10,-7.96715e-06,-3.91665,0.517838,0.113935,-0.534285,0.0657591,
2,0,0,1,0,67859.9,0.0645214,0.0642565,-0.119946,35,-0.00255626,10,-7.70733e-06,-3.92101,0.632853,0.0932286,-0.434132,0.0642565,
2,0,0,1,0,67861.4,0.0630233,0.0627243,-0.118911,35,-0.00275069,10,-7.45861e-06,-3.92478,0.56224,0.104937,-0.486658,0.06272433,
2,0,0,1,0,67862.9,0.0615251,0.0611963,-0.118209,35,-0.00294427,10,-7.23395e-06,-3.92735,0.515394,0.114475,-0.527042,0.0611963,
2,0,0,1,0,67864.4,0.0600269,0.0597319,-0.117464,35,-0.00313673,10,-7.01636e-06,-3.93009,0.534125,0.110461,-0.509057,0.05973186,
2,0,0,1,0,67865.9,0.0585287,0.0582007,-0.116853,35,-0.00332806,10,-6.8009e-06,-3.93236,0.430673,0.136995,-0.623648,0.0582007,
2,0,0,1,0,67867.4,0.0570305,0.0566694,-0.116055,35,-0.00351845,10,-6.57678e-06,-3.93534,0.648361,0.0909987,-0.413256,0.0566694,
2,0,0,1,0,67868.9,0.0555323,0.0552241,-0.115699,35,-0.0037074,10,-6.38936e-06,-3.93667,0.801889,0.0735762,-0.332573,0.0552241,
2,0,0,1,0,67870.4,0.0540342,0.053712,-0.115139,35,-0.00389582,10,-6.18434e-06,-3.93878,0.595099,0.0991432,-0.44354,0.053712,
2,0,0,1,0,67871.9,0.052536,0.0521914,-0.113863,35,-0.00408338,10,-5.94266e-06,-3.94362,0.638133,0.0924572,-0.41104,0.0521914,
2,0,0,1,0,67873.4,0.0510378,0.0507121,-0.114298,35,-0.00426983,10,-5.79631e-06,-3.94196,1.06649,0.0553217,-0.244855,0.0507121,
2,0,0,1,0,67874.9,0.0495396,0.0491957,-0.113499,35,-0.00445525,10,-5.58366e-06,-3.94501,0.950348,0.0620825,-0.274193,0.0491957,
2,0,0,1,0,67876.4,0.0480414,0.0477027,-0.112769,35,-0.00464011,10,-5.37939e-06,-3.94781,1.42027,0.0415414,-0.182542,0.0477027,
2,0,0,1,0,67877.9,0.0465432,0.0461608,-0.112369,35,-0.00482491,10,-5.18705e-06,-3.94935,0.741469,0.0795718,-0.3481,0.0461608,
2,0,0,1,0,67879.4,0.045045,0.0447314,-0.111137,35,-0.00500858,10,-4.9713e-06,-3.95414,0.551687,0.106945,-0.467025,0.04473139,
2,0,0,1,0,67880.9,0.0435468,0.0432341,-0.111062,35,-0.00519094,10,-4.80166e-06,-3.95443,0.689527,0.0855659,-0.371573,0.0432341,
2,0,0,1,0,67882.4,0.0420486,0.0417495,-0.110943,35,-0.00537296,10,-4.63181e-06,-3.9549,0.581329,0.101492,-0.438961,0.0417495,
2,0,0,1,0,67883.9,0.0405504,0.0402416,-0.110926,35,-0.00555426,10,-4.46384e-06,-3.95497,0.53412,0.110462,-0.474179,0.0402416,
2,0,0,1,0,67885.4,0.0390522,0.0387061,-0.109899,35,-0.00573446,10,-4.25375e-06,-3.95901,0.615261,0.0958943,-0.40955,0.0387061,
2,0,0,1,0,67886.9,0.037554,0.037195,-0.109234,35,-0.00591402,10,-4.06295e-06,-3.96164,2.46572,0.0239281,-0.101866,0.037195,
2,0,0,1,0,67888.4,0.0360558,0.0357412,-0.108651,35,-0.00609273,10,-3.88333e-06,-3.96396,1.0167,0.0580308,-0.247512,0.0357412,
2,0,0,1,0,67889.9,0.0345576,0.0342173,-0.107885,35,-0.00627101,10,-3.69154e-06,-3.96704,0.871102,0.0677303,-0.287195,0.0342173,
2,0,0,1,0,67891.4,0.0330594,0.0327041,-0.108082,35,-0.00644849,10,-3.53473e-06,-3.96625,0.633496,0.0931339,-0.392994,0.03270413,
2,0,0,1,0,67892.9,0.0315613,0.0311709,-0.107146,35,-0.00662538,10,-3.33984e-06,-3.97002,2.52856,0.0233335,-0.0977121,0.0311709,
2,0,0,1,0,67894.4,0.0300631,0.029804,-0.107212,35,-0.00680151,10,-3.19533e-06,-3.96976,2.51143,0.0234926,-0.0984876,0.029804,
2,0,0,1,0,67895.9,0.0285649,0.0281975,-0.107462,35,-0.00697739,10,-3.03018e-06,-3.96874,32.0824,0.00183901,-0.00767626,0.0281975,
2,0,0,1,0,67897.4,0.0270667,0.0267596,-0.106881,35,-0.00715338,10,-2.86009e-06,-3.9711,1.59445,0.0370033,-0.154492,0.0267596,
2,0,0,1,0,67898.9,0.0255685,0.0252113,-0.106926,35,-0.00732864,10,-2.69576e-06,-3.97092,0.953628,0.061869,-0.258095,0.0252113,
2,0,0,1,0,67900.4,0.0240703,0.0237427,-0.10656,35,-0.00750324,10,-2.53002e-06,-3.97241,2.10841,0.0279832,-0.116821,0.0237427,
2,0,0,1,0,67901.9,0.0225722,0.0222445,-0.10629,35,-0.00767756,10,-2.36437e-06,-3.97351,-41.3645,-0.00142635,0.00591477,0.0222445,
2,0,0,1,0,67903.4,0.021074,0.0207292,-0.106348,35,-0.00785201,10,-2.20451e-06,-3.97327,0.963693,0.0612228,-0.253515,0.0207292,
2,0,0,1,0,67904.9,0.0195759,0.019183,-0.106443,35,-0.0080262,10,-2.04189e-06,-3.97288,1.34761,0.0437812,-0.181633,0.019183,
2,0,0,1,0,67906.4,0.0180776,0.0177462,-0.10548,35,-0.00819977,10,-1.87187e-06,-3.97683,1.92664,0.0306233,-0.126854,0.0177462,
2,0,0,1,0,67907.9,0.0165794,0.0162617,-0.106162,35,-0.00837361,10,-1.72637e-06,-3.97403,-5.02482,-0.0117417,0.048535,0.0162617,
2,0,0,1,0,67909.4,0.0150812,0.0147802,-0.10702,35,-0.00854774,10,-1.58178e-06,-3.97053,14.1615,0.00416622,-0.0172847,0.0147802,
2,0,0,1,0,67910.9,0.013583,0.0132543,-0.106787,35,-0.00872216,10,-1.41538e-06,-3.97148,4.49166,0.0131355,-0.0545812,0.0132543,
2,0,0,1,0,67912.4,0.0120848,0.0117135,-0.106259,35,-0.00889651,10,-1.24467e-06,-3.97363,-1.73059,-0.0340923,0.142191,0.0117135,
2,0,0,1,0,67913.9,0.0105866,0.0103063,-0.106162,35,-0.00907077,10,-1.09414e-06,-3.97403,-0.888227,-0.0664245,0.277584,0.0103063,
2,0,0,1,0,67915.4,0.00908843,0.00875807,-0.106511,35,-0.00924537,10,-9.32831e-07,-3.97261,-0.916938,-0.0643446,0.269401,0.00875807,
2,0,0,1,0,67916.9,0.00759024,0.00725766,-0.107873,35,-0.00942118,10,-7.82902e-07,-3.96709,-0.680999,-0.0866375,0.363643,0.00725766,
2,0,0,1,0,67918.4,0.00609203,0.00575606,-0.108276,35,-0.00959763,10,-6.23242e-07,-3.96547,-1.40025,-0.0421352,0.177401,0.00575606,
2,0,0,1,0,67919.9,0.00459384,0.00426409,-0.109271,35,-0.00977486,10,-4.65942e-07,-3.96149,-0.808858,-0.0729424,0.30997,0.00426409,
2,0,0,1,0,67921.4,0.00309563,0.00279221,-0.109523,35,-0.00995331,10,-3.05811e-07,-3.9605,-0.516035,-0.114333,0.48934,0.00279221,
2,0,0,1,0,67922.9,0.00159744,0.00117405,-0.111273,35,-0.0101355,10,-1.30639e-07,-3.95361, , , ,0.00117405,
2,0,0,1,0,67924.3,0.000199235,-0.000206979,-0.111292,35,-0.0103046,10,2.30352e-08,-3.95353, , , ,-0.000206979,