File: Figure_codes/Fig_3-5/rawdata_trumpetplot_data/after 10th/20221101_1-115_003_TrumpetPlot_ParaChange_from10_every3_12_CV_C01_22.csv
mode,ox/red,error,control changes,counter inc.,time/s,control/V,Ewe/V,<I>/mA,cycle number,(Q-Qo)/C,I Range,P/W,log(|I|),Tafel slope mV/dec,alpha_eff,dI/d(E-IR),E-IR/V,
2,1,0,1,0,44539.4,2.44065e-05,-0.000363498,15.7785,23,0.0000000E+000,10,-5.73546e-06,-1.80193, , , ,-0.000363498,
2,1,0,1,0,44539.4,0.00200257,0.00164385,16.7408,23,5.0821e-05,10,2.75194e-05,-1.77622, , , ,0.00164385,
2,1,0,1,0,44539.4,0.004408,0.004069,17.5443,23,0.000119542,10,7.13878e-05,-1.75586, , , ,0.004069,
2,1,0,1,0,44539.4,0.0068051,0.00643689,18.1729,23,0.000191068,10,0.000116977,-1.74058,0.157204,0.375309,263.43,0.00643689,
2,1,0,1,0,44539.4,0.00920221,0.00884931,18.7656,23,0.000265032,10,0.000166063,-1.72664,0.183523,0.321486,233.887,0.00884931,
2,1,0,1,0,44539.4,0.0115993,0.011319,19.2895,23,0.000341215,10,0.000218338,-1.71468,0.204859,0.288002,215.703,0.011319,
2,1,0,1,0,44539.4,0.0140075,0.0136424,19.7834,23,0.000419418,10,0.000269892,-1.7037,0.22948,0.257103,197.663,0.0136424,
2,1,0,1,0,44539.4,0.0164046,0.0160495,20.2463,23,0.00049954,10,0.000324943,-1.69365,0.244471,0.241337,190.103,0.0160495,
2,1,0,1,0,44539.4,0.0188017,0.0184524,20.6638,23,0.000581415,10,0.000381296,-1.68479,0.267885,0.220244,177.29,0.0184524,
2,1,0,1,0,44539.4,0.0212099,0.0208701,21.1052,23,0.000665001,10,0.000440467,-1.67561,0.28931,0.203934,167.454,0.02087008,
2,1,0,1,0,44539.4,0.023607,0.0232814,21.4923,23,0.000750233,10,0.000500372,-1.66772,0.30433,0.193869,162.144,0.0232814,
2,1,0,1,0,44539.4,0.0260041,0.0256493,21.8539,23,0.00083697,10,0.000560538,-1.66047,0.331912,0.177758,151.414,0.0256493,
2,1,0,1,0,44539.4,0.0284012,0.0280236,22.2157,23,0.000925142,10,0.000622564,-1.65334,0.346885,0.170085,147.291,0.0280236,
2,1,0,1,0,44539.4,0.0308067,0.0304986,22.5631,23,0.00101476,10,0.000688142,-1.6466,0.364162,0.162016,142.487,0.0304986,
2,1,0,1,0,44539.4,0.0332038,0.0328484,22.9014,23,0.00110573,10,0.000752276,-1.64014,0.381713,0.154566,137.98,0.0328484,
2,1,0,1,0,44539.4,0.0356009,0.0353065,23.2299,23,0.00119801,10,0.000820165,-1.63395,0.397626,0.148381,134.34,0.0353065,
2,1,0,1,0,44539.5,0.0380091,0.0376563,23.5448,23,0.00129159,10,0.000886612,-1.6281,0.419414,0.140672,129.123,0.0376563,
2,1,0,1,0,44539.5,0.0404062,0.0400486,23.846,23,0.00138639,10,0.000955,-1.62258,0.428995,0.137531,127.935,0.0400486,
2,1,0,1,0,44539.5,0.0428033,0.0425109,24.1491,23,0.00148242,10,0.0010266,-1.6171,0.442889,0.133216,125.512,0.04251086,
2,1,0,1,0,44539.5,0.0452032,0.0448554,24.4515,23,0.00157965,10,0.00109678,-1.61169,0.453781,0.130019,123.991,0.0448554,
2,1,0,1,0,44539.5,0.0476058,0.0472435,24.7481,23,0.0016781,10,0.00116919,-1.60646,0.466187,0.126559,122.131,0.0472435,
2,1,0,1,0,44539.5,0.0500029,0.0496325,25.0344,23,0.0017777,10,0.00124252,-1.60146,0.477056,0.123675,120.811,0.0496325,
2,1,0,1,0,44539.5,0.0524,0.0520492,25.314,23,0.00187842,10,0.00131757,-1.59664,0.48778,0.120956,119.507,0.0520492,
2,1,0,1,0,44539.5,0.0548082,0.0545062,25.6175,23,0.0019803,10,0.00139631,-1.59146,0.491036,0.120154,120.075,0.0545062,
2,1,0,1,0,44539.5,0.0572053,0.0568242,25.8931,23,0.00208336,10,0.00147136,-1.58682,0.497652,0.118557,119.768,0.0568242,
2,1,0,1,0,44539.5,0.0596024,0.0592356,26.1874,23,0.00218756,10,0.00155123,-1.58191,0.507999,0.116142,118.665,0.0592356,
2,1,0,1,0,44539.5,0.0620051,0.0616586,26.4649,23,0.00229289,10,0.00163179,-1.57733,0.510132,0.115656,119.447,0.0616586,
2,1,0,1,0,44539.5,0.0644077,0.0640551,26.7506,23,0.00239935,10,0.00171351,-1.57267,0.515036,0.114555,119.629,0.06405513,
2,1,0,1,0,44539.5,0.0668048,0.0664379,27.0414,23,0.00250697,10,0.00179657,-1.56797,0.508835,0.115951,122.398,0.0664379,
2,1,0,1,0,44539.5,0.0692019,0.0688482,27.3374,23,0.00261577,10,0.00188213,-1.56324,0.510995,0.115461,123.179,0.06884817,
2,1,0,1,0,44539.5,0.0716074,0.0712553,27.6395,23,0.00272575,10,0.00196946,-1.55847,0.518481,0.113794,122.687,0.0712553,
2,1,0,1,0,44539.5,0.0740045,0.0736317,27.9302,23,0.00283692,10,0.00205655,-1.55393,0.518852,0.113713,123.936,0.0736317,
2,1,0,1,0,44539.5,0.0764016,0.0760335,28.2187,23,0.00294924,10,0.00214557,-1.54946,0.526801,0.111997,123.399,0.0760335,
2,1,0,1,0,44539.5,0.0788042,0.0784332,28.5253,23,0.00306275,10,0.00223733,-1.54477,0.528152,0.11171,124.376,0.0784332,
2,1,0,1,0,44539.5,0.0812069,0.0809273,28.833,23,0.0031775,10,0.00233338,-1.54011,0.525325,0.112311,126.331,0.08092726,
2,1,0,1,0,44539.5,0.083604,0.0833206,29.1353,23,0.00329346,10,0.00242757,-1.53558,0.527312,0.111888,127.207,0.0833206,
2,1,0,1,0,44539.5,0.0860011,0.0856524,29.4339,23,0.00341063,10,0.00252108,-1.53115,0.529538,0.111418,128.012,0.0856524,
2,1,0,1,0,44539.5,0.0884065,0.0880309,29.7462,23,0.00352904,10,0.00261859,-1.52657,0.526295,0.112104,130.168,0.0880309,
2,1,0,1,0,44539.5,0.0908036,0.0904688,30.0545,23,0.00364866,10,0.00271899,-1.52209,0.531012,0.111109,130.319,0.0904688,
2,1,0,1,0,44539.5,0.0932007,0.0928653,30.3777,23,0.00376956,10,0.00282103,-1.51745,0.534741,0.110334,130.771,0.0928653,
2,1,0,1,0,44539.5,0.0956034,0.0952311,30.6821,23,0.00389171,10,0.00292189,-1.51311,0.536107,0.110053,131.768,0.0952311,
2,1,0,1,0,44539.6,0.098006,0.0976318,31.0017,23,0.00401511,10,0.00302676,-1.50861,0.546644,0.107931,130.574,0.0976318,
2,1,0,1,0,44539.6,0.100403,0.100019,31.3128,23,0.00413978,10,0.00313187,-1.50428,0.535246,0.11023,134.766,0.100019,
2,1,0,1,0,44539.6,0.1028,0.102444,31.6284,23,0.00426568,10,0.00324014,-1.49992,0.536714,0.109928,135.772,0.102444,
2,1,0,1,0,44539.6,0.105208,0.104868,31.9809,23,0.00439294,10,0.00335377,-1.49511,0.543786,0.108499,135.325,0.104868,
2,1,0,1,0,44539.6,0.107606,0.107208,32.302,23,0.00452154,10,0.00346304,-1.49077,0.54213,0.10883,137.106,0.107208,
2,1,0,1,0,44539.6,0.110003,0.109631,32.6137,23,0.00465139,10,0.00357548,-1.4866,0.561456,0.105084,133.762,0.109631,
2,1,0,1,0,44539.6,0.112408,0.112025,32.942,23,0.00478252,10,0.00369032,-1.48225,0.562713,0.104849,134.816,0.112025,
2,1,0,1,0,44539.6,0.114805,0.114429,33.2597,23,0.00491497,10,0.00380587,-1.47808,0.561565,0.105063,136.387,0.114429,
2,1,0,1,0,44539.6,0.117202,0.116837,33.6,23,0.00504871,10,0.00392572,-1.47366,0.574701,0.102662,134.553,0.116837,
2,1,0,1,0,44539.6,0.119599,0.119212,33.9204,23,0.00518378,10,0.00404372,-1.46954,0.549994,0.107274,142.066,0.119212,
2,1,0,1,0,44539.6,0.122008,0.121614,34.2323,23,0.00532012,10,0.00416312,-1.46556,0.546739,0.107913,144.401,0.121614,
2,1,0,1,0,44539.6,0.124405,0.123982,34.6169,23,0.00545784,10,0.00429187,-1.46071,0.528362,0.111666,150.966,0.123982,
2,1,0,1,0,44539.6,0.126802,0.126421,34.984,23,0.00559706,10,0.0044227,-1.45613,0.506488,0.116488,159.077,0.126421,
2,1,0,1,0,44539.6,0.129207,0.128831,35.3725,23,0.00573781,10,0.00455708,-1.45133,0.519947,0.113473,156.63,0.128831,
2,1,0,1,0,44539.6,0.131604,0.131229,35.7617,23,0.00588012,10,0.00469297,-1.44658,0.515602,0.114429,159.637,0.1312287,
2,1,0,1,0,44539.6,0.134001,0.133651,36.1313,23,0.00602395,10,0.00482898,-1.44212,0.514854,0.114596,161.659,0.133651,
2,1,0,1,0,44539.6,0.136399,0.136043,36.52,23,0.00616929,10,0.00496829,-1.43747,0.51546,0.114461,163.225,0.136043,
2,1,0,1,0,44539.6,0.138807,0.13848,36.9323,23,0.00631625,10,0.00511437,-1.43259,0.50662,0.116458,167.849,0.13848,
2,1,0,1,0,44539.6,0.141204,0.140831,37.329,23,0.00646481,10,0.00525707,-1.42795,0.50699,0.116373,169.529,0.1408307,
2,1,0,1,0,44539.6,0.143601,0.143243,37.7414,23,0.00661499,10,0.0054062,-1.42318,0.516067,0.114326,168.351,0.1432431,
2,1,0,1,0,44539.6,0.146009,0.145636,38.1464,23,0.00676682,10,0.00555551,-1.41855,0.519702,0.113527,168.95,0.145636,
2,1,0,1,0,44539.6,0.148406,0.148045,38.5425,23,0.00692023,10,0.00570602,-1.41406,0.532307,0.110838,166.706,0.148045,
2,1,0,1,0,44539.6,0.150803,0.15041,38.9475,23,0.00707525,10,0.00585811,-1.40952,0.541307,0.108996,165.64,0.1504104,
2,1,0,1,0,44539.6,0.153206,0.152877,39.3474,23,0.00723188,10,0.00601531,-1.40508,0.550665,0.107143,164.445,0.1528769,
2,1,0,1,0,44539.6,0.155606,0.155281,39.7439,23,0.00739011,10,0.00617147,-1.40073,0.570576,0.103404,160.248,0.155281,
2,1,0,1,0,44539.7,0.158003,0.157651,40.1222,23,0.00754989,10,0.0063253,-1.39661,0.587715,0.100389,157.087,0.157651,
2,1,0,1,0,44539.7,0.1604,0.159978,40.4808,23,0.00771113,10,0.00647605,-1.39275,0.61233,0.0963533,152.184,0.159978,
2,1,0,1,0,44539.7,0.162808,0.162457,40.8523,23,0.00787383,10,0.00663672,-1.38878,0.635054,0.0929055,148.026,0.162457,
2,1,0,1,0,44539.7,0.165205,0.164889,41.2061,23,0.00803798,10,0.00679445,-1.38504,0.664167,0.0888331,142.712,0.164889,
2,1,0,1,0,44539.7,0.167603,0.167208,41.537,23,0.00820349,10,0.00694533,-1.38157,0.714719,0.0825499,133.665,0.167208,
2,1,0,1,0,44539.7,0.170008,0.169612,41.8556,23,0.00837029,10,0.00709923,-1.37825,0.766885,0.0769346,125.512,0.169612,
2,1,0,1,0,44539.7,0.172405,0.172041,42.1333,23,0.00853832,10,0.00724864,-1.37537,0.831697,0.0709393,116.543,0.172041,
2,1,0,1,0,44539.7,0.174802,0.174436,42.4044,23,0.00870744,10,0.00739685,-1.37259,0.925318,0.0637618,105.419,0.174436,
2,1,0,1,0,44539.7,0.177199,0.176837,42.6591,23,0.0088776,10,0.0075437,-1.36999,1.04108,0.0566719,94.1869,0.176837,
2,1,0,1,0,44539.7,0.179607,0.179288,42.8757,23,0.00904869,10,0.00768711,-1.36779,1.23155,0.0479073,80.001,0.179288,
2,1,0,1,0,44539.7,0.182005,0.18167,43.0403,23,0.00922054,10,0.00781914,-1.36612,1.54808,0.0381116,63.9067,0.18167,
2,1,0,1,0,44539.7,0.184402,0.184076,43.1756,23,0.00939299,10,0.0079476,-1.36476,2.09088,0.0282178,47.467,0.184076,
2,1,0,1,0,44539.7,0.18681,0.186464,43.2744,23,0.00956589,10,0.00806912,-1.36377,3.32604,0.0177388,29.8955,0.186464,
2,1,0,1,0,44539.7,0.189207,0.188871,43.3306,23,0.00973912,10,0.0081839,-1.36321,9.05276,0.00651735,10.9952,0.188871,
2,1,0,1,0,44539.7,0.191604,0.191258,43.327,23,0.00991245,10,0.00828664,-1.36324,-11.8788,-0.00496684,-8.38051,0.191258,
2,1,0,1,0,44539.7,0.194001,0.193634,43.2807,23,0.0100857,10,0.0083806,-1.36371,-3.3762,-0.0174753,-29.4553,0.193634,
2,1,0,1,0,44539.7,0.196407,0.196065,43.1939,23,0.0102586,10,0.00846882,-1.36458,-2.08166,-0.0283427,-47.671,0.196065,
2,1,0,1,0,44539.7,0.198804,0.198456,43.0482,23,0.0104311,10,0.00854319,-1.36604,-1.50222,-0.0392753,-65.8522,0.198456,
2,1,0,1,0,44539.7,0.201201,0.200877,42.8684,23,0.010603,10,0.00861129,-1.36786,-1.12133,-0.0526161,-87.8287,0.200877,
2,1,0,1,0,44539.7,0.203609,0.203279,42.6455,23,0.010774,10,0.00866894,-1.37013,-0.928221,-0.0635624,-105.522,0.203279,
2,1,0,1,0,44539.7,0.206006,0.205654,42.3517,23,0.0109439,10,0.00870981,-1.37313,-0.763924,-0.0772328,-127.37,0.205654,
2,1,0,1,0,44539.7,0.208403,0.208085,42.0322,23,0.0111127,10,0.00874627,-1.37642,-0.666743,-0.0884899,-144.865,0.208085,
2,1,0,1,0,44539.7,0.210803,0.210429,41.6518,23,0.01128,10,0.00876475,-1.38037,-0.591511,-0.0997446,-161.826,0.210429,
2,1,0,1,0,44539.7,0.213206,0.212864,41.257,23,0.0114458,10,0.00878213,-1.3845,-0.525524,-0.112269,-180.356,0.212864,
2,1,0,1,0,44539.7,0.215603,0.215238,40.8008,23,0.0116099,10,0.00878189,-1.38933,-0.491129,-0.120131,-190.918,0.215238,
2,1,0,1,0,44539.8,0.218,0.217656,40.306,23,0.0117721,10,0.00877284,-1.39463,-0.444102,-0.132852,-208.638,0.217656,
2,1,0,1,0,44539.8,0.220408,0.220098,39.8058,23,0.0119322,10,0.00876119,-1.40005,-0.415788,-0.141899,-220.019,0.220098,
2,1,0,1,0,44539.8,0.222805,0.222531,39.2402,23,0.0120903,10,0.00873214,-1.40627,-0.392321,-0.150387,-229.998,0.222531,
2,1,0,1,0,44539.8,0.225202,0.224887,38.6779,23,0.0122461,10,0.00869815,-1.41254,-0.366197,-0.161115,-242.899,0.224887,
2,1,0,1,0,44539.8,0.227605,0.227289,38.0905,23,0.0123996,10,0.00865754,-1.41918,-0.353458,-0.166922,-247.82,0.227289,
2,1,0,1,0,44539.8,0.230008,0.229683,37.4776,23,0.0125507,10,0.00860798,-1.42623,-0.339228,-0.173924,-254.181,0.229683,
2,1,0,1,0,44539.8,0.232405,0.232104,36.8677,23,0.0126993,10,0.00855714,-1.43335,-0.331346,-0.178062,-256.035,0.232104,
2,1,0,1,0,44539.8,0.234802,0.234467,36.2429,23,0.0128455,10,0.00849775,-1.44078,-0.324668,-0.181724,-256.941,0.234467,
2,1,0,1,0,44539.8,0.237207,0.236918,35.625,23,0.0129891,10,0.00844021,-1.44825,-0.315955,-0.186735,-259.513,0.236918,
2,1,0,1,0,44539.8,0.239604,0.239293,35.0086,23,0.0131303,10,0.00837729,-1.45583,-0.315255,-0.18715,-255.612,0.239293,
2,1,0,1,0,44539.8,0.242002,0.241687,34.3808,23,0.013269,10,0.0083094,-1.46368,-0.312145,-0.189015,-253.705,0.241687,
2,1,0,1,0,44539.8,0.244404,0.244105,33.7793,23,0.0134053,10,0.00824569,-1.47135,-0.310335,-0.190117,-250.733,0.244105,
2,1,0,1,0,44539.8,0.246807,0.246517,33.1897,23,0.0135392,10,0.00818183,-1.479,-0.313791,-0.188023,-243.594,0.246517,
2,1,0,1,0,44539.8,0.249204,0.248876,32.6058,23,0.0136707,10,0.00811479,-1.4867,-0.315454,-0.187032,-238.11,0.248876,
2,1,0,1,0,44539.8,0.251601,0.251299,32.0395,23,0.0137999,10,0.00805148,-1.49431,-0.314349,-0.18769,-234.8,0.251299,
2,1,0,1,0,44539.8,0.254006,0.25372,31.4897,23,0.013927,10,0.00798958,-1.50183,-0.321575,-0.183472,-225.619,0.25372,
2,1,0,1,0,44539.8,0.256404,0.256071,30.9463,23,0.0140518,10,0.00792448,-1.50939,-0.327244,-0.180294,-218.005,0.256071,
2,1,0,1,0,44539.8,0.258801,0.258484,30.438,23,0.0141745,10,0.00786773,-1.51658,-0.331331,-0.17807,-211.741,0.2584838,
2,1,0,1,0,44539.8,0.261203,0.260884,29.9499,23,0.0142952,10,0.00781344,-1.5236,-0.341396,-0.17282,-202.105,0.260884,
2,1,0,1,0,44539.8,0.263606,0.263261,29.4696,23,0.014414,10,0.00775819,-1.53063,-0.344276,-0.171374,-197.22,0.263261,
2,1,0,1,0,44539.8,0.266003,0.265676,29.0053,23,0.0145309,10,0.007706,-1.53752,-0.355416,-0.166003,-188.114,0.265676,
2,1,0,1,0,44539.8,0.2684,0.268019,28.5575,23,0.014646,10,0.00765395,-1.54428,-0.36753,-0.160531,-179.164,0.268019,
2,1,0,1,0,44539.8,0.270808,0.270496,28.1417,23,0.0147594,10,0.00761221,-1.55065,-0.374805,-0.157415,-173.056,0.270496,
2,1,0,1,0,44539.8,0.273205,0.272899,27.7428,23,0.0148711,10,0.00757098,-1.55685,-0.391512,-0.150698,-163.28,0.272899,
2,1,0,1,0,44539.8,0.275603,0.275242,27.3497,23,0.0149812,10,0.0075278,-1.56305,-0.396214,-0.148909,-159.071,0.275242,
2,1,0,1,0,44539.9,0.278008,0.277661,26.9831,23,0.0150899,10,0.00749216,-1.56891,-0.407054,-0.144944,-152.747,0.277661,
2,1,0,1,0,44539.9,0.280405,0.280084,26.6165,23,0.015197,10,0.00745485,-1.57485,-0.423013,-0.139476,-145.038,0.280084,
2,1,0,1,0,44539.9,0.282802,0.2825,26.2763,23,0.0153027,10,0.00742305,-1.58044,-0.434993,-0.135634,-139.254,0.2825,
2,1,0,1,0,44539.9,0.285199,0.284872,25.953,23,0.0154072,10,0.00739329,-1.58581,-0.45286,-0.130283,-132.071,0.284872,
2,1,0,1,0,44539.9,0.287607,0.287286,25.6429,23,0.0155103,10,0.00736682,-1.59103,-0.460834,-0.128029,-128.192,0.287286,
2,1,0,1,0,44539.9,0.290005,0.289718,25.3441,23,0.0156123,10,0.00734265,-1.59612,-0.47948,-0.12305,-121.787,0.289718,
2,1,0,1,0,44539.9,0.292402,0.292101,25.0455,23,0.015713,10,0.00731582,-1.60127,-0.490943,-0.120177,-117.599,0.292101,
2,1,0,1,0,44539.9,0.294807,0.294528,24.777,23,0.0158126,10,0.00729754,-1.60595,-0.50007,-0.117983,-114.222,0.294528,
2,1,0,1,0,44539.9,0.297204,0.296891,24.5133,23,0.0159112,10,0.00727777,-1.6106,-0.522995,-0.112812,-108.441,0.296891,
2,1,0,1,0,44539.9,0.299421,0.299066,24.2764,23,0.0160014,10,0.00726024,-1.61482,-0.11207,-0.526459,-486.108,0.299066,
2,1,0,0,0,44539.9,0.300012,0.299708,24.2206,23,0.0160257,10,0.0072591,-1.61582,0.00259154,22.7664,19144.2,0.299708,
2,1,0,1,0,44539.9,0.299243,0.299056,22.576,23,0.0160555,10,0.00675149,-1.64635,0.0269037,2.19301,1698.57,0.299056,
2,1,0,1,0,44539.9,0.296846,0.296594,18.8296,23,0.0161375,10,0.00558474,-1.72516,0.0316623,1.86341,1338.03,0.296594,
2,1,0,1,0,44539.9,0.294449,0.294188,15.991,23,0.0162067,10,0.00470436,-1.79612,0.0330102,1.78733,1145.3,0.294188,
2,1,0,1,0,44539.9,0.292041,0.291767,13.5946,23,0.0162655,10,0.00396645,-1.86663,0.03318,1.77818,952.155,0.291767,
2,1,0,1,0,44539.9,0.289644,0.289384,11.4987,23,0.0163154,10,0.00332754,-1.93935,0.0317116,1.86052,835.067,0.2893841,
2,1,0,1,0,44539.9,0.287247,0.286934,9.63147,23,0.0163575,10,0.00276359,-2.01631,0.0294493,2.00344,747.645,0.286934,
2,1,0,1,0,44539.9,0.284841,0.284549,7.94171,23,0.0163924,10,0.0022598,-2.10009,0.0268126,2.20046,672.541,0.284549,
2,1,0,1,0,44539.9,0.282444,0.282169,6.41887,23,0.0164209,10,0.00181121,-2.19254,0.0235441,2.50593,611.278,0.282169,
2,1,0,1,0,44539.9,0.280047,0.279783,5.04165,23,0.0164437,10,0.00141057,-2.29743,0.0197165,2.99242,558.358,0.279783,
2,1,0,1,0,44539.9,0.27765,0.277347,3.77171,23,0.0164611,10,0.00104607,-2.42346,0.0154578,3.81683,507.363,0.277347,
2,1,0,1,0,44539.9,0.275242,0.274975,2.59636,23,0.0164737,10,0.000713934,-2.58564,0.00977502,6.03579,469.685,0.274975,
2,1,0,1,0,44539.9,0.272845,0.272526,1.5262,23,0.0164818,10,0.000415928,-2.81639,0.0099098,5.9537,433.6,0.272526,
2,1,0,1,0,44539.9,0.270448,0.270162,0.522786,23,0.0164858,10,0.000141237,-3.28168,0.0302726,1.94896,398.753,0.270162,
2,0,0,1,0,44539.9,0.268039,0.26772,-0.402746,23,0.0164859,10,-0.000107823,-3.39497,-0.0743315,-0.793741,375.434,0.26772,
2,0,0,1,0,44539.9,0.265642,0.265336,-1.24725,23,0.0164826,10,-0.000330942,-2.90404,-0.0131698,-4.47996,345.973,0.265336,
2,0,0,1,0,44540,0.263245,0.263,-2.05003,23,0.0164759,10,-0.000539159,-2.68824,-0.0101935,-5.78802,323.43,0.263,
2,0,0,1,0,44540,0.260843,0.260577,-2.79338,23,0.0164661,10,-0.00072789,-2.55387,-0.0183939,-3.20758,302.233,0.260577,
2,0,0,1,0,44540,0.258443,0.258151,-3.49768,23,0.0164534,10,-0.000902928,-2.45622,-0.0264234,-2.23287,280.272,0.258151,
2,0,0,1,0,44540,0.256046,0.255734,-4.14929,23,0.016438,10,-0.00106112,-2.38203,-0.0343237,-1.71893,263.621,0.255734,
2,0,0,1,0,44540,0.253649,0.253338,-4.75815,23,0.0164201,10,-0.00120542,-2.32256,-0.0424693,-1.38924,248.906,0.253338,
2,0,0,1,0,44540,0.25124,0.250921,-5.33892,23,0.0163999,10,-0.00133965,-2.27255,-0.0508333,-1.16066,235.211,0.250921,
2,0,0,1,0,44540,0.248843,0.248535,-5.8911,23,0.0163774,10,-0.00146415,-2.2298,-0.0596966,-0.988331,222.241,0.248535,
2,0,0,1,0,44540,0.246446,0.246175,-6.39781,23,0.0163527,10,-0.00157498,-2.19397,-0.0690109,-0.854937,209.787,0.246175,
2,0,0,1,0,44540,0.244041,0.243711,-6.89752,23,0.0163261,10,-0.001681,-2.16131,-0.0794991,-0.742147,196.684,0.243711,
2,0,0,1,0,44540,0.241644,0.241371,-7.34238,23,0.0162975,10,-0.00177224,-2.13416,-0.0891777,-0.6616,187.51,0.241371,
2,0,0,1,0,44540,0.239247,0.238944,-7.77757,23,0.0162672,10,-0.0018584,-2.10916,-0.0995307,-0.592782,178.598,0.238944,
2,0,0,1,0,44540,0.236849,0.236558,-8.20106,23,0.0162352,10,-0.00194003,-2.08613,-0.110913,-0.531951,168.824,0.236558,
2,0,0,1,0,44540,0.234441,0.234149,-8.6054,23,0.0162016,10,-0.00201494,-2.06523,-0.121026,-0.487498,162.365,0.234149,
2,0,0,1,0,44540,0.232044,0.231693,-8.97631,23,0.0161664,10,-0.00207975,-2.0469,-0.132627,-0.444858,154.942,0.231693,
2,0,0,1,0,44540,0.229647,0.229332,-9.33815,23,0.0161297,10,-0.00214154,-2.02974,-0.145215,-0.406294,147.401,0.229332,
2,0,0,1,0,44540,0.227239,0.226953,-9.68931,23,0.0160916,10,-0.00219901,-2.01371,-0.156423,-0.377182,141.884,0.226953,
2,0,0,1,0,44540,0.224842,0.224534,-10.0226,23,0.0160522,10,-0.00225042,-1.99902,-0.169544,-0.347992,135.44,0.224534,
2,0,0,1,0,44540,0.222445,0.222131,-10.333,23,0.0160114,10,-0.00229527,-1.98577,-0.182758,-0.322832,129.793,0.222131,
2,0,0,1,0,44540,0.220047,0.219755,-10.6353,23,0.0159694,10,-0.00233716,-1.97325,-0.196881,-0.299673,124.054,0.219755,
2,0,0,1,0,44540,0.217642,0.217321,-10.9394,23,0.0159262,10,-0.00237737,-1.96101,-0.208314,-0.283227,120.526,0.217321,
2,0,0,1,0,44540,0.215245,0.21493,-11.2141,23,0.0158819,10,-0.00241023,-1.95024,-0.218813,-0.269636,117.784,0.21493,
2,0,0,1,0,44540,0.212848,0.212486,-11.4955,23,0.0158364,10,-0.00244263,-1.93947,-0.234841,-0.251233,112.455,0.212486,
2,0,0,1,0,44540,0.21044,0.210124,-11.7697,23,0.0157899,10,-0.00247309,-1.92924,-0.244277,-0.241529,110.636,0.210124,
2,0,0,1,0,44540,0.208043,0.207747,-12.0161,23,0.0157423,10,-0.00249631,-1.92024,-0.2617,-0.225449,105.545,0.207747,
2,0,0,1,0,44540,0.205645,0.205329,-12.2763,23,0.0156937,10,-0.00252067,-1.91093,-0.275228,-0.214368,102.551,0.205329,
2,0,0,1,0,44540.1,0.203246,0.202871,-12.5103,23,0.0156441,10,-0.00253797,-1.90273,-0.286751,-0.205754,100.329,0.202871,
2,0,0,1,0,44540.1,0.200843,0.200472,-12.7595,23,0.0155935,10,-0.00255792,-1.89417,-0.301535,-0.195666,97.2474,0.200472,
2,0,0,1,0,44540.1,0.198446,0.198087,-12.9852,23,0.015542,10,-0.00257221,-1.88655,-0.304651,-0.193665,98.0419,0.198087,
2,0,0,1,0,44540.1,0.196049,0.195778,-13.2051,23,0.0154896,10,-0.00258526,-1.87926,-0.323079,-0.182618,94.0945,0.195778,
2,0,0,1,0,44540.1,0.19364,0.193343,-13.4444,23,0.0154363,10,-0.00259938,-1.87146,-0.331663,-0.177891,93.2027,0.193343,
2,0,0,1,0,44540.1,0.191243,0.190947,-13.6558,23,0.0153821,10,-0.00260752,-1.86468,-0.343525,-0.171749,91.4434,0.190947,
2,0,0,1,0,44540.1,0.188846,0.188548,-13.8743,23,0.015327,10,-0.00261597,-1.85779,-0.362343,-0.162829,88.0961,0.188548,
2,0,0,1,0,44540.1,0.186444,0.186106,-14.0895,23,0.015271,10,-0.00262214,-1.8511,-0.366913,-0.160801,88.337,0.186106,
2,0,0,1,0,44540.1,0.184041,0.18374,-14.2904,23,0.0152142,10,-0.00262572,-1.84496,-0.376554,-0.156684,87.3826,0.18374,
2,0,0,1,0,44540.1,0.181644,0.181328,-14.5055,23,0.0151566,10,-0.00263024,-1.83847,-0.375917,-0.156949,88.8788,0.181328,
2,0,0,1,0,44540.1,0.179247,0.178936,-14.7142,23,0.0150982,10,-0.00263291,-1.83226,-0.381763,-0.154546,88.738,0.178936,
2,0,0,1,0,44540.1,0.176841,0.176545,-14.9393,23,0.0150389,10,-0.00263745,-1.82567,-0.391274,-0.150789,87.8196,0.176545,
2,0,0,1,0,44540.1,0.174444,0.174133,-15.1429,23,0.0149787,10,-0.00263688,-1.81979,-0.394111,-0.149704,88.4178,0.174133,
2,0,0,1,0,44540.1,0.172047,0.171728,-15.3485,23,0.0149177,10,-0.00263577,-1.81393,-0.402216,-0.146687,87.9211,0.171728,
2,0,0,1,0,44540.1,0.169644,0.16936,-15.5609,23,0.0148559,10,-0.0026354,-1.80796,-0.394601,-0.149518,90.8818,0.16936,
2,0,0,1,0,44540.1,0.167242,0.166929,-15.7847,23,0.0147931,10,-0.00263493,-1.80176,-0.389891,-0.151324,93.2595,0.166929,
2,0,0,1,0,44540.1,0.164845,0.164541,-16.0146,23,0.0147295,10,-0.00263507,-1.79548,-0.386406,-0.152689,95.4401,0.164541,
2,0,0,1,0,44540.1,0.162448,0.16214,-16.2427,23,0.014665,10,-0.00263359,-1.78934,-0.3855,-0.153048,97.0407,0.16214,
2,0,0,1,0,44540.1,0.160042,0.159728,-16.4802,23,0.0145995,10,-0.00263235,-1.78304,-0.379927,-0.155293,99.9448,0.1597282,
2,0,0,1,0,44540.1,0.157645,0.157317,-16.7175,23,0.0145331,10,-0.00262994,-1.77683,-0.365057,-0.161618,105.621,0.157317,
2,0,0,1,0,44540.1,0.155248,0.154916,-16.9766,23,0.0144657,10,-0.00262995,-1.77015,-0.35314,-0.167072,110.895,0.154916,
2,0,0,1,0,44540.1,0.152845,0.152523,-17.2585,23,0.0143972,10,-0.00263231,-1.763,-0.338779,-0.174155,117.41,0.152523,
2,0,0,1,0,44540.1,0.150443,0.150116,-17.5462,23,0.0143275,10,-0.00263395,-1.75582,-0.328231,-0.179751,123.196,0.150116,
2,0,0,1,0,44540.1,0.148046,0.147723,-17.8439,23,0.0142567,10,-0.00263596,-1.74851,-0.313562,-0.18816,131.297,0.147723,
2,0,0,1,0,44540.1,0.145648,0.145313,-18.1597,23,0.0141847,10,-0.00263884,-1.74089,-0.297435,-0.198363,141.003,0.145313,
2,0,0,1,0,44540.2,0.14324,0.142945,-18.516,23,0.0141113,10,-0.00264677,-1.73245,-0.28313,-0.208385,150.917,0.142945,
2,0,0,1,0,44540.2,0.140843,0.140524,-18.8986,23,0.0140364,10,-0.00265571,-1.72357,-0.264265,-0.223261,164.988,0.140524,
2,0,0,1,0,44540.2,0.138446,0.138148,-19.289,23,0.01396,10,-0.00266473,-1.71469,-0.255454,-0.230961,174.317,0.138148,
2,0,0,1,0,44540.2,0.136041,0.135777,-19.733,23,0.0138819,10,-0.00267929,-1.70481,-0.244053,-0.241751,186.616,0.135777,
2,0,0,1,0,44540.2,0.133644,0.133362,-20.1864,23,0.0138021,10,-0.00269211,-1.69494,-0.228973,-0.257672,203.62,0.133362,
2,0,0,1,0,44540.2,0.131246,0.130938,-20.6875,23,0.0137203,10,-0.00270878,-1.68429,-0.220736,-0.267288,216.542,0.130938,
2,0,0,1,0,44540.2,0.128849,0.128571,-21.2389,23,0.0136364,10,-0.00273072,-1.67287,-0.210106,-0.28081,233.314,0.128571,
2,0,0,1,0,44540.2,0.126441,0.126143,-21.8191,23,0.0135502,10,-0.00275233,-1.66116,-0.203287,-0.29023,247.555,0.126143,
2,0,0,1,0,44540.2,0.124044,0.123738,-22.4319,23,0.0134616,10,-0.00277568,-1.64913,-0.198478,-0.297262,260.614,0.123738,
2,0,0,1,0,44540.2,0.121647,0.121326,-23.0671,23,0.0133706,10,-0.00279863,-1.63701,-0.195022,-0.302531,272.804,0.121326,
2,0,0,1,0,44540.2,0.119241,0.118989,-23.7361,23,0.0132769,10,-0.00282435,-1.62459,-0.194301,-0.303653,281.573,0.118989,
2,0,0,1,0,44540.2,0.116844,0.116529,-24.4418,23,0.0131805,10,-0.00284819,-1.61187,-0.193609,-0.304738,290.558,0.116529,
2,0,0,1,0,44540.2,0.114447,0.114121,-25.1398,23,0.0130813,10,-0.00286898,-1.59964,-0.196447,-0.300335,294.493,0.114121,
2,0,0,1,0,44540.2,0.11205,0.111755,-25.8478,23,0.0129792,10,-0.00288864,-1.58758,-0.200029,-0.294958,297.463,0.111755,
2,0,0,1,0,44540.2,0.109642,0.109377,-26.5669,23,0.0128743,10,-0.00290581,-1.57566,-0.202393,-0.291512,302.137,0.109377,
2,0,0,1,0,44540.2,0.107245,0.106945,-27.2927,23,0.0127665,10,-0.00291882,-1.56395,-0.208198,-0.283384,301.62,0.1069454,
2,0,0,1,0,44540.2,0.104848,0.104565,-28.0271,23,0.0126558,10,-0.00293065,-1.55242,-0.21853,-0.269986,294.533,0.104565,
2,0,0,1,0,44540.2,0.10244,0.10214,-28.7481,23,0.0125422,10,-0.00293632,-1.54139,-0.223688,-0.26376,295.139,0.10214,
2,0,0,1,0,44540.2,0.100042,0.0998036,-29.3866,23,0.0124259,10,-0.00293289,-1.53185,-0.232797,-0.25344,290.756,0.0998036,
2,0,0,1,0,44540.2,0.0976454,0.0974452,-30.0965,23,0.0123068,10,-0.00293276,-1.52148,-0.240486,-0.245337,288.215,0.0974452,
2,0,0,1,0,44540.2,0.0952427,0.0949967,-30.8091,23,0.012185,10,-0.00292676,-1.51132,-0.246571,-0.239282,287.127,0.0949967,
2,0,0,1,0,44540.2,0.0928428,0.0926023,-31.4969,23,0.0120602,10,-0.00291669,-1.50173,-0.260288,-0.226672,277.933,0.0926023,
2,0,0,1,0,44540.2,0.0904457,0.0901846,-32.1485,23,0.0119329,10,-0.0028993,-1.49284,-0.274849,-0.214664,268.85,0.0901846,
2,0,0,1,0,44540.2,0.0880486,0.0877987,-32.7776,23,0.0118029,10,-0.00287783,-1.48442,-0.28982,-0.203575,260.041,0.0877987,
2,0,0,1,0,44540.2,0.0856404,0.0853269,-33.4088,23,0.0116705,10,-0.00285067,-1.47614,-0.306034,-0.192789,250.831,0.0853269,
2,0,0,1,0,44540.3,0.0832433,0.0829919,-33.996,23,0.0115356,10,-0.0028214,-1.46857,-0.323589,-0.18233,241.421,0.0829919,
2,0,0,1,0,44540.3,0.0808462,0.0805869,-34.5559,23,0.0113985,10,-0.00278475,-1.46148,-0.346017,-0.170512,229.552,0.0805869,
2,0,0,1,0,44540.3,0.0784408,0.0781617,-35.1042,23,0.0112591,10,-0.0027438,-1.45464,-0.373352,-0.158028,216.009,0.0781617,
2,0,0,1,0,44540.3,0.0760437,0.0757567,-35.6057,23,0.0111176,10,-0.00269737,-1.44848,-0.398558,-0.148034,205.285,0.0757567,
2,0,0,1,0,44540.3,0.0736466,0.0733729,-36.0738,23,0.0109743,10,-0.00264684,-1.44281,-0.425287,-0.13873,195.06,0.0733729,
2,0,0,1,0,44540.3,0.0712495,0.0709785,-36.5283,23,0.010829,10,-0.00259273,-1.43737,-0.455652,-0.129485,184.358,0.07097853,
2,0,0,1,0,44540.3,0.0688413,0.0686128,-36.9668,23,0.0106819,10,-0.00253639,-1.43219,-0.485722,-0.121469,174.953,0.0686128,
2,0,0,1,0,44540.3,0.0664442,0.0661717,-37.3727,23,0.0105332,10,-0.00247302,-1.42745,-0.526089,-0.112148,163.288,0.0661717,
2,0,0,1,0,44540.3,0.0640471,0.0637911,-37.7502,23,0.0103829,10,-0.00240813,-1.42308,-0.576293,-0.102378,150.574,0.0637911,
2,0,0,1,0,44540.3,0.0616389,0.061367,-38.0978,23,0.0102312,10,-0.00233795,-1.4191,-0.632334,-0.0933052,138.505,0.061367,
2,0,0,1,0,44540.3,0.0592417,0.0590023,-38.4139,23,0.0100781,10,-0.00226651,-1.41551,-0.700625,-0.0842105,126.049,0.0590023,
2,0,0,1,0,44540.3,0.0568446,0.0565379,-38.7071,23,0.00992385,10,-0.00218842,-1.41221,-0.772395,-0.0763858,115.218,0.0565379,
2,0,0,1,0,44540.3,0.0544475,0.0541615,-38.964,23,0.00976849,10,-0.00211035,-1.40934,-0.870139,-0.0678053,102.963,0.0541615,
2,0,0,1,0,44540.3,0.0520421,0.0517449,-39.2064,23,0.00961209,10,-0.00202873,-1.40664,-0.977423,-0.0603628,92.224,0.0517449,
2,0,0,1,0,44540.3,0.049645,0.0493335,-39.4094,23,0.00945484,10,-0.0019442,-1.4044,-1.06369,-0.0554674,85.2322,0.0493335,
2,0,0,1,0,44540.3,0.0472479,0.046937,-39.5925,23,0.00929681,10,-0.00185835,-1.40239,-1.21825,-0.0484301,74.7769,0.046937,
2,0,0,1,0,44540.3,0.0448397,0.0445214,-39.7856,23,0.00913805,10,-0.00177131,-1.40027,-1.36328,-0.0432778,67.1069,0.0445214,
2,0,0,1,0,44540.3,0.0424426,0.0421811,-39.9216,23,0.00897863,10,-0.00168393,-1.39879,-1.54027,-0.038305,59.6163,0.0421811,
2,0,0,1,0,44540.3,0.0400455,0.0396997,-40.0559,23,0.00881866,10,-0.00159021,-1.39733,-1.86223,-0.0316824,49.4867,0.0396997,
2,0,0,1,0,44540.3,0.0376456,0.037299,-40.1671,23,0.0086582,10,-0.00149819,-1.39613,-2.10446,-0.0280357,43.9109,0.037299,
2,0,0,1,0,44540.3,0.035243,0.0349226,-40.2606,23,0.00849733,10,-0.00140601,-1.39512,-2.56197,-0.0230292,36.1555,0.0349226,
2,0,0,1,0,44540.3,0.0328459,0.0325505,-40.3445,23,0.00833611,10,-0.00131323,-1.39422,-2.96026,-0.0199307,31.3604,0.0325505,
2,0,0,1,0,44540.3,0.0304488,0.0301465,-40.4013,23,0.0081746,10,-0.00121796,-1.3936,-3.64751,-0.0161754,25.4926,0.0301465,
2,0,0,1,0,44540.3,0.0280406,0.02768,-40.4687,23,0.00801286,10,-0.00112017,-1.39288,-5.21367,-0.0113164,17.8559,0.02768,
2,0,0,1,0,44540.3,0.0256435,0.0253503,-40.5047,23,0.00785091,10,-0.00102681,-1.39249,-6.0705,-0.00971913,15.3526,0.0253503,
2,0,0,1,0,44540.4,0.0232463,0.0229092,-40.5166,23,0.00768888,10,-0.000928205,-1.39237,-11.3491,-0.00519864,8.21854,0.0229092,
2,0,0,1,0,44540.4,0.0208437,0.0205032,-40.5494,23,0.00752675,10,-0.000831391,-1.39202,-29.425,-0.0020051,3.1708,0.02050318,
2,0,0,1,0,44540.4,0.018441,0.0181056,-40.5474,23,0.00736455,10,-0.000734135,-1.39204,1947.13,3.03011e-05,-0.0479129,0.0181056,
2,0,0,1,0,44540.4,0.0160439,0.0156995,-40.5353,23,0.00720238,10,-0.000636385,-1.39217,13.2976,0.00443689,-7.01562,0.0156995,
2,0,0,1,0,44540.4,0.0136468,0.0133507,-40.5161,23,0.00704028,10,-0.000540921,-1.39237,8.70607,0.00677688,-10.7105,0.0133507,
2,0,0,1,0,44540.4,0.0112414,0.0109086,-40.482,23,0.00687827,10,-0.000441603,-1.39274,6.32458,0.00932869,-14.732,0.0109086,
2,0,0,1,0,44540.4,0.00884431,0.00855134,-40.4451,23,0.00671641,10,-0.00034586,-1.39313,4.73385,0.0124634,-19.6615,0.00855134,
2,0,0,1,0,44540.4,0.0064472,0.00614846,-40.3946,23,0.00655473,10,-0.000248364,-1.39368,4.95166,0.0119152,-18.7826,0.006148458,
2,0,0,1,0,44540.4,0.00404455,0.00375194,-40.3274,23,0.00639331,10,-0.000151306,-1.3944,3.50796,0.0168189,-26.4637,0.00375194,
2,0,0,1,0,44540.4,0.0016419,0.00128968,-40.3014,23,0.0062321,10,-5.19757e-05,-1.39468,2.89674,0.0203677,-31.9863,0.00128968,
2,0,0,1,0,44540.4,-0.000755208,-0.00110896,-40.1894,23,0.00607114,10,4.45687e-05,-1.39589,2.50185,0.0235826,-36.9512,-0.00110896,
2,0,0,1,0,44540.4,-0.00315231,-0.00350654,-40.0857,23,0.00591059,10,0.000140562,-1.39701,1.87586,0.0314522,-49.1783,-0.00350654,
2,0,0,1,0,44540.4,-0.00555774,-0.0058967,-39.9709,23,0.00575047,10,0.000235696,-1.39826,1.76826,0.0333661,-52.0069,-0.0058967,
2,0,0,1,0,44540.4,-0.00795485,-0.00832609,-39.8285,23,0.00559086,10,0.000331616,-1.39981,1.6406,0.0359624,-55.8808,-0.00832609,
2,0,0,1,0,44540.4,-0.010352,-0.0107385,-39.6886,23,0.00543182,10,0.000426197,-1.40133,1.49576,0.0394448,-61.0801,-0.0107385,
2,0,0,1,0,44540.4,-0.0127546,-0.0131647,-39.546,23,0.00527338,10,0.000520613,-1.4029,1.4208,0.0415258,-64.0471,-0.0131647,
2,0,0,1,0,44540.4,-0.0151573,-0.0154722,-39.386,23,0.00511553,10,0.000609387,-1.40466,1.30963,0.045051,-69.1969,-0.0154722,
2,0,0,1,0,44540.4,-0.0175544,-0.0179313,-39.2133,23,0.00495835,10,0.000703144,-1.40657,1.22148,0.0483022,-73.8793,-0.01793126,
2,0,0,1,0,44540.4,-0.0199515,-0.0203055,-39.0266,23,0.00480189,10,0.000792456,-1.40864,1.17834,0.0500705,-76.2418,-0.0203055,
2,0,0,1,0,44540.4,-0.0223597,-0.0227328,-38.8391,23,0.00464616,10,0.000882922,-1.41073,1.12286,0.0525442,-79.6268,-0.0227328,
2,0,0,1,0,44540.4,-0.0247568,-0.0251367,-38.6492,23,0.0044912,10,0.000971514,-1.41286,1.11823,0.0527619,-79.5705,-0.0251367,
2,0,0,1,0,44540.4,-0.0271539,-0.0275205,-38.4497,23,0.00433703,10,0.00105816,-1.41511,1.0856,0.0543476,-81.5434,-0.0275205,
2,0,0,1,0,44540.4,-0.0295593,-0.0299223,-38.2614,23,0.00418363,10,0.00114487,-1.41724,1.05319,0.0560204,-83.6153,-0.0299223,
2,0,0,1,0,44540.4,-0.0319564,-0.032357,-38.0543,23,0.004031,10,0.00123133,-1.4196,1.05294,0.0560336,-83.2029,-0.032357,
2,0,0,1,0,44540.4,-0.0343535,-0.0347684,-37.8438,23,0.00387924,10,0.00131577,-1.422,1.06113,0.0556013,-82.164,-0.0347684,
2,0,0,1,0,44540.5,-0.0367506,-0.0371554,-37.6481,23,0.00372827,10,0.00139883,-1.42426,1.06131,0.0555917,-81.7078,-0.0371554,
2,0,0,1,0,44540.5,-0.0391588,-0.0395487,-37.4705,23,0.00357803,10,0.00148191,-1.42631,1.08786,0.0542349,-79.2946,-0.0395487,
2,0,0,1,0,44540.5,-0.0415559,-0.0419558,-37.2701,23,0.00342858,10,0.0015637,-1.42864,1.10698,0.053298,-77.5361,-0.04195584,
2,0,0,1,0,44540.5,-0.043953,-0.0443439,-37.0845,23,0.00327987,10,0.00164447,-1.43081,1.10717,0.0532888,-77.158,-0.0443439,
2,0,0,1,0,44540.5,-0.0463585,-0.0467224,-36.9063,23,0.00313191,10,0.00172435,-1.4329,1.18064,0.0499729,-72.0146,-0.0467224,
2,0,0,1,0,44540.5,-0.0487556,-0.049104,-36.7332,23,0.00298465,10,0.00180375,-1.43494,1.20732,0.0488687,-70.0885,-0.049104,
2,0,0,1,0,44540.5,-0.0511527,-0.0515037,-36.5825,23,0.00283802,10,0.00188413,-1.43673,1.30506,0.0452088,-64.5685,-0.0515037,
2,0,0,1,0,44540.5,-0.0535498,-0.0538738,-36.4166,23,0.00269202,10,0.0019619,-1.4387,1.36738,0.0431482,-61.3595,-0.0538738,
2,0,0,1,0,44540.5,-0.055958,-0.0563053,-36.2876,23,0.0025466,10,0.00204318,-1.44024,1.42594,0.0413763,-58.6166,-0.0563053,
2,0,0,1,0,44540.5,-0.0583551,-0.0586997,-36.1444,23,0.00240175,10,0.00212167,-1.44196,1.64736,0.0358149,-50.5582,-0.0586997,
2,0,0,1,0,44540.5,-0.0607522,-0.0611216,-36.0187,23,0.00225744,10,0.00220152,-1.44347,1.69275,0.0348545,-49.0382,-0.0611216,
2,0,0,1,0,44540.5,-0.0631604,-0.0635542,-35.9272,23,0.00211355,10,0.00228332,-1.44458,1.89407,0.0311498,-43.6838,-0.0635542,
2,0,0,1,0,44540.5,-0.0655575,-0.0659507,-35.8146,23,0.00197008,10,0.002362,-1.44594,2.09688,0.0281371,-39.3443,-0.0659507,
2,0,0,1,0,44540.5,-0.0679546,-0.0683303,-35.7237,23,0.00182701,10,0.00244101,-1.44704,2.18506,0.0270016,-37.6697,-0.06833028,
2,0,0,1,0,44540.5,-0.0703573,-0.0707268,-35.6408,23,0.0016843,10,0.00252076,-1.44805,2.63597,0.0223827,-31.1543,-0.0707268,
2,0,0,1,0,44540.5,-0.0727571,-0.0731053,-35.5674,23,0.00154189,10,0.00260016,-1.44895,3.00863,0.0196103,-27.2402,-0.0731053,
2,0,0,1,0,44540.5,-0.0751542,-0.0755358,-35.5159,23,0.00139972,10,0.00268272,-1.44958,3.77188,0.015642,-21.6937,-0.0755358,
2,0,0,1,0,44540.5,-0.0775514,-0.077928,-35.4623,23,0.00125777,10,0.00276351,-1.45023,4.61796,0.0127762,-17.6921,-0.077928,
2,0,0,1,0,44540.5,-0.0799595,-0.0803256,-35.4326,23,0.00111598,10,0.00284614,-1.4506,5.22693,0.0112877,-15.6126,-0.0803256,
2,0,0,1,0,44540.5,-0.0823567,-0.0826999,-35.3976,23,0.000974339,10,0.00292738,-1.45103,9.75279,0.00604955,-8.36302,-0.08269985,
2,0,0,1,0,44540.5,-0.0847538,-0.0851229,-35.3663,23,0.000832815,10,0.00301048,-1.45141,14.6738,0.00402077,-5.55582,-0.0851229,
2,0,0,1,0,44540.5,-0.0871592,-0.087494,-35.3823,23,0.000691334,10,0.00309574,-1.45121,44.3625,0.00132995,-1.83682,-0.087494,
2,0,0,1,0,44540.5,-0.0895563,-0.0899541,-35.3791,23,0.0005498,10,0.00318249,-1.45125,-31.5863,-0.0018679,2.57904,-0.0899541,
2,0,0,1,0,44540.5,-0.0919534,-0.0923379,-35.3799,23,0.000408285,10,0.00326691,-1.45124,-16.4666,-0.00358301,4.95096,-0.0923379,
2,0,0,1,0,44540.5,-0.0943505,-0.094727,-35.391,23,0.000266735,10,0.00335249,-1.45111,-8.24154,-0.00715885,9.89769,-0.094727,
2,0,0,1,0,44540.6,-0.0967587,-0.0971076,-35.4299,23,0.000125085,10,0.00344051,-1.45063,-5.60141,-0.0105331,14.5678,-0.0971076,
2,0,0,1,0,44540.6,-0.0991558,-0.0995179,-35.4737,23,-1.67097e-05,10,0.00353027,-1.45009,4.13963,0.0142525,-19.6546,-0.0995179,
2,0,0,1,0,44540.6,-0.0999548,-0.100381,-35.4971,23,-6.28306e-05,10,0.00356324,-1.44981,0.0224838,2.62411,-3397.41,-0.100381,
2,0,0,1,1,44540.6,-0.0999548,-0.100381,-35.2799,23,-8.40241e-05,10,0.00354143,-1.45247,-0.0306489,-1.92503,2342.82,-0.100381,
2,0,0,1,1,44540.6,-0.0979573,-0.0984066,-31.0167,23,-0.000185012,10,0.00305224,-1.50841,-0.0406086,-1.45289,1669.55,-0.0984066,
2,0,0,1,1,44540.6,-0.0955546,-0.0960101,-27.2556,23,-0.000300963,10,0.00261681,-1.56455,-0.0422025,-1.39802,1514.05,-0.0960101,
2,0,0,1,1,44540.6,-0.0931519,-0.093568,-24.1223,23,-0.000403279,10,0.00225707,-1.61758,-0.0447356,-1.31886,1259.71,-0.093568,
2,0,0,1,1,44540.6,-0.0907548,-0.091198,-21.3763,23,-0.000493924,10,0.00194947,-1.67007,-0.0451104,-1.3079,1098.3,-0.09119796,
2,0,0,1,1,44540.6,-0.0883578,-0.0888067,-18.9236,23,-0.000574238,10,0.00168054,-1.723,-0.043706,-1.34993,997.623,-0.0888067,
2,0,0,1,1,44540.6,-0.0859523,-0.0863508,-16.6468,23,-0.000645092,10,0.00143746,-1.77867,-0.041901,-1.40808,912.375,-0.0863508,
2,0,0,1,1,44540.6,-0.0835552,-0.0839755,-14.5527,23,-0.000707235,10,0.00122207,-1.83706,-0.0393804,-1.49821,845.745,-0.0839755,
2,0,0,1,1,44540.6,-0.0811581,-0.0815779,-12.5992,23,-0.000761318,10,0.00102782,-1.89966,-0.0360991,-1.63439,795.257,-0.0815779,
2,0,0,1,1,44540.6,-0.0787555,-0.0791634,-10.7678,23,-0.000807837,10,0.000852416,-1.96787,-0.0329119,-1.79267,740.985,-0.0791634,
2,0,0,1,1,44540.6,-0.0763528,-0.076804,-9.05458,23,-0.000847278,10,0.000695428,-2.04313,-0.029057,-2.0305,698.844,-0.076804,
2,0,0,1,1,44540.6,-0.0739557,-0.0743545,-7.42358,23,-0.000880065,10,0.000551976,-2.12939,-0.0248097,-2.3781,662.044,-0.0743545,
2,0,0,1,1,44540.6,-0.0715586,-0.0719675,-5.88297,23,-0.000906523,10,0.000423383,-2.2304,-0.0203581,-2.89811,623.203,-0.0719675,
2,0,0,1,1,44540.6,-0.0691532,-0.0695848,-4.42632,23,-0.000926983,10,0.000308004,-2.35396,-0.0151338,-3.89855,594.958,-0.06958475,
2,0,0,1,1,44540.6,-0.0667561,-0.0671511,-3.03889,23,-0.000941737,10,0.000204065,-2.51729,-0.00876083,-6.73452,565.222,-0.0671511,
2,0,0,1,1,44540.6,-0.0643589,-0.0647875,-1.73163,23,-0.000951116,10,0.000112188,-2.76155,-0.0123287,-4.78559,536.498,-0.0647875,
2,0,0,1,1,44540.6,-0.0619563,-0.0624016,-0.476102,23,-0.000955389,10,2.97095e-05,-3.3223,-0.0459254,-1.28469,513.587,-0.0624016,
2,1,0,1,1,44540.6,-0.0595536,-0.0599658,0.734232,23,-0.000954718,10,-4.40288e-05,-3.13417,0.0409915,1.43932,489.717,-0.0599658,
2,1,0,1,1,44540.6,-0.0571565,-0.0575735,1.88004,23,-0.000949369,10,-0.000108241,-2.72583,0.0103956,5.67547,467.024,-0.0575735,
2,1,0,1,1,44540.6,-0.0547594,-0.0551887,2.96907,23,-0.00093955,10,-0.000163859,-2.52738,0.0114969,5.1318,446.342,-0.0551887,
2,1,0,1,1,44540.6,-0.0523512,-0.0527646,4.0246,23,-0.00092543,10,-0.000212356,-2.39528,0.0190726,3.09343,428.231,-0.0527646,
2,1,0,1,1,44540.6,-0.0499541,-0.0503702,5.01716,23,-0.000907253,10,-0.000252715,-2.29954,0.0260539,2.26454,412.457,-0.0503702,
2,1,0,1,1,44540.6,-0.047557,-0.0479737,5.991,23,-0.000885133,10,-0.00028741,-2.2225,0.0331486,1.77986,396.597,-0.0479737,
2,1,0,1,1,44540.6,-0.0451544,-0.0456238,6.91416,23,-0.000859223,10,-0.00031545,-2.16026,0.0403866,1.46088,380.508,-0.0456238,
2,1,0,1,1,44540.7,-0.0427545,-0.0432209,7.80959,23,-0.000829663,10,-0.000337538,-2.10737,0.0481406,1.22558,363.471,-0.0432209,
2,1,0,1,1,44540.7,-0.0403574,-0.0407947,8.66071,23,-0.00079663,10,-0.000353311,-2.06245,0.0559865,1.05382,348.993,-0.0407947,
2,1,0,1,1,44540.7,-0.0379603,-0.0383961,9.47218,23,-0.000760271,10,-0.000363694,-2.02355,0.0642679,0.918032,334.233,-0.0383961,
2,1,0,1,1,44540.7,-0.0355521,-0.0359826,10.2789,23,-0.000720679,10,-0.00036986,-1.98805,0.0726269,0.812371,321.023,-0.0359826,
2,1,0,1,1,44540.7,-0.033155,-0.0335754,11.0334,23,-0.000677966,10,-0.000370452,-1.95729,0.0812004,0.726597,308.92,-0.0335754,
2,1,0,1,1,44540.7,-0.0307579,-0.031181,11.7469,23,-0.000632338,10,-0.000366281,-1.93008,0.0907836,0.649897,295.155,-0.031181,
2,1,0,1,1,44540.7,-0.0283524,-0.0287517,12.4515,23,-0.00058388,10,-0.000358002,-1.90478,0.100077,0.589544,284.069,-0.0287517,
2,1,0,1,1,44540.7,-0.0259553,-0.0263912,13.1098,23,-0.000532676,10,-0.000345984,-1.8824,0.109723,0.537718,273.103,-0.0263912,
2,1,0,1,1,44540.7,-0.0235582,-0.0239777,13.7598,23,-0.000478862,10,-0.000329929,-1.86139,0.120435,0.48989,261.344,-0.0239777,
2,1,0,1,1,44540.7,-0.0211611,-0.0215801,14.369,23,-0.000422523,10,-0.000310084,-1.84257,0.131609,0.448297,249.792,-0.0215801,
2,1,0,1,1,44540.7,-0.0187529,-0.0191369,14.9643,23,-0.000363786,10,-0.000286371,-1.82494,0.144049,0.409584,237.791,-0.0191369,
2,1,0,1,1,44540.7,-0.0163558,-0.0167733,15.5123,23,-0.000302778,10,-0.000260192,-1.80932,0.155409,0.379642,228.865,-0.0167733,
2,1,0,1,1,44540.7,-0.0139587,-0.0143418,16.0512,23,-0.000239595,10,-0.000230203,-1.79449,0.167692,0.351835,219.631,-0.0143418,
2,1,0,1,1,44540.7,-0.0115505,-0.0119304,16.5774,23,-0.000174288,10,-0.000197776,-1.78048,0.180298,0.327236,210.785,-0.0119304,
2,1,0,1,1,44540.7,-0.0091534,-0.00953814,17.0725,23,-0.000106931,10,-0.00016284,-1.7677,0.193829,0.304393,201.97,-0.00953814,
2,1,0,1,1,44540.7,-0.00675629,-0.00715753,17.5391,23,-3.76361e-05,10,-0.000125537,-1.75599,0.207603,0.284197,193.977,-0.00715753,
2,1,0,1,1,44540.7,-0.00435919,-0.00474828,17.9888,23,3.34748e-05,10,-8.54158e-05,-1.745,0.227659,0.259159,180.797,-0.00474828,
2,1,0,1,1,44540.7,-0.00195376,-0.00236131,18.4336,23,0.000106392,10,-4.35274e-05,-1.73439, , , ,-0.00236131,
2,1,0,0,1,44540.7,-7.54729e-05,-0.000516197,18.7036,23,0.000164001,10,-9.65475e-06,-1.72807, , , ,-0.000516197,