File: Figure_codes/Fig_3-5/rawdata_trumpetplot_data/after 10th/20221101_1-115_003_TrumpetPlot_ParaChange_from10_every3_04_CV_C01_2.csv
mode,ox/red,error,control changes,counter inc.,time/s,control/V,Ewe/V,<I>/mA,cycle number,(Q-Qo)/C,I Range,P/W,log(|I|),Tafel slope mV/dec,alpha_eff,dI/d(E-IR),E-IR/V,
2,0,0,1,0,5000.28,2.44065e-05,-0.000363498,-0.377976,3,0.0000000E+000,10,1.37394e-07,-3.42254, , , ,-0.000363498,
2,1,0,1,0,5000.4,0.00129787,0.000990641,0.224888,3,1.04674e-05,10,2.22783e-07,-3.64803, , , ,0.000990641,
2,1,0,1,0,5000.55,0.00279606,0.00246673,0.318514,3,5.55763e-05,10,7.85688e-07,-3.49687,0.0104356,5.65371,51.0561,0.00246673,
2,1,0,1,0,5000.7,0.00429425,0.00399795,0.340996,3,0.000107631,10,1.36329e-06,-3.46725,0.047714,1.23654,16.3243,0.00399795,
2,1,0,1,0,5000.85,0.00579244,0.0054804,0.361661,3,0.000163399,10,1.98205e-06,-3.4417,0.0582471,1.01293,14.2345,0.0054804,
2,1,0,1,0,5001,0.00729063,0.0069883,0.384523,3,0.00022238,10,2.68716e-06,-3.41508,0.0717266,0.822568,12.2171,0.0069883,
2,1,0,1,0,5001.15,0.00878882,0.00851741,0.402747,3,0.000284099,10,3.43036e-06,-3.39497,0.0955254,0.617637,9.58032,0.00851741,
2,1,0,1,0,5001.3,0.010287,0.00999349,0.415821,3,0.000348108,10,4.15551e-06,-3.38109,0.10992,0.536753,8.64824,0.00999349,
2,1,0,1,0,5001.45,0.0117852,0.0114918,0.425028,3,0.000414013,10,4.88436e-06,-3.37158,0.124548,0.473713,7.90293,0.0114918,
2,1,0,1,0,5001.6,0.0132838,0.0129629,0.439763,3,0.000481622,10,5.7006e-06,-3.35678,0.11083,0.532347,9.18071,0.0129629,
2,1,0,1,0,5001.75,0.0147814,0.0144846,0.450516,3,0.000551113,10,6.52556e-06,-3.34629,0.133561,0.441746,7.74983,0.0144846,
2,1,0,1,0,5001.9,0.0162789,0.0159438,0.459003,3,0.000622477,10,7.31825e-06,-3.33818,0.179462,0.32876,5.88588,0.0159438,
2,1,0,1,0,5002.05,0.017778,0.0174662,0.470697,3,0.000695236,10,8.22127e-06,-3.32726,0.176214,0.33482,6.14968,0.0174662,
2,1,0,1,0,5002.2,0.0192761,0.0189624,0.480906,3,0.000769013,10,9.11913e-06,-3.31794,0.175863,0.335489,6.28536,0.0189624,
2,1,0,1,0,5002.35,0.0207743,0.0204586,0.491197,3,0.000844691,10,1.00492e-05,-3.30874,0.1559,0.378447,7.21623,0.0204586,
2,1,0,1,0,5002.5,0.0222725,0.0219602,0.500302,3,0.000921862,10,1.09867e-05,-3.30077,0.172227,0.342571,6.70473,0.0219602,
2,1,0,1,0,5002.65,0.0237707,0.0235052,0.511414,3,0.00100051,10,1.20209e-05,-3.29123,0.187656,0.314405,6.27044,0.0235052,
2,1,0,1,0,5002.8,0.0252689,0.024977,0.517427,3,0.0010804,10,1.29238e-05,-3.28615,0.178936,0.329727,6.70415,0.024977,
2,1,0,1,0,5002.95,0.0267671,0.026433,0.528575,3,0.00116183,10,1.39718e-05,-3.27689,0.161425,0.365495,7.55514,0.026433,
2,1,0,1,0,5003.1,0.0282662,0.0279323,0.541507,3,0.00124484,10,1.51255e-05,-3.2664,0.191528,0.308048,6.48937,0.02793226,
2,1,0,1,0,5003.25,0.0297635,0.0294468,0.550067,3,0.00132949,10,1.61977e-05,-3.25958,0.188726,0.312622,6.70733,0.0294468,
2,1,0,1,0,5003.4,0.031261,0.0309622,0.556059,3,0.00141528,10,1.72168e-05,-3.25488,0.198158,0.297742,6.51127,0.0309622,
2,1,0,1,0,5003.55,0.0327599,0.0324508,0.570671,3,0.00150272,10,1.85187e-05,-3.24361,0.192555,0.306406,6.82218,0.0324508,
2,1,0,1,0,5003.7,0.034258,0.0339608,0.582603,3,0.00159179,10,1.97857e-05,-3.23463,0.204419,0.288623,6.54734,0.0339608,
2,1,0,1,0,5003.85,0.0357562,0.0354698,0.592034,3,0.0016825,10,2.09993e-05,-3.22765,0.236078,0.249918,5.75416,0.0354698,
2,1,0,1,0,5004,0.0372544,0.0369384,0.601725,3,0.00177472,10,2.22268e-05,-3.2206,0.18972,0.310985,7.32348,0.0369384,
2,1,0,1,0,5004.15,0.0387526,0.0384113,0.613306,3,0.00186835,10,2.35579e-05,-3.21232,0.179624,0.328464,7.89869,0.0384113,
2,1,0,1,0,5004.3,0.0402508,0.039968,0.624284,3,0.00196398,10,2.49514e-05,-3.20462,0.185496,0.318065,7.75241,0.039968,
2,1,0,1,0,5004.45,0.041749,0.0414494,0.638082,3,0.00206161,10,2.64481e-05,-3.19512,0.220504,0.267569,6.64217,0.04144939,
2,1,0,1,0,5004.6,0.0432472,0.0429637,0.648548,3,0.00216059,10,2.7864e-05,-3.18806,0.225402,0.261755,6.62639,0.0429637,
2,1,0,1,0,5004.75,0.0447458,0.0444232,0.660782,3,0.00226118,10,2.93541e-05,-3.17994,0.184322,0.320092,8.22225,0.04442323,
2,1,0,1,0,5004.9,0.0462433,0.0459519,0.670794,3,0.00236349,10,3.08243e-05,-3.17341,0.177965,0.331526,8.6499,0.0459519,
2,1,0,1,0,5005.05,0.0477409,0.0474269,0.68197,3,0.00246762,10,3.23437e-05,-3.16623,0.201555,0.292723,7.79116,0.0474269,
2,1,0,1,0,5005.2,0.0492399,0.0489168,0.691971,3,0.00257333,10,3.3849e-05,-3.15991,0.238336,0.24755,6.68655,0.0489168,
2,1,0,1,0,5005.35,0.0507381,0.0504289,0.698128,3,0.00268041,10,3.52058e-05,-3.15606,0.219065,0.269326,7.38106,0.0504289,
2,1,0,1,0,5005.5,0.0522363,0.0519008,0.712719,3,0.00278906,10,3.69906e-05,-3.14708,0.209656,0.281414,7.8377,0.0519008,
2,1,0,1,0,5005.65,0.0537345,0.0534373,0.729691,3,0.00289964,10,3.89927e-05,-3.13686,0.223682,0.263767,7.45267,0.0534373,
2,1,0,1,0,5005.8,0.0552327,0.0549134,0.73589,3,0.00301196,10,4.04102e-05,-3.13319,0.270537,0.218084,6.23215,0.0549134,
2,1,0,1,0,5005.95,0.0567309,0.0563948,0.741051,3,0.00312575,10,4.17914e-05,-3.13015,0.252091,0.234042,6.80406,0.05639476,
2,1,0,1,0,5006.1,0.0582291,0.0578804,0.755224,3,0.00324077,10,4.37126e-05,-3.12192,0.244674,0.241138,7.11865,0.0578804,
2,1,0,1,0,5006.25,0.0597282,0.0594253,0.767071,3,0.0033576,10,4.55834e-05,-3.11516,0.259303,0.227533,6.80015,0.0594253,
2,1,0,1,0,5006.4,0.0612255,0.060912,0.773988,3,0.00347594,10,4.71452e-05,-3.11127,0.298989,0.197332,5.95476,0.060912,
2,1,0,1,0,5006.55,0.062723,0.0624202,0.785462,3,0.0035958,10,4.90287e-05,-3.10488,0.278087,0.212164,6.50968,0.06242023,
2,1,0,1,0,5006.7,0.0642218,0.063913,0.793277,3,0.0037168,10,5.07007e-05,-3.10058,0.268182,0.22,6.84322,0.06391304,
2,1,0,1,0,5006.85,0.06572,0.0654453,0.804487,3,0.00383943,10,5.26499e-05,-3.09448,0.250498,0.235531,7.39583,0.0654453,
2,1,0,1,0,5007,0.0672182,0.0669511,0.814778,3,0.00396378,10,5.45503e-05,-3.08896,0.2942,0.200544,6.35495,0.0669511,
2,1,0,1,0,5007.15,0.0687164,0.0683721,0.823845,3,0.00408938,10,5.63279e-05,-3.08415,0.355249,0.166081,5.33256,0.0683721,
2,1,0,1,0,5007.3,0.0702146,0.0698842,0.829483,3,0.00421584,10,5.79678e-05,-3.08119,0.340896,0.173074,5.62065,0.0698842,
2,1,0,1,0,5007.45,0.0717128,0.0713794,0.841895,3,0.00434388,10,6.00939e-05,-3.07474,0.287819,0.20499,6.71349,0.0713794,
2,1,0,1,0,5007.6,0.073211,0.0728555,0.845237,3,0.00447332,10,6.15801e-05,-3.07302,0.326027,0.180967,6.00085,0.0728555,
2,1,0,1,0,5007.75,0.0747092,0.0744217,0.859383,3,0.00460394,10,6.39567e-05,-3.06581,0.419935,0.140498,4.71043,0.0744217,
2,1,0,1,0,5007.9,0.0762078,0.0759334,0.860795,3,0.0047358,10,6.53631e-05,-3.0651,0.334016,0.176638,5.9594,0.0759334,
2,1,0,1,0,5008.05,0.0777053,0.0773768,0.874236,3,0.00486879,10,6.76456e-05,-3.05837,0.326169,0.180888,6.16385,0.0773768,
2,1,0,1,0,5008.19,0.0792029,0.0789201,0.884733,3,0.00500329,10,6.98232e-05,-3.05319,0.341218,0.17291,5.94084,0.0789201,
2,1,0,1,0,5008.34,0.0807019,0.0803695,0.891626,3,0.00513913,10,7.16595e-05,-3.04982,0.44019,0.134033,4.65102,0.0803695,
2,1,0,1,0,5008.49,0.0822001,0.081906,0.89463,3,0.0052759,10,7.32756e-05,-3.04836,0.401415,0.14698,5.1498,0.081906,
2,1,0,1,0,5008.64,0.0836983,0.0833789,0.907012,3,0.00541366,10,7.56257e-05,-3.04239,0.378891,0.155718,5.51705,0.0833789,
2,1,0,1,0,5008.79,0.0851965,0.0849017,0.915722,3,0.00555299,10,7.77463e-05,-3.03824,0.337508,0.17481,6.25219,0.0849017,
2,1,0,1,0,5008.94,0.0866947,0.0864074,0.926773,3,0.00569372,10,8.00801e-05,-3.03303,0.433236,0.136184,4.90891,0.0864074,
2,1,0,1,0,5009.09,0.0881929,0.0878804,0.932571,3,0.00583579,10,8.19546e-05,-3.03032,0.341473,0.172781,6.30319,0.0878804,
2,1,0,1,0,5009.24,0.0896911,0.0893957,0.944013,3,0.00597899,10,8.43907e-05,-3.02502,0.285766,0.206462,7.62267,0.0893957,
2,1,0,1,0,5009.39,0.0911902,0.0908855,0.956225,3,0.00612407,10,8.6907e-05,-3.01944,0.265656,0.222091,8.2787,0.0908855,
2,1,0,1,0,5009.54,0.0926875,0.0924199,0.970597,3,0.00627119,10,8.97024e-05,-3.01296,0.269493,0.21893,8.26398,0.09241987,
2,1,0,1,0,5009.69,0.094185,0.0938732,0.982187,3,0.00642012,10,9.2201e-05,-3.00781,0.26327,0.224104,8.58973,0.0938732,
2,1,0,1,0,5009.84,0.0956838,0.095335,0.993323,3,0.0065708,10,9.46985e-05,-3.00291,0.218974,0.269439,10.4786,0.095335,
2,1,0,1,0,5009.99,0.097182,0.0968864,1.01093,3,0.00672372,10,9.79453e-05,-2.99528,0.18867,0.312715,12.3293,0.0968864,
2,1,0,1,0,5010.14,0.0986802,0.0983699,1.02829,3,0.00687923,10,0.000101153,-2.98789,0.198038,0.297923,11.9494,0.0983699,
2,1,0,1,0,5010.29,0.100178,0.0998566,1.04611,3,0.00703744,10,0.000104461,-2.98042,0.209973,0.280989,11.449,0.09985657,
2,1,0,1,0,5010.44,0.101677,0.101355,1.05961,3,0.0071981,10,0.000107397,-2.97485,0.203073,0.290536,12.065,0.101355,
2,1,0,1,0,5010.59,0.103175,0.102838,1.08189,3,0.00736139,10,0.00011126,-2.96582,0.19046,0.309777,13.0992,0.102838,
2,1,0,1,0,5010.74,0.104673,0.104365,1.10578,3,0.00752784,10,0.000115406,-2.95633,0.193512,0.304891,13.1203,0.104365,
2,1,0,1,0,5010.89,0.106171,0.105854,1.12566,3,0.00769766,10,0.000119156,-2.94859,0.204293,0.2888,12.6309,0.105854,
2,1,0,1,0,5011.04,0.10767,0.107385,1.14187,3,0.00787044,10,0.00012262,-2.94238,0.201167,0.293288,13.0781,0.107385,
2,1,0,1,0,5011.19,0.109167,0.108867,1.16367,3,0.00804574,10,0.000126684,-2.93417,0.194939,0.302658,13.7719,0.108867,
2,1,0,1,0,5011.34,0.110665,0.110382,1.18133,3,0.00822425,10,0.000130398,-2.92763,0.201994,0.292087,13.4599,0.110382,
2,1,0,1,0,5011.49,0.112164,0.111814,1.20081,3,0.00840599,10,0.000134267,-2.92053,0.234865,0.251208,11.7549,0.111814,
2,1,0,1,0,5011.64,0.113662,0.113303,1.22036,3,0.00859025,10,0.00013827,-2.91351,0.253563,0.232684,11.0668,0.113303,
2,1,0,1,0,5011.79,0.11516,0.114842,1.23525,3,0.00877681,10,0.000141858,-2.90825,0.25155,0.234546,11.3153,0.114842,
2,1,0,1,0,5011.94,0.116658,0.11636,1.25463,3,0.00896611,10,0.000145988,-2.90149,0.248274,0.237641,11.5884,0.1163597,
2,1,0,1,0,5012.09,0.118157,0.117864,1.27137,3,0.00915828,10,0.000149849,-2.89573,0.273395,0.215805,10.6777,0.117864,
2,1,0,1,0,5012.24,0.119655,0.119346,1.2835,3,0.00935242,10,0.000153181,-2.8916,0.377223,0.156406,7.84271,0.119346,
2,1,0,1,0,5012.39,0.121153,0.120878,1.29638,3,0.00954838,10,0.000156704,-2.88727,0.306565,0.192455,9.76771,0.120878,
2,1,0,1,0,5012.54,0.122652,0.122338,1.31293,3,0.00974665,10,0.000160622,-2.88176,0.271395,0.217396,11.1142,0.122338,
2,1,0,1,0,5012.69,0.124149,0.123824,1.32585,3,0.00994729,10,0.000164172,-2.87751,0.310361,0.190101,9.84056,0.123824,
2,1,0,1,0,5012.84,0.125647,0.125303,1.33919,3,0.01015,10,0.000167805,-2.87316,0.333765,0.176771,9.23657,0.125303,
2,1,0,1,0,5012.99,0.127146,0.12686,1.35005,3,0.0103549,10,0.000171267,-2.86965,0.347404,0.169831,8.97318,0.12686,
2,1,0,1,0,5013.14,0.128644,0.128371,1.36658,3,0.0105614,10,0.000175429,-2.86436,0.333846,0.176728,9.44065,0.128371,
2,1,0,1,0,5013.29,0.130142,0.129874,1.38381,3,0.0107704,10,0.00017972,-2.85892,0.349091,0.169011,9.10186,0.129874,
2,1,0,1,0,5013.44,0.13164,0.131336,1.39408,3,0.0109816,10,0.000183092,-2.85571,0.67231,0.0877571,4.75285,0.131336,
2,1,0,1,0,5013.59,0.133139,0.132838,1.40172,3,0.0111941,10,0.000186202,-2.85334,0.825133,0.0715036,3.91212,0.132838,
2,1,0,1,0,5013.74,0.134637,0.13431,1.40714,3,0.0114069,10,0.000188993,-2.85166,1.81255,0.0325508,1.78648,0.13431,
2,1,0,1,0,5013.89,0.136135,0.135818,1.4098,3,0.0116208,10,0.000191477,-2.85084,-6.02809,-0.00978751,-0.536003,0.135818,
2,1,0,1,0,5014.04,0.137633,0.137344,1.40871,3,0.0118346,10,0.000193478,-2.85118,-0.671014,-0.0879267,-4.79615,0.137344,
2,1,0,1,0,5014.19,0.139132,0.13883,1.39841,3,0.0120475,10,0.000194141,-2.85437,-0.350482,-0.168339,-9.11803,0.13883,
2,1,0,1,0,5014.34,0.140629,0.140329,1.37671,3,0.0122579,10,0.000193192,-2.86116,-0.24234,-0.243459,-13.0381,0.140329,
2,1,0,1,0,5014.49,0.142127,0.141856,1.35573,3,0.0124655,10,0.000192319,-2.86783,-0.197632,-0.298535,-15.6994,0.141856,
2,1,0,1,0,5014.64,0.143626,0.143309,1.32661,3,0.0126697,10,0.000190115,-2.87726,-0.137929,-0.427756,-22.0251,0.143309,
2,1,0,1,0,5014.79,0.145124,0.14482,1.28907,3,0.0128685,10,0.000186683,-2.88972,-0.105829,-0.557501,-27.9509,0.14482,
2,1,0,1,0,5014.94,0.146622,0.146308,1.24042,3,0.013061,10,0.000181484,-2.90643,-0.093785,-0.629098,-30.4603,0.146308,
2,1,0,1,0,5015.09,0.14812,0.147778,1.19816,3,0.0132467,10,0.000177062,-2.92148,-0.0860766,-0.685436,-31.9019,0.147778,
2,1,0,1,0,5015.24,0.149619,0.149329,1.14985,3,0.0134251,10,0.000171705,-2.93936,-0.0767218,-0.769012,-34.3389,0.1493288,
2,1,0,1,0,5015.39,0.151117,0.150806,1.09562,3,0.0135959,10,0.000165226,-2.96034,-0.0749836,-0.786839,-33.623,0.150806,
2,1,0,1,0,5015.54,0.152615,0.152291,1.04391,3,0.013759,10,0.000158977,-2.98134,-0.0740868,-0.796364,-32.4853,0.152291,
2,1,0,1,0,5015.69,0.154114,0.153775,0.998813,3,0.0139147,10,0.000153592,-3.00052,-0.0744702,-0.792264,-30.9387,0.153775,
2,1,0,1,0,5015.84,0.155612,0.155324,0.953913,3,0.0140634,10,0.000148165,-3.02049,-0.0779409,-0.756984,-28.2165,0.155324,
2,1,0,1,0,5015.99,0.157109,0.156776,0.911494,3,0.014206,10,0.000142901,-3.04025,-0.0777693,-0.758654,-26.9946,0.156776,
2,1,0,1,0,5016.14,0.158608,0.1583,0.871894,3,0.0143425,10,0.000138021,-3.05954,-0.0852661,-0.691951,-23.6689,0.1583,
2,1,0,1,0,5016.29,0.160106,0.159799,0.840213,3,0.0144733,10,0.000134265,-3.07561,-0.0929161,-0.634981,-20.8902,0.159799,
2,1,0,1,0,5016.43,0.161604,0.161292,0.809113,3,0.0145995,10,0.000130504,-3.09199,-0.101303,-0.58241,-18.4155,0.1612923,
2,1,0,1,0,5016.58,0.163102,0.162822,0.783574,3,0.0147216,10,0.000127584,-3.10592,-0.101279,-0.582552,-17.8196,0.162822,
2,1,0,1,0,5016.73,0.164601,0.164282,0.759532,3,0.0148397,10,0.000124777,-3.11945,-0.108043,-0.546076,-16.2055,0.164282,
2,1,0,1,0,5016.88,0.166099,0.165784,0.73556,3,0.0149543,10,0.000121944,-3.13338,-0.120421,-0.489947,-14.1088,0.165784,
2,1,0,1,0,5017.03,0.167597,0.167292,0.716706,3,0.0150659,10,0.000119899,-3.14466,-0.144605,-0.408007,-11.4382,0.167292,
2,1,0,1,0,5017.18,0.169095,0.168795,0.701559,3,0.0151749,10,0.000118419,-3.15394,-0.154991,-0.380668,-10.4367,0.168795,
2,1,0,1,0,5017.33,0.170594,0.170295,0.683584,3,0.0152814,10,0.000116411,-3.16521,-0.155957,-0.37831,-10.1328,0.170295,
2,1,0,1,0,5017.48,0.172091,0.171759,0.669558,3,0.0153856,10,0.000115003,-3.17421,-0.182046,-0.324094,-8.50062,0.171759,
2,1,0,1,0,5017.63,0.173589,0.1733,0.658029,3,0.0154878,10,0.000114037,-3.18175,-0.188116,-0.313637,-8.05784,0.1733,
2,1,0,1,0,5017.78,0.175088,0.174787,0.648582,3,0.0155885,10,0.000113364,-3.18803,-0.20849,-0.282987,-7.14968,0.174787,
2,1,0,1,0,5017.93,0.176586,0.176324,0.635918,3,0.0156874,10,0.000112127,-3.1966,-0.202958,-0.290701,-7.21209,0.176324,
2,1,0,1,0,5018.08,0.178084,0.177737,0.624616,3,0.0157848,10,0.000111017,-3.20439,-0.242471,-0.243328,-5.96834,0.177737,
2,1,0,1,0,5018.23,0.179582,0.179287,0.618235,3,0.0158809,10,0.000110842,-3.20885,-0.283137,-0.20838,-5.04067,0.179287,
2,1,0,1,0,5018.38,0.181081,0.180768,0.611701,3,0.0159759,10,0.000110576,-3.21346,-0.289638,-0.203703,-4.87566,0.1807677,
2,1,0,1,0,5018.53,0.182579,0.182315,0.603032,3,0.0160699,10,0.000109942,-3.21966,-0.247449,-0.238433,-5.62669,0.182315,
2,1,0,1,0,5018.68,0.184077,0.183769,0.599305,3,0.0161628,10,0.000110133,-3.22235,-0.337869,-0.174624,-4.09159,0.183769,
2,1,0,1,0,5018.83,0.185576,0.185282,0.593756,3,0.0162547,10,0.000110012,-3.22639,-0.366606,-0.160936,-3.7255,0.185282,
2,1,0,1,0,5018.98,0.187074,0.186787,0.588542,3,0.0163459,10,0.000109932,-3.23022,-0.415255,-0.142081,-3.25994,0.186787,
2,1,0,1,0,5019.13,0.188571,0.188245,0.583076,3,0.0164363,10,0.000109761,-3.23427,-0.5711,-0.103309,-2.35111,0.1882451,
2,1,0,1,0,5019.28,0.19007,0.189777,0.578466,3,0.0165262,10,0.000109779,-3.23772,-0.496434,-0.118848,-2.68856,0.189777,
2,1,0,1,0,5019.43,0.191568,0.19131,0.572559,3,0.0166151,10,0.000109536,-3.24218,-0.507848,-0.116176,-2.60539,0.19131,
2,1,0,1,0,5019.58,0.193066,0.192725,0.571184,3,0.0167037,10,0.000110081,-3.24322,-0.77306,-0.07632,-1.69623,0.192725,
2,1,0,1,0,5019.73,0.194564,0.194248,0.565722,3,0.0167918,10,0.00010989,-3.2474,-0.608276,-0.0969955,-2.14801,0.1942476,
2,1,0,1,0,5019.88,0.196063,0.195752,0.563919,3,0.0168793,10,0.000110389,-3.24878,-0.431815,-0.136633,-3.01506,0.195752,
2,1,0,1,0,5020.03,0.197561,0.197251,0.559028,3,0.0169662,10,0.000110269,-3.25257,-0.485455,-0.121535,-2.65862,0.197251,
2,1,0,1,0,5020.18,0.199059,0.198762,0.558961,3,0.0170526,10,0.0001111,-3.25262,-0.717929,-0.0821808,-1.79091,0.198762,
2,1,0,1,0,5020.33,0.200557,0.200261,0.555105,3,0.0171385,10,0.000111166,-3.25562,-0.826862,-0.0713541,-1.54429,0.200261,
2,1,0,1,0,5020.48,0.202056,0.201748,0.553779,3,0.0172243,10,0.000111724,-3.25666,-0.72069,-0.081866,-1.75999,0.201748,
2,1,0,1,0,5020.63,0.203553,0.203268,0.547738,3,0.0173096,10,0.000111338,-3.26143,-0.775655,-0.0760648,-1.63392,0.203268,
2,1,0,1,0,5020.78,0.205051,0.204735,0.547121,3,0.0173943,10,0.000112015,-3.26192,-4.10428,-0.0143752,-0.309393,0.2047354,
2,1,0,1,0,5020.93,0.20655,0.206227,0.542745,3,0.0174789,10,0.000111929,-3.2654,-0.83853,-0.0703612,-1.49779,0.206227,
2,1,0,1,0,5021.08,0.208048,0.207722,0.543363,3,0.0175635,10,0.000112869,-3.26491,-0.521794,-0.113072,-2.39205,0.207722,
2,1,0,1,0,5021.23,0.209546,0.209256,0.540345,3,0.0176474,10,0.00011307,-3.26733,-1.01209,-0.0582951,-1.23173,0.209256,
2,1,0,1,0,5021.38,0.211044,0.210741,0.540266,3,0.0177308,10,0.000113856,-3.26739,-0.810972,-0.0727522,-1.53226,0.210741,
2,1,0,1,0,5021.53,0.212543,0.212231,0.536594,3,0.0178141,10,0.000113882,-3.27035,-1.1059,-0.05335,-1.11482,0.212231,
2,1,0,1,0,5021.68,0.214041,0.213739,0.534968,3,0.0178971,10,0.000114344,-3.27167,-0.741558,-0.0795622,-1.65989,0.213739,
2,1,0,1,0,5021.83,0.215539,0.21523,0.532819,3,0.0179798,10,0.000114678,-3.27342,-0.669662,-0.0881041,-1.831,0.21523,
2,1,0,1,0,5021.98,0.217038,0.216724,0.531339,3,0.018062,10,0.000115154,-3.27463,-0.854635,-0.0690353,-1.43323,0.216724,
2,1,0,1,0,5022.13,0.218535,0.218266,0.529353,3,0.0181441,10,0.00011554,-3.27625,-28.4233,-0.00207576,-0.04282,0.218266,
2,1,0,1,0,5022.28,0.220033,0.219743,0.528458,3,0.018226,10,0.000116125,-3.27699,-0.970245,-0.0608094,-1.25359,0.219743,
2,1,0,1,0,5022.43,0.221532,0.221252,0.526529,3,0.0183078,10,0.000116496,-3.27858,-1.12874,-0.0522708,-1.0732,0.221252,
2,1,0,1,0,5022.58,0.22303,0.22276,0.522622,3,0.0183891,10,0.000116419,-3.28181,-0.951071,-0.0620353,-1.26888,0.22276,
2,1,0,1,0,5022.73,0.224528,0.224257,0.521773,3,0.0184702,10,0.000117011,-3.28252,-1.28513,-0.0459098,-0.934669,0.2242571,
2,1,0,1,0,5022.88,0.226026,0.225794,0.521082,3,0.018551,10,0.000117657,-3.28309,-2.45738,-0.0240093,-0.489339,0.225794,
2,1,0,1,0,5023.03,0.227525,0.227228,0.518193,3,0.0186317,10,0.000117748,-3.28551,-0.649123,-0.0908919,-1.83492,0.227228,
2,1,0,1,0,5023.18,0.229023,0.22873,0.517601,3,0.0187122,10,0.000118391,-3.286,-0.986201,-0.0598255,-1.21035,0.2287299,
2,1,0,1,0,5023.33,0.230521,0.230245,0.515793,3,0.0187923,10,0.000118759,-3.28752,-0.943253,-0.0625495,-1.26404,0.230245,
2,1,0,1,0,5023.48,0.232019,0.231723,0.517367,3,0.0188723,10,0.000119886,-3.2862,-1.20601,-0.0489218,-0.98561,0.231723,
2,1,0,1,0,5023.63,0.233518,0.233228,0.515252,3,0.0189523,10,0.000120171,-3.28798,-0.835699,-0.0705996,-1.41295,0.233228,
2,1,0,1,0,5023.78,0.235015,0.234739,0.514386,3,0.019032,10,0.000120747,-3.28871,-0.945618,-0.0623931,-1.24888,0.234739,
2,1,0,1,0,5023.93,0.236513,0.236237,0.51263,3,0.0191113,10,0.000121102,-3.2902,-2.61321,-0.0225776,-0.450522,0.236237,
2,1,0,1,0,5024.08,0.238012,0.237731,0.50945,3,0.0191906,10,0.000121112,-3.2929,-4.5643,-0.0129264,-0.256638,0.237731,
2,1,0,1,0,5024.23,0.23951,0.239228,0.509026,3,0.0192697,10,0.000121773,-3.29326,-2.34603,-0.0251489,-0.499916,0.239228,
2,1,0,1,0,5024.38,0.241008,0.240696,0.507483,3,0.0193486,10,0.000122149,-3.29458,-1.23589,-0.0477387,-0.946019,0.240696,
2,1,0,1,0,5024.53,0.242506,0.242176,0.504801,3,0.0194272,10,0.000122251,-3.29688,-1.55252,-0.0380026,-0.750086,0.242176,
2,1,0,1,0,5024.67,0.244005,0.24369,0.504271,3,0.0195058,10,0.000122886,-3.29734,-3.36984,-0.0175083,-0.344751,0.24369,
2,1,0,1,0,5024.82,0.245503,0.245222,0.506791,3,0.0195843,10,0.000124277,-3.29517,-1.09118,-0.0540698,-1.06386,0.245222,
2,1,0,1,0,5024.97,0.247001,0.246713,0.502946,3,0.0196625,10,0.000124083,-3.29848,-1.52822,-0.0386069,-0.758517,0.246713,
2,1,0,1,0,5025.12,0.2485,0.248207,0.499506,3,0.0197406,10,0.000123981,-3.30146,-1.13779,-0.051855,-1.01486,0.248207,
2,1,0,1,0,5025.27,0.249997,0.249731,0.500923,3,0.0198184,10,0.000125096,-3.30023,-1.47053,-0.0401216,-0.784935,0.249731,
2,1,0,1,0,5025.42,0.251495,0.251184,0.500678,3,0.0198962,10,0.000125762,-3.30044,-7.51731,-0.00784855,-0.15305,0.251184,
2,1,0,1,0,5025.57,0.252994,0.252708,0.498002,3,0.0199739,10,0.000125849,-3.30277,-0.880387,-0.067016,-1.30264,0.252708,
2,1,0,1,0,5025.72,0.254492,0.254196,0.499174,3,0.0200514,10,0.000126888,-3.30175,-5.9097,-0.00998358,-0.194141,0.254196,
2,1,0,1,0,5025.87,0.25599,0.255705,0.495749,3,0.0201285,10,0.000126765,-3.30474,-4.49149,-0.0131359,-0.25552,0.255705,
2,1,0,1,0,5026.02,0.257488,0.257181,0.496568,3,0.0202057,10,0.000127708,-3.30402,-1.52489,-0.0386913,-0.747967,0.2571806,
2,1,0,1,0,5026.17,0.258987,0.258692,0.495947,3,0.0202828,10,0.000128297,-3.30457,-1.32232,-0.0446186,-0.862069,0.2586917,
2,1,0,1,0,5026.32,0.260485,0.260222,0.495737,3,0.0203598,10,0.000129002,-3.30475,-1.25892,-0.0468657,-0.903847,0.2602219,
2,1,0,1,0,5026.47,0.261983,0.261678,0.494386,3,0.0204364,10,0.00012937,-3.30593,-1.48468,-0.0397392,-0.765295,0.2616778,
2,1,0,1,0,5026.62,0.263481,0.263155,0.492232,3,0.020513,10,0.000129533,-3.30783,-3.02158,-0.0195262,-0.374472,0.263155,
2,1,0,1,0,5026.77,0.26498,0.264696,0.492607,3,0.0205895,10,0.000130391,-3.3075,-1.83672,-0.0321225,-0.61627,0.264696,
2,1,0,1,0,5026.92,0.266477,0.266189,0.489756,3,0.0206659,10,0.000130368,-3.31002,-4.4433,-0.0132784,-0.255054,0.266189,
2,1,0,1,0,5027.07,0.267976,0.267678,0.487354,3,0.0207419,10,0.000130454,-3.31216,-1.35928,-0.0434053,-0.829654,0.267678,
2,1,0,1,0,5027.22,0.269474,0.269206,0.488441,3,0.0208179,10,0.000131491,-3.31119,4.49653,0.0131212,0.249719,0.269206,
2,1,0,1,0,5027.37,0.270972,0.270682,0.490119,3,0.0208939,10,0.000132666,-3.3097,-10.3474,-0.00570194,-0.108222,0.270682,
2,1,0,1,0,5027.52,0.27247,0.272158,0.486774,3,0.0209698,10,0.000132479,-3.31267,-1.08177,-0.05454,-1.03534,0.272158,
2,1,0,1,0,5027.67,0.273968,0.273666,0.484577,3,0.0210454,10,0.000132612,-3.31464,-1.1243,-0.0524772,-0.994837,0.2736657,
2,1,0,1,0,5027.82,0.275467,0.275134,0.484533,3,0.0211208,10,0.000133312,-3.31468,-1.04391,-0.0565183,-1.06875,0.275134,
2,1,0,1,0,5027.97,0.276965,0.276688,0.485028,3,0.0211962,10,0.000134201,-3.31423,-1.44197,-0.0409161,-0.774491,0.276688,
2,1,0,1,0,5028.12,0.278463,0.278152,0.483093,3,0.0212715,10,0.000134374,-3.31597,-0.71276,-0.0827768,-1.55857,0.278152,
2,1,0,1,0,5028.27,0.279962,0.279691,0.48258,3,0.0213466,10,0.000134974,-3.31643,-0.872233,-0.0676425,-1.27207,0.279691,
2,1,0,1,0,5028.42,0.281459,0.281227,0.48327,3,0.0214214,10,0.000135908,-3.31581,-2.31135,-0.0255262,-0.480189,0.281227,
2,1,0,1,0,5028.57,0.282957,0.282639,0.480233,3,0.0214962,10,0.000135733,-3.31855,-2.58105,-0.0228589,-0.428667,0.282639,
2,1,0,1,0,5028.72,0.284456,0.284149,0.481359,3,0.021571,10,0.000136778,-3.31753,-6.50375,-0.00907169,-0.169825,0.284149,
2,1,0,1,0,5028.87,0.285954,0.285679,0.477982,3,0.0216455,10,0.000136549,-3.32059,-5.38327,-0.0109599,-0.204346,0.285679,
2,1,0,1,0,5029.02,0.287452,0.287132,0.477378,3,0.0217198,10,0.00013707,-3.32114,-2.06276,-0.0286025,-0.533949,0.287132,
2,1,0,1,0,5029.17,0.28895,0.288614,0.475399,3,0.021794,10,0.000137207,-3.32294,6.47914,0.00910614,0.169196,0.288614,
2,1,0,1,0,5029.32,0.290449,0.290177,0.474928,3,0.0218682,10,0.000137813,-3.32337,-1.41877,-0.0415852,-0.774067,0.290177,
2,1,0,1,0,5029.47,0.291947,0.291634,0.474351,3,0.0219422,10,0.000138337,-3.3239,-1.05084,-0.0561453,-1.04238,0.291634,
2,1,0,1,0,5029.62,0.293445,0.293121,0.471648,3,0.022016,10,0.00013825,-3.32638,-1.80611,-0.0326668,-0.605825,0.293121,
2,1,0,1,0,5029.77,0.294943,0.294668,0.474775,3,0.0220896,10,0.000139901,-3.32351,-11.7309,-0.00502946,-0.0927603,0.294668,
2,1,0,1,0,5029.92,0.296442,0.296176,0.475612,3,0.0221633,10,0.000140865,-3.32275,-1.6565,-0.0356172,-0.655293,0.296176,
2,1,0,1,0,5030.07,0.297939,0.297679,0.47044,3,0.0222369,10,0.00014004,-3.3275,-1.19036,-0.0495649,-0.91085,0.297679,
2,1,0,1,0,5030.22,0.299437,0.299118,0.470534,3,0.0223102,10,0.000140745,-3.32741,-0.00150517,-39.1983,-248.535,0.299118,
2,1,0,1,0,5030.3,0.299738,0.299467,0.165364,3,0.0223435,10,4.95213e-05,-3.78156,0.00106933,55.1748,411.878,0.299467,
2,0,0,1,0,5030.45,0.29824,0.297957,-0.017213,3,0.0223454,10,-5.12873e-06,-4.76414,0.0041438,14.2381,146.851,0.297957,
2,0,0,1,0,5030.6,0.296741,0.296454,-0.051515,3,0.022337,10,-1.52718e-05,-4.28807,-0.00261766,-22.5392,19.1098,0.296454,
2,0,0,1,0,5030.75,0.295243,0.29494,-0.0733874,3,0.0223247,10,-2.16449e-05,-4.13438,-0.0120737,-4.88666,12.1654,0.29494,
2,0,0,1,0,5030.9,0.293745,0.293426,-0.0893707,3,0.0223097,10,-2.62237e-05,-4.04881,-0.0190275,-3.10078,10.1106,0.293426,
2,0,0,1,0,5031.05,0.292246,0.291911,-0.10258,3,0.0222927,10,-2.99443e-05,-3.98894,-0.0276452,-2.13418,8.27798,0.291911,
2,0,0,1,0,5031.2,0.290748,0.290437,-0.115136,3,0.0222737,10,-3.34397e-05,-3.93879,-0.0343576,-1.71723,7.4888,0.2904371,
2,0,0,1,0,5031.35,0.28925,0.288945,-0.122968,3,0.022253,10,-3.55311e-05,-3.91021,-0.0462568,-1.27549,6.11074,0.288945,
2,0,0,1,0,5031.5,0.287752,0.287421,-0.132409,3,0.0222311,10,-3.80571e-05,-3.87808,-0.0561153,-1.05141,5.45737,0.287421,
2,0,0,1,0,5031.65,0.286253,0.285949,-0.140474,3,0.0222079,10,-4.01684e-05,-3.8524,-0.0579955,-1.01732,5.59096,0.285949,
2,0,0,1,0,5031.8,0.284755,0.284502,-0.147951,3,0.0221835,10,-4.20923e-05,-3.82988,-0.0626854,-0.941207,5.39604,0.284502,
2,0,0,1,0,5031.95,0.283258,0.282938,-0.157352,3,0.0221579,10,-4.45209e-05,-3.80313,-0.0810657,-0.727805,4.42092,0.282938,
2,0,0,1,0,5032.1,0.281759,0.281483,-0.16262,3,0.0221312,10,-4.57749e-05,-3.78883,-0.0956645,-0.616739,3.89873,0.281483,
2,0,0,1,0,5032.25,0.280261,0.279962,-0.165933,3,0.0221037,10,-4.6455e-05,-3.78007,-0.0981063,-0.601388,3.94175,0.279962,
2,0,0,1,0,5032.4,0.278763,0.27847,-0.174187,3,0.0220753,10,-4.85058e-05,-3.75899,-0.103291,-0.571201,3.88943,0.2784704,
2,0,0,1,0,5032.55,0.277264,0.276947,-0.181516,3,0.0220459,10,-5.02702e-05,-3.74109,-0.11867,-0.497176,3.49282,0.2769466,
2,0,0,1,0,5032.7,0.275766,0.275476,-0.184696,3,0.0220158,10,-5.08793e-05,-3.73354,-0.165426,-0.356655,2.55775,0.275476,
2,0,0,1,0,5032.85,0.274268,0.273997,-0.190364,3,0.0219847,10,-5.21591e-05,-3.72041,-0.132571,-0.445045,3.31122,0.273997,
2,0,0,1,0,5033,0.27277,0.272483,-0.197222,3,0.021953,10,-5.37398e-05,-3.70504,-0.13396,-0.440429,3.3776,0.272483,
2,0,0,1,0,5033.15,0.271272,0.270965,-0.202281,3,0.0219205,10,-5.4811e-05,-3.69404,-0.126476,-0.466491,3.66964,0.270965,
2,0,0,1,0,5033.3,0.269773,0.269463,-0.207501,3,0.0218871,10,-5.5914e-05,-3.68298,-0.145393,-0.405797,3.23617,0.269463,
2,0,0,1,0,5033.45,0.268275,0.267976,-0.21049,3,0.021853,10,-5.64062e-05,-3.67677,-0.186296,-0.316701,2.59924,0.267976,
2,0,0,1,0,5033.6,0.266778,0.2665,-0.214412,3,0.0218186,10,-5.7141e-05,-3.66875,-0.150637,-0.391669,3.27471,0.2665005,
2,0,0,1,0,5033.75,0.265279,0.264966,-0.219207,3,0.0217832,10,-5.80823e-05,-3.65915,-0.144641,-0.407908,3.47202,0.264966,
2,0,0,1,0,5033.9,0.263781,0.263516,-0.223391,3,0.0217473,10,-5.88669e-05,-3.65093,-0.161257,-0.365875,3.19569,0.2635155,
2,0,0,1,0,5034.05,0.262283,0.261954,-0.226306,3,0.0217106,10,-5.92816e-05,-3.6453,-0.179486,-0.328716,2.92115,0.2619535,
2,0,0,1,0,5034.2,0.260784,0.260482,-0.229415,3,0.0216735,10,-5.97585e-05,-3.63938,-0.209682,-0.281378,2.54154,0.260482,
2,0,0,1,0,5034.35,0.259286,0.259028,-0.235425,3,0.0216357,10,-6.09817e-05,-3.62815,-0.183772,-0.32105,2.95399,0.259028,
2,0,0,1,0,5034.5,0.257788,0.257475,-0.241332,3,0.0215972,10,-6.21371e-05,-3.61738,-0.278531,-0.211826,1.97875,0.257475,
2,0,0,1,0,5034.65,0.25629,0.255951,-0.244403,3,0.0215581,10,-6.25552e-05,-3.61189,-0.260957,-0.226091,2.14513,0.255951,
2,0,0,1,0,5034.8,0.254791,0.254466,-0.245394,3,0.0215187,10,-6.24445e-05,-3.61014,-0.231755,-0.254579,2.45492,0.254466,
2,0,0,1,0,5034.95,0.253293,0.253027,-0.252361,3,0.0214787,10,-6.38541e-05,-3.59798,-0.19657,-0.300148,2.95618,0.253027,
2,0,0,1,0,5035.1,0.251796,0.251501,-0.252829,3,0.0214382,10,-6.35869e-05,-3.59717,-0.219859,-0.268354,2.66459,0.251501,
2,0,0,1,0,5035.25,0.250297,0.249984,-0.257489,3,0.0213969,10,-6.43681e-05,-3.58924,-0.380036,-0.155249,1.55372,0.249984,
2,0,0,1,0,5035.4,0.248799,0.248485,-0.260063,3,0.0213552,10,-6.46218e-05,-3.58492,-0.232591,-0.253664,2.5855,0.248485,
2,0,0,1,0,5035.55,0.247301,0.246972,-0.264421,3,0.0213132,10,-6.53046e-05,-3.5777,-0.396226,-0.148905,1.54012,0.2469721,
2,0,0,1,0,5035.7,0.245802,0.245506,-0.267948,3,0.0212705,10,-6.57828e-05,-3.57195,-0.268318,-0.219889,2.29041,0.245506,
2,0,0,1,0,5035.85,0.244304,0.243977,-0.27092,3,0.0212273,10,-6.60983e-05,-3.56716,-0.297531,-0.198299,2.09354,0.243977,
2,0,0,1,0,5036,0.242806,0.242494,-0.273452,3,0.0211837,10,-6.63104e-05,-3.56312,-0.342619,-0.172203,1.84107,0.242494,
2,0,0,1,0,5036.15,0.241308,0.241047,-0.275955,3,0.0211398,10,-6.65179e-05,-3.55916,-0.323623,-0.182311,1.98613,0.241047,
2,0,0,1,0,5036.3,0.23981,0.239497,-0.279468,3,0.0210953,10,-6.69318e-05,-3.55367,-0.250184,-0.235827,2.58015,0.239497,
2,0,0,1,0,5036.45,0.238311,0.23798,-0.283198,3,0.0210502,10,-6.73955e-05,-3.54791,-0.284029,-0.207725,2.31388,0.23798,
2,0,0,1,0,5036.6,0.236814,0.236495,-0.285503,3,0.0210048,10,-6.752e-05,-3.54439,-0.295396,-0.199732,2.23239,0.236495,
2,0,0,1,0,5036.75,0.235316,0.235017,-0.286805,3,0.0209588,10,-6.74039e-05,-3.54241,-0.241541,-0.244265,2.76783,0.235017,
2,0,0,1,0,5036.9,0.233817,0.23353,-0.295115,3,0.0209123,10,-6.89184e-05,-3.53001,-0.268721,-0.219558,2.50424,0.23353,
2,0,0,1,0,5037.05,0.232319,0.231972,-0.29644,3,0.0208653,10,-6.87657e-05,-3.52806,-0.29898,-0.197338,2.27647,0.231972,
2,0,0,1,0,5037.2,0.230821,0.23051,-0.30048,3,0.0208178,10,-6.92638e-05,-3.52218,-0.364352,-0.161932,1.88174,0.23051,
2,0,0,1,0,5037.35,0.229322,0.229028,-0.300259,3,0.0207699,10,-6.87678e-05,-3.5225,-0.334356,-0.176459,2.08262,0.229028,
2,0,0,1,0,5037.49,0.227824,0.2275,-0.303931,3,0.0207217,10,-6.91443e-05,-3.51722,-0.345568,-0.170734,2.03773,0.2275,
2,0,0,1,0,5037.64,0.226326,0.226065,-0.308693,3,0.0206728,10,-6.97846e-05,-3.51047,-0.309881,-0.190396,2.30364,0.226065,
2,0,0,1,0,5037.79,0.224828,0.224558,-0.311372,3,0.0206235,10,-6.99212e-05,-3.50672,-0.763951,-0.0772301,0.937469,0.224558,
2,0,0,1,0,5037.94,0.223329,0.223022,-0.31521,3,0.0205737,10,-7.02986e-05,-3.5014,-0.315089,-0.187249,2.30406,0.223022,
2,0,0,1,0,5038.09,0.221831,0.221548,-0.318903,3,0.0205236,10,-7.06526e-05,-3.49634,-0.335249,-0.175989,2.18197,0.221548,
2,0,0,1,0,5038.24,0.220334,0.220021,-0.323352,3,0.0204728,10,-7.11441e-05,-3.49032,-0.26688,-0.221073,2.77493,0.2200205,
2,0,0,1,0,5038.39,0.218835,0.218536,-0.324956,3,0.0204214,10,-7.10146e-05,-3.48818,-0.269757,-0.218716,2.76211,0.218536,
2,0,0,1,0,5038.54,0.217337,0.217071,-0.32684,3,0.0203697,10,-7.09475e-05,-3.48566,-0.440541,-0.133926,1.71789,0.217071,
2,0,0,1,0,5038.69,0.215839,0.215544,-0.331431,3,0.0203176,10,-7.14379e-05,-3.47961,-0.400176,-0.147435,1.90801,0.215544,
2,0,0,1,0,5038.84,0.21434,0.214035,-0.334134,3,0.0202649,10,-7.15163e-05,-3.47608,-0.313673,-0.188094,2.45004,0.2140348,
2,0,0,1,0,5038.99,0.212842,0.212504,-0.337052,3,0.0202117,10,-7.16248e-05,-3.4723,-0.349115,-0.168999,2.22445,0.212504,
2,0,0,1,0,5039.14,0.211344,0.211065,-0.342187,3,0.020158,10,-7.22237e-05,-3.46574,-0.456931,-0.129122,1.72485,0.211065,
2,0,0,1,0,5039.29,0.209846,0.209579,-0.342388,3,0.0201039,10,-7.17573e-05,-3.46548,-0.35278,-0.167243,2.24734,0.209579,
2,0,0,1,0,5039.44,0.208348,0.208059,-0.350585,3,0.0200492,10,-7.29426e-05,-3.45521,-0.300563,-0.196299,2.68433,0.208059,
2,0,0,1,0,5039.59,0.206849,0.206536,-0.358531,3,0.0199938,10,-7.40497e-05,-3.44547,-0.264501,-0.223061,3.05672,0.206536,
2,0,0,1,0,5039.74,0.205352,0.205013,-0.356256,3,0.0199377,10,-7.3037e-05,-3.44824,-0.359778,-0.16399,2.27401,0.205013,
2,0,0,1,0,5039.89,0.203854,0.203572,-0.356583,3,0.0198814,10,-7.25902e-05,-3.44784,-0.321534,-0.183496,2.57687,0.203572,
2,0,0,1,0,5040.04,0.202355,0.202037,-0.362296,3,0.0198246,10,-7.31973e-05,-3.44094,-0.28825,-0.204683,2.9104,0.202037,
2,0,0,1,0,5040.19,0.200857,0.200531,-0.365553,3,0.0197671,10,-7.33045e-05,-3.43705,-0.321865,-0.183307,2.62566,0.2005305,
2,0,0,1,0,5040.34,0.199359,0.199063,-0.370806,3,0.019709,10,-7.38137e-05,-3.43085,-0.353061,-0.16711,2.4191,0.1990629,
2,0,0,1,0,5040.49,0.19786,0.197489,-0.374578,3,0.0196503,10,-7.39751e-05,-3.42646,-0.386848,-0.152515,2.23038,0.197489,
2,0,0,1,0,5040.64,0.196362,0.196081,-0.379507,3,0.0195912,10,-7.44142e-05,-3.42078,-0.354466,-0.166447,2.46349,0.196081,
2,0,0,1,0,5040.79,0.194864,0.194567,-0.383017,3,0.0195313,10,-7.45224e-05,-3.41678,-0.255359,-0.231047,3.45296,0.1945668,
2,0,0,1,0,5040.94,0.193366,0.193058,-0.38845,3,0.0194706,10,-7.49933e-05,-3.41066,-0.346675,-0.170188,2.59017,0.193058,
2,0,0,1,0,5041.09,0.191867,0.19152,-0.39232,3,0.0194093,10,-7.51373e-05,-3.40636,-0.441922,-0.133508,2.05068,0.19152,
2,0,0,1,0,5041.24,0.190369,0.19006,-0.396473,3,0.0193475,10,-7.53536e-05,-3.40179,-0.286267,-0.206101,3.20356,0.19006,
2,0,0,1,0,5041.39,0.188872,0.18856,-0.401739,3,0.0192849,10,-7.57518e-05,-3.39606,-0.203785,-0.289521,4.53527,0.18856,
2,0,0,1,0,5041.54,0.187373,0.187081,-0.407077,3,0.0192214,10,-7.61566e-05,-3.39032,-0.254067,-0.232222,3.68255,0.1870814,
2,0,0,1,0,5041.69,0.185875,0.185589,-0.412934,3,0.0191572,10,-7.66362e-05,-3.38412,-0.268027,-0.220127,3.52955,0.185589,
2,0,0,1,0,5041.84,0.184377,0.184136,-0.415216,3,0.0190922,10,-7.64561e-05,-3.38173,-0.245901,-0.239934,3.91822,0.184136,
2,0,0,1,0,5041.99,0.182878,0.182562,-0.423835,3,0.0190264,10,-7.73762e-05,-3.3728,-0.233926,-0.252217,4.17115,0.182562,
2,0,0,1,0,5042.14,0.18138,0.181068,-0.432427,3,0.0189596,10,-7.82987e-05,-3.36409,-0.233369,-0.252819,4.24816,0.181068,
2,0,0,1,0,5042.29,0.179882,0.179576,-0.436267,3,0.0188916,10,-7.8343e-05,-3.36025,-0.303353,-0.194493,3.31022,0.179576,
2,0,0,1,0,5042.44,0.178384,0.178061,-0.442551,3,0.0188228,10,-7.88009e-05,-3.35404,-0.22994,-0.256589,4.4691,0.178061,
2,0,0,1,0,5042.59,0.176886,0.176575,-0.452268,3,0.0187531,10,-7.98592e-05,-3.3446,-0.176743,-0.333818,5.88629,0.176575,
2,0,0,1,0,5042.74,0.175387,0.175018,-0.461212,3,0.0186819,10,-8.07201e-05,-3.3361,-0.184028,-0.320603,5.74731,0.175018,
2,0,0,1,0,5042.89,0.17389,0.173552,-0.469153,3,0.0186094,10,-8.14225e-05,-3.32869,-0.167415,-0.352417,6.44588,0.1735521,
2,0,0,1,0,5043.04,0.172392,0.172098,-0.479149,3,0.0185357,10,-8.24603e-05,-3.31953,-0.169025,-0.349061,6.52096,0.172098,
2,0,0,1,0,5043.19,0.170893,0.170599,-0.487594,3,0.0184606,10,-8.31834e-05,-3.31194,-0.161761,-0.364737,6.95434,0.170599,
2,0,0,1,0,5043.34,0.169395,0.169086,-0.498925,3,0.0183838,10,-8.43614e-05,-3.30196,-0.134363,-0.43911,8.56162,0.169086,
2,0,0,1,0,5043.49,0.167897,0.167606,-0.509614,3,0.0183053,10,-8.54144e-05,-3.29276,-0.132063,-0.446758,8.92542,0.167606,
2,0,0,1,0,5043.64,0.166398,0.166096,-0.522514,3,0.0182249,10,-8.67875e-05,-3.2819,-0.145419,-0.405725,8.33279,0.166096,
2,0,0,1,0,5043.79,0.1649,0.164604,-0.536009,3,0.0181426,10,-8.82293e-05,-3.27083,-0.125748,-0.469194,9.87354,0.164604,
2,0,0,1,0,5043.94,0.163402,0.163103,-0.552779,3,0.0180581,10,-9.01602e-05,-3.25745,-0.11327,-0.52088,11.2518,0.163103,
2,0,0,1,0,5044.09,0.161904,0.161583,-0.572537,3,0.0179711,10,-9.25122e-05,-3.2422,-0.106297,-0.555051,12.3747,0.161583,
2,0,0,1,0,5044.24,0.160405,0.160123,-0.590079,3,0.0178812,10,-9.44851e-05,-3.22909,-0.107673,-0.547955,12.5937,0.160123,
2,0,0,1,0,5044.39,0.158907,0.158622,-0.607784,3,0.0177884,10,-9.64079e-05,-3.21625,-0.0970391,-0.608002,14.4962,0.158622,
2,0,0,1,0,5044.54,0.15741,0.157095,-0.631867,3,0.0176928,10,-9.92634e-05,-3.19937,-0.0894404,-0.659657,16.3897,0.157095,
2,0,0,1,0,5044.69,0.155911,0.155605,-0.657963,3,0.0175932,10,-0.000102383,-3.1818,-0.0864086,-0.682802,17.5825,0.155605,
2,0,0,1,0,5044.84,0.154413,0.154052,-0.687058,3,0.0174895,10,-0.000105843,-3.16301,-0.0838146,-0.703934,18.8575,0.154052,
2,0,0,1,0,5044.99,0.152915,0.152574,-0.718936,3,0.0173816,10,-0.000109691,-3.14331,-0.0766157,-0.770077,21.5801,0.152574,
2,0,0,1,0,5045.14,0.151417,0.151082,-0.748082,3,0.0172692,10,-0.000113021,-3.12605,-0.0735299,-0.802395,23.5156,0.151082,
2,0,0,1,0,5045.29,0.149918,0.149586,-0.787651,3,0.0171514,10,-0.000117822,-3.10367,-0.0704391,-0.837603,25.7219,0.149586,
2,0,0,1,0,5045.44,0.14842,0.148094,-0.828301,3,0.0170276,10,-0.000122667,-3.08181,-0.0697499,-0.84588,27.3263,0.148094,
2,0,0,1,0,5045.59,0.146922,0.146625,-0.870904,3,0.0168977,10,-0.000127696,-3.06003,-0.0694508,-0.849522,28.8763,0.146625,
2,0,0,1,0,5045.73,0.145424,0.145089,-0.913079,3,0.0167615,10,-0.000132478,-3.03949,-0.0660907,-0.892712,31.8965,0.145089,
2,0,0,1,0,5045.88,0.143925,0.143619,-0.963354,3,0.0166179,10,-0.000138356,-3.01621,-0.0639736,-0.922255,34.6279,0.143619,
2,0,0,1,0,5046.03,0.142428,0.142116,-1.01447,3,0.0164669,10,-0.000144173,-2.99376,-0.0683506,-0.863197,34.1094,0.142116,
2,0,0,1,0,5046.18,0.14093,0.140604,-1.06375,3,0.0163083,10,-0.000149567,-2.97316,-0.0727618,-0.810865,33.6109,0.140604,
2,0,0,1,0,5046.33,0.139431,0.139103,-1.10866,3,0.0161421,10,-0.000154219,-2.9552,-0.0760804,-0.775495,33.6112,0.139103,
2,0,0,1,0,5046.48,0.137933,0.137641,-1.16158,3,0.0159689,10,-0.000159881,-2.93495,-0.0840201,-0.702213,31.811,0.137641,
2,0,0,1,0,5046.63,0.136435,0.136137,-1.21054,3,0.0157883,10,-0.0001648,-2.91702,-0.0929866,-0.6345,29.8106,0.136137,
2,0,0,1,0,5046.78,0.134936,0.134637,-1.25369,3,0.0156007,10,-0.000168793,-2.90181,-0.107201,-0.550369,26.7516,0.134637,
2,0,0,1,0,5046.93,0.133438,0.133143,-1.28885,3,0.0154072,10,-0.000171601,-2.8898,-0.121426,-0.485891,24.4296,0.133143,
2,0,0,1,0,5047.08,0.13194,0.131587,-1.32556,3,0.0152084,10,-0.000174426,-2.8776,-0.142157,-0.415033,21.462,0.131587,
2,0,0,1,0,5047.23,0.130442,0.130144,-1.35815,3,0.0150044,10,-0.000176755,-2.86705,-0.164502,-0.358658,18.9257,0.130144,
2,0,0,1,0,5047.38,0.128943,0.128595,-1.38627,3,0.0147959,10,-0.000178268,-2.85815,-0.224201,-0.263157,14.1389,0.128595,
2,0,0,1,0,5047.53,0.127445,0.127099,-1.40256,3,0.0145843,10,-0.000178264,-2.85308,-0.286467,-0.205957,11.233,0.127099,
2,0,0,1,0,5047.68,0.125948,0.125619,-1.4141,3,0.0143706,10,-0.000177637,-2.84952,-0.344689,-0.171169,9.43542,0.125619,
2,0,0,1,0,5047.83,0.124449,0.12414,-1.42793,3,0.0141547,10,-0.000177263,-2.84529,-0.473046,-0.124724,6.91559,0.1241399,
2,0,0,1,0,5047.98,0.122951,0.122642,-1.43352,3,0.0139373,10,-0.000175809,-2.8436,-0.936619,-0.0629925,3.5154,0.122642,
2,0,0,1,0,5048.13,0.121453,0.121107,-1.43679,3,0.0137192,10,-0.000174005,-2.84261,9.08497,0.00649424,-0.363051,0.121107,
2,0,0,1,0,5048.28,0.119955,0.119649,-1.43297,3,0.0135013,10,-0.000171454,-2.84376,1.33223,0.0442865,-2.48011,0.119649,
2,0,0,1,0,5048.43,0.118456,0.118183,-1.43039,3,0.0132839,10,-0.000169047,-2.84455,1.57693,0.0374145,-2.08634,0.118183,
2,0,0,1,0,5048.58,0.116958,0.116665,-1.4289,3,0.0130668,10,-0.000166703,-2.845,0.689726,0.0855412,-4.75361,0.116665,
2,0,0,1,0,5048.73,0.11546,0.115157,-1.4186,3,0.0128506,10,-0.000163362,-2.84814,0.438044,0.13469,-7.4389,0.115157,
2,0,0,1,0,5048.88,0.113962,0.113669,-1.40592,3,0.0126362,10,-0.00015981,-2.85204,0.431161,0.13684,-7.51707,0.113669,
2,0,0,1,0,5049.03,0.112463,0.112166,-1.39635,3,0.0124234,10,-0.000156622,-2.85501,0.433782,0.136013,-7.3994,0.112166,
2,0,0,1,0,5049.18,0.110966,0.110621,-1.38583,3,0.0122123,10,-0.000153302,-2.85829,0.405133,0.145631,-7.85651,0.110621,
2,0,0,1,0,5049.33,0.109468,0.109142,-1.37011,3,0.012003,10,-0.000149537,-2.86324,0.299231,0.197172,-10.5208,0.109142,
2,0,0,1,0,5049.48,0.107969,0.10764,-1.35697,3,0.0117956,10,-0.000146065,-2.86743,0.314141,0.187814,-9.95094,0.10764,
2,0,0,1,0,5049.63,0.106471,0.106132,-1.34129,3,0.011591,10,-0.000142354,-2.87248,0.318453,0.185271,-9.70656,0.106132,
2,0,0,1,0,5049.78,0.104973,0.104688,-1.32484,3,0.0113884,10,-0.000138695,-2.87784,0.302102,0.195298,-10.1097,0.104688,
2,0,0,1,0,5049.93,0.103474,0.103152,-1.30973,3,0.0111878,10,-0.000135102,-2.88282,0.29252,0.201695,-10.2945,0.103152,
2,0,0,1,0,5050.08,0.101976,0.101618,-1.29628,3,0.0109897,10,-0.000131725,-2.8873,0.258181,0.228522,-11.5419,0.101618,
2,0,0,1,0,5050.23,0.100478,0.100182,-1.27702,3,0.0107943,10,-0.000127935,-2.8938,0.265788,0.221982,-11.0805,0.100182,
2,0,0,1,0,5050.38,0.0989799,0.0986689,-1.26423,3,0.0106011,10,-0.00012474,-2.89817,0.315761,0.18685,-9.20654,0.0986689,
2,0,0,1,0,5050.53,0.0974808,0.0971776,-1.25006,3,0.01041,10,-0.000121477,-2.90307,0.264089,0.22341,-10.8731,0.0971776,
2,0,0,1,0,5050.68,0.0959833,0.0956476,-1.23251,3,0.0102213,10,-0.000117886,-2.90921,0.286374,0.206024,-9.91166,0.0956476,
2,0,0,1,0,5050.83,0.0944857,0.094255,-1.21269,3,0.0100352,10,-0.000114302,-2.91625,0.275606,0.214073,-10.1783,0.094255,
2,0,0,1,0,5050.98,0.0929871,0.0926819,-1.20201,3,0.00985118,10,-0.000111405,-2.92009,0.321381,0.183583,-8.62389,0.0926819,
2,0,0,1,0,5051.13,0.0914889,0.0911814,-1.19192,3,0.00966907,10,-0.000108681,-2.92375,0.307001,0.192182,-8.9135,0.0911814,
2,0,0,1,0,5051.28,0.0899907,0.0896968,-1.17625,3,0.00948888,10,-0.000105506,-2.9295,0.282878,0.20857,-9.55233,0.0896968,
2,0,0,1,0,5051.43,0.0884925,0.0881762,-1.15797,3,0.00931093,10,-0.000102106,-2.9363,0.290368,0.203191,-9.22866,0.0881762,
2,0,0,1,0,5051.58,0.0869943,0.0866725,-1.15057,3,0.00913524,10,-9.9723e-05,-2.93909,0.32506,0.181505,-8.15623,0.0866725,
2,0,0,1,0,5051.73,0.0854962,0.0851996,-1.13975,3,0.00896094,10,-9.71059e-05,-2.94319,0.37084,0.159098,-7.07621,0.0851996,
2,0,0,1,0,5051.88,0.083998,0.0837013,-1.12821,3,0.00878826,10,-9.44322e-05,-2.94761,0.321575,0.183472,-8.07839,0.08370129,
2,0,0,1,0,5052.03,0.0824998,0.0821701,-1.11935,3,0.00861707,10,-9.19771e-05,-2.95103,0.390587,0.151055,-6.60202,0.0821701,
2,0,0,1,0,5052.18,0.0810011,0.0807094,-1.10665,3,0.00844765,10,-8.9317e-05,-2.95599,0.422267,0.139722,-6.05558,0.0807094,
2,0,0,1,0,5052.33,0.0795036,0.0791883,-1.10107,3,0.00827944,10,-8.71918e-05,-2.95818,0.488891,0.120681,-5.18113,0.0791883,
2,0,0,1,0,5052.48,0.0780061,0.0776867,-1.09273,3,0.0081124,10,-8.48906e-05,-2.96149,0.431552,0.136716,-5.8159,0.0776867,
2,0,0,1,0,5052.63,0.076507,0.0761607,-1.08448,3,0.00794658,10,-8.25951e-05,-2.96478,0.390202,0.151204,-6.38873,0.0761607,
2,0,0,1,0,5052.78,0.0750088,0.0747016,-1.07287,3,0.00778253,10,-8.01452e-05,-2.96945,0.500203,0.117952,-4.94264,0.07470163,
2,0,0,1,0,5052.93,0.0735106,0.073216,-1.06393,3,0.00761946,10,-7.78967e-05,-2.97309,0.640387,0.0921318,-3.82935,0.073216,
2,0,0,1,0,5053.08,0.0720124,0.0716657,-1.05745,3,0.00745759,10,-7.5783e-05,-2.97574,0.446378,0.132175,-5.45883,0.0716657,
2,0,0,1,0,5053.23,0.0705142,0.0702225,-1.05038,3,0.00729663,10,-7.37602e-05,-2.97865,0.417942,0.141168,-5.78569,0.0702225,
2,0,0,1,0,5053.38,0.0690161,0.0686806,-1.03746,3,0.00713726,10,-7.12537e-05,-2.98403,0.422177,0.139752,-5.69409,0.0686806,
2,0,0,1,0,5053.53,0.0675179,0.0671971,-1.03529,3,0.00697899,10,-6.95684e-05,-2.98494,0.552206,0.106844,-4.31551,0.0671971,
2,0,0,1,0,5053.68,0.0660188,0.0657427,-1.03312,3,0.00682141,10,-6.79201e-05,-2.98585,0.508494,0.116029,-4.64345,0.0657427,
2,0,0,1,0,5053.83,0.0645213,0.0642586,-1.02131,3,0.00666483,10,-6.56278e-05,-2.99084,0.403923,0.146067,-5.80385,0.0642586,
2,0,0,1,0,5053.98,0.0630237,0.0626909,-1.00865,3,0.00650981,10,-6.32332e-05,-2.99626,0.430033,0.137199,-5.42915,0.0626909,
2,0,0,1,0,5054.12,0.0615251,0.0612429,-1.0054,3,0.00635609,10,-6.15737e-05,-2.99766,0.461897,0.127734,-5.0101,0.0612429,
2,0,0,1,0,5054.27,0.0600269,0.0596735,-0.993911,3,0.00620342,10,-5.93102e-05,-3.00265,0.477388,0.123589,-4.80698,0.0596735,
2,0,0,1,0,5054.42,0.0585287,0.0581975,-0.988776,3,0.00605182,10,-5.75442e-05,-3.0049,0.34856,0.169268,-6.51399,0.0581975,
2,0,0,1,0,5054.57,0.0570305,0.0567246,-0.979435,3,0.00590144,10,-5.5558e-05,-3.00902,0.411521,0.14337,-5.48048,0.0567246,
2,0,0,1,0,5054.72,0.0555323,0.0552665,-0.97203,3,0.0057526,10,-5.37207e-05,-3.01232,0.4027,0.146511,-5.56184,0.0552665,
2,0,0,1,0,5054.87,0.0540342,0.0536981,-0.963414,3,0.00560481,10,-5.17335e-05,-3.01619,0.389831,0.151348,-5.69057,0.0536981,
2,0,0,1,0,5055.02,0.052536,0.0522517,-0.956647,3,0.005458,10,-4.99865e-05,-3.01925,0.370754,0.159135,-5.92968,0.0522517,
2,0,0,1,0,5055.17,0.0510378,0.0507067,-0.947737,3,0.00531274,10,-4.80566e-05,-3.02331,0.304107,0.194011,-7.17454,0.0507067,
2,0,0,1,0,5055.32,0.0495391,0.0492598,-0.935489,3,0.00516892,10,-4.6082e-05,-3.02896,0.363464,0.162327,-5.93537,0.0492598,
2,0,0,1,0,5055.47,0.0480416,0.0477094,-0.926376,3,0.00502647,10,-4.41969e-05,-3.03321,0.455147,0.129628,-4.68975,0.0477094,
2,0,0,1,0,5055.62,0.0465441,0.0462054,-0.919209,3,0.00488527,10,-4.24725e-05,-3.03659,0.406612,0.145101,-5.22266,0.0462054,
2,0,0,1,0,5055.77,0.045045,0.0447059,-0.910282,3,0.00474536,10,-4.0695e-05,-3.04082,0.315295,0.187126,-6.64807,0.0447059,
2,0,0,1,0,5055.92,0.0435468,0.0432012,-0.897211,3,0.00460687,10,-3.87606e-05,-3.04711,0.359473,0.164129,-5.7748,0.0432012,
2,0,0,1,0,5056.07,0.0420486,0.0417654,-0.892917,3,0.0044699,10,-3.72931e-05,-3.04919,0.379097,0.155633,-5.42222,0.0417654,
2,0,0,1,0,5056.22,0.0405504,0.0402437,-0.888212,3,0.00433402,10,-3.5745e-05,-3.05148,0.37741,0.156329,-5.39128,0.0402437,
2,0,0,1,0,5056.37,0.0390523,0.0387952,-0.876917,3,0.00419923,10,-3.40201e-05,-3.05704,0.310402,0.190076,-6.48078,0.0387952,
2,0,0,1,0,5056.52,0.0375541,0.0372428,-0.866322,3,0.00406596,10,-3.22642e-05,-3.06232,0.336929,0.175111,-5.93966,0.0372428,
2,0,0,1,0,5056.67,0.0360559,0.0357582,-0.8578,3,0.00393418,10,-3.06734e-05,-3.06661,0.354842,0.166271,-5.57707,0.03575819,
2,0,0,1,0,5056.82,0.0345568,0.0342536,-0.851528,3,0.00380328,10,-2.91679e-05,-3.0698,0.378621,0.155828,-5.1748,0.0342536,
2,0,0,1,0,5056.97,0.0330593,0.0327292,-0.842044,3,0.00367361,10,-2.75594e-05,-3.07467,0.348116,0.169484,-5.57127,0.0327292,
2,0,0,1,0,5057.12,0.0315618,0.0312287,-0.835851,3,0.00354519,10,-2.61026e-05,-3.07787,0.364175,0.16201,-5.27912,0.0312287,
2,0,0,1,0,5057.27,0.0300631,0.0297489,-0.825669,3,0.00341808,10,-2.45627e-05,-3.08319,0.402034,0.146754,-4.73403,0.0297489,
2,0,0,1,0,5057.42,0.0285649,0.0282654,-0.817621,3,0.00329197,10,-2.31104e-05,-3.08745,0.496424,0.11885,-3.79811,0.0282654,
2,0,0,1,0,5057.57,0.0270667,0.0267352,-0.813561,3,0.00316668,10,-2.17507e-05,-3.08961,0.467209,0.126282,-4.00604,0.0267352,
2,0,0,1,0,5057.72,0.0255685,0.0252962,-0.806438,3,0.0030425,10,-2.03998e-05,-3.09343,0.376854,0.156559,-4.92935,0.0252962,
2,0,0,1,0,5057.87,0.0240704,0.0237809,-0.79723,3,0.00291946,10,-1.89588e-05,-3.09842,0.446596,0.13211,-4.12629,0.0237809,
2,0,0,1,0,5058.02,0.0225722,0.0222709,-0.795198,3,0.00279719,10,-1.77098e-05,-3.09952,0.798166,0.0739194,-2.28999,0.0222709,
2,0,0,1,0,5058.17,0.021074,0.0207174,-0.789842,3,0.00267559,10,-1.63635e-05,-3.10246,0.559098,0.105527,-3.25357,0.0207174,
2,0,0,1,0,5058.32,0.0195758,0.0192614,-0.785366,3,0.00255464,10,-1.51273e-05,-3.10493,0.547676,0.107728,-3.30351,0.0192614,
2,0,0,1,0,5058.47,0.0180772,0.0177997,-0.779561,3,0.00243444,10,-1.38759e-05,-3.10815,0.714084,0.0826233,-2.52067,0.0177997,
2,0,0,1,0,5058.62,0.0165796,0.0162536,-0.779859,3,0.00231493,10,-1.26755e-05,-3.10798,1.687,0.0349733,-1.0636,0.0162536,
2,0,0,1,0,5058.77,0.0150821,0.0147706,-0.776939,3,0.00219568,10,-1.14758e-05,-3.10961,1.47612,0.0399697,-1.21148,0.0147706,
2,0,0,1,0,5058.92,0.013583,0.0133168,-0.772875,3,0.00207659,10,-1.02922e-05,-3.11189,0.867628,0.0680015,-2.05156,0.0133168,
2,0,0,1,0,5059.07,0.0120848,0.0118068,-0.769769,3,0.00195811,10,-9.0885e-06,-3.11364,1.39312,0.0423509,-1.27792,0.0118068,
2,0,0,1,0,5059.22,0.0105866,0.0102787,-0.768768,3,0.00184009,10,-7.90196e-06,-3.1142,4.16567,0.0141634,-0.425972,0.0102787,
2,0,0,1,0,5059.37,0.00908846,0.00876448,-0.767702,3,0.00172199,10,-6.72851e-06,-3.11481,2.17318,0.0271492,-0.815244,0.00876448,
2,0,0,1,0,5059.52,0.00759027,0.00729688,-0.769704,3,0.00160401,10,-5.61644e-06,-3.11368,2.00264,0.0294611,-0.882821,0.00729688,
2,0,0,1,0,5059.67,0.00609208,0.00579428,-0.769212,3,0.00148609,10,-4.45703e-06,-3.11395,-59.8431,-0.000985912,0.0295702,0.005794283,
2,0,0,1,0,5059.82,0.00459389,0.00428214,-0.768506,3,0.00136845,10,-3.29085e-06,-3.11435,-3.43302,-0.0171861,0.515445,0.00428214,
2,0,0,1,0,5059.97,0.0030948,0.00278732,-0.770781,3,0.00125034,10,-2.14841e-06,-3.11307,-0.93761,-0.0629259,1.89279,0.00278732,
2,0,0,1,0,5060.12,0.00159728,0.00125863,-0.779851,3,0.0011304,10,-9.8154e-07,-3.10799, , , ,0.00125863,
2,0,0,1,0,5060.26,0.000199195,-0.000189804,-0.771574,3,0.0010193,10,1.46447e-07,-3.11262, , , ,-0.000189804,