File: Figure_codes/Fig_3-5/rawdata_trumpetplot_data/after 10th/20221101_1-115_003_TrumpetPlot_ParaChange_from10_every3_06_CV_C01_10.csv
mode,ox/red,error,control changes,counter inc.,time/s,control/V,Ewe/V,<I>/mA,cycle number,(Q-Qo)/C,I Range,P/W,log(|I|),Tafel slope mV/dec,alpha_eff,dI/d(E-IR),E-IR/V,
2,0,0,0,0,20851.3,2.44065e-05,-0.000363498,-1.42806,11,0.0000000E+000,10,5.19099e-07,-2.84525, , , ,-0.000363498,
2,0,0,1,0,20851.4,0.00129787,0.000904275,-0.206982,11,-2.165e-05,10,-1.87168e-07,-3.68407, , , ,0.000904275,
2,1,0,1,0,20851.4,0.00279427,0.00247131,0.492369,11,-1.4298e-05,10,1.2168e-06,-3.30771,0.0183284,3.21904,370.809,0.00247131,
2,1,0,1,0,20851.4,0.00429425,0.00398824,0.844884,11,1.20813e-05,10,3.3696e-06,-3.0732,0.00729583,8.08681,199.699,0.00398824,
2,1,0,1,0,20851.5,0.00579422,0.00546546,1.06066,11,4.88688e-05,10,5.79701e-06,-2.97442,0.0180954,3.2605,124.92,0.00546546,
2,1,0,1,0,20851.5,0.00729063,0.00698716,1.20873,11,9.21802e-05,10,8.44562e-06,-2.91767,0.0314596,1.87542,85.5845,0.00698716,
2,1,0,1,0,20851.5,0.00878703,0.0084833,1.32128,11,0.000140257,10,1.12088e-05,-2.879,0.046851,1.25931,63.5964,0.0084833,
2,1,0,1,0,20851.6,0.010287,0.00996073,1.4074,11,0.000192058,10,1.40187e-05,-2.85158,0.0634846,0.929359,50.1525,0.00996073,
2,1,0,1,0,20851.6,0.011787,0.0115068,1.47452,11,0.000246618,10,1.6967e-05,-2.83135,0.0790915,0.745972,42.4867,0.0115068,
2,1,0,1,0,20851.7,0.0132825,0.0129937,1.52562,11,0.000303202,10,1.98235e-05,-2.81655,0.0955015,0.617791,36.7072,0.0129937,
2,1,0,1,0,20851.7,0.014778,0.0144713,1.57584,11,0.000361902,10,2.28043e-05,-2.80249,0.106388,0.554572,34.1186,0.0144713,
2,1,0,1,0,20851.7,0.0162816,0.015962,1.62684,11,0.000422901,10,2.59676e-05,-2.78865,0.127613,0.462335,29.3044,0.015962,
2,1,0,1,0,20851.8,0.017778,0.017448,1.66767,11,0.000485291,10,2.90976e-05,-2.77789,0.136558,0.43205,28.2075,0.017448,
2,1,0,1,0,20851.8,0.0192744,0.0189902,1.71217,11,0.000549111,10,3.25144e-05,-2.76645,0.149651,0.394251,26.3253,0.0189902,
2,1,0,1,0,20851.8,0.0207743,0.0204822,1.75662,11,0.000614721,10,3.59795e-05,-2.75532,0.152644,0.386519,26.3643,0.0204822,
2,1,0,1,0,20851.9,0.0222743,0.021969,1.79705,11,0.000681809,10,3.94794e-05,-2.74544,0.15995,0.368866,25.763,0.021969,
2,1,0,1,0,20851.9,0.0237707,0.0234769,1.83148,11,0.000750204,10,4.29974e-05,-2.7372,0.176849,0.333618,23.7775,0.0234769,
2,1,0,1,0,20852,0.0252671,0.0249625,1.86763,11,0.000819916,10,4.66208e-05,-2.72871,0.176865,0.333587,24.325,0.0249625,
2,1,0,1,0,20852,0.0267671,0.0264565,1.90374,11,0.000891246,10,5.03663e-05,-2.72039,0.16566,0.356152,26.4647,0.0264565,
2,1,0,1,0,20852,0.0282671,0.0279698,1.94262,11,0.000964052,10,5.43345e-05,-2.71161,0.173858,0.339357,25.7619,0.02796975,
2,1,0,1,0,20852.1,0.0297626,0.0294451,1.97903,11,0.0010381,10,5.82727e-05,-2.70355,0.186227,0.316817,24.5158,0.0294451,
2,1,0,1,0,20852.1,0.0312581,0.0309135,2.01327,11,0.0011135,10,6.2237e-05,-2.6961,0.199354,0.295956,23.2853,0.0309135,
2,1,0,1,0,20852.1,0.0327616,0.0324513,2.05401,11,0.00119055,10,6.66553e-05,-2.6874,0.196798,0.2998,24.0237,0.03245135,
2,1,0,1,0,20852.2,0.034258,0.0339637,2.09235,11,0.00126866,10,7.10639e-05,-2.67937,0.194401,0.303496,24.7243,0.03396368,
2,1,0,1,0,20852.2,0.0357545,0.0354324,2.13253,11,0.0013482,10,7.55605e-05,-2.67111,0.210787,0.279904,23.179,0.03543238,
2,1,0,1,0,20852.3,0.0372544,0.0369186,2.16447,11,0.00142932,10,7.9909e-05,-2.66465,0.21566,0.273579,23.0892,0.0369186,
2,1,0,1,0,20852.3,0.0387544,0.0383875,2.19762,11,0.00151166,10,8.43613e-05,-2.65805,0.204959,0.287862,24.764,0.0383875,
2,1,0,1,0,20852.3,0.0402508,0.0399155,2.23439,11,0.00159522,10,8.9187e-05,-2.65084,0.199394,0.295897,25.8475,0.0399155,
2,1,0,1,0,20852.4,0.0417472,0.0414478,2.27362,11,0.00168026,10,9.42365e-05,-2.64328,0.2208,0.26721,23.7142,0.0414478,
2,1,0,1,0,20852.4,0.0432472,0.0429217,2.31426,11,0.00176688,10,9.93319e-05,-2.63559,0.216593,0.2724,24.5561,0.0429217,
2,1,0,1,0,20852.4,0.0447472,0.044462,2.34266,11,0.00185468,10,0.000104159,-2.63029,0.22101,0.266956,24.427,0.044462,
2,1,0,1,0,20852.5,0.0462427,0.0459253,2.38596,11,0.00194365,10,0.000109576,-2.62234,0.220932,0.26705,24.7441,0.0459253,
2,1,0,1,0,20852.5,0.0477382,0.0474126,2.41921,11,0.00203398,10,0.000114701,-2.61633,0.231327,0.255051,24.0184,0.0474126,
2,1,0,1,0,20852.6,0.0492417,0.0489447,2.44773,11,0.00212606,10,0.000119803,-2.61124,0.255243,0.231153,22.0843,0.0489447,
2,1,0,1,0,20852.6,0.0507381,0.0504038,2.47687,11,0.00221886,10,0.000124844,-2.6061,0.267698,0.220398,21.3791,0.0504038,
2,1,0,1,0,20852.6,0.0522345,0.051887,2.51345,11,0.00231291,10,0.000130415,-2.59973,0.241808,0.243995,23.9755,0.051887,
2,1,0,1,0,20852.7,0.0537345,0.0534023,2.54828,11,0.00240851,10,0.000136084,-2.59375,0.273717,0.215551,21.4549,0.0534023,
2,1,0,1,0,20852.7,0.0552345,0.0548948,2.58864,11,0.00250543,10,0.000142103,-2.58693,0.2856,0.206582,20.8085,0.0548948,
2,1,0,1,0,20852.7,0.0567309,0.0563834,2.61047,11,0.00260326,10,0.000147187,-2.58328,0.296782,0.198799,20.2592,0.0563834,
2,1,0,1,0,20852.8,0.0582273,0.0578797,2.65092,11,0.00270214,10,0.000153435,-2.5766,0.307101,0.192119,19.8166,0.0578797,
2,1,0,1,0,20852.8,0.0597309,0.0594064,2.67871,11,0.00280276,10,0.000159132,-2.57207,0.29838,0.197734,20.6237,0.0594064,
2,1,0,1,0,20852.9,0.0612264,0.0608903,2.70423,11,0.00290404,10,0.000164662,-2.56796,0.321923,0.183274,19.344,0.0608903,
2,1,0,1,0,20852.9,0.0627219,0.0623966,2.73267,11,0.00300649,10,0.00017051,-2.56341,0.345686,0.170675,18.2193,0.0623966,
2,1,0,1,0,20852.9,0.0642218,0.0639343,2.76131,11,0.00311016,10,0.000176542,-2.55889,0.32668,0.180605,19.5203,0.0639343,
2,1,0,1,0,20853,0.0657218,0.0654554,2.79003,11,0.00321493,10,0.000182622,-2.55439,0.308249,0.191404,20.8794,0.06545537,
2,1,0,1,0,20853,0.0672182,0.0669207,2.82468,11,0.00332068,10,0.000189029,-2.54903,0.330122,0.178722,19.678,0.06692066,
2,1,0,1,0,20853,0.0687146,0.06842,2.85249,11,0.00342746,10,0.000195167,-2.54478,0.434729,0.135717,15.092,0.06842,
2,1,0,1,0,20853.1,0.0702146,0.0698766,2.8773,11,0.00353538,10,0.000201056,-2.54101,0.394123,0.1497,16.785,0.0698766,
2,1,0,1,0,20853.1,0.0717146,0.0714137,2.90295,11,0.00364426,10,0.00020731,-2.53716,0.361677,0.163129,18.445,0.0714137,
2,1,0,1,0,20853.2,0.073211,0.0728616,2.92626,11,0.00375383,10,0.000213212,-2.53369,0.390212,0.1512,17.259,0.0728616,
2,1,0,1,0,20853.2,0.0747074,0.074387,2.94798,11,0.00386432,10,0.000219292,-2.53048,0.464823,0.12693,14.6116,0.074387,
2,1,0,1,0,20853.2,0.0762109,0.0758873,2.96625,11,0.0039762,10,0.0002251,-2.52779,0.438041,0.134691,15.6335,0.07588727,
2,1,0,1,0,20853.3,0.0777064,0.0773352,2.99207,11,0.00408829,10,0.000231392,-2.52403,0.41818,0.141088,16.4928,0.0773352,
2,1,0,1,0,20853.3,0.079202,0.0789075,3.02126,11,0.00420133,10,0.0002384,-2.51981,0.469567,0.125648,14.7668,0.0789075,
2,1,0,1,0,20853.3,0.0807019,0.0804062,3.04055,11,0.00431557,10,0.000244479,-2.51705,0.52795,0.111753,13.2329,0.0804062,
2,1,0,1,0,20853.4,0.0822019,0.0818962,3.05746,11,0.00443054,10,0.000250395,-2.51464,0.573891,0.102807,12.2572,0.0818962,
2,1,0,1,0,20853.4,0.0836983,0.0833494,3.07893,11,0.00454588,10,0.000256627,-2.5116,0.55667,0.105987,12.7338,0.0833494,
2,1,0,1,0,20853.5,0.0851947,0.084873,3.09873,11,0.00466205,10,0.000262998,-2.50882,0.524092,0.112576,13.6262,0.084873,
2,1,0,1,0,20853.5,0.0866947,0.0863984,3.12262,11,0.00477932,10,0.00026979,-2.50548,0.53301,0.110692,13.5051,0.0863984,
2,1,0,1,0,20853.5,0.0881947,0.0878891,3.14119,11,0.0048975,10,0.000276076,-2.50291,0.47342,0.124625,15.3139,0.0878891,
2,1,0,1,0,20853.6,0.0896911,0.0893333,3.16696,11,0.00501616,10,0.000282915,-2.49936,0.43242,0.136441,16.9155,0.0893333,
2,1,0,1,0,20853.6,0.0911875,0.0908602,3.20128,11,0.00513588,10,0.000290869,-2.49468,0.356149,0.165661,20.6895,0.0908602,
2,1,0,1,0,20853.6,0.0926901,0.0923905,3.23631,11,0.00525742,10,0.000299004,-2.48995,0.321765,0.183364,23.1017,0.0923905,
2,1,0,1,0,20853.7,0.0941856,0.09386,3.26399,11,0.00537948,10,0.000306359,-2.48625,0.340612,0.173217,22.0531,0.09386,
2,1,0,1,0,20853.7,0.0956821,0.0953487,3.29515,11,0.00550268,10,0.000314188,-2.48212,0.310192,0.190205,24.4787,0.0953487,
2,1,0,1,0,20853.8,0.097182,0.0968688,3.33315,11,0.00562758,10,0.000322878,-2.47715,0.276259,0.213568,27.817,0.0968688,
2,1,0,1,0,20853.8,0.098682,0.0983522,3.37731,11,0.00575404,10,0.000332165,-2.47143,0.253922,0.232355,30.6856,0.0983522,
2,1,0,1,0,20853.8,0.100178,0.0998945,3.42485,11,0.00588194,10,0.000342124,-2.46536,0.243353,0.242446,32.4399,0.0998945,
2,1,0,1,0,20853.9,0.101675,0.10135,3.46849,11,0.00601157,10,0.000351532,-2.45986,0.244991,0.240825,32.6978,0.10135,
2,1,0,1,0,20853.9,0.103175,0.102858,3.52828,11,0.00614334,10,0.000362912,-2.45244,0.213818,0.275936,38.0337,0.102858,
2,1,0,1,0,20853.9,0.104675,0.104355,3.58633,11,0.0062773,10,0.000374253,-2.44535,0.203653,0.289708,40.5089,0.104355,
2,1,0,1,0,20854,0.106171,0.105838,3.65098,11,0.0064132,10,0.000386411,-2.43759,0.212728,0.277349,39.3939,0.105838,
2,1,0,1,0,20854,0.107667,0.107408,3.70916,11,0.00655135,10,0.000398395,-2.43072,0.217005,0.271883,39.2891,0.107408,
2,1,0,1,0,20854.1,0.10917,0.108909,3.76525,11,0.00669236,10,0.000410067,-2.42421,0.211111,0.279474,41.135,0.108909,
2,1,0,1,0,20854.1,0.110666,0.110351,3.82385,11,0.00683496,10,0.000421966,-2.4175,0.21816,0.270444,40.4149,0.1103513,
2,1,0,1,0,20854.1,0.112162,0.11184,3.88579,11,0.00697991,10,0.000434588,-2.41052,0.235439,0.250596,38.0046,0.11184,
2,1,0,1,0,20854.2,0.113662,0.113329,3.94138,11,0.00712746,10,0.000446673,-2.40435,0.24556,0.240267,36.9693,0.113329,
2,1,0,1,0,20854.2,0.115162,0.114807,3.99693,11,0.00727692,10,0.000458876,-2.39827,0.261098,0.225969,35.2311,0.114807,
2,1,0,1,0,20854.2,0.116658,0.116351,4.049,11,0.00742801,10,0.000471105,-2.39265,0.269924,0.21858,34.5114,0.116351,
2,1,0,1,0,20854.3,0.118155,0.11782,4.10351,11,0.0075811,10,0.000483474,-2.38684,0.313781,0.188029,30.0147,0.11782,
2,1,0,1,0,20854.3,0.119655,0.119338,4.14457,11,0.0077363,10,0.000494605,-2.38252,0.370861,0.159089,25.6983,0.119338,
2,1,0,1,0,20854.4,0.121155,0.120829,4.17708,11,0.00789291,10,0.000504714,-2.37913,0.398456,0.148071,24.1595,0.120829,
2,1,0,1,0,20854.4,0.122651,0.122382,4.21363,11,0.00805047,10,0.000515674,-2.37534,0.395031,0.149355,24.5854,0.122382,
2,1,0,1,0,20854.4,0.124147,0.123834,4.24641,11,0.00820937,10,0.000525851,-2.37198,0.441244,0.133713,22.1722,0.123834,
2,1,0,1,0,20854.5,0.12565,0.125326,4.27814,11,0.00837033,10,0.000536163,-2.36874,0.499506,0.118117,19.7249,0.125326,
2,1,0,1,0,20854.5,0.127146,0.126814,4.30751,11,0.00853156,10,0.000546253,-2.36577,0.54537,0.108184,18.1783,0.126814,
2,1,0,1,0,20854.5,0.128642,0.128329,4.33517,11,0.00869374,10,0.000556329,-2.36299,0.560087,0.105341,17.8164,0.128329,
2,1,0,1,0,20854.6,0.130142,0.129813,4.36629,11,0.00885744,10,0.000566802,-2.35989,0.519588,0.113552,19.3077,0.129813,
2,1,0,1,0,20854.6,0.131642,0.131331,4.38975,11,0.00902226,10,0.00057651,-2.35756,0.651323,0.0905848,15.4997,0.131331,
2,1,0,1,0,20854.6,0.133139,0.132813,4.41365,11,0.00918761,10,0.000586192,-2.3552,0.710273,0.0830666,14.3157,0.132813,
2,1,0,1,0,20854.7,0.134635,0.134291,4.43425,11,0.00935363,10,0.00059548,-2.35318,0.815626,0.072337,12.5269,0.134291,
2,1,0,1,0,20854.7,0.136135,0.135819,4.45317,11,0.00952092,10,0.000604827,-2.35133,0.939103,0.0628259,10.9106,0.135819,
2,1,0,1,0,20854.8,0.137635,0.137332,4.4701,11,0.00968884,10,0.000613888,-2.34968,1.75704,0.0335791,5.84477,0.137332,
2,1,0,1,0,20854.8,0.13913,0.138804,4.47439,11,0.00985666,10,0.000621063,-2.34927,-5.2757,-0.0111833,-1.94621,0.138804,
2,1,0,1,0,20854.8,0.140626,0.140281,4.46032,11,0.0100242,10,0.000625699,-2.35063,-0.883576,-0.0667741,-11.5847,0.140281,
2,1,0,1,0,20854.9,0.14213,0.141825,4.44226,11,0.0101922,10,0.000630023,-2.3524,-0.57398,-0.102791,-17.728,0.141825,
2,1,0,1,0,20854.9,0.143626,0.143296,4.40369,11,0.0103582,10,0.000631032,-2.35618,-0.308405,-0.191307,-32.7239,0.143296,
2,1,0,1,0,20854.9,0.145122,0.14482,4.3416,11,0.0105225,10,0.000628751,-2.36235,-0.207262,-0.284664,-48.0443,0.14482,
2,1,0,1,0,20855,0.146622,0.146328,4.25316,11,0.0106844,10,0.000622356,-2.37129,-0.158223,-0.372892,-61.763,0.146328,
2,1,0,1,0,20855,0.148122,0.147828,4.1526,11,0.0108428,10,0.000613871,-2.38168,-0.134405,-0.438973,-71.0043,0.147828,
2,1,0,1,0,20855.1,0.149619,0.149287,4.03675,11,0.0109967,10,0.000602633,-2.39397,-0.110336,-0.534728,-83.9944,0.149287,
2,1,0,1,0,20855.1,0.151115,0.150807,3.90755,11,0.0111459,10,0.000589286,-2.4081,-0.0936609,-0.629932,-95.5356,0.150807,
2,1,0,1,0,20855.1,0.152615,0.152286,3.75303,11,0.0112901,10,0.000571533,-2.42562,-0.0839701,-0.702631,-102.62,0.152286,
2,1,0,1,0,20855.2,0.154115,0.153789,3.60184,11,0.0114285,10,0.000553922,-2.44348,-0.0795889,-0.74131,-103.958,0.153789,
2,1,0,1,0,20855.2,0.155611,0.15531,3.44345,11,0.0115608,10,0.000534802,-2.46301,-0.0780023,-0.756388,-101.572,0.15531,
2,1,0,1,0,20855.2,0.157106,0.156757,3.29104,11,0.0116873,10,0.000515895,-2.48267,-0.0731409,-0.806662,-103.517,0.156757,
2,1,0,1,0,20855.3,0.15861,0.158305,3.13986,11,0.0118087,10,0.000497055,-2.50309,-0.0761445,-0.774842,-95.1523,0.1583046,
2,1,0,1,0,20855.3,0.160106,0.159832,2.99908,11,0.011924,10,0.000479348,-2.52301,-0.0794838,-0.74229,-87.3717,0.159832,
2,1,0,1,0,20855.4,0.161602,0.161328,2.87701,11,0.0120345,10,0.000464142,-2.54106,-0.0839496,-0.702802,-79.1564,0.161328,
2,1,0,1,0,20855.4,0.163102,0.162801,2.76755,11,0.0121409,10,0.000450562,-2.5579,-0.0898684,-0.656516,-71.0449,0.162801,
2,1,0,1,0,20855.4,0.164602,0.164262,2.66617,11,0.0122432,10,0.000437951,-2.57411,-0.0947136,-0.62293,-64.8691,0.164262,
2,1,0,1,0,20855.5,0.166099,0.165757,2.57058,11,0.0123416,10,0.000426091,-2.58997,-0.103608,-0.569454,-57.2664,0.165757,
2,1,0,1,0,20855.5,0.167595,0.167307,2.4935,11,0.0124368,10,0.000417179,-2.60319,-0.118539,-0.497728,-48.5087,0.167307,
2,1,0,1,0,20855.5,0.169095,0.168785,2.42257,11,0.0125296,10,0.000408893,-2.61572,-0.125258,-0.471027,-44.6392,0.168785,
2,1,0,1,0,20855.6,0.170595,0.170233,2.35448,11,0.0126198,10,0.00040081,-2.62811,-0.135596,-0.435118,-40.1904,0.170233,
2,1,0,1,0,20855.6,0.172091,0.171792,2.29356,11,0.0127075,10,0.000394013,-2.63949,-0.149225,-0.395377,-35.6552,0.171792,
2,1,0,1,0,20855.7,0.173586,0.173271,2.25144,11,0.0127932,10,0.000390109,-2.64754,-0.167186,-0.3529,-31.0847,0.1732706,
2,1,0,1,0,20855.7,0.17509,0.174776,2.20754,11,0.0128776,10,0.000385826,-2.65609,-0.186999,-0.31551,-27.2174,0.174776,
2,1,0,1,0,20855.7,0.176586,0.176246,2.17134,11,0.0129601,10,0.00038269,-2.66327,-0.19596,-0.301082,-25.4677,0.176246,
2,1,0,1,0,20855.8,0.178083,0.177726,2.13433,11,0.0130411,10,0.000379326,-2.67074,-0.213746,-0.276029,-22.9884,0.1777261,
2,1,0,1,0,20855.8,0.179582,0.179281,2.10056,11,0.013121,10,0.00037659,-2.67767,-0.235228,-0.25082,-20.5849,0.179281,
2,1,0,1,0,20855.8,0.181082,0.180775,2.06854,11,0.0131998,10,0.000373941,-2.68434,-0.271857,-0.217026,-17.5833,0.180775,
2,1,0,1,0,20855.9,0.182579,0.182278,2.04694,11,0.0132774,10,0.000373113,-2.68889,-0.276574,-0.213325,-17.0658,0.182278,
2,1,0,1,0,20855.9,0.184075,0.183776,2.02371,11,0.0133542,10,0.00037191,-2.69385,-0.307872,-0.191638,-15.1796,0.183776,
2,1,0,1,0,20856,0.185579,0.185287,2.00117,11,0.0134305,10,0.000370791,-2.69872,-0.353969,-0.166681,-13.0495,0.185287,
2,1,0,1,0,20856,0.187074,0.18678,1.98652,11,0.0135056,10,0.000371041,-2.70191,-0.457267,-0.129027,-10.0038,0.18678,
2,1,0,1,0,20856,0.18857,0.188239,1.97058,11,0.0135801,10,0.000370941,-2.70541,-0.420362,-0.140355,-10.7736,0.188239,
2,1,0,1,0,20856.1,0.19007,0.189802,1.95369,11,0.0136542,10,0.000370814,-2.70914,-0.410489,-0.143731,-10.942,0.189802,
2,1,0,1,0,20856.1,0.19157,0.191247,1.93483,11,0.0137277,10,0.000370029,-2.71336,-0.508725,-0.115976,-8.77215,0.191247,
2,1,0,1,0,20856.1,0.193066,0.192757,1.92193,11,0.0138005,10,0.000370465,-2.71626,-0.662209,-0.0890957,-6.69516,0.192757,
2,1,0,1,0,20856.2,0.194563,0.194233,1.91199,11,0.0138728,10,0.000371372,-2.71851,-0.5977,-0.0987117,-7.37967,0.194233,
2,1,0,1,0,20856.2,0.196063,0.195694,1.8996,11,0.013945,10,0.000371739,-2.72134,-0.521184,-0.113204,-8.4178,0.195694,
2,1,0,1,0,20856.3,0.197563,0.197267,1.88815,11,0.0140167,10,0.000372469,-2.72396,-0.582261,-0.101329,-7.48815,0.197267,
2,1,0,1,0,20856.3,0.199059,0.198746,1.88185,11,0.0140877,10,0.000374011,-2.72541,-0.66922,-0.0881623,-6.47114,0.198746,
2,1,0,1,0,20856.3,0.200555,0.200285,1.87495,11,0.0141585,10,0.000375525,-2.72701,-0.853272,-0.0691456,-5.04545,0.200285,
2,1,0,1,0,20856.4,0.202059,0.201783,1.86654,11,0.0142293,10,0.000376636,-2.72896,-0.67119,-0.0879035,-6.37389,0.201783,
2,1,0,1,0,20856.4,0.203554,0.203226,1.85401,11,0.0142995,10,0.000376784,-2.73189,-0.79613,-0.0741085,-5.36306,0.203226,
2,1,0,1,0,20856.4,0.20505,0.204717,1.8421,11,0.0143692,10,0.000377109,-2.73469,-1.03305,-0.0571124,-4.12936,0.204717,
2,1,0,1,0,20856.5,0.20655,0.206262,1.83613,11,0.0144389,10,0.000378724,-2.7361,-1.31803,-0.0447637,-3.22039,0.206262,
2,1,0,1,0,20856.5,0.20805,0.207719,1.83098,11,0.0145086,10,0.000380329,-2.73732,-0.765206,-0.0771034,-5.51946,0.207719,
2,1,0,1,0,20856.6,0.209546,0.20923,1.82758,11,0.0145777,10,0.000382385,-2.73812,-0.912306,-0.0646713,-4.61936,0.20923,
2,1,0,1,0,20856.6,0.211043,0.210737,1.82049,11,0.0146465,10,0.000383643,-2.73981,-0.903661,-0.0652899,-4.64267,0.2107366,
2,1,0,1,0,20856.6,0.212543,0.212233,1.81701,11,0.0147152,10,0.000385628,-2.74064,-1.74482,-0.0338143,-2.38965,0.212233,
2,1,0,1,0,20856.7,0.214043,0.21372,1.81536,11,0.0147838,10,0.000387978,-2.74104,-1.43717,-0.0410529,-2.89866,0.21372,
2,1,0,1,0,20856.7,0.215539,0.215215,1.80651,11,0.014852,10,0.000388789,-2.74316,-1.26535,-0.0466274,-3.28485,0.215215,
2,1,0,1,0,20856.7,0.217035,0.216722,1.79511,11,0.0149199,10,0.00038904,-2.74591,-1.37109,-0.0430313,-3.0236,0.216722,
2,1,0,1,0,20856.8,0.218538,0.218242,1.78917,11,0.014988,10,0.000390471,-2.74735,-4.39984,-0.0134096,-0.940565,0.218242,
2,1,0,1,0,20856.8,0.220034,0.219725,1.7885,11,0.0150556,10,0.000392978,-2.74751,-1.46857,-0.0401752,-2.80898,0.2197247,
2,1,0,1,0,20856.9,0.22153,0.221261,1.78591,11,0.0151231,10,0.000395152,-2.74814,-1.09747,-0.05376,-3.74382,0.221261,
2,1,0,1,0,20856.9,0.22303,0.222713,1.77719,11,0.0151905,10,0.000395804,-2.75027,-1.15541,-0.0510641,-3.54686,0.222713,
2,1,0,1,0,20856.9,0.22453,0.224237,1.77761,11,0.0152577,10,0.000398607,-2.75016,-2.2035,-0.0267756,-1.85141,0.224237,
2,1,0,1,0,20857,0.226026,0.225735,1.77141,11,0.0153247,10,0.00039987,-2.75168,-1.40896,-0.041875,-2.89162,0.225735,
2,1,0,1,0,20857,0.227523,0.227218,1.77025,11,0.0153915,10,0.000402233,-2.75197,-0.979006,-0.0602652,-4.15382,0.227218,
2,1,0,1,0,20857,0.229023,0.228721,1.76186,11,0.0154583,10,0.000402976,-2.75403,-1.97597,-0.0298587,-2.05575,0.228721,
2,1,0,1,0,20857.1,0.230523,0.2302,1.75766,11,0.0155248,10,0.000404614,-2.75506,-1.72669,-0.0341695,-2.35327,0.2302,
2,1,0,1,0,20857.1,0.232019,0.231708,1.75562,11,0.0155912,10,0.000406791,-2.75557,-2.07484,-0.028436,-1.94999,0.231708,
2,1,0,1,0,20857.2,0.233515,0.233186,1.75515,11,0.0156574,10,0.000409277,-2.75568,-1.14355,-0.0515939,-3.52338,0.233186,
2,1,0,1,0,20857.2,0.235018,0.23471,1.75085,11,0.0157239,10,0.000410942,-2.75675,-1.26073,-0.0467984,-3.19193,0.23471,
2,1,0,1,0,20857.2,0.236514,0.236239,1.74262,11,0.0157897,10,0.000411674,-2.7588,-1.73848,-0.0339376,-2.30803,0.236239,
2,1,0,1,0,20857.3,0.23801,0.237726,1.74016,11,0.0158555,10,0.00041368,-2.75941,-2.90976,-0.0202766,-1.37641,0.237726,
2,1,0,1,0,20857.3,0.23951,0.239241,1.73761,11,0.0159213,10,0.000415708,-2.76005,-1.55905,-0.0378436,-2.56771,0.239241,
2,1,0,1,0,20857.3,0.24101,0.240702,1.73123,11,0.0159871,10,0.000416709,-2.76165,-1.60561,-0.0367462,-2.4872,0.240702,
2,1,0,1,0,20857.4,0.242506,0.242188,1.72583,11,0.0160524,10,0.000417976,-2.763,-1.07811,-0.0547254,-3.70458,0.242188,
2,1,0,1,0,20857.4,0.244003,0.243674,1.72496,11,0.0161177,10,0.000420329,-2.76322,-4.56781,-0.0129165,-0.87239,0.243674,
2,1,0,1,0,20857.5,0.245503,0.245203,1.72634,11,0.016183,10,0.000423304,-2.76287,-1.97745,-0.0298363,-2.00914,0.245203,
2,1,0,1,0,20857.5,0.247003,0.24675,1.72504,11,0.0162483,10,0.000425653,-2.7632,-1.90698,-0.030939,-2.07545,0.24675,
2,1,0,1,0,20857.5,0.248499,0.248125,1.71613,11,0.0163133,10,0.000425813,-2.76545,-1.9865,-0.0297004,-1.99055,0.248125,
2,1,0,1,0,20857.6,0.249995,0.249681,1.71533,11,0.0163781,10,0.000428285,-2.76565,-2.72832,-0.021625,-1.44642,0.249681,
2,1,0,1,0,20857.6,0.251498,0.2512,1.71025,11,0.0164431,10,0.000429614,-2.76694,-5.21361,-0.0113165,-0.756405,0.2512,
2,1,0,1,0,20857.6,0.252994,0.252647,1.71113,11,0.0165077,10,0.000432313,-2.76672,-1.12545,-0.0524233,-3.50042,0.252647,
2,1,0,1,0,20857.7,0.25449,0.25417,1.70464,11,0.0165722,10,0.000433269,-2.76837,-1.15031,-0.0512906,-3.41921,0.25417,
2,1,0,1,0,20857.7,0.25599,0.255667,1.69655,11,0.0166367,10,0.000433752,-2.77043,-2.53946,-0.0232333,-1.54778,0.255667,
2,1,0,1,0,20857.8,0.25749,0.257209,1.70272,11,0.016701,10,0.000437957,-2.76886,-3.07474,-0.0191886,-1.27207,0.257209,
2,1,0,1,0,20857.8,0.258987,0.258674,1.69911,11,0.0167652,10,0.000439514,-2.76978,-3.23503,-0.0182379,-1.20766,0.258674,
2,1,0,1,0,20857.8,0.260483,0.260223,1.69935,11,0.0168293,10,0.000442211,-2.76972,-1.06153,-0.0555802,-3.67289,0.260223,
2,1,0,1,0,20857.9,0.261983,0.261663,1.69148,11,0.0168933,10,0.000442598,-2.77173,-1.6743,-0.0352386,-2.32359,0.2616635,
2,1,0,1,0,20857.9,0.263483,0.263196,1.6899,11,0.0169573,10,0.000444776,-2.77214,-6.89959,-0.00855123,-0.563018,0.263196,
2,1,0,1,0,20857.9,0.264978,0.264657,1.68316,11,0.0170209,10,0.000445462,-2.77387,-2.00089,-0.0294868,-1.94318,0.264657,
2,1,0,1,0,20858,0.266474,0.26617,1.68123,11,0.0170846,10,0.000447495,-2.77437,-2.9716,-0.0198546,-1.30374,0.26617,
2,1,0,1,0,20858,0.267977,0.267662,1.67303,11,0.0171483,10,0.000447805,-2.7765,-2.23054,-0.0264511,-1.73538,0.267662,
2,1,0,1,0,20858.1,0.269474,0.26917,1.67562,11,0.0172117,10,0.000451026,-2.77583,-2.64215,-0.0223303,-1.46326,0.26917,
2,1,0,1,0,20858.1,0.27097,0.270673,1.67941,11,0.0172749,10,0.000454571,-2.77484,-2.01738,-0.0292458,-1.90874,0.270673,
2,1,0,1,0,20858.1,0.27247,0.272183,1.67589,11,0.0173383,10,0.000456149,-2.77575,-1.19801,-0.0492483,-3.20328,0.272183,
2,1,0,1,0,20858.2,0.27397,0.273666,1.66995,11,0.0174015,10,0.000457007,-2.7773,-1.37756,-0.0428294,-2.78477,0.273666,
2,1,0,1,0,20858.2,0.275467,0.275197,1.66497,11,0.0174644,10,0.000458195,-2.77859,-2.08253,-0.028331,-1.84083,0.275197,
2,1,0,1,0,20858.2,0.276963,0.276692,1.66098,11,0.0175272,10,0.000459579,-2.77964,-1.53718,-0.0383819,-2.49056,0.276692,
2,1,0,1,0,20858.3,0.278463,0.278154,1.65715,11,0.01759,10,0.000460943,-2.78064,-1.24047,-0.0475628,-3.08049,0.278154,
2,1,0,1,0,20858.3,0.279963,0.279652,1.65374,11,0.0176528,10,0.000462471,-2.78153,-2.16642,-0.0272339,-1.76147,0.279652,
2,1,0,1,0,20858.4,0.281459,0.281165,1.653,11,0.0177151,10,0.000464767,-2.78173,-1.59295,-0.0370382,-2.38974,0.281165,
2,1,0,1,0,20858.4,0.282954,0.282675,1.64931,11,0.0177774,10,0.000466218,-2.7827,-4.63243,-0.0127363,-0.818512,0.282675,
2,1,0,1,0,20858.4,0.284458,0.284132,1.64915,11,0.01784,10,0.000468578,-2.78274,-2.31628,-0.0254719,-1.63322,0.284132,
2,1,0,1,0,20858.5,0.285954,0.285659,1.64527,11,0.0179021,10,0.000469985,-2.78376,-1.39015,-0.0424414,-2.71912,0.285659,
2,1,0,1,0,20858.5,0.28745,0.287148,1.64092,11,0.017964,10,0.000471186,-2.78491,-1.11193,-0.0530608,-3.39541,0.287148,
2,1,0,1,0,20858.5,0.28895,0.288624,1.63477,11,0.018026,10,0.000471835,-2.78654,-10.0114,-0.00589327,-0.376355,0.288624,
2,1,0,1,0,20858.6,0.29045,0.290178,1.63241,11,0.0180879,10,0.00047369,-2.78717,-4.58669,-0.0128633,-0.821591,0.290178,
2,1,0,1,0,20858.6,0.291947,0.291628,1.62654,11,0.0181496,10,0.000474343,-2.78874,-1.27754,-0.0461827,-2.93789,0.291628,
2,1,0,1,0,20858.7,0.293443,0.293147,1.62265,11,0.018211,10,0.000475676,-2.78977,-1.10757,-0.0532697,-3.38194,0.293147,
2,1,0,1,0,20858.7,0.294943,0.294658,1.62777,11,0.0182725,10,0.000479635,-2.78841,-1.94074,-0.0304008,-1.92336,0.294658,
2,1,0,1,0,20858.7,0.296443,0.296154,1.62541,11,0.0183339,10,0.000481371,-2.78904,-2.82644,-0.0208743,-1.31652,0.296154,
2,1,0,1,0,20858.8,0.297939,0.297664,1.61822,11,0.0183951,10,0.000481685,-2.79096,-2.04377,-0.0288682,-1.81755,0.297664,
2,1,0,1,0,20858.8,0.299434,0.299145,1.61186,11,0.0184561,10,0.000482181,-2.79267,-0.014147,-4.1705,-220.62,0.299145,
2,1,0,0,0,20858.8,0.299962,0.299727,1.53362,11,0.0184801,10,0.000459667,-2.81428,0.000788268,74.8477,1906.45,0.299727,
2,1,0,1,0,20858.9,0.298689,0.298389,0.372467,11,0.0185051,10,0.00011114,-3.42891,0.00311459,18.9431,526.14,0.298389,
2,0,0,1,0,20858.9,0.297189,0.296921,-0.054178,11,0.018509,10,-1.60866e-05,-4.26618,0.0109217,5.40211,235.765,0.296921,
2,0,0,1,0,20858.9,0.295692,0.295401,-0.239458,11,0.0185024,10,-7.07363e-05,-3.62077,-0.00424897,-13.8857,101.837,0.295401,
2,0,0,1,0,20859,0.294196,0.293876,-0.338042,11,0.0184907,10,-9.93426e-05,-3.47103,-0.0118309,-4.98694,57.601,0.293876,
2,0,0,1,0,20859,0.292696,0.292374,-0.40851,11,0.0184759,10,-0.000119438,-3.3888,-0.0221626,-2.66214,40.0475,0.292374,
2,0,0,1,0,20859,0.291196,0.290908,-0.466024,11,0.018459,10,-0.00013557,-3.33159,-0.0322343,-1.83035,31.9425,0.290908,
2,0,0,1,0,20859.1,0.2897,0.289329,-0.506764,11,0.0184402,10,-0.000146621,-3.29519,-0.0424048,-1.39135,26.7837,0.289329,
2,0,0,1,0,20859.1,0.288205,0.287863,-0.541177,11,0.01842,10,-0.000155785,-3.26666,-0.0532018,-1.10898,23.0555,0.287863,
2,0,0,1,0,20859.2,0.286701,0.286419,-0.56746,11,0.0183984,10,-0.000162531,-3.24607,-0.0615839,-0.958043,21.4255,0.286419,
2,0,0,1,0,20859.2,0.285205,0.284919,-0.602091,11,0.0183758,10,-0.000171547,-3.22034,-0.0720912,-0.818407,19.3277,0.284919,
2,0,0,1,0,20859.2,0.283708,0.283404,-0.630862,11,0.018352,10,-0.000178789,-3.20007,-0.0874911,-0.674354,16.5913,0.283404,
2,0,0,1,0,20859.3,0.282208,0.281881,-0.653898,11,0.0183272,10,-0.000184321,-3.18449,-0.0932741,-0.632544,16.0972,0.281881,
2,0,0,1,0,20859.3,0.280709,0.280392,-0.684991,11,0.0183014,10,-0.000192066,-3.16432,-0.107259,-0.550069,14.5104,0.2803925,
2,0,0,1,0,20859.3,0.279212,0.278904,-0.705088,11,0.0182749,10,-0.000196652,-3.15176,-0.113137,-0.521492,14.1727,0.278904,
2,0,0,1,0,20859.4,0.277716,0.27745,-0.723062,11,0.0182477,10,-0.000200614,-3.14082,-0.11623,-0.507615,14.2301,0.27745,
2,0,0,1,0,20859.4,0.276216,0.27585,-0.744822,11,0.0182195,10,-0.000205459,-3.12795,-0.130946,-0.450566,13.0526,0.27585,
2,0,0,1,0,20859.5,0.274716,0.274441,-0.75961,11,0.0181906,10,-0.000208468,-3.11941,-0.158667,-0.371847,11.0833,0.274441,
2,0,0,1,0,20859.5,0.27322,0.27293,-0.775209,11,0.0181612,10,-0.000211578,-3.11058,-0.158066,-0.373261,11.3483,0.27293,
2,0,0,1,0,20859.5,0.271725,0.271419,-0.792567,11,0.0181312,10,-0.000215118,-3.10096,-0.144147,-0.409305,12.7222,0.271419,
2,0,0,1,0,20859.6,0.270221,0.269913,-0.811258,11,0.0181002,10,-0.000218969,-3.09084,-0.18663,-0.316133,10.0102,0.269913,
2,0,0,1,0,20859.6,0.268725,0.268429,-0.830593,11,0.0180688,10,-0.000222955,-3.08061,-0.225714,-0.261392,8.42065,0.268429,
2,0,0,1,0,20859.6,0.267228,0.266927,-0.840038,11,0.0180369,10,-0.000224229,-3.0757,-0.190809,-0.30921,10.1518,0.266927,
2,0,0,1,0,20859.7,0.265728,0.265413,-0.860816,11,0.0180043,10,-0.000228472,-3.06509,-0.182892,-0.322595,10.7912,0.265413,
2,0,0,1,0,20859.7,0.264228,0.263917,-0.870703,11,0.0179712,10,-0.000229793,-3.06013,-0.220544,-0.26752,9.12552,0.263917,
2,0,0,1,0,20859.8,0.262732,0.262441,-0.885222,11,0.0179377,10,-0.000232319,-3.05295,-0.340211,-0.173422,5.9978,0.2624411,
2,0,0,1,0,20859.8,0.261236,0.260914,-0.896376,11,0.0179037,10,-0.000233877,-3.04751,-0.227507,-0.259332,9.10462,0.260914,
2,0,0,1,0,20859.8,0.259736,0.259443,-0.910252,11,0.0178692,10,-0.000236158,-3.04084,-0.259119,-0.227695,8.13194,0.259443,
2,0,0,1,0,20859.9,0.258236,0.257881,-0.925972,11,0.0178341,10,-0.00023879,-3.0334,-0.250083,-0.235922,8.49116,0.257881,
2,0,0,1,0,20859.9,0.256741,0.256437,-0.937935,11,0.0177986,10,-0.000240521,-3.02783,-0.227833,-0.258961,9.43315,0.256437,
2,0,0,1,0,20859.9,0.255241,0.254912,-0.950871,11,0.0177626,10,-0.000242389,-3.02188,-0.274061,-0.215281,7.94187,0.254912,
2,0,0,1,0,20860,0.253741,0.253441,-0.961171,11,0.0177262,10,-0.0002436,-3.0172,-0.289506,-0.203796,7.64681,0.253441,
2,0,0,1,0,20860,0.252245,0.251924,-0.969074,11,0.0176894,10,-0.000244133,-3.01364,-0.256123,-0.230358,8.73595,0.2519238,
2,0,0,1,0,20860.1,0.250748,0.250443,-0.980697,11,0.0176521,10,-0.000245609,-3.00847,-0.281753,-0.209403,8.06172,0.250443,
2,0,0,1,0,20860.1,0.249248,0.248926,-0.991209,11,0.0176144,10,-0.000246738,-3.00383,-0.314583,-0.18755,7.27858,0.248926,
2,0,0,1,0,20860.1,0.247748,0.247448,-1.00081,11,0.0175762,10,-0.000247649,-2.99965,-0.317463,-0.185849,7.31352,0.2474485,
2,0,0,1,0,20860.2,0.246252,0.245973,-1.01441,11,0.0175378,10,-0.000249518,-2.99379,-0.276128,-0.213669,8.46347,0.245973,
2,0,0,1,0,20860.2,0.244756,0.24445,-1.03178,11,0.017499,10,-0.000252217,-2.98641,-0.30766,-0.19177,7.65686,0.24445,
2,0,0,1,0,20860.2,0.243252,0.242948,-1.04235,11,0.0174594,10,-0.000253237,-2.98199,-0.395086,-0.149334,6.02697,0.242948,
2,0,0,1,0,20860.3,0.241756,0.24145,-1.04396,11,0.0174198,10,-0.000252064,-2.98132,-0.365188,-0.161561,6.59486,0.24145,
2,0,0,1,0,20860.3,0.240261,0.239938,-1.05806,11,0.0173798,10,-0.000253867,-2.97549,-0.356228,-0.165624,6.85959,0.239938,
2,0,0,1,0,20860.4,0.238761,0.238461,-1.06503,11,0.0173393,10,-0.000253968,-2.97264,-0.328627,-0.179535,7.4907,0.238461,
2,0,0,1,0,20860.4,0.237261,0.236947,-1.0746,11,0.0172984,10,-0.000254622,-2.96875,-0.387082,-0.152423,6.40837,0.236947,
2,0,0,1,0,20860.4,0.235765,0.235433,-1.08352,11,0.0172572,10,-0.000255095,-2.96516,-0.476741,-0.123757,5.26102,0.235433,
2,0,0,1,0,20860.5,0.234268,0.233969,-1.09651,11,0.0172158,10,-0.00025655,-2.95999,-0.424929,-0.138847,5.94087,0.233969,
2,0,0,1,0,20860.5,0.232768,0.232437,-1.10913,11,0.0171738,10,-0.000257804,-2.95502,-0.330781,-0.178366,7.68413,0.232437,
2,0,0,1,0,20860.5,0.231268,0.230965,-1.11789,11,0.0171314,10,-0.000258193,-2.9516,-0.445247,-0.132511,5.75926,0.230965,
2,0,0,1,0,20860.6,0.229772,0.229457,-1.12814,11,0.0170888,10,-0.000258859,-2.94764,-0.384834,-0.153313,6.72679,0.229457,
2,0,0,1,0,20860.6,0.228275,0.227937,-1.13107,11,0.0170459,10,-0.000257813,-2.94651,-0.420467,-0.14032,6.22052,0.227937,
2,0,0,1,0,20860.7,0.226772,0.226495,-1.1434,11,0.0170025,10,-0.000258975,-2.9418,-0.339117,-0.173981,7.78597,0.226495,
2,0,0,1,0,20860.7,0.225276,0.224959,-1.14943,11,0.0169588,10,-0.000258574,-2.93952,-0.339264,-0.173906,7.84029,0.224959,
2,0,0,1,0,20860.7,0.223781,0.223495,-1.16112,11,0.0169148,10,-0.000259505,-2.93512,-0.412182,-0.143141,6.48622,0.223495,
2,0,0,1,0,20860.8,0.222281,0.222008,-1.1679,11,0.0168704,10,-0.000259283,-2.93259,-0.450867,-0.130859,5.98418,0.222008,
2,0,0,1,0,20860.8,0.220781,0.220509,-1.17928,11,0.0168257,10,-0.000260042,-2.92838,-0.380348,-0.155121,7.12399,0.220509,
2,0,0,1,0,20860.8,0.219284,0.218981,-1.1978,11,0.0167806,10,-0.000262295,-2.92162,-0.405891,-0.145359,6.74419,0.218981,
2,0,0,1,0,20860.9,0.217788,0.217443,-1.20456,11,0.0167352,10,-0.000261922,-2.91917,-0.543607,-0.108534,5.07984,0.217443,
2,0,0,1,0,20860.9,0.216288,0.215969,-1.20687,11,0.0166893,10,-0.000260647,-2.91834,-0.496577,-0.118813,5.60895,0.215969,
2,0,0,1,0,20861,0.214788,0.214426,-1.21293,11,0.0166432,10,-0.000260085,-2.91616,-0.529845,-0.111353,5.30759,0.214426,
2,0,0,1,0,20861,0.213292,0.212938,-1.22747,11,0.0165969,10,-0.000261376,-2.91099,-0.447869,-0.131735,6.31147,0.212938,
2,0,0,1,0,20861,0.211796,0.211478,-1.23668,11,0.0165501,10,-0.000261529,-2.90774,-0.542675,-0.108721,5.24609,0.211478,
2,0,0,1,0,20861.1,0.210293,0.209986,-1.24664,11,0.0165028,10,-0.000261777,-2.90426,-0.491512,-0.120038,5.83482,0.209986,
2,0,0,1,0,20861.1,0.208797,0.208474,-1.25863,11,0.0164554,10,-0.000262393,-2.9001,-0.367892,-0.160373,7.86761,0.208474,
2,0,0,1,0,20861.1,0.207301,0.206943,-1.26699,11,0.0164076,10,-0.000262196,-2.89723,-0.347709,-0.169682,8.35534,0.206943,
2,0,0,1,0,20861.2,0.205801,0.205483,-1.27734,11,0.0163591,10,-0.000262471,-2.89369,-0.416244,-0.141744,7.03814,0.2054825,
2,0,0,1,0,20861.2,0.204301,0.203991,-1.28381,11,0.0163104,10,-0.000261885,-2.8915,-0.885633,-0.066619,3.35605,0.2039911,
2,0,0,1,0,20861.3,0.202804,0.202483,-1.2909,11,0.0162616,10,-0.000261384,-2.88911,-0.480815,-0.122708,6.20638,0.202483,
2,0,0,1,0,20861.3,0.201308,0.200973,-1.30149,11,0.0162124,10,-0.000261564,-2.88556,-0.356487,-0.165504,8.41938,0.2009726,
2,0,0,1,0,20861.3,0.199808,0.199487,-1.31463,11,0.0161627,10,-0.000262252,-2.8812,-0.464011,-0.127152,6.52489,0.1994869,
2,0,0,1,0,20861.4,0.198308,0.197928,-1.32608,11,0.0161126,10,-0.000262468,-2.87743,-0.569973,-0.103514,5.33358,0.197928,
2,0,0,1,0,20861.4,0.196812,0.196478,-1.33279,11,0.0160623,10,-0.000261864,-2.87524,-0.416675,-0.141597,7.36534,0.1964782,
2,0,0,1,0,20861.4,0.195316,0.194977,-1.34268,11,0.0160116,10,-0.000261793,-2.87203,-0.346472,-0.170288,8.92779,0.194977,
2,0,0,1,0,20861.5,0.193813,0.193497,-1.36099,11,0.0159602,10,-0.000263348,-2.86614,-0.379155,-0.155609,8.23552,0.193497,
2,0,0,1,0,20861.5,0.192317,0.192005,-1.36452,11,0.0159086,10,-0.000261994,-2.86502,-0.507934,-0.116157,6.17745,0.192005,
2,0,0,1,0,20861.6,0.190821,0.190489,-1.36916,11,0.0158566,10,-0.00026081,-2.86355,-0.485967,-0.121407,6.54529,0.1904894,
2,0,0,1,0,20861.6,0.189321,0.188963,-1.38618,11,0.0158043,10,-0.000261938,-2.85818,-0.437838,-0.134753,7.30632,0.188963,
2,0,0,1,0,20861.6,0.187821,0.187516,-1.39846,11,0.0157513,10,-0.000262233,-2.85435,-0.376622,-0.156656,8.56354,0.187516,
2,0,0,1,0,20861.7,0.186324,0.18598,-1.41314,11,0.0156981,10,-0.000262816,-2.84981,-0.492702,-0.119748,6.57968,0.18598,
2,0,0,1,0,20861.7,0.184828,0.18451,-1.42637,11,0.0156444,10,-0.00026318,-2.84577,-0.444572,-0.132712,7.36489,0.18451,
2,0,0,1,0,20861.7,0.183328,0.183013,-1.43376,11,0.0155902,10,-0.000262396,-2.84352,-0.396916,-0.148646,8.33528,0.183013,
2,0,0,1,0,20861.8,0.181828,0.181483,-1.44865,11,0.0155354,10,-0.000262905,-2.83904,-0.358835,-0.164421,9.29688,0.181483,
2,0,0,1,0,20861.8,0.180332,0.180028,-1.464,11,0.0154802,10,-0.000263562,-2.83446,-0.331329,-0.17807,10.1757,0.180028,
2,0,0,1,0,20861.9,0.178836,0.178532,-1.47678,11,0.0154245,10,-0.000263654,-2.83068,-0.372572,-0.158359,9.14913,0.178532,
2,0,0,1,0,20861.9,0.177333,0.177053,-1.4908,11,0.015368,10,-0.000263951,-2.82658,-0.366571,-0.160951,9.39096,0.177053,
2,0,0,1,0,20861.9,0.175837,0.175529,-1.51226,11,0.0153112,10,-0.000265444,-2.82037,-0.27765,-0.212498,12.5148,0.175529,
2,0,0,1,0,20862,0.174341,0.174056,-1.52416,11,0.0152538,10,-0.00026529,-2.81697,-0.305755,-0.192965,11.4834,0.174056,
2,0,0,1,0,20862,0.172841,0.172533,-1.54797,11,0.0151955,10,-0.000267076,-2.81024,-0.275957,-0.213802,12.8561,0.172533,
2,0,0,1,0,20862,0.171341,0.170992,-1.55744,11,0.0151366,10,-0.00026631,-2.80759,-0.275794,-0.213928,13.065,0.170992,
2,0,0,1,0,20862.1,0.169844,0.169542,-1.5843,11,0.0150772,10,-0.000268607,-2.80016,-0.271815,-0.217059,13.4296,0.169542,
2,0,0,1,0,20862.1,0.168348,0.168015,-1.60712,11,0.0150169,10,-0.000270019,-2.79395,-0.239717,-0.246124,15.4316,0.1680146,
2,0,0,1,0,20862.1,0.166848,0.166534,-1.62911,11,0.0149556,10,-0.000271303,-2.78805,-0.244088,-0.241716,15.3778,0.166534,
2,0,0,1,0,20862.2,0.165348,0.165041,-1.65147,11,0.0148934,10,-0.000272559,-2.78213,-0.23862,-0.247255,15.9668,0.165041,
2,0,0,1,0,20862.2,0.163852,0.163534,-1.67896,11,0.0148306,10,-0.000274568,-2.77496,-0.221254,-0.266662,17.4927,0.163534,
2,0,0,1,0,20862.3,0.162357,0.16204,-1.70748,11,0.0147667,10,-0.00027668,-2.76764,-0.187726,-0.314287,20.923,0.16204,
2,0,0,1,0,20862.3,0.160853,0.160521,-1.73926,11,0.0147013,10,-0.000279187,-2.75964,-0.190558,-0.309617,20.9366,0.160521,
2,0,0,1,0,20862.3,0.159357,0.159028,-1.76726,11,0.0146351,10,-0.000281042,-2.7527,-0.181386,-0.325272,22.4704,0.159028,
2,0,0,1,0,20862.4,0.157861,0.157549,-1.80395,11,0.0145676,10,-0.00028421,-2.74378,-0.166012,-0.355395,25.0977,0.157549,
2,0,0,1,0,20862.4,0.156361,0.15602,-1.84421,11,0.0144985,10,-0.000287733,-2.73419,-0.148411,-0.397545,28.715,0.15602,
2,0,0,1,0,20862.4,0.154861,0.154537,-1.89097,11,0.0144277,10,-0.000292224,-2.72332,-0.145023,-0.406832,30.0793,0.1545369,
2,0,0,1,0,20862.5,0.153364,0.153049,-1.93597,11,0.0143554,10,-0.000296298,-2.7131,-0.139134,-0.424053,32.1542,0.153049,
2,0,0,1,0,20862.5,0.151868,0.151553,-1.98848,11,0.0142813,10,-0.000301359,-2.70148,-0.123746,-0.476784,37.1097,0.151553,
2,0,0,1,0,20862.6,0.150368,0.150066,-2.05343,11,0.014205,10,-0.00030815,-2.68752,-0.111395,-0.529647,42.4401,0.150066,
2,0,0,1,0,20862.6,0.148868,0.148498,-2.12173,11,0.0141262,10,-0.000315073,-2.67331,-0.102191,-0.577352,47.7301,0.148498,
2,0,0,1,0,20862.6,0.147372,0.147045,-2.19077,11,0.014045,10,-0.000322141,-2.6594,-0.0983225,-0.600066,51.3369,0.147045,
2,0,0,1,0,20862.7,0.145877,0.145548,-2.26278,11,0.0139609,10,-0.000329343,-2.64536,-0.0926944,-0.6365,56.5034,0.145548,
2,0,0,1,0,20862.7,0.144373,0.144103,-2.34998,11,0.0138734,10,-0.000338639,-2.62894,-0.0882607,-0.668474,61.7737,0.144103,
2,0,0,1,0,20862.7,0.142877,0.142534,-2.45473,11,0.0137827,10,-0.000349881,-2.61,-0.0812769,-0.725913,69.7341,0.142534,
2,0,0,1,0,20862.8,0.14138,0.141055,-2.56542,11,0.0136881,10,-0.000361866,-2.59084,-0.0833306,-0.708023,70.7645,0.141055,
2,0,0,1,0,20862.8,0.13988,0.13956,-2.67305,11,0.0135893,10,-0.000373051,-2.57299,-0.0802462,-0.735238,76.758,0.13956,
2,0,0,1,0,20862.9,0.13838,0.138029,-2.79273,11,0.0134862,10,-0.000385479,-2.55397,-0.0812352,-0.726286,79.1699,0.138029,
2,0,0,1,0,20862.9,0.136884,0.13659,-2.91656,11,0.0133789,10,-0.000398372,-2.53513,-0.0800147,-0.737365,83.7892,0.13659,
2,0,0,1,0,20862.9,0.135388,0.135046,-3.03865,11,0.0132668,10,-0.000410356,-2.51732,-0.082633,-0.714001,84.5855,0.135046,
2,0,0,1,0,20863,0.133888,0.133578,-3.16846,11,0.0131496,10,-0.000423236,-2.49915,-0.0865225,-0.681904,84.3139,0.133578,
2,0,0,1,0,20863,0.132389,0.132028,-3.29262,11,0.0130278,10,-0.000434718,-2.48246,-0.0896808,-0.657889,84.5955,0.132028,
2,0,0,1,0,20863,0.130893,0.13057,-3.41681,11,0.0129016,10,-0.000446133,-2.46638,-0.0919379,-0.641738,85.5457,0.13057,
2,0,0,1,0,20863.1,0.129393,0.129076,-3.54829,11,0.0127702,10,-0.000458,-2.44998,-0.101755,-0.579825,80.0685,0.129076,
2,0,0,1,0,20863.1,0.127893,0.12756,-3.65738,11,0.0126344,10,-0.000466534,-2.43683,-0.110811,-0.532436,75.9001,0.12756,
2,0,0,1,0,20863.2,0.126397,0.12612,-3.76995,11,0.0124947,10,-0.000475467,-2.42366,-0.118855,-0.496403,72.8918,0.12612,
2,0,0,1,0,20863.2,0.1249,0.124549,-3.87465,11,0.012351,10,-0.000482584,-2.41177,-0.12946,-0.455738,68.7982,0.124549,
2,0,0,1,0,20863.2,0.1234,0.123074,-3.97731,11,0.0122031,10,-0.000489502,-2.40041,-0.145839,-0.404555,62.6395,0.123074,
2,0,0,1,0,20863.3,0.1219,0.121563,-4.06705,11,0.0120515,10,-0.000494403,-2.39072,-0.16198,-0.364242,57.6861,0.121563,
2,0,0,1,0,20863.3,0.120404,0.120086,-4.14314,11,0.0118971,10,-0.000497534,-2.38267,-0.186278,-0.31673,51.1927,0.120086,
2,0,0,1,0,20863.3,0.118908,0.118601,-4.21742,11,0.01174,10,-0.000500191,-2.37495,-0.207324,-0.284579,46.8608,0.118601,
2,0,0,1,0,20863.4,0.117404,0.117065,-4.28896,11,0.0115793,10,-0.000502087,-2.36765,-0.226418,-0.260579,43.5249,0.117065,
2,0,0,1,0,20863.4,0.115909,0.115567,-4.35466,11,0.011417,10,-0.000503254,-2.36105,-0.293442,-0.201062,34.0074,0.115567,
2,0,0,1,0,20863.5,0.114413,0.114089,-4.39829,11,0.0112527,10,-0.000501796,-2.35672,-0.348017,-0.169532,29.0126,0.114089,
2,0,0,1,0,20863.5,0.112913,0.112566,-4.43339,11,0.0110866,10,-0.000499048,-2.35326,-0.408194,-0.144539,24.9662,0.112566,
2,0,0,1,0,20863.5,0.111413,0.111108,-4.46535,11,0.010919,10,-0.000496138,-2.35014,-0.515738,-0.114399,19.9086,0.111108,
2,0,0,1,0,20863.6,0.109917,0.109575,-4.48793,11,0.0107508,10,-0.000491765,-2.34795,-0.721958,-0.0817222,14.3087,0.109575,
2,0,0,1,0,20863.6,0.10842,0.108079,-4.5044,11,0.0105817,10,-0.00048683,-2.34636,-1.39983,-0.0421481,7.40615,0.108079,
2,0,0,1,0,20863.6,0.10692,0.106612,-4.51543,11,0.0104119,10,-0.000481398,-2.3453,-3.65668,-0.0161348,2.84209,0.1066117,
2,0,0,1,0,20863.7,0.10542,0.105121,-4.5189,11,0.0102418,10,-0.000475029,-2.34497,13.1104,0.00450023,-0.792263,0.105121,
2,0,0,1,0,20863.7,0.103924,0.103593,-4.51893,11,0.0100722,10,-0.00046813,-2.34496,1.99232,0.0296137,-5.20637,0.103593,
2,0,0,1,0,20863.8,0.102427,0.10211,-4.50391,11,0.00990288,10,-0.000459894,-2.34641,0.806995,0.0731107,-12.8119,0.10211,
2,0,0,1,0,20863.8,0.100924,0.100635,-4.47148,11,0.0097334,10,-0.000449986,-2.34955,0.65841,0.0896098,-15.6389,0.100635,
2,0,0,1,0,20863.8,0.0994284,0.099076,-4.45188,11,0.00956582,10,-0.000441074,-2.35146,0.57709,0.102237,-17.7459,0.099076,
2,0,0,1,0,20863.9,0.0979329,0.097648,-4.41513,11,0.00939925,10,-0.000431129,-2.35506,0.465263,0.12681,-21.8709,0.097648,
2,0,0,1,0,20863.9,0.0964329,0.0960916,-4.38338,11,0.00923344,10,-0.000421206,-2.35819,0.392693,0.150245,-25.6897,0.0960916,
2,0,0,1,0,20863.9,0.094933,0.0946591,-4.3401,11,0.00906907,10,-0.00041083,-2.3625,0.367494,0.160547,-27.2192,0.0946591,
2,0,0,1,0,20864,0.0934366,0.0931175,-4.30058,11,0.00890679,10,-0.000400459,-2.36647,0.359135,0.164284,-27.6017,0.09311749,
2,0,0,1,0,20864,0.0919401,0.0916151,-4.26083,11,0.00874597,10,-0.000390357,-2.37051,0.349882,0.168628,-28.027,0.0916151,
2,0,0,1,0,20864.1,0.0904402,0.0901579,-4.22236,11,0.00858618,10,-0.00038068,-2.37444,0.324256,0.181955,-29.9054,0.0901579,
2,0,0,1,0,20864.1,0.0889402,0.0886018,-4.17885,11,0.00842806,10,-0.000370254,-2.37894,0.341413,0.172811,-28.162,0.0886018,
2,0,0,1,0,20864.1,0.0874438,0.0870813,-4.13367,11,0.00827212,10,-0.000359966,-2.38366,0.354525,0.16642,-26.8729,0.0870813,
2,0,0,1,0,20864.2,0.0859483,0.0855792,-4.09113,11,0.0081176,10,-0.000350116,-2.38816,0.396552,0.148782,-23.7998,0.0855792,
2,0,0,1,0,20864.2,0.0844447,0.0841371,-4.05593,11,0.00796366,10,-0.000341254,-2.39191,0.410001,0.143902,-22.8204,0.08413709,
2,0,0,1,0,20864.2,0.0829492,0.0826089,-4.02472,11,0.00781184,10,-0.000332478,-2.39526,0.398264,0.148143,-23.2849,0.0826089,
2,0,0,1,0,20864.3,0.0814528,0.0811487,-3.98934,11,0.00766135,10,-0.000323729,-2.3991,0.452572,0.130366,-20.31,0.0811487,
2,0,0,1,0,20864.3,0.0799528,0.0796338,-3.96143,11,0.00751164,10,-0.000315464,-2.40215,0.499865,0.118032,-18.2464,0.0796338,
2,0,0,1,0,20864.4,0.0784529,0.0781704,-3.93923,11,0.00736292,10,-0.000307931,-2.40459,0.571136,0.103303,-15.8581,0.0781704,
2,0,0,1,0,20864.4,0.0769565,0.0766506,-3.91329,11,0.00721549,10,-0.000299956,-2.40746,0.516093,0.11432,-17.4443,0.0766506,
2,0,0,1,0,20864.4,0.0754601,0.07515,-3.8811,11,0.00706902,10,-0.000291665,-2.41104,0.546565,0.107947,-16.3867,0.07515002,
2,0,0,1,0,20864.5,0.0739601,0.0736573,-3.86379,11,0.0069231,10,-0.000284596,-2.41299,0.625746,0.0942875,-14.2329,0.0736573,
2,0,0,1,0,20864.5,0.0724601,0.0721652,-3.83659,11,0.00677796,10,-0.000276869,-2.41605,0.66158,0.0891805,-13.3805,0.0721652,
2,0,0,1,0,20864.5,0.0709637,0.0706832,-3.82311,11,0.00663392,10,-0.00027023,-2.41758,0.643561,0.0916775,-13.6745,0.0706832,
2,0,0,1,0,20864.6,0.0694682,0.0691363,-3.80214,11,0.00649066,10,-0.000262866,-2.41997,0.646618,0.091244,-13.5415,0.0691363,
2,0,0,1,0,20864.6,0.0679646,0.0676656,-3.78316,11,0.00634748,10,-0.00025599,-2.42214,0.740541,0.0796714,-11.766,0.0676656,
2,0,0,1,0,20864.7,0.0664691,0.0661555,-3.76065,11,0.00620575,10,-0.000248787,-2.42474,0.785144,0.0751454,-11.0311,0.0661555,
2,0,0,1,0,20864.7,0.0649727,0.0646546,-3.75054,11,0.00606456,10,-0.000242489,-2.42591,0.738389,0.0799037,-11.6723,0.0646546,
2,0,0,1,0,20864.7,0.0634727,0.0631206,-3.72641,11,0.0059237,10,-0.000235213,-2.42871,0.611486,0.0964863,-14.0275,0.0631206,
2,0,0,1,0,20864.8,0.0619728,0.0616936,-3.70069,11,0.00578376,10,-0.000228309,-2.43172,0.593592,0.0993949,-14.3903,0.0616936,
2,0,0,1,0,20864.8,0.0604764,0.060146,-3.68282,11,0.00564491,10,-0.000221507,-2.43382,0.738022,0.0799435,-11.4938,0.060146,
2,0,0,1,0,20864.8,0.05898,0.0586824,-3.66631,11,0.0055068,10,-0.000215148,-2.43577,0.667826,0.0883463,-12.6456,0.0586824,
2,0,0,1,0,20864.9,0.05748,0.0571601,-3.64887,11,0.00536901,10,-0.00020857,-2.43784,0.639346,0.0922817,-13.13,0.0571601,
2,0,0,1,0,20864.9,0.05598,0.0556666,-3.62411,11,0.00523203,10,-0.000201742,-2.4408,0.575561,0.102509,-14.495,0.05566664,
2,0,0,1,0,20865,0.0544836,0.0541662,-3.60495,11,0.00509623,10,-0.000195267,-2.4431,0.720482,0.0818896,-11.5115,0.0541662,
2,0,0,1,0,20865,0.0529881,0.0526851,-3.58538,11,0.00496116,10,-0.000188896,-2.44546,0.635623,0.0928223,-12.974,0.0526851,
2,0,0,1,0,20865,0.0514846,0.0511406,-3.5638,11,0.00482602,10,-0.000182255,-2.44809,0.563849,0.104638,-14.54,0.0511406,
2,0,0,1,0,20865.1,0.049989,0.0496879,-3.53317,11,0.00469247,10,-0.000175556,-2.45184,0.524664,0.112453,-15.553,0.0496879,
2,0,0,1,0,20865.1,0.0484926,0.0481559,-3.51508,11,0.00455984,10,-0.000169272,-2.45406,0.5558,0.106153,-14.5984,0.0481559,
2,0,0,1,0,20865.1,0.0469927,0.0466526,-3.49566,11,0.00442757,10,-0.000163082,-2.45647,0.538548,0.109554,-14.9399,0.0466526,
2,0,0,1,0,20865.2,0.0454927,0.0451851,-3.4767,11,0.00429612,10,-0.000157095,-2.45883,0.470165,0.125488,-17.0113,0.0451851,
2,0,0,1,0,20865.2,0.0439963,0.0436594,-3.45529,11,0.00416589,10,-0.000150856,-2.46152,0.492659,0.119758,-16.1208,0.0436594,
2,0,0,1,0,20865.3,0.0424999,0.0421625,-3.43666,11,0.00403662,10,-0.000144898,-2.46386,0.469681,0.125617,-16.8105,0.0421625,
2,0,0,1,0,20865.3,0.0409999,0.040659,-3.40242,11,0.00390784,10,-0.000138339,-2.46821,0.524118,0.11257,-14.9635,0.040659,
2,0,0,1,0,20865.3,0.0394999,0.0391767,-3.38777,11,0.00377987,10,-0.000132722,-2.47009,0.495763,0.119008,-15.7003,0.0391767,
2,0,0,1,0,20865.4,0.0380044,0.0375961,-3.35443,11,0.00365316,10,-0.000126113,-2.47438,0.429205,0.137463,-18.0042,0.0375961,
2,0,0,1,0,20865.4,0.0365089,0.0361749,-3.32629,11,0.00352751,10,-0.000120328,-2.47804,0.445393,0.132467,-17.2228,0.0361749,
2,0,0,1,0,20865.4,0.0350054,0.0346735,-3.30283,11,0.00340219,10,-0.00011452,-2.48111,0.444425,0.132756,-17.1079,0.03467349,
2,0,0,1,0,20865.5,0.033509,0.0331867,-3.27585,11,0.00327845,10,-0.000108715,-2.48468,0.417288,0.141389,-18.0666,0.0331867,
2,0,0,1,0,20865.5,0.0320125,0.0316959,-3.24898,11,0.00315576,10,-0.000102979,-2.48825,0.408195,0.144539,-18.3116,0.0316959,
2,0,0,1,0,20865.6,0.0305126,0.0301228,-3.21908,11,0.00303383,10,-9.69677e-05,-2.49227,0.446178,0.132234,-16.6138,0.0301228,
2,0,0,1,0,20865.6,0.0290126,0.0286821,-3.19497,11,0.00291296,10,-9.16386e-05,-2.49553,0.408375,0.144475,-17.983,0.0286821,
2,0,0,1,0,20865.6,0.0275162,0.0271904,-3.16744,11,0.00279332,10,-8.61241e-05,-2.49929,0.41985,0.140526,-17.3669,0.0271904,
2,0,0,1,0,20865.7,0.0260198,0.0257144,-3.14129,11,0.00267467,10,-8.07763e-05,-2.50289,0.368948,0.159914,-19.6017,0.0257144,
2,0,0,1,0,20865.7,0.0245198,0.02419,-3.10693,11,0.00255678,10,-7.51567e-05,-2.50767,0.394648,0.1495,-18.179,0.02419,
2,0,0,1,0,20865.7,0.0230198,0.0226757,-3.08434,11,0.00244007,10,-6.99398e-05,-2.51084,0.41189,0.143242,-17.2438,0.0226757,
2,0,0,1,0,20865.8,0.0215243,0.0212215,-3.06095,11,0.00232451,10,-6.49581e-05,-2.51414,0.448776,0.131469,-15.6869,0.0212215,
2,0,0,1,0,20865.8,0.0200288,0.0197336,-3.0371,11,0.00220984,10,-5.99328e-05,-2.51754,0.402184,0.146699,-17.3445,0.0197336,
2,0,0,1,0,20865.9,0.0185253,0.0181723,-3.01152,11,0.00209548,10,-5.47264e-05,-2.52121,0.413855,0.142562,-16.7412,0.0181723,
2,0,0,1,0,20865.9,0.0170289,0.0167183,-2.9869,11,0.00198279,10,-4.99358e-05,-2.52478,0.471715,0.125076,-14.5956,0.0167183,
2,0,0,1,0,20865.9,0.0155325,0.0152044,-2.96253,11,0.00187091,10,-4.50436e-05,-2.52834,0.551072,0.107064,-12.4047,0.0152044,
2,0,0,1,0,20866,0.0140325,0.0136957,-2.94564,11,0.00175941,10,-4.03424e-05,-2.53082,0.529062,0.111518,-12.8284,0.01369565,
2,0,0,1,0,20866,0.0125325,0.0121917,-2.92295,11,0.00164863,10,-3.56357e-05,-2.53418,0.444246,0.132809,-15.1682,0.0121917,
2,0,0,1,0,20866,0.0110361,0.0107242,-2.9016,11,0.00153905,10,-3.11173e-05,-2.53736,0.530518,0.111212,-12.6168,0.0107242,
2,0,0,1,0,20866.1,0.0095397,0.00921561,-2.8879,11,0.00143013,10,-2.66137e-05,-2.53942,0.7344,0.0803377,-9.04456,0.00921561,
2,0,0,1,0,20866.1,0.00803616,0.007698,-2.87246,11,0.00132121,10,-2.21122e-05,-2.54175,0.668635,0.0882395,-9.89144,0.007698,
2,0,0,1,0,20866.2,0.00654064,0.00622486,-2.85951,11,0.00121339,10,-1.78001e-05,-2.54371,0.728179,0.081024,-9.03664,0.00622486,
2,0,0,1,0,20866.2,0.00504513,0.00471492,-2.83996,11,0.00110614,10,-1.33902e-05,-2.54669,0.760472,0.0775834,-8.61633,0.00471492,
2,0,0,1,0,20866.2,0.00354515,0.0032219,-2.831,11,0.000999104,10,-9.12122e-06,-2.54806,-28.5905,-0.00206362,0.229249,0.0032219,
2,0,0,1,0,20866.3,0.00204518,0.00167441,-2.85563,11,0.000892161,10,-4.78151e-06,-2.5443,1.83945,0.0320748,-3.54605,0.00167441,
2,0,0,1,0,20866.3,0.000548773,0.000209121,-2.82872,11,0.000785193,10,-5.91547e-07,-2.54841, , , ,0.0002091214,
2,0,0,1,0,20866.3,0.000177222,-0.00016499,-2.82592,11,0.000758729,10,4.66248e-07,-2.54884, , , ,-0.00016499,