File: Figure_codes/Fig_3-5/rawdata_trumpetplot_data/after 10th/20221101_1-115_003_TrumpetPlot_ParaChange_from10_every3_04_CV_C01_34.csv
mode,ox/red,error,control changes,counter inc.,time/s,control/V,Ewe/V,<I>/mA,cycle number,(Q-Qo)/C,I Range,P/W,log(|I|),Tafel slope mV/dec,alpha_eff,dI/d(E-IR),E-IR/V,
2,0,0,1,0,68044.4,2.44065e-05,-0.000497109,-0.397693,35,0.0000000E+000,10,1.97697e-07,-3.40045, , , ,-0.000497109,
2,1,0,1,0,68044.6,0.00129787,0.000946104,0.09729,35,-6.47645e-06,10,9.20464e-08,-4.01193, , , ,0.000946104,
2,1,0,1,0,68044.7,0.00279606,0.00246567,0.244523,35,2.34396e-05,10,6.02911e-07,-3.61168,0.00217138,27.1716,76.2181,0.00246567,
2,1,0,1,0,68044.9,0.00429425,0.00395236,0.28951,35,6.61377e-05,10,1.14425e-06,-3.53834,0.0218196,2.70399,28.3208,0.00395236,
2,1,0,1,0,68045,0.00579244,0.00551646,0.320178,35,0.000114208,10,1.76625e-06,-3.49461,0.0403751,1.4613,17.8588,0.005516456,
2,1,0,1,0,68045.2,0.00729063,0.00699678,0.34266,35,0.000166221,10,2.39752e-06,-3.46514,0.0568509,1.0378,13.7104,0.00699678,
2,1,0,1,0,68045.3,0.00878882,0.00851741,0.362786,35,0.00022139,10,3.09e-06,-3.44035,0.0731273,0.806813,11.2986,0.00851741,
2,1,0,1,0,68045.5,0.010287,0.00996804,0.377639,35,0.00027906,10,3.76432e-06,-3.42292,0.0974906,0.605187,8.8339,0.00996804,
2,1,0,1,0,68045.6,0.0117852,0.0114558,0.390099,35,0.000338906,10,4.46889e-06,-3.40883,0.101957,0.578674,8.79598,0.0114558,
2,1,0,1,0,68045.8,0.0132838,0.0129378,0.402249,35,0.000400517,10,5.20423e-06,-3.39551,0.105105,0.561344,8.85595,0.0129378,
2,1,0,1,0,68045.9,0.0147814,0.0144649,0.41465,35,0.000464095,10,5.99786e-06,-3.38232,0.114294,0.516211,8.35923,0.0144649,
2,1,0,1,0,68046.1,0.0162789,0.0159795,0.427283,35,0.000529555,10,6.82779e-06,-3.36928,0.14375,0.410434,6.79843,0.0159795,
2,1,0,1,0,68046.2,0.017778,0.0174407,0.43643,35,0.000596499,10,7.61166e-06,-3.36009,0.152286,0.387428,6.61334,0.0174407,
2,1,0,1,0,68046.4,0.0192761,0.0189327,0.445992,35,0.00066472,10,8.44383e-06,-3.35067,0.149489,0.394679,6.85307,0.0189327,
2,1,0,1,0,68046.5,0.0207743,0.020448,0.455211,35,0.000734578,10,9.30817e-06,-3.34179,0.153483,0.384407,6.82796,0.02044804,
2,1,0,1,0,68046.7,0.0222725,0.02194,0.467104,35,0.000805922,10,1.02483e-05,-3.33059,0.166205,0.354983,6.44684,0.02194,
2,1,0,1,0,68046.8,0.0237707,0.0234607,0.474439,35,0.000878623,10,1.11307e-05,-3.32382,0.186609,0.316169,5.85552,0.0234607,
2,1,0,1,0,68047,0.0252689,0.0249707,0.483394,35,0.000952708,10,1.20707e-05,-3.3157,0.164259,0.359189,6.80516,0.0249707,
2,1,0,1,0,68047.1,0.0267671,0.0264478,0.494607,35,0.00102817,10,1.30813e-05,-3.30574,0.157231,0.375244,7.24115,0.02644782,
2,1,0,1,0,68047.3,0.0282662,0.0279925,0.505712,35,0.00110538,10,1.41562e-05,-3.2961,0.165042,0.357486,7.03687,0.0279925,
2,1,0,1,0,68047.4,0.0297635,0.0294495,0.513863,35,0.00118396,10,1.5133e-05,-3.28915,0.175242,0.336677,6.7487,0.0294495,
2,1,0,1,0,68047.6,0.031261,0.0309348,0.521251,35,0.00126391,10,1.61248e-05,-3.28295,0.186302,0.31669,6.4684,0.0309348,
2,1,0,1,0,68047.7,0.0327599,0.0324338,0.532109,35,0.0013452,10,1.72583e-05,-3.274,0.185583,0.317918,6.60532,0.0324338,
2,1,0,1,0,68047.9,0.034258,0.0339407,0.544049,35,0.00142801,10,1.84654e-05,-3.26436,0.18647,0.316405,6.70507,0.0339407,
2,1,0,1,0,68048,0.0357562,0.0354454,0.552995,35,0.00151227,10,1.96011e-05,-3.25728,0.220298,0.267819,5.7652,0.03544537,
2,1,0,1,0,68048.2,0.0372544,0.0369374,0.563967,35,0.00159807,10,2.08314e-05,-3.24875,0.215886,0.273293,6.00411,0.0369374,
2,1,0,1,0,68048.3,0.0387526,0.0384028,0.570836,35,0.00168499,10,2.19217e-05,-3.24349,0.20733,0.28457,6.36026,0.03840284,
2,1,0,1,0,68048.5,0.0402508,0.039915,0.581775,35,0.00177346,10,2.32216e-05,-3.23524,0.211116,0.279467,6.34161,0.039915,
2,1,0,1,0,68048.6,0.041749,0.0414505,0.591425,35,0.00186353,10,2.45148e-05,-3.2281,0.237609,0.248307,5.71395,0.0414505,
2,1,0,1,0,68048.8,0.0432472,0.0429488,0.601251,35,0.00195493,10,2.5823e-05,-3.22094,0.236303,0.24968,5.84985,0.0429488,
2,1,0,1,0,68048.9,0.0447458,0.0444338,0.609333,35,0.00204761,10,2.7075e-05,-3.21515,0.222573,0.265082,6.29308,0.0444338,
2,1,0,1,0,68049.1,0.0462433,0.0459484,0.616391,35,0.00214186,10,2.83222e-05,-3.21014,0.207884,0.283813,6.83551,0.0459484,
2,1,0,1,0,68049.2,0.0477409,0.0474113,0.627105,35,0.00223737,10,2.97319e-05,-3.20266,0.236297,0.249686,6.11611,0.0474113,
2,1,0,1,0,68049.4,0.0492399,0.0489221,0.63656,35,0.00233441,10,3.11418e-05,-3.19616,0.265096,0.222561,5.52276,0.0489221,
2,1,0,1,0,68049.5,0.0507381,0.0503929,0.642201,35,0.00243249,10,3.23624e-05,-3.19233,0.276869,0.213097,5.36657,0.0503929,
2,1,0,1,0,68049.7,0.0522363,0.0518965,0.652967,35,0.00253195,10,3.38867e-05,-3.18511,0.232408,0.253863,6.46461,0.0518965,
2,1,0,1,0,68049.8,0.0537345,0.0533631,0.663765,35,0.00263281,10,3.54205e-05,-3.17799,0.285363,0.206754,5.34196,0.0533631,
2,1,0,1,0,68050,0.0552327,0.0549091,0.671744,35,0.00273505,10,3.68849e-05,-3.1728,0.326132,0.180908,4.72504,0.0549091,
2,1,0,1,0,68050.1,0.0567309,0.0563895,0.676756,35,0.00283822,10,3.81619e-05,-3.16957,0.318119,0.185465,4.90532,0.0563895,
2,1,0,1,0,68050.3,0.0582291,0.0578655,0.685781,35,0.00294242,10,3.96831e-05,-3.16381,0.294058,0.200641,5.38021,0.0578655,
2,1,0,1,0,68050.4,0.0597282,0.0594202,0.695664,35,0.00304805,10,4.13365e-05,-3.1576,0.309355,0.190719,5.14902,0.0594202,
2,1,0,1,0,68050.6,0.0612255,0.0608709,0.701503,35,0.00315493,10,4.27011e-05,-3.15397,0.366703,0.160893,4.39389,0.0608709,
2,1,0,1,0,68050.7,0.062723,0.0624,0.707455,35,0.00326277,10,4.41452e-05,-3.1503,0.369529,0.159663,4.41057,0.0624,
2,1,0,1,0,68050.9,0.0642218,0.0639332,0.715242,35,0.00337151,10,4.57277e-05,-3.14555,0.333958,0.176669,4.939,0.0639332,
2,1,0,1,0,68051,0.06572,0.065422,0.720984,35,0.00348136,10,4.71682e-05,-3.14207,0.324102,0.182042,5.11851,0.065422,
2,1,0,1,0,68051.2,0.0672182,0.0668769,0.729853,35,0.00359242,10,4.88103e-05,-3.13676,0.423295,0.139383,3.95892,0.0668769,
2,1,0,1,0,68051.3,0.0687164,0.0684155,0.733763,35,0.00370439,10,5.02008e-05,-3.13444,0.520808,0.113285,3.23942,0.06841553,
2,1,0,1,0,68051.5,0.0702146,0.0699277,0.738737,35,0.00381693,10,5.16581e-05,-3.13151,0.422219,0.139738,4.04086,0.0699277,
2,1,0,1,0,68051.6,0.0717128,0.0713709,0.745065,35,0.00393043,10,5.31759e-05,-3.12781,0.381084,0.154822,4.499,0.0713709,
2,1,0,1,0,68051.8,0.073211,0.0728735,0.752459,35,0.00404503,10,5.48343e-05,-3.12352,0.507814,0.116184,3.40985,0.0728735,
2,1,0,1,0,68051.9,0.0747092,0.0743888,0.756715,35,0.00416043,10,5.62911e-05,-3.12107,0.506346,0.116521,3.44107,0.0743888,
2,1,0,1,0,68052.1,0.0762078,0.0758918,0.761056,35,0.00427652,10,5.77579e-05,-3.11858,0.552219,0.106842,3.18399,0.0758918,
2,1,0,1,0,68052.2,0.0777053,0.0773801,0.767606,35,0.00439327,10,5.93974e-05,-3.11486,0.422041,0.139797,4.18906,0.0773801,
2,1,0,1,0,68052.4,0.0792028,0.0788954,0.774873,35,0.00451099,10,6.1134e-05,-3.11077,0.433284,0.136169,4.10674,0.0788954,
2,1,0,1,0,68052.5,0.0807019,0.0803589,0.777606,35,0.00462975,10,6.24875e-05,-3.10924,0.57689,0.102273,3.0982,0.0803589,
2,1,0,1,0,68052.7,0.0822001,0.0818965,0.782237,35,0.00474899,10,6.40625e-05,-3.10666,0.609408,0.0968153,2.96592,0.0818965,
2,1,0,1,0,68052.8,0.0836983,0.0833535,0.788448,35,0.00486881,10,6.57198e-05,-3.10323,0.518625,0.113762,3.50316,0.0833535,
2,1,0,1,0,68053,0.0851965,0.0848423,0.794581,35,0.00498968,10,6.74141e-05,-3.09986,0.423677,0.139257,4.32145,0.0848423,
2,1,0,1,0,68053.1,0.0866947,0.0863969,0.800674,35,0.00511146,10,6.91757e-05,-3.09654,0.459961,0.128272,4.00802,0.0863969,
2,1,0,1,0,68053.3,0.0881929,0.0878666,0.809884,35,0.00523429,10,7.11617e-05,-3.09158,0.39177,0.150598,4.75293,0.08786656,
2,1,0,1,0,68053.4,0.0896911,0.0893681,0.815959,35,0.00535804,10,7.29207e-05,-3.08833,0.323016,0.182653,5.82099,0.0893681,
2,1,0,1,0,68053.6,0.0911902,0.0908668,0.824022,35,0.0054831,10,7.48762e-05,-3.08406,0.289253,0.203974,6.56183,0.0908668,
2,1,0,1,0,68053.7,0.0926874,0.0924034,0.835527,35,0.00560975,10,7.72055e-05,-3.07804,0.27386,0.215439,7.00944,0.0924034,
2,1,0,1,0,68053.9,0.094185,0.0938798,0.846325,35,0.0057378,10,7.94529e-05,-3.07246,0.299527,0.196977,6.49656,0.0938798,
2,1,0,1,0,68054,0.0956838,0.0953912,0.854153,35,0.0058673,10,8.14787e-05,-3.06846,0.251293,0.234786,7.83809,0.0953912,
2,1,0,1,0,68054.2,0.097182,0.0968079,0.865363,35,0.00599837,10,8.3774e-05,-3.0628,0.21888,0.269554,9.11431,0.0968079,
2,1,0,1,0,68054.3,0.0986802,0.0983975,0.880761,35,0.00613158,10,8.66646e-05,-3.05514,0.222045,0.265712,9.12999,0.0983975,
2,1,0,1,0,68054.5,0.100178,0.0998226,0.893943,35,0.00626681,10,8.92358e-05,-3.04869,0.229636,0.256928,8.96359,0.09982264,
2,1,0,1,0,68054.6,0.101677,0.101343,0.905162,35,0.00640416,10,9.17321e-05,-3.04327,0.219523,0.268764,9.5342,0.101343,
2,1,0,1,0,68054.8,0.103175,0.102878,0.923554,35,0.00654362,10,9.50131e-05,-3.03454,0.212403,0.277773,10.0314,0.102878,
2,1,0,1,0,68054.9,0.104673,0.104358,0.941999,35,0.00668559,10,9.83051e-05,-3.02595,0.209851,0.281152,10.3178,0.104358,
2,1,0,1,0,68055.1,0.106171,0.105862,0.956417,35,0.00683008,10,0.000101248,-3.01935,0.218058,0.27057,10.0727,0.105862,
2,1,0,1,0,68055.2,0.10767,0.107377,0.970451,35,0.006977,10,0.000104205,-3.01303,0.216981,0.271913,10.3077,0.107377,
2,1,0,1,0,68055.4,0.109167,0.108821,0.985297,35,0.00712577,10,0.000107221,-3.00643,0.225146,0.262052,10.0955,0.108821,
2,1,0,1,0,68055.5,0.110665,0.110357,1.0002,35,0.00727699,10,0.000110379,-2.99991,0.232153,0.254142,9.92128,0.110357,
2,1,0,1,0,68055.7,0.112164,0.111846,1.01447,35,0.00743044,10,0.000113464,-2.99376,0.288595,0.204439,8.0776,0.111846,
2,1,0,1,0,68055.8,0.113662,0.113283,1.0277,35,0.00758585,10,0.000116421,-2.98813,0.287718,0.205062,8.20873,0.113283,
2,1,0,1,0,68056,0.11516,0.114815,1.03724,35,0.00774259,10,0.000119091,-2.98412,0.359628,0.164058,6.64327,0.114815,
2,1,0,1,0,68056.1,0.116658,0.116353,1.04893,35,0.0079011,10,0.000122047,-2.97925,0.350805,0.168185,6.86816,0.116353,
2,1,0,1,0,68056.3,0.118157,0.117861,1.05829,35,0.00806122,10,0.000124731,-2.9754,0.420228,0.1404,5.78964,0.117861,
2,1,0,1,0,68056.4,0.119655,0.119329,1.06537,35,0.00822255,10,0.000127129,-2.9725,0.733271,0.0804614,3.34247,0.119329,
2,1,0,1,0,68056.6,0.121153,0.120892,1.06864,35,0.0083846,10,0.00012919,-2.97117,0.655451,0.0900143,3.76324,0.120892,
2,1,0,1,0,68056.7,0.122652,0.122348,1.07561,35,0.00854762,10,0.000131599,-2.96834,0.545042,0.108249,4.53813,0.122348,
2,1,0,1,0,68056.9,0.124149,0.123838,1.08137,35,0.00871142,10,0.000133915,-2.96602,0.7269,0.0811666,3.42188,0.123838,
2,1,0,1,0,68057,0.125647,0.12531,1.08492,35,0.00887604,10,0.000135951,-2.9646,0.983624,0.0599823,2.53835,0.12531,
2,1,0,1,0,68057.2,0.127146,0.126805,1.0838,35,0.0090411,10,0.00013743,-2.96505,1.81252,0.0325514,1.38229,0.126805,
2,1,0,1,0,68057.3,0.128644,0.128313,1.09065,35,0.00920648,10,0.000139944,-2.96231,1.58522,0.0372187,1.58397,0.128313,
2,1,0,1,0,68057.5,0.130142,0.129844,1.09275,35,0.00937227,10,0.000141886,-2.96148,8.70404,0.00677846,0.288201,0.1298438,
2,1,0,1,0,68057.6,0.13164,0.131325,1.09236,35,0.00953827,10,0.000143454,-2.96164,-1.19369,-0.0494267,-2.09954,0.1313252,
2,1,0,1,0,68057.8,0.133139,0.132869,1.08745,35,0.00970389,10,0.000144488,-2.96359,-0.847113,-0.0696483,-2.95277,0.132869,
2,1,0,1,0,68057.9,0.134637,0.134359,1.08251,35,0.0098686,10,0.000145444,-2.96557,-0.483603,-0.122001,-5.1483,0.134359,
2,1,0,1,0,68058.1,0.136135,0.135814,1.07388,35,0.0100323,10,0.000145848,-2.96904,-0.323031,-0.182645,-7.62223,0.135814,
2,1,0,1,0,68058.2,0.137633,0.137309,1.06155,35,0.0101945,10,0.000145761,-2.97406,-0.218031,-0.270604,-11.1324,0.137309,
2,1,0,1,0,68058.4,0.139132,0.138859,1.04212,35,0.0103542,10,0.000144707,-2.98208,-0.167339,-0.352578,-14.2648,0.138859,
2,1,0,1,0,68058.5,0.140629,0.140349,1.01778,35,0.0105105,10,0.000142844,-2.99235,-0.135763,-0.434582,-17.1608,0.140349,
2,1,0,1,0,68058.7,0.142127,0.141809,0.98916,35,0.0106631,10,0.000140272,-3.00473,-0.121299,-0.486402,-18.6769,0.141809,
2,1,0,1,0,68058.8,0.143626,0.143334,0.958724,35,0.0108115,10,0.000137418,-3.01831,-0.0983902,-0.599653,-22.3336,0.1433343,
2,1,0,1,0,68059,0.145124,0.144839,0.923012,35,0.0109547,10,0.000133688,-3.03479,-0.0856244,-0.689056,-24.7462,0.144839,
2,1,0,1,0,68059.1,0.146622,0.146326,0.883207,35,0.0110922,10,0.000129236,-3.05394,-0.0798384,-0.738993,-25.5022,0.146326,
2,1,0,1,0,68059.3,0.14812,0.147843,0.846197,35,0.011224,10,0.000125104,-3.07253,-0.0786905,-0.749773,-24.7355,0.147843,
2,1,0,1,0,68059.4,0.149619,0.149275,0.809507,35,0.0113502,10,0.000120839,-3.09178,-0.0760508,-0.775797,-24.5214,0.149275,
2,1,0,1,0,68059.6,0.151117,0.150791,0.773928,35,0.011471,10,0.000116701,-3.1113,-0.0762538,-0.773732,-23.3426,0.150791,
2,1,0,1,0,68059.7,0.152615,0.152278,0.738289,35,0.0115865,10,0.000112425,-3.13177,-0.081625,-0.722817,-20.9741,0.152278,
2,1,0,1,0,68059.9,0.154114,0.153783,0.710102,35,0.0116971,10,0.000109202,-3.14868,-0.0871738,-0.676809,-18.855,0.153783,
2,1,0,1,0,68060,0.155612,0.155261,0.686074,35,0.0118039,10,0.00010652,-3.16363,-0.0998609,-0.590822,-15.8582,0.1552608,
2,1,0,1,0,68060.2,0.157109,0.156787,0.661316,35,0.011907,10,0.000103685,-3.17959,-0.106785,-0.552514,-14.3386,0.156787,
2,1,0,1,0,68060.3,0.158608,0.15832,0.643415,35,0.0120071,10,0.000101865,-3.19151,-0.125619,-0.469675,-11.8579,0.15832,
2,1,0,1,0,68060.5,0.160106,0.15981,0.6255,35,0.0121043,10,9.9961e-05,-3.20377,-0.139298,-0.423553,-10.4028,0.15981,
2,1,0,1,0,68060.6,0.161604,0.161277,0.61355,35,0.0121993,10,9.89519e-05,-3.21215,-0.164605,-0.358433,-8.60147,0.161277,
2,1,0,1,0,68060.8,0.163102,0.162802,0.601699,35,0.0122925,10,9.79579e-05,-3.22062,-0.193056,-0.305611,-7.19013,0.162802,
2,1,0,1,0,68060.9,0.164601,0.164277,0.593021,35,0.0123841,10,9.74199e-05,-3.22693,-0.206137,-0.286218,-6.62017,0.164277,
2,1,0,1,0,68061.1,0.166099,0.165765,0.582058,35,0.0124741,10,9.64849e-05,-3.23503,-0.239026,-0.246835,-5.62718,0.165765,
2,1,0,1,0,68061.2,0.167597,0.167249,0.575754,35,0.0125629,10,9.6294e-05,-3.23976,-0.317059,-0.186085,-4.18331,0.167249,
2,1,0,1,0,68061.4,0.169095,0.168781,0.570958,35,0.0126509,10,9.63668e-05,-3.2434,-0.342065,-0.172482,-3.83572,0.168781,
2,1,0,1,0,68061.5,0.170594,0.170263,0.563981,35,0.012738,10,9.6025e-05,-3.24874,-0.308965,-0.19096,-4.20803,0.170263,
2,1,0,1,0,68061.7,0.172091,0.171741,0.558841,35,0.0128241,10,9.59756e-05,-3.25271,-0.40862,-0.144389,-3.15198,0.171741,
2,1,0,1,0,68061.8,0.173589,0.173228,0.554169,35,0.0129095,10,9.59977e-05,-3.25636,-0.504469,-0.116955,-2.53208,0.173228,
2,1,0,1,0,68062,0.175088,0.174799,0.550557,35,0.0129944,10,9.62366e-05,-3.2592,-0.635212,-0.0928824,-1.99562,0.174799,
2,1,0,1,0,68062.1,0.176586,0.176287,0.547689,35,0.0130787,10,9.65507e-05,-3.26147,-0.482394,-0.122307,-2.61259,0.176287,
2,1,0,1,0,68062.3,0.178084,0.177763,0.541564,35,0.0131626,10,9.62698e-05,-3.26635,-0.533813,-0.110526,-2.34429,0.177763,
2,1,0,1,0,68062.4,0.179582,0.179238,0.538926,35,0.0132459,10,9.65957e-05,-3.26847,-0.580354,-0.101662,-2.1535,0.179238,
2,1,0,1,0,68062.6,0.181081,0.180737,0.538434,35,0.0133289,10,9.73149e-05,-3.26887,-0.62705,-0.0940914,-1.98168,0.180737,
2,1,0,1,0,68062.7,0.182579,0.182294,0.536599,35,0.0134116,10,9.78187e-05,-3.27035,-0.535994,-0.110076,-2.30406,0.182294,
2,1,0,1,0,68062.9,0.184077,0.183753,0.53483,35,0.013494,10,9.82765e-05,-3.27178,-0.660941,-0.0892667,-1.86333,0.183753,
2,1,0,1,0,68063,0.185576,0.185236,0.532636,35,0.0135758,10,9.86634e-05,-3.27357,-0.856062,-0.0689202,-1.43455,0.185236,
2,1,0,1,0,68063.2,0.187074,0.186772,0.531406,35,0.0136575,10,9.92517e-05,-3.27457,-2.05564,-0.0287015,-0.594145,0.186772,
2,1,0,1,0,68063.3,0.188571,0.188262,0.528838,35,0.013739,10,9.95602e-05,-3.27668,-2.06826,-0.0285263,-0.5892,0.188262,
2,1,0,1,0,68063.5,0.19007,0.189748,0.52831,35,0.0138203,10,0.000100246,-3.27711,-1.08118,-0.0545702,-1.12289,0.189748,
2,1,0,1,0,68063.6,0.191568,0.191229,0.526031,35,0.0139012,10,0.000100592,-3.27899,-1.85475,-0.0318101,-0.654204,0.191229,
2,1,0,1,0,68063.8,0.193066,0.192749,0.525227,35,0.013982,10,0.000101237,-3.27965,-14.9852,-0.00393721,-0.0805723,0.192749,
2,1,0,1,0,68063.9,0.194564,0.194239,0.525157,35,0.0140628,10,0.000102006,-3.27971,-1.78365,-0.0330782,-0.677071,0.194239,
2,1,0,1,0,68064.1,0.196063,0.195718,0.522401,35,0.0141434,10,0.000102243,-3.282,-1.15156,-0.0512348,-1.04596,0.195718,
2,1,0,1,0,68064.2,0.197561,0.19721,0.520039,35,0.0142237,10,0.000102557,-3.28396,-1.56875,-0.0376095,-0.766828,0.19721,
2,1,0,1,0,68064.4,0.199059,0.198728,0.520448,35,0.0143038,10,0.000103428,-3.28362,-2.07161,-0.0284803,-0.579528,0.1987278,
2,1,0,1,0,68064.5,0.200557,0.200222,0.522803,35,0.0143839,10,0.000104677,-3.28166,-2.87453,-0.0205251,-0.415514,0.200222,
2,1,0,1,0,68064.7,0.202056,0.201767,0.519664,35,0.0144639,10,0.000104851,-3.28428,-0.821611,-0.0718101,-1.4543,0.201767,
2,1,0,1,0,68064.8,0.203553,0.203249,0.516886,35,0.0145436,10,0.000105057,-3.28661,-1.782,-0.0331088,-0.670011,0.203249,
2,1,0,1,0,68065,0.205051,0.204723,0.516772,35,0.014623,10,0.000105795,-3.2867,1.96551,0.0300176,0.609236,0.204723,
2,1,0,1,0,68065.1,0.20655,0.206204,0.517324,35,0.0147026,10,0.000106674,-3.28624,-9.66584,-0.00610397,-0.12321,0.206204,
2,1,0,1,0,68065.3,0.208048,0.207718,0.516453,35,0.0147823,10,0.000107276,-3.28697,-1.34623,-0.0438262,-0.882482,0.207718,
2,1,0,1,0,68065.4,0.209546,0.209199,0.516002,35,0.0148617,10,0.000107947,-3.28735,-1.41202,-0.0417841,-0.840261,0.209199,
2,1,0,1,0,68065.6,0.211044,0.210708,0.51458,35,0.0149408,10,0.000108426,-3.28855,-1.29231,-0.0456547,-0.917901,0.210708,
2,1,0,1,0,68065.7,0.212543,0.212236,0.514848,35,0.0150199,10,0.000109269,-3.28832,-1.65214,-0.0357113,-0.71594,0.212236,
2,1,0,1,0,68065.9,0.214041,0.213717,0.513467,35,0.0150989,10,0.000109736,-3.28949,-1.77763,-0.0331902,-0.665442,0.213717,
2,1,0,1,0,68066,0.215539,0.215201,0.512845,35,0.0151778,10,0.000110365,-3.29001,-2.78351,-0.0211962,-0.424737,0.215201,
2,1,0,1,0,68066.2,0.217038,0.216724,0.511415,35,0.0152565,10,0.000110836,-3.29123,-1.94325,-0.0303614,-0.607411,0.216724,
2,1,0,1,0,68066.3,0.218535,0.218222,0.51093,35,0.0153352,10,0.000111496,-3.29164,1.90793,0.0309235,0.616928,0.218222,
2,1,0,1,0,68066.4,0.220033,0.219687,0.512359,35,0.015414,10,0.000112559,-3.29043,-8.60421,-0.00685711,-0.136742,0.219687,
2,1,0,1,0,68066.6,0.221532,0.221234,0.508608,35,0.0154926,10,0.000112521,-3.29362,-2.73629,-0.021562,-0.428568,0.221234,
2,1,0,1,0,68066.7,0.22303,0.222691,0.508867,35,0.0155711,10,0.00011332,-3.2934,-1.56539,-0.0376902,-0.749883,0.2226909,
2,1,0,1,0,68066.9,0.224528,0.224211,0.508237,35,0.0156494,10,0.000113953,-3.29393,-1.81588,-0.0324911,-0.646995,0.224211,
2,1,0,1,0,68067,0.226026,0.225719,0.509659,35,0.0157276,10,0.00011504,-3.29272,6.4658,0.00912493,0.181348,0.225719,
2,1,0,1,0,68067.2,0.227525,0.227221,0.508446,35,0.0158059,10,0.00011553,-3.29375,-1.64603,-0.0358438,-0.708451,0.227221,
2,1,0,1,0,68067.3,0.229023,0.228659,0.506229,35,0.0158842,10,0.000115754,-3.29565,-2.65057,-0.0222593,-0.441567,0.228659,
2,1,0,1,0,68067.5,0.230521,0.23017,0.505764,35,0.015962,10,0.000116412,-3.29605,-2.88739,-0.0204337,-0.404703,0.23017,
2,1,0,1,0,68067.6,0.232019,0.231669,0.50637,35,0.0160401,10,0.00011731,-3.29553,-19.7606,-0.00298574,-0.0590693,0.231669,
2,1,0,1,0,68067.8,0.233518,0.233183,0.505782,35,0.0161181,10,0.00011794,-3.29604,-1.43598,-0.041087,-0.810658,0.233183,
2,1,0,1,0,68067.9,0.235015,0.234666,0.505461,35,0.0161958,10,0.000118614,-3.29631,-1.83656,-0.0321252,-0.633642,0.234666,
2,1,0,1,0,68068.1,0.236513,0.236213,0.504268,35,0.0162734,10,0.000119115,-3.29734,19.6523,0.00300219,0.0590784,0.236213,
2,1,0,1,0,68068.2,0.238012,0.237748,0.504339,35,0.016351,10,0.000119905,-3.29728,-26.407,-0.00223426,-0.0439789,0.237748,
2,1,0,1,0,68068.4,0.23951,0.23923,0.503043,35,0.0164286,10,0.000120343,-3.29839,-4.13986,-0.0142517,-0.27978,0.23923,
2,1,0,1,0,68068.5,0.241008,0.240684,0.502796,35,0.016506,10,0.000121015,-3.29861,-1.60014,-0.0368717,-0.724877,0.240684,
2,1,0,1,0,68068.7,0.242506,0.242199,0.501388,35,0.0165833,10,0.000121436,-3.29983,-6.49199,-0.00908812,-0.17841,0.242199,
2,1,0,1,0,68068.8,0.244005,0.243694,0.501332,35,0.0166605,10,0.000122172,-3.29987,40.439,0.00145899,0.028587,0.243694,
2,1,0,1,0,68069,0.245503,0.245218,0.501853,35,0.0167377,10,0.000123064,-3.29942,-1.67908,-0.0351384,-0.685579,0.245218,
2,1,0,1,0,68069.1,0.247001,0.246655,0.501877,35,0.0168149,10,0.00012379,-3.2994,-2.76363,-0.0213488,-0.417352,0.246655,
2,1,0,1,0,68069.3,0.2485,0.248171,0.498746,35,0.0168919,10,0.000123774,-3.30212,-1.54428,-0.0382055,-0.745847,0.248171,
2,1,0,1,0,68069.4,0.249997,0.249672,0.499636,35,0.0169689,10,0.000124745,-3.30135,-1.77107,-0.0333133,-0.650558,0.249672,
2,1,0,1,0,68069.6,0.251495,0.251157,0.498968,35,0.0170457,10,0.000125319,-3.30193,-2.1219,-0.0278053,-0.542241,0.251157,
2,1,0,1,0,68069.7,0.252994,0.252715,0.498276,35,0.0171225,10,0.000125922,-3.30253,-1.56645,-0.0376647,-0.732494,0.252715,
2,1,0,1,0,68069.9,0.254492,0.254159,0.496674,35,0.0171992,10,0.000126234,-3.30393,-1.54951,-0.0380766,-0.739659,0.254159,
2,1,0,1,0,68070,0.25599,0.255689,0.49824,35,0.0172757,10,0.000127394,-3.30256,-7.64501,-0.00771745,-0.150026,0.255689,
2,1,0,1,0,68070.2,0.257488,0.25719,0.497431,35,0.0173522,10,0.000127934,-3.30327,-2.12378,-0.0277807,-0.538653,0.25719,
2,1,0,1,0,68070.3,0.258987,0.258674,0.497881,35,0.0174288,10,0.000128789,-3.30287,-1.71877,-0.0343268,-0.663476,0.258674,
2,1,0,1,0,68070.5,0.260485,0.260189,0.496029,35,0.0175052,10,0.000129061,-3.30449,-1.35305,-0.043605,-0.842911,0.260189,
2,1,0,1,0,68070.6,0.261983,0.261686,0.494898,35,0.0175812,10,0.000129508,-3.30548,-2.15335,-0.0273991,-0.529714,0.261686,
2,1,0,1,0,68070.8,0.263481,0.263118,0.495197,35,0.0176573,10,0.000130295,-3.30522,-3.05805,-0.0192934,-0.372167,0.263118,
2,1,0,1,0,68070.9,0.26498,0.264651,0.494194,35,0.0177334,10,0.000130789,-3.3061,-2.8563,-0.0206561,-0.398681,0.264651,
2,1,0,1,0,68071.1,0.266477,0.266188,0.494028,35,0.0178094,10,0.000131504,-3.30625,-2.14364,-0.0275233,-0.529317,0.266188,
2,1,0,1,0,68071.2,0.267976,0.267642,0.490773,35,0.0178851,10,0.000131351,-3.30912,-1.35126,-0.0436631,-0.838607,0.267642,
2,1,0,1,0,68071.4,0.269474,0.269168,0.490811,35,0.0179608,10,0.000132111,-3.30909,-21.9897,-0.00268307,-0.0514746,0.2691685,
2,1,0,1,0,68071.5,0.270972,0.270663,0.491147,35,0.0180364,10,0.000132935,-3.30879,23.8566,0.00247311,0.0472873,0.270663,
2,1,0,1,0,68071.7,0.27247,0.272189,0.489686,35,0.0181121,10,0.000133287,-3.31008,-1.30171,-0.045325,-0.865357,0.272189,
2,1,0,1,0,68071.8,0.273968,0.273617,0.48857,35,0.0181874,10,0.000133681,-3.31107,-1.16411,-0.0506824,-0.968591,0.273617,
2,1,0,1,0,68072,0.275467,0.275202,0.488311,35,0.0182626,10,0.000134384,-3.3113,-3.82699,-0.0154168,-0.294749,0.275202,
2,1,0,1,0,68072.1,0.276965,0.276677,0.489312,35,0.0183378,10,0.000135382,-3.31041,-1.19858,-0.0492247,-0.939842,0.276677,
2,1,0,1,0,68072.3,0.278463,0.27817,0.488143,35,0.018413,10,0.000135787,-3.31145,-1.63211,-0.0361495,-0.686171,0.27817,
2,1,0,1,0,68072.4,0.279962,0.279669,0.488017,35,0.018488,10,0.000136483,-3.31157,-1.65805,-0.035584,-0.675955,0.279669,
2,1,0,1,0,68072.6,0.281459,0.281118,0.486491,35,0.0185628,10,0.000136761,-3.31293,-2.55196,-0.0231195,-0.438778,0.281118,
2,1,0,1,0,68072.7,0.282957,0.28263,0.486924,35,0.0186375,10,0.000137619,-3.31254,-9.63213,-0.00612533,-0.115874,0.28263,
2,1,0,1,0,68072.9,0.284456,0.284153,0.486636,35,0.0187123,10,0.000138279,-3.3128,-1.48652,-0.03969,-0.751235,0.2841531,
2,1,0,1,0,68073,0.285954,0.285671,0.483196,35,0.0187869,10,0.000138035,-3.31588,-1.74061,-0.0338961,-0.640028,0.285671,
2,1,0,1,0,68073.2,0.287452,0.287136,0.482369,35,0.0188612,10,0.000138506,-3.31662,-1.8089,-0.0326165,-0.615778,0.287136,
2,1,0,1,0,68073.3,0.28895,0.288634,0.482095,35,0.0189355,10,0.000139149,-3.31687,9.14131,0.00645422,0.121401,0.288634,
2,1,0,1,0,68073.5,0.290449,0.290091,0.481026,35,0.0190096,10,0.000139542,-3.31783,-1.71186,-0.0344655,-0.649528,0.2900914,
2,1,0,1,0,68073.6,0.291947,0.291616,0.48052,35,0.0190837,10,0.000140127,-3.31829,-2.35683,-0.0250337,-0.469848,0.291616,
2,1,0,1,0,68073.8,0.293445,0.293117,0.478447,35,0.0191576,10,0.000140241,-3.32017,-1.50278,-0.0392605,-0.735619,0.293117,
2,1,0,1,0,68073.9,0.294943,0.294616,0.480477,35,0.0192313,10,0.000141556,-3.31833,-6.22414,-0.00947922,-0.177286,0.294616,
2,1,0,1,0,68074.1,0.296442,0.296134,0.479802,35,0.0193051,10,0.000142086,-3.31894,-2.7749,-0.021262,-0.397122,0.296134,
2,1,0,1,0,68074.2,0.297939,0.297626,0.477973,35,0.0193787,10,0.000142257,-3.3206,-2.22749,-0.0264872,-0.493474,0.297626,
2,1,0,1,0,68074.4,0.299437,0.299123,0.475807,35,0.0194522,10,0.000142325,-3.32257,-0.00314457,-18.7625,-195.829,0.299123,
2,1,0,1,0,68074.5,0.299738,0.2994,0.280656,35,0.0194885,10,8.40283e-05,-3.55183,0.000554801,106.344,401.701,0.2994,
2,1,0,1,0,68074.6,0.29824,0.297891,0.0287351,35,0.0195033,10,8.55991e-06,-4.54159,0.00332638,17.737,137.165,0.297891,
2,0,0,1,0,68074.8,0.296741,0.296459,-0.0236591,35,0.0195011,10,-7.01397e-06,-4.626,0.108347,0.544546,30.1127,0.296459,
2,0,0,1,0,68074.9,0.295243,0.294942,-0.049389,35,0.0194934,10,-1.45669e-05,-4.30637,-0.00486298,-12.1325,15.4299,0.294942,
2,0,0,1,0,68075.1,0.293745,0.29342,-0.0691825,35,0.0194825,10,-2.02995e-05,-4.16,-0.012572,-4.69296,11.4125,0.29342,
2,0,0,1,0,68075.2,0.292246,0.291929,-0.0831193,35,0.0194692,10,-2.42649e-05,-4.0803,-0.0200967,-2.93581,9.10905,0.291929,
2,0,0,1,0,68075.4,0.290748,0.290418,-0.0959018,35,0.0194537,10,-2.78516e-05,-4.01817,-0.0258255,-2.28456,8.23742,0.290418,
2,0,0,1,0,68075.5,0.28925,0.288934,-0.107218,35,0.0194365,10,-3.09789e-05,-3.96973,-0.0354917,-1.66236,6.8079,0.288934,
2,0,0,1,0,68075.7,0.287752,0.287436,-0.116293,35,0.0194178,10,-3.34268e-05,-3.93445,-0.0427788,-1.37919,6.18337,0.287436,
2,0,0,1,0,68075.8,0.286253,0.285944,-0.123294,35,0.0193978,10,-3.52552e-05,-3.90906,-0.0489946,-1.20421,5.8632,0.285944,
2,0,0,1,0,68076,0.284755,0.284424,-0.133653,35,0.0193765,10,-3.80143e-05,-3.87402,-0.0517098,-1.14098,5.87503,0.284424,
2,0,0,1,0,68076.1,0.283258,0.282961,-0.141602,35,0.0193539,10,-4.00679e-05,-3.84893,-0.0647684,-0.910938,4.9857,0.282961,
2,0,0,1,0,68076.3,0.281759,0.281469,-0.148634,35,0.0193303,10,-4.18358e-05,-3.82788,-0.0783035,-0.753479,4.31776,0.2814692,
2,0,0,1,0,68076.4,0.280261,0.279952,-0.152426,35,0.0193056,10,-4.2672e-05,-3.81694,-0.0822654,-0.717191,4.32018,0.279952,
2,0,0,1,0,68076.6,0.278763,0.27848,-0.160103,35,0.0192801,10,-4.45854e-05,-3.7956,-0.0874749,-0.674479,4.23581,0.2784799,
2,0,0,1,0,68076.7,0.277264,0.276995,-0.167959,35,0.0192535,10,-4.65238e-05,-3.7748,-0.100586,-0.586565,3.82207,0.276995,
2,0,0,1,0,68076.9,0.275766,0.275471,-0.172202,35,0.019226,10,-4.74366e-05,-3.76396,-0.116884,-0.504773,3.38644,0.275471,
2,0,0,1,0,68077,0.274268,0.273913,-0.17911,35,0.0191976,10,-4.90605e-05,-3.74688,-0.11162,-0.528577,3.69735,0.273913,
2,0,0,1,0,68077.2,0.27277,0.272449,-0.18416,35,0.0191685,10,-5.01743e-05,-3.7348,-0.121757,-0.484571,3.49195,0.272449,
2,0,0,1,0,68077.3,0.271272,0.270967,-0.189666,35,0.0191384,10,-5.13933e-05,-3.72201,-0.108384,-0.544363,4.02015,0.270967,
2,0,0,1,0,68077.5,0.269773,0.269429,-0.194242,35,0.0191075,10,-5.23344e-05,-3.71166,-0.129938,-0.454063,3.44579,0.269429,
2,0,0,1,0,68077.6,0.268275,0.267962,-0.199343,35,0.0190759,10,-5.34163e-05,-3.7004,-0.131955,-0.447122,3.47538,0.267962,
2,0,0,1,0,68077.8,0.266778,0.266442,-0.203262,35,0.0190438,10,-5.41577e-05,-3.69194,-0.135471,-0.435517,3.47061,0.266442,
2,0,0,1,0,68077.9,0.265279,0.264981,-0.208312,35,0.0190107,10,-5.51986e-05,-3.68129,-0.140816,-0.418985,3.39088,0.264981,
2,0,0,1,0,68078.1,0.263781,0.263452,-0.212867,35,0.018977,10,-5.60802e-05,-3.67189,-0.187749,-0.314249,2.60997,0.263452,
2,0,0,1,0,68078.2,0.262283,0.261946,-0.218035,35,0.0189426,10,-5.71133e-05,-3.66147,-0.162573,-0.362914,3.08242,0.261946,
2,0,0,1,0,68078.4,0.260784,0.260469,-0.220078,35,0.0189077,10,-5.73235e-05,-3.65742,-0.184656,-0.319513,2.76658,0.2604689,
2,0,0,1,0,68078.5,0.259286,0.258955,-0.228111,35,0.018872,10,-5.90704e-05,-3.64185,-0.174463,-0.338181,2.98868,0.258955,
2,0,0,1,0,68078.7,0.257788,0.257481,-0.231948,35,0.0188357,10,-5.97221e-05,-3.63461,-0.2154,-0.27391,2.45976,0.257481,
2,0,0,1,0,68078.8,0.25629,0.25599,-0.235705,35,0.0187987,10,-6.03381e-05,-3.62763,-0.27952,-0.211076,1.93521,0.25599,
2,0,0,1,0,68079,0.254791,0.254453,-0.238934,35,0.0187612,10,-6.07975e-05,-3.62172,-0.226873,-0.260058,2.41479,0.254453,
2,0,0,1,0,68079.1,0.253293,0.252921,-0.243085,35,0.0187233,10,-6.14813e-05,-3.61424,-0.211093,-0.279498,2.65061,0.252921,
2,0,0,1,0,68079.3,0.251796,0.251494,-0.24561,35,0.0186847,10,-6.17693e-05,-3.60975,-0.26094,-0.226106,2.17075,0.251494,
2,0,0,1,0,68079.4,0.250297,0.249972,-0.249595,35,0.0186455,10,-6.23917e-05,-3.60276,-0.329077,-0.179289,1.74157,0.249972,
2,0,0,1,0,68079.6,0.248799,0.248483,-0.253146,35,0.0186058,10,-6.29025e-05,-3.59663,-0.302575,-0.194993,1.92554,0.248483,
2,0,0,1,0,68079.7,0.247301,0.246979,-0.256308,35,0.0185657,10,-6.33029e-05,-3.59124,-0.221417,-0.266466,2.68176,0.246979,
2,0,0,1,0,68079.9,0.245802,0.245517,-0.260834,35,0.018525,10,-6.40393e-05,-3.58364,-0.287304,-0.205357,2.07191,0.245517,
2,0,0,1,0,68080,0.244304,0.243985,-0.262848,35,0.0184836,10,-6.4131e-05,-3.58029,-0.258327,-0.228393,2.34625,0.243985,
2,0,0,1,0,68080.2,0.242806,0.242462,-0.266302,35,0.0184418,10,-6.45683e-05,-3.57462,-0.309603,-0.190567,1.97938,0.242462,
2,0,0,1,0,68080.3,0.241308,0.240991,-0.269297,35,0.0183997,10,-6.48983e-05,-3.56977,-0.300723,-0.196194,2.06962,0.240991,
2,0,0,1,0,68080.5,0.23981,0.23946,-0.272884,35,0.018357,10,-6.53447e-05,-3.56402,-0.249075,-0.236876,2.51192,0.23946,
2,0,0,1,0,68080.6,0.238311,0.237997,-0.277273,35,0.0183138,10,-6.59901e-05,-3.55709,-0.272386,-0.216605,2.33334,0.237997,
2,0,0,1,0,68080.8,0.236814,0.236505,-0.279155,35,0.0182701,10,-6.60216e-05,-3.55416,-0.327186,-0.180326,1.96378,0.236505,
2,0,0,1,0,68080.9,0.235316,0.23495,-0.279211,35,0.0182261,10,-6.56008e-05,-3.55407,-0.308065,-0.191518,2.10427,0.23495,
2,0,0,1,0,68081.1,0.233817,0.233494,-0.285457,35,0.0181815,10,-6.66526e-05,-3.54446,-0.336779,-0.175189,1.94769,0.233494,
2,0,0,1,0,68081.2,0.232319,0.232008,-0.289038,35,0.0181365,10,-6.70589e-05,-3.53905,-0.334592,-0.176334,1.98025,0.232008,
2,0,0,1,0,68081.4,0.230821,0.23051,-0.290913,35,0.018091,10,-6.70585e-05,-3.53624,-0.492239,-0.119861,1.35773,0.23051,
2,0,0,1,0,68081.5,0.229322,0.229005,-0.292627,35,0.0180451,10,-6.70129e-05,-3.53369,-0.443838,-0.132931,1.52362,0.229005,
2,0,0,1,0,68081.7,0.227824,0.227506,-0.295834,35,0.0179989,10,-6.7304e-05,-3.52895,-0.320982,-0.183811,2.13307,0.227506,
2,0,0,1,0,68081.8,0.226326,0.225958,-0.299603,35,0.0179522,10,-6.76976e-05,-3.52345,-0.332241,-0.177582,2.0808,0.225958,
2,0,0,1,0,68082,0.224828,0.224476,-0.302692,35,0.0179049,10,-6.79469e-05,-3.519,-0.405747,-0.145411,1.71185,0.224476,
2,0,0,1,0,68082.1,0.223329,0.223037,-0.306624,35,0.0178572,10,-6.83884e-05,-3.51339,-0.40339,-0.14626,1.743,0.223037,
2,0,0,1,0,68082.3,0.221831,0.221514,-0.309546,35,0.0178092,10,-6.85686e-05,-3.50928,-0.402321,-0.146649,1.76457,0.221514,
2,0,0,1,0,68082.4,0.220334,0.22,-0.311083,35,0.0177607,10,-6.84384e-05,-3.50712,-0.261449,-0.225666,2.73636,0.22,
2,0,0,1,0,68082.6,0.218835,0.218503,-0.314299,35,0.0177116,10,-6.86754e-05,-3.50266,-0.298293,-0.197792,2.42809,0.218503,
2,0,0,1,0,68082.7,0.217337,0.217016,-0.317562,35,0.0176621,10,-6.89159e-05,-3.49817,-0.405733,-0.145416,1.80111,0.217016,
2,0,0,1,0,68082.9,0.215839,0.215539,-0.317833,35,0.0176123,10,-6.85055e-05,-3.4978,-0.356848,-0.165336,2.06857,0.2155395,
2,0,0,1,0,68083,0.21434,0.214009,-0.321437,35,0.017562,10,-6.87905e-05,-3.4929,-0.303302,-0.194525,2.44369,0.214009,
2,0,0,1,0,68083.2,0.212842,0.212488,-0.326699,35,0.0175112,10,-6.94195e-05,-3.48585,-0.398209,-0.148164,1.87866,0.212488,
2,0,0,1,0,68083.3,0.211344,0.211031,-0.328784,35,0.0174599,10,-6.93834e-05,-3.48309,-0.564193,-0.104574,1.33882,0.211031,
2,0,0,1,0,68083.5,0.209846,0.209514,-0.329582,35,0.0174083,10,-6.90521e-05,-3.48204,-0.459912,-0.128285,1.65691,0.209514,
2,0,0,1,0,68083.6,0.208348,0.208022,-0.334699,35,0.0173564,10,-6.96249e-05,-3.47535,-0.312597,-0.188741,2.46983,0.208022,
2,0,0,1,0,68083.8,0.206849,0.206499,-0.34069,35,0.0173037,10,-7.03522e-05,-3.46764,-0.347412,-0.169827,2.23382,0.206499,
2,0,0,1,0,68083.9,0.205352,0.205039,-0.340222,35,0.0172505,10,-6.97587e-05,-3.46824,-0.429686,-0.13731,1.82001,0.205039,
2,0,0,1,0,68084.1,0.203854,0.203521,-0.343074,35,0.017197,10,-6.98227e-05,-3.46461,-0.428419,-0.137716,1.85105,0.203521,
2,0,0,1,0,68084.2,0.202355,0.202028,-0.3453,35,0.0171433,10,-6.97602e-05,-3.4618,-0.355199,-0.166104,2.25148,0.202028,
2,0,0,1,0,68084.4,0.200857,0.200506,-0.350638,35,0.017089,10,-7.03051e-05,-3.45514,-0.399656,-0.147627,2.01421,0.200506,
2,0,0,1,0,68084.5,0.199359,0.19899,-0.352523,35,0.0170341,10,-7.01485e-05,-3.45281,-0.45011,-0.131079,1.79949,0.19899,
2,0,0,1,0,68084.7,0.19786,0.197526,-0.356725,35,0.0169789,10,-7.04626e-05,-3.44767,-0.477336,-0.123603,1.71722,0.197526,
2,0,0,1,0,68084.8,0.196362,0.196029,-0.358218,35,0.0169233,10,-7.02211e-05,-3.44585,-0.429277,-0.13744,1.92363,0.196029,
2,0,0,1,0,68085,0.194864,0.194503,-0.363241,35,0.0168671,10,-7.06516e-05,-3.4398,-0.331581,-0.177936,2.51189,0.194503,
2,0,0,1,0,68085.1,0.193366,0.193041,-0.366928,35,0.0168104,10,-7.08321e-05,-3.43542,-0.472451,-0.124881,1.78236,0.193041,
2,0,0,1,0,68085.3,0.191867,0.191552,-0.370375,35,0.0167532,10,-7.09462e-05,-3.43136,-0.582683,-0.101256,1.46127,0.191552,
2,0,0,1,0,68085.4,0.190369,0.190036,-0.369967,35,0.0166956,10,-7.03069e-05,-3.43184,-0.408901,-0.144289,2.09987,0.190036,
2,0,0,1,0,68085.6,0.188872,0.18856,-0.376099,35,0.0166376,10,-7.09173e-05,-3.4247,-0.305256,-0.19328,2.8335,0.18856,
2,0,0,1,0,68085.7,0.187373,0.187138,-0.376875,35,0.016579,10,-7.05274e-05,-3.4238,-0.332375,-0.17751,2.62298,0.187138,
2,0,0,1,0,68085.9,0.185875,0.185536,-0.383141,35,0.0165199,10,-7.10866e-05,-3.41664,-0.443278,-0.133099,1.98139,0.185536,
2,0,0,1,0,68086,0.184377,0.184022,-0.383064,35,0.0164603,10,-7.04923e-05,-3.41673,-0.402606,-0.146545,2.19718,0.184022,
2,0,0,1,0,68086.2,0.182878,0.182552,-0.39012,35,0.0164003,10,-7.12172e-05,-3.4088,-0.360455,-0.163682,2.49207,0.182552,
2,0,0,1,0,68086.3,0.18138,0.181071,-0.39277,35,0.0163396,10,-7.11192e-05,-3.40586,-0.34203,-0.1725,2.6435,0.181071,
2,0,0,1,0,68086.5,0.179882,0.179561,-0.397213,35,0.0162783,10,-7.1324e-05,-3.40098,-0.574292,-0.102735,1.58729,0.179561,
2,0,0,1,0,68086.6,0.178384,0.178047,-0.400087,35,0.0162164,10,-7.12342e-05,-3.39785,-0.333319,-0.177008,2.76361,0.178047,
2,0,0,1,0,68086.8,0.176886,0.176579,-0.404651,35,0.0161542,10,-7.14529e-05,-3.39292,-0.309025,-0.190923,3.01473,0.176579,
2,0,0,1,0,68086.9,0.175387,0.175062,-0.408689,35,0.0160911,10,-7.15459e-05,-3.38861,-0.274074,-0.21527,3.42405,0.175062,
2,0,0,1,0,68087.1,0.17389,0.173547,-0.41256,35,0.0160275,10,-7.15984e-05,-3.38451,-0.31162,-0.189333,3.04954,0.173547,
2,0,0,1,0,68087.2,0.172392,0.172041,-0.416985,35,0.0159632,10,-7.17384e-05,-3.37988,-0.278581,-0.211787,3.4478,0.172041,
2,0,0,1,0,68087.4,0.170893,0.17058,-0.421712,35,0.0158982,10,-7.19358e-05,-3.37498,-0.292622,-0.201625,3.31815,0.1705804,
2,0,0,1,0,68087.5,0.169395,0.169067,-0.427451,35,0.0158325,10,-7.2268e-05,-3.36911,-0.237424,-0.248501,4.13794,0.1690672,
2,0,0,1,0,68087.7,0.167897,0.167611,-0.43205,35,0.0157659,10,-7.24165e-05,-3.36447,-0.30445,-0.193792,3.27162,0.167611,
2,0,0,1,0,68087.8,0.166398,0.166057,-0.436494,35,0.0156986,10,-7.24827e-05,-3.36002,-0.288333,-0.204625,3.49694,0.166057,
2,0,0,1,0,68088,0.1649,0.164592,-0.44059,35,0.0156306,10,-7.25177e-05,-3.35597,-0.244498,-0.241311,4.17916,0.164592,
2,0,0,1,0,68088.1,0.163402,0.163068,-0.450042,35,0.0155616,10,-7.33877e-05,-3.34675,-0.231423,-0.254944,4.47224,0.163068,
2,0,0,1,0,68088.3,0.161904,0.161562,-0.457618,35,0.0154916,10,-7.39336e-05,-3.3395,-0.224996,-0.262227,4.6668,0.161562,
2,0,0,1,0,68088.4,0.160405,0.160028,-0.464979,35,0.0154204,10,-7.44098e-05,-3.33257,-0.258156,-0.228544,4.12162,0.160028,
2,0,0,1,0,68088.6,0.158907,0.158539,-0.469708,35,0.0153482,10,-7.44672e-05,-3.32817,-0.207772,-0.283965,5.21839,0.158539,
2,0,0,1,0,68088.7,0.15741,0.157072,-0.479412,35,0.0152749,10,-7.53023e-05,-3.31929,-0.171134,-0.34476,6.45857,0.157072,
2,0,0,1,0,68088.9,0.155911,0.155571,-0.488428,35,0.0152002,10,-7.59854e-05,-3.3112,-0.165538,-0.356414,6.80352,0.155571,
2,0,0,1,0,68089,0.154413,0.154021,-0.499361,35,0.0151239,10,-7.69121e-05,-3.30159,-0.177529,-0.33234,6.45896,0.154021,
2,0,0,1,0,68089.2,0.152915,0.152616,-0.509066,35,0.0150463,10,-7.76917e-05,-3.29323,-0.159557,-0.369773,7.35421,0.152616,
2,0,0,1,0,68089.3,0.151417,0.151077,-0.520533,35,0.014967,10,-7.86407e-05,-3.28355,-0.140971,-0.418525,8.51831,0.151077,
2,0,0,1,0,68089.5,0.149918,0.149598,-0.534896,35,0.0148858,10,-8.00195e-05,-3.27173,-0.128006,-0.460914,9.59774,0.149598,
2,0,0,1,0,68089.6,0.14842,0.148105,-0.548636,35,0.0148024,10,-8.12557e-05,-3.26072,-0.120579,-0.489307,10.4829,0.148105,
2,0,0,1,0,68089.8,0.146922,0.1466,-0.564855,35,0.0147168,10,-8.28079e-05,-3.24806,-0.116241,-0.507565,11.1909,0.1466,
2,0,0,1,0,68089.9,0.145424,0.1451,-0.580108,35,0.0146287,10,-8.41736e-05,-3.23649,-0.100502,-0.587053,13.3985,0.1451,
2,0,0,1,0,68090.1,0.143925,0.143587,-0.60317,35,0.0145376,10,-8.66073e-05,-3.21956,-0.0892763,-0.66087,15.5682,0.143587,
2,0,0,1,0,68090.2,0.142428,0.142127,-0.627012,35,0.0144431,10,-8.91151e-05,-3.20272,-0.0921334,-0.640376,15.6847,0.142127,
2,0,0,1,0,68090.4,0.14093,0.140602,-0.649426,35,0.0143452,10,-9.13103e-05,-3.18747,-0.092447,-0.638204,16.209,0.140602,
2,0,0,1,0,68090.5,0.139431,0.139095,-0.672421,35,0.0142437,10,-9.35302e-05,-3.17236,-0.0889289,-0.663451,17.5036,0.1390948,
2,0,0,1,0,68090.7,0.137933,0.137592,-0.70166,35,0.0141383,10,-9.6543e-05,-3.15387,-0.0854073,-0.690808,18.9262,0.137592,
2,0,0,1,0,68090.8,0.136435,0.136097,-0.731468,35,0.0140286,10,-9.95507e-05,-3.1358,-0.0885369,-0.666389,19.0191,0.136097,
2,0,0,1,0,68091,0.134936,0.134604,-0.760794,35,0.0139145,10,-0.000102406,-3.11873,-0.0927957,-0.635806,18.8244,0.134604,
2,0,0,1,0,68091.1,0.133438,0.133144,-0.789698,35,0.013796,10,-0.000105143,-3.10254,-0.0916567,-0.643706,19.8966,0.1331438,
2,0,0,1,0,68091.3,0.13194,0.131658,-0.820498,35,0.0136732,10,-0.000108025,-3.08592,-0.0929304,-0.634884,20.3723,0.131658,
2,0,0,1,0,68091.4,0.130442,0.130107,-0.854017,35,0.0135455,10,-0.000111113,-3.06853,-0.0943254,-0.625494,20.7671,0.130107,
2,0,0,1,0,68091.6,0.128943,0.128645,-0.881504,35,0.013413,10,-0.000113401,-3.05478,-0.105205,-0.560808,19.2169,0.128645,
2,0,0,1,0,68091.7,0.127445,0.127122,-0.91084,35,0.0132765,10,-0.000115788,-3.04056,-0.115857,-0.509247,18.0684,0.1271224,
2,0,0,1,0,68091.9,0.125948,0.125645,-0.936755,35,0.013136,10,-0.000117699,-3.02837,-0.120793,-0.488437,17.828,0.125645,
2,0,0,1,0,68092,0.124449,0.124107,-0.964312,35,0.0129911,10,-0.000119678,-3.01578,-0.124567,-0.473641,17.7714,0.124107,
2,0,0,1,0,68092.2,0.122951,0.122642,-0.988858,35,0.0128424,10,-0.000121275,-3.00487,-0.141946,-0.41565,15.994,0.122642,
2,0,0,1,0,68092.3,0.121453,0.121128,-1.01188,35,0.0126902,10,-0.000122567,-2.99487,-0.170971,-0.345088,13.5905,0.121128,
2,0,0,1,0,68092.5,0.119955,0.119619,-1.02831,35,0.012535,10,-0.000123006,-2.98788,-0.189667,-0.311072,12.4907,0.119619,
2,0,0,1,0,68092.6,0.118456,0.118128,-1.04751,35,0.0123768,10,-0.00012374,-2.97984,-0.205088,-0.287682,11.7522,0.118128,
2,0,0,1,0,68092.8,0.116958,0.116597,-1.0647,35,0.012216,10,-0.000124142,-2.97277,-0.284113,-0.207664,8.60748,0.116597,
2,0,0,1,0,68092.9,0.11546,0.115124,-1.07613,35,0.0120532,10,-0.000123889,-2.96814,-0.357122,-0.16521,6.92298,0.115124,
2,0,0,1,0,68093.1,0.113962,0.113663,-1.08367,35,0.0118888,10,-0.000123173,-2.9651,-0.471872,-0.125034,5.28508,0.113663,
2,0,0,1,0,68093.2,0.112463,0.11216,-1.09375,35,0.0117233,10,-0.000122675,-2.96108,-0.623718,-0.0945941,4.02712,0.11216,
2,0,0,1,0,68093.4,0.110966,0.110621,-1.09784,35,0.0115569,10,-0.000121444,-2.95946,-0.904752,-0.0652112,2.78641,0.110621,
2,0,0,1,0,68093.5,0.109468,0.109145,-1.10087,35,0.0113899,10,-0.000120154,-2.95827,-13.043,-0.00452349,0.193642,0.109145,
2,0,0,1,0,68093.7,0.107969,0.107643,-1.09824,35,0.0112227,10,-0.000118218,-2.9593,13.4863,0.0043748,-0.187675,0.107643,
2,0,0,1,0,68093.8,0.106471,0.106143,-1.09742,35,0.0110559,10,-0.000116483,-2.95963,2.9308,0.020131,-0.863819,0.106143,
2,0,0,1,0,68094,0.104973,0.104649,-1.09758,35,0.0108891,10,-0.000114861,-2.95956,1.32524,0.0445202,-1.90507,0.104649,
2,0,0,1,0,68094.1,0.103474,0.103137,-1.0958,35,0.0107224,10,-0.000113018,-2.96027,1.1386,0.0518182,-2.20897,0.103137,
2,0,0,1,0,68094.3,0.101976,0.101728,-1.09272,35,0.0105564,10,-0.00011116,-2.96149,0.696594,0.0846978,-3.60157,0.101728,
2,0,0,1,0,68094.4,0.100478,0.100158,-1.08655,35,0.0103912,10,-0.000108826,-2.96395,0.960462,0.0614288,-2.60561,0.100158,
2,0,0,1,0,68094.6,0.0989798,0.0986361,-1.08404,35,0.0102265,10,-0.000106926,-2.96495,1.25835,0.0468866,-1.97685,0.0986361,
2,0,0,1,0,68094.7,0.0974808,0.0971791,-1.07744,35,0.0100622,10,-0.000104705,-2.96761,1.00745,0.0585638,-2.46402,0.0971791,
2,0,0,1,0,68094.9,0.0959832,0.0956445,-1.07397,35,0.00989856,10,-0.00010272,-2.96901,0.850135,0.0694007,-2.90871,0.0956445,
2,0,0,1,0,68095,0.0944857,0.0941917,-1.06709,35,0.0097358,10,-0.000100511,-2.9718,0.933737,0.0631869,-2.63917,0.0941917,
2,0,0,1,0,68095.2,0.0929871,0.0926681,-1.06387,35,0.00957354,10,-9.85872e-05,-2.97311,1.05009,0.0561856,-2.33411,0.0926681,
2,0,0,1,0,68095.3,0.0914889,0.0910849,-1.06176,35,0.00941186,10,-9.67103e-05,-2.97397,1.17688,0.0501326,-2.07396,0.0910849,
2,0,0,1,0,68095.5,0.0899907,0.0896449,-1.05789,35,0.00925073,10,-9.48345e-05,-2.97556,0.689331,0.0855903,-3.52637,0.0896449,
2,0,0,1,0,68095.6,0.0884925,0.0881359,-1.04886,35,0.00909032,10,-9.24422e-05,-2.97928,0.700418,0.0842354,-3.4571,0.0881359,
2,0,0,1,0,68095.7,0.0869943,0.0866598,-1.04603,35,0.0089309,10,-9.06488e-05,-2.98046,0.660111,0.0893789,-3.65827,0.0866598,
2,0,0,1,0,68095.9,0.0854961,0.0851731,-1.04269,35,0.00877203,10,-8.88093e-05,-2.98184,0.726871,0.0811699,-3.30332,0.08517313,
2,0,0,1,0,68096,0.083998,0.0836822,-1.03918,35,0.00861374,10,-8.69607e-05,-2.98331,0.607265,0.097157,-3.93349,0.0836822,
2,0,0,1,0,68096.2,0.0824998,0.0821923,-1.03464,35,0.00845616,10,-8.50395e-05,-2.98521,0.663892,0.0888699,-3.58428,0.0821923,
2,0,0,1,0,68096.3,0.0810011,0.0806398,-1.03023,35,0.00829949,10,-8.30778e-05,-2.98706,0.800781,0.0736781,-2.95976,0.0806398,
2,0,0,1,0,68096.5,0.0795036,0.0791256,-1.0253,35,0.00814354,10,-8.11272e-05,-2.98915,0.871956,0.0676639,-2.70323,0.0791256,
2,0,0,1,0,68096.6,0.0780061,0.077673,-1.01927,35,0.00798815,10,-7.91695e-05,-2.99171,0.749878,0.0786794,-3.12732,0.077673,
2,0,0,1,0,68096.8,0.076507,0.0761788,-1.0139,35,0.00783349,10,-7.7238e-05,-2.994,0.644695,0.0915161,-3.62061,0.0761788,
2,0,0,1,0,68096.9,0.0750088,0.0746433,-1.0072,35,0.00767994,10,-7.51807e-05,-2.99688,0.67624,0.0872472,-3.43067,0.0746433,
2,0,0,1,0,68097.1,0.0735106,0.0731863,-1.00306,35,0.00752702,10,-7.341e-05,-2.99867,0.772497,0.0763757,-2.98554,0.0731863,
2,0,0,1,0,68097.2,0.0720124,0.0716911,-0.997395,35,0.00737497,10,-7.15043e-05,-3.00113,0.625971,0.0942535,-3.67354,0.0716911,
2,0,0,1,0,68097.4,0.0705142,0.0701811,-0.991988,35,0.00722358,10,-6.96188e-05,-3.00349,0.570959,0.103335,-3.99824,0.0701811,
2,0,0,1,0,68097.5,0.069016,0.0686838,-0.984441,35,0.00707318,10,-6.76152e-05,-3.00681,0.533303,0.110631,-4.26059,0.0686838,
2,0,0,1,0,68097.7,0.0675179,0.0672098,-0.980696,35,0.00692369,10,-6.59124e-05,-3.00847,0.691763,0.0852893,-3.26651,0.06720984,
2,0,0,1,0,68097.8,0.0660188,0.0657191,-0.978732,35,0.00677472,10,-6.43213e-05,-3.00934,0.648383,0.0909956,-3.46089,0.0657191,
2,0,0,1,0,68098,0.0645213,0.0641737,-0.968986,35,0.00662656,10,-6.21834e-05,-3.01368,0.481865,0.122441,-4.62561,0.0641737,
2,0,0,1,0,68098.1,0.0630237,0.0627098,-0.962351,35,0.00647946,10,-6.03488e-05,-3.01667,0.485817,0.121445,-4.56944,0.0627098,
2,0,0,1,0,68098.3,0.0615251,0.0611793,-0.958311,35,0.00633336,10,-5.86288e-05,-3.01849,0.608956,0.0968871,-3.6233,0.06117931,
2,0,0,1,0,68098.4,0.0600269,0.0596969,-0.951709,35,0.00618806,10,-5.6814e-05,-3.0215,0.598182,0.0986322,-3.66166,0.0596969,
2,0,0,1,0,68098.6,0.0585287,0.0581614,-0.945958,35,0.00604351,10,-5.50183e-05,-3.02413,0.463906,0.127181,-4.68672,0.0581614,
2,0,0,1,0,68098.7,0.0570305,0.0567012,-0.941268,35,0.00589988,10,-5.3371e-05,-3.02629,0.527041,0.111946,-4.10962,0.0567012,
2,0,0,1,0,68098.9,0.0555323,0.0552474,-0.934787,35,0.00575733,10,-5.16445e-05,-3.02929,0.609902,0.0967369,-3.53164,0.0552474,
2,0,0,1,0,68099,0.0540342,0.0537756,-0.929519,35,0.0056156,10,-4.99854e-05,-3.03174,0.581578,0.101448,-3.67575,0.0537756,
2,0,0,1,0,68099.2,0.052536,0.0521849,-0.924425,35,0.00547445,10,-4.8241e-05,-3.03413,0.533818,0.110525,-3.97669,0.0521849,
2,0,0,1,0,68099.3,0.0510378,0.0507269,-0.91837,35,0.00533432,10,-4.65861e-05,-3.03698,0.454328,0.129862,-4.64528,0.0507269,
2,0,0,1,0,68099.5,0.0495391,0.0492143,-0.9096,35,0.00519521,10,-4.47653e-05,-3.04115,0.499755,0.118058,-4.19591,0.0492143,
2,0,0,1,0,68099.6,0.0480416,0.0476815,-0.904955,35,0.00505713,10,-4.31496e-05,-3.04337,0.634853,0.0929349,-3.27712,0.0476815,
2,0,0,1,0,68099.8,0.0465441,0.0462105,-0.898092,35,0.00491984,10,-4.15012e-05,-3.04668,0.544647,0.108327,-3.80015,0.0462105,
2,0,0,1,0,68099.9,0.045045,0.0447526,-0.891857,35,0.00478341,10,-3.99129e-05,-3.0497,0.447529,0.131835,-4.58525,0.0447526,
2,0,0,1,0,68100.1,0.0435468,0.0432627,-0.88262,35,0.00464811,10,-3.81845e-05,-3.05423,0.430472,0.137059,-4.73538,0.0432627,
2,0,0,1,0,68100.2,0.0420486,0.0417368,-0.879213,35,0.00451395,10,-3.66955e-05,-3.05591,0.543689,0.108518,-3.72275,0.0417368,
2,0,0,1,0,68100.4,0.0405504,0.0402342,-0.875253,35,0.00438049,10,-3.52151e-05,-3.05787,0.449191,0.131347,-4.47431,0.0402342,
2,0,0,1,0,68100.5,0.0390523,0.0387347,-0.867055,35,0.0042479,10,-3.35852e-05,-3.06195,0.38507,0.153219,-5.16715,0.0387347,
2,0,0,1,0,68100.7,0.0375541,0.0372258,-0.858015,35,0.00411635,10,-3.19403e-05,-3.06651,0.412435,0.143053,-4.80347,0.0372258,
2,0,0,1,0,68100.8,0.0360559,0.0356935,-0.853407,35,0.00398611,10,-3.04611e-05,-3.06884,0.418034,0.141137,-4.70318,0.0356935,
2,0,0,1,0,68101,0.0345568,0.0342886,-0.846849,35,0.00385649,10,-2.90373e-05,-3.07219,0.509041,0.115904,-3.82685,0.03428863,
2,0,0,1,0,68101.1,0.0330593,0.0327111,-0.839482,35,0.00372789,10,-2.74604e-05,-3.07599,0.413703,0.142614,-4.66559,0.03271107,
2,0,0,1,0,68101.3,0.0315618,0.0312585,-0.833731,35,0.00360022,10,-2.60612e-05,-3.07897,0.46463,0.126983,-4.12812,0.0312585,
2,0,0,1,0,68101.4,0.0300631,0.0297711,-0.825083,35,0.00347373,10,-2.45637e-05,-3.0835,0.46466,0.126975,-4.09685,0.0297711,
2,0,0,1,0,68101.6,0.0285649,0.028241,-0.820969,35,0.00334802,10,-2.3185e-05,-3.08567,0.587778,0.100378,-3.20909,0.028241,
2,0,0,1,0,68101.7,0.0270667,0.0267172,-0.816249,35,0.00322306,10,-2.18079e-05,-3.08818,0.494791,0.119242,-3.79386,0.0267172,
2,0,0,1,0,68101.9,0.0255685,0.0252549,-0.810124,35,0.003099,10,-2.04596e-05,-3.09145,0.455167,0.129623,-4.09917,0.0252549,
2,0,0,1,0,68102,0.0240704,0.0237576,-0.802124,35,0.00297598,10,-1.90565e-05,-3.09576,0.550829,0.107111,-3.36136,0.0237576,
2,0,0,1,0,68102.2,0.0225722,0.0222666,-0.798973,35,0.00285369,10,-1.77904e-05,-3.09747,0.592401,0.0995948,-3.10647,0.0222666,
2,0,0,1,0,68102.3,0.021074,0.0207545,-0.794138,35,0.00273204,10,-1.64819e-05,-3.1001,0.6689,0.0882045,-2.73451,0.0207545,
2,0,0,1,0,68102.5,0.0195758,0.0192222,-0.791096,35,0.00261113,10,-1.52066e-05,-3.10177,0.539919,0.109276,-3.36831,0.0192222,
2,0,0,1,0,68102.6,0.0180771,0.0177455,-0.782969,35,0.00249078,10,-1.38942e-05,-3.10626,0.631757,0.0933903,-2.86022,0.0177455,
2,0,0,1,0,68102.8,0.0165796,0.0162715,-0.782282,35,0.00237126,10,-1.27289e-05,-3.10664,0.925527,0.0637475,-1.9491,0.0162715,
2,0,0,1,0,68102.9,0.0150821,0.0147502,-0.778847,35,0.00225212,10,-1.14882e-05,-3.10855,1.12193,0.0525879,-1.59847,0.0147502,
2,0,0,1,0,68103.1,0.013583,0.0131906,-0.776724,35,0.0021332,10,-1.02455e-05,-3.10973,0.730216,0.080798,-2.44631,0.0131906,
2,0,0,1,0,68103.2,0.0120848,0.0117516,-0.772952,35,0.00201484,10,-9.08346e-06,-3.11185,1.11879,0.0527357,-1.59212,0.0117516,
2,0,0,1,0,68103.4,0.0105866,0.0102681,-0.770272,35,0.00189708,10,-7.90926e-06,-3.11336,1.5489,0.0380915,-1.14703,0.0102681,
2,0,0,1,0,68103.5,0.00908845,0.00876342,-0.769542,35,0.00177942,10,-6.74382e-06,-3.11377,2.79652,0.0210976,-0.634129,0.00876342,
2,0,0,1,0,68103.7,0.00759026,0.0072587,-0.769086,35,0.00166192,10,-5.58256e-06,-3.11403,1.56983,0.0375837,-1.12571,0.0072587,
2,0,0,1,0,68103.8,0.00609208,0.0057455,-0.769086,35,0.00154459,10,-4.41878e-06,-3.11403,3.55689,0.0165875,-0.496887,0.0057455,
2,0,0,1,0,68104,0.00459389,0.0042726,-0.767378,35,0.00142764,10,-3.2787e-06,-3.11499,-12.9245,-0.00456498,0.136672,0.0042726,
2,0,0,1,0,68104.1,0.0030948,0.00275084,-0.767588,35,0.00131044,10,-2.11152e-06,-3.11487,-0.728212,-0.0810203,2.42875,0.00275084,
2,0,0,1,0,68104.3,0.00159728,0.00124248,-0.776455,35,0.00119199,10,-9.64729e-07,-3.10988, , , ,0.001242478,
2,0,0,1,0,68104.4,0.000199195,-0.000176442,-0.770662,35,0.00108179,10,1.35978e-07,-3.11314, , , ,-0.000176442,