File: Figure_codes/Fig_3-5/rawdata_trumpetplot_data/after 10th/20221101_1-115_003_TrumpetPlot_ParaChange_from10_every3_10_CV_C01_30.csv
mode,ox/red,error,control changes,counter inc.,time/s,control/V,Ewe/V,<I>/mA,cycle number,(Q-Qo)/C,I Range,P/W,log(|I|),Tafel slope mV/dec,alpha_eff,dI/d(E-IR),E-IR/V,
2,1,0,0,0,60294.4,-2.44065e-05,-0.000287149,5.06964,31,0.0000000E+000,10,-1.45574e-06,-2.29502, , , ,-0.0002871489,
2,1,0,1,0,60294.4,0.00179726,0.0013647,5.71167,31,4.78956e-05,10,7.79471e-06,-2.24324, , , ,0.0013647,
2,1,0,1,0,60294.5,0.00379485,0.00344601,6.19796,31,0.0001077,10,2.13582e-05,-2.20775,0.0668116,0.88308,211.245,0.00344601,
2,1,0,1,0,60294.5,0.00579244,0.00541439,6.56715,31,0.000171615,10,3.55571e-05,-2.18262,0.0863016,0.683649,174.432,0.00541439,
2,1,0,1,0,60294.5,0.00779002,0.0074122,6.88979,31,0.000238972,10,5.10685e-05,-2.16179,0.103802,0.568391,152.357,0.007412198,
2,1,0,1,0,60294.5,0.00977853,0.00942743,7.17856,31,0.000308666,10,6.76754e-05,-2.14396,0.122989,0.479718,133.93,0.00942743,
2,1,0,1,0,60294.5,0.0117761,0.0114021,7.42415,31,0.000381754,10,8.46509e-05,-2.12935,0.142893,0.412896,119.502,0.0114021,
2,1,0,1,0,60294.5,0.0137737,0.0134453,7.65871,31,0.000457144,10,0.000102974,-2.11584,0.162475,0.363132,108.27,0.0134453,
2,1,0,1,0,60294.5,0.0157713,0.0154234,7.85955,31,0.000534775,10,0.000121221,-2.1046,0.181669,0.324766,99.5726,0.0154234,
2,1,0,1,0,60294.5,0.017778,0.0174432,8.05679,31,0.000614394,10,0.000140536,-2.09384,0.206331,0.285948,89.705,0.0174432,
2,1,0,1,0,60294.5,0.0197755,0.0194396,8.21982,31,0.000695817,10,0.00015979,-2.08514,0.226715,0.260239,83.5019,0.0194396,
2,1,0,1,0,60294.5,0.0217731,0.0214195,8.38881,31,0.000778879,10,0.000179684,-2.0763,0.244198,0.241607,78.98,0.0214195,
2,1,0,1,0,60294.6,0.0237707,0.0234228,8.53441,31,0.000863561,10,0.000199899,-2.06883,0.265252,0.22243,74.1118,0.02342277,
2,1,0,1,0,60294.6,0.0257774,0.0254556,8.68794,31,0.000949685,10,0.000221156,-2.06108,0.283668,0.20799,70.4075,0.0254556,
2,1,0,1,0,60294.6,0.027775,0.0274059,8.81485,31,0.00103726,10,0.000241579,-2.05478,0.304827,0.193552,66.6191,0.0274059,
2,1,0,1,0,60294.6,0.0297726,0.0294205,8.95208,31,0.0011261,10,0.000263375,-2.04808,0.329439,0.179092,62.4892,0.0294205,
2,1,0,1,0,60294.6,0.0317701,0.0314481,9.06744,31,0.00121623,10,0.000285154,-2.04252,0.329421,0.179102,63.4473,0.0314481,
2,1,0,1,0,60294.6,0.0337586,0.0333805,9.20333,31,0.00130665,10,0.000307212,-2.03606,0.339416,0.173828,62.3434,0.03338049,
2,1,0,1,0,60294.6,0.0357562,0.0353918,9.31331,31,0.00139922,10,0.000329615,-2.0309,0.394603,0.149517,54.3363,0.0353918,
2,1,0,1,0,60294.6,0.0377538,0.0373896,9.42117,31,0.00149291,10,0.000352254,-2.0259,0.388581,0.151835,55.8448,0.0373896,
2,1,0,1,0,60294.6,0.0397514,0.0393819,9.53613,31,0.00158773,10,0.000375551,-2.02063,0.363953,0.162109,60.3665,0.0393819,
2,1,0,1,0,60294.6,0.0417399,0.0413996,9.66323,31,0.00168271,10,0.000400054,-2.01488,0.386751,0.152553,57.45,0.0413996,
2,1,0,1,0,60294.7,0.0437375,0.0433447,9.7638,31,0.00177987,10,0.000423209,-2.01038,0.429124,0.137489,52.4079,0.0433447,
2,1,0,1,0,60294.7,0.0457351,0.0453758,9.87162,31,0.00187804,10,0.000447932,-2.00561,0.418022,0.141141,54.3847,0.0453758,
2,1,0,1,0,60294.7,0.0477327,0.0473843,9.98349,31,0.00197734,10,0.000473061,-2.00072,0.394702,0.14948,58.2672,0.0473843,
2,1,0,1,0,60294.7,0.0497393,0.0493859,10.1053,31,0.00207774,10,0.000499058,-1.99545,0.415451,0.142014,55.9467,0.0493859,
2,1,0,1,0,60294.7,0.0517369,0.0513623,10.206,31,0.00217931,10,0.000524205,-1.99114,0.426172,0.138442,55.1868,0.0513623,
2,1,0,1,0,60294.7,0.0537345,0.0533473,10.3239,31,0.00228197,10,0.000550752,-1.98616,0.420802,0.140209,56.465,0.0533473,
2,1,0,1,0,60294.7,0.0557321,0.055381,10.433,31,0.0023858,10,0.000577788,-1.98159,0.431522,0.136725,55.6803,0.055381,
2,1,0,1,0,60294.7,0.0577297,0.0573487,10.5467,31,0.00249068,10,0.00060484,-1.97688,0.426409,0.138365,56.9536,0.0573487,
2,1,0,1,0,60294.7,0.0597364,0.0594024,10.662,31,0.00259676,10,0.000633347,-1.97216,0.424883,0.138862,57.7846,0.0594024,
2,1,0,1,0,60294.7,0.0617339,0.061377,10.7795,31,0.00270399,10,0.000661612,-1.9674,0.447847,0.131741,55.383,0.06137703,
2,1,0,1,0,60294.8,0.0637315,0.0633829,10.8824,31,0.00281233,10,0.000689761,-1.96327,0.450251,0.131038,55.6899,0.0633829,
2,1,0,1,0,60294.8,0.0657291,0.0653489,11.0007,31,0.00292175,10,0.000718881,-1.95858,0.416224,0.141751,60.8644,0.0653489,
2,1,0,1,0,60294.8,0.0677176,0.0673281,11.1226,31,0.00303133,10,0.000748861,-1.9538,0.435017,0.135627,58.8485,0.0673281,
2,1,0,1,0,60294.8,0.0697152,0.0693505,11.2362,31,0.00314314,10,0.000779233,-1.94938,0.462842,0.127473,55.8868,0.0693505,
2,1,0,1,0,60294.8,0.0717128,0.0713213,11.3457,31,0.00325609,10,0.000809193,-1.94517,0.44548,0.132441,58.6825,0.0713213,
2,1,0,1,0,60294.8,0.0737104,0.0733565,11.4712,31,0.00337018,10,0.000841489,-1.94039,0.433442,0.13612,60.9161,0.0733565,
2,1,0,1,0,60294.8,0.0756989,0.0753151,11.589,31,0.00348439,10,0.000872828,-1.93595,0.447267,0.131912,59.6656,0.07531511,
2,1,0,1,0,60294.8,0.0776965,0.0773444,11.7092,31,0.00360087,10,0.00090564,-1.93147,0.469342,0.125708,57.4196,0.07734444,
2,1,0,1,0,60294.8,0.0796941,0.079333,11.8197,31,0.00371856,10,0.000937694,-1.92739,0.472704,0.124814,57.5942,0.079333,
2,1,0,1,0,60294.8,0.0816916,0.0813328,11.9389,31,0.00383738,10,0.000971023,-1.92304,0.490285,0.120338,56.0349,0.0813328,
2,1,0,1,0,60294.8,0.0836983,0.0833318,12.0438,31,0.00395734,10,0.00100363,-1.91924,0.485693,0.121476,57.1378,0.0833318,
2,1,0,1,0,60294.9,0.0856959,0.0853151,12.1664,31,0.00407839,10,0.00103798,-1.91484,0.497568,0.118577,56.2533,0.0853151,
2,1,0,1,0,60294.9,0.0876935,0.0873271,12.2685,31,0.0042006,10,0.00107138,-1.91121,0.555876,0.106139,50.8133,0.0873271,
2,1,0,1,0,60294.9,0.0896911,0.0892862,12.3682,31,0.00432376,10,0.00110431,-1.90769,0.517939,0.113913,55.0245,0.0892862,
2,1,0,1,0,60294.9,0.0916978,0.0912843,12.4863,31,0.00444806,10,0.0011398,-1.90357,0.500803,0.117811,57.3975,0.09128426,
2,1,0,1,0,60294.9,0.0936953,0.093324,12.6,31,0.0045735,10,0.00117588,-1.89963,0.54377,0.108502,53.3228,0.093324,
2,1,0,1,0,60294.9,0.0956929,0.0952796,12.6993,31,0.00470006,10,0.00120999,-1.89622,0.550393,0.107196,53.1568,0.0952796,
2,1,0,1,0,60294.9,0.0976905,0.0973323,12.813,31,0.00482763,10,0.00124712,-1.89235,0.530699,0.111174,55.5842,0.0973323,
2,1,0,1,0,60294.9,0.099679,0.0993105,12.9234,31,0.00495501,10,0.00128343,-1.88862,0.559601,0.105432,53.1534,0.0993105,
2,1,0,1,0,60294.9,0.101677,0.101291,13.0234,31,0.00508476,10,0.00131915,-1.88527,0.576572,0.102329,52.0247,0.101291,
2,1,0,1,0,60294.9,0.103674,0.103308,13.1314,31,0.00521557,10,0.00135658,-1.88169,0.532354,0.110829,56.8212,0.103308,
2,1,0,1,0,60295,0.105672,0.105298,13.2512,31,0.00534744,10,0.00139532,-1.87775,0.530455,0.111225,57.4963,0.105298,
2,1,0,1,0,60295,0.107656,0.107294,13.3605,31,0.00547916,10,0.00143351,-1.87418,0.52662,0.112035,58.4421,0.107294,
2,1,0,1,0,60295,0.109658,0.109246,13.4819,31,0.00561334,10,0.00147285,-1.87025,0.509359,0.115832,60.9465,0.1092463,
2,1,0,1,0,60295,0.111655,0.111295,13.6044,31,0.00574881,10,0.00151409,-1.86632,0.490166,0.120367,63.937,0.1112947,
2,1,0,1,0,60295,0.113653,0.113288,13.7403,31,0.00588551,10,0.0015566,-1.862,0.476737,0.123758,66.3424,0.1132876,
2,1,0,1,0,60295,0.115651,0.11527,13.8681,31,0.00602356,10,0.00159858,-1.85798,0.443397,0.133063,72.1021,0.11527,
2,1,0,1,0,60295,0.117657,0.117298,14.0294,31,0.00616306,10,0.00164562,-1.85296,0.433301,0.136164,74.4912,0.117298,
2,1,0,1,0,60295,0.119655,0.119303,14.1685,31,0.00630409,10,0.00169034,-1.84868,0.43609,0.135293,74.8582,0.119303,
2,1,0,1,0,60295,0.121652,0.121268,14.3266,31,0.00644657,10,0.00173736,-1.84386,0.414612,0.142302,79.5636,0.121268,
2,1,0,1,0,60295,0.12365,0.123289,14.4857,31,0.00659066,10,0.00178593,-1.83906,0.403649,0.146167,82.6694,0.123289,
2,1,0,1,0,60295.1,0.125657,0.125288,14.659,31,0.00673643,10,0.0018366,-1.8339,0.412318,0.143094,81.7986,0.125288,
2,1,0,1,0,60295.1,0.127654,0.12726,14.8104,31,0.00688384,10,0.00188477,-1.82943,0.413515,0.142679,82.5478,0.12726,
2,1,0,1,0,60295.1,0.129652,0.129315,14.9914,31,0.00703285,10,0.00193861,-1.82416,0.415139,0.142121,83.0775,0.129315,
2,1,0,1,0,60295.1,0.131649,0.131315,15.1473,31,0.00718362,10,0.00198907,-1.81966,0.415685,0.141934,83.9543,0.131315,
2,1,0,1,0,60295.1,0.133638,0.133257,15.3223,31,0.00733451,10,0.00204181,-1.81467,0.427644,0.137965,82.4336,0.133257,
2,1,0,1,0,60295.1,0.135636,0.135272,15.4735,31,0.00748854,10,0.00209313,-1.81041,0.448817,0.131457,79.4223,0.135272,
2,1,0,1,0,60295.1,0.137633,0.137263,15.6405,31,0.0076441,10,0.00214687,-1.80575,0.462823,0.127479,77.7543,0.137263,
2,1,0,1,0,60295.1,0.139631,0.139277,15.7849,31,0.00780126,10,0.00219848,-1.80176,0.477254,0.123624,76.1868,0.139277,
2,1,0,1,0,60295.1,0.141619,0.141231,15.9428,31,0.00795828,10,0.00225161,-1.79744,0.504682,0.116905,72.6742,0.141231,
2,1,0,1,0,60295.1,0.143617,0.143248,16.0735,31,0.0081184,10,0.0023025,-1.79389,0.547717,0.10772,67.5889,0.143248,
2,1,0,1,0,60295.2,0.145614,0.145226,16.2128,31,0.00827985,10,0.00235452,-1.79014,0.583847,0.101054,63.8911,0.145226,
2,1,0,1,0,60295.2,0.147612,0.147227,16.3278,31,0.00844258,10,0.0024039,-1.78707,0.610719,0.0966074,61.5939,0.147227,
2,1,0,1,0,60295.2,0.149619,0.149259,16.4612,31,0.00860649,10,0.00245697,-1.78354,0.679869,0.0867814,55.6782,0.149259,
2,1,0,1,0,60295.2,0.151616,0.151258,16.5522,31,0.00877161,10,0.00250366,-1.78114,0.836504,0.0705317,45.5605,0.151258,
2,1,0,1,0,60295.2,0.153614,0.153236,16.6424,31,0.00893759,10,0.00255023,-1.77878,0.966828,0.0610243,39.6098,0.153236,
2,1,0,1,0,60295.2,0.155611,0.155277,16.7114,31,0.00910442,10,0.0025949,-1.77699,1.17175,0.0503521,32.8334,0.155277,
2,1,0,1,0,60295.2,0.157618,0.157258,16.7745,31,0.00927185,10,0.00263792,-1.77535,1.87008,0.0315495,20.6268,0.157258,
2,1,0,1,0,60295.2,0.159616,0.15925,16.7934,31,0.00943977,10,0.00267434,-1.77486,5.66413,0.0104164,6.82466,0.15925,
2,1,0,1,0,60295.2,0.161613,0.161223,16.8015,31,0.00960774,10,0.00270879,-1.77465,-6.73407,-0.00876141,-5.73822,0.1612228,
2,1,0,1,0,60295.2,0.163611,0.163263,16.7703,31,0.00977564,10,0.00273797,-1.77546,-1.81298,-0.032543,-21.2838,0.163263,
2,1,0,1,0,60295.3,0.165618,0.165291,16.7149,31,0.00994305,10,0.00276283,-1.7769,-1.08101,-0.0545786,-35.5697,0.165291,
2,1,0,1,0,60295.3,0.167597,0.167258,16.6282,31,0.0101081,10,0.0027812,-1.77915,-0.713279,-0.0827166,-53.6179,0.167258,
2,1,0,1,0,60295.3,0.169595,0.16922,16.5043,31,0.0102737,10,0.00279285,-1.7824,-0.516891,-0.114144,-73.4175,0.16922,
2,1,0,1,0,60295.3,0.171592,0.171257,16.3346,31,0.010438,10,0.00279742,-1.78689,-0.425696,-0.138597,-88.3159,0.171257,
2,1,0,1,0,60295.3,0.173572,0.173206,16.1522,31,0.0105987,10,0.00279767,-1.79177,-0.364877,-0.161698,-101.803,0.173206,
2,1,0,1,0,60295.3,0.175578,0.17522,15.9312,31,0.0107592,10,0.00279146,-1.79775,-0.315098,-0.187243,-116.303,0.17522,
2,1,0,1,0,60295.3,0.177576,0.177256,15.6812,31,0.0109172,10,0.00277959,-1.80462,-0.270562,-0.218065,-133.301,0.177256,
2,1,0,1,0,60295.3,0.179573,0.179216,15.3985,31,0.0110726,10,0.00275966,-1.81252,-0.245369,-0.240454,-144.458,0.179216,
2,1,0,1,0,60295.3,0.181571,0.181211,15.1099,31,0.0112251,10,0.00273808,-1.82074,-0.230991,-0.255422,-150.486,0.1812107,
2,1,0,1,0,60295.3,0.183578,0.183204,14.7984,31,0.0113747,10,0.00271112,-1.82978,-0.214539,-0.275008,-158.747,0.183204,
2,1,0,1,0,60295.4,0.185575,0.185201,14.4765,31,0.011521,10,0.00268106,-1.83934,-0.204934,-0.287898,-162.58,0.1852008,
2,1,0,1,0,60295.4,0.187573,0.187215,14.1462,31,0.0116641,10,0.00264838,-1.84936,-0.198672,-0.296972,-163.964,0.187215,
2,1,0,1,0,60295.4,0.18957,0.189187,13.8229,31,0.0118039,10,0.00261511,-1.8594,-0.196048,-0.300946,-162.297,0.189187,
2,1,0,1,0,60295.4,0.191577,0.191224,13.4956,31,0.0119405,10,0.00258069,-1.86981,-0.197298,-0.29904,-157.542,0.191224,
2,1,0,1,0,60295.4,0.193575,0.193266,13.1803,31,0.0120738,10,0.00254731,-1.88007,-0.194438,-0.303438,-156.078,0.193266,
2,1,0,1,0,60295.4,0.195572,0.195239,12.8689,31,0.012204,10,0.00251252,-1.89046,-0.190341,-0.30997,-155.699,0.195239,
2,1,0,1,0,60295.4,0.19757,0.197211,12.5661,31,0.0123311,10,0.00247817,-1.9008,-0.198668,-0.296977,-145.786,0.197211,
2,1,0,1,0,60295.4,0.199558,0.199193,12.2925,31,0.0124542,10,0.00244858,-1.91036,-0.207879,-0.283819,-136.143,0.199193,
2,1,0,1,0,60295.4,0.201556,0.201221,12.0202,31,0.0125756,10,0.00241871,-1.92009,-0.208282,-0.28327,-132.919,0.201221,
2,1,0,1,0,60295.4,0.203554,0.203214,11.7581,31,0.0126945,10,0.0023894,-1.92966,-0.211969,-0.278343,-127.798,0.203214,
2,1,0,1,0,60295.5,0.205551,0.205191,11.5128,31,0.0128108,10,0.00236232,-1.93882,-0.226328,-0.260683,-117.247,0.205191,
2,1,0,1,0,60295.5,0.20754,0.207169,11.2943,31,0.0129236,10,0.00233983,-1.94714,-0.237953,-0.247948,-109.264,0.207169,
2,1,0,1,0,60295.5,0.209537,0.209215,11.0731,31,0.0130354,10,0.00231666,-1.95573,-0.233543,-0.25263,-109.189,0.209215,
2,1,0,1,0,60295.5,0.211535,0.211166,10.8578,31,0.013145,10,0.00229281,-1.96426,-0.24312,-0.242678,-102.944,0.211166,
2,1,0,1,0,60295.5,0.213532,0.213147,10.6683,31,0.0132526,10,0.00227392,-1.9719,-0.26821,-0.219977,-91.6267,0.213147,
2,1,0,1,0,60295.5,0.215539,0.215181,10.49,31,0.0133583,10,0.00225725,-1.97922,-0.273699,-0.215565,-88.2456,0.215181,
2,1,0,1,0,60295.5,0.217537,0.217179,10.3125,31,0.0134623,10,0.00223966,-1.98664,-0.273964,-0.215357,-86.7083,0.217179,
2,1,0,1,0,60295.5,0.219534,0.219158,10.1452,31,0.0135646,10,0.0022234,-1.99374,-0.293931,-0.200727,-79.5261,0.219158,
2,1,0,1,0,60295.5,0.221532,0.221202,9.99258,31,0.0136652,10,0.00221038,-2.00032,-0.314372,-0.187676,-73.2258,0.221202,
2,1,0,1,0,60295.5,0.223534,0.223171,9.85134,31,0.0137644,10,0.00219853,-2.0065,-0.326471,-0.180721,-69.4925,0.223171,
2,1,0,1,0,60295.6,0.225536,0.225202,9.71464,31,0.0138622,10,0.00218775,-2.01257,-0.335488,-0.175863,-66.6917,0.225202,
2,1,0,1,0,60295.6,0.227534,0.22718,9.58396,31,0.0139587,10,0.00217728,-2.01846,-0.341876,-0.172577,-64.5559,0.22718,
2,1,0,1,0,60295.6,0.229531,0.229202,9.45638,31,0.0140539,10,0.00216742,-2.02428,-0.363503,-0.162309,-59.9445,0.229202,
2,1,0,1,0,60295.6,0.231529,0.231189,9.34363,31,0.0141479,10,0.00216014,-2.02948,-0.392211,-0.150429,-54.8831,0.2311891,
2,1,0,1,0,60295.6,0.233517,0.233118,9.24146,31,0.0142399,10,0.00215435,-2.03426,-0.409093,-0.144222,-52.0088,0.233118,
2,1,0,1,0,60295.6,0.235515,0.235151,9.13758,31,0.0143318,10,0.00214871,-2.03917,-0.414571,-0.142316,-50.7554,0.235151,
2,1,0,1,0,60295.6,0.237512,0.237168,9.03592,31,0.0144226,10,0.00214303,-2.04403,-0.427517,-0.138006,-48.6882,0.237168,
2,1,0,1,0,60295.6,0.23951,0.239151,8.94281,31,0.0145125,10,0.00213868,-2.04853,-0.46361,-0.127262,-44.433,0.239151,
2,1,0,1,0,60295.6,0.241499,0.241188,8.85728,31,0.0146006,10,0.00213627,-2.0527,-0.46989,-0.125561,-43.3942,0.241188,
2,1,0,1,0,60295.6,0.243496,0.243163,8.76873,31,0.0146887,10,0.00213223,-2.05706,-0.490685,-0.12024,-41.1817,0.2431629,
2,1,0,1,0,60295.7,0.245494,0.245128,8.69503,31,0.014776,10,0.0021314,-2.06073,-0.516268,-0.114282,-38.7618,0.245128,
2,1,0,1,0,60295.7,0.247491,0.247168,8.61349,31,0.0148625,10,0.00212898,-2.06482,-0.523048,-0.1128,-37.9403,0.247168,
2,1,0,1,0,60295.7,0.249498,0.249156,8.5422,31,0.0149482,10,0.00212834,-2.06843,-0.540452,-0.109168,-36.3886,0.249156,
2,1,0,1,0,60295.7,0.251496,0.251142,8.46887,31,0.0150333,10,0.00212689,-2.07217,-0.564207,-0.104572,-34.5844,0.251142,
2,1,0,1,0,60295.7,0.253493,0.253074,8.40672,31,0.0151177,10,0.00212752,-2.07537,-0.585316,-0.1008,-33.0567,0.253074,
2,1,0,1,0,60295.7,0.255491,0.255117,8.33748,31,0.0152014,10,0.00212703,-2.07897,-0.629493,-0.0937262,-30.5236,0.255117,
2,1,0,1,0,60295.7,0.257497,0.257128,8.28297,31,0.0152845,10,0.00212978,-2.08181,-0.685575,-0.0860592,-27.8136,0.257128,
2,1,0,1,0,60295.7,0.259495,0.25915,8.22529,31,0.015367,10,0.00213159,-2.08485,-0.626858,-0.0941203,-30.2016,0.25915,
2,1,0,1,0,60295.7,0.261493,0.261148,8.16155,31,0.0154489,10,0.00213137,-2.08823,-0.647045,-0.0911837,-29.0637,0.261148,
2,1,0,1,0,60295.7,0.26349,0.263142,8.10928,31,0.0155303,10,0.00213389,-2.09102,-0.830191,-0.071068,-22.5115,0.263142,
2,1,0,1,0,60295.8,0.265479,0.265145,8.07157,31,0.0156104,10,0.00214014,-2.09304,-0.763993,-0.0772259,-24.2941,0.265145,
2,1,0,1,0,60295.8,0.267476,0.267131,8.01237,31,0.0156908,10,0.00214035,-2.09624,-0.699978,-0.0842883,-26.3792,0.267131,
2,1,0,1,0,60295.8,0.269474,0.269107,7.96705,31,0.0157706,10,0.00214399,-2.0987,-0.805234,-0.0732707,-22.7816,0.269107,
2,1,0,1,0,60295.8,0.271471,0.271115,7.92162,31,0.0158501,10,0.00214767,-2.10119,-0.881177,-0.0669559,-20.7099,0.271115,
2,1,0,1,0,60295.8,0.27346,0.273115,7.88405,31,0.0159283,10,0.00215325,-2.10325,-0.834382,-0.070711,-21.7414,0.273115,
2,1,0,1,0,60295.8,0.275458,0.275084,7.83532,31,0.0160069,10,0.00215537,-2.10594,-0.778008,-0.0758347,-23.1966,0.275084,
2,1,0,1,0,60295.8,0.277455,0.277097,7.79169,31,0.016085,10,0.00215905,-2.10837,-0.872283,-0.0676386,-20.5732,0.277097,
2,1,0,1,0,60295.8,0.279453,0.279123,7.75223,31,0.0161627,10,0.00216382,-2.11057,-0.900299,-0.0655338,-19.8278,0.279123,
2,1,0,1,0,60295.8,0.281455,0.281036,7.71359,31,0.01624,10,0.00216779,-2.11274,-0.926016,-0.0637138,-19.1811,0.2810356,
2,1,0,1,0,60295.8,0.283457,0.283109,7.67576,31,0.016317,10,0.00217308,-2.11488,-1.02953,-0.0573076,-17.173,0.283109,
2,1,0,1,0,60295.9,0.285455,0.28513,7.64328,31,0.0163935,10,0.00217933,-2.11672,-0.918913,-0.0642063,-19.1369,0.28513,
2,1,0,1,0,60295.9,0.287452,0.287138,7.59866,31,0.0164698,10,0.00218187,-2.11926,-0.887432,-0.0664839,-19.7307,0.287138,
2,1,0,1,0,60295.9,0.28945,0.289071,7.56551,31,0.0165456,10,0.00218697,-2.12116,-1.04948,-0.0562184,-16.5991,0.289071,
2,1,0,1,0,60295.9,0.291456,0.291117,7.53261,31,0.0166211,10,0.00219287,-2.12305,-1.01923,-0.0578869,-17.0133,0.291117,
2,1,0,1,0,60295.9,0.293454,0.293136,7.49636,31,0.0166963,10,0.00219745,-2.12515,-0.982715,-0.0600377,-17.5677,0.293136,
2,1,0,1,0,60295.9,0.295452,0.295086,7.46288,31,0.0167711,10,0.0022022,-2.12709,-1.12013,-0.0526725,-15.3466,0.295086,
2,1,0,1,0,60295.9,0.297449,0.297139,7.43492,31,0.0168456,10,0.00220921,-2.12872,-1.25687,-0.0469421,-13.6216,0.297139,
2,1,0,1,0,60295.9,0.299438,0.29912,7.40794,31,0.0169191,10,0.00221586,-2.1303,-0.0792345,-0.744626,-208.947,0.29912,
2,1,0,1,0,60295.9,0.299746,0.299457,6.95072,31,0.0169503,10,0.00208144,-2.15797,0.0098543,5.98723,1426.98,0.299457,
2,1,0,1,0,60295.9,0.29774,0.29741,4.9681,31,0.0170087,10,0.00147756,-2.30381,0.0143706,4.10561,820.132,0.29741,
2,1,0,1,0,60296,0.295742,0.295421,3.6406,31,0.0170513,10,0.00107551,-2.43883,0.0143769,4.10379,587.217,0.295421,
2,1,0,1,0,60296,0.293745,0.293402,2.61487,31,0.0170822,10,0.00076721,-2.58255,0.0128049,4.6076,467.114,0.293402,
2,1,0,1,0,60296,0.291747,0.291429,1.77593,31,0.017104,10,0.000517557,-2.75057,0.0103656,5.69191,385.014,0.291429,
2,1,0,1,0,60296,0.289745,0.289406,1.07628,31,0.0171181,10,0.000311483,-2.96807,0.00707372,8.34073,323.281,0.289406,
2,1,0,1,0,60296,0.287743,0.28743,0.483197,31,0.0171257,10,0.000138885,-3.31588,0.0021939,26.8928,273.385,0.28743,
2,1,0,1,0,60296,0.285745,0.28541,-0.0162329,31,0.0171279,10,-4.63302e-06,-4.7896,0.178788,0.329999,232.809,0.28541,
2,0,0,1,0,60296,0.283748,0.283384,-0.458665,31,0.0171255,10,-0.000129979,-3.3385,-0.00234795,-25.1283,203.872,0.283384,
2,0,0,1,0,60296,0.28175,0.281391,-0.835529,31,0.0171189,10,-0.000235111,-3.07804,-0.00977738,-6.03434,179.177,0.281391,
2,0,0,1,0,60296,0.279761,0.279396,-1.17324,31,0.0171088,10,-0.000327799,-2.93061,-0.0161951,-3.64308,159.678,0.279396,
2,0,0,1,0,60296,0.277764,0.277417,-1.47008,31,0.0170956,10,-0.000407826,-2.83266,-0.0232336,-2.53943,142.608,0.277417,
2,0,0,1,0,60296.1,0.275766,0.275408,-1.74203,31,0.0170794,10,-0.000479767,-2.75895,-0.0312483,-1.8881,125.956,0.275408,
2,0,0,1,0,60296.1,0.273769,0.273423,-1.97325,31,0.0170608,10,-0.000539531,-2.70482,-0.0393791,-1.49826,114.73,0.2734226,
2,0,0,1,0,60296.1,0.27178,0.271416,-2.20003,31,0.0170401,10,-0.000597124,-2.65757,-0.0476379,-1.23851,105.219,0.271416,
2,0,0,1,0,60296.1,0.269783,0.269424,-2.39402,31,0.0170171,10,-0.000645006,-2.62087,-0.057273,-1.03015,95.9664,0.269424,
2,0,0,1,0,60296.1,0.267785,0.267412,-2.58428,31,0.0169921,10,-0.000691067,-2.58766,-0.0683899,-0.862701,86.3146,0.267412,
2,0,0,1,0,60296.1,0.265787,0.265402,-2.74112,31,0.0169655,10,-0.0007275,-2.56207,-0.079208,-0.744874,79.6631,0.265402,
2,0,0,1,0,60296.1,0.263781,0.263415,-2.90263,31,0.0169373,10,-0.000764598,-2.53721,-0.087786,-0.672089,75.7955,0.263415,
2,0,0,1,0,60296.1,0.261783,0.261412,-3.04356,31,0.0169075,10,-0.000795623,-2.51662,-0.100364,-0.587861,69.7133,0.261412,
2,0,0,1,0,60296.1,0.259786,0.259454,-3.1788,31,0.0168764,10,-0.000824752,-2.49774,-0.111707,-0.528167,65.3863,0.259454,
2,0,0,1,0,60296.1,0.257788,0.257425,-3.30429,31,0.0168439,10,-0.000850605,-2.48092,-0.123478,-0.477816,61.5711,0.257425,
2,0,0,1,0,60296.2,0.255781,0.255407,-3.42795,31,0.0168102,10,-0.000875524,-2.46497,-0.138918,-0.424712,56.6303,0.255407,
2,0,0,1,0,60296.2,0.253784,0.253415,-3.53138,31,0.0167754,10,-0.000894903,-2.45206,-0.150908,-0.390966,53.9408,0.253415,
2,0,0,1,0,60296.2,0.251786,0.251389,-3.64468,31,0.0167395,10,-0.000916234,-2.43834,-0.163198,-0.361524,51.2489,0.2513895,
2,0,0,1,0,60296.2,0.249789,0.249438,-3.73515,31,0.0167026,10,-0.000931691,-2.42769,-0.176595,-0.334099,48.7606,0.2494383,
2,0,0,1,0,60296.2,0.2478,0.247461,-3.83625,31,0.0166651,10,-0.000949322,-2.41609,-0.18932,-0.311642,46.5521,0.247461,
2,0,0,1,0,60296.2,0.245802,0.245437,-3.92144,31,0.0166263,10,-0.000962465,-2.40655,-0.194928,-0.302677,46.395,0.245437,
2,0,0,1,0,60296.2,0.243805,0.243491,-4.02041,31,0.0165866,10,-0.000978935,-2.39573,-0.215962,-0.273197,42.7086,0.243491,
2,0,0,1,0,60296.2,0.241807,0.241464,-4.0911,31,0.016546,10,-0.000987855,-2.38816,-0.233443,-0.252738,40.446,0.241464,
2,0,0,1,0,60296.2,0.239819,0.239503,-4.18171,31,0.0165051,10,-0.00100153,-2.37865,-0.24038,-0.245445,39.9517,0.239503,
2,0,0,1,0,60296.2,0.237821,0.23745,-4.25148,31,0.016463,10,-0.00100951,-2.37146,-0.27697,-0.213019,35.3539,0.23745,
2,0,0,1,0,60296.3,0.235824,0.23547,-4.32431,31,0.0164201,10,-0.00101824,-2.36408,-0.292238,-0.20189,34.0247,0.23547,
2,0,0,1,0,60296.3,0.233826,0.2335,-4.38586,31,0.0163765,10,-0.0010241,-2.35795,-0.28308,-0.208422,35.7509,0.2335,
2,0,0,1,0,60296.3,0.231824,0.231481,-4.46689,31,0.0163323,10,-0.001034,-2.34999,-0.287721,-0.20506,35.6743,0.231481,
2,0,0,1,0,60296.3,0.229822,0.22945,-4.53034,31,0.0162872,10,-0.00103949,-2.34387,-0.33291,-0.177225,31.3317,0.22945,
2,0,0,1,0,60296.3,0.227824,0.227437,-4.59362,31,0.0162416,10,-0.00104476,-2.33784,-0.334992,-0.176124,31.5663,0.227437,
2,0,0,1,0,60296.3,0.225827,0.225498,-4.65509,31,0.0161954,10,-0.00104971,-2.33207,-0.343647,-0.171688,31.188,0.225498,
2,0,0,1,0,60296.3,0.223829,0.223508,-4.71615,31,0.0161485,10,-0.0010541,-2.32641,-0.365011,-0.161639,29.7427,0.223508,
2,0,0,1,0,60296.3,0.221822,0.221461,-4.77518,31,0.016101,10,-0.00105751,-2.32101,-0.361475,-0.16322,30.4312,0.221461,
2,0,0,1,0,60296.3,0.219825,0.219473,-4.83894,31,0.0160529,10,-0.00106202,-2.31525,-0.370155,-0.159393,30.073,0.219473,
2,0,0,1,0,60296.3,0.217827,0.217505,-4.89413,31,0.0160042,10,-0.0010645,-2.31032,-0.433206,-0.136194,25.9976,0.2175052,
2,0,0,1,0,60296.4,0.21583,0.215441,-4.94376,31,0.015955,10,-0.00106509,-2.30594,-0.406769,-0.145045,28.0226,0.2154412,
2,0,0,1,0,60296.4,0.213841,0.213474,-5.0071,31,0.0159057,10,-0.00106889,-2.30041,-0.381508,-0.154649,30.1997,0.213474,
2,0,0,1,0,60296.4,0.211844,0.211456,-5.0641,31,0.0158554,10,-0.00107084,-2.2955,-0.45193,-0.130551,25.7705,0.2114564,
2,0,0,1,0,60296.4,0.209846,0.20951,-5.10925,31,0.0158045,10,-0.00107044,-2.29164,-0.455894,-0.129416,25.8348,0.20951,
2,0,0,1,0,60296.4,0.207848,0.207496,-5.16642,31,0.0157531,10,-0.00107201,-2.28681,-0.41873,-0.140902,28.4067,0.207496,
2,0,0,1,0,60296.4,0.20586,0.205513,-5.22279,31,0.0157016,10,-0.00107335,-2.2821,-0.440909,-0.133815,27.2648,0.205513,
2,0,0,1,0,60296.4,0.203862,0.203494,-5.27552,31,0.0156491,10,-0.00107354,-2.27773,-0.505343,-0.116752,24.0189,0.203494,
2,0,0,1,0,60296.4,0.201865,0.201456,-5.32023,31,0.0155961,10,-0.00107179,-2.27407,-0.476024,-0.123943,25.7637,0.201456,
2,0,0,1,0,60296.4,0.199867,0.199543,-5.37732,31,0.0155426,10,-0.00107301,-2.26943,-0.449995,-0.131112,27.5035,0.199543,
2,0,0,1,0,60296.4,0.19786,0.197459,-5.43017,31,0.0154886,10,-0.00107224,-2.26519,-0.486428,-0.121292,25.6968,0.197459,
2,0,0,1,0,60296.5,0.195863,0.195545,-5.48005,31,0.0154341,10,-0.0010716,-2.26122,-0.509538,-0.115791,24.7591,0.195545,
2,0,0,1,0,60296.5,0.193865,0.193509,-5.52797,31,0.0153791,10,-0.00106971,-2.25743,-0.502794,-0.117344,25.3298,0.193509,
2,0,0,1,0,60296.5,0.191868,0.191507,-5.58235,31,0.0153235,10,-0.00106906,-2.25318,-0.48849,-0.12078,26.3039,0.191507,
2,0,0,1,0,60296.5,0.189861,0.189515,-5.63302,31,0.0152675,10,-0.00106754,-2.24926,-0.498323,-0.118397,26.0331,0.189515,
2,0,0,1,0,60296.5,0.187863,0.187523,-5.68607,31,0.0152109,10,-0.00106627,-2.24519,-0.532295,-0.110841,24.5808,0.187523,
2,0,0,1,0,60296.5,0.185866,0.185485,-5.73208,31,0.0151538,10,-0.00106322,-2.24169,-0.537133,-0.109842,24.5874,0.185485,
2,0,0,1,0,60296.5,0.183868,0.183481,-5.78543,31,0.0150962,10,-0.00106152,-2.23766,-0.477153,-0.12365,27.9281,0.183481,
2,0,0,1,0,60296.5,0.18188,0.181511,-5.84308,31,0.0150386,10,-0.00106058,-2.23336,-0.462225,-0.127644,29.1069,0.181511,
2,0,0,1,0,60296.5,0.179882,0.179515,-5.90087,31,0.0149799,10,-0.0010593,-2.22908,-0.529476,-0.111431,25.6318,0.179515,
2,0,0,1,0,60296.5,0.177885,0.177527,-5.94519,31,0.0149207,10,-0.00105543,-2.22583,-0.530935,-0.111125,25.8166,0.177527,
2,0,0,1,0,60296.6,0.175887,0.175476,-6.00515,31,0.0148609,10,-0.00105376,-2.22148,-0.489328,-0.120573,28.2421,0.175476,
2,0,0,1,0,60296.6,0.173908,0.173505,-6.05877,31,0.0148012,10,-0.00105123,-2.21762,-0.454822,-0.129721,30.7081,0.173505,
2,0,0,1,0,60296.6,0.171901,0.171521,-6.12659,31,0.0147402,10,-0.00105084,-2.21278,-0.461933,-0.127724,30.4993,0.171521,
2,0,0,1,0,60296.6,0.169903,0.169567,-6.17888,31,0.0146787,10,-0.00104774,-2.20909,-0.444933,-0.132604,32.0342,0.169567,
2,0,0,1,0,60296.6,0.167906,0.167548,-6.25388,31,0.0146165,10,-0.00104782,-2.20385,-0.432933,-0.13628,33.2185,0.167548,
2,0,0,1,0,60296.6,0.165908,0.165526,-6.31312,31,0.0145537,10,-0.00104499,-2.19976,-0.452509,-0.130384,32.1521,0.165526,
2,0,0,1,0,60296.6,0.163901,0.163508,-6.38376,31,0.0144902,10,-0.0010438,-2.19492,-0.420186,-0.140414,34.9767,0.163508,
2,0,0,1,0,60296.6,0.161904,0.161533,-6.45277,31,0.014426,10,-0.00104234,-2.19025,-0.392766,-0.150217,37.8652,0.161533,
2,0,0,1,0,60296.6,0.159906,0.159524,-6.53462,31,0.014361,10,-0.00104243,-2.18478,-0.380416,-0.155094,39.5318,0.159524,
2,0,0,1,0,60296.6,0.157909,0.157553,-6.61013,31,0.0142952,10,-0.00104145,-2.17979,-0.34304,-0.171992,44.4527,0.157553,
2,0,0,1,0,60296.7,0.155902,0.155549,-6.71134,31,0.0142286,10,-0.00104394,-2.17319,-0.318476,-0.185258,48.4815,0.155549,
2,0,0,1,0,60296.7,0.153904,0.153597,-6.80194,31,0.014161,10,-0.00104475,-2.16737,-0.333784,-0.176761,46.9409,0.153597,
2,0,0,1,0,60296.7,0.151907,0.151558,-6.89868,31,0.0140925,10,-0.00104555,-2.16123,-0.314977,-0.187316,50.473,0.151558,
2,0,0,1,0,60296.7,0.149909,0.149519,-7.00776,31,0.0140229,10,-0.00104779,-2.15442,-0.265626,-0.222117,60.8367,0.1495188,
2,0,0,1,0,60296.7,0.147921,0.147609,-7.13893,31,0.0139529,10,-0.00105377,-2.14637,-0.260834,-0.226197,62.9617,0.147609,
2,0,0,1,0,60296.7,0.145923,0.145542,-7.25817,31,0.0138809,10,-0.00105637,-2.13917,-0.246912,-0.238951,67.8495,0.145542,
2,0,0,1,0,60296.7,0.143926,0.143552,-7.41418,31,0.0138075,10,-0.00106432,-2.12994,-0.218906,-0.269522,77.9772,0.143552,
2,0,0,1,0,60296.7,0.141928,0.141536,-7.57054,31,0.0137326,10,-0.0010715,-2.12087,-0.204382,-0.288675,85.4403,0.1415356,
2,0,0,1,0,60296.7,0.139939,0.13955,-7.75609,31,0.0136567,10,-0.00108236,-2.11036,-0.192847,-0.305941,92.5664,0.13955,
2,0,0,1,0,60296.7,0.137942,0.137569,-7.93769,31,0.0135782,10,-0.00109198,-2.10031,-0.178795,-0.329987,102.475,0.137569,
2,0,0,1,0,60296.8,0.135944,0.135592,-8.16169,31,0.0134977,10,-0.00110666,-2.08822,-0.164862,-0.357874,114.017,0.135592,
2,0,0,1,0,60296.8,0.133947,0.133571,-8.39352,31,0.0134149,10,-0.00112113,-2.07606,-0.157027,-0.375731,123.252,0.133571,
2,0,0,1,0,60296.8,0.13194,0.1316,-8.65369,31,0.0133297,10,-0.00113883,-2.0628,-0.150657,-0.391619,132.298,0.1316,
2,0,0,1,0,60296.8,0.129942,0.12956,-8.92428,31,0.0132418,10,-0.00115623,-2.04943,-0.146985,-0.4014,139.916,0.12956,
2,0,0,1,0,60296.8,0.127945,0.127587,-9.21525,31,0.0131511,10,-0.00117574,-2.03549,-0.1437,-0.410577,147.654,0.1275866,
2,0,0,1,0,60296.8,0.125947,0.125582,-9.51164,31,0.0130574,10,-0.00119449,-2.02174,-0.138512,-0.425955,158.35,0.125582,
2,0,0,1,0,60296.8,0.123941,0.123623,-9.84283,31,0.0129606,10,-0.0012168,-2.00688,-0.138226,-0.426837,163.766,0.123623,
2,0,0,1,0,60296.8,0.121943,0.121638,-10.1574,31,0.0128605,10,-0.00123553,-1.99322,-0.151331,-0.389874,154.423,0.1216383,
2,0,0,1,0,60296.8,0.119945,0.119617,-10.4615,31,0.0127574,10,-0.00125138,-1.9804,-0.151373,-0.389766,159.324,0.119617,
2,0,0,1,0,60296.8,0.117948,0.117623,-10.7971,31,0.012651,10,-0.00126999,-1.96669,-0.145396,-0.405789,171.007,0.117623,
2,0,0,1,0,60296.9,0.115946,0.115638,-11.1419,31,0.0125413,10,-0.00128843,-1.95304,-0.154357,-0.382232,165.957,0.115638,
2,0,0,1,0,60296.9,0.113962,0.113631,-11.4597,31,0.0124293,10,-0.00130217,-1.94083,-0.164939,-0.357708,159.96,0.113631,
2,0,0,1,0,60296.9,0.111964,0.111646,-11.7806,31,0.0123131,10,-0.00131525,-1.92883,-0.171644,-0.343735,157.941,0.111646,
2,0,0,1,0,60296.9,0.109967,0.10962,-12.0932,31,0.0121936,10,-0.00132565,-1.91746,-0.179199,-0.329243,155.309,0.10962,
2,0,0,1,0,60296.9,0.107969,0.107667,-12.3985,31,0.0120711,10,-0.00133491,-1.90663,-0.185848,-0.317464,153.531,0.107667,
2,0,0,1,0,60296.9,0.10598,0.105696,-12.6956,31,0.0119469,10,-0.00134188,-1.89635,-0.20266,-0.291128,144.15,0.105696,
2,0,0,1,0,60296.9,0.103983,0.10363,-12.9804,31,0.0118185,10,-0.00134516,-1.88671,-0.217606,-0.271132,137.273,0.10363,
2,0,0,1,0,60296.9,0.101985,0.101625,-13.2544,31,0.0116872,10,-0.00134698,-1.87764,-0.226079,-0.260971,134.922,0.101625,
2,0,0,1,0,60296.9,0.0999877,0.0996471,-13.5178,31,0.0115534,10,-0.00134701,-1.86909,-0.236927,-0.249022,131.326,0.0996471,
2,0,0,1,0,60296.9,0.0979811,0.0976629,-13.7748,31,0.0114168,10,-0.00134528,-1.86092,-0.25586,-0.230595,123.879,0.0976629,
2,0,0,1,0,60297,0.0959835,0.0956266,-14.0158,31,0.0112778,10,-0.00134029,-1.85338,-0.286367,-0.20603,112.577,0.0956266,
2,0,0,1,0,60297,0.0939859,0.0936233,-14.2295,31,0.0111365,10,-0.00133222,-1.84681,-0.297344,-0.198424,110.213,0.0936233,
2,0,0,1,0,60297,0.0919883,0.091679,-14.4509,31,0.0109931,10,-0.00132485,-1.8401,-0.316721,-0.186284,104.984,0.091679,
2,0,0,1,0,60297,0.0899816,0.0895838,-14.6536,31,0.0108475,10,-0.00131273,-1.83405,-0.361992,-0.162987,93.1071,0.0895838,
2,0,0,1,0,60297,0.087984,0.0876542,-14.8257,31,0.0107,10,-0.00129953,-1.82899,-0.403679,-0.146156,84.5352,0.0876542,
2,0,0,1,0,60297,0.0859865,0.0856249,-14.9883,31,0.0105509,10,-0.00128337,-1.82425,-0.446744,-0.132067,77.2119,0.0856249,
2,0,0,1,0,60297,0.0839889,0.0836285,-15.1365,31,0.0104003,10,-0.00126584,-1.81997,-0.524239,-0.112544,66.4109,0.0836285,
2,0,0,1,0,60297,0.0820004,0.0816452,-15.2526,31,0.0102498,10,-0.0012453,-1.81666,-0.623373,-0.0946463,56.3236,0.0816452,
2,0,0,1,0,60297,0.0800028,0.0796466,-15.3608,31,0.0100967,10,-0.00122343,-1.81359,-0.749597,-0.078709,47.1414,0.0796466,
2,0,0,1,0,60297,0.0780052,0.0776448,-15.4412,31,0.00994266,10,-0.00119893,-1.81132,-0.939448,-0.0628028,37.8364,0.0776448,
2,0,0,1,0,60297.1,0.0760076,0.0756016,-15.5138,31,0.00978789,10,-0.00117287,-1.80928,-1.16635,-0.050585,30.6046,0.0756016,
2,0,0,1,0,60297.1,0.0740191,0.0736337,-15.5639,31,0.00963409,10,-0.00114603,-1.80788,-1.62288,-0.0363551,22.0736,0.0736337,
2,0,0,1,0,60297.1,0.0720215,0.0716278,-15.6015,31,0.00947827,10,-0.0011175,-1.80683,-2.68896,-0.0219415,13.3501,0.0716278,
2,0,0,1,0,60297.1,0.0700239,0.0696922,-15.6165,31,0.00932217,10,-0.00108835,-1.80641,-5.80915,-0.0101564,6.18881,0.0696922,
2,0,0,1,0,60297.1,0.0680263,0.0677158,-15.6257,31,0.00916598,10,-0.00105811,-1.80616,-8.52221,-0.00692309,4.22167,0.0677158,
2,0,0,1,0,60297.1,0.0660197,0.0656656,-15.6335,31,0.00900974,10,-0.00102659,-1.80594,20.3658,0.00289702,-1.76627,0.0656656,
2,0,0,1,0,60297.1,0.0640221,0.0636727,-15.6186,31,0.00885349,10,-0.000994478,-1.80636,3.92334,0.0150382,-9.16438,0.0636727,
2,0,0,1,0,60297.1,0.0620245,0.061626,-15.5965,31,0.0086974,10,-0.000961152,-1.80697,3.6434,0.0161937,-9.85828,0.061626,
2,0,0,1,0,60297.1,0.0600269,0.059667,-15.5791,31,0.00854155,10,-0.000929558,-1.80746,3.05717,0.0192989,-11.7296,0.05966698,
2,0,0,1,0,60297.1,0.0580248,0.0576923,-15.5504,31,0.00838591,10,-0.000897138,-1.80826,2.57072,0.0229508,-13.9291,0.0576923,
2,0,0,1,0,60297.2,0.0560227,0.0556456,-15.5231,31,0.00823051,10,-0.000863792,-1.80902,2.16912,0.0271999,-16.4717,0.05564563,
2,0,0,1,0,60297.2,0.0540251,0.0536415,-15.4837,31,0.00807546,10,-0.000830566,-1.81013,2.17922,0.0270739,-16.3673,0.0536415,
2,0,0,1,0,60297.2,0.0520275,0.0516599,-15.4579,31,0.00792073,10,-0.000798551,-1.81085,2.0229,0.0291661,-17.5848,0.0516599,
2,0,0,1,0,60297.2,0.0500299,0.0496808,-15.414,31,0.00776635,10,-0.000765781,-1.81208,2.05468,0.0287149,-17.2846,0.0496808,
2,0,0,1,0,60297.2,0.0480414,0.0477015,-15.3894,31,0.00761384,10,-0.0007341,-1.81278,2.12827,0.0277221,-16.6404,0.0477015,
2,0,0,1,0,60297.2,0.0460438,0.0456735,-15.3473,31,0.00746013,10,-0.000700967,-1.81397,2.00684,0.0293995,-17.6169,0.0456735,
2,0,0,1,0,60297.2,0.0440462,0.0436948,-15.3189,31,0.00730682,10,-0.000669354,-1.81477,1.63663,0.0360498,-21.5324,0.0436948,
2,0,0,1,0,60297.2,0.0420486,0.0417209,-15.2622,31,0.00715394,10,-0.000636753,-1.81638,1.70355,0.0346336,-20.6501,0.0417209,
2,0,0,1,0,60297.2,0.0400601,0.0397216,-15.2368,31,0.00700295,10,-0.00060523,-1.81711,1.91878,0.0307486,-18.2711,0.0397216,
2,0,0,1,0,60297.2,0.0380625,0.0377192,-15.1891,31,0.00685081,10,-0.00057292,-1.81847,1.49545,0.0394529,-23.3882,0.0377192,
2,0,0,1,0,60297.3,0.036065,0.0357098,-15.143,31,0.00669918,10,-0.000540753,-1.81979,1.40096,0.042114,-24.8828,0.0357098,
2,0,0,1,0,60297.3,0.0340674,0.0337299,-15.0898,31,0.00654802,10,-0.000508979,-1.82132,1.44599,0.0408026,-24.037,0.0337299,
2,0,0,1,0,60297.3,0.0320607,0.0317119,-15.0469,31,0.00639733,10,-0.000477165,-1.82255,1.30192,0.0453176,-26.5931,0.0317119,
2,0,0,1,0,60297.3,0.0300631,0.0297042,-14.9828,31,0.00624715,10,-0.000445052,-1.82441,1.25269,0.0470985,-27.5576,0.0297042,
2,0,0,1,0,60297.3,0.0280655,0.0277599,-14.938,31,0.00609757,10,-0.000414677,-1.82571,1.18098,0.0499587,-29.0997,0.0277599,
2,0,0,1,0,60297.3,0.0260679,0.0257367,-14.8673,31,0.00594851,10,-0.000382636,-1.82777,1.11381,0.0529712,-30.7527,0.0257367,
2,0,0,1,0,60297.3,0.0240613,0.0237212,-14.8138,31,0.00580009,10,-0.000351401,-1.82933,1.04458,0.0564822,-32.6271,0.0237212,
2,0,0,1,0,60297.3,0.0220637,0.0217032,-14.7357,31,0.00565231,10,-0.000319812,-1.83163,0.965179,0.0611285,-35.1725,0.0217032,
2,0,0,1,0,60297.3,0.0200661,0.0197224,-14.6731,31,0.0055053,10,-0.00028939,-1.83348,0.896902,0.065782,-37.6363,0.0197224,
2,0,0,1,0,60297.3,0.0180685,0.0176888,-14.5846,31,0.00535898,10,-0.000257984,-1.8361,0.894869,0.0659314,-37.5625,0.0176888,
2,0,0,1,0,60297.4,0.01608,0.0157382,-14.5235,31,0.00521495,10,-0.000228574,-1.83793,0.878927,0.0671273,-38.0106,0.0157382,
2,0,0,1,0,60297.4,0.0140824,0.0137221,-14.4339,31,0.00507019,10,-0.000198064,-1.84062,0.752021,0.0784553,-44.1972,0.0137221,
2,0,0,1,0,60297.4,0.0120848,0.0117307,-14.3463,31,0.00492635,10,-0.000168293,-1.84326,0.683534,0.0863161,-48.2956,0.0117307,
2,0,0,1,0,60297.4,0.0100872,0.00971063,-14.2401,31,0.00478344,10,-0.000138281,-1.84649,0.69428,0.0849801,-47.264,0.00971063,
2,0,0,1,0,60297.4,0.00810328,0.00771044,-14.1563,31,0.00464292,10,-0.000109152,-1.84905,0.709169,0.083196,-45.9369,0.00771044,
2,0,0,1,0,60297.4,0.00610116,0.00570887,-14.0563,31,0.00450186,10,-8.02456e-05,-1.85213,0.625682,0.0942971,-51.7179,0.00570887,
2,0,0,1,0,60297.4,0.00410357,0.00373594,-13.9508,31,0.00436188,10,-5.21192e-05,-1.8554,0.718905,0.0820693,-44.733,0.00373594,
2,0,0,1,0,60297.4,0.00210598,0.00169706,-13.8768,31,0.00422288,10,-2.35499e-05,-1.85771,0.681315,0.0865973,-46.8286,0.00169706,
2,0,0,1,0,60297.4,0.00010174,-0.000295825,-13.762,31,0.00408472,10,4.07114e-06,-1.86132,0.565058,0.104414,-56.0852,-0.000295825,
2,0,0,1,0,60297.4,-0.00189827,-0.0023373,-13.6506,31,0.00394761,10,3.19055e-05,-1.86485,0.603488,0.097765,-52.1074,-0.0023373,
2,0,0,1,0,60297.5,-0.00389586,-0.00431804,-13.5524,31,0.00381163,10,5.85198e-05,-1.86798,0.591577,0.0997334,-52.7238,-0.00431804,
2,0,0,1,0,60297.5,-0.00589345,-0.00630399,-13.4414,31,0.00367666,10,8.47347e-05,-1.87155,0.589796,0.100035,-52.503,-0.00630399,
2,0,0,1,0,60297.5,-0.00789103,-0.00826999,-13.3449,31,0.00354275,10,0.000110362,-1.87468,0.637653,0.0925268,-48.1895,-0.00826999,
2,0,0,1,0,60297.5,-0.0098977,-0.0102932,-13.2492,31,0.00340974,10,0.000136377,-1.87781,0.688429,0.0857024,-44.3371,-0.0102932,
2,0,0,1,0,60297.5,-0.0118953,-0.012274,-13.1674,31,0.00327769,10,0.000161616,-1.8805,0.643872,0.0916332,-47.0425,-0.01227399,
2,0,0,1,0,60297.5,-0.0138929,-0.0143094,-13.0603,31,0.00314653,10,0.000186884,-1.88405,0.669742,0.0880936,-44.9603,-0.0143094,
2,0,0,1,0,60297.5,-0.0158905,-0.0162684,-12.9878,31,0.00301628,10,0.000211291,-1.88646,0.815834,0.0723186,-36.6569,-0.0162684,
2,0,0,1,0,60297.5,-0.017879,-0.0182451,-12.916,31,0.00288801,10,0.000235654,-1.88887,0.862028,0.0684432,-34.5083,-0.0182451,
2,0,0,1,0,60297.5,-0.0198766,-0.0202477,-12.8505,31,0.00275922,10,0.000260193,-1.89108,0.879402,0.067091,-33.6403,-0.02024772,
2,0,0,1,0,60297.5,-0.0218741,-0.0222869,-12.78,31,0.00263113,10,0.000284827,-1.89347,0.888538,0.0664012,-33.1264,-0.0222869,
2,0,0,1,0,60297.6,-0.0238717,-0.0243101,-12.7159,31,0.00250371,10,0.000309125,-1.89565,1.01442,0.0581612,-28.8787,-0.0243101,
2,0,0,1,0,60297.6,-0.0258602,-0.0262485,-12.6656,31,0.00237804,10,0.000332454,-1.89737,1.15585,0.0510446,-25.2323,-0.0262485,
2,0,0,1,0,60297.6,-0.0278578,-0.0282527,-12.6164,31,0.00225166,10,0.000356448,-1.89906,1.22439,0.0481874,-23.7294,-0.0282527,
2,0,0,1,0,60297.6,-0.0298554,-0.0302569,-12.5705,31,0.0021257,10,0.000380344,-1.90065,1.52918,0.0385828,-18.9398,-0.0302569,
2,0,0,1,0,60297.6,-0.031853,-0.032287,-12.54,31,0.00200018,10,0.00040488,-1.9017,1.68598,0.0349944,-17.1215,-0.03228705,
2,0,0,1,0,60297.6,-0.0338597,-0.0342114,-12.5028,31,0.00187496,10,0.000427738,-1.90299,1.9164,0.0307868,-15.0315,-0.0342114,
2,0,0,1,0,60297.6,-0.0358573,-0.0362156,-12.481,31,0.00175005,10,0.000452005,-1.90375,2.54881,0.0231481,-11.2744,-0.03621557,
2,0,0,1,0,60297.6,-0.0378549,-0.0382475,-12.4573,31,0.00162532,10,0.00047646,-1.90458,2.61613,0.0225524,-10.9655,-0.0382475,
2,0,0,1,0,60297.6,-0.0398524,-0.0402664,-12.4365,31,0.00150084,10,0.000500775,-1.9053,5.98176,0.00986331,-4.79149,-0.0402664,
2,0,0,1,0,60297.6,-0.0418591,-0.0423053,-12.4378,31,0.00137646,10,0.000526187,-1.90525,53.537,0.00110204,-0.53484,-0.0423053,
2,0,0,1,0,60297.7,-0.0438567,-0.0442401,-12.4344,31,0.00125214,10,0.000550099,-1.90537,5.01262,0.0117703,-5.70823,-0.04424005,
2,0,0,1,0,60297.7,-0.0458543,-0.0462633,-12.4153,31,0.00112784,10,0.000574371,-1.90604,11.5041,0.00512862,-2.4878,-0.0462633,
2,0,0,1,0,60297.7,-0.0478519,-0.0482206,-12.4245,31,0.00100362,10,0.000599117,-1.90572,-3.88178,-0.0151992,7.37322,-0.0482206,
2,0,0,1,0,60297.7,-0.0498585,-0.0502803,-12.4449,31,0.000879262,10,0.000625732,-1.90501,-3.60649,-0.0163594,7.94264,-0.0502803,
2,0,0,1,0,60297.7,-0.051838,-0.0522222,-12.4563,31,0.000756045,10,0.000650494,-1.90461,-6.12482,-0.00963293,4.68203,-0.0522222,
2,0,0,1,0,60297.7,-0.0538356,-0.0542152,-12.4633,31,0.000631469,10,0.0006757,-1.90437,-3.75131,-0.0157278,7.65517,-0.0542152,
2,0,0,1,0,60297.7,-0.0558331,-0.0562257,-12.4869,31,0.000506772,10,0.000702087,-1.90354,-2.77914,-0.0212296,10.3433,-0.0562257,
2,0,0,1,0,60297.7,-0.0578126,-0.0582241,-12.5048,31,0.000383056,10,0.000728079,-1.90292,-2.34463,-0.0251639,12.287,-0.0582241,
2,0,0,1,0,60297.7,-0.0598192,-0.0602083,-12.5359,31,0.000257843,10,0.000754764,-1.90185,-1.8629,-0.0316711,15.4941,-0.0602083,
2,0,0,1,0,60297.7,-0.0618168,-0.0621882,-12.5662,31,0.00013234,10,0.000781469,-1.9008,-1.73896,-0.0339284,16.6424,-0.0621882,
2,0,0,1,0,60297.8,-0.0638144,-0.0641481,-12.6014,31,6.53428e-06,10,0.000808359,-1.89958,-1.91209,-0.0308564,15.1691,-0.0641481,
2,0,0,1,0,60297.8,-0.065812,-0.0662,-12.627,31,-0.000119619,10,0.00083591,-1.8987,-1.67575,-0.0352081,17.3635,-0.0662,
2,0,0,1,0,60297.8,-0.0678187,-0.0682033,-12.6719,31,-0.00024615,10,0.000864262,-1.89716,-1.35544,-0.0435282,21.5241,-0.0682033,
2,0,0,1,0,60297.8,-0.0698163,-0.070237,-12.7139,31,-0.000373137,10,0.000892988,-1.89572,-1.33313,-0.0442567,21.9625,-0.070237,
2,0,0,1,0,60297.8,-0.0718138,-0.0721952,-12.7595,31,-0.000500492,10,0.000921176,-1.89417,-1.23621,-0.0477267,23.7694,-0.07219518,
2,0,0,1,0,60297.8,-0.0738114,-0.0742228,-12.8087,31,-0.000628355,10,0.000950695,-1.8925,-1.05438,-0.055957,27.9879,-0.0742228,
2,0,0,1,0,60297.8,-0.0758181,-0.0762356,-12.8726,31,-0.000756767,10,0.000981351,-1.89033,-1.07724,-0.0547697,27.4954,-0.0762356,
2,0,0,1,0,60297.8,-0.0778157,-0.0782094,-12.9183,31,-0.000885775,10,0.00101033,-1.8888,-1.06858,-0.0552135,27.8579,-0.07820943,
2,0,0,1,0,60297.8,-0.0798133,-0.0802353,-12.984,31,-0.00101529,10,0.00104178,-1.88659,-0.944215,-0.0624857,31.6567,-0.0802353,
2,0,0,1,0,60297.8,-0.0818109,-0.0822022,-13.0447,31,-0.00114547,10,0.0010723,-1.88457,-0.886328,-0.0665668,33.9064,-0.0822022,
2,0,0,1,0,60297.9,-0.0837994,-0.0842213,-13.1192,31,-0.00127499,10,0.00110491,-1.88209,-0.861562,-0.0684803,35.0492,-0.0842213,
2,0,0,1,0,60297.9,-0.085797,-0.0861881,-13.1844,31,-0.0014065,10,0.00113634,-1.87994,-0.835083,-0.0706516,36.371,-0.08618807,
2,0,0,1,0,60297.9,-0.0877945,-0.0881636,-13.2626,31,-0.00153869,10,0.00116928,-1.87737,-0.808624,-0.0729634,37.7579,-0.0881636,
2,0,0,1,0,60297.9,-0.0897921,-0.090194,-13.3356,31,-0.00167169,10,0.0012028,-1.87499,-0.792047,-0.0744906,38.7818,-0.090194,
2,0,0,1,0,60297.9,-0.0917806,-0.0921761,-13.4182,31,-0.00180407,10,0.00123684,-1.87231,-0.756458,-0.0779951,40.8382,-0.0921761,
2,0,0,1,0,60297.9,-0.0937782,-0.0941569,-13.4975,31,-0.00193868,10,0.00127088,-1.86975,-0.748731,-0.0788,41.5171,-0.0941569,
2,0,0,1,0,60297.9,-0.0957758,-0.0961307,-13.5824,31,-0.00207407,10,0.00130568,-1.86702,-0.748878,-0.0787845,41.76,-0.0961307,
2,0,0,1,0,60297.9,-0.0977734,-0.0982017,-13.6664,31,-0.00221034,10,0.00134206,-1.86435,-0.680053,-0.0867579,46.3011,-0.0982017,
2,0,0,1,0,60297.9,-0.0997412,-0.100129,-13.7675,31,-0.00234474,10,0.00137852,-1.86115,0.114356,0.515934,-269.996,-0.1001287,
2,0,0,1,1,60297.9,-0.0996711,-0.100096,-13.155,31,-0.00238526,10,0.00131676,-1.88091,-0.0186917,-3.15648,1501.38,-0.100096,
2,0,0,1,1,60297.9,-0.0976826,-0.0981081,-10.7338,31,-0.00250214,10,0.00105307,-1.96925,-0.0242761,-2.43038,1038.26,-0.0981081,
2,0,0,1,1,60298,-0.095685,-0.0960936,-8.99987,31,-0.00260028,10,0.000864829,-2.04576,-0.0265145,-2.2252,785.927,-0.0960936,
2,0,0,1,1,60298,-0.0936874,-0.09406,-7.55227,31,-0.0026827,10,0.000710366,-2.12192,-0.0257176,-2.29415,677.41,-0.09406,
2,0,0,1,1,60298,-0.0916898,-0.092098,-6.29319,31,-0.00275166,10,0.00057959,-2.20113,-0.0239919,-2.45916,603.768,-0.092098,
2,0,0,1,1,60298,-0.0897013,-0.0901286,-5.17862,31,-0.00280823,10,0.000466741,-2.28579,-0.0219758,-2.68478,540.099,-0.0901286,
2,0,0,1,1,60298,-0.0877037,-0.088153,-4.16254,31,-0.00285475,10,0.000366941,-2.38064,-0.0197448,-2.98813,481.627,-0.088153,
2,0,0,1,1,60298,-0.0857062,-0.0860899,-3.23347,31,-0.00289154,10,0.000278369,-2.49033,-0.0167469,-3.52305,439.329,-0.0860899,
2,0,0,1,1,60298,-0.0837086,-0.0841204,-2.39089,31,-0.00291948,10,0.000201122,-2.62144,-0.0129695,-4.54914,410.787,-0.0841204,
2,0,0,1,1,60298,-0.0817019,-0.0820833,-1.58761,31,-0.00293921,10,0.000130316,-2.79926,-0.00907161,-6.50381,381.043,-0.0820833,
2,0,0,1,1,60298,-0.0797043,-0.0801173,-0.865523,31,-0.00295133,10,6.93434e-05,-3.06272,-0.00427459,-13.8025,351.015,-0.0801173,
2,0,0,1,1,60298,-0.0777067,-0.0780854,-0.184275,31,-0.00295643,10,1.43892e-05,-3.73453,-0.0137567,-4.28883,326.323,-0.0780854,
2,1,0,1,1,60298.1,-0.0757091,-0.0761089,0.442491,31,-0.00295504,10,-3.36775e-05,-3.3541,0.00525607,11.2251,310.563,-0.0761089,
2,1,0,1,1,60298.1,-0.0737025,-0.0741178,1.04791,31,-0.00294748,10,-7.76685e-05,-2.97968,0.00707774,8.336,291.588,-0.0741178,
2,1,0,1,1,60298.1,-0.0717049,-0.0721822,1.58749,31,-0.00293416,10,-0.000114589,-2.79929,0.0131046,4.50223,266.817,-0.0721822,
2,1,0,1,1,60298.1,-0.0697073,-0.0701277,2.11254,31,-0.00291554,10,-0.000148147,-2.6752,0.018826,3.13397,251.01,-0.0701277,
2,1,0,1,1,60298.1,-0.0677097,-0.0681487,2.59994,31,-0.00289188,10,-0.000177182,-2.58504,0.0246022,2.39816,239.619,-0.0681487,
2,1,0,1,1,60298.1,-0.0657212,-0.066144,3.0671,31,-0.00286377,10,-0.00020287,-2.51327,0.0312343,1.88895,222.819,-0.06614399,
2,1,0,1,1,60298.1,-0.0637236,-0.0641605,3.48858,31,-0.00283092,10,-0.000223829,-2.45735,0.0380586,1.55024,210.008,-0.0641605,
2,1,0,1,1,60298.1,-0.061726,-0.0621341,3.90922,31,-0.00279387,10,-0.000242896,-2.40791,0.0448451,1.31564,198.954,-0.0621341,
2,1,0,1,1,60298.1,-0.0597284,-0.0601394,4.28859,31,-0.00275283,10,-0.000257913,-2.36769,0.0522748,1.12865,188.168,-0.0601394,
2,1,0,1,1,60298.1,-0.0577399,-0.0581634,4.65637,31,-0.00270854,10,-0.000270831,-2.33195,0.0608509,0.969583,175.232,-0.0581634,
2,1,0,1,1,60298.2,-0.0557423,-0.0561315,4.99091,31,-0.00266024,10,-0.000280147,-2.30182,0.06934,0.85088,165.449,-0.0561315,
2,1,0,1,1,60298.2,-0.0537447,-0.0541334,5.32314,31,-0.00260863,10,-0.000288159,-2.27383,0.0786668,0.749999,154.987,-0.0541334,
2,1,0,1,1,60298.2,-0.0517472,-0.0521283,5.61135,31,-0.00255392,10,-0.00029251,-2.25093,0.0876117,0.673426,147.497,-0.0521283,
2,1,0,1,1,60298.2,-0.049745,-0.050145,5.91141,31,-0.00249629,10,-0.000296428,-2.22831,0.0945996,0.623681,143.402,-0.050145,
2,1,0,1,1,60298.2,-0.0477429,-0.0481564,6.18093,31,-0.00243578,10,-0.000297651,-2.20895,0.10893,0.54163,130.405,-0.0481564,
2,1,0,1,1,60298.2,-0.0457453,-0.0461349,6.43434,31,-0.00237265,10,-0.000296848,-2.1915,0.122395,0.482044,120.787,-0.0461349,
2,1,0,1,1,60298.2,-0.0437477,-0.0441385,6.66624,31,-0.00230713,10,-0.000294238,-2.17612,0.134008,0.440271,114.436,-0.0441385,
2,1,0,1,1,60298.2,-0.0417501,-0.0421439,6.89106,31,-0.00223931,10,-0.000290416,-2.16171,0.145443,0.405656,108.939,-0.0421439,
2,1,0,1,1,60298.2,-0.0397435,-0.040151,7.10063,31,-0.00216928,10,-0.000285098,-2.1487,0.158609,0.371983,103.007,-0.04015103,
2,1,0,1,1,60298.2,-0.0377459,-0.0381364,7.30386,31,-0.00209724,10,-0.000278543,-2.13645,0.174388,0.338326,96.2562,-0.0381364,
2,1,0,1,1,60298.3,-0.0357483,-0.0361809,7.48278,31,-0.00202328,10,-0.000270734,-2.12594,0.190979,0.308935,90.2257,-0.0361809,
2,1,0,1,1,60298.3,-0.0337507,-0.0341238,7.6659,31,-0.00194753,10,-0.00026159,-2.11544,0.208062,0.283569,84.6778,-0.0341238,
2,1,0,1,1,60298.3,-0.0317622,-0.0321662,7.82274,31,-0.00187085,10,-0.000251628,-2.10664,0.231728,0.254608,77.6904,-0.0321662,
2,1,0,1,1,60298.3,-0.0297646,-0.030166,7.97339,31,-0.00179184,10,-0.000240525,-2.09836,0.252427,0.233731,72.6742,-0.03016597,
2,1,0,1,1,60298.3,-0.027767,-0.028169,8.11323,31,-0.00171137,10,-0.000228541,-2.09081,0.273348,0.215842,68.3058,-0.028169,
2,1,0,1,1,60298.3,-0.0257694,-0.0261783,8.24577,31,-0.00162958,10,-0.00021586,-2.08377,0.297052,0.198619,63.8711,-0.0261783,
2,1,0,1,1,60298.3,-0.0237809,-0.0241827,8.36784,31,-0.00154733,10,-0.000202357,-2.07739,0.321279,0.183641,59.9503,-0.0241827,
2,1,0,1,1,60298.3,-0.0217833,-0.0221864,8.48509,31,-0.00146305,10,-0.000188253,-2.07134,0.366245,0.161094,53.2757,-0.0221864,
2,1,0,1,1,60298.3,-0.0197858,-0.0201831,8.58092,31,-0.00137767,10,-0.000173189,-2.06647,0.396867,0.148665,49.8008,-0.0201831,
2,1,0,1,1,60298.3,-0.0177882,-0.018218,8.68272,31,-0.00129133,10,-0.000158181,-2.06134,0.408433,0.144455,48.9306,-0.018218,
2,1,0,1,1,60298.4,-0.0157815,-0.0161461,8.77845,31,-0.00120399,10,-0.000141738,-2.05658,0.456257,0.129313,44.2726,-0.0161461,
2,1,0,1,1,60298.4,-0.0137839,-0.0141428,8.86313,31,-0.00111575,10,-0.00012535,-2.05241,0.521235,0.113193,39.1218,-0.0141428,
2,1,0,1,1,60298.4,-0.0117863,-0.0121707,8.93398,31,-0.00102677,10,-0.000108733,-2.04896,0.552776,0.106734,37.2262,-0.0121707,
2,1,0,1,1,60298.4,-0.00978874,-0.0101735,9.0109,31,-0.000937044,10,-9.16725e-05,-2.04523,0.548199,0.107625,37.8415,-0.0101735,
2,1,0,1,1,60298.4,-0.00778207,-0.00817889,9.08504,31,-0.000846588,10,-7.43055e-05,-2.04167,0.65382,0.0902389,31.9584,-0.00817889,
2,1,0,1,1,60298.4,-0.00578449,-0.00617732,9.13861,31,-0.000755535,10,-5.64521e-05,-2.03912,0.801727,0.0735912,26.2438,-0.00617732,
2,1,0,1,1,60298.4,-0.0037869,-0.0041558,9.19062,31,-0.000663886,10,-3.81944e-05,-2.03666,0.812228,0.0726397,26.0555,-0.0041558,
2,1,0,1,1,60298.4,-0.00178931,-0.00214903,9.24357,31,-0.000571725,10,-1.98647e-05,-2.03416,1.15598,0.0510389,18.3743,-0.002149031,
2,1,0,1,1,60298.4,-2.55332e-05,-0.000458935,9.25854,31,-0.000491178,10,-4.24907e-06,-2.03346, , , ,-0.000458935,