File: Figure_codes/Fig_3-5/rawdata_trumpetplot_data/after 10th/20221101_1-115_003_TrumpetPlot_ParaChange_from10_every3_14_CV_C01_12.csv
mode,ox/red,error,control changes,counter inc.,time/s,control/V,Ewe/V,<I>/mA,cycle number,(Q-Qo)/C,I Range,P/W,log(|I|),Tafel slope mV/dec,alpha_eff,dI/d(E-IR),E-IR/V,
2,1,0,1,0,24840.7,2.44065e-05,-0.000306236,38.8296,13,0.0000000E+000,10,-1.1891e-05,-1.41084, , , ,-0.000306236,
2,1,0,1,0,24840.7,0.00332042,0.00292376,40.2598,13,0.000123205,10,0.00011771,-1.39513, , , ,0.002923762,
2,1,0,1,0,24840.7,0.0073156,0.006983,41.375,13,0.000286637,10,0.000288922,-1.38326, , , ,0.006983,
2,1,0,1,0,24840.7,0.0113108,0.0109722,42.325,13,0.00045418,10,0.0004644,-1.3734,0.420627,0.140267,230.348,0.0109722,
2,1,0,1,0,24840.7,0.0153059,0.0149201,43.1846,13,0.000625303,10,0.00064432,-1.36467,0.470874,0.125299,210.439,0.0149201,
2,1,0,1,0,24840.7,0.0193011,0.018955,43.9525,13,0.000799682,10,0.00083312,-1.35702,0.524833,0.112417,192.373,0.018955,
2,1,0,1,0,24840.7,0.0233462,0.0229601,44.7372,13,0.000977203,10,0.00102717,-1.34933,0.577294,0.102201,177.883,0.0229601,
2,1,0,1,0,24840.7,0.0273414,0.0269939,45.4071,13,0.00115756,10,0.00122572,-1.34288,0.621785,0.0948881,167.69,0.0269939,
2,1,0,1,0,24840.7,0.0313366,0.0309832,46.0419,13,0.00134055,10,0.00142652,-1.33685,0.689838,0.0855273,153.395,0.0309832,
2,1,0,1,0,24840.7,0.0353317,0.0349767,46.6392,13,0.00152598,10,0.00163128,-1.33125,0.733133,0.0804765,146.258,0.0349767,
2,1,0,1,0,24840.7,0.0393269,0.0389935,47.1967,13,0.00171372,10,0.00184036,-1.32609,0.778596,0.0757775,139.431,0.0389935,
2,1,0,1,0,24840.7,0.0433221,0.0430029,47.7485,13,0.00190369,10,0.00205332,-1.32104,0.822582,0.0717254,133.511,0.0430029,
2,1,0,1,0,24840.7,0.0473173,0.0469646,48.2702,13,0.00209577,10,0.00226699,-1.31632,0.853301,0.0691433,130.136,0.0469646,
2,1,0,1,0,24840.7,0.0513124,0.050922,48.7681,13,0.00228991,10,0.00248337,-1.31186,0.896615,0.0658031,125.163,0.050922,
2,1,0,1,0,24840.7,0.0553076,0.0549293,49.2705,13,0.00248605,10,0.00270639,-1.30741,0.906323,0.0650982,125.163,0.0549293,
2,1,0,1,0,24840.7,0.0593028,0.0589175,49.7404,13,0.0026841,10,0.00293058,-1.30329,0.931461,0.0633413,122.978,0.0589175,
2,1,0,1,0,24840.7,0.0633479,0.0629746,50.274,13,0.00288412,10,0.00316599,-1.29866,0.952302,0.0619552,121.464,0.06297458,
2,1,0,1,0,24840.7,0.0673431,0.066967,50.7412,13,0.00308617,10,0.00339799,-1.29464,0.954297,0.0618256,122.373,0.06696701,
2,1,0,1,0,24840.7,0.0713382,0.0709128,51.2119,13,0.00329011,10,0.00363158,-1.29063,0.992015,0.0594749,118.885,0.0709128,
2,1,0,1,0,24840.7,0.0753334,0.0749784,51.7059,13,0.00349599,10,0.00387682,-1.28646,0.98557,0.0598638,120.78,0.0749784,
2,1,0,1,0,24840.8,0.0793286,0.0789666,52.1753,13,0.0037038,10,0.0041201,-1.28254,0.976976,0.0603904,122.997,0.0789666,
2,1,0,1,0,24840.8,0.0833238,0.0828964,52.6652,13,0.00391354,10,0.00436576,-1.27848,0.990099,0.05959,122.498,0.0828964,
2,1,0,1,0,24840.8,0.0873189,0.0868666,53.1742,13,0.00412526,10,0.00461906,-1.2743,0.971632,0.0607226,126.003,0.0868666,
2,1,0,1,0,24840.8,0.0913141,0.090877,53.6534,13,0.00433896,10,0.00487586,-1.2704,0.939884,0.0627737,131.59,0.090877,
2,1,0,1,0,24840.8,0.0953093,0.0948536,54.1771,13,0.00455463,10,0.00513889,-1.26618,0.904094,0.0652587,138.236,0.09485358,
2,1,0,1,0,24840.8,0.0993045,0.0989277,54.7747,13,0.0047726,10,0.00541874,-1.26142,0.854688,0.069031,147.731,0.0989277,
2,1,0,1,0,24840.8,0.103319,0.102937,55.3957,13,0.00499298,10,0.00570227,-1.25652,0.842409,0.0700372,151.403,0.102937,
2,1,0,1,0,24840.8,0.107345,0.106998,56.035,13,0.00521596,10,0.00599566,-1.25154,0.843335,0.0699603,152.877,0.106998,
2,1,0,1,0,24840.8,0.11134,0.111013,56.6237,13,0.00544131,10,0.00628597,-1.247,0.84995,0.0694158,153.383,0.111013,
2,1,0,1,0,24840.8,0.115335,0.114968,57.227,13,0.00566908,10,0.0065793,-1.2424,0.854869,0.0690164,154.225,0.114968,
2,1,0,1,0,24840.8,0.11933,0.118994,57.8585,13,0.0058993,10,0.0068848,-1.23763,0.83636,0.0705437,159.361,0.118994,
2,1,0,1,0,24840.8,0.123325,0.122977,58.4993,13,0.00613206,10,0.00719404,-1.23285,0.81923,0.0720189,164.511,0.122977,
2,1,0,1,0,24840.8,0.127321,0.126951,59.1635,13,0.00636745,10,0.00751087,-1.22795,0.808927,0.0729361,168.492,0.126951,
2,1,0,1,0,24840.8,0.131316,0.130941,59.8547,13,0.00660554,10,0.00783746,-1.2229,0.795263,0.0741893,173.355,0.130941,
2,1,0,1,0,24840.8,0.135311,0.13496,60.5488,13,0.00684641,10,0.00817168,-1.21789,0.782329,0.0754158,178.3,0.13496,
2,1,0,1,0,24840.8,0.139306,0.138947,61.2679,13,0.00709011,10,0.00851301,-1.21277,0.755696,0.0780737,186.909,0.1389474,
2,1,0,1,0,24840.8,0.143301,0.142958,62.0176,13,0.00733674,10,0.0088659,-1.20749,0.736269,0.0801338,194.177,0.142958,
2,1,0,1,0,24840.8,0.147346,0.146991,62.8545,13,0.0075866,10,0.00923902,-1.20166,0.725088,0.0813695,199.598,0.146991,
2,1,0,1,0,24840.8,0.151342,0.150965,63.6565,13,0.00783969,10,0.00960991,-1.19616,0.718038,0.0821684,204.07,0.150965,
2,1,0,1,0,24840.8,0.155337,0.154974,64.4668,13,0.008096,10,0.00999071,-1.19066,0.724168,0.0814728,205.026,0.154974,
2,1,0,1,0,24840.8,0.159332,0.158967,65.2845,13,0.00835561,10,0.0103781,-1.18519,0.727329,0.0811187,206.708,0.158967,
2,1,0,1,0,24840.8,0.163327,0.162995,66.1359,13,0.00861853,10,0.0107798,-1.17956,0.73015,0.0808053,208.503,0.162995,
2,1,0,1,0,24840.8,0.167322,0.166942,66.9591,13,0.0088848,10,0.0111783,-1.17419,0.744889,0.0792064,206.88,0.166942,
2,1,0,1,0,24840.8,0.171317,0.17093,67.7937,13,0.00915441,10,0.011588,-1.16881,0.776244,0.076007,200.899,0.17093,
2,1,0,1,0,24840.8,0.175313,0.174968,68.5949,13,0.00942727,10,0.0120019,-1.16371,0.808763,0.0729509,195.05,0.174968,
2,1,0,1,0,24840.9,0.179308,0.178958,69.3427,13,0.00970325,10,0.0124094,-1.159,0.84244,0.0700347,189.427,0.1789576,
2,1,0,1,0,24840.9,0.183303,0.182962,70.0837,13,0.00998218,10,0.0128226,-1.15438,0.897969,0.0657038,179.541,0.182962,
2,1,0,1,0,24840.9,0.187348,0.187006,70.8389,13,0.010264,10,0.0132473,-1.14973,0.966212,0.0610632,168.446,0.187006,
2,1,0,1,0,24840.9,0.191343,0.190931,71.4608,13,0.0105487,10,0.0136441,-1.14593,1.08271,0.0544929,151.612,0.190931,
2,1,0,1,0,24840.9,0.195338,0.194979,72.0415,13,0.0108358,10,0.0140466,-1.14242,1.28041,0.046079,129.238,0.194979,
2,1,0,1,0,24840.9,0.199334,0.198967,72.5104,13,0.011125,10,0.0144272,-1.1396,1.5462,0.038158,107.7,0.198967,
2,1,0,1,0,24840.9,0.203329,0.202979,72.9032,13,0.0114159,10,0.0147978,-1.13725,2.06892,0.0285173,80.8971,0.202979,
2,1,0,1,0,24840.9,0.207324,0.206974,73.1886,13,0.0117081,10,0.0151481,-1.13556,3.2346,0.0182403,51.913,0.206974,
2,1,0,1,0,24840.9,0.211319,0.211002,73.3377,13,0.0120012,10,0.0154744,-1.13467,9.13931,0.00645563,18.4045,0.211002,
2,1,0,1,0,24840.9,0.215314,0.215002,73.3428,13,0.0122946,10,0.0157688,-1.13464,-9.67677,-0.00609708,-17.3821,0.215002,
2,1,0,1,0,24840.9,0.219309,0.218979,73.1977,13,0.0125877,10,0.0160288,-1.1355,-3.17039,-0.0186097,-52.9554,0.218979,
2,1,0,1,0,24840.9,0.223305,0.222983,72.9103,13,0.01288,10,0.0162577,-1.13721,-1.88915,-0.0312309,-88.526,0.2229825,
2,1,0,1,0,24840.9,0.227314,0.226991,72.491,13,0.0131707,10,0.0164548,-1.13972,-1.32324,-0.0445875,-125.609,0.226991,
2,1,0,1,0,24840.9,0.231345,0.231028,71.9241,13,0.0134596,10,0.0166165,-1.14313,-1.00732,-0.058571,-163.648,0.231028,
2,1,0,1,0,24840.9,0.23534,0.235037,71.1807,13,0.0137458,10,0.0167301,-1.14764,-0.810387,-0.0728047,-201.354,0.235037,
2,1,0,1,0,24840.9,0.239335,0.238998,70.2895,13,0.0140286,10,0.016799,-1.15311,-0.679651,-0.0868093,-237.2,0.238998,
2,1,0,1,0,24840.9,0.24333,0.243013,69.2649,13,0.0143077,10,0.0168322,-1.15949,-0.593396,-0.0994278,-267.814,0.243013,
2,1,0,1,0,24840.9,0.247326,0.246988,68.1383,13,0.0145824,10,0.0168293,-1.16661,-0.529528,-0.11142,-295.252,0.246988,
2,1,0,1,0,24840.9,0.251321,0.251024,66.8992,13,0.0148524,10,0.0167933,-1.17458,-0.4812,-0.12261,-319.067,0.251024,
2,1,0,1,0,24840.9,0.255316,0.255001,65.5644,13,0.0151172,10,0.016719,-1.18333,-0.442455,-0.133347,-340.231,0.255001,
2,1,0,1,0,24840.9,0.259311,0.259015,64.159,13,0.0153765,10,0.0166182,-1.19274,-0.413486,-0.142689,-356.469,0.259015,
2,1,0,1,0,24840.9,0.263306,0.262995,62.6923,13,0.0156301,10,0.0164877,-1.20279,-0.399084,-0.147838,-361.305,0.2629948,
2,1,0,1,0,24840.9,0.267302,0.266982,61.2107,13,0.0158777,10,0.0163421,-1.21317,-0.382142,-0.154393,-368.506,0.266982,
2,1,0,1,0,24840.9,0.271347,0.271044,59.768,13,0.0161196,10,0.0161998,-1.22353,-0.372289,-0.158479,-369.099,0.271044,
2,1,0,1,0,24840.9,0.275342,0.275044,58.2522,13,0.0163554,10,0.0160219,-1.23469,-0.365427,-0.161455,-366.816,0.2750442,
2,1,0,1,0,24841,0.279337,0.279067,56.7599,13,0.0165853,10,0.0158398,-1.24596,-0.355755,-0.165844,-367.548,0.2790674,
2,1,0,1,0,24841,0.283332,0.283046,55.3181,13,0.0168093,10,0.0156576,-1.25713,-0.35764,-0.16497,-356.423,0.283046,
2,1,0,1,0,24841,0.287327,0.286991,53.9069,13,0.0170276,10,0.0154708,-1.26836,-0.359698,-0.164027,-345.448,0.286991,
2,1,0,1,0,24841,0.291322,0.291,52.5651,13,0.0172404,10,0.0152965,-1.2793,-0.364962,-0.161661,-332.296,0.291,
2,1,0,1,0,24841,0.295318,0.294984,51.2615,13,0.0174479,10,0.0151213,-1.29021,-0.373763,-0.157854,-319.29,0.2949841,
2,1,0,1,0,24841,0.299013,0.29873,50.1064,13,0.0176354,10,0.0149683,-1.30011,-0.141416,-0.41721,-804.968,0.29873,
2,1,0,0,0,24841,0.300012,0.299842,49.8037,13,0.0176853,10,0.0149332,-1.30274,0.00362181,16.2902,28245.9,0.299842,
2,1,0,1,0,24841,0.298714,0.298613,46.4373,13,0.0177466,10,0.0138668,-1.33313,0.0418285,1.41052,2219.74,0.298613,
2,1,0,1,0,24841,0.294718,0.294523,38.2322,13,0.0179143,10,0.0112603,-1.41757,0.0487274,1.21082,1746.83,0.294523,
2,1,0,1,0,24841,0.290723,0.29053,31.9054,13,0.0180536,10,0.00926948,-1.49614,0.0492847,1.19713,1524.83,0.29053,
2,1,0,1,0,24841,0.286728,0.286531,26.551,13,0.0181698,10,0.00760768,-1.57592,0.0481347,1.22573,1278.17,0.286531,
2,1,0,1,0,24841,0.282733,0.282513,21.8872,13,0.0182661,10,0.00618341,-1.65981,0.0452912,1.30268,1109.64,0.282513,
2,1,0,1,0,24841,0.278738,0.278529,17.789,13,0.0183449,10,0.00495475,-1.74985,0.0413462,1.42698,977.917,0.278529,
2,1,0,1,0,24841,0.274742,0.274514,14.1329,13,0.0184082,10,0.00387969,-1.84977,0.036143,1.63241,873.445,0.274514,
2,1,0,1,0,24841,0.270747,0.270497,10.8717,13,0.0184578,10,0.00294076,-1.9637,0.0302197,1.95237,781.877,0.270497,
2,1,0,1,0,24841,0.266702,0.266474,7.87835,13,0.0184949,10,0.00209938,-2.10356,0.022937,2.57226,705.141,0.266474,
2,1,0,1,0,24841,0.262707,0.26247,5.23299,13,0.0185208,10,0.0013735,-2.28125,0.0129778,4.54622,638.395,0.26247,
2,1,0,1,0,24841,0.258712,0.258479,2.82568,13,0.0185367,10,0.000730378,-2.54888,0.021021,2.80671,577.864,0.258479,
2,1,0,1,0,24841,0.254717,0.254456,0.631371,13,0.0185433,10,0.000160656,-3.19972,0.0744706,0.792259,526.468,0.254456,
2,0,0,1,0,24841,0.250722,0.250477,-1.36591,13,0.0185416,10,-0.000342129,-2.86458,-0.0672388,-0.877469,481.957,0.250477,
2,0,0,1,0,24841,0.246726,0.246469,-3.19076,13,0.0185323,10,-0.000786424,-2.49611,-0.0158481,-3.72284,442.232,0.246469,
2,0,0,1,0,24841,0.242731,0.242473,-4.8884,13,0.0185159,10,-0.0011853,-2.31083,-0.0210804,-2.7988,405.811,0.242473,
2,0,0,1,0,24841,0.238736,0.238477,-6.43519,13,0.0184931,10,-0.00153465,-2.19144,-0.0347073,-1.69993,376.535,0.238477,
2,0,0,1,0,24841,0.234741,0.234439,-7.87414,13,0.0184642,10,-0.00184601,-2.1038,-0.0482622,-1.22249,350.144,0.234439,
2,0,0,1,0,24841,0.230746,0.230504,-9.20232,13,0.0184299,10,-0.00212117,-2.0361,-0.0626533,-0.94169,322.634,0.230504,
2,0,0,1,0,24841,0.226701,0.226454,-10.4972,13,0.0183905,10,-0.00237713,-1.97893,-0.0771534,-0.764711,301.502,0.226454,
2,0,0,1,0,24841,0.222705,0.222369,-11.6324,13,0.0183461,10,-0.00258668,-1.93433,-0.0927942,-0.635815,280.703,0.222369,
2,0,0,1,0,24841.1,0.21871,0.218379,-12.7162,13,0.0182973,10,-0.00277696,-1.89564,-0.11021,-0.535344,260.417,0.218379,
2,0,0,1,0,24841.1,0.214715,0.214401,-13.7226,13,0.0182443,10,-0.00294213,-1.86256,-0.125873,-0.468726,247.065,0.214401,
2,0,0,1,0,24841.1,0.21072,0.210456,-14.6634,13,0.0181874,10,-0.00308601,-1.83376,-0.143396,-0.411448,232.728,0.210456,
2,0,0,1,0,24841.1,0.206725,0.206427,-15.5709,13,0.0181268,10,-0.00321425,-1.80769,-0.161132,-0.366159,220.325,0.206427,
2,0,0,1,0,24841.1,0.20273,0.202427,-16.4289,13,0.0180627,10,-0.00332564,-1.78439,-0.178861,-0.329865,209.666,0.202427,
2,0,0,1,0,24841.1,0.198734,0.1984,-17.2479,13,0.0179953,10,-0.00342198,-1.76326,-0.197154,-0.299258,199.949,0.1984,
2,0,0,1,0,24841.1,0.194739,0.194423,-18.0251,13,0.0179247,10,-0.00350448,-1.74412,-0.21462,-0.274904,192.32,0.194423,
2,0,0,1,0,24841.1,0.190744,0.190432,-18.7691,13,0.017851,10,-0.00357424,-1.72656,-0.229424,-0.257166,187.761,0.190432,
2,0,0,1,0,24841.1,0.186735,0.1864,-19.5112,13,0.0177744,10,-0.00363688,-1.70972,-0.245367,-0.240456,182.516,0.1864,
2,0,0,1,0,24841.1,0.182704,0.18242,-20.2484,13,0.0176947,10,-0.0036937,-1.69361,-0.261005,-0.226049,177.903,0.18242,
2,0,0,1,0,24841.1,0.178709,0.178416,-20.9466,13,0.0176122,10,-0.0037372,-1.67889,-0.275831,-0.213899,174.256,0.178416,
2,0,0,1,0,24841.1,0.174713,0.17435,-21.6301,13,0.017527,10,-0.00377122,-1.66494,-0.289439,-0.203843,171.765,0.17435,
2,0,0,1,0,24841.1,0.170718,0.170397,-22.2997,13,0.0174391,10,-0.00379981,-1.6517,-0.298017,-0.197975,172.255,0.170397,
2,0,0,1,0,24841.1,0.166723,0.166446,-22.9921,13,0.0173485,10,-0.00382694,-1.63842,-0.30221,-0.195228,175.216,0.166446,
2,0,0,1,0,24841.1,0.162728,0.162438,-23.6989,13,0.017255,10,-0.00384959,-1.62527,-0.301764,-0.195517,180.961,0.162438,
2,0,0,1,0,24841.1,0.158733,0.158429,-24.4197,13,0.0171587,10,-0.0038688,-1.61226,-0.303,-0.194719,185.807,0.158429,
2,0,0,1,0,24841.1,0.154737,0.154423,-25.1904,13,0.0170594,10,-0.00388998,-1.59877,-0.296861,-0.198746,195.71,0.154423,
2,0,0,1,0,24841.1,0.150742,0.150422,-25.9695,13,0.0169571,10,-0.00390638,-1.58554,-0.284261,-0.207556,211.244,0.150422,
2,0,0,1,0,24841.1,0.146747,0.14644,-26.8297,13,0.0168514,10,-0.00392895,-1.57138,-0.276479,-0.213398,224.436,0.14644,
2,0,0,1,0,24841.1,0.142702,0.142375,-27.8112,13,0.016742,10,-0.0039596,-1.55578,-0.263318,-0.224063,243.768,0.142375,
2,0,0,1,0,24841.1,0.138707,0.138397,-28.7872,13,0.0166288,10,-0.00398406,-1.5408,-0.252657,-0.233518,263.223,0.138397,
2,0,0,1,0,24841.1,0.134712,0.134399,-29.8753,13,0.0165114,10,-0.00401522,-1.52469,-0.244252,-0.241554,282.904,0.134399,
2,0,0,1,0,24841.1,0.130717,0.130452,-31.0381,13,0.0163895,10,-0.00404899,-1.50811,-0.232876,-0.253353,308.321,0.130452,
2,0,0,1,0,24841.1,0.126721,0.126432,-32.3213,13,0.0162626,10,-0.00408646,-1.49051,-0.223515,-0.263964,334.432,0.126432,
2,0,0,1,0,24841.1,0.122726,0.122439,-33.7074,13,0.0161305,10,-0.0041271,-1.47227,-0.217286,-0.271532,358.475,0.122439,
2,0,0,1,0,24841.2,0.118731,0.118485,-35.1976,13,0.0159926,10,-0.00417038,-1.45349,-0.21349,-0.27636,380.412,0.118485,
2,0,0,1,0,24841.2,0.114736,0.114435,-36.7799,13,0.0158485,10,-0.00420891,-1.43439,-0.213859,-0.275883,396.079,0.114435,
2,0,0,1,0,24841.2,0.110741,0.110467,-38.3947,13,0.015698,10,-0.00424135,-1.41573,-0.214517,-0.275037,412.274,0.110467,
2,0,0,1,0,24841.2,0.106745,0.106429,-40.0486,13,0.0155409,10,-0.00426233,-1.39741,-0.218416,-0.270127,422.26,0.106429,
2,0,0,1,0,24841.2,0.102703,0.102447,-41.8095,13,0.0153771,10,-0.00428327,-1.37872,-0.226258,-0.260764,424.388,0.102447,
2,0,0,1,0,24841.2,0.0987052,0.0984791,-43.5175,13,0.0152063,10,-0.00428556,-1.36134,-0.235684,-0.250336,423.557,0.0984791,
2,0,0,1,0,24841.2,0.09471,0.0944485,-45.1928,13,0.0150287,10,-0.00426839,-1.34493,-0.250596,-0.235438,413.833,0.0944485,
2,0,0,1,0,24841.2,0.0907148,0.0904052,-46.8356,13,0.0148445,10,-0.00423418,-1.32942,-0.266328,-0.221531,403.559,0.0904052,
2,0,0,1,0,24841.2,0.0867197,0.0864499,-48.4297,13,0.0146538,10,-0.00418674,-1.31489,-0.283409,-0.208179,392.109,0.0864499,
2,0,0,1,0,24841.2,0.0827245,0.0824479,-49.987,13,0.0144568,10,-0.00412132,-1.30114,-0.306094,-0.192751,374.284,0.0824479,
2,0,0,1,0,24841.2,0.0787293,0.078447,-51.4671,13,0.0142538,10,-0.00403744,-1.28847,-0.327462,-0.180173,360.32,0.078447,
2,0,0,1,0,24841.2,0.0747342,0.0744853,-52.7942,13,0.0140451,10,-0.00393239,-1.27741,-0.352857,-0.167206,343.719,0.0744853,
2,0,0,1,0,24841.2,0.070739,0.0705385,-54.1629,13,0.013831,10,-0.00382057,-1.2663,-0.3805,-0.155059,326.948,0.0705385,
2,0,0,1,0,24841.2,0.0667438,0.066545,-55.4531,13,0.0136116,10,-0.00369013,-1.25607,-0.405872,-0.145366,313.573,0.066545,
2,0,0,1,0,24841.2,0.0627403,0.0625271,-56.6721,13,0.0133872,10,-0.00354354,-1.24663,-0.448495,-0.131551,289.856,0.06252709,
2,0,0,1,0,24841.2,0.0587035,0.0584318,-57.8281,13,0.013158,10,-0.003379,-1.23786,-0.499331,-0.118158,265.393,0.0584318,
2,0,0,1,0,24841.2,0.0547083,0.0544828,-58.8167,13,0.0129246,10,-0.0032045,-1.2305,-0.561542,-0.105068,240.177,0.0544828,
2,0,0,1,0,24841.2,0.0507132,0.0505286,-59.7038,13,0.0126875,10,-0.00301675,-1.224,-0.6339,-0.0930747,216.24,0.0505286,
2,0,0,1,0,24841.2,0.046718,0.0465224,-60.5161,13,0.0124469,10,-0.00281535,-1.21813,-0.708867,-0.0832314,196.112,0.0465224,
2,0,0,1,0,24841.2,0.0427228,0.0425331,-61.266,13,0.0122033,10,-0.00260584,-1.21278,-0.788528,-0.074823,178.486,0.0425331,
2,0,0,1,0,24841.2,0.0387276,0.038458,-61.9594,13,0.0119567,10,-0.00238283,-1.20789,-0.893576,-0.0660268,159.21,0.038458,
2,0,0,1,0,24841.2,0.0347325,0.0344974,-62.5651,13,0.0117076,10,-0.00215833,-1.20367,-1.02007,-0.0578394,140.833,0.0344974,
2,0,0,1,0,24841.2,0.0307373,0.0304668,-63.0723,13,0.0114563,10,-0.00192161,-1.20016,-1.18982,-0.0495875,121.787,0.03046676,
2,0,0,1,0,24841.2,0.0267421,0.026468,-63.5286,13,0.011203,10,-0.00168147,-1.19703,-1.3521,-0.0436358,108.023,0.026468,
2,0,0,1,0,24841.2,0.022747,0.0224183,-63.9128,13,0.0109481,10,-0.00143282,-1.19441,-1.57095,-0.0375568,93.5443,0.0224183,
2,0,0,1,0,24841.3,0.0187018,0.0183696,-64.3073,13,0.0106916,10,-0.0011813,-1.19174,-1.88315,-0.0313305,78.4447,0.0183696,
2,0,0,1,0,24841.3,0.0147067,0.014391,-64.5761,13,0.0104338,10,-0.000929314,-1.18993,-2.24471,-0.026284,66.1008,0.014391,
2,0,0,1,0,24841.3,0.0107115,0.0104357,-64.7862,13,0.010175,10,-0.000676088,-1.18852,-2.92442,-0.0201749,50.9523,0.0104357,
2,0,0,1,0,24841.3,0.00671632,0.00644113,-64.9689,13,0.00991545,10,-0.000418473,-1.18729,-3.62767,-0.0162639,41.1975,0.00644113,
2,0,0,1,0,24841.3,0.00272115,0.00243173,-65.1194,13,0.00965528,10,-0.000158353,-1.18629,-4.81413,-0.0122556,31.1063,0.00243173,
2,0,0,1,0,24841.3,-0.00127403,-0.00164023,-65.2365,13,0.00939448,10,0.000107003,-1.18551,-7.88596,-0.00748165,19.0145,-0.00164023,
2,0,0,1,0,24841.3,-0.0052692,-0.005621,-65.2857,13,0.00913343,10,0.00036697,-1.18518,-19.3308,-0.00305212,7.7641,-0.005621,
2,0,0,1,0,24841.3,-0.00926438,-0.00959222,-65.2738,13,0.00887231,10,0.000626121,-1.18526,32.5843,0.00181069,-4.60738,-0.00959222,
2,0,0,1,0,24841.3,-0.0132596,-0.0136196,-65.244,13,0.00861125,10,0.0008886,-1.18546,12.1018,0.00487531,-12.4028,-0.0136196,
2,0,0,1,0,24841.3,-0.0172547,-0.0175686,-65.1631,13,0.00835045,10,0.00114482,-1.186,6.91536,0.00853174,-21.6759,-0.0175686,
2,0,0,1,0,24841.3,-0.0212915,-0.0216575,-65.0868,13,0.00809,10,0.00140962,-1.18651,4.35773,0.0135392,-34.3287,-0.02165753,
2,0,0,1,0,24841.3,-0.025295,-0.025685,-64.925,13,0.00782997,10,0.00166759,-1.18759,3.25221,0.0181415,-45.8748,-0.025685,
2,0,0,1,0,24841.3,-0.0292902,-0.0296604,-64.6933,13,0.00757077,10,0.00191883,-1.18914,2.49472,0.0236499,-59.6334,-0.02966042,
2,0,0,1,0,24841.3,-0.0332854,-0.0336168,-64.4269,13,0.00731254,10,0.00216583,-1.19093,2.11715,0.0278677,-70.0017,-0.0336168,
2,0,0,1,0,24841.3,-0.0372805,-0.0376241,-64.1346,13,0.00705546,10,0.00241301,-1.19291,1.90229,0.0310152,-77.5544,-0.03762408,
2,0,0,1,0,24841.3,-0.0412757,-0.0416632,-63.8065,13,0.00679959,10,0.00265838,-1.19514,1.73632,0.03398,-84.5368,-0.04166317,
2,0,0,1,0,24841.3,-0.0452709,-0.0456344,-63.4545,13,0.0065451,10,0.00289571,-1.19754,1.59904,0.0368971,-91.296,-0.0456344,
2,0,0,1,0,24841.3,-0.0492661,-0.0496491,-63.0716,13,0.00629209,10,0.00313145,-1.20017,1.52646,0.0386516,-95.0984,-0.0496491,
2,0,0,1,0,24841.3,-0.0532612,-0.0536352,-62.6729,13,0.00604063,10,0.00336147,-1.20292,1.4777,0.0399269,-97.6548,-0.0536352,
2,0,0,1,0,24841.3,-0.0572564,-0.0576393,-62.2872,13,0.00579075,10,0.00359019,-1.2056,1.51298,0.0389959,-94.8257,-0.0576393,
2,0,0,1,0,24841.3,-0.0612544,-0.0616222,-61.8932,13,0.00554245,10,0.00381399,-1.20836,1.50226,0.0392741,-94.8922,-0.06162215,
2,0,0,1,0,24841.3,-0.0652967,-0.065692,-61.5503,13,0.00529552,10,0.00404336,-1.21077,1.50327,0.0392478,-94.2446,-0.065692,
2,0,0,1,0,24841.3,-0.0692919,-0.0696505,-61.1532,13,0.00505017,10,0.00425935,-1.21358,1.53865,0.0383452,-91.5214,-0.0696505,
2,0,0,1,0,24841.3,-0.0732871,-0.0736705,-60.7763,13,0.00480636,10,0.00447742,-1.21627,1.54341,0.0382271,-90.7415,-0.0736705,
2,0,0,1,0,24841.3,-0.0772822,-0.0776428,-60.427,13,0.00456399,10,0.00469172,-1.21877,1.64065,0.0359613,-84.8698,-0.0776428,
2,0,0,1,0,24841.4,-0.0812774,-0.081649,-60.1024,13,0.00432297,10,0.0049073,-1.22111,1.78034,0.0331397,-77.7989,-0.081649,
2,0,0,1,0,24841.4,-0.0852726,-0.0856414,-59.796,13,0.0040832,10,0.00512101,-1.22333,1.93601,0.0304751,-71.1896,-0.0856414,
2,0,0,1,0,24841.4,-0.0892678,-0.0896264,-59.5349,13,0.00384458,10,0.00533591,-1.22523,2.12584,0.0277537,-64.5391,-0.0896264,
2,0,0,1,0,24841.4,-0.0932629,-0.0936337,-59.2886,13,0.00360699,10,0.00555141,-1.22703,2.43395,0.0242404,-56.1423,-0.0936337,
2,0,0,1,0,24841.4,-0.0972581,-0.0976272,-59.0711,13,0.0033703,10,0.00576695,-1.22862,2.98249,0.0197821,-45.6801,-0.0976272,
2,0,0,1,0,24841.4,-0.101253,-0.10166,-58.8967,13,0.0031344,10,0.00598743,-1.22991,3.45503,0.0170765,-39.3021,-0.10166,
2,0,0,1,0,24841.4,-0.105298,-0.105639,-58.8035,13,0.00289904,10,0.00621192,-1.2306,4.28888,0.0137565,-31.5775,-0.105639,
2,0,0,1,0,24841.4,-0.109294,-0.109671,-58.6583,13,0.00266415,10,0.00643313,-1.23167,5.35296,0.0110219,-25.2476,-0.109671,
2,0,0,1,0,24841.4,-0.113289,-0.113668,-58.5646,13,0.00242973,10,0.00665692,-1.23236,6.36008,0.00927661,-21.2275,-0.113668,
2,0,0,1,0,24841.4,-0.117284,-0.117646,-58.4931,13,0.00219563,10,0.00688145,-1.2329,10.2205,0.00577272,-13.1914,-0.117646,
2,0,0,1,0,24841.4,-0.121279,-0.121645,-58.4637,13,0.00196172,10,0.00711184,-1.23311,18.1114,0.00325762,-7.43805,-0.121645,
2,0,0,1,0,24841.4,-0.125274,-0.125665,-58.4473,13,0.00172793,10,0.0073448,-1.23324,185.189,0.000318593,-0.727213,-0.125665,
2,0,0,1,0,24841.4,-0.129269,-0.129644,-58.4458,13,0.00149415,10,0.00757715,-1.23325,-28.9978,-0.00203464,4.6453,-0.129644,
2,0,0,1,0,24841.4,-0.133265,-0.133633,-58.4815,13,0.0012603,10,0.00781507,-1.23298,-12.3948,-0.00476005,10.8739,-0.133633,
2,0,0,1,0,24841.4,-0.13726,-0.137672,-58.5382,13,0.00102627,10,0.00805909,-1.23256,-6.77274,-0.00871139,19.9244,-0.137672,
2,0,0,1,0,24841.4,-0.141255,-0.141614,-58.6207,13,0.000791929,10,0.00830151,-1.23195,-5.59546,-0.0105443,24.1451,-0.141614,
2,0,0,1,0,24841.4,-0.145286,-0.145637,-58.7644,13,0.000557203,10,0.00855828,-1.23089,-4.77155,-0.012365,28.3574,-0.145637,
2,0,0,1,0,24841.4,-0.149295,-0.149647,-58.8681,13,0.000321916,10,0.00880941,-1.23012,-4.31362,-0.0136776,31.4257,-0.149647,
2,0,0,1,0,24841.4,-0.15329,-0.153607,-58.99,13,8.62041e-05,10,0.00906129,-1.22922,-4.31833,-0.0136627,31.4682,-0.153607,
2,0,0,1,0,24841.4,-0.157286,-0.157654,-59.1248,13,-0.000150022,10,0.00932124,-1.22823,-3.85857,-0.0152906,35.2971,-0.157654,
2,0,0,1,0,24841.4,-0.161281,-0.161665,-59.2688,13,-0.000386814,10,0.0095817,-1.22717,-3.6842,-0.0160143,37.0533,-0.161665,
2,0,0,1,0,24841.4,-0.165276,-0.165607,-59.4315,13,-0.000624218,10,0.00984225,-1.22598,-3.48339,-0.0169375,39.2896,-0.165607,
2,0,0,1,0,24841.4,-0.169271,-0.169631,-59.5838,13,-0.000862254,10,0.0101073,-1.22487,-3.26238,-0.0180849,42.0673,-0.169631,
2,0,0,1,0,24841.4,-0.173266,-0.173623,-59.7522,13,-0.00110093,10,0.0103744,-1.22365,-3.24229,-0.018197,42.4471,-0.1736234,
2,0,0,1,0,24841.4,-0.177261,-0.177556,-59.9373,13,-0.00134031,10,0.0106423,-1.2223,-3.09407,-0.0190687,44.606,-0.177556,
2,0,0,1,0,24841.5,-0.181257,-0.181596,-60.1101,13,-0.00158042,10,0.0109157,-1.22105,-2.86219,-0.0206136,48.3799,-0.181596,
2,0,0,1,0,24841.5,-0.185252,-0.185579,-60.2952,13,-0.00182125,10,0.0111895,-1.21972,-2.87236,-0.0205406,48.3584,-0.185579,
2,0,0,1,0,24841.5,-0.189297,-0.189602,-60.5252,13,-0.00206297,10,0.0114757,-1.21806,-2.78335,-0.0211975,50.0584,-0.189602,
2,0,0,1,0,24841.5,-0.193292,-0.193616,-60.7139,13,-0.00230548,10,0.0117552,-1.21671,-2.82181,-0.0209086,49.5009,-0.1936163,
2,0,0,1,0,24841.5,-0.197287,-0.197614,-60.912,13,-0.00254873,10,0.0120371,-1.2153,-8.34126,-0.00707327,16.7329,-0.197614,
2,0,0,0,0,24841.5,-0.199984,-0.200475,-61.0325,13,-0.00271336,10,0.0122355,-1.21444,0.0613847,0.961151,-2130.97,-0.200475,
2,0,0,0,1,24841.5,-0.199984,-0.200456,-60.7069,13,-0.00274983,10,0.0121691,-1.21676,-0.0370764,-1.59131,3309.15,-0.200456,
2,0,0,1,1,24841.5,-0.196688,-0.1972,-53.0761,13,-0.00292309,10,0.0104666,-1.2751,-0.0647189,-0.911634,1786.87,-0.1972,
2,0,0,1,1,24841.5,-0.192693,-0.193205,-46.3214,13,-0.00312078,10,0.00894952,-1.33422,-0.0672885,-0.876821,1616.31,-0.193205,
2,0,0,1,1,24841.5,-0.188698,-0.189137,-40.7733,13,-0.00329418,10,0.00771174,-1.38962,-0.0716472,-0.82348,1332.07,-0.189137,
2,0,0,1,1,24841.5,-0.184653,-0.185119,-35.9182,13,-0.00344692,10,0.00664915,-1.44469,-0.0726092,-0.812569,1150.01,-0.185119,
2,0,0,1,1,24841.5,-0.180657,-0.181122,-31.6578,13,-0.00358154,10,0.00573391,-1.49952,-0.0709452,-0.831628,1031.28,-0.181122,
2,0,0,1,1,24841.5,-0.176662,-0.177082,-27.7803,13,-0.00369994,10,0.00491941,-1.55626,-0.0681014,-0.866355,937.649,-0.177082,
2,0,0,1,1,24841.5,-0.172667,-0.173075,-24.209,13,-0.00380348,10,0.00418997,-1.61602,-0.064195,-0.919075,863.364,-0.173075,
2,0,0,1,1,24841.5,-0.168672,-0.169098,-20.8955,13,-0.00389329,10,0.00353338,-1.67995,-0.0588792,-1.00205,808.738,-0.169098,
2,0,0,1,1,24841.5,-0.164677,-0.165075,-17.8042,13,-0.00397032,10,0.00293903,-1.74948,-0.053342,-1.10607,755.223,-0.165075,
2,0,0,1,1,24841.5,-0.160681,-0.161165,-14.9071,13,-0.0040354,10,0.00240249,-1.82661,-0.0469087,-1.25776,711.124,-0.161165,
2,0,0,1,1,24841.5,-0.156686,-0.157115,-12.1554,13,-0.00408921,10,0.0019098,-1.91523,-0.0396533,-1.4879,674.099,-0.157115,
2,0,0,1,1,24841.5,-0.152691,-0.153137,-9.54581,13,-0.00413233,10,0.00146182,-2.02019,-0.0317568,-1.85787,638.786,-0.1531374,
2,0,0,1,1,24841.5,-0.148696,-0.149123,-7.05044,13,-0.00416523,10,0.00105138,-2.15178,-0.0227706,-2.59106,608.274,-0.149123,
2,0,0,1,1,24841.5,-0.14467,-0.145119,-4.65706,13,-0.00418843,10,0.000675826,-2.33189,-0.00995078,-5.92919,580.452,-0.145119,
2,0,0,1,1,24841.5,-0.140656,-0.141081,-2.40215,13,-0.00420227,10,0.000338896,-2.6194,-0.0274636,-2.1483,555.94,-0.141081,
2,0,0,1,1,24841.5,-0.136661,-0.137093,-0.233067,13,-0.00420729,10,3.19519e-05,-3.63252,-0.190531,-0.309661,530.635,-0.137093,
2,1,0,1,1,24841.5,-0.132665,-0.133124,1.84368,13,-0.00420386,10,-0.000245439,-2.73431,0.0417921,1.41175,513.599,-0.133124,
2,1,0,1,1,24841.5,-0.12867,-0.12911,3.83786,13,-0.00419226,10,-0.000495504,-2.41591,0.010522,5.60731,492.536,-0.12911,
2,1,0,1,1,24841.5,-0.124675,-0.125159,5.77538,13,-0.00417282,10,-0.000722839,-2.23842,0.0224672,2.62605,475.971,-0.125159,
2,1,0,1,1,24841.6,-0.12068,-0.121162,7.6138,13,-0.00414584,10,-0.000922502,-2.1184,0.0342889,1.72067,461.221,-0.121162,
2,1,0,1,1,24841.6,-0.116685,-0.117212,9.41755,13,-0.00411158,10,-0.00110385,-2.02606,0.0457956,1.28833,445.536,-0.117212,
2,1,0,1,1,24841.6,-0.112689,-0.113182,11.1839,13,-0.00407022,10,-0.00126582,-1.95141,0.0569005,1.0369,433.27,-0.113182,
2,1,0,1,1,24841.6,-0.108694,-0.109193,12.8886,13,-0.00402188,10,-0.00140734,-1.88979,0.0683737,0.862904,420.902,-0.109193,
2,1,0,1,1,24841.6,-0.104699,-0.105172,14.5417,13,-0.00396684,10,-0.00152938,-1.83738,0.0801287,0.736315,408.307,-0.105172,
2,1,0,1,1,24841.6,-0.100654,-0.101128,16.1874,13,-0.00390515,10,-0.001637,-1.79082,0.0923916,0.638586,395.288,-0.101128,
2,1,0,1,1,24841.6,-0.0966588,-0.0971362,17.7356,13,-0.00383712,10,-0.00172277,-1.75115,0.104373,0.565279,384.997,-0.0971362,
2,1,0,1,1,24841.6,-0.0926636,-0.0930781,19.2587,13,-0.00376299,10,-0.00179256,-1.71537,0.11762,0.501617,372.261,-0.0930781,
2,1,0,1,1,24841.6,-0.0886685,-0.08911,20.7256,13,-0.00368286,10,-0.00184685,-1.68349,0.130966,0.450498,360.273,-0.08911,
2,1,0,1,1,24841.6,-0.0846733,-0.0850953,22.1556,13,-0.00359695,10,-0.00188534,-1.65452,0.144151,0.409293,350.504,-0.0850953,
2,1,0,1,1,24841.6,-0.0806781,-0.0810827,23.5193,13,-0.00350545,10,-0.00190701,-1.62858,0.157982,0.373461,340.267,-0.0810827,
2,1,0,1,1,24841.6,-0.076683,-0.0770808,24.8658,13,-0.00340852,10,-0.00191667,-1.6044,0.171698,0.343627,331.321,-0.0770808,
2,1,0,1,1,24841.6,-0.0726878,-0.0730851,26.1783,13,-0.0033063,10,-0.00191324,-1.58206,0.185485,0.318085,322.931,-0.0730851,
2,1,0,1,1,24841.6,-0.0686926,-0.069133,27.4443,13,-0.00319892,10,-0.00189731,-1.56155,0.198421,0.297347,317.103,-0.069133,
2,1,0,1,1,24841.6,-0.0646974,-0.0651056,28.6788,13,-0.00308652,10,-0.00186715,-1.54244,0.2145,0.275058,306.588,-0.06510558,
2,1,0,1,1,24841.6,-0.0606523,-0.0610697,29.9429,13,-0.0029692,10,-0.00182861,-1.52371,0.230756,0.255681,297.023,-0.0610697,
2,1,0,1,1,24841.6,-0.0566571,-0.0570868,31.0832,13,-0.00284702,10,-0.00177444,-1.50747,0.246832,0.239029,288.587,-0.0570868,
2,1,0,1,1,24841.6,-0.052662,-0.0530678,32.216,13,-0.00272031,10,-0.00170963,-1.49193,0.267143,0.220855,276.727,-0.0530678,
2,1,0,1,1,24841.6,-0.0486668,-0.0490637,33.3082,13,-0.00258914,10,-0.00163423,-1.47745,0.283804,0.20789,269.291,-0.0490637,
2,1,0,1,1,24841.6,-0.0446716,-0.0450724,34.3698,13,-0.00245365,10,-0.00154913,-1.46382,0.303254,0.194556,260.069,-0.0450724,
2,1,0,1,1,24841.6,-0.0406764,-0.0410831,35.3928,13,-0.00231401,10,-0.00145405,-1.45108,0.321004,0.183798,253.123,-0.0410831,
2,1,0,1,1,24841.6,-0.0366813,-0.0370918,36.3709,13,-0.00217038,10,-0.00134906,-1.43925,0.341952,0.172539,244.346,-0.0370918,
2,1,0,1,1,24841.6,-0.0326861,-0.0331173,37.3446,13,-0.00202281,10,-0.00123676,-1.42777,0.363324,0.162389,236.067,-0.03311735,
2,1,0,1,1,24841.6,-0.0286909,-0.029091,38.2748,13,-0.00187147,10,-0.00111345,-1.41709,0.382186,0.154375,230.042,-0.029091,
2,1,0,1,1,24841.6,-0.0246957,-0.0250869,39.169,13,-0.00171649,10,-0.000982629,-1.40706,0.406735,0.145057,221.312,-0.0250869,
2,1,0,1,1,24841.7,-0.0206756,-0.0210828,40.0536,13,-0.00155799,10,-0.000844442,-1.39736,0.43266,0.136366,212.62,-0.0210828,
2,1,0,1,1,24841.7,-0.0166554,-0.0170734,40.8954,13,-0.00139597,10,-0.000698223,-1.38833,0.459855,0.128301,204.221,-0.0170734,
2,1,0,1,1,24841.7,-0.0126603,-0.0130905,41.6768,13,-0.00123075,10,-0.000545571,-1.38011,0.492853,0.119711,194.306,-0.0130905,
2,1,0,1,1,24841.7,-0.0086651,-0.00904187,42.4458,13,-0.00106243,10,-0.000383789,-1.37217,0.525213,0.112335,185.595,-0.00904187,
2,1,0,1,1,24841.7,-0.00466992,-0.00506958,43.1651,13,-0.00089112,10,-0.000218829,-1.36487, , , ,-0.00506958,
2,1,0,1,1,24841.7,-0.000974387,-0.0013958,43.805,13,-0.000730197,10,-6.11433e-05,-1.35848, , , ,-0.0013958,
2,1,0,0,1,24841.7,-0.000175352,-0.000554371,43.928,13,-0.00069512,10,-2.43524e-05,-1.35726, , , ,-0.000554371,