File: Figure_codes/Fig_3-5/rawdata_trumpetplot_data/after 10th/20221101_1-115_003_TrumpetPlot_ParaChange_from10_every3_03_CV_C01_11.csv
mode,ox/red,error,control changes,counter inc.,time/s,control/V,Ewe/V,<I>/mA,cycle number,(Q-Qo)/C,I Range,P/W,log(|I|),Tafel slope mV/dec,alpha_eff,dI/d(E-IR),E-IR/V,
2,0,0,1,0,22611.4,2.44065e-05,-0.000268062,-0.0898536,12,0.0000000E+000,10,2.40863e-08,-4.04646, , , ,-0.000268062,
2,1,0,0,0,22611.7,0.00129787,0.0008846,0.144234,12,2.74652e-05,10,1.2759e-07,-3.84093, , , ,0.0008846,
2,1,0,0,0,22612,0.00279606,0.00246991,0.180565,12,8.29012e-05,10,4.45978e-07,-3.74337,0.0193946,3.04209,18.2824,0.00246991,
2,1,0,1,0,22612.3,0.00429469,0.00397185,0.189483,12,0.000143469,10,7.526e-07,-3.72243,0.0677965,0.870252,6.48002,0.00397185,
2,1,0,1,0,22612.6,0.00579255,0.00549535,0.198373,12,0.000207111,10,1.09013e-06,-3.70252,0.0686035,0.860014,6.6567,0.00549535,
2,1,0,1,0,22612.9,0.00729041,0.00699876,0.20944,12,0.000273724,10,1.46582e-06,-3.67894,0.0857856,0.687761,5.55871,0.00699876,
2,1,0,1,0,22613.2,0.00878882,0.00847287,0.216387,12,0.000342906,10,1.83342e-06,-3.66477,0.103608,0.569453,4.78868,0.00847287,
2,1,0,1,0,22613.5,0.010287,0.00992669,0.222572,12,0.000414146,10,2.2094e-06,-3.65253,0.13217,0.446396,3.8617,0.009926687,
2,1,0,1,0,22613.8,0.0117852,0.0114929,0.228807,12,0.000487367,10,2.62966e-06,-3.64053,0.132481,0.445347,3.98442,0.0114929,
2,1,0,1,0,22614.1,0.0132836,0.0129734,0.234341,12,0.000562202,10,3.04021e-06,-3.63015,0.124018,0.475738,4.39148,0.0129734,
2,1,0,1,0,22614.4,0.0147815,0.0144864,0.240682,12,0.000639045,10,3.4866e-06,-3.61856,0.134896,0.437374,4.11603,0.0144864,
2,1,0,1,0,22614.7,0.0162793,0.0159908,0.247155,12,0.000717905,10,3.95221e-06,-3.60703,0.164204,0.35931,3.4572,0.0159908,
2,1,0,0,0,22615,0.017778,0.0174662,0.253163,12,0.000798355,10,4.4218e-06,-3.5966,0.16686,0.353591,3.47965,0.0174662,
2,1,0,0,0,22615.3,0.0192761,0.0189274,0.258046,12,0.000879962,10,4.88414e-06,-3.5883,0.167357,0.35254,3.52489,0.0189274,
2,1,0,1,0,22615.6,0.0207747,0.0204526,0.263152,12,0.000963376,10,5.38214e-06,-3.57979,0.148745,0.396653,4.05288,0.0204526,
2,1,0,1,0,22615.9,0.0222725,0.0219826,0.269822,12,0.00104862,10,5.9314e-06,-3.56892,0.155535,0.379335,3.96551,0.0219826,
2,1,0,1,0,22616.2,0.0237704,0.0234443,0.273383,12,0.00113537,10,6.40928e-06,-3.56323,0.194844,0.302807,3.24022,0.0234443,
2,1,0,1,0,22616.5,0.0252689,0.0249739,0.279014,12,0.00122354,10,6.96805e-06,-3.55437,0.170237,0.346575,3.78991,0.0249739,
2,1,0,1,0,22616.8,0.0267671,0.0264605,0.284525,12,0.00131348,10,7.52868e-06,-3.54588,0.157752,0.374006,4.1549,0.0264605,
2,1,0,1,0,22617.1,0.0282657,0.0279645,0.290053,12,0.0014052,10,8.11119e-06,-3.53752,0.161207,0.365989,4.15719,0.0279645,
2,1,0,1,0,22617.4,0.0297635,0.0294764,0.295323,12,0.00149844,10,8.70505e-06,-3.5297,0.214071,0.275609,3.17228,0.0294764,
2,1,0,1,0,22617.7,0.0312613,0.0309479,0.299523,12,0.00159322,10,9.2696e-06,-3.52357,0.178577,0.330389,3.88507,0.0309479,
2,1,0,0,0,22618,0.0327599,0.0324402,0.306059,12,0.0016895,10,9.9286e-06,-3.5142,0.227102,0.259795,3.10825,0.0324402,
2,1,0,0,0,22618.3,0.034258,0.0339566,0.312325,12,0.00178758,10,1.06055e-05,-3.50539,0.217206,0.271632,3.30493,0.0339566,
2,1,0,1,0,22618.6,0.0357567,0.03545,0.316941,12,0.00188728,10,1.12356e-05,-3.49902,0.243337,0.242462,2.99947,0.03545,
2,1,0,1,0,22618.9,0.0372545,0.0369289,0.322941,12,0.00198857,10,1.19258e-05,-3.49088,0.201204,0.293234,3.70346,0.0369289,
2,1,0,1,0,22619.2,0.0387524,0.0384598,0.327249,12,0.00209108,10,1.25859e-05,-3.48512,0.192763,0.306075,3.93847,0.03845983,
2,1,0,1,0,22619.5,0.0402508,0.0399447,0.332095,12,0.00219551,10,1.32654e-05,-3.47874,0.229667,0.256894,3.34034,0.0399447,
2,1,0,1,0,22619.8,0.041749,0.0414462,0.338661,12,0.00230186,10,1.40362e-05,-3.47023,0.258094,0.228599,3.01606,0.0414462,
2,1,0,1,0,22620.1,0.0432472,0.0429679,0.34481,12,0.00240948,10,1.48158e-05,-3.46242,0.249384,0.236583,3.18045,0.0429679,
2,1,0,1,0,22620.4,0.0447456,0.0444368,0.349312,12,0.00251832,10,1.55223e-05,-3.45679,0.26005,0.226879,3.08327,0.0444368,
2,1,0,1,0,22620.7,0.0462435,0.0459539,0.353771,12,0.00262903,10,1.62571e-05,-3.45128,0.207716,0.284042,3.91142,0.0459539,
2,1,0,1,0,22621,0.0477413,0.0474317,0.359459,12,0.00274128,10,1.70497e-05,-3.44435,0.25857,0.228178,3.19843,0.0474317,
2,1,0,0,0,22621.3,0.0492399,0.0488956,0.363993,12,0.00285503,10,1.77977e-05,-3.43891,0.273075,0.216058,3.07374,0.0488956,
2,1,0,0,0,22621.6,0.0507381,0.050466,0.367253,12,0.00296994,10,1.85338e-05,-3.43503,0.280376,0.210432,3.03322,0.050466,
2,1,0,1,0,22621.9,0.0522367,0.051882,0.372401,12,0.00308649,10,1.93209e-05,-3.42899,0.256218,0.230273,3.35271,0.051882,
2,1,0,1,0,22622.2,0.0537345,0.053397,0.379559,12,0.0032047,10,2.02673e-05,-3.42072,0.261245,0.225842,3.33429,0.053397,
2,1,0,1,0,22622.5,0.0552323,0.0549171,0.383901,12,0.00332436,10,2.10827e-05,-3.41578,0.313874,0.187974,2.80146,0.05491709,
2,1,0,1,0,22622.8,0.0567309,0.0564022,0.38515,12,0.00344525,10,2.17233e-05,-3.41437,0.330647,0.178438,2.69373,0.0564022,
2,1,0,1,0,22623.1,0.0582291,0.0579143,0.390995,12,0.0035672,10,2.26442e-05,-3.40783,0.321614,0.18345,2.80613,0.0579143,
2,1,0,1,0,22623.4,0.0597277,0.05941,0.396372,12,0.00369067,10,2.35484e-05,-3.4019,0.329122,0.179265,2.77225,0.05941001,
2,1,0,1,0,22623.7,0.0612255,0.0608941,0.40106,12,0.00381552,10,2.44222e-05,-3.39679,0.477166,0.123647,1.92387,0.06089408,
2,1,0,1,0,22624,0.0627233,0.0624249,0.40465,12,0.00394157,10,2.52602e-05,-3.39292,0.388641,0.151811,2.40213,0.0624249,
2,1,0,0,0,22624.3,0.0642218,0.0639374,0.409359,12,0.00406857,10,2.61734e-05,-3.3879,0.332035,0.177692,2.84061,0.0639374,
2,1,0,0,0,22624.6,0.06572,0.0654252,0.412919,12,0.00419706,10,2.70153e-05,-3.38413,0.3503,0.168427,2.70694,0.06542518,
2,1,0,1,0,22624.9,0.0672187,0.0669208,0.418482,12,0.00432703,10,2.80051e-05,-3.37832,0.392191,0.150437,2.44133,0.0669208,
2,1,0,1,0,22625.2,0.0687165,0.0683762,0.42044,12,0.00445783,10,2.87481e-05,-3.3763,0.442324,0.133386,2.1896,0.0683762,
2,1,0,1,0,22625.5,0.0702144,0.0698925,0.422846,12,0.00458937,10,2.95537e-05,-3.37382,0.455404,0.129555,2.13946,0.0698925,
2,1,0,1,0,22625.8,0.0717128,0.0713709,0.427862,12,0.00472227,10,3.05369e-05,-3.3687,0.399768,0.147586,2.45898,0.0713709,
2,1,0,1,0,22626.1,0.073211,0.0728989,0.429115,12,0.00485614,10,3.1282e-05,-3.36743,0.428849,0.137578,2.31531,0.0728989,
2,1,0,1,0,22626.4,0.0747092,0.0744111,0.433328,12,0.00499096,10,3.22444e-05,-3.36318,0.595029,0.0991549,1.68035,0.0744111,
2,1,0,1,0,22626.7,0.0762076,0.0758937,0.435067,12,0.00512648,10,3.30189e-05,-3.36144,0.490932,0.120179,2.04962,0.07589373,
2,1,0,1,0,22627,0.0777054,0.0773823,0.439633,12,0.00526306,10,3.40198e-05,-3.35691,0.329863,0.178862,3.06633,0.0773823,
2,1,0,1,0,22627.3,0.0792033,0.0789237,0.445417,12,0.0054008,10,3.51539e-05,-3.35123,0.381367,0.154707,2.67797,0.0789237,
2,1,0,0,0,22627.6,0.0807019,0.0803663,0.446205,12,0.00553981,10,3.58598e-05,-3.35047,0.555188,0.10627,1.8467,0.0803663,
2,1,0,0,0,22627.9,0.0822001,0.0819028,0.447309,12,0.00567951,10,3.66359e-05,-3.34939,0.549815,0.107309,1.88704,0.0819028,
2,1,0,1,0,22628.2,0.0836986,0.0833293,0.452643,12,0.00581998,10,3.77185e-05,-3.34424,0.385043,0.15323,2.71275,0.08332935,
2,1,0,1,0,22628.5,0.0851965,0.0848508,0.457272,12,0.00596189,10,3.87999e-05,-3.33982,0.415382,0.142038,2.53535,0.0848508,
2,1,0,1,0,22628.8,0.0866944,0.086385,0.461807,12,0.00610504,10,3.98932e-05,-3.33554,0.50588,0.116628,2.09735,0.086385,
2,1,0,1,0,22629.1,0.0881929,0.087821,0.465389,12,0.00624959,10,4.08709e-05,-3.33218,0.329846,0.178872,3.2569,0.08782097,
2,1,0,1,0,22629.4,0.0896911,0.0893564,0.469983,12,0.00639501,10,4.1996e-05,-3.32792,0.278737,0.211669,3.90534,0.0893564,
2,1,0,1,0,22629.7,0.0911897,0.0908424,0.477523,12,0.00654256,10,4.33793e-05,-3.32101,0.234386,0.251722,4.6821,0.0908424,
2,1,0,1,0,22630,0.0926875,0.0923902,0.484589,12,0.00669247,10,4.47713e-05,-3.31463,0.248461,0.237462,4.48222,0.09239015,
2,1,0,1,0,22630.3,0.0941853,0.0938978,0.491416,12,0.00684398,10,4.61429e-05,-3.30855,0.234168,0.251956,4.83289,0.09389782,
2,1,0,0,0,22630.6,0.0956838,0.0953456,0.496768,12,0.00699734,10,4.73647e-05,-3.30385,0.227466,0.259379,5.04368,0.0953456,
2,1,0,0,0,22630.9,0.097182,0.0968652,0.505019,12,0.00715319,10,4.89187e-05,-3.29669,0.185262,0.318467,6.2825,0.0968652,
2,1,0,1,0,22631.2,0.0986807,0.0983903,0.515908,12,0.00731173,10,5.07604e-05,-3.28743,0.199434,0.295837,5.94269,0.0983903,
2,1,0,1,0,22631.5,0.100179,0.099864,0.522394,12,0.00747277,10,5.21683e-05,-3.282,0.204489,0.288524,5.89163,0.099864,
2,1,0,1,0,22631.8,0.101676,0.101327,0.528853,12,0.00763626,10,5.35871e-05,-3.27667,0.199709,0.29543,6.13294,0.1013272,
2,1,0,1,0,22632.1,0.103175,0.102832,0.541623,12,0.00780249,10,5.56962e-05,-3.2663,0.195877,0.30121,6.36449,0.102832,
2,1,0,1,0,22632.4,0.104673,0.104353,0.551748,12,0.00797164,10,5.75764e-05,-3.25826,0.215753,0.273461,5.87146,0.1043527,
2,1,0,1,0,22632.7,0.106171,0.10588,0.559919,12,0.00814367,10,5.9284e-05,-3.25187,0.262836,0.224475,4.87464,0.10588,
2,1,0,1,0,22633,0.10767,0.107407,0.565923,12,0.0083182,10,6.07841e-05,-3.24724,0.25244,0.233719,5.17415,0.107407,
2,1,0,1,0,22633.3,0.109167,0.108863,0.574235,12,0.00849455,10,6.25126e-05,-3.24091,0.269965,0.218547,4.91909,0.108863,
2,1,0,1,0,22633.6,0.110665,0.11034,0.58363,12,0.00867374,10,6.4398e-05,-3.23386,0.290745,0.202927,4.61769,0.11034,
2,1,0,0,0,22633.9,0.112164,0.111852,0.590964,12,0.00885534,10,6.61004e-05,-3.22844,0.365395,0.161469,3.70987,0.111852,
2,1,0,0,0,22634.2,0.113662,0.11337,0.596843,12,0.0090389,10,6.76643e-05,-3.22414,0.316257,0.186557,4.33577,0.11337,
2,1,0,1,0,22634.5,0.115161,0.114849,0.602912,12,0.00922375,10,6.92437e-05,-3.21975,0.369244,0.159786,3.75582,0.114849,
2,1,0,1,0,22634.8,0.116658,0.116368,0.609358,12,0.00941085,10,7.09099e-05,-3.21513,0.295432,0.199707,4.73502,0.116368,
2,1,0,1,0,22635.1,0.118156,0.117857,0.615036,12,0.00959994,10,7.2486e-05,-3.2111,0.392581,0.150287,3.5963,0.117857,
2,1,0,1,0,22635.4,0.119655,0.119345,0.617944,12,0.00979051,10,7.37483e-05,-3.20905,0.495807,0.118998,2.87818,0.119345,
2,1,0,1,0,22635.7,0.121153,0.120864,0.622951,12,0.00998212,10,7.52926e-05,-3.20555,0.362696,0.162671,3.97076,0.1208643,
2,1,0,1,0,22636,0.122652,0.122338,0.629565,12,0.0101757,10,7.70194e-05,-3.20096,0.339681,0.173692,4.26246,0.122338,
2,1,0,1,0,22636.3,0.124149,0.123813,0.635523,12,0.010371,10,7.86863e-05,-3.19687,0.404408,0.145892,3.61667,0.123813,
2,1,0,1,0,22636.6,0.125647,0.125315,0.639955,12,0.0105678,10,8.01962e-05,-3.19385,0.484833,0.121691,3.03665,0.125315,
2,1,0,0,0,22636.9,0.127146,0.126793,0.641836,12,0.010766,10,8.13804e-05,-3.19258,0.531007,0.11111,2.79338,0.126793,
2,1,0,0,0,22637.2,0.128644,0.128343,0.649564,12,0.0109653,10,8.33673e-05,-3.18738,0.528126,0.111716,2.82811,0.128343,
2,1,0,1,0,22637.5,0.130143,0.129815,0.65344,12,0.0111662,10,8.48262e-05,-3.18479,1.20176,0.0490947,1.24749,0.129815,
2,1,0,1,0,22637.8,0.131641,0.13134,0.654925,12,0.0113679,10,8.60178e-05,-3.18381,-2.03394,-0.0290077,-0.737226,0.13134,
2,1,0,1,0,22638.1,0.133138,0.132807,0.652656,12,0.0115694,10,8.66775e-05,-3.18532,-0.974101,-0.0605687,-1.54042,0.132807,
2,1,0,1,0,22638.4,0.134637,0.1343,0.64885,12,0.0117699,10,8.71404e-05,-3.18786,-0.408012,-0.144604,-3.65637,0.1343,
2,1,0,1,0,22638.7,0.136135,0.135755,0.643401,12,0.0119692,10,8.73447e-05,-3.19152,-0.261801,-0.225362,-5.62888,0.135755,
2,1,0,1,0,22639,0.137633,0.137355,0.634039,12,0.0121663,10,8.70883e-05,-3.19788,-0.174159,-0.33877,-8.31058,0.137355,
2,1,0,1,0,22639.3,0.139132,0.138846,0.622397,12,0.0123597,10,8.64171e-05,-3.20593,-0.136349,-0.432713,-10.4145,0.138846,
2,1,0,1,0,22639.6,0.140629,0.140336,0.602516,12,0.0125481,10,8.45549e-05,-3.22003,-0.1141,-0.517091,-12.0816,0.140336,
2,1,0,1,0,22639.9,0.142127,0.141822,0.583504,12,0.0127312,10,8.27536e-05,-3.23396,-0.103157,-0.571943,-12.9596,0.141822,
2,1,0,0,0,22640.2,0.143626,0.1433,0.561792,12,0.0129083,10,8.0505e-05,-3.25042,-0.0885818,-0.666051,-14.5523,0.1433,
2,1,0,0,0,22640.5,0.145124,0.144836,0.537542,12,0.0130786,10,7.78553e-05,-3.26959,-0.0754191,-0.782295,-16.4541,0.144836,
2,1,0,1,0,22640.8,0.146623,0.146352,0.512771,12,0.0132413,10,7.50448e-05,-3.29008,-0.0735966,-0.801668,-16.0723,0.146352,
2,1,0,1,0,22641.1,0.14812,0.147791,0.490306,12,0.0133969,10,7.2463e-05,-3.30953,-0.074805,-0.788718,-15.0691,0.147791,
2,1,0,1,0,22641.4,0.149618,0.14935,0.466693,12,0.0135455,10,6.97004e-05,-3.33097,-0.0737144,-0.800386,-14.5989,0.14935,
2,1,0,1,0,22641.7,0.151117,0.15077,0.445787,12,0.0136875,10,6.72112e-05,-3.35087,-0.0757105,-0.779284,-13.5667,0.15077,
2,1,0,1,0,22642,0.152615,0.152293,0.424642,12,0.0138232,10,6.46698e-05,-3.37198,-0.0844515,-0.698626,-11.6506,0.152293,
2,1,0,1,0,22642.3,0.154114,0.153783,0.409971,12,0.0139536,10,6.30465e-05,-3.38725,-0.0892732,-0.660893,-10.5919,0.153783,
2,1,0,1,0,22642.6,0.155612,0.155304,0.395543,12,0.0140796,10,6.14295e-05,-3.40281,-0.099347,-0.593878,-9.18152,0.155304,
2,1,0,1,0,22642.9,0.157109,0.156765,0.383009,12,0.0142016,10,6.00424e-05,-3.41679,-0.103323,-0.571026,-8.53917,0.156765,
2,1,0,0,0,22643.2,0.158608,0.158308,0.371738,12,0.0143201,10,5.88492e-05,-3.42976,-0.121387,-0.48605,-7.08313,0.158308,
2,1,0,0,0,22643.5,0.160106,0.159793,0.36194,12,0.0144352,10,5.78354e-05,-3.44136,-0.143671,-0.410662,-5.84061,0.159793,
2,1,0,1,0,22643.8,0.161605,0.16129,0.354475,12,0.014548,10,5.71732e-05,-3.45041,-0.173268,-0.340513,-4.72808,0.16129,
2,1,0,1,0,22644.1,0.163102,0.162798,0.348227,12,0.0146585,10,5.66908e-05,-3.45814,-0.195262,-0.302158,-4.10648,0.162798,
2,1,0,1,0,22644.4,0.1646,0.164275,0.342773,12,0.0147671,10,5.6309e-05,-3.46499,-0.210165,-0.280732,-3.7517,0.164275,
2,1,0,1,0,22644.7,0.166099,0.165741,0.337772,12,0.0148738,10,5.59825e-05,-3.47138,-0.247263,-0.238612,-3.14555,0.1657407,
2,1,0,1,0,22645,0.167597,0.167269,0.332726,12,0.0149792,10,5.56547e-05,-3.47791,-0.347682,-0.169695,-2.19931,0.167269,
2,1,0,1,0,22645.3,0.169095,0.168825,0.328542,12,0.0150835,10,5.54662e-05,-3.48341,-0.334326,-0.176474,-2.27201,0.168825,
2,1,0,1,0,22645.6,0.170594,0.170302,0.324543,12,0.0151865,10,5.52702e-05,-3.48873,-0.348412,-0.16934,-2.15142,0.170302,
2,1,0,1,0,22645.9,0.172091,0.171773,0.319667,12,0.0152883,10,5.49101e-05,-3.4953,-0.394414,-0.149589,-1.87991,0.171773,
2,1,0,1,0,22646.2,0.173589,0.173282,0.318369,12,0.0153893,10,5.51676e-05,-3.49707,-0.444366,-0.132773,-1.65098,0.173282,
2,1,0,0,0,22646.5,0.175088,0.174799,0.315941,12,0.0154895,10,5.5226e-05,-3.50039,-0.413928,-0.142537,-1.75252,0.1747987,
2,1,0,0,0,22646.8,0.176586,0.176272,0.313893,12,0.015589,10,5.53304e-05,-3.50322,-0.348895,-0.169105,-2.06524,0.176272,
2,1,0,1,0,22647.1,0.178085,0.177806,0.310022,12,0.0156877,10,5.51239e-05,-3.50861,-0.500911,-0.117785,-1.4312,0.1778063,
2,1,0,1,0,22647.4,0.179582,0.179289,0.309423,12,0.0157855,10,5.54761e-05,-3.50945,-0.529306,-0.111467,-1.34635,0.179289,
2,1,0,1,0,22647.7,0.18108,0.180765,0.308106,12,0.0158831,10,5.56949e-05,-3.5113,-0.666485,-0.0885241,-1.06413,0.180765,
2,1,0,1,0,22648,0.182579,0.182281,0.305857,12,0.0159802,10,5.57519e-05,-3.51448,-0.394134,-0.149695,-1.78639,0.182281,
2,1,0,1,0,22648.3,0.184077,0.183772,0.304469,12,0.0160768,10,5.59528e-05,-3.51646,-0.673482,-0.0876044,-1.04478,0.183772,
2,1,0,1,0,22648.6,0.185576,0.185267,0.303248,12,0.0161727,10,5.61819e-05,-3.5182,-0.852049,-0.0692449,-0.818755,0.185267,
2,1,0,1,0,22648.9,0.187074,0.186746,0.301989,12,0.0162683,10,5.63953e-05,-3.52001,-0.932818,-0.0632492,-0.744617,0.186746,
2,1,0,1,0,22649.2,0.188571,0.188282,0.301043,12,0.0163635,10,5.66811e-05,-3.52137,-0.683833,-0.0862784,-1.01168,0.188282,
2,1,0,0,0,22649.5,0.19007,0.189777,0.299831,12,0.0164585,10,5.6901e-05,-3.52312,-1.02144,-0.0577617,-0.676323,0.189777,
2,1,0,0,0,22649.8,0.191568,0.191222,0.298353,12,0.0165527,10,5.70517e-05,-3.52527,-1.01823,-0.0579439,-0.674672,0.191222,
2,1,0,1,0,22650.1,0.193067,0.192729,0.295514,12,0.0166469,10,5.69541e-05,-3.52942,-2.45319,-0.0240504,-0.278477,0.192729,
2,1,0,1,0,22650.4,0.194564,0.194231,0.296847,12,0.016741,10,5.76569e-05,-3.52747,-0.990427,-0.0595702,-0.689287,0.194231,
2,1,0,1,0,22650.7,0.196062,0.195766,0.295354,12,0.0168347,10,5.78203e-05,-3.52966,-0.679732,-0.0867989,-1.00407,0.195766,
2,1,0,1,0,22651,0.197561,0.197224,0.292781,12,0.016928,10,5.77436e-05,-3.53346,-1.45461,-0.0405606,-0.465957,0.197224,
2,1,0,1,0,22651.3,0.199059,0.198763,0.292795,12,0.017021,10,5.81967e-05,-3.53344,-1.54978,-0.0380699,-0.435882,0.198763,
2,1,0,1,0,22651.6,0.200557,0.20026,0.292958,12,0.0171139,10,5.86678e-05,-3.53319,-1.17355,-0.0502749,-0.573516,0.20026,
2,1,0,1,0,22651.9,0.202056,0.201781,0.292113,12,0.0172066,10,5.89429e-05,-3.53445,-0.666451,-0.0885287,-1.00426,0.201781,
2,1,0,1,0,22652.2,0.203553,0.203203,0.290965,12,0.017299,10,5.91249e-05,-3.53616,-1.07321,-0.0549752,-0.624068,0.203203,
2,1,0,1,0,22652.5,0.205051,0.204754,0.289408,12,0.0173909,10,5.92574e-05,-3.53849,1.4173,0.0416284,0.475452,0.204754,
2,1,0,0,0,22652.8,0.20655,0.206245,0.288357,12,0.0174828,10,5.94722e-05,-3.54007,-1.27634,-0.0462261,-0.523421,0.206245,
2,1,0,0,0,22653.1,0.208048,0.207742,0.288749,12,0.0175748,10,5.99854e-05,-3.53948,-0.88106,-0.0669648,-0.754069,0.207742,
2,1,0,1,0,22653.4,0.209547,0.209269,0.287076,12,0.0176664,10,6.00761e-05,-3.542,-1.50096,-0.0393081,-0.441855,0.209269,
2,1,0,1,0,22653.7,0.211044,0.210724,0.288745,12,0.0177574,10,6.08456e-05,-3.53949,-1.31063,-0.0450167,-0.504039,0.210724,
2,1,0,1,0,22654,0.212542,0.212251,0.287253,12,0.0178484,10,6.09698e-05,-3.54173,-2.89241,-0.0203982,-0.227445,0.212251,
2,1,0,1,0,22654.3,0.214041,0.213688,0.286518,12,0.0179394,10,6.12255e-05,-3.54285,-1.81801,-0.0324531,-0.361609,0.213688,
2,1,0,1,0,22654.6,0.215539,0.215243,0.286006,12,0.0180301,10,6.15607e-05,-3.54362,-1.39055,-0.0424293,-0.472962,0.215243,
2,1,0,1,0,22654.9,0.217038,0.21675,0.284161,12,0.0181204,10,6.15917e-05,-3.54644,-3.01718,-0.0195547,-0.217805,0.21675,
2,1,0,1,0,22655.2,0.218535,0.218242,0.284327,12,0.0182107,10,6.20521e-05,-3.54618,-4.34008,-0.0135942,-0.150395,0.218242,
2,1,0,1,0,22655.5,0.220033,0.219788,0.284118,12,0.018301,10,6.24457e-05,-3.5465,-2.21083,-0.0266868,-0.295697,0.219788,
2,1,0,0,0,22655.8,0.221532,0.221245,0.283014,12,0.018391,10,6.26153e-05,-3.54819,-1.05872,-0.0557277,-0.615239,0.2212445,
2,1,0,0,0,22656.1,0.22303,0.222745,0.280675,12,0.0184807,10,6.25189e-05,-3.5518,-2.01541,-0.0292744,-0.322159,0.222745,
2,1,0,1,0,22656.4,0.224529,0.22424,0.282293,12,0.0185702,10,6.33016e-05,-3.5493,-1.15321,-0.0511615,-0.561927,0.22424,
2,1,0,1,0,22656.6,0.226026,0.22573,0.280494,12,0.0186596,10,6.3316e-05,-3.55208,-2.43864,-0.0241938,-0.265572,0.22573,
2,1,0,1,0,22656.9,0.227524,0.227163,0.280563,12,0.018749,10,6.37337e-05,-3.55197,-3.42748,-0.0172138,-0.188498,0.227163,
2,1,0,1,0,22657.2,0.229023,0.228717,0.280214,12,0.0188382,10,6.40897e-05,-3.55251,-0.921213,-0.064046,-0.700146,0.228717,
2,1,0,1,0,22657.5,0.230521,0.230262,0.279363,12,0.0189271,10,6.43267e-05,-3.55383,-22.9849,-0.0025669,-0.028122,0.230262,
2,1,0,1,0,22657.8,0.232019,0.231701,0.279866,12,0.019016,10,6.48454e-05,-3.55305,2.37534,0.0248385,0.271713,0.231701,
2,1,0,1,0,22658.1,0.233518,0.233217,0.279276,12,0.0191049,10,6.51318e-05,-3.55397,-1.12129,-0.0526177,-0.571244,0.233217,
2,1,0,1,0,22658.4,0.235015,0.234691,0.279029,12,0.0191936,10,6.54856e-05,-3.55435,-1.02616,-0.0574961,-0.623385,0.234691,
2,1,0,1,0,22658.7,0.236513,0.236222,0.278395,12,0.0192819,10,6.5763e-05,-3.55534,119.332,0.000494417,0.00537182,0.236222,
2,1,0,0,0,22659,0.238012,0.237713,0.278528,12,0.0193703,10,6.62096e-05,-3.55513,-1.82162,-0.0323887,-0.350541,0.237713,
2,1,0,0,0,22659.3,0.23951,0.239217,0.278175,12,0.0194585,10,6.65442e-05,-3.55568,-1.6115,-0.0366117,-0.396944,0.239217,
2,1,0,1,0,22659.6,0.241009,0.240714,0.276655,12,0.0195466,10,6.65947e-05,-3.55806,-2.0143,-0.0292905,-0.317647,0.240714,
2,1,0,1,0,22659.9,0.242506,0.242166,0.276085,12,0.0196343,10,6.68585e-05,-3.55896,8.15319,0.00723643,0.0782774,0.242166,
2,1,0,1,0,22660.2,0.244004,0.24369,0.276011,12,0.0197222,10,6.72611e-05,-3.55907,-16.7078,-0.00353129,-0.0380789,0.24369,
2,1,0,1,0,22660.5,0.245503,0.245227,0.277168,12,0.0198101,10,6.79689e-05,-3.55726,-2.81381,-0.020968,-0.226204,0.245227,
2,1,0,1,0,22660.8,0.247001,0.2467,0.276296,12,0.0198978,10,6.81621e-05,-3.55863,-1.87067,-0.0315396,-0.339286,0.2467,
2,1,0,1,0,22661.1,0.2485,0.24819,0.274096,12,0.0199853,10,6.80278e-05,-3.5621,-2.54917,-0.0231448,-0.248163,0.24819,
2,1,0,1,0,22661.4,0.249997,0.249724,0.275366,12,0.0200725,10,6.87654e-05,-3.56009,7.43014,0.00794064,0.0853241,0.2497239,
2,1,0,1,0,22661.7,0.251495,0.251204,0.274375,12,0.0201598,10,6.89239e-05,-3.56166,-3.8271,-0.0154164,-0.165192,0.251204,
2,1,0,0,0,22662,0.252994,0.252679,0.273753,12,0.020247,10,6.91718e-05,-3.56264,-1.03428,-0.0570447,-0.609322,0.2526792,
2,1,0,0,0,22662.3,0.254492,0.254186,0.272698,12,0.0203341,10,6.9316e-05,-3.56432,-1.94174,-0.0303852,-0.32545,0.254186,
2,1,0,1,0,22662.6,0.255991,0.255679,0.273709,12,0.0204208,10,6.99816e-05,-3.56271,-8.67808,-0.00679874,-0.0725011,0.255679,
2,1,0,1,0,22662.9,0.257488,0.257186,0.272986,12,0.0205076,10,7.02083e-05,-3.56386,-4.6274,-0.0127502,-0.135705,0.257186,
2,1,0,1,0,22663.2,0.258986,0.258716,0.272504,12,0.0205943,10,7.05011e-05,-3.56463,-1.26082,-0.0467949,-0.497326,0.258716,
2,1,0,1,0,22663.5,0.260485,0.260182,0.271994,12,0.0206808,10,7.07678e-05,-3.56544,-1.92393,-0.0306665,-0.326251,0.260182,
2,1,0,1,0,22663.8,0.261983,0.26167,0.271432,12,0.020767,10,7.10256e-05,-3.56634,-2.87763,-0.020503,-0.216945,0.26167,
2,1,0,1,0,22664.1,0.263481,0.263178,0.271844,12,0.0208533,10,7.15434e-05,-3.56568,-21.8529,-0.00269987,-0.0285159,0.263178,
2,1,0,1,0,22664.4,0.26498,0.264701,0.271729,12,0.0209395,10,7.19271e-05,-3.56586,-3.27383,-0.0180217,-0.190624,0.264701,
2,1,0,1,0,22664.7,0.266477,0.266203,0.270155,12,0.0210255,10,7.19162e-05,-3.56839,-11.461,-0.0051479,-0.0542294,0.266203,
2,1,0,0,0,22665,0.267976,0.267648,0.269291,12,0.0211114,10,7.20751e-05,-3.56978,-2.65399,-0.0222307,-0.23453,0.267648,
2,1,0,0,0,22665.3,0.269474,0.269194,0.269774,12,0.0211972,10,7.26215e-05,-3.569,-28.3443,-0.00208154,-0.0218666,0.269194,
2,1,0,0,0,22665.6,0.270972,0.270614,0.27075,12,0.021283,10,7.32687e-05,-3.56743,-2.67637,-0.0220448,-0.231264,0.270614,
2,1,0,1,0,22665.9,0.27247,0.272177,0.269475,12,0.0213687,10,7.33448e-05,-3.56948,-0.908929,-0.0649116,-0.681404,0.272177,
2,1,0,1,0,22666.2,0.273968,0.273683,0.268044,12,0.0214542,10,7.33591e-05,-3.57179,9.7097,0.0060764,0.063842,0.273683,
2,1,0,1,0,22666.5,0.275466,0.275134,0.267888,12,0.0215395,10,7.37051e-05,-3.57205,-2.50681,-0.0235359,-0.246623,0.275134,
2,1,0,1,0,22666.8,0.276965,0.276653,0.268176,12,0.0216249,10,7.41918e-05,-3.57158,-1.59962,-0.0368837,-0.386507,0.276653,
2,1,0,1,0,22667.1,0.278463,0.278186,0.268309,12,0.0217101,10,7.46398e-05,-3.57136,-1.15578,-0.0510477,-0.532555,0.2781862,
2,1,0,1,0,22667.4,0.279962,0.279663,0.26719,12,0.0217952,10,7.47229e-05,-3.57318,-1.26837,-0.0465163,-0.4851,0.279663,
2,1,0,1,0,22667.7,0.281459,0.281131,0.266477,12,0.02188,10,7.4915e-05,-3.57434,-2.42017,-0.0243785,-0.254329,0.281131,
2,1,0,1,0,22668,0.282957,0.282654,0.266335,12,0.0219648,10,7.52808e-05,-3.57457,-2.28826,-0.0257837,-0.26763,0.282654,
2,1,0,0,0,22668.3,0.284456,0.284161,0.26578,12,0.0220497,10,7.55241e-05,-3.57548,-1.19242,-0.049479,-0.513525,0.284161,
2,1,0,0,0,22668.6,0.285954,0.285646,0.265169,12,0.0221342,10,7.57444e-05,-3.57648,-2.30386,-0.0256092,-0.265876,0.285646,
2,1,0,0,0,22668.9,0.287452,0.28713,0.265712,12,0.0222186,10,7.62937e-05,-3.57559,-2.28369,-0.0258353,-0.266769,0.28713,
2,1,0,1,0,22669.2,0.28895,0.288643,0.264766,12,0.022303,10,7.64229e-05,-3.57714,1.20965,0.0487744,0.504009,0.288643,
2,1,0,1,0,22669.5,0.290448,0.290144,0.26433,12,0.0223873,10,7.66939e-05,-3.57785,-4.74546,-0.0124329,-0.128384,0.290144,
2,1,0,1,0,22669.8,0.291947,0.291639,0.26425,12,0.0224716,10,7.70654e-05,-3.57799,-2.31881,-0.0254441,-0.263107,0.291639,
2,1,0,1,0,22670.1,0.293445,0.293169,0.262164,12,0.0225555,10,7.68581e-05,-3.58143,-1.87304,-0.0314996,-0.32314,0.293169,
2,1,0,1,0,22670.4,0.294943,0.294623,0.26331,12,0.0226393,10,7.7577e-05,-3.57953,-1.69139,-0.0348825,-0.357901,0.294623,
2,1,0,1,0,22670.7,0.296442,0.296141,0.264495,12,0.0227231,10,7.83279e-05,-3.57758,-12.1731,-0.00484674,-0.0496263,0.2961413,
2,1,0,1,0,22671,0.297939,0.297643,0.262452,12,0.0228069,10,7.81172e-05,-3.58095,-1.48793,-0.0396525,-0.405193,0.297643,
2,1,0,1,0,22671.3,0.299437,0.299129,0.260353,12,0.0228904,10,7.78791e-05,-3.58444,-0.00228917,-25.7735,-123.453,0.299129,
2,1,0,1,0,22671.5,0.299737,0.299424,0.100066,12,0.022928,10,2.99622e-05,-3.99971,0.000826762,71.3628,219.684,0.299424,
2,1,0,1,0,22671.8,0.29824,0.297958,0.0185716,12,0.022936,10,5.53356e-06,-4.73115,0.00236622,24.9343,68.6493,0.297958,
2,1,0,0,0,22672.1,0.296741,0.296416,0.000962077,12,0.0229339,10,2.85175e-07,-6.01679,0.0131592,4.48356,10.4947,0.296416,
2,1,0,0,0,22672.4,0.295243,0.294948,-0.0104055,12,0.0229274,10,-3.06909e-06,-4.98274,-0.00721831,-8.17366,6.46859,0.294948,
2,0,0,1,0,22672.7,0.293744,0.293418,-0.0194279,12,0.0229182,10,-5.70048e-06,-4.71157,-0.00685083,-8.61209,5.3705,0.293418,
2,0,0,1,0,22673,0.292246,0.291893,-0.0282271,12,0.0229065,10,-8.23929e-06,-4.54933,-0.0120138,-4.91101,4.57197,0.291893,
2,0,0,1,0,22673.3,0.290749,0.29044,-0.0331074,12,0.0228927,10,-9.61572e-06,-4.48008,-0.0163816,-3.6016,4.45728,0.29044,
2,0,0,1,0,22673.6,0.28925,0.288924,-0.0386206,12,0.022877,10,-1.11584e-05,-4.41318,-0.024564,-2.40189,3.57596,0.288924,
2,0,0,1,0,22673.9,0.287752,0.287461,-0.044049,12,0.0228596,10,-1.26623e-05,-4.35606,-0.0310248,-1.90171,3.27965,0.287461,
2,0,0,1,0,22674.2,0.286253,0.285951,-0.0479297,12,0.0228409,10,-1.37055e-05,-4.3194,-0.034161,-1.72712,3.25444,0.285951,
2,0,0,1,0,22674.5,0.284755,0.284483,-0.0529367,12,0.0228207,10,-1.50596e-05,-4.27624,-0.0399603,-1.47647,3.03723,0.284483,
2,0,0,1,0,22674.8,0.283257,0.282957,-0.0583555,12,0.0227991,10,-1.65121e-05,-4.23392,-0.0489273,-1.20587,2.70094,0.282957,
2,0,0,0,0,22675.1,0.281759,0.281464,-0.0607581,12,0.0227764,10,-1.71012e-05,-4.2164,-0.0513868,-1.14815,2.71842,0.281464,
2,0,0,0,0,22675.4,0.280261,0.279949,-0.063286,12,0.0227526,10,-1.77168e-05,-4.19869,-0.0594096,-0.993105,2.46871,0.279949,
2,0,0,0,0,22675.7,0.278763,0.278463,-0.0693198,12,0.0227276,10,-1.9303e-05,-4.15914,-0.0715472,-0.824631,2.20674,0.278463,
2,0,0,1,0,22676,0.277264,0.276972,-0.0727838,12,0.0227016,10,-2.01591e-05,-4.13797,-0.0656555,-0.89863,2.51173,0.276972,
2,0,0,1,0,22676.3,0.275766,0.275435,-0.0741957,12,0.0226746,10,-2.04361e-05,-4.12962,-0.113329,-0.520609,1.49633,0.275435,
2,0,0,1,0,22676.6,0.274269,0.273982,-0.0769077,12,0.0226465,10,-2.10713e-05,-4.11403,-0.0908955,-0.649097,1.98899,0.2739819,
2,0,0,1,0,22676.9,0.27277,0.272426,-0.0803219,12,0.0226178,10,-2.18818e-05,-4.09517,-0.0945134,-0.62425,1.99356,0.272426,
2,0,0,1,0,22677.2,0.271272,0.271,-0.0831973,12,0.022588,10,-2.25465e-05,-4.07989,-0.0995276,-0.592801,1.9394,0.271,
2,0,0,1,0,22677.5,0.269773,0.269491,-0.0879687,12,0.0225571,10,-2.37067e-05,-4.05567,-0.103106,-0.572229,1.93902,0.269491,
2,0,0,1,0,22677.8,0.268275,0.267944,-0.0901964,12,0.0225255,10,-2.41675e-05,-4.04481,-0.122444,-0.481852,1.6837,0.267944,
2,0,0,1,0,22678.1,0.266778,0.266458,-0.0920653,12,0.0224933,10,-2.45315e-05,-4.0359,-0.138054,-0.427369,1.53361,0.266458,
2,0,0,0,0,22678.4,0.265279,0.264989,-0.0939259,12,0.0224603,10,-2.48894e-05,-4.02721,-0.103904,-0.56783,2.09419,0.264989,
2,0,0,0,0,22678.7,0.263781,0.263463,-0.0976302,12,0.0224264,10,-2.5722e-05,-4.01042,-0.128121,-0.460503,1.75162,0.263463,
2,0,0,1,0,22679,0.262282,0.26199,-0.100059,12,0.0223919,10,-2.62146e-05,-3.99974,-0.13807,-0.427318,1.67064,0.26199,
2,0,0,1,0,22679.3,0.260784,0.260505,-0.101802,12,0.0223566,10,-2.65198e-05,-3.99225,-0.13383,-0.440857,1.76462,0.260505,
2,0,0,1,0,22679.6,0.259286,0.25901,-0.104544,12,0.0223207,10,-2.70779e-05,-3.9807,-0.123405,-0.4781,1.95451,0.2590102,
2,0,0,1,0,22679.9,0.257788,0.257485,-0.108272,12,0.0222839,10,-2.78784e-05,-3.96548,-0.128226,-0.460125,1.9151,0.257485,
2,0,0,1,0,22680.2,0.25629,0.255961,-0.10873,12,0.0222464,10,-2.78306e-05,-3.96365,-0.140512,-0.419893,1.76673,0.255961,
2,0,0,1,0,22680.5,0.254791,0.254516,-0.11119,12,0.0222084,10,-2.82997e-05,-3.95393,-0.169603,-0.347871,1.50481,0.254516,
2,0,0,1,0,22680.8,0.253293,0.253037,-0.11273,12,0.0221698,10,-2.85248e-05,-3.94796,-0.16095,-0.366574,1.62578,0.253037,
2,0,0,1,0,22681.1,0.251795,0.251512,-0.115493,12,0.0221304,10,-2.90478e-05,-3.93745,-0.18028,-0.327268,1.48275,0.251512,
2,0,0,0,0,22681.4,0.250297,0.249989,-0.117253,12,0.0220903,10,-2.9312e-05,-3.93088,-0.235939,-0.250064,1.14481,0.249989,
2,0,0,0,0,22681.7,0.248799,0.248484,-0.119635,12,0.0220497,10,-2.97275e-05,-3.92214,-0.204077,-0.289106,1.35588,0.248484,
2,0,0,0,0,22682,0.247301,0.246974,-0.12208,12,0.0220087,10,-3.01507e-05,-3.91335,-0.221534,-0.266325,1.27501,0.246974,
2,0,0,1,0,22682.3,0.245802,0.24551,-0.124587,12,0.0219669,10,-3.05873e-05,-3.90453,-0.220195,-0.267944,1.29744,0.24551,
2,0,0,1,0,22682.6,0.244304,0.243988,-0.126574,12,0.0219243,10,-3.08825e-05,-3.89766,-0.208398,-0.283112,1.38759,0.243988,
2,0,0,1,0,22682.9,0.242806,0.242523,-0.128506,12,0.0218813,10,-3.11656e-05,-3.89108,-0.242702,-0.243096,1.21623,0.242523,
2,0,0,1,0,22683.2,0.241308,0.241012,-0.130651,12,0.0218379,10,-3.14884e-05,-3.88389,-0.23069,-0.255755,1.29546,0.241012,
2,0,0,1,0,22683.5,0.23981,0.239469,-0.13168,12,0.0217937,10,-3.15332e-05,-3.88048,-0.173231,-0.340586,1.74106,0.239469,
2,0,0,1,0,22683.8,0.238311,0.237978,-0.133265,12,0.021749,10,-3.17141e-05,-3.87529,-0.285398,-0.206729,1.08279,0.237978,
2,0,0,1,0,22684.1,0.236813,0.236516,-0.134121,12,0.0217038,10,-3.17218e-05,-3.8725,-0.274615,-0.214846,1.13681,0.236516,
2,0,0,1,0,22684.4,0.235316,0.235014,-0.135785,12,0.0216583,10,-3.19114e-05,-3.86715,-0.293601,-0.200953,1.0741,0.235014,
2,0,0,0,0,22684.7,0.233817,0.233494,-0.138055,12,0.021612,10,-3.22351e-05,-3.85995,-0.233884,-0.252261,1.35981,0.233494,
2,0,0,0,0,22685,0.232319,0.232024,-0.142021,12,0.0215652,10,-3.29523e-05,-3.84765,-0.214855,-0.274603,1.50293,0.232024,
2,0,0,1,0,22685.3,0.23082,0.230511,-0.14327,12,0.0215178,10,-3.30252e-05,-3.84385,-0.276033,-0.213743,1.18154,0.230511,
2,0,0,1,0,22685.6,0.229322,0.229024,-0.143144,12,0.0214699,10,-3.27833e-05,-3.84423,-0.27485,-0.214662,1.20281,0.229024,
2,0,0,1,0,22685.9,0.227825,0.227534,-0.145293,12,0.0214216,10,-3.30591e-05,-3.83776,-0.3162,-0.186591,1.06555,0.227534,
2,0,0,1,0,22686.2,0.226326,0.226033,-0.147806,12,0.0213725,10,-3.34091e-05,-3.83031,-0.300842,-0.196116,1.13075,0.2260333,
2,0,0,1,0,22686.5,0.224828,0.224578,-0.1489,12,0.021323,10,-3.34397e-05,-3.82711,-0.611005,-0.0965623,0.560457,0.224578,
2,0,0,1,0,22686.8,0.223329,0.223002,-0.150276,12,0.021273,10,-3.35119e-05,-3.82311,-0.276415,-0.213447,1.25925,0.223002,
2,0,0,1,0,22687.1,0.221831,0.221528,-0.152697,12,0.0212226,10,-3.38265e-05,-3.81617,-0.26426,-0.223265,1.31938,0.221528,
2,0,0,1,0,22687.4,0.220333,0.220016,-0.153993,12,0.0211715,10,-3.38809e-05,-3.8125,-0.277388,-0.212698,1.27536,0.220016,
2,0,0,0,0,22687.7,0.218835,0.218535,-0.155087,12,0.0211198,10,-3.38919e-05,-3.80943,-0.253711,-0.232548,1.41449,0.218535,
2,0,0,0,0,22688,0.217337,0.217016,-0.157401,12,0.0210677,10,-3.41585e-05,-3.80299,-0.401529,-0.146938,0.907822,0.217016,
2,0,0,0,0,22688.3,0.215839,0.215524,-0.159415,12,0.0210152,10,-3.43577e-05,-3.79747,-0.259706,-0.22718,1.41669,0.215524,
2,0,0,1,0,22688.6,0.21434,0.214027,-0.160787,12,0.020962,10,-3.44128e-05,-3.79375,-0.211875,-0.278465,1.74293,0.214027,
2,0,0,1,0,22688.9,0.212842,0.21255,-0.163259,12,0.0209081,10,-3.47007e-05,-3.78712,-0.310772,-0.18985,1.20878,0.2125503,
2,0,0,1,0,22689.2,0.211344,0.211048,-0.165178,12,0.0208537,10,-3.48604e-05,-3.78205,-0.30056,-0.1963,1.26609,0.211048,
2,0,0,1,0,22689.5,0.209846,0.20951,-0.165675,12,0.0207989,10,-3.47106e-05,-3.78074,-0.402402,-0.14662,0.95375,0.20951,
2,0,0,1,0,22689.8,0.208348,0.208025,-0.169119,12,0.0207435,10,-3.51811e-05,-3.77181,-0.253535,-0.23271,1.53506,0.208025,
2,0,0,1,0,22690.1,0.206849,0.206551,-0.174105,12,0.0206873,10,-3.59615e-05,-3.75919,-0.380312,-0.155136,1.02995,0.206551,
2,0,0,1,0,22690.4,0.205351,0.205014,-0.172404,12,0.0206304,10,-3.53453e-05,-3.76345,-0.387261,-0.152352,1.02589,0.205014,
2,0,0,1,0,22690.7,0.203854,0.203534,-0.173199,12,0.0205733,10,-3.52519e-05,-3.76145,-0.619049,-0.0953074,0.651107,0.203534,
2,0,0,0,0,22691,0.202355,0.202065,-0.175335,12,0.0205156,10,-3.54291e-05,-3.75613,-0.37505,-0.157312,1.0858,0.202065,
2,0,0,0,0,22691.3,0.200857,0.200536,-0.178546,12,0.0204573,10,-3.58049e-05,-3.74825,-0.357004,-0.165264,1.15127,0.200536,
2,0,0,1,0,22691.6,0.199358,0.199036,-0.180659,12,0.0203983,10,-3.59576e-05,-3.74314,-0.481017,-0.122657,0.858492,0.199036,
2,0,0,1,0,22691.9,0.19786,0.197534,-0.182518,12,0.0203389,10,-3.60535e-05,-3.73869,-0.305803,-0.192935,1.37267,0.197534,
2,0,0,1,0,22692.2,0.196363,0.196055,-0.184798,12,0.020279,10,-3.62305e-05,-3.7333,-0.300838,-0.196119,1.40622,0.196055,
2,0,0,1,0,22692.5,0.194864,0.194548,-0.185001,12,0.0202182,10,-3.59915e-05,-3.73283,-0.237819,-0.248088,1.79513,0.194548,
2,0,0,1,0,22692.8,0.193366,0.193036,-0.189484,12,0.0201567,10,-3.65771e-05,-3.72243,-0.29655,-0.198955,1.46082,0.193036,
2,0,0,1,0,22693.1,0.191867,0.191544,-0.191043,12,0.0200945,10,-3.65932e-05,-3.71887,-0.456499,-0.129245,0.970955,0.191544,
2,0,0,1,0,22693.4,0.190369,0.190064,-0.191849,12,0.0200321,10,-3.64637e-05,-3.71704,-0.340069,-0.173494,1.30224,0.190064,
2,0,0,1,0,22693.7,0.188871,0.188522,-0.194878,12,0.0199686,10,-3.67387e-05,-3.71024,-0.224682,-0.262594,1.99242,0.188522,
2,0,0,0,0,22694,0.187373,0.187053,-0.196916,12,0.0199045,10,-3.68337e-05,-3.70572,-0.272783,-0.216289,1.66759,0.187053,
2,0,0,0,0,22694.3,0.185875,0.185594,-0.199772,12,0.0198397,10,-3.70765e-05,-3.69946,-0.287896,-0.204935,1.59901,0.185594,
2,0,0,0,0,22694.6,0.184377,0.184093,-0.201601,12,0.0197741,10,-3.71134e-05,-3.69551,-0.287145,-0.205471,1.62437,0.184093,
2,0,0,1,0,22694.9,0.182878,0.182589,-0.205825,12,0.0197078,10,-3.75815e-05,-3.6865,-0.232613,-0.253641,2.03698,0.182589,
2,0,0,1,0,22695.2,0.181381,0.181093,-0.209026,12,0.0196405,10,-3.78533e-05,-3.6798,-0.231442,-0.254924,2.06571,0.181093,
2,0,0,1,0,22695.5,0.179882,0.179582,-0.211368,12,0.0195723,10,-3.79579e-05,-3.67496,-0.381147,-0.154796,1.27026,0.179582,
2,0,0,1,0,22695.8,0.178384,0.178101,-0.213731,12,0.0195034,10,-3.80657e-05,-3.67013,-0.301838,-0.195469,1.63515,0.178101,
2,0,0,1,0,22696.1,0.176886,0.176512,-0.216615,12,0.0194338,10,-3.82353e-05,-3.66431,-0.201725,-0.292477,2.49191,0.1765123,
2,0,0,1,0,22696.4,0.175387,0.175068,-0.219979,12,0.0193629,10,-3.85112e-05,-3.65762,-0.252491,-0.233672,2.00826,0.1750676,
2,0,0,1,0,22696.7,0.173889,0.173623,-0.224761,12,0.0192911,10,-3.90237e-05,-3.64828,-0.222718,-0.264909,2.32224,0.173623,
2,0,0,1,0,22697,0.172392,0.172045,-0.227696,12,0.0192181,10,-3.9174e-05,-3.64264,-0.20138,-0.292979,2.59533,0.172045,
2,0,0,0,0,22697.3,0.170893,0.170587,-0.231581,12,0.0191442,10,-3.95047e-05,-3.6353,-0.220533,-0.267533,2.42012,0.170587,
2,0,0,0,0,22697.6,0.169395,0.169062,-0.23635,12,0.019069,10,-3.99578e-05,-3.62644,-0.182374,-0.32351,2.96897,0.1690619,
2,0,0,1,0,22697.9,0.167896,0.167573,-0.240326,12,0.0189924,10,-4.0272e-05,-3.6192,-0.199019,-0.296454,2.77727,0.167573,
2,0,0,1,0,22698.2,0.166398,0.166084,-0.244132,12,0.0189145,10,-4.05465e-05,-3.61237,-0.186739,-0.315948,3.03815,0.166084,
2,0,0,1,0,22698.5,0.164901,0.1646,-0.248968,12,0.0188355,10,-4.09802e-05,-3.60386,-0.15385,-0.38349,3.75323,0.1646,
2,0,0,1,0,22698.8,0.163402,0.163056,-0.25529,12,0.0187547,10,-4.16264e-05,-3.59297,-0.156335,-0.377394,3.74486,0.163056,
2,0,0,1,0,22699.1,0.161904,0.161597,-0.259848,12,0.0186722,10,-4.19905e-05,-3.58528,-0.152128,-0.387831,3.93823,0.161597,
2,0,0,1,0,22699.4,0.160405,0.160084,-0.267648,12,0.018588,10,-4.28462e-05,-3.57244,-0.155483,-0.379463,3.93981,0.160084,
2,0,0,1,0,22699.7,0.158907,0.158616,-0.27203,12,0.0185019,10,-4.31482e-05,-3.56538,-0.137216,-0.429978,4.58891,0.158616,
2,0,0,1,0,22700,0.157409,0.157084,-0.280895,12,0.0184138,10,-4.4124e-05,-3.55146,-0.118533,-0.49775,5.47503,0.157084,
2,0,0,0,0,22700.3,0.155911,0.155576,-0.287243,12,0.0183232,10,-4.4688e-05,-3.54175,-0.126208,-0.467483,5.26854,0.155576,
2,0,0,0,0,22700.6,0.154413,0.154091,-0.297045,12,0.0182298,10,-4.5772e-05,-3.52718,-0.118962,-0.495958,5.74933,0.154091,
2,0,0,0,0,22700.9,0.152915,0.152595,-0.307781,12,0.0181337,10,-4.69658e-05,-3.51176,-0.102879,-0.573491,6.90452,0.152595,
2,0,0,1,0,22701.2,0.151416,0.15104,-0.317451,12,0.0180347,10,-4.79478e-05,-3.49832,-0.0952974,-0.619115,7.7052,0.15104,
2,0,0,1,0,22701.5,0.149919,0.149615,-0.331154,12,0.0179319,10,-4.95457e-05,-3.47997,-0.0877706,-0.672207,8.68506,0.149615,
2,0,0,1,0,22701.8,0.14842,0.148114,-0.34419,12,0.0178252,10,-5.09792e-05,-3.4632,-0.0836727,-0.705128,9.49619,0.148114,
2,0,0,1,0,22702.1,0.146922,0.146595,-0.359303,12,0.017714,10,-5.2672e-05,-3.44454,-0.0792935,-0.744071,10.454,0.146595,
2,0,0,1,0,22702.4,0.145424,0.145125,-0.376211,12,0.0175985,10,-5.45977e-05,-3.42457,-0.0738079,-0.799373,11.7935,0.145125,
2,0,0,1,0,22702.7,0.143925,0.143595,-0.394163,12,0.0174777,10,-5.65997e-05,-3.40432,-0.0680573,-0.866917,13.3195,0.143595,
2,0,0,1,0,22703,0.142427,0.142107,-0.414363,12,0.017351,10,-5.88837e-05,-3.38262,-0.0713,-0.827489,13.3757,0.142107,
2,0,0,1,0,22703.3,0.14093,0.140646,-0.433815,12,0.0172183,10,-6.10142e-05,-3.3627,-0.0717647,-0.822131,13.9811,0.140646,
2,0,0,0,0,22703.6,0.139431,0.139076,-0.452479,12,0.0170795,10,-6.29288e-05,-3.3444,-0.0715864,-0.824178,14.6789,0.139076,
2,0,0,0,0,22703.9,0.137933,0.137638,-0.478474,12,0.016934,10,-6.5856e-05,-3.32014,-0.0733657,-0.804191,14.9678,0.137638,
2,0,0,1,0,22704.2,0.136434,0.136049,-0.502048,12,0.0167815,10,-6.83031e-05,-3.29925,-0.0779955,-0.756454,14.7486,0.136049,
2,0,0,1,0,22704.5,0.134936,0.13458,-0.523643,12,0.0166223,10,-7.04716e-05,-3.28096,-0.087156,-0.676947,13.7459,0.13458,
2,0,0,1,0,22704.8,0.133439,0.133106,-0.542171,12,0.0164566,10,-7.21662e-05,-3.26586,-0.0898615,-0.656566,13.9243,0.133106,
2,0,0,1,0,22705.1,0.13194,0.131655,-0.564011,12,0.016285,10,-7.42549e-05,-3.24871,-0.0983044,-0.600177,13.2124,0.131655,
2,0,0,1,0,22705.4,0.130442,0.130116,-0.583276,12,0.0161072,10,-7.58937e-05,-3.23413,-0.103886,-0.56793,12.9197,0.130116,
2,0,0,1,0,22705.7,0.128943,0.128647,-0.602637,12,0.0159235,10,-7.75277e-05,-3.21994,-0.13481,-0.437654,10.2151,0.128647,
2,0,0,1,0,22706,0.127445,0.127088,-0.617445,12,0.015735,10,-7.84696e-05,-3.2094,-0.166056,-0.355302,8.51779,0.127088,
2,0,0,1,0,22706.3,0.125947,0.12561,-0.628325,12,0.0155432,10,-7.89237e-05,-3.20182,-0.194455,-0.303411,7.42744,0.1256097,
2,0,0,0,0,22706.6,0.124449,0.124121,-0.639256,12,0.0153476,10,-7.93449e-05,-3.19433,-0.229729,-0.256824,6.38192,0.124121,
2,0,0,0,0,22706.9,0.122951,0.122639,-0.646695,12,0.0151492,10,-7.93103e-05,-3.1893,-0.300713,-0.1962,4.93769,0.122639,
2,0,0,0,0,22707.2,0.121453,0.121168,-0.652837,12,0.0149487,10,-7.91027e-05,-3.1852,-0.497691,-0.118547,3.01454,0.121168,
2,0,0,1,0,22707.5,0.119954,0.119628,-0.655856,12,0.0147471,10,-7.84585e-05,-3.18319,-1.02283,-0.0576833,1.47583,0.119628,
2,0,0,1,0,22707.8,0.118456,0.118121,-0.659863,12,0.0145442,10,-7.79438e-05,-3.18055,-0.697203,-0.0846238,2.17249,0.118121,
2,0,0,1,0,22708.1,0.116958,0.116621,-0.660616,12,0.0143407,10,-7.70414e-05,-3.18005,-4.341,-0.0135914,0.349597,0.116621,
2,0,0,1,0,22708.4,0.11546,0.115113,-0.658666,12,0.0141372,10,-7.58208e-05,-3.18133,1.06696,0.0552971,-1.4235,0.115113,
2,0,0,1,0,22708.7,0.113962,0.113621,-0.653862,12,0.0139345,10,-7.42923e-05,-3.18451,1.2417,0.0475154,-1.21827,0.113621,
2,0,0,1,0,22709,0.112463,0.112169,-0.656465,12,0.0137323,10,-7.36348e-05,-3.18279,1.02999,0.0572823,-1.46288,0.112169,
2,0,0,1,0,22709.3,0.110965,0.110632,-0.652436,12,0.0135307,10,-7.218e-05,-3.18546,0.696918,0.0846585,-2.15479,0.110632,
2,0,0,1,0,22709.6,0.109468,0.109135,-0.648275,12,0.01333,10,-7.07492e-05,-3.18824,0.499099,0.118213,-2.98889,0.109135,
2,0,0,0,0,22709.9,0.107969,0.107623,-0.64502,12,0.0131304,10,-6.94189e-05,-3.19043,0.559304,0.105488,-2.66184,0.107623,
2,0,0,0,0,22710.2,0.106471,0.106135,-0.641259,12,0.0129324,10,-6.80602e-05,-3.19297,0.659777,0.0894241,-2.24397,0.106135,
2,0,0,1,0,22710.5,0.104972,0.104651,-0.637982,12,0.0127351,10,-6.67657e-05,-3.19519,0.670197,0.0880338,-2.19122,0.104651,
2,0,0,1,0,22710.8,0.103474,0.103146,-0.634974,12,0.012539,10,-6.5495e-05,-3.19724,0.409592,0.144046,-3.55382,0.103146,
2,0,0,1,0,22711.1,0.101977,0.10166,-0.629352,12,0.0123443,10,-6.39797e-05,-3.20111,0.407264,0.144869,-3.55187,0.10166,
2,0,0,1,0,22711.4,0.100478,0.100129,-0.622479,12,0.0121516,10,-6.23282e-05,-3.20588,0.575482,0.102523,-2.49642,0.100129,
2,0,0,1,0,22711.7,0.0989799,0.0986604,-0.620351,12,0.01196,10,-6.12041e-05,-3.20736,0.519881,0.113487,-2.7348,0.0986604,
2,0,0,1,0,22712,0.0974812,0.097151,-0.613767,12,0.0117695,10,-5.96281e-05,-3.212,0.411319,0.143441,-3.43266,0.097151,
2,0,0,1,0,22712.3,0.0959834,0.0956393,-0.608259,12,0.0115806,10,-5.81735e-05,-3.21591,0.40984,0.143959,-3.42051,0.0956393,
2,0,0,1,0,22712.6,0.0944855,0.0941591,-0.60258,12,0.0113937,10,-5.67384e-05,-3.21998,0.389231,0.151581,-3.57618,0.0941591,
2,0,0,0,0,22712.9,0.0929871,0.0926681,-0.598311,12,0.011208,10,-5.54443e-05,-3.22307,0.500347,0.117918,-2.7537,0.0926681,
2,0,0,0,0,22713.2,0.0914889,0.091157,-0.595456,12,0.0110236,10,-5.428e-05,-3.22515,0.354979,0.166207,-3.848,0.091157,
2,0,0,0,0,22713.5,0.0899907,0.0896947,-0.589961,12,0.0108406,10,-5.29164e-05,-3.22918,0.338987,0.174048,-3.98483,0.0896947,
2,0,0,1,0,22713.8,0.0884923,0.0881356,-0.581545,12,0.0106594,10,-5.12548e-05,-3.23542,0.410114,0.143862,-3.27085,0.0881356,
2,0,0,1,0,22714.1,0.0869946,0.0866578,-0.577564,12,0.0104801,10,-5.00504e-05,-3.2384,0.388148,0.152004,-3.4312,0.0866578,
2,0,0,1,0,22714.4,0.0854962,0.0851678,-0.573731,12,0.0103018,10,-4.88634e-05,-3.24129,0.399562,0.147662,-3.3019,0.0851678,
2,0,0,1,0,22714.7,0.083998,0.0836642,-0.567446,12,0.010125,10,-4.74749e-05,-3.24608,0.349253,0.168932,-3.73734,0.0836642,
2,0,0,1,0,22714.9,0.0824998,0.0821785,-0.563597,12,0.00994966,10,-4.63156e-05,-3.24903,0.387854,0.152119,-3.34929,0.0821785,
2,0,0,1,0,22715.2,0.0810014,0.0806851,-0.558547,12,0.00977608,10,-4.50664e-05,-3.25294,0.521381,0.113161,-2.47673,0.0806851,
2,0,0,1,0,22715.5,0.0795035,0.0791725,-0.555445,12,0.00960354,10,-4.39759e-05,-3.25536,0.532357,0.110828,-2.39928,0.0791725,
2,0,0,1,0,22715.8,0.0780056,0.0776743,-0.552281,12,0.00943204,10,-4.2898e-05,-3.25784,0.469007,0.125798,-2.70033,0.0776743,
2,0,0,0,0,22716.1,0.076507,0.076131,-0.546885,12,0.00926187,10,-4.16349e-05,-3.2621,0.449304,0.131314,-2.79867,0.076131,
2,0,0,0,0,22716.4,0.0750088,0.0747175,-0.542801,12,0.0090934,10,-4.05568e-05,-3.26536,0.511638,0.115316,-2.43969,0.0747175,
2,0,0,1,0,22716.7,0.0735103,0.0731807,-0.539173,12,0.00892582,10,-3.9457e-05,-3.26827,0.686367,0.0859599,-1.80513,0.0731807,
2,0,0,1,0,22717,0.0720124,0.071688,-0.534488,12,0.00875926,10,-3.83164e-05,-3.27206,0.488155,0.120863,-2.52495,0.071688,
2,0,0,1,0,22717.3,0.0705146,0.0702005,-0.531178,12,0.0085938,10,-3.7289e-05,-3.27476,0.52742,0.111865,-2.32389,0.0702005,
2,0,0,1,0,22717.6,0.0690161,0.0686933,-0.527753,12,0.00842959,10,-3.62531e-05,-3.27757,0.640786,0.0920744,-1.89957,0.0686933,
2,0,0,1,0,22717.9,0.0675179,0.0671303,-0.523991,12,0.00826628,10,-3.51757e-05,-3.28068,0.792972,0.0744037,-1.52105,0.0671303,
2,0,0,1,0,22718.2,0.0660192,0.0657312,-0.52471,12,0.00810381,10,-3.44898e-05,-3.28008,0.521608,0.113112,-2.30223,0.0657312,
2,0,0,1,0,22718.5,0.0645214,0.0642065,-0.518691,12,0.0079423,10,-3.33033e-05,-3.28509,0.492041,0.119909,-2.42137,0.0642065,
2,0,0,1,0,22718.8,0.0630235,0.0627341,-0.513271,12,0.00778213,10,-3.21996e-05,-3.28965,0.515817,0.114382,-2.30088,0.0627341,
2,0,0,0,0,22719.1,0.0615251,0.0612048,-0.511585,12,0.00762305,10,-3.13115e-05,-3.29108,0.552287,0.106829,-2.13803,0.0612048,
2,0,0,0,0,22719.4,0.0600269,0.0596958,-0.50824,12,0.00746478,10,-3.03398e-05,-3.29393,0.642433,0.0918384,-1.82551,0.05969581,
2,0,0,0,0,22719.7,0.0585287,0.0581614,-0.505029,12,0.00730745,10,-2.93732e-05,-3.29668,0.47259,0.124844,-2.46174,0.0581614,
2,0,0,1,0,22720,0.0570303,0.0566776,-0.501796,12,0.00715092,10,-2.84406e-05,-3.29947,0.544796,0.108297,-2.12273,0.0566776,
2,0,0,1,0,22720.3,0.0555325,0.0552379,-0.499988,12,0.00699602,10,-2.76183e-05,-3.30104,0.552423,0.106802,-2.08066,0.0552379,
2,0,0,1,0,22720.6,0.0540342,0.0536844,-0.496173,12,0.00684172,10,-2.66368e-05,-3.30437,0.624724,0.0944418,-1.82223,0.0536844,
2,0,0,1,0,22720.9,0.052536,0.0522115,-0.492746,12,0.00668816,10,-2.5727e-05,-3.30738,0.513125,0.114982,-2.20702,0.0522115,
2,0,0,1,0,22721.2,0.0510378,0.0506866,-0.488594,12,0.00653591,10,-2.47652e-05,-3.31105,0.380972,0.154867,-2.95845,0.05068659,
2,0,0,1,0,22721.5,0.0495394,0.0492136,-0.484624,12,0.00638503,10,-2.38501e-05,-3.31459,0.478887,0.123202,-2.33182,0.0492136,
2,0,0,1,0,22721.8,0.0480415,0.0477123,-0.482026,12,0.00623504,10,-2.29986e-05,-3.31693,0.71202,0.0828629,-1.55476,0.0477123,
2,0,0,1,0,22722.1,0.0465436,0.0462078,-0.4774,12,0.00608589,10,-2.20596e-05,-3.32112,0.5285,0.111637,-2.08107,0.0462078,
2,0,0,0,0,22722.4,0.045045,0.044726,-0.47418,12,0.0059378,10,-2.12082e-05,-3.32406,0.440457,0.133952,-2.47986,0.044726,
2,0,0,0,0,22722.7,0.0435468,0.0432553,-0.467567,12,0.00579109,10,-2.02247e-05,-3.33016,0.425979,0.138505,-2.54506,0.0432553,
2,0,0,1,0,22723,0.0420483,0.0417343,-0.466246,12,0.0056454,10,-1.94585e-05,-3.33138,0.478268,0.123362,-2.24888,0.0417343,
2,0,0,1,0,22723.3,0.0405504,0.040232,-0.465699,12,0.00550061,10,-1.8736e-05,-3.33189,0.457093,0.129077,-2.33556,0.040232,
2,0,0,1,0,22723.6,0.0390526,0.038735,-0.459857,12,0.00535666,10,-1.78126e-05,-3.33738,0.36809,0.160287,-2.86975,0.03873504,
2,0,0,1,0,22723.9,0.0375541,0.0371855,-0.454808,12,0.00521398,10,-1.69123e-05,-3.34217,0.424335,0.139041,-2.47917,0.0371855,
2,0,0,1,0,22724.2,0.0360559,0.0357359,-0.453283,12,0.00507269,10,-1.61985e-05,-3.34363,0.43169,0.136672,-2.41835,0.0357359,
2,0,0,1,0,22724.5,0.0345572,0.0342583,-0.449807,12,0.00493198,10,-1.54096e-05,-3.34697,0.48087,0.122694,-2.15198,0.0342583,
2,0,0,1,0,22724.8,0.0330594,0.0327889,-0.445889,12,0.00479242,10,-1.46202e-05,-3.35077,0.404434,0.145883,-2.53789,0.0327889,
2,0,0,1,0,22725.1,0.0315615,0.0311977,-0.443595,12,0.00465391,10,-1.38391e-05,-3.35301,0.395089,0.149333,-2.58355,0.0311977,
2,0,0,0,0,22725.4,0.0300631,0.029752,-0.439527,12,0.00451665,10,-1.30768e-05,-3.35701,0.588345,0.100281,-1.72311,0.029752,
2,0,0,0,0,22725.7,0.0285649,0.0282548,-0.436269,12,0.00438004,10,-1.23267e-05,-3.36025,0.694082,0.0850043,-1.44642,0.0282548,
2,0,0,0,0,22726,0.0270667,0.0267606,-0.434838,12,0.00424409,10,-1.16365e-05,-3.36167,0.519318,0.11361,-1.92327,0.0267606,
2,0,0,1,0,22726.3,0.0255683,0.0252378,-0.431395,12,0.00410912,10,-1.08874e-05,-3.36512,0.571971,0.103152,-1.73776,0.0252378,
2,0,0,1,0,22726.6,0.0240706,0.0237791,-0.426091,12,0.00397548,10,-1.01321e-05,-3.3705,0.599388,0.0984337,-1.64775,0.0237791,
2,0,0,1,0,22726.9,0.0225722,0.0222762,-0.424708,12,0.00384227,10,-9.46088e-06,-3.37191,1.20358,0.0490203,-0.812903,0.02227618,
2,0,0,1,0,22727.2,0.021074,0.0207566,-0.423887,12,0.00370978,10,-8.79845e-06,-3.37275,0.630448,0.0935842,-1.54633,0.0207566,
2,0,0,1,0,22727.5,0.0195758,0.0192318,-0.421029,12,0.00357796,10,-8.09712e-06,-3.37569,0.554443,0.106413,-1.74563,0.0192318,
2,0,0,1,0,22727.8,0.0180774,0.0177628,-0.416983,12,0.00344688,10,-7.40677e-06,-3.37988,0.685277,0.0860965,-1.4051,0.0177628,
2,0,0,1,0,22728.1,0.0165795,0.0162786,-0.416967,12,0.00331642,10,-6.78766e-06,-3.3799,1.06831,0.0552275,-0.89892,0.0162786,
2,0,0,1,0,22728.4,0.0150817,0.0147679,-0.417182,12,0.00318621,10,-6.16089e-06,-3.37967,0.996293,0.0592195,-0.961342,0.0147679,
2,0,0,0,0,22728.7,0.013583,0.0132712,-0.415288,12,0.00305623,10,-5.51138e-06,-3.38165,0.627609,0.0940075,-1.52095,0.0132712,
2,0,0,0,0,22729,0.0120848,0.0117538,-0.41304,12,0.00292682,10,-4.85478e-06,-3.38401,1.10577,0.0533564,-0.863215,0.0117538,
2,0,0,1,0,22729.3,0.0105863,0.010306,-0.413141,12,0.00279789,10,-4.25783e-06,-3.3839,1.1749,0.0502169,-0.810026,0.010306,
2,0,0,1,0,22729.6,0.00908846,0.0087284,-0.413083,12,0.00266887,10,-3.60556e-06,-3.38396,5.90198,0.00999664,-0.161197,0.0087284,
2,0,0,1,0,22729.9,0.0075906,0.00729717,-0.411847,12,0.00253996,10,-3.00531e-06,-3.38526,1.59463,0.0369992,-0.595061,0.00729717,
2,0,0,1,0,22730.2,0.00609208,0.00574444,-0.412724,12,0.00241118,10,-2.37087e-06,-3.38434,-6.57709,-0.00897053,0.144526,0.00574444,
2,0,0,1,0,22730.5,0.00459389,0.00425669,-0.413563,12,0.00228272,10,-1.76041e-06,-3.38346,-3.87245,-0.0152358,0.245033,0.00425669,
2,0,0,1,0,22730.8,0.00309525,0.00277603,-0.412186,12,0.00215376,10,-1.14424e-06,-3.38491,-0.683799,-0.0862827,1.38878,0.00277603,
2,0,0,1,0,22731.1,0.00159739,0.00124711,-0.417421,12,0.00202276,10,-5.20569e-07,-3.37943, , , ,0.00124711,
2,0,0,0,0,22731.4,0.000199195,-0.000168808,-0.414402,12,0.00190162,10,6.99542e-08,-3.38258, , , ,-0.000168808,