File: Figure_codes/Fig_3-5/rawdata_trumpetplot_data/after 10th/20221101_1-115_003_TrumpetPlot_ParaChange_from10_every3_12_CV_C01_33.csv
mode,ox/red,error,control changes,counter inc.,time/s,control/V,Ewe/V,<I>/mA,cycle number,(Q-Qo)/C,I Range,P/W,log(|I|),Tafel slope mV/dec,alpha_eff,dI/d(E-IR),E-IR/V,
2,1,0,1,0,66210.8,2.44065e-05,-0.000363498,13.8074,34,0.0000000E+000,10,-5.01898e-06,-1.85989, , , ,-0.000363498,
2,1,0,1,0,66210.8,0.00200257,0.00161946,14.6788,34,4.45649e-05,10,2.37718e-05,-1.83331, , , ,0.001619462,
2,1,0,1,0,66210.8,0.004408,0.00408809,15.4129,34,0.000104886,10,6.30094e-05,-1.81211, , , ,0.00408809,
2,1,0,1,0,66210.8,0.0068051,0.00648461,15.9993,34,0.000167788,10,0.000103749,-1.7959,0.148949,0.396109,244.701,0.00648461,
2,1,0,1,0,66210.8,0.00920221,0.00884825,16.536,34,0.000232918,10,0.000146315,-1.78157,0.172099,0.342826,220.005,0.00884825,
2,1,0,1,0,66210.8,0.0115993,0.0112607,17.0381,34,0.000300117,10,0.00019186,-1.76858,0.190205,0.310192,205.363,0.0112607,
2,1,0,1,0,66210.8,0.0140075,0.0136614,17.5191,34,0.000369291,10,0.000239336,-1.75649,0.208189,0.283396,192.905,0.0136614,
2,1,0,1,0,66210.9,0.0164046,0.0160643,17.9666,34,0.000440311,10,0.000288622,-1.74553,0.225068,0.262143,183.149,0.0160643,
2,1,0,1,0,66210.9,0.0188017,0.0184057,18.3797,34,0.000513051,10,0.000338291,-1.73566,0.245093,0.240725,172.23,0.0184057,
2,1,0,1,0,66210.9,0.0212099,0.0208521,18.7947,34,0.000587432,10,0.000391908,-1.72596,0.263474,0.223931,163.817,0.0208521,
2,1,0,1,0,66210.9,0.023607,0.0232518,19.1709,34,0.000663398,10,0.000445756,-1.71736,0.279271,0.211264,157.751,0.0232518,
2,1,0,1,0,66210.9,0.0260041,0.0257002,19.5452,34,0.000740872,10,0.000502315,-1.70896,0.29539,0.199736,152.122,0.0257002,
2,1,0,1,0,66210.9,0.0284012,0.0280851,19.9066,34,0.000819814,10,0.000559079,-1.701,0.310118,0.19025,147.538,0.0280851,
2,1,0,1,0,66210.9,0.0308067,0.0304434,20.2538,34,0.000900186,10,0.000616594,-1.69349,0.327421,0.180196,142.198,0.0304434,
2,1,0,1,0,66210.9,0.0332038,0.0328537,20.5875,34,0.000981896,10,0.000676376,-1.6864,0.339912,0.173574,139.304,0.0328537,
2,1,0,1,0,66210.9,0.0356009,0.0353022,20.9105,34,0.00106492,10,0.000738188,-1.67963,0.356563,0.165469,134.934,0.0353022,
2,1,0,1,0,66210.9,0.0380091,0.0376309,21.2364,34,0.00114925,10,0.000799143,-1.67292,0.37398,0.157762,130.573,0.0376309,
2,1,0,1,0,66210.9,0.0404062,0.0400465,21.5495,34,0.00123485,10,0.000862983,-1.66656,0.385984,0.152856,128.362,0.0400465,
2,1,0,1,0,66210.9,0.0428033,0.042443,21.8396,34,0.00132167,10,0.000926938,-1.66076,0.402631,0.146536,124.849,0.042443,
2,1,0,1,0,66210.9,0.0452032,0.0448491,22.136,34,0.00140965,10,0.000992778,-1.6549,0.418704,0.140911,121.708,0.0448491,
2,1,0,1,0,66210.9,0.0476058,0.0472477,22.437,34,0.00149884,10,0.0010601,-1.64903,0.424831,0.138879,121.501,0.0472477,
2,1,0,1,0,66210.9,0.0500029,0.049694,22.7237,34,0.00158919,10,0.00112923,-1.64352,0.434913,0.135659,120.231,0.04969405,
2,1,0,1,0,66210.9,0.0524,0.0520323,23.0047,34,0.00168067,10,0.00119699,-1.63818,0.454053,0.129941,116.6,0.0520323,
2,1,0,1,0,66210.9,0.0548082,0.0544659,23.2922,34,0.00177329,10,0.00126863,-1.63279,0.460569,0.128102,116.355,0.0544659,
2,1,0,1,0,66210.9,0.0572053,0.0568582,23.5576,34,0.00186703,10,0.00133944,-1.62787,0.467599,0.126177,116.002,0.05685816,
2,1,0,1,0,66210.9,0.0596024,0.0592218,23.8323,34,0.00196184,10,0.00141139,-1.62283,0.482021,0.122401,113.86,0.0592218,
2,1,0,1,0,66210.9,0.0620051,0.0616332,24.1184,34,0.00205777,10,0.0014865,-1.61765,0.486529,0.121267,114.068,0.0616332,
2,1,0,1,0,66210.9,0.0644077,0.0640795,24.3868,34,0.00215481,10,0.0015627,-1.61284,0.494162,0.119394,113.572,0.0640795,
2,1,0,1,0,66210.9,0.0668048,0.0664782,24.6549,34,0.00225293,10,0.00163901,-1.6081,0.508582,0.116009,111.618,0.0664782,
2,1,0,1,0,66210.9,0.0692019,0.0688291,24.9234,34,0.00235211,10,0.00171546,-1.60339,0.507118,0.116344,113.185,0.0688291,
2,1,0,1,0,66210.9,0.0716074,0.0712924,25.1966,34,0.00245239,10,0.00179633,-1.59866,0.510338,0.11561,113.672,0.0712924,
2,1,0,1,0,66210.9,0.0740045,0.0737059,25.4764,34,0.00255377,10,0.00187776,-1.59386,0.516605,0.114207,113.502,0.0737059,
2,1,0,1,0,66211,0.0764016,0.0760303,25.7407,34,0.00265624,10,0.00195708,-1.58938,0.517685,0.113969,114.491,0.0760303,
2,1,0,1,0,66211,0.0788042,0.0784438,26.0147,34,0.00275976,10,0.00204069,-1.58478,0.530604,0.111194,112.877,0.0784438,
2,1,0,1,0,66211,0.0812069,0.0808658,26.2926,34,0.0028644,10,0.00212617,-1.58017,0.533469,0.110597,113.445,0.0808658,
2,1,0,1,0,66211,0.083604,0.0832496,26.5537,34,0.00297011,10,0.00221058,-1.57588,0.532203,0.11086,114.918,0.0832496,
2,1,0,1,0,66211,0.0860011,0.0856599,26.8332,34,0.00307691,10,0.00229853,-1.57133,0.545639,0.10813,113.229,0.0856599,
2,1,0,1,0,66211,0.0884065,0.0880224,27.1155,34,0.00318485,10,0.00238677,-1.56678,0.54204,0.108848,115.132,0.0880224,
2,1,0,1,0,66211,0.0908036,0.0904518,27.3781,34,0.00329385,10,0.0024764,-1.5626,0.552068,0.106871,114.188,0.0904518,
2,1,0,1,0,66211,0.0932007,0.0928494,27.6589,34,0.00340396,10,0.00256811,-1.55816,0.558272,0.105683,114.086,0.0928494,
2,1,0,1,0,66211,0.0956034,0.0952608,27.9295,34,0.00351516,10,0.00266058,-1.55394,0.555864,0.106141,115.704,0.0952608,
2,1,0,1,0,66211,0.098006,0.0976425,28.213,34,0.00362749,10,0.00275479,-1.54955,0.565489,0.104335,114.847,0.0976425,
2,1,0,1,0,66211,0.100403,0.100089,28.4931,34,0.00374093,10,0.00285184,-1.54526,0.560739,0.105218,116.976,0.100089,
2,1,0,1,0,66211,0.1028,0.102422,28.7583,34,0.00385545,10,0.00294547,-1.54124,0.572981,0.10297,115.598,0.102422,
2,1,0,1,0,66211,0.105208,0.10485,29.0512,34,0.0039711,10,0.00304602,-1.53684,0.574074,0.102774,116.496,0.10485,
2,1,0,1,0,66211,0.107606,0.107268,29.3257,34,0.00408788,10,0.0031457,-1.53275,0.568269,0.103824,118.831,0.107268,
2,1,0,1,0,66211,0.110003,0.109614,29.6028,34,0.00420575,10,0.00324489,-1.52867,0.577465,0.102171,118.075,0.109614,
2,1,0,1,0,66211,0.112408,0.112059,29.9034,34,0.00432478,10,0.00335094,-1.52428,0.57538,0.102541,119.628,0.112059,
2,1,0,1,0,66211,0.114805,0.11441,30.1799,34,0.00444499,10,0.00345287,-1.52028,0.577367,0.102188,120.353,0.1144096,
2,1,0,1,0,66211,0.117202,0.116815,30.4677,34,0.00456631,10,0.00355908,-1.51616,0.581549,0.101453,120.682,0.116815,
2,1,0,1,0,66211,0.119599,0.119238,30.761,34,0.00468881,10,0.00366787,-1.512,0.575885,0.102451,123.013,0.119238,
2,1,0,1,0,66211,0.122008,0.121672,31.0636,34,0.00481249,10,0.00377958,-1.50775,0.581308,0.101495,123.011,0.1216723,
2,1,0,1,0,66211,0.124405,0.124,31.3597,34,0.00493736,10,0.0038886,-1.50363,0.582288,0.101324,123.972,0.124,
2,1,0,1,0,66211,0.126802,0.126427,31.6502,34,0.00506341,10,0.00400144,-1.49962,0.581976,0.101379,125.238,0.126427,
2,1,0,1,0,66211,0.129207,0.12881,31.9477,34,0.00519064,10,0.00411518,-1.49556,0.569267,0.103642,129.339,0.12881,
2,1,0,1,0,66211,0.131604,0.131158,32.2515,34,0.00531905,10,0.00423004,-1.49145,0.551501,0.106981,134.823,0.131158,
2,1,0,1,0,66211,0.134001,0.1336,32.6013,34,0.00544881,10,0.00435553,-1.48677,0.534901,0.110301,140.414,0.1336,
2,1,0,1,0,66211.1,0.136399,0.13601,32.9422,34,0.00557994,10,0.00448047,-1.48225,0.533119,0.110669,142.255,0.13601,
2,1,0,1,0,66211.1,0.138807,0.138435,33.2992,34,0.00571247,10,0.00460978,-1.47757,0.537297,0.109809,142.641,0.138435,
2,1,0,1,0,66211.1,0.141204,0.140853,33.6308,34,0.00584635,10,0.00473699,-1.47326,0.539457,0.109369,143.55,0.140853,
2,1,0,1,0,66211.1,0.143601,0.143246,33.9773,34,0.0059816,10,0.00486712,-1.46881,0.549662,0.107339,142.34,0.143246,
2,1,0,1,0,66211.1,0.146009,0.145677,34.3298,34,0.00611826,10,0.00500106,-1.46433,0.554885,0.106328,142.385,0.145677,
2,1,0,1,0,66211.1,0.148406,0.148047,34.6673,34,0.00625627,10,0.00513238,-1.46008,0.562535,0.104882,141.843,0.148047,
2,1,0,1,0,66211.1,0.150803,0.150494,35.0035,34,0.00639564,10,0.00526783,-1.45589,0.575599,0.102502,139.992,0.150494,
2,1,0,1,0,66211.1,0.153206,0.152838,35.3378,34,0.00653635,10,0.00540094,-1.45176,0.584621,0.10092,139.156,0.152838,
2,1,0,1,0,66211.1,0.155606,0.155244,35.6691,34,0.00667841,10,0.00553741,-1.44771,0.592964,0.0995001,138.469,0.155244,
2,1,0,1,0,66211.1,0.158003,0.157653,36.0041,34,0.00682181,10,0.00567615,-1.44365,0.612673,0.0962993,135.245,0.157653,
2,1,0,1,0,66211.1,0.1604,0.160017,36.3221,34,0.0069665,10,0.00581214,-1.43983,0.626546,0.0941671,133.425,0.160017,
2,1,0,1,0,66211.1,0.162808,0.162484,36.6424,34,0.00711246,10,0.00595381,-1.43602,0.65747,0.089738,128.238,0.162484,
2,1,0,1,0,66211.1,0.165205,0.164843,36.9499,34,0.00725967,10,0.00609091,-1.43239,0.673597,0.0875895,126.233,0.164843,
2,1,0,1,0,66211.1,0.167603,0.167258,37.2358,34,0.00740806,10,0.00622799,-1.42904,0.709193,0.0831932,120.841,0.167258,
2,1,0,1,0,66211.1,0.170008,0.169673,37.541,34,0.00755765,10,0.00636968,-1.42549,0.746717,0.0790126,115.644,0.1696727,
2,1,0,1,0,66211.1,0.172405,0.172077,37.8016,34,0.00770837,10,0.00650477,-1.42249,0.787514,0.0749193,110.416,0.172077,
2,1,0,1,0,66211.1,0.174802,0.174453,38.0612,34,0.00786013,10,0.0066399,-1.41952,0.857794,0.0687811,102.078,0.174453,
2,1,0,1,0,66211.1,0.177199,0.176862,38.2963,34,0.00801287,10,0.00677316,-1.41684,0.919535,0.0641629,95.8038,0.176862,
2,1,0,1,0,66211.1,0.179607,0.179248,38.5184,34,0.00816653,10,0.00690436,-1.41433,1.02415,0.0576089,86.5017,0.179248,
2,1,0,1,0,66211.1,0.182005,0.181667,38.7204,34,0.00832103,10,0.00703421,-1.41206,1.15633,0.0510234,76.9923,0.181667,
2,1,0,1,0,66211.1,0.184402,0.184039,38.8905,34,0.00847628,10,0.00715736,-1.41016,1.35988,0.0433861,65.7532,0.184039,
2,1,0,1,0,66211.1,0.18681,0.186464,39.0355,34,0.00863215,10,0.00727873,-1.40854,1.69417,0.0348253,52.97,0.186464,
2,1,0,1,0,66211.1,0.189207,0.188846,39.1495,34,0.00878854,10,0.00739323,-1.40727,2.13881,0.0275854,42.0849,0.1888459,
2,1,0,1,0,66211.1,0.191604,0.191254,39.2282,34,0.00894532,10,0.00750255,-1.4064,2.95923,0.0199376,30.4874,0.191254,
2,1,0,1,0,66211.1,0.194001,0.193616,39.2935,34,0.00910237,10,0.00760783,-1.40568,5.29936,0.0111334,17.0462,0.1936156,
2,1,0,1,0,66211.2,0.196407,0.196063,39.3282,34,0.00925965,10,0.0077108,-1.4053,18.0244,0.00327334,5.01441,0.196063,
2,1,0,1,0,66211.2,0.198804,0.198479,39.3137,34,0.00941694,10,0.00780294,-1.40546,-11.7133,-0.005037,-7.71693,0.198479,
2,1,0,1,0,66211.2,0.201201,0.200858,39.2763,34,0.00957412,10,0.00788897,-1.40587,-4.1447,-0.0142351,-21.7904,0.200858,
2,1,0,1,0,66211.2,0.203609,0.203267,39.219,34,0.00973111,10,0.00797195,-1.4065,-2.71878,-0.0217009,-33.1605,0.203267,
2,1,0,1,0,66211.2,0.206006,0.20569,39.1184,34,0.00988777,10,0.00804628,-1.40762,-1.89443,-0.0311439,-47.4601,0.20569,
2,1,0,1,0,66211.2,0.208403,0.208083,38.9953,34,0.010044,10,0.00811424,-1.40899,-1.46285,-0.0403323,-61.2682,0.208083,
2,1,0,1,0,66211.2,0.210803,0.210488,38.8193,34,0.0101996,10,0.00817099,-1.41095,-1.20563,-0.0489372,-74.0314,0.210488,
2,1,0,1,0,66211.2,0.213206,0.212869,38.6307,34,0.0103545,10,0.00822329,-1.41307,-1.01116,-0.0583488,-87.838,0.212869,
2,1,0,1,0,66211.2,0.215603,0.215271,38.4091,34,0.0105086,10,0.00826838,-1.41557,-0.915563,-0.0644412,-96.457,0.2152712,
2,1,0,1,0,66211.2,0.218,0.217656,38.1544,34,0.0106617,10,0.00830453,-1.41846,-0.798393,-0.0738984,-109.879,0.217656,
2,1,0,1,0,66211.2,0.220408,0.220105,37.8917,34,0.0108138,10,0.00834014,-1.42146,-0.716578,-0.0823357,-121.537,0.220105,
2,1,0,1,0,66211.2,0.222805,0.222502,37.5723,34,0.0109647,10,0.00835991,-1.42513,-0.661793,-0.0891517,-130.548,0.222502,
2,1,0,1,0,66211.2,0.225202,0.224864,37.2433,34,0.0111143,10,0.00837466,-1.42895,-0.596971,-0.0988322,-143.495,0.224864,
2,1,0,1,0,66211.2,0.227605,0.2273,36.8953,34,0.0112625,10,0.00838632,-1.43303,-0.562075,-0.104968,-150.95,0.2273,
2,1,0,1,0,66211.2,0.230008,0.22965,36.5219,34,0.0114093,10,0.00838728,-1.43745,-0.526954,-0.111964,-159.389,0.22965,
2,1,0,1,0,66211.2,0.232405,0.232037,36.1329,34,0.0115546,10,0.00838419,-1.4421,-0.501427,-0.117664,-165.755,0.232037,
2,1,0,1,0,66211.2,0.234802,0.234415,35.7209,34,0.0116982,10,0.00837351,-1.44708,-0.482106,-0.12238,-170.478,0.234415,
2,1,0,1,0,66211.2,0.237207,0.236876,35.3081,34,0.0118402,10,0.00836364,-1.45213,-0.462828,-0.127477,-175.518,0.236876,
2,1,0,1,0,66211.2,0.239604,0.239291,34.8785,34,0.0119806,10,0.0083461,-1.45744,-0.454408,-0.129839,-176.633,0.239291,
2,1,0,1,0,66211.2,0.242001,0.241681,34.4403,34,0.0121192,10,0.00832357,-1.46293,-0.436679,-0.135111,-181.541,0.241681,
2,1,0,1,0,66211.2,0.244404,0.244107,34.009,34,0.012256,10,0.00830183,-1.46841,-0.423723,-0.139242,-184.701,0.244107,
2,1,0,1,0,66211.2,0.246807,0.246482,33.5642,34,0.0123911,10,0.00827297,-1.47412,-0.419577,-0.140618,-184.117,0.246482,
2,1,0,1,0,66211.2,0.249204,0.248843,33.1142,34,0.0125245,10,0.00824023,-1.47999,-0.414771,-0.142247,-183.862,0.248843,
2,1,0,1,0,66211.2,0.251601,0.25127,32.6748,34,0.012656,10,0.00821019,-1.48579,-0.409282,-0.144155,-183.821,0.25127,
2,1,0,1,0,66211.2,0.254006,0.253697,32.2457,34,0.0127858,10,0.00818064,-1.49153,-0.410007,-0.1439,-181.03,0.253697,
2,1,0,1,0,66211.3,0.256404,0.256081,31.7997,34,0.0129138,10,0.0081433,-1.49758,-0.409919,-0.143931,-178.663,0.256081,
2,1,0,1,0,66211.3,0.258801,0.258471,31.3712,34,0.0130401,10,0.00810855,-1.50347,-0.404812,-0.145747,-178.538,0.258471,
2,1,0,1,0,66211.3,0.261203,0.260902,30.954,34,0.0131648,10,0.00807594,-1.50928,-0.412032,-0.143193,-173.032,0.260902,
2,1,0,1,0,66211.3,0.263606,0.263216,30.5461,34,0.0132877,10,0.00804025,-1.51504,-0.413944,-0.142531,-169.929,0.263216,
2,1,0,1,0,66211.3,0.266003,0.265668,30.1408,34,0.0134091,10,0.00800746,-1.52084,-0.418711,-0.140909,-165.809,0.265668,
2,1,0,1,0,66211.3,0.2684,0.268065,29.741,34,0.0135288,10,0.0079725,-1.52665,-0.423446,-0.139333,-161.808,0.268065,
2,1,0,1,0,66211.3,0.270808,0.270499,29.3626,34,0.0136469,10,0.00794256,-1.53221,-0.425539,-0.138648,-158.918,0.270499,
2,1,0,1,0,66211.3,0.273205,0.272891,28.9808,34,0.0137636,10,0.00790858,-1.53789,-0.437386,-0.134892,-152.666,0.272891,
2,1,0,1,0,66211.3,0.275603,0.275291,28.6115,34,0.0138787,10,0.00787651,-1.54346,-0.436209,-0.135256,-151.144,0.275291,
2,1,0,1,0,66211.3,0.278008,0.277695,28.2707,34,0.0139925,10,0.00785064,-1.54866,-0.442693,-0.133275,-147.049,0.277695,
2,1,0,1,0,66211.3,0.280405,0.280069,27.9161,34,0.0141048,10,0.00781845,-1.55415,-0.453313,-0.130153,-141.845,0.280069,
2,1,0,1,0,66211.3,0.282802,0.282459,27.5738,34,0.0142157,10,0.00778846,-1.5595,-0.45832,-0.128731,-138.657,0.282459,
2,1,0,1,0,66211.3,0.285199,0.284889,27.2502,34,0.0143254,10,0.00776327,-1.56463,-0.474484,-0.124346,-132.349,0.284889,
2,1,0,1,0,66211.3,0.287608,0.287305,26.9383,34,0.0144337,10,0.00773949,-1.56963,-0.487286,-0.121079,-127.377,0.287305,
2,1,0,1,0,66211.3,0.290005,0.289719,26.639,34,0.0145408,10,0.00771783,-1.57448,-0.490917,-0.120183,-124.984,0.289719,
2,1,0,1,0,66211.3,0.292402,0.292082,26.348,34,0.0146468,10,0.00769578,-1.57925,-0.499513,-0.118115,-121.483,0.292082,
2,1,0,1,0,66211.3,0.294807,0.294471,26.0526,34,0.0147515,10,0.00767172,-1.58415,-0.507551,-0.116245,-118.317,0.294471,
2,1,0,1,0,66211.3,0.297204,0.296853,25.7784,34,0.0148552,10,0.00765238,-1.58874,-0.522935,-0.112825,-114.051,0.296853,
2,1,0,1,0,66211.3,0.299421,0.299099,25.5292,34,0.0149501,10,0.00763576,-1.59296,-0.133363,-0.442401,-432.565,0.299099,
2,1,0,0,0,66211.3,0.300012,0.299861,25.4608,34,0.0149756,10,0.00763471,-1.59413,0.00268788,21.9504,19937.6,0.299861,
2,1,0,1,0,66211.3,0.299243,0.29903,24.0807,34,0.0150072,10,0.00720083,-1.61833,0.035285,1.6721,1423.92,0.29903,
2,1,0,1,0,66211.3,0.296846,0.29661,20.9369,34,0.0150966,10,0.0062101,-1.67909,0.042259,1.39615,1121.86,0.2966097,
2,1,0,1,0,66211.3,0.294449,0.294155,18.4891,34,0.0151751,10,0.00543867,-1.73308,0.0440834,1.33837,986.778,0.294155,
2,1,0,1,0,66211.3,0.292041,0.291769,16.3827,34,0.0152446,10,0.00477996,-1.78561,0.045293,1.30263,841.03,0.291769,
2,1,0,1,0,66211.3,0.289644,0.289329,14.5083,34,0.0153061,10,0.00419769,-1.83838,0.0446188,1.32231,752.135,0.289329,
2,1,0,1,0,66211.3,0.287247,0.286949,12.8123,34,0.0153605,10,0.00367649,-1.89237,0.0433162,1.36208,681.756,0.2869494,
2,1,0,1,0,66211.3,0.284841,0.284538,11.256,34,0.0154085,10,0.00320275,-1.94862,0.0410338,1.43784,630.638,0.284538,
2,1,0,1,0,66211.4,0.282444,0.282149,9.82422,34,0.0154505,10,0.00277189,-2.0077,0.0390375,1.51137,576.711,0.282149,
2,1,0,1,0,66211.4,0.280047,0.279803,8.50114,34,0.015487,10,0.00237865,-2.07052,0.0361765,1.63089,536.304,0.279803,
2,1,0,1,0,66211.4,0.27765,0.277329,7.26437,34,0.0155184,10,0.00201462,-2.1388,0.033224,1.77582,497.082,0.277329,
2,1,0,1,0,66211.4,0.275242,0.274953,6.11548,34,0.015545,10,0.00168147,-2.21357,0.0298096,1.97923,462.918,0.274953,
2,1,0,1,0,66211.4,0.272845,0.272538,5.04702,34,0.0155672,10,0.00137551,-2.29696,0.0256898,2.29663,436.911,0.272538,
2,1,0,1,0,66211.4,0.270448,0.270155,4.0346,34,0.0155852,10,0.00108997,-2.3942,0.0216046,2.73089,407.911,0.270155,
2,1,0,1,0,66211.4,0.26804,0.267745,3.07706,34,0.0155994,10,0.000823868,-2.51186,0.0168414,3.50326,384.437,0.267745,
2,1,0,1,0,66211.4,0.265642,0.265346,2.19658,34,0.0156098,10,0.000582852,-2.65825,0.011349,5.19868,359.78,0.265346,
2,1,0,1,0,66211.4,0.263245,0.262948,1.36016,34,0.0156168,10,0.000357651,-2.86641,0.00775998,7.60311,338.752,0.262948,
2,1,0,1,0,66211.4,0.260843,0.260533,0.57275,34,0.0156206,10,0.00014922,-3.24203,0.0245812,2.40021,321.018,0.260533,
2,0,0,1,0,66211.4,0.258443,0.258137,-0.177803,34,0.0156213,10,-4.58974e-05,-3.75006,-0.160333,-0.367984,304.468,0.258137,
2,0,0,1,0,66211.4,0.256046,0.255725,-0.89196,34,0.0156191,10,-0.000228096,-3.04965,-0.0164131,-3.5947,289.057,0.255725,
2,0,0,1,0,66211.4,0.253649,0.253354,-1.5611,34,0.0156141,10,-0.000395511,-2.80657,-0.00800002,-7.37499,274.241,0.253354,
2,0,0,1,0,66211.4,0.25124,0.250935,-2.20155,34,0.0156065,10,-0.000552446,-2.65727,-0.0165418,-3.56671,260.072,0.250935,
2,0,0,1,0,66211.4,0.248843,0.248551,-2.8067,34,0.0155964,10,-0.000697608,-2.5518,-0.0239462,-2.46386,247.25,0.248551,
2,0,0,1,0,66211.4,0.246446,0.246149,-3.38227,34,0.015584,10,-0.000832544,-2.47079,-0.0313193,-1.88382,235.346,0.246149,
2,0,0,1,0,66211.4,0.244041,0.243713,-3.94463,34,0.0155693,10,-0.000961359,-2.40399,-0.0388608,-1.51824,224.065,0.243713,
2,0,0,1,0,66211.4,0.241644,0.241316,-4.46533,34,0.0155524,10,-0.00107755,-2.35015,-0.0468338,-1.25977,212.79,0.241316,
2,0,0,1,0,66211.4,0.239246,0.238943,-4.9596,34,0.0155335,10,-0.00118506,-2.30455,-0.0548207,-1.07624,204.057,0.238943,
2,0,0,1,0,66211.4,0.236849,0.2365,-5.43563,34,0.0155126,10,-0.00128552,-2.26475,-0.0625797,-0.942797,196.866,0.2364995,
2,0,0,1,0,66211.4,0.234441,0.234116,-5.90311,34,0.0154899,10,-0.00138201,-2.22892,-0.071108,-0.829724,188.362,0.234116,
2,0,0,1,0,66211.4,0.232044,0.231766,-6.3454,34,0.0154653,10,-0.00147065,-2.19754,-0.0794595,-0.742517,181.587,0.231766,
2,0,0,1,0,66211.4,0.229647,0.229343,-6.76784,34,0.0154391,10,-0.00155215,-2.16955,-0.0890863,-0.662279,173.091,0.229343,
2,0,0,1,0,66211.4,0.227239,0.226906,-7.17769,34,0.0154111,10,-0.00162866,-2.14402,-0.099134,-0.595154,165.126,0.226906,
2,0,0,1,0,66211.4,0.224842,0.224551,-7.55871,34,0.0153816,10,-0.00169731,-2.12155,-0.107898,-0.546815,160.235,0.224551,
2,0,0,1,0,66211.5,0.222445,0.222158,-7.93198,34,0.0153506,10,-0.00176215,-2.10062,-0.117788,-0.500898,154.304,0.222158,
2,0,0,1,0,66211.5,0.220047,0.219773,-8.30131,34,0.0153181,10,-0.0018244,-2.08085,-0.128552,-0.458959,147.756,0.219773,
2,0,0,1,0,66211.5,0.217642,0.217331,-8.65522,34,0.0152841,10,-0.00188104,-2.06272,-0.138535,-0.425884,142.957,0.217331,
2,0,0,1,0,66211.5,0.215245,0.21493,-8.98027,34,0.0152488,10,-0.00193013,-2.04671,-0.149233,-0.395356,138.114,0.21493,
2,0,0,1,0,66211.5,0.212848,0.212542,-9.30663,34,0.0152122,10,-0.00197805,-2.03121,-0.160511,-0.367575,133.15,0.212542,
2,0,0,1,0,66211.5,0.21044,0.210121,-9.63436,34,0.0151743,10,-0.00202438,-2.01618,-0.167348,-0.352559,132.063,0.210121,
2,0,0,1,0,66211.5,0.208043,0.207698,-9.93782,34,0.0151351,10,-0.00206406,-2.00271,-0.180939,-0.326077,125.978,0.207698,
2,0,0,1,0,66211.5,0.205645,0.205363,-10.2437,34,0.0150947,10,-0.00210368,-1.98954,-0.194034,-0.30407,121.105,0.2053628,
2,0,0,1,0,66211.5,0.203246,0.202934,-10.5169,34,0.0150532,10,-0.00213425,-1.97811,-0.205263,-0.287437,117.693,0.202934,
2,0,0,1,0,66211.5,0.200843,0.200509,-10.7984,34,0.0150105,10,-0.00216517,-1.96664,-0.219925,-0.268273,112.852,0.200509,
2,0,0,1,0,66211.5,0.198446,0.198114,-11.0658,34,0.0149667,10,-0.00219229,-1.95602,-0.224377,-0.262951,113.443,0.198114,
2,0,0,1,0,66211.5,0.196049,0.195718,-11.3321,34,0.0149219,10,-0.0022179,-1.94569,-0.23585,-0.250159,110.502,0.195718,
2,0,0,1,0,66211.5,0.19364,0.193299,-11.6101,34,0.014876,10,-0.00224421,-1.93517,-0.247446,-0.238436,107.704,0.193299,
2,0,0,1,0,66211.5,0.191243,0.190947,-11.8551,34,0.014829,10,-0.00226368,-1.9261,-0.256906,-0.229656,106.052,0.190947,
2,0,0,1,0,66211.5,0.188846,0.188528,-12.0982,34,0.0147811,10,-0.00228085,-1.91728,-0.27165,-0.217191,102.508,0.188528,
2,0,0,1,0,66211.5,0.186444,0.186144,-12.3475,34,0.0147322,10,-0.00229841,-1.90842,-0.282264,-0.209024,100.599,0.186144,
2,0,0,1,0,66211.5,0.184041,0.183736,-12.5903,34,0.0146823,10,-0.00231329,-1.89996,-0.290356,-0.203199,99.7065,0.183736,
2,0,0,1,0,66211.5,0.181644,0.181339,-12.8216,34,0.0146315,10,-0.00232505,-1.89206,-0.304035,-0.194056,97.0203,0.181339,
2,0,0,1,0,66211.5,0.179247,0.178882,-13.06,34,0.0145797,10,-0.0023362,-1.88406,-0.312233,-0.188961,96.2267,0.178882,
2,0,0,1,0,66211.5,0.176841,0.176478,-13.2853,34,0.014527,10,-0.00234456,-1.87663,-0.318091,-0.185481,96.1122,0.176478,
2,0,0,1,0,66211.5,0.174444,0.1741,-13.5175,34,0.0144733,10,-0.0023534,-1.8691,-0.32348,-0.182392,96.1923,0.1741,
2,0,0,1,0,66211.5,0.172047,0.171742,-13.744,34,0.0144188,10,-0.00236042,-1.86189,-0.328422,-0.179647,96.3265,0.171742,
2,0,0,1,0,66211.5,0.169644,0.169342,-13.9777,34,0.0143633,10,-0.00236701,-1.85456,-0.338621,-0.174236,94.962,0.169342,
2,0,0,1,0,66211.5,0.167242,0.166946,-14.2034,34,0.0143069,10,-0.00237121,-1.84761,-0.343846,-0.171588,95.0668,0.166946,
2,0,0,1,0,66211.5,0.164845,0.164568,-14.4227,34,0.0142497,10,-0.00237352,-1.84095,-0.34512,-0.170955,96.3109,0.164568,
2,0,0,1,0,66211.6,0.162448,0.162122,-14.6586,34,0.0141915,10,-0.00237647,-1.83391,-0.348571,-0.169263,96.8614,0.162122,
2,0,0,1,0,66211.6,0.160042,0.159733,-14.9031,34,0.0141323,10,-0.00238052,-1.82672,-0.346951,-0.170053,98.8444,0.159733,
2,0,0,1,0,66211.6,0.157645,0.157354,-15.1326,34,0.0140722,10,-0.00238117,-1.82009,-0.344132,-0.171446,101.294,0.157354,
2,0,0,1,0,66211.6,0.155248,0.154934,-15.375,34,0.0140112,10,-0.00238211,-1.81319,-0.347385,-0.16984,101.999,0.154934,
2,0,0,1,0,66211.6,0.152845,0.152537,-15.6295,34,0.0139492,10,-0.00238406,-1.80606,-0.338707,-0.174192,106.318,0.152537,
2,0,0,1,0,66211.6,0.150443,0.150117,-15.884,34,0.0138861,10,-0.00238445,-1.79904,-0.334717,-0.176268,109.354,0.150117,
2,0,0,1,0,66211.6,0.148046,0.147718,-16.157,34,0.013822,10,-0.00238669,-1.79164,-0.32664,-0.180627,113.991,0.147718,
2,0,0,1,0,66211.6,0.145648,0.145291,-16.4295,34,0.0137568,10,-0.00238706,-1.78438,-0.31549,-0.18701,120.084,0.145291,
2,0,0,1,0,66211.6,0.14324,0.142935,-16.724,34,0.0136905,10,-0.00239044,-1.77666,-0.306493,-0.192501,125.859,0.142935,
2,0,0,1,0,66211.6,0.140843,0.140521,-17.0363,34,0.0136229,10,-0.00239395,-1.76863,-0.289908,-0.203513,135.588,0.140521,
2,0,0,1,0,66211.6,0.138446,0.138135,-17.3631,34,0.0135541,10,-0.00239846,-1.76037,-0.280377,-0.210431,142.909,0.138135,
2,0,0,1,0,66211.6,0.136041,0.135703,-17.7296,34,0.0134839,10,-0.00240595,-1.7513,-0.269967,-0.218545,151.402,0.135703,
2,0,0,1,0,66211.6,0.133644,0.133326,-18.0971,34,0.0134122,10,-0.00241282,-1.74239,-0.25948,-0.227378,160.858,0.133326,
2,0,0,1,0,66211.6,0.131246,0.130947,-18.4858,34,0.013339,10,-0.00242066,-1.73316,-0.249954,-0.236044,170.75,0.130947,
2,0,0,1,0,66211.6,0.128849,0.128498,-18.9133,34,0.0132642,10,-0.00243033,-1.72323,-0.238546,-0.247332,183.005,0.128498,
2,0,0,1,0,66211.6,0.126441,0.126122,-19.3655,34,0.0131876,10,-0.00244241,-1.71297,-0.230624,-0.255828,193.716,0.126122,
2,0,0,1,0,66211.6,0.124044,0.123758,-19.8481,34,0.0131091,10,-0.00245637,-1.70228,-0.222374,-0.265318,205.826,0.123758,
2,0,0,1,0,66211.6,0.121647,0.121331,-20.3486,34,0.0130287,10,-0.00246891,-1.69147,-0.216437,-0.272596,216.859,0.121331,
2,0,0,1,0,66211.6,0.119241,0.118969,-20.8746,34,0.0129462,10,-0.00248344,-1.68038,-0.214817,-0.274652,224.144,0.118969,
2,0,0,1,0,66211.6,0.116844,0.116564,-21.4381,34,0.0128616,10,-0.00249892,-1.66881,-0.211027,-0.279586,234.083,0.116564,
2,0,0,1,0,66211.6,0.114447,0.114105,-22.0118,34,0.0127746,10,-0.00251166,-1.65735,-0.209249,-0.281961,242.301,0.114105,
2,0,0,1,0,66211.6,0.11205,0.111726,-22.597,34,0.0126853,10,-0.00252466,-1.64595,-0.211855,-0.278492,245.58,0.1117257,
2,0,0,1,0,66211.6,0.109642,0.109351,-23.205,34,0.0125937,10,-0.0025375,-1.63442,-0.213079,-0.276892,250.554,0.109351,
2,0,0,1,0,66211.6,0.107245,0.106974,-23.7933,34,0.0124996,10,-0.00254526,-1.62355,-0.216784,-0.27216,252.663,0.106974,
2,0,0,1,0,66211.6,0.104848,0.104568,-24.4014,34,0.0124031,10,-0.0025516,-1.61259,-0.223975,-0.263422,250.732,0.104568,
2,0,0,1,0,66211.7,0.10244,0.102138,-25.0195,34,0.0123042,10,-0.00255543,-1.60172,-0.227609,-0.259216,252.782,0.102138,
2,0,0,1,0,66211.7,0.100042,0.0997495,-25.6125,34,0.0122029,10,-0.00255484,-1.59155,-0.234784,-0.251294,250.982,0.0997495,
2,0,0,1,0,66211.7,0.0976454,0.097371,-26.2208,34,0.0120992,10,-0.00255314,-1.58135,-0.242555,-0.243244,248.639,0.09737099,
2,0,0,1,0,66211.7,0.0952427,0.094932,-26.8198,34,0.0119931,10,-0.00254606,-1.57154,-0.251631,-0.234471,244.976,0.094932,
2,0,0,1,0,66211.7,0.0928428,0.0925642,-27.3999,34,0.0118846,10,-0.00253625,-1.56225,-0.264931,-0.2227,237.628,0.0925642,
2,0,0,1,0,66211.7,0.0904457,0.0901475,-27.9648,34,0.0117738,10,-0.00252096,-1.55339,-0.273456,-0.215757,235.161,0.0901475,
2,0,0,1,0,66211.7,0.0880486,0.0878104,-28.4926,34,0.0116608,10,-0.00250195,-1.54527,-0.283058,-0.208438,231.789,0.0878104,
2,0,0,1,0,66211.7,0.0856404,0.085381,-29.0658,34,0.0115456,10,-0.00248167,-1.53662,-0.294199,-0.200544,227.272,0.085381,
2,0,0,1,0,66211.7,0.0832433,0.0829993,-29.6169,34,0.0114282,10,-0.00245818,-1.52846,-0.303135,-0.194633,224.516,0.0829993,
2,0,0,1,0,66211.7,0.0808462,0.0805805,-30.1391,34,0.0113087,10,-0.00242862,-1.52087,-0.322218,-0.183106,215.03,0.0805805,
2,0,0,1,0,66211.7,0.0784408,0.0782084,-30.6484,34,0.011187,10,-0.00239696,-1.51359,-0.34122,-0.172909,206.486,0.0782084,
2,0,0,1,0,66211.7,0.0760437,0.0757376,-31.1394,34,0.0110634,10,-0.00235843,-1.50669,-0.360224,-0.163787,198.676,0.0757376,
2,0,0,1,0,66211.7,0.0736466,0.0733803,-31.6031,34,0.0109379,10,-0.00231904,-1.50027,-0.385279,-0.153136,188.538,0.0733803,
2,0,0,1,0,66211.7,0.0712495,0.0709955,-32.0434,34,0.0108105,10,-0.00227494,-1.49426,-0.407148,-0.144911,180.943,0.0709955,
2,0,0,1,0,66211.7,0.0688413,0.0685831,-32.4632,34,0.0106815,10,-0.00222642,-1.48861,-0.43769,-0.134799,170.543,0.0685831,
2,0,0,1,0,66211.7,0.0664442,0.0661982,-32.8655,34,0.0105508,10,-0.00217564,-1.48326,-0.462198,-0.127651,163.506,0.0661982,
2,0,0,1,0,66211.7,0.0640471,0.0637444,-33.2464,34,0.0104185,10,-0.00211927,-1.47826,-0.496878,-0.118741,153.829,0.0637444,
2,0,0,1,0,66211.7,0.0616389,0.0614126,-33.6103,34,0.0102848,10,-0.0020641,-1.47353,-0.534459,-0.110392,144.57,0.0614126,
2,0,0,1,0,66211.7,0.0592417,0.0589991,-33.9375,34,0.0101497,10,-0.00200228,-1.46932,-0.571634,-0.103213,136.532,0.0589991,
2,0,0,1,0,66211.7,0.0568446,0.0565729,-34.2571,34,0.0100132,10,-0.00193802,-1.46525,-0.609409,-0.0968152,129.334,0.0565729,
2,0,0,1,0,66211.7,0.0544475,0.0541796,-34.5523,34,0.0098756,10,-0.00187203,-1.46152,-0.647417,-0.0911314,122.79,0.0541796,
2,0,0,1,0,66211.7,0.0520421,0.0517724,-34.8571,34,0.00973673,10,-0.00180464,-1.45771,-0.697419,-0.0845976,114.918,0.0517724,
2,0,0,1,0,66211.7,0.049645,0.049377,-35.119,34,0.00959675,10,-0.00173407,-1.45446,-0.736104,-0.0801517,109.725,0.049377,
2,0,0,1,0,66211.7,0.0472479,0.046954,-35.3625,34,0.00945574,10,-0.00166041,-1.45146,-0.817991,-0.072128,99.4593,0.046954,
2,0,0,1,0,66211.7,0.0448397,0.0445585,-35.608,34,0.00931377,10,-0.00158664,-1.44845,-0.879437,-0.0670884,93.1206,0.0445585,
2,0,0,1,0,66211.8,0.0424426,0.042163,-35.8128,34,0.00917092,10,-0.00150998,-1.44596,-0.951441,-0.0620112,86.5874,0.04216304,
2,0,0,1,0,66211.8,0.0400455,0.0397358,-36.0168,34,0.00902724,10,-0.00143115,-1.4435,-1.06033,-0.0556429,78.1378,0.0397358,
2,0,0,1,0,66211.8,0.0376456,0.0373085,-36.1976,34,0.00888279,10,-0.00135048,-1.44132,-1.1514,-0.0512418,72.314,0.0373085,
2,0,0,1,0,66211.8,0.035243,0.034948,-36.3589,34,0.00873765,10,-0.00127067,-1.43939,-1.28765,-0.04582,64.9595,0.034948,
2,0,0,1,0,66211.8,0.0328459,0.0325165,-36.5104,34,0.0085919,10,-0.00118719,-1.43758,-1.36416,-0.0432502,61.5966,0.0325165,
2,0,0,1,0,66211.8,0.0304488,0.030172,-36.638,34,0.00844558,10,-0.00110544,-1.43607,-1.51177,-0.0390272,55.7868,0.030172,
2,0,0,1,0,66211.8,0.0280406,0.0277044,-36.7892,34,0.00829872,10,-0.00101922,-1.43428,-1.71172,-0.0344682,49.4302,0.0277044,
2,0,0,1,0,66211.8,0.0256435,0.0253153,-36.8963,34,0.00815134,10,-0.000934041,-1.43302,-1.8566,-0.0317785,45.7106,0.0253153,
2,0,0,1,0,66211.8,0.0232463,0.0229654,-36.9825,34,0.00800357,10,-0.00084932,-1.432,-2.20247,-0.0267881,38.6535,0.0229654,
2,0,0,1,0,66211.8,0.0208437,0.020571,-37.0769,34,0.00785545,10,-0.00076271,-1.4309,-2.50839,-0.0235211,34.0185,0.020571,
2,0,0,1,0,66211.8,0.018441,0.0181862,-37.1571,34,0.00770697,10,-0.000675746,-1.42996,-2.7191,-0.0216983,31.4456,0.0181862,
2,0,0,1,0,66211.8,0.0160439,0.0157314,-37.2223,34,0.00755821,10,-0.000585558,-1.4292,-3.34102,-0.0176593,25.6379,0.0157314,
2,0,0,1,0,66211.8,0.0136468,0.0133274,-37.2856,34,0.0074092,10,-0.00049692,-1.42846,-4.13844,-0.0142566,20.7296,0.01332741,
2,0,0,1,0,66211.8,0.0112414,0.010933,-37.324,34,0.00725997,10,-0.000408064,-1.42801,-5.11718,-0.0115298,16.7852,0.010933,
2,0,0,1,0,66211.8,0.00884431,0.00851423,-37.3576,34,0.00711062,10,-0.000318071,-1.42762,-7.21625,-0.00817599,11.9155,0.00851423,
2,0,0,1,0,66211.8,0.0064472,0.00614634,-37.3832,34,0.00696113,10,-0.00022977,-1.42732,-6.74535,-0.00874677,12.7619,0.00614634,
2,0,0,1,0,66211.8,0.00404455,0.00371907,-37.4001,34,0.00681156,10,-0.000139093,-1.42713,-12.4318,-0.0047459,6.92547,0.00371907,
2,0,0,1,0,66211.8,0.0016419,0.00128968,-37.447,34,0.0066619,10,-4.82945e-05,-1.42658,-65.7745,-0.000897004,1.30891,0.00128968,
2,0,0,1,0,66211.8,-0.000755208,-0.00113866,-37.4245,34,0.00651217,10,4.26136e-05,-1.42684,30.9528,0.00190613,-2.78121,-0.00113866,
2,0,0,1,0,66211.8,-0.00315231,-0.00351715,-37.3959,34,0.00636253,10,0.000131527,-1.42718,6.78492,0.00869576,-12.6876,-0.00351715,
2,0,0,1,0,66211.8,-0.00555774,-0.00589882,-37.3733,34,0.00621299,10,0.000220459,-1.42744,5.84184,0.0100996,-14.7231,-0.005898823,
2,0,0,1,0,66211.8,-0.00795485,-0.00832397,-37.3251,34,0.00606359,10,0.000310693,-1.428,4.75879,0.0123981,-18.0522,-0.008323973,
2,0,0,1,0,66211.8,-0.010352,-0.0107385,-37.2831,34,0.00591437,10,0.000400366,-1.42849,3.62629,0.0162701,-23.6585,-0.0107385,
2,0,0,1,0,66211.8,-0.0127546,-0.0131573,-37.2219,34,0.00576536,10,0.000489739,-1.4292,3.20123,0.0184304,-26.7547,-0.0131573,
2,0,0,1,0,66211.8,-0.0151573,-0.0155411,-37.1452,34,0.00561664,10,0.000577278,-1.4301,2.75506,0.0214151,-31.0355,-0.0155411,
2,0,0,1,0,66211.9,-0.0175544,-0.0179281,-37.0681,34,0.00546822,10,0.00066456,-1.431,2.49482,0.023649,-34.2029,-0.0179281,
2,0,0,1,0,66211.9,-0.0199515,-0.0203193,-36.9858,34,0.00532012,10,0.000751525,-1.43197,2.29657,0.0256905,-37.0636,-0.0203193,
2,0,0,1,0,66211.9,-0.0223597,-0.0227073,-36.8952,34,0.00517236,10,0.000837792,-1.43303,2.05921,0.0286517,-41.2274,-0.0227073,
2,0,0,1,0,66211.9,-0.0247568,-0.0251569,-36.7888,34,0.00502501,10,0.000925492,-1.43428,1.98486,0.029725,-42.6675,-0.0251569,
2,0,0,1,0,66211.9,-0.0271539,-0.0275248,-36.6725,34,0.00487809,10,0.0010094,-1.43566,1.89003,0.0312165,-44.687,-0.0275248,
2,0,0,1,0,66211.9,-0.0295593,-0.0299457,-36.575,34,0.00473161,10,0.00109526,-1.43682,1.76774,0.0333759,-47.6231,-0.0299457,
2,0,0,1,0,66211.9,-0.0319564,-0.0323051,-36.4663,34,0.00458554,10,0.00117805,-1.43811,1.77568,0.0332267,-47.2609,-0.03230508,
2,0,0,1,0,66211.9,-0.0343535,-0.0346963,-36.3345,34,0.00443996,10,0.00126067,-1.43968,1.68279,0.0350607,-49.7186,-0.0346963,
2,0,0,1,0,66211.9,-0.0367506,-0.0370843,-36.2207,34,0.00429485,10,0.00134322,-1.44104,1.63328,0.0361237,-51.0634,-0.03708433,
2,0,0,1,0,66211.9,-0.0391588,-0.0395487,-36.0976,34,0.00415021,10,0.00142761,-1.44252,1.71149,0.034473,-48.5677,-0.0395487,
2,0,0,1,0,66211.9,-0.0415559,-0.0419113,-35.9758,34,0.00400608,10,0.00150779,-1.44399,1.68396,0.0350364,-49.2022,-0.0419113,
2,0,0,1,0,66211.9,-0.043953,-0.0443407,-35.8661,34,0.00386241,10,0.00159033,-1.44532,1.67092,0.03531,-49.417,-0.0443407,
2,0,0,1,0,66211.9,-0.0463585,-0.0467107,-35.747,34,0.0037192,10,0.00166977,-1.44676,1.68892,0.0349335,-48.7279,-0.0467107,
2,0,0,1,0,66211.9,-0.0487556,-0.0491274,-35.6242,34,0.00357647,10,0.00175013,-1.44825,1.67645,0.0351935,-48.9392,-0.0491274,
2,0,0,1,0,66211.9,-0.0511527,-0.051508,-35.5082,34,0.00343422,10,0.00182895,-1.44967,1.77673,0.0332072,-46.0393,-0.051508,
2,0,0,1,0,66211.9,-0.0535498,-0.0539183,-35.3974,34,0.00329242,10,0.00190857,-1.45103,1.86629,0.0316136,-43.6923,-0.0539183,
2,0,0,1,0,66211.9,-0.055958,-0.0563381,-35.3038,34,0.00315101,10,0.00198895,-1.45218,1.88653,0.0312743,-43.0864,-0.0563381,
2,0,0,1,0,66211.9,-0.0583551,-0.0587601,-35.2034,34,0.00301001,10,0.00206855,-1.45342,2.03484,0.028995,-39.8385,-0.0587601,
2,0,0,1,0,66211.9,-0.0607522,-0.0611015,-35.0948,34,0.00286943,10,0.00214435,-1.45476,2.06562,0.0285629,-39.1437,-0.0611015,
2,0,0,1,0,66211.9,-0.0631604,-0.0635107,-35.0152,34,0.00272922,10,0.00222384,-1.45574,2.22766,0.0264852,-36.2077,-0.0635107,
2,0,0,1,0,66211.9,-0.0655575,-0.0659528,-34.9274,34,0.00258934,10,0.00230356,-1.45683,2.56021,0.023045,-31.4269,-0.0659528,
2,0,0,1,0,66211.9,-0.0679546,-0.0683494,-34.8562,34,0.00244978,10,0.0023824,-1.45772,2.5977,0.0227124,-30.9055,-0.0683494,
2,0,0,1,0,66211.9,-0.0703573,-0.0707417,-34.7919,34,0.0023105,10,0.00246123,-1.45852,2.86786,0.0205728,-27.9358,-0.0707417,
2,0,0,1,0,66211.9,-0.0727571,-0.073117,-34.7184,34,0.00217149,10,0.0025385,-1.45944,3.05717,0.0192989,-26.1585,-0.073117,
2,0,0,1,0,66211.9,-0.0751543,-0.0754923,-34.6609,34,0.00203274,10,0.00261663,-1.46016,3.54994,0.01662,-22.4972,-0.0754923,
2,0,0,1,0,66212,-0.0775514,-0.0779089,-34.6061,34,0.00189421,10,0.00269612,-1.46085,4.39299,0.0134305,-18.1519,-0.0779089,
2,0,0,1,0,66212,-0.0799596,-0.0802896,-34.5771,34,0.00175585,10,0.00277618,-1.46121,4.76908,0.0123714,-16.696,-0.0802896,
2,0,0,1,0,66212,-0.0823567,-0.0827295,-34.5439,34,0.00161762,10,0.0028578,-1.46163,6.48722,0.0090948,-12.2622,-0.0827295,
2,0,0,1,0,66212,-0.0847538,-0.0851303,-34.5,34,0.00147955,10,0.002937,-1.46218,7.30256,0.00807936,-10.886,-0.0851303,
2,0,0,1,0,66212,-0.0871592,-0.0875396,-34.488,34,0.00134159,10,0.00301907,-1.46233,8.71611,0.00676907,-9.11411,-0.0875396,
2,0,0,1,0,66212,-0.0895563,-0.0899361,-34.472,34,0.00120368,10,0.00310028,-1.46253,19.1716,0.00307746,-4.1412,-0.0899361,
2,0,0,1,0,66212,-0.0919534,-0.0923135,-34.4565,34,0.00106582,10,0.0031808,-1.46273,33.199,0.00177716,-2.3912,-0.0923135,
2,0,0,1,0,66212,-0.0943505,-0.0946962,-34.4604,34,0.000927994,10,0.00326327,-1.46268,-262.881,-0.000224436,0.301954,-0.0946962,
2,0,0,1,0,66212,-0.0967587,-0.0971129,-34.4651,34,0.000790138,10,0.00334701,-1.46262,-17.6208,-0.00334831,4.5049,-0.0971129,
2,0,0,1,0,66212,-0.0991558,-0.0995168,-34.4749,34,0.000652269,10,0.00343084,-1.4625,2.64598,0.022298,-29.9133,-0.0995168,
2,0,0,1,0,66212,-0.0999548,-0.100228,-34.4922,34,0.000607449,10,0.00345709,-1.46228,0.025329,2.32935,-2956.04,-0.100228,
2,0,0,1,1,66212,-0.0999548,-0.100438,-34.2887,34,0.000586852,10,0.00344389,-1.46485,-0.0355529,-1.6595,1996.25,-0.100438,
2,0,0,1,1,66212,-0.0979573,-0.0984056,-30.644,34,0.00048774,10,0.00301554,-1.51365,-0.0464438,-1.27035,1454.97,-0.0984056,
2,0,0,1,1,66212,-0.0955546,-0.0959921,-27.4386,34,0.000372079,10,0.00263389,-1.56164,-0.0499957,-1.1801,1285.02,-0.0959921,
2,0,0,1,1,66212,-0.093152,-0.0935266,-24.7413,34,0.000268098,10,0.00231397,-1.60658,-0.0532629,-1.10771,1083.58,-0.0935266,
2,0,0,1,1,66212,-0.0907548,-0.0911566,-22.3615,34,0.000174198,10,0.0020384,-1.6505,-0.054079,-1.091,958.538,-0.0911566,
2,0,0,1,1,66212,-0.0883577,-0.0887749,-20.2085,34,8.93163e-05,10,0.001794,-1.69447,-0.0533674,-1.10554,874.747,-0.0887749,
2,0,0,1,1,66212,-0.0859523,-0.0863689,-18.2144,34,1.26993e-05,10,0.00157316,-1.73959,-0.0521173,-1.13206,805.762,-0.0863689,
2,0,0,1,1,66212,-0.0835552,-0.0839681,-16.38,34,-5.62716e-05,10,0.0013754,-1.78569,-0.0501814,-1.17573,750.166,-0.0839681,
2,0,0,1,1,66212,-0.0811581,-0.0815928,-14.6553,34,-0.00011815,10,0.00119577,-1.83401,-0.0480383,-1.22819,699.234,-0.0815928,
2,0,0,1,1,66212,-0.0787554,-0.0791857,-13.0149,34,-0.000173312,10,0.00103059,-1.88556,-0.0449931,-1.31131,662.146,-0.0791857,
2,0,0,1,1,66212,-0.0763528,-0.0767351,-11.4781,34,-0.000222124,10,0.000880774,-1.94013,-0.042007,-1.40453,623.719,-0.0767351,
2,0,0,1,1,66212,-0.0739557,-0.0743576,-10.0165,34,-0.000264953,10,0.000744804,-1.99928,-0.0385338,-1.53112,590.836,-0.0743576,
2,0,0,1,1,66212,-0.0715586,-0.0719346,-8.6313,34,-0.000302101,10,0.000620889,-2.06392,-0.0343633,-1.71695,567.461,-0.0719346,
2,0,0,1,1,66212,-0.0691532,-0.0695243,-7.30662,34,-0.000333835,10,0.000507988,-2.13628,-0.0303389,-1.9447,539.635,-0.0695243,
2,0,0,1,1,66212,-0.0667561,-0.0671479,-6.03778,34,-0.000360368,10,0.000405424,-2.21912,-0.0257605,-2.29033,518.117,-0.0671479,
2,0,0,1,1,66212.1,-0.0643589,-0.064745,-4.82921,34,-0.000381951,10,0.000312667,-2.31612,-0.0209221,-2.81999,497.416,-0.064745,
2,0,0,1,1,66212.1,-0.0619563,-0.0623453,-3.66294,34,-0.000398808,10,0.000228367,-2.43617,-0.0157554,-3.74476,475.221,-0.0623453,
2,0,0,1,1,66212.1,-0.0595536,-0.0599647,-2.55154,34,-0.000411108,10,0.000153003,-2.5932,-0.00931097,-6.33661,457.858,-0.0599647,
2,0,0,1,1,66212.1,-0.0571565,-0.057582,-1.49184,34,-0.000419079,10,8.59034e-05,-2.82628,-0.0114891,-5.1353,437.1,-0.057582,
2,0,0,1,1,66212.1,-0.0547594,-0.0551908,-0.454724,34,-0.000422862,10,2.50966e-05,-3.34225,-0.0403082,-1.46372,418.053,-0.0551908,
2,1,0,1,1,66212.1,-0.0523512,-0.0527423,0.534553,34,-0.00042258,10,-2.81936e-05,-3.27201,0.0468618,1.25902,404.057,-0.0527423,
2,1,0,1,1,66212.1,-0.0499541,-0.0503394,1.47235,34,-0.000418459,10,-7.41171e-05,-2.83199,0.0111636,5.28504,389.285,-0.0503394,
2,1,0,1,1,66212.1,-0.047557,-0.0479683,2.39261,34,-0.00041063,10,-0.00011477,-2.62113,0.0107833,5.47144,375.014,-0.0479683,
2,1,0,1,1,66212.1,-0.0451544,-0.0456302,3.26709,34,-0.000399214,10,-0.000149078,-2.48584,0.018233,3.23589,362.014,-0.04563015,
2,1,0,1,1,66212.1,-0.0427545,-0.0431764,4.12191,34,-0.000384331,10,-0.000177969,-2.3849,0.0252121,2.34015,348.838,-0.0431764,
2,1,0,1,1,66212.1,-0.0403574,-0.0407449,4.94572,34,-0.0003661,10,-0.000201513,-2.30577,0.0323289,1.82499,334.824,-0.0407449,
2,1,0,1,1,66212.1,-0.0379603,-0.0384151,5.72514,34,-0.000344668,10,-0.000219932,-2.24221,0.0392662,1.50257,324.697,-0.0384151,
2,1,0,1,1,66212.1,-0.0355521,-0.0359645,6.50336,34,-0.000320124,10,-0.00023389,-2.18686,0.0463233,1.27366,314.77,-0.0359645,
2,1,0,1,1,66212.1,-0.033155,-0.0335606,7.24412,34,-0.000292546,10,-0.000243117,-2.14001,0.0537227,1.09823,303.851,-0.0335606,
2,1,0,1,1,66212.1,-0.0307579,-0.0311779,7.95712,34,-0.000262068,10,-0.000248086,-2.09924,0.0615059,0.959258,292.839,-0.0311779,
2,1,0,1,1,66212.1,-0.0283524,-0.0287739,8.65463,34,-0.000228767,10,-0.000249028,-2.06275,0.0693779,0.850414,283.045,-0.0287739,
2,1,0,1,1,66212.1,-0.0259553,-0.0263859,9.30837,34,-0.000192742,10,-0.000245609,-2.03113,0.077978,0.756624,271.787,-0.0263859,
2,1,0,1,1,66212.1,-0.0235582,-0.0239798,9.95592,34,-0.000154141,10,-0.000238741,-2.00192,0.0862236,0.684267,263.421,-0.0239798,
2,1,0,1,1,66212.1,-0.0211611,-0.0215451,10.5752,34,-0.000112999,10,-0.000227843,-1.97571,0.0947995,0.622366,254.729,-0.0215451,
2,1,0,1,1,66212.1,-0.0187529,-0.0191815,11.1815,34,-6.9408e-05,10,-0.000214477,-1.9515,0.104355,0.565379,244.834,-0.0191815,
2,1,0,1,1,66212.1,-0.0163558,-0.0167531,11.7621,34,-2.34533e-05,10,-0.000197052,-1.92951,0.113013,0.522064,237.987,-0.0167531,
2,1,0,1,1,66212.1,-0.0139587,-0.0143238,12.32,34,2.47839e-05,10,-0.000176469,-1.90939,0.123405,0.478102,228.547,-0.0143238,
2,1,0,1,1,66212.1,-0.0115505,-0.0119421,12.8606,34,7.51904e-05,10,-0.000153582,-1.89074,0.132697,0.444621,221.989,-0.0119421,
2,1,0,1,1,66212.1,-0.0091534,-0.00955405,13.3818,34,0.000127736,10,-0.00012785,-1.87349,0.143535,0.411051,213.619,-0.00955405,
2,1,0,1,1,66212.1,-0.00675629,-0.00719994,13.8828,34,0.000182329,10,-9.99555e-05,-1.85752,0.155148,0.380281,205.15,-0.00719994,
2,1,0,1,1,66212.2,-0.00435919,-0.00475252,14.3646,34,0.000238883,10,-6.82683e-05,-1.84271,0.17161,0.343802,191.091,-0.00475252,
2,1,0,1,1,66212.2,-0.00195376,-0.00233055,14.8324,34,0.000297361,10,-3.45676e-05,-1.82879, , , ,-0.00233055,
2,1,0,0,1,66212.2,-7.54729e-05,-0.000363498,15.138,34,0.000343867,10,-5.50264e-06,-1.81993, , , ,-0.000363498,