File: Figure_codes/Fig_3-5/rawdata_trumpetplot_data/after 10th/20221101_1-115_003_TrumpetPlot_ParaChange_from10_every3_13_CV_C01_12.csv
mode,ox/red,error,control changes,counter inc.,time/s,control/V,Ewe/V,<I>/mA,cycle number,(Q-Qo)/C,I Range,P/W,log(|I|),Tafel slope mV/dec,alpha_eff,dI/d(E-IR),E-IR/V,
2,1,0,1,0,24839.4,2.44065e-05,-0.000325324,21.3451,13,0.0000000E+000,10,-6.94405e-06,-1.6707, , , ,-0.000325324,
2,1,0,1,0,24839.4,0.00266289,0.00226101,22.7124,13,6.88272e-05,10,5.13529e-05,-1.64374, , , ,0.00226101,
2,1,0,1,0,24839.4,0.00586735,0.00553448,23.8561,13,0.000162161,10,0.000132031,-1.6224, , , ,0.00553448,
2,1,0,1,0,24839.4,0.00906349,0.00870086,24.801,13,0.00025958,10,0.00021579,-1.60553,0.194226,0.30377,290.841,0.008700856,
2,1,0,1,0,24839.4,0.0122624,0.0118577,25.6476,13,0.000360575,10,0.000304121,-1.59095,0.226046,0.261009,259.546,0.0118577,
2,1,0,1,0,24839.4,0.0154641,0.0151047,26.4478,13,0.000464863,10,0.000399485,-1.57761,0.252769,0.233415,239.62,0.0151047,
2,1,0,1,0,24839.4,0.0186602,0.018323,27.1753,13,0.000572211,10,0.000497933,-1.56582,0.281185,0.209827,221.473,0.018323,
2,1,0,1,0,24839.4,0.0218675,0.0214989,27.8676,13,0.000682377,10,0.000599123,-1.5549,0.306831,0.192288,208.331,0.0214989,
2,1,0,1,0,24839.5,0.0250636,0.0247077,28.4935,13,0.000795189,10,0.000704008,-1.54525,0.330089,0.178739,198.275,0.0247077,
2,1,0,1,0,24839.5,0.0282597,0.0279175,29.1172,13,0.000910479,10,0.000812879,-1.53585,0.357249,0.165151,187.266,0.0279175,
2,1,0,1,0,24839.5,0.031467,0.0311072,29.7101,13,0.00102821,10,0.000924201,-1.5271,0.372914,0.158213,183.068,0.0311072,
2,1,0,1,0,24839.5,0.0346631,0.0343532,30.2748,13,0.00114825,10,0.00104003,-1.51892,0.397989,0.148245,174.865,0.0343532,
2,1,0,1,0,24839.5,0.0378704,0.0374962,30.8347,13,0.00127052,10,0.00115618,-1.51096,0.421599,0.139944,168.091,0.0374962,
2,1,0,1,0,24839.5,0.0410665,0.04074,31.3593,13,0.00139494,10,0.00127758,-1.50363,0.434927,0.135655,165.832,0.04074,
2,1,0,1,0,24839.5,0.0442626,0.043953,31.8694,13,0.00152145,10,0.00140076,-1.49663,0.454357,0.129854,161.457,0.043953,
2,1,0,1,0,24839.5,0.0474671,0.0471448,32.3961,13,0.00165003,10,0.00152731,-1.48951,0.462716,0.127508,161.128,0.0471448,
2,1,0,1,0,24839.5,0.0506632,0.0503303,32.9068,13,0.00178069,10,0.00165621,-1.48271,0.471848,0.12504,160.445,0.0503303,
2,1,0,1,0,24839.5,0.0538621,0.053538,33.4215,13,0.00191338,10,0.00178932,-1.47597,0.483629,0.121994,159.012,0.053538,
2,1,0,1,0,24839.5,0.0570638,0.0566652,33.909,13,0.00204812,10,0.00192146,-1.46968,0.491728,0.119985,158.79,0.0566652,
2,1,0,1,0,24839.5,0.06026,0.0598803,34.4212,13,0.00218483,10,0.00206115,-1.46317,0.496499,0.118832,159.688,0.0598803,
2,1,0,1,0,24839.5,0.0634672,0.0630976,34.9341,13,0.00232361,10,0.00220426,-1.45675,0.499328,0.118159,161.075,0.0630976,
2,1,0,1,0,24839.5,0.0666633,0.066334,35.4648,13,0.00246447,10,0.00235252,-1.4502,0.501131,0.117734,162.901,0.06633395,
2,1,0,1,0,24839.5,0.0698595,0.0694674,35.9711,13,0.00260742,10,0.00249882,-1.44405,0.506258,0.116541,163.596,0.06946744,
2,1,0,1,0,24839.5,0.0730667,0.0726794,36.5061,13,0.00275244,10,0.00265325,-1.43763,0.506023,0.116595,166.145,0.0726794,
2,1,0,1,0,24839.5,0.0762629,0.0758744,37.0244,13,0.00289957,10,0.0028092,-1.43151,0.508928,0.11593,167.573,0.0758744,
2,1,0,1,0,24839.5,0.0794701,0.0790684,37.5806,13,0.00304881,10,0.00297144,-1.42504,0.510811,0.115503,169.415,0.0790684,
2,1,0,1,0,24839.5,0.0826662,0.0823227,38.1253,13,0.00320027,10,0.00313858,-1.41879,0.509594,0.115778,172.225,0.0823227,
2,1,0,1,0,24839.5,0.0858624,0.0855209,38.6817,13,0.00335392,10,0.0033081,-1.41249,0.517443,0.114022,172.088,0.0855209,
2,1,0,1,0,24839.5,0.0890668,0.0886714,39.2283,13,0.0035098,10,0.00347843,-1.4064,0.516316,0.114271,174.952,0.0886714,
2,1,0,1,0,24839.5,0.092263,0.0918749,39.7844,13,0.00366788,10,0.00365519,-1.40029,0.520906,0.113264,175.918,0.09187489,
2,1,0,1,0,24839.5,0.0954674,0.0950731,40.356,13,0.00382821,10,0.00383677,-1.39409,0.520024,0.113456,178.696,0.0950731,
2,1,0,1,0,24839.5,0.0986636,0.0983264,40.9344,13,0.00399086,10,0.00402493,-1.38791,0.521454,0.113145,180.735,0.0983264,
2,1,0,1,0,24839.5,0.10186,0.101428,41.5079,13,0.00415581,10,0.00421007,-1.38187,0.523013,0.112808,182.773,0.1014281,
2,1,0,1,0,24839.6,0.105067,0.104674,42.0977,13,0.00432307,10,0.00440653,-1.37574,0.524037,0.112587,185,0.104674,
2,1,0,1,0,24839.6,0.108263,0.107879,42.6965,13,0.00449272,10,0.00460604,-1.36961,0.530437,0.111229,185.314,0.107879,
2,1,0,1,0,24839.6,0.111465,0.111085,43.2948,13,0.00466475,10,0.00480941,-1.36356,0.533509,0.110589,186.802,0.111085,
2,1,0,1,0,24839.6,0.114666,0.114306,43.8943,13,0.00483922,10,0.00501737,-1.35759,0.543113,0.108633,186.023,0.114306,
2,1,0,1,0,24839.6,0.117863,0.117472,44.4884,13,0.00501604,10,0.00522614,-1.35175,0.552591,0.10677,185.274,0.117472,
2,1,0,1,0,24839.6,0.12107,0.120691,45.08,13,0.00519524,10,0.00544077,-1.34602,0.548855,0.107496,189.157,0.120691,
2,1,0,1,0,24839.6,0.124266,0.123812,45.6528,13,0.00537676,10,0.00565237,-1.34053,0.534124,0.110461,197.174,0.123812,
2,1,0,1,0,24839.6,0.127462,0.127045,46.3041,13,0.00556068,10,0.00588272,-1.33438,0.522951,0.112821,204.184,0.127045,
2,1,0,1,0,24839.6,0.130667,0.130265,47.0108,13,0.00574738,10,0.00612385,-1.3278,0.511956,0.115244,211.394,0.130265,
2,1,0,1,0,24839.6,0.133863,0.133478,47.6908,13,0.00593685,10,0.00636566,-1.32157,0.509721,0.11575,215.356,0.133478,
2,1,0,1,0,24839.6,0.137067,0.136694,48.3759,13,0.00612903,10,0.0066127,-1.31537,0.516629,0.114202,215.632,0.136694,
2,1,0,1,0,24839.6,0.140263,0.139885,49.0692,13,0.006324,10,0.00686403,-1.30919,0.514312,0.114716,219.76,0.1398848,
2,1,0,1,0,24839.6,0.143459,0.143097,49.7778,13,0.00652176,10,0.00712304,-1.30296,0.511762,0.115288,224.035,0.143097,
2,1,0,1,0,24839.6,0.146667,0.146299,50.5084,13,0.00672244,10,0.00738934,-1.29664,0.518636,0.11376,224.197,0.1462992,
2,1,0,1,0,24839.6,0.149863,0.149468,51.2377,13,0.00692601,10,0.00765838,-1.29041,0.520492,0.113354,226.57,0.149468,
2,1,0,1,0,24839.6,0.153064,0.152757,51.9551,13,0.00713248,10,0.00793651,-1.28437,0.532445,0.11081,224.586,0.152757,
2,1,0,1,0,24839.6,0.156266,0.155909,52.6805,13,0.00734182,10,0.00821335,-1.27835,0.545525,0.108153,222.246,0.1559086,
2,1,0,1,0,24839.6,0.159462,0.159102,53.3836,13,0.00755403,10,0.00849342,-1.27259,0.55915,0.105517,219.672,0.1591015,
2,1,0,1,0,24839.6,0.16267,0.16233,54.0963,13,0.00776904,10,0.00878148,-1.26683,0.586508,0.100595,212.098,0.16233,
2,1,0,1,0,24839.6,0.165866,0.165517,54.7581,13,0.00798683,10,0.00906339,-1.26155,0.613428,0.0961807,205.271,0.165517,
2,1,0,1,0,24839.6,0.169062,0.168693,55.3921,13,0.0082072,10,0.00934424,-1.25655,0.650546,0.0906931,195.867,0.168693,
2,1,0,1,0,24839.6,0.172266,0.171892,56.0092,13,0.00843009,10,0.00962754,-1.25174,0.687248,0.0858497,187.445,0.171892,
2,1,0,1,0,24839.6,0.175462,0.175104,56.5983,13,0.00865537,10,0.00991059,-1.2472,0.739806,0.0797506,175.899,0.1751041,
2,1,0,1,0,24839.6,0.178667,0.178286,57.1516,13,0.00888294,10,0.0101894,-1.24297,0.818147,0.0721142,160.516,0.178286,
2,1,0,1,0,24839.6,0.181863,0.181548,57.6533,13,0.00911261,10,0.0104668,-1.23918,0.915785,0.0644256,144.629,0.181548,
2,1,0,1,0,24839.7,0.185059,0.184739,58.0713,13,0.00934413,10,0.010728,-1.23604,1.07789,0.0547367,123.777,0.184739,
2,1,0,1,0,24839.7,0.188266,0.187948,58.4559,13,0.00957727,10,0.0109866,-1.23317,1.31063,0.0450166,102.434,0.187948,
2,1,0,1,0,24839.7,0.191463,0.191125,58.7407,13,0.00981172,10,0.0112268,-1.23106,1.76207,0.0334833,76.5226,0.191125,
2,1,0,1,0,24839.7,0.194664,0.194324,58.962,13,0.0100472,10,0.0114577,-1.22943,3.00685,0.0196218,44.9837,0.194324,
2,1,0,1,0,24839.7,0.197866,0.197538,59.0507,13,0.0102832,10,0.0116648,-1.22877,10.5141,0.00561154,12.8822,0.197538,
2,1,0,1,0,24839.7,0.201062,0.200708,59.0298,13,0.0105194,10,0.0118477,-1.22893,-6.00767,-0.00982078,-22.5432,0.2007076,
2,1,0,1,0,24839.7,0.204269,0.203879,58.905,13,0.0107553,10,0.0120095,-1.22985,-2.29577,-0.0256995,-58.8473,0.203879,
2,1,0,1,0,24839.7,0.207465,0.207141,58.673,13,0.0109904,10,0.0121536,-1.23156,-1.43242,-0.0411891,-93.9181,0.207141,
2,1,0,1,0,24839.7,0.210662,0.210349,58.2968,13,0.0112244,10,0.0122627,-1.23435,-1.0115,-0.0583291,-132.147,0.2103488,
2,1,0,1,0,24839.7,0.213866,0.21353,57.8256,13,0.0114566,10,0.0123475,-1.23788,-0.782478,-0.0754014,-169.436,0.21353,
2,1,0,1,0,24839.7,0.217062,0.216747,57.2046,13,0.0116866,10,0.0123989,-1.24257,-0.640827,-0.0920686,-204.731,0.2167473,
2,1,0,1,0,24839.7,0.220267,0.219977,56.4981,13,0.011914,10,0.0124283,-1.24797,-0.544397,-0.108377,-238.061,0.219977,
2,1,0,1,0,24839.7,0.223463,0.223134,55.6793,13,0.0121383,10,0.012424,-1.25431,-0.478459,-0.123312,-266.983,0.223134,
2,1,0,1,0,24839.7,0.226659,0.226361,54.771,13,0.0123591,10,0.012398,-1.26145,-0.422246,-0.139729,-297.659,0.226361,
2,1,0,1,0,24839.7,0.229866,0.229557,53.7846,13,0.0125762,10,0.0123466,-1.26934,-0.388538,-0.151851,-317.739,0.229557,
2,1,0,1,0,24839.7,0.233062,0.232688,52.7145,13,0.0127891,10,0.0122661,-1.27807,-0.358618,-0.164521,-337.63,0.232688,
2,1,0,1,0,24839.7,0.236264,0.235964,51.6028,13,0.0129977,10,0.0121764,-1.28733,-0.336253,-0.175463,-352.66,0.235964,
2,1,0,1,0,24839.7,0.239466,0.239139,50.4568,13,0.0132017,10,0.0120662,-1.29708,-0.325531,-0.181242,-356.347,0.239139,
2,1,0,1,0,24839.7,0.242662,0.242328,49.281,13,0.013401,10,0.0119421,-1.30732,-0.308842,-0.191036,-366.962,0.2423275,
2,1,0,1,0,24839.7,0.245869,0.2456,48.1135,13,0.0135957,10,0.0118167,-1.31773,-0.300958,-0.196041,-367.761,0.2456,
2,1,0,1,0,24839.7,0.249065,0.248747,46.9118,13,0.0137856,10,0.0116692,-1.32872,-0.296667,-0.198876,-364.093,0.248747,
2,1,0,1,0,24839.7,0.252261,0.251922,45.7557,13,0.0139708,10,0.0115269,-1.33956,-0.293492,-0.201028,-359.171,0.251922,
2,1,0,1,0,24839.7,0.255466,0.255139,44.6163,13,0.0141514,10,0.0113834,-1.35051,-0.296136,-0.199233,-347.195,0.255139,
2,1,0,1,0,24839.7,0.258662,0.258377,43.5245,13,0.0143276,10,0.0112457,-1.36127,-0.29802,-0.197973,-336.565,0.258377,
2,1,0,1,0,24839.7,0.261866,0.261547,42.4676,13,0.0144995,10,0.0111073,-1.37194,-0.30124,-0.195857,-324.887,0.261547,
2,1,0,1,0,24839.8,0.265063,0.264751,41.4379,13,0.0146672,10,0.0109707,-1.3826,-0.308816,-0.191052,-309.504,0.264751,
2,1,0,1,0,24839.8,0.268259,0.267934,40.4594,13,0.0148309,10,0.0108404,-1.39298,-0.315301,-0.187123,-296.087,0.2679342,
2,1,0,1,0,24839.8,0.271466,0.271192,39.5582,13,0.0149908,10,0.0107279,-1.40276,-0.326998,-0.180429,-279.039,0.271192,
2,1,0,1,0,24839.8,0.274662,0.274341,38.6796,13,0.0151472,10,0.0106114,-1.41252,-0.33654,-0.175314,-265.041,0.274341,
2,1,0,1,0,24839.8,0.277869,0.277536,37.8703,13,0.0153002,10,0.0105104,-1.4217,-0.346451,-0.170298,-252.057,0.277536,
2,1,0,1,0,24839.8,0.281065,0.28074,37.0654,13,0.01545,10,0.0104057,-1.43103,-0.361152,-0.163366,-236.818,0.28074,
2,1,0,1,0,24839.8,0.284262,0.28397,36.3374,13,0.0155967,10,0.0103187,-1.43965,-0.37335,-0.158029,-224.606,0.28397,
2,1,0,1,0,24839.8,0.287469,0.287135,35.6498,13,0.0157406,10,0.0102363,-1.44794,-0.391544,-0.150685,-210.002,0.287135,
2,1,0,1,0,24839.8,0.290665,0.290297,35.0042,13,0.0158818,10,0.0101616,-1.45588,-0.409749,-0.143991,-197.054,0.290297,
2,1,0,1,0,24839.8,0.293861,0.29349,34.3878,13,0.0160205,10,0.0100925,-1.4636,-0.424992,-0.138826,-186.922,0.29349,
2,1,0,1,0,24839.8,0.297066,0.296721,33.8247,13,0.0161569,10,0.0100365,-1.47077,-0.430484,-0.137055,-182.606,0.296721,
2,1,0,1,0,24839.8,0.299638,0.299298,33.3762,13,0.0162644,10,0.00998944,-1.47656,-0.110613,-0.533391,-677.27,0.299298,
2,1,0,1,0,24839.8,0.300012,0.299689,33.2891,13,0.0162811,10,0.00997638,-1.4777,0.00822271,7.17525,8114.59,0.2996892,
2,1,0,1,0,24839.8,0.298983,0.298861,30.7502,13,0.0163217,10,0.00919004,-1.51215,0.0310875,1.89787,1933.32,0.298861,
2,1,0,1,0,24839.8,0.295787,0.295586,24.6177,13,0.0164312,10,0.00727664,-1.60875,0.0334442,1.76413,1628.79,0.295586,
2,1,0,1,0,24839.8,0.292579,0.292364,19.9704,13,0.0165196,10,0.00583862,-1.69961,0.0338725,1.74183,1390.5,0.292364,
2,1,0,1,0,24839.8,0.289383,0.289131,16.0915,13,0.0165912,10,0.00465254,-1.7934,0.032192,1.83275,1152.74,0.289131,
2,1,0,1,0,24839.8,0.286187,0.285925,12.7628,13,0.0166485,10,0.00364921,-1.89405,0.0293806,2.00813,986.209,0.285925,
2,1,0,1,0,24839.8,0.282983,0.282768,9.84161,13,0.0166933,10,0.00278289,-2.00693,0.0253098,2.33112,863.797,0.282768,
2,1,0,1,0,24839.8,0.279786,0.279507,7.2913,13,0.0167272,10,0.00203797,-2.1372,0.0203198,2.90357,762.678,0.279507,
2,1,0,1,0,24839.8,0.276582,0.276299,5.00723,13,0.0167515,10,0.00138349,-2.3004,0.0137352,4.29553,676.724,0.276299,
2,1,0,1,0,24839.8,0.273386,0.273106,2.98589,13,0.0167672,10,0.000815464,-2.52493,0.011095,5.3177,610.561,0.2731058,
2,1,0,1,0,24839.8,0.27019,0.26991,1.13998,13,0.0167753,10,0.000307693,-2.9431,0.0322658,1.82856,547.189,0.26991,
2,0,0,1,0,24839.8,0.266982,0.266724,-0.513627,13,0.0167763,10,-0.000136997,-3.28935,-0.2475,-0.238384,496.812,0.266724,
2,0,0,1,0,24839.8,0.263786,0.263482,-2.00615,13,0.016771,10,-0.000528583,-2.69764,-0.0210938,-2.79703,449.308,0.263482,
2,0,0,1,0,24839.8,0.260585,0.260327,-3.36284,13,0.0167601,10,-0.000875437,-2.47329,-0.0122681,-4.80922,407.193,0.260327,
2,0,0,1,0,24839.8,0.257383,0.25709,-4.61981,13,0.016744,10,-0.00118771,-2.33538,-0.0240384,-2.4544,376.951,0.25709,
2,0,0,1,0,24839.9,0.254187,0.253849,-5.7564,13,0.0167231,10,-0.00146126,-2.23985,-0.0353395,-1.66952,342.9,0.253849,
2,0,0,1,0,24839.9,0.25098,0.250702,-6.82359,13,0.0166978,10,-0.00171069,-2.16599,-0.0467009,-1.26336,317.197,0.250702,
2,0,0,1,0,24839.9,0.247783,0.247472,-7.77093,13,0.0166685,10,-0.00192308,-2.10953,-0.0586219,-1.00645,293.512,0.247472,
2,0,0,1,0,24839.9,0.244587,0.244325,-8.6689,13,0.0166356,10,-0.00211803,-2.06204,-0.0720954,-0.81836,269.336,0.244325,
2,0,0,1,0,24839.9,0.241383,0.241094,-9.50002,13,0.0165991,10,-0.0022904,-2.02228,-0.0848707,-0.695175,252.1,0.241094,
2,0,0,1,0,24839.9,0.238187,0.237877,-10.2777,13,0.0165595,10,-0.00244483,-1.9881,-0.0993149,-0.59407,234.103,0.237877,
2,0,0,1,0,24839.9,0.234982,0.234663,-11,13,0.0165168,10,-0.00258129,-1.95861,-0.113741,-0.518724,219.451,0.234663,
2,0,0,1,0,24839.9,0.231786,0.231486,-11.6746,13,0.0164714,10,-0.00270252,-1.93276,-0.129066,-0.457132,205.977,0.231486,
2,0,0,1,0,24839.9,0.22859,0.228331,-12.3009,13,0.0164233,10,-0.00280868,-1.91006,-0.145337,-0.405953,193.195,0.228331,
2,0,0,1,0,24839.9,0.225383,0.22508,-12.9136,13,0.0163728,10,-0.00290659,-1.88895,-0.160383,-0.367869,184.005,0.22508,
2,0,0,1,0,24839.9,0.222187,0.221867,-13.4721,13,0.01632,10,-0.00298902,-1.87056,-0.177975,-0.331507,173.141,0.221867,
2,0,0,1,0,24839.9,0.218979,0.218681,-14.0307,13,0.0162649,10,-0.00306826,-1.85292,-0.196496,-0.30026,163.289,0.218681,
2,0,0,1,0,24839.9,0.215783,0.215479,-14.5261,13,0.0162078,10,-0.00313007,-1.83785,-0.212365,-0.277824,156.672,0.215479,
2,0,0,1,0,24839.9,0.212587,0.212253,-15.0081,13,0.0161486,10,-0.00318551,-1.82368,-0.23048,-0.255987,149.533,0.2122533,
2,0,0,1,0,24839.9,0.20938,0.209093,-15.4734,13,0.0160876,10,-0.00323538,-1.81041,-0.247241,-0.238634,143.676,0.209093,
2,0,0,1,0,24839.9,0.206184,0.205876,-15.9456,13,0.0160248,10,-0.00328281,-1.79736,-0.264819,-0.222794,138.034,0.205876,
2,0,0,1,0,24839.9,0.202988,0.202681,-16.3649,13,0.0159601,10,-0.00331685,-1.78609,-0.283295,-0.208263,132.547,0.202681,
2,0,0,1,0,24839.9,0.199783,0.199452,-16.7751,13,0.0158938,10,-0.00334582,-1.77534,-0.302574,-0.194993,127.466,0.199452,
2,0,0,1,0,24839.9,0.196587,0.196281,-17.1715,13,0.0158258,10,-0.00337046,-1.76519,-0.316741,-0.186272,124.698,0.196281,
2,0,0,1,0,24839.9,0.193382,0.193048,-17.5807,13,0.0157563,10,-0.00339392,-1.75496,-0.328107,-0.179819,123.168,0.193048,
2,0,0,1,0,24839.9,0.190186,0.189836,-17.9666,13,0.0156851,10,-0.00341071,-1.74553,-0.341346,-0.172845,120.991,0.189836,
2,0,0,1,0,24839.9,0.18699,0.186664,-18.3502,13,0.0156125,10,-0.00342531,-1.73636,-0.355386,-0.166017,118.753,0.186664,
2,0,0,1,0,24839.9,0.183783,0.183455,-18.7235,13,0.0155383,10,-0.00343491,-1.72761,-0.364008,-0.162084,118.371,0.183455,
2,0,0,1,0,24839.9,0.180587,0.180277,-19.0973,13,0.0154626,10,-0.0034428,-1.71903,-0.372026,-0.158591,118.201,0.180277,
2,0,0,1,0,24839.9,0.17738,0.177055,-19.4795,13,0.0153854,10,-0.00344895,-1.71042,-0.376754,-0.156601,119.027,0.177055,
2,0,0,1,0,24840,0.174183,0.173849,-19.8649,13,0.0153067,10,-0.00345349,-1.70191,-0.377641,-0.156233,121.115,0.173849,
2,0,0,1,0,24840,0.170987,0.170654,-20.2472,13,0.0152264,10,-0.00345525,-1.69364,-0.379407,-0.155506,122.918,0.170654,
2,0,0,1,0,24840,0.16778,0.167453,-20.6504,13,0.0151446,10,-0.00345798,-1.68507,-0.375214,-0.157244,126.802,0.167453,
2,0,0,1,0,24840,0.164584,0.164292,-21.0483,13,0.0150611,10,-0.00345807,-1.67678,-0.368614,-0.160059,131.676,0.164292,
2,0,0,1,0,24840,0.161382,0.161097,-21.4818,13,0.0149761,10,-0.00346066,-1.66793,-0.359105,-0.164297,138.001,0.1610972,
2,0,0,1,0,24840,0.158183,0.157839,-21.9346,13,0.0148892,10,-0.00346212,-1.65887,-0.346081,-0.170481,146.175,0.157839,
2,0,0,1,0,24840,0.154987,0.154644,-22.4182,13,0.0148004,10,-0.00346683,-1.6494,-0.334849,-0.176199,154.431,0.154644,
2,0,0,1,0,24840,0.151783,0.151497,-22.9186,13,0.0147097,10,-0.00347211,-1.63981,-0.318088,-0.185483,166.334,0.1514973,
2,0,0,1,0,24840,0.148587,0.148268,-23.463,13,0.0146169,10,-0.00347882,-1.62962,-0.299841,-0.196771,180.863,0.148268,
2,0,0,1,0,24840,0.145385,0.145097,-24.054,13,0.0145218,10,-0.00349015,-1.61881,-0.285226,-0.206854,194.926,0.145097,
2,0,0,1,0,24840,0.142183,0.1419,-24.7231,13,0.0144242,10,-0.0035082,-1.6069,-0.268834,-0.219466,212.423,0.1419,
2,0,0,1,0,24840,0.138987,0.138684,-25.4161,13,0.0143239,10,-0.00352482,-1.59489,-0.253827,-0.232442,231.387,0.138684,
2,0,0,1,0,24840,0.13578,0.135435,-26.189,13,0.0142206,10,-0.00354692,-1.58188,-0.242244,-0.243556,249.89,0.135435,
2,0,0,1,0,24840,0.132584,0.132288,-27.0177,13,0.0141141,10,-0.00357413,-1.56835,-0.228983,-0.257661,272.774,0.132288,
2,0,0,1,0,24840,0.129388,0.129102,-27.9212,13,0.0140042,10,-0.00360467,-1.55407,-0.217148,-0.271704,297.287,0.129102,
2,0,0,1,0,24840,0.12618,0.12587,-28.9115,13,0.0138904,10,-0.0036391,-1.53893,-0.209127,-0.282126,319.391,0.12587,
2,0,0,1,0,24840,0.122984,0.122724,-29.9679,13,0.0137726,10,-0.00367778,-1.52334,-0.203096,-0.290503,340.729,0.122724,
2,0,0,1,0,24840,0.119782,0.119527,-31.0935,13,0.0136504,10,-0.00371651,-1.50733,-0.19925,-0.29611,359.969,0.119527,
2,0,0,1,0,24840,0.116584,0.116275,-32.2916,13,0.0135235,10,-0.0037547,-1.49091,-0.197928,-0.298088,375.927,0.116275,
2,0,0,1,0,24840,0.113387,0.113124,-33.4997,13,0.0133918,10,-0.00378963,-1.47496,-0.200655,-0.294037,384.415,0.113124,
2,0,0,1,0,24840,0.110183,0.109923,-34.7802,13,0.0132551,10,-0.00382314,-1.45867,-0.204023,-0.289183,391.97,0.109923,
2,0,0,1,0,24840,0.106987,0.106696,-36.0259,13,0.0131134,10,-0.00384382,-1.44339,-0.210418,-0.280394,393.579,0.1066962,
2,0,0,1,0,24840,0.103785,0.103522,-37.2902,13,0.0129666,10,-0.00386037,-1.42841,-0.219191,-0.269172,391.103,0.103522,
2,0,0,1,0,24840,0.100583,0.100288,-38.5517,13,0.0128148,10,-0.00386628,-1.41396,-0.228911,-0.257742,386.664,0.100288,
2,0,0,1,0,24840,0.0973873,0.0971059,-39.793,13,0.012658,10,-0.00386414,-1.40019,-0.241519,-0.244287,378.117,0.0971059,
2,0,0,1,0,24840.1,0.0941801,0.0939353,-40.9601,13,0.0124963,10,-0.00384759,-1.38764,-0.251453,-0.234636,374.428,0.0939353,
2,0,0,1,0,24840.1,0.0909839,0.0907233,-42.1298,13,0.01233,10,-0.00382215,-1.37541,-0.266096,-0.221724,364.069,0.0907233,
2,0,0,1,0,24840.1,0.0877878,0.0875548,-43.3195,13,0.012159,10,-0.00379283,-1.36332,-0.279352,-0.211203,356.048,0.08755479,
2,0,0,1,0,24840.1,0.0845806,0.0843439,-44.4393,13,0.0119833,10,-0.00374818,-1.35223,-0.294393,-0.200412,346.538,0.0843439,
2,0,0,1,0,24840.1,0.0813844,0.08115,-45.5122,13,0.0118033,10,-0.00369332,-1.34187,-0.319822,-0.184477,326.711,0.08115,
2,0,0,1,0,24840.1,0.0781828,0.0779507,-46.5559,13,0.0116191,10,-0.00362907,-1.33202,-0.344914,-0.171057,309.706,0.0779507,
2,0,0,1,0,24840.1,0.0749838,0.0747493,-47.5031,13,0.0114309,10,-0.00355083,-1.32328,-0.373685,-0.157887,291.785,0.0747493,
2,0,0,1,0,24840.1,0.0717877,0.0715511,-48.4012,13,0.0112389,10,-0.00346316,-1.31514,-0.407977,-0.144616,272.468,0.0715511,
2,0,0,1,0,24840.1,0.0685832,0.0683604,-49.2441,13,0.0110435,10,-0.00336634,-1.30765,-0.442536,-0.133322,255.583,0.0683604,
2,0,0,1,0,24840.1,0.0653871,0.0651675,-50.039,13,0.0108449,10,-0.00326091,-1.30069,-0.482669,-0.122237,238.118,0.0651675,
2,0,0,1,0,24840.1,0.0621854,0.0619481,-50.7749,13,0.0106432,10,-0.00314541,-1.29435,-0.534711,-0.11034,218.047,0.0619481,
2,0,0,1,0,24840.1,0.0589837,0.0587107,-51.4588,13,0.0104386,10,-0.00302118,-1.28854,-0.59028,-0.0999526,200.178,0.0587107,
2,0,0,1,0,24840.1,0.0557876,0.0554796,-52.0527,13,0.0102315,10,-0.00288786,-1.28356,-0.670777,-0.0879577,178.196,0.0554796,
2,0,0,1,0,24840.1,0.0525804,0.0522942,-52.6159,13,0.0100221,10,-0.00275151,-1.27888,-0.767099,-0.0769132,157.47,0.0522942,
2,0,0,1,0,24840.1,0.0493842,0.0491013,-53.0642,13,0.0098107,10,-0.00260552,-1.2752,-0.872739,-0.0676033,139.666,0.0491013,
2,0,0,1,0,24840.1,0.0461881,0.0459042,-53.4754,13,0.00959756,10,-0.00245474,-1.27185,-1.03859,-0.056808,118.323,0.0459042,
2,0,0,1,0,24840.1,0.0429808,0.0427463,-53.8311,13,0.00938288,10,-0.00230108,-1.26897,-1.20865,-0.0488148,102.333,0.0427463,
2,0,0,1,0,24840.1,0.0397847,0.0394929,-54.1306,13,0.00916692,10,-0.00213778,-1.26656,-1.42676,-0.0413524,87.2011,0.0394929,
2,0,0,1,0,24840.1,0.036583,0.0363181,-54.3723,13,0.00894989,10,-0.0019747,-1.26462,-1.73386,-0.0340281,72.1015,0.0363181,
2,0,0,1,0,24840.1,0.0333841,0.0330775,-54.5939,13,0.00873192,10,-0.00180583,-1.26286,-2.07014,-0.0285004,60.6408,0.0330775,
2,0,0,1,0,24840.1,0.030188,0.0298994,-54.7574,13,0.00851319,10,-0.00163721,-1.26156,-2.61702,-0.0225447,48.1107,0.0298994,
2,0,0,1,0,24840.1,0.0269835,0.026644,-54.9098,13,0.00829382,10,-0.00146302,-1.26035,-3.41271,-0.0172883,36.9951,0.026644,
2,0,0,1,0,24840.1,0.0237874,0.0234755,-54.9902,13,0.00807399,10,-0.00129092,-1.25971,-4.58245,-0.0128752,27.6034,0.0234755,
2,0,0,1,0,24840.1,0.0205857,0.0202349,-55.069,13,0.00785386,10,-0.00111432,-1.25909,-7.08751,-0.00832451,17.8762,0.0202349,
2,0,0,1,0,24840.1,0.017384,0.01706,-55.1118,13,0.00763346,10,-0.000940209,-1.25876,-11.4559,-0.00515018,11.067,0.01706,
2,0,0,1,0,24840.2,0.0141878,0.013847,-55.1385,13,0.00741296,10,-0.000763504,-1.25854,-68.8232,-0.000857269,1.84281,0.013847,
2,0,0,1,0,24840.2,0.0109806,0.0107008,-55.1316,13,0.0071924,10,-0.000589951,-1.2586,21.1268,0.00279266,-6.00238,0.0107008,
2,0,0,1,0,24840.2,0.00778448,0.00746336,-55.0926,13,0.00697195,10,-0.000411176,-1.25891,15.3696,0.00383875,-8.25261,0.00746336,
2,0,0,1,0,24840.2,0.00458834,0.00425669,-55.0349,13,0.00675168,10,-0.000234267,-1.25936,7.18438,0.00821226,-17.6331,0.00425669,
2,0,0,1,0,24840.2,0.0013811,0.00102776,-55.0327,13,0.00653159,10,-5.65602e-05,-1.25938,5.3646,0.010998,-23.5817,0.00102776,
2,0,0,1,0,24840.2,-0.00181504,-0.00220436,-54.904,13,0.00631174,10,0.000121028,-1.2604,3.85011,0.0153243,-32.7881,-0.00220436,
2,0,0,1,0,24840.2,-0.0050195,-0.00537498,-54.7898,13,0.00609237,10,0.000294494,-1.2613,2.69628,0.021882,-46.742,-0.00537498,
2,0,0,1,0,24840.2,-0.00821564,-0.00857847,-54.6141,13,0.00587357,10,0.000468505,-1.2627,2.37475,0.0248447,-52.9067,-0.00857847,
2,0,0,1,0,24840.2,-0.0114118,-0.0117374,-54.4361,13,0.00565548,10,0.000638939,-1.26411,2.01218,0.0293214,-62.2401,-0.0117374,
2,0,0,1,0,24840.2,-0.0146162,-0.0149982,-54.2271,13,0.00543817,10,0.000813308,-1.26578,1.79284,0.0329086,-69.5693,-0.0149982,
2,0,0,1,0,24840.2,-0.0178124,-0.0181794,-53.9929,13,0.00522173,10,0.000981558,-1.26766,1.58672,0.0371837,-78.2627,-0.0181794,
2,0,0,1,0,24840.2,-0.0210196,-0.0213617,-53.7248,13,0.00500631,10,0.00114765,-1.26983,1.39733,0.0422233,-88.4245,-0.0213617,
2,0,0,1,0,24840.2,-0.0242158,-0.0246023,-53.4292,13,0.00479202,10,0.00131448,-1.27222,1.29119,0.0456942,-95.1968,-0.0246023,
2,0,0,1,0,24840.2,-0.0274119,-0.0277644,-53.0983,13,0.00457899,10,0.00147424,-1.27492,1.20262,0.0490595,-101.611,-0.0277644,
2,0,0,1,0,24840.2,-0.0306191,-0.0309584,-52.7764,13,0.00436727,10,0.00163387,-1.27756,1.13984,0.0517617,-106.55,-0.0309584,
2,0,0,1,0,24840.2,-0.0338153,-0.0341905,-52.4212,13,0.00415689,10,0.00179231,-1.28049,1.09323,0.0539684,-110.336,-0.0341905,
2,0,0,1,0,24840.2,-0.037017,-0.0373929,-52.0664,13,0.00394796,10,0.00194691,-1.28344,1.03601,0.0569491,-115.647,-0.0373929,
2,0,0,1,0,24840.2,-0.0402187,-0.0406219,-51.6796,13,0.00374049,10,0.00209932,-1.28668,1.01938,0.0578782,-116.719,-0.0406219,
2,0,0,1,0,24840.2,-0.0434148,-0.0437447,-51.2977,13,0.00353458,10,0.002244,-1.2899,1.01698,0.0580151,-116.194,-0.0437447,
2,0,0,1,0,24840.2,-0.0466193,-0.0469493,-50.932,13,0.00333015,10,0.00239122,-1.29301,1.01144,0.0583325,-115.963,-0.0469493,
2,0,0,1,0,24840.2,-0.0498154,-0.0501899,-50.5794,13,0.00312719,10,0.00253858,-1.29603,1.04096,0.0566784,-111.876,-0.0501899,
2,0,0,1,0,24840.2,-0.0530115,-0.0533457,-50.2041,13,0.00292566,10,0.00267817,-1.29926,1.05667,0.0558359,-109.447,-0.0533457,
2,0,0,1,0,24840.2,-0.056216,-0.0565587,-49.8641,13,0.00272555,10,0.00282025,-1.30221,1.10631,0.0533304,-103.881,-0.0565587,
2,0,0,1,0,24840.2,-0.0594121,-0.0597972,-49.5259,13,0.00252679,10,0.00296151,-1.30517,1.18264,0.0498884,-96.5315,-0.0597972,
2,0,0,1,0,24840.2,-0.0626194,-0.0629986,-49.2489,13,0.00232929,10,0.00310261,-1.3076,1.25972,0.0468358,-90.0839,-0.0629986,
2,0,0,1,0,24840.3,-0.0658155,-0.0662254,-48.9608,13,0.0021329,10,0.00324245,-1.31015,1.36216,0.0433136,-82.8202,-0.06622538,
2,0,0,1,0,24840.3,-0.0690117,-0.0693875,-48.7084,13,0.00193759,10,0.00337976,-1.3124,1.45583,0.0405267,-77.1113,-0.06938751,
2,0,0,1,0,24840.3,-0.0722189,-0.0725783,-48.4673,13,0.00174326,10,0.00351767,-1.31455,1.62613,0.0362824,-68.7044,-0.0725783,
2,0,0,1,0,24840.3,-0.075415,-0.0757828,-48.2631,13,0.00154985,10,0.00365751,-1.31639,1.85645,0.0317812,-59.9365,-0.0757828,
2,0,0,1,0,24840.3,-0.0786167,-0.0790054,-48.0828,13,0.00135718,10,0.0037988,-1.31801,2.16169,0.0272935,-51.2752,-0.0790054,
2,0,0,1,0,24840.3,-0.0818184,-0.0821983,-47.9406,13,0.00116515,10,0.00394063,-1.3193,2.60071,0.0226861,-42.4894,-0.0821983,
2,0,0,1,0,24840.3,-0.0850146,-0.0854071,-47.8095,13,0.000973681,10,0.00408327,-1.32049,3.06125,0.0192731,-35.993,-0.0854071,
2,0,0,1,0,24840.3,-0.088219,-0.0885841,-47.7191,13,0.000782668,10,0.00422715,-1.32131,3.9221,0.015043,-28.0396,-0.0885841,
2,0,0,1,0,24840.3,-0.0914152,-0.0917992,-47.6223,13,0.000592003,10,0.00437169,-1.32219,5.57982,0.0105738,-19.6774,-0.0917992,
2,0,0,1,0,24840.3,-0.0946141,-0.0949815,-47.5821,13,0.000401622,10,0.00451942,-1.32256,8.73399,0.00675522,-12.5592,-0.0949815,
2,0,0,1,0,24840.3,-0.0978158,-0.0981638,-47.5585,13,0.000211318,10,0.00466852,-1.32277,28.6321,0.00206063,-3.82781,-0.0981638,
2,0,0,1,0,24840.3,-0.101012,-0.101425,-47.5579,13,2.10888e-05,10,0.00482353,-1.32278,-41.1088,-0.00143522,2.66612,-0.101425,
2,0,0,1,0,24840.3,-0.104219,-0.104575,-47.5734,13,-0.000169174,10,0.00497499,-1.32264,-12.414,-0.00475269,8.83176,-0.104575,
2,0,0,1,0,24840.3,-0.107415,-0.107757,-47.6162,13,-0.000359559,10,0.00513099,-1.32225,-6.19804,-0.00951914,17.7098,-0.107757,
2,0,0,1,0,24840.3,-0.110611,-0.110975,-47.6716,13,-0.000550137,10,0.00529034,-1.32174,-4.60433,-0.012814,23.8675,-0.110975,
2,0,0,1,0,24840.3,-0.113819,-0.114192,-47.784,13,-0.000741069,10,0.00545654,-1.32072,-3.59392,-0.0164166,30.633,-0.114192,
2,0,0,1,0,24840.3,-0.117015,-0.117405,-47.8796,13,-0.000932411,10,0.0056213,-1.31985,-2.97666,-0.0198209,37.0592,-0.117405,
2,0,0,1,0,24840.3,-0.120216,-0.120596,-48.0095,13,-0.00112419,10,0.00578973,-1.31867,-2.68601,-0.0219657,41.1886,-0.120596,
2,0,0,1,0,24840.3,-0.123418,-0.123758,-48.1454,13,-0.00131651,10,0.00595836,-1.31745,-2.29433,-0.0257156,48.3604,-0.123758,
2,0,0,1,0,24840.3,-0.126614,-0.127003,-48.3116,13,-0.00150942,10,0.0061357,-1.31595,-2.08142,-0.028346,53.4883,-0.1270026,
2,0,0,1,0,24840.3,-0.129819,-0.130142,-48.4956,13,-0.00170305,10,0.00631134,-1.3143,-1.94568,-0.0303236,57.4115,-0.130142,
2,0,0,1,0,24840.3,-0.133015,-0.133385,-48.6936,13,-0.00189744,10,0.006495,-1.31253,-1.79908,-0.0327945,62.3392,-0.133385,
2,0,0,1,0,24840.3,-0.136214,-0.136582,-48.8817,13,-0.0020926,10,0.00667637,-1.31085,-1.76165,-0.0334912,63.9226,-0.136582,
2,0,0,1,0,24840.3,-0.139416,-0.13974,-49.1057,13,-0.00228859,10,0.00686204,-1.30887,-1.63692,-0.0360433,69.1165,-0.1397402,
2,0,0,1,0,24840.3,-0.142612,-0.143008,-49.3181,13,-0.00248546,10,0.00705289,-1.30699,-1.58176,-0.0373002,71.8248,-0.143008,
2,0,0,1,0,24840.4,-0.145819,-0.146207,-49.5797,13,-0.00268327,10,0.00724888,-1.3047,-1.57913,-0.0373624,72.2764,-0.146207,
2,0,0,1,0,24840.4,-0.149015,-0.149386,-49.8013,13,-0.00288206,10,0.00743959,-1.30276,-1.51711,-0.0388898,75.582,-0.149386,
2,0,0,1,0,24840.4,-0.152211,-0.152564,-50.0325,13,-0.00308176,10,0.00763315,-1.30075,-1.56372,-0.0377304,73.6995,-0.152564,
2,0,0,1,0,24840.4,-0.155418,-0.15577,-50.2826,13,-0.00328243,10,0.00783254,-1.29858,-1.51862,-0.0388512,76.2479,-0.15577,
2,0,0,1,0,24840.4,-0.158615,-0.159023,-50.5243,13,-0.00348406,10,0.00803451,-1.2965,-1.49127,-0.0395637,78.0193,-0.159023,
2,0,0,1,0,24840.4,-0.161816,-0.162183,-50.777,13,-0.00368669,10,0.00823515,-1.29433,-1.54262,-0.0382465,75.7725,-0.162183,
2,0,0,1,0,24840.4,-0.165018,-0.165334,-51.0289,13,-0.00389033,10,0.00843682,-1.29218,-1.53827,-0.0383547,76.3533,-0.165334,
2,0,0,1,0,24840.4,-0.168214,-0.168518,-51.2485,13,-0.00409492,10,0.00863627,-1.29032,-1.60887,-0.0366716,73.3379,-0.168518,
2,0,0,1,0,24840.4,-0.171419,-0.171757,-51.4966,13,-0.00430043,10,0.00884491,-1.28822,-1.63504,-0.0360849,72.5152,-0.171757,
2,0,0,1,0,24840.4,-0.174615,-0.174931,-51.7119,13,-0.00450687,10,0.00904601,-1.28641,-1.63931,-0.0359907,72.6363,-0.174931,
2,0,0,1,0,24840.4,-0.177814,-0.178148,-51.9581,13,-0.00471422,10,0.00925623,-1.28435,-1.72641,-0.0341749,69.2727,-0.178148,
2,0,0,1,0,24840.4,-0.181015,-0.181344,-52.1802,13,-0.00492253,10,0.00946258,-1.28249,-1.72118,-0.0342788,69.7756,-0.181344,
2,0,0,1,0,24840.4,-0.184211,-0.184556,-52.3832,13,-0.00513168,10,0.00966765,-1.28081,-1.80369,-0.0327108,66.874,-0.184556,
2,0,0,1,0,24840.4,-0.187419,-0.187728,-52.6048,13,-0.00534168,10,0.0098754,-1.27897,-1.85433,-0.0318174,65.3136,-0.187728,
2,0,0,1,0,24840.4,-0.190615,-0.190937,-52.8133,13,-0.00555255,10,0.010084,-1.27726,-1.8172,-0.0324676,66.9173,-0.190937,
2,0,0,1,0,24840.4,-0.193811,-0.194195,-53.0195,13,-0.00576426,10,0.0102961,-1.27556,-1.9316,-0.0305446,63.1668,-0.1941953,
2,0,0,1,0,24840.4,-0.197018,-0.197378,-53.2412,13,-0.00597682,10,0.0105086,-1.27375,-2.36452,-0.0249522,51.672,-0.197378,
2,0,0,1,0,24840.4,-0.199647,-0.199941,-53.3763,13,-0.00615275,10,0.0106721,-1.27265,0.241635,0.24417,-492.798,-0.199941,
2,0,0,1,0,24840.4,-0.200134,-0.20057,-53.3111,13,-0.00618477,10,0.0106926,-1.27318,-0.0143972,-4.09803,7762.84,-0.2005704,
2,0,0,1,1,24840.4,-0.198935,-0.199447,-50.4313,13,-0.00626171,10,0.0100584,-1.2973,-0.0520955,-1.13253,2030.09,-0.199447,
2,0,0,1,1,24840.4,-0.195739,-0.196203,-44.1203,13,-0.00644962,10,0.00865653,-1.35536,-0.0596224,-0.98956,1681.41,-0.196203,
2,0,0,1,1,24840.4,-0.192535,-0.192963,-39.2114,13,-0.00661553,10,0.00756636,-1.40659,-0.0623318,-0.946548,1482.69,-0.192963,
2,0,0,1,1,24840.4,-0.189339,-0.189703,-35.0392,13,-0.00676346,10,0.00664705,-1.45545,-0.0651816,-0.905163,1252.54,-0.189703,
2,0,0,1,1,24840.4,-0.186137,-0.186577,-31.3489,13,-0.00689574,10,0.00584899,-1.50378,-0.0654193,-0.901874,1110.71,-0.186577,
2,0,0,1,1,24840.4,-0.182935,-0.18334,-28.0093,13,-0.00701402,10,0.00513522,-1.5527,-0.0641776,-0.919324,1008.54,-0.18334,
2,0,0,1,1,24840.4,-0.179739,-0.180141,-24.9694,13,-0.0071196,10,0.00449801,-1.60259,-0.0624884,-0.944175,920.601,-0.180141,
2,0,0,1,1,24840.5,-0.176532,-0.176934,-22.1607,13,-0.00721352,10,0.00392099,-1.65442,-0.0597429,-0.987565,851.862,-0.176934,
2,0,0,1,1,24840.5,-0.173336,-0.173755,-19.5445,13,-0.00729662,10,0.00339595,-1.70898,-0.0561397,-1.05095,796.444,-0.173755,
2,0,0,1,1,24840.5,-0.17014,-0.170523,-17.0908,13,-0.00736962,10,0.00291438,-1.76724,-0.0517661,-1.13974,752.23,-0.170523,
2,0,0,1,1,24840.5,-0.166932,-0.167319,-14.7579,13,-0.00743304,10,0.00246928,-1.83098,-0.0471298,-1.25186,710.435,-0.167319,
2,0,0,1,1,24840.5,-0.163736,-0.164177,-12.5648,13,-0.00748745,10,0.00206285,-1.90085,-0.0420947,-1.4016,672.569,-0.164177,
2,0,0,1,1,24840.5,-0.160532,-0.160989,-10.4749,13,-0.0075333,10,0.00168634,-1.97985,-0.0365346,-1.61491,639.034,-0.160989,
2,0,0,1,1,24840.5,-0.157336,-0.157741,-8.49399,13,-0.00757103,10,0.00133985,-2.07089,-0.0303942,-1.94116,609.039,-0.157741,
2,0,0,1,1,24840.5,-0.154139,-0.154557,-6.60257,13,-0.007601,10,0.00102048,-2.18029,-0.0237442,-2.48482,581.236,-0.154557,
2,0,0,1,1,24840.5,-0.150935,-0.151359,-4.75797,13,-0.00762351,10,0.000720163,-2.32258,-0.0158936,-3.71219,560.008,-0.151359,
2,0,0,1,1,24840.5,-0.147739,-0.148162,-3.01959,13,-0.00763886,10,0.000447389,-2.52005,-0.00920707,-6.40812,537.822,-0.148162,
2,0,0,1,1,24840.5,-0.144532,-0.144951,-1.33171,13,-0.00764738,10,0.000193032,-2.87559,-0.0308494,-1.91252,515.072,-0.144951,
2,0,0,1,1,24840.5,-0.141335,-0.141778,0.270246,13,-0.00764933,10,-3.83151e-05,-3.56824,0.281001,0.209964,498.556,-0.141778,
2,1,0,1,1,24840.5,-0.138139,-0.138566,1.83121,13,-0.00764497,10,-0.000253744,-2.73726,0.0229532,2.57045,479.752,-0.138566,
2,1,0,1,1,24840.5,-0.134932,-0.13538,3.35302,13,-0.00763443,10,-0.000453931,-2.47456,0.00939571,6.27946,463.94,-0.13538,
2,1,0,1,1,24840.5,-0.131736,-0.132154,4.80766,13,-0.00761795,10,-0.000635352,-2.31807,0.020713,2.84845,449.861,-0.132154,
2,1,0,1,1,24840.5,-0.12854,-0.128993,6.20188,13,-0.00759577,10,-0.000799999,-2.20748,0.0301941,1.95403,433.456,-0.128993,
2,1,0,1,1,24840.5,-0.125333,-0.125788,7.57949,13,-0.00756805,10,-0.000953412,-2.12036,0.038871,1.51784,425.259,-0.125788,
2,1,0,1,1,24840.5,-0.122136,-0.122572,8.90455,13,-0.00753496,10,-0.00109145,-2.05039,0.0477327,1.23605,413.56,-0.122572,
2,1,0,1,1,24840.5,-0.118932,-0.119414,10.2253,13,-0.00749657,10,-0.00122105,-1.99032,0.0571476,1.03241,399.866,-0.119414,
2,1,0,1,1,24840.5,-0.115736,-0.116223,11.4832,13,-0.00745302,10,-0.00133461,-1.93994,0.0660681,0.893018,391.028,-0.1162225,
2,1,0,1,1,24840.5,-0.11254,-0.112961,12.7089,13,-0.00740451,10,-0.0014356,-1.89589,0.076222,0.774054,377.36,-0.112961,
2,1,0,1,1,24840.5,-0.109335,-0.109784,13.9052,13,-0.00735113,10,-0.00152657,-1.85682,0.0856011,0.689243,368.909,-0.109784,
2,1,0,1,1,24840.5,-0.106139,-0.106575,15.0704,13,-0.00729305,10,-0.00160613,-1.82187,0.0954459,0.618151,359.468,-0.106575,
2,1,0,1,1,24840.5,-0.102932,-0.103388,16.2179,13,-0.00723035,10,-0.00167674,-1.79001,0.105753,0.557904,349.346,-0.1033884,
2,1,0,1,1,24840.5,-0.0997357,-0.100103,17.3307,13,-0.00716313,10,-0.00173486,-1.76118,0.115477,0.510926,342.284,-0.100103,
2,1,0,1,1,24840.6,-0.0965395,-0.0969369,18.3932,13,-0.00709155,10,-0.00178298,-1.73534,0.12762,0.462309,329.318,-0.0969369,
2,1,0,1,1,24840.6,-0.0933323,-0.0937885,19.447,13,-0.00701576,10,-0.00182391,-1.71115,0.137757,0.428292,322.944,-0.0937885,
2,1,0,1,1,24840.6,-0.0901361,-0.0905363,20.4503,13,-0.00693586,10,-0.00185149,-1.6893,0.148398,0.397579,315.668,-0.0905363,
2,1,0,1,1,24840.6,-0.0869345,-0.0873243,21.4576,13,-0.00685195,10,-0.00187377,-1.66842,0.16133,0.365711,304.617,-0.0873243,
2,1,0,1,1,24840.6,-0.0837328,-0.0841526,22.4288,13,-0.00676407,10,-0.00188744,-1.64919,0.171522,0.343979,299.519,-0.0841526,
2,1,0,1,1,24840.6,-0.0805366,-0.0809491,23.3581,13,-0.0066724,10,-0.00189082,-1.63156,0.184952,0.319002,289.628,-0.0809491,
2,1,0,1,1,24840.6,-0.0773322,-0.0777425,24.2823,13,-0.00657703,10,-0.00188776,-1.61471,0.197753,0.298353,281.683,-0.07774245,
2,1,0,1,1,24840.6,-0.074136,-0.0745103,25.1689,13,-0.00647806,10,-0.00187534,-1.59914,0.209163,0.282076,276.156,-0.0745103,
2,1,0,1,1,24840.6,-0.0709371,-0.0713153,26.0448,13,-0.00637553,10,-0.0018574,-1.58428,0.223356,0.264152,267.578,-0.0713153,
2,1,0,1,1,24840.6,-0.0677354,-0.0681373,26.8962,13,-0.00626954,10,-0.00183263,-1.57031,0.235265,0.250781,262.407,-0.0681373,
2,1,0,1,1,24840.6,-0.0645393,-0.0649539,27.7042,13,-0.00616025,10,-0.0017995,-1.55745,0.250666,0.235373,253.871,-0.0649539,
2,1,0,1,1,24840.6,-0.061332,-0.0617261,28.5236,13,-0.00604771,10,-0.00176065,-1.5448,0.266487,0.221399,245.752,-0.0617261,
2,1,0,1,1,24840.6,-0.0581359,-0.0585205,29.2931,13,-0.00593199,10,-0.00171424,-1.53323,0.278976,0.211488,241.175,-0.0585205,
2,1,0,1,1,24840.6,-0.0549398,-0.0553223,30.0455,13,-0.00581322,10,-0.00166218,-1.52222,0.298141,0.197893,231.579,-0.0553223,
2,1,0,1,1,24840.6,-0.0517325,-0.052157,30.7905,13,-0.00569144,10,-0.00160594,-1.51158,0.31294,0.188535,226.002,-0.052157,
2,1,0,1,1,24840.6,-0.0485364,-0.048892,31.4957,13,-0.00556679,10,-0.00153988,-1.50175,0.33001,0.178783,219.282,-0.048892,
2,1,0,1,1,24840.6,-0.0453347,-0.045733,32.1831,13,-0.00543936,10,-0.00147183,-1.49237,0.351428,0.167887,210.471,-0.045733,
2,1,0,1,1,24840.6,-0.042133,-0.0425242,32.8519,13,-0.00530923,10,-0.001397,-1.48344,0.365304,0.161509,206.731,-0.0425242,
2,1,0,1,1,24840.6,-0.0389369,-0.0393175,33.4928,13,-0.00517646,10,-0.00131686,-1.47505,0.38931,0.15155,197.743,-0.0393175,
2,1,0,1,1,24840.6,-0.0357324,-0.0361247,34.1351,13,-0.00504115,10,-0.00123312,-1.4668,0.410503,0.143726,191.032,-0.0361247,
2,1,0,1,1,24840.6,-0.0325363,-0.0329254,34.7157,13,-0.00490337,10,-0.00114303,-1.45947,0.434783,0.1357,183.516,-0.0329254,
2,1,0,1,1,24840.6,-0.0293374,-0.0297537,35.2914,13,-0.0047633,10,-0.00105005,-1.45233,0.461556,0.127829,175.849,-0.0297537,
2,1,0,1,1,24840.6,-0.0261357,-0.0265396,35.8378,13,-0.00462095,10,-0.000951122,-1.44566,0.482789,0.122206,170.73,-0.0265396,
2,1,0,1,1,24840.6,-0.0229395,-0.0233181,36.3871,13,-0.00447643,10,-0.000848478,-1.43905,0.512901,0.115032,163.084,-0.0233181,
2,1,0,1,1,24840.6,-0.0197323,-0.0201242,36.9012,13,-0.0043298,10,-0.000742607,-1.43296,0.54236,0.108784,156.362,-0.0201242,
2,1,0,1,1,24840.7,-0.0165361,-0.0169313,37.3826,13,-0.00418118,10,-0.000632935,-1.42733,0.574464,0.102704,149.644,-0.0169313,
2,1,0,1,1,24840.7,-0.01334,-0.0137321,37.8404,13,-0.00403068,10,-0.000519626,-1.42204,0.612077,0.0963931,142.214,-0.01373205,
2,1,0,1,1,24840.7,-0.0101328,-0.0105519,38.2975,13,-0.00387835,10,-0.00040411,-1.41683,0.645932,0.0913409,136.351,-0.0105519,
2,1,0,1,1,24840.7,-0.00693663,-0.00733249,38.7204,13,-0.00372425,10,-0.000283917,-1.41206,0.687553,0.0858116,129.433,-0.00733249,
2,1,0,1,1,24840.7,-0.00373494,-0.00411204,39.1305,13,-0.00356851,10,-0.000160906,-1.40748, , , ,-0.00411204,
2,1,0,1,1,24840.7,-0.000774628,-0.00115244,39.4686,13,-0.00342307,10,-4.54853e-05,-1.40375, , , ,-0.00115244,
2,1,0,0,1,24840.7,-0.000125413,-0.000401673,39.5566,13,-0.00339148,10,-1.58888e-05,-1.40278, , , ,-0.000401673,