File: Figure_codes/Fig_3-5/rawdata_trumpetplot_data/after 10th/20221101_1-115_003_TrumpetPlot_ParaChange_from10_every3_06_CV_C01_18.csv
mode,ox/red,error,control changes,counter inc.,time/s,control/V,Ewe/V,<I>/mA,cycle number,(Q-Qo)/C,I Range,P/W,log(|I|),Tafel slope mV/dec,alpha_eff,dI/d(E-IR),E-IR/V,
2,0,0,0,0,36612.4,2.44065e-05,-0.000306236,-1.43761,19,0.0000000E+000,10,4.40247e-07,-2.84236, , , ,-0.000306236,
2,0,0,1,0,36612.4,0.00129787,0.000917738,-0.361789,19,-2.4633e-05,10,-3.32028e-07,-3.44154, , , ,0.000917738,
2,1,0,1,0,36612.4,0.00279427,0.0024829,0.303367,19,-2.39212e-05,10,7.5323e-07,-3.51803,0.0739705,0.797616,353.666,0.0024829,
2,1,0,1,0,36612.5,0.00429425,0.00395325,0.668872,19,-4.48061e-06,10,2.64422e-06,-3.17466,0.00446927,13.2013,213.608,0.00395325,
2,1,0,1,0,36612.5,0.00579422,0.00546853,0.914156,19,2.61595e-05,10,4.99909e-06,-3.03898,0.0132688,4.44653,141.709,0.00546853,
2,1,0,1,0,36612.5,0.00729063,0.00692786,1.0859,19,6.42996e-05,10,7.52294e-06,-2.96421,0.0234923,2.51146,100.845,0.00692786,
2,1,0,1,0,36612.6,0.00878703,0.0084741,1.21466,19,0.000107975,10,1.02931e-05,-2.91555,0.0361135,1.63374,75.1542,0.0084741,
2,1,0,1,0,36612.6,0.010287,0.00997982,1.3097,19,0.000155941,10,1.30706e-05,-2.88283,0.0508921,1.15932,58.161,0.00997982,
2,1,0,1,0,36612.7,0.011787,0.0114546,1.38504,19,0.000207177,10,1.58651e-05,-2.85854,0.0649253,0.908736,48.7237,0.0114546,
2,1,0,1,0,36612.7,0.0132825,0.012948,1.4487,19,0.000260818,10,1.87578e-05,-2.83902,0.0783068,0.753447,42.5849,0.012948,
2,1,0,1,0,36612.7,0.014778,0.0144535,1.50515,19,0.0003168,10,2.17547e-05,-2.82242,0.0914108,0.645438,37.8673,0.0144535,
2,1,0,1,0,36612.8,0.0162816,0.0159563,1.56018,19,0.000375186,10,2.48948e-05,-2.80682,0.111736,0.528031,31.9954,0.0159563,
2,1,0,1,0,36612.8,0.017778,0.0174777,1.60966,19,0.000435063,10,2.81332e-05,-2.79326,0.129789,0.454583,28.4517,0.0174777,
2,1,0,1,0,36612.8,0.0192744,0.0189529,1.64783,19,0.000496452,10,3.12312e-05,-2.78309,0.139682,0.422389,27.0499,0.0189529,
2,1,0,1,0,36612.9,0.0207743,0.020432,1.69087,19,0.000559603,10,3.45477e-05,-2.77189,0.145965,0.404205,26.5595,0.020432,
2,1,0,1,0,36612.9,0.0222743,0.0219332,1.72745,19,0.000624237,10,3.78885e-05,-2.7626,0.151154,0.390331,26.3042,0.0219332,
2,1,0,1,0,36613,0.0237707,0.0234377,1.76183,19,0.00069014,10,4.12933e-05,-2.75404,0.172697,0.341639,23.5234,0.0234377,
2,1,0,1,0,36613,0.0252671,0.0249659,1.79387,19,0.000757369,10,4.47856e-05,-2.74621,0.175695,0.335809,23.652,0.0249659,
2,1,0,1,0,36613,0.0267671,0.0264552,1.83237,19,0.000826115,10,4.84758e-05,-2.73699,0.165941,0.355548,25.4869,0.0264552,
2,1,0,1,0,36613.1,0.0282671,0.0279341,1.87445,19,0.000896258,10,5.23611e-05,-2.72713,0.17528,0.336605,24.5961,0.0279341,
2,1,0,1,0,36613.1,0.0297626,0.0294863,1.91139,19,0.000967605,10,5.63598e-05,-2.71865,0.186792,0.31586,23.4694,0.02948634,
2,1,0,1,0,36613.1,0.0312581,0.0309308,1.94314,19,0.0010402,10,6.0103e-05,-2.7115,0.195691,0.301496,22.8354,0.0309308,
2,1,0,1,0,36613.2,0.0327616,0.0324551,1.97746,19,0.00111444,10,6.41788e-05,-2.70389,0.187776,0.314203,24.2324,0.0324551,
2,1,0,1,0,36613.2,0.034258,0.0339823,2.01408,19,0.00118964,10,6.84428e-05,-2.69592,0.193971,0.30417,23.8887,0.0339823,
2,1,0,1,0,36613.3,0.0357545,0.0354371,2.04537,19,0.00126615,10,7.24821e-05,-2.68923,0.216379,0.27267,21.7684,0.0354371,
2,1,0,1,0,36613.3,0.0372544,0.0369887,2.07692,19,0.00134413,10,7.68227e-05,-2.68258,0.217427,0.271356,22.0755,0.0369887,
2,1,0,1,0,36613.3,0.0387544,0.0384218,2.11293,19,0.00142335,10,8.11827e-05,-2.67511,0.198243,0.297614,24.5876,0.0384218,
2,1,0,1,0,36613.4,0.0402508,0.0399547,2.15359,19,0.00150372,10,8.6046e-05,-2.66684,0.205051,0.287733,24.1462,0.0399547,
2,1,0,1,0,36613.4,0.0417472,0.0414154,2.19076,19,0.00158547,10,9.0731e-05,-2.65941,0.223538,0.263937,22.4796,0.0414154,
2,1,0,1,0,36613.4,0.0432472,0.0429605,2.22526,19,0.00166877,10,9.55985e-05,-2.65262,0.226139,0.260901,22.5839,0.0429605,
2,1,0,1,0,36613.5,0.0447472,0.0444172,2.2544,19,0.00175321,10,0.000100134,-2.64697,0.225628,0.261492,23.0205,0.0444172,
2,1,0,1,0,36613.5,0.0462427,0.0458926,2.28818,19,0.0018387,10,0.00010501,-2.64051,0.21931,0.269025,24.0111,0.04589257,
2,1,0,1,0,36613.6,0.0477382,0.0474238,2.32198,19,0.00192552,10,0.000110117,-2.63414,0.232707,0.253537,22.9939,0.04742381,
2,1,0,1,0,36613.6,0.0492417,0.0489252,2.35015,19,0.00201407,10,0.000114981,-2.62891,0.249554,0.236422,21.7327,0.04892524,
2,1,0,1,0,36613.6,0.0507381,0.0504314,2.38554,19,0.00210333,10,0.000120306,-2.62241,0.259619,0.227256,21.1758,0.0504314,
2,1,0,1,0,36613.7,0.0522345,0.0519056,2.4201,19,0.00219378,10,0.000125616,-2.61617,0.245742,0.240089,22.6636,0.0519056,
2,1,0,1,0,36613.7,0.0537345,0.0534085,2.45783,19,0.00228578,10,0.000131269,-2.60945,0.258287,0.228428,21.8402,0.0534085,
2,1,0,1,0,36613.7,0.0552345,0.0549502,2.48848,19,0.00237902,10,0.000136743,-2.60407,0.286885,0.205657,19.9097,0.0549502,
2,1,0,1,0,36613.8,0.0567309,0.05638,2.51369,19,0.00247313,10,0.000141722,-2.59969,0.297308,0.198447,19.4829,0.05638,
2,1,0,1,0,36613.8,0.0582273,0.0579036,2.54435,19,0.00256826,10,0.000147327,-2.59442,0.291746,0.20223,20.1006,0.0579036,
2,1,0,1,0,36613.9,0.0597308,0.0594222,2.57705,19,0.00266513,10,0.000153134,-2.58888,0.286081,0.206235,20.7352,0.05942224,
2,1,0,1,0,36613.9,0.0612264,0.0608916,2.60239,19,0.00276263,10,0.000158464,-2.58463,0.321083,0.183753,18.6831,0.0608916,
2,1,0,1,0,36613.9,0.0627219,0.0623937,2.63691,19,0.00286127,10,0.000164527,-2.5789,0.340456,0.173297,17.8209,0.0623937,
2,1,0,1,0,36614,0.0642218,0.0639338,2.66253,19,0.00296113,10,0.000170226,-2.57471,0.334286,0.176496,18.3471,0.0639338,
2,1,0,1,0,36614,0.0657218,0.0653918,2.69287,19,0.00306206,10,0.000176091,-2.56979,0.309736,0.190485,19.9816,0.0653918,
2,1,0,1,0,36614,0.0672182,0.0669043,2.72148,19,0.00316391,10,0.000182079,-2.56519,0.344556,0.171235,18.1454,0.0669043,
2,1,0,1,0,36614.1,0.0687146,0.068375,2.74732,19,0.00326677,10,0.000187848,-2.56109,0.374049,0.157733,16.9094,0.068375,
2,1,0,1,0,36614.1,0.0702146,0.0698912,2.76853,19,0.00337078,10,0.000193496,-2.55775,0.405589,0.145467,15.7492,0.0698912,
2,1,0,1,0,36614.2,0.0717146,0.0714092,2.79383,19,0.00347576,10,0.000199505,-2.5538,0.363639,0.162249,17.7201,0.07140924,
2,1,0,1,0,36614.2,0.073211,0.0728713,2.81958,19,0.00358138,10,0.000205466,-2.54982,0.408911,0.144286,15.9054,0.0728713,
2,1,0,1,0,36614.2,0.0747074,0.0743785,2.84514,19,0.00368796,10,0.000211617,-2.5459,0.429299,0.137433,15.2342,0.0743785,
2,1,0,1,0,36614.3,0.0762109,0.0758707,2.86359,19,0.00379585,10,0.000217262,-2.54309,0.47449,0.124344,13.8971,0.07587073,
2,1,0,1,0,36614.3,0.0777064,0.0773761,2.8868,19,0.00390392,10,0.000223369,-2.53958,0.423038,0.139467,15.692,0.0773761,
2,1,0,1,0,36614.3,0.079202,0.0788865,2.90925,19,0.00401284,10,0.000229501,-2.53622,0.446667,0.132089,14.9801,0.0788865,
2,1,0,1,0,36614.4,0.0807019,0.0803919,2.93229,19,0.00412292,10,0.000235732,-2.53279,0.492052,0.119906,13.6939,0.0803919,
2,1,0,1,0,36614.4,0.0822019,0.0819241,2.94647,19,0.00423373,10,0.000241387,-2.5307,0.550538,0.107168,12.3361,0.08192414,
2,1,0,1,0,36614.5,0.0836983,0.0833719,2.96467,19,0.00434488,10,0.00024717,-2.52802,0.561052,0.10516,12.1948,0.08337187,
2,1,0,1,0,36614.5,0.0851947,0.0849052,2.98466,19,0.00445679,10,0.000253413,-2.52511,0.525432,0.112289,13.0982,0.0849052,
2,1,0,1,0,36614.5,0.0866947,0.0863935,3.00882,19,0.00456979,10,0.000259942,-2.5216,0.582725,0.101248,11.8722,0.0863935,
2,1,0,1,0,36614.6,0.0881947,0.0878777,3.02753,19,0.00468348,10,0.000266052,-2.51891,0.522679,0.11288,13.3237,0.0878777,
2,1,0,1,0,36614.6,0.0896911,0.0893866,3.04666,19,0.00479754,10,0.00027233,-2.51618,0.456155,0.129342,15.3791,0.0893866,
2,1,0,1,0,36614.6,0.0911875,0.0908868,3.07066,19,0.00491242,10,0.000279083,-2.51277,0.40268,0.146518,17.559,0.0908868,
2,1,0,1,0,36614.7,0.0926901,0.0923627,3.09812,19,0.00502896,10,0.000286151,-2.5089,0.342527,0.172249,20.8158,0.0923627,
2,1,0,1,0,36614.7,0.0941856,0.0938684,3.12173,19,0.00514593,10,0.000293032,-2.5056,0.387821,0.152132,18.5764,0.0938684,
2,1,0,1,0,36614.8,0.0956821,0.0953781,3.14593,19,0.00526386,10,0.000300053,-2.50225,0.355473,0.165976,20.4759,0.0953781,
2,1,0,1,0,36614.8,0.097182,0.0968435,3.18545,19,0.00538328,10,0.000308491,-2.49683,0.301134,0.195926,24.4018,0.0968435,
2,1,0,1,0,36614.8,0.098682,0.0983999,3.22607,19,0.00550405,10,0.000317445,-2.49133,0.283919,0.207806,26.159,0.0983999,
2,1,0,1,0,36614.9,0.100178,0.0999332,3.26824,19,0.00562598,10,0.000326606,-2.48569,0.27146,0.217343,27.6843,0.0999332,
2,1,0,1,0,36614.9,0.101675,0.1014,3.30598,19,0.00574942,10,0.000335227,-2.4807,0.252467,0.233694,30.1782,0.1014,
2,1,0,1,0,36614.9,0.103175,0.102879,3.35432,19,0.00587484,10,0.00034509,-2.4744,0.232443,0.253825,33.2719,0.102879,
2,1,0,1,0,36615,0.104675,0.104342,3.40872,19,0.00600218,10,0.000355672,-2.46741,0.228279,0.258456,34.3793,0.104342,
2,1,0,1,0,36615,0.106171,0.105842,3.45992,19,0.00613121,10,0.000366205,-2.46093,0.225014,0.262206,35.4031,0.105842,
2,1,0,1,0,36615.1,0.107667,0.107367,3.51188,19,0.0062622,10,0.000377059,-2.45446,0.22219,0.265538,36.4512,0.107367,
2,1,0,1,0,36615.1,0.10917,0.108867,3.57176,19,0.00639589,10,0.000388847,-2.44712,0.214729,0.274765,38.3037,0.108867,
2,1,0,1,0,36615.1,0.110666,0.110337,3.62803,19,0.00653103,10,0.000400307,-2.44033,0.216324,0.272739,38.5914,0.110337,
2,1,0,1,0,36615.2,0.112162,0.111856,3.68621,19,0.0066684,10,0.000412325,-2.43342,0.228427,0.258288,37.093,0.111856,
2,1,0,1,0,36615.2,0.113662,0.113306,3.74448,19,0.00680832,10,0.000424272,-2.42661,0.243593,0.242208,35.3268,0.113306,
2,1,0,1,0,36615.2,0.115162,0.114859,3.7942,19,0.00695008,10,0.000435799,-2.42088,0.257329,0.229278,33.9371,0.114859,
2,1,0,1,0,36615.3,0.116658,0.116345,3.84169,19,0.00709352,10,0.000446962,-2.41548,0.252839,0.23335,34.9894,0.116345,
2,1,0,1,0,36615.3,0.118155,0.117802,3.89402,19,0.00723888,10,0.000458724,-2.4096,0.280815,0.210103,31.917,0.117802,
2,1,0,1,0,36615.4,0.119655,0.119368,3.9397,19,0.00738643,10,0.000470276,-2.40454,0.33311,0.177119,27.2248,0.119368,
2,1,0,1,0,36615.4,0.121155,0.120821,3.97589,19,0.00753549,10,0.000480372,-2.40057,0.368871,0.159948,24.832,0.120821,
2,1,0,1,0,36615.4,0.122651,0.12232,4.01468,19,0.00768554,10,0.000491076,-2.39635,0.378365,0.155934,24.3999,0.12232,
2,1,0,1,0,36615.5,0.124147,0.123853,4.05279,19,0.00783695,10,0.000501949,-2.39225,0.415611,0.14196,22.4087,0.123853,
2,1,0,1,0,36615.5,0.12565,0.125338,4.08205,19,0.0079904,10,0.000511638,-2.38912,0.503577,0.117162,18.6242,0.125338,
2,1,0,1,0,36615.5,0.127146,0.126822,4.10043,19,0.00814408,10,0.000520023,-2.38717,0.565007,0.104424,16.7265,0.126822,
2,1,0,1,0,36615.6,0.128642,0.128297,4.12891,19,0.00829864,10,0.000529725,-2.38416,0.563061,0.104784,16.9036,0.128297,
2,1,0,1,0,36615.6,0.130142,0.129826,4.15303,19,0.00845454,10,0.000539171,-2.38163,0.60777,0.0970762,15.7382,0.129826,
2,1,0,1,0,36615.7,0.131642,0.131345,4.17411,19,0.0086114,10,0.000548251,-2.37944,0.687245,0.08585,13.9781,0.131345,
2,1,0,1,0,36615.7,0.133139,0.132818,4.19603,19,0.0087686,10,0.000557309,-2.37716,0.799327,0.0738121,12.0807,0.132818,
2,1,0,1,0,36615.7,0.134635,0.134334,4.21348,19,0.00892634,10,0.000566016,-2.37536,1.01764,0.0579771,9.5228,0.1343345,
2,1,0,1,0,36615.8,0.136135,0.135803,4.22904,19,0.00908515,10,0.000574315,-2.37376,1.13269,0.0520883,8.57794,0.135803,
2,1,0,1,0,36615.8,0.137635,0.137342,4.23865,19,0.00924445,10,0.000582146,-2.37277,2.08719,0.0282676,4.66646,0.137342,
2,1,0,1,0,36615.8,0.13913,0.138817,4.2407,19,0.0094036,10,0.000588681,-2.37256,-3.96465,-0.0148815,-2.45727,0.138817,
2,1,0,1,0,36615.9,0.140626,0.140324,4.22808,19,0.00956261,10,0.000593299,-2.37386,-1.24795,-0.0472777,-7.80289,0.140324,
2,1,0,1,0,36615.9,0.142129,0.141792,4.21271,19,0.00972197,10,0.000597327,-2.37544,-0.652115,-0.0904748,-14.8591,0.141792,
2,1,0,1,0,36616,0.143626,0.143298,4.19014,19,0.00987984,10,0.000600438,-2.37777,-0.416732,-0.141578,-23.0603,0.143298,
2,1,0,1,0,36616,0.145122,0.144814,4.14516,19,0.0100363,10,0.000600279,-2.38246,-0.247143,-0.238728,-38.4407,0.144814,
2,1,0,1,0,36616,0.146622,0.146324,4.07488,19,0.010191,10,0.000596252,-2.38989,-0.191167,-0.308631,-48.8905,0.146324,
2,1,0,1,0,36616.1,0.148122,0.147793,4.0001,19,0.0103429,10,0.000591186,-2.39793,-0.154441,-0.382022,-59.2966,0.147793,
2,1,0,1,0,36616.1,0.149619,0.149293,3.90006,19,0.0104911,10,0.000582253,-2.40893,-0.128572,-0.458887,-69.535,0.149293,
2,1,0,1,0,36616.1,0.151115,0.150762,3.78422,19,0.0106354,10,0.000570519,-2.42202,-0.106764,-0.552619,-81.3214,0.150762,
2,1,0,1,0,36616.2,0.152615,0.152321,3.65028,19,0.0107756,10,0.000556017,-2.43767,-0.0974025,-0.605734,-86.2916,0.152321,
2,1,0,1,0,36616.2,0.154115,0.153808,3.52218,19,0.0109107,10,0.00054174,-2.45319,-0.0895489,-0.658858,-90.5351,0.153808,
2,1,0,1,0,36616.3,0.155611,0.15533,3.38473,19,0.0110404,10,0.000525749,-2.47048,-0.085301,-0.691668,-91.2401,0.15533,
2,1,0,1,0,36616.3,0.157106,0.15676,3.24688,19,0.011165,10,0.000508982,-2.48853,-0.0809921,-0.728466,-92.1612,0.15676,
2,1,0,1,0,36616.3,0.15861,0.158355,3.11006,19,0.011285,10,0.000492492,-2.50723,-0.0809683,-0.72868,-88.3853,0.158355,
2,1,0,1,0,36616.4,0.160106,0.159762,2.97803,19,0.0113992,10,0.000475775,-2.52607,-0.0824926,-0.715216,-83.2968,0.159762,
2,1,0,1,0,36616.4,0.161602,0.161263,2.85949,19,0.0115088,10,0.000461129,-2.54371,-0.0861388,-0.684941,-76.4751,0.161263,
2,1,0,1,0,36616.4,0.163102,0.162769,2.74886,19,0.0116144,10,0.000447429,-2.56085,-0.0897857,-0.65712,-70.6747,0.1627686,
2,1,0,1,0,36616.5,0.164602,0.164271,2.64175,19,0.0117161,10,0.000433963,-2.57811,-0.0948165,-0.622255,-64.3983,0.1642711,
2,1,0,1,0,36616.5,0.166099,0.165782,2.55238,19,0.0118137,10,0.000423139,-2.59305,-0.102926,-0.573227,-57.3463,0.165782,
2,1,0,1,0,36616.6,0.167595,0.167293,2.4729,19,0.0119082,10,0.000413699,-2.60679,-0.114883,-0.513568,-49.6691,0.167293,
2,1,0,1,0,36616.6,0.169095,0.1688,2.40623,19,0.0120002,10,0.00040617,-2.61866,-0.124263,-0.474799,-44.5553,0.1688,
2,1,0,1,0,36616.6,0.170595,0.170283,2.33683,19,0.0120897,10,0.000397922,-2.63137,-0.12983,-0.45444,-41.5021,0.170283,
2,1,0,1,0,36616.7,0.172091,0.171829,2.27764,19,0.0121765,10,0.000391364,-2.64252,-0.135256,-0.436209,-38.8673,0.171829,
2,1,0,1,0,36616.7,0.173586,0.173274,2.2268,19,0.0122612,10,0.000385846,-2.65232,-0.159336,-0.370287,-32.2401,0.173274,
2,1,0,1,0,36616.7,0.17509,0.174788,2.17992,19,0.0123446,10,0.000381025,-2.66156,-0.177721,-0.33198,-28.3344,0.174788,
2,1,0,1,0,36616.8,0.176586,0.176241,2.13729,19,0.012426,10,0.000376677,-2.67014,-0.184272,-0.320178,-26.7692,0.176241,
2,1,0,1,0,36616.8,0.178083,0.177739,2.09981,19,0.0125059,10,0.000373217,-2.67782,-0.19927,-0.296081,-24.3389,0.177739,
2,1,0,1,0,36616.9,0.179582,0.179285,2.07042,19,0.0125847,10,0.000371195,-2.68394,-0.216927,-0.271981,-22.0111,0.179285,
2,1,0,1,0,36616.9,0.181082,0.180804,2.04222,19,0.0126623,10,0.000369243,-2.6899,-0.262663,-0.224622,-17.8879,0.1808041,
2,1,0,1,0,36616.9,0.182579,0.182248,2.01716,19,0.0127387,10,0.000367622,-2.69526,-0.268761,-0.219526,-17.2696,0.182248,
2,1,0,1,0,36617,0.184075,0.183801,1.99548,19,0.0128142,10,0.000366772,-2.69995,-0.278045,-0.212196,-16.51,0.183801,
2,1,0,1,0,36617,0.185579,0.185285,1.96882,19,0.0128892,10,0.000364794,-2.70579,-0.330216,-0.178671,-13.7482,0.185285,
2,1,0,1,0,36617,0.187074,0.186771,1.94894,19,0.012963,10,0.000364005,-2.7102,-0.413568,-0.142661,-10.8805,0.186771,
2,1,0,1,0,36617.1,0.18857,0.188257,1.93226,19,0.0130362,10,0.000363761,-2.71394,-0.416355,-0.141706,-10.7113,0.1882572,
2,1,0,1,0,36617.1,0.19007,0.189758,1.91767,19,0.013109,10,0.000363892,-2.71723,-0.43327,-0.136174,-10.1913,0.189758,
2,1,0,1,0,36617.2,0.19157,0.191232,1.90085,19,0.0131811,10,0.000363503,-2.72105,-0.515664,-0.114416,-8.5024,0.191232,
2,1,0,1,0,36617.2,0.193066,0.192736,1.88789,19,0.0132525,10,0.000363863,-2.72402,-0.561555,-0.105065,-7.73251,0.192736,
2,1,0,1,0,36617.2,0.194563,0.194266,1.88037,19,0.0133235,10,0.000365291,-2.72576,-0.551586,-0.106964,-7.83598,0.194266,
2,1,0,1,0,36617.3,0.196063,0.19575,1.86753,19,0.0133943,10,0.000365569,-2.72873,-0.529983,-0.111324,-8.11002,0.19575,
2,1,0,1,0,36617.3,0.197563,0.197238,1.85256,19,0.0134647,10,0.000365395,-2.73223,-0.618932,-0.0953255,-6.90989,0.197238,
2,1,0,1,0,36617.3,0.199059,0.198732,1.84331,19,0.0135344,10,0.000366324,-2.7344,-0.700742,-0.0841965,-6.07693,0.198732,
2,1,0,1,0,36617.4,0.200555,0.200292,1.83517,19,0.0136038,10,0.00036757,-2.73632,-0.694675,-0.0849318,-6.09558,0.200292,
2,1,0,1,0,36617.4,0.202059,0.201752,1.82937,19,0.0136733,10,0.000369079,-2.7377,-0.641324,-0.0919971,-6.56138,0.201752,
2,1,0,1,0,36617.5,0.203554,0.203255,1.81965,19,0.0137421,10,0.000369852,-2.74001,-0.805076,-0.073285,-5.20291,0.203255,
2,1,0,1,0,36617.5,0.20505,0.204738,1.81294,19,0.0138105,10,0.000371179,-2.74162,-1.24149,-0.0475236,-3.37108,0.204738,
2,1,0,1,0,36617.5,0.20655,0.206219,1.8058,19,0.0138789,10,0.000372391,-2.74333,-1.44991,-0.0406922,-2.87049,0.206219,
2,1,0,1,0,36617.6,0.20805,0.207742,1.80191,19,0.0139472,10,0.000374332,-2.74427,-0.830081,-0.0710774,-4.99195,0.207742,
2,1,0,1,0,36617.6,0.209546,0.209244,1.79492,19,0.0140151,10,0.000375576,-2.74596,-0.933171,-0.0632253,-4.4303,0.209244,
2,1,0,1,0,36617.6,0.211043,0.210718,1.78697,19,0.0140826,10,0.000376547,-2.74788,-1.00309,-0.058818,-4.11216,0.210718,
2,1,0,1,0,36617.7,0.212543,0.212245,1.7844,19,0.0141501,10,0.000378729,-2.74851,-1.85558,-0.0317959,-2.21269,0.212245,
2,1,0,1,0,36617.7,0.214043,0.213751,1.77687,19,0.0142175,10,0.000379808,-2.75034,-1.25571,-0.0469853,-3.26137,0.213751,
2,1,0,1,0,36617.8,0.215539,0.215238,1.77519,19,0.0142844,10,0.000382088,-2.75076,-1.02963,-0.0573024,-3.9619,0.215238,
2,1,0,1,0,36617.8,0.217035,0.216744,1.76908,19,0.0143512,10,0.000383438,-2.75225,-1.52204,-0.0387638,-2.67377,0.216744,
2,1,0,1,0,36617.8,0.218538,0.21822,1.76716,19,0.0144181,10,0.00038563,-2.75272,-4.54568,-0.0129793,-0.891617,0.21822,
2,1,0,1,0,36617.9,0.220034,0.21974,1.7591,19,0.0144845,10,0.000386545,-2.75471,-1.50063,-0.0393169,-2.69569,0.21974,
2,1,0,1,0,36617.9,0.22153,0.221229,1.75308,19,0.0145509,10,0.000387832,-2.7562,-1.00401,-0.0587642,-4.02766,0.221229,
2,1,0,1,0,36617.9,0.22303,0.222712,1.74503,19,0.0146171,10,0.00038864,-2.7582,-1.10775,-0.0532609,-3.64497,0.222712,
2,1,0,1,0,36618,0.22453,0.224185,1.74486,19,0.0146832,10,0.000391171,-2.75824,-1.55755,-0.03788,-2.58238,0.224185,
2,1,0,1,0,36618,0.226026,0.22575,1.74455,19,0.014749,10,0.000393833,-2.75832,-1.53579,-0.0384168,-2.61396,0.22575,
2,1,0,1,0,36618.1,0.227523,0.227212,1.74067,19,0.0148147,10,0.000395501,-2.75928,-1.0243,-0.0576002,-3.90505,0.227212,
2,1,0,1,0,36618.1,0.229023,0.22871,1.73797,19,0.0148804,10,0.00039749,-2.75996,-1.32773,-0.0444367,-3.00461,0.22871,
2,1,0,1,0,36618.1,0.230523,0.230233,1.73393,19,0.0149459,10,0.000399206,-2.76097,-1.84815,-0.0319239,-2.15705,0.230233,
2,1,0,1,0,36618.2,0.232019,0.231682,1.72695,19,0.0150112,10,0.000400103,-2.76272,-2.39134,-0.0246723,-1.66358,0.231682,
2,1,0,1,0,36618.2,0.233515,0.23321,1.72346,19,0.0150763,10,0.000401928,-2.7636,-2.09477,-0.0281654,-1.89884,0.23321,
2,1,0,1,0,36618.2,0.235018,0.234689,1.71994,19,0.0151417,10,0.000403649,-2.76449,-2.30311,-0.0256175,-1.72281,0.234689,
2,1,0,1,0,36618.3,0.236514,0.236187,1.715,19,0.0152066,10,0.000405061,-2.76574,-1.77944,-0.0331565,-2.22274,0.236187,
2,1,0,1,0,36618.3,0.23801,0.237736,1.7166,19,0.0152714,10,0.000408098,-2.76533,-2.75615,-0.0214066,-1.4317,0.237736,
2,1,0,1,0,36618.4,0.23951,0.23922,1.71322,19,0.0153362,10,0.000409838,-2.76619,-1.83128,-0.032218,-2.15473,0.23922,
2,1,0,1,0,36618.4,0.24101,0.240704,1.71308,19,0.015401,10,0.000412346,-2.76622,-1.52653,-0.0386498,-2.5769,0.2407044,
2,1,0,1,0,36618.4,0.242506,0.242182,1.70258,19,0.0154654,10,0.000412334,-2.76889,-1.46679,-0.040224,-2.68188,0.242182,
2,1,0,1,0,36618.5,0.244003,0.243704,1.70333,19,0.0155297,10,0.000415109,-2.7687,-3.74536,-0.0157528,-1.04906,0.243704,
2,1,0,1,0,36618.5,0.245503,0.245187,1.70329,19,0.0155942,10,0.000417626,-2.76871,-2.40994,-0.024482,-1.62918,0.245187,
2,1,0,1,0,36618.5,0.247003,0.246701,1.69816,19,0.0156586,10,0.000418938,-2.77002,-1.74756,-0.0337614,-2.24103,0.246701,
2,1,0,1,0,36618.6,0.248499,0.248159,1.69579,19,0.0157226,10,0.000420826,-2.77063,-2.68526,-0.0219718,-1.45428,0.248159,
2,1,0,1,0,36618.6,0.249995,0.249684,1.69624,19,0.0157866,10,0.000423524,-2.77051,-2.41742,-0.0244062,-1.61268,0.249684,
2,1,0,1,0,36618.7,0.251498,0.251188,1.6941,19,0.0158508,10,0.000425537,-2.77106,-3.7456,-0.0157518,-1.03666,0.251188,
2,1,0,1,0,36618.7,0.252994,0.25269,1.69021,19,0.0159145,10,0.000427098,-2.77206,-1.39183,-0.0423903,-2.78711,0.25269,
2,1,0,1,0,36618.7,0.25449,0.254252,1.68508,19,0.0159782,10,0.000428435,-2.77338,-1.87027,-0.0315463,-2.07496,0.2542516,
2,1,0,1,0,36618.8,0.25599,0.255659,1.68328,19,0.0160419,10,0.000430346,-2.77384,-2.14104,-0.0275568,-1.81216,0.255659,
2,1,0,1,0,36618.8,0.25749,0.257168,1.68069,19,0.0161055,10,0.000432218,-2.77451,-6.81436,-0.00865819,-0.568638,0.257168,
2,1,0,1,0,36618.8,0.258987,0.258722,1.67604,19,0.0161689,10,0.000433628,-2.77572,-4.04884,-0.0145721,-0.955891,0.258722,
2,1,0,1,0,36618.9,0.260483,0.26024,1.67832,19,0.0162323,10,0.000436765,-2.77513,-1.44165,-0.0409254,-2.67875,0.26024,
2,1,0,1,0,36618.9,0.261983,0.261686,1.67379,19,0.0162956,10,0.000438008,-2.7763,-1.88558,-0.0312901,-2.04199,0.261686,
2,1,0,1,0,36619,0.263483,0.263151,1.67361,19,0.0163588,10,0.000440411,-2.77635,27.9527,0.00211071,0.137452,0.263151,
2,1,0,1,0,36619,0.264978,0.264717,1.67029,19,0.0164218,10,0.000442155,-2.77721,-3.51565,-0.0167821,-1.09121,0.264717,
2,1,0,1,0,36619,0.266474,0.266147,1.66731,19,0.0164848,10,0.000443749,-2.77798,-1.51866,-0.0388501,-2.52372,0.266147,
2,1,0,1,0,36619.1,0.267977,0.267665,1.65865,19,0.0165479,10,0.000443962,-2.78025,-1.92473,-0.0306536,-1.99194,0.267665,
2,1,0,1,0,36619.1,0.269474,0.269195,1.65651,19,0.0166105,10,0.000445924,-2.78081,-2.81587,-0.0209527,-1.36054,0.269195,
2,1,0,1,0,36619.1,0.27097,0.270672,1.65969,19,0.0166731,10,0.000449232,-2.77997,-1.66221,-0.035495,-2.29722,0.270672,
2,1,0,1,0,36619.2,0.27247,0.272195,1.65863,19,0.0167359,10,0.00045147,-2.78025,-1.68553,-0.0350038,-2.25691,0.272195,
2,1,0,1,0,36619.2,0.27397,0.273659,1.65446,19,0.0167985,10,0.000452757,-2.78134,-1.22544,-0.0481461,-3.10806,0.2736586,
2,1,0,1,0,36619.3,0.275467,0.275153,1.65163,19,0.0168608,10,0.00045445,-2.78209,-1.36324,-0.0432792,-2.78718,0.275153,
2,1,0,1,0,36619.3,0.276963,0.276691,1.64637,19,0.016923,10,0.000455536,-2.78347,-2.2771,-0.0259101,-1.66462,0.276691,
2,1,0,1,0,36619.3,0.278463,0.278149,1.64412,19,0.0169853,10,0.00045731,-2.78407,-2.39147,-0.024671,-1.58091,0.2781491,
2,1,0,1,0,36619.4,0.279963,0.279676,1.64252,19,0.0170475,10,0.000459372,-2.78449,-3.51473,-0.0167865,-1.07639,0.279676,
2,1,0,1,0,36619.4,0.281459,0.281133,1.63634,19,0.0171093,10,0.000460029,-2.78613,-1.65618,-0.0356242,-2.28186,0.281133,
2,1,0,1,0,36619.4,0.282954,0.282653,1.6361,19,0.0171711,10,0.000462448,-2.78619,-1.70089,-0.0346877,-2.21395,0.282653,
2,1,0,1,0,36619.5,0.284458,0.284156,1.63268,19,0.0172331,10,0.000463936,-2.7871,-3.87951,-0.0152081,-0.968764,0.284156,
2,1,0,1,0,36619.5,0.285954,0.285636,1.6333,19,0.0172947,10,0.000466528,-2.78694,-1.4026,-0.0420649,-2.67453,0.285636,
2,1,0,1,0,36619.6,0.28745,0.287186,1.6272,19,0.0173562,10,0.000467308,-2.78856,-1.28183,-0.0460278,-2.92227,0.287186,
2,1,0,1,0,36619.6,0.28895,0.28862,1.62482,19,0.0174177,10,0.000468957,-2.78919,-29.1791,-0.002022,-0.128065,0.28862,
2,1,0,1,0,36619.6,0.29045,0.290106,1.62164,19,0.0174791,10,0.000470447,-2.79005,-2.20871,-0.0267125,-1.69268,0.290106,
2,1,0,1,0,36619.7,0.291947,0.291665,1.61794,19,0.0175403,10,0.000471896,-2.79104,-1.12935,-0.0522426,-3.29834,0.291665,
2,1,0,1,0,36619.7,0.293443,0.293122,1.61,19,0.0176013,10,0.000471927,-2.79317,-1.38657,-0.0425511,-2.68625,0.293122,
2,1,0,1,0,36619.7,0.294943,0.294635,1.61124,19,0.0176623,10,0.000474729,-2.79284,-2.39719,-0.0246122,-1.54938,0.294635,
2,1,0,1,0,36619.8,0.296443,0.296149,1.61074,19,0.0177233,10,0.00047702,-2.79297,-6.3266,-0.0093257,-0.58496,0.296149,
2,1,0,1,0,36619.8,0.297939,0.297654,1.6089,19,0.017784,10,0.000478894,-2.79347,-1.49346,-0.0395056,-2.47428,0.297654,
2,1,0,1,0,36619.9,0.299434,0.299116,1.60323,19,0.0178447,10,0.000479551,-2.79501,-0.0176721,-3.33859,-181.223,0.299116,
2,1,0,0,0,36619.9,0.299962,0.299746,1.5403,19,0.0178685,10,0.000461698,-2.8124,0.00118243,49.8973,1562.41,0.299746,
2,1,0,1,0,36619.9,0.298689,0.298386,0.520478,19,0.017897,10,0.000155304,-3.2836,0.00187743,31.426,502.986,0.298386,
2,1,0,1,0,36619.9,0.297189,0.296896,0.0666103,19,0.0179061,10,1.97763e-05,-4.17646,0.00703472,8.38697,248.645,0.296896,
2,0,0,1,0,36620,0.295692,0.295333,-0.156852,19,0.0179031,10,-4.63235e-05,-3.80451,-0.0149679,-3.94176,122.893,0.2953333,
2,0,0,1,0,36620,0.294196,0.293881,-0.285461,19,0.0178939,10,-8.38915e-05,-3.54445,-0.00680873,-8.66534,74.3059,0.293881,
2,0,0,1,0,36620,0.292696,0.292422,-0.371579,19,0.0178807,10,-0.000108658,-3.42995,-0.0158263,-3.72797,50.1313,0.292422,
2,0,0,1,0,36620.1,0.291196,0.290846,-0.440234,19,0.0178649,10,-0.00012804,-3.35632,-0.0244234,-2.41571,39.5498,0.2908459,
2,0,0,1,0,36620.1,0.2897,0.289355,-0.493183,19,0.0178469,10,-0.000142705,-3.30699,-0.0353453,-1.66925,30.9178,0.289355,
2,0,0,1,0,36620.2,0.288205,0.287886,-0.529331,19,0.0178272,10,-0.000152387,-3.27627,-0.0456197,-1.2933,26.3523,0.2878865,
2,0,0,1,0,36620.2,0.286701,0.286373,-0.562046,19,0.017806,10,-0.000160955,-3.25023,-0.0580375,-1.01658,22.2687,0.286373,
2,0,0,1,0,36620.2,0.285205,0.284914,-0.594848,19,0.0177836,10,-0.000169481,-3.22559,-0.0679235,-0.868624,20.1779,0.284914,
2,0,0,1,0,36620.3,0.283708,0.283377,-0.623731,19,0.0177601,10,-0.000176751,-3.205,-0.0826014,-0.714273,17.4684,0.283377,
2,0,0,1,0,36620.3,0.282208,0.281892,-0.651443,19,0.0177354,10,-0.000183636,-3.18612,-0.0985209,-0.598858,15.1972,0.281892,
2,0,0,1,0,36620.3,0.280709,0.280403,-0.6778,19,0.0177098,10,-0.000190057,-3.1689,-0.105619,-0.558611,14.7098,0.280403,
2,0,0,1,0,36620.4,0.279212,0.278872,-0.701266,19,0.0176835,10,-0.000195563,-3.15412,-0.110512,-0.533879,14.5441,0.278872,
2,0,0,1,0,36620.4,0.277716,0.277401,-0.725354,19,0.0176563,10,-0.000201214,-3.13945,-0.115776,-0.509604,14.2257,0.277401,
2,0,0,1,0,36620.5,0.276216,0.275918,-0.743296,19,0.0176282,10,-0.000205089,-3.12884,-0.130138,-0.453363,13.0886,0.275918,
2,0,0,1,0,36620.5,0.274716,0.274404,-0.761477,19,0.0175995,10,-0.000208952,-3.11834,-0.142913,-0.412839,12.2214,0.274404,
2,0,0,1,0,36620.5,0.27322,0.272888,-0.776198,19,0.0175701,10,-0.000211815,-3.11003,-0.150771,-0.391323,11.8614,0.272888,
2,0,0,1,0,36620.6,0.271725,0.271401,-0.789238,19,0.0175402,10,-0.0002142,-3.10279,-0.155715,-0.378896,11.7779,0.271401,
2,0,0,1,0,36620.6,0.270221,0.269886,-0.811484,19,0.0175093,10,-0.000219008,-3.09072,-0.157955,-0.373524,11.8247,0.269886,
2,0,0,1,0,36620.6,0.268725,0.268425,-0.828082,19,0.017478,10,-0.000222278,-3.08193,-0.202021,-0.292049,9.38602,0.268425,
2,0,0,1,0,36620.7,0.267228,0.266885,-0.838212,19,0.0174462,10,-0.000223706,-3.07665,-0.186798,-0.315849,10.3312,0.266885,
2,0,0,1,0,36620.7,0.265728,0.265423,-0.858055,19,0.0174138,10,-0.000227747,-3.06649,-0.186432,-0.31647,10.5517,0.265423,
2,0,0,1,0,36620.8,0.264228,0.263925,-0.87011,19,0.0173808,10,-0.000229644,-3.06043,-0.20385,-0.289429,9.82376,0.263925,
2,0,0,1,0,36620.8,0.262732,0.262395,-0.885259,19,0.0173473,10,-0.000232288,-3.05293,-0.252656,-0.233519,8.03713,0.262395,
2,0,0,1,0,36620.8,0.261236,0.260961,-0.891217,19,0.0173133,10,-0.000232573,-3.05002,-0.269152,-0.219207,7.69817,0.260961,
2,0,0,1,0,36620.9,0.259736,0.259459,-0.907728,19,0.0172789,10,-0.000235518,-3.04204,-0.229834,-0.256708,9.16177,0.259459,
2,0,0,1,0,36620.9,0.258236,0.257924,-0.92185,19,0.0172439,10,-0.000237767,-3.03534,-0.225829,-0.26126,9.41409,0.257924,
2,0,0,1,0,36620.9,0.256741,0.25642,-0.93639,19,0.0172085,10,-0.000240109,-3.02854,-0.26868,-0.219592,8.00634,0.25642,
2,0,0,1,0,36621,0.255241,0.254908,-0.948594,19,0.0171725,10,-0.000241805,-3.02292,-0.274674,-0.2148,7.92345,0.254908,
2,0,0,1,0,36621,0.253741,0.253402,-0.960449,19,0.0171362,10,-0.00024338,-3.01753,-0.293666,-0.200909,7.49676,0.253402,
2,0,0,1,0,36621.1,0.252245,0.251946,-0.968479,19,0.0170996,10,-0.000244004,-3.01391,-0.234076,-0.252055,9.52673,0.251946,
2,0,0,1,0,36621.1,0.250748,0.250425,-0.982072,19,0.0170624,10,-0.000245935,-3.00786,-0.267258,-0.22076,8.46262,0.250425,
2,0,0,1,0,36621.1,0.249248,0.248991,-0.989412,19,0.0170248,10,-0.000246354,-3.00462,-0.298901,-0.19739,7.66453,0.248991,
2,0,0,1,0,36621.2,0.247748,0.24745,-0.997397,19,0.0169868,10,-0.000246806,-3.00113,-0.3783,-0.155961,6.11832,0.24745,
2,0,0,1,0,36621.2,0.246252,0.245904,-1.01268,19,0.0169485,10,-0.000249021,-2.99453,-0.296247,-0.199158,7.88216,0.245904,
2,0,0,1,0,36621.2,0.244756,0.244414,-1.02691,19,0.0169097,10,-0.000250991,-2.98847,-0.284153,-0.207635,8.2777,0.244414,
2,0,0,1,0,36621.3,0.243252,0.242899,-1.03769,19,0.0168703,10,-0.000252054,-2.98393,-0.401116,-0.147089,5.92587,0.242899,
2,0,0,1,0,36621.3,0.241756,0.241431,-1.04424,19,0.0168308,10,-0.000252113,-2.9812,-0.330381,-0.178582,7.28043,0.241431,
2,0,0,1,0,36621.4,0.240261,0.239979,-1.05394,19,0.016791,10,-0.000252923,-2.97718,-0.32276,-0.182798,7.53912,0.239979,
2,0,0,1,0,36621.4,0.238761,0.238458,-1.06364,19,0.0167506,10,-0.000253634,-2.9732,-0.371953,-0.158622,6.59674,0.2384582,
2,0,0,1,0,36621.4,0.237261,0.236963,-1.07074,19,0.0167098,10,-0.000253726,-2.97031,-0.44912,-0.131368,5.50212,0.236963,
2,0,0,1,0,36621.5,0.235765,0.235458,-1.0828,19,0.0166688,10,-0.000254954,-2.96545,-0.401995,-0.146768,6.21557,0.235458,
2,0,0,1,0,36621.5,0.234268,0.233964,-1.09054,19,0.0166275,10,-0.000255147,-2.96236,-0.380556,-0.155036,6.62583,0.233964,
2,0,0,1,0,36621.5,0.232768,0.232466,-1.10634,19,0.0165857,10,-0.000257185,-2.95611,-0.402243,-0.146677,6.30465,0.232466,
2,0,0,1,0,36621.6,0.231268,0.230992,-1.11347,19,0.0165434,10,-0.000257202,-2.95332,-0.471884,-0.125031,5.41501,0.230992,
2,0,0,1,0,36621.6,0.229772,0.229444,-1.1236,19,0.016501,10,-0.000257804,-2.94939,-0.459362,-0.128439,5.62072,0.229444,
2,0,0,1,0,36621.7,0.228275,0.227923,-1.13087,19,0.0164583,10,-0.000257751,-2.94659,-0.426624,-0.138295,6.09985,0.227923,
2,0,0,1,0,36621.7,0.226772,0.226482,-1.13691,19,0.016415,10,-0.00025749,-2.94427,-0.369921,-0.159493,7.09128,0.2264823,
2,0,0,1,0,36621.7,0.225276,0.22497,-1.14745,19,0.0163715,10,-0.00025814,-2.94027,-0.438547,-0.134535,6.04401,0.22497,
2,0,0,1,0,36621.8,0.223781,0.223466,-1.15778,19,0.0163277,10,-0.000258724,-2.93637,-0.403765,-0.146125,6.60517,0.223466,
2,0,0,1,0,36621.8,0.222281,0.222002,-1.16382,19,0.0162835,10,-0.00025837,-2.93411,-0.499529,-0.118111,5.37699,0.2220019,
2,0,0,1,0,36621.8,0.220781,0.220482,-1.17674,19,0.016239,10,-0.000259451,-2.92932,-0.351987,-0.16762,7.67768,0.220482,
2,0,0,1,0,36621.9,0.219285,0.218956,-1.18695,19,0.0161942,10,-0.000259891,-2.92557,-0.485427,-0.121543,5.60498,0.218956,
2,0,0,1,0,36621.9,0.217788,0.217449,-1.19666,19,0.016149,10,-0.000260213,-2.92203,-0.577663,-0.102136,4.75944,0.2174487,
2,0,0,1,0,36622,0.216288,0.21598,-1.19674,19,0.0161034,10,-0.000258473,-2.922,-0.481113,-0.122632,5.75746,0.21598,
2,0,0,1,0,36622,0.214788,0.214468,-1.20721,19,0.0160575,10,-0.000258908,-2.91822,-0.545932,-0.108072,5.11914,0.2144682,
2,0,0,1,0,36622,0.213292,0.212945,-1.22324,19,0.0160114,10,-0.000260483,-2.91249,-0.510035,-0.115678,5.52422,0.212945,
2,0,0,1,0,36622.1,0.211796,0.211462,-1.2304,19,0.0159649,10,-0.000260183,-2.90995,-0.510609,-0.115548,5.53655,0.211462,
2,0,0,1,0,36622.1,0.210293,0.209973,-1.2396,19,0.0159178,10,-0.000260282,-2.90672,-0.435994,-0.135323,6.5508,0.209973,
2,0,0,1,0,36622.1,0.208797,0.20851,-1.24792,19,0.0158708,10,-0.000260204,-2.90381,-0.366547,-0.160961,7.85265,0.20851,
2,0,0,1,0,36622.2,0.207301,0.206988,-1.25721,19,0.0158233,10,-0.000260227,-2.90059,-0.339668,-0.173699,8.50054,0.206988,
2,0,0,1,0,36622.2,0.205801,0.205494,-1.26895,19,0.0157752,10,-0.000260761,-2.89656,-0.523731,-0.112653,5.55199,0.2054939,
2,0,0,1,0,36622.3,0.204301,0.203956,-1.27666,19,0.0157268,10,-0.000260382,-2.89393,-0.670219,-0.088031,4.39136,0.203956,
2,0,0,1,0,36622.3,0.202804,0.202487,-1.27963,19,0.0156783,10,-0.000259109,-2.89291,-0.519597,-0.113549,5.70104,0.202487,
2,0,0,1,0,36622.3,0.201308,0.200977,-1.28955,19,0.0156295,10,-0.000259169,-2.88956,-0.398463,-0.148069,7.49812,0.200977,
2,0,0,1,0,36622.4,0.199808,0.199499,-1.30503,19,0.0155801,10,-0.000260353,-2.88438,-0.434785,-0.135699,6.90092,0.199499,
2,0,0,1,0,36622.4,0.198308,0.197962,-1.31224,19,0.0155304,10,-0.000259773,-2.88199,-0.487384,-0.121054,6.18235,0.1979619,
2,0,0,1,0,36622.4,0.196812,0.196485,-1.32051,19,0.0154805,10,-0.000259461,-2.87926,-0.465962,-0.12662,6.52328,0.196485,
2,0,0,1,0,36622.5,0.195316,0.19502,-1.33148,19,0.0154303,10,-0.000259665,-2.87567,-0.390349,-0.151147,7.84407,0.19502,
2,0,0,1,0,36622.5,0.193813,0.193445,-1.34463,19,0.0153794,10,-0.000260111,-2.8714,-0.417143,-0.141438,7.4211,0.193445,
2,0,0,1,0,36622.6,0.192317,0.192027,-1.35168,19,0.0153283,10,-0.000259558,-2.86913,-0.48718,-0.121105,6.38343,0.1920266,
2,0,0,1,0,36622.6,0.190821,0.190479,-1.3599,19,0.0152768,10,-0.000259032,-2.86649,-0.508518,-0.116023,6.18303,0.1904795,
2,0,0,1,0,36622.6,0.189321,0.188972,-1.37207,19,0.015225,10,-0.000259283,-2.86262,-0.49731,-0.118638,6.37066,0.1889718,
2,0,0,1,0,36622.7,0.187821,0.187479,-1.38242,19,0.0151726,10,-0.000259174,-2.85936,-0.470912,-0.125289,6.77217,0.187479,
2,0,0,1,0,36622.7,0.186324,0.186021,-1.3975,19,0.01512,10,-0.000259964,-2.85465,-0.454297,-0.129871,7.05845,0.186021,
2,0,0,1,0,36622.7,0.184828,0.184487,-1.41,19,0.015067,10,-0.000260127,-2.85078,-0.479769,-0.122976,6.74157,0.1844873,
2,0,0,1,0,36622.8,0.183328,0.182999,-1.41891,19,0.0150135,10,-0.000259659,-2.84805,-0.405399,-0.145536,8.05503,0.182999,
2,0,0,1,0,36622.8,0.181828,0.18154,-1.43324,19,0.0149595,10,-0.000260192,-2.84368,-0.317869,-0.185611,10.357,0.18154,
2,0,0,1,0,36622.9,0.180332,0.180018,-1.44347,19,0.0149051,10,-0.00025985,-2.84059,-0.389148,-0.151613,8.54543,0.180018,
2,0,0,1,0,36622.9,0.178836,0.178555,-1.45707,19,0.0148502,10,-0.000260166,-2.83652,-0.401087,-0.1471,8.36943,0.178555,
2,0,0,1,0,36622.9,0.177333,0.176998,-1.46664,19,0.0147947,10,-0.000259591,-2.83368,-0.365166,-0.16157,9.26631,0.176998,
2,0,0,1,0,36623,0.175837,0.175553,-1.483,19,0.0147389,10,-0.000260346,-2.82886,-0.309981,-0.190334,11.0072,0.175553,
2,0,0,1,0,36623,0.174341,0.174023,-1.49864,19,0.0146825,10,-0.000260797,-2.8243,-0.33038,-0.178582,10.4274,0.174023,
2,0,0,1,0,36623,0.172841,0.172514,-1.51599,19,0.0146254,10,-0.000261529,-2.8193,-0.364917,-0.161681,9.52429,0.172514,
2,0,0,1,0,36623.1,0.171341,0.170991,-1.52604,19,0.0145677,10,-0.000260939,-2.81643,-0.345115,-0.170957,10.2058,0.170991,
2,0,0,1,0,36623.1,0.169844,0.169514,-1.54616,19,0.0145097,10,-0.000262095,-2.81075,-0.277655,-0.212494,12.845,0.169514,
2,0,0,1,0,36623.2,0.168348,0.168028,-1.56694,19,0.0144508,10,-0.000263289,-2.80495,-0.272378,-0.21661,13.2482,0.168028,
2,0,0,1,0,36623.2,0.166848,0.166497,-1.5842,19,0.0143911,10,-0.000263765,-2.80019,-0.291585,-0.202342,12.5093,0.166497,
2,0,0,1,0,36623.2,0.165348,0.165059,-1.6032,19,0.0143306,10,-0.000264623,-2.79501,-0.294307,-0.200471,12.5673,0.165059,
2,0,0,1,0,36623.3,0.163852,0.163513,-1.62821,19,0.0142696,10,-0.000266233,-2.78829,-0.261568,-0.225563,14.3423,0.163513,
2,0,0,1,0,36623.3,0.162357,0.162032,-1.65341,19,0.0142078,10,-0.000267905,-2.78162,-0.215498,-0.273784,17.6116,0.162032,
2,0,0,1,0,36623.3,0.160853,0.160552,-1.67532,19,0.0141446,10,-0.000268976,-2.7759,-0.231603,-0.254746,16.6289,0.160552,
2,0,0,1,0,36623.4,0.159357,0.159042,-1.70259,19,0.0140808,10,-0.000270783,-2.76889,-0.211234,-0.279312,18.5723,0.159042,
2,0,0,1,0,36623.4,0.15786,0.157524,-1.7314,19,0.014016,10,-0.000272737,-2.7616,-0.1943,-0.303654,20.5644,0.157524,
2,0,0,1,0,36623.5,0.156361,0.156028,-1.75978,19,0.0139499,10,-0.000274575,-2.75454,-0.17227,-0.342486,23.6431,0.156028,
2,0,0,1,0,36623.5,0.154861,0.154568,-1.79848,19,0.0138823,10,-0.000277987,-2.74509,-0.156707,-0.376498,26.5272,0.154568,
2,0,0,1,0,36623.5,0.153364,0.153016,-1.84239,19,0.0138135,10,-0.000281915,-2.73462,-0.162503,-0.36307,26.1348,0.153016,
2,0,0,1,0,36623.6,0.151868,0.151578,-1.88346,19,0.0137433,10,-0.000285491,-2.72504,-0.145551,-0.405356,29.8117,0.151578,
2,0,0,1,0,36623.6,0.150368,0.150026,-1.93167,19,0.0136713,10,-0.000289801,-2.71407,-0.127891,-0.461332,34.7308,0.150026,
2,0,0,1,0,36623.6,0.148868,0.148536,-1.98653,19,0.0135973,10,-0.000295071,-2.70191,-0.12024,-0.490686,38.0425,0.148536,
2,0,0,1,0,36623.7,0.147372,0.147057,-2.04419,19,0.0135214,10,-0.000300614,-2.68948,-0.114241,-0.516453,41.2126,0.147057,
2,0,0,1,0,36623.7,0.145877,0.145539,-2.10116,19,0.0134431,10,-0.0003058,-2.67754,-0.103871,-0.568012,46.8916,0.145539,
2,0,0,1,0,36623.8,0.144373,0.14407,-2.17514,19,0.013362,10,-0.000313373,-2.66251,-0.100113,-0.589335,50.3465,0.1440704,
2,0,0,1,0,36623.8,0.142877,0.142545,-2.25775,19,0.0132783,10,-0.00032183,-2.64632,-0.0947118,-0.622943,54.9992,0.1425446,
2,0,0,1,0,36623.8,0.14138,0.141058,-2.34631,19,0.0131915,10,-0.000330965,-2.62961,-0.0930333,-0.634181,58.0582,0.141058,
2,0,0,1,0,36623.9,0.13988,0.139533,-2.44087,19,0.0131012,10,-0.000340582,-2.61246,-0.0910617,-0.647913,61.669,0.139533,
2,0,0,1,0,36623.9,0.13838,0.138089,-2.53492,19,0.0130074,10,-0.000350046,-2.59604,-0.0859663,-0.686315,67.8806,0.138089,
2,0,0,1,0,36623.9,0.136884,0.136544,-2.63798,19,0.0129101,10,-0.0003602,-2.57873,-0.0863926,-0.682929,70.2996,0.136544,
2,0,0,1,0,36624,0.135388,0.135031,-2.7441,19,0.0128087,10,-0.000370538,-2.5616,-0.0870773,-0.677559,72.6815,0.135031,
2,0,0,1,0,36624,0.133888,0.133567,-2.85374,19,0.012703,10,-0.000381166,-2.54459,-0.0893181,-0.66056,73.6489,0.133567,
2,0,0,1,0,36624.1,0.132389,0.132085,-2.96186,19,0.0125933,10,-0.000391217,-2.52844,-0.0913713,-0.645717,74.7342,0.1320851,
2,0,0,1,0,36624.1,0.130893,0.130596,-3.07702,19,0.0124796,10,-0.000401847,-2.51187,-0.0942165,-0.626218,75.0603,0.1305961,
2,0,0,1,0,36624.1,0.129393,0.129087,-3.1832,19,0.0123616,10,-0.00041091,-2.49714,-0.0995059,-0.59293,73.588,0.129087,
2,0,0,1,0,36624.2,0.127893,0.12758,-3.29919,19,0.0122394,10,-0.00042091,-2.48159,-0.10633,-0.554877,71.1244,0.12758,
2,0,0,1,0,36624.2,0.126397,0.126109,-3.39442,19,0.0121136,10,-0.000428068,-2.46923,-0.116429,-0.506747,67.0084,0.126109,
2,0,0,1,0,36624.2,0.1249,0.124517,-3.49725,19,0.0119841,10,-0.000435467,-2.45627,-0.121253,-0.486587,66.2239,0.124517,
2,0,0,1,0,36624.3,0.1234,0.123058,-3.59067,19,0.0118505,10,-0.000441861,-2.44482,-0.135147,-0.436561,61.1031,0.123058,
2,0,0,1,0,36624.3,0.1219,0.121575,-3.68123,19,0.0117134,10,-0.000447544,-2.43401,-0.151136,-0.390376,55.9963,0.121575,
2,0,0,1,0,36624.4,0.120404,0.120052,-3.76057,19,0.0115734,10,-0.000451463,-2.42475,-0.162802,-0.362402,53.1765,0.120052,
2,0,0,1,0,36624.4,0.118908,0.118585,-3.84737,19,0.0114306,10,-0.000456241,-2.41484,-0.175332,-0.336505,50.4431,0.118585,
2,0,0,1,0,36624.4,0.117404,0.117072,-3.91833,19,0.011284,10,-0.000458728,-2.4069,-0.190162,-0.310262,47.3197,0.117072,
2,0,0,1,0,36624.5,0.115909,0.115571,-3.98622,19,0.0111355,10,-0.000460692,-2.39944,-0.226097,-0.26095,40.4602,0.115571,
2,0,0,1,0,36624.5,0.114413,0.114044,-4.04353,19,0.0109847,10,-0.00046114,-2.39324,-0.250309,-0.235709,37.1371,0.114044,
2,0,0,1,0,36624.5,0.112913,0.112581,-4.09154,19,0.0108315,10,-0.000460629,-2.38811,-0.28799,-0.204868,32.6872,0.112581,
2,0,0,1,0,36624.6,0.111413,0.111068,-4.13758,19,0.0106765,10,-0.000459552,-2.38325,-0.340881,-0.173081,27.9072,0.111068,
2,0,0,1,0,36624.6,0.109917,0.109604,-4.17684,19,0.0105202,10,-0.000457799,-2.37915,-0.419792,-0.140546,22.8822,0.109604,
2,0,0,1,0,36624.7,0.10842,0.108095,-4.21093,19,0.0103627,10,-0.00045518,-2.37562,-0.551958,-0.106892,17.5435,0.108095,
2,0,0,1,0,36624.7,0.10692,0.106578,-4.23362,19,0.0102038,10,-0.00045121,-2.37329,-0.762324,-0.0773949,12.7612,0.106578,
2,0,0,1,0,36624.7,0.10542,0.105083,-4.24649,19,0.0100441,10,-0.000446235,-2.37197,-1.00904,-0.0584717,9.67192,0.105083,
2,0,0,1,0,36624.8,0.103924,0.103643,-4.25908,19,0.00988441,10,-0.000441425,-2.37068,-2.72529,-0.021649,3.59011,0.103643,
2,0,0,1,0,36624.8,0.102427,0.102112,-4.25918,19,0.00972446,10,-0.000434914,-2.37067,4.45002,0.0132584,-2.2001,0.1021122,
2,0,0,1,0,36624.8,0.100924,0.100608,-4.24767,19,0.00956383,10,-0.000427349,-2.37185,1.45337,0.0405953,-6.72854,0.100608,
2,0,0,1,0,36624.9,0.0994284,0.0990772,-4.23715,19,0.00940443,10,-0.000419805,-2.37293,0.957792,0.0616,-10.1805,0.0990772,
2,0,0,1,0,36624.9,0.0979329,0.0975981,-4.21543,19,0.00924557,10,-0.000411418,-2.37516,0.737673,0.0799812,-13.1786,0.0975981,
2,0,0,1,0,36625,0.0964329,0.0960713,-4.2005,19,0.00908699,10,-0.000403548,-2.3767,0.574901,0.102626,-16.8022,0.0960713,
2,0,0,1,0,36625,0.094933,0.0945494,-4.17173,19,0.00892929,10,-0.000394435,-2.37968,0.49879,0.118286,-19.2433,0.09454938,
2,0,0,1,0,36625,0.0934366,0.0930727,-4.14841,19,0.00877313,10,-0.000386104,-2.38212,0.491717,0.119988,-19.4083,0.0930727,
2,0,0,1,0,36625.1,0.0919401,0.0916159,-4.11716,19,0.00861805,10,-0.000377197,-2.3854,0.453579,0.130077,-20.876,0.0916159,
2,0,0,1,0,36625.1,0.0904402,0.0901024,-4.08469,19,0.00846361,10,-0.000368041,-2.38884,0.421187,0.14008,-22.3041,0.0901024,
2,0,0,1,0,36625.1,0.0889402,0.0885955,-4.05265,19,0.00831038,10,-0.000359047,-2.39226,0.425573,0.138637,-21.9307,0.08859551,
2,0,0,1,0,36625.2,0.0874438,0.0871147,-4.01682,19,0.00815891,10,-0.000349924,-2.39612,0.428858,0.137575,-21.6018,0.0871147,
2,0,0,1,0,36625.2,0.0859483,0.0856458,-3.98334,19,0.00800856,10,-0.000341156,-2.39975,0.490178,0.120364,-18.7483,0.0856458,
2,0,0,1,0,36625.3,0.0844447,0.0841274,-3.95866,19,0.00785854,10,-0.000333032,-2.40245,0.494291,0.119363,-18.4424,0.0841274,
2,0,0,1,0,36625.3,0.0829492,0.0826461,-3.93211,19,0.00771037,10,-0.000324973,-2.40537,0.475173,0.124165,-19.0402,0.0826461,
2,0,0,1,0,36625.3,0.0814528,0.0811562,-3.90423,19,0.00756327,10,-0.000316852,-2.40846,0.55389,0.106519,-16.2299,0.0811562,
2,0,0,1,0,36625.4,0.0799528,0.0796031,-3.88045,19,0.0074167,10,-0.000308896,-2.41112,0.627835,0.0939738,-14.2245,0.07960315,
2,0,0,1,0,36625.4,0.0784529,0.0781055,-3.85989,19,0.00727095,10,-0.000301479,-2.41342,0.589282,0.100122,-15.077,0.0781055,
2,0,0,1,0,36625.4,0.0769565,0.076647,-3.8351,19,0.0071264,10,-0.000293949,-2.41622,0.561861,0.105008,-15.721,0.076647,
2,0,0,1,0,36625.5,0.0754601,0.075117,-3.81084,19,0.0069827,10,-0.000286259,-2.41898,0.636289,0.0927251,-13.8197,0.075117,
2,0,0,1,0,36625.5,0.0739601,0.0736176,-3.79299,19,0.00683944,10,-0.000279231,-2.42102,0.665739,0.0886234,-13.1401,0.0736176,
2,0,0,1,0,36625.6,0.0724601,0.0721044,-3.77825,19,0.00669682,10,-0.000272428,-2.42271,0.702005,0.084045,-12.3823,0.0721044,
2,0,0,1,0,36625.6,0.0709637,0.0706493,-3.75995,19,0.00655524,10,-0.000265638,-2.42482,0.690307,0.0854692,-12.5248,0.0706493,
2,0,0,1,0,36625.6,0.0694682,0.0691511,-3.73728,19,0.00641437,10,-0.000258437,-2.42744,0.686236,0.0859762,-12.5428,0.0691511,
2,0,0,1,0,36625.7,0.0679646,0.0676388,-3.72067,19,0.00627355,10,-0.000251662,-2.42938,0.794667,0.0742449,-10.7912,0.0676388,
2,0,0,1,0,36625.7,0.0664691,0.0661035,-3.70207,19,0.00613411,10,-0.00024472,-2.43155,0.782364,0.0754125,-10.8995,0.0661035,
2,0,0,1,0,36625.7,0.0649727,0.0645917,-3.68303,19,0.00599527,10,-0.000237893,-2.4338,0.67599,0.0872794,-12.5584,0.0645917,
2,0,0,1,0,36625.8,0.0634727,0.063184,-3.66536,19,0.00585669,10,-0.000231592,-2.43588,0.614088,0.0960775,-13.7454,0.063184,
2,0,0,1,0,36625.8,0.0619728,0.0616287,-3.64144,19,0.005719,10,-0.000224417,-2.43873,0.590904,0.099847,-14.2227,0.0616287,
2,0,0,1,0,36625.9,0.0604764,0.0601513,-3.6283,19,0.0055824,10,-0.000218247,-2.4403,0.676387,0.0872281,-12.3437,0.0601513,
2,0,0,1,0,36625.9,0.05898,0.058638,-3.60974,19,0.00544645,10,-0.000211668,-2.44252,0.630443,0.093585,-13.1707,0.058638,
2,0,0,1,0,36625.9,0.05748,0.0571285,-3.59082,19,0.00531089,10,-0.000205138,-2.44481,0.678994,0.0868933,-12.158,0.0571285,
2,0,0,1,0,36626,0.05598,0.0556484,-3.56501,19,0.00517613,10,-0.000198387,-2.44794,0.604979,0.097524,-13.5709,0.0556484,
2,0,0,1,0,36626,0.0544836,0.0541536,-3.54405,19,0.00504253,10,-0.000191923,-2.4505,0.678941,0.0869,-12.0305,0.0541536,
2,0,0,1,0,36626,0.0529881,0.0526791,-3.53021,19,0.0049096,10,-0.000185969,-2.4522,0.672788,0.0876948,-12.0736,0.0526791,
2,0,0,1,0,36626.1,0.0514846,0.0511429,-3.50242,19,0.00477664,10,-0.000179124,-2.45563,0.51859,0.11377,-15.5614,0.0511429,
2,0,0,1,0,36626.1,0.049989,0.0496282,-3.48027,19,0.00464525,10,-0.000172719,-2.45839,0.546595,0.107941,-14.679,0.0496282,
2,0,0,1,0,36626.2,0.0484926,0.0481851,-3.45971,19,0.0045148,10,-0.000166706,-2.46096,0.551489,0.106983,-14.4572,0.0481851,
2,0,0,1,0,36626.2,0.0469927,0.0466626,-3.44296,19,0.00438472,10,-0.000160657,-2.46307,0.526538,0.112053,-15.0233,0.0466626,
2,0,0,1,0,36626.2,0.0454927,0.0451216,-3.4189,19,0.00425543,10,-0.000154266,-2.46611,0.486755,0.121211,-16.1479,0.0451216,
2,0,0,1,0,36626.3,0.0439963,0.0436783,-3.39535,19,0.00412734,10,-0.000148303,-2.46912,0.476828,0.123734,-16.3993,0.0436783,
2,0,0,1,0,36626.3,0.0424999,0.0421936,-3.36989,19,0.0040002,10,-0.000142188,-2.47238,0.521532,0.113128,-14.907,0.0421936,
2,0,0,1,0,36626.3,0.0409999,0.0406893,-3.34746,19,0.00387351,10,-0.000136206,-2.47528,0.553195,0.106653,-13.9575,0.0406893,
2,0,0,1,0,36626.4,0.0394999,0.0391875,-3.32759,19,0.00374761,10,-0.0001304,-2.47787,0.479403,0.12307,-15.9875,0.0391875,
2,0,0,1,0,36626.4,0.0380044,0.0376729,-3.30609,19,0.00362294,10,-0.00012455,-2.48069,0.418152,0.141097,-18.175,0.0376729,
2,0,0,1,0,36626.5,0.0365089,0.0361925,-3.27663,19,0.00349932,10,-0.000118589,-2.48457,0.428431,0.137712,-17.6063,0.0361925,
2,0,0,1,0,36626.5,0.0350054,0.0346092,-3.25127,19,0.00337599,10,-0.000112524,-2.48795,0.468591,0.125909,-15.9471,0.0346092,
2,0,0,1,0,36626.5,0.0335089,0.0332073,-3.22688,19,0.00325423,10,-0.000107156,-2.49122,0.456197,0.12933,-16.2678,0.0332073,
2,0,0,1,0,36626.6,0.0320125,0.0316933,-3.19897,19,0.00313343,10,-0.000101386,-2.49499,0.403041,0.146387,-18.2607,0.03169331,
2,0,0,1,0,36626.6,0.0305126,0.0301975,-3.16585,19,0.00301339,10,-9.56005e-05,-2.49951,0.388569,0.151839,-18.8131,0.03019747,
2,0,0,1,0,36626.6,0.0290126,0.0286923,-3.14242,19,0.00289437,10,-9.01634e-05,-2.50274,0.418394,0.141015,-17.3335,0.0286923,
2,0,0,1,0,36626.7,0.0275162,0.0271887,-3.11973,19,0.00277657,10,-8.48214e-05,-2.50588,0.425838,0.13855,-16.8811,0.0271887,
2,0,0,1,0,36626.7,0.0260198,0.0257261,-3.09601,19,0.0026597,10,-7.96483e-05,-2.5092,0.390815,0.150967,-18.2303,0.02572614,
2,0,0,1,0,36626.8,0.0245198,0.0242737,-3.06697,19,0.00254351,10,-7.44467e-05,-2.51329,0.388889,0.151714,-18.161,0.0242737,
2,0,0,1,0,36626.8,0.0230198,0.0227047,-3.0453,19,0.00242841,10,-6.91426e-05,-2.51637,0.41607,0.141803,-16.834,0.0227047,
2,0,0,1,0,36626.8,0.0215243,0.0211876,-3.02163,19,0.00231447,10,-6.40211e-05,-2.51976,0.451557,0.130659,-15.3736,0.0211876,
2,0,0,1,0,36626.9,0.0200288,0.0196898,-2.99298,19,0.0022014,10,-5.89311e-05,-2.5239,0.429607,0.137335,-16.0398,0.01968977,
2,0,0,1,0,36626.9,0.0185253,0.0182035,-2.96808,19,0.00208864,10,-5.40294e-05,-2.52752,0.46755,0.12619,-14.644,0.0182035,
2,0,0,1,0,36626.9,0.0170289,0.0167432,-2.94516,19,0.00197741,10,-4.93113e-05,-2.53089,0.496211,0.118901,-13.7055,0.0167432,
2,0,0,1,0,36627,0.0155325,0.0152169,-2.92657,19,0.00186695,10,-4.45333e-05,-2.53364,0.553651,0.106565,-12.1851,0.0152169,
2,0,0,1,0,36627,0.0140325,0.0136439,-2.90993,19,0.00175682,10,-3.97028e-05,-2.53612,0.572253,0.103101,-11.6948,0.0136439,
2,0,0,1,0,36627.1,0.0125325,0.0121898,-2.89094,19,0.00164744,10,-3.524e-05,-2.53896,0.522222,0.112979,-12.738,0.01218982,
2,0,0,1,0,36627.1,0.0110361,0.0107457,-2.87284,19,0.00153912,10,-3.08706e-05,-2.54169,0.604132,0.0976608,-10.9498,0.0107457,
2,0,0,1,0,36627.1,0.0095397,0.00919533,-2.86067,19,0.00143144,10,-2.63048e-05,-2.54353,0.731586,0.0806467,-8.98787,0.00919533,
2,0,0,1,0,36627.2,0.00803616,0.00771078,-2.84178,19,0.00132373,10,-2.19123e-05,-2.54641,0.76119,0.0775102,-8.5966,0.00771078,
2,0,0,1,0,36627.2,0.00654064,0.00625469,-2.82582,19,0.0012171,10,-1.76746e-05,-2.54886,0.758843,0.0777499,-8.58148,0.00625469,
2,0,0,1,0,36627.2,0.00504513,0.0047139,-2.81142,19,0.001111,10,-1.32527e-05,-2.55107,0.86596,0.0681324,-7.49103,0.0047139,
2,0,0,1,0,36627.3,0.00354515,0.00324434,-2.80058,19,0.00100506,10,-9.08604e-06,-2.55275,8.30151,0.00710714,-0.781225,0.00324434,
2,0,0,1,0,36627.3,0.00204518,0.00168958,-2.82918,19,0.000899205,10,-4.78013e-06,-2.54834,1.85835,0.0317486,-3.46797,0.00168958,
2,0,0,1,0,36627.4,0.000548773,0.000158336,-2.80526,19,0.000793362,10,-4.44172e-07,-2.55203, , , ,0.000158336,
2,0,0,1,0,36627.4,0.000177222,-0.000251647,-2.79195,19,0.000767172,10,7.02585e-07,-2.55409, , , ,-0.0002516465,