File: Figure_codes/Fig_3-5/rawdata_trumpetplot_data/after 10th/20221101_1-115_003_TrumpetPlot_ParaChange_from10_every3_14_CV_C01_5.csv
mode,ox/red,error,control changes,counter inc.,time/s,control/V,Ewe/V,<I>/mA,cycle number,(Q-Qo)/C,I Range,P/W,log(|I|),Tafel slope mV/dec,alpha_eff,dI/d(E-IR),E-IR/V,
2,1,0,1,0,11049.8,2.44065e-05,-0.000306236,43.9687,6,0.0000000E+000,10,-1.34648e-05,-1.35686, , , ,-0.000306236,
2,1,0,1,0,11049.8,0.00332042,0.00294921,45.3219,6,0.000138951,10,0.000133664,-1.34369, , , ,0.002949212,
2,1,0,1,0,11049.8,0.0073156,0.00694906,46.4067,6,0.000322583,10,0.000322483,-1.33342, , , ,0.00694906,
2,1,0,1,0,11049.8,0.0113108,0.0109394,47.3262,6,0.000510182,10,0.000517719,-1.3249,0.485658,0.121485,223.228,0.0109394,
2,1,0,1,0,11049.8,0.0153059,0.0149785,48.1398,6,0.000701207,10,0.00072106,-1.3175,0.551299,0.10702,200.454,0.0149785,
2,1,0,1,0,11049.8,0.0193011,0.0189295,48.8891,6,0.000895359,10,0.000925448,-1.31079,0.622554,0.094771,180.331,0.0189295,
2,1,0,1,0,11049.8,0.0233462,0.0229644,49.617,6,0.00109251,10,0.00113942,-1.30437,0.692961,0.0851419,164.297,0.0229644,
2,1,0,1,0,11049.8,0.0273414,0.0269589,50.215,6,0.00129225,10,0.00135374,-1.29917,0.769829,0.0766404,149.792,0.0269589,
2,1,0,1,0,11049.8,0.0313366,0.0310097,50.7736,6,0.0014943,10,0.00157448,-1.29436,0.860627,0.0685546,135.627,0.0310097,
2,1,0,1,0,11049.8,0.0353317,0.0349639,51.291,6,0.00169849,10,0.00179333,-1.28996,0.921187,0.0640478,128.057,0.0349639,
2,1,0,1,0,11049.8,0.0393269,0.0389405,51.7838,6,0.00190469,10,0.00201648,-1.28581,0.985832,0.0598479,120.827,0.0389405,
2,1,0,1,0,11049.8,0.0433221,0.0429382,52.2613,6,0.00211285,10,0.00224401,-1.28182,1.05114,0.0561296,114.344,0.0429382,
2,1,0,1,0,11049.8,0.0473173,0.0469529,52.7,6,0.00232281,10,0.00247442,-1.27819,1.08844,0.0542062,111.424,0.0469529,
2,1,0,1,0,11049.8,0.0513124,0.0509337,53.117,6,0.00253449,10,0.00270544,-1.27477,1.12277,0.0525486,108.953,0.05093367,
2,1,0,1,0,11049.8,0.0553076,0.0549409,53.5666,6,0.0027479,10,0.002943,-1.27111,1.0991,0.0536801,112.281,0.0549409,
2,1,0,1,0,11049.8,0.0593028,0.0589175,54.0023,6,0.00296307,10,0.00318168,-1.26759,1.10028,0.0536225,113.042,0.0589175,
2,1,0,1,0,11049.8,0.0633479,0.0629958,54.5013,6,0.00318008,10,0.00343335,-1.26359,1.13094,0.0521691,110.855,0.0629958,
2,1,0,1,0,11049.8,0.0673431,0.0669405,54.9264,6,0.00339898,10,0.0036768,-1.26022,1.15264,0.051187,109.624,0.0669405,
2,1,0,1,0,11049.8,0.0713383,0.0709202,55.338,6,0.00361955,10,0.00392458,-1.25698,1.14206,0.0516609,111.662,0.0709202,
2,1,0,1,0,11049.8,0.0753334,0.0749402,55.7588,6,0.00384179,10,0.00417857,-1.25369,1.07627,0.0548187,119.542,0.0749402,
2,1,0,1,0,11049.8,0.0793286,0.0788817,56.2752,6,0.00406585,10,0.00443908,-1.24968,1.00434,0.0587448,129.233,0.0788817,
2,1,0,1,0,11049.8,0.0833238,0.0829229,56.837,6,0.00429214,10,0.00471309,-1.24537,0.947518,0.0622679,138.169,0.0829229,
2,1,0,1,0,11049.8,0.0873189,0.0869769,57.413,6,0.0045207,10,0.00499361,-1.24099,0.927954,0.0635807,142.463,0.0869769,
2,1,0,1,0,11049.9,0.0913141,0.0909407,57.9695,6,0.00475149,10,0.00527179,-1.2368,0.911277,0.0647443,146.565,0.0909407,
2,1,0,1,0,11049.9,0.0953093,0.094966,58.5666,6,0.00498462,10,0.00556183,-1.23235,0.878558,0.0671555,153.665,0.094966,
2,1,0,1,0,11049.9,0.0993045,0.0989669,59.1885,6,0.00522018,10,0.0058577,-1.22776,0.836159,0.0705608,163.205,0.0989669,
2,1,0,1,0,11049.9,0.103319,0.102943,59.8665,6,0.00545834,10,0.00616287,-1.22282,0.821012,0.0718625,168.001,0.102943,
2,1,0,1,0,11049.9,0.107345,0.106945,60.5816,6,0.00569936,10,0.00647892,-1.21766,0.799363,0.0738088,174.478,0.106945,
2,1,0,1,0,11049.9,0.11134,0.110989,61.2584,6,0.00594309,10,0.00679899,-1.21283,0.787846,0.0748878,179.13,0.110989,
2,1,0,1,0,11049.9,0.115335,0.114944,61.9761,6,0.00618964,10,0.00712379,-1.20778,0.783254,0.0753268,182.358,0.114944,
2,1,0,1,0,11049.9,0.11933,0.118969,62.7373,6,0.00643911,10,0.00746381,-1.20247,0.760554,0.0775751,190.01,0.118969,
2,1,0,1,0,11049.9,0.123325,0.122973,63.5044,6,0.00669166,10,0.00780936,-1.1972,0.75266,0.0783887,194.327,0.122973,
2,1,0,1,0,11049.9,0.127321,0.126934,64.2882,6,0.00694732,10,0.00816036,-1.19187,0.744831,0.0792126,198.816,0.126934,
2,1,0,1,0,11049.9,0.131316,0.130973,65.091,6,0.00720615,10,0.00852518,-1.18648,0.733786,0.0804049,204.357,0.130973,
2,1,0,1,0,11049.9,0.135311,0.134943,65.9131,6,0.00746823,10,0.00889454,-1.18103,0.718787,0.0820827,211.308,0.134943,
2,1,0,1,0,11049.9,0.139306,0.138962,66.7719,6,0.00773368,10,0.00927877,-1.17541,0.692575,0.0851893,222.27,0.138962,
2,1,0,1,0,11049.9,0.143301,0.142923,67.6668,6,0.00800264,10,0.00967113,-1.16962,0.683987,0.086259,228.003,0.142923,
2,1,0,1,0,11049.9,0.147346,0.146985,68.6501,6,0.00827539,10,0.0100905,-1.16336,0.669616,0.0881102,236.048,0.146985,
2,1,0,1,0,11049.9,0.151342,0.151013,69.577,6,0.00855192,10,0.010507,-1.15753,0.660519,0.0893237,242.608,0.1510127,
2,1,0,1,0,11049.9,0.155337,0.154983,70.5535,6,0.00883225,10,0.0109346,-1.15148,0.659568,0.0894524,246.472,0.154983,
2,1,0,1,0,11049.9,0.159332,0.158965,71.5586,6,0.00911657,10,0.0113753,-1.14534,0.649516,0.0908369,253.762,0.158965,
2,1,0,1,0,11049.9,0.163327,0.162966,72.5888,6,0.00940497,10,0.0118295,-1.13913,0.650901,0.0906436,256.78,0.162966,
2,1,0,1,0,11049.9,0.167322,0.16696,73.6239,6,0.00969749,10,0.0122923,-1.13298,0.656217,0.0899092,258.261,0.16696,
2,1,0,1,0,11049.9,0.171317,0.170974,74.6596,6,0.00999416,10,0.0127648,-1.12691,0.672864,0.0876848,255.332,0.170974,
2,1,0,1,0,11049.9,0.175313,0.174939,75.6841,6,0.0102949,10,0.0132401,-1.121,0.688098,0.0857436,253.081,0.174939,
2,1,0,1,0,11049.9,0.179308,0.178971,76.6755,6,0.0105998,10,0.0137227,-1.11534,0.704345,0.0837657,250.569,0.178971,
2,1,0,1,0,11049.9,0.183303,0.182956,77.6722,6,0.0109086,10,0.0142106,-1.10973,0.744816,0.0792142,239.865,0.1829564,
2,1,0,1,0,11049.9,0.187348,0.186979,78.6699,6,0.0112213,10,0.0147096,-1.10419,0.786378,0.0750276,229.846,0.186979,
2,1,0,1,0,11050,0.191343,0.190955,79.5259,6,0.0115378,10,0.0151859,-1.09949,0.86123,0.0685067,212.175,0.190955,
2,1,0,1,0,11050,0.195338,0.194945,80.3471,6,0.0118577,10,0.0156633,-1.09503,0.973895,0.0605815,189.561,0.194945,
2,1,0,1,0,11050,0.199334,0.198972,81.0702,6,0.0121806,10,0.0161307,-1.09114,1.11494,0.0529175,166.982,0.1989717,
2,1,0,1,0,11050,0.203329,0.202973,81.7018,6,0.0125062,10,0.0165832,-1.08777,1.38311,0.0426575,135.56,0.202973,
2,1,0,1,0,11050,0.207324,0.206961,82.1985,6,0.0128341,10,0.0170119,-1.08514,1.89891,0.0310704,99.2654,0.2069608,
2,1,0,1,0,11050,0.211319,0.210957,82.5177,6,0.0131636,10,0.0174077,-1.08345,3.42305,0.0172361,55.2551,0.210957,
2,1,0,1,0,11050,0.215314,0.214997,82.661,6,0.013494,10,0.0177718,-1.0827,50.7008,0.00116369,3.73442,0.214997,
2,1,0,1,0,11050,0.219309,0.218962,82.5853,6,0.0138246,10,0.0180831,-1.0831,-3.63429,-0.0162342,-52.0167,0.218962,
2,1,0,1,0,11050,0.223305,0.223009,82.2585,6,0.0141543,10,0.0183444,-1.08482,-1.67232,-0.0352802,-112.563,0.223009,
2,1,0,1,0,11050,0.227314,0.226965,81.685,6,0.0144822,10,0.0185397,-1.08786,-1.04342,-0.0565447,-179.055,0.226965,
2,1,0,1,0,11050,0.231345,0.231076,80.8511,6,0.0148073,10,0.0186827,-1.09231,-0.751219,-0.078539,-246.038,0.231076,
2,1,0,1,0,11050,0.23534,0.23502,79.7101,6,0.0151284,10,0.0187335,-1.09849,-0.584295,-0.100976,-311.914,0.23502,
2,1,0,1,0,11050,0.239335,0.239042,78.3136,6,0.0154444,10,0.0187203,-1.10616,-0.474422,-0.124362,-377.615,0.239042,
2,1,0,1,0,11050,0.24333,0.24305,76.6681,6,0.0157543,10,0.0186342,-1.11539,-0.406971,-0.144974,-431.141,0.24305,
2,1,0,1,0,11050,0.247326,0.247012,74.8331,6,0.0160571,10,0.0184847,-1.12591,-0.357853,-0.164872,-478.845,0.247012,
2,1,0,1,0,11050,0.251321,0.251051,72.7984,6,0.0163522,10,0.0182761,-1.13788,-0.324359,-0.181897,-514.506,0.251051,
2,1,0,1,0,11050,0.255316,0.255034,70.656,6,0.0166389,10,0.0180197,-1.15085,-0.301212,-0.195875,-538.416,0.255034,
2,1,0,1,0,11050,0.259311,0.259038,68.4418,6,0.0169169,10,0.0177291,-1.16468,-0.285129,-0.206924,-551.5,0.259038,
2,1,0,1,0,11050,0.263306,0.263031,66.2084,6,0.017186,10,0.0174149,-1.17909,-0.276145,-0.213656,-551.529,0.263031,
2,1,0,1,0,11050,0.267302,0.267049,63.9759,6,0.0174461,10,0.0170847,-1.19398,-0.269326,-0.219066,-546.855,0.267049,
2,1,0,1,0,11050,0.271347,0.27104,61.8283,6,0.0176975,10,0.016758,-1.20881,-0.267267,-0.220753,-532.769,0.27104,
2,1,0,1,0,11050,0.275342,0.275051,59.6855,6,0.0179403,10,0.0164165,-1.22413,-0.26683,-0.221115,-515.785,0.275051,
2,1,0,1,0,11050,0.279337,0.279062,57.6675,6,0.0181747,10,0.0160928,-1.23907,-0.270597,-0.218036,-491.821,0.279062,
2,1,0,1,0,11050,0.283332,0.28299,55.7537,6,0.0184014,10,0.0157777,-1.25373,-0.275647,-0.214042,-466.812,0.2829898,
2,1,0,1,0,11050,0.287327,0.287064,53.9474,6,0.0186206,10,0.0154864,-1.26803,-0.283657,-0.207998,-439.1,0.287064,
2,1,0,1,0,11050.1,0.291322,0.290988,52.2455,6,0.0188327,10,0.0152028,-1.28195,-0.296782,-0.198799,-407.154,0.290988,
2,1,0,1,0,11050.1,0.295318,0.295,50.6692,6,0.0190384,10,0.0149474,-1.29526,-0.304663,-0.193656,-388.683,0.295,
2,1,0,1,0,11050.1,0.299013,0.298757,49.334,6,0.0192233,10,0.0147389,-1.30685,-0.124749,-0.47295,-899.166,0.298757,
2,1,0,0,0,11050.1,0.300012,0.299823,48.9883,6,0.0192725,10,0.0146878,-1.30991,0.00288183,20.4731,34241.9,0.299823,
2,1,0,1,0,11050.1,0.298714,0.298661,45.347,6,0.0193324,10,0.0135434,-1.34345,0.0344245,1.71389,2539.11,0.298661,
2,1,0,1,0,11050.1,0.294718,0.294568,35.8904,6,0.0194931,10,0.0105722,-1.44502,0.0388247,1.51965,2011.41,0.294568,
2,1,0,1,0,11050.1,0.290723,0.290546,28.486,6,0.0196208,10,0.00827651,-1.54537,0.0379455,1.55486,1754.47,0.2905463,
2,1,0,1,0,11050.1,0.286728,0.286557,22.3053,6,0.0197215,10,0.00639174,-1.65159,0.0350152,1.68498,1458.13,0.286557,
2,1,0,1,0,11050.1,0.282733,0.28252,17.029,6,0.0197994,10,0.00481105,-1.76881,0.030619,1.92691,1244.65,0.28252,
2,1,0,1,0,11050.1,0.278738,0.278524,12.4963,6,0.0198578,10,0.00348051,-1.90322,0.0248884,2.37058,1075.55,0.278524,
2,1,0,1,0,11050.1,0.274742,0.274514,8.53149,6,0.0198993,10,0.00234201,-2.06898,0.0170604,3.4583,938.892,0.274514,
2,1,0,1,0,11050.1,0.270747,0.270524,5.06056,6,0.0199261,10,0.001369,-2.2958,0.0130887,4.50769,821.791,0.2705237,
2,1,0,1,0,11050.1,0.266702,0.266458,1.94856,6,0.0199396,10,0.000519209,-2.71029,0.0364293,1.61958,727.268,0.266458,
2,0,0,1,0,11050.1,0.262707,0.262423,-0.735567,6,0.0199417,10,-0.00019303,-3.13338,-1.07398,-0.054936,640.669,0.262423,
2,0,0,1,0,11050.1,0.258712,0.258516,-3.10358,6,0.0199337,10,-0.000802325,-2.50814,-0.028317,-2.08356,569.116,0.258516,
2,0,0,1,0,11050.1,0.254717,0.254449,-5.238,6,0.0199167,10,-0.0013328,-2.28083,-0.0147644,-3.9961,509.855,0.254449,
2,0,0,1,0,11050.1,0.250722,0.250453,-7.15998,6,0.0198917,10,-0.00179324,-2.14509,-0.0304925,-1.9349,456.804,0.250453,
2,0,0,1,0,11050.1,0.246726,0.246452,-8.87837,6,0.0198594,10,-0.0021881,-2.05167,-0.0451355,-1.30717,412.955,0.246452,
2,0,0,1,0,11050.1,0.242731,0.242445,-10.4446,6,0.0198206,10,-0.00253225,-1.98111,-0.0609861,-0.967433,371.467,0.242445,
2,0,0,1,0,11050.1,0.238736,0.238464,-11.8389,6,0.0197759,10,-0.00282316,-1.92669,-0.0771195,-0.765047,339.637,0.238464,
2,0,0,1,0,11050.1,0.234741,0.234424,-13.1143,6,0.0197258,10,-0.0030743,-1.88226,-0.0943026,-0.625646,312.147,0.234424,
2,0,0,1,0,11050.1,0.230746,0.230485,-14.3016,6,0.0196708,10,-0.00329629,-1.84462,-0.112653,-0.523731,286.387,0.230485,
2,0,0,1,0,11050.1,0.226701,0.226413,-15.4491,6,0.0196112,10,-0.00349787,-1.8111,-0.131709,-0.447959,264.565,0.226413,
2,0,0,1,0,11050.1,0.222705,0.222417,-16.4346,6,0.0195474,10,-0.00365534,-1.78424,-0.15321,-0.385093,243.12,0.222417,
2,0,0,1,0,11050.1,0.21871,0.218416,-17.3494,6,0.0194797,10,-0.00378939,-1.76072,-0.176799,-0.333712,223.672,0.218416,
2,0,0,1,0,11050.1,0.214715,0.214412,-18.2091,6,0.0194085,10,-0.00390426,-1.73971,-0.197724,-0.298396,210.39,0.214412,
2,0,0,1,0,11050.1,0.21072,0.210434,-19.0232,6,0.0193339,10,-0.00400312,-1.72072,-0.21889,-0.269542,198.765,0.210434,
2,0,0,1,0,11050.2,0.206725,0.206409,-19.8025,6,0.0192562,10,-0.00408742,-1.70328,-0.240234,-0.245594,188.616,0.206409,
2,0,0,1,0,11050.2,0.202729,0.202414,-20.5302,6,0.0191754,10,-0.00415559,-1.68761,-0.262568,-0.224704,179.112,0.2024138,
2,0,0,1,0,11050.2,0.198734,0.198421,-21.2253,6,0.0190919,10,-0.00421155,-1.67315,-0.283673,-0.207986,171.631,0.198421,
2,0,0,1,0,11050.2,0.194739,0.194412,-21.8929,6,0.0190056,10,-0.00425623,-1.6597,-0.300537,-0.196315,167.334,0.194412,
2,0,0,1,0,11050.2,0.190744,0.190425,-22.546,6,0.0189166,10,-0.00429331,-1.64693,-0.313094,-0.188442,165.648,0.190425,
2,0,0,1,0,11050.2,0.186735,0.186424,-23.2058,6,0.018825,10,-0.00432612,-1.6344,-0.328588,-0.179556,162.348,0.186424,
2,0,0,1,0,11050.2,0.182704,0.182427,-23.8747,6,0.0187308,10,-0.00435539,-1.62206,-0.342288,-0.172369,160.159,0.182427,
2,0,0,1,0,11050.2,0.178709,0.178408,-24.491,6,0.018634,10,-0.0043694,-1.61099,-0.352731,-0.167266,159.668,0.178408,
2,0,0,1,0,11050.2,0.174713,0.174372,-25.1169,6,0.0185347,10,-0.00437969,-1.60003,-0.361331,-0.163285,160.172,0.1743724,
2,0,0,1,0,11050.2,0.170718,0.170443,-25.7575,6,0.0184329,10,-0.00439018,-1.5891,-0.358037,-0.164787,165.884,0.170443,
2,0,0,1,0,11050.2,0.166723,0.16642,-26.4385,6,0.0183284,10,-0.00439991,-1.57776,-0.353838,-0.166743,172.235,0.16642,
2,0,0,1,0,11050.2,0.162728,0.162427,-27.1421,6,0.0182212,10,-0.0044086,-1.56636,-0.344962,-0.171033,181.457,0.162427,
2,0,0,1,0,11050.2,0.158733,0.158414,-27.8654,6,0.0181111,10,-0.00441428,-1.55493,-0.333692,-0.17681,192.848,0.158414,
2,0,0,1,0,11050.2,0.154737,0.154424,-28.6642,6,0.017998,10,-0.00442644,-1.54266,-0.319187,-0.184845,207.511,0.154424,
2,0,0,1,0,11050.2,0.150742,0.150476,-29.5133,6,0.0178816,10,-0.00444105,-1.52998,-0.297857,-0.198082,229.302,0.150476,
2,0,0,1,0,11050.2,0.146747,0.146475,-30.4522,6,0.0177616,10,-0.00446049,-1.51638,-0.283798,-0.207894,248.319,0.146475,
2,0,0,1,0,11050.2,0.142702,0.142415,-31.5341,6,0.0176375,10,-0.00449093,-1.50122,-0.268871,-0.219436,270.913,0.142415,
2,0,0,1,0,11050.2,0.138707,0.138441,-32.6332,6,0.0175091,10,-0.00451776,-1.48634,-0.255072,-0.231308,295.801,0.138441,
2,0,0,1,0,11050.2,0.134712,0.134452,-33.8544,6,0.017376,10,-0.0045518,-1.47039,-0.243112,-0.242687,322.409,0.134452,
2,0,0,1,0,11050.2,0.130717,0.130432,-35.1977,6,0.0172378,10,-0.00459092,-1.45349,-0.231168,-0.255226,352.372,0.130432,
2,0,0,1,0,11050.2,0.126721,0.126465,-36.6764,6,0.017094,10,-0.0046383,-1.43561,-0.221813,-0.26599,382.282,0.126465,
2,0,0,1,0,11050.2,0.122726,0.122446,-38.2691,6,0.016944,10,-0.00468591,-1.41715,-0.214913,-0.27453,411.399,0.122446,
2,0,0,1,0,11050.2,0.118731,0.118464,-39.9666,6,0.0167874,10,-0.00473459,-1.3983,-0.211161,-0.279408,436.932,0.118464,
2,0,0,1,0,11050.2,0.114736,0.114416,-41.7868,6,0.0166237,10,-0.00478108,-1.37896,-0.20906,-0.282216,460.677,0.114416,
2,0,0,1,0,11050.2,0.110741,0.11047,-43.6652,6,0.0164526,10,-0.0048237,-1.35986,-0.208819,-0.282541,482.012,0.11047,
2,0,0,1,0,11050.3,0.106745,0.106538,-45.5976,6,0.0162739,10,-0.00485789,-1.34106,-0.212955,-0.277053,493.202,0.106538,
2,0,0,1,0,11050.3,0.102703,0.102447,-47.6867,6,0.0160872,10,-0.00488537,-1.3216,-0.219593,-0.268679,498.496,0.102447,
2,0,0,1,0,11050.3,0.0987052,0.0984367,-49.6678,6,0.0158923,10,-0.00488914,-1.30392,-0.230139,-0.256367,495.046,0.0984367,
2,0,0,1,0,11050.3,0.09471,0.094475,-51.6388,6,0.0156895,10,-0.00487857,-1.28702,-0.243561,-0.242239,486.653,0.094475,
2,0,0,1,0,11050.3,0.0907148,0.0904253,-53.5742,6,0.0154789,10,-0.00484447,-1.27104,-0.257625,-0.229015,477.089,0.09042532,
2,0,0,1,0,11050.3,0.0867197,0.086469,-55.4625,6,0.0152606,10,-0.00479579,-1.256,-0.27693,-0.21305,459.027,0.086469,
2,0,0,1,0,11050.3,0.0827245,0.0824998,-57.2711,6,0.0150349,10,-0.00472486,-1.24206,-0.293952,-0.200713,446.922,0.0824998,
2,0,0,1,0,11050.3,0.0787293,0.0785785,-58.9357,6,0.0148024,10,-0.00463108,-1.22962,-0.315238,-0.18716,429.57,0.0785785,
2,0,0,1,0,11050.3,0.0747341,0.0745192,-60.683,6,0.014563,10,-0.00452205,-1.21693,-0.338596,-0.174249,411.345,0.0745192,
2,0,0,1,0,11050.3,0.070739,0.0705724,-62.2912,6,0.0143169,10,-0.00439604,-1.20557,-0.362465,-0.162774,394.102,0.0705724,
2,0,0,1,0,11050.3,0.0667438,0.0665694,-63.8241,6,0.0140644,10,-0.00424873,-1.19502,-0.395635,-0.149127,370.12,0.0665694,
2,0,0,1,0,11050.3,0.0627403,0.0625621,-65.2478,6,0.0138061,10,-0.00408204,-1.18543,-0.436711,-0.135101,342.711,0.0625621,
2,0,0,1,0,11050.3,0.0587035,0.0585378,-66.598,6,0.0135422,10,-0.00389851,-1.17654,-0.483426,-0.122046,315.918,0.0585378,
2,0,0,1,0,11050.3,0.0547083,0.0545444,-67.7842,6,0.0132733,10,-0.00369725,-1.16887,-0.538743,-0.109514,288.706,0.0545444,
2,0,0,1,0,11050.3,0.0507132,0.0505212,-68.894,6,0.0129998,10,-0.0034806,-1.16182,-0.609566,-0.0967901,259.364,0.0505212,
2,0,0,1,0,11050.3,0.046718,0.0464312,-69.9049,6,0.0127221,10,-0.00324577,-1.15549,-0.694956,-0.0848975,230.689,0.0464312,
2,0,0,1,0,11050.3,0.0427228,0.042461,-70.7678,6,0.0124406,10,-0.00300487,-1.15016,-0.815273,-0.0723684,199.061,0.042461,
2,0,0,1,0,11050.3,0.0387276,0.0384389,-71.4996,6,0.0121559,10,-0.00274836,-1.1457,-0.977422,-0.0603629,167.814,0.0384389,
2,0,0,1,0,11050.3,0.0347325,0.0344539,-72.0923,6,0.0118687,10,-0.00248386,-1.14211,-1.20118,-0.0491185,137.764,0.0344539,
2,0,0,1,0,11050.3,0.0307373,0.0304774,-72.5822,6,0.0115792,10,-0.00221211,-1.13917,-1.50851,-0.0391114,110.479,0.0304774,
2,0,0,1,0,11050.3,0.0267421,0.0264298,-72.9763,6,0.0112881,10,-0.00192875,-1.13682,-1.86379,-0.0316559,89.9534,0.0264298,
2,0,0,1,0,11050.3,0.022747,0.0224586,-73.265,6,0.0109955,10,-0.00164543,-1.1351,-2.48356,-0.0237562,67.7968,0.0224586,
2,0,0,1,0,11050.3,0.0187018,0.0184121,-73.5354,6,0.0107019,10,-0.00135394,-1.1335,-3.49765,-0.0168685,48.2975,0.0184121,
2,0,0,1,0,11050.3,0.0147067,0.0144133,-73.6712,6,0.0104075,10,-0.00106184,-1.1327,-5.11076,-0.0115443,33.128,0.0144133,
2,0,0,1,0,11050.3,0.0107115,0.0103328,-73.7538,6,0.0101126,10,-0.000762084,-1.13222,-11.2453,-0.00524662,15.0817,0.0103328,
2,0,0,1,0,11050.4,0.00671632,0.00644007,-73.7957,6,0.00981748,10,-0.000475249,-1.13197,-36.3257,-0.0016242,4.67219,0.00644007,
2,0,0,1,0,11050.4,0.00272115,0.00240522,-73.7768,6,0.00952236,10,-0.00017745,-1.13208,24.8194,0.00237717,-6.83733,0.002405223,
2,0,0,1,0,11050.4,-0.00127403,-0.00163599,-73.7462,6,0.00922723,10,0.000120648,-1.13226,9.16853,0.00643505,-18.4958,-0.00163599,
2,0,0,1,0,11050.4,-0.0052692,-0.0056316,-73.6446,6,0.00893246,10,0.000414737,-1.13286,5.85684,0.0100737,-28.9139,-0.0056316,
2,0,0,1,0,11050.4,-0.00926438,-0.00959222,-73.4992,6,0.00863819,10,0.00070502,-1.13372,4.08035,0.0144596,-41.4291,-0.00959222,
2,0,0,1,0,11050.4,-0.0132596,-0.0135921,-73.3142,6,0.00834455,10,0.000996492,-1.13481,3.37104,0.017502,-50.0282,-0.0135921,
2,0,0,1,0,11050.4,-0.0172547,-0.0175845,-73.0855,6,0.00805178,10,0.00128517,-1.13617,2.77207,0.0212837,-60.6455,-0.0175845,
2,0,0,1,0,11050.4,-0.0212915,-0.0216766,-72.8419,6,0.00776,10,0.00157897,-1.13762,2.27516,0.0259322,-73.5983,-0.0216766,
2,0,0,1,0,11050.4,-0.025295,-0.0256616,-72.5246,6,0.00746926,10,0.0018611,-1.13951,1.91747,0.0307696,-86.9252,-0.0256616,
2,0,0,1,0,11050.4,-0.0292902,-0.0296477,-72.1326,6,0.00717999,10,0.00213856,-1.14187,1.61099,0.0366233,-102.934,-0.0296477,
2,0,0,1,0,11050.4,-0.0332854,-0.0336083,-71.6926,6,0.00689237,10,0.00240947,-1.14453,1.38975,0.0424538,-118.586,-0.0336083,
2,0,0,1,0,11050.4,-0.0372805,-0.0376326,-71.1995,6,0.00660664,10,0.00267942,-1.14752,1.24991,0.0472034,-130.942,-0.0376326,
2,0,0,1,0,11050.4,-0.0412757,-0.0416292,-70.6311,6,0.00632303,10,0.00294032,-1.151,1.14287,0.0516244,-142.13,-0.04162924,
2,0,0,1,0,11050.4,-0.0452709,-0.045663,-70.0355,6,0.00604175,10,0.00319803,-1.15468,1.04862,0.0562645,-153.63,-0.045663,
2,0,0,1,0,11050.4,-0.0492661,-0.0496714,-69.4096,6,0.00576294,10,0.00344767,-1.15858,1.00079,0.0589533,-159.549,-0.0496714,
2,0,0,1,0,11050.4,-0.0532612,-0.053614,-68.7443,6,0.00548668,10,0.00368565,-1.16276,0.959728,0.0614758,-164.852,-0.053614,
2,0,0,1,0,11050.4,-0.0572564,-0.0576393,-68.0767,6,0.0052131,10,0.00392389,-1.167,0.963059,0.0612632,-162.824,-0.0576393,
2,0,0,1,0,11050.4,-0.0612544,-0.0616306,-67.4032,6,0.00494222,10,0.0041541,-1.17132,0.969528,0.0608543,-160.195,-0.0616306,
2,0,0,1,0,11050.4,-0.0652967,-0.0656421,-66.8092,6,0.00467377,10,0.0043855,-1.17516,0.982885,0.0600274,-156.531,-0.0656421,
2,0,0,1,0,11050.4,-0.0692919,-0.0696473,-66.1758,6,0.00440788,10,0.00460897,-1.1793,1.02354,0.0576431,-148.933,-0.0696473,
2,0,0,1,0,11050.4,-0.0732871,-0.0736344,-65.573,6,0.00414445,10,0.00482843,-1.18328,1.0448,0.0564701,-144.675,-0.0736344,
2,0,0,1,0,11050.4,-0.0772822,-0.077647,-65.0178,6,0.00388333,10,0.00504844,-1.18697,1.12273,0.0525503,-133.514,-0.077647,
2,0,0,1,0,11050.4,-0.0812774,-0.0816246,-64.4969,6,0.00362437,10,0.00526454,-1.19046,1.23906,0.0476167,-120.067,-0.0816246,
2,0,0,1,0,11050.4,-0.0852726,-0.0856605,-64.0378,6,0.00336735,10,0.00548551,-1.19356,1.36877,0.0431045,-107.922,-0.0856605,
2,0,0,1,0,11050.4,-0.0892678,-0.0895893,-63.6573,6,0.00311202,10,0.00570302,-1.19615,1.55587,0.037921,-94.3306,-0.08958932,
2,0,0,1,0,11050.5,-0.0932629,-0.0935892,-63.2973,6,0.00285818,10,0.00592394,-1.19861,1.79397,0.0328879,-81.3579,-0.0935892,
2,0,0,1,0,11050.5,-0.0972581,-0.0976177,-62.9883,6,0.00260565,10,0.00614877,-1.20074,2.20403,0.0267692,-65.9481,-0.0976177,
2,0,0,1,0,11050.5,-0.101253,-0.101605,-62.7406,6,0.00235424,10,0.00637475,-1.20245,2.69326,0.0219065,-53.746,-0.1016048,
2,0,0,1,0,11050.5,-0.105298,-0.105679,-62.5962,6,0.00210361,10,0.0066151,-1.20345,3.48163,0.0169461,-41.4371,-0.105679,
2,0,0,1,0,11050.5,-0.109294,-0.109643,-62.4345,6,0.00185359,10,0.00684549,-1.20458,4.60431,0.0128141,-31.2506,-0.109643,
2,0,0,1,0,11050.5,-0.113289,-0.113668,-62.3232,6,0.0016041,10,0.00708415,-1.20535,5.7783,0.0102106,-24.8648,-0.113668,
2,0,0,1,0,11050.5,-0.117284,-0.117655,-62.239,6,0.00135499,10,0.00732274,-1.20594,9.78269,0.00603106,-14.6678,-0.117655,
2,0,0,1,0,11050.5,-0.121279,-0.121631,-62.1996,6,0.00110612,10,0.00756537,-1.20621,28.9993,0.00203453,-4.94543,-0.121631,
2,0,0,1,0,11050.5,-0.125274,-0.125624,-62.2001,6,0.000857332,10,0.00781383,-1.20621,-27.22,-0.00216753,5.26847,-0.125624,
2,0,0,1,0,11050.5,-0.129269,-0.129579,-62.2445,6,0.000608427,10,0.00806561,-1.2059,-10.4571,-0.00564212,13.7201,-0.1295794,
2,0,0,1,0,11050.5,-0.133265,-0.133631,-62.3232,6,0.000359286,10,0.00832832,-1.20535,-6.84169,-0.0086236,20.99,-0.1336312,
2,0,0,1,0,11050.5,-0.13726,-0.13758,-62.4184,6,0.000109804,10,0.00858754,-1.20469,-4.6475,-0.012695,30.9616,-0.13758,
2,0,0,1,0,11050.5,-0.141255,-0.141601,-62.5355,6,-0.000140118,10,0.0088551,-1.20387,-3.83032,-0.0154034,37.6461,-0.141601,
2,0,0,1,0,11050.5,-0.145286,-0.145612,-62.7409,6,-0.00039062,10,0.00913581,-1.20245,-3.32545,-0.017742,43.4604,-0.145612,
2,0,0,1,0,11050.5,-0.149295,-0.149623,-62.9252,6,-0.000641976,10,0.00941508,-1.20118,-2.95431,-0.0199708,49.0453,-0.149623,
2,0,0,1,0,11050.5,-0.15329,-0.153634,-63.1161,6,-0.000894073,10,0.00969676,-1.19986,-2.97153,-0.0198551,48.9202,-0.153634,
2,0,0,1,0,11050.5,-0.157286,-0.157609,-63.3206,6,-0.00114695,10,0.0099799,-1.19846,-2.73007,-0.0216112,53.4315,-0.157609,
2,0,0,1,0,11050.5,-0.161281,-0.16165,-63.5255,6,-0.00140066,10,0.0102689,-1.19705,-2.56417,-0.0230094,57.0858,-0.16165,
2,0,0,1,0,11050.5,-0.165276,-0.165605,-63.7792,6,-0.00165528,10,0.0105621,-1.19532,-2.4029,-0.0245536,61.1439,-0.165605,
2,0,0,1,0,11050.5,-0.169271,-0.169607,-64.0279,6,-0.00191091,10,0.0108596,-1.19363,-2.24064,-0.0263318,65.8182,-0.169607,
2,0,0,1,0,11050.5,-0.173266,-0.173585,-64.2974,6,-0.0021676,10,0.0111611,-1.19181,-2.22589,-0.0265062,66.5254,-0.173585,
2,0,0,1,0,11050.5,-0.177261,-0.177555,-64.5724,6,-0.00242535,10,0.0114652,-1.18995,-2.13265,-0.0276651,69.7288,-0.1775554,
2,0,0,1,0,11050.5,-0.181257,-0.181597,-64.843,6,-0.00268419,10,0.0117753,-1.18814,-1.97209,-0.0299176,75.7798,-0.181597,
2,0,0,1,0,11050.5,-0.185252,-0.185565,-65.1407,6,-0.00294418,10,0.0120878,-1.18615,-1.92892,-0.0305871,77.8245,-0.185565,
2,0,0,1,0,11050.5,-0.189297,-0.189614,-65.5121,6,-0.00320557,10,0.012422,-1.18368,-1.85496,-0.0318066,81.2952,-0.189614,
2,0,0,1,0,11050.6,-0.193292,-0.193611,-65.8219,6,-0.00346828,10,0.0127438,-1.18163,-1.84815,-0.0319238,81.9114,-0.193611,
2,0,0,1,0,11050.6,-0.197287,-0.197599,-66.144,6,-0.00373222,10,0.01307,-1.17951,-3.25344,-0.0181346,46.5466,-0.197599,
2,0,0,0,0,11050.6,-0.199984,-0.20038,-66.3542,6,-0.00391108,10,0.013296,-1.17813,0.0640424,0.921264,-2221.13,-0.20038,
2,0,0,0,1,11050.6,-0.199984,-0.200628,-66.0247,6,-0.00395074,10,0.0132464,-1.18029,-0.0368761,-1.59995,3610.8,-0.200628,
2,0,0,1,1,11050.6,-0.196688,-0.197177,-57.901,6,-0.00413974,10,0.0114168,-1.23731,-0.0620738,-0.950481,2013.69,-0.197177,
2,0,0,1,1,11050.6,-0.192693,-0.193194,-50.2387,6,-0.00435484,10,0.00970584,-1.29896,-0.0648724,-0.909478,1801.21,-0.193194,
2,0,0,1,1,11050.6,-0.188698,-0.189168,-43.7774,6,-0.004542,10,0.00828128,-1.35875,-0.0655756,-0.899725,1553.3,-0.189168,
2,0,0,1,1,11050.6,-0.184653,-0.185085,-38.0297,6,-0.00470489,10,0.00703874,-1.41988,-0.064352,-0.916832,1366.8,-0.185085,
2,0,0,1,1,11050.6,-0.180657,-0.18109,-32.9123,6,-0.00484615,10,0.00596009,-1.48264,-0.0613228,-0.962122,1234.72,-0.18109,
2,0,0,1,1,11050.6,-0.176662,-0.177111,-28.2562,6,-0.00496792,10,0.00500448,-1.54889,-0.057326,-1.0292,1126.8,-0.177111,
2,0,0,1,1,11050.6,-0.172667,-0.173123,-23.9663,6,-0.00507184,10,0.00414912,-1.6204,-0.0523656,-1.12669,1039.01,-0.173123,
2,0,0,1,1,11050.6,-0.168672,-0.169081,-19.9956,6,-0.0051593,10,0.00338087,-1.69906,-0.0463199,-1.27375,969.573,-0.1690806,
2,0,0,1,1,11050.6,-0.164677,-0.165083,-16.2811,6,-0.00523144,10,0.00268773,-1.78832,-0.0396394,-1.48842,907.343,-0.165083,
2,0,0,1,1,11050.6,-0.160682,-0.161148,-12.7785,6,-0.00528916,10,0.00205923,-1.89352,-0.0321607,-1.83454,853.184,-0.1611477,
2,0,0,1,1,11050.6,-0.156686,-0.157158,-9.48115,6,-0.00533329,10,0.00149004,-2.02314,-0.0235888,-2.50119,805.522,-0.157158,
2,0,0,1,1,11050.6,-0.152691,-0.153118,-6.37685,6,-0.00536464,10,0.000976413,-2.19539,-0.0120575,-4.89322,759.269,-0.1531183,
2,0,0,1,1,11050.6,-0.148696,-0.14913,-3.43082,6,-0.00538392,10,0.000511639,-2.4646,-0.0243929,-2.41873,719.035,-0.14913,
2,0,0,1,1,11050.6,-0.14467,-0.145104,-0.596842,6,-0.00539171,10,8.6604e-05,-3.22414,-0.11541,-0.511219,689.201,-0.145104,
2,1,0,1,1,11050.6,-0.140656,-0.141082,2.07866,6,-0.00538841,10,-0.000293261,-2.68222,0.0510983,1.15464,655.198,-0.141082,
2,1,0,1,1,11050.6,-0.136661,-0.137139,4.63608,6,-0.00537469,10,-0.000635787,-2.33385,0.0133602,4.41611,623.619,-0.137139,
2,1,0,1,1,11050.6,-0.132665,-0.133121,7.05823,6,-0.00535103,10,-0.000939599,-2.1513,0.0213049,2.76932,598.025,-0.133121,
2,1,0,1,1,11050.6,-0.12867,-0.12913,9.36483,6,-0.00531793,10,-0.00120928,-2.0285,0.0338275,1.74414,570.509,-0.12913,
2,1,0,1,1,11050.6,-0.124675,-0.125186,11.5846,6,-0.0052758,10,-0.00145023,-1.93612,0.0454428,1.29834,550.351,-0.125186,
2,1,0,1,1,11050.6,-0.12068,-0.121172,13.7451,6,-0.0052249,10,-0.00166553,-1.86185,0.0570443,1.03428,530.475,-0.121172,
2,1,0,1,1,11050.6,-0.116685,-0.117176,15.8338,6,-0.00516551,10,-0.00185533,-1.80042,0.069381,0.850377,507.599,-0.1171758,
2,1,0,1,1,11050.6,-0.112689,-0.113192,17.8195,6,-0.00509799,10,-0.00201702,-1.7491,0.0819372,0.720064,488.014,-0.113192,
2,1,0,1,1,11050.7,-0.108694,-0.109152,19.7236,6,-0.00502268,10,-0.00215287,-1.70501,0.09451,0.624273,472.036,-0.109152,
2,1,0,1,1,11050.7,-0.104699,-0.105133,21.5728,6,-0.00493988,10,-0.002268,-1.66609,0.108197,0.5453,452.308,-0.105133,
2,1,0,1,1,11050.7,-0.100654,-0.10113,23.4081,6,-0.00484966,10,-0.00236725,-1.63063,0.121654,0.484983,436.32,-0.10113,
2,1,0,1,1,11050.7,-0.0966588,-0.0970885,25.1032,6,-0.00475243,10,-0.00243723,-1.60027,0.136159,0.433316,419.096,-0.0970885,
2,1,0,1,1,11050.7,-0.0926637,-0.0930802,26.736,6,-0.00464857,10,-0.00248859,-1.5729,0.152264,0.387486,400.552,-0.0930802,
2,1,0,1,1,11050.7,-0.0886685,-0.0890909,28.2958,6,-0.00453834,10,-0.0025209,-1.54828,0.167272,0.352719,386.545,-0.0890909,
2,1,0,1,1,11050.7,-0.0846733,-0.085108,29.8256,6,-0.00442192,10,-0.0025384,-1.52541,0.182921,0.322543,372.8,-0.085108,
2,1,0,1,1,11050.7,-0.0806781,-0.0810965,31.2848,6,-0.00429957,10,-0.00253709,-1.50467,0.198626,0.29704,360.464,-0.08109653,
2,1,0,1,1,11050.7,-0.076683,-0.0770945,32.6954,6,-0.00417144,10,-0.00252064,-1.48551,0.215678,0.273556,347.182,-0.0770945,
2,1,0,1,1,11050.7,-0.0726878,-0.0730671,34.0718,6,-0.00403776,10,-0.00248953,-1.4676,0.233337,0.252854,334.436,-0.0730671,
2,1,0,1,1,11050.7,-0.0686926,-0.0691341,35.3715,6,-0.00389874,10,-0.00244538,-1.45135,0.248736,0.237199,326.289,-0.0691341,
2,1,0,1,1,11050.7,-0.0646974,-0.0650918,36.6373,6,-0.00375457,10,-0.00238479,-1.43608,0.26889,0.21942,312.718,-0.0650918,
2,1,0,1,1,11050.7,-0.0606523,-0.0610559,37.9286,6,-0.00360535,10,-0.00231577,-1.42103,0.288523,0.20449,301.196,-0.0610559,
2,1,0,1,1,11050.7,-0.0566571,-0.0570539,39.0795,6,-0.0034512,10,-0.00222964,-1.40805,0.309139,0.190852,289.854,-0.0570539,
2,1,0,1,1,11050.7,-0.052662,-0.0530562,40.2141,6,-0.00329249,10,-0.00213361,-1.39562,0.335654,0.175776,274.972,-0.0530562,
2,1,0,1,1,11050.7,-0.0486668,-0.0490563,41.2853,6,-0.0031294,10,-0.0020253,-1.3842,0.35721,0.165169,265.322,-0.0490563,
2,1,0,1,1,11050.7,-0.0446716,-0.0450925,42.3181,6,-0.00296208,10,-0.00190823,-1.37347,0.384275,0.153536,252.917,-0.0450925,
2,1,0,1,1,11050.7,-0.0406764,-0.0410927,43.3143,6,-0.0027907,10,-0.0017799,-1.36337,0.40752,0.144778,244.112,-0.0410927,
2,1,0,1,1,11050.7,-0.0366813,-0.0370249,44.2687,6,-0.00261544,10,-0.00163905,-1.3539,0.436307,0.135226,233.023,-0.0370249,
2,1,0,1,1,11050.7,-0.0326861,-0.0330983,45.1808,6,-0.00243643,10,-0.00149541,-1.34505,0.466741,0.126409,222.324,-0.0330983,
2,1,0,1,1,11050.7,-0.0286909,-0.0291058,46.0434,6,-0.00225387,10,-0.00134013,-1.33683,0.493606,0.119529,214.372,-0.0291058,
2,1,0,1,1,11050.7,-0.0246957,-0.0251282,46.8636,6,-0.00206796,10,-0.0011776,-1.32916,0.52923,0.111483,203.612,-0.0251282,
2,1,0,1,1,11050.7,-0.0206756,-0.0210955,47.6835,6,-0.00187881,10,-0.00100591,-1.32163,0.56674,0.104104,193.298,-0.0210955,
2,1,0,1,1,11050.7,-0.0166554,-0.0170204,48.4545,6,-0.00168641,10,-0.000824713,-1.31467,0.60824,0.0970012,182.916,-0.0170204,
2,1,0,1,1,11050.7,-0.0126603,-0.0130661,49.1438,6,-0.00149114,10,-0.000642119,-1.30853,0.661902,0.0891371,170.589,-0.0130661,
2,1,0,1,1,11050.8,-0.0086651,-0.00906096,49.8026,6,-0.00129317,10,-0.000451259,-1.30275,0.716012,0.0824009,159.81,-0.00906096,
2,1,0,1,1,11050.8,-0.00466992,-0.00507171,50.417,6,-0.00109267,10,-0.0002557,-1.29742, , , ,-0.00507171,
2,1,0,1,1,11050.8,-0.000974387,-0.00136876,50.9558,6,-0.000905101,10,-6.97464e-05,-1.29281, , , ,-0.00136876,
2,1,0,0,1,11050.8,-0.000175352,-0.000573459,51.0796,6,-0.000864304,10,-2.9292e-05,-1.29175, , , ,-0.000573459,