File: Figure_codes/Fig_3-5/rawdata_trumpetplot_data/after 10th/20221101_1-115_003_TrumpetPlot_ParaChange_from10_every3_11_CV_C01_5.csv
mode,ox/red,error,control changes,counter inc.,time/s,control/V,Ewe/V,<I>/mA,cycle number,(Q-Qo)/C,I Range,P/W,log(|I|),Tafel slope mV/dec,alpha_eff,dI/d(E-IR),E-IR/V,
2,1,0,1,0,11045.2,2.44065e-05,-0.000306236,10.2705,6,0.0000000E+000,10,-3.14519e-06,-1.98841, , , ,-0.000306236,
2,1,0,1,0,11045.2,0.00214129,0.00176792,11.6296,6,5.64553e-05,10,2.05602e-05,-1.93443, , , ,0.00176792,
2,1,0,1,0,11045.2,0.0045495,0.00420473,12.7852,6,0.000130024,10,5.37585e-05,-1.89329,0.0673203,0.876407,427.602,0.00420473,
2,1,0,1,0,11045.2,0.0069466,0.00658322,13.6679,6,0.000209547,10,8.99786e-05,-1.8643,0.0903016,0.653366,344.682,0.00658322,
2,1,0,1,0,11045.2,0.0093437,0.00899777,14.428,6,0.000293946,10,0.00012982,-1.84079,0.109712,0.537772,300.79,0.00899777,
2,1,0,1,0,11045.2,0.0117408,0.0113943,15.1069,6,0.000382662,10,0.000172132,-1.82082,0.130247,0.452986,265.489,0.0113943,
2,1,0,1,0,11045.2,0.0141462,0.0137993,15.7025,6,0.000475198,10,0.000216683,-1.80403,0.154157,0.382726,233.519,0.01379929,
2,1,0,1,0,11045.2,0.0165433,0.0162043,16.2398,6,0.000571094,10,0.000263155,-1.78942,0.178946,0.329708,208.213,0.0162043,
2,1,0,1,0,11045.2,0.0189404,0.0185669,16.7054,6,0.000669995,10,0.000310167,-1.77714,0.199095,0.296341,192.83,0.0185669,
2,1,0,1,0,11045.2,0.0213486,0.0210238,17.1644,6,0.000771664,10,0.000360861,-1.76537,0.226615,0.260353,173.884,0.02102384,
2,1,0,1,0,11045.2,0.0237457,0.0234352,17.563,6,0.000875886,10,0.000411592,-1.7554,0.249315,0.236648,161.867,0.0234352,
2,1,0,1,0,11045.2,0.0261429,0.025819,17.92,6,0.000982367,10,0.000462675,-1.74666,0.26455,0.22302,155.945,0.025819,
2,1,0,1,0,11045.2,0.02854,0.0282452,18.2888,6,0.00109106,10,0.000516571,-1.73781,0.291513,0.202392,144.223,0.0282452,
2,1,0,1,0,11045.2,0.0309482,0.0306279,18.6245,6,0.00120189,10,0.00057043,-1.72992,0.311878,0.189176,137.381,0.0306279,
2,1,0,1,0,11045.3,0.0333453,0.0330043,18.9398,6,0.00131461,10,0.000625095,-1.72262,0.333178,0.177083,130.89,0.0330043,
2,1,0,1,0,11045.3,0.0357424,0.0354252,19.2598,6,0.00142925,10,0.000682284,-1.71535,0.343266,0.171878,129.118,0.03542522,
2,1,0,1,0,11045.3,0.0381478,0.037809,19.5691,6,0.00154576,10,0.00073989,-1.70843,0.355711,0.165865,126.601,0.037809,
2,1,0,1,0,11045.3,0.0405449,0.0402533,19.8607,6,0.00166407,10,0.000799459,-1.702,0.367889,0.160374,124.321,0.0402533,
2,1,0,1,0,11045.3,0.042942,0.0425819,20.1592,6,0.00178419,10,0.000858419,-1.69553,0.369461,0.159692,125.628,0.0425819,
2,1,0,1,0,11045.3,0.0453391,0.0450177,20.4571,6,0.00190608,10,0.000920932,-1.68916,0.380729,0.154966,123.7,0.04501766,
2,1,0,1,0,11045.3,0.0477473,0.0474407,20.7556,6,0.00202977,10,0.00098466,-1.68286,0.391424,0.150732,122.03,0.0474407,
2,1,0,1,0,11045.3,0.0501444,0.0497895,21.0456,6,0.00215519,10,0.00104785,-1.67684,0.391829,0.150576,123.704,0.0497895,
2,1,0,1,0,11045.3,0.0525415,0.0521584,21.3366,6,0.00228235,10,0.00111288,-1.67088,0.389654,0.151416,126.145,0.0521584,
2,1,0,1,0,11045.3,0.0549469,0.0546334,21.6488,6,0.00241136,10,0.00118275,-1.66457,0.399976,0.147509,124.534,0.0546334,
2,1,0,1,0,11045.3,0.057344,0.0569939,21.9399,6,0.00254217,10,0.00125044,-1.65877,0.401513,0.146944,125.879,0.0569939,
2,1,0,1,0,11045.3,0.0597411,0.0593893,22.249,6,0.00267475,10,0.00132136,-1.65269,0.399917,0.14753,128.098,0.0593893,
2,1,0,1,0,11045.3,0.0621438,0.0617944,22.5576,6,0.00280921,10,0.00139393,-1.64671,0.395995,0.148992,131.187,0.0617944,
2,1,0,1,0,11045.3,0.0645465,0.0641983,22.8655,6,0.00294551,10,0.00146793,-1.64082,0.394314,0.149627,133.608,0.0641983,
2,1,0,1,0,11045.3,0.0669436,0.0666393,23.2041,6,0.00308375,10,0.00154631,-1.63444,0.400788,0.14721,133.19,0.0666393,
2,1,0,1,0,11045.3,0.0693407,0.0689691,23.5126,6,0.00322396,10,0.00162164,-1.6287,0.406281,0.14522,133.25,0.0689691,
2,1,0,1,0,11045.4,0.0717489,0.071373,23.8306,6,0.00336601,10,0.00170086,-1.62286,0.41558,0.14197,132.064,0.071373,
2,1,0,1,0,11045.4,0.074146,0.0738204,24.1507,6,0.00350998,10,0.00178281,-1.61707,0.418397,0.141014,132.881,0.0738204,
2,1,0,1,0,11045.4,0.0765431,0.0762095,24.4589,6,0.00365587,10,0.001864,-1.61156,0.433862,0.135988,129.802,0.0762095,
2,1,0,1,0,11045.4,0.0789485,0.0785668,24.7697,6,0.00380358,10,0.00194607,-1.60608,0.434227,0.135873,131.405,0.0785668,
2,1,0,1,0,11045.4,0.0813456,0.0810354,25.0892,6,0.0039532,10,0.00203311,-1.60051,0.420022,0.140469,137.6,0.08103542,
2,1,0,1,0,11045.4,0.0837427,0.0833535,25.4265,6,0.0041048,10,0.00211939,-1.59471,0.416653,0.141605,140.528,0.0833535,
2,1,0,1,0,11045.4,0.0861398,0.0858041,25.7628,6,0.00425842,10,0.00221055,-1.58901,0.43177,0.136647,137.347,0.0858041,
2,1,0,1,0,11045.4,0.088548,0.0882017,26.0941,6,0.00441406,10,0.00230155,-1.58346,0.44219,0.133427,135.839,0.0882017,
2,1,0,1,0,11045.4,0.0909451,0.0906066,26.4166,6,0.00457161,10,0.00239352,-1.57812,0.456357,0.129285,133.289,0.0906066,
2,1,0,1,0,11045.4,0.0933422,0.0929979,26.7432,6,0.00473112,10,0.00248706,-1.57279,0.464896,0.12691,132.387,0.0929979,
2,1,0,1,0,11045.4,0.0957477,0.0953955,27.049,6,0.00489251,10,0.00258035,-1.56785,0.4829,0.122179,128.992,0.0953955,
2,1,0,1,0,11045.4,0.0981447,0.0978068,27.3602,6,0.00505578,10,0.00267602,-1.56288,0.475804,0.124001,132.399,0.0978068,
2,1,0,1,0,11045.4,0.100542,0.100199,27.6866,6,0.00522097,10,0.00277417,-1.55773,0.484169,0.121858,131.616,0.100199,
2,1,0,1,0,11045.4,0.102939,0.102608,27.9801,6,0.00538799,10,0.002871,-1.55315,0.491389,0.120068,131.185,0.102608,
2,1,0,1,0,11045.4,0.105347,0.10502,28.3066,6,0.00555691,10,0.00297275,-1.54811,0.488236,0.120843,133.472,0.1050197,
2,1,0,1,0,11045.4,0.107744,0.107405,28.6341,6,0.00572778,10,0.00307544,-1.54312,0.50115,0.117729,131.507,0.107405,
2,1,0,1,0,11045.4,0.110141,0.10982,28.9487,6,0.00590053,10,0.00317915,-1.53837,0.491021,0.120158,135.794,0.10982,
2,1,0,1,0,11045.5,0.11255,0.112209,29.2821,6,0.00607519,10,0.00328572,-1.5334,0.482548,0.122268,139.74,0.112209,
2,1,0,1,0,11045.5,0.114947,0.114623,29.6224,6,0.00625192,10,0.00339541,-1.52838,0.460621,0.128088,148.1,0.114623,
2,1,0,1,0,11045.5,0.117344,0.116984,29.9818,6,0.00643074,10,0.00350739,-1.52314,0.458008,0.128819,150.765,0.116984,
2,1,0,1,0,11045.5,0.119744,0.119424,30.3449,6,0.00661174,10,0.00362391,-1.51791,0.443748,0.132958,157.545,0.119424,
2,1,0,1,0,11045.5,0.122146,0.121835,30.7323,6,0.00679501,10,0.00374426,-1.5124,0.424256,0.139067,166.889,0.121835,
2,1,0,1,0,11045.5,0.124543,0.124226,31.1446,6,0.0069807,10,0.00386897,-1.50662,0.418454,0.140995,171.366,0.124226,
2,1,0,1,0,11045.5,0.126941,0.126631,31.5586,6,0.00716887,10,0.00399629,-1.50088,0.404011,0.146036,179.981,0.126631,
2,1,0,1,0,11045.5,0.129349,0.12899,32.0003,6,0.00735957,10,0.00412773,-1.49485,0.394146,0.149691,187.053,0.12899,
2,1,0,1,0,11045.5,0.131746,0.131437,32.4693,6,0.00755302,10,0.00426765,-1.48853,0.388704,0.151786,192.277,0.131437,
2,1,0,1,0,11045.5,0.134143,0.133749,32.9191,6,0.00774924,10,0.00440291,-1.48255,0.389995,0.151284,194.452,0.133749,
2,1,0,1,0,11045.5,0.13654,0.136227,33.3932,6,0.0079482,10,0.00454907,-1.47634,0.38885,0.151729,197.799,0.136227,
2,1,0,1,0,11045.5,0.138945,0.138619,33.8811,6,0.00815009,10,0.00469655,-1.47004,0.390054,0.151261,199.916,0.138619,
2,1,0,1,0,11045.5,0.141343,0.141031,34.3569,6,0.00835486,10,0.00484539,-1.46399,0.40062,0.147272,197.403,0.1410311,
2,1,0,1,0,11045.5,0.14374,0.14342,34.8252,6,0.00856245,10,0.00499463,-1.45811,0.411438,0.143399,194.85,0.14342,
2,1,0,1,0,11045.5,0.146148,0.145803,35.2921,6,0.00877287,10,0.00514569,-1.45232,0.423696,0.139251,191.744,0.145803,
2,1,0,1,0,11045.5,0.148545,0.148197,35.7576,6,0.00898606,10,0.00529918,-1.44663,0.444535,0.132723,185.081,0.148197,
2,1,0,1,0,11045.5,0.150942,0.150595,36.1825,6,0.00920195,10,0.0054489,-1.4415,0.463553,0.127278,179.676,0.150595,
2,1,0,1,0,11045.6,0.153345,0.152988,36.6099,6,0.00942035,10,0.00560089,-1.4364,0.49264,0.119763,171.064,0.152988,
2,1,0,1,0,11045.6,0.155747,0.155405,37.0265,6,0.0096413,10,0.0057541,-1.43149,0.517269,0.114061,164.641,0.155405,
2,1,0,1,0,11045.6,0.158144,0.157795,37.4029,6,0.00986464,10,0.00590199,-1.42709,0.569526,0.103595,151.096,0.157795,
2,1,0,1,0,11045.6,0.160542,0.160151,37.7404,6,0.0100901,10,0.00604418,-1.42319,0.615309,0.0958868,141.204,0.160151,
2,1,0,1,0,11045.6,0.162947,0.162616,38.0851,6,0.0103176,10,0.00619323,-1.41924,0.685399,0.0860812,127.792,0.162616,
2,1,0,1,0,11045.6,0.165344,0.165028,38.369,6,0.0105471,10,0.00633197,-1.41602,0.808424,0.0729815,109.151,0.1650281,
2,1,0,1,0,11045.6,0.167741,0.167412,38.6001,6,0.010778,10,0.00646212,-1.41341,0.982101,0.0600753,90.429,0.167412,
2,1,0,1,0,11045.6,0.170149,0.169848,38.8095,6,0.0110103,10,0.0065917,-1.41106,1.38754,0.0425213,64.2867,0.169848,
2,1,0,1,0,11045.6,0.172547,0.172204,38.9268,6,0.0112436,10,0.00670335,-1.40975,2.90759,0.0202917,30.7587,0.172204,
2,1,0,1,0,11045.6,0.174944,0.174604,38.9618,6,0.0114773,10,0.00680287,-1.40936,-9.17777,-0.00642858,-9.75177,0.174604,
2,1,0,1,0,11045.6,0.177341,0.177022,38.8767,6,0.0117108,10,0.00688205,-1.41031,-1.72415,-0.0342197,-51.801,0.177022,
2,1,0,1,0,11045.6,0.179746,0.179369,38.7108,6,0.0119436,10,0.00694353,-1.41217,-0.863388,-0.0683355,-102.918,0.179369,
2,1,0,1,0,11045.6,0.182143,0.181831,38.3989,6,0.012175,10,0.00698213,-1.41568,-0.540747,-0.109108,-162.926,0.1818313,
2,1,0,1,0,11045.6,0.18454,0.184228,37.9316,6,0.012404,10,0.00698806,-1.421,-0.395396,-0.149218,-220.223,0.184228,
2,1,0,1,0,11045.6,0.186949,0.186612,37.3513,6,0.0126298,10,0.00697019,-1.42769,-0.305951,-0.192842,-280.01,0.186612,
2,1,0,1,0,11045.6,0.189346,0.189036,36.6052,6,0.0128517,10,0.00691969,-1.43646,-0.247681,-0.23821,-338.931,0.1890357,
2,1,0,1,0,11045.7,0.191743,0.191421,35.7012,6,0.0130686,10,0.00683394,-1.44732,-0.212736,-0.27734,-385.418,0.191421,
2,1,0,1,0,11045.7,0.19414,0.193819,34.7017,6,0.0132798,10,0.00672585,-1.45965,-0.183736,-0.321113,-433.696,0.1938192,
2,1,0,1,0,11045.7,0.196548,0.196243,33.6245,6,0.0134847,10,0.00659857,-1.47334,-0.164616,-0.35841,-468.765,0.196243,
2,1,0,1,0,11045.7,0.198945,0.198662,32.4307,6,0.0136828,10,0.00644276,-1.48904,-0.149506,-0.394633,-498.707,0.198662,
2,1,0,1,0,11045.7,0.201342,0.201025,31.2107,6,0.0138736,10,0.00627412,-1.5057,-0.140878,-0.418801,-509.766,0.201025,
2,1,0,1,0,11045.7,0.203748,0.203423,30.0025,6,0.0140572,10,0.00610322,-1.52284,-0.137692,-0.428492,-501.357,0.203423,
2,1,0,1,0,11045.7,0.206145,0.205815,28.792,6,0.0142334,10,0.00592582,-1.54073,-0.134037,-0.440177,-494.833,0.2058145,
2,1,0,1,0,11045.7,0.208542,0.208253,27.6327,6,0.0144026,10,0.0057546,-1.55858,-0.136283,-0.432922,-467.44,0.208253,
2,1,0,1,0,11045.7,0.210939,0.210661,26.5237,6,0.0145649,10,0.0055875,-1.57637,-0.137919,-0.427786,-443.574,0.210661,
2,1,0,1,0,11045.7,0.213347,0.213019,25.5093,6,0.0147209,10,0.00543397,-1.5933,-0.142711,-0.413422,-412.004,0.213019,
2,1,0,1,0,11045.7,0.215744,0.215424,24.5375,6,0.0148709,10,0.00528597,-1.61017,-0.147156,-0.400934,-384.779,0.215424,
2,1,0,1,0,11045.7,0.218141,0.217802,23.6481,6,0.0150153,10,0.00515061,-1.6262,-0.157305,-0.375067,-347.24,0.217802,
2,1,0,1,0,11045.7,0.220547,0.220224,22.8785,6,0.0151548,10,0.00503839,-1.64057,-0.167232,-0.352804,-315.379,0.220224,
2,1,0,1,0,11045.7,0.222944,0.222655,22.1404,6,0.0152898,10,0.00492966,-1.65481,-0.176159,-0.334926,-290.048,0.222655,
2,1,0,1,0,11045.7,0.225341,0.225027,21.4753,6,0.0154205,10,0.00483251,-1.66806,-0.192069,-0.307181,-258.29,0.225027,
2,1,0,1,0,11045.7,0.227744,0.227472,20.8992,6,0.0155475,10,0.00475398,-1.67987,-0.207387,-0.284493,-232.403,0.227472,
2,1,0,1,0,11045.7,0.230146,0.229845,20.3672,6,0.0156713,10,0.0046813,-1.69107,-0.221582,-0.266268,-211.994,0.229845,
2,1,0,1,0,11045.8,0.232543,0.232198,19.8839,6,0.015792,10,0.00461701,-1.7015,-0.237967,-0.247934,-192.784,0.232198,
2,1,0,1,0,11045.8,0.234941,0.234655,19.4566,6,0.0159099,10,0.00456561,-1.71093,-0.265128,-0.222534,-169.224,0.234655,
2,1,0,1,0,11045.8,0.237349,0.23705,19.0726,6,0.0160254,10,0.00452116,-1.71959,-0.283505,-0.208109,-155.02,0.23705,
2,1,0,1,0,11045.8,0.239746,0.239485,18.7066,6,0.0161387,10,0.00447994,-1.72801,-0.298136,-0.197896,-144.719,0.239485,
2,1,0,1,0,11045.8,0.242143,0.241816,18.3727,6,0.0162499,10,0.00444281,-1.73583,-0.338873,-0.174107,-125.159,0.241816,
2,1,0,1,0,11045.8,0.244548,0.244209,18.0977,6,0.0163593,10,0.00441961,-1.74238,-0.35796,-0.164823,-116.509,0.244209,
2,1,0,1,0,11045.8,0.246946,0.246619,17.8342,6,0.0164671,10,0.00439826,-1.74875,-0.378146,-0.156024,-108.635,0.246619,
2,1,0,1,0,11045.8,0.249343,0.249048,17.5682,6,0.0165733,10,0.00437533,-1.75527,-0.404234,-0.145955,-100.312,0.249048,
2,1,0,1,0,11045.8,0.25174,0.251477,17.3505,6,0.016678,10,0.00436324,-1.76069,-0.447031,-0.131982,-89.4219,0.251477,
2,1,0,1,0,11045.8,0.254148,0.253858,17.1516,6,0.0167815,10,0.00435408,-1.76569,-0.465754,-0.126676,-84.8005,0.253858,
2,1,0,1,0,11045.8,0.256545,0.256237,16.9456,6,0.0168838,10,0.00434207,-1.77094,-0.486859,-0.121185,-80.272,0.256237,
2,1,0,1,0,11045.8,0.258942,0.258631,16.7718,6,0.0169849,10,0.00433771,-1.77542,-0.556209,-0.106075,-69.4773,0.258631,
2,1,0,1,0,11045.8,0.261348,0.261062,16.6171,6,0.017085,10,0.00433809,-1.77944,-0.568632,-0.103758,-67.2723,0.2610617,
2,1,0,1,0,11045.8,0.263745,0.263418,16.4495,6,0.0171842,10,0.0043331,-1.78385,-0.602017,-0.0980039,-62.9443,0.263418,
2,1,0,1,0,11045.8,0.266142,0.265812,16.3014,6,0.0172824,10,0.00433312,-1.78777,-0.648175,-0.0910248,-57.9657,0.265812,
2,1,0,1,0,11045.8,0.268539,0.268197,16.1589,6,0.0173798,10,0.00433376,-1.79159,-0.680917,-0.0866479,-54.6798,0.268197,
2,1,0,1,0,11045.8,0.270947,0.270625,16.0432,6,0.0174764,10,0.00434169,-1.79471,-0.696951,-0.0846545,-52.9881,0.270625,
2,1,0,1,0,11045.9,0.273344,0.273041,15.9121,6,0.0175723,10,0.00434466,-1.79827,-0.705122,-0.0836735,-51.9925,0.2730411,
2,1,0,1,0,11045.9,0.275741,0.275406,15.7897,6,0.0176674,10,0.00434857,-1.80163,-0.785785,-0.0750841,-46.3159,0.275406,
2,1,0,1,0,11045.9,0.278149,0.277838,15.7044,6,0.0177618,10,0.00436329,-1.80398,-0.769626,-0.0766606,-46.91,0.277838,
2,1,0,1,0,11045.9,0.280547,0.280248,15.5776,6,0.0178557,10,0.00436559,-1.8075,-0.848004,-0.0695752,-42.333,0.280248,
2,1,0,1,0,11045.9,0.282944,0.282653,15.4774,6,0.0179488,10,0.00437473,-1.8103,-0.881318,-0.0669452,-40.4677,0.282653,
2,1,0,1,0,11045.9,0.285344,0.285031,15.3872,6,0.0180414,10,0.00438584,-1.81284,-0.875571,-0.0673846,-40.4383,0.285031,
2,1,0,1,0,11045.9,0.287746,0.28742,15.2838,6,0.0181334,10,0.00439289,-1.81577,-0.894682,-0.0659452,-39.356,0.28742,
2,1,0,1,0,11045.9,0.290143,0.289793,15.1861,6,0.0182248,10,0.00440083,-1.81855,-0.930487,-0.0634076,-37.6139,0.289793,
2,1,0,1,0,11045.9,0.29254,0.29217,15.1115,6,0.0183157,10,0.00441513,-1.82069,-1.03024,-0.0572682,-33.7604,0.29217,
2,1,0,1,0,11045.9,0.294949,0.294594,15.0189,6,0.0184061,10,0.00442447,-1.82336,-0.964154,-0.0611936,-35.8893,0.294594,
2,1,0,1,0,11045.9,0.297346,0.297037,14.9403,6,0.018496,10,0.00443781,-1.82564,-1.08201,-0.054528,-31.8408,0.297037,
2,1,0,1,0,11045.9,0.299621,0.299276,14.8643,6,0.0185809,10,0.00444851,-1.82786,-0.0704685,-0.837253,-465.705,0.299276,
2,1,0,1,0,11045.9,0.299962,0.299689,14.7271,6,0.0185987,10,0.00441357,-1.83188,0.00786049,7.5059,3416.97,0.2996892,
2,1,0,1,0,11045.9,0.297903,0.297685,10.2716,6,0.0186608,10,0.0030577,-1.98836,0.0128966,4.57485,1708.81,0.297685,
2,1,0,1,0,11045.9,0.295506,0.29523,6.69085,6,0.0187108,10,0.00197534,-2.17452,0.0115421,5.11174,1327.04,0.29523,
2,1,0,1,0,11045.9,0.293101,0.29286,4.03184,6,0.0187423,10,0.00118077,-2.3945,0.00860686,6.855,986.382,0.29286,
2,1,0,1,0,11045.9,0.290704,0.290403,1.96517,6,0.0187599,10,0.00057069,-2.7066,0.00436928,13.5034,777.31,0.290403,
2,1,0,1,0,11046,0.288307,0.287976,0.308832,6,0.0187664,10,8.89363e-05,-3.51028,0.0241129,2.44682,628.478,0.287976,
2,0,0,1,0,11046,0.28591,0.285637,-1.0138,6,0.018764,10,-0.000289577,-2.99405,-0.0135481,-4.35487,506.911,0.2856366,
2,0,0,1,0,11046,0.283501,0.283211,-2.10728,6,0.0187544,10,-0.000596805,-2.67628,-0.00875188,-6.7414,415.397,0.283211,
2,0,0,1,0,11046,0.281104,0.280783,-3.01514,6,0.0187389,10,-0.000846601,-2.52069,-0.0180118,-3.27563,349.631,0.280783,
2,0,0,1,0,11046,0.278707,0.278396,-3.77241,6,0.0187184,10,-0.00105022,-2.42338,-0.0281567,-2.09541,293.142,0.278396,
2,0,0,1,0,11046,0.276302,0.276008,-4.41678,6,0.0186937,10,-0.00121907,-2.35489,-0.0398607,-1.48016,247.505,0.2760081,
2,0,0,1,0,11046,0.273905,0.273579,-4.97027,6,0.0186655,10,-0.00135976,-2.30362,-0.0514005,-1.14785,218.253,0.273579,
2,0,0,1,0,11046,0.271508,0.271208,-5.45238,6,0.0186341,10,-0.00147873,-2.26341,-0.0657922,-0.896763,188.239,0.271208,
2,0,0,1,0,11046,0.269105,0.268813,-5.87456,6,0.0186001,10,-0.00157916,-2.23102,-0.0804897,-0.733013,166.275,0.268813,
2,0,0,1,0,11046,0.266702,0.266403,-6.24314,6,0.0185637,10,-0.00166319,-2.2046,-0.0964203,-0.611904,148.18,0.266403,
2,0,0,1,0,11046,0.264305,0.26398,-6.58201,6,0.0185251,10,-0.00173752,-2.18164,-0.114482,-0.515364,131.481,0.26398,
2,0,0,1,0,11046,0.261908,0.261581,-6.88274,6,0.0184847,10,-0.0018004,-2.16224,-0.13261,-0.444914,118.998,0.2615813,
2,0,0,1,0,11046,0.2595,0.259174,-7.15649,6,0.0184425,10,-0.00185478,-2.1453,-0.149089,-0.395737,110.307,0.259174,
2,0,0,1,0,11046,0.257103,0.256804,-7.41991,6,0.0183988,10,-0.00190546,-2.1296,-0.16921,-0.348678,100.532,0.256804,
2,0,0,1,0,11046,0.254706,0.254402,-7.64627,6,0.0183535,10,-0.00194523,-2.11655,-0.189595,-0.31119,92.5833,0.254402,
2,0,0,1,0,11046,0.2523,0.251952,-7.86319,6,0.018307,10,-0.00198114,-2.1044,-0.210225,-0.280651,85.9617,0.251952,
2,0,0,1,0,11046,0.249903,0.249604,-8.05329,6,0.0182593,10,-0.00201013,-2.09403,-0.22652,-0.260463,81.686,0.249604,
2,0,0,1,0,11046.1,0.247506,0.247197,-8.24375,6,0.0182103,10,-0.00203783,-2.08388,-0.245339,-0.240483,77.3176,0.247197,
2,0,0,1,0,11046.1,0.245109,0.244799,-8.42498,6,0.0181603,10,-0.00206243,-2.07443,-0.263015,-0.224322,73.6893,0.2447993,
2,0,0,1,0,11046.1,0.242701,0.242404,-8.6012,6,0.0181092,10,-0.00208496,-2.06544,-0.279228,-0.211297,70.8148,0.242404,
2,0,0,1,0,11046.1,0.240304,0.240019,-8.76049,6,0.0180571,10,-0.00210268,-2.05747,-0.318304,-0.185357,63.33,0.240019,
2,0,0,1,0,11046.1,0.237906,0.237596,-8.91882,6,0.018004,10,-0.00211908,-2.04969,-0.328288,-0.17972,62.4642,0.237596,
2,0,0,1,0,11046.1,0.235501,0.235187,-9.07204,6,0.0179501,10,-0.00213362,-2.0423,-0.343987,-0.171518,60.6792,0.235187,
2,0,0,1,0,11046.1,0.233104,0.232757,-9.21624,6,0.0178952,10,-0.00214515,-2.03545,-0.349263,-0.168927,60.7173,0.2327573,
2,0,0,1,0,11046.1,0.230707,0.230398,-9.35977,6,0.0178395,10,-0.00215647,-2.02873,-0.370557,-0.15922,58.0779,0.230398,
2,0,0,1,0,11046.1,0.22831,0.228029,-9.48041,6,0.0177829,10,-0.00216181,-2.02317,-0.38361,-0.153802,56.9625,0.228029,
2,0,0,1,0,11046.1,0.225902,0.225605,-9.62454,6,0.0177256,10,-0.00217134,-2.01662,-0.39741,-0.148461,55.7059,0.225605,
2,0,0,1,0,11046.1,0.223504,0.223218,-9.7568,6,0.0176674,10,-0.00217789,-2.01069,-0.425596,-0.138629,52.7229,0.223218,
2,0,0,1,0,11046.1,0.221107,0.220818,-9.87287,6,0.0176085,10,-0.00218011,-2.00556,-0.4222,-0.139744,53.9169,0.220818,
2,0,0,1,0,11046.1,0.218699,0.218395,-10.0177,6,0.0175489,10,-0.00218782,-1.99923,-0.43028,-0.13712,53.5301,0.218395,
2,0,0,1,0,11046.1,0.216302,0.21599,-10.1409,6,0.0174884,10,-0.00219032,-1.99393,-0.467221,-0.126279,49.9315,0.21599,
2,0,0,1,0,11046.1,0.213905,0.213603,-10.2567,6,0.0174272,10,-0.00219086,-1.98899,-0.472552,-0.124854,50.0052,0.2136032,
2,0,0,1,0,11046.1,0.211505,0.211196,-10.3774,6,0.0173653,10,-0.00219167,-1.98391,-0.461724,-0.127782,51.7754,0.211196,
2,0,0,1,0,11046.1,0.209102,0.208787,-10.5064,6,0.0173026,10,-0.0021936,-1.97855,-0.456628,-0.129208,52.9898,0.208787,
2,0,0,1,0,11046.2,0.206705,0.206381,-10.6357,6,0.0172392,10,-0.002195,-1.97323,-0.476946,-0.123704,51.3071,0.206381,
2,0,0,1,0,11046.2,0.204308,0.203996,-10.7532,6,0.017175,10,-0.00219361,-1.96846,-0.469656,-0.125624,52.7121,0.203996,
2,0,0,1,0,11046.2,0.2019,0.201568,-10.8787,6,0.0171101,10,-0.0021928,-1.96342,-0.471746,-0.125067,53.1007,0.201568,
2,0,0,1,0,11046.2,0.199503,0.199166,-11.0088,6,0.0170444,10,-0.00219258,-1.95826,-0.494289,-0.119363,51.2004,0.199166,
2,0,0,1,0,11046.2,0.197106,0.196782,-11.1188,6,0.016978,10,-0.00218798,-1.95394,-0.481464,-0.122543,53.2552,0.196782,
2,0,0,1,0,11046.2,0.194709,0.194384,-11.2404,6,0.016911,10,-0.00218497,-1.94922,-0.474733,-0.12428,54.6317,0.1943844,
2,0,0,1,0,11046.2,0.192303,0.191984,-11.3957,6,0.016843,10,-0.0021878,-1.94326,-0.460352,-0.128163,56.9181,0.191984,
2,0,0,1,0,11046.2,0.189906,0.189577,-11.5157,6,0.0167742,10,-0.0021831,-1.93871,-0.495967,-0.118959,53.5037,0.189577,
2,0,0,1,0,11046.2,0.187509,0.187152,-11.6486,6,0.0167047,10,-0.00218006,-1.93373,-0.453758,-0.130025,59.1832,0.187152,
2,0,0,1,0,11046.2,0.185101,0.184783,-11.8105,6,0.0166343,10,-0.00218238,-1.92773,-0.443392,-0.133065,61.2826,0.184783,
2,0,0,1,0,11046.2,0.182704,0.182427,-11.9524,6,0.016563,10,-0.00218045,-1.92254,-0.451333,-0.130724,60.9818,0.182427,
2,0,0,1,0,11046.2,0.180307,0.179962,-12.0995,6,0.0164909,10,-0.00217745,-1.91723,-0.413156,-0.142803,67.4976,0.1799618,
2,0,0,1,0,11046.2,0.177904,0.177601,-12.2599,6,0.0164178,10,-0.00217737,-1.91151,-0.396405,-0.148838,71.2881,0.177601,
2,0,0,1,0,11046.2,0.175501,0.17521,-12.444,6,0.0163437,10,-0.00218032,-1.90504,-0.390148,-0.151225,73.39,0.17521,
2,0,0,1,0,11046.2,0.173104,0.172796,-12.6149,6,0.0162685,10,-0.0021798,-1.89912,-0.382921,-0.154079,75.9175,0.172796,
2,0,0,1,0,11046.2,0.170707,0.170412,-12.7882,6,0.0161923,10,-0.00217927,-1.89319,-0.350608,-0.168279,84.2301,0.170412,
2,0,0,1,0,11046.3,0.168302,0.168008,-13.0189,6,0.0161148,10,-0.00218727,-1.88543,-0.334634,-0.176312,89.522,0.168008,
2,0,0,1,0,11046.3,0.165905,0.165583,-13.2325,6,0.016036,10,-0.00219107,-1.87836,-0.331749,-0.177845,91.9021,0.165583,
2,0,0,1,0,11046.3,0.163507,0.163212,-13.4603,6,0.0159559,10,-0.00219687,-1.87095,-0.299166,-0.197215,103.859,0.163212,
2,0,0,1,0,11046.3,0.161099,0.160784,-13.738,6,0.0158744,10,-0.00220885,-1.86208,-0.279725,-0.210921,113.096,0.160784,
2,0,0,1,0,11046.3,0.158702,0.158363,-14.0139,6,0.0157911,10,-0.00221928,-1.85344,-0.262592,-0.224683,122.959,0.158363,
2,0,0,1,0,11046.3,0.156305,0.155984,-14.3023,6,0.0157061,10,-0.00223093,-1.84459,-0.246048,-0.239791,134.253,0.1559839,
2,0,0,1,0,11046.3,0.153908,0.153601,-14.6452,6,0.0156193,10,-0.00224952,-1.8343,-0.228248,-0.25849,147.97,0.153601,
2,0,0,1,0,11046.3,0.151503,0.151217,-15.0185,6,0.0155302,10,-0.00227106,-1.82337,-0.216303,-0.272765,160.033,0.151217,
2,0,0,1,0,11046.3,0.149105,0.148775,-15.4072,6,0.0154389,10,-0.00229221,-1.81228,-0.205954,-0.286472,172.623,0.148775,
2,0,0,1,0,11046.3,0.146708,0.146388,-15.8399,6,0.0153451,10,-0.00231878,-1.80025,-0.188729,-0.312617,193.815,0.146388,
2,0,0,1,0,11046.3,0.1443,0.143972,-16.3402,6,0.0152486,10,-0.00235252,-1.78674,-0.180043,-0.3277,209.181,0.143972,
2,0,0,1,0,11046.3,0.141903,0.14158,-16.8609,6,0.0151489,10,-0.00238718,-1.77312,-0.17007,-0.346917,228.563,0.14158,
2,0,0,1,0,11046.3,0.139506,0.139229,-17.4121,6,0.0150461,10,-0.00242428,-1.75915,-0.160859,-0.366782,250.128,0.139229,
2,0,0,1,0,11046.3,0.137109,0.136804,-18.052,6,0.0149397,10,-0.0024696,-1.74347,-0.151625,-0.389118,274.794,0.136804,
2,0,0,1,0,11046.3,0.134701,0.134417,-18.7496,6,0.0148292,10,-0.00252027,-1.72701,-0.146774,-0.40198,294.239,0.134417,
2,0,0,1,0,11046.3,0.132303,0.132028,-19.4694,6,0.0147145,10,-0.00257051,-1.71065,-0.14369,-0.410605,312.402,0.132028,
2,0,0,1,0,11046.3,0.129906,0.129605,-20.2446,6,0.0145953,10,-0.00262381,-1.69369,-0.139784,-0.422079,333.758,0.129605,
2,0,0,1,0,11046.4,0.127501,0.127191,-21.0793,6,0.0144713,10,-0.00268109,-1.67614,-0.140819,-0.418977,344.39,0.127191,
2,0,0,1,0,11046.4,0.125104,0.124768,-21.9064,6,0.0143423,10,-0.00273321,-1.65943,-0.142128,-0.415118,355.042,0.124768,
2,0,0,1,0,11046.4,0.122707,0.122398,-22.777,6,0.0142082,10,-0.00278786,-1.6425,-0.14227,-0.414705,368.592,0.122398,
2,0,0,1,0,11046.4,0.12031,0.120036,-23.6566,6,0.0140688,10,-0.00283964,-1.62605,-0.14585,-0.404525,373.449,0.120036,
2,0,0,1,0,11046.4,0.117901,0.117589,-24.5665,6,0.013924,10,-0.00288874,-1.60966,-0.152517,-0.386843,370.424,0.117589,
2,0,0,1,0,11046.4,0.115504,0.115179,-25.4551,6,0.0137739,10,-0.0029319,-1.59423,-0.160676,-0.367198,363.91,0.115179,
2,0,0,1,0,11046.4,0.113107,0.112846,-26.298,6,0.0136185,10,-0.00296762,-1.58008,-0.168154,-0.350868,359.972,0.1128455,
2,0,0,1,0,11046.4,0.110702,0.110454,-27.1675,6,0.0134581,10,-0.00300077,-1.56595,-0.174688,-0.337746,357.746,0.110454,
2,0,0,1,0,11046.4,0.108305,0.108033,-28.0242,6,0.0132925,10,-0.00302755,-1.55247,-0.185602,-0.317885,346.98,0.108033,
2,0,0,1,0,11046.4,0.105908,0.1056,-28.8364,6,0.0131218,10,-0.00304512,-1.54006,-0.196261,-0.30062,337.98,0.1056,
2,0,0,1,0,11046.4,0.103505,0.103238,-29.6451,6,0.0129463,10,-0.0030605,-1.52805,-0.211603,-0.278825,322.002,0.103238,
2,0,0,1,0,11046.4,0.101102,0.100845,-30.3935,6,0.012766,10,-0.00306503,-1.51722,-0.227069,-0.259833,307.69,0.100845,
2,0,0,1,0,11046.4,0.0987052,0.0983826,-31.1045,6,0.0125814,10,-0.00306015,-1.50718,-0.245983,-0.239854,290.898,0.0983826,
2,0,0,1,0,11046.4,0.0963081,0.0960328,-31.7961,6,0.0123926,10,-0.00305347,-1.49763,-0.268254,-0.219941,272.529,0.0960328,
2,0,0,1,0,11046.4,0.0938999,0.0936076,-32.4395,6,0.0121998,10,-0.00303658,-1.48893,-0.291234,-0.202586,256.067,0.0936076,
2,0,0,1,0,11046.4,0.0915028,0.091227,-33.0308,6,0.0120034,10,-0.0030133,-1.48108,-0.316067,-0.18667,240.365,0.091227,
2,0,0,1,0,11046.4,0.0891057,0.0888443,-33.5988,6,0.0118035,10,-0.00298506,-1.47368,-0.339678,-0.173694,227.48,0.0888443,
2,0,0,1,0,11046.5,0.0867002,0.0864127,-34.1272,6,0.0116003,10,-0.00294902,-1.4669,-0.377451,-0.156312,207.862,0.0864127,
2,0,0,1,0,11046.5,0.0843031,0.0840533,-34.5959,6,0.011394,10,-0.0029079,-1.46098,-0.42013,-0.140433,189.322,0.0840533,
2,0,0,1,0,11046.5,0.081906,0.0816303,-35.0121,6,0.0111851,10,-0.00285805,-1.45578,-0.482656,-0.12224,166.848,0.0816303,
2,0,0,1,0,11046.5,0.0795089,0.0792115,-35.3904,6,0.0109738,10,-0.00280333,-1.45111,-0.567462,-0.103972,143.396,0.0792115,
2,0,0,1,0,11046.5,0.0771007,0.0768182,-35.7126,6,0.0107604,10,-0.00274337,-1.44718,-0.683823,-0.0862796,120.048,0.0768182,
2,0,0,1,0,11046.5,0.0747036,0.0743835,-35.9547,6,0.0105454,10,-0.00267444,-1.44424,-0.903707,-0.0652867,91.5197,0.07438349,
2,0,0,1,0,11046.5,0.0723065,0.0719594,-36.1621,6,0.010329,10,-0.0026022,-1.44175,-1.16982,-0.0504352,71.0589,0.0719594,
2,0,0,1,0,11046.5,0.0699011,0.0695905,-36.313,6,0.0101115,10,-0.00252704,-1.43994,-1.91288,-0.0308436,43.625,0.0695905,
2,0,0,1,0,11046.5,0.067504,0.0672311,-36.3666,6,0.00989349,10,-0.00244497,-1.4393,-3.7023,-0.015936,22.5932,0.0672311,
2,0,0,1,0,11046.5,0.0651069,0.06479,-36.4034,6,0.00967517,10,-0.00235857,-1.43886,387.772,0.000152151,-0.215856,0.06479,
2,0,0,1,0,11046.5,0.0627098,0.0623744,-36.3732,6,0.00945681,10,-0.00226876,-1.43922,3.822,0.0154369,-21.883,0.0623744,
2,0,0,1,0,11046.5,0.0603016,0.0599842,-36.2889,6,0.00923881,10,-0.00217676,-1.44023,1.99097,0.0296337,-41.9345,0.0599842,
2,0,0,1,0,11046.5,0.0579045,0.0576004,-36.1658,6,0.00902145,10,-0.00208317,-1.4417,1.46615,0.0402414,-56.7563,0.0576004,
2,0,0,1,0,11046.5,0.0555074,0.0551541,-36.0142,6,0.00880489,10,-0.00198633,-1.44353,1.21313,0.0486347,-68.3121,0.0551541,
2,0,0,1,0,11046.5,0.0530992,0.0528074,-35.8455,6,0.00858933,10,-0.00189291,-1.44557,1.03115,0.0572174,-79.9721,0.0528074,
2,0,0,1,0,11046.5,0.0507021,0.0503854,-35.6325,6,0.00837494,10,-0.00179536,-1.44815,0.952229,0.0619599,-86.147,0.0503854,
2,0,0,1,0,11046.6,0.048305,0.047991,-35.4199,6,0.00816181,10,-0.00169984,-1.45075,0.912353,0.0646679,-89.3774,0.047991,
2,0,0,1,0,11046.6,0.0459051,0.0455797,-35.2087,6,0.00794995,10,-0.0016048,-1.45335,0.852145,0.0692371,-95.0903,0.0455797,
2,0,0,1,0,11046.6,0.0435024,0.0432171,-34.9706,6,0.00773942,10,-0.00151133,-1.4563,0.875836,0.0673642,-91.9722,0.0432171,
2,0,0,1,0,11046.6,0.0411053,0.0408237,-34.7515,6,0.0075303,10,-0.00141869,-1.45903,0.855916,0.068932,-93.5002,0.04082375,
2,0,0,1,0,11046.6,0.0387082,0.0383042,-34.5339,6,0.00732244,10,-0.0013228,-1.46175,0.869389,0.0678638,-91.4399,0.0383042,
2,0,0,1,0,11046.6,0.0363,0.0359501,-34.3129,6,0.00711594,10,-0.00123355,-1.46454,0.865895,0.0681376,-91.2516,0.0359501,
2,0,0,1,0,11046.6,0.0339029,0.0335865,-34.0901,6,0.00691079,10,-0.00114497,-1.46737,0.863538,0.0683236,-90.8854,0.03358648,
2,0,0,1,0,11046.6,0.0315058,0.031191,-33.876,6,0.00670689,10,-0.00105663,-1.47011,0.862114,0.0684364,-90.4576,0.031191,
2,0,0,1,0,11046.6,0.0291087,0.0288062,-33.6374,6,0.00650436,10,-0.000968965,-1.47318,0.841902,0.0700794,-92.0542,0.0288062,
2,0,0,1,0,11046.6,0.0267033,0.0263969,-33.4325,6,0.00630313,10,-0.000882514,-1.47583,0.847207,0.0696406,-90.8668,0.0263969,
2,0,0,1,0,11046.6,0.0243062,0.024011,-33.2114,6,0.00610319,10,-0.000797438,-1.47871,0.805989,0.073202,-94.872,0.024011,
2,0,0,1,0,11046.6,0.0219091,0.0215827,-32.9934,6,0.00590458,10,-0.000712087,-1.48157,0.799094,0.0738336,-95.0524,0.0215827,
2,0,0,1,0,11046.6,0.0195009,0.0191543,-32.7669,6,0.00570733,10,-0.000627629,-1.48456,0.771068,0.0765172,-97.8208,0.0191543,
2,0,0,1,0,11046.6,0.0171038,0.0168077,-32.5239,6,0.0055115,10,-0.000546652,-1.4878,0.750366,0.0786283,-99.8126,0.0168077,
2,0,0,1,0,11046.6,0.0147067,0.0143528,-32.2976,6,0.00531706,10,-0.000463562,-1.49083,0.71999,0.0819456,-103.206,0.0143528,
2,0,0,1,0,11046.6,0.012304,0.0119924,-32.0392,6,0.00512409,10,-0.000384225,-1.49432,0.682901,0.0863961,-107.983,0.0119924,
2,0,0,1,0,11046.6,0.00990136,0.00957887,-31.7648,6,0.00493271,10,-0.000304271,-1.49805,0.65088,0.0906465,-112.368,0.00957887,
2,0,0,1,0,11046.7,0.00750426,0.00713464,-31.5025,6,0.00474293,10,-0.000224759,-1.50166,0.58983,0.100029,-122.841,0.00713464,
2,0,0,1,0,11046.7,0.00510715,0.00478477,-31.1847,6,0.00455486,10,-0.000149212,-1.50606,0.608392,0.0969769,-118.124,0.004784775,
2,0,0,1,0,11046.7,0.00270173,0.00242431,-30.8732,6,0.00436871,10,-7.48461e-05,-1.51042,0.562453,0.104898,-126.461,0.00242431,
2,0,0,1,0,11046.7,0.000304623,-5.91615e-05,-30.6039,6,0.00418415,10,1.81057e-06,-1.51422,0.514592,0.114654,-136.685,-5.91615e-05,
2,0,0,1,0,11046.7,-0.00209248,-0.0024472,-30.2366,6,0.00400167,10,7.39949e-05,-1.51947,0.455994,0.129388,-152.661,-0.0024472,
2,0,0,1,0,11046.7,-0.00450068,-0.00487765,-29.8776,6,0.00382138,10,0.000145733,-1.52465,0.446301,0.132198,-154.048,-0.00487765,
2,0,0,1,0,11046.7,-0.00689779,-0.00724024,-29.4953,6,0.00364331,10,0.000213553,-1.53025,0.428526,0.137681,-158.434,-0.00724024,
2,0,0,1,0,11046.7,-0.00929489,-0.00963782,-29.1157,6,0.00346752,10,0.000280612,-1.53587,0.419854,0.140525,-159.662,-0.00963782,
2,0,0,1,0,11046.7,-0.011692,-0.0121171,-28.7271,6,0.00329402,10,0.000348087,-1.54171,0.419999,0.140477,-157.525,-0.01211705,
2,0,0,1,0,11046.7,-0.0140974,-0.0144542,-28.3476,6,0.00312281,10,0.000409742,-1.54748,0.420898,0.140177,-155.166,-0.0144542,
2,0,0,1,0,11046.7,-0.0164945,-0.0168549,-27.9887,6,0.00295383,10,0.000471748,-1.55302,0.427641,0.137966,-150.718,-0.0168549,
2,0,0,1,0,11046.7,-0.0188916,-0.019279,-27.6228,6,0.00278702,10,0.00053254,-1.55873,0.438003,0.134702,-145.303,-0.019279,
2,0,0,1,0,11046.7,-0.0212998,-0.0216851,-27.2808,6,0.00262237,10,0.000591587,-1.56414,0.454903,0.129698,-138.225,-0.0216851,
2,0,0,1,0,11046.7,-0.0236969,-0.0241145,-26.9802,6,0.00245964,10,0.000650613,-1.56896,0.491494,0.120042,-126.381,-0.02411449,
2,0,0,1,0,11046.7,-0.026094,-0.0264803,-26.6823,6,0.00229871,10,0.000706555,-1.57378,0.527735,0.111798,-116.485,-0.0264803,
2,0,0,1,0,11046.7,-0.0284912,-0.0288641,-26.3916,6,0.00213956,10,0.000761768,-1.57853,0.572051,0.103138,-106.395,-0.0288641,
2,0,0,1,0,11046.7,-0.0308994,-0.0312585,-26.1644,6,0.00198192,10,0.00081786,-1.58229,0.642108,0.0918848,-93.8624,-0.0312585,
2,0,0,1,0,11046.8,-0.0332965,-0.0336656,-25.9416,6,0.00182563,10,0.000873338,-1.586,0.708888,0.0832289,-84.3278,-0.0336656,
2,0,0,1,0,11046.8,-0.0356936,-0.0360356,-25.7438,6,0.00167062,10,0.000927692,-1.58933,0.799885,0.0737606,-74.2121,-0.0360356,
2,0,0,1,0,11046.8,-0.038099,-0.0384586,-25.5894,6,0.00151664,10,0.000984134,-1.59194,0.942713,0.0625853,-62.5329,-0.0384586,
2,0,0,1,0,11046.8,-0.0404961,-0.0408679,-25.4395,6,0.00136356,10,0.00103966,-1.59449,1.04819,0.0562875,-55.9282,-0.0408679,
2,0,0,1,0,11046.8,-0.0428932,-0.0432464,-25.3154,6,0.00121129,10,0.0010948,-1.59662,1.31969,0.0447074,-44.2201,-0.0432464,
2,0,0,1,0,11046.8,-0.0452903,-0.0456683,-25.2175,6,0.0010597,10,0.00115164,-1.5983,1.63525,0.03608,-35.5502,-0.0456683,
2,0,0,1,0,11046.8,-0.0476985,-0.0480755,-25.1518,6,0.000908569,10,0.00120918,-1.59943,2.23529,0.0263948,-25.9228,-0.0480755,
2,0,0,1,0,11046.8,-0.0500956,-0.0504677,-25.1078,6,0.00075781,10,0.00126713,-1.60019,2.5154,0.0234555,-22.9823,-0.0504677,
2,0,0,1,0,11046.8,-0.0524927,-0.0528208,-25.0463,6,0.000607366,10,0.00132296,-1.60126,4.98053,0.0118461,-11.5962,-0.0528208,
2,0,0,1,0,11046.8,-0.0548981,-0.0552852,-25.0464,6,0.000457131,10,0.00138469,-1.60125,15.1712,0.00388896,-3.8027,-0.0552852,
2,0,0,1,0,11046.8,-0.0572953,-0.057653,-25.0458,6,0.000306865,10,0.00144397,-1.60126,-42.9901,-0.00137241,1.34132,-0.05765304,
2,0,0,1,0,11046.8,-0.0596924,-0.0600368,-25.0329,6,0.000156633,10,0.0015029,-1.60149,-7.03436,-0.0083874,8.20585,-0.0600368,
2,0,0,1,0,11046.8,-0.062095,-0.0624503,-25.0713,6,6.33283e-06,10,0.00156571,-1.60082,-4.15666,-0.0141941,13.8921,-0.0624503,
2,0,0,1,0,11046.8,-0.0644977,-0.0648924,-25.1172,6,-0.000144266,10,0.00162991,-1.60003,-2.73334,-0.0215854,21.1574,-0.0648924,
2,0,0,1,0,11046.8,-0.0668948,-0.0672455,-25.1555,6,-0.00029508,10,0.00169159,-1.59937,-2.59304,-0.0227532,22.358,-0.0672455,
2,0,0,1,0,11046.8,-0.0692919,-0.069712,-25.2146,6,-0.00044622,10,0.00175776,-1.59835,-2.00929,-0.0293635,28.9195,-0.069712,
2,0,0,1,0,11046.9,-0.0717001,-0.072065,-25.3062,6,-0.000597806,10,0.00182369,-1.59677,-1.74052,-0.033898,33.477,-0.07206504,
2,0,0,1,0,11046.9,-0.0740972,-0.0744202,-25.383,6,-0.000749865,10,0.00188901,-1.59546,-1.66598,-0.0354145,35.0969,-0.0744202,
2,0,0,1,0,11046.9,-0.0764943,-0.0768369,-25.4741,6,-0.000902444,10,0.00195735,-1.5939,-1.36002,-0.0433818,43.1622,-0.0768369,
2,0,0,1,0,11046.9,-0.0788997,-0.0792472,-25.5924,6,-0.0010556,10,0.00202812,-1.59189,-1.28895,-0.0457738,45.7244,-0.0792472,
2,0,0,1,0,11046.9,-0.0812968,-0.0816766,-25.7068,6,-0.00120951,10,0.00209964,-1.58995,-1.20404,-0.0490016,49.1373,-0.0816766,
2,0,0,1,0,11046.9,-0.0836939,-0.0840529,-25.8189,6,-0.0013641,10,0.00217016,-1.58806,-1.12019,-0.0526696,53.1028,-0.0840529,
2,0,0,1,0,11046.9,-0.086091,-0.0863996,-25.9427,6,-0.00151938,10,0.00224144,-1.58598,-1.01117,-0.0583485,59.1454,-0.0863996,
2,0,0,1,0,11046.9,-0.0884992,-0.0888629,-26.1153,6,-0.00167559,10,0.00232068,-1.58311,-0.958994,-0.0615228,62.6501,-0.0888629,
2,0,0,1,0,11046.9,-0.0908963,-0.0912584,-26.2501,6,-0.00183272,10,0.00239554,-1.58087,-0.973159,-0.0606273,62.1443,-0.0912584,
2,0,0,1,0,11046.9,-0.0932934,-0.0936613,-26.4099,6,-0.00199068,10,0.00247359,-1.57823,-0.896317,-0.0658249,67.8959,-0.0936613,
2,0,0,1,0,11046.9,-0.0956989,-0.0960165,-26.5995,6,-0.00214967,10,0.00255399,-1.57513,-0.83773,-0.0704284,73.056,-0.0960165,
2,0,0,1,0,11046.9,-0.098096,-0.0984851,-26.7647,6,-0.00230976,10,0.00263592,-1.57244,-0.968852,-0.0608968,63.4275,-0.0984851,
2,0,0,0,0,11046.9,-0.0999548,-0.100419,-26.8802,6,-0.00243585,10,0.00269928,-1.57057,0.0247791,2.38104,-2325.66,-0.100419,
2,0,0,1,1,11046.9,-0.0994555,-0.0999028,-25.3394,6,-0.0024799,10,0.00253148,-1.5962,-0.0213346,-2.76546,2439.26,-0.0999028,
2,0,0,1,1,11046.9,-0.0970583,-0.0974533,-20.2073,6,-0.00261522,10,0.00196927,-1.69449,-0.0243916,-2.41887,1919.69,-0.0974533,
2,0,0,1,1,11046.9,-0.0946501,-0.095078,-16.2196,6,-0.00272381,10,0.00154212,-1.78996,-0.0243226,-2.42573,1540.35,-0.095078,
2,0,0,1,1,11046.9,-0.092253,-0.0926391,-12.8354,6,-0.00281042,10,0.00118906,-1.89159,-0.0222057,-2.65698,1324.61,-0.0926391,
2,0,0,1,1,11046.9,-0.0898559,-0.0903221,-9.9063,6,-0.00287816,10,0.000894757,-2.00409,-0.019294,-3.05795,1160.71,-0.0903221,
2,0,0,1,1,11047,-0.0874588,-0.0878651,-7.30606,6,-0.00292939,10,0.000641948,-2.13632,-0.0155863,-3.78538,1036.25,-0.0878651,
2,0,0,1,1,11047,-0.0850534,-0.0854845,-4.94242,6,-0.00296575,10,0.000422501,-2.30606,-0.0112302,-5.25371,929.271,-0.08548449,
2,0,0,1,1,11047,-0.0826563,-0.0830509,-2.84451,6,-0.00298882,10,0.000236239,-2.54599,-0.00534363,-11.0412,831.306,-0.0830509,
2,0,0,1,1,11047,-0.0802592,-0.080631,-0.946942,6,-0.00299991,10,7.63529e-05,-3.02368,-0.0152316,-3.87353,762.569,-0.080631,
2,1,0,1,1,11047,-0.077851,-0.0782801,0.801404,6,-0.00300013,10,-6.2734e-05,-3.09615,0.0238436,2.47446,696.543,-0.0782801,
2,1,0,1,1,11047,-0.0754539,-0.0758571,2.39406,6,-0.00299034,10,-0.000181607,-2.62086,0.00502569,11.7397,637.086,-0.0758571,
2,1,0,1,1,11047,-0.0730568,-0.0735029,3.84736,6,-0.0029714,10,-0.000282792,-2.41484,0.0134659,4.38144,581.947,-0.0735029,
2,1,0,1,1,11047,-0.0706597,-0.0710661,5.15925,6,-0.00294418,10,-0.000366648,-2.28741,0.0209193,2.82036,538.433,-0.0710661,
2,1,0,1,1,11047,-0.0682542,-0.0687025,6.40919,6,-0.00290925,10,-0.000440327,-2.1932,0.0285818,2.06425,499.327,-0.0687025,
2,1,0,1,1,11047,-0.0658571,-0.0663091,7.55514,6,-0.00286721,10,-0.000500975,-2.12176,0.0372786,1.58268,455.744,-0.0663091,
2,1,0,1,1,11047,-0.06346,-0.0638851,8.60477,6,-0.00281858,10,-0.000549716,-2.06526,0.0457051,1.29089,426.964,-0.0638851,
2,1,0,1,1,11047,-0.0610518,-0.0614748,9.60324,6,-0.00276385,10,-0.000590357,-2.01758,0.0555265,1.06256,392.347,-0.0614748,
2,1,0,1,1,11047,-0.0586547,-0.0590878,10.511,6,-0.00270337,10,-0.000621073,-1.97835,0.0660587,0.893145,362.198,-0.0590878,
2,1,0,1,1,11047,-0.0562576,-0.0566817,11.3221,6,-0.00263779,10,-0.000641755,-1.94607,0.077322,0.763043,335.148,-0.0566817,
2,1,0,1,1,11047,-0.053855,-0.0542449,12.1058,6,-0.0025674,10,-0.000656678,-1.91701,0.0895597,0.658778,309.199,-0.0542449,
2,1,0,1,1,11047,-0.0514523,-0.0518728,12.8213,6,-0.00249249,10,-0.000665077,-1.89207,0.103473,0.570197,283.457,-0.0518728,
2,1,0,1,1,11047.1,-0.0490552,-0.0494635,13.468,6,-0.00241352,10,-0.000666175,-1.8707,0.120122,0.491169,257.141,-0.0494635,
2,1,0,1,1,11047.1,-0.0466581,-0.0470256,14.0685,6,-0.00233083,10,-0.000661582,-1.85175,0.13404,0.440167,240.8,-0.0470256,
2,1,0,1,1,11047.1,-0.0442527,-0.0446493,14.6369,6,-0.00224462,10,-0.000653527,-1.83455,0.151722,0.38887,221.153,-0.0446493,
2,1,0,1,1,11047.1,-0.0418556,-0.0422358,15.1433,6,-0.00215523,10,-0.000639589,-1.81978,0.173195,0.340657,200.553,-0.0422358,
2,1,0,1,1,11047.1,-0.0394585,-0.0398456,15.5959,6,-0.00206296,10,-0.00062143,-1.80699,0.192504,0.306487,186.222,-0.0398456,
2,1,0,1,1,11047.1,-0.0370558,-0.0374428,16.0367,6,-0.00196804,10,-0.000600459,-1.79488,0.212398,0.27778,173.411,-0.0374428,
2,1,0,1,1,11047.1,-0.0346532,-0.0350134,16.444,6,-0.00187053,10,-0.000575759,-1.78399,0.23781,0.248098,158.674,-0.0350134,
2,1,0,1,1,11047.1,-0.0322561,-0.0326296,16.7817,6,-0.00177079,10,-0.000547581,-1.77516,0.272085,0.216844,141.903,-0.0326296,
2,1,0,1,1,11047.1,-0.0298589,-0.0302426,17.1213,6,-0.00166905,10,-0.000517793,-1.76646,0.296869,0.198741,132.629,-0.0302426,
2,1,0,1,1,11047.1,-0.0274535,-0.0278386,17.4371,6,-0.00156531,10,-0.000485425,-1.75853,0.332293,0.177554,120.472,-0.02783864,
2,1,0,1,1,11047.1,-0.0250564,-0.025423,17.6948,6,-0.00145988,10,-0.000449855,-1.75216,0.38639,0.152695,105.338,-0.025423,
2,1,0,1,1,11047.1,-0.0226593,-0.0230488,17.9344,6,-0.00135297,10,-0.000413365,-1.74631,0.412833,0.142915,99.9666,-0.0230488,
2,1,0,1,1,11047.1,-0.0202511,-0.0206385,18.1803,6,-0.00124459,10,-0.000375213,-1.7404,0.467083,0.126316,89.4358,-0.0206385,
2,1,0,1,1,11047.1,-0.017854,-0.0182186,18.3763,6,-0.00113489,10,-0.000334791,-1.73574,0.547868,0.10769,77.1201,-0.0182186,
2,1,0,1,1,11047.1,-0.0154569,-0.0158932,18.5509,6,-0.0010241,10,-0.000294832,-1.73164,0.596425,0.0989227,71.5805,-0.0158932,
2,1,0,1,1,11047.1,-0.0130598,-0.0134415,18.7146,6,-0.000912304,10,-0.000251553,-1.72782,0.63292,0.0932187,68.0503,-0.0134415,
2,1,0,1,1,11047.1,-0.0106516,-0.0110513,18.8782,6,-0.000799498,10,-0.000208629,-1.72404,0.725589,0.0813133,59.8137,-0.01105134,
2,1,0,1,1,11047.2,-0.00825448,-0.00859968,18.9979,6,-0.000685845,10,-0.000163376,-1.72129,0.855385,0.0689748,51.1209,-0.008599679,
2,1,0,1,1,11047.2,-0.00585738,-0.00622225,19.1123,6,-0.000571516,10,-0.000118921,-1.71869,0.905786,0.0651368,48.5943,-0.00622225,
2,1,0,1,1,11047.2,-0.00345195,-0.00382891,19.237,6,-0.000456454,10,-7.36566e-05,-1.71586,1.04639,0.0563841,42.2504,-0.00382891,
2,1,0,1,1,11047.2,-0.00105485,-0.00144087,19.316,6,-0.000340762,10,-2.78319e-05,-1.71408, , , ,-0.00144087,
2,1,0,0,1,11047.2,-7.54729e-05,-0.00042076,19.3301,6,-0.00029244,10,-8.13334e-06,-1.71377, , , ,-0.00042076,