File: Figure_codes/Fig_3-5/rawdata_trumpetplot_data/after 10th/20221101_1-115_003_TrumpetPlot_ParaChange_from10_every3_11_CV_C01_22.csv
mode,ox/red,error,control changes,counter inc.,time/s,control/V,Ewe/V,<I>/mA,cycle number,(Q-Qo)/C,I Range,P/W,log(|I|),Tafel slope mV/dec,alpha_eff,dI/d(E-IR),E-IR/V,
2,1,0,1,0,44537.4,2.44065e-05,-0.000535284,9.69931,23,0.0000000E+000,10,-5.19189e-06,-2.01326, , , ,-0.000535284,
2,1,0,1,0,44537.4,0.00214129,0.00181034,10.8206,23,5.29375e-05,10,1.95889e-05,-1.96575, , , ,0.00181034,
2,1,0,1,0,44537.4,0.00454949,0.00419625,11.6731,23,0.000120646,10,4.89834e-05,-1.93281,0.0826276,0.714047,319.702,0.00419625,
2,1,0,1,0,44537.4,0.0069466,0.00656202,12.3295,23,0.000192769,10,8.09063e-05,-1.90906,0.107294,0.549891,262.408,0.00656202,
2,1,0,1,0,44537.4,0.0093437,0.00896384,12.9082,23,0.00026859,10,0.000115707,-1.88914,0.129084,0.457067,229.03,0.00896384,
2,1,0,1,0,44537.4,0.0117408,0.0113635,13.418,23,0.000347651,10,0.000152477,-1.87231,0.149494,0.394664,206.051,0.0113635,
2,1,0,1,0,44537.4,0.0141462,0.0138279,13.9062,23,0.000429702,10,0.000192294,-1.85679,0.169871,0.347323,187.777,0.0138279,
2,1,0,1,0,44537.4,0.0165433,0.016182,14.3353,23,0.000514496,10,0.000231975,-1.84359,0.192486,0.306516,170.96,0.016182,
2,1,0,1,0,44537.4,0.0189404,0.0186093,14.7195,23,0.000601725,10,0.00027392,-1.83211,0.213518,0.276323,158.618,0.0186093,
2,1,0,1,0,44537.4,0.0213486,0.020974,15.1118,23,0.000691244,10,0.000316955,-1.82068,0.230809,0.255623,150.384,0.020974,
2,1,0,1,0,44537.4,0.0237457,0.0233864,15.4648,23,0.000783004,10,0.000361666,-1.81066,0.252423,0.233734,140.684,0.0233864,
2,1,0,1,0,44537.5,0.0261429,0.0258126,15.7672,23,0.000876716,10,0.000406992,-1.80225,0.271852,0.21703,133.565,0.0258126,
2,1,0,1,0,44537.5,0.02854,0.0281943,16.0808,23,0.000972302,10,0.000453387,-1.79369,0.28858,0.204449,128.209,0.0281943,
2,1,0,1,0,44537.5,0.0309482,0.0306375,16.3872,23,0.00106979,10,0.000502061,-1.7855,0.310785,0.189842,121.215,0.0306375,
2,1,0,1,0,44537.5,0.0333453,0.033016,16.6616,23,0.00116897,10,0.000550098,-1.77828,0.336658,0.175252,113.922,0.033016,
2,1,0,1,0,44537.5,0.0357424,0.0354029,16.9303,23,0.00126978,10,0.000599383,-1.77133,0.350112,0.168518,111.306,0.0354029,
2,1,0,1,0,44537.5,0.0381478,0.0378101,17.1982,23,0.00137221,10,0.000650265,-1.76452,0.366489,0.160987,108.01,0.0378101,
2,1,0,1,0,44537.5,0.0405449,0.0401928,17.4523,23,0.0014762,10,0.000701457,-1.75815,0.392166,0.150446,102.442,0.0401928,
2,1,0,1,0,44537.5,0.042942,0.0425893,17.698,23,0.00158171,10,0.000753748,-1.75207,0.386549,0.152633,105.464,0.0425893,
2,1,0,1,0,44537.5,0.0453391,0.044989,17.9385,23,0.00168865,10,0.000807034,-1.74621,0.404701,0.145787,102.104,0.04498902,
2,1,0,1,0,44537.5,0.0477473,0.0474046,18.1992,23,0.00179714,10,0.000862725,-1.73995,0.412176,0.143143,101.569,0.0474046,
2,1,0,1,0,44537.5,0.0501444,0.0498595,18.4298,23,0.00190705,10,0.000918902,-1.73448,0.433584,0.136075,97.8862,0.0498595,
2,1,0,1,0,44537.5,0.0525415,0.0521839,18.6689,23,0.00201837,10,0.000974215,-1.72888,0.422668,0.13959,101.758,0.0521839,
2,1,0,1,0,44537.5,0.0549469,0.0546281,18.931,23,0.00213118,10,0.00103416,-1.72283,0.434735,0.135715,100.144,0.0546281,
2,1,0,1,0,44537.5,0.057344,0.0569843,19.1517,23,0.00224544,10,0.00109134,-1.71779,0.44879,0.131465,98.2674,0.0569843,
2,1,0,1,0,44537.5,0.0597411,0.059383,19.3875,23,0.00236108,10,0.00115129,-1.71248,0.440709,0.133875,101.337,0.05938299,
2,1,0,1,0,44537.5,0.0621438,0.0618124,19.637,23,0.00247817,10,0.00121381,-1.70693,0.452662,0.13034,99.8462,0.0618124,
2,1,0,1,0,44537.6,0.0645465,0.064229,19.8762,23,0.00259675,10,0.00127663,-1.70167,0.457538,0.128951,99.9995,0.064229,
2,1,0,1,0,44537.6,0.0669436,0.066581,20.1185,23,0.00271675,10,0.00133951,-1.6964,0.457987,0.128825,101.155,0.066581,
2,1,0,1,0,44537.6,0.0693407,0.0690178,20.3669,23,0.00283821,10,0.00140568,-1.69107,0.453173,0.130193,103.471,0.0690178,
2,1,0,1,0,44537.6,0.0717489,0.0714281,20.6192,23,0.0029612,10,0.00147279,-1.68573,0.45911,0.12851,103.367,0.0714281,
2,1,0,1,0,44537.6,0.074146,0.0738045,20.8582,23,0.00308564,10,0.00153943,-1.68072,0.47254,0.124857,101.664,0.0738045,
2,1,0,1,0,44537.6,0.0765431,0.0761989,21.0979,23,0.00321154,10,0.00160764,-1.67576,0.463022,0.127424,104.998,0.0761989,
2,1,0,1,0,44537.6,0.0789485,0.0785594,21.3671,23,0.00333895,10,0.00167859,-1.67025,0.469605,0.125637,104.706,0.0785594,
2,1,0,1,0,44537.6,0.0813456,0.0810132,21.6139,23,0.00346794,10,0.00175101,-1.66527,0.470687,0.125349,105.728,0.0810132,
2,1,0,1,0,44537.6,0.0837427,0.083381,21.862,23,0.00359838,10,0.00182288,-1.66031,0.465985,0.126613,108.096,0.083381,
2,1,0,1,0,44537.6,0.0861398,0.0857871,22.1266,23,0.0037304,10,0.00189818,-1.65509,0.474038,0.124463,107.45,0.08578711,
2,1,0,1,0,44537.6,0.088548,0.0882186,22.3892,23,0.00386401,10,0.00197515,-1.64996,0.485911,0.121422,106.051,0.0882186,
2,1,0,1,0,44537.6,0.0909451,0.0905695,22.6274,23,0.00399909,10,0.00204935,-1.64537,0.502959,0.117306,103.662,0.0905695,
2,1,0,1,0,44537.6,0.0933422,0.0929947,22.8914,23,0.00413567,10,0.00212878,-1.64033,0.502661,0.117375,104.835,0.0929947,
2,1,0,1,0,44537.6,0.0957477,0.0953986,23.1426,23,0.0042738,10,0.00220777,-1.63559,0.521358,0.113166,102.133,0.0953986,
2,1,0,1,0,44537.6,0.0981448,0.0978206,23.3766,23,0.00441339,10,0.00228671,-1.63122,0.533101,0.110673,100.969,0.0978206,
2,1,0,1,0,44537.6,0.100542,0.100114,23.6081,23,0.00455436,10,0.00236351,-1.62694,0.506653,0.116451,107.431,0.100114,
2,1,0,1,0,44537.6,0.102939,0.102566,23.8778,23,0.00469686,10,0.00244905,-1.62201,0.508381,0.116055,108.148,0.102566,
2,1,0,1,0,44537.7,0.105347,0.10499,24.1425,23,0.00484099,10,0.00253472,-1.61722,0.520043,0.113452,106.859,0.10499,
2,1,0,1,0,44537.7,0.107744,0.107413,24.3989,23,0.00498665,10,0.00262076,-1.61263,0.523671,0.112666,107.291,0.107413,
2,1,0,1,0,44537.7,0.110141,0.109778,24.659,23,0.00513383,10,0.002707,-1.60803,0.530861,0.11114,106.95,0.109778,
2,1,0,1,0,44537.7,0.11255,0.112164,24.9261,23,0.0052826,10,0.0027958,-1.60335,0.524215,0.112549,109.437,0.112164,
2,1,0,1,0,44537.7,0.114947,0.114625,25.1762,23,0.00543291,10,0.00288582,-1.59901,0.515423,0.114469,112.567,0.114625,
2,1,0,1,0,44537.7,0.117344,0.116998,25.4597,23,0.00558481,10,0.00297873,-1.59415,0.501617,0.11762,116.87,0.116998,
2,1,0,1,0,44537.7,0.119744,0.119381,25.7431,23,0.00573844,10,0.00307324,-1.58934,0.496789,0.118763,119.294,0.119381,
2,1,0,1,0,44537.7,0.122146,0.121797,26.0229,23,0.00589378,10,0.00316952,-1.58464,0.491253,0.120101,122.021,0.121797,
2,1,0,1,0,44537.7,0.124543,0.124179,26.3182,23,0.00605084,10,0.00326817,-1.57974,0.482092,0.122383,125.754,0.124179,
2,1,0,1,0,44537.7,0.126941,0.126616,26.6291,23,0.00620975,10,0.00337166,-1.57464,0.467309,0.126255,131.244,0.126616,
2,1,0,1,0,44537.7,0.129349,0.128994,26.9526,23,0.00637052,10,0.00347673,-1.5694,0.465145,0.126842,133.454,0.128994,
2,1,0,1,0,44537.7,0.131746,0.131388,27.2758,23,0.00653323,10,0.00358371,-1.56422,0.458948,0.128555,136.884,0.131388,
2,1,0,1,0,44537.7,0.134143,0.133799,27.6024,23,0.0066979,10,0.00369318,-1.55905,0.452957,0.130255,140.372,0.133799,
2,1,0,1,0,44537.7,0.13654,0.136177,27.9424,23,0.00686458,10,0.0038051,-1.55374,0.464185,0.127104,138.583,0.136177,
2,1,0,1,0,44537.7,0.138945,0.138582,28.2824,23,0.00703331,10,0.00391942,-1.54848,0.464495,0.12702,140.189,0.138582,
2,1,0,1,0,44537.7,0.141343,0.140961,28.6132,23,0.00720402,10,0.00403334,-1.54343,0.473014,0.124732,139.302,0.140961,
2,1,0,1,0,44537.7,0.14374,0.14343,28.96,23,0.00737679,10,0.00415372,-1.5382,0.481225,0.122604,138.486,0.14343,
2,1,0,1,0,44537.8,0.146148,0.145785,29.283,23,0.00755157,10,0.00426902,-1.53338,0.497567,0.118577,135.479,0.145785,
2,1,0,1,0,44537.8,0.148545,0.148211,29.5977,23,0.00772824,10,0.0043867,-1.52874,0.519551,0.11356,131.189,0.148211,
2,1,0,1,0,44537.8,0.150942,0.150578,29.9171,23,0.00790684,10,0.00450486,-1.52408,0.535849,0.110106,128.498,0.150578,
2,1,0,1,0,44537.8,0.153345,0.152989,30.2196,23,0.00808728,10,0.00462327,-1.51971,0.564092,0.104593,123.305,0.1529893,
2,1,0,1,0,44537.8,0.155747,0.155389,30.5039,23,0.00826948,10,0.00473998,-1.51564,0.592505,0.0995773,118.491,0.155389,
2,1,0,1,0,44537.8,0.158144,0.157831,30.787,23,0.0084534,10,0.00485915,-1.51163,0.639807,0.0922153,110.705,0.157831,
2,1,0,1,0,44537.8,0.160542,0.1602,31.0387,23,0.00863889,10,0.0049724,-1.5081,0.703049,0.0839201,101.588,0.1602,
2,1,0,1,0,44537.8,0.162947,0.162621,31.2745,23,0.00882587,10,0.00508588,-1.50481,0.789382,0.0747421,91.1481,0.162621,
2,1,0,1,0,44537.8,0.165344,0.165037,31.475,23,0.00901417,10,0.00519452,-1.50203,0.905121,0.0651846,80.0225,0.165037,
2,1,0,1,0,44537.8,0.167741,0.167432,31.6552,23,0.00920361,10,0.0053001,-1.49955,1.08282,0.0544874,67.2585,0.167432,
2,1,0,1,0,44537.8,0.170149,0.169811,31.8099,23,0.00939401,10,0.00540165,-1.49744,1.48076,0.0398445,49.3885,0.169811,
2,1,0,1,0,44537.8,0.172547,0.172221,31.8898,23,0.00958515,10,0.00549208,-1.49635,2.28621,0.0258069,32.0843,0.172221,
2,1,0,1,0,44537.8,0.174944,0.174633,31.952,23,0.00977672,10,0.00557988,-1.4955,7.57485,0.00778894,9.69706,0.174633,
2,1,0,1,0,44537.8,0.177341,0.177002,31.9439,23,0.00996844,10,0.00565413,-1.49561,-5.50832,-0.0107111,-13.3333,0.177002,
2,1,0,1,0,44537.8,0.179746,0.179435,31.8842,23,0.0101599,10,0.00572114,-1.49642,-2.08775,-0.0282601,-35.117,0.179435,
2,1,0,1,0,44537.8,0.182143,0.181769,31.78,23,0.010351,10,0.00577662,-1.49785,-1.21538,-0.0485446,-60.0947,0.181769,
2,1,0,1,0,44537.9,0.18454,0.184226,31.5994,23,0.0105411,10,0.00582142,-1.50032,-0.855084,-0.0689991,-84.9521,0.184226,
2,1,0,1,0,44537.9,0.186949,0.186624,31.3703,23,0.01073,10,0.00585447,-1.50348,-0.666058,-0.0885809,-108.273,0.186624,
2,1,0,1,0,44537.9,0.189346,0.189042,31.0828,23,0.0109173,10,0.00587595,-1.50748,-0.54397,-0.108462,-131.31,0.189042,
2,1,0,1,0,44537.9,0.191743,0.191458,30.7337,23,0.0111028,10,0.0058842,-1.51239,-0.463545,-0.12728,-152.442,0.191458,
2,1,0,1,0,44537.9,0.19414,0.193783,30.3314,23,0.0112859,10,0.00587772,-1.51811,-0.399134,-0.14782,-174.742,0.193783,
2,1,0,1,0,44537.9,0.196548,0.196236,29.8953,23,0.0114666,10,0.00586654,-1.5244,-0.360278,-0.163763,-190.73,0.196236,
2,1,0,1,0,44537.9,0.198945,0.198604,29.3981,23,0.0116445,10,0.00583858,-1.53168,-0.318969,-0.184971,-211.932,0.198604,
2,1,0,1,0,44537.9,0.201342,0.201027,28.8679,23,0.0118192,10,0.00580321,-1.53959,-0.294363,-0.200433,-225.541,0.201027,
2,1,0,1,0,44537.9,0.203748,0.203419,28.3018,23,0.0119907,10,0.00575713,-1.54819,-0.275675,-0.21402,-236.287,0.203419,
2,1,0,1,0,44537.9,0.206145,0.205829,27.7334,23,0.0121588,10,0.00570835,-1.557,-0.260091,-0.226844,-245.33,0.205829,
2,1,0,1,0,44537.9,0.208542,0.208256,27.1364,23,0.0123234,10,0.00565132,-1.56645,-0.252196,-0.233945,-247.613,0.208256,
2,1,0,1,0,44537.9,0.210939,0.210608,26.5155,23,0.0124842,10,0.00558436,-1.5765,-0.241606,-0.244199,-252.762,0.210608,
2,1,0,1,0,44537.9,0.213347,0.213022,25.9226,23,0.0126415,10,0.00552209,-1.58632,-0.237152,-0.248785,-251.528,0.213022,
2,1,0,1,0,44537.9,0.215744,0.215412,25.3186,23,0.0127952,10,0.00545393,-1.59656,-0.231905,-0.254415,-251.314,0.215412,
2,1,0,1,0,44537.9,0.218141,0.217828,24.7144,23,0.0129452,10,0.00538348,-1.60705,-0.23584,-0.250169,-241.477,0.217828,
2,1,0,1,0,44537.9,0.220547,0.22026,24.1511,23,0.0130917,10,0.00531953,-1.61706,-0.23501,-0.251053,-236.624,0.22026,
2,1,0,1,0,44537.9,0.222944,0.222657,23.5869,23,0.0132349,10,0.00525178,-1.62733,-0.237998,-0.247901,-228.296,0.222657,
2,1,0,1,0,44538,0.225341,0.225014,23.0426,23,0.0133747,10,0.00518492,-1.63747,-0.240054,-0.245778,-221.264,0.225014,
2,1,0,1,0,44538,0.227744,0.227391,22.5331,23,0.0135114,10,0.00512381,-1.64718,-0.246654,-0.239201,-210.54,0.227391,
2,1,0,1,0,44538,0.230146,0.229839,22.0464,23,0.0136451,10,0.00506711,-1.65666,-0.252659,-0.233516,-200.998,0.229839,
2,1,0,1,0,44538,0.232543,0.232249,21.5757,23,0.0137759,10,0.00501094,-1.66604,-0.257909,-0.228763,-192.726,0.232249,
2,1,0,1,0,44538,0.234941,0.234623,21.1321,23,0.013904,10,0.00495807,-1.67506,-0.270786,-0.217884,-179.861,0.234623,
2,1,0,1,0,44538,0.237349,0.23704,20.7166,23,0.0140294,10,0.00491067,-1.68368,-0.283996,-0.207749,-168.077,0.2370403,
2,1,0,1,0,44538,0.239746,0.23943,20.3296,23,0.0141525,10,0.00486753,-1.69187,-0.292436,-0.201753,-160.073,0.23943,
2,1,0,1,0,44538,0.242143,0.241772,19.9395,23,0.0142733,10,0.00482082,-1.70029,-0.305596,-0.193065,-150.458,0.241772,
2,1,0,1,0,44538,0.244548,0.244205,19.5951,23,0.0143918,10,0.00478524,-1.70785,-0.321166,-0.183706,-140.615,0.244205,
2,1,0,1,0,44538,0.246946,0.246656,19.2667,23,0.0145084,10,0.00475224,-1.71519,-0.331543,-0.177956,-133.83,0.246656,
2,1,0,1,0,44538,0.249343,0.249036,18.9443,23,0.014623,10,0.00471781,-1.72252,-0.337257,-0.174941,-129.494,0.249036,
2,1,0,1,0,44538,0.25174,0.251418,18.6434,23,0.0147357,10,0.0046873,-1.72947,-0.367999,-0.160327,-116.788,0.251418,
2,1,0,1,0,44538,0.254148,0.253819,18.3859,23,0.0148468,10,0.0046667,-1.73551,-0.379985,-0.155269,-111.402,0.253819,
2,1,0,1,0,44538,0.256545,0.256244,18.1112,23,0.0149562,10,0.00464088,-1.74205,-0.386002,-0.152849,-108.129,0.256244,
2,1,0,1,0,44538,0.258942,0.258663,17.8697,23,0.0150641,10,0.00462224,-1.74788,-0.414882,-0.142209,-99.2411,0.258663,
2,1,0,1,0,44538,0.261348,0.261005,17.6365,23,0.0151706,10,0.00460322,-1.75359,-0.438163,-0.134653,-92.7199,0.261005,
2,1,0,1,0,44538,0.263745,0.263415,17.4139,23,0.0152757,10,0.00458708,-1.7591,-0.44657,-0.132118,-89.8186,0.263415,
2,1,0,1,0,44538.1,0.266142,0.265851,17.1973,23,0.0153796,10,0.00457191,-1.76454,-0.472091,-0.124976,-83.9748,0.265851,
2,1,0,1,0,44538.1,0.268539,0.26824,16.9993,23,0.0154821,10,0.00455987,-1.76957,-0.491946,-0.119932,-79.6561,0.26824,
2,1,0,1,0,44538.1,0.270947,0.270634,16.82,23,0.0155836,10,0.00455206,-1.77417,-0.513843,-0.114821,-75.3538,0.270634,
2,1,0,1,0,44538.1,0.273344,0.273016,16.6394,23,0.015684,10,0.00454282,-1.77886,-0.522485,-0.112922,-73.3476,0.273016,
2,1,0,1,0,44538.1,0.275741,0.275409,16.4597,23,0.0157833,10,0.00453316,-1.78358,-0.551841,-0.106915,-68.7637,0.275409,
2,1,0,1,0,44538.1,0.278149,0.27784,16.3137,23,0.0158816,10,0.0045326,-1.78745,-0.563027,-0.104791,-66.7053,0.2778405,
2,1,0,1,0,44538.1,0.280547,0.280244,16.1548,23,0.0159789,10,0.0045273,-1.7917,-0.583108,-0.101182,-63.8128,0.280244,
2,1,0,1,0,44538.1,0.282944,0.282625,16.0038,23,0.0160754,10,0.00452307,-1.79578,-0.629949,-0.0936584,-58.5543,0.282625,
2,1,0,1,0,44538.1,0.285344,0.285022,15.8688,23,0.016171,10,0.00452296,-1.79946,-0.646,-0.0913312,-56.5578,0.285022,
2,1,0,1,0,44538.1,0.287746,0.287455,15.7325,23,0.0162658,10,0.00452239,-1.8032,-0.652603,-0.0904072,-55.515,0.2874552,
2,1,0,1,0,44538.1,0.290143,0.289842,15.597,23,0.0163598,10,0.00452066,-1.80696,-0.671419,-0.0878736,-53.5123,0.289842,
2,1,0,1,0,44538.1,0.29254,0.29225,15.4757,23,0.016453,10,0.00452279,-1.81035,-0.725275,-0.0813484,-49.1543,0.29225,
2,1,0,1,0,44538.1,0.294949,0.294617,15.3627,23,0.0165455,10,0.00452612,-1.81353,-0.738896,-0.0798488,-47.8654,0.294617,
2,1,0,1,0,44538.1,0.297346,0.297029,15.2473,23,0.0166373,10,0.00452888,-1.81681,-0.78007,-0.0756343,-45.0774,0.297029,
2,1,0,1,0,44538.1,0.299621,0.299349,15.133,23,0.0167239,10,0.00453006,-1.82007,-0.0842287,-0.700474,-400.975,0.299349,
2,1,0,1,0,44538.1,0.299962,0.299746,14.9905,23,0.016742,10,0.00449334,-1.82418,0.0118093,4.99605,2499.86,0.299746,
2,1,0,1,0,44538.1,0.297903,0.297647,11.6739,23,0.0168086,10,0.00347471,-1.93278,0.0207435,2.84426,1265.78,0.297647,
2,1,0,1,0,44538.2,0.295506,0.295183,9.08869,23,0.0168702,10,0.00268283,-2.0415,0.0216411,2.7263,983.389,0.295183,
2,1,0,1,0,44538.2,0.293101,0.292805,7.04738,23,0.0169182,10,0.00206351,-2.15197,0.0208663,2.82753,779.515,0.292805,
2,1,0,1,0,44538.2,0.290704,0.290434,5.35468,23,0.0169551,10,0.00155518,-2.27127,0.0186928,3.1563,652.486,0.290434,
2,1,0,1,0,44538.2,0.288307,0.288033,3.90651,23,0.0169826,10,0.0011252,-2.40821,0.015406,3.82967,566.33,0.288033,
2,1,0,1,0,44538.2,0.28591,0.285573,2.65597,23,0.0170021,10,0.000758472,-2.57578,0.0115152,5.12365,492.629,0.285573,
2,1,0,1,0,44538.2,0.283501,0.283191,1.54758,23,0.0170145,10,0.00043826,-2.81035,0.00630823,9.35287,429.355,0.283191,
2,1,0,1,0,44538.2,0.281104,0.280781,0.586213,23,0.0170208,10,0.000164597,-3.23194,0.0116971,5.044,379.065,0.280781,
2,0,0,1,0,44538.2,0.278707,0.278425,-0.270133,23,0.0170216,10,-7.52118e-05,-3.56842,-0.0409877,-1.43945,340.207,0.2784248,
2,0,0,1,0,44538.2,0.276302,0.275998,-1.0451,23,0.0170176,10,-0.000288446,-2.98084,-0.00259899,-22.7011,303.551,0.275998,
2,0,0,1,0,44538.2,0.273905,0.273623,-1.7246,23,0.0170091,10,-0.00047189,-2.76331,-0.0127457,-4.62901,272.148,0.273623,
2,0,0,1,0,44538.2,0.271508,0.27121,-2.34384,23,0.0169969,10,-0.000635674,-2.63007,-0.020549,-2.87118,247.613,0.27121,
2,0,0,1,0,44538.2,0.269105,0.26877,-2.92613,23,0.016981,10,-0.000786456,-2.53371,-0.0284627,-2.07289,226.441,0.2687698,
2,0,0,1,0,44538.2,0.266702,0.266417,-3.42909,23,0.0169618,10,-0.000913567,-2.46482,-0.0374104,-1.5771,205.855,0.266417,
2,0,0,1,0,44538.2,0.264305,0.264,-3.8923,23,0.0169398,10,-0.00102757,-2.40979,-0.0469961,-1.25542,187.802,0.264,
2,0,0,1,0,44538.2,0.261908,0.261605,-4.33568,23,0.0169151,10,-0.00113423,-2.36294,-0.0569883,-1.0353,172.813,0.261605,
2,0,0,1,0,44538.2,0.2595,0.259207,-4.73168,23,0.0168878,10,-0.00122649,-2.32498,-0.0676388,-0.872281,159.43,0.259207,
2,0,0,1,0,44538.2,0.257103,0.25678,-5.09599,23,0.0168583,10,-0.00130855,-2.29277,-0.0789257,-0.747539,147.678,0.25678,
2,0,0,1,0,44538.3,0.254706,0.254407,-5.44047,23,0.0168267,10,-0.00138409,-2.26436,-0.0897353,-0.657489,138.837,0.254407,
2,0,0,1,0,44538.3,0.2523,0.252006,-5.76566,23,0.016793,10,-0.00145298,-2.23915,-0.101901,-0.578994,129.431,0.252006,
2,0,0,1,0,44538.3,0.249903,0.249582,-6.05195,23,0.0167575,10,-0.00151045,-2.2181,-0.116134,-0.508036,119.573,0.249582,
2,0,0,1,0,44538.3,0.247506,0.247222,-6.32682,23,0.0167203,10,-0.00156413,-2.19881,-0.128055,-0.460739,113.599,0.247222,
2,0,0,1,0,44538.3,0.245109,0.244784,-6.60021,23,0.0166815,10,-0.00161563,-2.18044,-0.139205,-0.423836,108.735,0.244784,
2,0,0,1,0,44538.3,0.242701,0.242388,-6.85338,23,0.0166411,10,-0.00166118,-2.1641,-0.15641,-0.377214,100.487,0.242388,
2,0,0,1,0,44538.3,0.240304,0.239999,-7.07472,23,0.0165993,10,-0.00169792,-2.15029,-0.174265,-0.338565,93.4301,0.239999,
2,0,0,1,0,44538.3,0.237906,0.237608,-7.30549,23,0.0165561,10,-0.00173584,-2.13635,-0.18538,-0.318266,90.4964,0.237608,
2,0,0,1,0,44538.3,0.235501,0.235188,-7.51588,23,0.0165117,10,-0.00176764,-2.12402,-0.205435,-0.287195,84.0308,0.235188,
2,0,0,1,0,44538.3,0.233104,0.23281,-7.71047,23,0.016466,10,-0.00179508,-2.11292,-0.213956,-0.275757,82.9194,0.23281,
2,0,0,1,0,44538.3,0.230707,0.230392,-7.90545,23,0.0164191,10,-0.00182135,-2.10207,-0.225201,-0.261989,80.764,0.230392,
2,0,0,1,0,44538.3,0.22831,0.227983,-8.08576,23,0.0163711,10,-0.00184342,-2.09228,-0.247033,-0.238834,75.3237,0.227983,
2,0,0,1,0,44538.3,0.225902,0.225608,-8.26594,23,0.016322,10,-0.00186486,-2.08271,-0.263404,-0.223991,72.1879,0.225608,
2,0,0,1,0,44538.3,0.223504,0.223179,-8.4289,23,0.0162719,10,-0.00188115,-2.07423,-0.28111,-0.209882,69.0664,0.223179,
2,0,0,1,0,44538.3,0.221107,0.220778,-8.60099,23,0.0162207,10,-0.00189891,-2.06545,-0.292214,-0.201907,67.7401,0.220778,
2,0,0,1,0,44538.3,0.218699,0.218373,-8.77109,23,0.0161686,10,-0.00191537,-2.05695,-0.314368,-0.187678,64.1093,0.218373,
2,0,0,1,0,44538.3,0.216302,0.215964,-8.90617,23,0.0161156,10,-0.00192341,-2.05031,-0.333395,-0.176967,61.5588,0.215964,
2,0,0,1,0,44538.4,0.213905,0.213592,-9.06373,23,0.0160616,10,-0.00193594,-2.04269,-0.335246,-0.17599,62.2453,0.213592,
2,0,0,1,0,44538.4,0.211505,0.21117,-9.21278,23,0.0160068,10,-0.00194546,-2.03561,-0.362071,-0.162951,58.5446,0.21117,
2,0,0,1,0,44538.4,0.209102,0.208773,-9.34327,23,0.0159511,10,-0.00195062,-2.0295,-0.364077,-0.162053,59.1562,0.208773,
2,0,0,1,0,44538.4,0.206705,0.206343,-9.49793,23,0.0158946,10,-0.00195983,-2.02237,-0.371891,-0.158649,58.7306,0.206343,
2,0,0,1,0,44538.4,0.204308,0.203969,-9.63528,23,0.0158372,10,-0.0019653,-2.01614,-0.379835,-0.155331,58.3073,0.203969,
2,0,0,1,0,44538.4,0.2019,0.201631,-9.7633,23,0.015779,10,-0.00196859,-2.0104,-0.409096,-0.144221,54.9577,0.201631,
2,0,0,1,0,44538.4,0.199503,0.199168,-9.8934,23,0.01572,10,-0.00197045,-2.00465,-0.41026,-0.143811,55.5314,0.199168,
2,0,0,1,0,44538.4,0.197106,0.196771,-10.0251,23,0.0156602,10,-0.00197265,-1.99891,-0.414247,-0.142427,55.7311,0.196771,
2,0,0,1,0,44538.4,0.194709,0.194327,-10.1511,23,0.0155996,10,-0.00197264,-1.99349,-0.444796,-0.132645,52.5785,0.194327,
2,0,0,1,0,44538.4,0.192303,0.191982,-10.2844,23,0.0155383,10,-0.00197441,-1.98782,-0.446228,-0.13222,53.0894,0.191982,
2,0,0,1,0,44538.4,0.189906,0.1896,-10.413,23,0.0154762,10,-0.0019743,-1.98242,-0.450335,-0.131014,53.2429,0.1896,
2,0,0,1,0,44538.4,0.187509,0.187143,-10.5398,23,0.0154133,10,-0.00197245,-1.97717,-0.4643,-0.127073,52.2533,0.187143,
2,0,0,1,0,44538.4,0.185101,0.184713,-10.6773,23,0.0153496,10,-0.00197224,-1.97154,-0.456502,-0.129244,53.8272,0.184713,
2,0,0,1,0,44538.4,0.182704,0.182382,-10.7956,23,0.0152852,10,-0.00196893,-1.96675,-0.466015,-0.126605,53.3723,0.182382,
2,0,0,1,0,44538.4,0.180307,0.17995,-10.9347,23,0.01522,10,-0.00196771,-1.96119,-0.449155,-0.131358,56.032,0.17995,
2,0,0,1,0,44538.4,0.177904,0.177578,-11.0576,23,0.015154,10,-0.00196358,-1.95634,-0.45681,-0.129157,55.779,0.177578,
2,0,0,1,0,44538.5,0.175501,0.175209,-11.1979,23,0.0150873,10,-0.00196197,-1.95086,-0.438457,-0.134563,58.8334,0.175209,
2,0,0,1,0,44538.5,0.173104,0.172792,-11.3426,23,0.0150196,10,-0.00195991,-1.94529,-0.44218,-0.13343,59.0352,0.1727924,
2,0,0,1,0,44538.5,0.170707,0.170388,-11.473,23,0.0149512,10,-0.00195486,-1.94032,-0.437951,-0.134718,60.3917,0.170388,
2,0,0,1,0,44538.5,0.168302,0.167999,-11.6295,23,0.0148818,10,-0.00195374,-1.93444,-0.425205,-0.138757,62.9858,0.167999,
2,0,0,1,0,44538.5,0.165905,0.165582,-11.7841,23,0.0148116,10,-0.00195124,-1.9287,-0.421759,-0.13989,64.3375,0.165582,
2,0,0,1,0,44538.5,0.163507,0.163189,-11.9391,23,0.0147404,10,-0.00194834,-1.92303,-0.398706,-0.147979,69.0211,0.163189,
2,0,0,1,0,44538.5,0.161099,0.160781,-12.1174,23,0.0146682,10,-0.00194825,-1.91659,-0.37931,-0.155545,73.5523,0.160781,
2,0,0,1,0,44538.5,0.158702,0.158354,-12.2892,23,0.014595,10,-0.00194604,-1.91048,-0.356496,-0.1655,79.446,0.158354,
2,0,0,1,0,44538.5,0.156305,0.155982,-12.4873,23,0.0145207,10,-0.00194779,-1.90353,-0.347472,-0.169798,82.8045,0.155982,
2,0,0,1,0,44538.5,0.153908,0.153606,-12.6842,23,0.0144452,10,-0.00194837,-1.89674,-0.325542,-0.181236,89.8159,0.153606,
2,0,0,1,0,44538.5,0.151503,0.1512,-12.9052,23,0.0143684,10,-0.00195127,-1.88923,-0.307938,-0.191597,96.6471,0.1512,
2,0,0,1,0,44538.5,0.149105,0.148789,-13.1495,23,0.0142902,10,-0.0019565,-1.88109,-0.291947,-0.202091,103.765,0.148789,
2,0,0,1,0,44538.5,0.146708,0.146355,-13.4091,23,0.0142105,10,-0.0019625,-1.8726,-0.274701,-0.214779,112.564,0.146355,
2,0,0,1,0,44538.5,0.1443,0.143988,-13.6896,23,0.0141292,10,-0.00197113,-1.86361,-0.252554,-0.233614,125.119,0.143988,
2,0,0,1,0,44538.5,0.141903,0.141614,-14.0158,23,0.014046,10,-0.00198484,-1.85338,-0.232702,-0.253543,138.858,0.141614,
2,0,0,1,0,44538.5,0.139506,0.139191,-14.3608,23,0.0139609,10,-0.0019989,-1.84282,-0.214566,-0.274973,154.454,0.1391913,
2,0,0,1,0,44538.5,0.137109,0.136783,-14.7435,23,0.0138735,10,-0.00201666,-1.8314,-0.200274,-0.294596,169.936,0.136783,
2,0,0,1,0,44538.6,0.134701,0.134395,-15.1796,23,0.0137837,10,-0.00204006,-1.81874,-0.189225,-0.311798,184.937,0.134395,
2,0,0,1,0,44538.6,0.132303,0.131995,-15.6334,23,0.0136913,10,-0.00206354,-1.80595,-0.180393,-0.327064,199.883,0.131995,
2,0,0,1,0,44538.6,0.129906,0.129599,-16.1291,23,0.0135959,10,-0.00209032,-1.79239,-0.173856,-0.339362,213.959,0.129599,
2,0,0,1,0,44538.6,0.127501,0.127158,-16.6612,23,0.0134975,10,-0.0021186,-1.77829,-0.168911,-0.349297,227.368,0.127158,
2,0,0,1,0,44538.6,0.125104,0.124775,-17.2312,23,0.0133958,10,-0.00215002,-1.76368,-0.16696,-0.353378,237.705,0.124775,
2,0,0,1,0,44538.6,0.122707,0.122427,-17.8086,23,0.0132906,10,-0.00218026,-1.74937,-0.166799,-0.353719,245.955,0.122427,
2,0,0,1,0,44538.6,0.12031,0.120005,-18.4052,23,0.0131819,10,-0.00220873,-1.73506,-0.165682,-0.356103,256.114,0.120005,
2,0,0,1,0,44538.6,0.117901,0.117579,-19.0466,23,0.0130695,10,-0.00223948,-1.72018,-0.168533,-0.35008,260.098,0.117579,
2,0,0,1,0,44538.6,0.115504,0.115208,-19.6821,23,0.0129532,10,-0.00226754,-1.70593,-0.174847,-0.337439,258.766,0.115208,
2,0,0,1,0,44538.6,0.113107,0.112809,-20.2881,23,0.0128332,10,-0.00228869,-1.69276,-0.181501,-0.325067,257.28,0.112809,
2,0,0,1,0,44538.6,0.110702,0.110426,-20.8811,23,0.0127097,10,-0.00230581,-1.68025,-0.185865,-0.317435,258.862,0.110426,
2,0,0,1,0,44538.6,0.108305,0.108052,-21.5273,23,0.0125824,10,-0.00232608,-1.66701,-0.189626,-0.31114,261.148,0.108052,
2,0,0,1,0,44538.6,0.105908,0.105611,-22.135,23,0.0124513,10,-0.00233771,-1.65492,-0.198748,-0.296859,256.351,0.105611,
2,0,0,1,0,44538.6,0.103505,0.103221,-22.7469,23,0.0123166,10,-0.00234796,-1.64308,-0.210061,-0.28087,248.969,0.103221,
2,0,0,1,0,44538.6,0.101102,0.100786,-23.3277,23,0.0121782,10,-0.00235109,-1.63213,-0.224658,-0.262622,238.9,0.1007855,
2,0,0,1,0,44538.6,0.0987052,0.0984165,-23.8992,23,0.0120365,10,-0.00235208,-1.62162,-0.240074,-0.245758,228.973,0.0984165,
2,0,0,1,0,44538.6,0.0963081,0.09602,-24.4421,23,0.0118914,10,-0.00234693,-1.61186,-0.25086,-0.235191,224.167,0.09602,
2,0,0,1,0,44538.7,0.0938999,0.0936383,-24.9707,23,0.0117431,10,-0.00233822,-1.60257,-0.268064,-0.220097,214.227,0.0936383,
2,0,0,1,0,44538.7,0.0915028,0.0911973,-25.4742,23,0.0115917,10,-0.00232318,-1.5939,-0.294223,-0.200528,199.04,0.0911973,
2,0,0,1,0,44538.7,0.0891057,0.0888252,-25.9321,23,0.0114375,10,-0.00230342,-1.58616,-0.311981,-0.189114,191.254,0.0888252,
2,0,0,1,0,44538.7,0.0867002,0.0863884,-26.3845,23,0.0112805,10,-0.00227932,-1.57865,-0.336251,-0.175464,180.49,0.08638835,
2,0,0,1,0,44538.7,0.0843031,0.0840215,-26.8071,23,0.0111209,10,-0.00225237,-1.57175,-0.365368,-0.161481,168.634,0.0840215,
2,0,0,1,0,44538.7,0.081906,0.0816706,-27.1757,23,0.0109588,10,-0.00221946,-1.56582,-0.401309,-0.147019,155.857,0.0816706,
2,0,0,1,0,44538.7,0.0795089,0.0791829,-27.5368,23,0.0107946,10,-0.00218044,-1.56009,-0.440271,-0.134008,143.96,0.0791829,
2,0,0,1,0,44538.7,0.0771007,0.076797,-27.8904,23,0.0106283,10,-0.0021419,-1.55455,-0.490074,-0.12039,130.794,0.076797,
2,0,0,1,0,44538.7,0.0747036,0.0744005,-28.1732,23,0.01046,10,-0.0020961,-1.55016,-0.577446,-0.102174,112.239,0.0744005,
2,0,0,1,0,44538.7,0.0723065,0.0719923,-28.4324,23,0.0102902,10,-0.00204691,-1.54619,-0.639018,-0.0923292,102.361,0.0719923,
2,0,0,1,0,44538.7,0.0699011,0.0695936,-28.6796,23,0.0101189,10,-0.00199591,-1.54243,-0.733189,-0.0804704,89.9142,0.0695936,
2,0,0,1,0,44538.7,0.067504,0.0671589,-28.8633,23,0.00994621,10,-0.00193843,-1.53965,-0.887831,-0.0664541,74.7803,0.0671589,
2,0,0,1,0,44538.7,0.0651069,0.0647921,-29.0206,23,0.00977253,10,-0.0018803,-1.53729,-1.06586,-0.0553545,62.6632,0.0647921,
2,0,0,1,0,44538.7,0.0627098,0.06235,-29.1559,23,0.00959797,10,-0.00181787,-1.53527,-1.29867,-0.0454311,51.6609,0.06235,
2,0,0,1,0,44538.7,0.0603016,0.0600192,-29.2773,23,0.00942263,10,-0.0017572,-1.53347,-1.65754,-0.0355948,40.6253,0.0600192,
2,0,0,1,0,44538.7,0.0579045,0.0575591,-29.3562,23,0.00924673,10,-0.00168972,-1.5323,-2.28092,-0.0258667,29.6141,0.05755908,
2,0,0,1,0,44538.8,0.0555074,0.0552124,-29.411,23,0.00907043,10,-0.00162385,-1.53149,-2.70877,-0.0217811,24.997,0.0552124,
2,0,0,1,0,44538.8,0.0530992,0.0527841,-29.4761,23,0.00889377,10,-0.00155587,-1.53053,-4.09307,-0.0144146,16.5633,0.05278407,
2,0,0,1,0,44538.8,0.0507021,0.0503663,-29.4991,23,0.00871683,10,-0.00148576,-1.53019,-9.87412,-0.00597522,6.87434,0.0503663,
2,0,0,1,0,44538.8,0.048305,0.0480271,-29.4955,23,0.00853986,10,-0.00141658,-1.53024,-22.7917,-0.00258866,2.98096,0.0480271,
2,0,0,1,0,44538.8,0.0459051,0.0456072,-29.5106,23,0.00836285,10,-0.0013459,-1.53002,27.0626,0.00218013,-2.50888,0.0456072,
2,0,0,1,0,44538.8,0.0435024,0.0432065,-29.4937,23,0.0081858,10,-0.00127432,-1.53027,8.51682,0.00692747,-7.97014,0.0432065,
2,0,0,1,0,44538.8,0.0411053,0.0407294,-29.4669,23,0.00800893,10,-0.00120017,-1.53067,6.06791,0.00972328,-11.1817,0.0407294,
2,0,0,1,0,44538.8,0.0387082,0.0383689,-29.4369,23,0.00783223,10,-0.00112946,-1.53111,5.29734,0.0111377,-12.7942,0.0383689,
2,0,0,1,0,44538.8,0.0363,0.0359883,-29.4015,23,0.00765569,10,-0.00105811,-1.53163,3.71731,0.0158717,-18.2034,0.0359883,
2,0,0,1,0,44538.8,0.0339029,0.0335812,-29.3494,23,0.00747943,10,-0.000985586,-1.5324,2.95432,0.0199708,-22.8715,0.0335812,
2,0,0,1,0,44538.8,0.0315058,0.0311847,-29.2909,23,0.00730351,10,-0.000913426,-1.53327,3.04715,0.0193624,-22.1376,0.0311847,
2,0,0,1,0,44538.8,0.0291087,0.0287998,-29.2384,23,0.00712793,10,-0.000842061,-1.53405,2.49348,0.0236617,-26.9916,0.0287998,
2,0,0,1,0,44538.8,0.0267033,0.0263831,-29.1772,23,0.00695266,10,-0.000769785,-1.53496,2.17487,0.0271281,-30.8712,0.0263831,
2,0,0,1,0,44538.8,0.0243062,0.0239537,-29.0846,23,0.00677788,10,-0.000696686,-1.53634,1.93642,0.0304686,-34.5945,0.0239537,
2,0,0,1,0,44538.8,0.0219091,0.0215763,-29.0135,23,0.00660359,10,-0.000626004,-1.5374,1.87711,0.0314313,-35.5849,0.0215763,
2,0,0,1,0,44538.8,0.0195009,0.0191565,-28.936,23,0.00642975,10,-0.000554312,-1.53856,1.72258,0.034251,-38.6496,0.0191565,
2,0,0,1,0,44538.8,0.0171038,0.0167652,-28.8214,23,0.0062565,10,-0.000483198,-1.54028,1.54837,0.0381047,-42.8705,0.0167652,
2,0,0,1,0,44538.9,0.0147067,0.0144069,-28.7239,23,0.00608387,10,-0.000413823,-1.54176,1.5409,0.0382892,-42.9099,0.0144069,
2,0,0,1,0,44538.9,0.012304,0.0119998,-28.619,23,0.00591186,10,-0.000343421,-1.54335,1.31649,0.0448161,-50.0134,0.0119998,
2,0,0,1,0,44538.9,0.00990136,0.00955024,-28.4808,23,0.00574056,10,-0.000271998,-1.54545,1.2098,0.0487686,-54.1975,0.00955024,
2,0,0,1,0,44538.9,0.00750426,0.00717599,-28.3411,23,0.0055701,10,-0.000203375,-1.54758,1.09542,0.0538609,-59.5802,0.00717599,
2,0,0,1,0,44538.9,0.00510715,0.00477523,-28.1947,23,0.00540047,10,-0.000134636,-1.54983,1.17811,0.0500803,-55.148,0.00477523,
2,0,0,1,0,44538.9,0.00270173,0.00238508,-28.0503,23,0.00523171,10,-6.69022e-05,-1.55206,1.02262,0.0576952,-63.1651,0.00238508,
2,0,0,1,0,44538.9,0.000304623,-5.38594e-05,-27.9131,23,0.00506373,10,1.50339e-06,-1.55419,0.934316,0.0631478,-68.7259,-5.38594e-05,
2,0,0,1,0,44538.9,-0.00209248,-0.00249386,-27.7234,23,0.00489684,10,6.91381e-05,-1.55715,0.832209,0.0708957,-76.7154,-0.002493856,
2,0,0,1,0,44538.9,-0.00450068,-0.00487977,-27.5537,23,0.00473105,10,0.000134456,-1.55982,0.779475,0.0756919,-81.2954,-0.00487977,
2,0,0,1,0,44538.9,-0.00689779,-0.00730704,-27.3425,23,0.0045664,10,0.000199793,-1.56316,0.76348,0.0772777,-82.4382,-0.00730704,
2,0,0,1,0,44538.9,-0.00929489,-0.00967281,-27.1374,23,0.00440301,10,0.000262495,-1.56643,0.761162,0.077513,-82.1122,-0.00967281,
2,0,0,1,0,44538.9,-0.011692,-0.0120884,-26.9404,23,0.0042408,10,0.000325667,-1.5696,0.723103,0.0815928,-85.7593,-0.0120884,
2,0,0,1,0,44538.9,-0.0140974,-0.0144531,-26.7316,23,0.00407978,10,0.000386355,-1.57297,0.722188,0.0816961,-85.2357,-0.0144531,
2,0,0,1,0,44538.9,-0.0164945,-0.0168581,-26.5179,23,0.00392007,10,0.000447043,-1.57646,0.709978,0.0831012,-86.045,-0.0168581,
2,0,0,1,0,44538.9,-0.0188916,-0.0192398,-26.3204,23,0.00376155,10,0.0005064,-1.57971,0.741738,0.0795429,-81.7035,-0.0192398,
2,0,0,1,0,44538.9,-0.0212998,-0.0216936,-26.1268,23,0.00360422,10,0.000566785,-1.58291,0.72957,0.0808695,-82.4531,-0.0216936,
2,0,0,1,0,44538.9,-0.0236969,-0.024089,-25.9202,23,0.00344811,10,0.000624394,-1.58636,0.736098,0.0801523,-81.1156,-0.024089,
2,0,0,1,0,44539,-0.026094,-0.026493,-25.7498,23,0.00329312,10,0.00068219,-1.58923,0.792473,0.0744505,-74.8077,-0.026493,
2,0,0,1,0,44539,-0.0284912,-0.0288545,-25.561,23,0.00313925,10,0.000737549,-1.59242,0.812844,0.0725846,-72.4413,-0.0288545,
2,0,0,1,0,44539,-0.0308994,-0.0312892,-25.3939,23,0.0029864,10,0.000794556,-1.59527,0.886971,0.0665185,-65.9446,-0.0312892,
2,0,0,1,0,44539,-0.0332965,-0.0336974,-25.2333,23,0.00283454,10,0.000850296,-1.59803,0.922513,0.0639557,-63.0271,-0.0336974,
2,0,0,1,0,44539,-0.0356936,-0.0360663,-25.0814,23,0.0026836,10,0.000904594,-1.60065,0.999398,0.0590355,-57.8304,-0.0360663,
2,0,0,1,0,44539,-0.038099,-0.038466,-24.9599,23,0.00253346,10,0.000960107,-1.60276,1.05766,0.0557833,-54.3421,-0.038466,
2,0,0,1,0,44539,-0.0404961,-0.0408721,-24.8204,23,0.00238414,10,0.00101446,-1.60519,1.11426,0.0529501,-51.34,-0.0408721,
2,0,0,1,0,44539,-0.0428932,-0.0432464,-24.7126,23,0.00223553,10,0.00106873,-1.60708,1.31033,0.0450267,-43.4435,-0.0432464,
2,0,0,1,0,44539,-0.0452903,-0.0456524,-24.6163,23,0.00208754,10,0.00112379,-1.60878,1.44352,0.0408723,-39.2793,-0.0456524,
2,0,0,1,0,44539,-0.0476985,-0.0480479,-24.5237,23,0.00194013,10,0.00117831,-1.61041,1.66324,0.035473,-33.9751,-0.0480479,
2,0,0,1,0,44539,-0.0500956,-0.050508,-24.4555,23,0.00179321,10,0.0012352,-1.61162,1.81928,0.0324305,-30.9564,-0.050508,
2,0,0,1,0,44539,-0.0524927,-0.0528695,-24.3835,23,0.00164669,10,0.00128915,-1.6129,2.19048,0.0269348,-25.6462,-0.0528695,
2,0,0,1,0,44539,-0.0548981,-0.0552205,-24.3338,23,0.00150056,10,0.00134373,-1.61379,2.926,0.020164,-19.1624,-0.0552205,
2,0,0,1,0,44539,-0.0572953,-0.0576212,-24.2902,23,0.00135471,10,0.00139963,-1.61457,3.59594,0.0164074,-15.5586,-0.0576212,
2,0,0,1,0,44539,-0.0596924,-0.0600623,-24.2567,23,0.00120907,10,0.00145691,-1.61517,5.06291,0.0116534,-11.0353,-0.0600623,
2,0,0,1,0,44539,-0.062095,-0.0624662,-24.2323,23,0.00106362,10,0.0015137,-1.61561,7.75618,0.00760684,-7.19501,-0.06246623,
2,0,0,1,0,44539.1,-0.0644977,-0.0648606,-24.2168,23,0.000918254,10,0.00157072,-1.61588,19.053,0.00309662,-2.92754,-0.0648606,
2,0,0,1,0,44539.1,-0.0668948,-0.0672858,-24.2151,23,0.000772963,10,0.00162933,-1.61591,208.386,0.000283129,-0.267717,-0.0672858,
2,0,0,1,0,44539.1,-0.0692919,-0.0696484,-24.2162,23,0.000627652,10,0.00168662,-1.61589,-16.4715,-0.00358194,3.38667,-0.06964837,
2,0,0,1,0,44539.1,-0.0717001,-0.0721043,-24.2335,23,0.000482269,10,0.00174734,-1.61558,-6.55926,-0.00899492,8.51284,-0.0721043,
2,0,0,1,0,44539.1,-0.0740972,-0.0744775,-24.2623,23,0.0003368,10,0.00180699,-1.61507,-5.92127,-0.00996407,9.43788,-0.0744775,
2,0,0,1,0,44539.1,-0.0764943,-0.0768772,-24.2972,23,0.000191116,10,0.0018679,-1.61444,-3.84357,-0.0153503,14.5563,-0.0768772,
2,0,0,1,0,44539.1,-0.0788997,-0.0792567,-24.3268,23,4.52763e-05,10,0.00192806,-1.61391,-3.15905,-0.0186765,17.7437,-0.0792567,
2,0,0,1,0,44539.1,-0.0812968,-0.0816596,-24.3792,23,-0.000100842,10,0.00199079,-1.61298,-2.61008,-0.0226047,21.5076,-0.0816596,
2,0,0,1,0,44539.1,-0.0836939,-0.0840773,-24.4316,23,-0.0002473,10,0.00205415,-1.61205,-2.2768,-0.0259135,24.7123,-0.0840773,
2,0,0,1,0,44539.1,-0.086091,-0.0864569,-24.4849,23,-0.000394056,10,0.00211689,-1.6111,-2.01293,-0.0293105,28.0332,-0.08645688,
2,0,0,1,0,44539.1,-0.0884992,-0.0888672,-24.5724,23,-0.000541239,10,0.00218368,-1.60955,-1.75341,-0.0336488,32.2621,-0.08886718,
2,0,0,1,0,44539.1,-0.0908963,-0.0912298,-24.6463,23,-0.000688906,10,0.00224848,-1.60825,-1.72828,-0.0341379,32.8418,-0.0912298,
2,0,0,1,0,44539.1,-0.0932934,-0.093656,-24.731,23,-0.000837044,10,0.00231621,-1.60676,-1.58815,-0.0371502,35.8698,-0.093656,
2,0,0,1,0,44539.1,-0.0956989,-0.0960716,-24.8284,23,-0.000985697,10,0.0023853,-1.60505,-1.47024,-0.0401294,38.8853,-0.0960716,
2,0,0,1,0,44539.1,-0.098096,-0.0985073,-24.9272,23,-0.00113494,10,0.00245551,-1.60333,-1.61723,-0.0364822,35.4214,-0.0985073,
2,0,0,0,0,44539.1,-0.0999548,-0.100419,-24.9975,23,-0.00125227,10,0.00251023,-1.6021,0.0262155,2.25058,-2060.4,-0.100419,
2,0,0,1,1,44539.1,-0.0994555,-0.0998997,-23.6264,23,-0.00129329,10,0.00236027,-1.6266,-0.0259481,-2.27377,1919.14,-0.0998997,
2,0,0,1,1,44539.1,-0.0970583,-0.0974745,-19.6283,23,-0.00142186,10,0.00191326,-1.70712,-0.0315428,-1.87047,1459.81,-0.0974745,
2,0,0,1,1,44539.2,-0.0946501,-0.0950515,-16.6681,23,-0.00153021,10,0.00158433,-1.77811,-0.0340034,-1.73512,1140.27,-0.0950515,
2,0,0,1,1,44539.2,-0.092253,-0.0926942,-14.1846,23,-0.00162238,10,0.00131483,-1.84818,-0.0337724,-1.74699,970.273,-0.0926942,
2,0,0,1,1,44539.2,-0.0898559,-0.0902743,-12.0002,23,-0.0017006,10,0.00108331,-1.92081,-0.0313884,-1.87968,878.856,-0.0902743,
2,0,0,1,1,44539.2,-0.0874588,-0.0878831,-10.0288,23,-0.00176641,10,0.000881366,-1.99875,-0.0292719,-2.01559,785.238,-0.08788313,
2,0,0,1,1,44539.2,-0.0850534,-0.0854654,-8.24371,23,-0.00182096,10,0.000704552,-2.08388,-0.0264531,-2.23036,710.121,-0.0854654,
2,0,0,1,1,44539.2,-0.0826563,-0.0830784,-6.60448,23,-0.0018653,10,0.00054869,-2.18016,-0.0227201,-2.59682,656.982,-0.0830784,
2,0,0,1,1,44539.2,-0.0802592,-0.0806109,-5.08104,23,-0.00190014,10,0.000409587,-2.29405,-0.0186241,-3.16794,609.429,-0.0806109,
2,0,0,1,1,44539.2,-0.077851,-0.078244,-3.6676,23,-0.00192619,10,0.000286968,-2.43562,-0.0138821,-4.25007,570.487,-0.07824403,
2,0,0,1,1,44539.2,-0.0754539,-0.0758464,-2.35826,23,-0.0019441,10,0.000178866,-2.62741,-0.00849318,-6.94675,530.051,-0.0758464,
2,0,0,1,1,44539.2,-0.0730568,-0.0734987,-1.11641,23,-0.00195436,10,8.20546e-05,-2.95218,-0.00756322,-7.80091,500.149,-0.0734987,
2,0,0,1,1,44539.2,-0.0706597,-0.0710396,0.0188726,23,-0.00195748,10,-1.3407e-06,-4.72417,-0.352175,-0.16753,471.687,-0.0710396,
2,1,0,1,1,44539.2,-0.0682542,-0.068641,1.11539,23,-0.00195391,10,-7.65616e-05,-2.95257,0.00745521,7.91392,442.782,-0.068641,
2,1,0,1,1,44539.2,-0.0658571,-0.0662572,2.14594,23,-0.001944,10,-0.000142184,-2.66838,0.00980957,6.01453,413.532,-0.0662572,
2,1,0,1,1,44539.2,-0.06346,-0.0638851,3.10034,23,-0.00192815,10,-0.000198065,-2.50859,0.0170049,3.4696,390.249,-0.0638851,
2,1,0,1,1,44539.2,-0.0610518,-0.0614875,4.01676,23,-0.00190669,10,-0.00024698,-2.39612,0.0239667,2.46175,369.638,-0.0614875,
2,1,0,1,1,44539.2,-0.0586547,-0.0590846,4.87448,23,-0.00187993,10,-0.000288007,-2.31207,0.0310682,1.89905,351.974,-0.0590846,
2,1,0,1,1,44539.2,-0.0562576,-0.0566976,5.69775,23,-0.00184813,10,-0.000323049,-2.2443,0.0385332,1.53115,333.835,-0.0566976,
2,1,0,1,1,44539.3,-0.053855,-0.0542958,6.46972,23,-0.00181154,10,-0.000351279,-2.18911,0.0462299,1.27623,317.692,-0.0542958,
2,1,0,1,1,44539.3,-0.0514523,-0.0518484,7.19798,23,-0.00177043,10,-0.000373203,-2.14279,0.0550817,1.07114,298.027,-0.0518484,
2,1,0,1,1,44539.3,-0.0490552,-0.0494869,7.90581,23,-0.00172502,10,-0.000391234,-2.10205,0.0641018,0.920412,281.413,-0.0494869,
2,1,0,1,1,44539.3,-0.0466581,-0.047067,8.56053,23,-0.00167552,10,-0.000402919,-2.0675,0.0731285,0.806799,267.729,-0.047067,
2,1,0,1,1,44539.3,-0.0442527,-0.0446917,9.18603,23,-0.00162221,10,-0.000410539,-2.03687,0.0820709,0.718891,256.44,-0.0446917,
2,1,0,1,1,44539.3,-0.0418556,-0.0422591,9.78376,23,-0.00156523,10,-0.000413453,-2.00949,0.0935743,0.630515,239.301,-0.0422591,
2,1,0,1,1,44539.3,-0.0394585,-0.0398467,10.3454,23,-0.00150477,10,-0.00041223,-1.98525,0.10467,0.563677,226.525,-0.0398467,
2,1,0,1,1,44539.3,-0.0370558,-0.0374629,10.874,23,-0.00144109,10,-0.000407371,-1.96361,0.116598,0.506012,214.031,-0.0374629,
2,1,0,1,1,44539.3,-0.0346532,-0.0350738,11.3805,23,-0.00137428,10,-0.000399157,-1.94384,0.128261,0.459999,203.387,-0.0350738,
2,1,0,1,1,44539.3,-0.0322561,-0.0326296,11.8436,23,-0.00130452,10,-0.00038645,-1.92652,0.143336,0.41162,189.696,-0.0326296,
2,1,0,1,1,44539.3,-0.0298589,-0.0302755,12.2888,23,-0.00123206,10,-0.00037205,-1.91049,0.157253,0.375191,179.586,-0.0302755,
2,1,0,1,1,44539.3,-0.0274535,-0.0278492,12.7151,23,-0.00115699,10,-0.000354105,-1.89568,0.171009,0.345011,170.805,-0.0278492,
2,1,0,1,1,44539.3,-0.0250564,-0.025422,13.1153,23,-0.00107945,10,-0.000333418,-1.88222,0.188096,0.31367,160.205,-0.025422,
2,1,0,1,1,44539.3,-0.0226593,-0.0230414,13.4909,23,-0.000999579,10,-0.000310849,-1.86996,0.20622,0.286103,150.315,-0.0230414,
2,1,0,1,1,44539.3,-0.0202511,-0.0206024,13.849,23,-0.000917541,10,-0.000285323,-1.85858,0.223713,0.263731,142.254,-0.0206024,
2,1,0,1,1,44539.3,-0.017854,-0.0182717,14.1816,23,-0.00083343,10,-0.000259121,-1.84827,0.239884,0.245953,135.823,-0.0182717,
2,1,0,1,1,44539.4,-0.0154569,-0.0158518,14.4877,23,-0.000747373,10,-0.000229656,-1.839,0.266098,0.221723,125.205,-0.0158518,
2,1,0,1,1,44539.4,-0.0130598,-0.0134298,14.7737,23,-0.000659536,10,-0.000198409,-1.83051,0.283645,0.208007,119.932,-0.0134298,
2,1,0,1,1,44539.4,-0.0106516,-0.011027,15.0779,23,-0.000569953,10,-0.000166263,-1.82166,0.30373,0.194252,114.086,-0.011027,
2,1,0,1,1,44539.4,-0.00825448,-0.00862725,15.3366,23,-0.000478684,10,-0.000132313,-1.81427,0.335972,0.17561,104.921,-0.00862725,
2,1,0,1,1,44539.4,-0.00585738,-0.00622119,15.5768,23,-0.000385931,10,-9.69065e-05,-1.80752,0.362152,0.162915,98.9823,-0.00622119,
2,1,0,1,1,44539.4,-0.00345195,-0.00378013,15.8065,23,-0.000291768,10,-5.97504e-05,-1.80117,0.389689,0.151403,93.2583,-0.00378013,
2,1,0,1,1,44539.4,-0.00105485,-0.00146208,16.0257,23,-0.000196214,10,-2.34308e-05,-1.79518, , , ,-0.00146208,
2,1,0,0,1,44539.4,-7.54729e-05,-0.000439847,16.1092,23,-0.000156055,10,-7.08561e-06,-1.79292, , , ,-0.000439847,