File: Figure_codes/Fig_3-5/rawdata_trumpetplot_data/after 10th/20221101_1-115_003_TrumpetPlot_ParaChange_from10_every3_10_CV_C01_15.csv
mode,ox/red,error,control changes,counter inc.,time/s,control/V,Ewe/V,<I>/mA,cycle number,(Q-Qo)/C,I Range,P/W,log(|I|),Tafel slope mV/dec,alpha_eff,dI/d(E-IR),E-IR/V,
2,1,0,0,0,30742.5,-2.44065e-05,-0.000172625,5.18539,16,0.0000000E+000,10,-8.95129e-07,-2.28522, , , ,-0.000172625,
2,1,0,1,0,30742.5,0.00179726,0.00137504,5.96339,16,4.96074e-05,10,8.19989e-06,-2.22451, , , ,0.00137504,
2,1,0,1,0,30742.5,0.00379485,0.00346112,6.57428,16,0.000112604,10,2.27544e-05,-2.18215,0.0575019,1.02605,259.405,0.00346112,
2,1,0,1,0,30742.5,0.00579244,0.00545416,7.02154,16,0.000180759,10,3.82966e-05,-2.15357,0.0773434,0.762832,207.774,0.00545416,
2,1,0,1,0,30742.5,0.00779002,0.00743606,7.40016,16,0.000252957,10,5.5028e-05,-2.13076,0.0952577,0.619373,178.254,0.00743606,
2,1,0,1,0,30742.5,0.00977853,0.00947775,7.73876,16,0.000328041,10,7.3346e-05,-2.11133,0.115246,0.511947,153.945,0.00947775,
2,1,0,1,0,30742.5,0.0117761,0.0114507,8.01819,16,0.000406882,10,9.18138e-05,-2.09592,0.136629,0.431828,134.854,0.0114507,
2,1,0,1,0,30742.5,0.0137737,0.0134228,8.27076,16,0.00048839,10,0.000111016,-2.08245,0.160427,0.367769,118.462,0.01342275,
2,1,0,1,0,30742.6,0.0157713,0.0154625,8.49344,16,0.000572239,10,0.00013133,-2.07092,0.178679,0.330201,109.396,0.0154625,
2,1,0,1,0,30742.6,0.017778,0.0174484,8.71115,16,0.000658342,10,0.000151996,-2.05992,0.209582,0.281513,95.4061,0.0174484,
2,1,0,1,0,30742.6,0.0197755,0.0194847,8.87718,16,0.000746297,10,0.000172969,-2.05172,0.233941,0.2522,87.4526,0.01948471,
2,1,0,1,0,30742.6,0.0217731,0.0214533,9.06139,16,0.000836074,10,0.000194397,-2.04281,0.249424,0.236545,83.4827,0.0214533,
2,1,0,1,0,30742.6,0.0237707,0.0234852,9.21116,16,0.000927443,10,0.000216326,-2.03569,0.271423,0.217373,78.1885,0.02348524,
2,1,0,1,0,30742.6,0.0257774,0.0254478,9.37371,16,0.0010204,10,0.00023854,-2.02809,0.288143,0.204759,74.7743,0.0254478,
2,1,0,1,0,30742.6,0.027775,0.0274112,9.50472,16,0.00111479,10,0.000260535,-2.02206,0.314819,0.187409,69.5709,0.0274112,
2,1,0,1,0,30742.6,0.0297726,0.0294439,9.65173,16,0.00121063,10,0.000284185,-2.0154,0.331737,0.177852,66.8973,0.0294439,
2,1,0,1,0,30742.6,0.0317701,0.0314143,9.77251,16,0.00130775,10,0.000306997,-2.00999,0.338567,0.174264,66.5392,0.0314143,
2,1,0,1,0,30742.6,0.0337586,0.0334314,9.91705,16,0.00140527,10,0.000331541,-2.00362,0.337301,0.174918,67.6225,0.0334314,
2,1,0,1,0,30742.7,0.0357562,0.0353767,10.0405,16,0.00150506,10,0.000355199,-1.99825,0.365572,0.161391,63.2492,0.0353767,
2,1,0,1,0,30742.7,0.0377538,0.0373928,10.1676,16,0.00160617,10,0.000380195,-1.99278,0.375998,0.156916,62.2536,0.0373928,
2,1,0,1,0,30742.7,0.0397514,0.0394145,10.2918,16,0.00170847,10,0.000405647,-1.98751,0.350019,0.168562,67.7791,0.0394145,
2,1,0,1,0,30742.7,0.0417399,0.0414117,10.44,16,0.00181111,10,0.000432338,-1.9813,0.366025,0.161191,65.5646,0.0414117,
2,1,0,1,0,30742.7,0.0437375,0.0434115,10.5539,16,0.00191607,10,0.000458161,-1.97659,0.393506,0.149934,61.8106,0.0434115,
2,1,0,1,0,30742.7,0.0457351,0.0454157,10.6875,16,0.00202229,10,0.00048538,-1.97112,0.383755,0.153744,64.09,0.0454157,
2,1,0,1,0,30742.7,0.0477327,0.0474069,10.81,16,0.00212979,10,0.000512466,-1.96618,0.36966,0.159606,67.4054,0.0474069,
2,1,0,1,0,30742.7,0.0497393,0.0494041,10.9563,16,0.00223861,10,0.000541287,-1.96033,0.380328,0.155129,66.2346,0.0494041,
2,1,0,1,0,30742.7,0.0517369,0.0513571,11.0716,16,0.00234872,10,0.000568605,-1.95579,0.395395,0.149218,64.5559,0.0513571,
2,1,0,1,0,30742.7,0.0537345,0.0534185,11.2155,16,0.00246022,10,0.000599114,-1.95018,0.389905,0.151319,66.1671,0.0534185,
2,1,0,1,0,30742.8,0.0557321,0.0553845,11.3381,16,0.00257299,10,0.000627954,-1.94546,0.395402,0.149215,66.0717,0.0553845,
2,1,0,1,0,30742.8,0.0577297,0.0573808,11.4773,16,0.0026871,10,0.000658576,-1.94016,0.384241,0.153549,68.7672,0.0573808,
2,1,0,1,0,30742.8,0.0597364,0.0593954,11.6139,16,0.00280262,10,0.000689813,-1.93502,0.373157,0.15811,71.7042,0.0593954,
2,1,0,1,0,30742.8,0.0617339,0.0613892,11.7647,16,0.00291958,10,0.000722225,-1.92942,0.399021,0.147862,67.7994,0.0613892,
2,1,0,1,0,30742.8,0.0637315,0.0634003,11.8854,16,0.00303782,10,0.000753539,-1.92499,0.398042,0.148226,68.8543,0.0634003,
2,1,0,1,0,30742.8,0.0657291,0.0654123,12.0417,16,0.00315752,10,0.000787675,-1.91931,0.374824,0.157407,73.9187,0.0654123,
2,1,0,1,0,30742.8,0.0677176,0.0674036,12.1813,16,0.00327745,10,0.000821067,-1.9143,0.404427,0.145885,69.3452,0.0674036,
2,1,0,1,0,30742.8,0.0697152,0.069411,12.319,16,0.00339999,10,0.000855073,-1.90942,0.424024,0.139143,66.8725,0.069411,
2,1,0,1,0,30742.8,0.0717128,0.0714048,12.4489,16,0.00352381,10,0.000888913,-1.90487,0.421657,0.139924,68.0155,0.0714048,
2,1,0,1,0,30742.8,0.0737104,0.0734313,12.5924,16,0.00364906,10,0.000924678,-1.89989,0.420313,0.140372,68.9404,0.0734313,
2,1,0,1,0,30742.9,0.0756989,0.0753481,12.7208,16,0.0037744,10,0.000958486,-1.89549,0.429107,0.137495,68.2812,0.0753481,
2,1,0,1,0,30742.9,0.0776965,0.0773219,12.8581,16,0.0039023,10,0.000994212,-1.89082,0.4386,0.134519,67.4909,0.0773219,
2,1,0,1,0,30742.9,0.0796941,0.0793625,12.9917,16,0.00403156,10,0.00103105,-1.88633,0.431185,0.136832,69.4109,0.0793625,
2,1,0,1,0,30742.9,0.0816916,0.0813667,13.1388,16,0.00416227,10,0.00106906,-1.88144,0.436144,0.135277,69.3173,0.0813667,
2,1,0,1,0,30742.9,0.0836983,0.0833587,13.2687,16,0.00429431,10,0.00110606,-1.87717,0.460503,0.128121,66.3594,0.08335869,
2,1,0,1,0,30742.9,0.0856959,0.0853776,13.405,16,0.00442772,10,0.00114449,-1.87273,0.486282,0.121329,63.4286,0.0853776,
2,1,0,1,0,30742.9,0.0876935,0.0873679,13.523,16,0.00456237,10,0.00118148,-1.86893,0.506836,0.116409,61.4562,0.0873679,
2,1,0,1,0,30742.9,0.0896911,0.0893755,13.6507,16,0.00469829,10,0.00122004,-1.86484,0.496785,0.118764,63.2614,0.0893755,
2,1,0,1,0,30742.9,0.0916978,0.0913545,13.7752,16,0.00483542,10,0.00125843,-1.8609,0.497916,0.118494,63.7146,0.0913545,
2,1,0,1,0,30742.9,0.0936953,0.0933769,13.9057,16,0.00497387,10,0.00129847,-1.85681,0.558497,0.105641,57.2604,0.0933769,
2,1,0,1,0,30743,0.0956929,0.0953273,14.0027,16,0.00511343,10,0.00133484,-1.85379,0.538398,0.109584,59.9825,0.0953273,
2,1,0,1,0,30743,0.0976905,0.0973783,14.1457,16,0.00525419,10,0.00137748,-1.84938,0.503413,0.1172,64.6391,0.0973783,
2,1,0,1,0,30743,0.099679,0.0993407,14.2621,16,0.00539471,10,0.00141681,-1.84582,0.56121,0.10513,58.5078,0.0993407,
2,1,0,1,0,30743,0.101677,0.101301,14.3752,16,0.00553793,10,0.00145622,-1.84239,0.567631,0.103941,58.3225,0.101301,
2,1,0,1,0,30743,0.103674,0.103312,14.4937,16,0.00568227,10,0.00149737,-1.83882,0.515214,0.114516,64.8344,0.103312,
2,1,0,1,0,30743,0.105672,0.105379,14.6396,16,0.00582796,10,0.00154271,-1.83447,0.502576,0.117395,67.025,0.105379,
2,1,0,1,0,30743,0.107656,0.10737,14.7657,16,0.00597347,10,0.00158539,-1.83075,0.481596,0.122509,70.6582,0.10737,
2,1,0,1,0,30743,0.109658,0.109323,14.9182,16,0.00612191,10,0.0016309,-1.82628,0.464889,0.126912,73.8556,0.109323,
2,1,0,1,0,30743,0.111655,0.111327,15.058,16,0.00627179,10,0.00167635,-1.82223,0.445738,0.132365,77.8734,0.111327,
2,1,0,1,0,30743,0.113653,0.11336,15.2326,16,0.00642326,10,0.00172676,-1.81723,0.430292,0.137116,81.446,0.11336,
2,1,0,1,0,30743.1,0.115651,0.115322,15.3834,16,0.0065763,10,0.00177404,-1.81295,0.401119,0.147089,88.4455,0.115322,
2,1,0,1,0,30743.1,0.117657,0.117331,15.5838,16,0.00673123,10,0.00182846,-1.80733,0.382652,0.154187,93.691,0.117331,
2,1,0,1,0,30743.1,0.119655,0.119321,15.758,16,0.00688797,10,0.00188026,-1.8025,0.379319,0.155542,95.7479,0.119321,
2,1,0,1,0,30743.1,0.121652,0.121302,15.964,16,0.0070466,10,0.00193646,-1.79686,0.381325,0.154724,96.3241,0.121302,
2,1,0,1,0,30743.1,0.12365,0.123365,16.1475,16,0.00720714,10,0.00199204,-1.79189,0.35973,0.164012,103.497,0.123365,
2,1,0,1,0,30743.1,0.125657,0.125285,16.3763,16,0.00736987,10,0.0020517,-1.78578,0.356291,0.165595,105.701,0.125285,
2,1,0,1,0,30743.1,0.127654,0.12732,16.5656,16,0.00753458,10,0.00210914,-1.78079,0.377438,0.156317,101.134,0.12732,
2,1,0,1,0,30743.1,0.129652,0.129286,16.7809,16,0.00770139,10,0.00216955,-1.77518,0.375416,0.157159,102.868,0.129286,
2,1,0,1,0,30743.1,0.131649,0.131345,16.9797,16,0.00787026,10,0.00223019,-1.77007,0.375778,0.157008,104.096,0.131345,
2,1,0,1,0,30743.1,0.133638,0.133287,17.1975,16,0.00803958,10,0.00229221,-1.76454,0.378079,0.156052,104.658,0.133287,
2,1,0,1,0,30743.2,0.135636,0.135278,17.3913,16,0.00821251,10,0.00235266,-1.75967,0.406252,0.14523,98.59,0.135278,
2,1,0,1,0,30743.2,0.137633,0.137301,17.5931,16,0.00838745,10,0.00241555,-1.75466,0.442752,0.133257,91.3933,0.1373006,
2,1,0,1,0,30743.2,0.139631,0.139281,17.7571,16,0.00856421,10,0.00247323,-1.75063,0.458851,0.128582,89.1784,0.1392809,
2,1,0,1,0,30743.2,0.141619,0.141307,17.9504,16,0.00874098,10,0.00253651,-1.74593,0.464946,0.126896,88.8144,0.141307,
2,1,0,1,0,30743.2,0.143617,0.143271,18.1115,16,0.00892131,10,0.00259486,-1.74205,0.51037,0.115602,81.7177,0.143271,
2,1,0,1,0,30743.2,0.145614,0.145294,18.2762,16,0.00910331,10,0.00265541,-1.73811,0.582604,0.10127,72.1485,0.145294,
2,1,0,1,0,30743.2,0.147612,0.147263,18.3995,16,0.0092867,10,0.00270957,-1.73519,0.60074,0.0982122,70.5899,0.147263,
2,1,0,1,0,30743.2,0.149619,0.149287,18.5581,16,0.00947154,10,0.00277048,-1.73147,0.652497,0.0904219,65.3882,0.149287,
2,1,0,1,0,30743.2,0.151616,0.151246,18.66,16,0.00965766,10,0.00282225,-1.72909,0.836702,0.070515,51.3529,0.151246,
2,1,0,1,0,30743.2,0.153614,0.153277,18.763,16,0.00984484,10,0.00287594,-1.7267,1.05057,0.0561599,41.0796,0.153277,
2,1,0,1,0,30743.3,0.155611,0.15529,18.8261,16,0.0100328,10,0.0029235,-1.72524,1.31513,0.0448625,32.9673,0.1552901,
2,1,0,1,0,30743.3,0.157618,0.157309,18.8959,16,0.0102215,10,0.0029725,-1.72363,2.9352,0.0201009,14.7918,0.157309,
2,1,0,1,0,30743.3,0.159616,0.159289,18.8852,16,0.0104104,10,0.00300821,-1.72388,-6.14885,-0.0095953,-7.07076,0.1592889,
2,1,0,1,0,30743.3,0.161613,0.16129,18.8678,16,0.0105992,10,0.00304317,-1.72428,-1.60888,-0.0366715,-26.9508,0.16129,
2,1,0,1,0,30743.3,0.163611,0.163287,18.7775,16,0.0107874,10,0.00306612,-1.72636,-0.825061,-0.0715099,-52.3628,0.163287,
2,1,0,1,0,30743.3,0.165618,0.165299,18.6578,16,0.0109747,10,0.00308412,-1.72914,-0.558828,-0.105578,-76.739,0.165299,
2,1,0,1,0,30743.3,0.167597,0.167269,18.4719,16,0.0111585,10,0.00308978,-1.73349,-0.40881,-0.144321,-103.922,0.167269,
2,1,0,1,0,30743.3,0.169595,0.169271,18.245,16,0.0113421,10,0.00308835,-1.73886,-0.313475,-0.188213,-133.7,0.169271,
2,1,0,1,0,30743.3,0.171592,0.171287,17.9347,16,0.011523,10,0.00307198,-1.74631,-0.250562,-0.235471,-164.667,0.171287,
2,1,0,1,0,30743.3,0.173572,0.173211,17.5962,16,0.0116989,10,0.00304786,-1.75458,-0.21334,-0.276554,-189.51,0.173211,
2,1,0,1,0,30743.4,0.175578,0.175229,17.1878,16,0.0118728,10,0.00301178,-1.76478,-0.191823,-0.307576,-206.167,0.175229,
2,1,0,1,0,30743.4,0.177576,0.177262,16.761,16,0.0120425,10,0.0029711,-1.7757,-0.168968,-0.349179,-227.916,0.177262,
2,1,0,1,0,30743.4,0.179573,0.179253,16.2704,16,0.0122076,10,0.00291653,-1.7886,-0.153948,-0.383246,-243.42,0.179253,
2,1,0,1,0,30743.4,0.181571,0.181219,15.798,16,0.0123679,10,0.00286289,-1.8014,-0.148728,-0.396697,-244.248,0.1812185,
2,1,0,1,0,30743.4,0.183578,0.183257,15.2925,16,0.0125233,10,0.00280246,-1.81552,-0.141166,-0.417949,-249.438,0.183257,
2,1,0,1,0,30743.4,0.185575,0.185229,14.7977,16,0.0126737,10,0.00274096,-1.8298,-0.136471,-0.432326,-249.56,0.185229,
2,1,0,1,0,30743.4,0.187573,0.187231,14.3008,16,0.0128191,10,0.00267755,-1.84464,-0.138546,-0.425852,-237.895,0.187231,
2,1,0,1,0,30743.4,0.18957,0.18925,13.8411,16,0.0129597,10,0.00261942,-1.85883,-0.138309,-0.42658,-230.319,0.18925,
2,1,0,1,0,30743.4,0.191577,0.191235,13.3786,16,0.0130958,10,0.00255846,-1.87359,-0.142418,-0.414274,-216.73,0.191235,
2,1,0,1,0,30743.4,0.193575,0.193231,12.9782,16,0.0132276,10,0.00250779,-1.88679,-0.148256,-0.39796,-201.44,0.193231,
2,1,0,1,0,30743.5,0.195572,0.195249,12.5699,16,0.0133553,10,0.00245427,-1.90067,-0.151945,-0.388298,-190.865,0.195249,
2,1,0,1,0,30743.5,0.19757,0.197207,12.2194,16,0.0134792,10,0.00240975,-1.91295,-0.163241,-0.361429,-172.401,0.197207,
2,1,0,1,0,30743.5,0.199558,0.199244,11.8812,16,0.0135984,10,0.00236726,-1.92514,-0.17217,-0.342684,-159.097,0.1992445,
2,1,0,1,0,30743.5,0.201556,0.201234,11.5786,16,0.0137157,10,0.00233002,-1.93634,-0.17764,-0.332132,-150.093,0.201234,
2,1,0,1,0,30743.5,0.203553,0.203231,11.2828,16,0.0138299,10,0.00229301,-1.94758,-0.188261,-0.313395,-138.205,0.203231,
2,1,0,1,0,30743.5,0.205551,0.205237,11.0254,16,0.0139413,10,0.00226283,-1.9576,-0.206779,-0.285329,-122.891,0.205237,
2,1,0,1,0,30743.5,0.20754,0.207219,10.7928,16,0.0140493,10,0.00223646,-1.96687,-0.21933,-0.269001,-113.356,0.207219,
2,1,0,1,0,30743.5,0.209537,0.209228,10.573,16,0.0141561,10,0.00221217,-1.9758,-0.220172,-0.267973,-110.552,0.209228,
2,1,0,1,0,30743.5,0.211535,0.211205,10.3521,16,0.0142606,10,0.00218641,-1.98497,-0.237603,-0.248314,-100.532,0.211205,
2,1,0,1,0,30743.5,0.213532,0.213165,10.1773,16,0.0143632,10,0.00216943,-1.99237,-0.261788,-0.225373,-89.4686,0.213165,
2,1,0,1,0,30743.6,0.215539,0.215209,9.99388,16,0.014464,10,0.00215077,-2.00027,-0.273599,-0.215644,-84.1997,0.215209,
2,1,0,1,0,30743.6,0.217537,0.217237,9.83437,16,0.0145631,10,0.00213639,-2.00725,-0.283205,-0.208329,-79.9497,0.217237,
2,1,0,1,0,30743.6,0.219534,0.219202,9.67459,16,0.0146607,10,0.00212069,-2.01437,-0.313014,-0.18849,-71.2885,0.219202,
2,1,0,1,0,30743.6,0.221532,0.22124,9.54899,16,0.0147568,10,0.00211262,-2.02004,-0.341206,-0.172916,-64.4135,0.22124,
2,1,0,1,0,30743.6,0.223534,0.223206,9.41668,16,0.0148515,10,0.00210186,-2.0261,-0.350743,-0.168214,-61.8708,0.223206,
2,1,0,1,0,30743.6,0.225536,0.225247,9.3011,16,0.0149451,10,0.00209504,-2.03147,-0.367485,-0.160551,-58.2638,0.225247,
2,1,0,1,0,30743.6,0.227534,0.227239,9.18173,16,0.0150375,10,0.00208645,-2.03708,-0.375535,-0.157109,-56.341,0.227239,
2,1,0,1,0,30743.6,0.229531,0.229217,9.07742,16,0.0151288,10,0.0020807,-2.04204,-0.402465,-0.146597,-51.9353,0.229217,
2,1,0,1,0,30743.6,0.231529,0.23123,8.97445,16,0.0152191,10,0.00207516,-2.04699,-0.467417,-0.126226,-44.2837,0.23123,
2,1,0,1,0,30743.6,0.233517,0.233178,8.90202,16,0.0153076,10,0.00207575,-2.05051,-0.462911,-0.127454,-44.2034,0.2331778,
2,1,0,1,0,30743.7,0.235515,0.23519,8.79941,16,0.0153961,10,0.00206953,-2.05555,-0.468617,-0.125902,-43.3124,0.23519,
2,1,0,1,0,30743.7,0.237513,0.23719,8.72824,16,0.0154837,10,0.00207025,-2.05907,-0.51207,-0.115219,-39.2144,0.23719,
2,1,0,1,0,30743.7,0.23951,0.239184,8.64278,16,0.0155705,10,0.00206721,-2.06335,-0.576929,-0.102266,-34.5593,0.239184,
2,1,0,1,0,30743.7,0.241499,0.241181,8.5903,16,0.0156558,10,0.00207182,-2.06599,-0.591811,-0.099694,-33.3659,0.2411813,
2,1,0,1,0,30743.7,0.243496,0.243194,8.50898,16,0.0157413,10,0.00206933,-2.07012,-0.574775,-0.102649,-34.1391,0.243194,
2,1,0,1,0,30743.7,0.245494,0.245181,8.45376,16,0.015826,10,0.0020727,-2.07295,-0.626663,-0.0941495,-31.0389,0.245181,
2,1,0,1,0,30743.7,0.247491,0.24715,8.38618,16,0.0159102,10,0.00207265,-2.07644,-0.633988,-0.0930617,-30.4824,0.24715,
2,1,0,1,0,30743.7,0.249498,0.249162,8.33242,16,0.0159938,10,0.00207612,-2.07923,-0.661056,-0.0892512,-29.0054,0.249162,
2,1,0,1,0,30743.7,0.251496,0.251206,8.26856,16,0.0160768,10,0.00207711,-2.08257,-0.749321,-0.0787379,-25.4476,0.251206,
2,1,0,1,0,30743.7,0.253493,0.253171,8.2304,16,0.0161593,10,0.0020837,-2.08458,-0.725459,-0.0813278,-26.0787,0.253171,
2,1,0,1,0,30743.8,0.255491,0.255195,8.16452,16,0.0162413,10,0.00208354,-2.08807,-0.793438,-0.0743599,-23.7471,0.255195,
2,1,0,1,0,30743.8,0.257497,0.257161,8.13564,16,0.0163228,10,0.00209217,-2.08961,-0.895065,-0.065917,-20.8959,0.257161,
2,1,0,1,0,30743.8,0.259495,0.259192,8.081,16,0.0164039,10,0.00209453,-2.09253,-0.764305,-0.0771943,-24.3632,0.259192,
2,1,0,1,0,30743.8,0.261493,0.261149,8.03847,16,0.0164845,10,0.00209924,-2.09483,-0.847918,-0.0695822,-21.8267,0.261149,
2,1,0,1,0,30743.8,0.26349,0.263163,7.99433,16,0.0165646,10,0.00210381,-2.09722,-1.13441,-0.0520093,-16.25,0.263163,
2,1,0,1,0,30743.8,0.265479,0.265155,7.97339,16,0.0166436,10,0.00211418,-2.09836,-1.02909,-0.0573319,-17.8079,0.2651546,
2,1,0,1,0,30743.8,0.267476,0.267139,7.92353,16,0.0167231,10,0.00211668,-2.10108,-0.885694,-0.0666145,-20.6213,0.267139,
2,1,0,1,0,30743.8,0.269474,0.26916,7.8908,16,0.0168022,10,0.00212388,-2.10288,-0.998683,-0.0590778,-18.1849,0.26916,
2,1,0,1,0,30743.8,0.271471,0.27113,7.85095,16,0.0168808,10,0.00212863,-2.10508,-1.23033,-0.0479548,-14.713,0.27113,
2,1,0,1,0,30743.8,0.27346,0.27314,7.83224,16,0.0169584,10,0.00213929,-2.10611,-1.1048,-0.0534035,-16.2943,0.27314,
2,1,0,1,0,30743.9,0.275458,0.275153,7.78539,16,0.0170364,10,0.00214218,-2.10872,-0.976125,-0.0604431,-18.3877,0.275153,
2,1,0,1,0,30743.9,0.277455,0.277183,7.75788,16,0.0171141,10,0.00215036,-2.11026,-1.0188,-0.0579115,-17.5164,0.277183,
2,1,0,1,0,30743.9,0.279453,0.279158,7.71524,16,0.0171915,10,0.00215377,-2.11265,-1.07157,-0.0550591,-16.5991,0.279158,
2,1,0,1,0,30743.9,0.281455,0.281154,7.69198,16,0.0172685,10,0.00216263,-2.11396,-1.34257,-0.0439455,-13.1871,0.281154,
2,1,0,1,0,30743.9,0.283457,0.283132,7.66284,16,0.0173452,10,0.00216959,-2.11561,-1.26223,-0.0467427,-13.981,0.283132,
2,1,0,1,0,30743.9,0.285455,0.285139,7.63626,16,0.0174217,10,0.0021774,-2.11712,-1.04756,-0.0563216,-16.7697,0.285139,
2,1,0,1,0,30743.9,0.287452,0.287123,7.59591,16,0.0174979,10,0.00218096,-2.11942,-1.11338,-0.0529919,-15.7271,0.287123,
2,1,0,1,0,30743.9,0.28945,0.289163,7.57297,16,0.0175737,10,0.00218983,-2.12073,-1.5399,-0.0383142,-11.3241,0.289163,
2,1,0,1,0,30743.9,0.291456,0.291126,7.55058,16,0.0176493,10,0.00219817,-2.12202,-1.22009,-0.0483572,-14.2378,0.291126,
2,1,0,1,0,30743.9,0.293454,0.293184,7.51573,16,0.0177247,10,0.00220349,-2.12403,-1.0641,-0.0554461,-16.268,0.293184,
2,1,0,1,0,30744,0.295452,0.295134,7.48537,16,0.0177996,10,0.00220919,-2.12579,-1.34015,-0.0440248,-12.8692,0.295134,
2,1,0,1,0,30744,0.297449,0.297152,7.46466,16,0.0178744,10,0.00221814,-2.12699,-1.49291,-0.0395201,-11.5097,0.297152,
2,1,0,1,0,30744,0.299438,0.299113,7.43958,16,0.0179482,10,0.00222527,-2.12845,-0.065086,-0.906492,-253.611,0.2991125,
2,1,0,1,0,30744,0.299746,0.299455,6.88068,16,0.0179795,10,0.00206045,-2.16237,0.00701077,8.41562,1887.93,0.2994549,
2,1,0,1,0,30744,0.29774,0.297468,4.33502,16,0.018034,10,0.00128953,-2.36301,0.00997646,5.91392,1038.2,0.297468,
2,1,0,1,0,30744,0.295742,0.295468,2.74173,16,0.0180687,10,0.000810095,-2.56198,0.00908947,6.49103,687.831,0.295468,
2,1,0,1,0,30744,0.293745,0.293434,1.56006,16,0.0180898,10,0.000457773,-2.80686,0.00660705,8.92986,513.127,0.2934337,
2,1,0,1,0,30744,0.291747,0.291436,0.67246,16,0.0181007,10,0.000195979,-3.17233,0.00259282,22.7552,403.348,0.291436,
2,1,0,1,0,30744,0.289745,0.289453,-0.0454903,16,0.0181036,10,-1.31673e-05,-4.34208,0.0934042,0.631663,316.948,0.289453,
2,0,0,1,0,30744,0.287743,0.287393,-0.608682,16,0.0181001,10,-0.000174931,-3.21561,-0.00294442,-20.0379,254.665,0.287393,
2,0,0,1,0,30744,0.285745,0.285408,-1.07556,16,0.0180916,10,-0.000306973,-2.96837,-0.0104039,-5.67096,215.443,0.285408,
2,0,0,1,0,30744.1,0.283748,0.283437,-1.46104,16,0.0180788,10,-0.000414112,-2.83534,-0.0178323,-3.3086,181.418,0.283437,
2,0,0,1,0,30744.1,0.28175,0.281439,-1.79566,16,0.0180625,10,-0.000505369,-2.74578,-0.026101,-2.26045,154.265,0.281439,
2,0,0,1,0,30744.1,0.279761,0.279478,-2.0718,16,0.0180432,10,-0.000579021,-2.68365,-0.0355303,-1.66056,132.7,0.279478,
2,0,0,1,0,30744.1,0.277764,0.277472,-2.32215,16,0.0180212,10,-0.000644331,-2.63411,-0.0455701,-1.29471,116.085,0.277472,
2,0,0,1,0,30744.1,0.275766,0.275455,-2.53885,16,0.0179968,10,-0.000699339,-2.59536,-0.0575455,-1.02528,100.762,0.275455,
2,0,0,1,0,30744.1,0.273769,0.273473,-2.725,16,0.0179705,10,-0.000745215,-2.56463,-0.0686756,-0.859112,91.0823,0.2734735,
2,0,0,1,0,30744.1,0.27178,0.271463,-2.90239,16,0.0179425,10,-0.000787892,-2.53724,-0.0789238,-0.747557,84.3756,0.271463,
2,0,0,1,0,30744.1,0.269783,0.269434,-3.06583,16,0.0179127,10,-0.00082604,-2.51345,-0.0940743,-0.627164,74.6419,0.269434,
2,0,0,1,0,30744.1,0.267785,0.267454,-3.20164,16,0.0178813,10,-0.000856292,-2.49463,-0.110371,-0.53456,66.6804,0.267454,
2,0,0,1,0,30744.1,0.265787,0.265468,-3.33028,16,0.0178486,10,-0.000884083,-2.47752,-0.117126,-0.503731,65.466,0.265468,
2,0,0,1,0,30744.2,0.263781,0.263479,-3.46189,16,0.0178146,10,-0.000912135,-2.46069,-0.131912,-0.447269,60.2423,0.263479,
2,0,0,1,0,30744.2,0.261783,0.261406,-3.57499,16,0.0177794,10,-0.000934524,-2.44673,-0.157394,-0.374856,52.1593,0.261406,
2,0,0,1,0,30744.2,0.259786,0.259472,-3.67087,16,0.0177432,10,-0.000952489,-2.43523,-0.163303,-0.361293,51.8383,0.259472,
2,0,0,1,0,30744.2,0.257788,0.257455,-3.77981,16,0.0177059,10,-0.00097313,-2.42253,-0.174097,-0.338891,49.8638,0.257455,
2,0,0,1,0,30744.2,0.255781,0.255453,-3.87127,16,0.0176676,10,-0.000988928,-2.41215,-0.202475,-0.291394,43.9927,0.255453,
2,0,0,1,0,30744.2,0.253784,0.253394,-3.95847,16,0.0176284,10,-0.00100305,-2.40247,-0.212294,-0.277916,42.9162,0.253394,
2,0,0,1,0,30744.2,0.251786,0.251438,-4.04359,16,0.0175884,10,-0.00101671,-2.39323,-0.219699,-0.268549,42.3629,0.251438,
2,0,0,1,0,30744.2,0.249789,0.249422,-4.12673,16,0.0175475,10,-0.0010293,-2.38439,-0.233927,-0.252215,40.5933,0.249422,
2,0,0,1,0,30744.2,0.2478,0.247449,-4.2055,16,0.0175062,10,-0.00104065,-2.37618,-0.249285,-0.236677,38.8146,0.2474495,
2,0,0,1,0,30744.2,0.245802,0.245511,-4.27855,16,0.0174638,10,-0.00105043,-2.3687,-0.263797,-0.223657,37.3539,0.245511,
2,0,0,1,0,30744.3,0.243805,0.243466,-4.3543,16,0.0174206,10,-0.00106012,-2.36108,-0.297888,-0.198061,33.5901,0.243466,
2,0,0,1,0,30744.3,0.241807,0.241498,-4.41332,16,0.0173767,10,-0.00106581,-2.35523,-0.293577,-0.200969,34.6873,0.241498,
2,0,0,1,0,30744.3,0.239819,0.239508,-4.4916,16,0.0173326,10,-0.00107577,-2.3476,-0.293394,-0.201095,35.1813,0.2395077,
2,0,0,1,0,30744.3,0.237821,0.237529,-4.55298,16,0.0172874,10,-0.00108146,-2.3417,-0.333103,-0.177122,31.4789,0.237529,
2,0,0,1,0,30744.3,0.235824,0.235531,-4.61677,16,0.0172415,10,-0.00108739,-2.33566,-0.354372,-0.166492,29.9737,0.235531,
2,0,0,1,0,30744.3,0.233826,0.233506,-4.67356,16,0.0171951,10,-0.0010913,-2.33035,-0.348002,-0.169539,30.9596,0.233506,
2,0,0,1,0,30744.3,0.231824,0.231488,-4.74196,16,0.017148,10,-0.00109771,-2.32404,-0.341731,-0.172651,31.9165,0.231488,
2,0,0,1,0,30744.3,0.229822,0.229526,-4.80058,16,0.0171003,10,-0.00110186,-2.31871,-0.403664,-0.146161,27.3606,0.229526,
2,0,0,1,0,30744.3,0.227824,0.227482,-4.85156,16,0.017052,10,-0.00110364,-2.31412,-0.412466,-0.143042,27.1003,0.227482,
2,0,0,1,0,30744.3,0.225827,0.22553,-4.90888,16,0.0170032,10,-0.0011071,-2.30902,-0.392302,-0.150394,28.8084,0.22553,
2,0,0,1,0,30744.4,0.223829,0.223533,-4.96531,16,0.0169538,10,-0.00110991,-2.30405,-0.407163,-0.144905,28.0814,0.223533,
2,0,0,1,0,30744.4,0.221822,0.221475,-5.02273,16,0.0169038,10,-0.00111241,-2.29906,-0.42446,-0.139,27.2298,0.221475,
2,0,0,1,0,30744.4,0.219825,0.219535,-5.07418,16,0.0168533,10,-0.00111396,-2.29463,-0.416796,-0.141556,28.0521,0.219535,
2,0,0,1,0,30744.4,0.217827,0.217536,-5.13323,16,0.0168022,10,-0.00111666,-2.28961,-0.450522,-0.130959,26.2003,0.217536,
2,0,0,1,0,30744.4,0.21583,0.215541,-5.17883,16,0.0167506,10,-0.00111625,-2.28577,-0.470598,-0.125373,25.3625,0.215541,
2,0,0,1,0,30744.4,0.213841,0.213557,-5.23416,16,0.0166991,10,-0.00111779,-2.28115,-0.436756,-0.135087,27.5936,0.213557,
2,0,0,1,0,30744.4,0.211843,0.21153,-5.28952,16,0.0166464,10,-0.00111889,-2.27658,-0.499792,-0.118049,24.3397,0.21153,
2,0,0,1,0,30744.4,0.209846,0.209522,-5.33236,16,0.0165933,10,-0.00111725,-2.27308,-0.496692,-0.118786,24.7525,0.209522,
2,0,0,1,0,30744.4,0.207848,0.207488,-5.38956,16,0.0165397,10,-0.00111827,-2.26845,-0.397609,-0.148387,31.2379,0.207488,
2,0,0,1,0,30744.4,0.20586,0.205551,-5.4564,16,0.0164861,10,-0.00112157,-2.26309,-0.44228,-0.1334,28.35,0.205551,
2,0,0,1,0,30744.5,0.203862,0.203531,-5.50175,16,0.0164313,10,-0.00111977,-2.2595,-0.579392,-0.101831,21.8585,0.2035307,
2,0,0,1,0,30744.5,0.201865,0.201535,-5.54419,16,0.0163761,10,-0.00111735,-2.25616,-0.523686,-0.112663,24.4036,0.2015352,
2,0,0,1,0,30744.5,0.199867,0.199548,-5.59893,16,0.0163203,10,-0.00111726,-2.25189,-0.445814,-0.132342,28.9331,0.199548,
2,0,0,1,0,30744.5,0.19786,0.197534,-5.65996,16,0.0162641,10,-0.00111803,-2.24719,-0.516697,-0.114187,25.1753,0.197534,
2,0,0,1,0,30744.5,0.195863,0.195535,-5.69997,16,0.0162073,10,-0.00111454,-2.24413,-0.530863,-0.11114,24.7647,0.195535,
2,0,0,1,0,30744.5,0.193865,0.19352,-5.75936,16,0.01615,10,-0.00111455,-2.23963,-0.497645,-0.118558,26.6194,0.19352,
2,0,0,1,0,30744.5,0.191868,0.19153,-5.80658,16,0.0160921,10,-0.00111213,-2.23608,-0.482578,-0.12226,27.742,0.19153,
2,0,0,1,0,30744.5,0.189861,0.189554,-5.86937,16,0.0160338,10,-0.00111257,-2.23141,-0.462792,-0.127487,29.1771,0.189554,
2,0,0,1,0,30744.5,0.187863,0.187565,-5.92227,16,0.0159748,10,-0.00111081,-2.22751,-0.511568,-0.115332,26.6582,0.187565,
2,0,0,1,0,30744.5,0.185866,0.185543,-5.9763,16,0.0159152,10,-0.00110886,-2.22357,-0.515591,-0.114432,26.6874,0.185543,
2,0,0,1,0,30744.6,0.183868,0.183541,-6.02965,16,0.0158552,10,-0.00110669,-2.21971,-0.436428,-0.135189,31.8644,0.183541,
2,0,0,1,0,30744.6,0.18188,0.181562,-6.10318,16,0.0157951,10,-0.0011081,-2.21444,-0.395314,-0.149249,35.5267,0.181562,
2,0,0,1,0,30744.6,0.179882,0.179604,-6.16951,16,0.0157338,10,-0.00110807,-2.20975,-0.485216,-0.121595,29.2378,0.179604,
2,0,0,1,0,30744.6,0.177885,0.177581,-6.21956,16,0.0156718,10,-0.00110448,-2.20624,-0.47789,-0.123459,30.0162,0.177581,
2,0,0,1,0,30744.6,0.175887,0.17558,-6.2903,16,0.0156092,10,-0.00110445,-2.20133,-0.422676,-0.139587,34.2574,0.1755802,
2,0,0,1,0,30744.6,0.173908,0.173542,-6.35793,16,0.0155467,10,-0.00110337,-2.19668,-0.388473,-0.151877,37.7283,0.173542,
2,0,0,1,0,30744.6,0.171901,0.171594,-6.44069,16,0.0154826,10,-0.00110518,-2.19107,-0.381278,-0.154743,38.8564,0.171594,
2,0,0,1,0,30744.6,0.169903,0.169606,-6.51088,16,0.0154179,10,-0.00110428,-2.18636,-0.383602,-0.153805,39.1271,0.1696056,
2,0,0,1,0,30744.6,0.167906,0.167605,-6.59678,16,0.0153524,10,-0.00110565,-2.18067,-0.361924,-0.163018,41.9566,0.167605,
2,0,0,1,0,30744.6,0.165908,0.165588,-6.67946,16,0.015286,10,-0.00110604,-2.17526,-0.358586,-0.164535,42.9169,0.165588,
2,0,0,1,0,30744.7,0.163901,0.163545,-6.77104,16,0.0152187,10,-0.00110737,-2.16934,-0.324951,-0.181566,48.0118,0.163545,
2,0,0,1,0,30744.7,0.161904,0.161562,-6.87274,16,0.0151504,10,-0.00111037,-2.16287,-0.301832,-0.195473,52.4434,0.161562,
2,0,0,1,0,30744.7,0.159906,0.159579,-6.97902,16,0.0150811,10,-0.0011137,-2.15621,-0.292876,-0.20145,54.8809,0.159579,
2,0,0,1,0,30744.7,0.157909,0.157613,-7.08949,16,0.0150108,10,-0.00111739,-2.14939,-0.269281,-0.219102,60.7126,0.157613,
2,0,0,1,0,30744.7,0.155902,0.155565,-7.22269,16,0.0149392,10,-0.0011236,-2.1413,-0.250203,-0.235808,66.4731,0.155565,
2,0,0,1,0,30744.7,0.153904,0.153568,-7.35835,16,0.0148663,10,-0.00113001,-2.13322,-0.242379,-0.24342,69.9294,0.153568,
2,0,0,1,0,30744.7,0.151907,0.151583,-7.50117,16,0.0147919,10,-0.00113705,-2.12487,-0.221218,-0.266705,78.1977,0.151583,
2,0,0,1,0,30744.7,0.149909,0.149592,-7.66929,16,0.0147161,10,-0.00114726,-2.11525,-0.194392,-0.303511,90.9821,0.149592,
2,0,0,1,0,30744.7,0.147921,0.147598,-7.8637,16,0.0146392,10,-0.00116067,-2.10437,-0.189195,-0.311847,95.6378,0.147598,
2,0,0,1,0,30744.7,0.145923,0.145608,-8.05024,16,0.0145597,10,-0.00117218,-2.09419,-0.176662,-0.333971,105.175,0.145608,
2,0,0,1,0,30744.8,0.143926,0.143653,-8.27867,16,0.014478,10,-0.00118925,-2.08204,-0.161459,-0.365417,118.183,0.143653,
2,0,0,1,0,30744.8,0.141928,0.141561,-8.52857,16,0.014394,10,-0.00120731,-2.06912,-0.151581,-0.389231,129.745,0.141561,
2,0,0,1,0,30744.8,0.139939,0.139563,-8.80929,16,0.0143082,10,-0.00122945,-2.05506,-0.141349,-0.417405,143.461,0.139563,
2,0,0,1,0,30744.8,0.137942,0.137642,-9.09078,16,0.0142188,10,-0.00125127,-2.0414,-0.135009,-0.437009,155.386,0.137642,
2,0,0,1,0,30744.8,0.135944,0.135638,-9.41918,16,0.0141261,10,-0.0012776,-2.02599,-0.129918,-0.454131,167.006,0.135638,
2,0,0,1,0,30744.8,0.133947,0.133616,-9.76309,16,0.0140302,10,-0.00130451,-2.01041,-0.126609,-0.466001,177.769,0.133616,
2,0,0,1,0,30744.8,0.13194,0.131588,-10.1391,16,0.0139307,10,-0.00133419,-1.994,-0.124543,-0.473732,187.411,0.131588,
2,0,0,1,0,30744.8,0.129942,0.129579,-10.5198,16,0.0138274,10,-0.00136314,-1.97799,-0.121371,-0.486112,199.697,0.129579,
2,0,0,1,0,30744.8,0.127945,0.127663,-10.923,16,0.0137201,10,-0.00139446,-1.96166,-0.123491,-0.477767,203.506,0.127663,
2,0,0,1,0,30744.8,0.125947,0.125654,-11.3186,16,0.0136089,10,-0.00142222,-1.94621,-0.126756,-0.465462,205.898,0.125654,
2,0,0,1,0,30744.9,0.123941,0.123616,-11.7563,16,0.0134935,10,-0.00145326,-1.92973,-0.129508,-0.45557,208.685,0.123616,
2,0,0,1,0,30744.9,0.121943,0.121591,-12.1665,16,0.0133738,10,-0.00147933,-1.91484,-0.135301,-0.436065,206.944,0.121591,
2,0,0,1,0,30744.9,0.119945,0.119669,-12.5731,16,0.01325,10,-0.0015046,-1.90056,-0.14488,-0.407234,199.591,0.119669,
2,0,0,1,0,30744.9,0.117948,0.117622,-12.9585,16,0.0131224,10,-0.00152421,-1.88744,-0.148304,-0.397833,201.43,0.117622,
2,0,0,1,0,30744.9,0.115946,0.11565,-13.3826,16,0.0129906,10,-0.00154769,-1.87346,-0.149577,-0.394446,205.705,0.11565,
2,0,0,1,0,30744.9,0.113962,0.113652,-13.7752,16,0.0128561,10,-0.00156558,-1.8609,-0.165458,-0.356585,191.534,0.113652,
2,0,0,1,0,30744.9,0.111964,0.111638,-14.1509,16,0.0127164,10,-0.00157979,-1.84922,-0.176176,-0.334893,184.806,0.111638,
2,0,0,1,0,30744.9,0.109967,0.109671,-14.5109,16,0.0125731,10,-0.00159143,-1.8383,-0.186671,-0.316065,178.916,0.1096709,
2,0,0,1,0,30744.9,0.107969,0.107651,-14.8644,16,0.0124261,10,-0.00160016,-1.82785,-0.201685,-0.292535,169.482,0.107651,
2,0,0,1,0,30744.9,0.10598,0.105698,-15.1843,16,0.0122774,10,-0.00160495,-1.8186,-0.216243,-0.272841,161.682,0.105698,
2,0,0,1,0,30745,0.103983,0.103668,-15.5082,16,0.0121238,10,-0.00160772,-1.80944,-0.235721,-0.250296,151.276,0.103668,
2,0,0,1,0,30745,0.101985,0.101676,-15.7927,16,0.0119673,10,-0.00160574,-1.80154,-0.259805,-0.227094,139.899,0.101676,
2,0,0,1,0,30745,0.0999877,0.0996879,-16.0651,16,0.011808,10,-0.0016015,-1.79412,-0.279763,-0.210893,132.159,0.0996879,
2,0,0,1,0,30745,0.0979811,0.0976508,-16.3247,16,0.011646,10,-0.00159412,-1.78716,-0.302043,-0.195336,124.343,0.0976508,
2,0,0,1,0,30745,0.0959835,0.095716,-16.559,16,0.0114815,10,-0.00158496,-1.78097,-0.344455,-0.171285,110.594,0.095716,
2,0,0,1,0,30745,0.0939859,0.0936615,-16.7659,16,0.0113149,10,-0.00157032,-1.77557,-0.389371,-0.151527,99.1088,0.0936615,
2,0,0,1,0,30745,0.0919883,0.0916547,-16.9615,16,0.0111462,10,-0.0015546,-1.77054,-0.419224,-0.140736,93.1031,0.0916547,
2,0,0,1,0,30745,0.0899816,0.0896705,-17.1374,16,0.0109756,10,-0.00153672,-1.76605,-0.492618,-0.119768,80.0267,0.0896705,
2,0,0,1,0,30745,0.0879841,0.0876559,-17.2815,16,0.0108034,10,-0.00151483,-1.76242,-0.634889,-0.0929297,62.6074,0.0876559,
2,0,0,1,0,30745,0.0859865,0.0856604,-17.3885,16,0.0106301,10,-0.00148951,-1.75974,-0.782042,-0.0754435,51.1854,0.0856604,
2,0,0,1,0,30745.1,0.0839889,0.0836276,-17.4877,16,0.0104556,10,-0.00146246,-1.75727,-1.01816,-0.0579475,39.5007,0.0836276,
2,0,0,1,0,30745.1,0.0820004,0.0817048,-17.5448,16,0.0102822,10,-0.00143349,-1.75585,-1.69517,-0.0348047,23.8183,0.0817048,
2,0,0,1,0,30745.1,0.0800028,0.079641,-17.5827,16,0.0101065,10,-0.0014003,-1.75492,-3.04359,-0.019385,13.2936,0.079641,
2,0,0,1,0,30745.1,0.0780052,0.0776639,-17.5985,16,0.00993065,10,-0.00136677,-1.75452,-23.4076,-0.00252055,1.72993,0.0776639,
2,0,0,1,0,30745.1,0.0760076,0.0756669,-17.5895,16,0.00975469,10,-0.00133095,-1.75475,3.67575,0.0160511,-11.0105,0.0756669,
2,0,0,1,0,30745.1,0.0740191,0.073697,-17.5548,16,0.0095808,10,-0.00129374,-1.7556,2.15776,0.0273431,-18.7303,0.073697,
2,0,0,1,0,30745.1,0.0720215,0.0716842,-17.5149,16,0.0094054,10,-0.00125554,-1.75659,1.5655,0.0376876,-25.7445,0.0716842,
2,0,0,1,0,30745.1,0.0700239,0.0697043,-17.452,16,0.00923057,10,-0.00121648,-1.75815,1.17526,0.0502017,-34.1826,0.0697043,
2,0,0,1,0,30745.1,0.0680263,0.0677201,-17.3794,16,0.00905639,10,-0.00117694,-1.75996,1.18733,0.0496915,-33.7144,0.0677201,
2,0,0,1,0,30745.1,0.0660197,0.0657229,-17.3178,16,0.008883,10,-0.00113817,-1.76151,1.14811,0.0513887,-34.7148,0.0657229,
2,0,0,1,0,30745.2,0.0640221,0.0636918,-17.2396,16,0.0087102,10,-0.00109802,-1.76347,0.901286,0.065462,-44.0168,0.0636918,
2,0,0,1,0,30745.2,0.0620245,0.0617059,-17.141,16,0.00853834,10,-0.0010577,-1.76596,0.900399,0.0655265,-43.8634,0.0617059,
2,0,0,1,0,30745.2,0.0600269,0.0597164,-17.0652,16,0.00836729,10,-0.00101907,-1.76789,0.983919,0.0599643,-39.9251,0.0597164,
2,0,0,1,0,30745.2,0.0580248,0.0576776,-16.9801,16,0.0081971,10,-0.000979372,-1.77006,0.9763,0.0604322,-40.0569,0.05767756,
2,0,0,1,0,30745.2,0.0560227,0.0556769,-16.9034,16,0.00802762,10,-0.000941129,-1.77203,0.954408,0.0618184,-40.7685,0.0556769,
2,0,0,1,0,30745.2,0.0540251,0.053671,-16.8168,16,0.00785904,10,-0.000902573,-1.77426,1.00887,0.0584813,-38.4045,0.053671,
2,0,0,1,0,30745.2,0.0520275,0.051692,-16.7504,16,0.00769116,10,-0.00086586,-1.77598,0.942847,0.0625765,-40.8715,0.051692,
2,0,0,1,0,30745.2,0.0500299,0.0497129,-16.655,16,0.00752413,10,-0.00082797,-1.77845,1.01177,0.0583135,-37.9492,0.0497129,
2,0,0,1,0,30745.2,0.0480414,0.0477342,-16.6002,16,0.00735948,10,-0.000792396,-1.77989,1.11837,0.0527555,-34.1504,0.0477342,
2,0,0,1,0,30745.2,0.0460438,0.0457276,-16.5189,16,0.00719395,10,-0.00075537,-1.78202,1.01703,0.0580119,-37.4128,0.0457276,
2,0,0,1,0,30745.3,0.0440462,0.0437179,-16.4499,16,0.00702911,10,-0.000719155,-1.78384,0.952071,0.0619702,-39.7573,0.0437179,
2,0,0,1,0,30745.3,0.0420486,0.0417042,-16.359,16,0.00686515,10,-0.000682236,-1.78624,1.02605,0.0575019,-36.75,0.0417042,
2,0,0,1,0,30745.3,0.0400601,0.0397095,-16.3026,16,0.00670347,10,-0.000647368,-1.78774,0.984509,0.0599283,-38.0812,0.0397095,
2,0,0,1,0,30745.3,0.0380625,0.0376836,-16.2058,16,0.00654099,10,-0.000610695,-1.79033,0.846072,0.069734,-44.1287,0.0376836,
2,0,0,1,0,30745.3,0.036065,0.0357393,-16.1274,16,0.00637933,10,-0.000576382,-1.79244,0.844677,0.0698492,-43.9389,0.0357393,
2,0,0,1,0,30745.3,0.0340674,0.0337134,-16.0314,16,0.00621858,10,-0.000540474,-1.79503,0.896171,0.0658356,-41.2244,0.0337134,
2,0,0,1,0,30745.3,0.0320607,0.0317292,-15.9621,16,0.00605855,10,-0.000506465,-1.79691,0.855853,0.068937,-42.9003,0.0317292,
2,0,0,1,0,30745.3,0.0300631,0.0297259,-15.8603,16,0.00589947,10,-0.000471463,-1.79969,0.779163,0.0757222,-46.8932,0.0297259,
2,0,0,1,0,30745.3,0.0280655,0.0277244,-15.7743,16,0.0057413,10,-0.000437332,-1.80205,0.753185,0.078334,-48.1922,0.0277244,
2,0,0,1,0,30745.3,0.0260679,0.0257306,-15.6678,16,0.00558409,10,-0.000403142,-1.80499,0.743768,0.0793258,-48.5349,0.0257306,
2,0,0,1,0,30745.4,0.0240613,0.0237429,-15.5811,16,0.00542782,10,-0.00036994,-1.8074,0.684182,0.0862344,-52.3785,0.0237429,
2,0,0,1,0,30745.4,0.0220637,0.0217596,-15.4598,16,0.00527263,10,-0.000336398,-1.8108,0.648088,0.091037,-54.9681,0.02175957,
2,0,0,1,0,30745.4,0.0200661,0.0197615,-15.3622,16,0.0051185,10,-0.00030358,-1.81355,0.605114,0.0975022,-58.3783,0.0197615,
2,0,0,1,0,30745.4,0.0180685,0.0177235,-15.2242,16,0.00496559,10,-0.000269825,-1.81747,0.587535,0.10042,-59.7352,0.0177235,
2,0,0,1,0,30745.4,0.01608,0.0157549,-15.1229,16,0.00481536,10,-0.00023826,-1.82037,0.59786,0.0986852,-58.186,0.0157549,
2,0,0,1,0,30745.4,0.0140824,0.0137349,-14.9921,16,0.00466484,10,-0.000205914,-1.82414,0.538727,0.109517,-64.0875,0.0137349,
2,0,0,1,0,30745.4,0.0120848,0.0117538,-14.8665,16,0.00451559,10,-0.000174737,-1.82779,0.477614,0.123531,-71.5839,0.0117538,
2,0,0,1,0,30745.4,0.0100873,0.00972972,-14.7054,16,0.0043678,10,-0.000143079,-1.83252,0.483699,0.121977,-70.1042,0.009729716,
2,0,0,1,0,30745.4,0.00810328,0.00777724,-14.5877,16,0.00422282,10,-0.000113452,-1.83601,0.501229,0.117711,-66.9464,0.00777724,
2,0,0,1,0,30745.4,0.00610116,0.00578522,-14.4413,16,0.00407773,10,-8.35462e-05,-1.84039,0.45967,0.128353,-72.3422,0.00578522,
2,0,0,1,0,30745.5,0.00410357,0.00375849,-14.297,16,0.00393408,10,-5.3735e-05,-1.84476,0.515806,0.114384,-63.8871,0.00375849,
2,0,0,1,0,30745.5,0.00210598,0.00173264,-14.1824,16,0.00379189,10,-2.4573e-05,-1.84825,0.51909,0.11366,-62.8539,0.00173264,
2,0,0,1,0,30745.5,0.00010174,-0.000280208,-14.0431,16,0.00365075,10,3.93499e-06,-1.85254,0.440311,0.133996,-73.3947,-0.000280208,
2,0,0,1,0,30745.5,-0.00189827,-0.00227397,-13.8883,16,0.00351112,10,3.15816e-05,-1.85735,0.452043,0.130518,-70.817,-0.00227397,
2,0,0,1,0,30745.5,-0.00389586,-0.00422955,-13.7634,16,0.00337287,10,5.82131e-05,-1.86127,0.467286,0.126261,-67.7672,-0.00422955,
2,0,0,1,0,30745.5,-0.00589345,-0.00626495,-13.6179,16,0.00323599,10,8.53154e-05,-1.86589,0.477996,0.123432,-65.6672,-0.00626495,
2,0,0,1,0,30745.5,-0.00789103,-0.00822227,-13.5012,16,0.00310036,10,0.000111011,-1.86963,0.524364,0.112517,-59.2807,-0.00822227,
2,0,0,1,0,30745.5,-0.0098977,-0.0102342,-13.3826,16,0.00296593,10,0.000136961,-1.87346,0.595874,0.0990142,-51.7628,-0.0102342,
2,0,0,1,0,30745.5,-0.0118953,-0.0123,-13.2902,16,0.00283255,10,0.000163469,-1.87647,0.575508,0.102518,-53.1149,-0.0123,
2,0,0,1,0,30745.5,-0.0138929,-0.0142547,-13.169,16,0.00270027,10,0.000187721,-1.88045,0.600064,0.0983228,-50.613,-0.0142547,
2,0,0,1,0,30745.6,-0.0158905,-0.0162485,-13.0903,16,0.00256899,10,0.000212698,-1.88305,0.751543,0.0785052,-40.1018,-0.0162485,
2,0,0,1,0,30745.6,-0.017879,-0.0182459,-13.009,16,0.00243981,10,0.000237361,-1.88576,0.780285,0.0756134,-38.4058,-0.0182459,
2,0,0,1,0,30745.6,-0.0198766,-0.0201785,-12.9394,16,0.00231008,10,0.000261098,-1.88809,0.791083,0.0745813,-37.6457,-0.0201785,
2,0,0,1,0,30745.6,-0.0218741,-0.0222392,-12.8587,16,0.00218115,10,0.000285966,-1.8908,0.989937,0.0595997,-29.9544,-0.0222392,
2,0,0,1,0,30745.6,-0.0238717,-0.0242624,-12.8171,16,0.0020528,10,0.000310973,-1.89221,1.25495,0.0470138,-23.5063,-0.0242624,
2,0,0,1,0,30745.6,-0.0258602,-0.0262598,-12.7641,16,0.00192623,10,0.000335184,-1.89401,1.21478,0.0485684,-24.2032,-0.0262598,
2,0,0,1,0,30745.6,-0.0278578,-0.0282327,-12.721,16,0.00179884,10,0.000359147,-1.89548,1.31162,0.0449825,-22.3294,-0.0282327,
2,0,0,1,0,30745.6,-0.0298554,-0.0302534,-12.675,16,0.00167186,10,0.000383461,-1.89705,1.96769,0.0299843,-14.8513,-0.0302534,
2,0,0,1,0,30745.6,-0.031853,-0.0322263,-12.6616,16,0.00154516,10,0.000408038,-1.89751,2.61352,0.0225749,-11.1475,-0.03222632,
2,0,0,1,0,30745.6,-0.0338597,-0.0342227,-12.6307,16,0.00141871,10,0.000432257,-1.89857,3.69414,0.0159712,-7.88227,-0.0342227,
2,0,0,1,0,30745.7,-0.0358573,-0.0362242,-12.6301,16,0.00129238,10,0.000457517,-1.89859,8.0791,0.0073028,-3.59776,-0.0362242,
2,0,0,1,0,30745.7,-0.0378548,-0.0382527,-12.6162,16,0.00116612,10,0.000482605,-1.89907,12.3262,0.00478656,-2.35849,-0.0382527,
2,0,0,1,0,30745.7,-0.0398524,-0.0402083,-12.6207,16,0.00103992,10,0.000507458,-1.89892,-9.72606,-0.00606618,2.98821,-0.0402083,
2,0,0,1,0,30745.7,-0.0418591,-0.0422099,-12.6281,16,0.000913707,10,0.000533028,-1.89866,-4.78873,-0.0123206,6.07435,-0.0422099,
2,0,0,1,0,30745.7,-0.0438567,-0.0442253,-12.6451,16,0.000787335,10,0.000559235,-1.89808,-10.0734,-0.00585704,2.88787,-0.0442253,
2,0,0,1,0,30745.7,-0.0458543,-0.0462191,-12.6396,16,0.000660866,10,0.000584192,-1.89827,-3.85896,-0.0152891,7.55416,-0.0462191,
2,0,0,1,0,30745.7,-0.0478519,-0.0482189,-12.6753,16,0.000534255,10,0.000611189,-1.89704,-1.75441,-0.0336295,16.6323,-0.0482189,
2,0,0,1,0,30745.7,-0.0498585,-0.0501996,-12.7058,16,0.000407406,10,0.000637828,-1.896,-1.85681,-0.0317749,15.7575,-0.0501996,
2,0,0,1,0,30745.7,-0.051838,-0.0522293,-12.7385,16,0.000281444,10,0.000665323,-1.89488,-2.08894,-0.028244,14.0364,-0.05222933,
2,0,0,1,0,30745.7,-0.0538355,-0.0542184,-12.7622,16,0.000154004,10,0.000691948,-1.89407,-1.63832,-0.0360125,17.9532,-0.0542184,
2,0,0,1,0,30745.8,-0.0558331,-0.056178,-12.8094,16,2.6151e-05,10,0.000719606,-1.89247,-1.4739,-0.0400297,19.9996,-0.056178,
2,0,0,1,0,30745.8,-0.0578126,-0.0581877,-12.8416,16,-0.000100808,10,0.000747225,-1.89138,-1.27914,-0.0461249,23.1423,-0.0581877,
2,0,0,1,0,30745.8,-0.0598192,-0.0602144,-12.9028,16,-0.00022956,10,0.000776935,-1.88932,-1.08767,-0.0542442,27.3014,-0.0602144,
2,0,0,1,0,30745.8,-0.0618168,-0.0622021,-12.9512,16,-0.000358767,10,0.000805594,-1.88769,-1.18538,-0.049773,25.1606,-0.0622021,
2,0,0,1,0,30745.8,-0.0638144,-0.0641941,-13.0029,16,-0.000488553,10,0.000834712,-1.88596,-1.14265,-0.0516343,26.2038,-0.06419412,
2,0,0,1,0,30745.8,-0.065812,-0.0662026,-13.0561,16,-0.00061883,10,0.000864345,-1.88419,-0.935879,-0.0630423,32.1499,-0.0662026,
2,0,0,1,0,30745.8,-0.0678187,-0.0682016,-13.1318,16,-0.00074979,10,0.000895608,-1.88168,-0.886066,-0.0665865,34.1042,-0.0682016,
2,0,0,1,0,30745.8,-0.0698163,-0.0701789,-13.1917,16,-0.000881395,10,0.000925776,-1.8797,-0.942767,-0.0625818,32.2285,-0.0701789,
2,0,0,1,0,30745.8,-0.0718138,-0.0721674,-13.2596,16,-0.00101366,10,0.00095691,-1.87747,-0.898432,-0.0656699,33.9836,-0.0721674,
2,0,0,1,0,30745.8,-0.0738114,-0.0741993,-13.3283,16,-0.00114663,10,0.000988951,-1.87523,-0.76729,-0.076894,40.031,-0.0741993,
2,0,0,1,0,30745.9,-0.0758181,-0.0761688,-13.4198,16,-0.00128045,10,0.00102217,-1.87226,-0.751704,-0.0784884,41.0789,-0.0761688,
2,0,0,1,0,30745.9,-0.0778157,-0.0782172,-13.4933,16,-0.00141504,10,0.00105541,-1.86988,-0.748009,-0.0788761,41.5661,-0.0782172,
2,0,0,1,0,30745.9,-0.0798133,-0.0801824,-13.5866,16,-0.00155043,10,0.00108941,-1.86689,-0.700286,-0.0842513,44.6564,-0.0801824,
2,0,0,1,0,30745.9,-0.0818108,-0.0821683,-13.6698,16,-0.0016867,10,0.00112322,-1.86424,-0.646461,-0.0912661,48.7367,-0.0821683,
2,0,0,1,0,30745.9,-0.0837994,-0.0841497,-13.7799,16,-0.0018226,10,0.00115958,-1.86075,-0.643833,-0.0916387,49.2388,-0.0841497,
2,0,0,1,0,30745.9,-0.0857969,-0.0861594,-13.8663,16,-0.00196078,10,0.00119471,-1.85804,-0.642516,-0.0918265,49.7371,-0.0861594,
2,0,0,1,0,30745.9,-0.0877945,-0.0881302,-13.9779,16,-0.00210001,10,0.00123188,-1.85456,-0.613749,-0.0961305,52.4138,-0.0881302,
2,0,0,1,0,30745.9,-0.0897921,-0.0901559,-14.0758,16,-0.00224029,10,0.00126901,-1.85153,-0.600394,-0.0982689,54.0183,-0.0901559,
2,0,0,1,0,30745.9,-0.0917806,-0.0921102,-14.1929,16,-0.00238019,10,0.00130731,-1.84793,-0.581098,-0.101532,56.2173,-0.0921102,
2,0,0,1,0,30745.9,-0.0937782,-0.0941387,-14.2997,16,-0.00252265,10,0.00134615,-1.84467,-0.571722,-0.103197,57.6255,-0.09413866,
2,0,0,1,0,30746,-0.0957758,-0.0961203,-14.424,16,-0.00266628,10,0.00138644,-1.84091,-0.582241,-0.101333,56.9997,-0.0961203,
2,0,0,1,0,30746,-0.0977734,-0.0981314,-14.5273,16,-0.00281103,10,0.00142558,-1.83782,-0.549342,-0.107401,60.9669,-0.0981314,
2,0,0,1,0,30746,-0.0997412,-0.100109,-14.6672,16,-0.00295407,10,0.00146831,-1.83365,0.112603,0.523964,-291.232,-0.100109,
2,0,0,1,1,30746,-0.0996711,-0.100077,-13.9608,16,-0.00299718,10,0.00139714,-1.85509,-0.0159219,-3.70559,1840.16,-0.100077,
2,0,0,1,1,30746,-0.0976826,-0.0980946,-10.9612,16,-0.00311887,10,0.00107523,-1.96014,-0.0201571,-2.927,1278.52,-0.09809459,
2,0,0,1,1,30746,-0.095685,-0.096053,-8.81659,16,-0.00321713,10,0.000846861,-2.0547,-0.0210497,-2.80289,969.182,-0.096053,
2,0,0,1,1,30746,-0.0936874,-0.0940552,-7.04628,16,-0.00329598,10,0.000662739,-2.15204,-0.0197619,-2.98555,821.034,-0.09405522,
2,0,0,1,1,30746,-0.0916898,-0.0920511,-5.53084,16,-0.00335851,10,0.00050912,-2.25721,-0.0176318,-3.34623,718.9,-0.0920511,
2,0,0,1,1,30746,-0.0897013,-0.0901052,-4.20658,16,-0.00340638,10,0.000379035,-2.37607,-0.0151042,-3.90621,633.005,-0.0901052,
2,0,0,1,1,30746,-0.0877037,-0.0880915,-3.02439,16,-0.00344231,10,0.000266423,-2.51936,-0.0119982,-4.91741,563.179,-0.0880915,
2,0,0,1,1,30746,-0.0857062,-0.0860968,-1.94918,16,-0.00346692,10,0.000167818,-2.71015,-0.00826241,-7.14077,508.919,-0.0860968,
2,0,0,1,1,30746.1,-0.0837086,-0.0841057,-0.995953,16,-0.00348146,10,8.37653e-05,-3.00176,-0.00321133,-18.3725,458.656,-0.0841057,
2,0,0,1,1,30746.1,-0.0817019,-0.0820868,-0.109932,16,-0.00348675,10,9.02396e-06,-3.95888,-0.0245838,-2.39996,424.242,-0.0820868,
2,1,0,1,1,30746.1,-0.0797043,-0.080139,0.686886,16,-0.00348373,10,-5.50463e-05,-3.16312,0.00358018,16.4796,385.017,-0.080139,
2,1,0,1,1,30746.1,-0.0777067,-0.0781053,1.42299,16,-0.00347297,10,-0.000111143,-2.8468,0.00829082,7.11631,349.847,-0.0781053,
2,1,0,1,1,30746.1,-0.0757091,-0.0761385,2.08646,16,-0.00345532,10,-0.00015886,-2.68059,0.0142935,4.12774,322.84,-0.0761385,
2,1,0,1,1,30746.1,-0.0737025,-0.0740718,2.72517,16,-0.00343112,10,-0.000201858,-2.56461,0.0203174,2.90392,299.489,-0.0740718,
2,1,0,1,1,30746.1,-0.0717049,-0.0721206,3.28977,16,-0.00340097,10,-0.00023726,-2.48283,0.0268797,2.19497,277.779,-0.0721206,
2,1,0,1,1,30746.1,-0.0697073,-0.0701233,3.82197,16,-0.00336529,10,-0.00026801,-2.41771,0.0338412,1.74344,257.338,-0.07012333,
2,1,0,1,1,30746.1,-0.0677097,-0.0681122,4.32127,16,-0.00332451,10,-0.000294332,-2.36439,0.0410626,1.43683,240.35,-0.0681122,
2,1,0,1,1,30746.1,-0.0657212,-0.0661098,4.78663,16,-0.00327933,10,-0.000316443,-2.31997,0.0496251,1.18891,220.287,-0.0661098,
2,1,0,1,1,30746.2,-0.0637236,-0.0641183,5.20107,16,-0.00322934,10,-0.000333484,-2.28391,0.0581641,1.01437,205.201,-0.0641183,
2,1,0,1,1,30746.2,-0.061726,-0.062138,5.60164,16,-0.00317525,10,-0.000348075,-2.25168,0.0669201,0.881648,191.83,-0.06213804,
2,1,0,1,1,30746.2,-0.0597284,-0.0601267,5.96679,16,-0.00311733,10,-0.000358763,-2.22426,0.077297,0.76329,177.233,-0.0601267,
2,1,0,1,1,30746.2,-0.0577399,-0.0581313,6.31176,16,-0.00305649,10,-0.000366911,-2.19985,0.0892147,0.661326,162.225,-0.0581313,
2,1,0,1,1,30746.2,-0.0557423,-0.0561289,6.61534,16,-0.00299181,10,-0.000371311,-2.17945,0.0994637,0.593181,153.036,-0.0561289,
2,1,0,1,1,30746.2,-0.0537447,-0.0541646,6.91881,16,-0.00292403,10,-0.000374755,-2.15997,0.115407,0.511236,137.489,-0.0541646,
2,1,0,1,1,30746.2,-0.0517472,-0.0520641,7.17419,16,-0.0028535,10,-0.000373518,-2.14423,0.127514,0.462693,129.593,-0.0520641,
2,1,0,1,1,30746.2,-0.049745,-0.0501354,7.44097,16,-0.00278036,10,-0.000373056,-2.12837,0.133853,0.440781,127.656,-0.05013543,
2,1,0,1,1,30746.2,-0.0477429,-0.0481556,7.67315,16,-0.00270477,10,-0.000369505,-2.11503,0.156697,0.376522,112.61,-0.0481556,
2,1,0,1,1,30746.2,-0.0457453,-0.0461453,7.89029,16,-0.00262687,10,-0.0003641,-2.10291,0.180695,0.326517,100.323,-0.0461453,
2,1,0,1,1,30746.3,-0.0437477,-0.0441403,8.07597,16,-0.00254707,10,-0.000356476,-2.09281,0.19813,0.297785,93.8605,-0.0441403,
2,1,0,1,1,30746.3,-0.0417501,-0.0421491,8.26538,16,-0.00246527,10,-0.000348378,-2.08274,0.211621,0.2788,89.817,-0.0421491,
2,1,0,1,1,30746.3,-0.0397435,-0.0401311,8.43607,16,-0.0023817,10,-0.000338548,-2.07386,0.237346,0.248583,81.776,-0.0401311,
2,1,0,1,1,30746.3,-0.0377459,-0.0381139,8.59536,16,-0.0022965,10,-0.000327603,-2.06574,0.266252,0.221595,74.2445,-0.0381139,
2,1,0,1,1,30746.3,-0.0357483,-0.036095,8.73572,16,-0.00220986,10,-0.000315316,-2.0587,0.291811,0.202186,68.9008,-0.036095,
2,1,0,1,1,30746.3,-0.0337507,-0.034129,8.86993,16,-0.00212177,10,-0.000302722,-2.05208,0.320344,0.184177,63.6906,-0.034129,
2,1,0,1,1,30746.3,-0.0317622,-0.0321471,8.98717,16,-0.00203338,10,-0.000288911,-2.04638,0.355428,0.165997,58.2125,-0.0321471,
2,1,0,1,1,30746.3,-0.0297646,-0.0301342,9.10248,16,-0.00194289,10,-0.000274295,-2.04084,0.4013,0.147022,52.1681,-0.0301342,
2,1,0,1,1,30746.3,-0.027767,-0.0281133,9.1976,16,-0.00185141,10,-0.000258575,-2.03633,0.459416,0.128424,46.0757,-0.0281133,
2,1,0,1,1,30746.3,-0.0257694,-0.0261871,9.28434,16,-0.00175896,10,-0.00024313,-2.03225,0.486271,0.121332,43.9657,-0.0261871,
2,1,0,1,1,30746.4,-0.0237809,-0.0241298,9.37274,16,-0.00166662,10,-0.000226163,-2.02813,0.526848,0.111987,40.9383,-0.0241298,
2,1,0,1,1,30746.4,-0.0217833,-0.0221387,9.45008,16,-0.00157249,10,-0.000209212,-2.02456,0.659744,0.0894286,32.9394,-0.0221387,
2,1,0,1,1,30746.4,-0.0197858,-0.0201631,9.5034,16,-0.00147771,10,-0.000191618,-2.02212,0.741466,0.0795721,29.5289,-0.02016313,
2,1,0,1,1,30746.4,-0.0177882,-0.0181564,9.56767,16,-0.00138232,10,-0.000173714,-2.01919,0.731334,0.0806745,30.1111,-0.0181564,
2,1,0,1,1,30746.4,-0.0157815,-0.0161478,9.6243,16,-0.00128635,10,-0.000155412,-2.01663,0.845582,0.0697744,26.1956,-0.01614785,
2,1,0,1,1,30746.4,-0.0137839,-0.0141645,9.67224,16,-0.00118982,10,-0.000137002,-2.01447,1.03106,0.0572227,21.5882,-0.0141645,
2,1,0,1,1,30746.4,-0.0117863,-0.012202,9.70949,16,-0.00109294,10,-0.000118475,-2.0128,1.08289,0.0544838,20.6534,-0.012202,
2,1,0,1,1,30746.4,-0.00978874,-0.0101961,9.7542,16,-0.00099558,10,-9.94545e-05,-2.01081,1.10776,0.0532605,20.2676,-0.0101961,
2,1,0,1,1,30746.4,-0.00778208,-0.00813378,9.79194,16,-0.000897864,10,-7.96455e-05,-2.00913,1.37844,0.0428019,16.3485,-0.00813378,
2,1,0,1,1,30746.4,-0.00578449,-0.00617385,9.81996,16,-0.000799811,10,-6.0627e-05,-2.00789,1.94863,0.0302777,11.5976,-0.00617385,
2,1,0,1,1,30746.5,-0.0037869,-0.00419137,9.83766,16,-0.000701535,10,-4.12333e-05,-2.00711,1.91822,0.0307578,11.816,-0.00419137,
2,1,0,1,1,30746.5,-0.00178931,-0.00216985,9.86727,16,-0.00060298,10,-2.14105e-05,-2.0058,3.89364,0.0151529,5.824,-0.00216985,
2,1,0,1,1,30746.5,-2.55332e-05,-0.000535284,9.85896,16,-0.000517103,10,-5.27734e-06,-2.00617, , , ,-0.000535284,