File: Figure_codes/Fig_3-5/rawdata_trumpetplot_data/after 10th/20221101_1-115_003_TrumpetPlot_ParaChange_from10_every3_12_CV_C01_8.csv
mode,ox/red,error,control changes,counter inc.,time/s,control/V,Ewe/V,<I>/mA,cycle number,(Q-Qo)/C,I Range,P/W,log(|I|),Tafel slope mV/dec,alpha_eff,dI/d(E-IR),E-IR/V,
2,1,0,1,0,16957.6,2.44065e-05,-0.000306236,19.0204,9,0.0000000E+000,10,-5.82472e-06,-1.72078, , , ,-0.000306236,
2,1,0,1,0,16957.6,0.00200257,0.00158235,20.1256,9,6.11192e-05,10,3.18456e-05,-1.69625, , , ,0.00158235,
2,1,0,1,0,16957.6,0.004408,0.00404779,21.1018,9,0.000143781,10,8.54158e-05,-1.67568, , , ,0.00404779,
2,1,0,1,0,16957.6,0.0068051,0.00647931,21.8541,9,0.000229802,10,0.000141599,-1.66047,0.159131,0.370763,312.52,0.00647931,
2,1,0,1,0,16957.6,0.00920221,0.0088737,22.5225,9,0.000318655,10,0.000199858,-1.64738,0.190681,0.309417,270.234,0.008873703,
2,1,0,1,0,16957.6,0.0115993,0.011231,23.141,9,0.00041007,10,0.000259896,-1.63562,0.216089,0.273036,245.203,0.011231,
2,1,0,1,0,16957.6,0.0140075,0.0136837,23.7058,9,0.000503826,10,0.000324383,-1.62515,0.243142,0.242657,223.309,0.0136837,
2,1,0,1,0,16957.6,0.0164046,0.0160823,24.2088,9,0.000599723,10,0.000389334,-1.61603,0.270829,0.217849,205.045,0.0160823,
2,1,0,1,0,16957.6,0.0188017,0.0184937,24.6707,9,0.000697549,10,0.000456253,-1.60782,0.296761,0.198813,190.964,0.01849371,
2,1,0,1,0,16957.6,0.0212099,0.020887,25.1209,9,0.000797169,10,0.000524701,-1.59996,0.321136,0.183723,179.7,0.020887,
2,1,0,1,0,16957.6,0.023607,0.023292,25.5406,9,0.00089855,10,0.000594893,-1.59277,0.344107,0.171458,170.491,0.023292,
2,1,0,1,0,16957.6,0.0260041,0.0256928,25.9358,9,0.00100153,10,0.000666363,-1.5861,0.368837,0.159962,161.613,0.0256928,
2,1,0,1,0,16957.6,0.0284012,0.0280755,26.3043,9,0.00110605,10,0.000738509,-1.57997,0.396128,0.148942,152.68,0.0280755,
2,1,0,1,0,16957.6,0.0308067,0.0304731,26.6701,9,0.00121206,10,0.000812722,-1.57397,0.412428,0.143055,148.737,0.0304731,
2,1,0,1,0,16957.6,0.0332038,0.0328898,27.006,9,0.00131945,10,0.000888221,-1.56854,0.425741,0.138582,146.025,0.0328898,
2,1,0,1,0,16957.6,0.0356009,0.0352609,27.3589,9,0.00142822,10,0.000964699,-1.5629,0.443662,0.132984,141.915,0.03526086,
2,1,0,1,0,16957.6,0.0380091,0.0376807,27.7069,9,0.00153837,10,0.00104402,-1.55741,0.45478,0.129733,140.102,0.0376807,
2,1,0,1,0,16957.6,0.0404062,0.0400507,28.0293,9,0.00164986,10,0.00112259,-1.55239,0.474441,0.124357,135.919,0.0400507,
2,1,0,1,0,16957.6,0.0428033,0.0424642,28.3474,9,0.00176265,10,0.00120375,-1.54749,0.483683,0.121981,134.97,0.0424642,
2,1,0,1,0,16957.6,0.0452032,0.0448533,28.6627,9,0.0018767,10,0.00128562,-1.54268,0.485423,0.121543,136.036,0.0448533,
2,1,0,1,0,16957.6,0.0476058,0.0473103,29.0066,9,0.0019921,10,0.00137231,-1.5375,0.488931,0.120671,136.552,0.0473103,
2,1,0,1,0,16957.6,0.0500029,0.0496707,29.338,9,0.00210882,10,0.00145724,-1.53257,0.479927,0.122935,140.729,0.0496707,
2,1,0,1,0,16957.7,0.0524,0.0520269,29.6532,9,0.00222683,10,0.00154276,-1.52793,0.49456,0.119298,138.092,0.0520269,
2,1,0,1,0,16957.7,0.0548082,0.0544415,30.0121,9,0.00234618,10,0.0016339,-1.5227,0.492749,0.119737,140.22,0.0544415,
2,1,0,1,0,16957.7,0.0572053,0.0568444,30.3232,9,0.00246689,10,0.0017237,-1.51822,0.48525,0.121587,143.96,0.0568444,
2,1,0,1,0,16957.7,0.0596024,0.0592812,30.6856,9,0.00258894,10,0.00181908,-1.51307,0.495734,0.119015,142.555,0.0592812,
2,1,0,1,0,16957.7,0.0620051,0.0616194,31.0341,9,0.00271241,10,0.0019123,-1.50816,0.484744,0.121714,147.375,0.0616194,
2,1,0,1,0,16957.7,0.0644077,0.0640435,31.3809,9,0.00283729,10,0.00200974,-1.50334,0.493044,0.119665,146.558,0.06404347,
2,1,0,1,0,16957.7,0.0668048,0.0664495,31.7388,9,0.00296356,10,0.00210903,-1.49841,0.489375,0.120562,149.375,0.06644953,
2,1,0,1,0,16957.7,0.0692019,0.0688567,32.0889,9,0.00309126,10,0.00220954,-1.49364,0.484193,0.121852,152.686,0.0688567,
2,1,0,1,0,16957.7,0.0716074,0.0712383,32.4709,9,0.00322043,10,0.00231318,-1.48851,0.486526,0.121268,153.658,0.0712383,
2,1,0,1,0,16957.7,0.0740045,0.0736306,32.8447,9,0.0033511,10,0.00241837,-1.48353,0.47996,0.122927,157.54,0.0736306,
2,1,0,1,0,16957.7,0.0764016,0.0760027,33.2067,9,0.00348327,10,0.0025238,-1.47877,0.479648,0.123007,159.54,0.0760027,
2,1,0,1,0,16957.7,0.0788042,0.0784427,33.5991,9,0.00361688,10,0.00263561,-1.47367,0.48085,0.122699,160.957,0.0784427,
2,1,0,1,0,16957.7,0.0812069,0.0808732,34.0081,9,0.00375216,10,0.00275034,-1.46842,0.475013,0.124207,164.785,0.0808732,
2,1,0,1,0,16957.7,0.083604,0.0832474,34.3926,9,0.00388899,10,0.00286309,-1.46354,0.480359,0.122825,164.831,0.0832474,
2,1,0,1,0,16957.7,0.0860011,0.0856376,34.7944,9,0.0040274,10,0.00297971,-1.45849,0.494518,0.119308,161.932,0.0856376,
2,1,0,1,0,16957.7,0.0884065,0.0880712,35.1862,9,0.00416742,10,0.00309889,-1.45363,0.496292,0.118882,163.157,0.08807122,
2,1,0,1,0,16957.7,0.0908036,0.0904476,35.5585,9,0.00430894,10,0.00321618,-1.44906,0.513478,0.114903,159.43,0.0904476,
2,1,0,1,0,16957.7,0.0932007,0.0928038,35.9518,9,0.00445203,10,0.00333646,-1.44428,0.50275,0.117354,164.742,0.0928038,
2,1,0,1,0,16957.7,0.0956034,0.0952226,36.3225,9,0.00459662,10,0.00345872,-1.43982,0.492065,0.119903,170.179,0.0952226,
2,1,0,1,0,16957.7,0.098006,0.0976584,36.7656,9,0.00474283,10,0.00359047,-1.43456,0.496985,0.118716,170.351,0.0976584,
2,1,0,1,0,16957.7,0.100403,0.100025,37.1884,9,0.00489078,10,0.00371978,-1.42959,0.481838,0.122448,177.631,0.100025,
2,1,0,1,0,16957.7,0.1028,0.102461,37.5969,9,0.00504039,10,0.00385221,-1.42485,0.492588,0.119776,175.767,0.102461,
2,1,0,1,0,16957.7,0.105208,0.104849,38.0324,9,0.00519172,10,0.00398766,-1.41985,0.509434,0.115815,171.813,0.104849,
2,1,0,1,0,16957.7,0.107606,0.107241,38.45,9,0.00534472,10,0.00412342,-1.4151,0.5043,0.116994,175.465,0.107241,
2,1,0,1,0,16957.7,0.110003,0.109691,38.8491,9,0.00549935,10,0.00426139,-1.41062,0.522037,0.113019,171.345,0.109691,
2,1,0,1,0,16957.8,0.112408,0.112019,39.274,9,0.00565563,10,0.00439946,-1.40589,0.526999,0.111955,171.579,0.112019,
2,1,0,1,0,16957.8,0.114805,0.114424,39.6732,9,0.00581357,10,0.00453958,-1.4015,0.514852,0.114596,177.524,0.114424,
2,1,0,1,0,16957.8,0.117202,0.116864,40.1011,9,0.00597316,10,0.00468639,-1.39684,0.51686,0.114151,178.779,0.116864,
2,1,0,1,0,16957.8,0.119599,0.119278,40.551,9,0.00613451,10,0.00483684,-1.392,0.5046,0.116924,185.08,0.119278,
2,1,0,1,0,16957.8,0.122008,0.121669,40.9992,9,0.00629766,10,0.00498834,-1.38722,0.497863,0.118507,189.645,0.121669,
2,1,0,1,0,16957.8,0.124405,0.124071,41.4585,9,0.00646263,10,0.0051438,-1.38239,0.493087,0.119654,193.677,0.124071,
2,1,0,1,0,16957.8,0.126802,0.126467,41.9223,9,0.00662941,10,0.0053018,-1.37756,0.479586,0.123023,201.447,0.126467,
2,1,0,1,0,16957.8,0.129207,0.12889,42.4128,9,0.00679813,10,0.0054666,-1.3725,0.472106,0.124972,206.993,0.1288905,
2,1,0,1,0,16957.8,0.131604,0.131259,42.9312,9,0.00696887,10,0.00563512,-1.36723,0.463556,0.127277,213.275,0.131259,
2,1,0,1,0,16957.8,0.134001,0.133632,43.4375,9,0.00714167,10,0.00580462,-1.36214,0.453072,0.130222,220.863,0.133632,
2,1,0,1,0,16957.8,0.136399,0.136055,43.967,9,0.00731655,10,0.00598191,-1.35687,0.458786,0.1286,220.751,0.136055,
2,1,0,1,0,16957.8,0.138807,0.138437,44.5213,9,0.00749358,10,0.00616341,-1.35143,0.45418,0.129904,225.702,0.138437,
2,1,0,1,0,16957.8,0.141204,0.140878,45.0546,9,0.00767278,10,0.00634721,-1.34626,0.448915,0.131428,231.157,0.140878,
2,1,0,1,0,16957.8,0.143601,0.143296,45.6188,9,0.00785418,10,0.006537,-1.34086,0.460966,0.127992,227.841,0.143296,
2,1,0,1,0,16957.8,0.146009,0.145647,46.1843,9,0.00803785,10,0.00672661,-1.33551,0.460013,0.128257,231.006,0.145647,
2,1,0,1,0,16957.8,0.148406,0.148094,46.7216,9,0.00822373,10,0.00691921,-1.33048,0.47316,0.124693,227.26,0.148094,
2,1,0,1,0,16957.8,0.150803,0.150444,47.2643,9,0.00841177,10,0.00711065,-1.32547,0.487364,0.121059,223.232,0.150444,
2,1,0,1,0,16957.8,0.153206,0.152884,47.7978,9,0.00860196,10,0.00730754,-1.32059,0.494479,0.119317,222.467,0.152884,
2,1,0,1,0,16957.8,0.155606,0.155261,48.3304,9,0.00879429,10,0.00750381,-1.31578,0.519656,0.113537,213.956,0.1552607,
2,1,0,1,0,16957.8,0.158003,0.157632,48.8433,9,0.00898869,10,0.00769926,-1.31119,0.537368,0.109794,209.063,0.157632,
2,1,0,1,0,16957.8,0.1604,0.160065,49.3228,9,0.00918509,10,0.00789488,-1.30695,0.571147,0.103301,198.642,0.160065,
2,1,0,1,0,16957.8,0.162808,0.162444,49.7964,9,0.00938337,10,0.00808912,-1.3028,0.609098,0.0968646,188.047,0.162444,
2,1,0,1,0,16957.8,0.165205,0.164805,50.2264,9,0.00958349,10,0.00827758,-1.29907,0.643248,0.091722,179.63,0.1648054,
2,1,0,1,0,16957.8,0.167602,0.167267,50.6551,9,0.00978529,10,0.00847291,-1.29538,0.705185,0.0836659,165.173,0.167267,
2,1,0,1,0,16957.8,0.170008,0.169679,51.0497,9,0.00998874,10,0.00866207,-1.29201,0.774699,0.0761586,151.443,0.169679,
2,1,0,1,0,16957.9,0.172405,0.172049,51.3829,9,0.0101937,10,0.00884038,-1.28918,0.888355,0.0664149,132.938,0.172049,
2,1,0,1,0,16957.9,0.174802,0.17444,51.6855,9,0.0103999,10,0.00901603,-1.28663,1.0509,0.0561421,113.029,0.17444,
2,1,0,1,0,16957.9,0.177199,0.176837,51.9274,9,0.0106071,10,0.00918267,-1.2846,1.32697,0.0444623,89.9093,0.176837,
2,1,0,1,0,16957.9,0.179607,0.179212,52.1272,9,0.0108153,10,0.00934183,-1.28294,1.96836,0.0299741,60.8034,0.179212,
2,1,0,1,0,16957.9,0.182005,0.181672,52.2481,9,0.0110241,10,0.00949203,-1.28193,3.97308,0.0148499,30.1787,0.181672,
2,1,0,1,0,16957.9,0.184402,0.184071,52.2711,9,0.0112331,10,0.00962158,-1.28174,-16.8336,-0.00350491,-7.12553,0.184071,
2,1,0,1,0,16957.9,0.18681,0.186492,52.2187,9,0.0114421,10,0.00973837,-1.28217,-2.53329,-0.0232899,-47.2829,0.186492,
2,1,0,1,0,16957.9,0.189207,0.188882,52.0583,9,0.0116507,10,0.00983288,-1.28351,-1.35198,-0.0436396,-88.3019,0.188882,
2,1,0,1,0,16957.9,0.191604,0.19129,51.7933,9,0.0118584,10,0.00990756,-1.28573,-0.892853,-0.0660803,-133.016,0.19129,
2,1,0,1,0,16957.9,0.194001,0.193643,51.4258,9,0.0120648,10,0.00995826,-1.28882,-0.651935,-0.0904999,-180.782,0.193643,
2,1,0,1,0,16957.9,0.196407,0.196079,50.9435,9,0.0122696,10,0.00998895,-1.29291,-0.511111,-0.115435,-228.369,0.196079,
2,1,0,1,0,16957.9,0.198804,0.198487,50.3219,9,0.0124721,10,0.00998825,-1.29824,-0.423592,-0.139285,-272.359,0.1984871,
2,1,0,1,0,16957.9,0.201201,0.20087,49.6056,9,0.0126719,10,0.00996428,-1.30447,-0.355208,-0.1661,-320.188,0.20087,
2,1,0,1,0,16957.9,0.203609,0.203265,48.8052,9,0.0128686,10,0.0099204,-1.31153,-0.312449,-0.188831,-358.022,0.203265,
2,1,0,1,0,16957.9,0.206006,0.20566,47.8759,9,0.0130619,10,0.00984613,-1.31988,-0.27698,-0.213012,-396.307,0.20566,
2,1,0,1,0,16957.9,0.208403,0.208094,46.8823,9,0.0132514,10,0.00975594,-1.32899,-0.24993,-0.236067,-430.281,0.2080944,
2,1,0,1,0,16957.9,0.210803,0.210499,45.7894,9,0.0134366,10,0.00963864,-1.33924,-0.231943,-0.254373,-453.213,0.210499,
2,1,0,1,0,16957.9,0.213206,0.21289,44.664,9,0.0136175,10,0.0095085,-1.35004,-0.214807,-0.274665,-477.562,0.21289,
2,1,0,1,0,16957.9,0.215603,0.215316,43.4996,9,0.0137937,10,0.00936615,-1.36151,-0.205632,-0.28692,-486.103,0.215316,
2,1,0,1,0,16957.9,0.218,0.217691,42.2993,9,0.0139652,10,0.00920817,-1.37367,-0.197605,-0.298576,-492.188,0.217691,
2,1,0,1,0,16957.9,0.220408,0.220111,41.1172,9,0.0141319,10,0.00905034,-1.38598,-0.189246,-0.311763,-499.601,0.220111,
2,1,0,1,0,16957.9,0.222805,0.222563,39.9031,9,0.0142938,10,0.00888093,-1.39899,-0.187924,-0.313956,-488.82,0.222563,
2,1,0,1,0,16957.9,0.225202,0.22489,38.7162,9,0.0144509,10,0.0087069,-1.41211,-0.184313,-0.320107,-484.09,0.22489,
2,1,0,1,0,16957.9,0.227605,0.227339,37.5833,9,0.0146033,10,0.00854414,-1.425,-0.183729,-0.321125,-471.425,0.227339,
2,1,0,1,0,16957.9,0.230008,0.229701,36.4746,9,0.0147513,10,0.00837827,-1.43801,-0.186933,-0.315621,-449.85,0.229701,
2,1,0,1,0,16958,0.232405,0.232075,35.4185,9,0.014895,10,0.00821976,-1.45077,-0.189926,-0.310647,-430.159,0.232075,
2,1,0,1,0,16958,0.234802,0.234464,34.4096,9,0.0150345,10,0.00806781,-1.46332,-0.195939,-0.301113,-405.272,0.234464,
2,1,0,1,0,16958,0.237207,0.236927,33.4589,9,0.0151702,10,0.00792731,-1.47549,-0.201456,-0.292867,-383.397,0.236927,
2,1,0,1,0,16958,0.239604,0.23933,32.5725,9,0.0153021,10,0.00779556,-1.48715,-0.209893,-0.281095,-358.193,0.23933,
2,1,0,1,0,16958,0.242001,0.241679,31.7367,9,0.0154307,10,0.00767008,-1.49844,-0.217158,-0.271691,-337.37,0.241679,
2,1,0,1,0,16958,0.244404,0.244111,30.9539,9,0.0155559,10,0.0075562,-1.50928,-0.224837,-0.262412,-317.798,0.244111,
2,1,0,1,0,16958,0.246807,0.246495,30.2309,9,0.0156782,10,0.00745177,-1.51955,-0.238528,-0.247351,-292.555,0.246495,
2,1,0,1,0,16958,0.249204,0.248871,29.5402,9,0.0157977,10,0.0073517,-1.52959,-0.251535,-0.234559,-271.259,0.248871,
2,1,0,1,0,16958,0.251601,0.251309,28.9192,9,0.0159145,10,0.00726766,-1.53881,-0.262525,-0.22474,-254.328,0.251309,
2,1,0,1,0,16958,0.254006,0.253714,28.349,9,0.016029,10,0.00719255,-1.54746,-0.280428,-0.210393,-233.215,0.253714,
2,1,0,1,0,16958,0.256404,0.256066,27.7967,9,0.0161412,10,0.00711779,-1.55601,-0.293032,-0.201343,-218.902,0.256066,
2,1,0,1,0,16958,0.258801,0.258499,27.2949,9,0.0162514,10,0.0070557,-1.56392,-0.310829,-0.189815,-202.713,0.2584987,
2,1,0,1,0,16958,0.261203,0.260886,26.8229,9,0.0163595,10,0.00699771,-1.57149,-0.332664,-0.177356,-186.133,0.260886,
2,1,0,1,0,16958,0.263606,0.263314,26.403,9,0.016466,10,0.00695229,-1.57835,-0.347733,-0.169671,-175.135,0.263314,
2,1,0,1,0,16958,0.266003,0.265686,26.0061,9,0.0165707,10,0.00690945,-1.58493,-0.376085,-0.156879,-159.477,0.265686,
2,1,0,1,0,16958,0.2684,0.268062,25.62,9,0.016674,10,0.00686775,-1.59142,-0.393418,-0.149968,-150.27,0.2680625,
2,1,0,1,0,16958,0.270808,0.270513,25.2875,9,0.0167757,10,0.00684061,-1.59709,-0.41686,-0.141534,-139.895,0.270513,
2,1,0,1,0,16958,0.273205,0.272913,24.9606,9,0.0168762,10,0.00681207,-1.60274,-0.448807,-0.13146,-128.251,0.272913,
2,1,0,1,0,16958,0.275603,0.275314,24.6592,9,0.0169754,10,0.00678902,-1.60802,-0.462307,-0.127621,-122.986,0.275314,
2,1,0,1,0,16958,0.278008,0.277685,24.3859,9,0.0170735,10,0.0067716,-1.61286,-0.484174,-0.121857,-116.048,0.277685,
2,1,0,1,0,16958,0.280405,0.280107,24.1077,9,0.0171704,10,0.00675271,-1.61784,-0.512423,-0.115139,-108.455,0.2801066,
2,1,0,1,0,16958,0.282802,0.282468,23.8517,9,0.0172663,10,0.00673735,-1.62248,-0.538861,-0.10949,-102.092,0.282468,
2,1,0,1,0,16958,0.285199,0.284896,23.6199,9,0.0173612,10,0.00672923,-1.62672,-0.576511,-0.10234,-94.4655,0.284896,
2,1,0,1,0,16958,0.287608,0.287296,23.4047,9,0.0174553,10,0.00672407,-1.6307,-0.614064,-0.0960812,-87.8451,0.287296,
2,1,0,1,0,16958,0.290005,0.289696,23.2018,9,0.0175485,10,0.00672147,-1.63448,-0.641334,-0.0919958,-83.3531,0.289696,
2,1,0,1,0,16958.1,0.292402,0.292082,23.0072,9,0.0176409,10,0.00671999,-1.63814,-0.661987,-0.0891257,-80.0601,0.292082,
2,1,0,1,0,16958.1,0.294807,0.294529,22.817,9,0.0177325,10,0.00672028,-1.64174,-0.687089,-0.0858696,-76.5373,0.294529,
2,1,0,1,0,16958.1,0.297204,0.296926,22.6337,9,0.0178234,10,0.00672053,-1.64524,-0.697256,-0.0846174,-75.0221,0.296926,
2,1,0,1,0,16958.1,0.299421,0.299136,22.4793,9,0.0179069,10,0.00672436,-1.64822,-0.0930329,-0.634184,-534.101,0.299136,
2,1,0,0,0,16958.1,0.300012,0.299766,22.4308,9,0.0179293,10,0.00672397,-1.64916,0.0017093,34.5171,25231,0.299766,
2,1,0,1,0,16958.1,0.299243,0.299077,20.3879,9,0.0179563,10,0.00609755,-1.69063,0.0169011,3.4909,2230.92,0.299077,
2,1,0,1,0,16958.1,0.296846,0.296635,15.3031,9,0.0180267,10,0.00453944,-1.81522,0.0186415,3.16497,1764.44,0.296635,
2,1,0,1,0,16958.1,0.294449,0.29421,11.4906,9,0.0180796,10,0.00338066,-1.93966,0.0177701,3.32019,1505.31,0.29421,
2,1,0,1,0,16958.1,0.292041,0.291813,8.39969,9,0.0181189,10,0.00245114,-2.07574,0.0154147,3.82752,1210.52,0.291813,
2,1,0,1,0,16958.1,0.289644,0.289397,5.81581,9,0.018147,10,0.00168308,-2.23539,0.0116827,5.05021,1016.73,0.289397,
2,1,0,1,0,16958.1,0.287247,0.286983,3.61938,9,0.0181656,10,0.0010387,-2.44137,0.00480186,12.2869,866.858,0.286983,
2,1,0,1,0,16958.1,0.284841,0.284613,1.7334,9,0.018176,10,0.000493349,-2.7611,0.0150612,3.91735,742.516,0.284613,
2,1,0,1,0,16958.1,0.282444,0.282221,0.0844545,9,0.0181794,10,2.38348e-05,-4.07338,0.0663693,0.888965,646.193,0.282221,
2,0,0,1,0,16958.1,0.280047,0.279767,-1.33429,9,0.0181767,10,-0.000373289,-2.87475,-0.0293316,-2.01148,562.308,0.279767,
2,0,0,1,0,16958.1,0.27765,0.27737,-2.59289,9,0.0181687,10,-0.000719188,-2.58622,-0.00555819,-10.615,491.881,0.27737,
2,0,0,1,0,16958.1,0.275242,0.274947,-3.70223,9,0.0181559,10,-0.00101792,-2.43154,-0.0154885,-3.80928,440.629,0.274947,
2,0,0,1,0,16958.1,0.272845,0.272528,-4.68342,9,0.018139,10,-0.00127636,-2.32944,-0.0246105,-2.39735,393.313,0.2725279,
2,0,0,1,0,16958.1,0.270448,0.270156,-5.56941,9,0.0181184,10,-0.00150461,-2.25419,-0.0340481,-1.73284,352.012,0.270156,
2,0,0,1,0,16958.1,0.268039,0.267756,-6.37406,9,0.0180944,10,-0.00170669,-2.19558,-0.0442412,-1.3336,315.968,0.267756,
2,0,0,1,0,16958.1,0.265642,0.265384,-7.06843,9,0.0180674,10,-0.00187585,-2.15068,-0.0554918,-1.06322,283.851,0.265384,
2,0,0,1,0,16958.1,0.263245,0.262953,-7.70863,9,0.0180378,10,-0.00202701,-2.11302,-0.0675548,-0.873365,257.028,0.262953,
2,0,0,1,0,16958.1,0.260843,0.260563,-8.29223,9,0.0180057,10,-0.00216065,-2.08133,-0.0798371,-0.739005,235.036,0.260563,
2,0,0,1,0,16958.1,0.258443,0.258154,-8.84204,9,0.0179714,10,-0.00228261,-2.05345,-0.0932896,-0.632439,214.718,0.258154,
2,0,0,1,0,16958.1,0.256046,0.25574,-9.33521,9,0.0179349,10,-0.00238738,-2.02988,-0.106623,-0.553351,199.037,0.25574,
2,0,0,1,0,16958.1,0.253649,0.253346,-9.7715,9,0.0178967,10,-0.00247557,-2.01004,-0.122469,-0.481753,182.202,0.253346,
2,0,0,1,0,16958.1,0.25124,0.250942,-10.2072,9,0.0178566,10,-0.00256141,-1.99109,-0.137489,-0.429124,169.583,0.250942,
2,0,0,1,0,16958.2,0.248843,0.248547,-10.5925,9,0.017815,10,-0.00263273,-1.975,-0.151665,-0.389014,159.741,0.248547,
2,0,0,1,0,16958.2,0.246446,0.246158,-10.9601,9,0.0177719,10,-0.00269792,-1.96018,-0.171892,-0.34324,145.951,0.246158,
2,0,0,1,0,16958.2,0.244041,0.243719,-11.3094,9,0.0177273,10,-0.00275631,-1.94656,-0.189265,-0.311733,136.705,0.243719,
2,0,0,1,0,16958.2,0.241644,0.241303,-11.614,9,0.0176814,10,-0.0028025,-1.93502,-0.208091,-0.28353,127.95,0.241303,
2,0,0,1,0,16958.2,0.239247,0.238935,-11.9064,9,0.0176343,10,-0.00284487,-1.92422,-0.224186,-0.263174,122.076,0.238935,
2,0,0,1,0,16958.2,0.236849,0.236561,-12.188,9,0.0175861,10,-0.00288321,-1.91407,-0.239154,-0.246703,117.124,0.236561,
2,0,0,1,0,16958.2,0.234441,0.23412,-12.4812,9,0.0175367,10,-0.00292209,-1.90374,-0.256797,-0.229753,111.492,0.23412,
2,0,0,1,0,16958.2,0.232044,0.231751,-12.7328,9,0.0174863,10,-0.00295084,-1.89508,-0.273767,-0.215512,106.761,0.231751,
2,0,0,1,0,16958.2,0.229647,0.22933,-12.9773,9,0.0174348,10,-0.0029761,-1.88681,-0.298325,-0.197771,99.9777,0.22933,
2,0,0,1,0,16958.2,0.227239,0.226965,-13.2125,9,0.0173824,10,-0.00299877,-1.87902,-0.317111,-0.186055,95.7568,0.2269654,
2,0,0,1,0,16958.2,0.224842,0.224559,-13.437,9,0.0173291,10,-0.00301741,-1.8717,-0.33118,-0.178151,93.2949,0.224559,
2,0,0,1,0,16958.2,0.222445,0.222141,-13.6531,9,0.0172749,10,-0.0030329,-1.86477,-0.34559,-0.170723,90.913,0.222141,
2,0,0,1,0,16958.2,0.220047,0.219765,-13.8697,9,0.0172198,10,-0.00304808,-1.85793,-0.366313,-0.161065,87.081,0.219765,
2,0,0,1,0,16958.2,0.217642,0.217349,-14.0868,9,0.0171638,10,-0.00306174,-1.85119,-0.379559,-0.155443,85.2802,0.217349,
2,0,0,1,0,16958.2,0.215245,0.214896,-14.2785,9,0.0171071,10,-0.0030684,-1.84532,-0.386499,-0.152652,85.0408,0.214896,
2,0,0,1,0,16958.2,0.212848,0.21256,-14.4701,9,0.0170496,10,-0.00307576,-1.83953,-0.412384,-0.143071,80.8019,0.21256,
2,0,0,1,0,16958.2,0.21044,0.210154,-14.6871,9,0.0169912,10,-0.00308654,-1.83306,-0.412284,-0.143105,81.9169,0.2101537,
2,0,0,1,0,16958.2,0.208042,0.207744,-14.8628,9,0.0169321,10,-0.00308766,-1.8279,-0.42476,-0.138902,80.5087,0.207744,
2,0,0,1,0,16958.2,0.205645,0.205315,-15.0634,9,0.0168722,10,-0.00309273,-1.82208,-0.450984,-0.130825,76.8637,0.205315,
2,0,0,1,0,16958.2,0.203246,0.203002,-15.2396,9,0.0168116,10,-0.00309367,-1.81703,-0.44345,-0.133048,79.1333,0.2030023,
2,0,0,1,0,16958.2,0.200843,0.200514,-15.428,9,0.0167502,10,-0.00309353,-1.81169,-0.467499,-0.126204,75.9663,0.200514,
2,0,0,1,0,16958.2,0.198446,0.198128,-15.6238,9,0.0166881,10,-0.00309551,-1.80621,-0.465785,-0.126668,77.1771,0.198128,
2,0,0,1,0,16958.2,0.196049,0.195755,-15.7896,9,0.0166253,10,-0.00309089,-1.80163,-0.473496,-0.124605,76.8021,0.195755,
2,0,0,1,0,16958.2,0.19364,0.193273,-15.9904,9,0.0165617,10,-0.00309052,-1.79614,-0.491654,-0.120003,74.8409,0.1932731,
2,0,0,1,0,16958.2,0.191243,0.190926,-16.1644,9,0.0164974,10,-0.0030862,-1.79144,-0.469327,-0.125712,79.3136,0.1909264,
2,0,0,1,0,16958.3,0.188846,0.188531,-16.342,9,0.0164324,10,-0.00308098,-1.78669,-0.48093,-0.122679,78.3306,0.188531,
2,0,0,1,0,16958.3,0.186444,0.186183,-16.5488,9,0.0163665,10,-0.0030811,-1.78123,-0.475794,-0.124003,80.0677,0.1861832,
2,0,0,1,0,16958.3,0.184041,0.183752,-16.7363,9,0.0162999,10,-0.00307532,-1.77634,-0.468342,-0.125976,82.2668,0.183752,
2,0,0,1,0,16958.3,0.181644,0.18135,-16.9311,9,0.0162326,10,-0.00307046,-1.77131,-0.472766,-0.124798,82.5239,0.18135,
2,0,0,1,0,16958.3,0.179247,0.178952,-17.13,9,0.0161645,10,-0.00306546,-1.76624,-0.45306,-0.130226,87.1668,0.178952,
2,0,0,1,0,16958.3,0.176841,0.176535,-17.345,9,0.0160955,10,-0.00306199,-1.76083,-0.442215,-0.133419,90.3928,0.176535,
2,0,0,1,0,16958.3,0.174444,0.174156,-17.5727,9,0.0160256,10,-0.00306039,-1.75516,-0.431169,-0.136837,93.8762,0.174156,
2,0,0,1,0,16958.3,0.172047,0.17178,-17.7962,9,0.0159549,10,-0.00305703,-1.74967,-0.41785,-0.141199,98.1701,0.17178,
2,0,0,1,0,16958.3,0.169644,0.16931,-18.0352,9,0.0158832,10,-0.00305354,-1.74388,-0.409887,-0.143942,101.425,0.16931,
2,0,0,1,0,16958.3,0.167242,0.166875,-18.2933,9,0.0158105,10,-0.00305269,-1.73771,-0.393685,-0.149866,107.074,0.1668753,
2,0,0,1,0,16958.3,0.164845,0.164562,-18.5458,9,0.0157368,10,-0.00305193,-1.73175,-0.365257,-0.16153,117.183,0.164562,
2,0,0,1,0,16958.3,0.162448,0.162149,-18.8274,9,0.015662,10,-0.00305284,-1.72521,-0.355406,-0.166007,122.263,0.162149,
2,0,0,1,0,16958.3,0.160042,0.159768,-19.1533,9,0.015586,10,-0.0030601,-1.71776,-0.33627,-0.175454,131.276,0.159768,
2,0,0,1,0,16958.3,0.157645,0.157319,-19.4617,9,0.0155088,10,-0.00306169,-1.71082,-0.315599,-0.186946,142.283,0.157319,
2,0,0,1,0,16958.3,0.155248,0.154921,-19.8113,9,0.0154302,10,-0.0030692,-1.70309,-0.304833,-0.193548,150.078,0.154921,
2,0,0,1,0,16958.3,0.152845,0.152559,-20.1919,9,0.0153502,10,-0.00308046,-1.69482,-0.27993,-0.210767,166.53,0.152559,
2,0,0,1,0,16958.3,0.150443,0.150121,-20.6012,9,0.0152685,10,-0.00309267,-1.68611,-0.266848,-0.221099,178.205,0.150121,
2,0,0,1,0,16958.3,0.148046,0.147782,-21.0499,9,0.0151852,10,-0.00311079,-1.67675,-0.252673,-0.233504,192.327,0.147782,
2,0,0,1,0,16958.3,0.145648,0.145351,-21.5168,9,0.0151,10,-0.00312749,-1.66722,-0.23685,-0.249103,209.941,0.1453512,
2,0,0,1,0,16958.3,0.14324,0.142924,-22.045,9,0.0150128,10,-0.00315075,-1.65669,-0.225492,-0.26165,225.854,0.142924,
2,0,0,1,0,16958.3,0.140843,0.140503,-22.6204,9,0.0149235,10,-0.00317823,-1.6455,-0.210395,-0.280424,248.28,0.140503,
2,0,0,1,0,16958.3,0.138446,0.138167,-23.2214,9,0.0148317,10,-0.00320843,-1.63411,-0.201128,-0.293345,266.733,0.138167,
2,0,0,1,0,16958.3,0.136041,0.135763,-23.8973,9,0.0147374,10,-0.00324437,-1.62165,-0.192713,-0.306155,286.302,0.135763,
2,0,0,1,0,16958.3,0.133644,0.133347,-24.5993,9,0.0146404,10,-0.00328026,-1.60908,-0.184822,-0.319226,307.35,0.133347,
2,0,0,1,0,16958.3,0.131246,0.130951,-25.3552,9,0.0145404,10,-0.00332029,-1.59593,-0.177613,-0.332183,329.931,0.130951,
2,0,0,1,0,16958.4,0.128849,0.128548,-26.1778,9,0.0144373,10,-0.0033651,-1.58207,-0.171948,-0.343128,351.541,0.128548,
2,0,0,1,0,16958.4,0.126441,0.126154,-27.0678,9,0.0143307,10,-0.0034147,-1.56755,-0.167897,-0.351406,371.654,0.1261536,
2,0,0,1,0,16958.4,0.124044,0.123741,-27.9763,9,0.0142205,10,-0.00346182,-1.55321,-0.167199,-0.352873,385.488,0.123741,
2,0,0,1,0,16958.4,0.121647,0.121352,-28.9226,9,0.0141067,10,-0.00350982,-1.53876,-0.166969,-0.353359,399.063,0.121352,
2,0,0,1,0,16958.4,0.119241,0.118925,-29.8874,9,0.013989,10,-0.00355436,-1.52451,-0.168252,-0.350664,409.092,0.118925,
2,0,0,1,0,16958.4,0.116844,0.116572,-30.8915,9,0.0138673,10,-0.00360108,-1.51016,-0.170721,-0.345594,416.336,0.116572,
2,0,0,1,0,16958.4,0.114447,0.114163,-31.8949,9,0.0137416,10,-0.0036412,-1.49628,-0.173429,-0.340197,423.101,0.114163,
2,0,0,1,0,16958.4,0.11205,0.1118,-32.8995,9,0.013612,10,-0.00367816,-1.48281,-0.18104,-0.325895,417.883,0.1118,
2,0,0,1,0,16958.4,0.109642,0.109362,-33.9334,9,0.0134782,10,-0.00371103,-1.46937,-0.18877,-0.31255,412.509,0.109362,
2,0,0,1,0,16958.4,0.107245,0.106975,-34.9018,9,0.0133404,10,-0.00373363,-1.45715,-0.194881,-0.302749,411.504,0.106975,
2,0,0,1,0,16958.4,0.104848,0.104654,-35.8173,9,0.0131988,10,-0.00374842,-1.44591,-0.20311,-0.290482,406.272,0.104654,
2,0,0,1,0,16958.4,0.10244,0.102248,-36.8303,9,0.0130534,10,-0.00376581,-1.4338,-0.211985,-0.278322,399.531,0.1022478,
2,0,0,1,0,16958.4,0.100042,0.0998184,-37.8107,9,0.012904,10,-0.00377421,-1.42238,-0.21948,-0.268817,395.443,0.0998184,
2,0,0,1,0,16958.4,0.0976454,0.0973954,-38.7292,9,0.0127508,10,-0.00377205,-1.41196,-0.23447,-0.251632,379.414,0.0973954,
2,0,0,1,0,16958.4,0.0952427,0.0950031,-39.6336,9,0.012594,10,-0.00376532,-1.40194,-0.248156,-0.237754,366.989,0.0950031,
2,0,0,1,0,16958.4,0.0928428,0.0925801,-40.4983,9,0.0124337,10,-0.00374934,-1.39256,-0.26349,-0.223917,353.07,0.0925801,
2,0,0,1,0,16958.4,0.0904457,0.0901889,-41.3447,9,0.0122699,10,-0.00372883,-1.38358,-0.28044,-0.210384,338.588,0.0901889,
2,0,0,1,0,16958.4,0.0880486,0.0877817,-42.1235,9,0.0121029,10,-0.00369767,-1.37548,-0.298075,-0.197937,324.629,0.0877817,
2,0,0,1,0,16958.4,0.0856404,0.0854011,-42.8847,9,0.0119328,10,-0.0036624,-1.3677,-0.322733,-0.182813,305.229,0.08540111,
2,0,0,1,0,16958.4,0.0832433,0.083064,-43.5875,9,0.0117597,10,-0.00362055,-1.36064,-0.343243,-0.17189,291.856,0.083064,
2,0,0,1,0,16958.4,0.0808462,0.0806675,-44.2509,9,0.011584,10,-0.00356961,-1.35408,-0.372296,-0.158476,273.297,0.0806675,
2,0,0,1,0,16958.4,0.0784408,0.078202,-44.9194,9,0.0114056,10,-0.00351279,-1.34757,-0.401497,-0.14695,257.001,0.078202,
2,0,0,1,0,16958.4,0.0760437,0.0757663,-45.5179,9,0.0112246,10,-0.00344872,-1.34182,-0.437483,-0.134862,238.916,0.0757663,
2,0,0,1,0,16958.4,0.0736466,0.0734419,-46.0604,9,0.0110414,10,-0.00338276,-1.33667,-0.489084,-0.120634,216.347,0.0734419,
2,0,0,1,0,16958.4,0.0712495,0.0710231,-46.5551,9,0.0108561,10,-0.00330649,-1.33203,-0.543036,-0.108648,196.979,0.0710231,
2,0,0,1,0,16958.5,0.0688413,0.0685703,-47.0032,9,0.0106689,10,-0.00322302,-1.32787,-0.623649,-0.0946046,173.133,0.0685703,
2,0,0,1,0,16958.5,0.0664442,0.0661866,-47.4049,9,0.01048,10,-0.00313757,-1.32418,-0.722586,-0.0816512,150.666,0.0661866,
2,0,0,1,0,16958.5,0.0640471,0.0637709,-47.7348,9,0.0102897,10,-0.00304409,-1.32116,-0.856408,-0.0688924,128.025,0.0637709,
2,0,0,1,0,16958.5,0.0616389,0.061332,-48.0152,9,0.0100982,10,-0.00294487,-1.31862,-1.06663,-0.0553143,103.408,0.061332,
2,0,0,1,0,16958.5,0.0592417,0.058944,-48.2356,9,0.00990564,10,-0.0028432,-1.31663,-1.342,-0.0439642,82.5845,0.058944,
2,0,0,1,0,16958.5,0.0568446,0.0565443,-48.402,9,0.00971234,10,-0.00273686,-1.31514,-1.74006,-0.0339069,63.9428,0.0565443,
2,0,0,1,0,16958.5,0.0544475,0.0541191,-48.5319,9,0.00951845,10,-0.0026265,-1.31397,-2.57527,-0.0229102,43.3137,0.0541191,
2,0,0,1,0,16958.5,0.0520421,0.0517311,-48.6291,9,0.0093241,10,-0.00251564,-1.3131,-4.26145,-0.0138451,26.221,0.0517311,
2,0,0,1,0,16958.5,0.049645,0.049342,-48.6515,9,0.0091295,10,-0.00240056,-1.3129,-9.70167,-0.00608143,11.5316,0.049342,
2,0,0,1,0,16958.5,0.0472479,0.0469306,-48.6541,9,0.00893489,10,-0.00228337,-1.31288,21.819,0.00270406,-5.12928,0.0469306,
2,0,0,1,0,16958.5,0.0448397,0.0445405,-48.6423,9,0.00874032,10,-0.00216655,-1.31299,7.47012,0.00789813,-14.9741,0.0445405,
2,0,0,1,0,16958.5,0.0424426,0.042128,-48.5799,9,0.00854589,10,-0.00204657,-1.31354,4.30189,0.0137149,-25.9755,0.042128,
2,0,0,1,0,16958.5,0.0400455,0.0397188,-48.5074,9,0.00835172,10,-0.00192666,-1.31419,3.02518,0.019503,-36.8889,0.0397188,
2,0,0,1,0,16958.5,0.0376456,0.0373541,-48.4053,9,0.0081579,10,-0.00180814,-1.31511,2.55598,0.0230831,-43.5754,0.0373541,
2,0,0,1,0,16958.5,0.035243,0.0349597,-48.2889,9,0.00796451,10,-0.00168817,-1.31615,2.14896,0.0274551,-51.7098,0.0349597,
2,0,0,1,0,16958.5,0.0328459,0.0325441,-48.1622,9,0.0077716,10,-0.0015674,-1.31729,2.06265,0.028604,-53.7464,0.0325441,
2,0,0,1,0,16958.5,0.0304488,0.0301603,-48.0131,9,0.00757924,10,-0.00144809,-1.31864,1.89755,0.0310928,-58.2552,0.0301603,
2,0,0,1,0,16958.5,0.0280406,0.0277192,-47.8875,9,0.00738746,10,-0.0013274,-1.31978,1.7379,0.033949,-63.4065,0.0277192,
2,0,0,1,0,16958.5,0.0256435,0.025327,-47.7278,9,0.00719624,10,-0.0012088,-1.32123,1.67825,0.0351556,-65.4421,0.025327,
2,0,0,1,0,16958.5,0.0232463,0.0229304,-47.5527,9,0.00700571,10,-0.0010904,-1.32283,1.55595,0.0379189,-70.3655,0.0229304,
2,0,0,1,0,16958.5,0.0208437,0.0205477,-47.3841,9,0.00681586,10,-0.000973634,-1.32437,1.48131,0.0398296,-73.6388,0.0205477,
2,0,0,1,0,16958.5,0.018441,0.0181183,-47.2119,9,0.00662668,10,-0.000855401,-1.32595,1.4355,0.0411006,-75.6883,0.0181183,
2,0,0,1,0,16958.5,0.0160439,0.0157335,-47.0213,9,0.00643825,10,-0.000739808,-1.32771,1.34684,0.0438064,-80.3485,0.0157335,
2,0,0,1,0,16958.5,0.0136468,0.0132765,-46.822,9,0.00625055,10,-0.000621633,-1.32955,1.27194,0.0463859,-84.7305,0.0132765,
2,0,0,1,0,16958.5,0.0112414,0.0109585,-46.6136,9,0.00606368,10,-0.000510813,-1.33149,1.23012,0.0479629,-87.2297,0.01095846,
2,0,0,1,0,16958.6,0.00884431,0.00853543,-46.3999,9,0.00587768,10,-0.000396044,-1.33348,1.1581,0.0509453,-92.2187,0.00853543,
2,0,0,1,0,16958.6,0.0064472,0.00612619,-46.1833,9,0.00569252,10,-0.000282927,-1.33552,1.20156,0.0491029,-88.5057,0.00612619,
2,0,0,1,0,16958.6,0.00404455,0.00376785,-45.9451,9,0.0055083,10,-0.000173114,-1.33776,1.08764,0.0542461,-97.2348,0.00376785,
2,0,0,1,0,16958.6,0.0016419,0.0013024,-45.759,9,0.00532497,10,-5.95965e-05,-1.33952,0.994384,0.0593332,-105.754,0.0013024,
2,0,0,1,0,16958.6,-0.000755207,-0.00111321,-45.4618,9,0.00514257,10,5.06083e-05,-1.34235,0.946534,0.0623327,-110.461,-0.00111321,
2,0,0,1,0,16958.6,-0.00315231,-0.00353199,-45.1619,9,0.00496135,10,0.000159511,-1.34523,0.815145,0.0723798,-127.527,-0.00353199,
2,0,0,1,0,16958.6,-0.00555774,-0.00592639,-44.8743,9,0.00478128,10,0.000265943,-1.348,0.780775,0.075566,-132.194,-0.00592639,
2,0,0,1,0,16958.6,-0.00795485,-0.00826459,-44.5389,9,0.00460247,10,0.000368096,-1.35126,0.746578,0.0790272,-137.242,-0.008264591,
2,0,0,1,0,16958.6,-0.010352,-0.0106993,-44.1945,9,0.00442502,10,0.00047285,-1.35463,0.69183,0.0852811,-147.002,-0.0106993,
2,0,0,1,0,16958.6,-0.0127546,-0.0131499,-43.8419,9,0.00424899,10,0.000576516,-1.35811,0.67556,0.0873349,-149.329,-0.0131499,
2,0,0,1,0,16958.6,-0.0151573,-0.015486,-43.469,9,0.0040744,10,0.000673159,-1.36182,0.640883,0.0920604,-156.072,-0.015486,
2,0,0,1,0,16958.6,-0.0175544,-0.0179461,-43.0932,9,0.00390131,10,0.000773355,-1.36559,0.607348,0.0971437,-163.256,-0.0179461,
2,0,0,1,0,16958.6,-0.0199515,-0.0203151,-42.6938,9,0.00372977,10,0.000867327,-1.36964,0.596292,0.0989448,-164.78,-0.0203151,
2,0,0,1,0,16958.6,-0.0223597,-0.0226501,-42.2909,9,0.00355982,10,0.000957892,-1.37375,0.57707,0.102241,-168.702,-0.02265007,
2,0,0,1,0,16958.6,-0.0247568,-0.0250954,-41.8856,9,0.00339149,10,0.00105113,-1.37794,0.585082,0.100841,-164.876,-0.02509537,
2,0,0,1,0,16958.6,-0.0271539,-0.0275269,-41.4769,9,0.00322479,10,0.00114173,-1.38219,0.588245,0.100298,-162.443,-0.02752688,
2,0,0,1,0,16958.6,-0.0295593,-0.0299478,-41.1056,9,0.00305967,10,0.00123102,-1.3861,0.586395,0.100615,-161.406,-0.0299478,
2,0,0,1,0,16958.6,-0.0319564,-0.0323316,-40.7182,9,0.00289604,10,0.00131649,-1.39021,0.601126,0.0981492,-155.981,-0.03233159,
2,0,0,1,0,16958.6,-0.0343535,-0.034708,-40.334,9,0.00273397,10,0.00139991,-1.39433,0.606142,0.0973369,-153.358,-0.03470796,
2,0,0,1,0,16958.6,-0.0367506,-0.0371564,-39.9748,9,0.00257339,10,0.00148532,-1.39821,0.637341,0.0925721,-144.584,-0.0371564,
2,0,0,1,0,16958.6,-0.0391588,-0.0394766,-39.6443,9,0.00241416,10,0.00156502,-1.40182,0.675015,0.0874054,-135.359,-0.0394766,
2,0,0,1,0,16958.6,-0.0415559,-0.0419357,-39.3296,9,0.00225625,10,0.00164932,-1.40528,0.707637,0.083376,-128.08,-0.04193569,
2,0,0,1,0,16958.6,-0.043953,-0.0443025,-39.0353,9,0.00209956,10,0.00172936,-1.40854,0.759995,0.0776321,-118.371,-0.0443025,
2,0,0,1,0,16958.6,-0.0463585,-0.04668,-38.7551,9,0.001944,10,0.00180909,-1.41167,0.808746,0.0729525,-110.462,-0.04668,
2,0,0,1,0,16958.6,-0.0487556,-0.0491359,-38.5009,9,0.00178953,10,0.00189177,-1.41453,0.883361,0.0667904,-100.485,-0.0491359,
2,0,0,1,0,16958.7,-0.0511527,-0.0515175,-38.2712,9,0.001636,10,0.00197164,-1.41713,0.997066,0.0591736,-88.5101,-0.0515175,
2,0,0,1,0,16958.7,-0.0535498,-0.0539247,-38.0684,9,0.00148334,10,0.00205283,-1.41943,1.09604,0.0538302,-80.0735,-0.0539247,
2,0,0,1,0,16958.7,-0.055958,-0.0563244,-37.9015,9,0.00133142,10,0.00213477,-1.42134,1.21758,0.0484568,-71.722,-0.0563244,
2,0,0,1,0,16958.7,-0.0583551,-0.0587347,-37.7323,9,0.00118016,10,0.00221619,-1.42329,1.44963,0.0406999,-60.0093,-0.0587347,
2,0,0,1,0,16958.7,-0.0607522,-0.0611206,-37.5824,9,0.00102957,10,0.00229706,-1.42501,1.63909,0.0359956,-52.8852,-0.0611206,
2,0,0,1,0,16958.7,-0.0631604,-0.063516,-37.4929,9,0.000879423,10,0.0023814,-1.42605,2.0157,0.0292702,-42.8675,-0.063516,
2,0,0,1,0,16958.7,-0.0655575,-0.065955,-37.3921,9,0.000729653,10,0.0024662,-1.42722,2.63338,0.0224047,-32.7243,-0.065955,
2,0,0,1,0,16958.7,-0.0679546,-0.0683112,-37.3217,9,0.000580239,10,0.00254949,-1.42804,3.0591,0.0192867,-28.1193,-0.0683112,
2,0,0,1,0,16958.7,-0.0703573,-0.070695,-37.2691,9,0.000431074,10,0.00263474,-1.42865,4.46892,0.0132023,-19.2188,-0.070695,
2,0,0,1,0,16958.7,-0.0727571,-0.0731053,-37.2232,9,0.000282107,10,0.00272122,-1.42919,7.17939,0.00821797,-11.9515,-0.0731053,
2,0,0,1,0,16958.7,-0.0751542,-0.0754954,-37.2088,9,0.000133254,10,0.00280909,-1.42935,20.3789,0.00289515,-4.20871,-0.0754954,
2,0,0,1,0,16958.7,-0.0775514,-0.0779142,-37.207,9,-1.55784e-05,10,0.00289895,-1.42938,-24.1745,-0.00244058,3.54708,-0.0779142,
2,0,0,1,0,16958.7,-0.0799595,-0.0803161,-37.2286,9,-0.000164452,10,0.00299006,-1.42912,-10.7594,-0.00548356,7.97105,-0.0803161,
2,0,0,1,0,16958.7,-0.0823567,-0.0827391,-37.2574,9,-0.00031343,10,0.00308264,-1.42879,-5.41413,-0.0108974,15.8562,-0.0827391,
2,0,0,1,0,16958.7,-0.0847538,-0.0850529,-37.285,9,-0.000462516,10,0.00317119,-1.42847,-3.90304,-0.0151164,22.025,-0.0850529,
2,0,0,1,0,16958.7,-0.0871592,-0.0875279,-37.3594,9,-0.00061179,10,0.00326999,-1.4276,-3.20856,-0.0183883,26.8292,-0.0875279,
2,0,0,1,0,16958.7,-0.0895563,-0.0898777,-37.4392,9,-0.000761405,10,0.00336495,-1.42667,-2.54164,-0.0232133,33.9262,-0.0898777,
2,0,0,1,0,16958.7,-0.0919534,-0.0922955,-37.5138,9,-0.000911319,10,0.00346235,-1.42581,-2.24322,-0.0263015,38.5371,-0.0922955,
2,0,0,1,0,16958.7,-0.0943505,-0.0947079,-37.6125,9,-0.00106159,10,0.0035622,-1.42467,-2.04321,-0.0288761,42.4212,-0.0947079,
2,0,0,1,0,16958.7,-0.0967587,-0.0970949,-37.7281,9,-0.00121228,10,0.00366321,-1.42334,-1.84651,-0.0319523,47.0156,-0.0970949,
2,0,0,1,0,16958.7,-0.0991558,-0.0994893,-37.847,9,-0.00136344,10,0.00376537,-1.42197,-6.89315,-0.00855922,12.576,-0.0994893,
2,0,0,1,0,16958.7,-0.0999548,-0.100362,-37.893,9,-0.00141266,10,0.00380302,-1.42144,0.0199531,2.95693,-4035.74,-0.100362,
2,0,0,1,1,16958.7,-0.0999548,-0.1004,-37.6841,9,-0.0014353,10,0.00378349,-1.42384,-0.0249238,-2.36722,2986.49,-0.1004,
2,0,0,1,1,16958.7,-0.0979573,-0.0984267,-32.3531,9,-0.00154182,10,0.00318441,-1.49008,-0.0317594,-1.85772,2169.55,-0.0984267,
2,0,0,1,1,16958.7,-0.0955546,-0.0959814,-27.3709,9,-0.00166051,10,0.0026271,-1.56271,-0.0321604,-1.83455,1975.04,-0.0959814,
2,0,0,1,1,16958.7,-0.0931519,-0.0935712,-23.16,9,-0.00176098,10,0.00216711,-1.63526,-0.0320977,-1.83814,1675.25,-0.0935712,
2,0,0,1,1,16958.7,-0.0907548,-0.091181,-19.4759,9,-0.00184576,10,0.00177583,-1.7105,-0.0303005,-1.94716,1476.08,-0.091181,
2,0,0,1,1,16958.8,-0.0883578,-0.0887845,-16.1999,9,-0.0019167,10,0.0014383,-1.79049,-0.0279436,-2.11139,1317.5,-0.0887845,
2,0,0,1,1,16958.8,-0.0859523,-0.0863731,-13.1883,9,-0.00197511,10,0.00113911,-1.87981,-0.0246115,-2.39725,1202.65,-0.0863731,
2,0,0,1,1,16958.8,-0.0835552,-0.0839448,-10.4772,9,-0.00202209,10,0.000879507,-1.97975,-0.0208375,-2.83143,1102.21,-0.0839448,
2,0,0,1,1,16958.8,-0.0811581,-0.0815864,-7.937,9,-0.00205861,10,0.000647552,-2.10034,-0.0164273,-3.59157,1017.38,-0.0815864,
2,0,0,1,1,16958.8,-0.0787554,-0.0791623,-5.59425,9,-0.0020854,10,0.000442854,-2.25226,-0.0110545,-5.33718,945.563,-0.0791623,
2,0,0,1,1,16958.8,-0.0763528,-0.0767966,-3.44528,9,-0.00210321,10,0.000264585,-2.46278,-0.00766394,-7.69839,875.003,-0.0767966,
2,0,0,1,1,16958.8,-0.0739557,-0.0743735,-1.427,9,-0.00211272,10,0.000106131,-2.84557,-0.0238641,-2.47233,818.203,-0.0743735,
2,1,0,1,1,16958.8,-0.0715586,-0.0720057,0.446215,9,-0.00211445,10,-3.213e-05,-3.35046,0.185894,0.317386,759.243,-0.0720057,
2,1,0,1,1,16958.8,-0.0691532,-0.069606,2.22481,9,-0.00210892,10,-0.00015486,-2.65271,0.0164931,3.57726,716.299,-0.069606,
2,1,0,1,1,16958.8,-0.0667561,-0.0671448,3.8828,9,-0.00209649,10,-0.00026071,-2.41085,0.00808574,7.2968,669.469,-0.0671448,
2,1,0,1,1,16958.8,-0.0643589,-0.0648129,5.42126,9,-0.00207768,10,-0.000351367,-2.2659,0.0168394,3.5037,628.743,-0.0648129,
2,1,0,1,1,16958.8,-0.0619563,-0.0624016,6.87586,9,-0.00205292,10,-0.000429064,-2.16267,0.024345,2.4235,596.047,-0.0624016,
2,1,0,1,1,16958.8,-0.0595536,-0.0600199,8.25199,9,-0.00202249,10,-0.000495283,-2.08344,0.0321207,1.83682,559.637,-0.0600199,
2,1,0,1,1,16958.8,-0.0571565,-0.0576149,9.56306,9,-0.00198673,10,-0.000550975,-2.0194,0.0395402,1.49215,535.323,-0.0576149,
2,1,0,1,1,16958.8,-0.0547594,-0.0551897,10.8067,9,-0.00194585,10,-0.000596421,-1.9663,0.0483363,1.22061,498.783,-0.0551897,
2,1,0,1,1,16958.8,-0.0523512,-0.0528685,11.9791,9,-0.00190013,10,-0.000633319,-1.92157,0.0573039,1.0296,469.474,-0.0528685,
2,1,0,1,1,16958.8,-0.0499541,-0.0503903,13.0551,9,-0.00184995,10,-0.000657848,-1.88422,0.0662956,0.889954,445.369,-0.0503903,
2,1,0,1,1,16958.8,-0.047557,-0.0479577,14.0968,9,-0.00179552,10,-0.000676052,-1.85088,0.0767148,0.769082,417.209,-0.0479577,
2,1,0,1,1,16958.8,-0.0451544,-0.0456047,15.0756,9,-0.00173706,10,-0.000687519,-1.82172,0.0860215,0.685875,398.427,-0.0456047,
2,1,0,1,1,16958.8,-0.0427545,-0.0431923,16.0161,9,-0.00167476,10,-0.000691773,-1.79544,0.0973888,0.605819,374.048,-0.0431923,
2,1,0,1,1,16958.8,-0.0403574,-0.0407958,16.8778,9,-0.00160886,10,-0.000688542,-1.77268,0.109683,0.537915,350.808,-0.0407958,
2,1,0,1,1,16958.8,-0.0379603,-0.0383801,17.6793,9,-0.00153966,10,-0.000678535,-1.75253,0.123109,0.47925,328.288,-0.0383801,
2,1,0,1,1,16958.8,-0.0355521,-0.0359582,18.4597,9,-0.00146728,10,-0.000663777,-1.73378,0.136953,0.430806,308.128,-0.0359582,
2,1,0,1,1,16958.8,-0.033155,-0.0335447,19.1833,9,-0.0013919,10,-0.000643499,-1.71708,0.150002,0.393329,292.541,-0.0335447,
2,1,0,1,1,16958.8,-0.0307579,-0.0311291,19.8564,9,-0.00131376,10,-0.00061811,-1.7021,0.166762,0.353798,272.612,-0.0311291,
2,1,0,1,1,16958.9,-0.0283524,-0.0287188,20.5057,9,-0.00123297,10,-0.000588898,-1.68813,0.182426,0.32342,257.368,-0.0287188,
2,1,0,1,1,16958.9,-0.0259553,-0.0263254,21.0857,9,-0.00114971,10,-0.00055509,-1.67601,0.198728,0.296888,243.322,-0.0263254,
2,1,0,1,1,16958.9,-0.0235582,-0.0239724,21.6469,9,-0.00106416,10,-0.000518929,-1.6646,0.217668,0.271055,228.291,-0.0239724,
2,1,0,1,1,16958.9,-0.0211611,-0.0215494,22.1873,9,-0.000976435,10,-0.000478122,-1.6539,0.23645,0.249524,215.223,-0.0215494,
2,1,0,1,1,16958.9,-0.0187529,-0.019138,22.6929,9,-0.000886596,10,-0.000434296,-1.64411,0.259047,0.227758,200.887,-0.019138,
2,1,0,1,1,16958.9,-0.0163558,-0.0167415,23.1484,9,-0.000794858,10,-0.000387538,-1.63548,0.283786,0.207903,187.252,-0.0167415,
2,1,0,1,1,16958.9,-0.0139587,-0.0143428,23.5814,9,-0.000701341,10,-0.000338224,-1.62743,0.306977,0.192197,176.495,-0.0143428,
2,1,0,1,1,16958.9,-0.0115505,-0.0119081,23.9926,9,-0.00060615,10,-0.000285708,-1.61992,0.333704,0.176803,165.14,-0.0119081,
2,1,0,1,1,16958.9,-0.0091534,-0.00953602,24.3876,9,-0.00050935,10,-0.00023256,-1.61283,0.361575,0.163175,154.857,-0.00953602,
2,1,0,1,1,16958.9,-0.00675629,-0.00713208,24.7353,9,-0.000411064,10,-0.000176414,-1.60668,0.390781,0.15098,145.435,-0.00713208,
2,1,0,1,1,16958.9,-0.00435919,-0.00474086,25.0683,9,-0.000311416,10,-0.000118845,-1.60087,0.459329,0.128448,125.101,-0.00474086,
2,1,0,1,1,16958.9,-0.00195376,-0.00233373,25.3851,9,-0.000210453,10,-5.92421e-05,-1.59542, , , ,-0.00233373,
2,1,0,0,1,16958.9,-7.54729e-05,-0.000382585,25.5327,9,-0.000131448,10,-9.76844e-06,-1.5929, , , ,-0.000382585,