File: Figure_codes/Fig_3-5/rawdata_trumpetplot_data/after 10th/20221101_1-115_003_TrumpetPlot_ParaChange_from10_every3_08_CV_C01_19.csv
mode,ox/red,error,control changes,counter inc.,time/s,control/V,Ewe/V,<I>/mA,cycle number,(Q-Qo)/C,I Range,P/W,log(|I|),Tafel slope mV/dec,alpha_eff,dI/d(E-IR),E-IR/V,
2,0,0,0,0,38607.5,2.44065e-05,-0.000363498,-4.00527,20,0.0000000E+000,10,1.45591e-06,-2.39737, , , ,-0.000363498,
2,0,0,1,0,38607.5,0.0012943,0.000928304,-2.33192,20,-4.77395e-05,10,-2.16473e-06,-2.63229, , , ,0.000928304,
2,0,0,1,0,38607.5,0.00279784,0.00251426,-1.098,20,-7.89953e-05,10,-2.76065e-06,-2.9594,-0.00175144,-33.6866,706.433,0.00251426,
2,0,0,1,0,38607.5,0.00429425,0.00398709,-0.255353,20,-9.097e-05,10,-1.01812e-06,-3.59286,-0.00968318,-6.09304,499.499,0.00398709,
2,1,0,1,0,38607.6,0.00579065,0.00545984,0.37579,20,-8.92937e-05,10,2.05175e-06,-3.42505,0.0137001,4.30653,379.919,0.00545984,
2,1,0,1,0,38607.6,0.0072942,0.00698887,0.873814,20,-7.70698e-05,10,6.10697e-06,-3.05858,0.00451763,13.0599,301.458,0.00698887,
2,1,0,1,0,38607.6,0.00878347,0.00844871,1.26148,20,-5.67984e-05,10,1.06579e-05,-2.89912,0.0108513,5.43716,240.454,0.00844871,
2,1,0,1,0,38607.6,0.010287,0.00995217,1.57753,20,-2.96788e-05,10,1.56998e-05,-2.80202,0.0177781,3.31869,194.268,0.00995217,
2,1,0,1,0,38607.6,0.0117905,0.0114447,1.84506,20,2.94395e-06,10,2.11163e-05,-2.73399,0.0252287,2.33861,163.382,0.0114447,
2,1,0,1,0,38607.7,0.013278,0.0129145,2.06229,20,3.9658e-05,10,2.66334e-05,-2.68565,0.034684,1.70107,134.718,0.0129145,
2,1,0,1,0,38607.7,0.0147816,0.0144503,2.25332,20,8.05785e-05,10,3.25611e-05,-2.64718,0.0442936,1.33202,115.791,0.0144503,
2,1,0,1,0,38607.7,0.0162851,0.0159756,2.42267,20,0.000124873,10,3.87035e-05,-2.61571,0.0554656,1.06372,99.3987,0.0159756,
2,1,0,1,0,38607.7,0.0177744,0.0174351,2.56095,20,0.000171474,10,4.46503e-05,-2.5916,0.068026,0.867316,86.1018,0.0174351,
2,1,0,1,0,38607.7,0.0192779,0.0188973,2.68409,20,0.000220999,10,5.0722e-05,-2.5712,0.0796879,0.740388,77.2687,0.0188973,
2,1,0,1,0,38607.8,0.0207743,0.0204647,2.80319,20,0.000272523,10,5.73664e-05,-2.55235,0.0882246,0.668747,72.691,0.0204647,
2,1,0,1,0,38607.8,0.0222707,0.0219615,2.91148,20,0.000326108,10,6.39404e-05,-2.53589,0.100423,0.587513,66.3743,0.0219615,
2,1,0,1,0,38607.8,0.0237743,0.0234711,3.00445,20,0.000381828,10,7.05178e-05,-2.52223,0.111117,0.530974,61.9759,0.0234711,
2,1,0,1,0,38607.8,0.0252636,0.0249606,3.08607,20,0.00043863,10,7.70303e-05,-2.51059,0.117136,0.503687,60.5744,0.0249606,
2,1,0,1,0,38607.8,0.0267671,0.0264348,3.17396,20,0.000497647,10,8.39029e-05,-2.4984,0.125222,0.471165,58.222,0.0264348,
2,1,0,1,0,38607.8,0.0282706,0.0279259,3.25551,20,0.000558301,10,9.09132e-05,-2.48738,0.133054,0.443428,56.2368,0.0279259,
2,1,0,1,0,38607.9,0.0297581,0.029396,3.32624,20,0.000619769,10,9.77782e-05,-2.47805,0.147544,0.39988,51.8431,0.029396,
2,1,0,1,0,38607.9,0.0312617,0.0309056,3.3953,20,0.000683307,10,0.000104934,-2.46912,0.158958,0.371167,49.2629,0.0309056,
2,1,0,1,0,38607.9,0.0327652,0.0324476,3.46955,20,0.000748153,10,0.000112579,-2.45973,0.167106,0.353069,47.8335,0.0324476,
2,1,0,1,0,38607.9,0.0342545,0.0339702,3.54336,20,0.000813671,10,0.000120368,-2.45058,0.175014,0.337115,46.6313,0.0339702,
2,1,0,1,0,38607.9,0.035758,0.0353952,3.61248,20,0.00088124,10,0.000127865,-2.44219,0.190772,0.309269,43.5963,0.0353952,
2,1,0,1,0,38608,0.0372544,0.0369469,3.68135,20,0.000949779,10,0.000136015,-2.43399,0.199558,0.295654,42.4759,0.0369469,
2,1,0,1,0,38608,0.0387508,0.0384386,3.74906,20,0.00101951,10,0.000144109,-2.42608,0.202027,0.29204,42.8227,0.0384386,
2,1,0,1,0,38608,0.0402544,0.0399581,3.82293,20,0.00109091,10,0.000152757,-2.4176,0.199757,0.295358,44.0451,0.0399581,
2,1,0,1,0,38608,0.0417436,0.0414077,3.89745,20,0.00116288,10,0.000161384,-2.40922,0.20558,0.286993,43.5482,0.04140773,
2,1,0,1,0,38608,0.0432472,0.0428938,3.96037,20,0.00123687,10,0.000169875,-2.40226,0.219846,0.26837,41.386,0.04289382,
2,1,0,1,0,38608.1,0.0447507,0.0444494,4.01988,20,0.00131203,10,0.000178682,-2.39579,0.219723,0.26852,42.0942,0.04444943,
2,1,0,1,0,38608.1,0.0462382,0.0459294,4.09026,20,0.00138757,10,0.000187863,-2.38825,0.214551,0.274993,43.8361,0.04592938,
2,1,0,1,0,38608.1,0.0477418,0.0474243,4.15122,20,0.00146518,10,0.000196869,-2.38182,0.207065,0.284935,46.1546,0.0474243,
2,1,0,1,0,38608.1,0.0492453,0.0489915,4.21382,20,0.00154405,10,0.000206441,-2.37532,0.229148,0.257475,42.3068,0.0489915,
2,1,0,1,0,38608.1,0.0507346,0.0504193,4.26568,20,0.0016232,10,0.000215072,-2.37001,0.226371,0.260634,43.4871,0.0504193,
2,1,0,1,0,38608.1,0.0522381,0.0518972,4.33127,20,0.00170432,10,0.000224781,-2.36339,0.227426,0.259425,43.9128,0.0518972,
2,1,0,1,0,38608.2,0.0537345,0.0533936,4.39977,20,0.00178625,10,0.00023492,-2.35657,0.223795,0.263634,45.2555,0.0533936,
2,1,0,1,0,38608.2,0.0552309,0.0549509,4.45888,20,0.00186933,10,0.000245019,-2.35077,0.257248,0.229351,39.8947,0.0549509,
2,1,0,1,0,38608.2,0.0567345,0.0563637,4.51254,20,0.00195398,10,0.000254343,-2.34558,0.260796,0.226231,39.8803,0.0563637,
2,1,0,1,0,38608.2,0.0582237,0.0578835,4.57596,20,0.00203879,10,0.000264872,-2.33952,0.268737,0.219545,39.236,0.0578835,
2,1,0,1,0,38608.2,0.0597273,0.0593876,4.63582,20,0.00212566,10,0.00027531,-2.33387,0.283654,0.208,37.6416,0.0593876,
2,1,0,1,0,38608.3,0.0612308,0.0609283,4.69717,20,0.00221369,10,0.00028619,-2.32816,0.289961,0.203476,37.2741,0.0609283,
2,1,0,1,0,38608.3,0.0627183,0.0624092,4.75856,20,0.00230185,10,0.000296978,-2.32252,0.302947,0.194753,36.1389,0.0624092,
2,1,0,1,0,38608.3,0.0642218,0.063926,4.81179,20,0.00239195,10,0.000307599,-2.31769,0.301169,0.195903,36.7902,0.063926,
2,1,0,1,0,38608.3,0.0657254,0.0654165,4.87169,20,0.00248316,10,0.000318689,-2.31232,0.304519,0.193748,36.7767,0.0654165,
2,1,0,1,0,38608.3,0.0672147,0.0668924,4.92922,20,0.00257448,10,0.000329727,-2.30722,0.312096,0.189044,36.2904,0.0668924,
2,1,0,1,0,38608.4,0.0687182,0.0684224,4.9762,20,0.00266777,10,0.000340484,-2.3031,0.338438,0.17433,33.8523,0.0684224,
2,1,0,1,0,38608.4,0.0702146,0.0698916,5.02529,20,0.00276149,10,0.000351226,-2.29884,0.327272,0.180278,35.3536,0.0698916,
2,1,0,1,0,38608.4,0.071711,0.0713557,5.08408,20,0.0028562,10,0.000362778,-2.29379,0.308423,0.191295,37.8901,0.07135573,
2,1,0,1,0,38608.4,0.0732146,0.0728844,5.1301,20,0.00295242,10,0.000373904,-2.28987,0.320556,0.184055,36.8562,0.0728844,
2,1,0,1,0,38608.4,0.0747038,0.0743906,5.18249,20,0.00304857,10,0.000385529,-2.28546,0.357306,0.165125,33.3742,0.0743906,
2,1,0,1,0,38608.4,0.0762074,0.0758586,5.21995,20,0.0031466,10,0.000395978,-2.28233,0.369822,0.159536,32.5418,0.0758586,
2,1,0,1,0,38608.5,0.0777109,0.0773396,5.26735,20,0.00324551,10,0.000407375,-2.27841,0.372322,0.158465,32.5967,0.0773396,
2,1,0,1,0,38608.5,0.0791984,0.0789119,5.31781,20,0.00334427,10,0.000419638,-2.27427,0.399194,0.147798,30.6663,0.0789119,
2,1,0,1,0,38608.5,0.0807019,0.0804171,5.36275,20,0.00344498,10,0.000431256,-2.27061,0.452307,0.130442,27.2905,0.0804171,
2,1,0,1,0,38608.5,0.0822055,0.0818367,5.39739,20,0.00354651,10,0.000441705,-2.26782,0.501621,0.117619,24.8075,0.0818367,
2,1,0,1,0,38608.5,0.0836948,0.0833787,5.44395,20,0.00364763,10,0.000453909,-2.26409,0.505986,0.116604,24.8064,0.0833787,
2,1,0,1,0,38608.6,0.0851983,0.0848726,5.48163,20,0.00375062,10,0.00046524,-2.26109,0.510247,0.11563,24.7658,0.0848726,
2,1,0,1,0,38608.6,0.0866947,0.0863702,5.52978,20,0.00385385,10,0.000477608,-2.25729,0.507506,0.116255,25.066,0.0863702,
2,1,0,1,0,38608.6,0.0881911,0.0878731,5.56872,20,0.00395781,10,0.000489341,-2.25424,0.507144,0.116338,25.2872,0.0878731,
2,1,0,1,0,38608.6,0.0896946,0.0893414,5.60723,20,0.00406302,10,0.000500958,-2.25125,0.515928,0.114357,25.0254,0.0893414,
2,1,0,1,0,38608.6,0.0911839,0.0908742,5.65541,20,0.0041679,10,0.000513931,-2.24754,0.456171,0.129338,28.5161,0.0908742,
2,1,0,1,0,38608.7,0.0926857,0.0923906,5.70078,20,0.00427473,10,0.000526699,-2.24407,0.421501,0.139976,31.0892,0.0923906,
2,1,0,1,0,38608.7,0.0941892,0.0938593,5.7376,20,0.00438239,10,0.000538527,-2.24127,0.43487,0.135673,30.3772,0.0938593,
2,1,0,1,0,38608.7,0.0956785,0.0953669,5.77763,20,0.00448968,10,0.000550994,-2.23825,0.388662,0.151803,34.2745,0.0953669,
2,1,0,1,0,38608.7,0.097182,0.0968387,5.83094,20,0.00459904,10,0.000564661,-2.23426,0.353111,0.167086,38.0397,0.0968387,
2,1,0,1,0,38608.7,0.0986856,0.0983581,5.88322,20,0.00470942,10,0.000578663,-2.23038,0.332732,0.17732,40.7606,0.0983581,
2,1,0,1,0,38608.7,0.100175,0.099805,5.94061,20,0.00481965,10,0.000592903,-2.22617,0.326014,0.180974,42.0038,0.09980502,
2,1,0,1,0,38608.8,0.101678,0.101298,6.00034,20,0.00493223,10,0.000607824,-2.22182,0.3148,0.187421,43.972,0.101298,
2,1,0,1,0,38608.8,0.103175,0.10287,6.07402,20,0.00504542,10,0.000624832,-2.21652,0.29453,0.200319,47.5399,0.1028696,
2,1,0,1,0,38608.8,0.104671,0.104349,6.15556,20,0.00515996,10,0.000642327,-2.21073,0.276028,0.213747,51.3472,0.104349,
2,1,0,1,0,38608.8,0.106175,0.105846,6.22966,20,0.00527664,10,0.000659385,-2.20554,0.280848,0.210078,51.0641,0.105846,
2,1,0,1,0,38608.8,0.107662,0.107339,6.31614,20,0.00539358,10,0.000677969,-2.19955,0.272494,0.216519,53.3746,0.107339,
2,1,0,1,0,38608.9,0.109166,0.108842,6.39254,20,0.00551323,10,0.000695776,-2.19433,0.25922,0.227606,56.8931,0.108842,
2,1,0,1,0,38608.9,0.110669,0.110373,6.48553,20,0.00563455,10,0.000715827,-2.18805,0.241867,0.243936,61.7996,0.110373,
2,1,0,1,0,38608.9,0.112159,0.111843,6.59092,20,0.00575636,10,0.000737151,-2.18105,0.243531,0.242269,62.2524,0.111843,
2,1,0,1,0,38608.9,0.113662,0.113373,6.68724,20,0.00588134,10,0.000758155,-2.17475,0.242488,0.243311,63.4501,0.113373,
2,1,0,1,0,38608.9,0.115166,0.114802,6.77935,20,0.00600809,10,0.000778282,-2.16881,0.243618,0.242182,64.0369,0.114802,
2,1,0,1,0,38609,0.116655,0.116305,6.87986,20,0.00613531,10,0.000800159,-2.16242,0.238267,0.247621,66.4577,0.116305,
2,1,0,1,0,38609,0.118158,0.117859,6.97761,20,0.00626574,10,0.000822371,-2.15629,0.252906,0.233288,63.4545,0.117859,
2,1,0,1,0,38609,0.119655,0.119333,7.0748,20,0.0063973,10,0.000844257,-2.15029,0.270207,0.218351,60.1851,0.119333,
2,1,0,1,0,38609,0.121151,0.120785,7.15089,20,0.00653047,10,0.000863718,-2.14564,0.274238,0.215142,60.0364,0.120785,
2,1,0,1,0,38609,0.122655,0.122328,7.23469,20,0.00666596,10,0.000885009,-2.14058,0.279698,0.210942,59.5586,0.1223284,
2,1,0,1,0,38609,0.124142,0.123863,7.31463,20,0.00680162,10,0.000906014,-2.13581,0.31565,0.186916,53.3443,0.123863,
2,1,0,1,0,38609.1,0.125646,0.125344,7.39215,20,0.0069402,10,0.000926559,-2.13123,0.352023,0.167603,48.3263,0.125344,
2,1,0,1,0,38609.1,0.127149,0.126831,7.45377,20,0.00708012,10,0.000945367,-2.12762,0.393396,0.149976,43.6664,0.126831,
2,1,0,1,0,38609.1,0.128639,0.128334,7.52682,20,0.00721978,10,0.000965948,-2.12339,0.434996,0.135633,39.8347,0.128334,
2,1,0,1,0,38609.1,0.130142,0.129821,7.59084,20,0.00736212,10,0.000985447,-2.11971,0.476315,0.123868,36.67,0.129821,
2,1,0,1,0,38609.1,0.131646,0.13138,7.64561,20,0.00750564,10,0.00100448,-2.11659,0.519466,0.113578,33.8664,0.13138,
2,1,0,1,0,38609.2,0.133135,0.132838,7.69877,20,0.00764857,10,0.00102269,-2.11358,0.606973,0.0972036,29.1951,0.132838,
2,1,0,1,0,38609.2,0.134639,0.134313,7.74484,20,0.0077939,10,0.00104023,-2.11099,0.648094,0.0910362,27.4988,0.134313,
2,1,0,1,0,38609.2,0.136135,0.135793,7.7955,20,0.00793937,10,0.00105857,-2.10816,0.673591,0.0875903,26.6059,0.135793,
2,1,0,1,0,38609.2,0.137631,0.137356,7.83015,20,0.00808554,10,0.00107551,-2.10623,0.780466,0.0755959,23.0758,0.137356,
2,1,0,1,0,38609.2,0.139135,0.138833,7.86223,20,0.00823321,10,0.00109154,-2.10445,0.888849,0.066378,20.3299,0.138833,
2,1,0,1,0,38609.3,0.140622,0.140333,7.88649,20,0.00837982,10,0.00110673,-2.10312,1.09119,0.0540692,16.6299,0.140333,
2,1,0,1,0,38609.3,0.142126,0.141798,7.90398,20,0.00852844,10,0.00112077,-2.10215,1.3671,0.0431569,13.2918,0.141798,
2,1,0,1,0,38609.3,0.143629,0.143326,7.91331,20,0.00867742,10,0.00113418,-2.10164,3.58124,0.0164748,5.0817,0.143326,
2,1,0,1,0,38609.3,0.145119,0.144808,7.90575,20,0.00882483,10,0.00114482,-2.10206,-1.86714,-0.0315992,-9.74101,0.144808,
2,1,0,1,0,38609.3,0.146622,0.146308,7.88044,20,0.00897356,10,0.00115297,-2.10345,-0.905751,-0.0651393,-20.0057,0.146308,
2,1,0,1,0,38609.3,0.148126,0.147817,7.84048,20,0.00912171,10,0.00115896,-2.10566,-0.557133,-0.105899,-32.3489,0.147817,
2,1,0,1,0,38609.4,0.149615,0.149309,7.78532,20,0.00926732,10,0.00116242,-2.10872,-0.366171,-0.161127,-48.8451,0.149309,
2,1,0,1,0,38609.4,0.151119,0.150846,7.69744,20,0.00941317,10,0.00116112,-2.11365,-0.260952,-0.226095,-67.7147,0.150846,
2,1,0,1,0,38609.4,0.152615,0.152315,7.58443,20,0.00955642,10,0.00115522,-2.12008,-0.206248,-0.286064,-84.4516,0.152315,
2,1,0,1,0,38609.4,0.154111,0.15382,7.44662,20,0.00969724,10,0.00114544,-2.12804,-0.165936,-0.355558,-103.118,0.1538201,
2,1,0,1,0,38609.4,0.155615,0.155282,7.28876,20,0.00983601,10,0.00113181,-2.13735,-0.141411,-0.417222,-118.29,0.155282,
2,1,0,1,0,38609.5,0.157103,0.156799,7.10942,20,0.00997014,10,0.00111475,-2.14817,-0.123313,-0.478459,-132.222,0.156799,
2,1,0,1,0,38609.5,0.158606,0.158299,6.90032,20,0.010102,10,0.00109231,-2.16113,-0.110805,-0.532469,-143.003,0.158299,
2,1,0,1,0,38609.5,0.16011,0.159796,6.67562,20,0.0102297,10,0.00106674,-2.17551,-0.100797,-0.585334,-152.161,0.159796,
2,1,0,1,0,38609.5,0.161599,0.161259,6.4487,20,0.0103519,10,0.00103991,-2.19053,-0.0977139,-0.603803,-151.594,0.161259,
2,1,0,1,0,38609.5,0.163102,0.162835,6.20947,20,0.010471,10,0.00101112,-2.20695,-0.0912833,-0.646339,-156.504,0.162835,
2,1,0,1,0,38609.6,0.164606,0.164273,5.97257,20,0.0105857,10,0.000981135,-2.22384,-0.0889288,-0.663452,-154.678,0.164273,
2,1,0,1,0,38609.6,0.166095,0.165779,5.74774,20,0.0106949,10,0.000952855,-2.2405,-0.0917768,-0.642864,-144.378,0.165779,
2,1,0,1,0,38609.6,0.167599,0.167292,5.52911,20,0.010801,10,0.000924975,-2.25734,-0.0927422,-0.636172,-137.499,0.167292,
2,1,0,1,0,38609.6,0.169095,0.168751,5.33144,20,0.0109028,10,0.000899688,-2.27316,-0.0967286,-0.609954,-127.094,0.168751,
2,1,0,1,0,38609.6,0.170592,0.17029,5.1437,20,0.0110009,10,0.000875923,-2.28872,-0.100219,-0.588714,-118.356,0.17029,
2,1,0,1,0,38609.6,0.172095,0.171765,4.96037,20,0.0110962,10,0.000852019,-2.30449,-0.103736,-0.56875,-110.556,0.171765,
2,1,0,1,0,38609.7,0.173583,0.173278,4.8101,20,0.0111873,10,0.000833483,-2.31785,-0.111317,-0.530016,-99.7607,0.173278,
2,1,0,1,0,38609.7,0.175086,0.174761,4.67159,20,0.0112767,10,0.000816413,-2.33054,-0.116452,-0.506644,-92.4841,0.174761,
2,1,0,1,0,38609.7,0.17659,0.176293,4.5341,20,0.0113635,10,0.000799331,-2.34351,-0.120388,-0.490082,-86.9448,0.176293,
2,1,0,1,0,38609.7,0.178079,0.17778,4.4209,20,0.011447,10,0.000785948,-2.35449,-0.131491,-0.448701,-77.5627,0.17778,
2,1,0,1,0,38609.7,0.179582,0.17926,4.31764,20,0.0115293,10,0.000773978,-2.36475,-0.140707,-0.419312,-70.77,0.17926,
2,1,0,1,0,38609.8,0.181086,0.180783,4.21844,20,0.0116097,10,0.00076262,-2.37485,-0.160309,-0.368038,-60.7364,0.180783,
2,1,0,1,0,38609.8,0.182575,0.182285,4.1369,20,0.0116876,10,0.000754097,-2.38332,-0.169795,-0.347478,-56.1098,0.182285,
2,1,0,1,0,38609.8,0.184079,0.183748,4.05981,20,0.0117647,10,0.00074598,-2.39149,-0.181345,-0.325347,-51.5345,0.183748,
2,1,0,1,0,38609.8,0.185582,0.185275,3.98521,20,0.0118404,10,0.000738359,-2.39955,-0.202868,-0.290829,-45.2677,0.185275,
2,1,0,1,0,38609.8,0.18707,0.186833,3.92267,20,0.011914,10,0.000732884,-2.40642,-0.219379,-0.268941,-41.1208,0.186833,
2,1,0,1,0,38609.9,0.188573,0.18826,3.8607,20,0.0119873,10,0.000726816,-2.41333,-0.257228,-0.229369,-34.5521,0.18826,
2,1,0,1,0,38609.9,0.19007,0.189733,3.80207,20,0.0120591,10,0.000721378,-2.41998,-0.255859,-0.230596,-34.2264,0.189733,
2,1,0,1,0,38609.9,0.191566,0.191256,3.74897,20,0.0121299,10,0.000717013,-2.42609,-0.281526,-0.209572,-30.7151,0.191256,
2,1,0,1,0,38609.9,0.19307,0.192732,3.70372,20,0.0122002,10,0.000713826,-2.43136,-0.317081,-0.186072,-26.9193,0.192732,
2,1,0,1,0,38609.9,0.194559,0.194263,3.66234,20,0.012269,10,0.000711459,-2.43624,-0.358715,-0.164476,-23.5605,0.1942634,
2,1,0,1,0,38609.9,0.196063,0.195707,3.6215,20,0.0123377,10,0.000708754,-2.44111,-0.342515,-0.172255,-24.3835,0.195707,
2,1,0,1,0,38610,0.197566,0.197231,3.57803,20,0.0124058,10,0.000705699,-2.44636,-0.331607,-0.177922,-24.9467,0.197231,
2,1,0,1,0,38610,0.199055,0.198753,3.55851,20,0.0124724,10,0.000707266,-2.44873,-0.372715,-0.158298,-21.9897,0.198753,
2,1,0,1,0,38610,0.200559,0.20026,3.52863,20,0.0125392,10,0.000706643,-2.45239,-0.386877,-0.152503,-20.9876,0.20026,
2,1,0,1,0,38610,0.202062,0.201804,3.49873,20,0.0126055,10,0.000706057,-2.45609,-0.437169,-0.134959,-18.435,0.201804,
2,1,0,1,0,38610,0.20355,0.203218,3.47243,20,0.0126706,10,0.000705661,-2.45937,-0.426737,-0.138258,-18.7442,0.203218,
2,1,0,1,0,38610.1,0.205054,0.204727,3.45163,20,0.0127358,10,0.000706642,-2.46198,-0.490728,-0.120229,-16.2371,0.204727,
2,1,0,1,0,38610.1,0.20655,0.206257,3.43028,20,0.0128004,10,0.000707517,-2.46467,-0.62095,-0.0950157,-12.7213,0.2062567,
2,1,0,1,0,38610.1,0.208046,0.207789,3.41658,20,0.0128646,10,0.000709928,-2.46641,-0.615674,-0.09583,-12.7393,0.207789,
2,1,0,1,0,38610.1,0.20955,0.209224,3.397,20,0.0129288,10,0.000710735,-2.4689,-0.555733,-0.106166,-14.05,0.2092241,
2,1,0,1,0,38610.1,0.211039,0.210694,3.37452,20,0.0129918,10,0.000710991,-2.47179,-0.735949,-0.0801686,-10.5604,0.210694,
2,1,0,1,0,38610.2,0.212543,0.212226,3.35446,20,0.0130552,10,0.000711904,-2.47438,-0.886289,-0.0665697,-8.71415,0.212226,
2,1,0,1,0,38610.2,0.214046,0.213731,3.3351,20,0.0131184,10,0.000712814,-2.47689,-0.889431,-0.0663345,-8.64269,0.213731,
2,1,0,1,0,38610.2,0.215535,0.21527,3.32132,20,0.0131805,10,0.000714981,-2.47869,-0.818921,-0.072046,-9.34495,0.21527,
2,1,0,1,0,38610.2,0.217039,0.21672,3.30135,20,0.0132431,10,0.000715469,-2.48131,-1.022,-0.0577301,-7.45519,0.21672,
2,1,0,1,0,38610.2,0.218543,0.218254,3.29102,20,0.0133053,10,0.00071828,-2.48267,-1.32559,-0.0445085,-5.71964,0.2182541,
2,1,0,1,0,38610.2,0.22003,0.21971,3.27728,20,0.0133667,10,0.000720051,-2.48449,-0.92483,-0.0637955,-8.17047,0.21971,
2,1,0,1,0,38610.3,0.221534,0.221286,3.26917,20,0.0134285,10,0.000723422,-2.48556,-0.784849,-0.0751737,-9.58899,0.221286,
2,1,0,1,0,38610.3,0.22303,0.222773,3.25179,20,0.0134898,10,0.000724412,-2.48788,-0.901423,-0.0654521,-8.32269,0.222773,
2,1,0,1,0,38610.3,0.224526,0.224234,3.24399,20,0.0135508,10,0.000727412,-2.48892,-0.831817,-0.070929,-8.99058,0.224234,
2,1,0,1,0,38610.3,0.22603,0.225731,3.23575,20,0.0136119,10,0.000730408,-2.49002,-0.80718,-0.073094,-9.22763,0.225731,
2,1,0,1,0,38610.3,0.227519,0.227243,3.23033,20,0.0136723,10,0.000734068,-2.49075,-0.836091,-0.0705665,-8.88318,0.227243,
2,1,0,1,0,38610.4,0.229023,0.228705,3.2215,20,0.0137331,10,0.000736773,-2.49194,-0.856762,-0.068864,-8.6509,0.228705,
2,1,0,1,0,38610.4,0.230526,0.230212,3.20819,20,0.0137937,10,0.000738562,-2.49374,-1.19563,-0.0493463,-6.18304,0.230212,
2,1,0,1,0,38610.4,0.232016,0.231722,3.20351,20,0.0138535,10,0.000742324,-2.49437,-2.45729,-0.0240102,-2.99491,0.231722,
2,1,0,1,0,38610.4,0.233519,0.233153,3.19565,20,0.0139138,10,0.000745074,-2.49544,-1.39232,-0.0423753,-5.27372,0.233153,
2,1,0,1,0,38610.4,0.235023,0.234741,3.18598,20,0.0139739,10,0.000747881,-2.49676,-2.35927,-0.0250078,-3.10427,0.234741,
2,1,0,1,0,38610.5,0.23651,0.236213,3.17647,20,0.0140332,10,0.000750322,-2.49806,-2.29866,-0.0256671,-3.1803,0.236213,
2,1,0,1,0,38610.5,0.238014,0.23774,3.16328,20,0.0140931,10,0.000752038,-2.49986,-3.37678,-0.0174723,-2.15852,0.23774,
2,1,0,1,0,38610.5,0.23951,0.23919,3.15628,20,0.0141524,10,0.000754952,-2.50082,-2.70588,-0.0218044,-2.6881,0.23919,
2,1,0,1,0,38610.5,0.241006,0.240702,3.14683,20,0.0142117,10,0.000757448,-2.50213,-1.65272,-0.0356986,-4.39285,0.240702,
2,1,0,1,0,38610.5,0.24251,0.242246,3.13624,20,0.0142711,10,0.000759741,-2.50359,-1.75295,-0.0336576,-4.13332,0.242246,
2,1,0,1,0,38610.5,0.243999,0.243733,3.13873,20,0.0143298,10,0.000765013,-2.50325,-1.54471,-0.0381949,-4.68052,0.243733,
2,1,0,1,0,38610.6,0.245503,0.245235,3.13247,20,0.014389,10,0.00076819,-2.50411,-1.4028,-0.0420588,-5.1409,0.245235,
2,1,0,1,0,38610.6,0.247006,0.246721,3.12955,20,0.0144481,10,0.000772127,-2.50452,-1.1189,-0.0527304,-6.43039,0.246721,
2,1,0,1,0,38610.6,0.248496,0.248218,3.12049,20,0.0145065,10,0.000774562,-2.50578,-1.14877,-0.0513593,-6.25988,0.248218,
2,1,0,1,0,38610.6,0.249999,0.249704,3.11567,20,0.0145653,10,0.000777996,-2.50645,-1.20725,-0.0488715,-5.94197,0.249704,
2,1,0,1,0,38610.6,0.251503,0.251192,3.11473,20,0.014624,10,0.000782395,-2.50658,-2.33186,-0.0253017,-3.07201,0.251192,
2,1,0,1,0,38610.7,0.25299,0.252689,3.10876,20,0.014682,10,0.000785549,-2.50741,-1.38765,-0.042518,-5.14344,0.252689,
2,1,0,1,0,38610.7,0.254494,0.25422,3.10193,20,0.0147406,10,0.000788574,-2.50837,-1.91069,-0.0308789,-3.73541,0.2542204,
2,1,0,1,0,38610.7,0.25599,0.25569,3.09066,20,0.0147987,10,0.000790251,-2.50995,-1.85093,-0.0318758,-3.84832,0.25569,
2,1,0,1,0,38610.7,0.257487,0.257166,3.09286,20,0.0148567,10,0.000795376,-2.50964,-22.9314,-0.00257289,-0.309927,0.257166,
2,1,0,1,0,38610.7,0.25899,0.258723,3.08861,20,0.0149149,10,0.000799094,-2.51024,-38.1824,-0.00154521,-0.185833,0.258723,
2,1,0,1,0,38610.8,0.260479,0.260216,3.08161,20,0.0149725,10,0.000801883,-2.51122,-2.27703,-0.0259109,-3.113,0.260216,
2,1,0,1,0,38610.8,0.261983,0.261632,3.07043,20,0.0150305,10,0.000803323,-2.5128,-2.33397,-0.0252788,-3.03135,0.261632,
2,1,0,1,0,38610.8,0.263486,0.2632,3.06677,20,0.0150884,10,0.000807175,-2.51332,-6.09834,-0.00967476,-1.15738,0.2632,
2,1,0,1,0,38610.8,0.264974,0.264646,3.05803,20,0.0151456,10,0.000809296,-2.51456,-2.97579,-0.0198267,-2.36926,0.264646,
2,1,0,1,0,38610.8,0.266477,0.266193,3.05226,20,0.0152034,10,0.000812492,-2.51538,-1.8758,-0.0314533,-3.75253,0.266193,
2,1,0,1,0,38610.8,0.267981,0.267683,3.04913,20,0.015261,10,0.000816202,-2.51582,-1.50139,-0.0392969,-4.68126,0.267683,
2,1,0,1,0,38610.9,0.26947,0.269143,3.04517,20,0.0153179,10,0.000819585,-2.51639,-2.09614,-0.028147,-3.34886,0.269143,
2,1,0,1,0,38610.9,0.270974,0.2707,3.04441,20,0.0153754,10,0.00082412,-2.5165,-2.04982,-0.0287831,-3.41613,0.2707,
2,1,0,1,0,38610.9,0.27247,0.272134,3.03731,20,0.0154325,10,0.000826557,-2.51751,-1.48273,-0.0397913,-4.7129,0.2721343,
2,1,0,1,0,38610.9,0.273967,0.273665,3.03014,20,0.0154895,10,0.000829243,-2.51854,-1.4077,-0.0419124,-4.96369,0.273665,
2,1,0,1,0,38610.9,0.27547,0.275188,3.02611,20,0.0155466,10,0.000832749,-2.51912,-1.48902,-0.0396235,-4.68332,0.275188,
2,1,0,1,0,38611,0.276959,0.276676,3.02717,20,0.0156031,10,0.000837545,-2.51896,-2.46159,-0.0239682,-2.82866,0.276676,
2,1,0,1,0,38611,0.278463,0.278205,3.02284,20,0.0156601,10,0.000840967,-2.51959,-1.83322,-0.0321838,-3.78746,0.278205,
2,1,0,1,0,38611,0.279967,0.279682,3.01722,20,0.015717,10,0.000843862,-2.52039,-5.45706,-0.0108117,-1.27124,0.279682,
2,1,0,1,0,38611,0.281454,0.281128,3.00526,20,0.0157731,10,0.000844864,-2.52212,-4.65711,-0.0126688,-1.4856,0.281128,
2,1,0,1,0,38611,0.282958,0.282637,3.00273,20,0.0158298,10,0.00084868,-2.52248,10.2347,0.00576469,0.675205,0.282637,
2,1,0,1,0,38611.1,0.284461,0.284149,2.99172,20,0.0158864,10,0.000850093,-2.52408,-207.676,-0.000284097,-0.0331959,0.284149,
2,1,0,1,0,38611.1,0.28595,0.285651,2.99133,20,0.0159423,10,0.000854477,-2.52414,-1.82329,-0.0323591,-3.78044,0.285651,
2,1,0,1,0,38611.1,0.287454,0.28718,2.97641,20,0.0159987,10,0.000854767,-2.52631,-1.75864,-0.0335486,-3.90788,0.28718,
2,1,0,1,0,38611.1,0.28895,0.288612,2.97336,20,0.0160547,10,0.000858149,-2.52675,-4.86178,-0.0121355,-1.41151,0.288612,
2,1,0,1,0,38611.1,0.290447,0.290127,2.96896,20,0.0161106,10,0.000861377,-2.5274,-2.08458,-0.028303,-3.28778,0.290127,
2,1,0,1,0,38611.1,0.29195,0.291679,2.96693,20,0.0161667,10,0.000865391,-2.52769,-0.967306,-0.0609942,-7.06353,0.291679,
2,1,0,1,0,38611.2,0.29344,0.293094,2.95877,20,0.0162221,10,0.000867199,-2.52889,-1.42355,-0.0414458,-4.7947,0.293094,
2,1,0,1,0,38611.2,0.294943,0.294599,2.95489,20,0.0162779,10,0.000870509,-2.52946,-1.24288,-0.0474706,-5.48189,0.294599,
2,1,0,1,0,38611.2,0.296447,0.296156,2.95649,20,0.0163338,10,0.000875581,-2.52922,-1.72335,-0.0342357,-3.94779,0.296156,
2,1,0,1,0,38611.2,0.297934,0.297625,2.953,20,0.0163889,10,0.000878887,-2.52974,-1.56218,-0.0377678,-4.34555,0.2976253,
2,1,0,1,0,38611.2,0.299438,0.299141,2.9418,20,0.0164445,10,0.000880015,-2.53139,-0.0295134,-1.99909,-211.301,0.299141,
2,1,0,1,0,38611.2,0.300012,0.299537,2.94084,20,0.0164652,10,0.000880889,-2.53153,0.00159744,36.934,2695.2,0.299537,
2,1,0,1,0,38611.3,0.298737,0.298446,1.45021,20,0.0164978,10,0.000432809,-2.83857,0.00354511,16.6426,794.224,0.298446,
2,1,0,1,0,38611.3,0.29724,0.296888,0.577146,20,0.0165156,10,0.000171348,-3.23871,0.00317315,18.5935,493.514,0.2968882,
2,1,0,1,0,38611.3,0.295744,0.295448,0.0356435,20,0.0165207,10,1.05308e-05,-4.44802,0.0135327,4.35981,304.328,0.295448,
2,0,0,1,0,38611.3,0.29424,0.293936,-0.316122,20,0.0165175,10,-9.29197e-05,-3.50015,-0.00756272,-7.80143,202.202,0.293936,
2,0,0,1,0,38611.3,0.292751,0.292428,-0.558359,20,0.016509,10,-0.00016328,-3.25309,-0.00707317,-8.34138,145.114,0.292428,
2,0,0,1,0,38611.4,0.291248,0.290922,-0.745761,20,0.0164964,10,-0.000216958,-3.1274,-0.0145806,-4.04649,108.062,0.290922,
2,0,0,1,0,38611.4,0.289744,0.289421,-0.888363,20,0.0164808,10,-0.000257111,-3.05141,-0.0234239,-2.51879,83.6076,0.289421,
2,0,0,1,0,38611.4,0.288257,0.28797,-1.00271,20,0.016463,10,-0.000288751,-2.99882,-0.0340375,-1.73338,65.8358,0.28797,
2,0,0,1,0,38611.4,0.286753,0.286423,-1.09119,20,0.0164431,10,-0.000312542,-2.9621,-0.0446784,-1.32055,55.5597,0.286423,
2,0,0,1,0,38611.4,0.285249,0.284938,-1.16677,20,0.0164217,10,-0.000332457,-2.93302,-0.0549207,-1.07428,48.6282,0.284938,
2,0,0,1,0,38611.4,0.28376,0.283453,-1.23922,20,0.0163991,10,-0.000351261,-2.90685,-0.067554,-0.873376,41.8877,0.283453,
2,0,0,1,0,38611.5,0.282257,0.281927,-1.29789,20,0.016375,10,-0.000365909,-2.88676,-0.0827438,-0.713044,35.8646,0.281927,
2,0,0,1,0,38611.5,0.28076,0.28048,-1.35696,20,0.01635,10,-0.000380599,-2.86743,-0.0920579,-0.640901,33.6195,0.28048,
2,0,0,1,0,38611.5,0.279264,0.278964,-1.3993,20,0.0163241,10,-0.000390353,-2.85409,-0.102791,-0.573979,31.2372,0.278964,
2,0,0,1,0,38611.5,0.27776,0.277455,-1.44395,20,0.0162972,10,-0.000400632,-2.84045,-0.114158,-0.516827,29.0224,0.277455,
2,0,0,1,0,38611.5,0.276271,0.275954,-1.48438,20,0.0162698,10,-0.000409622,-2.82845,-0.112954,-0.522335,30.1593,0.275954,
2,0,0,1,0,38611.6,0.274767,0.274429,-1.51991,20,0.0162413,10,-0.000417108,-2.81818,-0.130772,-0.451166,26.7147,0.274429,
2,0,0,1,0,38611.6,0.273264,0.27294,-1.55483,20,0.0162122,10,-0.000424377,-2.80832,-0.151625,-0.389118,23.6188,0.27294,
2,0,0,1,0,38611.6,0.271776,0.271479,-1.58562,20,0.0161827,10,-0.000430463,-2.7998,-0.156393,-0.377254,23.4273,0.2714794,
2,0,0,1,0,38611.6,0.270273,0.269951,-1.62295,20,0.0161523,10,-0.000438118,-2.78969,-0.17172,-0.343583,21.7585,0.269951,
2,0,0,1,0,38611.6,0.268769,0.268442,-1.65315,20,0.0161213,10,-0.000443776,-2.78169,-0.206585,-0.285596,18.418,0.268442,
2,0,0,1,0,38611.7,0.26728,0.266944,-1.6764,20,0.01609,10,-0.000447505,-2.77562,-0.220813,-0.267194,17.5128,0.266944,
2,0,0,1,0,38611.7,0.265777,0.265451,-1.71041,20,0.016058,10,-0.000454028,-2.7669,-0.251039,-0.235023,15.6686,0.265451,
2,0,0,1,0,38611.7,0.26428,0.263956,-1.73991,20,0.0160255,10,-0.00045926,-2.75947,-0.246776,-0.239083,16.2046,0.263956,
2,0,0,1,0,38611.7,0.262784,0.262418,-1.76232,20,0.0159926,10,-0.000462465,-2.75391,-0.298035,-0.197963,13.6116,0.262418,
2,0,0,1,0,38611.7,0.26128,0.26096,-1.78997,20,0.015959,10,-0.00046711,-2.74716,-0.265821,-0.221954,15.4682,0.26096,
2,0,0,1,0,38611.7,0.259791,0.259493,-1.81574,20,0.0159254,10,-0.00047117,-2.74095,-0.270322,-0.218258,15.463,0.259493,
2,0,0,1,0,38611.8,0.258287,0.257989,-1.83619,20,0.0158909,10,-0.000473718,-2.73608,-0.264134,-0.223372,15.9706,0.257989,
2,0,0,1,0,38611.8,0.256786,0.256444,-1.86224,20,0.015856,10,-0.000477561,-2.72996,-0.275091,-0.214475,15.5307,0.256444,
2,0,0,1,0,38611.8,0.255296,0.25499,-1.87849,20,0.0158211,10,-0.000478998,-2.72619,-0.276987,-0.213006,15.6066,0.25499,
2,0,0,1,0,38611.8,0.253793,0.253465,-1.89936,20,0.0157854,10,-0.000481423,-2.72139,-0.294113,-0.200603,14.8536,0.253465,
2,0,0,1,0,38611.8,0.252289,0.251951,-1.91963,20,0.0157493,10,-0.000483653,-2.71678,-0.277923,-0.212289,15.891,0.2519514,
2,0,0,1,0,38611.9,0.2508,0.250509,-1.94001,20,0.0157132,10,-0.000485991,-2.7122,-0.322701,-0.182832,13.8442,0.250509,
2,0,0,1,0,38611.9,0.249296,0.248979,-1.95815,20,0.0156763,10,-0.000487539,-2.70815,-0.341583,-0.172725,13.1971,0.248979,
2,0,0,1,0,38611.9,0.2478,0.247474,-1.97344,20,0.0156393,10,-0.000488375,-2.70478,-0.375773,-0.15701,12.1477,0.2474741,
2,0,0,1,0,38611.9,0.246304,0.246001,-1.99058,20,0.0156019,10,-0.000489685,-2.70102,-0.375455,-0.157143,12.2567,0.246001,
2,0,0,1,0,38611.9,0.2448,0.24448,-2.01893,20,0.0155639,10,-0.000493589,-2.69488,-0.40026,-0.147404,11.6055,0.24448,
2,0,0,1,0,38612,0.243313,0.24296,-2.03282,20,0.015526,10,-0.000493895,-2.6919,-0.472812,-0.124785,9.91169,0.24296,
2,0,0,1,0,38612,0.241809,0.241504,-2.05065,20,0.0154874,10,-0.00049524,-2.68811,-0.438391,-0.134583,10.796,0.241504,
2,0,0,1,0,38612,0.240306,0.239972,-2.07126,20,0.0154484,10,-0.000497045,-2.68376,-0.455302,-0.129584,10.48,0.239972,
2,0,0,1,0,38612,0.238816,0.238476,-2.09299,20,0.0154095,10,-0.000499127,-2.67923,-0.463003,-0.127429,10.3915,0.238476,
2,0,0,1,0,38612,0.237313,0.236934,-2.1079,20,0.0153699,10,-0.000499433,-2.67615,-0.52863,-0.111609,9.16327,0.236934,
2,0,0,1,0,38612,0.235809,0.235494,-2.13005,20,0.0153299,10,-0.000501614,-2.67161,-0.444348,-0.132779,10.9909,0.235494,
2,0,0,1,0,38612.1,0.23432,0.233969,-2.13999,20,0.0152901,10,-0.000500692,-2.66959,-0.366354,-0.161047,13.456,0.233969,
2,0,0,1,0,38612.1,0.232816,0.232485,-2.15839,20,0.0152495,10,-0.000501793,-2.66587,-0.37025,-0.159352,13.4157,0.232485,
2,0,0,1,0,38612.1,0.23132,0.23099,-2.17755,20,0.0152088,10,-0.000502992,-2.66203,-0.364863,-0.161704,13.709,0.23099,
2,0,0,1,0,38612.1,0.229824,0.229495,-2.18955,20,0.0151678,10,-0.00050249,-2.65965,-0.432851,-0.136306,11.6505,0.229495,
2,0,0,1,0,38612.1,0.22832,0.227966,-2.20395,20,0.0151263,10,-0.000502427,-2.6568,-0.434854,-0.135678,11.6845,0.227966,
2,0,0,1,0,38612.2,0.226833,0.226518,-2.21728,20,0.0150849,10,-0.000502254,-2.65418,-0.40622,-0.145242,12.5834,0.226518,
2,0,0,1,0,38612.2,0.225329,0.225025,-2.23253,20,0.0150429,10,-0.000502375,-2.6512,-0.443966,-0.132893,11.6107,0.225025,
2,0,0,1,0,38612.2,0.223825,0.223496,-2.24794,20,0.0150004,10,-0.000502404,-2.64822,-0.536132,-0.110048,9.67724,0.223496,
2,0,0,1,0,38612.2,0.222336,0.221959,-2.26011,20,0.0149582,10,-0.000501653,-2.64587,-0.516353,-0.114263,10.1192,0.221959,
2,0,0,1,0,38612.2,0.220833,0.220518,-2.27996,20,0.0149153,10,-0.00050277,-2.64207,-0.457165,-0.129056,11.4981,0.220518,
2,0,0,1,0,38612.3,0.219329,0.218995,-2.30238,20,0.014872,10,-0.00050421,-2.63782,-0.564693,-0.104481,9.37704,0.218995,
2,0,0,1,0,38612.3,0.21784,0.2175,-2.3255,20,0.0148288,10,-0.000505797,-2.63348,-0.651972,-0.0904947,8.15807,0.2175,
2,0,0,1,0,38612.3,0.216336,0.216031,-2.3287,20,0.0147849,10,-0.000503073,-2.63289,-0.745585,-0.0791325,7.20119,0.216031,
2,0,0,1,0,38612.3,0.21484,0.214503,-2.34965,20,0.014741,10,-0.000504007,-2.629,-0.566365,-0.104173,9.5567,0.214503,
2,0,0,1,0,38612.3,0.213343,0.212976,-2.36662,20,0.0146968,10,-0.000504033,-2.62587,-0.574155,-0.10276,9.47732,0.212976,
2,0,0,1,0,38612.3,0.21184,0.211492,-2.38398,20,0.014652,10,-0.000504192,-2.6227,-0.521623,-0.113108,10.4889,0.211492,
2,0,0,1,0,38612.4,0.210352,0.209987,-2.39948,20,0.0146075,10,-0.000503858,-2.61988,-0.525306,-0.112316,10.4701,0.209987,
2,0,0,1,0,38612.4,0.208849,0.208546,-2.40757,20,0.0145622,10,-0.000502089,-2.61842,-0.401281,-0.147029,13.8284,0.2085465,
2,0,0,1,0,38612.4,0.207345,0.207042,-2.42228,20,0.0145166,10,-0.000501513,-2.61578,-0.370132,-0.159402,15.0725,0.207042,
2,0,0,1,0,38612.4,0.205856,0.205573,-2.44437,20,0.0144711,10,-0.000502496,-2.61183,-0.409292,-0.144152,13.7143,0.205573,
2,0,0,1,0,38612.4,0.204353,0.20397,-2.45699,20,0.0144248,10,-0.000501151,-2.6096,-0.550748,-0.107127,10.2721,0.20397,
2,0,0,1,0,38612.5,0.202849,0.20253,-2.47151,20,0.0143783,10,-0.000500555,-2.60704,-0.520843,-0.113278,10.9407,0.20253,
2,0,0,1,0,38612.5,0.20136,0.201035,-2.48616,20,0.014332,10,-0.000499805,-2.60447,-0.52717,-0.111918,10.8694,0.201035,
2,0,0,1,0,38612.5,0.199856,0.199511,-2.50131,20,0.0142848,10,-0.000499037,-2.60183,-0.551024,-0.107073,10.4762,0.199511,
2,0,0,1,0,38612.5,0.19836,0.198014,-2.5168,20,0.0142376,10,-0.000498361,-2.59915,-0.597466,-0.0987504,9.71114,0.1980136,
2,0,0,1,0,38612.5,0.196863,0.196526,-2.53226,20,0.0141902,10,-0.000497654,-2.59649,-0.635379,-0.092858,9.19619,0.196526,
2,0,0,1,0,38612.6,0.19536,0.195006,-2.55336,20,0.0141421,10,-0.000497922,-2.59289,-0.533351,-0.110621,11.0292,0.195006,
2,0,0,1,0,38612.6,0.193872,0.193514,-2.57896,20,0.0140943,10,-0.000499063,-2.58856,-0.498068,-0.118458,11.8901,0.193514,
2,0,0,1,0,38612.6,0.192369,0.192006,-2.59505,20,0.0140455,10,-0.000498265,-2.58585,-0.59485,-0.0991847,10.0141,0.192006,
2,0,0,1,0,38612.6,0.190865,0.190556,-2.6089,20,0.0139965,10,-0.000497142,-2.58354,-0.575761,-0.102473,10.4214,0.190556,
2,0,0,1,0,38612.6,0.189376,0.18906,-2.62687,20,0.0139477,10,-0.000496637,-2.58056,-0.465089,-0.126858,13.013,0.18906,
2,0,0,1,0,38612.6,0.187872,0.187554,-2.64186,20,0.013898,10,-0.000495491,-2.57809,-0.414429,-0.142365,14.6909,0.187554,
2,0,0,1,0,38612.7,0.186369,0.186022,-2.66423,20,0.0138479,10,-0.000495606,-2.57443,-0.404835,-0.145738,15.1258,0.1860221,
2,0,0,1,0,38612.7,0.18488,0.184543,-2.68448,20,0.013798,10,-0.000495402,-2.57114,-0.458096,-0.128794,13.4714,0.184543,
2,0,0,1,0,38612.7,0.183376,0.183101,-2.6986,20,0.0137472,10,-0.000494118,-2.56886,-0.410643,-0.143677,15.1553,0.1831014,
2,0,0,1,0,38612.7,0.18188,0.181555,-2.71641,20,0.0136964,10,-0.000493177,-2.56601,-0.412854,-0.142908,15.1823,0.181555,
2,0,0,1,0,38612.7,0.180383,0.180058,-2.7424,20,0.0136451,10,-0.000493791,-2.56187,-0.410486,-0.143732,15.3801,0.180058,
2,0,0,1,0,38612.8,0.17888,0.17858,-2.76816,20,0.013593,10,-0.000494337,-2.55781,-0.406025,-0.145311,15.6829,0.17858,
2,0,0,1,0,38612.8,0.177392,0.17702,-2.77977,20,0.0135412,10,-0.000492075,-2.55599,-0.456957,-0.129115,14.0483,0.17702,
2,0,0,1,0,38612.8,0.175889,0.175575,-2.80325,20,0.0134884,10,-0.000492179,-2.55234,-0.387067,-0.152428,16.7148,0.175575,
2,0,0,1,0,38612.8,0.174385,0.174053,-2.83377,20,0.0134352,10,-0.000493226,-2.54763,-0.429976,-0.137217,15.1927,0.174053,
2,0,0,1,0,38612.8,0.172896,0.172568,-2.86607,20,0.013382,10,-0.000494592,-2.54271,-0.439661,-0.134194,14.9783,0.172568,
2,0,0,1,0,38612.9,0.171392,0.171078,-2.88541,20,0.0133277,10,-0.000493631,-2.53979,-0.421129,-0.1401,15.8036,0.171078,
2,0,0,1,0,38612.9,0.169889,0.169564,-2.91937,20,0.013273,10,-0.000495019,-2.53471,-0.368453,-0.160129,18.2627,0.169564,
2,0,0,1,0,38612.9,0.1684,0.168045,-2.95184,20,0.0132183,10,-0.000496042,-2.52991,-0.332562,-0.17741,20.4233,0.168045,
2,0,0,1,0,38612.9,0.166896,0.166534,-2.98851,20,0.0131623,10,-0.000497689,-2.52454,-0.328922,-0.179374,20.8447,0.166534,
2,0,0,1,0,38612.9,0.165392,0.165044,-3.0162,20,0.0131057,10,-0.000497807,-2.52054,-0.288537,-0.20448,24.0682,0.165044,
2,0,0,1,0,38612.9,0.163905,0.163564,-3.0474,20,0.0130492,10,-0.000498445,-2.51607,-0.268194,-0.21999,26.2175,0.163564,
2,0,0,1,0,38613,0.162401,0.162049,-3.08756,20,0.0129914,10,-0.000500338,-2.51038,-0.237699,-0.248213,29.932,0.162049,
2,0,0,1,0,38613,0.160905,0.160577,-3.13099,20,0.012933,10,-0.000502766,-2.50432,-0.245282,-0.24054,29.3966,0.160577,
2,0,0,1,0,38613,0.159409,0.159097,-3.17485,20,0.0128739,10,-0.000505109,-2.49828,-0.227406,-0.259448,32.136,0.159097,
2,0,0,1,0,38613,0.157905,0.157583,-3.2131,20,0.0128136,10,-0.000506329,-2.49308,-0.214327,-0.27528,34.6427,0.157583,
2,0,0,1,0,38613,0.156416,0.156134,-3.26931,20,0.0127531,10,-0.000510453,-2.48554,-0.192396,-0.306659,39.1879,0.156134,
2,0,0,1,0,38613.1,0.154912,0.154575,-3.33054,20,0.0126908,10,-0.000514819,-2.47749,-0.189899,-0.310691,40.4081,0.154575,
2,0,0,1,0,38613.1,0.153409,0.153067,-3.38973,20,0.0126274,10,-0.000518858,-2.46983,-0.191269,-0.308465,40.9204,0.1530675,
2,0,0,1,0,38613.1,0.151919,0.151538,-3.45333,20,0.0125635,10,-0.000523311,-2.46176,-0.177905,-0.331638,44.8434,0.151538,
2,0,0,1,0,38613.1,0.150416,0.150056,-3.53037,20,0.0124976,10,-0.000529754,-2.45218,-0.15809,-0.373206,51.5154,0.150056,
2,0,0,1,0,38613.1,0.148912,0.148574,-3.61168,20,0.0124303,10,-0.000536603,-2.44229,-0.147081,-0.401138,56.6637,0.1485745,
2,0,0,1,0,38613.2,0.147425,0.147139,-3.70554,20,0.012362,10,-0.00054523,-2.43115,-0.143091,-0.412325,59.6092,0.147139,
2,0,0,1,0,38613.2,0.145921,0.145587,-3.79436,20,0.0122913,10,-0.000552411,-2.42086,-0.131457,-0.448817,66.6929,0.145587,
2,0,0,1,0,38613.2,0.144425,0.144114,-3.9105,20,0.0122191,10,-0.000563556,-2.40777,-0.119335,-0.494409,75.597,0.144114,
2,0,0,1,0,38613.2,0.142929,0.142596,-4.03076,20,0.0121448,10,-0.000574769,-2.39461,-0.109438,-0.539117,84.8692,0.142596,
2,0,0,1,0,38613.2,0.141425,0.141103,-4.16069,20,0.0120676,10,-0.000587085,-2.38083,-0.103521,-0.569931,92.5355,0.141103,
2,0,0,1,0,38613.2,0.139936,0.139648,-4.30138,20,0.0119888,10,-0.000600678,-2.36639,-0.103033,-0.572632,96.1943,0.139648,
2,0,0,1,0,38613.3,0.138432,0.138104,-4.44411,20,0.0119065,10,-0.000613751,-2.35222,-0.100136,-0.589196,102.397,0.138104,
2,0,0,1,0,38613.3,0.136929,0.136605,-4.60127,20,0.0118212,10,-0.000628556,-2.33712,-0.0946844,-0.623123,111.969,0.1366047,
2,0,0,1,0,38613.3,0.135439,0.135115,-4.76503,20,0.0117339,10,-0.000643825,-2.32193,-0.0953254,-0.618933,115.306,0.135115,
2,0,0,1,0,38613.3,0.133936,0.133671,-4.94389,20,0.0116424,10,-0.000660855,-2.30593,-0.0942427,-0.626043,120.71,0.133671,
2,0,0,1,0,38613.3,0.132432,0.132141,-5.11791,20,0.0115475,10,-0.000676288,-2.29091,-0.0974271,-0.605581,121.083,0.132141,
2,0,0,1,0,38613.4,0.130945,0.130618,-5.29966,20,0.0114504,10,-0.000692234,-2.27575,-0.098283,-0.600307,124.231,0.130618,
2,0,0,1,0,38613.4,0.129441,0.129093,-5.48865,20,0.0113486,10,-0.000708547,-2.26053,-0.104263,-0.565878,121.205,0.129093,
2,0,0,1,0,38613.4,0.127945,0.127621,-5.66999,20,0.011244,10,-0.000723611,-2.24642,-0.111243,-0.530369,117.357,0.127621,
2,0,0,1,0,38613.4,0.126448,0.126091,-5.84532,20,0.0111361,10,-0.000737041,-2.23319,-0.116146,-0.507979,115.958,0.126091,
2,0,0,1,0,38613.4,0.124945,0.12464,-6.02908,20,0.0110242,10,-0.000751463,-2.21975,-0.119639,-0.493149,115.867,0.12464,
2,0,0,1,0,38613.5,0.123456,0.123157,-6.20315,20,0.0109102,10,-0.000763963,-2.20739,-0.127514,-0.462694,111.867,0.123157,
2,0,0,1,0,38613.5,0.121952,0.121628,-6.37622,20,0.0107918,10,-0.000775524,-2.19544,-0.137094,-0.430362,106.826,0.121628,
2,0,0,1,0,38613.5,0.120449,0.120139,-6.52979,20,0.0106703,10,-0.000784483,-2.1851,-0.140181,-0.420885,107.134,0.120139,
2,0,0,1,0,38613.5,0.118959,0.118593,-6.68245,20,0.0105473,10,-0.000792495,-2.17506,-0.153098,-0.385374,100.406,0.118593,
2,0,0,1,0,38613.5,0.117456,0.117136,-6.8352,20,0.0104201,10,-0.00080065,-2.16525,-0.159103,-0.37083,98.7127,0.117136,
2,0,0,1,0,38613.5,0.115952,0.115643,-6.97138,20,0.0102901,10,-0.000806195,-2.15668,-0.174871,-0.337392,91.6391,0.115643,
2,0,0,1,0,38613.6,0.114465,0.114123,-7.10291,20,0.010159,10,-0.000810607,-2.14856,-0.188074,-0.313706,86.8456,0.114123,
2,0,0,1,0,38613.6,0.112961,0.112605,-7.2207,20,0.0100242,10,-0.000813085,-2.14142,-0.203989,-0.289231,81.466,0.112605,
2,0,0,1,0,38613.6,0.111465,0.111125,-7.33618,20,0.00988784,10,-0.000815234,-2.13453,-0.220043,-0.268129,76.6924,0.111125,
2,0,0,1,0,38613.6,0.109968,0.109635,-7.44107,20,0.00974939,10,-0.000815802,-2.12836,-0.25448,-0.231846,67.2783,0.109635,
2,0,0,1,0,38613.6,0.108465,0.108183,-7.54524,20,0.00960826,10,-0.000816266,-2.12233,-0.286075,-0.20624,60.6041,0.108183,
2,0,0,1,0,38613.7,0.106976,0.106633,-7.6195,20,0.00946698,10,-0.000812486,-2.11807,-0.32826,-0.179735,53.4556,0.106633,
2,0,0,1,0,38613.7,0.105472,0.105137,-7.70346,20,0.00932264,10,-0.00080992,-2.11331,-0.358976,-0.164356,49.3706,0.105137,
2,0,0,1,0,38613.7,0.103968,0.103628,-7.7718,20,0.00917689,10,-0.000805376,-2.10948,-0.454412,-0.129838,39.3381,0.103628,
2,0,0,1,0,38613.7,0.102479,0.102154,-7.83053,20,0.00903154,10,-0.000799921,-2.10621,-0.60312,-0.0978246,29.843,0.102154,
2,0,0,1,0,38613.7,0.100976,0.100615,-7.86957,20,0.00888376,10,-0.000791799,-2.10405,-0.74419,-0.0792809,24.3251,0.100615,
2,0,0,1,0,38613.8,0.0994721,0.0991298,-7.90937,20,0.00873527,10,-0.000784054,-2.10186,-1.09214,-0.0540226,16.6411,0.0991298,
2,0,0,1,0,38613.8,0.0979846,0.0976005,-7.93298,20,0.00858785,10,-0.000774263,-2.10056,-1.78714,-0.0330136,10.198,0.0976005,
2,0,0,1,0,38613.8,0.0964811,0.0961461,-7.94011,20,0.00843853,10,-0.00076341,-2.10017,-8.47301,-0.00696329,2.15316,0.0961461,
2,0,0,1,0,38613.8,0.0949847,0.0946653,-7.93555,20,0.00828991,10,-0.000751221,-2.10042,5.5316,0.010666,-3.29761,0.0946653,
2,0,0,1,0,38613.8,0.0934883,0.0931548,-7.92513,20,0.0081415,10,-0.000738264,-2.10099,2.11962,0.0278352,-8.60095,0.0931548,
2,0,0,1,0,38613.8,0.0919847,0.0916657,-7.89963,20,0.00799258,10,-0.000724124,-2.10239,1.26236,0.0467378,-14.4003,0.0916657,
2,0,0,1,0,38613.9,0.0904955,0.0901612,-7.87479,20,0.00784564,10,-0.00071,-2.10376,0.901272,0.065463,-20.0869,0.0901612,
2,0,0,1,0,38613.9,0.0889919,0.0885984,-7.83561,20,0.00769777,10,-0.000694222,-2.10593,0.662304,0.0890829,-27.2119,0.0885984,
2,0,0,1,0,38613.9,0.0874884,0.0871283,-7.78854,20,0.00755074,10,-0.000678603,-2.10854,0.589014,0.100167,-30.4314,0.0871283,
2,0,0,1,0,38613.9,0.0860009,0.0856399,-7.73256,20,0.00740613,10,-0.000662215,-2.11168,0.576386,0.102362,-30.9117,0.0856399,
2,0,0,1,0,38613.9,0.0844973,0.0841609,-7.68394,20,0.00726089,10,-0.000646687,-2.11442,0.495794,0.119001,-35.7024,0.0841609,
2,0,0,1,0,38614,0.0829938,0.0826585,-7.62556,20,0.00711662,10,-0.000630317,-2.11773,0.444226,0.132815,-39.5557,0.0826585,
2,0,0,1,0,38614,0.0815045,0.0812085,-7.57191,20,0.00697502,10,-0.000614903,-2.12079,0.444912,0.13261,-39.2279,0.0812085,
2,0,0,1,0,38614,0.080001,0.0796795,-7.52134,20,0.00683293,10,-0.000599296,-2.12371,0.467083,0.126316,-37.0719,0.0796795,
2,0,0,1,0,38614,0.0785046,0.0781627,-7.47065,20,0.00669253,10,-0.000583927,-2.12664,0.480929,0.122679,-35.7877,0.0781627,
2,0,0,1,0,38614,0.0770082,0.0766562,-7.42414,20,0.00655312,10,-0.000569106,-2.12935,0.464756,0.126948,-36.7579,0.0766562,
2,0,0,1,0,38614.1,0.0755046,0.0751885,-7.36791,20,0.00641393,10,-0.000553982,-2.13266,0.513334,0.114935,-33.076,0.0751885,
2,0,0,1,0,38614.1,0.0740154,0.0736745,-7.32967,20,0.00627716,10,-0.00054001,-2.13492,0.566362,0.104174,-29.791,0.0736745,
2,0,0,1,0,38614.1,0.0725118,0.0721724,-7.29018,20,0.00613968,10,-0.00052615,-2.13726,0.655583,0.0899962,-25.5925,0.0721724,
2,0,0,1,0,38614.1,0.0710083,0.0706556,-7.24659,20,0.00600296,10,-0.000512012,-2.13987,0.683208,0.0863573,-24.4082,0.0706556,
2,0,0,1,0,38614.1,0.0695208,0.0692047,-7.20647,20,0.00586839,10,-0.000498721,-2.14228,0.722461,0.0816654,-22.9654,0.0692047,
2,0,0,1,0,38614.1,0.0680173,0.0677189,-7.164,20,0.00573313,10,-0.000485139,-2.14484,0.826478,0.0713873,-19.9863,0.0677189,
2,0,0,1,0,38614.2,0.0665137,0.0662069,-7.13111,20,0.00559852,10,-0.000472129,-2.14684,0.840951,0.0701587,-19.534,0.0662069,
2,0,0,1,0,38614.2,0.0650244,0.0646554,-7.1008,20,0.00546588,10,-0.000459105,-2.14869,0.797808,0.0739526,-20.4933,0.0646554,
2,0,0,1,0,38614.2,0.0635209,0.063171,-7.06815,20,0.00533246,10,-0.000446502,-2.15069,0.699165,0.0843864,-23.2792,0.063171,
2,0,0,1,0,38614.2,0.0620245,0.061695,-7.0256,20,0.00520041,10,-0.000433444,-2.15332,0.711363,0.0829394,-22.7749,0.061695,
2,0,0,1,0,38614.2,0.0605281,0.0601913,-7.003,20,0.00506899,10,-0.00042152,-2.15472,0.698027,0.084524,-23.0995,0.0601913,
2,0,0,1,0,38614.3,0.0590246,0.0586855,-6.96839,20,0.0049374,10,-0.000408943,-2.15687,0.701619,0.0840912,-22.8806,0.0586855,
2,0,0,1,0,38614.3,0.0575353,0.0571984,-6.93841,20,0.00480784,10,-0.000396866,-2.15874,0.600062,0.0983231,-26.6309,0.0571984,
2,0,0,1,0,38614.3,0.0560317,0.0556922,-6.90604,20,0.00467752,10,-0.000384612,-2.16077,0.627473,0.0940279,-25.345,0.0556922,
2,0,0,1,0,38614.3,0.0545282,0.0542208,-6.87865,20,0.00454785,10,-0.000372966,-2.1625,0.770623,0.0765615,-20.5423,0.0542208,
2,0,0,1,0,38614.3,0.0530407,0.0526894,-6.84882,20,0.00442011,10,-0.00036086,-2.16438,0.734205,0.080359,-21.4525,0.0526894,
2,0,0,1,0,38614.4,0.0515372,0.0511426,-6.81416,20,0.00429156,10,-0.000348494,-2.16659,0.684757,0.0861619,-22.891,0.0511426,
2,0,0,1,0,38614.4,0.0500336,0.0497114,-6.76942,20,0.00416368,10,-0.000336517,-2.16945,0.680168,0.0867433,-22.9289,0.0497114,
2,0,0,1,0,38614.4,0.0485444,0.0482018,-6.74229,20,0.00403788,10,-0.000324991,-2.17119,0.636887,0.0926381,-24.3602,0.0482018,
2,0,0,1,0,38614.4,0.0470408,0.0466847,-6.70363,20,0.00391134,10,-0.000312957,-2.17369,0.734504,0.0803263,-21.0179,0.0466847,
2,0,0,1,0,38614.4,0.0455444,0.0452424,-6.67054,20,0.00378613,10,-0.000301791,-2.17584,0.644456,0.09155,-23.8067,0.0452424,
2,0,0,1,0,38614.4,0.044048,0.0437337,-6.62757,20,0.00366159,10,-0.000289848,-2.17865,0.601882,0.0980259,-25.3607,0.0437337,
2,0,0,1,0,38614.5,0.0425445,0.0421978,-6.5847,20,0.0035372,10,-0.00027786,-2.18146,0.639602,0.0922448,-23.7438,0.0421978,
2,0,0,1,0,38614.5,0.0410552,0.040707,-6.54601,20,0.00341481,10,-0.000266468,-2.18402,0.627495,0.0940247,-24.0459,0.040707,
2,0,0,1,0,38614.5,0.0395516,0.0392134,-6.51674,20,0.00329174,10,-0.000255543,-2.18597,0.586507,0.100595,-25.565,0.0392134,
2,0,0,1,0,38614.5,0.0380481,0.0376799,-6.47268,20,0.00316941,10,-0.00024389,-2.18892,0.494698,0.119265,-30.1254,0.0376799,
2,0,0,1,0,38614.5,0.0365606,0.0362494,-6.42533,20,0.00304922,10,-0.000232914,-2.1921,0.479012,0.12317,-30.9156,0.0362494,
2,0,0,1,0,38614.6,0.0350571,0.0346893,-6.38687,20,0.00292859,10,-0.000221556,-2.19471,0.508165,0.116104,-28.9264,0.0346893,
2,0,0,1,0,38614.6,0.0335535,0.0331835,-6.34112,20,0.00280872,10,-0.00021042,-2.19783,0.476601,0.123793,-30.6469,0.0331835,
2,0,0,1,0,38614.6,0.0320643,0.0317223,-6.3037,20,0.00269096,10,-0.000199968,-2.2004,0.431426,0.136756,-33.6041,0.0317223,
2,0,0,1,0,38614.6,0.0305607,0.0302362,-6.24666,20,0.00257283,10,-0.000188875,-2.20435,0.419295,0.140712,-34.3097,0.0302362,
2,0,0,1,0,38614.6,0.0290643,0.028717,-6.20389,20,0.00245623,10,-0.000178157,-2.20734,0.455951,0.1294,-31.3263,0.028717,
2,0,0,1,0,38614.7,0.0275679,0.0272187,-6.16659,20,0.00234052,10,-0.000167847,-2.20995,0.456711,0.129185,-31.0117,0.0272187,
2,0,0,1,0,38614.7,0.0260644,0.0257415,-6.111,20,0.00222503,10,-0.000157306,-2.21389,0.424273,0.139061,-33.1253,0.0257415,
2,0,0,1,0,38614.7,0.0245751,0.0242564,-6.05754,20,0.00211176,10,-0.000146934,-2.2177,0.407175,0.144901,-34.2276,0.0242564,
2,0,0,1,0,38614.7,0.0230716,0.022724,-6.00289,20,0.00199829,10,-0.000136409,-2.22164,0.448617,0.131515,-30.8166,0.022724,
2,0,0,1,0,38614.7,0.021568,0.0212468,-5.95149,20,0.00188572,10,-0.00012645,-2.22537,0.466828,0.126385,-29.3568,0.0212468,
2,0,0,1,0,38614.7,0.0200805,0.0197085,-5.90253,20,0.00177522,10,-0.00011633,-2.22896,0.404989,0.145683,-33.5535,0.01970852,
2,0,0,1,0,38614.8,0.018577,0.0182514,-5.8559,20,0.00166446,10,-0.000106878,-2.23241,0.417034,0.141475,-32.3232,0.0182514,
2,0,0,1,0,38614.8,0.0170735,0.0167619,-5.80053,20,0.00155469,10,-9.7228e-05,-2.23653,0.460154,0.128218,-29.0676,0.0167619,
2,0,0,1,0,38614.8,0.0155842,0.0152837,-5.75871,20,0.00144695,10,-8.80142e-05,-2.23967,0.438008,0.134701,-30.2815,0.01528367,
2,0,0,1,0,38614.8,0.0140806,0.0137567,-5.71554,20,0.00133884,10,-7.86269e-05,-2.24294,0.428671,0.137635,-30.7042,0.0137567,
2,0,0,1,0,38614.8,0.0125842,0.0122282,-5.67539,20,0.00123212,10,-6.93998e-05,-2.246,0.416297,0.141726,-31.3794,0.0122282,
2,0,0,1,0,38614.9,0.0110878,0.0107405,-5.63137,20,0.00112628,10,-6.0484e-05,-2.24939,0.429329,0.137424,-30.2208,0.0107405,
2,0,0,1,0,38614.9,0.00958429,0.00921629,-5.5941,20,0.00102064,10,-5.15568e-05,-2.25227,0.496704,0.118783,-25.907,0.00921629,
2,0,0,1,0,38614.9,0.0080968,0.007736,-5.55577,20,0.000916801,10,-4.29794e-05,-2.25526,0.530538,0.111208,-24.1158,0.007736,
2,0,0,1,0,38614.9,0.00659326,0.00627241,-5.52171,20,0.000812565,10,-3.46344e-05,-2.25793,0.496433,0.118848,-25.5936,0.00627241,
2,0,0,1,0,38614.9,0.00508972,0.00480576,-5.48126,20,0.000708974,10,-2.63416e-05,-2.26112,0.591416,0.0997605,-21.3678,0.00480576,
2,0,0,1,0,38615,0.00360044,0.00323514,-5.45532,20,0.000607127,10,-1.76487e-05,-2.26318,1.2815,0.0460398,-9.83326,0.00323514,
2,0,0,1,0,38615,0.0020969,0.0017419,-5.47197,20,0.000504594,10,-9.53163e-06,-2.26186,0.995195,0.0592848,-12.5817,0.001741901,
2,0,0,1,0,38615,0.000593362,0.000211166,-5.4189,20,0.000402067,10,-1.14429e-06,-2.26609, , , ,0.000211166,
2,0,0,1,0,38615,0.000199195,-0.000189804,-5.41319,20,0.000375464,10,1.02744e-06,-2.26655, , , ,-0.0001898036,