File: Figure_codes/Fig_3-5/rawdata_trumpetplot_data/after 10th/20221101_1-115_003_TrumpetPlot_ParaChange_from10_every3_10_CV_C01_26.csv
mode,ox/red,error,control changes,counter inc.,time/s,control/V,Ewe/V,<I>/mA,cycle number,(Q-Qo)/C,I Range,P/W,log(|I|),Tafel slope mV/dec,alpha_eff,dI/d(E-IR),E-IR/V,
2,1,0,0,0,52413.9,-2.44065e-05,-0.000287149,5.1167,27,0.0000000E+000,10,-1.46926e-06,-2.29101, , , ,-0.0002871489,
2,1,0,1,0,52413.9,0.00179726,0.00140128,5.81236,27,4.86209e-05,10,8.14477e-06,-2.23565, , , ,0.00140128,
2,1,0,1,0,52413.9,0.00379485,0.0034317,6.33896,27,0.000109644,10,2.17534e-05,-2.19798,0.0632114,0.933375,228.129,0.0034317,
2,1,0,1,0,52413.9,0.00579244,0.00544859,6.73567,27,0.000175158,10,3.66999e-05,-2.17162,0.0851315,0.693045,181.195,0.00544859,
2,1,0,1,0,52413.9,0.00779002,0.00748139,7.07274,27,0.000244258,10,5.29139e-05,-2.15041,0.100907,0.584698,160.898,0.00748139,
2,1,0,1,0,52414,0.00977853,0.00942916,7.37613,27,0.000315907,10,6.95508e-05,-2.13217,0.120098,0.491267,140.909,0.00942916,
2,1,0,1,0,52414,0.0117761,0.0114602,7.6334,27,0.000390976,10,8.74804e-05,-2.11728,0.144457,0.408425,121.431,0.0114602,
2,1,0,1,0,52414,0.0137737,0.0134592,7.8655,27,0.000468523,10,0.000105863,-2.10427,0.160253,0.368167,112.859,0.0134592,
2,1,0,1,0,52414,0.0157713,0.0154182,8.08009,27,0.000548266,10,0.000124581,-2.09258,0.180577,0.32673,102.899,0.0154182,
2,1,0,1,0,52414,0.017778,0.0174623,8.27742,27,0.000630146,10,0.000144543,-2.08211,0.20981,0.281207,90.6694,0.0174623,
2,1,0,1,0,52414,0.0197755,0.0194543,8.44604,27,0.000713758,10,0.000164312,-2.07335,0.231319,0.255059,84.0371,0.0194543,
2,1,0,1,0,52414,0.0217731,0.0214151,8.6096,27,0.000799099,10,0.000184376,-2.06502,0.25128,0.234797,78.8246,0.0214151,
2,1,0,1,0,52414,0.0237707,0.0234384,8.76008,27,0.000885965,10,0.000205322,-2.05749,0.272057,0.216866,74.1187,0.02343839,
2,1,0,1,0,52414,0.0257774,0.0254243,8.90676,27,0.000974353,10,0.000226448,-2.05028,0.295304,0.199794,69.3863,0.0254243,
2,1,0,1,0,52414,0.027775,0.0274554,9.03881,27,0.00106408,10,0.000248164,-2.04389,0.318173,0.185434,65.3934,0.0274554,
2,1,0,1,0,52414.1,0.0297726,0.0293997,9.16672,27,0.00115519,10,0.000269499,-2.03779,0.34203,0.1725,61.6737,0.0293997,
2,1,0,1,0,52414.1,0.0317701,0.0314394,9.28452,27,0.00124745,10,0.0002919,-2.03224,0.342915,0.172054,62.3915,0.0314394,
2,1,0,1,0,52414.1,0.0337586,0.033425,9.41787,27,0.00134006,10,0.000314793,-2.02605,0.353491,0.166907,61.2729,0.033425,
2,1,0,1,0,52414.1,0.0357562,0.0354403,9.52966,27,0.00143476,10,0.000337734,-2.02092,0.396756,0.148706,55.2855,0.0354403,
2,1,0,1,0,52414.1,0.0377538,0.0373586,9.63534,27,0.00153066,10,0.000359963,-2.01613,0.389907,0.151318,56.9421,0.0373586,
2,1,0,1,0,52414.1,0.0397514,0.0394105,9.75573,27,0.0016276,10,0.000384478,-2.01074,0.369112,0.159843,60.8691,0.0394105,
2,1,0,1,0,52414.1,0.0417399,0.04139,9.88073,27,0.00172481,10,0.000408963,-2.00521,0.399094,0.147835,56.9358,0.04139,
2,1,0,1,0,52414.1,0.0437375,0.043382,9.98186,27,0.00182413,10,0.000433033,-2.00079,0.421855,0.139858,54.5233,0.043382,
2,1,0,1,0,52414.1,0.0457351,0.0453827,10.0984,27,0.00192455,10,0.000458294,-1.99575,0.408904,0.144288,56.8458,0.0453827,
2,1,0,1,0,52414.1,0.0477327,0.0473756,10.2089,27,0.00202606,10,0.000483652,-1.99102,0.399921,0.147529,58.8219,0.0473756,
2,1,0,1,0,52414.2,0.0497394,0.0494093,10.3353,27,0.00212876,10,0.000510658,-1.98568,0.411535,0.143366,57.7569,0.0494093,
2,1,0,1,0,52414.2,0.0517369,0.0513328,10.4374,27,0.00223261,10,0.000535782,-1.98141,0.433334,0.136154,55.5082,0.0513328,
2,1,0,1,0,52414.2,0.0537345,0.0534254,10.5582,27,0.00233765,10,0.000564076,-1.97641,0.417545,0.141302,58.203,0.0534254,
2,1,0,1,0,52414.2,0.0557321,0.0553671,10.6722,27,0.00244382,10,0.000590891,-1.97174,0.427309,0.138073,57.5034,0.0553671,
2,1,0,1,0,52414.2,0.0577297,0.0573756,10.7854,27,0.00255116,10,0.000618817,-1.96717,0.419309,0.140708,59.2617,0.0573756,
2,1,0,1,0,52414.2,0.0597364,0.0594162,10.9122,27,0.00265969,10,0.000648362,-1.96209,0.398004,0.14824,63.1224,0.0594162,
2,1,0,1,0,52414.2,0.0617339,0.0613649,11.0372,27,0.00276948,10,0.000677294,-1.95714,0.431012,0.136887,58.9128,0.0613649,
2,1,0,1,0,52414.2,0.0637315,0.06335,11.1439,27,0.00288039,10,0.000705968,-1.95296,0.43333,0.136155,59.282,0.06335,
2,1,0,1,0,52414.2,0.0657291,0.0654036,11.2766,27,0.00299256,10,0.000737529,-1.94782,0.397031,0.148603,65.3904,0.0654036,
2,1,0,1,0,52414.2,0.0677176,0.067379,11.4074,27,0.00310487,10,0.000768619,-1.94281,0.409062,0.144233,64.1848,0.067379,
2,1,0,1,0,52414.3,0.0697152,0.0693458,11.5296,27,0.00321961,10,0.00079953,-1.93819,0.436664,0.135115,60.7895,0.0693458,
2,1,0,1,0,52414.3,0.0717128,0.0713666,11.6498,27,0.00333548,10,0.000831408,-1.93368,0.44174,0.133563,60.7397,0.0713666,
2,1,0,1,0,52414.3,0.0737104,0.0734098,11.7765,27,0.00345264,10,0.000864507,-1.92899,0.431056,0.136873,62.8871,0.0734098,
2,1,0,1,0,52414.3,0.0756989,0.0752917,11.8966,27,0.00356982,10,0.000895718,-1.92458,0.446374,0.132176,61.3642,0.0752917,
2,1,0,1,0,52414.3,0.0776965,0.0773167,12.0162,27,0.00368943,10,0.000929053,-1.92023,0.477814,0.123479,57.8918,0.0773167,
2,1,0,1,0,52414.3,0.0796941,0.079333,12.1306,27,0.00381018,10,0.000962357,-1.91612,0.468079,0.126047,59.7055,0.079333,
2,1,0,1,0,52414.3,0.0816916,0.0813831,12.259,27,0.00393216,10,0.000997675,-1.91155,0.454598,0.129785,62.0705,0.0813831,
2,1,0,1,0,52414.3,0.0836983,0.0833405,12.3793,27,0.00405534,10,0.0010317,-1.9073,0.45231,0.130441,63.0448,0.0833405,
2,1,0,1,0,52414.3,0.0856959,0.0853707,12.5104,27,0.00417984,10,0.00106802,-1.90273,0.481091,0.122638,59.8211,0.08537066,
2,1,0,1,0,52414.3,0.0876935,0.0873445,12.6189,27,0.00430548,10,0.00110219,-1.89898,0.499659,0.118081,58.1735,0.08734446,
2,1,0,1,0,52414.4,0.0896911,0.0892749,12.7375,27,0.00443233,10,0.00113714,-1.89492,0.490305,0.120333,59.8211,0.0892749,
2,1,0,1,0,52414.4,0.0916978,0.0913441,12.8581,27,0.00456028,10,0.00117452,-1.89082,0.519446,0.113583,56.9737,0.0913441,
2,1,0,1,0,52414.4,0.0936953,0.0933362,12.9689,27,0.00468948,10,0.00121047,-1.8871,0.557731,0.105786,53.5217,0.09333615,
2,1,0,1,0,52414.4,0.0956929,0.0953108,13.0704,27,0.00481969,10,0.00124575,-1.88371,0.551389,0.107002,54.6145,0.0953108,
2,1,0,1,0,52414.4,0.0976905,0.0973532,13.1883,27,0.00495104,10,0.00128392,-1.87981,0.523257,0.112755,58.0275,0.09735316,
2,1,0,1,0,52414.4,0.099679,0.0993264,13.3035,27,0.00508212,10,0.00132138,-1.87604,0.555515,0.106208,55.1192,0.0993264,
2,1,0,1,0,52414.4,0.101677,0.101341,13.4081,27,0.00521573,10,0.00135879,-1.87263,0.579417,0.101827,53.2918,0.101341,
2,1,0,1,0,52414.4,0.103674,0.103343,13.5175,27,0.00535037,10,0.00139695,-1.8691,0.521703,0.113091,59.7029,0.103343,
2,1,0,1,0,52414.4,0.105672,0.105338,13.6467,27,0.00548624,10,0.00143752,-1.86497,0.501477,0.117652,62.6374,0.105338,
2,1,0,1,0,52414.4,0.107656,0.107321,13.7667,27,0.00562188,10,0.00147745,-1.86117,0.504989,0.116834,62.788,0.107321,
2,1,0,1,0,52414.5,0.109658,0.109285,13.8946,27,0.0057602,10,0.00151847,-1.85716,0.498075,0.118456,64.2306,0.109285,
2,1,0,1,0,52414.5,0.111655,0.111291,14.0217,27,0.00589975,10,0.00156049,-1.8532,0.463016,0.127426,69.7843,0.111291,
2,1,0,1,0,52414.5,0.113653,0.113254,14.1715,27,0.00604074,10,0.00160498,-1.84858,0.465611,0.126715,70.0395,0.113254,
2,1,0,1,0,52414.5,0.115651,0.115336,14.305,27,0.00618308,10,0.00164988,-1.84451,0.435039,0.13562,75.824,0.115336,
2,1,0,1,0,52414.5,0.117657,0.117338,14.4812,27,0.00632708,10,0.0016992,-1.83919,0.401385,0.146991,83.0037,0.117338,
2,1,0,1,0,52414.5,0.119655,0.119307,14.6346,27,0.00647265,10,0.00174601,-1.83462,0.408274,0.144511,82.5922,0.119307,
2,1,0,1,0,52414.5,0.121652,0.121308,14.809,27,0.0066199,10,0.00179645,-1.82947,0.398344,0.148113,85.5801,0.121308,
2,1,0,1,0,52414.5,0.12365,0.12331,14.9772,27,0.0067688,10,0.00184684,-1.82457,0.389818,0.151353,88.5282,0.12331,
2,1,0,1,0,52414.5,0.125657,0.125354,15.1673,27,0.00691961,10,0.00190128,-1.81909,0.390817,0.150966,89.2895,0.125354,
2,1,0,1,0,52414.5,0.127654,0.127311,15.3344,27,0.00707215,10,0.00195223,-1.81433,0.387295,0.152339,91.2518,0.127311,
2,1,0,1,0,52414.6,0.129652,0.129344,15.5313,27,0.00722652,10,0.00200887,-1.80879,0.384881,0.153294,92.8488,0.129344,
2,1,0,1,0,52414.6,0.131649,0.131322,15.7068,27,0.00738271,10,0.00206264,-1.80391,0.390908,0.150931,92.554,0.131322,
2,1,0,1,0,52414.6,0.133638,0.133281,15.8957,27,0.00753922,10,0.0021186,-1.79872,0.411604,0.143342,88.8415,0.133281,
2,1,0,1,0,52414.6,0.135636,0.135259,16.0566,27,0.00769898,10,0.0021718,-1.79435,0.426332,0.13839,86.7825,0.135259,
2,1,0,1,0,52414.6,0.137633,0.137267,16.2417,27,0.00786051,10,0.00222945,-1.78937,0.450361,0.131006,82.9486,0.137267,
2,1,0,1,0,52414.6,0.139631,0.139306,16.3923,27,0.00802367,10,0.00228355,-1.78536,0.466674,0.126427,80.9339,0.139306,
2,1,0,1,0,52414.6,0.141619,0.141271,16.5657,27,0.00818682,10,0.00234026,-1.78079,0.484215,0.121847,78.6925,0.141271,
2,1,0,1,0,52414.6,0.143617,0.143286,16.7055,27,0.00835318,10,0.00239366,-1.77714,0.530837,0.111145,72.487,0.143286,
2,1,0,1,0,52414.6,0.145614,0.145294,16.8574,27,0.00852104,10,0.00244928,-1.77321,0.587709,0.10039,65.9685,0.145294,
2,1,0,1,0,52414.6,0.147612,0.147306,16.9706,27,0.00869018,10,0.00249987,-1.7703,0.606861,0.0972216,64.4454,0.147306,
2,1,0,1,0,52414.7,0.149619,0.149265,17.1133,27,0.00886066,10,0.00255442,-1.76667,0.656937,0.0898108,59.9006,0.149265,
2,1,0,1,0,52414.7,0.151616,0.151297,17.2097,27,0.00903229,10,0.00260377,-1.76423,0.818604,0.0720739,48.4092,0.151297,
2,1,0,1,0,52414.7,0.153614,0.153278,17.3075,27,0.00920492,10,0.00265286,-1.76177,0.968399,0.0609253,41.1148,0.153278,
2,1,0,1,0,52414.7,0.155611,0.15529,17.3739,27,0.00937833,10,0.002698,-1.7601,1.1967,0.0493021,33.4305,0.1552901,
2,1,0,1,0,52414.7,0.157618,0.157294,17.4418,27,0.00955246,10,0.00274349,-1.75841,2.01964,0.0292131,19.853,0.157294,
2,1,0,1,0,52414.7,0.159616,0.15928,17.4531,27,0.00972696,10,0.00277994,-1.75813,13.0886,0.00450773,3.06947,0.15928,
2,1,0,1,0,52414.7,0.161613,0.161273,17.454,27,0.00990153,10,0.00281486,-1.75811,-3.63394,-0.0162358,-11.0448,0.161273,
2,1,0,1,0,52414.7,0.163611,0.163285,17.4089,27,0.0100758,10,0.00284261,-1.75923,-1.35989,-0.0433858,-29.4537,0.163285,
2,1,0,1,0,52414.7,0.165618,0.165264,17.3365,27,0.0102496,10,0.00286509,-1.76104,-0.804419,-0.0733448,-49.548,0.165264,
2,1,0,1,0,52414.7,0.167597,0.167276,17.2111,27,0.0104206,10,0.00287902,-1.76419,-0.591056,-0.0998213,-67.0175,0.167276,
2,1,0,1,0,52414.8,0.169595,0.169239,17.07,27,0.010592,10,0.00288892,-1.76777,-0.438849,-0.134443,-89.3611,0.169239,
2,1,0,1,0,52414.8,0.171592,0.171287,16.8527,27,0.0107616,10,0.00288665,-1.77333,-0.346768,-0.170143,-111.871,0.171287,
2,1,0,1,0,52414.8,0.173572,0.173197,16.6273,27,0.0109273,10,0.0028798,-1.77918,-0.29863,-0.197569,-127.982,0.173197,
2,1,0,1,0,52414.8,0.175578,0.175241,16.3467,27,0.0110922,10,0.00286461,-1.78657,-0.264722,-0.222875,-142.095,0.175241,
2,1,0,1,0,52414.8,0.177576,0.177269,16.0486,27,0.0112542,10,0.00284493,-1.79456,-0.225417,-0.261737,-163.621,0.177269,
2,1,0,1,0,52414.8,0.179573,0.179231,15.6939,27,0.0114128,10,0.00281283,-1.80427,-0.203726,-0.289604,-177.399,0.179231,
2,1,0,1,0,52414.8,0.181571,0.181218,15.3482,27,0.011568,10,0.00278136,-1.81394,-0.196972,-0.299535,-179.199,0.181218,
2,1,0,1,0,52414.8,0.183578,0.183267,14.9706,27,0.0117196,10,0.00274362,-1.82476,-0.184173,-0.320351,-187.145,0.183267,
2,1,0,1,0,52414.8,0.185575,0.185238,14.5958,27,0.0118674,10,0.00270369,-1.83577,-0.170736,-0.345564,-196.628,0.185238,
2,1,0,1,0,52414.8,0.187573,0.187207,14.1959,27,0.0120113,10,0.00265757,-1.84784,-0.169383,-0.348323,-193.152,0.187207,
2,1,0,1,0,52414.9,0.18957,0.189211,13.8284,27,0.0121514,10,0.00261649,-1.85923,-0.171763,-0.343496,-185.269,0.189211,
2,1,0,1,0,52414.9,0.191577,0.191225,13.4514,27,0.0122877,10,0.00257225,-1.87123,-0.172354,-0.342319,-179.826,0.191225,
2,1,0,1,0,52414.9,0.193575,0.193267,13.099,27,0.0124204,10,0.00253161,-1.88276,-0.170073,-0.34691,-177.284,0.193267,
2,1,0,1,0,52414.9,0.195572,0.195216,12.744,27,0.0125496,10,0.00248783,-1.89469,-0.169615,-0.347847,-173.14,0.195216,
2,1,0,1,0,52414.9,0.19757,0.197217,12.4151,27,0.0126754,10,0.00244847,-1.90605,-0.181563,-0.324956,-157.56,0.197217,
2,1,0,1,0,52414.9,0.199558,0.199245,12.1092,27,0.0127967,10,0.00241269,-1.91688,-0.187872,-0.314043,-148.517,0.199245,
2,1,0,1,0,52414.9,0.201556,0.201189,11.8252,27,0.0129163,10,0.0023791,-1.92719,-0.188469,-0.313048,-144.412,0.201189,
2,1,0,1,0,52414.9,0.203554,0.203214,11.536,27,0.0130331,10,0.00234427,-1.93795,-0.19969,-0.295458,-133.214,0.203214,
2,1,0,1,0,52414.9,0.205551,0.205246,11.2848,27,0.0131471,10,0.00231615,-1.94751,-0.215359,-0.273961,-120.733,0.205246,
2,1,0,1,0,52414.9,0.20754,0.207226,11.0516,27,0.0132576,10,0.00229018,-1.95657,-0.221032,-0.266929,-115.15,0.207226,
2,1,0,1,0,52415,0.209537,0.209233,10.8257,27,0.013367,10,0.00226509,-1.96554,-0.220548,-0.267516,-113.026,0.209233,
2,1,0,1,0,52415,0.211535,0.211192,10.6034,27,0.013474,10,0.00223934,-1.97456,-0.23589,-0.250117,-103.644,0.211192,
2,1,0,1,0,52415,0.213532,0.213217,10.4128,27,0.0135791,10,0.00222018,-1.98243,-0.251587,-0.234512,-95.2918,0.213217,
2,1,0,1,0,52415,0.215539,0.215187,10.2226,27,0.0136822,10,0.00219978,-1.99044,-0.260957,-0.226091,-90.284,0.215187,
2,1,0,1,0,52415,0.217537,0.217196,10.0535,27,0.0137836,10,0.00218358,-1.99768,-0.274587,-0.214868,-84.2945,0.217196,
2,1,0,1,0,52415,0.219534,0.219207,9.88381,27,0.0138832,10,0.0021666,-2.00508,-0.295811,-0.199452,-77.0411,0.2192066,
2,1,0,1,0,52415,0.221532,0.221227,9.74294,27,0.0139814,10,0.0021554,-2.01131,-0.313374,-0.188274,-71.5609,0.221227,
2,1,0,1,0,52415,0.223534,0.223229,9.59597,27,0.0140781,10,0.0021421,-2.01791,-0.322896,-0.182721,-68.5011,0.223229,
2,1,0,1,0,52415,0.225536,0.225205,9.47044,27,0.0141734,10,0.00213279,-2.02363,-0.335059,-0.176088,-65.0497,0.2252052,
2,1,0,1,0,52415,0.227534,0.227217,9.33653,27,0.0142674,10,0.00212142,-2.02981,-0.343038,-0.171993,-62.723,0.2272172,
2,1,0,1,0,52415.1,0.229531,0.229205,9.21957,27,0.0143602,10,0.00211317,-2.03529,-0.361046,-0.163414,-58.7958,0.229205,
2,1,0,1,0,52415.1,0.231529,0.231192,9.10285,27,0.0144518,10,0.0021045,-2.04082,-0.427853,-0.137898,-49.092,0.231192,
2,1,0,1,0,52415.1,0.233517,0.233167,9.02508,27,0.0145415,10,0.00210435,-2.04455,-0.435329,-0.13553,-47.64,0.233167,
2,1,0,1,0,52415.1,0.235515,0.235207,8.91157,27,0.0146312,10,0.00209606,-2.05005,-0.41323,-0.142777,-49.7277,0.235207,
2,1,0,1,0,52415.1,0.237512,0.237204,8.82429,27,0.0147198,10,0.00209316,-2.05432,-0.452685,-0.130334,-44.8717,0.2372044,
2,1,0,1,0,52415.1,0.23951,0.239198,8.73246,27,0.0148076,10,0.00208879,-2.05886,-0.494922,-0.119211,-40.6774,0.239198,
2,1,0,1,0,52415.1,0.241499,0.241175,8.66277,27,0.0148937,10,0.00208924,-2.06234,-0.49059,-0.120263,-40.6084,0.241175,
2,1,0,1,0,52415.1,0.243496,0.243146,8.57213,27,0.0149798,10,0.00208428,-2.06691,-0.521709,-0.11309,-37.8961,0.243146,
2,1,0,1,0,52415.1,0.245494,0.245198,8.51031,27,0.0150652,10,0.00208671,-2.07005,-0.555753,-0.106162,-35.2213,0.245198,
2,1,0,1,0,52415.1,0.247491,0.247173,8.43031,27,0.0151498,10,0.00208375,-2.07416,-0.55902,-0.105542,-34.7688,0.247173,
2,1,0,1,0,52415.2,0.249498,0.249166,8.37236,27,0.0152338,10,0.00208611,-2.07715,-0.590906,-0.0998467,-32.5948,0.249166,
2,1,0,1,0,52415.2,0.251496,0.251188,8.29944,27,0.0153172,10,0.00208472,-2.08095,-0.623643,-0.0946053,-30.6848,0.251188,
2,1,0,1,0,52415.2,0.253493,0.253166,8.24961,27,0.0154,10,0.00208852,-2.08357,-0.605948,-0.0973681,-31.304,0.253166,
2,1,0,1,0,52415.2,0.255491,0.255106,8.17678,27,0.0154821,10,0.00208595,-2.08742,-0.682182,-0.0864872,-27.6575,0.255106,
2,1,0,1,0,52415.2,0.257497,0.257176,8.13872,27,0.0155636,10,0.00209308,-2.08944,-0.764723,-0.0771522,-24.4704,0.257176,
2,1,0,1,0,52415.2,0.259495,0.259168,8.0774,27,0.0156447,10,0.0020934,-2.09273,-0.695562,-0.0848235,-26.7648,0.259168,
2,1,0,1,0,52415.2,0.261493,0.261174,8.0317,27,0.0157253,10,0.00209767,-2.09519,-0.767094,-0.0769137,-24.1014,0.261174,
2,1,0,1,0,52415.2,0.26349,0.263154,7.98132,27,0.0158053,10,0.00210032,-2.09793,-0.887454,-0.0664824,-20.7317,0.263154,
2,1,0,1,0,52415.2,0.265479,0.265158,7.94911,27,0.0158842,10,0.00210777,-2.09968,-0.805246,-0.0732695,-22.6914,0.265158,
2,1,0,1,0,52415.2,0.267476,0.267185,7.88986,27,0.0159634,10,0.00210805,-2.10293,-0.781422,-0.0755033,-23.2864,0.267185,
2,1,0,1,0,52415.3,0.269474,0.26914,7.85638,27,0.0160421,10,0.00211447,-2.10478,-0.89537,-0.0658946,-20.1872,0.26914,
2,1,0,1,0,52415.3,0.271471,0.271138,7.81005,27,0.0161204,10,0.0021176,-2.10735,-1.08375,-0.0544408,-16.6216,0.271138,
2,1,0,1,0,52415.3,0.27346,0.273129,7.79008,27,0.0161976,10,0.0021277,-2.10846,-0.900123,-0.0655466,-19.8775,0.273129,
2,1,0,1,0,52415.3,0.275458,0.275112,7.73105,27,0.0162751,10,0.00212691,-2.11176,-0.816181,-0.0722879,-21.8545,0.275112,
2,1,0,1,0,52415.3,0.277455,0.277098,7.70333,27,0.0163523,10,0.00213458,-2.11332,-1.00972,-0.0584319,-17.5495,0.277098,
2,1,0,1,0,52415.3,0.279453,0.27913,7.66054,27,0.0164291,10,0.00213829,-2.11574,-1.03828,-0.0568248,-17.0081,0.27913,
2,1,0,1,0,52415.3,0.281455,0.281098,7.6353,27,0.0165056,10,0.00214627,-2.11717,-1.06122,-0.0555964,-16.5494,0.281098,
2,1,0,1,0,52415.3,0.283457,0.283137,7.59423,27,0.0165817,10,0.00215021,-2.11952,-1.08038,-0.0546104,-16.2036,0.283137,
2,1,0,1,0,52415.3,0.285455,0.285109,7.57031,27,0.0166576,10,0.00215836,-2.12089,-0.94585,-0.0623777,-18.3975,0.285109,
2,1,0,1,0,52415.3,0.287452,0.287149,7.52043,27,0.016733,10,0.00215948,-2.12376,-1.01052,-0.0583856,-17.1709,0.287149,
2,1,0,1,0,52415.4,0.28945,0.289135,7.50119,27,0.0168082,10,0.00216885,-2.12487,-1.28184,-0.0460277,-13.4608,0.289135,
2,1,0,1,0,52415.4,0.291456,0.291141,7.46668,27,0.016883,10,0.00217386,-2.12687,-1.14107,-0.0517061,-15.0759,0.291141,
2,1,0,1,0,52415.4,0.293454,0.293138,7.44084,27,0.0169576,10,0.00218119,-2.12838,-1.13223,-0.0521096,-15.1231,0.293138,
2,1,0,1,0,52415.4,0.295452,0.295145,7.40613,27,0.0170318,10,0.00218589,-2.13041,-1.22518,-0.048156,-13.9321,0.295145,
2,1,0,1,0,52415.4,0.297449,0.297111,7.38549,27,0.0171058,10,0.00219431,-2.13162,-1.37654,-0.0428612,-12.3475,0.297111,
2,1,0,1,0,52415.4,0.299438,0.299108,7.3572,27,0.0171787,10,0.0022006,-2.13329,-0.0733727,-0.804114,-223.494,0.299108,
2,1,0,1,0,52415.4,0.299746,0.299443,6.86427,27,0.0172098,10,0.00205546,-2.16341,0.00850899,6.93384,1603.18,0.299443,
2,1,0,1,0,52415.4,0.29774,0.297445,4.69092,27,0.0172662,10,0.00139529,-2.32874,0.0125614,4.69691,890.393,0.297445,
2,1,0,1,0,52415.4,0.295742,0.295424,3.28597,27,0.0173055,10,0.000970755,-2.48334,0.0121267,4.86528,624.66,0.295424,
2,1,0,1,0,52415.4,0.293745,0.293457,2.20008,27,0.0173326,10,0.000645629,-2.65756,0.0103667,5.69128,482.919,0.293457,
2,1,0,1,0,52415.5,0.291747,0.291409,1.34691,27,0.0173501,10,0.000392502,-2.87066,0.00740991,7.96231,389.622,0.291409,
2,1,0,1,0,52415.5,0.289745,0.289422,0.627865,27,0.0173598,10,0.000181718,-3.20213,0.00270499,21.8116,327.518,0.289422,
2,1,0,1,0,52415.5,0.287743,0.287436,0.0457802,27,0.0173629,10,1.31589e-05,-4.33932,0.0287974,2.0488,273.278,0.287436,
2,0,0,1,0,52415.5,0.285745,0.285452,-0.45709,27,0.0173608,10,-0.000130477,-3.34,-0.00313436,-18.8236,229.183,0.285452,
2,0,0,1,0,52415.5,0.283748,0.283421,-0.874457,27,0.017354,10,-0.000247839,-3.05826,-0.00923451,-6.38908,196.468,0.283421,
2,0,0,1,0,52415.5,0.28175,0.281419,-1.24937,27,0.0173433,10,-0.000351596,-2.90331,-0.0158928,-3.71238,171.611,0.281419,
2,0,0,1,0,52415.5,0.279761,0.279424,-1.56033,27,0.0173293,10,-0.000435994,-2.80678,-0.0234324,-2.51788,150.252,0.279424,
2,0,0,1,0,52415.5,0.277764,0.277437,-1.84765,27,0.0173122,10,-0.000512606,-2.73338,-0.0311705,-1.89282,134.008,0.2774373,
2,0,0,1,0,52415.5,0.275766,0.275442,-2.09396,27,0.0172924,10,-0.000576765,-2.67903,-0.0403395,-1.46258,118.437,0.275442,
2,0,0,1,0,52415.5,0.273769,0.273448,-2.32013,27,0.0172703,10,-0.000634434,-2.63449,-0.0502762,-1.17352,105.319,0.273448,
2,0,0,1,0,52415.6,0.27178,0.271413,-2.51828,27,0.0172463,10,-0.000683494,-2.5989,-0.0598812,-0.985285,96.4766,0.271413,
2,0,0,1,0,52415.6,0.269783,0.26943,-2.7078,27,0.0172202,10,-0.000729563,-2.56738,-0.0699945,-0.842923,88.5092,0.26943,
2,0,0,1,0,52415.6,0.267785,0.267434,-2.87044,27,0.0171922,10,-0.000767654,-2.54205,-0.0826707,-0.713675,79.7372,0.267434,
2,0,0,1,0,52415.6,0.265787,0.265468,-3.02368,27,0.0171627,10,-0.000802691,-2.51946,-0.0939678,-0.627875,73.8915,0.265468,
2,0,0,1,0,52415.6,0.263781,0.263443,-3.16534,27,0.0171317,10,-0.000833888,-2.49958,-0.105025,-0.561773,69.3207,0.263443,
2,0,0,1,0,52415.6,0.261783,0.261423,-3.30413,27,0.0170993,10,-0.000863773,-2.48094,-0.12216,-0.482975,61.9655,0.261423,
2,0,0,1,0,52415.6,0.259786,0.259451,-3.4127,27,0.0170657,10,-0.00088543,-2.4669,-0.131796,-0.447663,59.7627,0.2594513,
2,0,0,1,0,52415.6,0.257788,0.257476,-3.53999,27,0.017031,10,-0.000911463,-2.451,-0.136603,-0.431907,59.4911,0.257476,
2,0,0,1,0,52415.6,0.255781,0.255485,-3.64868,27,0.016995,10,-0.000932182,-2.43786,-0.162826,-0.362351,51.4985,0.255485,
2,0,0,1,0,52415.6,0.253784,0.253489,-3.7453,27,0.016958,10,-0.000949393,-2.42651,-0.178185,-0.331116,48.3888,0.253489,
2,0,0,1,0,52415.7,0.251786,0.251488,-3.84209,27,0.01692,10,-0.000966239,-2.41543,-0.189846,-0.310778,46.5507,0.251488,
2,0,0,1,0,52415.7,0.249789,0.249471,-3.93234,27,0.0168812,10,-0.000981005,-2.40535,-0.206736,-0.285389,43.7597,0.249471,
2,0,0,1,0,52415.7,0.2478,0.247489,-4.01706,27,0.0168418,10,-0.000994179,-2.39609,-0.210873,-0.279789,43.8955,0.247489,
2,0,0,1,0,52415.7,0.245802,0.245448,-4.10895,27,0.0168012,10,-0.00100853,-2.38627,-0.234574,-0.25152,40.2273,0.245448,
2,0,0,1,0,52415.7,0.243805,0.243432,-4.18025,27,0.0167597,10,-0.00101761,-2.3788,-0.252799,-0.233387,38.102,0.243432,
2,0,0,1,0,52415.7,0.241807,0.241528,-4.25831,27,0.0167175,10,-0.0010285,-2.37076,-0.248556,-0.237371,39.4385,0.241528,
2,0,0,1,0,52415.7,0.239819,0.239504,-4.33518,27,0.016675,10,-0.00103829,-2.36299,-0.270392,-0.218202,36.8918,0.2395042,
2,0,0,1,0,52415.7,0.237821,0.237499,-4.40693,27,0.0166313,10,-0.00104664,-2.35586,-0.309844,-0.190419,32.6979,0.237499,
2,0,0,1,0,52415.7,0.235824,0.235524,-4.46533,27,0.0165869,10,-0.00105169,-2.35015,-0.319931,-0.184415,32.1768,0.235524,
2,0,0,1,0,52415.7,0.233826,0.233512,-4.53524,27,0.0165419,10,-0.00105903,-2.3434,-0.310901,-0.189771,33.5672,0.233512,
2,0,0,1,0,52415.8,0.231824,0.231512,-4.6,27,0.0164962,10,-0.00106495,-2.33724,-0.324268,-0.181948,32.6682,0.231512,
2,0,0,1,0,52415.8,0.229822,0.229491,-4.66658,27,0.0164499,10,-0.00107094,-2.331,-0.352607,-0.167325,30.4386,0.229491,
2,0,0,1,0,52415.8,0.227824,0.227471,-4.72298,27,0.0164029,10,-0.00107434,-2.32578,-0.360382,-0.163715,30.198,0.227471,
2,0,0,1,0,52415.8,0.225827,0.225517,-4.7866,27,0.0163554,10,-0.00107946,-2.31997,-0.387376,-0.152307,28.4082,0.225517,
2,0,0,1,0,52415.8,0.223829,0.223494,-4.83597,27,0.0163072,10,-0.00108081,-2.31552,-0.397759,-0.148331,28.0351,0.223494,
2,0,0,1,0,52415.8,0.221822,0.221484,-4.89966,27,0.0162586,10,-0.0010852,-2.30983,-0.394437,-0.14958,28.5599,0.221484,
2,0,0,1,0,52415.8,0.219825,0.21953,-4.94918,27,0.0162093,10,-0.00108649,-2.30547,-0.426599,-0.138303,26.7336,0.21953,
2,0,0,1,0,52415.8,0.217827,0.217484,-5.00658,27,0.0161595,10,-0.00108885,-2.30046,-0.450537,-0.130955,25.5576,0.2174844,
2,0,0,1,0,52415.8,0.21583,0.215481,-5.05267,27,0.0161092,10,-0.00108875,-2.29648,-0.412214,-0.14313,28.2809,0.2154811,
2,0,0,1,0,52415.8,0.213841,0.213486,-5.11966,27,0.0160588,10,-0.00109298,-2.29076,-0.421446,-0.139994,27.9065,0.213486,
2,0,0,1,0,52415.9,0.211843,0.211517,-5.16329,27,0.0160074,10,-0.00109212,-2.28707,-0.465131,-0.126846,25.5957,0.211517,
2,0,0,1,0,52415.9,0.209846,0.209506,-5.22154,27,0.0159554,10,-0.00109394,-2.2822,-0.464547,-0.127006,25.8456,0.209506,
2,0,0,1,0,52415.9,0.207848,0.207552,-5.26576,27,0.015903,10,-0.00109292,-2.27854,-0.425094,-0.138793,28.5906,0.207552,
2,0,0,1,0,52415.9,0.20586,0.205522,-5.33544,27,0.0158505,10,-0.00109655,-2.27283,-0.450116,-0.131077,27.218,0.205522,
2,0,0,1,0,52415.9,0.203862,0.203505,-5.37593,27,0.015797,10,-0.00109403,-2.26955,-0.557042,-0.105917,22.2389,0.203505,
2,0,0,1,0,52415.9,0.201865,0.2015,-5.42489,27,0.015743,10,-0.00109311,-2.26561,-0.529654,-0.111393,23.5748,0.2015,
2,0,0,1,0,52415.9,0.199867,0.199515,-5.46998,27,0.0156885,10,-0.00109134,-2.26201,-0.487071,-0.121132,25.8889,0.1995154,
2,0,0,1,0,52415.9,0.19786,0.197513,-5.5281,27,0.0156335,10,-0.00109187,-2.25742,-0.504036,-0.117055,25.2169,0.197513,
2,0,0,1,0,52415.9,0.195863,0.195537,-5.57031,27,0.015578,10,-0.0010892,-2.25412,-0.514595,-0.114653,24.9596,0.195537,
2,0,0,1,0,52415.9,0.193865,0.193493,-5.62845,27,0.015522,10,-0.00108906,-2.24961,-0.508491,-0.116029,25.4544,0.193493,
2,0,0,1,0,52416,0.191868,0.191524,-5.67245,27,0.0154654,10,-0.00108641,-2.24623,-0.490273,-0.120341,26.6811,0.191524,
2,0,0,1,0,52416,0.189861,0.18954,-5.73391,27,0.0154084,10,-0.0010868,-2.24155,-0.482336,-0.122321,27.341,0.1895397,
2,0,0,1,0,52416,0.187863,0.1875,-5.78247,27,0.0153508,10,-0.00108421,-2.23789,-0.536115,-0.110051,24.8401,0.1875,
2,0,0,1,0,52416,0.185866,0.18553,-5.83353,27,0.0152927,10,-0.00108229,-2.23407,-0.556411,-0.106037,24.1255,0.18553,
2,0,0,1,0,52416,0.183868,0.183563,-5.87745,27,0.0152341,10,-0.00107888,-2.23081,-0.456632,-0.129207,29.7106,0.183563,
2,0,0,1,0,52416,0.18188,0.181581,-5.95085,27,0.0151756,10,-0.00108056,-2.22542,-0.446262,-0.132209,30.6438,0.181581,
2,0,0,1,0,52416,0.179882,0.179529,-6.00107,27,0.0151158,10,-0.00107737,-2.22177,-0.534059,-0.110475,25.8828,0.179529,
2,0,0,1,0,52416,0.177885,0.177522,-6.05591,27,0.0150555,10,-0.00107506,-2.21782,-0.499707,-0.118069,27.9078,0.177522,
2,0,0,1,0,52416,0.175887,0.17554,-6.1124,27,0.0149947,10,-0.00107297,-2.21379,-0.476546,-0.123808,29.5443,0.17554,
2,0,0,1,0,52416,0.173907,0.173541,-6.17351,27,0.0149339,10,-0.00107136,-2.20947,-0.430664,-0.136998,33.0312,0.173541,
2,0,0,1,0,52416.1,0.171901,0.171554,-6.24404,27,0.0148717,10,-0.00107119,-2.20453,-0.430278,-0.137121,33.394,0.171554,
2,0,0,1,0,52416.1,0.169903,0.16953,-6.30746,27,0.014809,10,-0.0010693,-2.20015,-0.44233,-0.133385,32.8444,0.16953,
2,0,0,1,0,52416.1,0.167906,0.167557,-6.37532,27,0.0147456,10,-0.00106823,-2.1955,-0.405135,-0.14563,36.2521,0.167557,
2,0,0,1,0,52416.1,0.165908,0.165597,-6.45003,27,0.0146815,10,-0.00106811,-2.19044,-0.413364,-0.142731,35.9102,0.165597,
2,0,0,1,0,52416.1,0.163901,0.163569,-6.51855,27,0.0146166,10,-0.00106623,-2.18585,-0.38587,-0.152901,38.9578,0.163569,
2,0,0,1,0,52416.1,0.161904,0.161547,-6.60781,27,0.014551,10,-0.00106747,-2.17994,-0.362828,-0.162612,41.8981,0.161547,
2,0,0,1,0,52416.1,0.159906,0.159566,-6.68627,27,0.0144845,10,-0.0010669,-2.17482,-0.361149,-0.163368,42.6672,0.159566,
2,0,0,1,0,52416.1,0.157909,0.157578,-6.77717,27,0.0144171,10,-0.00106793,-2.16895,-0.317946,-0.185566,49.1314,0.157578,
2,0,0,1,0,52416.1,0.155902,0.155561,-6.88304,27,0.0143488,10,-0.00107073,-2.16222,-0.291671,-0.202283,54.3636,0.155561,
2,0,0,1,0,52416.1,0.153904,0.153542,-6.99658,27,0.0142794,10,-0.00107427,-2.15511,-0.295105,-0.199929,54.5494,0.153542,
2,0,0,1,0,52416.2,0.151907,0.151575,-7.10046,27,0.0142089,10,-0.00107625,-2.14871,-0.275331,-0.214287,59.4939,0.151575,
2,0,0,1,0,52416.2,0.149909,0.149573,-7.23268,27,0.0141372,10,-0.00108182,-2.1407,-0.238624,-0.247251,69.8458,0.149573,
2,0,0,1,0,52416.2,0.147921,0.147601,-7.378,27,0.0140648,10,-0.001089,-2.13206,-0.226099,-0.260947,75.1634,0.1476014,
2,0,0,1,0,52416.2,0.145923,0.145612,-7.53047,27,0.0139903,10,-0.00109652,-2.12318,-0.219102,-0.269281,79.1958,0.145612,
2,0,0,1,0,52416.2,0.143926,0.143587,-7.69595,27,0.0139141,10,-0.00110504,-2.11374,-0.193497,-0.304915,91.785,0.143587,
2,0,0,1,0,52416.2,0.141928,0.1416,-7.89867,27,0.0138362,10,-0.00111845,-2.10245,-0.176011,-0.335206,103.358,0.1416,
2,0,0,1,0,52416.2,0.139939,0.139589,-8.10913,27,0.0137569,10,-0.00113195,-2.09103,-0.169795,-0.347477,110.094,0.139589,
2,0,0,1,0,52416.2,0.137942,0.13757,-8.34234,27,0.0136747,10,-0.00114766,-2.07871,-0.158326,-0.372648,121.428,0.13757,
2,0,0,1,0,52416.2,0.135944,0.135593,-8.59438,27,0.01359,10,-0.00116534,-2.06579,-0.148561,-0.397144,133.391,0.135593,
2,0,0,1,0,52416.2,0.133947,0.133571,-8.87574,27,0.0135026,10,-0.00118554,-2.0518,-0.139811,-0.421998,146.272,0.133571,
2,0,0,1,0,52416.3,0.13194,0.131624,-9.17498,27,0.0134124,10,-0.00120764,-2.0374,-0.135895,-0.434159,155.553,0.131624,
2,0,0,1,0,52416.3,0.129942,0.129609,-9.4921,27,0.0133191,10,-0.00123026,-2.02264,-0.134627,-0.438249,162.397,0.129609,
2,0,0,1,0,52416.3,0.127945,0.127638,-9.82226,27,0.0132224,10,-0.00125369,-2.00779,-0.136001,-0.433819,166.332,0.127638,
2,0,0,1,0,52416.3,0.125947,0.125568,-10.1643,27,0.0131225,10,-0.00127631,-1.99292,-0.13383,-0.440858,174.977,0.125568,
2,0,0,1,0,52416.3,0.123941,0.123617,-10.5257,27,0.013019,10,-0.00130116,-1.97775,-0.130952,-0.450548,184.967,0.123617,
2,0,0,1,0,52416.3,0.121943,0.121684,-10.8826,27,0.012912,10,-0.00132424,-1.96327,-0.143906,-0.409989,173.953,0.121684,
2,0,0,1,0,52416.3,0.119945,0.119597,-11.2251,27,0.0128013,10,-0.00134249,-1.94981,-0.149619,-0.394336,172.819,0.119597,
2,0,0,1,0,52416.3,0.117948,0.117627,-11.5837,27,0.0126872,10,-0.00136256,-1.93615,-0.149414,-0.394877,178.319,0.117627,
2,0,0,1,0,52416.3,0.115946,0.115678,-11.924,27,0.0125696,10,-0.00137934,-1.92358,-0.158527,-0.372177,173.206,0.115678,
2,0,0,1,0,52416.3,0.113962,0.113651,-12.2725,27,0.0124497,10,-0.00139478,-1.91107,-0.164352,-0.358985,171.862,0.113651,
2,0,0,1,0,52416.4,0.111964,0.111647,-12.6167,27,0.0123252,10,-0.00140862,-1.89906,-0.171073,-0.344883,169.708,0.111647,
2,0,0,1,0,52416.4,0.109967,0.109654,-12.9507,27,0.0121973,10,-0.0014201,-1.88771,-0.186566,-0.316242,159.661,0.1096542,
2,0,0,1,0,52416.4,0.107969,0.107608,-13.2616,27,0.0120662,10,-0.00142705,-1.8774,-0.196025,-0.300982,155.735,0.107608,
2,0,0,1,0,52416.4,0.10598,0.105675,-13.5704,27,0.0119334,10,-0.00143405,-1.86741,-0.204712,-0.28821,152.533,0.105675,
2,0,0,1,0,52416.4,0.103983,0.103653,-13.8649,27,0.0117961,10,-0.00143713,-1.85808,-0.220176,-0.267968,144.925,0.103653,
2,0,0,1,0,52416.4,0.101985,0.10168,-14.1494,27,0.011656,10,-0.00143871,-1.84926,-0.240877,-0.244938,135.114,0.10168,
2,0,0,1,0,52416.4,0.0999877,0.0996367,-14.4075,27,0.0115132,10,-0.00143552,-1.84141,-0.259035,-0.227769,128.042,0.0996367,
2,0,0,1,0,52416.4,0.0979811,0.0976742,-14.6623,27,0.0113678,10,-0.00143213,-1.8338,-0.272308,-0.216666,123.884,0.0976742,
2,0,0,1,0,52416.4,0.0959835,0.0956865,-14.8969,27,0.0112199,10,-0.00142543,-1.82691,-0.312682,-0.18869,109.585,0.0956865,
2,0,0,1,0,52416.4,0.0939859,0.0936598,-15.1022,27,0.0110699,10,-0.00141447,-1.82096,-0.338623,-0.174235,102.673,0.0936598,
2,0,0,1,0,52416.5,0.0919883,0.0917241,-15.3037,27,0.0109178,10,-0.00140372,-1.8152,-0.357628,-0.164976,98.4918,0.0917241,
2,0,0,1,0,52416.5,0.0899816,0.0896809,-15.4941,27,0.0107637,10,-0.00138953,-1.80983,-0.423355,-0.139363,84.1643,0.0896809,
2,0,0,1,0,52416.5,0.0879841,0.0876499,-15.6466,27,0.0106079,10,-0.00137142,-1.80558,-0.500014,-0.117997,72.024,0.0876499,
2,0,0,1,0,52416.5,0.0859865,0.0856101,-15.7873,27,0.0104508,10,-0.00135155,-1.80169,-0.555936,-0.106127,65.3441,0.0856101,
2,0,0,1,0,52416.5,0.0839889,0.083658,-15.9074,27,0.0102922,10,-0.00133079,-1.7984,-0.661866,-0.0891419,55.2962,0.08365801,
2,0,0,1,0,52416.5,0.0820004,0.0817207,-16.0024,27,0.0101343,10,-0.00130773,-1.79582,-0.889713,-0.0663135,41.3806,0.08172071,
2,0,0,1,0,52416.5,0.0800028,0.0796927,-16.0715,27,0.00997386,10,-0.00128078,-1.79394,-1.20223,-0.0490755,30.7682,0.0796927,
2,0,0,1,0,52416.5,0.0780052,0.0776631,-16.1272,27,0.00981288,10,-0.00125249,-1.79244,-1.7682,-0.0333673,20.9838,0.0776631,
2,0,0,1,0,52416.5,0.0760076,0.0756525,-16.1563,27,0.00965142,10,-0.00122227,-1.79166,-2.75675,-0.021402,13.4927,0.07565254,
2,0,0,1,0,52416.5,0.0740191,0.0736883,-16.1809,27,0.00949144,10,-0.00119234,-1.791,-7.79354,-0.00757037,4.77613,0.0736883,
2,0,0,1,0,52416.5,0.0720215,0.0717094,-16.1751,27,0.00932963,10,-0.00115991,-1.79115,8.54481,0.00690477,-4.35791,0.07170935,
2,0,0,1,0,52416.6,0.0700239,0.0696583,-16.1633,27,0.00916796,10,-0.00112591,-1.79147,3.63045,0.0162514,-10.246,0.0696583,
2,0,0,1,0,52416.6,0.0680263,0.067714,-16.1342,27,0.00900647,10,-0.00109251,-1.79225,3.14647,0.0187512,-11.811,0.067714,
2,0,0,1,0,52416.6,0.0660197,0.06565,-16.1159,27,0.0088453,10,-0.00105801,-1.79274,2.33904,0.025224,-15.8514,0.06565,
2,0,0,1,0,52416.6,0.0640221,0.0636979,-16.0705,27,0.00868433,10,-0.00102366,-1.79397,1.64568,0.0358514,-22.4864,0.0636979,
2,0,0,1,0,52416.6,0.0620245,0.0616772,-16.0266,27,0.00852388,10,-0.000988477,-1.79516,1.55416,0.0379627,-23.7393,0.0616772,
2,0,0,1,0,52416.6,0.0600269,0.0597052,-15.9758,27,0.00836383,10,-0.000953835,-1.79654,1.62052,0.036408,-22.7075,0.0597052,
2,0,0,1,0,52416.6,0.0580248,0.0576819,-15.9359,27,0.00820431,10,-0.000919212,-1.79762,1.62143,0.0363875,-22.6224,0.0576819,
2,0,0,1,0,52416.6,0.0560227,0.0556821,-15.8848,27,0.00804515,10,-0.000884496,-1.79902,1.44842,0.0407339,-25.2532,0.0556821,
2,0,0,1,0,52416.6,0.0540251,0.0536814,-15.8349,27,0.00788662,10,-0.000850037,-1.80039,1.56318,0.0377435,-23.3297,0.0536814,
2,0,0,1,0,52416.6,0.0520275,0.051685,-15.7915,27,0.00772847,10,-0.000816184,-1.80158,1.37254,0.0429861,-26.4763,0.051685,
2,0,0,1,0,52416.7,0.0500299,0.0496991,-15.7294,27,0.00757089,10,-0.000781738,-1.80329,1.42723,0.0413388,-25.3949,0.0496991,
2,0,0,1,0,52416.7,0.0480414,0.0476936,-15.6901,27,0.00741531,10,-0.000748319,-1.80437,1.57127,0.0375491,-22.9825,0.0476936,
2,0,0,1,0,52416.7,0.0460438,0.0456751,-15.6369,27,0.00725873,10,-0.000714219,-1.80585,1.34936,0.0437243,-26.6833,0.04567511,
2,0,0,1,0,52416.7,0.0440462,0.0437139,-15.5839,27,0.00710261,10,-0.000681235,-1.80732,1.23424,0.0478027,-29.0643,0.04371389,
2,0,0,1,0,52416.7,0.0420486,0.0417042,-15.5215,27,0.00694717,10,-0.000647313,-1.80907,1.40224,0.0420757,-25.5066,0.0417042,
2,0,0,1,0,52416.7,0.0400601,0.0397294,-15.4823,27,0.00679368,10,-0.000615103,-1.81016,1.39739,0.0422215,-25.4914,0.0397294,
2,0,0,1,0,52416.7,0.0380625,0.0376836,-15.419,27,0.00663924,10,-0.000581045,-1.81194,1.07737,0.0547632,-32.9497,0.0376836,
2,0,0,1,0,52416.7,0.036065,0.0357688,-15.3518,27,0.00648538,10,-0.000549116,-1.81384,1.07652,0.0548061,-32.8415,0.0357688,
2,0,0,1,0,52416.7,0.0340674,0.0337464,-15.2897,27,0.00633221,10,-0.000515974,-1.8156,1.19532,0.0493592,-29.4578,0.0337464,
2,0,0,1,0,52416.7,0.0320607,0.0317214,-15.2326,27,0.00617954,10,-0.000483199,-1.81723,1.07475,0.0548963,-32.6161,0.0317214,
2,0,0,1,0,52416.8,0.0300631,0.0297146,-15.1582,27,0.00602762,10,-0.000450422,-1.81935,0.976849,0.0603983,-35.7366,0.02971464,
2,0,0,1,0,52416.8,0.0280655,0.0277157,-15.0894,27,0.00587638,10,-0.000418214,-1.82133,0.949498,0.0621381,-36.5825,0.0277157,
2,0,0,1,0,52416.8,0.0260679,0.0257289,-15.0124,27,0.00572589,10,-0.000386253,-1.82355,0.887445,0.066483,-38.9493,0.0257289,
2,0,0,1,0,52416.8,0.0240613,0.0237238,-14.934,27,0.0055761,10,-0.000354291,-1.82583,0.831147,0.0709862,-41.3618,0.02372383,
2,0,0,1,0,52416.8,0.0220637,0.0217535,-14.848,27,0.00542721,10,-0.000322996,-1.82833,0.781111,0.0755335,-43.7664,0.0217535,
2,0,0,1,0,52416.8,0.0200661,0.0197571,-14.7603,27,0.00527911,10,-0.000291622,-1.8309,0.726088,0.0812574,-46.7849,0.0197571,
2,0,0,1,0,52416.8,0.0180685,0.0176992,-14.6583,27,0.00513203,10,-0.00025944,-1.83392,0.736438,0.0801154,-45.8634,0.0176992,
2,0,0,1,0,52416.8,0.01608,0.0157621,-14.5771,27,0.0049873,10,-0.000229766,-1.83633,0.728355,0.0810045,-46.0495,0.0157621,
2,0,0,1,0,52416.8,0.0140824,0.013715,-14.4749,27,0.00484207,10,-0.000198522,-1.83939,0.631886,0.0933712,-52.7342,0.013715,
2,0,0,1,0,52416.8,0.0120848,0.0117689,-14.3665,27,0.00469786,10,-0.000169078,-1.84265,0.586242,0.100641,-56.4147,0.0117689,
2,0,0,1,0,52416.9,0.0100872,0.00976948,-14.2523,27,0.00455483,10,-0.000139237,-1.84612,0.603981,0.0976852,-54.3554,0.00976948,
2,0,0,1,0,52416.9,0.00810328,0.00777551,-14.1495,27,0.00441424,10,-0.000110019,-1.84926,0.594598,0.0992268,-54.7706,0.00777551,
2,0,0,1,0,52416.9,0.00610116,0.00580518,-14.0351,27,0.00427336,10,-8.14765e-05,-1.85278,0.545243,0.108209,-59.2548,0.00580518,
2,0,0,1,0,52416.9,0.00410357,0.0037984,-13.9138,27,0.0041336,10,-5.28503e-05,-1.85655,0.676065,0.0872698,-47.4733,0.0037984,
2,0,0,1,0,52416.9,0.00210598,0.00175086,-13.8427,27,0.00399502,10,-2.42365e-05,-1.85878,0.647147,0.0911694,-49.1534,0.00175086,
2,0,0,1,0,52416.9,0.00010174,-0.000225549,-13.716,27,0.00385725,10,3.09364e-06,-1.86277,0.516108,0.114317,-61.2028,-0.000225549,
2,0,0,1,0,52416.9,-0.00189827,-0.0023052,-13.5944,27,0.00372071,10,3.13379e-05,-1.86664,0.54611,0.108037,-57.3425,-0.0023052,
2,0,0,1,0,52416.9,-0.00389586,-0.00425818,-13.4848,27,0.00358528,10,5.74207e-05,-1.87016,0.557722,0.105787,-55.6661,-0.00425818,
2,0,0,1,0,52416.9,-0.00589345,-0.00629098,-13.3726,27,0.003451,10,8.41265e-05,-1.87379,0.575124,0.102587,-53.5538,-0.00629098,
2,0,0,1,0,52416.9,-0.00789103,-0.00829862,-13.2684,27,0.00331774,10,0.000110109,-1.87718,0.625704,0.0942938,-48.85,-0.00829862,
2,0,0,1,0,52417,-0.0098977,-0.0102958,-13.1769,27,0.00318553,10,0.000135668,-1.88019,0.668514,0.0882554,-45.3904,-0.0102958,
2,0,0,1,0,52417,-0.0118953,-0.012261,-13.0886,27,0.0030542,10,0.000160478,-1.88311,0.651044,0.0906236,-46.2758,-0.012261,
2,0,0,1,0,52417,-0.0138929,-0.014292,-12.992,27,0.00292382,10,0.000185682,-1.88632,0.679658,0.0868083,-44.042,-0.014292,
2,0,0,1,0,52417,-0.0158905,-0.0162754,-12.9118,27,0.00279429,10,0.000210144,-1.88901,0.844189,0.0698896,-35.2447,-0.0162754,
2,0,0,1,0,52417,-0.017879,-0.0182777,-12.8515,27,0.0026668,10,0.000234897,-1.89105,0.917894,0.0642776,-32.2277,-0.0182777,
2,0,0,1,0,52417,-0.0198766,-0.0202779,-12.7828,27,0.00253864,10,0.000259208,-1.89338,0.81758,0.0721642,-35.9943,-0.0202779,
2,0,0,1,0,52417,-0.0218741,-0.0222153,-12.7098,27,0.00241125,10,0.000282352,-1.89586,0.9669,0.0610198,-30.298,-0.0222153,
2,0,0,1,0,52417,-0.0238717,-0.0242346,-12.6629,27,0.00228439,10,0.00030688,-1.89747,1.23144,0.0479112,-23.6757,-0.0242346,
2,0,0,1,0,52417,-0.0258602,-0.0262494,-12.6143,27,0.00215928,10,0.000331117,-1.89914,1.29816,0.045449,-22.3812,-0.0262494,
2,0,0,1,0,52417,-0.0278578,-0.0282275,-12.5735,27,0.00203336,10,0.000354919,-1.90054,1.45668,0.040503,-19.8765,-0.0282275,
2,0,0,1,0,52417.1,-0.0298554,-0.0302508,-12.5347,27,0.0019079,10,0.000379186,-1.90188,1.74161,0.0338767,-16.5792,-0.0302508,
2,0,0,1,0,52417.1,-0.031853,-0.0322671,-12.5065,27,0.00178269,10,0.00040355,-1.90286,2.00621,0.0294086,-14.3539,-0.0322671,
2,0,0,1,0,52417.1,-0.0338597,-0.0341984,-12.4781,27,0.00165783,10,0.00042673,-1.90385,2.60158,0.0226785,-11.0498,-0.0341984,
2,0,0,1,0,52417.1,-0.0358573,-0.0362373,-12.4627,27,0.00153309,10,0.000451613,-1.90439,4.29953,0.0137224,-6.67531,-0.0362373,
2,0,0,1,0,52417.1,-0.0378548,-0.0382501,-12.451,27,0.00140854,10,0.000476253,-1.90479,5.13104,0.0114986,-5.58769,-0.0382501,
2,0,0,1,0,52417.1,-0.0398524,-0.0402317,-12.4404,27,0.00128405,10,0.000500497,-1.90517,29.0315,0.00203228,-0.987375,-0.0402317,
2,0,0,1,0,52417.1,-0.0418591,-0.0422767,-12.4471,27,0.00115966,10,0.00052622,-1.90493,-16.527,-0.00356991,1.7337,-0.0422767,
2,0,0,1,0,52417.1,-0.0438567,-0.0442505,-12.4473,27,0.00103518,10,0.0005508,-1.90492,32.8153,0.00179794,-0.873264,-0.04425047,
2,0,0,1,0,52417.1,-0.0458543,-0.0462147,-12.4436,27,0.000910709,10,0.000575078,-1.90505,-7.04279,-0.00837736,4.07219,-0.0462147,
2,0,0,1,0,52417.1,-0.0478519,-0.0482085,-12.4634,27,0.00078613,10,0.000600843,-1.90436,-2.48194,-0.0237718,11.566,-0.0482085,
2,0,0,1,0,52417.2,-0.0498585,-0.0502378,-12.4901,27,0.000661422,10,0.000627478,-1.90343,-2.40955,-0.0244859,11.9331,-0.0502378,
2,0,0,1,0,52417.2,-0.051838,-0.0522389,-12.5115,27,0.000537666,10,0.000653588,-1.90269,-3.10661,-0.0189918,9.27126,-0.05223887,
2,0,0,1,0,52417.2,-0.0538356,-0.0542248,-12.5271,27,0.000412519,10,0.00067928,-1.90215,-2.33677,-0.0252485,12.3526,-0.0542248,
2,0,0,1,0,52417.2,-0.0558331,-0.0561971,-12.5604,27,0.000287058,10,0.00070586,-1.901,-1.8265,-0.0323022,15.8316,-0.0561971,
2,0,0,1,0,52417.2,-0.0578126,-0.0581591,-12.5894,27,0.000162582,10,0.000732188,-1.9,-1.61515,-0.036529,17.9576,-0.0581591,
2,0,0,1,0,52417.2,-0.0598192,-0.0602101,-12.6325,27,3.64495e-05,10,0.000760603,-1.89851,-1.40598,-0.0419636,20.6857,-0.0602101,
2,0,0,1,0,52417.2,-0.0618168,-0.0621743,-12.6725,27,-9.00348e-05,10,0.000787902,-1.89714,-1.4461,-0.0407994,20.1784,-0.0621743,
2,0,0,1,0,52417.2,-0.0638144,-0.0641967,-12.7129,27,-0.000216981,10,0.000816129,-1.89575,-1.43364,-0.0411539,20.4188,-0.0641967,
2,0,0,1,0,52417.2,-0.065812,-0.0661714,-12.7541,27,-0.000344311,10,0.000843955,-1.89435,-1.11728,-0.0528067,26.3082,-0.0661714,
2,0,0,1,0,52417.2,-0.0678187,-0.068199,-12.8182,27,-0.000472223,10,0.00087419,-1.89217,-1.06427,-0.0554371,27.7147,-0.068199,
2,0,0,1,0,52417.3,-0.0698163,-0.0702084,-12.866,27,-0.000600644,10,0.000903298,-1.89056,-1.14629,-0.0514702,25.8514,-0.0702084,
2,0,0,1,0,52417.3,-0.0718138,-0.072177,-12.9211,27,-0.000729656,10,0.000932603,-1.8887,-1.00912,-0.0584668,29.4905,-0.072177,
2,0,0,1,0,52417.3,-0.0738114,-0.0741733,-12.9829,27,-0.00085919,10,0.000962984,-1.88663,-0.845136,-0.0698112,35.398,-0.0741733,
2,0,0,1,0,52417.3,-0.0758181,-0.0762157,-13.064,27,-0.000989486,10,0.000995683,-1.88392,-0.888568,-0.0663989,33.8189,-0.0762157,
2,0,0,1,0,52417.3,-0.0778157,-0.0781912,-13.1188,27,-0.00112042,10,0.00102577,-1.88211,-0.915537,-0.064443,33.0215,-0.0781912,
2,0,0,1,0,52417.3,-0.0798133,-0.080204,-13.1957,27,-0.00125204,10,0.00105835,-1.87957,-0.777374,-0.0758966,39.0876,-0.080204,
2,0,0,1,0,52417.3,-0.0818108,-0.0821674,-13.2742,27,-0.00138439,10,0.00109071,-1.87699,-0.708727,-0.0832478,43.1474,-0.0821674,
2,0,0,1,0,52417.3,-0.0837994,-0.0841473,-13.3659,27,-0.00151628,10,0.0011247,-1.874,-0.737059,-0.0800479,41.7335,-0.0841473,
2,0,0,1,0,52417.3,-0.0857969,-0.0862366,-13.444,27,-0.00165027,10,0.00115936,-1.87147,-0.714584,-0.0825655,43.3495,-0.0862366,
2,0,0,1,0,52417.3,-0.0877945,-0.0881803,-13.5407,27,-0.00178517,10,0.00119402,-1.86836,-0.671963,-0.0878025,46.3777,-0.0881803,
2,0,0,1,0,52417.4,-0.0897921,-0.0901431,-13.6252,27,-0.00192094,10,0.00122822,-1.86566,-0.6743,-0.0874981,46.5557,-0.0901431,
2,0,0,1,0,52417.4,-0.0917806,-0.0921805,-13.7269,27,-0.00205631,10,0.00126535,-1.86243,-0.657456,-0.0897398,48.0583,-0.0921805,
2,0,0,1,0,52417.4,-0.0937782,-0.0941847,-13.8194,27,-0.00219402,10,0.00130158,-1.85951,-0.639154,-0.0923096,49.8103,-0.0941847,
2,0,0,1,0,52417.4,-0.0957758,-0.0961836,-13.9263,27,-0.00233278,10,0.00133948,-1.85616,-0.62695,-0.0941063,51.1253,-0.0961836,
2,0,0,1,0,52417.4,-0.0977734,-0.098147,-14.022,27,-0.00247254,10,0.00137622,-1.85319,-0.566532,-0.104142,57.0561,-0.098147,
2,0,0,1,0,52417.4,-0.0997412,-0.100115,-14.1506,27,-0.00261058,10,0.00141669,-1.84922,0.111827,0.527602,-283.061,-0.100115,
2,0,0,1,1,52417.4,-0.0996711,-0.100077,-13.4758,27,-0.00265218,10,0.00134861,-1.87045,-0.0172474,-3.42081,1659.36,-0.100077,
2,0,0,1,1,52417.4,-0.0976826,-0.098128,-10.8536,27,-0.00277109,10,0.00106504,-1.96443,-0.0226724,-2.60228,1124.99,-0.098128,
2,0,0,1,1,52417.4,-0.095685,-0.0960817,-8.98162,27,-0.00286972,10,0.000862969,-2.04665,-0.0245632,-2.40196,846.948,-0.0960817,
2,0,0,1,1,52417.4,-0.0936874,-0.0940878,-7.43181,27,-0.00295139,10,0.000699243,-2.12891,-0.0238932,-2.46932,717.029,-0.0940878,
2,0,0,1,1,52417.5,-0.0916898,-0.0920439,-6.08643,27,-0.00301872,10,0.000560219,-2.21564,-0.0221685,-2.66143,631.965,-0.0920439,
2,0,0,1,1,52417.5,-0.0897013,-0.0900982,-4.91053,27,-0.00307286,10,0.00044243,-2.30887,-0.0194481,-3.03372,576.614,-0.0900982,
2,0,0,1,1,52417.5,-0.0877037,-0.088127,-3.8279,27,-0.00311635,10,0.000337341,-2.41704,-0.0170705,-3.45626,510.91,-0.088127,
2,0,0,1,1,52417.5,-0.0857062,-0.0860665,-2.85065,27,-0.00314954,10,0.000245345,-2.54506,-0.0138813,-4.25034,463.482,-0.0860665,
2,0,0,1,1,52417.5,-0.0837086,-0.0841091,-1.96569,27,-0.00317346,10,0.000165332,-2.70649,-0.00998357,-5.90971,430.303,-0.0841091,
2,0,0,1,1,52417.5,-0.0817019,-0.0820885,-1.13892,27,-0.00318877,10,9.34919e-05,-2.94351,-0.00555734,-10.6166,397.964,-0.0820885,
2,0,0,1,1,52417.5,-0.0797043,-0.0801129,-0.375345,27,-0.00319621,10,3.007e-05,-3.42557,-0.00715489,-8.2461,368.05,-0.0801129,
2,1,0,1,1,52417.5,-0.0777067,-0.0781287,0.318464,27,-0.00319631,10,-2.48812e-05,-3.49694,0.00964221,6.11893,337.906,-0.07812874,
2,1,0,1,1,52417.5,-0.0757091,-0.0761194,0.974112,27,-0.00318972,10,-7.41488e-05,-3.01139,0.00582049,10.1366,312.834,-0.0761194,
2,1,0,1,1,52417.5,-0.0737025,-0.074064,1.59005,27,-0.00317676,10,-0.000117766,-2.79859,0.011688,5.04792,293.543,-0.074064,
2,1,0,1,1,52417.6,-0.0717049,-0.072072,2.16219,27,-0.00315791,10,-0.000155833,-2.66511,0.0173098,3.40847,277.823,-0.072072,
2,1,0,1,1,52417.6,-0.0697073,-0.0701346,2.68173,27,-0.0031336,10,-0.000188082,-2.57159,0.0237428,2.48497,255.997,-0.07013461,
2,1,0,1,1,52417.6,-0.0677097,-0.0680853,3.18276,27,-0.00310421,10,-0.000216699,-2.4972,0.0299615,1.96919,241.557,-0.0680853,
2,1,0,1,1,52417.6,-0.0657212,-0.0661066,3.65472,27,-0.00307027,10,-0.000241601,-2.43715,0.0363332,1.62386,229.319,-0.06610661,
2,1,0,1,1,52417.6,-0.0637236,-0.0641192,4.09228,27,-0.00303152,10,-0.000262394,-2.38803,0.0440741,1.33866,212.212,-0.0641192,
2,1,0,1,1,52417.6,-0.061726,-0.0621309,4.49841,27,-0.00298849,10,-0.00027949,-2.34694,0.0514658,1.14639,200.518,-0.0621309,
2,1,0,1,1,52417.6,-0.0597284,-0.060114,4.89539,27,-0.00294149,10,-0.000294281,-2.31021,0.0602833,0.978712,185.777,-0.060114,
2,1,0,1,1,52417.6,-0.0577399,-0.058094,5.24838,27,-0.00289126,10,-0.000304899,-2.27998,0.0685186,0.86108,175.92,-0.05809398,
2,1,0,1,1,52417.6,-0.0557423,-0.056167,5.58974,27,-0.00283704,10,-0.000313959,-2.25261,0.0779799,0.756605,164.483,-0.056167,
2,1,0,1,1,52417.6,-0.0537448,-0.0540995,5.9054,27,-0.00277948,10,-0.000319479,-2.22875,0.089075,0.662363,152.3,-0.0540995,
2,1,0,1,1,52417.7,-0.0517472,-0.0521318,6.2043,27,-0.00271889,10,-0.000323441,-2.20731,0.0973338,0.606162,146.466,-0.0521318,
2,1,0,1,1,52417.7,-0.049745,-0.0501328,6.48638,27,-0.00265537,10,-0.000325181,-2.188,0.108789,0.542332,137.065,-0.0501328,
2,1,0,1,1,52417.7,-0.0477429,-0.0481122,6.75525,27,-0.00258912,10,-0.00032501,-2.17036,0.122557,0.481411,126.567,-0.0481122,
2,1,0,1,1,52417.7,-0.0457453,-0.0461288,6.99316,27,-0.00252029,10,-0.000322586,-2.15533,0.135342,0.435931,118.847,-0.0461288,
2,1,0,1,1,52417.7,-0.0437477,-0.0441915,7.22122,27,-0.00244922,10,-0.000319116,-2.14139,0.149882,0.393644,110.8,-0.0441915,
2,1,0,1,1,52417.7,-0.0417501,-0.0421326,7.43594,27,-0.00237585,10,-0.000313296,-2.12866,0.163068,0.361812,104.937,-0.0421326,
2,1,0,1,1,52417.7,-0.0397435,-0.0401432,7.64603,27,-0.00230037,10,-0.000306936,-2.11656,0.179493,0.328703,97.889,-0.0401432,
2,1,0,1,1,52417.7,-0.0377459,-0.0381182,7.8289,27,-0.00222298,10,-0.000298424,-2.1063,0.199865,0.2952,90.1483,-0.0381182,
2,1,0,1,1,52417.7,-0.0357483,-0.0361444,8.00651,27,-0.00214383,10,-0.000289391,-2.09656,0.220065,0.268103,83.6468,-0.0361444,
2,1,0,1,1,52417.7,-0.0337507,-0.0341342,8.16215,27,-0.00206292,10,-0.000278609,-2.0882,0.236626,0.249339,79.4491,-0.0341342,
2,1,0,1,1,52417.8,-0.0317622,-0.0321383,8.32479,27,-0.00198129,10,-0.000267545,-2.07963,0.258546,0.2282,73.9951,-0.0321383,
2,1,0,1,1,52417.8,-0.0297646,-0.030154,8.45667,27,-0.00189738,10,-0.000255003,-2.0728,0.292099,0.201986,66.6612,-0.030154,
2,1,0,1,1,52417.8,-0.027767,-0.0281682,8.58945,27,-0.00181218,10,-0.000241949,-2.06603,0.326558,0.180672,60.4829,-0.02816817,
2,1,0,1,1,52417.8,-0.0257694,-0.0261282,8.70016,27,-0.0017257,10,-0.00022732,-2.06047,0.351491,0.167856,57.0089,-0.0261282,
2,1,0,1,1,52417.8,-0.0237809,-0.0241862,8.81646,27,-0.00163899,10,-0.000213237,-2.05471,0.369104,0.159846,54.9417,-0.0241862,
2,1,0,1,1,52417.8,-0.0217833,-0.0222176,8.91501,27,-0.00155027,10,-0.00019807,-2.04988,0.427869,0.137893,47.9618,-0.02221762,
2,1,0,1,1,52417.8,-0.0197858,-0.0201744,9.00887,27,-0.00146062,10,-0.000181749,-2.04533,0.474437,0.124358,43.6967,-0.0201744,
2,1,0,1,1,52417.8,-0.0177882,-0.0181546,9.09255,27,-0.0013701,10,-0.000165072,-2.04131,0.486384,0.121303,43.0515,-0.0181546,
2,1,0,1,1,52417.8,-0.0157815,-0.0162103,9.17953,27,-0.00127875,10,-0.000148803,-2.03718,0.556602,0.106,37.9263,-0.0162103,
2,1,0,1,1,52417.8,-0.0137839,-0.0141706,9.24365,27,-0.00118658,10,-0.000130988,-2.03416,0.682934,0.086392,31.162,-0.0141706,
2,1,0,1,1,52417.9,-0.0117863,-0.0121621,9.30568,27,-0.00109384,10,-0.000113176,-2.03125,0.714557,0.0825686,29.9797,-0.01216207,
2,1,0,1,1,52417.9,-0.00978874,-0.0101657,9.36372,27,-0.00100043,10,-9.51888e-05,-2.02855,0.691493,0.0853226,31.1925,-0.0101657,
2,1,0,1,1,52417.9,-0.00778207,-0.00819104,9.42955,27,-0.000906492,10,-7.72378e-05,-2.02551,0.856213,0.0689081,25.3184,-0.008191037,
2,1,0,1,1,52417.9,-0.00578449,-0.00613655,9.46573,27,-0.000811983,10,-5.80869e-05,-2.02385,1.06561,0.0553675,20.4647,-0.00613655,
2,1,0,1,1,52417.9,-0.0037869,-0.00415494,9.51215,27,-0.000717109,10,-3.95223e-05,-2.02172,1.05918,0.0557036,20.6669,-0.004154935,
2,1,0,1,1,52417.9,-0.00178931,-0.00216725,9.54776,27,-0.000621781,10,-2.06924e-05,-2.0201,1.7711,0.0333127,12.3973,-0.00216725,
2,1,0,1,1,52417.9,-2.55332e-05,-0.000344411,9.55939,27,-0.000538593,10,-3.29236e-06,-2.01957, , , ,-0.000344411,