File: Figure_codes/Fig_3-5/rawdata_trumpetplot_data/after 10th/20221101_1-115_003_TrumpetPlot_ParaChange_from10_every3_14_CV_C01_14.csv
mode,ox/red,error,control changes,counter inc.,time/s,control/V,Ewe/V,<I>/mA,cycle number,(Q-Qo)/C,I Range,P/W,log(|I|),Tafel slope mV/dec,alpha_eff,dI/d(E-IR),E-IR/V,
2,1,0,1,0,28780.9,2.44065e-05,-0.000306236,35.1813,15,0.0000000E+000,10,-1.07738e-05,-1.45369, , , ,-0.000306236,
2,1,0,1,0,28780.9,0.00332042,0.00298951,36.4864,15,0.000111657,10,0.000109076,-1.43787, , , ,0.002989507,
2,1,0,1,0,28780.9,0.0073156,0.00691407,37.5107,15,0.000259808,10,0.000259352,-1.42584, , , ,0.00691407,
2,1,0,1,0,28780.9,0.0113108,0.0109457,38.4287,15,0.000411811,10,0.00042063,-1.41534,0.396382,0.148846,222.084,0.0109457,
2,1,0,1,0,28780.9,0.0153059,0.014918,39.2618,15,0.000567281,10,0.000585708,-1.40603,0.441221,0.13372,204.222,0.014918,
2,1,0,1,0,28781,0.0193011,0.0189465,40.0302,15,0.000725967,10,0.000758433,-1.39761,0.486637,0.12124,188.905,0.0189465,
2,1,0,1,0,28781,0.0233462,0.023028,40.8015,15,0.00088776,10,0.000939578,-1.38932,0.530213,0.111276,176.597,0.023028,
2,1,0,1,0,28781,0.0273414,0.026978,41.4573,15,0.00105234,10,0.00111844,-1.3824,0.571181,0.103295,166.704,0.026978,
2,1,0,1,0,28781,0.0313366,0.0309938,42.1007,15,0.00121954,10,0.00130486,-1.37571,0.621146,0.0949857,155.808,0.03099378,
2,1,0,1,0,28781,0.0353317,0.0349852,42.7039,15,0.0013892,10,0.001494,-1.36953,0.656219,0.089909,149.624,0.0349852,
2,1,0,1,0,28781,0.0393269,0.0389627,43.2843,15,0.00156126,10,0.00168647,-1.36367,0.700094,0.0842744,142.167,0.0389627,
2,1,0,1,0,28781,0.0433221,0.0429594,43.8485,15,0.00173558,10,0.0018837,-1.35805,0.739684,0.0797638,136.287,0.0429594,
2,1,0,1,0,28781,0.0473173,0.0469571,44.3702,15,0.00191207,10,0.0020835,-1.35291,0.775978,0.0760331,131.534,0.0469571,
2,1,0,1,0,28781,0.0513124,0.0509209,44.8758,15,0.00209063,10,0.00228512,-1.34799,0.814231,0.072461,126.842,0.0509209,
2,1,0,1,0,28781,0.0553076,0.0549473,45.3868,15,0.00227121,10,0.00249388,-1.34307,0.821561,0.0718145,127.182,0.0549473,
2,1,0,1,0,28781,0.0593028,0.058927,45.8738,15,0.00245377,10,0.00270321,-1.33843,0.855561,0.0689606,123.422,0.058927,
2,1,0,1,0,28781,0.0633479,0.0629322,46.4019,15,0.00263834,10,0.00292017,-1.33346,0.888717,0.0663878,120.07,0.0629322,
2,1,0,1,0,28781,0.0673431,0.0669755,46.8572,15,0.0028249,10,0.00313829,-1.32922,0.905408,0.065164,119.071,0.0669755,
2,1,0,1,0,28781,0.0713383,0.0709828,47.3122,15,0.00301328,10,0.00335835,-1.32503,0.945621,0.0623928,115.222,0.0709828,
2,1,0,1,0,28781,0.0753334,0.0749317,47.7795,15,0.0032035,10,0.0035802,-1.32076,0.941036,0.0626969,116.925,0.0749317,
2,1,0,1,0,28781,0.0793286,0.0789581,48.2485,15,0.0033956,10,0.00380961,-1.31652,0.934352,0.0631453,118.918,0.0789581,
2,1,0,1,0,28781,0.0833238,0.0829611,48.7264,15,0.0035896,10,0.00404239,-1.31224,0.943108,0.0625591,118.971,0.0829611,
2,1,0,1,0,28781,0.0873189,0.0869429,49.2101,15,0.00378553,10,0.00427847,-1.30795,0.935274,0.0630831,121.154,0.0869429,
2,1,0,1,0,28781,0.0913141,0.0909948,49.6906,15,0.00398337,10,0.00452158,-1.30373,0.930329,0.0634184,123.011,0.0909948,
2,1,0,1,0,28781,0.0953093,0.0949501,50.186,15,0.00418318,10,0.00476516,-1.29942,0.929198,0.0634956,124.384,0.09495008,
2,1,0,1,0,28781,0.0993045,0.0989139,50.6887,15,0.00438498,10,0.00501382,-1.29509,0.91993,0.0641353,126.889,0.0989139,
2,1,0,1,0,28781,0.103319,0.102879,51.1923,15,0.00458877,10,0.0052666,-1.2908,0.893373,0.0660419,132.047,0.102879,
2,1,0,1,0,28781,0.107345,0.106929,51.7125,15,0.00479464,10,0.00552959,-1.2864,0.874689,0.0674526,136.294,0.106929,
2,1,0,1,0,28781,0.11134,0.110913,52.2939,15,0.00500272,10,0.00580009,-1.28155,0.854181,0.069072,141.036,0.110913,
2,1,0,1,0,28781,0.115335,0.114955,52.875,15,0.00521312,10,0.00607823,-1.27675,0.839699,0.0702633,144.965,0.114955,
2,1,0,1,0,28781.1,0.11933,0.118983,53.4636,15,0.00542586,10,0.00636127,-1.27194,0.84889,0.0695025,144.981,0.118983,
2,1,0,1,0,28781.1,0.123325,0.122951,54.0351,15,0.00564091,10,0.00664368,-1.26732,0.845305,0.0697973,147.208,0.122951,
2,1,0,1,0,28781.1,0.127321,0.126979,54.623,15,0.00585828,10,0.00693595,-1.26262,0.841982,0.0700728,149.447,0.126979,
2,1,0,1,0,28781.1,0.131316,0.130924,55.2259,15,0.00607803,10,0.00723041,-1.25786,0.828637,0.0712012,153.543,0.130924,
2,1,0,1,0,28781.1,0.135311,0.134948,55.8494,15,0.00630023,10,0.00753674,-1.25298,0.810876,0.0727608,158.679,0.134948,
2,1,0,1,0,28781.1,0.139306,0.138972,56.4949,15,0.00652499,10,0.0078512,-1.24799,0.790631,0.074624,164.654,0.138972,
2,1,0,1,0,28781.1,0.143301,0.142945,57.1566,15,0.00675234,10,0.00817026,-1.24293,0.780459,0.0755965,168.744,0.142945,
2,1,0,1,0,28781.1,0.147346,0.146969,57.8677,15,0.00698249,10,0.00850478,-1.23756,0.76376,0.0772494,174.502,0.146969,
2,1,0,1,0,28781.1,0.151342,0.151032,58.5636,15,0.00721543,10,0.00884496,-1.23237,0.752782,0.0783759,179.19,0.151032,
2,1,0,1,0,28781.1,0.155337,0.154995,59.2909,15,0.00745119,10,0.00918977,-1.22701,0.750958,0.0785663,181.87,0.154995,
2,1,0,1,0,28781.1,0.159332,0.158991,60.0319,15,0.00768992,10,0.00954454,-1.22162,0.74082,0.0796415,186.591,0.1589912,
2,1,0,1,0,28781.1,0.163327,0.163012,60.7855,15,0.00793162,10,0.00990878,-1.2162,0.74364,0.0793395,188.204,0.163012,
2,1,0,1,0,28781.1,0.167322,0.166908,61.5259,15,0.00817632,10,0.0102692,-1.21094,0.747113,0.0789707,189.633,0.166908,
2,1,0,1,0,28781.1,0.171317,0.170974,62.2983,15,0.00842406,10,0.0106514,-1.20552,0.761555,0.0774731,188.287,0.170974,
2,1,0,1,0,28781.1,0.175313,0.17492,63.0524,15,0.00867481,10,0.0110291,-1.2003,0.780603,0.0755826,185.853,0.17492,
2,1,0,1,0,28781.1,0.179308,0.178949,63.7862,15,0.00892857,10,0.0114145,-1.19527,0.797958,0.0739387,183.979,0.1789491,
2,1,0,1,0,28781.1,0.183303,0.182967,64.5105,15,0.00918524,10,0.0118033,-1.19037,0.844562,0.0698587,175.719,0.182967,
2,1,0,1,0,28781.1,0.187348,0.186963,65.2399,15,0.00944474,10,0.0121974,-1.18549,0.888681,0.0663906,168.747,0.1869626,
2,1,0,1,0,28781.1,0.191343,0.190965,65.8718,15,0.00970704,10,0.0125792,-1.1813,0.962369,0.061307,157.35,0.190965,
2,1,0,1,0,28781.1,0.195338,0.19496,66.488,15,0.00997183,10,0.0129625,-1.17726,1.06926,0.0551783,142.937,0.19496,
2,1,0,1,0,28781.1,0.199334,0.199012,67.0352,15,0.0102389,10,0.0133408,-1.1737,1.19377,0.0494232,129.04,0.199012,
2,1,0,1,0,28781.1,0.203329,0.202956,67.5259,15,0.0105081,10,0.0137048,-1.17053,1.40224,0.0420757,110.628,0.202956,
2,1,0,1,0,28781.1,0.207324,0.206991,67.9398,15,0.0107791,10,0.0140629,-1.16788,1.70634,0.0345769,91.4402,0.206991,
2,1,0,1,0,28781.1,0.211319,0.210982,68.2604,15,0.0110516,10,0.0144017,-1.16583,2.29244,0.0257368,68.3725,0.210982,
2,1,0,1,0,28781.1,0.215314,0.214971,68.4945,15,0.0113251,10,0.0147243,-1.16434,3.64781,0.0161741,43.1018,0.214971,
2,1,0,1,0,28781.2,0.219309,0.218947,68.6192,15,0.0115994,10,0.0150239,-1.16355,9.4287,0.00625749,16.7025,0.218947,
2,1,0,1,0,28781.2,0.223305,0.222936,68.6271,15,0.0118739,10,0.0152994,-1.1635,-15.1601,-0.0038918,-10.3906,0.222936,
2,1,0,1,0,28781.2,0.227314,0.227008,68.5281,15,0.0121483,10,0.0155564,-1.16413,-3.99316,-0.0147753,-39.3855,0.227008,
2,1,0,1,0,28781.2,0.231345,0.231009,68.3279,15,0.012422,10,0.0157843,-1.1654,-2.29774,-0.0256774,-68.2208,0.231009,
2,1,0,1,0,28781.2,0.23534,0.234996,67.9871,15,0.0126947,10,0.0159767,-1.16757,-1.56887,-0.0376067,-99.4085,0.234996,
2,1,0,1,0,28781.2,0.239335,0.23901,67.5305,15,0.0129657,10,0.0161404,-1.1705,-1.19628,-0.0493195,-129.513,0.2390095,
2,1,0,1,0,28781.2,0.24333,0.24296,66.9424,15,0.0132346,10,0.0162643,-1.1743,-0.967842,-0.0609603,-158.707,0.24296,
2,1,0,1,0,28781.2,0.247326,0.247002,66.2566,15,0.013501,10,0.0163655,-1.17877,-0.814627,-0.0724257,-186.636,0.247002,
2,1,0,1,0,28781.2,0.251321,0.250997,65.4476,15,0.0137643,10,0.0164272,-1.18411,-0.713961,-0.0826376,-210.405,0.250997,
2,1,0,1,0,28781.2,0.255316,0.254974,64.551,15,0.0140243,10,0.0164588,-1.1901,-0.62627,-0.0942085,-236.603,0.254974,
2,1,0,1,0,28781.2,0.259311,0.259001,63.5671,15,0.0142804,10,0.016464,-1.19677,-0.569216,-0.103651,-256.36,0.259001,
2,1,0,1,0,28781.2,0.263306,0.26294,62.4856,15,0.0145325,10,0.0164299,-1.20422,-0.529601,-0.111405,-271.078,0.26294,
2,1,0,1,0,28781.2,0.267302,0.267001,61.3449,15,0.01478,10,0.0163791,-1.21222,-0.489651,-0.120494,-287.956,0.267001,
2,1,0,1,0,28781.2,0.271347,0.271035,60.1972,15,0.015023,10,0.0163155,-1.22042,-0.464838,-0.126926,-297.535,0.271035,
2,1,0,1,0,28781.2,0.275342,0.275001,58.9599,15,0.0152612,10,0.016214,-1.22944,-0.443562,-0.133014,-305.549,0.275001,
2,1,0,1,0,28781.2,0.279337,0.278996,57.7082,15,0.0154944,10,0.0161004,-1.23876,-0.423443,-0.139334,-313.495,0.278996,
2,1,0,1,0,28781.2,0.283332,0.283045,56.4427,15,0.0157226,10,0.0159758,-1.24839,-0.415192,-0.142103,-312.858,0.283045,
2,1,0,1,0,28781.2,0.287327,0.287044,55.1785,15,0.0159457,10,0.0158386,-1.25823,-0.408296,-0.144503,-311.181,0.287044,
2,1,0,1,0,28781.2,0.291322,0.291044,53.9408,15,0.0161638,10,0.0156991,-1.26808,-0.404306,-0.145929,-307.555,0.291044,
2,1,0,1,0,28781.2,0.295318,0.295012,52.7245,15,0.016377,10,0.0155544,-1.27799,-0.404069,-0.146015,-303.373,0.295012,
2,1,0,1,0,28781.2,0.299013,0.298679,51.6343,15,0.01657,10,0.0154221,-1.28706,-0.1599,-0.36898,-736.119,0.298679,
2,1,0,0,0,28781.2,0.300012,0.299689,51.3422,15,0.0166215,10,0.0153867,-1.28953,0.00450292,13.1026,23873.9,0.2996892,
2,1,0,1,0,28781.2,0.298714,0.298575,48.3971,15,0.0166852,10,0.0144501,-1.31518,0.0497176,1.1867,1990.99,0.298575,
2,1,0,1,0,28781.2,0.294718,0.294526,41.13,15,0.0168629,10,0.0121138,-1.38584,0.0578671,1.01958,1590.14,0.294526,
2,1,0,1,0,28781.2,0.290723,0.290509,35.3681,15,0.0170151,10,0.0102747,-1.45139,0.0594725,0.992054,1395.96,0.290509,
2,1,0,1,0,28781.2,0.286728,0.286521,30.4029,15,0.0171459,10,0.00871108,-1.51708,0.0594724,0.992057,1185.89,0.286521,
2,1,0,1,0,28781.2,0.282733,0.282541,26.0152,15,0.0172582,10,0.00735037,-1.58477,0.0571197,1.03292,1050.29,0.282541,
2,1,0,1,0,28781.3,0.278738,0.27847,22.0897,15,0.0173539,10,0.00615134,-1.65581,0.0538516,1.0956,940.983,0.27847,
2,1,0,1,0,28781.3,0.274742,0.274486,18.5396,15,0.0174347,10,0.00508887,-1.7319,0.0498244,1.18416,847.742,0.274486,
2,1,0,1,0,28781.3,0.270747,0.270493,15.3208,15,0.017502,10,0.00414417,-1.81472,0.0447499,1.31844,774.432,0.270493,
2,1,0,1,0,28781.3,0.266702,0.266425,12.3529,15,0.017557,10,0.00329113,-1.90823,0.03933,1.50013,703.898,0.266425,
2,1,0,1,0,28781.3,0.262707,0.262465,9.69437,15,0.0176007,10,0.00254443,-2.01348,0.032931,1.79163,643.919,0.262465,
2,1,0,1,0,28781.3,0.258712,0.258446,7.24851,15,0.0176343,10,0.00187334,-2.13975,0.0254395,2.31922,591.378,0.258446,
2,1,0,1,0,28781.3,0.254717,0.254449,4.98978,15,0.0176585,10,0.00126964,-2.30192,0.0161725,3.64817,544.965,0.254449,
2,1,0,1,0,28781.3,0.250722,0.250462,2.9125,15,0.0176741,10,0.00072947,-2.53573,0.0165037,3.57495,500.848,0.250462,
2,1,0,1,0,28781.3,0.246726,0.246511,1.00009,15,0.0176817,10,0.000246534,-2.99996,0.0506428,1.16502,463.464,0.2465108,
2,0,0,1,0,28781.3,0.242731,0.242425,-0.77539,15,0.0176819,10,-0.000187974,-3.11048,-0.121422,-0.48591,428.391,0.242425,
2,0,0,1,0,28781.3,0.238736,0.238475,-2.41356,15,0.0176753,10,-0.000575574,-2.61734,-0.0220037,-2.68137,396.828,0.238475,
2,0,0,1,0,28781.3,0.234741,0.234453,-3.94558,15,0.0176624,10,-0.000925054,-2.40389,-0.017093,-3.4517,372.369,0.234453,
2,0,0,1,0,28781.3,0.230746,0.230429,-5.38175,15,0.0176436,10,-0.00124011,-2.26908,-0.0309223,-1.90801,346.872,0.230429,
2,0,0,1,0,28781.3,0.226701,0.226348,-6.7619,15,0.0176192,10,-0.00153054,-2.16993,-0.0438577,-1.34526,325.002,0.226348,
2,0,0,1,0,28781.3,0.222705,0.222399,-7.98979,15,0.0175896,10,-0.00177692,-2.09746,-0.05712,-1.03291,304.736,0.222399,
2,0,0,1,0,28781.3,0.21871,0.218414,-9.15818,15,0.0175551,10,-0.00200028,-2.03819,-0.0715021,-0.825151,284.528,0.218414,
2,0,0,1,0,28781.3,0.214715,0.214427,-10.258,15,0.0175162,10,-0.00219959,-1.98894,-0.0854648,-0.690343,268.958,0.214427,
2,0,0,1,0,28781.3,0.21072,0.210417,-11.2949,15,0.0174729,10,-0.00237663,-1.94712,-0.100469,-0.587244,253.451,0.210417,
2,0,0,1,0,28781.3,0.206725,0.206438,-12.2827,15,0.0174257,10,-0.00253561,-1.91071,-0.115839,-0.509329,240.029,0.206438,
2,0,0,1,0,28781.3,0.202729,0.202443,-13.206,15,0.0173746,10,-0.00267347,-1.87923,-0.131679,-0.448058,227.934,0.202443,
2,0,0,1,0,28781.3,0.198734,0.198438,-14.0958,15,0.0173199,10,-0.00279714,-1.85091,-0.148058,-0.398493,216.914,0.198438,
2,0,0,1,0,28781.3,0.194739,0.194401,-14.9453,15,0.0172617,10,-0.00290539,-1.8255,-0.162962,-0.362048,209.374,0.194401,
2,0,0,1,0,28781.3,0.190744,0.190422,-15.7569,15,0.0172002,10,-0.00300045,-1.80253,-0.178851,-0.329883,201.568,0.190422,
2,0,0,1,0,28781.3,0.186735,0.186442,-16.5563,15,0.0171355,10,-0.00308679,-1.78104,-0.195014,-0.302542,194.256,0.186442,
2,0,0,1,0,28781.3,0.182704,0.1824,-17.3286,15,0.0170676,10,-0.00316074,-1.76124,-0.209744,-0.281295,189.075,0.1824,
2,0,0,1,0,28781.4,0.178709,0.178382,-18.0572,15,0.0169968,10,-0.00322107,-1.74335,-0.226317,-0.260696,182.925,0.1783818,
2,0,0,1,0,28781.4,0.174713,0.174447,-18.7774,15,0.016923,10,-0.00327565,-1.72637,-0.239604,-0.24624,179.958,0.174447,
2,0,0,1,0,28781.4,0.170718,0.170449,-19.4818,15,0.0168464,10,-0.00332066,-1.71037,-0.250945,-0.235112,178.39,0.1704489,
2,0,0,1,0,28781.4,0.166723,0.166462,-20.1968,15,0.016767,10,-0.00336199,-1.69472,-0.262773,-0.224528,176.661,0.166462,
2,0,0,1,0,28781.4,0.162728,0.162474,-20.8951,15,0.0166847,10,-0.00339489,-1.67996,-0.268821,-0.219477,178.883,0.162474,
2,0,0,1,0,28781.4,0.158733,0.15841,-21.6104,15,0.0165997,10,-0.0034233,-1.66534,-0.273271,-0.215903,182.164,0.1584101,
2,0,0,1,0,28781.4,0.154737,0.154403,-22.3522,15,0.0165117,10,-0.00345124,-1.65068,-0.273808,-0.21548,188.095,0.154403,
2,0,0,1,0,28781.4,0.150742,0.150486,-23.1071,15,0.0164207,10,-0.00347728,-1.63626,-0.26802,-0.220132,198.983,0.150486,
2,0,0,1,0,28781.4,0.146747,0.146464,-23.9065,15,0.0163266,10,-0.00350142,-1.62148,-0.26568,-0.222072,207.752,0.146464,
2,0,0,1,0,28781.4,0.142702,0.142454,-24.7853,15,0.0162291,10,-0.00353078,-1.6058,-0.26039,-0.226583,219.566,0.142454,
2,0,0,1,0,28781.4,0.138707,0.13845,-25.6664,15,0.0161281,10,-0.00355352,-1.59063,-0.253174,-0.233041,234.091,0.13845,
2,0,0,1,0,28781.4,0.134712,0.134413,-26.6361,15,0.0160235,10,-0.00358024,-1.57453,-0.247068,-0.238801,249.163,0.134413,
2,0,0,1,0,28781.4,0.130717,0.130419,-27.6624,15,0.0159148,10,-0.0036077,-1.55811,-0.237552,-0.248366,269.158,0.130419,
2,0,0,1,0,28781.4,0.126721,0.126403,-28.7848,15,0.0158018,10,-0.00363847,-1.54084,-0.229706,-0.25685,289.56,0.1264028,
2,0,0,1,0,28781.4,0.122726,0.122416,-29.9822,15,0.0156842,10,-0.00367029,-1.52314,-0.222666,-0.264971,311.027,0.122416,
2,0,0,1,0,28781.4,0.118731,0.118443,-31.2603,15,0.0155616,10,-0.00370257,-1.50501,-0.218546,-0.269966,330.222,0.118443,
2,0,0,1,0,28781.4,0.114736,0.114452,-32.6285,15,0.0154337,10,-0.00373439,-1.4864,-0.216805,-0.272134,346.967,0.114452,
2,0,0,1,0,28781.4,0.110741,0.110466,-34.0475,15,0.0153002,10,-0.00376108,-1.46792,-0.21677,-0.272178,361.935,0.110466,
2,0,0,1,0,28781.4,0.106745,0.106477,-35.5125,15,0.015161,10,-0.00378126,-1.44962,-0.222281,-0.265429,367.663,0.106477,
2,0,0,1,0,28781.4,0.102703,0.102446,-37.0502,15,0.0150157,10,-0.00379565,-1.43121,-0.227638,-0.259184,373.785,0.102446,
2,0,0,1,0,28781.4,0.0987052,0.0984293,-38.5194,15,0.0148645,10,-0.00379144,-1.41432,-0.236154,-0.249837,374.816,0.09842927,
2,0,0,1,0,28781.4,0.09471,0.0944888,-40.0195,15,0.0147072,10,-0.00378139,-1.39773,-0.248167,-0.237743,370.574,0.0944888,
2,0,0,1,0,28781.4,0.0907148,0.0904306,-41.5268,15,0.014544,10,-0.0037553,-1.38167,-0.25939,-0.227457,367.355,0.0904306,
2,0,0,1,0,28781.4,0.0867197,0.0864573,-42.9753,15,0.0143748,10,-0.00371552,-1.36678,-0.275603,-0.214076,357.776,0.08645729,
2,0,0,1,0,28781.4,0.0827245,0.0824617,-44.3852,15,0.0142,10,-0.00366008,-1.35276,-0.292038,-0.202028,348.911,0.08246167,
2,0,0,1,0,28781.5,0.0787293,0.0784576,-45.7551,15,0.0140195,10,-0.00358983,-1.33956,-0.311892,-0.189168,336.789,0.0784576,
2,0,0,1,0,28781.5,0.0747341,0.0744715,-47.0952,15,0.0138337,10,-0.00350725,-1.32702,-0.336179,-0.175502,321.21,0.0744715,
2,0,0,1,0,28781.5,0.070739,0.0704409,-48.3694,15,0.0136426,10,-0.00340719,-1.31543,-0.359717,-0.164018,308.315,0.0704409,
2,0,0,1,0,28781.5,0.0667438,0.0665333,-49.5015,15,0.0134468,10,-0.0032935,-1.30538,-0.385234,-0.153154,295.402,0.0665333,
2,0,0,1,0,28781.5,0.0627403,0.0625483,-50.6601,15,0.0132463,10,-0.00316871,-1.29533,-0.41624,-0.141745,279.738,0.0625483,
2,0,0,1,0,28781.5,0.0587035,0.0584604,-51.8249,15,0.0130411,10,-0.0030297,-1.28546,-0.446697,-0.132081,266.039,0.0584604,
2,0,0,1,0,28781.5,0.0547083,0.0544839,-52.8332,15,0.0128317,10,-0.00287856,-1.27709,-0.489066,-0.120638,247.763,0.0544839,
2,0,0,1,0,28781.5,0.0507132,0.0504522,-53.7797,15,0.0126184,10,-0.00271331,-1.26938,-0.549546,-0.107361,224.567,0.0504522,
2,0,0,1,0,28781.5,0.046718,0.0464895,-54.6389,15,0.0124014,10,-0.00254014,-1.2625,-0.60742,-0.0971322,206.475,0.0464895,
2,0,0,1,0,28781.5,0.0427228,0.0425056,-55.4078,15,0.0121812,10,-0.00235514,-1.25643,-0.670756,-0.0879605,189.758,0.0425056,
2,0,0,1,0,28781.5,0.0387276,0.0384887,-56.1358,15,0.0119581,10,-0.0021606,-1.25076,-0.74051,-0.0796748,174.187,0.0384887,
2,0,0,1,0,28781.5,0.0347325,0.0345196,-56.8031,15,0.0117321,10,-0.00196082,-1.24563,-0.807107,-0.0731006,161.745,0.0345196,
2,0,0,1,0,28781.5,0.0307373,0.0305187,-57.4208,15,0.0115036,10,-0.00175241,-1.24093,-0.895996,-0.0658485,147.274,0.03051872,
2,0,0,1,0,28781.5,0.0267421,0.0264658,-58.0021,15,0.0112727,10,-0.00153508,-1.23656,-0.97562,-0.0604744,136.641,0.0264658,
2,0,0,1,0,28781.5,0.022747,0.0224596,-58.4964,15,0.0110396,10,-0.00131381,-1.23287,-1.09696,-0.0537851,122.594,0.0224596,
2,0,0,1,0,28781.5,0.0187018,0.0184237,-59.0025,15,0.0108046,10,-0.00108704,-1.22913,-1.25888,-0.0468672,107.663,0.0184237,
2,0,0,1,0,28781.5,0.0147067,0.0143857,-59.3986,15,0.0105677,10,-0.000854491,-1.22622,-1.42005,-0.0415479,96.0958,0.0143857,
2,0,0,1,0,28781.5,0.0107115,0.0104155,-59.7302,15,0.0103294,10,-0.000622122,-1.22381,-1.70132,-0.0346789,80.7284,0.0104155,
2,0,0,1,0,28781.5,0.00671632,0.0064125,-60.0385,15,0.0100898,10,-0.000384997,-1.22157,-1.94022,-0.030409,71.1674,0.0064125,
2,0,0,1,0,28781.5,0.00272115,0.00236705,-60.2987,15,0.00984914,10,-0.00014273,-1.21969,-2.25027,-0.026219,61.6241,0.00236705,
2,0,0,1,0,28781.5,-0.00127403,-0.00165295,-60.5401,15,0.00960737,10,0.00010007,-1.21796,-2.75107,-0.0214462,50.5888,-0.00165295,
2,0,0,1,0,28781.5,-0.0052692,-0.00566023,-60.7208,15,0.00936484,10,0.000343694,-1.21666,-3.40728,-0.0173159,40.9698,-0.00566023,
2,0,0,1,0,28781.5,-0.00926438,-0.00957843,-60.8475,15,0.00912169,10,0.000582824,-1.21576,-4.98774,-0.011829,28.0515,-0.00957843,
2,0,0,1,0,28781.5,-0.0132596,-0.0136196,-60.9537,15,0.00887807,10,0.000830167,-1.215,-6.95888,-0.00847838,20.1449,-0.0136196,
2,0,0,1,0,28781.5,-0.0172547,-0.0176153,-60.9878,15,0.00863419,10,0.00107432,-1.21476,-12.9495,-0.00455615,10.8349,-0.0176153,
2,0,0,1,0,28781.6,-0.0212915,-0.021666,-61.0433,15,0.00839015,10,0.00132256,-1.21436,252.536,0.00023363,-0.555726,-0.021666,
2,0,0,1,0,28781.6,-0.025295,-0.0256595,-61.0217,15,0.008146,10,0.00156579,-1.21452,15.0475,0.00392092,-9.32101,-0.0256595,
2,0,0,1,0,28781.6,-0.0292902,-0.0296435,-60.9447,15,0.00790206,10,0.00180661,-1.21506,6.21965,0.00948607,-22.5324,-0.0296435,
2,0,0,1,0,28781.6,-0.0332854,-0.0336094,-60.8387,15,0.0076585,10,0.00204475,-1.21582,4.28907,0.0137559,-32.6193,-0.0336094,
2,0,0,1,0,28781.6,-0.0372805,-0.037605,-60.6841,15,0.00741547,10,0.00228203,-1.21692,3.39571,0.0173749,-41.1029,-0.037605,
2,0,0,1,0,28781.6,-0.0412757,-0.041642,-60.5004,15,0.00717311,10,0.00251935,-1.21824,2.81576,0.0209535,-49.4271,-0.041642,
2,0,0,1,0,28781.6,-0.0452709,-0.0456111,-60.2884,15,0.00693156,10,0.00274982,-1.21977,2.46145,0.0239696,-56.3448,-0.0456111,
2,0,0,1,0,28781.6,-0.0492661,-0.0495908,-60.0488,15,0.0066909,10,0.00297787,-1.2215,2.21114,0.0266831,-62.4816,-0.04959077,
2,0,0,1,0,28781.6,-0.0532612,-0.0536055,-59.7826,15,0.00645124,10,0.00320467,-1.22343,2.0585,0.0286617,-66.836,-0.0536055,
2,0,0,1,0,28781.6,-0.0572564,-0.0576085,-59.5028,15,0.0062127,10,0.00342786,-1.22546,2.03246,0.0290289,-67.4154,-0.0576085,
2,0,0,1,0,28781.6,-0.0612544,-0.0616455,-59.2168,15,0.00597529,10,0.00365045,-1.22756,1.9569,0.0301498,-69.6839,-0.0616455,
2,0,0,1,0,28781.6,-0.0652967,-0.0656315,-58.9674,15,0.00573887,10,0.00387012,-1.22939,1.91697,0.0307777,-70.789,-0.0656315,
2,0,0,1,0,28781.6,-0.0692919,-0.0696378,-58.6654,15,0.00550364,10,0.00408533,-1.23162,1.88495,0.0313006,-71.6359,-0.0696378,
2,0,0,1,0,28781.6,-0.0732871,-0.0736281,-58.3687,15,0.00526961,10,0.00429758,-1.23382,1.838,0.0321,-73.1365,-0.0736281,
2,0,0,1,0,28781.6,-0.0772822,-0.0776163,-58.0727,15,0.00503676,10,0.00450738,-1.23603,1.89547,0.0311268,-70.5762,-0.0776163,
2,0,0,1,0,28781.6,-0.0812774,-0.0816395,-57.7967,15,0.00480506,10,0.00471849,-1.2381,1.99349,0.0295964,-66.7988,-0.0816395,
2,0,0,1,0,28781.6,-0.0852726,-0.0856701,-57.5339,15,0.00457444,10,0.00492893,-1.24008,2.11632,0.0278786,-62.6377,-0.0856701,
2,0,0,1,0,28781.6,-0.0892678,-0.0896572,-57.298,15,0.0043448,10,0.00513718,-1.24186,2.26899,0.0260027,-58.1785,-0.0896572,
2,0,0,1,0,28781.6,-0.0932629,-0.0935966,-57.0717,15,0.00411608,10,0.00534172,-1.24358,2.46449,0.0239401,-53.3574,-0.0935966,
2,0,0,1,0,28781.6,-0.0972581,-0.0976463,-56.8654,15,0.00388823,10,0.0055527,-1.24515,2.91606,0.0202328,-44.9595,-0.0976463,
2,0,0,1,0,28781.6,-0.101253,-0.101552,-56.6865,15,0.00366115,10,0.00575661,-1.24652,3.31698,0.0177873,-39.3983,-0.101552,
2,0,0,1,0,28781.6,-0.105298,-0.105638,-56.5796,15,0.00343464,10,0.00597692,-1.24734,3.91229,0.0150807,-33.3111,-0.105638,
2,0,0,1,0,28781.6,-0.109294,-0.109635,-56.4398,15,0.00320862,10,0.00618779,-1.24841,4.53943,0.0129972,-28.6365,-0.109635,
2,0,0,1,0,28781.6,-0.113289,-0.11365,-56.3323,15,0.00298311,10,0.00640216,-1.24924,5.03608,0.0117155,-25.7747,-0.11365,
2,0,0,1,0,28781.6,-0.117284,-0.117667,-56.225,15,0.00275801,10,0.00661581,-1.25007,6.62613,0.00890415,-19.5585,-0.117667,
2,0,0,1,0,28781.7,-0.121279,-0.121644,-56.167,15,0.00253324,10,0.0068324,-1.25052,9.49193,0.0062158,-13.6388,-0.121644,
2,0,0,1,0,28781.7,-0.125274,-0.125637,-56.1268,15,0.00230868,10,0.0070516,-1.25083,19.0228,0.00310154,-6.7991,-0.1256368,
2,0,0,1,0,28781.7,-0.129269,-0.12965,-56.1141,15,0.00208419,10,0.00727522,-1.25093,43.308,0.00136233,-2.985,-0.12965,
2,0,0,1,0,28781.7,-0.133265,-0.133616,-56.1166,15,0.00185975,10,0.00749809,-1.25091,-40.1423,-0.00146977,3.22094,-0.133616,
2,0,0,1,0,28781.7,-0.13726,-0.137601,-56.1193,15,0.00163529,10,0.0077221,-1.25089,-12.253,-0.00481516,10.5608,-0.137601,
2,0,0,1,0,28781.7,-0.141255,-0.14162,-56.1783,15,0.00141068,10,0.00795599,-1.25043,-8.65982,-0.00681307,14.9528,-0.14162,
2,0,0,1,0,28781.7,-0.145286,-0.145643,-56.283,15,0.00118582,10,0.00819725,-1.24962,-6.18647,-0.00953694,20.95,-0.145643,
2,0,0,1,0,28781.7,-0.149295,-0.149636,-56.3561,15,0.000960515,10,0.0084329,-1.24906,-5.70761,-0.0103371,22.7371,-0.149636,
2,0,0,1,0,28781.7,-0.15329,-0.153655,-56.4557,15,0.000734884,10,0.00867469,-1.24829,-5.55016,-0.0106303,23.4277,-0.153655,
2,0,0,1,0,28781.7,-0.157286,-0.157657,-56.5429,15,0.000508899,10,0.00891438,-1.24762,-4.70853,-0.0125304,27.6673,-0.157657,
2,0,0,1,0,28781.7,-0.161281,-0.161639,-56.6577,15,0.000282473,10,0.00915808,-1.24674,-4.37709,-0.0134793,29.8233,-0.161639,
2,0,0,1,0,28781.7,-0.165276,-0.165601,-56.7978,15,5.55692e-05,10,0.0094058,-1.24567,-3.91433,-0.0150728,33.4175,-0.165601,
2,0,0,1,0,28781.7,-0.169271,-0.169561,-56.93,15,-0.000171898,10,0.00965311,-1.24466,-3.72941,-0.0158202,35.1544,-0.169561,
2,0,0,1,0,28781.7,-0.173266,-0.1736,-57.0757,15,-0.000399927,10,0.00990835,-1.24355,-3.66701,-0.0160894,35.8441,-0.1736,
2,0,0,1,0,28781.7,-0.177261,-0.177625,-57.2197,15,-0.00062852,10,0.0101637,-1.24245,-3.44574,-0.0171226,38.2471,-0.177625,
2,0,0,1,0,28781.7,-0.181257,-0.181589,-57.3709,15,-0.000857728,10,0.0104179,-1.24131,-3.13411,-0.0188251,42.1801,-0.181589,
2,0,0,1,0,28781.7,-0.185252,-0.185554,-57.5417,15,-0.00108756,10,0.0106771,-1.24002,-3.08175,-0.0191449,43.0088,-0.185554,
2,0,0,1,0,28781.7,-0.189297,-0.189596,-57.7505,15,-0.00131822,10,0.0109493,-1.23844,-3.03163,-0.0194615,43.841,-0.189596,
2,0,0,1,0,28781.7,-0.193292,-0.193599,-57.9067,15,-0.00154957,10,0.0112107,-1.23727,-3.08607,-0.0191182,43.1706,-0.193599,
2,0,0,1,0,28781.7,-0.197287,-0.197633,-58.0743,15,-0.00178155,10,0.0114774,-1.23602,-12.6808,-0.00465272,10.4967,-0.1976331,
2,0,0,0,0,28781.7,-0.199984,-0.200322,-58.1793,15,-0.0019385,10,0.0116546,-1.23523,0.0677639,0.87067,-1853.66,-0.200322,
2,0,0,0,1,28781.7,-0.199984,-0.200456,-57.8644,15,-0.00197326,10,0.0115993,-1.23759,-0.0420967,-1.40154,2816.62,-0.200456,
2,0,0,1,1,28781.7,-0.196688,-0.197147,-51.3297,15,-0.0021399,10,0.0101195,-1.28963,-0.071277,-0.827756,1576.88,-0.197147,
2,0,0,1,1,28781.7,-0.192693,-0.193144,-45.4314,15,-0.00233247,10,0.00877482,-1.34264,-0.0750795,-0.785834,1415.83,-0.193144,
2,0,0,1,1,28781.7,-0.188698,-0.189117,-40.5099,15,-0.00250367,10,0.00766111,-1.39244,-0.0799504,-0.737958,1183.33,-0.189117,
2,0,0,1,1,28781.7,-0.184653,-0.185127,-36.1609,15,-0.00265647,10,0.00669435,-1.44176,-0.08113,-0.727228,1035.38,-0.185127,
2,0,0,1,1,28781.8,-0.180657,-0.181073,-32.308,15,-0.00279292,10,0.00585011,-1.49069,-0.0802802,-0.734926,930.929,-0.181073,
2,0,0,1,1,28781.8,-0.176662,-0.177073,-28.7912,15,-0.0029147,10,0.00509814,-1.54074,-0.0780897,-0.755542,849.279,-0.1770729,
2,0,0,1,1,28781.8,-0.172667,-0.173047,-25.5494,15,-0.00302298,10,0.00442124,-1.59262,-0.0741242,-0.795962,791.227,-0.173047,
2,0,0,1,1,28781.8,-0.168672,-0.169062,-22.517,15,-0.00311876,10,0.00380677,-1.64749,-0.0695193,-0.848686,741.004,-0.169062,
2,0,0,1,1,28781.8,-0.164677,-0.165105,-19.6741,15,-0.00320281,10,0.00324829,-1.70611,-0.0643509,-0.916848,696.939,-0.165105,
2,0,0,1,1,28781.8,-0.160681,-0.161142,-16.9866,15,-0.00327581,10,0.00273727,-1.76989,-0.0589023,-1.00166,654.574,-0.161142,
2,0,0,1,1,28781.8,-0.156686,-0.157126,-14.4535,15,-0.00333842,10,0.00227102,-1.84003,-0.0523387,-1.12727,621.693,-0.157126,
2,0,0,1,1,28781.8,-0.152691,-0.153078,-12.0547,15,-0.00339115,10,0.00184531,-1.91884,-0.0452914,-1.30267,590.214,-0.153078,
2,0,0,1,1,28781.8,-0.148696,-0.14913,-9.74249,15,-0.00343448,10,0.0014529,-2.01133,-0.0374514,-1.57538,565.264,-0.14913,
2,0,0,1,1,28781.8,-0.14467,-0.145083,-7.50789,15,-0.00346878,10,0.00108926,-2.12448,-0.0288849,-2.04259,542.976,-0.145083,
2,0,0,1,1,28781.8,-0.140656,-0.141105,-5.39761,15,-0.00349432,10,0.00076163,-2.2678,-0.0192915,-3.05834,518.06,-0.141105,
2,0,0,1,1,28781.8,-0.136661,-0.137078,-3.3668,15,-0.00351162,10,0.000461512,-2.47278,-0.0129225,-4.56566,498.866,-0.137078,
2,0,0,1,1,28781.8,-0.132665,-0.1331,-1.43789,15,-0.00352102,10,0.000191383,-2.84228,-0.0421008,-1.4014,478.629,-0.1331,
2,1,0,1,1,28781.8,-0.12867,-0.129152,0.43929,15,-0.0035228,10,-5.67351e-05,-3.35725,0.21151,0.278947,462.402,-0.129152,
2,1,0,1,1,28781.8,-0.124675,-0.125122,2.25205,15,-0.00351722,10,-0.000281782,-2.64742,0.0266469,2.21414,447.881,-0.1251225,
2,1,0,1,1,28781.8,-0.12068,-0.121135,4.00488,15,-0.00350451,10,-0.000485133,-2.39741,0.0130722,4.51339,431.832,-0.121135,
2,1,0,1,1,28781.8,-0.116685,-0.117143,5.70895,15,-0.0034849,10,-0.000668764,-2.24344,0.0266356,2.21508,419.216,-0.117143,
2,1,0,1,1,28781.8,-0.112689,-0.113162,7.34423,15,-0.00345863,10,-0.000831089,-2.13405,0.0380423,1.5509,408.198,-0.113162,
2,1,0,1,1,28781.8,-0.108694,-0.10918,8.93526,15,-0.00342588,10,-0.000975555,-2.04889,0.0492452,1.19809,397.332,-0.10918,
2,1,0,1,1,28781.8,-0.104699,-0.105188,10.5146,15,-0.00338682,10,-0.00110601,-1.97821,0.0603048,0.978364,386.861,-0.105188,
2,1,0,1,1,28781.8,-0.100654,-0.101124,12.0736,15,-0.00334142,10,-0.00122094,-1.91816,0.0714962,0.825219,376.779,-0.101124,
2,1,0,1,1,28781.8,-0.0966588,-0.0971235,13.549,15,-0.00329001,10,-0.00131592,-1.86809,0.0834629,0.706901,364.993,-0.0971235,
2,1,0,1,1,28781.8,-0.0926637,-0.0931332,14.9815,15,-0.00323281,10,-0.00139527,-1.82445,0.0956592,0.616773,354.625,-0.0931332,
2,1,0,1,1,28781.8,-0.0886685,-0.0891259,16.3771,15,-0.00316994,10,-0.00145963,-1.78576,0.107632,0.548165,345.764,-0.0891259,
2,1,0,1,1,28781.8,-0.0846733,-0.0851006,17.7561,15,-0.00310152,10,-0.00151105,-1.75065,0.119863,0.492227,336.917,-0.0851006,
2,1,0,1,1,28781.9,-0.0806781,-0.0810923,19.092,15,-0.00302769,10,-0.00154821,-1.71915,0.132455,0.445435,328.238,-0.0810923,
2,1,0,1,1,28781.9,-0.076683,-0.0771359,20.3713,15,-0.0029486,10,-0.00157136,-1.69098,0.14551,0.405471,319.571,-0.0771359,
2,1,0,1,1,28781.9,-0.0726878,-0.0731244,21.6294,15,-0.00286446,10,-0.00158164,-1.66495,0.15988,0.369027,309.243,-0.0731244,
2,1,0,1,1,28781.9,-0.0686926,-0.069168,22.8477,15,-0.00277538,10,-0.00158033,-1.64116,0.171851,0.343321,304.55,-0.069168,
2,1,0,1,1,28781.9,-0.0646974,-0.0650833,24.0426,15,-0.00268147,10,-0.00156477,-1.61902,0.187034,0.315451,294.484,-0.0650833,
2,1,0,1,1,28781.9,-0.0606523,-0.0610718,25.2636,15,-0.00258277,10,-0.00154289,-1.59751,0.201236,0.293188,287.036,-0.0610718,
2,1,0,1,1,28781.9,-0.0566571,-0.0570348,26.3676,15,-0.00247939,10,-0.00150387,-1.57893,0.216017,0.273126,279.495,-0.0570348,
2,1,0,1,1,28781.9,-0.052662,-0.0530806,27.4653,15,-0.0023716,10,-0.00145788,-1.56121,0.233682,0.252479,269.572,-0.05308057,
2,1,0,1,1,28781.9,-0.0486668,-0.0490394,28.5268,15,-0.00225951,10,-0.00139894,-1.54475,0.248214,0.237698,263.643,-0.04903936,
2,1,0,1,1,28781.9,-0.0446716,-0.0451148,29.5651,15,-0.00214321,10,-0.00133382,-1.52922,0.26568,0.222071,255.337,-0.0451148,
2,1,0,1,1,28781.9,-0.0406764,-0.0410693,30.5767,15,-0.00202282,10,-0.00125577,-1.51461,0.281676,0.20946,249.078,-0.04106934,
2,1,0,1,1,28781.9,-0.0366813,-0.0370737,31.5525,15,-0.00189845,10,-0.00116977,-1.50097,0.300859,0.196105,240.72,-0.0370737,
2,1,0,1,1,28781.9,-0.0326861,-0.0330919,32.499,15,-0.00177023,10,-0.00107545,-1.48813,0.31969,0.184554,233.419,-0.0330919,
2,1,0,1,1,28781.9,-0.0286909,-0.0291048,33.4191,15,-0.0016383,10,-0.000972654,-1.47601,0.335789,0.175705,228.667,-0.0291048,
2,1,0,1,1,28781.9,-0.0246957,-0.0250731,34.3106,15,-0.00150275,10,-0.000860272,-1.46457,0.357235,0.165158,220.698,-0.0250731,
2,1,0,1,1,28781.9,-0.0206756,-0.0210881,35.2079,15,-0.00136365,10,-0.000742467,-1.45336,0.38008,0.15523,212.629,-0.0210881,
2,1,0,1,1,28781.9,-0.0166554,-0.0170363,36.0424,15,-0.00122104,10,-0.000614029,-1.44319,0.402472,0.146594,205.574,-0.0170363,
2,1,0,1,1,28781.9,-0.0126603,-0.0130534,36.832,15,-0.00107521,10,-0.000480783,-1.43377,0.431003,0.13689,196.373,-0.0130534,
2,1,0,1,1,28781.9,-0.0086651,-0.00904823,37.6049,15,-0.000926237,10,-0.000340257,-1.42476,0.454589,0.129787,189.997,-0.00904823,
2,1,0,1,1,28781.9,-0.00466992,-0.00507701,38.352,15,-0.000774254,10,-0.000194713,-1.41621, , , ,-0.00507701,
2,1,0,1,1,28781.9,-0.000974387,-0.00137831,39.0174,15,-0.00063108,10,-5.3778e-05,-1.40874, , , ,-0.00137831,
2,1,0,0,1,28781.9,-0.000175352,-0.000554371,39.166,15,-0.000599826,10,-2.17125e-05,-1.40709, , , ,-0.000554371,