File: Figure_codes/Fig_3-5/rawdata_trumpetplot_data/after 10th/20221101_1-115_003_TrumpetPlot_ParaChange_from10_every3_12_CV_C01_29.csv
mode,ox/red,error,control changes,counter inc.,time/s,control/V,Ewe/V,<I>/mA,cycle number,(Q-Qo)/C,I Range,P/W,log(|I|),Tafel slope mV/dec,alpha_eff,dI/d(E-IR),E-IR/V,
2,1,0,1,0,58330.3,2.44065e-05,-0.000382585,13.983,30,0.0000000E+000,10,-5.34969e-06,-1.8544, , , ,-0.000382585,
2,1,0,1,0,58330.3,0.00200257,0.00157811,14.8438,30,4.50558e-05,10,2.34251e-05,-1.82846, , , ,0.00157811,
2,1,0,1,0,58330.3,0.004408,0.00398311,15.5811,30,0.000106035,10,6.20613e-05,-1.8074, , , ,0.00398311,
2,1,0,1,0,58330.3,0.0068051,0.00641038,16.1857,30,0.000169647,10,0.000103757,-1.79087,0.149085,0.395747,247.191,0.00641038,
2,1,0,1,0,58330.3,0.00920221,0.00885037,16.73,30,0.000235554,10,0.000148067,-1.7765,0.173692,0.339682,220.31,0.00885037,
2,1,0,1,0,58330.3,0.0115993,0.0112108,17.2249,30,0.000303532,10,0.000193106,-1.76384,0.193502,0.304907,204.053,0.0112108,
2,1,0,1,0,58330.3,0.0140075,0.0136074,17.7014,30,0.000373432,10,0.00024087,-1.75199,0.210274,0.280586,193.12,0.0136074,
2,1,0,1,0,58330.3,0.0164046,0.0160251,18.1476,30,0.000445184,10,0.000290817,-1.74118,0.228074,0.258688,182.634,0.0160251,
2,1,0,1,0,58330.3,0.0188017,0.0183983,18.5739,30,0.000518668,10,0.000341728,-1.7311,0.246584,0.239269,172.945,0.0183983,
2,1,0,1,0,58330.3,0.0212099,0.0208414,18.9838,30,0.00059381,10,0.00039565,-1.72162,0.265206,0.222469,164.314,0.0208414,
2,1,0,1,0,58330.3,0.023607,0.0232252,19.3648,30,0.000670557,10,0.000449752,-1.71299,0.283629,0.208019,156.84,0.0232252,
2,1,0,1,0,58330.3,0.0260041,0.0256239,19.7248,30,0.000748766,10,0.000505427,-1.70499,0.298841,0.19743,151.795,0.0256239,
2,1,0,1,0,58330.4,0.0284012,0.0280289,20.0844,30,0.000828425,10,0.000562943,-1.69714,0.314538,0.187577,146.859,0.0280289,
2,1,0,1,0,58330.4,0.0308067,0.0304053,20.4355,30,0.00090952,10,0.000621347,-1.68961,0.328843,0.179417,142.834,0.0304053,
2,1,0,1,0,58330.4,0.0332038,0.0328209,20.774,30,0.000991969,10,0.000681821,-1.68248,0.346787,0.170133,137.7,0.0328209,
2,1,0,1,0,58330.4,0.0356009,0.0351675,21.088,30,0.00107573,10,0.000741613,-1.67596,0.362944,0.16256,133.689,0.0351675,
2,1,0,1,0,58330.4,0.0380091,0.0376341,21.407,30,0.00116075,10,0.000805633,-1.66944,0.379595,0.155429,129.771,0.0376341,
2,1,0,1,0,58330.4,0.0404062,0.0400348,21.7229,30,0.00124704,10,0.000869672,-1.66308,0.392622,0.150272,127.257,0.0400348,
2,1,0,1,0,58330.4,0.0428033,0.0424621,22.0252,30,0.00133456,10,0.000935234,-1.65708,0.404308,0.145928,125.317,0.0424621,
2,1,0,1,0,58330.4,0.0452032,0.0448628,22.3218,30,0.00142329,10,0.00100142,-1.65127,0.421203,0.140075,121.92,0.0448628,
2,1,0,1,0,58330.4,0.0476058,0.0472519,22.6123,30,0.0015132,10,0.00106848,-1.64565,0.431579,0.136707,120.541,0.0472519,
2,1,0,1,0,58330.4,0.0500029,0.049623,22.8919,30,0.00160425,10,0.00113596,-1.64032,0.435487,0.13548,121.052,0.049623,
2,1,0,1,0,58330.4,0.0524,0.0519697,23.1712,30,0.00169641,10,0.0012042,-1.63505,0.450073,0.13109,118.563,0.0519697,
2,1,0,1,0,58330.4,0.0548082,0.0544065,23.4771,30,0.00178974,10,0.00127731,-1.62936,0.455967,0.129395,118.434,0.0544065,
2,1,0,1,0,58330.4,0.0572053,0.0568189,23.7466,30,0.00188422,10,0.00134926,-1.6244,0.46676,0.126403,117.072,0.0568189,
2,1,0,1,0,58330.4,0.0596024,0.0591709,24.0227,30,0.00197978,10,0.00142144,-1.61938,0.486697,0.121225,113.648,0.0591709,
2,1,0,1,0,58330.4,0.0620051,0.0616247,24.3015,30,0.00207645,10,0.00149757,-1.61437,0.48007,0.122899,116.556,0.0616247,
2,1,0,1,0,58330.4,0.0644077,0.0640657,24.5748,30,0.00217423,10,0.0015744,-1.60951,0.494022,0.119428,114.529,0.0640657,
2,1,0,1,0,58330.4,0.0668048,0.0664039,24.8638,30,0.00227312,10,0.00165105,-1.60443,0.494748,0.119253,115.656,0.06640394,
2,1,0,1,0,58330.4,0.0692019,0.0688407,25.1302,30,0.00237313,10,0.00172998,-1.5998,0.499754,0.118058,115.746,0.0688407,
2,1,0,1,0,58330.4,0.0716074,0.0711917,25.408,30,0.00247424,10,0.00180884,-1.59503,0.520079,0.113444,112.462,0.0711917,
2,1,0,1,0,58330.4,0.0740045,0.0735829,25.6764,30,0.00257643,10,0.00188934,-1.59047,0.512354,0.115155,115.405,0.0735829,
2,1,0,1,0,58330.4,0.0764016,0.0760356,25.947,30,0.00267972,10,0.0019729,-1.58591,0.514984,0.114567,116.076,0.0760356,
2,1,0,1,0,58330.4,0.0788042,0.0784215,26.2358,30,0.00278411,10,0.00205745,-1.58111,0.518809,0.113722,116.422,0.0784215,
2,1,0,1,0,58330.4,0.0812069,0.0807862,26.5217,30,0.00288966,10,0.00214259,-1.5764,0.524537,0.11248,116.344,0.0807862,
2,1,0,1,0,58330.4,0.083604,0.0831923,26.7951,30,0.00299631,10,0.00222915,-1.57194,0.531031,0.111105,116.16,0.0831923,
2,1,0,1,0,58330.4,0.0860011,0.0856694,27.0678,30,0.00310405,10,0.00231888,-1.56755,0.538094,0.109646,115.86,0.0856694,
2,1,0,1,0,58330.5,0.0884065,0.0880182,27.3506,30,0.00321293,10,0.00240735,-1.56303,0.534389,0.110406,117.883,0.0880182,
2,1,0,1,0,58330.5,0.0908036,0.0904126,27.637,30,0.00332293,10,0.00249874,-1.55851,0.530939,0.111124,119.852,0.0904126,
2,1,0,1,0,58330.5,0.0932007,0.0928187,27.9299,30,0.00343411,10,0.00259242,-1.55393,0.54263,0.10873,118.459,0.0928187,
2,1,0,1,0,58330.5,0.0956034,0.0952152,28.2119,30,0.00354641,10,0.0026862,-1.54957,0.547522,0.107758,118.604,0.0952152,
2,1,0,1,0,58330.5,0.098006,0.097635,28.4898,30,0.00365984,10,0.0027816,-1.54531,0.55418,0.106464,118.381,0.097635,
2,1,0,1,0,58330.5,0.100403,0.100011,28.7755,30,0.0037744,10,0.00287788,-1.54098,0.551469,0.106987,120.182,0.100011,
2,1,0,1,0,58330.5,0.1028,0.102371,29.0607,30,0.00389009,10,0.00297497,-1.53669,0.558645,0.105613,119.775,0.1023708,
2,1,0,1,0,58330.5,0.105208,0.104794,29.3631,30,0.00400698,10,0.00307707,-1.5322,0.564103,0.104591,119.786,0.104794,
2,1,0,1,0,58330.5,0.107606,0.107207,29.6363,30,0.00412501,10,0.00317723,-1.52818,0.561517,0.105073,121.551,0.107207,
2,1,0,1,0,58330.5,0.110003,0.1096,29.924,30,0.00424415,10,0.00327966,-1.52398,0.568663,0.103752,121.237,0.1096,
2,1,0,1,0,58330.5,0.112408,0.111998,30.231,30,0.00436448,10,0.00338581,-1.51955,0.561842,0.105012,123.886,0.111998,
2,1,0,1,0,58330.5,0.114805,0.114399,30.5276,30,0.00448604,10,0.00349233,-1.51531,0.558036,0.105728,125.955,0.114399,
2,1,0,1,0,58330.5,0.117202,0.116835,30.829,30,0.00460879,10,0.0036019,-1.51104,0.5678,0.10391,125.013,0.116835,
2,1,0,1,0,58330.5,0.119599,0.119211,31.1346,30,0.00473274,10,0.0037116,-1.50676,0.567067,0.104044,126.401,0.119211,
2,1,0,1,0,58330.5,0.122008,0.1216,31.4313,30,0.00485791,10,0.00382206,-1.50264,0.564976,0.104429,128.128,0.1216,
2,1,0,1,0,58330.5,0.124405,0.123982,31.7389,30,0.00498427,10,0.00393505,-1.49841,0.569994,0.10351,128.235,0.123982,
2,1,0,1,0,58330.5,0.126802,0.126406,32.0553,30,0.00511189,10,0.00405199,-1.4941,0.558153,0.105706,132.258,0.126406,
2,1,0,1,0,58330.5,0.129207,0.128776,32.3612,30,0.00524076,10,0.00416734,-1.48998,0.546662,0.107928,136.424,0.128776,
2,1,0,1,0,58330.5,0.131604,0.131166,32.6965,30,0.00537089,10,0.00428867,-1.4855,0.535962,0.110082,140.583,0.131166,
2,1,0,1,0,58330.5,0.134001,0.133573,33.0474,30,0.00550243,10,0.00441425,-1.48086,0.515552,0.11444,147.679,0.133573,
2,1,0,1,0,58330.5,0.136399,0.135969,33.3997,30,0.00563535,10,0.00454131,-1.47626,0.518262,0.113842,148.42,0.135969,
2,1,0,1,0,58330.5,0.138807,0.138384,33.7801,30,0.00576977,10,0.00467464,-1.47134,0.519721,0.113523,149.577,0.138384,
2,1,0,1,0,58330.5,0.141204,0.140799,34.1262,30,0.00590561,10,0.00480493,-1.46691,0.526573,0.112045,149.175,0.140799,
2,1,0,1,0,58330.5,0.143601,0.143188,34.4855,30,0.00604287,10,0.00493791,-1.46236,0.542687,0.108718,146.286,0.143188,
2,1,0,1,0,58330.5,0.146009,0.145622,34.8397,30,0.00618156,10,0.00507341,-1.45793,0.54357,0.108542,147.537,0.1456216,
2,1,0,1,0,58330.6,0.148406,0.147984,35.1845,30,0.00632164,10,0.00520675,-1.45365,0.550917,0.107094,147.062,0.147984,
2,1,0,1,0,58330.6,0.150803,0.150391,35.5414,30,0.00646314,10,0.00534512,-1.44927,0.563262,0.104747,145.261,0.150391,
2,1,0,1,0,58330.6,0.153206,0.152778,35.8959,30,0.00660605,10,0.00548411,-1.44496,0.571276,0.103278,144.597,0.152778,
2,1,0,1,0,58330.6,0.155606,0.155244,36.2374,30,0.00675036,10,0.00562563,-1.44084,0.591906,0.099678,140.88,0.155244,
2,1,0,1,0,58330.6,0.158003,0.157596,36.5743,30,0.00689603,10,0.00576395,-1.43682,0.603729,0.0977259,139.442,0.157596,
2,1,0,1,0,58330.6,0.1604,0.160012,36.8968,30,0.007043,10,0.00590395,-1.43301,0.623283,0.0946601,136.265,0.160012,
2,1,0,1,0,58330.6,0.162808,0.162379,37.2346,30,0.00719129,10,0.00604613,-1.42905,0.656124,0.089922,130.555,0.162379,
2,1,0,1,0,58330.6,0.165205,0.164812,37.5412,30,0.00734087,10,0.00618723,-1.42549,0.667785,0.0883518,129.351,0.164812,
2,1,0,1,0,58330.6,0.167602,0.167264,37.8366,30,0.00749166,10,0.00632872,-1.42209,0.717502,0.0822298,121.357,0.167264,
2,1,0,1,0,58330.6,0.170008,0.169605,38.1376,30,0.00764363,10,0.00646833,-1.41865,0.751512,0.0785084,116.736,0.169605,
2,1,0,1,0,58330.6,0.172405,0.172003,38.4026,30,0.00779675,10,0.00660538,-1.41564,0.789835,0.0746992,111.85,0.172003,
2,1,0,1,0,58330.6,0.174802,0.174433,38.6643,30,0.00795092,10,0.00674433,-1.41269,0.875877,0.0673611,101.537,0.174433,
2,1,0,1,0,58330.6,0.177199,0.176789,38.9019,30,0.00810608,10,0.00687743,-1.41003,0.962557,0.0612951,92.933,0.176789,
2,1,0,1,0,58330.6,0.179607,0.179212,39.1131,30,0.00826214,10,0.00700955,-1.40768,1.08697,0.0542795,82.7404,0.179212,
2,1,0,1,0,58330.6,0.182005,0.181649,39.299,30,0.008419,10,0.00713862,-1.40562,1.252,0.0471244,72.1843,0.181649,
2,1,0,1,0,58330.6,0.184402,0.184,39.4559,30,0.00857654,10,0.00725988,-1.40389,1.49552,0.0394511,60.6688,0.184,
2,1,0,1,0,58330.6,0.18681,0.186445,39.5989,30,0.00873466,10,0.00738303,-1.40232,1.92977,0.0305736,47.161,0.186445,
2,1,0,1,0,58330.6,0.189207,0.188832,39.6968,30,0.00889327,10,0.00749602,-1.40124,2.71923,0.0216973,33.5467,0.188832,
2,1,0,1,0,58330.6,0.191604,0.191252,39.7519,30,0.00905218,10,0.00760263,-1.40064,4.68363,0.0125971,19.5137,0.191252,
2,1,0,1,0,58330.6,0.194001,0.193608,39.7782,30,0.00921125,10,0.00770139,-1.40035,18.5189,0.00318594,4.93874,0.193608,
2,1,0,1,0,58330.6,0.196407,0.196026,39.7859,30,0.00937041,10,0.00779906,-1.40027,-11.7218,-0.00503335,-7.8014,0.196026,
2,1,0,1,0,58330.6,0.198804,0.198448,39.7443,30,0.00952947,10,0.00788716,-1.40073,-4.44659,-0.0132686,-20.5472,0.198448,
2,1,0,1,0,58330.6,0.201201,0.200768,39.6776,30,0.00968832,10,0.007966,-1.40145,-2.45623,-0.0240206,-37.1302,0.200768,
2,1,0,1,0,58330.6,0.203609,0.203233,39.5804,30,0.00984683,10,0.00804407,-1.40252,-1.82934,-0.0322521,-49.7254,0.203233,
2,1,0,1,0,58330.6,0.206006,0.205602,39.4303,30,0.0100048,10,0.00810696,-1.40417,-1.43432,-0.0411345,-63.2043,0.205602,
2,1,0,1,0,58330.7,0.208403,0.208034,39.2676,30,0.0101622,10,0.00816899,-1.40597,-1.15828,-0.0509377,-77.9372,0.208034,
2,1,0,1,0,58330.7,0.210803,0.210444,39.0661,30,0.0103189,10,0.00822123,-1.4082,-1.01155,-0.0583265,-88.7736,0.210444,
2,1,0,1,0,58330.7,0.213206,0.212837,38.832,30,0.0104747,10,0.00826487,-1.41081,-0.849484,-0.069454,-105.063,0.212837,
2,1,0,1,0,58330.7,0.215603,0.215282,38.571,30,0.0106295,10,0.00830364,-1.41374,-0.763897,-0.0772355,-116.072,0.215282,
2,1,0,1,0,58330.7,0.218,0.217643,38.258,30,0.0107831,10,0.0083266,-1.41728,-0.692569,-0.0851901,-127.062,0.217643,
2,1,0,1,0,58330.7,0.220408,0.220019,37.9547,30,0.0109355,10,0.00835075,-1.42073,-0.623305,-0.0946566,-140.004,0.220019,
2,1,0,1,0,58330.7,0.222805,0.222455,37.6098,30,0.0110866,10,0.00836651,-1.4247,-0.588549,-0.100247,-146.896,0.222455,
2,1,0,1,0,58330.7,0.225202,0.224827,37.2347,30,0.0112362,10,0.00837135,-1.42905,-0.538031,-0.109659,-159.138,0.224827,
2,1,0,1,0,58330.7,0.227605,0.227262,36.845,30,0.0113844,10,0.00837348,-1.43362,-0.505471,-0.116723,-167.64,0.227262,
2,1,0,1,0,58330.7,0.230008,0.22963,36.4252,30,0.0115309,10,0.00836432,-1.4386,-0.48372,-0.121971,-173.249,0.22963,
2,1,0,1,0,58330.7,0.232405,0.232037,36.0035,30,0.0116757,10,0.00835416,-1.44366,-0.464027,-0.127148,-178.54,0.232037,
2,1,0,1,0,58330.7,0.234802,0.234439,35.5693,30,0.0118188,10,0.00833885,-1.44892,-0.449607,-0.131226,-182.009,0.234439,
2,1,0,1,0,58330.7,0.237207,0.236874,35.129,30,0.0119602,10,0.00832113,-1.45433,-0.431752,-0.136653,-187.161,0.236874,
2,1,0,1,0,58330.7,0.239604,0.239284,34.6681,30,0.0120997,10,0.00829552,-1.46007,-0.417178,-0.141427,-191.219,0.239284,
2,1,0,1,0,58330.7,0.242002,0.241673,34.2,30,0.0122374,10,0.00826523,-1.46597,-0.410601,-0.143692,-191.796,0.241673,
2,1,0,1,0,58330.7,0.244404,0.244025,33.7363,30,0.0123732,10,0.00823251,-1.4719,-0.401471,-0.146959,-193.484,0.244025,
2,1,0,1,0,58330.7,0.246807,0.246461,33.2902,30,0.0125072,10,0.00820473,-1.47768,-0.398222,-0.148159,-192.371,0.246461,
2,1,0,1,0,58330.7,0.249204,0.248839,32.8193,30,0.0126394,10,0.00816673,-1.48387,-0.397136,-0.148564,-190.252,0.248839,
2,1,0,1,0,58330.7,0.251601,0.251257,32.3564,30,0.0127697,10,0.00812977,-1.49004,-0.387859,-0.152117,-192.136,0.251257,
2,1,0,1,0,58330.7,0.254006,0.253636,31.9079,30,0.0128982,10,0.00809298,-1.4961,-0.394538,-0.149542,-186.259,0.253636,
2,1,0,1,0,58330.7,0.256404,0.256009,31.4557,30,0.0130249,10,0.00805294,-1.5023,-0.395617,-0.149134,-183.175,0.256009,
2,1,0,1,0,58330.7,0.258801,0.258463,31.0269,30,0.0131498,10,0.00801929,-1.50826,-0.396449,-0.148821,-180.265,0.258463,
2,1,0,1,0,58330.7,0.261203,0.260823,30.6041,30,0.013273,10,0.00798226,-1.51422,-0.40403,-0.146029,-174.425,0.2608231,
2,1,0,1,0,58330.7,0.263606,0.263206,30.1827,30,0.0133946,10,0.00794427,-1.52024,-0.400605,-0.147277,-173.527,0.263206,
2,1,0,1,0,58330.7,0.266003,0.265664,29.7716,30,0.0135144,10,0.00790925,-1.5262,-0.408271,-0.144512,-168.019,0.265664,
2,1,0,1,0,58330.8,0.2684,0.268018,29.3688,30,0.0136327,10,0.00787136,-1.53211,-0.419444,-0.140662,-161.368,0.268018,
2,1,0,1,0,58330.8,0.270808,0.270411,28.9931,30,0.0137493,10,0.00784007,-1.5377,-0.418319,-0.141041,-159.645,0.270411,
2,1,0,1,0,58330.8,0.273205,0.272882,28.6213,30,0.0138645,10,0.00781024,-1.54331,-0.431843,-0.136624,-152.639,0.272882,
2,1,0,1,0,58330.8,0.275603,0.275205,28.2484,30,0.0139782,10,0.0077741,-1.54901,-0.435866,-0.135363,-149.332,0.2752054,
2,1,0,1,0,58330.8,0.278008,0.277656,27.8976,30,0.0140905,10,0.00774595,-1.55443,-0.438122,-0.134666,-146.72,0.277656,
2,1,0,1,0,58330.8,0.280405,0.280045,27.5545,30,0.0142013,10,0.0077165,-1.55981,-0.455899,-0.129415,-139.257,0.280045,
2,1,0,1,0,58330.8,0.282802,0.282402,27.2245,30,0.0143109,10,0.00768825,-1.56504,-0.461971,-0.127714,-135.787,0.282402,
2,1,0,1,0,58330.8,0.285199,0.284839,26.9068,30,0.0144191,10,0.00766411,-1.57014,-0.472369,-0.124902,-131.223,0.284839,
2,1,0,1,0,58330.8,0.287608,0.28722,26.599,30,0.0145261,10,0.00763976,-1.57513,-0.485292,-0.121576,-126.265,0.28722,
2,1,0,1,0,58330.8,0.290005,0.28964,26.2955,30,0.0146319,10,0.00761621,-1.58012,-0.498403,-0.118378,-121.585,0.28964,
2,1,0,1,0,58330.8,0.292402,0.292036,26.0081,30,0.0147364,10,0.00759529,-1.58489,-0.508733,-0.115974,-117.813,0.292036,
2,1,0,1,0,58330.8,0.294807,0.294461,25.7369,30,0.0148399,10,0.00757852,-1.58944,-0.51894,-0.113693,-114.285,0.294461,
2,1,0,1,0,58330.8,0.297204,0.296816,25.4684,30,0.0149423,10,0.00755943,-1.594,-0.524748,-0.112435,-112.228,0.2968165,
2,1,0,1,0,58330.8,0.299421,0.299002,25.2255,30,0.0150361,10,0.00754247,-1.59816,-0.12711,-0.464166,-447.75,0.299002,
2,1,0,0,0,58330.8,0.300012,0.299689,25.1492,30,0.0150612,10,0.00753693,-1.59948,0.00255882,23.0575,20586.6,0.2996892,
2,1,0,1,0,58330.8,0.299243,0.298955,23.7247,30,0.0150924,10,0.00709262,-1.6248,0.0327289,1.80269,1504.65,0.298955,
2,1,0,1,0,58330.8,0.296846,0.296574,20.4687,30,0.0151802,10,0.00607048,-1.68891,0.0396035,1.48977,1169.7,0.296574,
2,1,0,1,0,58330.8,0.294449,0.294173,17.9593,30,0.0152566,10,0.00528314,-1.74571,0.0414474,1.42349,1021.05,0.294173,
2,1,0,1,0,58330.8,0.292041,0.291703,15.8079,30,0.0153239,10,0.00461122,-1.80113,0.0428081,1.37824,858.708,0.291703,
2,1,0,1,0,58330.8,0.289644,0.289337,13.9043,30,0.0153831,10,0.00402304,-1.85685,0.0421519,1.3997,762.704,0.289337,
2,1,0,1,0,58330.8,0.287247,0.286915,12.1752,30,0.015435,10,0.00349325,-1.91452,0.0403916,1.4607,694.895,0.286915,
2,1,0,1,0,58330.8,0.284841,0.284534,10.6075,30,0.0154804,10,0.0030182,-1.97439,0.0386473,1.52663,631.032,0.284534,
2,1,0,1,0,58330.8,0.282444,0.282152,9.17091,30,0.0155198,10,0.00258759,-2.03759,0.0362134,1.62923,579.758,0.282152,
2,1,0,1,0,58330.8,0.280047,0.279746,7.85185,30,0.0155536,10,0.00219652,-2.10503,0.033556,1.75826,532.14,0.279746,
2,1,0,1,0,58330.8,0.27765,0.277336,6.62124,30,0.0155824,10,0.00183631,-2.17906,0.0302632,1.94956,494.742,0.277336,
2,1,0,1,0,58330.8,0.275242,0.274872,5.46634,30,0.0156065,10,0.00150255,-2.2623,0.0266065,2.2175,460.87,0.274872,
2,1,0,1,0,58330.8,0.272845,0.272529,4.4099,30,0.0156261,10,0.00120182,-2.35557,0.022549,2.61653,430.545,0.272529,
2,1,0,1,0,58330.9,0.270448,0.270107,3.40949,30,0.0156416,10,0.000920926,-2.46731,0.0180778,3.26367,401.901,0.270107,
2,1,0,1,0,58330.9,0.268039,0.267715,2.47894,30,0.0156533,10,0.000663648,-2.60573,0.0128345,4.59699,376.833,0.267715,
2,1,0,1,0,58330.9,0.265642,0.265279,1.61072,30,0.0156614,10,0.00042729,-2.79298,0.00352353,16.7446,354.84,0.265279,
2,1,0,1,0,58330.9,0.263245,0.26291,0.785185,30,0.0156661,10,0.000206433,-3.10503,0.0180274,3.27279,333.288,0.26291,
2,1,0,1,0,58330.9,0.260843,0.260517,0.00646993,30,0.0156676,10,1.68552e-06,-5.1891,0.164719,0.358185,315.018,0.260517,
2,0,0,1,0,58330.9,0.258443,0.258099,-0.725885,30,0.015666,10,-0.00018735,-3.13913,-0.0230276,-2.56214,295.03,0.2580989,
2,0,0,1,0,58330.9,0.256046,0.255694,-1.40874,30,0.0156617,10,-0.000360205,-2.85117,-0.00367916,-16.0363,280.115,0.255694,
2,0,0,1,0,58330.9,0.253649,0.253272,-2.05834,30,0.0156547,10,-0.000521319,-2.68648,-0.0146326,-4.0321,266.751,0.253272,
2,0,0,1,0,58330.9,0.25124,0.25088,-2.69299,30,0.0156451,10,-0.000675617,-2.56977,-0.0219889,-2.68317,253.695,0.25088,
2,0,0,1,0,58330.9,0.248843,0.248504,-3.28524,30,0.0156331,10,-0.000816397,-2.48343,-0.0292756,-2.01533,241.537,0.248504,
2,0,0,1,0,58330.9,0.246446,0.24613,-3.83502,30,0.0156188,10,-0.000943914,-2.41623,-0.0373669,-1.57894,226.316,0.24613,
2,0,0,1,0,58330.9,0.244041,0.243696,-4.37116,30,0.0156023,10,-0.00106524,-2.3594,-0.0452053,-1.30516,215.814,0.243696,
2,0,0,1,0,58330.9,0.241644,0.241281,-4.86536,30,0.0155838,10,-0.00117392,-2.31289,-0.0532736,-1.10749,205.685,0.241281,
2,0,0,1,0,58330.9,0.239247,0.238906,-5.3568,30,0.0155633,10,-0.00127977,-2.27109,-0.0615778,-0.958137,196.675,0.238906,
2,0,0,1,0,58330.9,0.236849,0.236478,-5.82025,30,0.0155409,10,-0.00137636,-2.23506,-0.0695694,-0.848074,189.515,0.236478,
2,0,0,1,0,58330.9,0.234441,0.234087,-6.26109,30,0.0155167,10,-0.00146564,-2.20335,-0.0790122,-0.74672,180.156,0.234087,
2,0,0,1,0,58330.9,0.232044,0.231693,-6.68247,30,0.0154907,10,-0.00154828,-2.17506,-0.0878398,-0.671678,173.505,0.231693,
2,0,0,1,0,58330.9,0.229647,0.229297,-7.08779,30,0.0154631,10,-0.00162521,-2.14949,-0.0966059,-0.610728,167.549,0.229297,
2,0,0,1,0,58330.9,0.227239,0.226869,-7.48754,30,0.015434,10,-0.00169869,-2.12566,-0.10686,-0.552124,159.919,0.226869,
2,0,0,1,0,58330.9,0.224842,0.224553,-7.85852,30,0.0154032,10,-0.00176465,-2.10466,-0.117455,-0.50232,152.899,0.224553,
2,0,0,1,0,58330.9,0.222445,0.222119,-8.21343,30,0.0153711,10,-0.00182436,-2.08548,-0.127609,-0.462351,147.422,0.222119,
2,0,0,1,0,58330.9,0.220047,0.219688,-8.55706,30,0.0153375,10,-0.00187988,-2.06768,-0.139414,-0.423199,140.739,0.2196878,
2,0,0,1,0,58330.9,0.217642,0.217336,-8.89292,30,0.0153025,10,-0.00193275,-2.05096,-0.149039,-0.395869,136.811,0.217336,
2,0,0,1,0,58330.9,0.215245,0.214877,-9.22034,30,0.0152663,10,-0.00198124,-2.03525,-0.157424,-0.374785,134.359,0.214877,
2,0,0,1,0,58330.9,0.212848,0.212497,-9.52984,30,0.0152287,10,-0.00202506,-2.02091,-0.170809,-0.345415,128.007,0.212497,
2,0,0,1,0,58331,0.21044,0.210104,-9.84475,30,0.0151899,10,-0.00206842,-2.0068,-0.180826,-0.326281,124.904,0.210104,
2,0,0,1,0,58331,0.208043,0.207709,-10.1252,30,0.01515,10,-0.00210309,-1.9946,-0.191755,-0.307684,121.291,0.207709,
2,0,0,1,0,58331,0.205645,0.205256,-10.4221,30,0.0151089,10,-0.00213919,-1.98205,-0.206041,-0.286351,116.168,0.205256,
2,0,0,1,0,58331,0.203246,0.202896,-10.6943,30,0.0150666,10,-0.00216984,-1.97085,-0.215081,-0.274316,114.192,0.202896,
2,0,0,1,0,58331,0.200843,0.200457,-10.9654,30,0.0150233,10,-0.00219809,-1.95998,-0.229654,-0.256908,109.664,0.200457,
2,0,0,1,0,58331,0.198446,0.198062,-11.2268,30,0.0149788,10,-0.00222361,-1.94974,-0.238973,-0.246889,107.98,0.198062,
2,0,0,1,0,58331,0.196049,0.195701,-11.4698,30,0.0149334,10,-0.00224466,-1.94044,-0.24921,-0.236748,105.944,0.195701,
2,0,0,1,0,58331,0.19364,0.193257,-11.7352,30,0.014887,10,-0.00226791,-1.93051,-0.260697,-0.226317,103.475,0.193257,
2,0,0,1,0,58331,0.191243,0.190857,-11.9824,30,0.0148395,10,-0.00228693,-1.92146,-0.266536,-0.221359,103.308,0.190857,
2,0,0,1,0,58331,0.188846,0.188484,-12.2179,30,0.0147911,10,-0.00230288,-1.913,-0.283979,-0.207762,98.9345,0.1884843,
2,0,0,1,0,58331,0.186444,0.18611,-12.4607,30,0.0147417,10,-0.00231906,-1.90446,-0.294136,-0.200588,97.4022,0.18611,
2,0,0,1,0,58331,0.184041,0.183704,-12.6803,30,0.0146914,10,-0.00232942,-1.89687,-0.300961,-0.196039,96.9812,0.183704,
2,0,0,1,0,58331,0.181644,0.181295,-12.9138,30,0.0146402,10,-0.00234121,-1.88894,-0.311784,-0.189234,95.3531,0.181295,
2,0,0,1,0,58331,0.179247,0.17892,-13.1454,30,0.014588,10,-0.00235198,-1.88123,-0.315361,-0.187087,95.9044,0.17892,
2,0,0,1,0,58331,0.176841,0.176544,-13.3728,30,0.014535,10,-0.00236089,-1.87378,-0.326652,-0.18062,94.1771,0.176544,
2,0,0,1,0,58331,0.174444,0.174109,-13.6005,30,0.014481,10,-0.00236797,-1.86645,-0.336821,-0.175167,92.8949,0.1741094,
2,0,0,1,0,58331,0.172047,0.171707,-13.8168,30,0.0144262,10,-0.00237244,-1.85959,-0.340969,-0.173036,93.3132,0.171707,
2,0,0,1,0,58331,0.169644,0.169272,-14.0417,30,0.0143704,10,-0.00237687,-1.85258,-0.345985,-0.170527,93.4678,0.169272,
2,0,0,1,0,58331,0.167242,0.1669,-14.2728,30,0.0143138,10,-0.00238212,-1.84549,-0.347012,-0.170023,94.6612,0.1669,
2,0,0,1,0,58331,0.164845,0.164507,-14.498,30,0.0142562,10,-0.00238502,-1.83869,-0.346596,-0.170227,96.3102,0.164507,
2,0,0,1,0,58331,0.162448,0.162116,-14.7247,30,0.0141978,10,-0.00238711,-1.83195,-0.355317,-0.166049,95.4281,0.162116,
2,0,0,1,0,58331,0.160042,0.159714,-14.9622,30,0.0141384,10,-0.00238968,-1.825,-0.350966,-0.168107,98.1897,0.159714,
2,0,0,1,0,58331,0.157645,0.157307,-15.1882,30,0.014078,10,-0.00238921,-1.8185,-0.345285,-0.170873,101.413,0.157307,
2,0,0,1,0,58331,0.155248,0.154865,-15.4447,30,0.0140167,10,-0.00239185,-1.81122,-0.345279,-0.170877,103.068,0.154865,
2,0,0,1,0,58331,0.152845,0.152493,-15.7006,30,0.0139544,10,-0.00239423,-1.80408,-0.333452,-0.176937,108.428,0.152493,
2,0,0,1,0,58331.1,0.150443,0.150041,-15.9592,30,0.0138911,10,-0.00239454,-1.79699,-0.332503,-0.177442,110.577,0.150041,
2,0,0,1,0,58331.1,0.148046,0.147719,-16.2278,30,0.0138267,10,-0.00239715,-1.78974,-0.322767,-0.182795,115.937,0.147719,
2,0,0,1,0,58331.1,0.145648,0.1453,-16.5024,30,0.0137612,10,-0.0023978,-1.78245,-0.308421,-0.191297,123.495,0.1453003,
2,0,0,1,0,58331.1,0.14324,0.142877,-16.8154,30,0.0136945,10,-0.00240254,-1.77429,-0.299974,-0.196683,129.278,0.142877,
2,0,0,1,0,58331.1,0.140843,0.140495,-17.1382,30,0.0136266,10,-0.00240782,-1.76604,-0.28421,-0.207593,139.038,0.140495,
2,0,0,1,0,58331.1,0.138446,0.138098,-17.4716,30,0.0135573,10,-0.00241279,-1.75767,-0.273796,-0.215489,147.266,0.138098,
2,0,0,1,0,58331.1,0.136041,0.135694,-17.838,30,0.0134867,10,-0.00242051,-1.74865,-0.262912,-0.22441,156.561,0.135694,
2,0,0,1,0,58331.1,0.133644,0.133301,-18.2257,30,0.0134145,10,-0.0024295,-1.73932,-0.250399,-0.235623,167.953,0.133301,
2,0,0,1,0,58331.1,0.131246,0.130932,-18.6353,30,0.0133408,10,-0.00243995,-1.72966,-0.240466,-0.245357,178.882,0.130932,
2,0,0,1,0,58331.1,0.128849,0.128516,-19.0809,30,0.0132653,10,-0.0024522,-1.7194,-0.23188,-0.254442,189.863,0.128516,
2,0,0,1,0,58331.1,0.126441,0.12612,-19.5507,30,0.013188,10,-0.00246573,-1.70884,-0.224172,-0.263191,201.163,0.12612,
2,0,0,1,0,58331.1,0.124044,0.123728,-20.0431,30,0.0131088,10,-0.00247991,-1.69803,-0.217683,-0.271036,212.445,0.123728,
2,0,0,1,0,58331.1,0.121647,0.121336,-20.5656,30,0.0130275,10,-0.00249535,-1.68686,-0.211878,-0.278462,223.986,0.121336,
2,0,0,1,0,58331.1,0.119241,0.118908,-21.1221,30,0.0129441,10,-0.00251159,-1.67526,-0.207091,-0.284898,235.197,0.118908,
2,0,0,1,0,58331.1,0.116844,0.116487,-21.7083,30,0.0128584,10,-0.00252873,-1.66337,-0.206415,-0.285832,242.202,0.116487,
2,0,0,1,0,58331.1,0.114447,0.114117,-22.3037,30,0.0127703,10,-0.00254523,-1.65162,-0.204721,-0.288197,250.852,0.114117,
2,0,0,1,0,58331.1,0.11205,0.111695,-22.9007,30,0.0126798,10,-0.00255789,-1.64015,-0.207018,-0.284999,254.781,0.111695,
2,0,0,1,0,58331.1,0.109642,0.109321,-23.5271,30,0.0125869,10,-0.002572,-1.62843,-0.211016,-0.2796,256.608,0.109321,
2,0,0,1,0,58331.1,0.107245,0.10691,-24.1482,30,0.0124915,10,-0.0025817,-1.61711,-0.212186,-0.278057,261.873,0.1069104,
2,0,0,1,0,58331.1,0.104848,0.104498,-24.772,30,0.0123936,10,-0.00258863,-1.60604,-0.220455,-0.267629,258.497,0.104498,
2,0,0,1,0,58331.1,0.10244,0.102126,-25.4066,30,0.0122931,10,-0.00259467,-1.59505,-0.225707,-0.2614,258.838,0.102126,
2,0,0,1,0,58331.1,0.100042,0.0997049,-26.0127,30,0.0121902,10,-0.0025936,-1.58481,-0.229293,-0.257313,261.064,0.0997049,
2,0,0,1,0,58331.1,0.0976454,0.0972957,-26.6369,30,0.0120849,10,-0.00259165,-1.57452,-0.240622,-0.245198,254.654,0.0972957,
2,0,0,1,0,58331.1,0.0952427,0.0949617,-27.2616,30,0.011977,10,-0.00258881,-1.56445,-0.250299,-0.235718,250.14,0.09496174,
2,0,0,1,0,58331.1,0.0928428,0.0925154,-27.854,30,0.0118667,10,-0.00257692,-1.55511,-0.260286,-0.226674,245.838,0.0925154,
2,0,0,1,0,58331.2,0.0904457,0.0901432,-28.4045,30,0.0117541,10,-0.00256047,-1.54661,-0.272545,-0.216478,239.93,0.0901432,
2,0,0,1,0,58331.2,0.0880486,0.0877839,-28.9752,30,0.0116393,10,-0.00254356,-1.53797,-0.279654,-0.210975,238.627,0.0877839,
2,0,0,1,0,58331.2,0.0856404,0.0853481,-29.5682,30,0.0115221,10,-0.00252359,-1.52918,-0.290758,-0.202918,233.737,0.0853481,
2,0,0,1,0,58331.2,0.0832433,0.0829367,-30.1397,30,0.0114027,10,-0.00249969,-1.52086,-0.302268,-0.195191,229.033,0.0829367,
2,0,0,1,0,58331.2,0.0808462,0.080519,-30.654,30,0.011281,10,-0.00246823,-1.51351,-0.323256,-0.182518,218.012,0.080519,
2,0,0,1,0,58331.2,0.0784408,0.0781416,-31.1836,30,0.0111573,10,-0.00243674,-1.50607,-0.34597,-0.170535,207.158,0.07814157,
2,0,0,1,0,58331.2,0.0760437,0.0757143,-31.6685,30,0.0110315,10,-0.00239776,-1.49937,-0.360852,-0.163502,201.701,0.0757143,
2,0,0,1,0,58331.2,0.0736466,0.0733114,-32.1336,30,0.0109039,10,-0.00235576,-1.49304,-0.389047,-0.151653,189.911,0.0733114,
2,0,0,1,0,58331.2,0.0712495,0.0709446,-32.5852,30,0.0107744,10,-0.00231174,-1.48698,-0.411679,-0.143316,181.95,0.0709446,
2,0,0,1,0,58331.2,0.0688413,0.0685311,-33.0088,30,0.0106432,10,-0.00226213,-1.48137,-0.439603,-0.134212,172.598,0.0685311,
2,0,0,1,0,58331.2,0.0664442,0.0661494,-33.4088,30,0.0105103,10,-0.00220997,-1.47614,-0.474503,-0.124341,161.872,0.0661494,
2,0,0,1,0,58331.2,0.0640471,0.0637497,-33.784,30,0.0103758,10,-0.00215372,-1.47129,-0.505937,-0.116615,153.554,0.0637497,
2,0,0,1,0,58331.2,0.0616389,0.0613256,-34.1422,30,0.01024,10,-0.00209379,-1.46671,-0.543556,-0.108544,144.446,0.0613256,
2,0,0,1,0,58331.2,0.0592417,0.0589397,-34.4816,30,0.0101027,10,-0.00203234,-1.46241,-0.580397,-0.101655,136.606,0.0589397,
2,0,0,1,0,58331.2,0.0568446,0.0565347,-34.7976,30,0.00996409,10,-0.00196727,-1.45845,-0.622545,-0.0947722,128.55,0.0565347,
2,0,0,1,0,58331.2,0.0544475,0.0541827,-35.0909,30,0.00982428,10,-0.00190132,-1.45481,-0.677243,-0.0871179,119.178,0.0541827,
2,0,0,1,0,58331.2,0.0520421,0.0517215,-35.3768,30,0.0096833,10,-0.00182974,-1.45128,-0.721632,-0.0817591,112.755,0.0517215,
2,0,0,1,0,58331.2,0.049645,0.0492964,-35.6309,30,0.00954125,10,-0.00175647,-1.44817,-0.773924,-0.0762349,105.918,0.0492964,
2,0,0,1,0,58331.2,0.0472479,0.0469084,-35.883,30,0.0093982,10,-0.00168321,-1.44511,-0.8563,-0.0689011,96.3683,0.0469084,
2,0,0,1,0,58331.2,0.0448397,0.0445171,-36.1146,30,0.00925419,10,-0.00160772,-1.44232,-0.929952,-0.0634441,89.2816,0.0445171,
2,0,0,1,0,58331.2,0.0424426,0.0421079,-36.3033,30,0.00910934,10,-0.00152866,-1.44005,-1.03821,-0.0568287,80.4379,0.0421079,
2,0,0,1,0,58331.2,0.0400455,0.0396796,-36.4895,30,0.00896374,10,-0.00144789,-1.43783,-1.14848,-0.0513722,73.1077,0.0396796,
2,0,0,1,0,58331.2,0.0376456,0.0372915,-36.6566,30,0.00881743,10,-0.00136698,-1.43585,-1.24054,-0.0475598,67.9894,0.0372915,
2,0,0,1,0,58331.2,0.035243,0.034912,-36.8168,30,0.00867046,10,-0.00128535,-1.43395,-1.36855,-0.0431114,61.8894,0.034912,
2,0,0,1,0,58331.2,0.0328459,0.0324667,-36.9588,30,0.00852288,10,-0.00119993,-1.43228,-1.50349,-0.0392421,56.5544,0.0324667,
2,0,0,1,0,58331.3,0.0304488,0.0301306,-37.0804,30,0.00837477,10,-0.00111726,-1.43086,-1.70191,-0.0346668,50.1373,0.03013061,
2,0,0,1,0,58331.3,0.0280406,0.0276853,-37.1999,30,0.00822621,10,-0.00102989,-1.42946,-1.90717,-0.030936,44.8803,0.0276853,
2,0,0,1,0,58331.3,0.0256435,0.0252686,-37.3003,30,0.00807719,10,-0.000942529,-1.42829,-2.10951,-0.0279686,40.6873,0.0252686,
2,0,0,1,0,58331.3,0.0232463,0.0228976,-37.3882,30,0.00792779,10,-0.0008561,-1.42726,-2.4229,-0.024351,35.5145,0.0228976,
2,0,0,1,0,58331.3,0.0208437,0.0205212,-37.4714,30,0.00777806,10,-0.000768959,-1.4263,-2.93558,-0.0200983,29.3671,0.0205212,
2,0,0,1,0,58331.3,0.018441,0.018078,-37.5411,30,0.00762801,10,-0.000678669,-1.42549,-3.42087,-0.0172471,25.2477,0.018078,
2,0,0,1,0,58331.3,0.0160439,0.0157282,-37.5805,30,0.00747777,10,-0.000591073,-1.42504,-4.08217,-0.0144531,21.1936,0.01572817,
2,0,0,1,0,58331.3,0.0136468,0.0132701,-37.6313,30,0.00732733,10,-0.000499373,-1.42445,-5.29696,-0.0111385,16.3531,0.0132701,
2,0,0,1,0,58331.3,0.0112414,0.0108959,-37.6754,30,0.00717672,10,-0.000410508,-1.42394,-6.50892,-0.00906449,13.3172,0.0108959,
2,0,0,1,0,58331.3,0.00884431,0.00849938,-37.6977,30,0.00702597,10,-0.000320407,-1.42369,-11.4397,-0.00515749,7.58175,0.00849938,
2,0,0,1,0,58331.3,0.0064472,0.00605408,-37.7093,30,0.00687514,10,-0.000228295,-1.42355,-13.6046,-0.00433676,6.38178,0.006054082,
2,0,0,1,0,58331.3,0.00404455,0.0037021,-37.7039,30,0.00672433,10,-0.000139583,-1.42361,-47.2555,-0.00124853,1.8373,0.0037021,
2,0,0,1,0,58331.3,0.0016419,0.00123984,-37.737,30,0.00657349,10,-4.67878e-05,-1.42323,22.1719,0.00266102,-3.91421,0.00123984,
2,0,0,1,0,58331.3,-0.000755207,-0.00121394,-37.7156,30,0.00642259,10,4.57846e-05,-1.42348,11.7921,0.00500335,-7.3553,-0.00121394,
2,0,0,1,0,58331.3,-0.00315231,-0.00356911,-37.6717,30,0.00627183,10,0.000134454,-1.42399,4.94377,0.0119342,-17.537,-0.00356911,
2,0,0,1,0,58331.3,-0.00555774,-0.00596351,-37.6328,30,0.0061212,10,0.000224423,-1.42443,3.93423,0.0149966,-22.0126,-0.005963508,
2,0,0,1,0,58331.3,-0.00795485,-0.00834094,-37.569,30,0.0059708,10,0.000313361,-1.42517,3.65823,0.016128,-23.6401,-0.00834094,
2,0,0,1,0,58331.3,-0.010352,-0.0107056,-37.5066,30,0.00582064,10,0.000401533,-1.42589,3.08402,0.0191309,-27.9968,-0.0107056,
2,0,0,1,0,58331.3,-0.0127546,-0.0131562,-37.445,30,0.00567074,10,0.000492636,-1.42661,2.79692,0.0210946,-30.8066,-0.0131562,
2,0,0,1,0,58331.3,-0.0151573,-0.0155708,-37.3638,30,0.00552113,10,0.000581784,-1.42755,2.39331,0.024652,-35.918,-0.0155708,
2,0,0,1,0,58331.3,-0.0175544,-0.0179779,-37.2721,30,0.00537188,10,0.000670076,-1.42862,2.07815,0.0283907,-41.2695,-0.0179779,
2,0,0,1,0,58331.3,-0.0199515,-0.0203447,-37.1604,30,0.00522302,10,0.000756019,-1.42992,1.96281,0.0300589,-43.5859,-0.0203447,
2,0,0,1,0,58331.3,-0.0223597,-0.0227423,-37.0494,30,0.00507461,10,0.00084259,-1.43122,1.79191,0.0329258,-47.6008,-0.0227423,
2,0,0,1,0,58331.3,-0.0247568,-0.0251654,-36.9456,30,0.00492663,10,0.000929749,-1.43244,1.80142,0.032752,-47.2081,-0.0251654,
2,0,0,1,0,58331.3,-0.0271539,-0.0275576,-36.8161,30,0.0047791,10,0.00101457,-1.43396,1.69242,0.0348614,-50.0791,-0.0275576,
2,0,0,1,0,58331.4,-0.0295593,-0.0299584,-36.7066,30,0.00463208,10,0.00109967,-1.43526,1.56596,0.0376766,-53.9435,-0.0299584,
2,0,0,1,0,58331.4,-0.0319564,-0.0323454,-36.5685,30,0.00448555,10,0.00118282,-1.43689,1.59628,0.0369609,-52.7406,-0.0323454,
2,0,0,1,0,58331.4,-0.0343535,-0.0347578,-36.4282,30,0.00433956,10,0.00126616,-1.43856,1.52753,0.0386245,-54.9325,-0.0347578,
2,0,0,1,0,58331.4,-0.0367506,-0.0371437,-36.3106,30,0.00419411,10,0.00134871,-1.43997,1.54949,0.038077,-53.955,-0.0371437,
2,0,0,1,0,58331.4,-0.0391588,-0.0395646,-36.1789,30,0.00404913,10,0.0014314,-1.44155,1.56382,0.0377281,-53.2582,-0.0395646,
2,0,0,1,0,58331.4,-0.0415559,-0.0419717,-36.0491,30,0.00390469,10,0.00151304,-1.44311,1.49967,0.0393419,-55.3412,-0.0419717,
2,0,0,1,0,58331.4,-0.043953,-0.044398,-35.9147,30,0.00376079,10,0.00159454,-1.44473,1.52675,0.0386442,-54.1718,-0.044398,
2,0,0,1,0,58331.4,-0.0463585,-0.0467627,-35.7782,30,0.0036174,10,0.00167309,-1.44638,1.56235,0.0377637,-52.7559,-0.04676266,
2,0,0,1,0,58331.4,-0.0487556,-0.0491316,-35.6606,30,0.00347453,10,0.00175206,-1.44781,1.60349,0.0367947,-51.221,-0.0491316,
2,0,0,1,0,58331.4,-0.0511527,-0.0515483,-35.5439,30,0.00333212,10,0.00183223,-1.44923,1.69538,0.0348004,-48.2766,-0.05154828,
2,0,0,1,0,58331.4,-0.0535498,-0.0539469,-35.4256,30,0.0031902,10,0.0019111,-1.45068,1.70262,0.0346524,-47.9138,-0.0539469,
2,0,0,1,0,58331.4,-0.055958,-0.0563699,-35.3144,30,0.00304872,10,0.00199067,-1.45205,1.77725,0.0331974,-45.7646,-0.0563699,
2,0,0,1,0,58331.4,-0.0583551,-0.0587622,-35.1992,30,0.0029077,10,0.00206838,-1.45347,1.93826,0.0304397,-41.8453,-0.05876223,
2,0,0,1,0,58331.4,-0.0607522,-0.0611672,-35.1037,30,0.00276711,10,0.0021472,-1.45465,2.01749,0.0292443,-40.0848,-0.0611672,
2,0,0,1,0,58331.4,-0.0631604,-0.0635489,-35.0238,30,0.00262686,10,0.00222573,-1.45564,2.18232,0.0270355,-36.9515,-0.0635489,
2,0,0,1,0,58331.4,-0.0655575,-0.0659688,-34.9297,30,0.00248696,10,0.00230427,-1.45681,2.32833,0.0253401,-34.5513,-0.0659688,
2,0,0,1,0,58331.4,-0.0679546,-0.0683632,-34.8444,30,0.00234744,10,0.00238207,-1.45787,2.47557,0.0238329,-32.431,-0.06836316,
2,0,0,1,0,58331.4,-0.0703573,-0.0707671,-34.772,30,0.00220822,10,0.00246071,-1.45877,2.83346,0.0208226,-28.2746,-0.0707671,
2,0,0,1,0,58331.4,-0.0727571,-0.0731859,-34.7113,30,0.00206926,10,0.00254038,-1.45953,3.15082,0.0187253,-25.3749,-0.0731859,
2,0,0,1,0,58331.4,-0.0751542,-0.0755877,-34.6577,30,0.00193052,10,0.0026197,-1.4602,3.7114,0.015897,-21.5087,-0.0755877,
2,0,0,1,0,58331.4,-0.0775514,-0.0779492,-34.6012,30,0.001792,10,0.00269713,-1.46091,4.10106,0.0143865,-19.4367,-0.0779492,
2,0,0,1,0,58331.4,-0.0799595,-0.0803712,-34.5654,30,0.00165368,10,0.00277807,-1.46136,4.54155,0.0129912,-17.529,-0.0803712,
2,0,0,1,0,58331.4,-0.0823567,-0.0827794,-34.5248,30,0.00151551,10,0.00285794,-1.46187,6.14921,0.00959473,-12.9332,-0.0827794,
2,0,0,1,0,58331.4,-0.0847538,-0.0851749,-34.4896,30,0.0013775,10,0.00293765,-1.46231,7.93702,0.00743352,-10.0137,-0.0851749,
2,0,0,1,0,58331.4,-0.0871592,-0.0875523,-34.477,30,0.00123958,10,0.00301854,-1.46247,9.26098,0.00637081,-8.5738,-0.0875523,
2,0,0,1,0,58331.5,-0.0895563,-0.0900039,-34.469,30,0.00110168,10,0.00310234,-1.46257,18.0161,0.00327484,-4.40532,-0.0900039,
2,0,0,1,0,58331.5,-0.0919534,-0.092357,-34.4427,30,0.000963869,10,0.00318103,-1.4629,87.8309,0.000671745,-0.903738,-0.092357,
2,0,0,1,0,58331.5,-0.0943505,-0.0947355,-34.4475,30,0.000826101,10,0.0032634,-1.46284,-82.4219,-0.000715829,0.963073,-0.0947355,
2,0,0,1,0,58331.5,-0.0967587,-0.0971712,-34.4683,30,0.000688261,10,0.00334932,-1.46258,-15.9846,-0.00369105,4.96436,-0.0971712,
2,0,0,1,0,58331.5,-0.0991558,-0.0995423,-34.4782,30,0.00055037,10,0.00343204,-1.46246,2.87733,0.0205051,-27.504,-0.0995423,
2,0,0,1,0,58331.5,-0.0999548,-0.1004,-34.4826,30,0.000505548,10,0.00346206,-1.4624,0.0249735,2.3625,-2994.79,-0.1004,
2,0,0,1,1,58331.5,-0.0999548,-0.100419,-34.2912,30,0.000484949,10,0.0034435,-1.46482,-0.0345085,-1.70972,2050.53,-0.100419,
2,0,0,1,1,58331.5,-0.0979573,-0.0984723,-30.5717,30,0.000385944,10,0.00301047,-1.51468,-0.0457324,-1.29012,1470.6,-0.0984723,
2,0,0,1,1,58331.5,-0.0955546,-0.0960249,-27.2657,30,0.000270783,10,0.00261818,-1.56438,-0.0481821,-1.22452,1325.56,-0.09602493,
2,0,0,1,1,58331.5,-0.0931519,-0.0936125,-24.5008,30,0.000167624,10,0.00229358,-1.61082,-0.0518023,-1.13895,1104.18,-0.0936125,
2,0,0,1,1,58331.5,-0.0907548,-0.0912054,-22.0777,30,7.47726e-05,10,0.0020136,-1.65605,-0.0520614,-1.13328,982.576,-0.0912054,
2,0,0,1,1,58331.5,-0.0883578,-0.0887855,-19.8758,30,-8.86223e-06,10,0.00176468,-1.70168,-0.0516191,-1.14299,888.862,-0.0887855,
2,0,0,1,1,58331.5,-0.0859523,-0.086424,-17.832,30,-8.40479e-05,10,0.00154112,-1.7488,-0.05,-1.18,821.975,-0.086424,
2,0,0,1,1,58331.5,-0.0835552,-0.0840042,-15.9603,30,-0.000151403,10,0.00134073,-1.79696,-0.0478932,-1.23191,765.875,-0.0840042,
2,0,0,1,1,58331.5,-0.0811581,-0.0816193,-14.1981,30,-0.000211522,10,0.00115884,-1.84777,-0.0459006,-1.28539,709.025,-0.0816193,
2,0,0,1,1,58331.5,-0.0787555,-0.0792132,-12.5446,30,-0.000264822,10,0.000993698,-1.90154,-0.0428096,-1.3782,669.812,-0.0792132,
2,0,0,1,1,58331.5,-0.0763528,-0.076769,-10.9864,30,-0.000311712,10,0.000843414,-1.95915,-0.0395789,-1.49069,631.861,-0.076769,
2,0,0,1,1,58331.5,-0.0739557,-0.0743619,-9.50175,30,-0.000352531,10,0.000706568,-2.0222,-0.0356978,-1.65276,603.106,-0.0743619,
2,0,0,1,1,58331.5,-0.0715586,-0.0719569,-8.09283,30,-0.000387563,10,0.000582335,-2.0919,-0.0315602,-1.86944,577.669,-0.07195688,
2,0,0,1,1,58331.5,-0.0691532,-0.069606,-6.75038,30,-0.000417099,10,0.000469867,-2.17067,-0.0274184,-2.15184,548.889,-0.069606,
2,0,0,1,1,58331.5,-0.0667561,-0.0672402,-5.48189,30,-0.000441425,10,0.000368603,-2.26107,-0.0229305,-2.57299,521.792,-0.0672402,
2,0,0,1,1,58331.5,-0.0643589,-0.0648172,-4.26275,30,-0.00046077,10,0.0002763,-2.37031,-0.0179211,-3.29221,497.886,-0.0648172,
2,0,0,1,1,58331.5,-0.0619563,-0.0623697,-3.09033,30,-0.000475365,10,0.000192743,-2.50999,-0.0122596,-4.81254,474.599,-0.0623697,
2,0,0,1,1,58331.5,-0.0595536,-0.0599881,-1.96177,30,-0.000485333,10,0.000117683,-2.70735,-0.0062135,-9.49546,456.814,-0.0599881,
2,0,0,1,1,58331.5,-0.0571565,-0.0575672,-0.891077,30,-0.00049092,10,5.12968e-05,-3.05008,-0.0218025,-2.70611,438.342,-0.0575672,
2,0,0,1,1,58331.5,-0.0547594,-0.0552194,0.121627,30,-0.000492342,10,-6.71617e-06,-3.91497,0.416904,0.141519,420.875,-0.0552194,
2,1,0,1,1,58331.5,-0.0523512,-0.0527635,1.12048,30,-0.000489735,10,-5.91204e-05,-2.9506,0.018149,3.25086,406.73,-0.05276351,
2,1,0,1,1,58331.6,-0.0499541,-0.0504126,2.06831,30,-0.000483267,10,-0.000104269,-2.68438,0.00638021,9.24734,390.716,-0.0504126,
2,1,0,1,1,58331.6,-0.047557,-0.0480224,2.99105,30,-0.000473045,10,-0.000143637,-2.52418,0.0152666,3.86464,376.874,-0.0480224,
2,1,0,1,1,58331.6,-0.0451544,-0.0456344,3.86665,30,-0.000459241,10,-0.000176452,-2.41266,0.0223324,2.6419,362.714,-0.0456344,
2,1,0,1,1,58331.6,-0.0427545,-0.0432474,4.70685,30,-0.000441993,10,-0.000203559,-2.32727,0.0296502,1.98987,345.23,-0.0432474,
2,1,0,1,1,58331.6,-0.0403574,-0.0408838,5.52454,30,-0.00042144,10,-0.000225864,-2.2577,0.0365,1.61644,335.518,-0.0408838,
2,1,0,1,1,58331.6,-0.0379603,-0.038412,6.30887,30,-0.000397702,10,-0.000242336,-2.20005,0.0433927,1.35968,325.601,-0.038412,
2,1,0,1,1,58331.6,-0.0355521,-0.0360123,7.09505,30,-0.000370801,10,-0.000255509,-2.14904,0.0512185,1.15193,310.852,-0.0360123,
2,1,0,1,1,58331.6,-0.033155,-0.0336592,7.82878,30,-0.00034089,10,-0.000263511,-2.10631,0.058251,1.01286,303.175,-0.0336592,
2,1,0,1,1,58331.6,-0.0307579,-0.0312468,8.52022,30,-0.000308132,10,-0.000266229,-2.06955,0.0670562,0.879859,288.599,-0.0312468,
2,1,0,1,1,58331.6,-0.0283524,-0.0288312,9.21353,30,-0.000272593,10,-0.000265637,-2.03557,0.0754361,0.782118,277.815,-0.0288312,
2,1,0,1,1,58331.6,-0.0259553,-0.0264103,9.86617,30,-0.000234361,10,-0.000260568,-2.00585,0.0833208,0.708107,269.749,-0.0264103,
2,1,0,1,1,58331.6,-0.0235582,-0.0240244,10.5055,30,-0.000193548,10,-0.000252387,-1.97858,0.0925554,0.637456,258.981,-0.02402436,
2,1,0,1,1,58331.6,-0.0211611,-0.0216204,11.1169,30,-0.000150236,10,-0.000240352,-1.95402,0.100986,0.58424,251.456,-0.0216204,
2,1,0,1,1,58331.6,-0.0187529,-0.0192069,11.706,30,-0.000104514,10,-0.000224837,-1.93159,0.111233,0.530416,240.688,-0.0192069,
2,1,0,1,1,58331.6,-0.0163558,-0.0168178,12.2782,30,-5.64899e-05,10,-0.000206494,-1.91086,0.120621,0.489134,233.006,-0.0168178,
2,1,0,1,1,58331.6,-0.0139587,-0.0143831,12.826,30,-6.22281e-06,10,-0.000184478,-1.89191,0.130042,0.453698,225.978,-0.0143831,
2,1,0,1,1,58331.6,-0.0115505,-0.011976,13.3641,30,4.62159e-05,10,-0.000160049,-1.87406,0.141827,0.415999,215.687,-0.011976,
2,1,0,1,1,58331.6,-0.0091534,-0.00958374,13.8807,30,0.00010076,10,-0.000133029,-1.85759,0.152062,0.387999,209.001,-0.00958374,
2,1,0,1,1,58331.6,-0.00675629,-0.00723175,14.3458,30,0.000157266,10,-0.000103746,-1.84327,0.163257,0.361394,201.772,-0.00723175,
2,1,0,1,1,58331.6,-0.00435919,-0.00480872,14.8271,30,0.000215666,10,-7.12993e-05,-1.82894,0.179823,0.3281,188.42,-0.00480872,
2,1,0,1,1,58331.6,-0.00195376,-0.00242599,15.2911,30,0.000275959,10,-3.7096e-05,-1.81556, , , ,-0.00242599,
2,1,0,0,1,58331.6,-7.54729e-05,-0.000554371,15.582,30,0.000323858,10,-8.6382e-06,-1.80738, , , ,-0.000554371,