File: Figure_codes/Fig_3-5/rawdata_trumpetplot_data/after 10th/20221101_1-115_003_TrumpetPlot_ParaChange_from10_every3_10_CV_C01_20.csv
mode,ox/red,error,control changes,counter inc.,time/s,control/V,Ewe/V,<I>/mA,cycle number,(Q-Qo)/C,I Range,P/W,log(|I|),Tafel slope mV/dec,alpha_eff,dI/d(E-IR),E-IR/V,
2,1,0,0,0,40593.1,-2.44065e-05,-0.00042076,5.14405,21,0.0000000E+000,10,-2.16441e-06,-2.28869, , , ,-0.00042076,
2,1,0,1,0,40593.1,0.00179726,0.00140049,5.86062,21,4.89007e-05,10,8.20773e-06,-2.23206, , , ,0.00140049,
2,1,0,1,0,40593.1,0.00379485,0.00345158,6.40709,21,0.000110527,10,2.21146e-05,-2.19334,0.0615856,0.958015,236.646,0.00345158,
2,1,0,1,0,40593.2,0.00579244,0.00546529,6.82254,21,0.000176809,10,3.72872e-05,-2.16605,0.0814806,0.724099,191.682,0.005465291,
2,1,0,1,0,40593.2,0.00779002,0.00744878,7.17329,21,0.000246907,10,5.34322e-05,-2.14428,0.0970831,0.607727,169.686,0.00744878,
2,1,0,1,0,40593.2,0.00977853,0.00943958,7.49692,21,0.000319609,10,7.07678e-05,-2.12512,0.117837,0.50069,145.793,0.00943958,
2,1,0,1,0,40593.2,0.0117761,0.0114498,7.75661,21,0.000395951,10,8.88118e-05,-2.11033,0.139888,0.421765,127.523,0.0114498,
2,1,0,1,0,40593.2,0.0137737,0.0134106,8.00332,21,0.000474776,10,0.000107329,-2.09673,0.159478,0.369957,115.304,0.0134106,
2,1,0,1,0,40593.2,0.0157713,0.0154677,8.21989,21,0.000555944,10,0.000127143,-2.08513,0.180991,0.325983,104.48,0.0154677,
2,1,0,1,0,40593.2,0.017778,0.0174493,8.42528,21,0.000639237,10,0.000147015,-2.07442,0.207832,0.283884,93.1226,0.0174493,
2,1,0,1,0,40593.2,0.0197755,0.0194786,8.5934,21,0.000724383,10,0.000167388,-2.06584,0.22822,0.258522,86.7385,0.0194786,
2,1,0,1,0,40593.2,0.0217731,0.0214368,8.77115,21,0.000811232,10,0.000188026,-2.05694,0.24612,0.23972,81.9048,0.0214368,
2,1,0,1,0,40593.2,0.0237707,0.0234419,8.91801,21,0.000899737,10,0.000209055,-2.04973,0.274892,0.21463,74.7263,0.0234419,
2,1,0,1,0,40593.3,0.0257774,0.0254738,9.07282,21,0.000989738,10,0.000231119,-2.04226,0.285722,0.206494,73.0364,0.0254738,
2,1,0,1,0,40593.3,0.027775,0.0274311,9.20937,21,0.00108121,10,0.000252623,-2.03577,0.306783,0.192318,69.119,0.02743111,
2,1,0,1,0,40593.3,0.0297726,0.0294344,9.34658,21,0.00117403,10,0.000275111,-2.02935,0.33229,0.177556,64.7063,0.0294344,
2,1,0,1,0,40593.3,0.0317701,0.0314212,9.46755,21,0.00126815,10,0.000297482,-2.02376,0.332806,0.17728,65.5687,0.0314212,
2,1,0,1,0,40593.3,0.0337586,0.0334322,9.6087,21,0.00136258,10,0.00032124,-2.01734,0.343289,0.171867,64.3578,0.0334322,
2,1,0,1,0,40593.3,0.0357562,0.0353998,9.7236,21,0.00145925,10,0.000344213,-2.01217,0.373437,0.157992,59.9792,0.0353998,
2,1,0,1,0,40593.3,0.0377538,0.0374103,9.84731,21,0.0015571,10,0.000368391,-2.00668,0.383989,0.15365,59.01,0.0374103,
2,1,0,1,0,40593.3,0.0397514,0.0393866,9.95887,21,0.00165614,10,0.000392246,-2.00179,0.361666,0.163134,63.504,0.0393866,
2,1,0,1,0,40593.3,0.0417399,0.0414343,10.1028,21,0.00175541,10,0.000418604,-1.99556,0.378259,0.155978,61.3745,0.0414343,
2,1,0,1,0,40593.3,0.0437375,0.0434271,10.2069,21,0.00185697,10,0.000443254,-1.99111,0.408905,0.144288,57.5297,0.0434271,
2,1,0,1,0,40593.4,0.0457351,0.0453975,10.3308,21,0.00195964,10,0.000468995,-1.98586,0.400031,0.147489,59.4283,0.0453975,
2,1,0,1,0,40593.4,0.0477327,0.0474034,10.4432,21,0.00206351,10,0.000495041,-1.98117,0.379645,0.155408,63.4305,0.0474034,
2,1,0,1,0,40593.4,0.0497394,0.0494318,10.5868,21,0.00216862,10,0.000523323,-1.97524,0.386791,0.152537,62.9119,0.0494318,
2,1,0,1,0,40593.4,0.0517369,0.0513883,10.6939,21,0.00227502,10,0.000549539,-1.97087,0.411568,0.143354,59.8909,0.0513883,
2,1,0,1,0,40593.4,0.0537345,0.0533959,10.8242,21,0.00238259,10,0.000577966,-1.96561,0.408643,0.14438,60.9459,0.0533959,
2,1,0,1,0,40593.4,0.0557321,0.0554166,10.9394,21,0.00249143,10,0.000606222,-1.96101,0.413713,0.142611,60.9147,0.0554166,
2,1,0,1,0,40593.4,0.0577297,0.0573696,11.0662,21,0.00260146,10,0.000634864,-1.956,0.386918,0.152487,65.8774,0.0573696,
2,1,0,1,0,40593.4,0.0597364,0.0593919,11.2012,21,0.00271285,10,0.000665264,-1.95073,0.395079,0.149337,65.2537,0.0593919,
2,1,0,1,0,40593.4,0.0617339,0.061371,11.3273,21,0.00282548,10,0.000695169,-1.94587,0.436027,0.135313,59.7821,0.061371,
2,1,0,1,0,40593.4,0.0637315,0.0633986,11.4408,21,0.00293936,10,0.000725328,-1.94154,0.416242,0.141744,63.3661,0.0633986,
2,1,0,1,0,40593.5,0.0657291,0.0654097,11.5832,21,0.0030545,10,0.000757656,-1.93617,0.387551,0.152238,68.7864,0.0654097,
2,1,0,1,0,40593.5,0.0677176,0.0673909,11.7154,21,0.00316987,10,0.000789511,-1.93124,0.40736,0.144835,66.208,0.0673909,
2,1,0,1,0,40593.5,0.0697152,0.0693482,11.844,21,0.00328767,10,0.00082136,-1.9265,0.411682,0.143315,66.2561,0.0693482,
2,1,0,1,0,40593.5,0.0717128,0.0713483,11.9776,21,0.00340681,10,0.000854581,-1.92163,0.413828,0.142571,66.6376,0.0713483,
2,1,0,1,0,40593.5,0.0737104,0.0733342,12.1096,21,0.00352722,10,0.00088805,-1.91687,0.436195,0.135261,63.8992,0.0733342,
2,1,0,1,0,40593.5,0.0756989,0.0753463,12.2331,21,0.00364778,10,0.000921716,-1.91246,0.442619,0.133297,63.6598,0.0753463,
2,1,0,1,0,40593.5,0.0776965,0.0773548,12.3656,21,0.00377077,10,0.000956537,-1.90779,0.447294,0.131904,63.6221,0.0773548,
2,1,0,1,0,40593.5,0.0796941,0.0793208,12.4859,21,0.00389508,10,0.000990394,-1.90358,0.45302,0.130237,63.4937,0.0793208,
2,1,0,1,0,40593.5,0.0816917,0.081351,12.6193,21,0.00402063,10,0.00102659,-1.89896,0.462623,0.127534,62.7749,0.081351,
2,1,0,1,0,40593.5,0.0836983,0.083363,12.7397,21,0.00414744,10,0.00106202,-1.89484,0.463611,0.127262,63.2998,0.083363,
2,1,0,1,0,40593.6,0.0856959,0.085336,12.8716,21,0.00427547,10,0.00109841,-1.89037,0.471526,0.125126,62.8182,0.085336,
2,1,0,1,0,40593.6,0.0876935,0.0873332,12.9891,21,0.00440481,10,0.00113438,-1.88642,0.499972,0.118007,59.8331,0.08733318,
2,1,0,1,0,40593.6,0.0896911,0.0893703,13.1129,21,0.00453532,10,0.00117191,-1.8823,0.489964,0.120417,61.6221,0.0893703,
2,1,0,1,0,40593.6,0.0916977,0.0913511,13.2367,21,0.00466712,10,0.00120918,-1.87822,0.490742,0.120226,62.1079,0.0913511,
2,1,0,1,0,40593.6,0.0936953,0.0933726,13.3615,21,0.00480014,10,0.0012476,-1.87414,0.547151,0.107831,56.1764,0.0933726,
2,1,0,1,0,40593.6,0.0956929,0.0953585,13.4618,21,0.00493429,10,0.0012837,-1.8709,0.544849,0.108287,56.9463,0.0953585,
2,1,0,1,0,40593.6,0.0976905,0.097367,13.589,21,0.00506954,10,0.00132312,-1.86681,0.521094,0.113223,60.0127,0.097367,
2,1,0,1,0,40593.6,0.099679,0.0993558,13.7017,21,0.00520462,10,0.00136134,-1.86323,0.571029,0.103322,55.2377,0.0993558,
2,1,0,1,0,40593.6,0.101677,0.101349,13.8089,21,0.00534219,10,0.00139952,-1.85984,0.569235,0.103648,55.8692,0.101349,
2,1,0,1,0,40593.6,0.103674,0.103307,13.9224,21,0.00548087,10,0.00143828,-1.85629,0.516402,0.114252,62.1244,0.103307,
2,1,0,1,0,40593.7,0.105672,0.105344,14.0572,21,0.00562077,10,0.00148084,-1.8521,0.513306,0.114941,63.0228,0.105344,
2,1,0,1,0,40593.7,0.107656,0.10735,14.1772,21,0.00576051,10,0.00152192,-1.84841,0.516207,0.114295,63.2561,0.10735,
2,1,0,1,0,40593.7,0.109658,0.109276,14.3058,21,0.00590292,10,0.00156328,-1.84449,0.495508,0.11907,66.4913,0.109276,
2,1,0,1,0,40593.7,0.111655,0.111316,14.441,21,0.00604668,10,0.00160752,-1.8404,0.476839,0.123732,69.76,0.111316,
2,1,0,1,0,40593.7,0.113653,0.113321,14.5881,21,0.00619184,10,0.00165314,-1.836,0.459326,0.128449,73.1143,0.113321,
2,1,0,1,0,40593.7,0.115651,0.115271,14.7301,21,0.00633847,10,0.00169795,-1.83179,0.420948,0.14016,80.6747,0.115271,
2,1,0,1,0,40593.7,0.117657,0.117316,14.9103,21,0.0064867,10,0.00174922,-1.82651,0.406687,0.145075,84.3589,0.117316,
2,1,0,1,0,40593.7,0.119655,0.119305,15.0704,21,0.00663663,10,0.00179798,-1.82187,0.417454,0.141333,83.1619,0.119305,
2,1,0,1,0,40593.7,0.121652,0.121342,15.2451,21,0.00678821,10,0.00184986,-1.81687,0.400879,0.147177,87.5667,0.121342,
2,1,0,1,0,40593.7,0.12365,0.123315,15.4216,21,0.00694158,10,0.00190172,-1.81187,0.371979,0.158611,95.5344,0.123315,
2,1,0,1,0,40593.8,0.125657,0.1253,15.6233,21,0.00709685,10,0.00195761,-1.80623,0.382876,0.154097,93.8642,0.1253,
2,1,0,1,0,40593.8,0.127654,0.127299,15.7955,21,0.00725399,10,0.00201076,-1.80147,0.3891,0.151632,93.5522,0.127299,
2,1,0,1,0,40593.8,0.129652,0.129283,15.9959,21,0.00741296,10,0.00206799,-1.79599,0.382588,0.154213,96.2243,0.129283,
2,1,0,1,0,40593.8,0.131649,0.131321,16.1825,21,0.00757391,10,0.0021251,-1.79095,0.393972,0.149757,94.5937,0.131321,
2,1,0,1,0,40593.8,0.133638,0.133297,16.3756,21,0.00773511,10,0.00218282,-1.7858,0.399016,0.147864,94.4664,0.133297,
2,1,0,1,0,40593.8,0.135636,0.135308,16.5592,21,0.00789982,10,0.0022406,-1.78096,0.415393,0.142034,91.7911,0.135308,
2,1,0,1,0,40593.8,0.137633,0.137317,16.7445,21,0.00806635,10,0.0022993,-1.77613,0.440084,0.134065,87.5601,0.137317,
2,1,0,1,0,40593.8,0.139631,0.139339,16.9121,21,0.00823468,10,0.00235651,-1.7718,0.444133,0.132843,87.7163,0.139339,
2,1,0,1,0,40593.8,0.141619,0.141311,17.0949,21,0.00840298,10,0.00241571,-1.76713,0.459383,0.128433,85.61,0.141311,
2,1,0,1,0,40593.8,0.143617,0.143271,17.2487,21,0.00857473,10,0.00247125,-1.76324,0.509187,0.115871,78.0099,0.143271,
2,1,0,1,0,40593.9,0.145614,0.145321,17.4078,21,0.00874801,10,0.00252972,-1.75926,0.558522,0.105636,71.6961,0.145321,
2,1,0,1,0,40593.9,0.147612,0.147246,17.5337,21,0.00892275,10,0.00258176,-1.75613,0.573085,0.102952,70.4999,0.147246,
2,1,0,1,0,40593.9,0.149619,0.149269,17.6861,21,0.00909885,10,0.00263998,-1.75237,0.623501,0.0946269,65.2329,0.149269,
2,1,0,1,0,40593.9,0.151616,0.15125,17.7949,21,0.00927631,10,0.00269147,-1.7497,0.796002,0.0741205,51.4593,0.15125,
2,1,0,1,0,40593.9,0.153614,0.153295,17.8932,21,0.00945477,10,0.00274294,-1.74731,0.911845,0.064704,45.1656,0.153295,
2,1,0,1,0,40593.9,0.155611,0.155291,17.9774,21,0.00963418,10,0.00279173,-1.74527,1.01961,0.0578655,40.5925,0.155291,
2,1,0,1,0,40593.9,0.157618,0.157317,18.0565,21,0.00981437,10,0.00284059,-1.74337,1.72618,0.0341794,24.0442,0.157317,
2,1,0,1,0,40593.9,0.159616,0.159275,18.0732,21,0.00999508,10,0.00287861,-1.74296,5.58706,0.0105601,7.44769,0.159275,
2,1,0,1,0,40593.9,0.161613,0.16129,18.0861,21,0.0101759,10,0.0029171,-1.74266,-4.97457,-0.0118603,-8.35786,0.16129,
2,1,0,1,0,40593.9,0.163611,0.16326,18.0399,21,0.0103566,10,0.00294519,-1.74377,-1.52316,-0.0387354,-27.2584,0.16326,
2,1,0,1,0,40594,0.165618,0.165297,17.9768,21,0.0105366,10,0.00297152,-1.74529,-0.858423,-0.0687307,-48.1307,0.165297,
2,1,0,1,0,40594,0.167597,0.167257,17.8475,21,0.010714,10,0.00298513,-1.74842,-0.587858,-0.100364,-69.8709,0.167257,
2,1,0,1,0,40594,0.169595,0.169253,17.7005,21,0.0108917,10,0.00299585,-1.75202,-0.437025,-0.135004,-93.0524,0.169253,
2,1,0,1,0,40594,0.171592,0.171249,17.4761,21,0.0110676,10,0.00299276,-1.75756,-0.33689,-0.175132,-119.341,0.171249,
2,1,0,1,0,40594,0.173572,0.173253,17.2231,21,0.0112393,10,0.00298395,-1.76389,-0.285871,-0.206387,-138.518,0.173253,
2,1,0,1,0,40594,0.175578,0.175252,16.9216,21,0.01141,10,0.00296554,-1.77156,-0.24399,-0.241813,-159.495,0.175252,
2,1,0,1,0,40594,0.177576,0.177271,16.5822,21,0.0115775,10,0.00293955,-1.78036,-0.210662,-0.28007,-180.99,0.1772709,
2,1,0,1,0,40594,0.179573,0.179234,16.2008,21,0.0117414,10,0.00290374,-1.79046,-0.191552,-0.30801,-194.649,0.179234,
2,1,0,1,0,40594,0.181571,0.18124,15.8096,21,0.0119014,10,0.00286534,-1.80108,-0.182292,-0.323657,-199.5,0.18124,
2,1,0,1,0,40594,0.183578,0.183277,15.3942,21,0.0120574,10,0.00282142,-1.81264,-0.168297,-0.350571,-210.465,0.183277,
2,1,0,1,0,40594.1,0.185575,0.185258,14.964,21,0.0122091,10,0.0027722,-1.82495,-0.1599,-0.368979,-215.432,0.185258,
2,1,0,1,0,40594.1,0.187573,0.187267,14.5348,21,0.0123565,10,0.00272189,-1.83759,-0.15711,-0.375534,-213.091,0.187267,
2,1,0,1,0,40594.1,0.18957,0.189203,14.1233,21,0.0124997,10,0.00267218,-1.85006,-0.157204,-0.37531,-206.786,0.189203,
2,1,0,1,0,40594.1,0.191577,0.191261,13.7088,21,0.0126389,10,0.00262196,-1.863,-0.158263,-0.372796,-199.596,0.191261,
2,1,0,1,0,40594.1,0.193575,0.193217,13.3221,21,0.012774,10,0.00257406,-1.87543,-0.159313,-0.370339,-192.555,0.193217,
2,1,0,1,0,40594.1,0.195572,0.195234,12.9439,21,0.0129053,10,0.00252708,-1.88794,-0.163689,-0.360439,-182.212,0.195234,
2,1,0,1,0,40594.1,0.19757,0.197228,12.5914,21,0.0130329,10,0.00248337,-1.89993,-0.17238,-0.342267,-168.35,0.197228,
2,1,0,1,0,40594.1,0.199558,0.199244,12.2688,21,0.0131559,10,0.00244448,-1.9112,-0.179772,-0.328193,-157.209,0.199244,
2,1,0,1,0,40594.1,0.201556,0.201232,11.9619,21,0.0132769,10,0.00240711,-1.9222,-0.180991,-0.325984,-152.202,0.201232,
2,1,0,1,0,40594.1,0.203554,0.203221,11.6634,21,0.013395,10,0.00237025,-1.93317,-0.187991,-0.313844,-142.999,0.203221,
2,1,0,1,0,40594.2,0.205551,0.205212,11.3927,21,0.0135102,10,0.00233792,-1.94337,-0.209061,-0.282215,-125.652,0.205212,
2,1,0,1,0,40594.2,0.20754,0.20725,11.1572,21,0.0136218,10,0.00231232,-1.95245,-0.218792,-0.269662,-117.414,0.2072501,
2,1,0,1,0,40594.2,0.209537,0.209203,10.9241,21,0.0137321,10,0.00228536,-1.96161,-0.214738,-0.274754,-117.155,0.209203,
2,1,0,1,0,40594.2,0.211535,0.211173,10.6976,21,0.0138401,10,0.00225905,-1.97071,-0.233889,-0.252256,-105.446,0.211173,
2,1,0,1,0,40594.2,0.213532,0.213221,10.5004,21,0.013946,10,0.00223891,-1.97879,-0.252223,-0.23392,-95.8855,0.213221,
2,1,0,1,0,40594.2,0.215539,0.215203,10.3111,21,0.0140501,10,0.00221899,-1.98669,-0.257568,-0.229066,-92.225,0.215203,
2,1,0,1,0,40594.2,0.217537,0.21719,10.1344,21,0.0141522,10,0.00220109,-1.9942,-0.270433,-0.218169,-86.3253,0.21719,
2,1,0,1,0,40594.2,0.219534,0.219176,9.96818,21,0.0142528,10,0.00218479,-2.00138,-0.298613,-0.19758,-76.9412,0.219176,
2,1,0,1,0,40594.2,0.221532,0.221229,9.82363,21,0.0143517,10,0.00217327,-2.00773,-0.312811,-0.188612,-72.2941,0.221229,
2,1,0,1,0,40594.2,0.223534,0.223219,9.67589,21,0.0144492,10,0.00215985,-2.01431,-0.321474,-0.18353,-69.3735,0.223219,
2,1,0,1,0,40594.3,0.225536,0.225191,9.54875,21,0.0145453,10,0.0021503,-2.02005,-0.337762,-0.174679,-65.0777,0.225191,
2,1,0,1,0,40594.3,0.227534,0.227189,9.41752,21,0.0146401,10,0.00213956,-2.02606,-0.349661,-0.168735,-62.0599,0.227189,
2,1,0,1,0,40594.3,0.229531,0.229189,9.30064,21,0.0147337,10,0.00213161,-2.03149,-0.376498,-0.156707,-56.8888,0.229189,
2,1,0,1,0,40594.3,0.231529,0.231236,9.18732,21,0.0148261,10,0.00212444,-2.03681,-0.428475,-0.137698,-49.4446,0.231236,
2,1,0,1,0,40594.3,0.233517,0.23321,9.10181,21,0.0149167,10,0.00212264,-2.04087,-0.422433,-0.139667,-49.54,0.23321,
2,1,0,1,0,40594.3,0.235515,0.235206,8.99065,21,0.0150071,10,0.00211465,-2.04621,-0.42082,-0.140202,-49.2653,0.235206,
2,1,0,1,0,40594.3,0.237512,0.237178,8.90634,21,0.0150966,10,0.00211239,-2.0503,-0.471168,-0.125221,-43.5121,0.237178,
2,1,0,1,0,40594.3,0.23951,0.23919,8.81728,21,0.0151852,10,0.00210901,-2.05467,-0.525655,-0.112241,-38.6729,0.23919,
2,1,0,1,0,40594.3,0.241499,0.241187,8.75129,21,0.0152721,10,0.0021107,-2.05793,-0.514534,-0.114667,-39.1079,0.241187,
2,1,0,1,0,40594.3,0.243496,0.243181,8.66121,21,0.0153591,10,0.00210624,-2.06242,-0.500718,-0.117831,-39.8776,0.243181,
2,1,0,1,0,40594.4,0.245494,0.245165,8.59266,21,0.0154453,10,0.00210662,-2.06587,-0.546167,-0.108026,-36.2102,0.245165,
2,1,0,1,0,40594.4,0.247491,0.247161,8.5171,21,0.0155309,10,0.00210509,-2.06971,-0.597855,-0.0986861,-32.8368,0.247161,
2,1,0,1,0,40594.4,0.249498,0.24922,8.45953,21,0.0156158,10,0.00210828,-2.07265,-0.617434,-0.0955568,-31.5264,0.2492197,
2,1,0,1,0,40594.4,0.251496,0.25117,8.39071,21,0.0157,10,0.00210749,-2.0762,-0.630068,-0.0936407,-30.6934,0.25117,
2,1,0,1,0,40594.4,0.253493,0.253167,8.33836,21,0.0157836,10,0.002111,-2.07892,-0.625436,-0.0943342,-30.6645,0.253167,
2,1,0,1,0,40594.4,0.255491,0.255172,8.26798,21,0.0158667,10,0.00210976,-2.0826,-0.701548,-0.0840998,-27.1881,0.255172,
2,1,0,1,0,40594.4,0.257497,0.257185,8.22912,21,0.0159492,10,0.00211641,-2.08465,-0.835059,-0.0706537,-22.6734,0.257185,
2,1,0,1,0,40594.4,0.259495,0.259154,8.17771,21,0.0160312,10,0.00211928,-2.08737,-0.722862,-0.08162,-26.0468,0.259154,
2,1,0,1,0,40594.4,0.261493,0.261179,8.1251,21,0.0161127,10,0.0021221,-2.09017,-0.714682,-0.0825542,-26.1781,0.261179,
2,1,0,1,0,40594.4,0.26349,0.263154,8.07298,21,0.0161937,10,0.00212444,-2.09297,-0.909387,-0.0648789,-20.4689,0.2631543,
2,1,0,1,0,40594.5,0.265479,0.265186,8.04307,21,0.0162734,10,0.00213291,-2.09458,-0.867427,-0.0680172,-21.317,0.2651864,
2,1,0,1,0,40594.5,0.267476,0.267133,7.98818,21,0.0163536,10,0.0021339,-2.09755,-0.76703,-0.0769201,-24.0006,0.267133,
2,1,0,1,0,40594.5,0.269474,0.269184,7.94714,21,0.0164332,10,0.00213924,-2.09979,-0.894888,-0.06593,-20.4478,0.269184,
2,1,0,1,0,40594.5,0.271471,0.271161,7.90581,21,0.0165125,10,0.00214374,-2.10205,-1.16203,-0.0507731,-15.6855,0.271161,
2,1,0,1,0,40594.5,0.27346,0.273157,7.88481,21,0.0165906,10,0.00215379,-2.10321,-0.934473,-0.0631372,-19.3849,0.273157,
2,1,0,1,0,40594.5,0.275458,0.275149,7.8285,21,0.0166691,10,0.002154,-2.10632,-0.848172,-0.0695614,-21.2889,0.2751489,
2,1,0,1,0,40594.5,0.277455,0.27718,7.79917,21,0.0167472,10,0.00216177,-2.10795,-0.990671,-0.0595556,-18.1115,0.27718,
2,1,0,1,0,40594.5,0.279453,0.279136,7.75629,21,0.016825,10,0.00216506,-2.11035,-1.06188,-0.0555618,-16.8392,0.279136,
2,1,0,1,0,40594.5,0.281455,0.281149,7.73233,21,0.0169024,10,0.00217394,-2.11169,-1.04426,-0.0564994,-17.0277,0.281149,
2,1,0,1,0,40594.5,0.283457,0.283121,7.68843,21,0.0169795,10,0.00217676,-2.11416,-1.0263,-0.0574878,-17.2702,0.283121,
2,1,0,1,0,40594.6,0.285455,0.28516,7.66306,21,0.0170563,10,0.0021852,-2.1156,-1.04904,-0.0562421,-16.802,0.28516,
2,1,0,1,0,40594.6,0.287452,0.287111,7.62138,21,0.0171327,10,0.00218819,-2.11797,-1.01234,-0.0582807,-17.351,0.287111,
2,1,0,1,0,40594.6,0.28945,0.289142,7.59396,21,0.0172088,10,0.00219574,-2.11953,-1.21316,-0.0486334,-14.4111,0.289142,
2,1,0,1,0,40594.6,0.291456,0.291082,7.56417,21,0.0172846,10,0.00220179,-2.12124,-1.22088,-0.0483259,-14.2683,0.291082,
2,1,0,1,0,40594.6,0.293454,0.293148,7.5368,21,0.0173601,10,0.0022094,-2.12281,-1.10107,-0.053584,-15.7517,0.293148,
2,1,0,1,0,40594.6,0.295452,0.295119,7.50057,21,0.0174353,10,0.00221356,-2.12491,-1.24377,-0.0474364,-13.9014,0.295119,
2,1,0,1,0,40594.6,0.297449,0.297144,7.48125,21,0.0175102,10,0.00222301,-2.12603,-1.29813,-0.0454501,-13.2569,0.297144,
2,1,0,1,0,40594.6,0.299438,0.299151,7.44712,21,0.0175841,10,0.00222781,-2.12801,-0.0724053,-0.814858,-229.318,0.299151,
2,1,0,1,0,40594.6,0.299746,0.299473,6.94725,21,0.0176155,10,0.00208051,-2.15819,0.00837975,7.04078,1634.67,0.299473,
2,1,0,1,0,40594.6,0.29774,0.29745,4.66674,21,0.0176722,10,0.00138812,-2.33099,0.011953,4.93599,927.957,0.29745,
2,1,0,1,0,40594.6,0.295742,0.295407,3.17454,21,0.0177108,10,0.000937782,-2.49832,0.0113268,5.20888,648.187,0.2954075,
2,1,0,1,0,40594.7,0.293745,0.29343,2.06129,21,0.0177366,10,0.000604846,-2.68586,0.00917224,6.43245,504.368,0.29343,
2,1,0,1,0,40594.7,0.291747,0.291436,1.17124,21,0.0177525,10,0.000341341,-2.93135,0.00604539,9.7595,404.699,0.2914356,
2,1,0,1,0,40594.7,0.289745,0.289459,0.454228,21,0.0177605,10,0.000131481,-3.34273,0.00431503,13.6731,324.378,0.289459,
2,0,0,1,0,40594.7,0.287743,0.287405,-0.136298,21,0.0177619,10,-3.91728e-05,-3.86551,-0.0299538,-1.9697,266.304,0.287405,
2,0,0,1,0,40594.7,0.285745,0.285428,-0.61922,21,0.017758,10,-0.000176743,-3.20815,-0.00452483,-13.0392,226.187,0.285428,
2,0,0,1,0,40594.7,0.283748,0.283413,-1.0392,21,0.0177496,10,-0.000294524,-2.9833,-0.0113383,-5.2036,194.081,0.283413,
2,0,0,1,0,40594.7,0.28175,0.281424,-1.39632,21,0.0177373,10,-0.000392959,-2.85501,-0.0181211,-3.25587,171.032,0.281424,
2,0,0,1,0,40594.7,0.279761,0.279503,-1.70796,21,0.0177219,10,-0.000477379,-2.76752,-0.0261601,-2.25534,147.049,0.279503,
2,0,0,1,0,40594.7,0.277764,0.277464,-1.97875,21,0.0177034,10,-0.000549031,-2.70361,-0.0356914,-1.65306,126.049,0.277464,
2,0,0,1,0,40594.7,0.275766,0.275423,-2.22223,21,0.0176823,10,-0.000612053,-2.65321,-0.0453957,-1.29968,111.352,0.275423,
2,0,0,1,0,40594.8,0.273769,0.273437,-2.42712,21,0.017659,10,-0.000663665,-2.61491,-0.0534338,-1.10417,104.406,0.273437,
2,0,0,1,0,40594.8,0.27178,0.271468,-2.63517,21,0.0176339,10,-0.000715363,-2.57919,-0.0635229,-0.928799,94.6451,0.271468,
2,0,0,1,0,40594.8,0.269783,0.269455,-2.804,21,0.0176066,10,-0.000755553,-2.55222,-0.07715,-0.764744,83.5711,0.269455,
2,0,0,1,0,40594.8,0.267785,0.267439,-2.97182,21,0.0175777,10,-0.00079478,-2.52698,-0.0889193,-0.663523,76.4741,0.267439,
2,0,0,1,0,40594.8,0.265787,0.265485,-3.10762,21,0.0175473,10,-0.000825026,-2.50757,-0.101682,-0.580242,70.4505,0.265485,
2,0,0,1,0,40594.8,0.263781,0.263425,-3.25463,21,0.0175155,10,-0.000857352,-2.4875,-0.115002,-0.513035,64.8239,0.263425,
2,0,0,1,0,40594.8,0.261783,0.261419,-3.37117,21,0.0174823,10,-0.000881288,-2.47222,-0.13118,-0.449762,59.1737,0.261419,
2,0,0,1,0,40594.8,0.259786,0.259439,-3.49049,21,0.017448,10,-0.000905569,-2.45711,-0.136998,-0.430664,58.5833,0.2594392,
2,0,0,1,0,40594.8,0.257788,0.257471,-3.60248,21,0.0174125,10,-0.000927534,-2.4434,-0.147624,-0.399664,56.1862,0.257471,
2,0,0,1,0,40594.8,0.255781,0.25542,-3.71633,21,0.0173759,10,-0.000949224,-2.42989,-0.172686,-0.341661,49.3483,0.25542,
2,0,0,1,0,40594.9,0.253784,0.253444,-3.80119,21,0.0173383,10,-0.000963388,-2.42008,-0.185922,-0.317338,47.1759,0.253444,
2,0,0,1,0,40594.9,0.251786,0.251449,-3.90363,21,0.0172997,10,-0.000981565,-2.40853,-0.195005,-0.302556,45.955,0.251449,
2,0,0,1,0,40594.9,0.249789,0.249464,-3.98407,21,0.0172603,10,-0.000993885,-2.39967,-0.210146,-0.280757,43.7068,0.249464,
2,0,0,1,0,40594.9,0.2478,0.247519,-4.07543,21,0.0172204,10,-0.00100874,-2.38983,-0.224218,-0.263137,41.7604,0.2475187,
2,0,0,1,0,40594.9,0.245802,0.245491,-4.15002,21,0.0171793,10,-0.00101879,-2.38195,-0.234343,-0.251768,40.8407,0.245491,
2,0,0,1,0,40594.9,0.243805,0.243522,-4.23868,21,0.0171373,10,-0.00103221,-2.37277,-0.270772,-0.217896,35.8976,0.243522,
2,0,0,1,0,40594.9,0.241807,0.241493,-4.29353,21,0.0170946,10,-0.00103686,-2.36719,-0.26778,-0.22033,37.0815,0.241493,
2,0,0,1,0,40594.9,0.239819,0.239522,-4.387,21,0.0170516,10,-0.00105078,-2.35783,-0.270602,-0.218032,37.1658,0.239522,
2,0,0,1,0,40594.9,0.237821,0.237476,-4.44283,21,0.0170075,10,-0.00105506,-2.35234,-0.320387,-0.184152,31.9852,0.237476,
2,0,0,1,0,40594.9,0.235824,0.235532,-4.5146,21,0.0169627,10,-0.00106333,-2.34538,-0.318751,-0.185098,32.5603,0.2355323,
2,0,0,1,0,40595,0.233826,0.233492,-4.57255,21,0.0169173,10,-0.00106765,-2.33984,-0.32236,-0.183025,32.7156,0.2334917,
2,0,0,1,0,40595,0.231824,0.231506,-4.64633,21,0.0168712,10,-0.00107565,-2.33289,-0.328388,-0.179666,32.515,0.231506,
2,0,0,1,0,40595,0.229822,0.229497,-4.70243,21,0.0168244,10,-0.00107919,-2.32768,-0.3664,-0.161026,29.5722,0.229497,
2,0,0,1,0,40595,0.227824,0.227474,-4.76556,21,0.0167771,10,-0.00108404,-2.32189,-0.386643,-0.152595,28.3421,0.227474,
2,0,0,1,0,40595,0.225827,0.22548,-4.81628,21,0.0167292,10,-0.00108598,-2.31729,-0.395083,-0.149336,28.097,0.22548,
2,0,0,1,0,40595,0.223829,0.223515,-4.87679,21,0.0166807,10,-0.00109004,-2.31187,-0.393861,-0.149799,28.4861,0.223515,
2,0,0,1,0,40595,0.221822,0.221511,-4.92935,21,0.0166316,10,-0.0010919,-2.30721,-0.397876,-0.148287,28.5516,0.221511,
2,0,0,1,0,40595,0.219825,0.219522,-4.99081,21,0.016582,10,-0.00109559,-2.30183,-0.403832,-0.1461,28.4319,0.219522,
2,0,0,1,0,40595,0.217827,0.217479,-5.04398,21,0.0165318,10,-0.00109696,-2.29723,-0.435563,-0.135457,26.6662,0.2174792,
2,0,0,1,0,40595,0.21583,0.215499,-5.09807,21,0.0164811,10,-0.00109863,-2.29259,-0.41773,-0.14124,28.1082,0.2154993,
2,0,0,1,0,40595.1,0.213841,0.213527,-5.15508,21,0.0164303,10,-0.00110075,-2.28776,-0.426798,-0.138239,27.7997,0.213527,
2,0,0,1,0,40595.1,0.211843,0.211544,-5.20803,21,0.0163785,10,-0.00110173,-2.28333,-0.509327,-0.115839,23.5175,0.2115439,
2,0,0,1,0,40595.1,0.209846,0.209522,-5.24925,21,0.0163262,10,-0.00109983,-2.2799,-0.481993,-0.122409,25.1203,0.209522,
2,0,0,1,0,40595.1,0.207848,0.207524,-5.309,21,0.0162734,10,-0.00110175,-2.27499,-0.404991,-0.145682,30.1878,0.207524,
2,0,0,1,0,40595.1,0.20586,0.205509,-5.37041,21,0.0162205,10,-0.00110367,-2.26999,-0.43775,-0.13478,28.2232,0.205509,
2,0,0,1,0,40595.1,0.203862,0.203501,-5.42255,21,0.0161665,10,-0.00110349,-2.2658,-0.550827,-0.107112,22.6366,0.203501,
2,0,0,1,0,40595.1,0.201865,0.201544,-5.46016,21,0.0161122,10,-0.00110046,-2.26279,-0.544895,-0.108278,23.1046,0.2015439,
2,0,0,1,0,40595.1,0.199867,0.199591,-5.51289,21,0.0160573,10,-0.00110032,-2.25862,-0.46324,-0.127364,27.412,0.199591,
2,0,0,1,0,40595.1,0.19786,0.197542,-5.56985,21,0.0160018,10,-0.00110028,-2.25416,-0.493348,-0.119591,25.9746,0.197542,
2,0,0,1,0,40595.1,0.195863,0.195546,-5.61795,21,0.0159459,10,-0.00109857,-2.25042,-0.512201,-0.115189,25.265,0.195546,
2,0,0,1,0,40595.2,0.193865,0.193552,-5.67066,21,0.0158894,10,-0.00109757,-2.24637,-0.492257,-0.119856,26.5261,0.193552,
2,0,0,1,0,40595.2,0.191868,0.191543,-5.72414,21,0.0158324,10,-0.00109642,-2.24229,-0.492525,-0.119791,26.7613,0.191543,
2,0,0,1,0,40595.2,0.189861,0.189534,-5.7782,21,0.0157749,10,-0.00109516,-2.23821,-0.499016,-0.118233,26.6585,0.189534,
2,0,0,1,0,40595.2,0.187863,0.187532,-5.83107,21,0.0157169,10,-0.00109351,-2.23425,-0.509225,-0.115862,26.3655,0.187532,
2,0,0,1,0,40595.2,0.185866,0.18553,-5.88377,21,0.0156583,10,-0.00109161,-2.23034,-0.499641,-0.118085,27.1201,0.18553,
2,0,0,1,0,40595.2,0.183868,0.183556,-5.9389,21,0.0155991,10,-0.00109012,-2.22629,-0.451937,-0.130549,30.2806,0.183556,
2,0,0,1,0,40595.2,0.18188,0.181586,-6.0032,21,0.0155401,10,-0.00109009,-2.22162,-0.43691,-0.135039,31.6311,0.181586,
2,0,0,1,0,40595.2,0.179882,0.179557,-6.0654,21,0.0154797,10,-0.00108908,-2.21714,-0.502033,-0.117522,27.7894,0.179557,
2,0,0,1,0,40595.2,0.177885,0.177562,-6.11501,21,0.0154188,10,-0.00108579,-2.2136,-0.483491,-0.122029,29.1634,0.1775621,
2,0,0,1,0,40595.2,0.175887,0.175548,-6.1823,21,0.0153573,10,-0.00108529,-2.20885,-0.442575,-0.133311,32.1453,0.175548,
2,0,0,1,0,40595.3,0.173908,0.173593,-6.2426,21,0.0152959,10,-0.00108367,-2.20463,-0.421723,-0.139902,34.1246,0.173593,
2,0,0,1,0,40595.3,0.171901,0.171566,-6.31818,21,0.015233,10,-0.00108399,-2.19941,-0.42059,-0.140279,34.5534,0.171566,
2,0,0,1,0,40595.3,0.169903,0.169589,-6.38095,21,0.0151696,10,-0.00108214,-2.19511,-0.423002,-0.139479,34.767,0.1695891,
2,0,0,1,0,40595.3,0.167906,0.167595,-6.45624,21,0.0151054,10,-0.00108204,-2.19002,-0.398988,-0.147874,37.2575,0.167595,
2,0,0,1,0,40595.3,0.165908,0.165549,-6.53148,21,0.0150405,10,-0.00108128,-2.18499,-0.369468,-0.159689,40.7437,0.165549,
2,0,0,1,0,40595.3,0.163901,0.163583,-6.61973,21,0.0149747,10,-0.00108287,-2.17916,-0.36269,-0.162673,41.9975,0.163583,
2,0,0,1,0,40595.3,0.161904,0.161545,-6.69964,21,0.0149081,10,-0.00108229,-2.17395,-0.34916,-0.168977,44.2338,0.161545,
2,0,0,1,0,40595.3,0.159906,0.159595,-6.79612,21,0.0148406,10,-0.00108463,-2.16774,-0.325079,-0.181494,48.1208,0.159595,
2,0,0,1,0,40595.3,0.157909,0.157617,-6.88864,21,0.0147721,10,-0.00108577,-2.16187,-0.304732,-0.193613,52.1452,0.157617,
2,0,0,1,0,40595.3,0.155902,0.15555,-7.00708,21,0.0147026,10,-0.00108995,-2.15446,-0.272824,-0.216256,59.1351,0.15555,
2,0,0,1,0,40595.4,0.153904,0.153602,-7.12609,21,0.0146319,10,-0.00109458,-2.14715,-0.266213,-0.221627,61.6478,0.153602,
2,0,0,1,0,40595.4,0.151907,0.151624,-7.2491,21,0.01456,10,-0.00109913,-2.13972,-0.259375,-0.22747,64.4144,0.151624,
2,0,0,1,0,40595.4,0.149909,0.149545,-7.38741,21,0.0144868,10,-0.00110475,-2.13151,-0.225563,-0.261568,75.5459,0.149545,
2,0,0,1,0,40595.4,0.147921,0.147587,-7.55405,21,0.0144129,10,-0.00111488,-2.12182,-0.20952,-0.281596,82.9628,0.147587,
2,0,0,1,0,40595.4,0.145923,0.14562,-7.71307,21,0.0143365,10,-0.00112317,-2.11277,-0.198707,-0.296919,89.583,0.1456195,
2,0,0,1,0,40595.4,0.143926,0.143611,-7.91028,21,0.0142584,10,-0.001136,-2.10181,-0.180456,-0.326949,100.968,0.143611,
2,0,0,1,0,40595.4,0.141928,0.141625,-8.11634,21,0.0141783,10,-0.00114948,-2.09064,-0.167721,-0.351775,111.633,0.141625,
2,0,0,1,0,40595.4,0.139939,0.139612,-8.35659,21,0.0140967,10,-0.00116668,-2.07797,-0.161903,-0.364415,118.8,0.139612,
2,0,0,1,0,40595.4,0.137942,0.137598,-8.59481,21,0.014012,10,-0.00118263,-2.06576,-0.154413,-0.382091,128.433,0.137598,
2,0,0,1,0,40595.4,0.135944,0.135582,-8.87429,21,0.0139246,10,-0.00120319,-2.05187,-0.142432,-0.414231,143.526,0.135582,
2,0,0,1,0,40595.5,0.133947,0.133606,-9.16775,21,0.0138344,10,-0.00122487,-2.03774,-0.135322,-0.435996,156.189,0.133606,
2,0,0,1,0,40595.5,0.13194,0.131633,-9.491,21,0.0137411,10,-0.00124933,-2.02269,-0.133507,-0.441924,163.729,0.131633,
2,0,0,1,0,40595.5,0.129942,0.129584,-9.8263,21,0.0136445,10,-0.00127333,-2.00761,-0.131959,-0.447108,171.581,0.129584,
2,0,0,1,0,40595.5,0.127945,0.127597,-10.1835,21,0.0135444,10,-0.00129939,-1.9921,-0.129254,-0.456464,181.354,0.127597,
2,0,0,1,0,40595.5,0.125947,0.125634,-10.5425,21,0.0134407,10,-0.00132451,-1.97706,-0.130139,-0.45336,186.654,0.125634,
2,0,0,1,0,40595.5,0.123941,0.123629,-10.9241,21,0.0133334,10,-0.00135054,-1.96162,-0.136578,-0.431989,183.951,0.123629,
2,0,0,1,0,40595.5,0.121943,0.121582,-11.288,21,0.0132223,10,-0.00137242,-1.94738,-0.143182,-0.412063,181.424,0.121582,
2,0,0,1,0,40595.5,0.119945,0.119646,-11.6467,21,0.0131076,10,-0.00139349,-1.9338,-0.144296,-0.408881,185.952,0.119646,
2,0,0,1,0,40595.5,0.117948,0.117613,-12.0259,21,0.0129892,10,-0.00141441,-1.91988,-0.145385,-0.405819,190.489,0.117613,
2,0,0,1,0,40595.5,0.115946,0.115606,-12.4164,21,0.0128669,10,-0.00143541,-1.906,-0.154589,-0.381658,184.571,0.115606,
2,0,0,1,0,40595.6,0.113962,0.113612,-12.7644,21,0.0127421,10,-0.0014502,-1.894,-0.165589,-0.356305,177.513,0.113612,
2,0,0,1,0,40595.6,0.111964,0.111634,-13.1215,21,0.0126127,10,-0.0014648,-1.88202,-0.172194,-0.342637,175.312,0.111634,
2,0,0,1,0,40595.6,0.109967,0.10963,-13.4625,21,0.0124797,10,-0.0014759,-1.87087,-0.184304,-0.320123,168.1,0.10963,
2,0,0,1,0,40595.6,0.107969,0.107631,-13.7944,21,0.0123434,10,-0.0014847,-1.8603,-0.197542,-0.298671,160.642,0.107631,
2,0,0,1,0,40595.6,0.10598,0.105626,-14.1058,21,0.0122052,10,-0.00148994,-1.8506,-0.203451,-0.289996,159.63,0.105626,
2,0,0,1,0,40595.6,0.103983,0.103715,-14.4194,21,0.0120625,10,-0.00149551,-1.84105,-0.220467,-0.267614,150.407,0.103715,
2,0,0,1,0,40595.6,0.101985,0.101672,-14.7005,21,0.0119169,10,-0.00149463,-1.83267,-0.24326,-0.242539,139.09,0.101672,
2,0,0,1,0,40595.6,0.0999877,0.0997365,-14.9728,21,0.0117685,10,-0.00149334,-1.8247,-0.260929,-0.226115,132.042,0.0997365,
2,0,0,1,0,40595.6,0.0979811,0.0976724,-15.2286,21,0.0116174,10,-0.00148742,-1.81734,-0.280541,-0.210308,124.959,0.09767244,
2,0,0,1,0,40595.6,0.0959835,0.095683,-15.4793,21,0.0114638,10,-0.00148111,-1.81025,-0.307878,-0.191634,115.609,0.095683,
2,0,0,1,0,40595.7,0.0939859,0.0936823,-15.6899,21,0.0113079,10,-0.00146987,-1.80438,-0.341454,-0.172791,105.802,0.0936823,
2,0,0,1,0,40595.7,0.0919883,0.0916903,-15.9018,21,0.0111499,10,-0.00145804,-1.79855,-0.363222,-0.162435,100.74,0.0916903,
2,0,0,1,0,40595.7,0.0899816,0.089667,-16.0944,21,0.0109898,10,-0.00144314,-1.79332,-0.417688,-0.141254,88.64,0.08966703,
2,0,0,1,0,40595.7,0.087984,0.0876715,-16.258,21,0.010828,10,-0.00142536,-1.78893,-0.503268,-0.117234,74.3173,0.0876715,
2,0,0,1,0,40595.7,0.0859865,0.0856483,-16.3931,21,0.0106647,10,-0.00140404,-1.78534,-0.584315,-0.100973,64.5763,0.0856483,
2,0,0,1,0,40595.7,0.0839889,0.0836597,-16.5171,21,0.0105001,10,-0.00138181,-1.78207,-0.718898,-0.0820701,52.8421,0.0836597,
2,0,0,1,0,40595.7,0.0820004,0.0816682,-16.6034,21,0.0103361,10,-0.00135597,-1.7798,-0.938284,-0.0628808,40.734,0.0816682,
2,0,0,1,0,40595.7,0.0800028,0.0796426,-16.6807,21,0.0101697,10,-0.00132849,-1.77779,-1.19591,-0.0493348,32.091,0.0796426,
2,0,0,1,0,40595.7,0.0780052,0.0776774,-16.7315,21,0.0100026,10,-0.00129966,-1.77647,-1.89188,-0.0311859,20.3513,0.0776774,
2,0,0,1,0,40595.7,0.0760076,0.0756525,-16.7619,21,0.0098351,10,-0.00126808,-1.77568,-3.64085,-0.016205,10.5948,0.07565254,
2,0,0,1,0,40595.8,0.0740191,0.0736936,-16.7737,21,0.00966913,10,-0.00123611,-1.77537,-16.2969,-0.00362032,2.36895,0.0736936,
2,0,0,1,0,40595.8,0.0720215,0.0716538,-16.7714,21,0.00950139,10,-0.00120173,-1.77543,5.42899,0.0108676,-7.10811,0.0716538,
2,0,0,1,0,40595.8,0.0700239,0.0696731,-16.7451,21,0.00933379,10,-0.00116668,-1.77611,2.82827,0.0208608,-13.6323,0.0696731,
2,0,0,1,0,40595.8,0.0680263,0.0677305,-16.7179,21,0.00916648,10,-0.00113231,-1.77682,2.72879,0.0216213,-14.1058,0.0677305,
2,0,0,1,0,40595.8,0.0660197,0.0656509,-16.6884,21,0.00899951,10,-0.0010956,-1.77759,1.96999,0.0299493,-19.4948,0.0656509,
2,0,0,1,0,40595.8,0.0640221,0.0637361,-16.64,21,0.00883289,10,-0.00106057,-1.77885,1.35462,0.0435546,-28.272,0.0637361,
2,0,0,1,0,40595.8,0.0620245,0.0617093,-16.5769,21,0.00866679,10,-0.00102295,-1.7805,1.42742,0.0413332,-26.7555,0.0617093,
2,0,0,1,0,40595.8,0.0600269,0.0597251,-16.5327,21,0.00850125,10,-0.000987418,-1.78166,1.4915,0.0395576,-25.5118,0.0597251,
2,0,0,1,0,40595.8,0.0580248,0.0576602,-16.4736,21,0.00833622,10,-0.000949872,-1.78321,1.3174,0.0447853,-28.7945,0.0576602,
2,0,0,1,0,40595.8,0.0560227,0.0556803,-16.4162,21,0.00817174,10,-0.000914062,-1.78473,1.22376,0.048212,-30.88,0.0556803,
2,0,0,1,0,40595.9,0.0540251,0.0536649,-16.3502,21,0.00800787,10,-0.000877434,-1.78648,1.36019,0.0433764,-27.6969,0.0536649,
2,0,0,1,0,40595.9,0.0520275,0.0517076,-16.3062,21,0.00784455,10,-0.000843155,-1.78765,1.31248,0.044953,-28.5853,0.0517076,
2,0,0,1,0,40595.9,0.0500299,0.0497129,-16.2373,21,0.00768181,10,-0.000807203,-1.78949,1.28772,0.0458174,-29.0536,0.0497129,
2,0,0,1,0,40595.9,0.0480414,0.0477198,-16.1904,21,0.00752129,10,-0.000772601,-1.79074,1.31415,0.044896,-28.3508,0.0477198,
2,0,0,1,0,40595.9,0.0460438,0.0457197,-16.1241,21,0.00735971,10,-0.000737186,-1.79253,1.27651,0.0462198,-29.0984,0.04571965,
2,0,0,1,0,40595.9,0.0440462,0.0436884,-16.073,21,0.00719875,10,-0.000702206,-1.7939,1.19679,0.0492985,-30.9034,0.0436884,
2,0,0,1,0,40595.9,0.0420486,0.041732,-16.0008,21,0.00703842,10,-0.000667746,-1.79586,1.17032,0.0504134,-31.5006,0.041732,
2,0,0,1,0,40595.9,0.0400601,0.0397337,-15.9485,21,0.00688028,10,-0.000633692,-1.79728,1.22873,0.0480169,-29.8721,0.0397337,
2,0,0,1,0,40595.9,0.0380625,0.0377122,-15.8807,21,0.00672112,10,-0.000598898,-1.79913,1.06559,0.0553685,-34.3142,0.0377122,
2,0,0,1,0,40595.9,0.036065,0.0357419,-15.8115,21,0.0065627,10,-0.000565133,-1.80103,0.986696,0.0597955,-36.8886,0.0357419,
2,0,0,1,0,40596,0.0340674,0.0337395,-15.7342,21,0.00640498,10,-0.000530864,-1.80316,1.07208,0.0550331,-33.8126,0.03373947,
2,0,0,1,0,40596,0.0320607,0.0317041,-15.675,21,0.00624794,10,-0.00049696,-1.80479,0.985833,0.0598478,-36.5805,0.0317041,
2,0,0,1,0,40596,0.0300631,0.029778,-15.5893,21,0.00609162,10,-0.000464217,-1.80717,0.877474,0.0672384,-40.9197,0.029778,
2,0,0,1,0,40596,0.0280655,0.0277426,-15.5129,21,0.00593613,10,-0.000430367,-1.80931,0.886061,0.0665868,-40.2972,0.0277426,
2,0,0,1,0,40596,0.0260679,0.0256933,-15.4247,21,0.0057814,10,-0.000396311,-1.81178,0.866048,0.0681256,-41.0267,0.0256933,
2,0,0,1,0,40596,0.0240613,0.0237559,-15.3493,21,0.00562753,10,-0.000364637,-1.81391,0.792555,0.0744428,-44.5591,0.02375593,
2,0,0,1,0,40596,0.0220637,0.0217813,-15.2504,21,0.00547454,10,-0.000332172,-1.81672,0.737933,0.0799531,-47.5952,0.0217813,
2,0,0,1,0,40596,0.0200661,0.0197311,-15.1577,21,0.00532251,10,-0.000299079,-1.81937,0.691604,0.085309,-50.4319,0.0197311,
2,0,0,1,0,40596,0.0180685,0.0177191,-15.0455,21,0.00517147,10,-0.000266593,-1.82259,0.666268,0.088553,-52.0265,0.0177191,
2,0,0,1,0,40596,0.01608,0.0157605,-14.9512,21,0.00502303,10,-0.000235638,-1.82533,0.666746,0.0884895,-51.5999,0.0157605,
2,0,0,1,0,40596.1,0.0140824,0.0136967,-14.8379,21,0.00487408,10,-0.000203231,-1.82863,0.60064,0.0982286,-56.879,0.0136967,
2,0,0,1,0,40596.1,0.0120848,0.0117617,-14.7237,21,0.00472628,10,-0.000173176,-1.83198,0.55004,0.107265,-61.607,0.01176172,
2,0,0,1,0,40596.1,0.0100872,0.00976948,-14.596,21,0.00457973,10,-0.000142595,-1.83577,0.54836,0.107593,-61.312,0.00976948,
2,0,0,1,0,40596.1,0.00810328,0.00778418,-14.4798,21,0.00443586,10,-0.000112714,-1.83924,0.541777,0.108901,-61.5092,0.00778418,
2,0,0,1,0,40596.1,0.00610116,0.00576613,-14.3498,21,0.00429169,10,-8.27426e-05,-1.84316,0.51015,0.115652,-64.7663,0.00576613,
2,0,0,1,0,40596.1,0.00410357,0.0037663,-14.2196,21,0.00414889,10,-5.35554e-05,-1.84711,0.616044,0.0957724,-53.2296,0.0037663,
2,0,0,1,0,40596.1,0.00210598,0.00170054,-14.1334,21,0.00400729,10,-2.40343e-05,-1.84975,0.57346,0.102884,-56.6366,0.00170054,
2,0,0,1,0,40596.1,0.00010174,-0.00025765,-13.9917,21,0.00386669,10,3.60497e-06,-1.85413,0.462683,0.127517,-69.6426,-0.00025765,
2,0,0,1,0,40596.1,-0.00189827,-0.00228698,-13.8557,21,0.00372739,10,3.16876e-05,-1.85837,0.504861,0.116864,-63.2318,-0.00228698,
2,0,0,1,0,40596.1,-0.00389586,-0.00428161,-13.7373,21,0.00358942,10,5.88176e-05,-1.8621,0.518814,0.113721,-60.9519,-0.00428161,
2,0,0,1,0,40596.2,-0.00589345,-0.00628144,-13.6122,21,0.00345269,10,8.55041e-05,-1.86607,0.509725,0.115749,-61.506,-0.00628144,
2,0,0,1,0,40596.2,-0.00789103,-0.00822574,-13.4947,21,0.00331716,10,0.000111004,-1.86984,0.561015,0.105167,-55.4091,-0.00822574,
2,0,0,1,0,40596.2,-0.0098977,-0.0103123,-13.3888,21,0.00318269,10,0.00013807,-1.87326,0.623815,0.0945793,-49.4418,-0.0103123,
2,0,0,1,0,40596.2,-0.0118953,-0.0122584,-13.2953,21,0.00304926,10,0.000162979,-1.8763,0.587699,0.100392,-52.0555,-0.0122584,
2,0,0,1,0,40596.2,-0.0138929,-0.01424,-13.1844,21,0.00291684,10,0.000187745,-1.87994,0.622545,0.0947723,-48.8128,-0.01424,
2,0,0,1,0,40596.2,-0.0158905,-0.0162598,-13.1,21,0.00278543,10,0.000213003,-1.88273,0.759755,0.0776566,-39.7175,-0.0162598,
2,0,0,1,0,40596.2,-0.017879,-0.0182253,-13.0261,21,0.00265609,10,0.000237404,-1.88519,0.796979,0.0740296,-37.6315,-0.0182253,
2,0,0,1,0,40596.2,-0.0198766,-0.0202294,-12.9506,21,0.00252623,10,0.000261983,-1.88771,0.805936,0.0732068,-37.0014,-0.0202294,
2,0,0,1,0,40596.2,-0.0218741,-0.0222765,-12.8762,21,0.00239712,10,0.000286837,-1.89021,0.929791,0.0634551,-31.913,-0.0222765,
2,0,0,1,0,40596.2,-0.0238717,-0.0242354,-12.8228,21,0.00226865,10,0.000310765,-1.89202,1.12709,0.0523472,-26.1991,-0.0242354,
2,0,0,1,0,40596.3,-0.0258602,-0.0262424,-12.7723,21,0.00214195,10,0.000335176,-1.89373,1.17646,0.0501503,-24.9983,-0.0262424,
2,0,0,1,0,40596.3,-0.0278578,-0.028257,-12.7222,21,0.0020145,10,0.000359492,-1.89544,1.28334,0.0459738,-22.8346,-0.028257,
2,0,0,1,0,40596.3,-0.0298554,-0.0302204,-12.6815,21,0.00188749,10,0.000383239,-1.89683,1.67589,0.0352052,-17.4316,-0.0302204,
2,0,0,1,0,40596.3,-0.031853,-0.0322732,-12.6522,21,0.00176084,10,0.000408327,-1.89783,2.08064,0.0283566,-14.0032,-0.0322732,
2,0,0,1,0,40596.3,-0.0338597,-0.0342175,-12.6255,21,0.00163445,10,0.000432012,-1.89875,2.6462,0.0222961,-10.9903,-0.0342175,
2,0,0,1,0,40596.3,-0.0358573,-0.0362373,-12.6087,21,0.00150829,10,0.000456903,-1.89933,3.87554,0.0152237,-7.49229,-0.0362373,
2,0,0,1,0,40596.3,-0.0378549,-0.0382189,-12.5955,21,0.00138225,10,0.000481386,-1.89978,4.69778,0.0125591,-6.17401,-0.0382189,
2,0,0,1,0,40596.3,-0.0398524,-0.0402222,-12.5841,21,0.00125635,10,0.000506158,-1.90018,18.7795,0.00314173,-1.54398,-0.0402222,
2,0,0,1,0,40596.3,-0.0418591,-0.0422168,-12.5893,21,0.00113052,10,0.000531481,-1.9,-15.7071,-0.00375626,1.8453,-0.0422168,
2,0,0,1,0,40596.3,-0.0438567,-0.0442331,-12.5915,21,0.00100463,10,0.000556959,-1.89992,66.0382,0.000893423,-0.438928,-0.0442331,
2,0,0,1,0,40596.4,-0.0458543,-0.0462347,-12.5876,21,0.000878677,10,0.000581982,-1.90006,-6.06183,-0.00973304,4.78652,-0.0462347,
2,0,0,1,0,40596.4,-0.0478519,-0.0482527,-12.6107,21,0.000752688,10,0.0006085,-1.89926,-2.67395,-0.0220647,10.8581,-0.0482527,
2,0,0,1,0,40596.4,-0.0498585,-0.0502404,-12.6311,21,0.000626493,10,0.00063459,-1.89856,-2.49682,-0.0236301,11.6508,-0.0502404,
2,0,0,1,0,40596.4,-0.051838,-0.0521951,-12.6566,21,0.00050131,10,0.000660614,-1.89768,-2.73438,-0.0215771,10.6543,-0.0521951,
2,0,0,1,0,40596.4,-0.0538356,-0.0542271,-12.6735,21,0.000374664,10,0.000687249,-1.8971,-2.35049,-0.0251011,12.4229,-0.0542271,
2,0,0,1,0,40596.4,-0.0558331,-0.0561844,-12.7062,21,0.000247756,10,0.000713889,-1.89598,-1.78146,-0.0331189,16.4229,-0.0561844,
2,0,0,1,0,40596.4,-0.0578126,-0.0581894,-12.7386,21,0.000121792,10,0.000741252,-1.89488,-1.49408,-0.0394891,19.6427,-0.0581894,
2,0,0,1,0,40596.4,-0.0598192,-0.0601988,-12.785,21,-5.82811e-06,10,0.000769644,-1.8933,-1.33329,-0.0442515,22.0749,-0.0601988,
2,0,0,1,0,40596.4,-0.0618168,-0.0621466,-12.826,21,-0.000133848,10,0.000797089,-1.89191,-1.31231,-0.0449589,22.5117,-0.0621466,
2,0,0,1,0,40596.4,-0.0638144,-0.0642063,-12.8753,21,-0.000262323,10,0.000826672,-1.89024,-1.40682,-0.0419386,21.0625,-0.0642063,
2,0,0,1,0,40596.5,-0.065812,-0.0662026,-12.9114,21,-0.000391258,10,0.000854768,-1.88903,-1.09099,-0.0540795,27.2885,-0.0662026,
2,0,0,1,0,40596.5,-0.0678187,-0.0681903,-12.984,21,-0.00052075,10,0.000885381,-1.88659,-1.02663,-0.0574699,29.0914,-0.0681903,
2,0,0,1,0,40596.5,-0.0698163,-0.0702821,-13.0301,21,-0.000650817,10,0.000915781,-1.88505,-1.16119,-0.0508098,25.8484,-0.0702821,
2,0,0,1,0,40596.5,-0.0718138,-0.0721709,-13.0869,21,-0.000781422,10,0.00094449,-1.88316,-0.987505,-0.0597466,30.5213,-0.0721709,
2,0,0,1,0,40596.5,-0.0738114,-0.0741889,-13.1493,21,-0.000912653,10,0.000975533,-1.8811,-0.844111,-0.0698961,35.896,-0.07418894,
2,0,0,1,0,40596.5,-0.0758181,-0.0762096,-13.2318,21,-0.00104462,10,0.00100839,-1.87838,-0.845449,-0.0697854,36.0089,-0.07620959,
2,0,0,1,0,40596.5,-0.0778157,-0.0782077,-13.294,21,-0.0011773,10,0.00103969,-1.87634,-0.831628,-0.0709451,36.8402,-0.0782077,
2,0,0,1,0,40596.5,-0.0798133,-0.080224,-13.3797,21,-0.00131066,10,0.00107338,-1.87355,-0.783753,-0.0752788,39.2837,-0.080224,
2,0,0,1,0,40596.5,-0.0818108,-0.0821527,-13.449,21,-0.00144483,10,0.00110487,-1.87131,-0.716284,-0.0823695,43.2847,-0.08215268,
2,0,0,1,0,40596.5,-0.0837994,-0.0841688,-13.5505,21,-0.00157851,10,0.00114053,-1.86805,-0.705547,-0.0836231,44.1822,-0.0841688,
2,0,0,1,0,40596.6,-0.0857969,-0.0861944,-13.6276,21,-0.00171437,10,0.00117462,-1.86558,-0.72402,-0.0814895,43.3681,-0.0861944,
2,0,0,1,0,40596.6,-0.0877945,-0.0881469,-13.723,21,-0.00185111,10,0.00120964,-1.86255,-0.666243,-0.0885563,47.4243,-0.0881469,
2,0,0,1,0,40596.6,-0.0897921,-0.0901869,-13.8169,21,-0.00198884,10,0.0012461,-1.85959,-0.647225,-0.0911584,49.1744,-0.0901869,
2,0,0,1,0,40596.6,-0.0917806,-0.0921926,-13.9219,21,-0.00212609,10,0.0012835,-1.8563,-0.617008,-0.0956227,51.9505,-0.09219262,
2,0,0,1,0,40596.6,-0.0937782,-0.0941977,-14.0253,21,-0.00226582,10,0.00132115,-1.85309,-0.628067,-0.093939,51.4126,-0.0941977,
2,0,0,1,0,40596.6,-0.0957758,-0.0961567,-14.1257,21,-0.00240655,10,0.00135829,-1.84999,-0.62584,-0.0942733,51.9766,-0.0961567,
2,0,0,1,0,40596.6,-0.0977734,-0.0981288,-14.2296,21,-0.00254836,10,0.00139633,-1.84681,-0.567132,-0.104032,57.8102,-0.0981288,
2,0,0,1,0,40596.6,-0.0997412,-0.100078,-14.3524,21,-0.00268838,10,0.00143636,-1.84307,0.120805,0.488389,-266.23,-0.100078,
2,0,0,1,1,40596.6,-0.0996711,-0.100084,-13.7092,21,-0.00273062,10,0.00137206,-1.86299,-0.0174146,-3.38796,1666.51,-0.1000835,
2,0,0,1,1,40596.6,-0.0976826,-0.0980683,-11.0036,21,-0.00285149,10,0.0010791,-1.95847,-0.0221539,-2.66319,1166.5,-0.0980683,
2,0,0,1,1,40596.6,-0.095685,-0.096096,-9.05773,21,-0.00295121,10,0.000870411,-2.04298,-0.0235209,-2.5084,891.018,-0.096096,
2,0,0,1,1,40596.7,-0.0936874,-0.0940608,-7.4328,21,-0.00303326,10,0.000699135,-2.12885,-0.022742,-2.59431,753.573,-0.0940608,
2,0,0,1,1,40596.7,-0.0916898,-0.0920813,-6.03237,21,-0.00310029,10,0.000555468,-2.21951,-0.0207336,-2.84562,668.585,-0.0920813,
2,0,0,1,1,40596.7,-0.0897013,-0.0901216,-4.79915,21,-0.0031536,10,0.000432507,-2.31884,-0.0187088,-3.15359,586.194,-0.0901216,
2,0,0,1,1,40596.7,-0.0877037,-0.0880776,-3.68541,21,-0.00319578,10,0.000324602,-2.43351,-0.0157388,-3.74869,530.794,-0.0880776,
2,0,0,1,1,40596.7,-0.0857062,-0.0861012,-2.6651,21,-0.0032273,10,0.000229469,-2.57429,-0.0124053,-4.75604,482.717,-0.0861012,
2,0,0,1,1,40596.7,-0.0837086,-0.0840744,-1.75303,21,-0.00324918,10,0.000147385,-2.75621,-0.00849547,-6.94488,439.603,-0.0840744,
2,0,0,1,1,40596.7,-0.0817019,-0.0820737,-0.894636,21,-0.00326223,10,7.34261e-05,-3.04835,-0.00342916,-17.2054,409.77,-0.0820737,
2,0,0,1,1,40596.7,-0.0797043,-0.0800913,-0.120846,21,-0.00326717,10,9.67868e-06,-3.91777,-0.0230191,-2.56309,373.507,-0.08009126,
2,1,0,1,1,40596.7,-0.0777067,-0.0780732,0.599591,21,-0.00326462,10,-4.6812e-05,-3.22215,0.00390887,15.0939,346.358,-0.0780732,
2,1,0,1,1,40596.7,-0.0757091,-0.0761176,1.25546,21,-0.00325523,10,-9.55623e-05,-2.9012,0.00793445,7.43593,325.89,-0.07611762,
2,1,0,1,1,40596.8,-0.0737025,-0.0741221,1.88721,21,-0.0032394,10,-0.000139884,-2.72418,0.0138376,4.26375,297.586,-0.0741221,
2,1,0,1,1,40596.8,-0.0717049,-0.0720893,2.45422,21,-0.00321758,10,-0.000176923,-2.61009,0.0202282,2.91673,272.667,-0.0720893,
2,1,0,1,1,40596.8,-0.0697073,-0.0700869,2.98749,21,-0.00319029,10,-0.000209384,-2.52469,0.0262401,2.24846,257.969,-0.0700869,
2,1,0,1,1,40596.8,-0.0677097,-0.0680914,3.48556,21,-0.00315783,10,-0.000237336,-2.45773,0.0322644,1.82864,246.423,-0.0680914,
2,1,0,1,1,40596.8,-0.0657212,-0.0661225,3.9644,21,-0.00312089,10,-0.000262136,-2.40182,0.0397876,1.48287,226.937,-0.0661225,
2,1,0,1,1,40596.8,-0.0637236,-0.0640969,4.39206,21,-0.00307905,10,-0.000281518,-2.35733,0.0477809,1.2348,210.691,-0.0640969,
2,1,0,1,1,40596.8,-0.061726,-0.0621245,4.80674,21,-0.00303299,10,-0.000298617,-2.31815,0.0545546,1.08149,201.694,-0.0621245,
2,1,0,1,1,40596.8,-0.0597284,-0.0601537,5.18737,21,-0.00298296,10,-0.00031204,-2.28505,0.0639072,0.923214,186.177,-0.0601537,
2,1,0,1,1,40596.8,-0.0577399,-0.0581573,5.54534,21,-0.00292979,10,-0.000322502,-2.25607,0.0740239,0.79704,171.842,-0.0581573,
2,1,0,1,1,40596.8,-0.0557423,-0.0561479,5.87573,21,-0.00287261,10,-0.00032991,-2.23094,0.0841519,0.701113,160.444,-0.05614794,
2,1,0,1,1,40596.9,-0.0537448,-0.0541143,6.19403,21,-0.00281221,10,-0.000335185,-2.20803,0.095055,0.620693,149.486,-0.0541143,
2,1,0,1,1,40596.9,-0.0517472,-0.0521318,6.47609,21,-0.00274877,10,-0.00033761,-2.18869,0.104463,0.564796,142.733,-0.0521318,
2,1,0,1,1,40596.9,-0.049745,-0.050112,6.76528,21,-0.00268253,10,-0.000339022,-2.16971,0.11643,0.506742,133.296,-0.050112,
2,1,0,1,1,40596.9,-0.0477429,-0.0481174,7.0112,21,-0.0026136,10,-0.00033736,-2.15421,0.133288,0.442651,121.029,-0.0481174,
2,1,0,1,1,40596.9,-0.0457453,-0.0460889,7.25219,21,-0.00254222,10,-0.000334246,-2.13953,0.148254,0.397965,112.369,-0.0460889,
2,1,0,1,1,40596.9,-0.0437477,-0.0440917,7.46356,21,-0.00246859,10,-0.000329081,-2.12705,0.159261,0.370461,107.895,-0.0440917,
2,1,0,1,1,40596.9,-0.0417501,-0.0421491,7.67728,21,-0.00239282,10,-0.000323591,-2.11479,0.170612,0.345813,103.479,-0.0421491,
2,1,0,1,1,40596.9,-0.0397435,-0.0401163,7.87493,21,-0.00231498,10,-0.000315913,-2.10375,0.194935,0.302665,92.8852,-0.0401163,
2,1,0,1,1,40596.9,-0.0377459,-0.0381052,8.0529,21,-0.00223535,10,-0.000306858,-2.09405,0.218829,0.269617,84.6292,-0.0381052,
2,1,0,1,1,40596.9,-0.0357483,-0.0361201,8.21312,21,-0.00215399,10,-0.000296659,-2.08549,0.235384,0.250655,80.3353,-0.0361201,
2,1,0,1,1,40597,-0.0337507,-0.0341099,8.37387,21,-0.00207105,10,-0.000285632,-2.07707,0.258331,0.228389,74.5319,-0.03410989,
2,1,0,1,1,40597,-0.0317622,-0.0321049,8.51238,21,-0.00198747,10,-0.000273289,-2.06995,0.28204,0.20919,69.4795,-0.0321049,
2,1,0,1,1,40597,-0.0297646,-0.0301572,8.6485,21,-0.00190167,10,-0.000260815,-2.06306,0.316636,0.186334,62.8021,-0.0301572,
2,1,0,1,1,40597,-0.027767,-0.0281459,8.76102,21,-0.00181461,10,-0.000246587,-2.05745,0.362251,0.162871,55.6772,-0.0281459,
2,1,0,1,1,40597,-0.0257694,-0.0261592,8.87109,21,-0.00172643,10,-0.000232061,-2.05202,0.379583,0.155434,53.7885,-0.0261592,
2,1,0,1,1,40597,-0.0237809,-0.0241862,8.974,21,-0.00163807,10,-0.000217047,-2.04701,0.406721,0.145063,50.7929,-0.0241862,
2,1,0,1,1,40597,-0.0217833,-0.0221751,9.07346,21,-0.00154781,10,-0.000201205,-2.04223,0.479881,0.122947,43.4741,-0.0221751,
2,1,0,1,1,40597,-0.0197858,-0.0201978,9.1474,21,-0.00145666,10,-0.000184758,-2.0387,0.532728,0.110751,39.5588,-0.0201978,
2,1,0,1,1,40597,-0.0177882,-0.0181746,9.23171,21,-0.00136473,10,-0.000167782,-2.03472,0.522739,0.112867,40.6571,-0.0181746,
2,1,0,1,1,40597,-0.0157815,-0.0161184,9.31326,21,-0.00127201,10,-0.000150114,-2.0309,0.646619,0.0912439,33.1091,-0.0161184,
2,1,0,1,1,40597.1,-0.0137839,-0.014174,9.36417,21,-0.00117861,10,-0.000132728,-2.02853,0.785021,0.0751572,27.475,-0.014174,
2,1,0,1,1,40597.1,-0.0117863,-0.012195,9.42105,21,-0.00108465,10,-0.00011489,-2.0259,0.716461,0.0823492,30.2903,-0.012195,
2,1,0,1,1,40597.1,-0.00978874,-0.0101501,9.48605,21,-0.000990116,10,-9.62843e-05,-2.02291,0.804214,0.0733636,27.1321,-0.0101501,
2,1,0,1,1,40597.1,-0.00778207,-0.00811295,9.5318,21,-0.000895026,10,-7.73311e-05,-2.02082,0.988632,0.0596784,22.1964,-0.008112953,
2,1,0,1,1,40597.1,-0.00578449,-0.00616778,9.57445,21,-0.000799506,10,-5.90531e-05,-2.01889,1.12479,0.0524544,19.592,-0.00616778,
2,1,0,1,1,40597.1,-0.0037869,-0.00416188,9.60921,21,-0.00070358,10,-3.99924e-05,-2.01731,1.20218,0.0490776,18.4091,-0.00416188,
2,1,0,1,1,40597.1,-0.00178931,-0.00214903,9.64843,21,-0.000607288,10,-2.07348e-05,-2.01554,2.20466,0.0267615,10.0561,-0.00214903,
2,1,0,1,1,40597.1,-2.55332e-05,-0.000325324,9.64779,21,-0.000523263,10,-3.13865e-06,-2.01557, , , ,-0.000325324,