File: Figure_codes/Fig_3-5/rawdata_trumpetplot_data/after 10th/20221101_1-115_003_TrumpetPlot_ParaChange_from10_every3_08_CV_C01_27.csv
mode,ox/red,error,control changes,counter inc.,time/s,control/V,Ewe/V,<I>/mA,cycle number,(Q-Qo)/C,I Range,P/W,log(|I|),Tafel slope mV/dec,alpha_eff,dI/d(E-IR),E-IR/V,
2,0,0,0,0,54368.5,2.44065e-05,-0.000382585,-3.97219,28,0.0000000E+000,10,1.5197e-06,-2.40097, , , ,-0.000382585,
2,0,0,1,0,54368.6,0.0012943,0.000908535,-2.40293,28,-4.79334e-05,10,-2.18315e-06,-2.61926, , , ,0.000908535,
2,0,0,1,0,54368.6,0.00279784,0.00245597,-1.2515,28,-8.13586e-05,10,-3.07366e-06,-2.90257,-0.00379039,-15.5657,645.699,0.00245597,
2,0,0,1,0,54368.6,0.00429425,0.00395517,-0.462311,28,-9.67002e-05,10,-1.82852e-06,-3.33507,-0.00568136,-10.3848,475.549,0.00395517,
2,1,0,1,0,54368.6,0.00579065,0.00544109,0.145791,28,-9.91131e-05,10,7.9326e-07,-3.83627,0.0936981,0.629682,364.594,0.00544109,
2,1,0,1,0,54368.6,0.0072942,0.00694899,0.63424,28,-9.13739e-05,10,4.40733e-06,-3.19775,0.0025639,23.0118,294.996,0.00694899,
2,1,0,1,0,54368.6,0.00878347,0.00844155,1.02755,28,-7.5579e-05,10,8.67413e-06,-2.9882,0.00857124,6.88348,235.436,0.00844155,
2,1,0,1,0,54368.7,0.010287,0.00993309,1.34785,28,-5.30188e-05,10,1.33883e-05,-2.87036,0.0147118,4.01037,195.87,0.00993309,
2,1,0,1,0,54368.7,0.0117905,0.0114311,1.61229,28,-2.49309e-05,10,1.84303e-05,-2.79256,0.0213094,2.76873,167.603,0.0114311,
2,1,0,1,0,54368.7,0.013278,0.0129278,1.83539,28,7.38958e-06,10,2.37274e-05,-2.73627,0.0289316,2.0393,142.974,0.0129278,
2,1,0,1,0,54368.7,0.0147816,0.0143954,2.03076,28,4.40323e-05,10,2.92336e-05,-2.69234,0.0369565,1.59647,124.582,0.0143954,
2,1,0,1,0,54368.7,0.0162851,0.0158873,2.20495,28,8.41798e-05,10,3.50308e-05,-2.6566,0.0464702,1.26963,107.758,0.0158873,
2,1,0,1,0,54368.8,0.0177744,0.0174082,2.35128,28,0.000126826,10,4.09315e-05,-2.6287,0.0566043,1.04232,94.7743,0.0174082,
2,1,0,1,0,54368.8,0.0192779,0.0189293,2.47806,28,0.000172467,10,4.6908e-05,-2.60589,0.0676114,0.872634,84.0035,0.0189293,
2,1,0,1,0,54368.8,0.0207743,0.0204279,2.59909,28,0.00022022,10,5.30939e-05,-2.58518,0.0772659,0.763597,77.1135,0.0204279,
2,1,0,1,0,54368.8,0.0222707,0.0219417,2.70437,28,0.000270079,10,5.93386e-05,-2.56793,0.0853279,0.69145,72.8492,0.0219417,
2,1,0,1,0,54368.8,0.0237743,0.0234132,2.80127,28,0.000322198,10,6.55866e-05,-2.55265,0.102964,0.573016,62.6203,0.0234132,
2,1,0,1,0,54368.9,0.0252636,0.0248873,2.89651,28,0.000375528,10,7.20863e-05,-2.53813,0.117076,0.503944,56.8894,0.0248873,
2,1,0,1,0,54368.9,0.0267671,0.0264426,2.98298,28,0.000431059,10,7.88778e-05,-2.52535,0.123995,0.475827,55.3423,0.0264426,
2,1,0,1,0,54368.9,0.0282706,0.0279505,3.06896,28,0.00048818,10,8.57789e-05,-2.51301,0.136569,0.432015,51.6009,0.0279505,
2,1,0,1,0,54368.9,0.0297581,0.029425,3.15063,28,0.000546228,10,9.27073e-05,-2.5016,0.143828,0.410211,50.2528,0.029425,
2,1,0,1,0,54368.9,0.0312617,0.0309077,3.21871,28,0.000606301,10,9.94828e-05,-2.49232,0.155545,0.379312,47.6222,0.0309077,
2,1,0,1,0,54368.9,0.0327652,0.0324193,3.29456,28,0.000667713,10,0.000106807,-2.4822,0.156194,0.377736,48.4708,0.0324193,
2,1,0,1,0,54369,0.0342545,0.0339061,3.36572,28,0.000729845,10,0.000114118,-2.47292,0.16396,0.359845,47.1754,0.0339061,
2,1,0,1,0,54369,0.035758,0.0354092,3.43435,28,0.000793969,10,0.000121608,-2.46415,0.180484,0.326899,43.7044,0.0354092,
2,1,0,1,0,54369,0.0372544,0.0369209,3.50525,28,0.000859034,10,0.000129417,-2.45528,0.175356,0.336458,45.8938,0.0369209,
2,1,0,1,0,54369,0.0387508,0.0383855,3.56328,28,0.000925209,10,0.000136778,-2.44815,0.181973,0.324224,45.1206,0.0383855,
2,1,0,1,0,54369,0.0402544,0.0398862,3.63164,28,0.00099306,10,0.000144852,-2.4399,0.179859,0.328035,46.4678,0.0398862,
2,1,0,1,0,54369.1,0.0417436,0.0413706,3.69343,28,0.00106144,10,0.0001528,-2.43257,0.192406,0.306644,44.1874,0.0413706,
2,1,0,1,0,54369.1,0.0432472,0.0429201,3.76043,28,0.00113177,10,0.000161398,-2.42476,0.194286,0.303675,44.5074,0.0429201,
2,1,0,1,0,54369.1,0.0447507,0.044444,3.81267,28,0.0012032,10,0.00016945,-2.41877,0.204197,0.288937,43.1001,0.04444398,
2,1,0,1,0,54369.1,0.0462382,0.0459113,3.87845,28,0.00127506,10,0.000178065,-2.41134,0.205367,0.28729,43.4845,0.0459113,
2,1,0,1,0,54369.1,0.0477418,0.047349,3.94133,28,0.00134889,10,0.000186618,-2.40436,0.222918,0.264671,40.7263,0.047349,
2,1,0,1,0,54369.2,0.0492453,0.0489159,4.00099,28,0.00142388,10,0.000195712,-2.39783,0.239581,0.246264,38.4957,0.0489159,
2,1,0,1,0,54369.2,0.0507346,0.0503743,4.05691,28,0.00149915,10,0.000204364,-2.3918,0.247356,0.238523,37.8534,0.05037434,
2,1,0,1,0,54369.2,0.0522381,0.0518931,4.12177,28,0.00157632,10,0.000213891,-2.38492,0.249174,0.236782,38.0917,0.0518931,
2,1,0,1,0,54369.2,0.0537345,0.0534213,4.18978,28,0.00165425,10,0.000223823,-2.37781,0.254031,0.232255,37.9448,0.05342127,
2,1,0,1,0,54369.2,0.0552309,0.0548585,4.24459,28,0.0017333,10,0.000232852,-2.37216,0.264509,0.223055,36.9094,0.0548585,
2,1,0,1,0,54369.2,0.0567345,0.0564264,4.30207,28,0.00181387,10,0.00024275,-2.36632,0.28018,0.210579,35.3292,0.0564264,
2,1,0,1,0,54369.3,0.0582237,0.0579247,4.35685,28,0.00189458,10,0.00025237,-2.36083,0.272117,0.216819,36.866,0.0579247,
2,1,0,1,0,54369.3,0.0597273,0.0593819,4.4158,28,0.0019772,10,0.000262218,-2.35499,0.268995,0.219335,37.7594,0.0593819,
2,1,0,1,0,54369.3,0.0612308,0.0608458,4.47424,28,0.00206095,10,0.000272238,-2.34928,0.269622,0.218825,38.1362,0.0608458,
2,1,0,1,0,54369.3,0.0627183,0.0624024,4.52719,28,0.00214482,10,0.000282507,-2.34417,0.281718,0.20943,36.9738,0.0624024,
2,1,0,1,0,54369.3,0.0642218,0.0638701,4.57381,28,0.00223053,10,0.00029213,-2.33972,0.282257,0.209029,37.3455,0.0638701,
2,1,0,1,0,54369.4,0.0657254,0.0653722,4.62477,28,0.00231728,10,0.000302331,-2.33491,0.26978,0.218696,39.4999,0.0653722,
2,1,0,1,0,54369.4,0.0672147,0.066845,4.68497,28,0.00240416,10,0.000313167,-2.32929,0.300321,0.196457,35.8649,0.066845,
2,1,0,1,0,54369.4,0.0687182,0.0683897,4.73247,28,0.00249293,10,0.000323652,-2.32491,0.314452,0.187628,34.6834,0.0683897,
2,1,0,1,0,54369.4,0.0702146,0.0698686,4.7789,28,0.00258214,10,0.000333895,-2.32067,0.332877,0.177242,33.0923,0.0698686,
2,1,0,1,0,54369.4,0.071711,0.0713506,4.83081,28,0.00267231,10,0.000344681,-2.31598,0.343874,0.171575,32.3474,0.0713506,
2,1,0,1,0,54369.5,0.0732145,0.0729008,4.87563,28,0.00276388,10,0.000355437,-2.31197,0.37571,0.157036,29.9183,0.07290078,
2,1,0,1,0,54369.5,0.0747038,0.0743541,4.92745,28,0.00285538,10,0.000366377,-2.30738,0.404592,0.145826,28.0511,0.0743541,
2,1,0,1,0,54369.5,0.0762074,0.0758365,4.96892,28,0.00294868,10,0.000376825,-2.30374,0.443954,0.132897,25.7926,0.07583648,
2,1,0,1,0,54369.5,0.0777109,0.077387,5.01598,28,0.0030428,10,0.000388171,-2.29964,0.420425,0.140334,27.4774,0.077387,
2,1,0,1,0,54369.5,0.0791984,0.0788659,5.06838,28,0.00313676,10,0.000399723,-2.29513,0.390347,0.151148,29.8647,0.0788659,
2,1,0,1,0,54369.5,0.0807019,0.0803442,5.10801,28,0.00323259,10,0.000410399,-2.29175,0.459992,0.128263,25.5215,0.0803442,
2,1,0,1,0,54369.6,0.0822055,0.081866,5.14547,28,0.0033292,10,0.000421239,-2.28858,0.460813,0.128035,25.7059,0.081866,
2,1,0,1,0,54369.6,0.0836947,0.0833709,5.18773,28,0.00342542,10,0.000432505,-2.28502,0.448032,0.131687,26.6501,0.0833709,
2,1,0,1,0,54369.6,0.0851983,0.0848341,5.22471,28,0.00352347,10,0.000443234,-2.28194,0.43919,0.134338,27.3803,0.0848341,
2,1,0,1,0,54369.6,0.0866947,0.0863634,5.26076,28,0.00362174,10,0.000454337,-2.27895,0.455255,0.129598,26.6122,0.0863634,
2,1,0,1,0,54369.6,0.0881911,0.0878312,5.3016,28,0.00372071,10,0.000465645,-2.27559,0.462584,0.127544,26.3837,0.0878312,
2,1,0,1,0,54369.7,0.0896946,0.089338,5.33322,28,0.00382088,10,0.000476459,-2.27301,0.455592,0.129502,26.9809,0.089338,
2,1,0,1,0,54369.7,0.0911839,0.0908067,5.37154,28,0.00392073,10,0.000487772,-2.2699,0.420853,0.140191,29.414,0.0908067,
2,1,0,1,0,54369.7,0.0926857,0.0923439,5.41804,28,0.00402244,10,0.000500323,-2.26616,0.439296,0.134306,28.406,0.0923439,
2,1,0,1,0,54369.7,0.0941892,0.0938283,5.45908,28,0.00412495,10,0.000512216,-2.26288,0.44252,0.133327,28.4021,0.0938283,
2,1,0,1,0,54369.7,0.0956785,0.0953413,5.49716,28,0.0042271,10,0.000524107,-2.25986,0.451931,0.130551,28.0401,0.0953413,
2,1,0,1,0,54369.8,0.097182,0.0969334,5.54596,28,0.00433115,10,0.000537589,-2.25602,0.392056,0.150489,32.5987,0.0969334,
2,1,0,1,0,54369.8,0.0986856,0.0983503,5.5978,28,0.00443617,10,0.000550545,-2.25198,0.372769,0.158275,34.595,0.0983503,
2,1,0,1,0,54369.8,0.100175,0.0998098,5.65533,28,0.00454109,10,0.000564457,-2.24754,0.381723,0.154562,34.1104,0.0998098,
2,1,0,1,0,54369.8,0.101678,0.101283,5.71163,28,0.00464817,10,0.000578488,-2.24324,0.344889,0.17107,38.1968,0.1012826,
2,1,0,1,0,54369.8,0.103175,0.102836,5.78164,28,0.00475578,10,0.000594559,-2.23795,0.305559,0.193089,43.5943,0.1028357,
2,1,0,1,0,54369.8,0.104671,0.104312,5.85995,28,0.00486472,10,0.000611265,-2.23211,0.279948,0.210753,48.1168,0.104312,
2,1,0,1,0,54369.9,0.106175,0.105801,5.92988,28,0.00497567,10,0.000627386,-2.22695,0.27072,0.217937,50.3476,0.105801,
2,1,0,1,0,54369.9,0.107662,0.107339,6.00018,28,0.00508683,10,0.000644056,-2.22184,0.257251,0.229348,53.7444,0.107339,
2,1,0,1,0,54369.9,0.109166,0.108785,6.08289,28,0.00520054,10,0.000661724,-2.21589,0.252601,0.23357,55.493,0.1087846,
2,1,0,1,0,54369.9,0.110669,0.110289,6.16781,28,0.0053159,10,0.000680241,-2.20987,0.242229,0.243572,58.6206,0.110289,
2,1,0,1,0,54369.9,0.112159,0.111793,6.2555,28,0.00543164,10,0.000699321,-2.20374,0.245387,0.240437,58.6638,0.1117929,
2,1,0,1,0,54370,0.113662,0.113315,6.33204,28,0.00555023,10,0.000717517,-2.19846,0.244251,0.241555,59.7577,0.113315,
2,1,0,1,0,54370,0.115166,0.114781,6.41984,28,0.00567041,10,0.000736878,-2.19248,0.242377,0.243422,61.0917,0.114781,
2,1,0,1,0,54370,0.116655,0.11631,6.51974,28,0.00579102,10,0.000758314,-2.18577,0.236645,0.249319,63.4411,0.11631,
2,1,0,1,0,54370,0.118158,0.11782,6.60471,28,0.00591469,10,0.000778167,-2.18015,0.25864,0.228116,58.7885,0.11782,
2,1,0,1,0,54370,0.119655,0.11931,6.69653,28,0.00603942,10,0.000798964,-2.17415,0.280998,0.209966,54.8377,0.11931,
2,1,0,1,0,54370.1,0.121151,0.120764,6.77499,28,0.00616563,10,0.000818177,-2.16909,0.313207,0.188374,49.822,0.120764,
2,1,0,1,0,54370.1,0.122655,0.122389,6.85404,28,0.00629398,10,0.000838859,-2.16405,0.329603,0.179003,47.8635,0.122389,
2,1,0,1,0,54370.1,0.124142,0.123806,6.92701,28,0.00642239,10,0.000857605,-2.15945,0.338095,0.174507,47.147,0.123806,
2,1,0,1,0,54370.1,0.125646,0.125317,7.00188,28,0.00655354,10,0.000877452,-2.15479,0.389045,0.151653,41.3685,0.1253166,
2,1,0,1,0,54370.1,0.127149,0.126761,7.05741,28,0.00668595,10,0.000894605,-2.15135,0.41744,0.141338,38.9266,0.126761,
2,1,0,1,0,54370.1,0.128639,0.128315,7.12116,28,0.00681799,10,0.000913752,-2.14745,0.461145,0.127942,35.5233,0.128315,
2,1,0,1,0,54370.2,0.130142,0.129769,7.17901,28,0.00695255,10,0.000931613,-2.14394,0.483412,0.122049,34.1431,0.129769,
2,1,0,1,0,54370.2,0.131646,0.131307,7.22252,28,0.0070881,10,0.000948367,-2.14131,0.561494,0.105077,29.5832,0.131307,
2,1,0,1,0,54370.2,0.133135,0.132743,7.27072,28,0.00722307,10,0.000965134,-2.13842,0.563823,0.104643,29.6507,0.1327426,
2,1,0,1,0,54370.2,0.134639,0.134268,7.30494,28,0.0073602,10,0.000980822,-2.13638,0.636173,0.0927421,26.4301,0.134268,
2,1,0,1,0,54370.2,0.136135,0.135814,7.34434,28,0.00749733,10,0.000997464,-2.13405,0.648676,0.0909545,26.0287,0.135814,
2,1,0,1,0,54370.3,0.137631,0.13726,7.37306,28,0.00763511,10,0.00101203,-2.13235,0.810867,0.0727616,20.9046,0.13726,
2,1,0,1,0,54370.3,0.139135,0.138768,7.39371,28,0.00777415,10,0.00102601,-2.13114,1.05545,0.0559005,16.1165,0.138768,
2,1,0,1,0,54370.3,0.140622,0.140292,7.40296,28,0.00791204,10,0.00103858,-2.13059,1.6347,0.0360923,10.4296,0.1402923,
2,1,0,1,0,54370.3,0.142126,0.141801,7.42117,28,0.00805169,10,0.00105233,-2.12953,2.45615,0.0240213,6.95008,0.141801,
2,1,0,1,0,54370.3,0.143629,0.143242,7.42446,28,0.00819153,10,0.00106349,-2.12934,-5.1303,-0.0115003,-3.32655,0.143242,
2,1,0,1,0,54370.4,0.145119,0.14474,7.41351,28,0.00832982,10,0.00107303,-2.12998,-1.19035,-0.0495652,-14.3141,0.14474,
2,1,0,1,0,54370.4,0.146622,0.146248,7.37784,28,0.00846917,10,0.00107899,-2.13207,-0.62218,-0.0948278,-27.2842,0.146248,
2,1,0,1,0,54370.4,0.148126,0.147779,7.3416,28,0.00860788,10,0.00108493,-2.13421,-0.463195,-0.127376,-36.4057,0.147779,
2,1,0,1,0,54370.4,0.149615,0.149262,7.285,28,0.0087441,10,0.00108738,-2.13757,-0.335112,-0.17606,-49.9092,0.149262,
2,1,0,1,0,54370.4,0.151119,0.150769,7.20176,28,0.00888045,10,0.0010858,-2.14256,-0.25844,-0.228293,-63.9324,0.150769,
2,1,0,1,0,54370.4,0.152615,0.152283,7.0979,28,0.00901435,10,0.00108089,-2.14887,-0.204374,-0.288686,-79.7301,0.152283,
2,1,0,1,0,54370.5,0.154111,0.153763,6.97073,28,0.00914602,10,0.00107184,-2.15672,-0.179044,-0.329529,-89.4522,0.153763,
2,1,0,1,0,54370.5,0.155615,0.155261,6.83707,28,0.00927594,10,0.00106153,-2.16513,-0.157739,-0.374036,-99.3654,0.1552612,
2,1,0,1,0,54370.5,0.157103,0.156807,6.6724,28,0.00940173,10,0.00104628,-2.17572,-0.141084,-0.418189,-108.531,0.1568069,
2,1,0,1,0,54370.5,0.158606,0.158251,6.49491,28,0.00952568,10,0.00102782,-2.18743,-0.126815,-0.465245,-117.715,0.158251,
2,1,0,1,0,54370.5,0.16011,0.159761,6.30593,28,0.00964616,10,0.00100744,-2.20025,-0.118239,-0.498988,-122.69,0.159761,
2,1,0,1,0,54370.6,0.161599,0.161228,6.11234,28,0.00976189,10,0.000985482,-2.21379,-0.110775,-0.532609,-126.969,0.161228,
2,1,0,1,0,54370.6,0.163102,0.162784,5.92224,28,0.00987525,10,0.000964044,-2.22751,-0.108316,-0.5447,-125.839,0.162784,
2,1,0,1,0,54370.6,0.164606,0.164206,5.72157,28,0.00998498,10,0.000939514,-2.24248,-0.10659,-0.553524,-123.777,0.164206,
2,1,0,1,0,54370.6,0.166095,0.165763,5.54251,28,0.01009,10,0.000918741,-2.25629,-0.104615,-0.563973,-122.136,0.1657626,
2,1,0,1,0,54370.6,0.167599,0.16731,5.36192,28,0.0101927,10,0.000897101,-2.27068,-0.105854,-0.557373,-116.796,0.16731,
2,1,0,1,0,54370.7,0.169095,0.168763,5.20087,28,0.0102917,10,0.000877714,-2.28392,-0.111804,-0.52771,-107.185,0.168763,
2,1,0,1,0,54370.7,0.170592,0.170206,5.04056,28,0.0103877,10,0.000857935,-2.29752,-0.112202,-0.525837,-103.568,0.170206,
2,1,0,1,0,54370.7,0.172095,0.171759,4.88659,28,0.0104812,10,0.000839316,-2.31099,-0.115932,-0.508921,-97.3269,0.171759,
2,1,0,1,0,54370.7,0.173583,0.173246,4.75468,28,0.0105711,10,0.000823729,-2.32288,-0.12158,-0.485277,-90.1736,0.173246,
2,1,0,1,0,54370.7,0.175086,0.174706,4.63004,28,0.0106595,10,0.000808895,-2.33442,-0.129677,-0.454975,-82.2951,0.174706,
2,1,0,1,0,54370.7,0.17659,0.176207,4.51348,28,0.0107456,10,0.000795309,-2.34549,-0.138883,-0.424818,-74.8586,0.176207,
2,1,0,1,0,54370.8,0.178079,0.177696,4.40945,28,0.0108287,10,0.00078354,-2.35562,-0.143916,-0.40996,-70.5863,0.177696,
2,1,0,1,0,54370.8,0.179582,0.179254,4.30665,28,0.0109107,10,0.000771985,-2.36586,-0.156212,-0.377692,-63.5728,0.179254,
2,1,0,1,0,54370.8,0.181086,0.180727,4.21481,28,0.010991,10,0.00076173,-2.37522,-0.171111,-0.344805,-56.7794,0.180727,
2,1,0,1,0,54370.8,0.182575,0.182261,4.13912,28,0.0110688,10,0.000754398,-2.38309,-0.17319,-0.340666,-54.9658,0.182261,
2,1,0,1,0,54370.8,0.184079,0.183703,4.05193,28,0.011146,10,0.00074435,-2.39234,-0.18984,-0.310789,-49.1962,0.183703,
2,1,0,1,0,54370.9,0.185582,0.185277,3.97743,28,0.0112216,10,0.000736928,-2.4004,-0.207389,-0.284489,-44.2395,0.185277,
2,1,0,1,0,54370.9,0.18707,0.186734,3.90771,28,0.0112952,10,0.000729704,-2.40808,-0.234437,-0.251667,-38.5092,0.186734,
2,1,0,1,0,54370.9,0.188573,0.188221,3.8484,28,0.0113684,10,0.00072435,-2.41472,-0.241523,-0.244283,-36.7721,0.188221,
2,1,0,1,0,54370.9,0.19007,0.189745,3.79785,28,0.0114402,10,0.000720622,-2.42046,-0.243245,-0.242554,-35.9744,0.189745,
2,1,0,1,0,54370.9,0.191566,0.191227,3.74117,28,0.0115109,10,0.000715414,-2.42699,-0.234898,-0.251172,-36.7414,0.191227,
2,1,0,1,0,54371,0.19307,0.192702,3.69295,28,0.0115811,10,0.000711638,-2.43263,-0.282754,-0.208662,-30.1118,0.192702,
2,1,0,1,0,54371,0.194559,0.194209,3.65208,28,0.0116497,10,0.000709265,-2.43746,-0.277736,-0.212432,-30.3175,0.194209,
2,1,0,1,0,54371,0.196063,0.195722,3.61106,28,0.0117182,10,0.000706765,-2.44236,-0.270285,-0.218288,-30.7843,0.195722,
2,1,0,1,0,54371,0.197566,0.197181,3.57169,28,0.011786,10,0.000704269,-2.44713,-0.308797,-0.191064,-26.6731,0.197181,
2,1,0,1,0,54371,0.199055,0.198738,3.53971,28,0.0118523,10,0.000703474,-2.45103,-0.318151,-0.185447,-25.6399,0.198738,
2,1,0,1,0,54371,0.200559,0.200223,3.50889,28,0.0119186,10,0.000702559,-2.45483,-0.398351,-0.148111,-20.28,0.200223,
2,1,0,1,0,54371.1,0.202062,0.201732,3.48099,28,0.0119845,10,0.000702227,-2.4583,-0.396882,-0.148659,-20.1357,0.201732,
2,1,0,1,0,54371.1,0.20355,0.20322,3.44801,28,0.012049,10,0.000700704,-2.46243,-0.439769,-0.134161,-18.0508,0.2032198,
2,1,0,1,0,54371.1,0.205054,0.204734,3.41702,28,0.0121137,10,0.000699579,-2.46635,-0.586974,-0.100516,-13.4307,0.204734,
2,1,0,1,0,54371.1,0.20655,0.206206,3.39533,28,0.0121777,10,0.000700138,-2.46912,-0.591584,-0.0997322,-13.2262,0.206206,
2,1,0,1,0,54371.1,0.208046,0.207707,3.37962,28,0.0122412,10,0.000701971,-2.47113,-0.563482,-0.104706,-13.7807,0.207707,
2,1,0,1,0,54371.2,0.20955,0.209204,3.35104,28,0.0123047,10,0.000701051,-2.47482,-0.539124,-0.109437,-14.3213,0.209204,
2,1,0,1,0,54371.2,0.211039,0.210677,3.32699,28,0.0123671,10,0.000700919,-2.47795,-0.594221,-0.0992897,-12.8961,0.2106768,
2,1,0,1,0,54371.2,0.212543,0.212214,3.31068,28,0.0124297,10,0.000702572,-2.48008,-0.62403,-0.0945467,-12.2204,0.212214,
2,1,0,1,0,54371.2,0.214046,0.213709,3.29451,28,0.012492,10,0.000704067,-2.48221,-0.684104,-0.0862443,-11.091,0.213709,
2,1,0,1,0,54371.2,0.215535,0.215188,3.27542,28,0.0125533,10,0.000704832,-2.48473,-0.656875,-0.0898192,-11.4821,0.215188,
2,1,0,1,0,54371.3,0.217039,0.216737,3.2546,28,0.0126149,10,0.000705394,-2.4875,-0.697017,-0.0846464,-10.7761,0.216737,
2,1,0,1,0,54371.3,0.218543,0.218188,3.23914,28,0.0126762,10,0.000706741,-2.48957,-0.960573,-0.0614217,-7.77369,0.218188,
2,1,0,1,0,54371.3,0.22003,0.219718,3.23739,28,0.0127367,10,0.000711313,-2.4898,-0.807925,-0.0730266,-9.21181,0.219718,
2,1,0,1,0,54371.3,0.221534,0.221183,3.22102,28,0.0127976,10,0.000712434,-2.49201,-0.692432,-0.0852069,-10.69,0.221183,
2,1,0,1,0,54371.3,0.22303,0.222721,3.20442,28,0.0128579,10,0.000713693,-2.49425,-0.709197,-0.0831927,-10.4152,0.222721,
2,1,0,1,0,54371.3,0.224526,0.224212,3.19179,28,0.0129178,10,0.000715638,-2.49597,-0.825177,-0.0714998,-8.91426,0.224212,
2,1,0,1,0,54371.4,0.22603,0.225688,3.18061,28,0.012978,10,0.000717827,-2.49749,-0.896763,-0.0657922,-8.17039,0.225688,
2,1,0,1,0,54371.4,0.227519,0.227169,3.17036,28,0.0130373,10,0.000720208,-2.49889,-1.11536,-0.0528976,-6.53961,0.227169,
2,1,0,1,0,54371.4,0.229023,0.228714,3.1606,28,0.013097,10,0.000722873,-2.50023,-1.05135,-0.0561185,-6.92184,0.2287136,
2,1,0,1,0,54371.4,0.230526,0.230232,3.15001,28,0.0131565,10,0.000725232,-2.50169,-1.24629,-0.0473405,-5.82615,0.230232,
2,1,0,1,0,54371.4,0.232016,0.231682,3.13757,28,0.0132152,10,0.000726918,-2.50341,-1.6232,-0.036348,-4.45703,0.231682,
2,1,0,1,0,54371.5,0.233519,0.233195,3.13377,28,0.0132744,10,0.000730781,-2.50393,-2.01625,-0.0292622,-3.57677,0.233195,
2,1,0,1,0,54371.5,0.235023,0.23468,3.12097,28,0.0133334,10,0.00073243,-2.50571,-1.79664,-0.0328391,-4.00034,0.23468,
2,1,0,1,0,54371.5,0.23651,0.236178,3.11216,28,0.0133916,10,0.000735026,-2.50694,-1.75321,-0.0336525,-4.09321,0.236178,
2,1,0,1,0,54371.5,0.238014,0.237652,3.09968,28,0.0134503,10,0.000736644,-2.50868,-3.61686,-0.0163125,-1.97821,0.237652,
2,1,0,1,0,54371.5,0.23951,0.239187,3.09707,28,0.0135085,10,0.000740777,-2.50905,-1.54097,-0.0382874,-4.63215,0.239187,
2,1,0,1,0,54371.6,0.241006,0.240617,3.08653,28,0.0135667,10,0.000742671,-2.51053,-0.985293,-0.0598807,-7.22304,0.240617,
2,1,0,1,0,54371.6,0.24251,0.242149,3.08082,28,0.013625,10,0.000746017,-2.51133,-1.00701,-0.0585896,-7.05491,0.242149,
2,1,0,1,0,54371.6,0.243999,0.243635,3.0768,28,0.0136825,10,0.000749616,-2.5119,-1.07135,-0.0550706,-6.62222,0.243635,
2,1,0,1,0,54371.6,0.245503,0.245159,3.07906,28,0.0137405,10,0.000754861,-2.51158,-1.10077,-0.0535989,-6.42734,0.245159,
2,1,0,1,0,54371.6,0.247006,0.246612,3.06766,28,0.0137984,10,0.000756523,-2.51319,-1.17524,-0.0502025,-6.00551,0.246612,
2,1,0,1,0,54371.6,0.248496,0.248168,3.0616,28,0.0138556,10,0.000759791,-2.51405,-1.68188,-0.0350798,-4.18744,0.248168,
2,1,0,1,0,54371.7,0.249999,0.249659,3.05717,28,0.0139133,10,0.00076325,-2.51468,-1.46655,-0.0402304,-4.79528,0.249659,
2,1,0,1,0,54371.7,0.251503,0.251198,3.05042,28,0.0139708,10,0.00076626,-2.51564,-3.36946,-0.0175102,-2.08194,0.251198,
2,1,0,1,0,54371.7,0.25299,0.252637,3.04326,28,0.0140277,10,0.000768841,-2.51666,-2.08657,-0.0282761,-3.35517,0.252637,
2,1,0,1,0,54371.7,0.254494,0.254138,3.03963,28,0.014085,10,0.000772487,-2.51718,-1.96739,-0.029989,-3.55387,0.254138,
2,1,0,1,0,54371.7,0.25599,0.255647,3.02676,28,0.014142,10,0.000773781,-2.51902,-16.3934,-0.003599,-0.425918,0.255647,
2,1,0,1,0,54371.8,0.257487,0.25717,3.02365,28,0.0141988,10,0.000777593,-2.51947,-4.82943,-0.0122168,-1.44242,0.25717,
2,1,0,1,0,54371.8,0.25899,0.258674,3.02259,28,0.0142558,10,0.000781866,-2.51962,-6.66652,-0.00885019,-1.04262,0.258674,
2,1,0,1,0,54371.8,0.260479,0.260168,3.01802,28,0.0143122,10,0.000785191,-2.52028,-2.82493,-0.0208855,-2.45809,0.260168,
2,1,0,1,0,54371.8,0.261983,0.261665,3.00659,28,0.0143691,10,0.00078672,-2.52193,-1.78279,-0.0330942,-3.88732,0.261665,
2,1,0,1,0,54371.8,0.263486,0.263143,3.00069,28,0.0144258,10,0.00078961,-2.52278,-2.46699,-0.0239157,-2.80486,0.263143,
2,1,0,1,0,54371.9,0.264974,0.26462,3.00243,28,0.0144819,10,0.000794504,-2.52253,-1.84086,-0.0320502,-3.75528,0.26462,
2,1,0,1,0,54371.9,0.266477,0.2661,2.99421,28,0.0145385,10,0.000796759,-2.52372,-1.42362,-0.0414437,-4.84628,0.2661002,
2,1,0,1,0,54371.9,0.267981,0.26763,2.98526,28,0.014595,10,0.000798946,-2.52502,-1.09059,-0.0540991,-6.31297,0.26763,
2,1,0,1,0,54371.9,0.26947,0.269132,2.98615,28,0.0146508,10,0.000803669,-2.52489,-1.45593,-0.0405239,-4.72219,0.269132,
2,1,0,1,0,54371.9,0.270974,0.270674,2.98909,28,0.0147071,10,0.000809069,-2.52446,-1.10031,-0.0536212,-6.24079,0.270674,
2,1,0,1,0,54371.9,0.27247,0.272095,2.98342,28,0.0147631,10,0.000811774,-2.52528,-1.32452,-0.0445445,-5.17391,0.272095,
2,1,0,1,0,54372,0.273967,0.273642,2.97052,28,0.0148189,10,0.000812858,-2.52717,-1.81892,-0.0324369,-3.7634,0.273642,
2,1,0,1,0,54372,0.27547,0.275124,2.96933,28,0.0148749,10,0.000816934,-2.52734,-1.86515,-0.0316329,-3.66481,0.275124,
2,1,0,1,0,54372,0.276959,0.276635,2.97141,28,0.0149303,10,0.000821995,-2.52704,-4.5919,-0.0128487,-1.48702,0.276635,
2,1,0,1,0,54372,0.278463,0.278188,2.96336,28,0.0149862,10,0.00082437,-2.52822,-4.69857,-0.012557,-1.44863,0.278188,
2,1,0,1,0,54372,0.279967,0.279661,2.95348,28,0.015042,10,0.000825973,-2.52967,-6.3529,-0.00928709,-1.07102,0.279661,
2,1,0,1,0,54372.1,0.281454,0.281079,2.94556,28,0.0150971,10,0.000827935,-2.53083,-4.31425,-0.0136756,-1.57378,0.281079,
2,1,0,1,0,54372.1,0.282958,0.282625,2.94272,28,0.0151526,10,0.000831687,-2.53125,-13.6445,-0.00432409,-0.496539,0.282625,
2,1,0,1,0,54372.1,0.284461,0.284162,2.93328,28,0.0152082,10,0.000833525,-2.53265,-6.11893,-0.0096422,-1.10648,0.2841616,
2,1,0,1,0,54372.1,0.28595,0.28565,2.92962,28,0.015263,10,0.000836846,-2.53319,-1.57034,-0.0375715,-4.29857,0.28565,
2,1,0,1,0,54372.1,0.287454,0.28711,2.92154,28,0.0153184,10,0.000838803,-2.53439,-1.25709,-0.0469338,-5.36685,0.28711,
2,1,0,1,0,54372.2,0.28895,0.288571,2.91688,28,0.0153733,10,0.000841727,-2.53508,-2.0427,-0.0288833,-3.29707,0.288571,
2,1,0,1,0,54372.2,0.290447,0.290102,2.91718,28,0.0154281,10,0.000846278,-2.53504,-1.4732,-0.0400488,-4.56252,0.2901015,
2,1,0,1,0,54372.2,0.29195,0.291604,2.91362,28,0.0154832,10,0.000849622,-2.53557,-1.44208,-0.0409132,-4.65322,0.2916036,
2,1,0,1,0,54372.2,0.29344,0.29305,2.90716,28,0.0155375,10,0.000851945,-2.53653,-1.23752,-0.047676,-5.41438,0.2930505,
2,1,0,1,0,54372.2,0.294943,0.294611,2.90541,28,0.0155923,10,0.000855965,-2.53679,-1.69239,-0.034862,-3.94943,0.294611,
2,1,0,1,0,54372.2,0.296447,0.296115,2.90502,28,0.0156471,10,0.00086022,-2.53685,-2.11527,-0.0278924,-3.15688,0.296115,
2,1,0,1,0,54372.3,0.297934,0.297617,2.90121,28,0.0157013,10,0.000863447,-2.53742,-3.90316,-0.015116,-1.71064,0.297617,
2,1,0,1,0,54372.3,0.299438,0.299122,2.88783,28,0.0157559,10,0.000863812,-2.53943,-0.0326524,-1.80691,-188.332,0.299122,
2,1,0,1,0,54372.3,0.300012,0.299632,2.89822,28,0.0157762,10,0.000868401,-2.53787,0.00186341,31.6624,2388.74,0.299632,
2,1,0,1,0,54372.3,0.298737,0.298417,1.53601,28,0.0158091,10,0.000458372,-2.8136,0.00434083,13.5919,730.23,0.298417,
2,1,0,1,0,54372.3,0.29724,0.29692,0.719426,28,0.0158293,10,0.000213612,-3.14301,0.00269822,21.8663,461.999,0.29692,
2,1,0,1,0,54372.3,0.295744,0.295396,0.196298,28,0.0158373,10,5.79857e-05,-3.70708,0.00713112,8.27359,297.419,0.295396,
2,0,0,1,0,54372.4,0.29424,0.293859,-0.164048,28,0.0158371,10,-4.82069e-05,-3.78503,-0.0250602,-2.35434,208.273,0.293859,
2,0,0,1,0,54372.4,0.292751,0.292373,-0.419028,28,0.0158314,10,-0.000122513,-3.37776,-0.0037971,-15.5382,152.922,0.292373,
2,0,0,1,0,54372.4,0.291248,0.290901,-0.618021,28,0.0158214,10,-0.000179783,-3.209,-0.0106536,-5.53804,117.584,0.290901,
2,0,0,1,0,54372.4,0.289744,0.289407,-0.773122,28,0.0158081,10,-0.000223747,-3.11175,-0.017882,-3.2994,93.612,0.289407,
2,0,0,1,0,54372.4,0.288257,0.287878,-0.897586,28,0.0157923,10,-0.000258395,-3.04692,-0.0269022,-2.19313,74.0022,0.287878,
2,0,0,1,0,54372.5,0.286753,0.28642,-0.998249,28,0.0157743,10,-0.000285918,-3.00076,-0.0368741,-1.60004,61.272,0.28642,
2,0,0,1,0,54372.5,0.285249,0.284889,-1.0879,28,0.0157545,10,-0.000309929,-2.96341,-0.0457768,-1.28886,54.02,0.2848886,
2,0,0,1,0,54372.5,0.28376,0.28344,-1.16182,28,0.0157334,10,-0.000329305,-2.93486,-0.0545744,-1.08109,48.3932,0.2834397,
2,0,0,1,0,54372.5,0.282257,0.281931,-1.22655,28,0.0157108,10,-0.000345803,-2.91131,-0.0656246,-0.899054,42.6562,0.2819311,
2,0,0,1,0,54372.5,0.28076,0.280452,-1.28251,28,0.0156871,10,-0.000359683,-2.89194,-0.0777427,-0.758913,37.827,0.280452,
2,0,0,1,0,54372.5,0.279264,0.278945,-1.3375,28,0.0156624,10,-0.000373088,-2.87371,-0.0887097,-0.66509,34.5601,0.278945,
2,0,0,1,0,54372.6,0.27776,0.277399,-1.3857,28,0.0156366,10,-0.000384392,-2.85833,-0.10143,-0.581684,31.3575,0.277399,
2,0,0,1,0,54372.6,0.276271,0.275963,-1.42795,28,0.0156102,10,-0.00039406,-2.84529,-0.111049,-0.531297,29.5503,0.275963,
2,0,0,1,0,54372.6,0.274767,0.274368,-1.46883,28,0.0155828,10,-0.000402999,-2.83303,-0.122701,-0.480844,27.4971,0.274368,
2,0,0,1,0,54372.6,0.273264,0.272902,-1.50174,28,0.0155546,10,-0.000409828,-2.82341,-0.138004,-0.427523,25.0933,0.272902,
2,0,0,1,0,54372.6,0.271776,0.271395,-1.53802,28,0.015526,10,-0.000417413,-2.81304,-0.137049,-0.430504,25.9195,0.271395,
2,0,0,1,0,54372.7,0.270273,0.269916,-1.57666,28,0.0154965,10,-0.000425565,-2.80226,-0.166795,-0.353728,21.7551,0.269916,
2,0,0,1,0,54372.7,0.268769,0.268389,-1.60689,28,0.0154662,10,-0.000431272,-2.79401,-0.200335,-0.294507,18.489,0.268389,
2,0,0,1,0,54372.7,0.26728,0.266915,-1.63735,28,0.0154358,10,-0.000437033,-2.78586,-0.229722,-0.256832,16.4301,0.266915,
2,0,0,1,0,54372.7,0.265777,0.265444,-1.67045,28,0.0154046,10,-0.000443411,-2.77717,-0.211636,-0.27878,18.1194,0.265444,
2,0,0,1,0,54372.7,0.26428,0.263949,-1.70063,28,0.0153729,10,-0.000448879,-2.76939,-0.212437,-0.277729,18.3636,0.263949,
2,0,0,1,0,54372.8,0.262784,0.262378,-1.727,28,0.0153407,10,-0.000453127,-2.76271,-0.262261,-0.224967,15.102,0.262378,
2,0,0,1,0,54372.8,0.26128,0.260891,-1.74632,28,0.0153079,10,-0.0004556,-2.75787,-0.263494,-0.223914,15.2946,0.260891,
2,0,0,1,0,54372.8,0.259791,0.259467,-1.77388,28,0.015275,10,-0.000460264,-2.75107,-0.256174,-0.230312,15.949,0.259467,
2,0,0,1,0,54372.8,0.258287,0.257959,-1.80169,28,0.0152412,10,-0.000464762,-2.74432,-0.224018,-0.263371,18.462,0.257959,
2,0,0,1,0,54372.8,0.256786,0.256435,-1.82043,28,0.015207,10,-0.000466822,-2.73983,-0.251427,-0.234661,16.631,0.256435,
2,0,0,1,0,54372.8,0.255296,0.254955,-1.84418,28,0.0151727,10,-0.000470184,-2.7342,-0.298325,-0.197771,14.208,0.254955,
2,0,0,1,0,54372.9,0.253793,0.253464,-1.86065,28,0.0151377,10,-0.000471609,-2.73033,-0.29521,-0.199858,14.5209,0.2534644,
2,0,0,1,0,54372.9,0.252289,0.251929,-1.88152,28,0.0151023,10,-0.000474009,-2.72549,-0.281112,-0.20988,15.4165,0.251929,
2,0,0,1,0,54372.9,0.2508,0.250475,-1.89939,28,0.0150669,10,-0.000475749,-2.72139,-0.279748,-0.210904,15.6696,0.2504752,
2,0,0,1,0,54372.9,0.249296,0.248976,-1.9206,28,0.0150307,10,-0.000478184,-2.71656,-0.362896,-0.162581,12.2,0.248976,
2,0,0,1,0,54372.9,0.2478,0.247421,-1.9381,28,0.0149944,10,-0.000479526,-2.71262,-0.388153,-0.152002,11.5209,0.247421,
2,0,0,1,0,54373,0.246304,0.245964,-1.95879,28,0.0149577,10,-0.000481792,-2.70801,-0.360823,-0.163515,12.5206,0.245964,
2,0,0,1,0,54373,0.2448,0.244456,-1.9854,28,0.0149204,10,-0.000485342,-2.70215,-0.371259,-0.158919,12.2881,0.244456,
2,0,0,1,0,54373,0.243313,0.24293,-1.99784,28,0.0148832,10,-0.000485335,-2.69944,-0.494353,-0.119348,9.30373,0.24293,
2,0,0,1,0,54373,0.241809,0.24147,-2.01409,28,0.0148452,10,-0.000486344,-2.69592,-0.437479,-0.134864,10.6039,0.24147,
2,0,0,1,0,54373,0.240306,0.239975,-2.03659,28,0.014807,10,-0.000488733,-2.6911,-0.460553,-0.128107,10.1799,0.239975,
2,0,0,1,0,54373.1,0.238816,0.238481,-2.05677,28,0.0147687,10,-0.000490501,-2.68681,-0.394489,-0.149561,11.956,0.238481,
2,0,0,1,0,54373.1,0.237313,0.236936,-2.07433,28,0.0147298,10,-0.000491484,-2.68312,-0.46654,-0.126463,10.2033,0.236936,
2,0,0,1,0,54373.1,0.235809,0.235417,-2.08894,28,0.0146905,10,-0.000491772,-2.68007,-0.427949,-0.137867,11.2207,0.235417,
2,0,0,1,0,54373.1,0.23432,0.233961,-2.10003,28,0.0146514,10,-0.000491324,-2.67778,-0.434204,-0.135881,11.1799,0.233961,
2,0,0,1,0,54373.1,0.232816,0.232492,-2.11621,28,0.0146116,10,-0.000492002,-2.67444,-0.380117,-0.155215,12.8358,0.232492,
2,0,0,1,0,54373.1,0.23132,0.230944,-2.1379,28,0.0145716,10,-0.000493734,-2.67001,-0.399376,-0.14773,12.3113,0.230944,
2,0,0,1,0,54373.2,0.229824,0.229453,-2.14993,28,0.0145313,10,-0.000493307,-2.66758,-0.413192,-0.142791,11.9781,0.229453,
2,0,0,1,0,54373.2,0.22832,0.227959,-2.16437,28,0.0144905,10,-0.000493389,-2.66467,-0.458432,-0.1287,10.883,0.227959,
2,0,0,1,0,54373.2,0.226833,0.226465,-2.18143,28,0.0144499,10,-0.000494017,-2.66126,-0.415521,-0.14199,12.0844,0.226465,
2,0,0,1,0,54373.2,0.225329,0.225005,-2.19114,28,0.0144085,10,-0.000493018,-2.65933,-0.42636,-0.138381,11.8654,0.225005,
2,0,0,1,0,54373.2,0.223825,0.223422,-2.21088,28,0.0143669,10,-0.000493959,-2.65543,-0.54767,-0.107729,9.30637,0.223422,
2,0,0,1,0,54373.3,0.222336,0.222004,-2.22133,28,0.0143254,10,-0.000493146,-2.65339,-0.621026,-0.0950041,8.26611,0.222004,
2,0,0,1,0,54373.3,0.220833,0.220499,-2.23968,28,0.0142832,10,-0.000493848,-2.64981,-0.61795,-0.095477,8.36151,0.220499,
2,0,0,1,0,54373.3,0.219329,0.219003,-2.26207,28,0.0142407,10,-0.0004954,-2.64549,-0.59354,-0.0994036,8.75599,0.219003,
2,0,0,1,0,54373.3,0.21784,0.21745,-2.28032,28,0.0141983,10,-0.000495857,-2.642,-0.577714,-0.102127,9.05601,0.21745,
2,0,0,1,0,54373.3,0.216336,0.215981,-2.28921,28,0.0141552,10,-0.000494426,-2.64031,-0.623486,-0.0946292,8.45007,0.215981,
2,0,0,1,0,54373.4,0.21484,0.214474,-2.30685,28,0.014112,10,-0.000494758,-2.63698,-0.734632,-0.0803123,7.22525,0.214474,
2,0,0,1,0,54373.4,0.213343,0.212984,-2.32645,28,0.0140686,10,-0.000495497,-2.63331,-0.463433,-0.127311,11.5156,0.212984,
2,0,0,1,0,54373.4,0.21184,0.211463,-2.33623,28,0.0140247,10,-0.000494027,-2.63148,-0.609915,-0.0967348,8.79647,0.211463,
2,0,0,1,0,54373.4,0.210352,0.210016,-2.34638,28,0.013981,10,-0.000492776,-2.6296,-0.546715,-0.107917,9.89716,0.210016,
2,0,0,1,0,54373.4,0.208849,0.208498,-2.35982,28,0.0139365,10,-0.000492018,-2.62712,-0.455438,-0.129546,11.9804,0.208498,
2,0,0,1,0,54373.4,0.207345,0.20698,-2.37545,28,0.0138918,10,-0.000491671,-2.62425,-0.431743,-0.136655,12.6998,0.20698,
2,0,0,1,0,54373.5,0.205856,0.205498,-2.39722,28,0.0138471,10,-0.000492623,-2.62029,-0.414306,-0.142407,13.3158,0.205498,
2,0,0,1,0,54373.5,0.204353,0.203991,-2.40837,28,0.0138017,10,-0.000491285,-2.61828,-0.518235,-0.113848,10.7075,0.2039911,
2,0,0,1,0,54373.5,0.202849,0.202495,-2.41931,28,0.0137561,10,-0.000489899,-2.61631,-0.608075,-0.0970275,9.18814,0.202495,
2,0,0,1,0,54373.5,0.20136,0.200936,-2.43857,28,0.0137106,10,-0.000489998,-2.61286,-0.544529,-0.10835,10.3227,0.200936,
2,0,0,1,0,54373.5,0.199856,0.199528,-2.45227,28,0.0136644,10,-0.000489298,-2.61043,-0.655414,-0.0900194,8.63775,0.199528,
2,0,0,1,0,54373.6,0.19836,0.198013,-2.47016,28,0.0136182,10,-0.000489123,-2.60728,-0.810904,-0.0727583,7.01024,0.198013,
2,0,0,1,0,54373.6,0.196863,0.196538,-2.48371,28,0.0135716,10,-0.000488144,-2.6049,-0.673954,-0.0875431,8.49051,0.196538,
2,0,0,1,0,54373.6,0.19536,0.194979,-2.50258,28,0.0135246,10,-0.000487951,-2.60161,-0.628265,-0.0939095,9.17876,0.194979,
2,0,0,1,0,54373.6,0.193872,0.193529,-2.52316,28,0.0134777,10,-0.000488305,-2.59806,-0.511168,-0.115422,11.3321,0.193529,
2,0,0,1,0,54373.6,0.192369,0.19202,-2.53796,28,0.01343,10,-0.000487338,-2.59552,-0.599665,-0.0983883,9.73035,0.19202,
2,0,0,1,0,54373.7,0.190865,0.190502,-2.5512,28,0.0133819,10,-0.00048601,-2.59326,-0.587831,-0.100369,9.99782,0.190502,
2,0,0,1,0,54373.7,0.189376,0.188994,-2.5691,28,0.0133341,10,-0.000485544,-2.59022,-0.545756,-0.108107,10.84,0.188994,
2,0,0,1,0,54373.7,0.187872,0.187509,-2.58624,28,0.0132855,10,-0.000484944,-2.58733,-0.499703,-0.11807,11.911,0.187509,
2,0,0,1,0,54373.7,0.186369,0.185992,-2.60725,28,0.0132366,10,-0.000484926,-2.58382,-0.488031,-0.120894,12.2729,0.185992,
2,0,0,1,0,54373.7,0.18488,0.184548,-2.62229,28,0.0131878,10,-0.000483939,-2.58132,-0.458434,-0.128699,13.1658,0.184548,
2,0,0,1,0,54373.7,0.183376,0.183017,-2.63633,28,0.0131382,10,-0.000482491,-2.579,-0.397394,-0.148467,15.3054,0.183017,
2,0,0,1,0,54373.8,0.18188,0.181532,-2.65536,28,0.0130885,10,-0.000482033,-2.57588,-0.385348,-0.153108,15.8693,0.181532,
2,0,0,1,0,54373.8,0.180383,0.180007,-2.67873,28,0.0130384,10,-0.000482188,-2.57207,-0.395303,-0.149253,15.5926,0.180007,
2,0,0,1,0,54373.8,0.17888,0.178516,-2.69538,28,0.0129876,10,-0.000481168,-2.56938,-0.467017,-0.126334,13.2912,0.178516,
2,0,0,1,0,54373.8,0.177392,0.177036,-2.71032,28,0.0129371,10,-0.000479824,-2.56698,-0.477064,-0.123673,13.1258,0.177036,
2,0,0,1,0,54373.8,0.175889,0.175518,-2.73504,28,0.0128856,10,-0.000480048,-2.56304,-0.387535,-0.152244,16.2573,0.1755176,
2,0,0,1,0,54373.9,0.174385,0.173971,-2.75536,28,0.0128338,10,-0.000479353,-2.55982,-0.467662,-0.12616,13.5936,0.173971,
2,0,0,1,0,54373.9,0.172896,0.17254,-2.78281,28,0.012782,10,-0.000480146,-2.55552,-0.479708,-0.122992,13.3525,0.17254,
2,0,0,1,0,54373.9,0.171392,0.171026,-2.80321,28,0.0127293,10,-0.000479422,-2.55235,-0.401391,-0.146989,16.1099,0.171026,
2,0,0,1,0,54373.9,0.169889,0.169525,-2.83459,28,0.0126761,10,-0.000480534,-2.54751,-0.392159,-0.150449,16.6524,0.169525,
2,0,0,1,0,54373.9,0.1684,0.168014,-2.86309,28,0.012623,10,-0.000481038,-2.54317,-0.394278,-0.149641,16.6908,0.168014,
2,0,0,1,0,54374,0.166896,0.166553,-2.89104,28,0.0125687,10,-0.000481511,-2.53895,-0.37766,-0.156225,17.5958,0.166553,
2,0,0,1,0,54374,0.165392,0.165023,-2.91966,28,0.012514,10,-0.00048181,-2.53467,-0.352667,-0.167297,19.0589,0.165023,
2,0,0,1,0,54374,0.163905,0.16356,-2.94509,28,0.0124593,10,-0.000481699,-2.5309,-0.311127,-0.189633,21.8322,0.16356,
2,0,0,1,0,54374,0.162401,0.162051,-2.97926,28,0.0124035,10,-0.000482792,-2.52589,-0.275396,-0.214237,24.9342,0.162051,
2,0,0,1,0,54374,0.160905,0.160522,-3.01727,28,0.0123472,10,-0.00048434,-2.52039,-0.261518,-0.225606,26.5244,0.160522,
2,0,0,1,0,54374,0.159409,0.159073,-3.05217,28,0.0122903,10,-0.000485517,-2.51539,-0.255419,-0.230993,27.5213,0.159073,
2,0,0,1,0,54374.1,0.157905,0.157549,-3.08609,28,0.0122324,10,-0.000486212,-2.51059,-0.254165,-0.232133,28.01,0.157549,
2,0,0,1,0,54374.1,0.156416,0.156036,-3.13068,28,0.0121743,10,-0.0004885,-2.50436,-0.226347,-0.260662,31.8976,0.156036,
2,0,0,1,0,54374.1,0.154912,0.154557,-3.18484,28,0.0121147,10,-0.00049224,-2.49691,-0.217339,-0.271466,33.7619,0.154557,
2,0,0,1,0,54374.1,0.153409,0.153055,-3.23146,28,0.0120542,10,-0.000494591,-2.4906,-0.223389,-0.264113,33.3636,0.153055,
2,0,0,1,0,54374.1,0.151919,0.151552,-3.2836,28,0.0119933,10,-0.000497635,-2.48365,-0.201209,-0.293227,37.6769,0.151552,
2,0,0,1,0,54374.2,0.150416,0.150077,-3.34508,28,0.0119308,10,-0.00050202,-2.47559,-0.189368,-0.311563,40.7837,0.150077,
2,0,0,1,0,54374.2,0.148912,0.148548,-3.41379,28,0.011867,10,-0.000507111,-2.46676,-0.169136,-0.348832,46.5393,0.148548,
2,0,0,1,0,54374.2,0.147425,0.147067,-3.48632,28,0.0118027,10,-0.000512722,-2.45763,-0.166411,-0.354544,48.317,0.147067,
2,0,0,1,0,54374.2,0.145921,0.1456,-3.56841,28,0.0117361,10,-0.00051956,-2.44753,-0.147772,-0.399265,55.6845,0.1456,
2,0,0,1,0,54374.2,0.144425,0.144078,-3.6598,28,0.0116684,10,-0.000527296,-2.43654,-0.137253,-0.429864,61.5424,0.144078,
2,0,0,1,0,54374.3,0.142929,0.142547,-3.76234,28,0.0115989,10,-0.00053631,-2.42454,-0.126482,-0.46647,68.4639,0.142547,
2,0,0,1,0,54374.3,0.141425,0.141122,-3.87235,28,0.011527,10,-0.000546475,-2.41203,-0.120862,-0.488161,73.7284,0.141122,
2,0,0,1,0,54374.3,0.139936,0.139589,-3.98298,28,0.0114538,10,-0.000555979,-2.39979,-0.112938,-0.522409,81.253,0.1395888,
2,0,0,1,0,54374.3,0.138432,0.138042,-4.10005,28,0.0113777,10,-0.000565978,-2.38721,-0.107584,-0.548411,88.0207,0.1380417,
2,0,0,1,0,54374.3,0.136929,0.136574,-4.2413,28,0.0112991,10,-0.000579251,-2.3725,-0.101072,-0.583744,96.712,0.136574,
2,0,0,1,0,54374.3,0.135439,0.135098,-4.3833,28,0.0112188,10,-0.000592174,-2.3582,-0.0995166,-0.592866,101.392,0.135098,
2,0,0,1,0,54374.4,0.133936,0.13357,-4.53798,28,0.0111347,10,-0.00060614,-2.34314,-0.100821,-0.585194,103.593,0.13357,
2,0,0,1,0,54374.4,0.132432,0.13209,-4.68389,28,0.0110478,10,-0.000618693,-2.32939,-0.100093,-0.589451,107.986,0.13209,
2,0,0,1,0,54374.4,0.130945,0.130573,-4.84227,28,0.0109589,10,-0.000632268,-2.31495,-0.101916,-0.57891,109.598,0.130573,
2,0,0,1,0,54374.4,0.129441,0.129073,-5.01034,28,0.0108659,10,-0.000646701,-2.30013,-0.105676,-0.558313,109.236,0.129073,
2,0,0,1,0,54374.4,0.127945,0.1276,-5.17414,28,0.0107703,10,-0.000660221,-2.28616,-0.112147,-0.526096,106.212,0.1276,
2,0,0,1,0,54374.5,0.126448,0.126072,-5.33451,28,0.0106718,10,-0.00067253,-2.27291,-0.115834,-0.509351,106.095,0.126072,
2,0,0,1,0,54374.5,0.124945,0.124586,-5.49912,28,0.0105697,10,-0.000685112,-2.25971,-0.120664,-0.48896,104.912,0.124586,
2,0,0,1,0,54374.5,0.123456,0.123118,-5.66096,28,0.0104657,10,-0.000696965,-2.24711,-0.125771,-0.469105,103.507,0.1231178,
2,0,0,1,0,54374.5,0.121952,0.121573,-5.81955,28,0.0103576,10,-0.000707499,-2.23511,-0.135082,-0.43677,98.9618,0.121573,
2,0,0,1,0,54374.5,0.120449,0.120078,-5.96351,28,0.0102466,10,-0.000716087,-2.2245,-0.140964,-0.418548,97.3294,0.120078,
2,0,0,1,0,54374.6,0.118959,0.118646,-6.11407,28,0.0101342,10,-0.000725407,-2.21367,-0.147676,-0.399522,95.2093,0.118646,
2,0,0,1,0,54374.6,0.117456,0.117103,-6.25182,28,0.0100178,10,-0.000732107,-2.20399,-0.150897,-0.390995,95.27,0.117103,
2,0,0,1,0,54374.6,0.115952,0.115619,-6.38873,28,0.00989879,10,-0.000738658,-2.19459,-0.167868,-0.351466,87.495,0.115619,
2,0,0,1,0,54374.6,0.114465,0.114141,-6.51593,28,0.0097786,10,-0.000743733,-2.18602,-0.177366,-0.332645,84.4818,0.114141,
2,0,0,1,0,54374.6,0.112961,0.112619,-6.63427,28,0.00965484,10,-0.000747148,-2.17821,-0.190734,-0.309332,80.0424,0.112619,
2,0,0,1,0,54374.6,0.111465,0.111132,-6.74726,28,0.00952945,10,-0.000749835,-2.17087,-0.20198,-0.292107,76.8013,0.111132,
2,0,0,1,0,54374.7,0.109968,0.109608,-6.85665,28,0.00940203,10,-0.000751547,-2.16389,-0.221064,-0.266891,71.3625,0.109608,
2,0,0,1,0,54374.7,0.108465,0.108151,-6.95459,28,0.00927192,10,-0.000752143,-2.15773,-0.242016,-0.243785,66.1291,0.108151,
2,0,0,1,0,54374.7,0.106976,0.106626,-7.04495,28,0.00914143,10,-0.000751173,-2.15212,-0.269136,-0.21922,60.2544,0.106626,
2,0,0,1,0,54374.7,0.105472,0.105098,-7.12972,28,0.00900787,10,-0.000749319,-2.14693,-0.306672,-0.192388,53.5271,0.105098,
2,0,0,1,0,54374.7,0.103968,0.103657,-7.21204,28,0.00887277,10,-0.000747577,-2.14194,-0.366066,-0.161173,45.3147,0.103657,
2,0,0,1,0,54374.8,0.102479,0.102138,-7.27379,28,0.00873778,10,-0.000742932,-2.13824,-0.454529,-0.129805,36.8114,0.102138,
2,0,0,1,0,54374.8,0.100976,0.100632,-7.32579,28,0.00860026,10,-0.000737211,-2.13515,-0.555193,-0.106269,30.3654,0.100632,
2,0,0,1,0,54374.8,0.0994721,0.0990872,-7.37868,28,0.00846185,10,-0.000731133,-2.13202,-0.705956,-0.0835747,24.0164,0.0990872,
2,0,0,1,0,54374.8,0.0979846,0.0976509,-7.41197,28,0.00832418,10,-0.000723786,-2.13007,-0.863233,-0.0683477,19.7348,0.0976509,
2,0,0,1,0,54374.8,0.0964811,0.0961522,-7.43559,28,0.00818447,10,-0.000714948,-2.12868,-1.62679,-0.0362678,10.5019,0.0961522,
2,0,0,1,0,54374.9,0.0949847,0.0946311,-7.44859,28,0.00804514,10,-0.000704869,-2.12793,-3.68734,-0.0160007,4.6424,0.0946311,
2,0,0,1,0,54374.9,0.0934883,0.0931609,-7.45027,28,0.00790578,10,-0.000694074,-2.12783,-31.5846,-0.001868,0.542484,0.0931609,
2,0,0,1,0,54374.9,0.0919847,0.0916336,-7.44097,28,0.00776566,10,-0.000681843,-2.12837,6.04704,0.00975684,-2.83023,0.0916336,
2,0,0,1,0,54374.9,0.0904955,0.0901056,-7.43498,28,0.00762712,10,-0.000669934,-2.12872,1.52287,0.0387427,-11.2192,0.0901056,
2,0,0,1,0,54374.9,0.0889919,0.0886649,-7.41079,28,0.00748745,10,-0.000657077,-2.13014,1.09508,0.0538773,-15.5591,0.08866486,
2,0,0,1,0,54374.9,0.0874884,0.0871382,-7.37593,28,0.00734832,10,-0.000642726,-2.13218,0.923936,0.0638572,-18.3796,0.0871382,
2,0,0,1,0,54375,0.0860009,0.0856334,-7.33898,28,0.00721123,10,-0.000628461,-2.13436,0.78285,0.0753657,-21.5839,0.08563339,
2,0,0,1,0,54375,0.0844974,0.0841661,-7.30382,28,0.00707331,10,-0.000614734,-2.13645,0.707726,0.0833657,-23.7606,0.08416605,
2,0,0,1,0,54375,0.0829938,0.082619,-7.26383,28,0.00693612,10,-0.00060013,-2.13883,0.639873,0.0922058,-26.141,0.082619,
2,0,0,1,0,54375,0.0815045,0.0811465,-7.21836,28,0.00680117,10,-0.000585745,-2.14156,0.574267,0.10274,-28.9703,0.0811465,
2,0,0,1,0,54375,0.080001,0.0796427,-7.18075,28,0.00666557,10,-0.000571894,-2.14383,0.599674,0.0983868,-27.587,0.0796427,
2,0,0,1,0,54375.1,0.0785046,0.0781314,-7.13902,28,0.00653143,10,-0.000557782,-2.14636,0.610714,0.0966082,-26.9414,0.0781314,
2,0,0,1,0,54375.1,0.0770082,0.0766214,-7.10234,28,0.00639803,10,-0.000544191,-2.1486,0.574667,0.102668,-28.4517,0.0766214,
2,0,0,1,0,54375.1,0.0755046,0.0751681,-7.06264,28,0.00626464,10,-0.000530885,-2.15103,0.565186,0.10439,-28.7795,0.0751681,
2,0,0,1,0,54375.1,0.0740154,0.0736558,-7.03081,28,0.00613347,10,-0.00051786,-2.15299,0.616145,0.0957566,-26.2607,0.0736558,
2,0,0,1,0,54375.1,0.0725118,0.072186,-6.99877,28,0.00600152,10,-0.000505214,-2.15498,0.781499,0.0754959,-20.6032,0.07218603,
2,0,0,1,0,54375.2,0.0710083,0.070613,-6.97215,28,0.00587018,10,-0.000492325,-2.15663,0.694674,0.0849319,-23.0668,0.070613,
2,0,0,1,0,54375.2,0.0695208,0.0691457,-6.93175,28,0.00574078,10,-0.0004793,-2.15916,0.810335,0.0728094,-19.6923,0.0691457,
2,0,0,1,0,54375.2,0.0680173,0.0676678,-6.89927,28,0.00561067,10,-0.000466858,-2.1612,0.89799,0.0657023,-17.712,0.06766779,
2,0,0,1,0,54375.2,0.0665137,0.0661306,-6.8715,28,0.00548104,10,-0.000454417,-2.16295,1.13533,0.0519671,-13.9447,0.0661306,
2,0,0,1,0,54375.2,0.0650244,0.0646622,-6.84971,28,0.00535324,10,-0.000442918,-2.16433,0.924226,0.0638372,-17.0587,0.0646622,
2,0,0,1,0,54375.2,0.0635209,0.0631741,-6.82162,28,0.00522451,10,-0.00043095,-2.16611,0.933552,0.0631995,-16.825,0.0631741,
2,0,0,1,0,54375.3,0.0620245,0.0616653,-6.78967,28,0.00509703,10,-0.000418687,-2.16815,0.878439,0.0671646,-17.8101,0.0616653,
2,0,0,1,0,54375.3,0.0605281,0.0601924,-6.76312,28,0.00497006,10,-0.000407088,-2.16985,0.972462,0.0606708,-16.0267,0.06019238,
2,0,0,1,0,54375.3,0.0590246,0.0586357,-6.73904,28,0.00484289,10,-0.000395149,-2.1714,0.918552,0.0642315,-16.9077,0.0586357,
2,0,0,1,0,54375.3,0.0575353,0.0572086,-6.71648,28,0.00471748,10,-0.00038424,-2.17286,0.796508,0.0740733,-19.4064,0.0572086,
2,0,0,1,0,54375.3,0.0560317,0.0556775,-6.68371,28,0.0045913,10,-0.000372133,-2.17498,0.74201,0.0795137,-20.7684,0.0556775,
2,0,0,1,0,54375.4,0.0545282,0.0541795,-6.65589,28,0.00446567,10,-0.000360613,-2.17679,0.821653,0.0718065,-18.6635,0.0541795,
2,0,0,1,0,54375.4,0.0530407,0.052686,-6.63871,28,0.00434182,10,-0.000349767,-2.17792,0.799695,0.0737781,-19.0974,0.052686,
2,0,0,1,0,54375.4,0.0515372,0.0511273,-6.61162,28,0.00421714,10,-0.000338034,-2.17969,0.667997,0.0883238,-22.7633,0.0511273,
2,0,0,1,0,54375.4,0.0500336,0.0496742,-6.57255,28,0.004093,10,-0.000326486,-2.18227,0.686002,0.0860056,-22.0702,0.0496742,
2,0,0,1,0,54375.4,0.0485444,0.0481779,-6.54724,28,0.00397086,10,-0.000315432,-2.18394,0.654767,0.0901084,-23.0233,0.0481779,
2,0,0,1,0,54375.5,0.0470408,0.0466908,-6.52041,28,0.00384792,10,-0.000304444,-2.18572,0.752654,0.0783893,-19.9226,0.0466908,
2,0,0,1,0,54375.5,0.0455444,0.0451752,-6.48754,28,0.00372617,10,-0.000293076,-2.18792,0.682062,0.0865024,-21.8725,0.0451752,
2,0,0,1,0,54375.5,0.044048,0.0436645,-6.4527,28,0.00360504,10,-0.000281754,-2.19026,0.678113,0.0870062,-21.9015,0.0436645,
2,0,0,1,0,54375.5,0.0425445,0.0422145,-6.41516,28,0.00348396,10,-0.000270813,-2.19279,0.753768,0.0782735,-19.6092,0.0422145,
2,0,0,1,0,54375.5,0.0410552,0.0407421,-6.38792,28,0.00336479,10,-0.000260257,-2.19464,0.768078,0.0768151,-19.1324,0.0407421,
2,0,0,1,0,54375.5,0.0395516,0.039213,-6.34864,28,0.00324488,10,-0.000248949,-2.19732,0.712372,0.0828219,-20.508,0.039213,
2,0,0,1,0,54375.6,0.0380481,0.0376492,-6.31374,28,0.00312565,10,-0.000237708,-2.19971,0.618682,0.0953641,-23.4857,0.0376492,
2,0,0,1,0,54375.6,0.0365606,0.0361812,-6.26547,28,0.00300843,10,-0.000226692,-2.20305,0.596182,0.0989631,-24.2334,0.0361812,
2,0,0,1,0,54375.6,0.0350571,0.0346822,-6.23747,28,0.00289065,10,-0.000216329,-2.20499,0.582255,0.10133,-24.6611,0.0346822,
2,0,0,1,0,54375.6,0.0335535,0.0331675,-6.19528,28,0.00277354,10,-0.000205482,-2.20794,0.544649,0.108327,-26.194,0.0331675,
2,0,0,1,0,54375.6,0.0320643,0.0317114,-6.15632,28,0.00265843,10,-0.000195225,-2.21068,0.472534,0.124859,-29.9999,0.0317114,
2,0,0,1,0,54375.7,0.0305607,0.0302253,-6.11084,28,0.0025429,10,-0.000184702,-2.2139,0.466175,0.126562,-30.1944,0.03022529,
2,0,0,1,0,54375.7,0.0290643,0.0286647,-6.06934,28,0.00242879,10,-0.000173976,-2.21686,0.47384,0.124514,-29.5151,0.02866469,
2,0,0,1,0,54375.7,0.0275679,0.0272109,-6.03265,28,0.00231547,10,-0.000164154,-2.21949,0.425228,0.138749,-32.646,0.0272109,
2,0,0,1,0,54375.7,0.0260644,0.0256856,-5.99081,28,0.00220233,10,-0.000153877,-2.22251,0.429552,0.137353,-32.0617,0.0256856,
2,0,0,1,0,54375.7,0.0245751,0.0242285,-5.9425,28,0.00209123,10,-0.000143978,-2.22603,0.430357,0.137095,-31.7803,0.0242285,
2,0,0,1,0,54375.8,0.0230716,0.0227325,-5.89854,28,0.00197986,10,-0.000134089,-2.22926,0.449538,0.131246,-30.1747,0.0227325,
2,0,0,1,0,54375.8,0.021568,0.0212583,-5.85148,28,0.00186929,10,-0.000124393,-2.23273,0.473006,0.124734,-28.4704,0.0212583,
2,0,0,1,0,54375.8,0.0200805,0.0197089,-5.80713,28,0.00176073,10,-0.000114452,-2.23604,0.448704,0.13149,-29.7824,0.0197089,
2,0,0,1,0,54375.8,0.018577,0.018217,-5.76307,28,0.00165182,10,-0.000104986,-2.23935,0.488423,0.120797,-27.1606,0.018217,
2,0,0,1,0,54375.8,0.0170735,0.0167452,-5.71419,28,0.00154377,10,-9.56853e-05,-2.24305,0.509053,0.115902,-25.8812,0.0167452,
2,0,0,1,0,54375.8,0.0155842,0.0152308,-5.67203,28,0.00143765,10,-8.63898e-05,-2.24626,0.488106,0.120875,-26.7763,0.0152308,
2,0,0,1,0,54375.9,0.0140806,0.0136987,-5.63913,28,0.00133109,10,-7.7249e-05,-2.24879,0.529713,0.111381,-24.4951,0.0136987,
2,0,0,1,0,54375.9,0.0125842,0.0122091,-5.59432,28,0.00122585,10,-6.83017e-05,-2.25225,0.476488,0.123823,-27.0424,0.01220912,
2,0,0,1,0,54375.9,0.0110878,0.0107576,-5.55173,28,0.00112142,10,-5.97232e-05,-2.25557,0.502436,0.117428,-25.4841,0.0107576,
2,0,0,1,0,54375.9,0.00958429,0.00919993,-5.51611,28,0.00101712,10,-5.07478e-05,-2.25837,0.562343,0.104918,-22.5874,0.00919993,
2,0,0,1,0,54375.9,0.0080968,0.00775986,-5.48269,28,0.000914582,10,-4.25449e-05,-2.26101,0.497384,0.118621,-25.413,0.00775986,
2,0,0,1,0,54376,0.00659326,0.00627173,-5.45089,28,0.000811583,10,-3.41865e-05,-2.26353,0.541252,0.109007,-23.2038,0.00627173,
2,0,0,1,0,54376,0.00508972,0.00474202,-5.41272,28,0.000709181,10,-2.56672e-05,-2.26658,0.578675,0.101957,-21.5866,0.00474202,
2,0,0,1,0,54376,0.00360044,0.0032089,-5.39806,28,0.000608443,10,-1.73218e-05,-2.26776,1.04154,0.0566468,-11.9572,0.0032089,
2,0,0,1,0,54376,0.0020969,0.00168157,-5.40642,28,0.000507029,10,-9.09129e-06,-2.26709,1.00257,0.058849,-12.3496,0.00168157,
2,0,0,1,0,54376,0.000593362,0.000156631,-5.36925,28,0.000405654,10,-8.40993e-07,-2.27009, , , ,0.000156631,
2,0,0,1,0,54376,0.000199195,-0.000248974,-5.3527,28,0.000379339,10,1.33268e-06,-2.27143, , , ,-0.000248974,