File: Figure_codes/Fig_3-5/rawdata_trumpetplot_data/after 10th/20221101_1-115_003_TrumpetPlot_ParaChange_from10_every3_05_CV_C01_28.csv
mode,ox/red,error,control changes,counter inc.,time/s,control/V,Ewe/V,<I>/mA,cycle number,(Q-Qo)/C,I Range,P/W,log(|I|),Tafel slope mV/dec,alpha_eff,dI/d(E-IR),E-IR/V,
2,0,0,1,0,56283.7,2.44065e-05,-0.000248974,-0.736062,29,0.0000000E+000,10,1.8326e-07,-3.13309, , , ,-0.000248974,
2,0,0,1,0,56283.7,0.00129787,0.000880809,-0.0439434,29,-1.87988e-05,10,-3.87058e-08,-4.35711, , , ,0.000880809,
2,1,0,1,0,56283.8,0.00279606,0.00249415,0.293536,29,-6.68903e-06,10,7.32122e-07,-3.53234,0.0127156,4.63997,178.172,0.00249415,
2,1,0,1,0,56283.9,0.00429425,0.00394027,0.449184,29,2.2867e-05,10,1.76991e-06,-3.34758,0.00938829,6.28443,88.3023,0.00394027,
2,1,0,1,0,56284,0.00579244,0.00545302,0.540784,29,6.13777e-05,10,2.94891e-06,-3.26698,0.0216878,2.72042,53.93,0.00545302,
2,1,0,1,0,56284,0.00729063,0.00693208,0.604684,29,0.000105499,10,4.19172e-06,-3.21847,0.0355501,1.65963,38.2213,0.00693208,
2,1,0,1,0,56284.1,0.00878882,0.0083963,0.65476,29,0.000153929,10,5.49756e-06,-3.18392,0.0502678,1.17371,29.3946,0.0083963,
2,1,0,1,0,56284.2,0.010287,0.00992761,0.69229,29,0.000205597,10,6.87278e-06,-3.15971,0.0702376,0.840005,22.4405,0.00992761,
2,1,0,1,0,56284.3,0.0117852,0.0114187,0.724342,29,0.000259794,10,8.27107e-06,-3.14006,0.083267,0.708564,19.9305,0.0114187,
2,1,0,1,0,56284.3,0.0132847,0.0129504,0.751269,29,0.000316177,10,9.72925e-06,-3.1242,0.0906565,0.650808,19.069,0.0129504,
2,1,0,1,0,56284.4,0.0147802,0.0144157,0.777774,29,0.00037449,10,1.12122e-05,-3.10915,0.109215,0.540221,16.3278,0.01441571,
2,1,0,1,0,56284.5,0.0162798,0.0159474,0.801472,29,0.000434944,10,1.27814e-05,-3.09611,0.123491,0.477766,14.8771,0.0159474,
2,1,0,1,0,56284.6,0.017778,0.0174217,0.823111,29,0.000496885,10,1.434e-05,-3.08454,0.140667,0.419429,13.4553,0.0174217,
2,1,0,1,0,56284.6,0.0192761,0.0189368,0.840883,29,0.000560206,10,1.59237e-05,-3.07526,0.153205,0.385104,12.6459,0.0189368,
2,1,0,1,0,56284.7,0.0207743,0.020436,0.860506,29,0.000625112,10,1.75853e-05,-3.06525,0.148236,0.398013,13.3468,0.020436,
2,1,0,1,0,56284.8,0.0222725,0.0219297,0.882105,29,0.000691522,10,1.93443e-05,-3.05448,0.15821,0.372922,12.8137,0.02192972,
2,1,0,1,0,56284.9,0.0237707,0.0234011,0.901597,29,0.000759319,10,2.10983e-05,-3.04499,0.176852,0.333612,11.71,0.0234011,
2,1,0,1,0,56284.9,0.0252689,0.024894,0.915462,29,0.000828435,10,2.27895e-05,-3.03836,0.184935,0.319031,11.4218,0.024894,
2,1,0,1,0,56285,0.0267671,0.0263684,0.935812,29,0.000898935,10,2.46758e-05,-3.02881,0.165729,0.356004,13.0024,0.0263684,
2,1,0,1,0,56285.1,0.0282653,0.0278603,0.95598,29,0.000970855,10,2.66339e-05,-3.01955,0.176981,0.33337,12.4232,0.0278603,
2,1,0,1,0,56285.2,0.0297644,0.0294172,0.972867,29,0.00104426,10,2.86191e-05,-3.01195,0.188711,0.312647,11.8526,0.0294172,
2,1,0,1,0,56285.2,0.0312599,0.03091,0.987126,29,0.00111878,10,3.05121e-05,-3.00563,0.194412,0.303479,11.7288,0.03091,
2,1,0,1,0,56285.3,0.0327599,0.0324043,1.00816,29,0.00119476,10,3.26687e-05,-2.99647,0.2002,0.294705,11.6113,0.0324043,
2,1,0,1,0,56285.4,0.034258,0.0338862,1.02706,29,0.0012721,10,3.4803e-05,-2.98841,0.183468,0.321582,12.8917,0.0338862,
2,1,0,1,0,56285.5,0.0357562,0.0354242,1.04595,29,0.00135078,10,3.70518e-05,-2.98049,0.222926,0.264662,10.7781,0.0354242,
2,1,0,1,0,56285.5,0.0372544,0.0368951,1.06254,29,0.00143084,10,3.92026e-05,-2.97365,0.215305,0.27403,11.3652,0.0368951,
2,1,0,1,0,56285.6,0.0387526,0.0384059,1.07953,29,0.00151207,10,4.14604e-05,-2.96676,0.212632,0.277475,11.7204,0.03840591,
2,1,0,1,0,56285.7,0.0402508,0.0398803,1.09636,29,0.00159471,10,4.3723e-05,-2.96005,0.215156,0.274219,11.7539,0.0398803,
2,1,0,1,0,56285.8,0.041749,0.041438,1.11892,29,0.0016788,10,4.63656e-05,-2.9512,0.221248,0.266669,11.6039,0.04143798,
2,1,0,1,0,56285.8,0.0432472,0.0429032,1.13255,29,0.00176417,10,4.85899e-05,-2.94594,0.230187,0.256313,11.3389,0.0429032,
2,1,0,1,0,56285.9,0.0447449,0.0443903,1.14867,29,0.00185075,10,5.09896e-05,-2.93981,0.222279,0.265433,11.9171,0.0443903,
2,1,0,1,0,56286,0.0462445,0.0458866,1.16756,29,0.00193874,10,5.35754e-05,-2.93272,0.226673,0.260286,11.8544,0.0458866,
2,1,0,1,0,56286.1,0.04774,0.0474167,1.18513,29,0.00202783,10,5.61951e-05,-2.92623,0.23867,0.247203,11.4416,0.0474167,
2,1,0,1,0,56286.1,0.0492399,0.0488892,1.19964,29,0.00211842,10,5.86496e-05,-2.92095,0.258169,0.228533,10.7095,0.0488892,
2,1,0,1,0,56286.2,0.0507381,0.0503905,1.21523,29,0.00221008,10,6.1236e-05,-2.91534,0.269552,0.218882,10.3955,0.0503905,
2,1,0,1,0,56286.3,0.0522363,0.0518773,1.23268,29,0.00230291,10,6.39479e-05,-2.90915,0.241419,0.244388,11.7787,0.0518773,
2,1,0,1,0,56286.4,0.0537345,0.053381,1.25342,29,0.00239707,10,6.69088e-05,-2.9019,0.259296,0.227539,11.0991,0.053381,
2,1,0,1,0,56286.4,0.0552327,0.0548954,1.26743,29,0.00249252,10,6.95761e-05,-2.89708,0.29873,0.197503,9.75013,0.0548954,
2,1,0,1,0,56286.5,0.0567309,0.0563588,1.2796,29,0.00258908,10,7.21168e-05,-2.89293,0.32027,0.18422,9.20584,0.0563588,
2,1,0,1,0,56286.6,0.0582291,0.057851,1.29775,29,0.00268661,10,7.50764e-05,-2.88681,0.310106,0.190258,9.62986,0.057851,
2,1,0,1,0,56286.7,0.0597291,0.0593373,1.31338,29,0.00278542,10,7.79325e-05,-2.88161,0.315462,0.187027,9.5646,0.0593373,
2,1,0,1,0,56286.7,0.0612246,0.0608736,1.3243,29,0.00288511,10,8.06149e-05,-2.87801,0.362021,0.162974,8.41583,0.0608736,
2,1,0,1,0,56286.8,0.0627241,0.0623564,1.33835,29,0.00298611,10,8.34547e-05,-2.87343,0.358642,0.16451,8.60057,0.0623564,
2,1,0,1,0,56286.9,0.0642218,0.0638676,1.35223,29,0.00308793,10,8.63635e-05,-2.86895,0.337131,0.175006,9.24471,0.0638676,
2,1,0,1,0,56287,0.06572,0.065369,1.36595,29,0.00319083,10,8.92907e-05,-2.86457,0.324716,0.181697,9.68732,0.065369,
2,1,0,1,0,56287,0.0672182,0.0668399,1.38164,29,0.00329487,10,9.23489e-05,-2.8596,0.363784,0.162184,8.72572,0.0668399,
2,1,0,1,0,56287.1,0.0687164,0.0683444,1.39298,29,0.00339992,10,9.52022e-05,-2.85606,0.438163,0.134653,7.3087,0.0683444,
2,1,0,1,0,56287.2,0.0702146,0.0698473,1.40374,29,0.00350564,10,9.80478e-05,-2.85271,0.440171,0.134039,7.35173,0.0698473,
2,1,0,1,0,56287.3,0.0717128,0.071392,1.41668,29,0.00361223,10,0.000101139,-2.84873,0.377266,0.156388,8.62609,0.071392,
2,1,0,1,0,56287.3,0.073211,0.072829,1.42481,29,0.00371975,10,0.000103767,-2.84624,0.457548,0.128948,7.17415,0.072829,
2,1,0,1,0,56287.4,0.0747092,0.0743496,1.43672,29,0.00382807,10,0.00010682,-2.84263,0.511839,0.115271,6.45995,0.0743496,
2,1,0,1,0,56287.5,0.0762087,0.0758444,1.44366,29,0.00393725,10,0.000109493,-2.84054,0.508393,0.116052,6.54924,0.0758444,
2,1,0,1,0,56287.6,0.0777042,0.0773366,1.45773,29,0.00404679,10,0.000112736,-2.83632,0.478524,0.123296,7.01256,0.0773366,
2,1,0,1,0,56287.6,0.0792037,0.0788472,1.46674,29,0.0041575,10,0.000115649,-2.83365,0.463506,0.127291,7.27772,0.0788472,
2,1,0,1,0,56287.7,0.0807019,0.0803231,1.47565,29,0.00426888,10,0.000118529,-2.83102,0.600098,0.0983173,5.65908,0.0803231,
2,1,0,1,0,56287.8,0.0822001,0.0818191,1.48514,29,0.00438092,10,0.000121513,-2.82823,0.592108,0.0996441,5.77822,0.0818191,
2,1,0,1,0,56287.9,0.0836983,0.083324,1.494,29,0.00449349,10,0.000124486,-2.82565,0.571023,0.103323,6.0354,0.083324,
2,1,0,1,0,56287.9,0.0851965,0.084839,1.50399,29,0.00460689,10,0.000127597,-2.82276,0.476866,0.123724,7.26389,0.084839,
2,1,0,1,0,56288,0.0866947,0.0863501,1.51645,29,0.00472114,10,0.000130946,-2.81917,0.520281,0.1134,6.69927,0.0863501,
2,1,0,1,0,56288.1,0.0881929,0.0877942,1.52814,29,0.00483616,10,0.000134162,-2.81584,0.481863,0.122441,7.30298,0.0877942,
2,1,0,1,0,56288.2,0.0896911,0.089365,1.53907,29,0.00495187,10,0.000137539,-2.81274,0.454389,0.129845,7.80266,0.089365,
2,1,0,1,0,56288.2,0.0911893,0.0908519,1.55286,29,0.00506861,10,0.00014108,-2.80887,0.343145,0.171939,10.4222,0.0908519,
2,1,0,1,0,56288.3,0.0926883,0.092352,1.56829,29,0.00518673,10,0.000144835,-2.80457,0.329424,0.1791,10.9655,0.092352,
2,1,0,1,0,56288.4,0.0941839,0.0938417,1.58492,29,0.00530571,10,0.000148731,-2.79999,0.337141,0.175001,10.8255,0.0938417,
2,1,0,1,0,56288.5,0.0956838,0.0953008,1.5989,29,0.00542614,10,0.000152377,-2.79618,0.288758,0.204324,12.7878,0.0953008,
2,1,0,1,0,56288.5,0.097182,0.0968449,1.61947,29,0.00554787,10,0.000156837,-2.79063,0.253032,0.233172,14.7598,0.0968449,
2,1,0,1,0,56288.6,0.0986802,0.0982912,1.6437,29,0.00567131,10,0.000161561,-2.78418,0.239233,0.246621,15.8335,0.0982912,
2,1,0,1,0,56288.7,0.100178,0.0998249,1.6694,29,0.00579649,10,0.000166648,-2.77744,0.227541,0.259294,16.8951,0.0998249,
2,1,0,1,0,56288.8,0.101677,0.101304,1.69349,29,0.0059235,10,0.000171558,-2.77122,0.218932,0.26949,17.8437,0.101304,
2,1,0,1,0,56288.8,0.103175,0.102874,1.72167,29,0.00605248,10,0.000177116,-2.76405,0.208969,0.282339,18.9952,0.1028743,
2,1,0,1,0,56288.9,0.104673,0.104356,1.7542,29,0.00618373,10,0.000183061,-2.75592,0.198222,0.297646,20.3327,0.104356,
2,1,0,1,0,56289,0.106171,0.105837,1.78547,29,0.00631729,10,0.000188969,-2.74825,0.212043,0.278246,19.3341,0.105837,
2,1,0,1,0,56289.1,0.107669,0.107351,1.81082,29,0.00645296,10,0.000194393,-2.74213,0.21808,0.270543,19.1289,0.107351,
2,1,0,1,0,56289.1,0.109168,0.108835,1.84004,29,0.0065909,10,0.000200261,-2.73517,0.219234,0.269119,19.3297,0.108835,
2,1,0,1,0,56289.2,0.110664,0.110302,1.86923,29,0.00673079,10,0.00020618,-2.72834,0.214859,0.274598,20.0221,0.1103022,
2,1,0,1,0,56289.3,0.112164,0.111777,1.90022,29,0.00687322,10,0.000212402,-2.7212,0.241657,0.244148,18.05,0.111777,
2,1,0,1,0,56289.4,0.113662,0.113343,1.92415,29,0.00701748,10,0.000218088,-2.71576,0.293556,0.200984,15.0596,0.113343,
2,1,0,1,0,56289.4,0.11516,0.114777,1.94483,29,0.00716343,10,0.000223223,-2.71112,0.302861,0.194809,14.7807,0.114777,
2,1,0,1,0,56289.5,0.116658,0.116306,1.96977,29,0.00731111,10,0.000229096,-2.70558,0.320773,0.183931,14.1069,0.116306,
2,1,0,1,0,56289.6,0.118157,0.11782,1.99071,29,0.00746051,10,0.000234545,-2.70099,0.356491,0.165502,12.8286,0.11782,
2,1,0,1,0,56289.6,0.119655,0.119251,2.00778,29,0.0076113,10,0.00023943,-2.69728,0.458563,0.128663,10.0642,0.119251,
2,1,0,1,0,56289.7,0.121153,0.120833,2.01951,29,0.00776313,10,0.000244023,-2.69475,0.523593,0.112683,8.88468,0.120833,
2,1,0,1,0,56289.8,0.122653,0.122286,2.03084,29,0.00791616,10,0.000248343,-2.69232,0.519568,0.113556,9.00262,0.122286,
2,1,0,1,0,56289.9,0.124149,0.123809,2.04499,29,0.00806974,10,0.000253189,-2.68931,0.612749,0.0962874,7.67924,0.123809,
2,1,0,1,0,56289.9,0.125648,0.125286,2.05523,29,0.00822456,10,0.000257492,-2.68714,0.911555,0.0647245,5.18461,0.125286,
2,1,0,1,0,56290,0.127146,0.126798,2.06235,29,0.00837981,10,0.000261501,-2.68564,0.863695,0.0683111,5.49278,0.126798,
2,1,0,1,0,56290.1,0.128644,0.128257,2.06865,29,0.00853557,10,0.000265319,-2.68431,0.812886,0.0725809,5.86215,0.128257,
2,1,0,1,0,56290.2,0.130142,0.129782,2.07631,29,0.00869197,10,0.000269468,-2.68271,1.01509,0.058123,4.71016,0.129782,
2,1,0,1,0,56290.2,0.13164,0.13129,2.08315,29,0.00884893,10,0.000273496,-2.68128,4.07375,0.014483,1.17494,0.13129,
2,1,0,1,0,56290.3,0.133139,0.132794,2.08313,29,0.0090062,10,0.000276628,-2.68128,7.7998,0.00756429,0.61483,0.132794,
2,1,0,1,0,56290.4,0.134637,0.13425,2.08535,29,0.00916337,10,0.000279958,-2.68082,-2.98949,-0.0197358,-1.60421,0.13425,
2,1,0,1,0,56290.5,0.136135,0.135765,2.08213,29,0.00932047,10,0.000282681,-2.68149,-1.30395,-0.0452472,-3.6667,0.135765,
2,1,0,1,0,56290.5,0.137633,0.137304,2.07513,29,0.00947717,10,0.000284923,-2.68295,-0.544731,-0.10831,-8.72856,0.137304,
2,1,0,1,0,56290.6,0.139133,0.138778,2.05796,29,0.00963316,10,0.000285599,-2.68656,-0.350387,-0.168385,-13.4593,0.138778,
2,1,0,1,0,56290.7,0.140628,0.140267,2.03059,29,0.00978706,10,0.000284824,-2.69238,-0.256456,-0.230059,-18.1772,0.140267,
2,1,0,1,0,56290.8,0.142128,0.141795,1.99928,29,0.00993926,10,0.000283487,-2.69913,-0.196494,-0.300263,-23.3399,0.141795,
2,1,0,1,0,56290.8,0.143626,0.143292,1.95954,29,0.0100887,10,0.000280786,-2.70785,-0.153652,-0.383985,-29.2449,0.143292,
2,1,0,1,0,56290.9,0.145124,0.144772,1.90714,29,0.0102347,10,0.000276101,-2.71962,-0.118994,-0.495825,-36.8106,0.144772,
2,1,0,1,0,56291,0.146622,0.146264,1.84887,29,0.0103766,10,0.000270424,-2.73309,-0.10345,-0.570322,-41.0794,0.146264,
2,1,0,1,0,56291.1,0.14812,0.14777,1.78772,29,0.0105139,10,0.000264171,-2.7477,-0.0964376,-0.611795,-42.5942,0.14777,
2,1,0,1,0,56291.1,0.149619,0.149281,1.72558,29,0.0106464,10,0.000257597,-2.76306,-0.0889214,-0.663507,-44.4944,0.149281,
2,1,0,1,0,56291.2,0.151117,0.150734,1.65343,29,0.0107739,10,0.000249228,-2.78161,-0.0817635,-0.721593,-46.4518,0.150734,
2,1,0,1,0,56291.3,0.152615,0.152267,1.58179,29,0.0108962,10,0.000240855,-2.80085,-0.0805478,-0.732484,-45.345,0.152267,
2,1,0,1,0,56291.4,0.154113,0.153754,1.5198,29,0.0110133,10,0.000233675,-2.81821,-0.0841686,-0.700974,-41.6584,0.153754,
2,1,0,1,0,56291.4,0.155613,0.155295,1.45956,29,0.011126,10,0.000226663,-2.83578,-0.086622,-0.68112,-38.8449,0.155295,
2,1,0,1,0,56291.5,0.157108,0.156736,1.40159,29,0.0112341,10,0.000219679,-2.85338,-0.0887953,-0.66445,-36.4132,0.156736,
2,1,0,1,0,56291.6,0.158608,0.158269,1.34883,29,0.0113384,10,0.000213479,-2.87004,-0.0952471,-0.619441,-32.7405,0.158269,
2,1,0,1,0,56291.7,0.160106,0.159799,1.30292,29,0.0114386,10,0.000208205,-2.88508,-0.102692,-0.574536,-29.3468,0.159799,
2,1,0,1,0,56291.7,0.161604,0.161238,1.2624,29,0.0115357,10,0.000203547,-2.8988,-0.114012,-0.517488,-25.5509,0.161238,
2,1,0,1,0,56291.8,0.163102,0.162768,1.22388,29,0.01163,10,0.000199209,-2.91226,-0.124169,-0.475161,-22.7895,0.162768,
2,1,0,1,0,56291.9,0.164601,0.164269,1.19436,29,0.0117217,10,0.000196196,-2.92287,-0.132253,-0.446116,-20.8449,0.164269,
2,1,0,1,0,56292,0.166099,0.165726,1.16666,29,0.011811,10,0.000193345,-2.93306,-0.156664,-0.376602,-17.2056,0.165726,
2,1,0,1,0,56292,0.167597,0.167226,1.14254,29,0.0118984,10,0.000191063,-2.94213,-0.180151,-0.327504,-14.6134,0.167226,
2,1,0,1,0,56292.1,0.169095,0.168729,1.12174,29,0.0119843,10,0.000189269,-2.95011,-0.19107,-0.308787,-13.5151,0.168729,
2,1,0,1,0,56292.2,0.170593,0.170268,1.1027,29,0.0120686,10,0.000187755,-2.95754,-0.215829,-0.273364,-11.788,0.170268,
2,1,0,1,0,56292.3,0.172092,0.171735,1.08326,29,0.0121516,10,0.000186034,-2.96527,-0.243119,-0.24268,-10.304,0.171735,
2,1,0,1,0,56292.3,0.173588,0.173236,1.07018,29,0.0122331,10,0.000185395,-2.97054,-0.303428,-0.194445,-8.12919,0.173236,
2,1,0,1,0,56292.4,0.175088,0.174746,1.05703,29,0.0123139,10,0.000184711,-2.97591,-0.310749,-0.189864,-7.83416,0.174746,
2,1,0,1,0,56292.5,0.176586,0.176209,1.04649,29,0.0123938,10,0.000184401,-2.98027,-0.318992,-0.184958,-7.55075,0.176209,
2,1,0,1,0,56292.6,0.178084,0.177694,1.03286,29,0.0124728,10,0.000183532,-2.98596,-0.333746,-0.176781,-7.15613,0.177694,
2,1,0,1,0,56292.6,0.179582,0.179248,1.02596,29,0.0125509,10,0.000183902,-2.98887,-0.409478,-0.144086,-5.78801,0.179248,
2,1,0,1,0,56292.7,0.181081,0.180722,1.01783,29,0.0126286,10,0.000183944,-2.99233,-0.425365,-0.138705,-5.51446,0.180722,
2,1,0,1,0,56292.8,0.182579,0.182191,1.01051,29,0.0127057,10,0.000184106,-2.99546,-0.44273,-0.133264,-5.25818,0.182191,
2,1,0,1,0,56292.9,0.184077,0.183792,1.00565,29,0.0127822,10,0.000184831,-2.99755,-0.538316,-0.109601,-4.29862,0.183792,
2,1,0,1,0,56292.9,0.185577,0.185235,0.997948,29,0.0128583,10,0.000184855,-3.00089,-0.580572,-0.101624,-3.95983,0.185235,
2,1,0,1,0,56293,0.187073,0.186719,0.991747,29,0.0129337,10,0.000185178,-3.0036,-0.727964,-0.0810479,-3.13537,0.186719,
2,1,0,1,0,56293.1,0.188572,0.188195,0.985899,29,0.013009,10,0.000185542,-3.00617,-0.735164,-0.0802542,-3.09548,0.1881955,
2,1,0,1,0,56293.2,0.19007,0.189701,0.983271,29,0.0130838,10,0.000186527,-3.00733,-0.742043,-0.0795102,-3.05025,0.189701,
2,1,0,1,0,56293.2,0.191568,0.191242,0.975629,29,0.0131583,10,0.000186582,-3.01072,-0.82738,-0.0713094,-2.72021,0.191242,
2,1,0,1,0,56293.3,0.193066,0.192735,0.972991,29,0.0132324,10,0.000187529,-3.01189,-1.10035,-0.0536192,-2.03808,0.192735,
2,1,0,1,0,56293.4,0.194564,0.19418,0.971243,29,0.0133063,10,0.000188596,-3.01267,-0.953819,-0.0618566,-2.3443,0.1941804,
2,1,0,1,0,56293.5,0.196063,0.195695,0.966528,29,0.01338,10,0.000189145,-3.01479,-0.751087,-0.0785528,-2.96479,0.195695,
2,1,0,1,0,56293.5,0.197561,0.197201,0.960614,29,0.0134533,10,0.000189434,-3.01745,-0.850673,-0.0693569,-2.61036,0.197201,
2,1,0,1,0,56293.6,0.199059,0.198702,0.962153,29,0.0135263,10,0.000191182,-3.01676,-1.01938,-0.0578786,-2.17127,0.198702,
2,1,0,1,0,56293.7,0.200557,0.200174,0.957107,29,0.0135992,10,0.000191588,-3.01904,-1.16932,-0.0504566,-1.88813,0.200174,
2,1,0,1,0,56293.8,0.202057,0.201713,0.956086,29,0.0136719,10,0.000192855,-3.0195,-1.08632,-0.0543116,-2.0233,0.201713,
2,1,0,1,0,56293.8,0.203552,0.203207,0.952009,29,0.0137443,10,0.000193455,-3.02136,-1.48401,-0.0397572,-1.47933,0.203207,
2,1,0,1,0,56293.9,0.205052,0.204716,0.947933,29,0.0138166,10,0.000194057,-3.02322,-9.20643,-0.00640856,-0.238177,0.204716,
2,1,0,1,0,56294,0.20655,0.206192,0.946442,29,0.0138886,10,0.000195149,-3.02391,-2.57146,-0.0229441,-0.848906,0.206192,
2,1,0,1,0,56294.1,0.208048,0.207703,0.946999,29,0.0139608,10,0.000196695,-3.02365,-0.993283,-0.059399,-2.19127,0.207703,
2,1,0,1,0,56294.1,0.209546,0.20923,0.94373,29,0.0140326,10,0.000197456,-3.02515,-0.839089,-0.0703144,-2.59002,0.20923,
2,1,0,1,0,56294.2,0.211044,0.210695,0.940789,29,0.0141041,10,0.000198219,-3.02651,-1.35045,-0.0436893,-1.60592,0.210695,
2,1,0,1,0,56294.3,0.212543,0.21221,0.940237,29,0.0141755,10,0.000199528,-3.02676,-3.53098,-0.0167093,-0.611951,0.21221,
2,1,0,1,0,56294.4,0.214041,0.213686,0.939803,29,0.0142469,10,0.000200823,-3.02696,-2.10586,-0.0280171,-1.02522,0.213686,
2,1,0,1,0,56294.4,0.215539,0.215207,0.937347,29,0.0143181,10,0.000201723,-3.0281,-1.70186,-0.034668,-1.26548,0.215207,
2,1,0,1,0,56294.5,0.217037,0.216711,0.931601,29,0.014389,10,0.000201888,-3.03077,-1.96078,-0.0300901,-1.09742,0.216711,
2,1,0,1,0,56294.6,0.218536,0.218192,0.931931,29,0.01446,10,0.00020334,-3.03062,29.8896,0.00197393,0.0718474,0.218192,
2,1,0,1,0,56294.7,0.220032,0.219696,0.932091,29,0.0145308,10,0.000204776,-3.03054,-3.22228,-0.01831,-0.665456,0.219696,
2,1,0,1,0,56294.7,0.221532,0.221197,0.928426,29,0.0146017,10,0.000205365,-3.03225,-1.10089,-0.0535932,-1.94007,0.2211967,
2,1,0,1,0,56294.8,0.22303,0.222726,0.923949,29,0.0146722,10,0.000205787,-3.03435,-1.30045,-0.045369,-1.64221,0.222726,
2,1,0,1,0,56294.9,0.224528,0.224154,0.926368,29,0.0147426,10,0.000207649,-3.03322,-1.42797,-0.0413173,-1.49456,0.224154,
2,1,0,1,0,56295,0.226026,0.225672,0.924155,29,0.0148129,10,0.000208555,-3.03426,-3.4061,-0.0173219,-0.625029,0.225672,
2,1,0,1,0,56295,0.227525,0.227159,0.922921,29,0.0148832,10,0.00020965,-3.03484,-1.49539,-0.0394545,-1.41934,0.227159,
2,1,0,1,0,56295.1,0.229023,0.228669,0.921557,29,0.0149533,10,0.000210732,-3.03548,-2.06039,-0.0286354,-1.0305,0.228669,
2,1,0,1,0,56295.2,0.230521,0.230194,0.921561,29,0.0150233,10,0.000212138,-3.03548,-3.50528,-0.0168318,-0.606314,0.230194,
2,1,0,1,0,56295.3,0.232019,0.231648,0.920781,29,0.0150932,10,0.000213297,-3.03584,-2.72914,-0.0216185,-0.77579,0.231648,
2,1,0,1,0,56295.3,0.233517,0.23324,0.918923,29,0.0151631,10,0.00021433,-3.03672,-67.6848,-0.000871688,-0.0312009,0.23324,
2,1,0,1,0,56295.4,0.235016,0.23466,0.917056,29,0.015233,10,0.000215196,-3.0376,-2.45915,-0.023992,-0.858355,0.23466,
2,1,0,1,0,56295.5,0.236512,0.236173,0.91482,29,0.0153025,10,0.000216056,-3.03866,-1.85058,-0.0318819,-1.14016,0.236173,
2,1,0,1,0,56295.6,0.238012,0.237673,0.915824,29,0.0153721,10,0.000217666,-3.03819,7.73301,0.00762963,0.272198,0.237673,
2,1,0,1,0,56295.6,0.23951,0.239158,0.915388,29,0.0154416,10,0.000218922,-3.0384,-1.99952,-0.029507,-1.05202,0.239158,
2,1,0,1,0,56295.7,0.241008,0.240651,0.911856,29,0.015511,10,0.000219439,-3.04007,-4.86416,-0.0121295,-0.431618,0.240651,
2,1,0,1,0,56295.8,0.242506,0.242154,0.909062,29,0.0155803,10,0.000220133,-3.04141,-2.2295,-0.0264634,-0.942117,0.242154,
2,1,0,1,0,56295.9,0.244005,0.243637,0.911056,29,0.0156495,10,0.000221967,-3.04045,-6.57494,-0.00897347,-0.319287,0.243637,
2,1,0,1,0,56295.9,0.245503,0.245178,0.912221,29,0.0157187,10,0.000223656,-3.0399,-9.65128,-0.00611318,-0.216941,0.245178,
2,1,0,1,0,56296,0.247001,0.246632,0.908256,29,0.0157879,10,0.000224005,-3.04179,-1.85659,-0.0317786,-1.12444,0.246632,
2,1,0,1,0,56296.1,0.248501,0.248179,0.906454,29,0.015857,10,0.000224963,-3.04265,-1.83534,-0.0321467,-1.13785,0.248179,
2,1,0,1,0,56296.2,0.249997,0.249661,0.906664,29,0.0159258,10,0.000226358,-3.04255,-2.5343,-0.0232806,-0.824005,0.249661,
2,1,0,1,0,56296.2,0.251496,0.251136,0.905389,29,0.0159947,10,0.000227376,-3.04316,-3.76533,-0.0156693,-0.553589,0.251136,
2,1,0,1,0,56296.3,0.252994,0.252611,0.904312,29,0.0160635,10,0.000228439,-3.04368,-1.3813,-0.0427133,-1.50461,0.252611,
2,1,0,1,0,56296.4,0.254492,0.254172,0.902627,29,0.0161322,10,0.000229422,-3.04449,-1.33729,-0.0441191,-1.55603,0.254172,
2,1,0,1,0,56296.5,0.25599,0.255624,0.900028,29,0.0162007,10,0.000230068,-3.04574,-2.43242,-0.0242557,-0.854868,0.255624,
2,1,0,1,0,56296.5,0.257488,0.257184,0.900195,29,0.0162692,10,0.000231516,-3.04566,-4.92578,-0.0119778,-0.420918,0.257184,
2,1,0,1,0,56296.6,0.258987,0.258631,0.901482,29,0.0163378,10,0.000233152,-3.04504,-1.58538,-0.0372151,-1.30506,0.258631,
2,1,0,1,0,56296.7,0.260485,0.260142,0.899388,29,0.0164062,10,0.000233969,-3.04605,-1.24361,-0.0474426,-1.66519,0.260142,
2,1,0,1,0,56296.8,0.261983,0.261641,0.896727,29,0.0164744,10,0.000234621,-3.04734,-2.02014,-0.0292059,-1.02433,0.261641,
2,1,0,1,0,56296.8,0.263481,0.263138,0.896106,29,0.0165425,10,0.000235799,-3.04764,-9.18711,-0.00642204,-0.224619,0.263138,
2,1,0,1,0,56296.9,0.264981,0.264656,0.894905,29,0.0166107,10,0.000236842,-3.04822,-4.5098,-0.0130826,-0.457789,0.264656,
2,1,0,1,0,56297,0.266476,0.266164,0.894539,29,0.0166787,10,0.000238094,-3.0484,-2.41444,-0.0244363,-0.853354,0.266164,
2,1,0,1,0,56297.1,0.267976,0.267642,0.891207,29,0.0167467,10,0.000238524,-3.05002,-4.05836,-0.0145379,-0.506674,0.267642,
2,1,0,1,0,56297.1,0.269474,0.269078,0.89116,29,0.0168145,10,0.000239792,-3.05004,-3.54268,-0.0166541,-0.579915,0.269078,
2,1,0,1,0,56297.2,0.270972,0.270664,0.891063,29,0.0168823,10,0.000241179,-3.05009,-5.41646,-0.0108927,-0.378423,0.270664,
2,1,0,1,0,56297.3,0.27247,0.272113,0.890055,29,0.0169501,10,0.000242196,-3.05058,-2.10943,-0.0279696,-0.970105,0.272113,
2,1,0,1,0,56297.4,0.273968,0.273618,0.88864,29,0.0170177,10,0.000243148,-3.05127,-1.43015,-0.0412545,-1.42942,0.273618,
2,1,0,1,0,56297.4,0.275467,0.275105,0.885729,29,0.0170851,10,0.000243668,-3.0527,-1.38946,-0.0424626,-1.46956,0.275105,
2,1,0,1,0,56297.5,0.276965,0.276621,0.88627,29,0.0171525,10,0.000245161,-3.05243,-2.67005,-0.0220969,-0.763376,0.276621,
2,1,0,1,0,56297.6,0.278463,0.27812,0.884629,29,0.0172198,10,0.000246033,-3.05324,-1.63437,-0.0360995,-1.24569,0.2781195,
2,1,0,1,0,56297.7,0.279961,0.279631,0.883604,29,0.0172871,10,0.000247084,-3.05374,-1.85269,-0.0318456,-1.09773,0.279631,
2,1,0,1,0,56297.7,0.28146,0.281097,0.882751,29,0.0173542,10,0.000248139,-3.05416,-2.64292,-0.0223238,-0.768498,0.281097,
2,1,0,1,0,56297.8,0.282956,0.282613,0.882173,29,0.0174211,10,0.000249313,-3.05445,-5.87906,-0.0100356,-0.344687,0.282613,
2,1,0,1,0,56297.9,0.284456,0.284121,0.880403,29,0.0174881,10,0.000250141,-3.05532,-2.2268,-0.0264955,-0.908717,0.284121,
2,1,0,1,0,56298,0.285954,0.285609,0.878918,29,0.017555,10,0.000251027,-3.05605,-1.02099,-0.0577871,-1.98029,0.2856091,
2,1,0,1,0,56298,0.287452,0.287139,0.874665,29,0.0176216,10,0.000251151,-3.05816,-2.04961,-0.028786,-0.983881,0.287139,
2,1,0,1,0,56298.1,0.28895,0.288595,0.87351,29,0.0176881,10,0.000252091,-3.05873,-2.63808,-0.0223648,-0.762716,0.288595,
2,1,0,1,0,56298.2,0.290449,0.29011,0.874435,29,0.0177546,10,0.000253683,-3.05827,-2.95602,-0.0199593,-0.68049,0.2901105,
2,1,0,1,0,56298.3,0.291947,0.291593,0.872236,29,0.017821,10,0.000254338,-3.05937,-1.73031,-0.0340979,-1.16023,0.291593,
2,1,0,1,0,56298.3,0.293445,0.293069,0.868556,29,0.0178873,10,0.000254547,-3.0612,-2.6533,-0.0222365,-0.75494,0.293069,
2,1,0,1,0,56298.4,0.294943,0.294573,0.868089,29,0.0179534,10,0.000255716,-3.06144,-2.3927,-0.0246583,-0.836897,0.294573,
2,1,0,1,0,56298.5,0.296441,0.296045,0.868613,29,0.0180194,10,0.000257148,-3.06117,-2.90968,-0.0202772,-0.686648,0.296045,
2,1,0,1,0,56298.6,0.29794,0.297632,0.867031,29,0.0180855,10,0.000258056,-3.06197,-8.93905,-0.00660026,-0.223286,0.297632,
2,1,0,1,0,56298.6,0.299436,0.299152,0.862423,29,0.0181513,10,0.000257995,-3.06428,-0.00464707,-12.6962,-286.691,0.299152,
2,1,0,1,0,56298.7,0.299739,0.299424,0.612071,29,0.0181853,10,0.000183269,-3.2132,0.00101356,58.2104,666.585,0.299424,
2,1,0,1,0,56298.8,0.298239,0.297898,0.119423,29,0.0182075,10,3.5576e-05,-3.92291,0.00326061,18.0948,242.066,0.297898,
2,0,0,1,0,56298.8,0.296741,0.296385,-0.028047,29,0.0182091,10,-8.31271e-06,-4.55211,0.0150018,3.93285,83.0102,0.296385,
2,0,0,1,0,56298.9,0.295243,0.294891,-0.101542,29,0.018203,10,-2.99438e-05,-3.99336,-0.00321408,-18.3567,41.5802,0.294891,
2,0,0,1,0,56299,0.293745,0.293428,-0.147583,29,0.0181926,10,-4.3305e-05,-3.83096,-0.0110962,-5.31716,26.3864,0.293428,
2,0,0,1,0,56299.1,0.292246,0.291872,-0.180338,29,0.0181794,10,-5.26355e-05,-3.74391,-0.0186926,-3.15633,20.9967,0.291872,
2,0,0,1,0,56299.1,0.290748,0.290397,-0.206011,29,0.0181639,10,-5.98248e-05,-3.68611,-0.0270409,-2.18188,17.0286,0.290397,
2,0,0,1,0,56299.2,0.28925,0.288922,-0.228198,29,0.0181465,10,-6.59314e-05,-3.64169,-0.0366388,-1.61031,14.1335,0.288922,
2,0,0,1,0,56299.3,0.287752,0.287439,-0.249979,29,0.0181275,10,-7.18537e-05,-3.6021,-0.0481089,-1.22638,11.7935,0.2874392,
2,0,0,1,0,56299.4,0.286254,0.285881,-0.264955,29,0.0181072,10,-7.57455e-05,-3.57683,-0.0571584,-1.03222,10.6236,0.285881,
2,0,0,1,0,56299.4,0.284754,0.284421,-0.282118,29,0.0180857,10,-8.02404e-05,-3.54957,-0.058808,-1.00326,10.9673,0.284421,
2,0,0,1,0,56299.5,0.283259,0.282891,-0.296262,29,0.018063,10,-8.38096e-05,-3.52832,-0.0711497,-0.829237,9.53744,0.282891,
2,0,0,1,0,56299.6,0.281759,0.281424,-0.308477,29,0.0180392,10,-8.68127e-05,-3.51078,-0.0846165,-0.697263,8.36424,0.281424,
2,0,0,1,0,56299.7,0.280261,0.279855,-0.319997,29,0.0180145,10,-8.95529e-05,-3.49485,-0.09192,-0.641863,8.02945,0.279855,
2,0,0,1,0,56299.7,0.278763,0.278423,-0.332867,29,0.017989,10,-9.26776e-05,-3.47773,-0.104524,-0.564462,7.33237,0.278423,
2,0,0,1,0,56299.8,0.277264,0.276901,-0.344375,29,0.0179626,10,-9.53579e-05,-3.46297,-0.103549,-0.569779,7.62451,0.276901,
2,0,0,1,0,56299.9,0.275766,0.275403,-0.355581,29,0.0179353,10,-9.7928e-05,-3.44906,-0.142879,-0.412935,5.70983,0.275403,
2,0,0,1,0,56300,0.274268,0.273915,-0.365952,29,0.0179073,10,-0.00010024,-3.43658,-0.129167,-0.456774,6.50275,0.273915,
2,0,0,1,0,56300,0.27277,0.272411,-0.373428,29,0.0178787,10,-0.000101726,-3.42779,-0.132178,-0.446368,6.54017,0.272411,
2,0,0,1,0,56300.1,0.271272,0.270916,-0.385068,29,0.0178492,10,-0.000104321,-3.41446,-0.136659,-0.431732,6.45724,0.2709161,
2,0,0,1,0,56300.2,0.269774,0.269433,-0.393833,29,0.017819,10,-0.000106112,-3.40469,-0.160837,-0.366831,5.62354,0.2694329,
2,0,0,1,0,56300.3,0.268274,0.267905,-0.402439,29,0.0177881,10,-0.000107815,-3.3953,-0.178501,-0.330531,5.18089,0.267905,
2,0,0,1,0,56300.3,0.266779,0.266452,-0.407831,29,0.0177569,10,-0.000108667,-3.38952,-0.165257,-0.357019,5.69677,0.266452,
2,0,0,1,0,56300.4,0.265279,0.2649,-0.416496,29,0.0177249,10,-0.00011033,-3.38039,-0.182549,-0.323201,5.22968,0.2649,
2,0,0,1,0,56300.5,0.263781,0.263396,-0.425909,29,0.0176923,10,-0.000112183,-3.37068,-0.176363,-0.334537,5.55166,0.2633957,
2,0,0,1,0,56300.6,0.262283,0.261965,-0.433621,29,0.0176591,10,-0.000113594,-3.36289,-0.214031,-0.275661,4.65886,0.261965,
2,0,0,1,0,56300.6,0.260784,0.260462,-0.437416,29,0.0176254,10,-0.00011393,-3.35911,-0.221598,-0.266247,4.55798,0.260462,
2,0,0,1,0,56300.7,0.259286,0.258964,-0.446694,29,0.0175912,10,-0.000115677,-3.34999,-0.216409,-0.272632,4.75616,0.258964,
2,0,0,1,0,56300.8,0.257788,0.257432,-0.456175,29,0.0175564,10,-0.000117434,-3.34087,-0.223144,-0.264403,4.66825,0.257432,
2,0,0,1,0,56300.9,0.25629,0.255977,-0.462149,29,0.017521,10,-0.0001183,-3.33522,-0.251733,-0.234375,4.21168,0.255977,
2,0,0,1,0,56300.9,0.25479,0.254444,-0.466984,29,0.0174851,10,-0.000118821,-3.3307,-0.226003,-0.261059,4.75506,0.254444,
2,0,0,1,0,56301,0.253294,0.25291,-0.473016,29,0.0174489,10,-0.00011963,-3.32512,-0.255573,-0.230853,4.27772,0.25291,
2,0,0,1,0,56301.1,0.251795,0.251448,-0.481388,29,0.017412,10,-0.000121044,-3.3175,-0.223799,-0.263629,4.94173,0.251448,
2,0,0,1,0,56301.2,0.250297,0.249934,-0.488627,29,0.0173747,10,-0.000122124,-3.31102,-0.252114,-0.234021,4.4407,0.249934,
2,0,0,1,0,56301.2,0.248799,0.248452,-0.492684,29,0.0173369,10,-0.000122409,-3.30743,-0.324316,-0.181921,3.50841,0.248452,
2,0,0,1,0,56301.3,0.247301,0.246919,-0.497606,29,0.0172987,10,-0.000122868,-3.30311,-0.295115,-0.199922,3.89455,0.246919,
2,0,0,1,0,56301.4,0.245802,0.245463,-0.505837,29,0.01726,10,-0.000124165,-3.29599,-0.262137,-0.225073,4.44044,0.245463,
2,0,0,1,0,56301.5,0.244304,0.243937,-0.513636,29,0.0172208,10,-0.000125295,-3.28934,-0.299939,-0.196706,3.92617,0.243937,
2,0,0,1,0,56301.5,0.242806,0.24248,-0.518991,29,0.0171812,10,-0.000125845,-3.28484,-0.358289,-0.164671,3.32725,0.2424805,
2,0,0,1,0,56301.6,0.241308,0.240944,-0.520544,29,0.0171412,10,-0.000125422,-3.28354,-0.35857,-0.164543,3.35887,0.240944,
2,0,0,1,0,56301.7,0.23981,0.239455,-0.527672,29,0.0171009,10,-0.000126354,-3.27764,-0.280058,-0.210671,4.34739,0.239455,
2,0,0,1,0,56301.8,0.23831,0.237944,-0.535275,29,0.01706,10,-0.000127366,-3.27142,-0.285476,-0.206673,4.30458,0.237944,
2,0,0,1,0,56301.8,0.236815,0.236479,-0.539627,29,0.0170188,10,-0.000127611,-3.26791,-0.355317,-0.166049,3.48528,0.236479,
2,0,0,1,0,56301.9,0.235315,0.234931,-0.541149,29,0.0169771,10,-0.000127133,-3.26668,-0.326126,-0.180912,3.84097,0.234931,
2,0,0,1,0,56302,0.233817,0.233457,-0.549318,29,0.0169352,10,-0.000128242,-3.26018,-0.346761,-0.170146,3.65349,0.233457,
2,0,0,1,0,56302.1,0.232319,0.231941,-0.55526,29,0.0168927,10,-0.000128787,-3.2555,-0.363873,-0.162145,3.50951,0.231941,
2,0,0,1,0,56302.1,0.230821,0.230467,-0.560106,29,0.0168499,10,-0.000129086,-3.25173,-0.443924,-0.132906,2.89724,0.230467,
2,0,0,1,0,56302.2,0.229322,0.228998,-0.563848,29,0.0168066,10,-0.00012912,-3.24884,-0.406564,-0.145118,3.19637,0.2289983,
2,0,0,1,0,56302.3,0.227824,0.227443,-0.570038,29,0.016763,10,-0.000129651,-3.2441,-0.356881,-0.165321,3.68131,0.227443,
2,0,0,1,0,56302.4,0.226326,0.225943,-0.575085,29,0.0167191,10,-0.000129936,-3.24027,-0.375637,-0.157067,3.53023,0.225943,
2,0,0,1,0,56302.4,0.224828,0.224485,-0.580596,29,0.0166746,10,-0.000130335,-3.23613,-0.384457,-0.153463,3.47846,0.2244845,
2,0,0,1,0,56302.5,0.22333,0.223011,-0.587367,29,0.0166298,10,-0.000130989,-3.23109,-0.413686,-0.14262,3.25814,0.223011,
2,0,0,1,0,56302.6,0.22183,0.22147,-0.59228,29,0.0165846,10,-0.000131173,-3.22747,-0.411135,-0.143505,3.31501,0.22147,
2,0,0,1,0,56302.7,0.220335,0.219998,-0.598478,29,0.0165391,10,-0.000131664,-3.22295,-0.303653,-0.194301,4.51319,0.219998,
2,0,0,1,0,56302.7,0.218835,0.218452,-0.601544,29,0.016493,10,-0.000131408,-3.22073,-0.35193,-0.167647,3.9352,0.218452,
2,0,0,1,0,56302.8,0.217337,0.216976,-0.607173,29,0.0164466,10,-0.000131742,-3.21669,-0.721086,-0.0818211,1.94085,0.216976,
2,0,0,1,0,56302.9,0.215839,0.215511,-0.610885,29,0.0163999,10,-0.000131652,-3.21404,-0.417196,-0.14142,3.38374,0.215511,
2,0,0,1,0,56303,0.21434,0.214005,-0.615829,29,0.0163529,10,-0.000131791,-3.21054,-0.340209,-0.173423,4.16773,0.214005,
2,0,0,1,0,56303,0.212842,0.21254,-0.623483,29,0.0163054,10,-0.000132515,-3.20518,-0.385231,-0.153155,3.71856,0.21254,
2,0,0,1,0,56303.1,0.211344,0.21102,-0.627197,29,0.0162575,10,-0.000132351,-3.2026,-0.556926,-0.105939,2.58682,0.21102,
2,0,0,1,0,56303.2,0.209846,0.209472,-0.631588,29,0.0162094,10,-0.0001323,-3.19957,-0.524183,-0.112556,2.7779,0.209472,
2,0,0,1,0,56303.3,0.208348,0.208013,-0.636984,29,0.0161609,10,-0.000132501,-3.19587,-0.313147,-0.18841,4.69529,0.208013,
2,0,0,1,0,56303.3,0.20685,0.206485,-0.646368,29,0.0161119,10,-0.000133465,-3.18952,-0.41729,-0.141389,3.53916,0.206485,
2,0,0,1,0,56303.4,0.20535,0.204995,-0.64853,29,0.0160623,10,-0.000132946,-3.18807,-0.520689,-0.113311,2.85531,0.204995,
2,0,0,1,0,56303.5,0.203855,0.203504,-0.651844,29,0.0160126,10,-0.000132653,-3.18586,-0.497246,-0.118654,3.02679,0.203504,
2,0,0,1,0,56303.6,0.202355,0.202022,-0.657894,29,0.0159625,10,-0.000132909,-3.18184,-0.474787,-0.124266,3.18407,0.202022,
2,0,0,1,0,56303.6,0.200857,0.200487,-0.66233,29,0.0159121,10,-0.000132788,-3.17893,-0.497159,-0.118674,3.05887,0.200487,
2,0,0,1,0,56303.7,0.199359,0.198999,-0.666892,29,0.0158612,10,-0.000132711,-3.17594,-0.499142,-0.118203,3.07388,0.198999,
2,0,0,1,0,56303.8,0.19786,0.1975,-0.673008,29,0.01581,10,-0.000132919,-3.17198,-0.423271,-0.139391,3.658,0.1975,
2,0,0,1,0,56303.9,0.196362,0.196006,-0.675823,29,0.0157585,10,-0.000132465,-3.17017,-0.374468,-0.157557,4.16758,0.196006,
2,0,0,1,0,56303.9,0.194864,0.194514,-0.682129,29,0.0157065,10,-0.000132683,-3.16613,-0.348694,-0.169203,4.50296,0.194514,
2,0,0,1,0,56304,0.193366,0.192973,-0.687776,29,0.015654,10,-0.000132722,-3.16255,-0.402398,-0.146621,3.93646,0.192973,
2,0,0,1,0,56304.1,0.191866,0.191483,-0.695859,29,0.015601,10,-0.000133245,-3.15748,-0.571195,-0.103292,2.80301,0.191483,
2,0,0,1,0,56304.1,0.19037,0.189992,-0.697953,29,0.0155478,10,-0.000132606,-3.15617,-0.422362,-0.139691,3.82148,0.189992,
2,0,0,1,0,56304.2,0.188871,0.188522,-0.704508,29,0.0154941,10,-0.000132815,-3.15211,-0.33663,-0.175267,4.81603,0.188522,
2,0,0,1,0,56304.3,0.187373,0.187002,-0.711135,29,0.0154399,10,-0.000132983,-3.14805,-0.378465,-0.155893,4.3306,0.187002,
2,0,0,1,0,56304.4,0.185875,0.185528,-0.71852,29,0.0153853,10,-0.000133306,-3.14356,-0.51619,-0.114299,3.192,0.185528,
2,0,0,1,0,56304.4,0.184377,0.184017,-0.721981,29,0.0153302,10,-0.000132857,-3.14147,-0.395578,-0.149149,4.2045,0.184017,
2,0,0,1,0,56304.5,0.182878,0.182515,-0.728532,29,0.0152748,10,-0.000132968,-3.13755,-0.364219,-0.161991,4.62083,0.182515,
2,0,0,1,0,56304.6,0.18138,0.181005,-0.73804,29,0.0152188,10,-0.000133589,-3.13192,-0.351584,-0.167812,4.82396,0.181005,
2,0,0,1,0,56304.7,0.179882,0.17952,-0.743292,29,0.0151622,10,-0.000133436,-3.12884,-0.459195,-0.128486,3.72278,0.17952,
2,0,0,1,0,56304.7,0.178384,0.17799,-0.749067,29,0.0151052,10,-0.000133326,-3.12548,-0.457864,-0.128859,3.77574,0.17799,
2,0,0,1,0,56304.8,0.176886,0.176535,-0.755799,29,0.0150479,10,-0.000133425,-3.12159,-0.365519,-0.161414,4.77268,0.176535,
2,0,0,1,0,56304.9,0.175386,0.175035,-0.762876,29,0.0149898,10,-0.00013353,-3.11755,-0.342308,-0.172359,5.12991,0.175035,
2,0,0,1,0,56305,0.173891,0.173513,-0.77225,29,0.0149313,10,-0.000133995,-3.11224,-0.382662,-0.154183,4.6386,0.173513,
2,0,0,1,0,56305,0.172391,0.172052,-0.778923,29,0.0148721,10,-0.000134016,-3.10851,-0.372691,-0.158308,4.80757,0.1720524,
2,0,0,1,0,56305.1,0.170893,0.170592,-0.785742,29,0.0148124,10,-0.000134042,-3.10472,-0.317746,-0.185683,5.69122,0.170592,
2,0,0,1,0,56305.2,0.169395,0.169049,-0.794042,29,0.0147521,10,-0.000134232,-3.10016,-0.255431,-0.230982,7.15921,0.169049,
2,0,0,1,0,56305.3,0.167897,0.167535,-0.804532,29,0.0146911,10,-0.000134787,-3.09446,-0.290171,-0.203329,6.38419,0.167535,
2,0,0,1,0,56305.3,0.166398,0.166007,-0.814458,29,0.0146293,10,-0.000135206,-3.08913,-0.328615,-0.179541,5.71735,0.166007,
2,0,0,1,0,56305.4,0.1649,0.16453,-0.821831,29,0.0145669,10,-0.000135216,-3.08522,-0.256553,-0.229972,7.3942,0.1645304,
2,0,0,1,0,56305.5,0.163402,0.163027,-0.834522,29,0.0145037,10,-0.00013605,-3.07856,-0.252276,-0.233871,7.62173,0.163027,
2,0,0,1,0,56305.6,0.161904,0.161482,-0.847636,29,0.0144396,10,-0.000136878,-3.07179,-0.246543,-0.239309,7.90408,0.161482,
2,0,0,1,0,56305.6,0.160406,0.160027,-0.860921,29,0.0143746,10,-0.000137771,-3.06504,-0.25838,-0.228346,7.64675,0.160027,
2,0,0,1,0,56305.7,0.158906,0.158551,-0.870841,29,0.0143086,10,-0.000138072,-3.06006,-0.227956,-0.258822,8.81948,0.158551,
2,0,0,1,0,56305.8,0.157411,0.156978,-0.885652,29,0.0142419,10,-0.000139027,-3.05274,-0.197017,-0.299467,10.3936,0.156978,
2,0,0,1,0,56305.9,0.155911,0.15552,-0.900824,29,0.0141738,10,-0.000140096,-3.04536,-0.191109,-0.308724,10.8889,0.15552,
2,0,0,1,0,56305.9,0.154413,0.154062,-0.916993,29,0.0141044,10,-0.000141274,-3.03763,-0.189792,-0.310867,11.142,0.154062,
2,0,0,1,0,56306,0.152915,0.152529,-0.938835,29,0.0140338,10,-0.000143199,-3.02741,-0.170106,-0.346843,12.6972,0.152529,
2,0,0,1,0,56306.1,0.151417,0.151093,-0.957936,29,0.0139618,10,-0.000144738,-3.01866,-0.151916,-0.388374,14.5452,0.151093,
2,0,0,1,0,56306.2,0.149918,0.149543,-0.982146,29,0.0138881,10,-0.000146873,-3.00782,-0.136247,-0.433038,16.6105,0.149543,
2,0,0,1,0,56306.2,0.14842,0.14811,-1.00833,29,0.0138126,10,-0.000149344,-2.9964,-0.129226,-0.456566,17.9981,0.1481104,
2,0,0,1,0,56306.3,0.146922,0.146554,-1.03332,29,0.013735,10,-0.000151437,-2.98577,-0.117314,-0.502924,20.3715,0.146554,
2,0,0,1,0,56306.4,0.145424,0.145082,-1.0671,29,0.0136552,10,-0.000154817,-2.97179,-0.111574,-0.528796,22.0877,0.145082,
2,0,0,1,0,56306.5,0.143926,0.143543,-1.10038,29,0.0135729,10,-0.000157952,-2.95846,-0.0983177,-0.600095,25.8446,0.143543,
2,0,0,1,0,56306.5,0.142426,0.142053,-1.14339,29,0.0134877,10,-0.000162422,-2.94181,-0.0956886,-0.616584,27.5207,0.142053,
2,0,0,1,0,56306.6,0.140931,0.140556,-1.18388,29,0.0133995,10,-0.000166401,-2.92669,-0.0953504,-0.618771,28.6106,0.140556,
2,0,0,1,0,56306.7,0.139431,0.139089,-1.22562,29,0.0133079,10,-0.000170471,-2.91164,-0.0942901,-0.625728,30.0322,0.139089,
2,0,0,1,0,56306.8,0.137933,0.137571,-1.27736,29,0.013213,10,-0.000175728,-2.89369,-0.0890882,-0.662265,33.0599,0.137571,
2,0,0,1,0,56306.8,0.136435,0.136089,-1.32915,29,0.0131144,10,-0.000180883,-2.87642,-0.0859965,-0.686074,35.5704,0.136089,
2,0,0,1,0,56306.9,0.134936,0.13455,-1.38055,29,0.0130117,10,-0.000185753,-2.85995,-0.0911859,-0.64703,34.8244,0.13455,
2,0,0,1,0,56307,0.133438,0.133043,-1.43577,29,0.012905,10,-0.000191018,-2.84292,-0.0918728,-0.642192,35.9761,0.1330426,
2,0,0,1,0,56307.1,0.13194,0.131612,-1.49013,29,0.0127944,10,-0.000196119,-2.82678,-0.0928977,-0.635107,36.9394,0.1316117,
2,0,0,1,0,56307.1,0.130442,0.130045,-1.54258,29,0.0126797,10,-0.000200605,-2.81175,-0.0967397,-0.609884,36.7573,0.130045,
2,0,0,1,0,56307.2,0.128942,0.128603,-1.60013,29,0.0125606,10,-0.000205782,-2.79584,-0.10121,-0.582945,36.2899,0.1286031,
2,0,0,1,0,56307.3,0.127446,0.127068,-1.65471,29,0.0124377,10,-0.00021026,-2.78128,-0.108912,-0.541723,34.9014,0.127068,
2,0,0,1,0,56307.4,0.125947,0.125599,-1.7029,29,0.0123108,10,-0.000213882,-2.76881,-0.115834,-0.50935,33.8345,0.125599,
2,0,0,1,0,56307.4,0.124449,0.124066,-1.75462,29,0.0121801,10,-0.000217689,-2.75582,-0.12111,-0.487161,33.259,0.1240658,
2,0,0,1,0,56307.5,0.122951,0.122593,-1.80195,29,0.0120456,10,-0.000220906,-2.74426,-0.130842,-0.450926,31.6657,0.122593,
2,0,0,1,0,56307.6,0.121453,0.121076,-1.84774,29,0.0119077,10,-0.000223717,-2.73336,-0.150155,-0.392928,28.2631,0.121076,
2,0,0,1,0,56307.7,0.119955,0.11957,-1.8851,29,0.0117667,10,-0.000225402,-2.72466,-0.16447,-0.358728,26.421,0.11957,
2,0,0,1,0,56307.7,0.118456,0.118095,-1.92536,29,0.0116227,10,-0.000227374,-2.71549,-0.167388,-0.352474,26.4628,0.118095,
2,0,0,1,0,56307.8,0.116958,0.116617,-1.96797,29,0.0114757,10,-0.000229498,-2.70598,-0.197944,-0.298064,22.8025,0.116617,
2,0,0,1,0,56307.9,0.11546,0.115096,-1.99723,29,0.0113261,10,-0.000229874,-2.69957,-0.242595,-0.243204,18.9042,0.115096,
2,0,0,1,0,56308,0.113962,0.113588,-2.02109,29,0.0111744,10,-0.00022957,-2.69442,-0.298708,-0.197517,15.5621,0.113588,
2,0,0,1,0,56308,0.112462,0.11206,-2.04711,29,0.0110208,10,-0.000229399,-2.68886,-0.329053,-0.179303,14.2871,0.11206,
2,0,0,1,0,56308.1,0.110967,0.110644,-2.06609,29,0.0108658,10,-0.0002286,-2.68485,-0.398298,-0.14813,11.9144,0.110644,
2,0,0,1,0,56308.2,0.109467,0.109105,-2.0804,29,0.0107092,10,-0.000226983,-2.68185,-0.612817,-0.0962767,7.79685,0.109105,
2,0,0,1,0,56308.3,0.107969,0.107603,-2.08969,29,0.0105518,10,-0.000224857,-2.67992,-0.937735,-0.0629175,5.12721,0.107603,
2,0,0,1,0,56308.3,0.106471,0.106065,-2.09548,29,0.010394,10,-0.000222258,-2.67872,-1.57646,-0.0374256,3.05847,0.106065,
2,0,0,1,0,56308.4,0.104973,0.104589,-2.0987,29,0.0102358,10,-0.000219501,-2.67805,-4.95372,-0.0119102,0.973578,0.104589,
2,0,0,1,0,56308.5,0.103474,0.103094,-2.09999,29,0.0100774,10,-0.000216497,-2.67778,3.33098,0.0177125,-1.44768,0.103094,
2,0,0,1,0,56308.6,0.101976,0.1016,-2.09382,29,0.0099193,10,-0.000212732,-2.67906,1.12007,0.0526755,-4.30057,0.1015996,
2,0,0,1,0,56308.6,0.100478,0.100102,-2.08557,29,0.00976172,10,-0.000208769,-2.68078,0.914352,0.0645266,-5.25288,0.100102,
2,0,0,1,0,56308.7,0.0989798,0.0986128,-2.08001,29,0.00960465,10,-0.000205115,-2.68193,0.846587,0.0696916,-5.64439,0.0986128,
2,0,0,1,0,56308.8,0.0974817,0.097077,-2.0689,29,0.00944815,10,-0.000200842,-2.68426,0.742216,0.0794917,-6.41586,0.097077,
2,0,0,1,0,56308.9,0.0959821,0.0956057,-2.05855,29,0.00929226,10,-0.000196809,-2.68644,0.595949,0.0990017,-7.95138,0.0956057,
2,0,0,1,0,56308.9,0.0944866,0.0941316,-2.04279,29,0.00913765,10,-0.000192292,-2.68978,0.612723,0.0962915,-7.69027,0.0941316,
2,0,0,1,0,56309,0.0929871,0.0925928,-2.0328,29,0.00898354,10,-0.000188222,-2.69191,0.6925,0.0851986,-6.76788,0.0925928,
2,0,0,1,0,56309.1,0.0914889,0.0911092,-2.02795,29,0.00883033,10,-0.000184765,-2.69294,0.679927,0.086774,-6.85579,0.0911092,
2,0,0,1,0,56309.2,0.0899907,0.0896387,-2.01557,29,0.00867791,10,-0.000180673,-2.6956,0.634545,0.09298,-7.30471,0.08963865,
2,0,0,1,0,56309.2,0.0884925,0.0881726,-2.00045,29,0.00852636,10,-0.000176385,-2.69887,0.693812,0.0850374,-6.64666,0.0881726,
2,0,0,1,0,56309.3,0.0869943,0.0866038,-1.99303,29,0.00837567,10,-0.000172604,-2.70049,0.653127,0.0903347,-7.03127,0.0866038,
2,0,0,1,0,56309.4,0.0854961,0.0851678,-1.98296,29,0.00822564,10,-0.000168885,-2.70269,0.75329,0.0783231,-6.0678,0.0851678,
2,0,0,1,0,56309.5,0.083998,0.0836227,-1.97544,29,0.0080763,10,-0.000165192,-2.70434,0.694722,0.084926,-6.54077,0.0836227,
2,0,0,1,0,56309.5,0.0824998,0.0821098,-1.9685,29,0.00792754,10,-0.000161633,-2.70586,0.714073,0.0826246,-6.33675,0.0821098,
2,0,0,1,0,56309.6,0.081002,0.0806265,-1.95562,29,0.00777959,10,-0.000157675,-2.70872,0.776039,0.0760271,-5.81071,0.08062654,
2,0,0,1,0,56309.7,0.0795025,0.0791301,-1.95105,29,0.00763205,10,-0.000154387,-2.70973,0.927172,0.0636343,-4.84412,0.0791301,
2,0,0,1,0,56309.8,0.078007,0.0776509,-1.9417,29,0.0074854,10,-0.000150775,-2.71182,0.811942,0.0726653,-5.50307,0.07765089,
2,0,0,1,0,56309.8,0.076507,0.0761055,-1.93253,29,0.00733896,10,-0.000147076,-2.71387,0.668905,0.0882039,-6.64969,0.0761055,
2,0,0,1,0,56309.9,0.0750088,0.0747133,-1.92131,29,0.00719354,10,-0.000143548,-2.7164,0.674847,0.0874273,-6.55875,0.0747133,
2,0,0,1,0,56310,0.0735106,0.0731206,-1.91513,29,0.00704872,10,-0.000140035,-2.7178,0.862483,0.0684071,-5.10817,0.0731206,
2,0,0,1,0,56310.1,0.0720124,0.0716287,-1.9054,29,0.00690452,10,-0.000136481,-2.72001,0.829586,0.0711198,-5.29313,0.0716287,
2,0,0,1,0,56310.1,0.0705142,0.0701237,-1.8975,29,0.00676098,10,-0.00013306,-2.72182,0.634165,0.0930357,-6.88546,0.07012374,
2,0,0,1,0,56310.2,0.069016,0.0686557,-1.88379,29,0.00661813,10,-0.000129333,-2.72497,0.713612,0.0826779,-6.0888,0.0686557,
2,0,0,1,0,56310.3,0.0675179,0.0671954,-1.87887,29,0.0064761,10,-0.000126252,-2.7261,0.758274,0.0778083,-5.70561,0.0671954,
2,0,0,1,0,56310.4,0.0660179,0.0657047,-1.87331,29,0.00633447,10,-0.000123085,-2.72739,0.731942,0.0806075,-5.87657,0.0657047,
2,0,0,1,0,56310.4,0.0645224,0.0642048,-1.8612,29,0.0061938,10,-0.000119498,-2.73021,0.670199,0.0880336,-6.38044,0.0642048,
2,0,0,1,0,56310.5,0.0630228,0.0626413,-1.84837,29,0.0060535,10,-0.000115784,-2.73321,0.618041,0.095463,-6.89174,0.0626413,
2,0,0,1,0,56310.6,0.0615251,0.0611657,-1.83802,29,0.00591428,10,-0.000112424,-2.73565,0.630757,0.0935384,-6.72333,0.0611657,
2,0,0,1,0,56310.7,0.0600269,0.0596862,-1.82908,29,0.0057758,10,-0.000109171,-2.73777,0.645863,0.0913507,-6.52352,0.0596862,
2,0,0,1,0,56310.7,0.0585287,0.0581666,-1.82099,29,0.005638,10,-0.000105921,-2.73969,0.542693,0.108717,-7.70989,0.0581666,
2,0,0,1,0,56310.8,0.0570305,0.0566915,-1.80831,29,0.00550089,10,-0.000102516,-2.74273,0.574785,0.102647,-7.24102,0.0566915,
2,0,0,1,0,56310.9,0.0555323,0.0551773,-1.79641,29,0.00536481,10,-9.91213e-05,-2.74559,0.551024,0.107073,-7.52,0.0551773,
2,0,0,1,0,56311,0.0540341,0.053643,-1.78734,29,0.00522946,10,-9.58783e-05,-2.74779,0.670151,0.0880398,-6.13921,0.053643,
2,0,0,1,0,56311,0.052536,0.052171,-1.77758,29,0.0050948,10,-9.27381e-05,-2.75017,0.549901,0.107292,-7.44301,0.052171,
2,0,0,1,0,56311.1,0.0510378,0.050659,-1.76725,29,0.0049609,10,-8.95271e-05,-2.7527,0.507647,0.116223,-8.00858,0.050659,
2,0,0,1,0,56311.2,0.0495382,0.0491983,-1.75432,29,0.00482779,10,-8.63094e-05,-2.75589,0.558965,0.105552,-7.22909,0.0491983,
2,0,0,1,0,56311.3,0.0480427,0.0476673,-1.74202,29,0.00469594,10,-8.30376e-05,-2.75895,0.601832,0.098034,-6.66709,0.0476673,
2,0,0,1,0,56311.3,0.0465432,0.0462189,-1.73359,29,0.00456449,10,-8.01247e-05,-2.76105,0.57546,0.102527,-6.93282,0.0462189,
2,0,0,1,0,56311.4,0.045045,0.0447226,-1.71972,29,0.00443399,10,-7.69102e-05,-2.76454,0.502091,0.117508,-7.88496,0.0447226,
2,0,0,1,0,56311.5,0.0435468,0.0432109,-1.70694,29,0.0043044,10,-7.37582e-05,-2.76778,0.456141,0.129346,-8.62724,0.0432109,
2,0,0,1,0,56311.6,0.0420486,0.0417051,-1.69664,29,0.00417587,10,-7.07587e-05,-2.77041,0.499453,0.118129,-7.83094,0.0417051,
2,0,0,1,0,56311.6,0.0405504,0.0401789,-1.68831,29,0.00404805,10,-6.78344e-05,-2.77255,0.504319,0.11699,-7.68893,0.0401789,
2,0,0,1,0,56311.7,0.0390523,0.0386892,-1.67424,29,0.00392099,10,-6.47749e-05,-2.77618,0.465445,0.12676,-8.26882,0.0386892,
2,0,0,1,0,56311.8,0.0375541,0.0371642,-1.66001,29,0.003795,10,-6.16931e-05,-2.77989,0.422634,0.139601,-9.05196,0.0371642,
2,0,0,1,0,56311.9,0.0360559,0.035706,-1.64734,29,0.00367012,10,-5.88198e-05,-2.78322,0.449948,0.131126,-8.43611,0.035706,
2,0,0,1,0,56311.9,0.0345577,0.0342006,-1.63606,29,0.00354606,10,-5.59541e-05,-2.7862,0.504047,0.117053,-7.46848,0.0342006,
2,0,0,1,0,56312,0.0330582,0.0326877,-1.6249,29,0.0034227,10,-5.31144e-05,-2.78917,0.447902,0.131725,-8.33593,0.0326877,
2,0,0,1,0,56312.1,0.0315626,0.0311913,-1.61266,29,0.00330059,10,-5.03011e-05,-2.79246,0.470822,0.125313,-7.879,0.03119133,
2,0,0,1,0,56312.2,0.0300631,0.0296991,-1.5982,29,0.00317926,10,-4.74652e-05,-2.79637,0.431815,0.136633,-8.53427,0.0296991,
2,0,0,1,0,56312.2,0.0285649,0.0281986,-1.58658,29,0.00305888,10,-4.47394e-05,-2.79954,0.501678,0.117605,-7.28063,0.0281986,
2,0,0,1,0,56312.3,0.0270667,0.0266872,-1.57788,29,0.0029392,10,-4.21092e-05,-2.80193,0.470586,0.125375,-7.70771,0.0266872,
2,0,0,1,0,56312.4,0.0255685,0.0252179,-1.56584,29,0.00282042,10,-3.94871e-05,-2.80525,0.407651,0.144732,-8.83916,0.0252179,
2,0,0,1,0,56312.5,0.0240704,0.0237449,-1.55097,29,0.00270265,10,-3.68276e-05,-2.8094,0.490653,0.120248,-7.29823,0.02374489,
2,0,0,1,0,56312.5,0.0225722,0.0222274,-1.54009,29,0.00258574,10,-3.42321e-05,-2.81245,0.59522,0.099123,-5.96859,0.0222274,
2,0,0,1,0,56312.6,0.021074,0.0207537,-1.53185,29,0.00246948,10,-3.17917e-05,-2.81478,0.539582,0.109344,-6.53439,0.0207537,
2,0,0,1,0,56312.7,0.0195758,0.0192214,-1.52234,29,0.00235394,10,-2.92614e-05,-2.81749,0.511223,0.11541,-6.85015,0.0192214,
2,0,0,1,0,56312.8,0.018078,0.0176761,-1.51156,29,0.00223922,10,-2.67185e-05,-2.82058,0.507663,0.116219,-6.86325,0.0176761,
2,0,0,1,0,56312.8,0.0165785,0.0162184,-1.50325,29,0.00212512,10,-2.43804e-05,-2.82297,0.650345,0.0907211,-5.3247,0.0162184,
2,0,0,1,0,56312.9,0.015083,0.0147104,-1.4966,29,0.00201186,10,-2.20156e-05,-2.82489,0.636992,0.0926228,-5.40386,0.01471037,
2,0,0,1,0,56313,0.013583,0.0132386,-1.48789,29,0.00189877,10,-1.96976e-05,-2.82743,0.659135,0.0895113,-5.19528,0.0132386,
2,0,0,1,0,56313.1,0.0120848,0.01174,-1.4801,29,0.00178649,10,-1.73763e-05,-2.82971,0.681269,0.086603,-5.00895,0.01174,
2,0,0,1,0,56313.1,0.0105866,0.0102448,-1.47168,29,0.00167483,10,-1.5077e-05,-2.83219,0.8105,0.0727946,-4.19054,0.01024479,
2,0,0,1,0,56313.2,0.00908846,0.00872967,-1.46995,29,0.00156348,10,-1.28322e-05,-2.8327,1.30532,0.0451996,-2.59194,0.00872967,
2,0,0,1,0,56313.3,0.00759027,0.00722337,-1.46483,29,0.00145256,10,-1.0581e-05,-2.83421,1.06091,0.0556125,-3.1775,0.00722337,
2,0,0,1,0,56313.4,0.00609208,0.00573296,-1.46064,29,0.00134195,10,-8.37381e-06,-2.83546,0.940444,0.0627364,-3.57282,0.00573296,
2,0,0,1,0,56313.4,0.00459389,0.00422044,-1.45387,29,0.00123179,10,-6.13598e-06,-2.83747,1.299,0.0454196,-2.58003,0.00422044,
2,0,0,1,0,56313.5,0.00309391,0.00274134,-1.45218,29,0.00112168,10,-3.98091e-06,-2.83798,-1.83341,-0.0321805,1.82981,0.00274134,
2,0,0,1,0,56313.6,0.0015984,0.00118564,-1.46561,29,0.00101126,10,-1.73769e-06,-2.83398, , , ,0.00118564,
2,0,0,1,0,56313.7,0.000199195,-0.00021003,-1.45614,29,0.000908111,10,3.05834e-07,-2.8368, , , ,-0.00021003,