File: Figure_codes/Fig_3-5/rawdata_trumpetplot_data/after 10th/20221101_1-115_003_TrumpetPlot_ParaChange_from10_every3_06_CV_C01_26.csv
mode,ox/red,error,control changes,counter inc.,time/s,control/V,Ewe/V,<I>/mA,cycle number,(Q-Qo)/C,I Range,P/W,log(|I|),Tafel slope mV/dec,alpha_eff,dI/d(E-IR),E-IR/V,
2,0,0,0,0,52373.4,2.44065e-05,-0.000439847,-1.39435,27,0.0000000E+000,10,6.13303e-07,-2.85563, , , ,-0.000439847,
2,0,0,1,0,52373.4,0.00129787,0.000919783,-0.421267,27,-2.56083e-05,10,-3.87474e-07,-3.37544, , , ,0.000919783,
2,1,0,1,0,52373.5,0.00279427,0.00242172,0.207923,27,-2.79164e-05,10,5.0353e-07,-3.6821,-0.148053,-0.398507,334.413,0.00242172,
2,1,0,1,0,52373.5,0.00429425,0.00398054,0.577901,27,-1.20436e-05,10,2.30036e-06,-3.23815,0.00300072,19.662,209.934,0.00398054,
2,1,0,1,0,52373.6,0.00579422,0.00546001,0.824669,27,1.51249e-05,10,4.5027e-06,-3.08372,0.011423,5.16502,145.558,0.00546001,
2,1,0,1,0,52373.6,0.00729063,0.00695291,1.00882,27,5.01395e-05,10,7.01424e-06,-2.99619,0.0201866,2.92273,107.968,0.00695291,
2,1,0,1,0,52373.6,0.00878703,0.00842263,1.14132,27,9.09427e-05,10,9.61295e-06,-2.94259,0.0322537,1.82925,78.6865,0.00842263,
2,1,0,1,0,52373.7,0.010287,0.00996693,1.24235,27,0.000136223,10,1.23824e-05,-2.90576,0.0447235,1.31922,62.6065,0.00996693,
2,1,0,1,0,52373.7,0.011787,0.0114664,1.32119,27,0.000184977,10,1.51493e-05,-2.87903,0.0592104,0.996447,50.8884,0.0114664,
2,1,0,1,0,52373.7,0.0132825,0.0129664,1.38935,27,0.000236314,10,1.80149e-05,-2.85719,0.0746393,0.790469,42.8204,0.0129664,
2,1,0,1,0,52373.8,0.014778,0.0144324,1.44845,27,0.000290082,10,2.09046e-05,-2.8391,0.0866863,0.680615,38.3971,0.01443241,
2,1,0,1,0,52373.8,0.0162816,0.0159708,1.50567,27,0.000346324,10,2.40467e-05,-2.82227,0.109884,0.536927,31.3822,0.0159708,
2,1,0,1,0,52373.9,0.017778,0.0174681,1.55227,27,0.000404036,10,2.71153e-05,-2.80903,0.122956,0.479847,28.915,0.0174681,
2,1,0,1,0,52373.9,0.0192744,0.0189517,1.59309,27,0.000463283,10,3.01917e-05,-2.79776,0.136095,0.433521,26.8032,0.0189517,
2,1,0,1,0,52373.9,0.0207743,0.0204817,1.631,27,0.00052426,10,3.34057e-05,-2.78755,0.144437,0.408483,25.9131,0.0204817,
2,1,0,1,0,52374,0.0222743,0.021945,1.66949,27,0.000586724,10,3.66369e-05,-2.77742,0.155209,0.380133,24.7384,0.021945,
2,1,0,1,0,52374,0.0237707,0.0234897,1.70479,27,0.000650398,10,4.0045e-05,-2.76833,0.171695,0.343632,22.8509,0.0234897,
2,1,0,1,0,52374,0.0252671,0.0249601,1.73427,27,0.000715366,10,4.32875e-05,-2.76088,0.167887,0.351427,23.8936,0.0249601,
2,1,0,1,0,52374.1,0.0267671,0.0264441,1.76938,27,0.000781739,10,4.67897e-05,-2.75218,0.171023,0.344983,23.8782,0.0264441,
2,1,0,1,0,52374.1,0.0282671,0.0279433,1.80871,27,0.000849496,10,5.05414e-05,-2.74263,0.174272,0.338551,23.8736,0.0279433,
2,1,0,1,0,52374.2,0.0297626,0.0294446,1.84254,27,0.000918327,10,5.42529e-05,-2.73458,0.200678,0.294004,21.0858,0.0294446,
2,1,0,1,0,52374.2,0.0312581,0.0309114,1.87301,27,0.000988416,10,5.78974e-05,-2.72746,0.207343,0.284552,20.7732,0.03091141,
2,1,0,1,0,52374.2,0.0327616,0.0324333,1.90602,27,0.00106,10,6.18185e-05,-2.71987,0.205731,0.286782,21.3286,0.0324333,
2,1,0,1,0,52374.3,0.034258,0.0338771,1.93835,27,0.00113249,10,6.56658e-05,-2.71257,0.196087,0.300887,22.7561,0.0338771,
2,1,0,1,0,52374.3,0.0357545,0.0354371,1.97175,27,0.00120625,10,6.98733e-05,-2.70515,0.222798,0.264813,20.3895,0.0354371,
2,1,0,1,0,52374.3,0.0372544,0.0368682,2.00268,27,0.00128142,10,7.38351e-05,-2.69839,0.220031,0.268144,21.004,0.0368682,
2,1,0,1,0,52374.4,0.0387544,0.0384102,2.03482,27,0.00135772,10,7.81578e-05,-2.69147,0.215132,0.274251,21.8403,0.0384102,
2,1,0,1,0,52374.4,0.0402508,0.0398961,2.07148,27,0.00143509,10,8.26438e-05,-2.68372,0.211754,0.278626,22.5044,0.0398961,
2,1,0,1,0,52374.5,0.0417472,0.0414377,2.10739,27,0.00151379,10,8.73256e-05,-2.67625,0.216435,0.272599,22.3564,0.04143773,
2,1,0,1,0,52374.5,0.0432472,0.0429542,2.1391,27,0.0015939,10,9.18833e-05,-2.66977,0.231241,0.255145,21.2435,0.0429542,
2,1,0,1,0,52374.5,0.0447472,0.0444336,2.17166,27,0.00167516,10,9.64947e-05,-2.66321,0.222318,0.265385,22.4453,0.0444336,
2,1,0,1,0,52374.6,0.0462427,0.0458662,2.20035,27,0.00175743,10,0.000100921,-2.65751,0.229366,0.257231,22.093,0.0458662,
2,1,0,1,0,52374.6,0.0477382,0.0473948,2.2304,27,0.00184095,10,0.00010571,-2.65162,0.231788,0.254543,22.2048,0.0473948,
2,1,0,1,0,52374.6,0.0492417,0.0488988,2.26083,27,0.00192614,10,0.000110552,-2.64573,0.257817,0.228844,20.2558,0.0488988,
2,1,0,1,0,52374.7,0.0507381,0.0503987,2.29126,27,0.00201198,10,0.000115476,-2.63993,0.25409,0.232201,20.8289,0.0503987,
2,1,0,1,0,52374.7,0.0522345,0.0518633,2.3274,27,0.00209896,10,0.000120707,-2.63313,0.244561,0.241249,21.9184,0.0518633,
2,1,0,1,0,52374.8,0.0537345,0.0533886,2.36601,27,0.00218744,10,0.000126318,-2.62598,0.257096,0.229487,21.1013,0.0533886,
2,1,0,1,0,52374.8,0.0552345,0.054906,2.3943,27,0.00227716,10,0.000131462,-2.62082,0.272967,0.216143,20.1307,0.054906,
2,1,0,1,0,52374.8,0.0567309,0.0564249,2.41706,27,0.0023677,10,0.000136382,-2.61671,0.293928,0.200729,18.94,0.0564249,
2,1,0,1,0,52374.9,0.0582273,0.0578639,2.44797,27,0.00245923,10,0.000141649,-2.61119,0.283741,0.207936,19.8668,0.0578639,
2,1,0,1,0,52374.9,0.0597309,0.0594062,2.47774,27,0.00255243,10,0.000147193,-2.60594,0.286977,0.205591,19.8852,0.0594062,
2,1,0,1,0,52374.9,0.0612264,0.0608732,2.50572,27,0.00264622,10,0.000152531,-2.60107,0.337071,0.175037,17.1318,0.06087321,
2,1,0,1,0,52375,0.0627219,0.0623498,2.53533,27,0.00274109,10,0.000158077,-2.59597,0.349052,0.169029,16.7122,0.0623498,
2,1,0,1,0,52375,0.0642218,0.0639135,2.56177,27,0.00283713,10,0.000163732,-2.59146,0.316197,0.186593,18.6539,0.0639135,
2,1,0,1,0,52375.1,0.0657218,0.0654117,2.59372,27,0.00293425,10,0.00016966,-2.58608,0.296359,0.199083,20.0835,0.0654117,
2,1,0,1,0,52375.1,0.0672182,0.0669092,2.61928,27,0.0030322,10,0.000175254,-2.58182,0.329652,0.178977,18.2472,0.0669092,
2,1,0,1,0,52375.1,0.0687146,0.0684064,2.64208,27,0.00313118,10,0.000180735,-2.57805,0.416551,0.141639,14.5827,0.0684064,
2,1,0,1,0,52375.2,0.0702146,0.0698701,2.66086,27,0.00323122,10,0.000185915,-2.57498,0.389451,0.151495,15.7711,0.0698701,
2,1,0,1,0,52375.2,0.0717146,0.0713716,2.6877,27,0.00333217,10,0.000191825,-2.57062,0.36494,0.16167,16.9851,0.0713716,
2,1,0,1,0,52375.2,0.073211,0.0728865,2.71275,27,0.0034338,10,0.000197723,-2.56659,0.389492,0.151479,16.0561,0.0728865,
2,1,0,1,0,52375.3,0.0747074,0.0744063,2.73578,27,0.00353634,10,0.000203559,-2.56292,0.462713,0.127509,13.609,0.0744063,
2,1,0,1,0,52375.3,0.0762109,0.0758593,2.75639,27,0.00364018,10,0.000209098,-2.55966,0.444563,0.132715,14.2815,0.0758593,
2,1,0,1,0,52375.4,0.0777064,0.0773534,2.77738,27,0.00374421,10,0.00021484,-2.55636,0.431165,0.136838,14.8199,0.07735341,
2,1,0,1,0,52375.4,0.079202,0.0788433,2.80363,27,0.00384907,10,0.000221047,-2.55228,0.450057,0.131095,14.2989,0.0788433,
2,1,0,1,0,52375.4,0.0807019,0.0803584,2.82018,27,0.00395502,10,0.000226625,-2.54972,0.5174,0.114032,12.52,0.0803584,
2,1,0,1,0,52375.5,0.0822019,0.0818822,2.83515,27,0.00406172,10,0.000232148,-2.54742,0.510239,0.115632,12.8098,0.0818822,
2,1,0,1,0,52375.5,0.0836983,0.0833596,2.85216,27,0.00416872,10,0.000237755,-2.54483,0.519149,0.113648,12.6927,0.0833596,
2,1,0,1,0,52375.5,0.0851947,0.0848484,2.87339,27,0.00427651,10,0.000243802,-2.54161,0.526453,0.112071,12.5863,0.0848484,
2,1,0,1,0,52375.6,0.0866947,0.0863415,2.89571,27,0.00438529,10,0.00025002,-2.53825,0.589345,0.100111,11.312,0.08634147,
2,1,0,1,0,52375.6,0.0881947,0.0878443,2.91193,27,0.0044948,10,0.000255797,-2.53582,0.538927,0.109477,12.442,0.0878443,
2,1,0,1,0,52375.6,0.0896911,0.0893287,2.93434,27,0.00460466,10,0.000262121,-2.53249,0.497928,0.118491,13.5601,0.0893287,
2,1,0,1,0,52375.7,0.0911875,0.0908037,2.95725,27,0.00471524,10,0.000268529,-2.52911,0.418972,0.140821,16.2369,0.0908037,
2,1,0,1,0,52375.7,0.0926901,0.0923359,2.98136,27,0.00482738,10,0.000275287,-2.52559,0.371984,0.158609,18.4448,0.0923359,
2,1,0,1,0,52375.8,0.0941856,0.093903,2.99966,27,0.00493984,10,0.000281677,-2.52293,0.416997,0.141488,16.6034,0.093903,
2,1,0,1,0,52375.8,0.095682,0.0953579,3.02743,27,0.00505322,10,0.000288689,-2.51893,0.36576,0.161308,19.1073,0.0953579,
2,1,0,1,0,52375.8,0.097182,0.0968497,3.05783,27,0.00516795,10,0.00029615,-2.51459,0.326407,0.180756,21.6157,0.09684971,
2,1,0,1,0,52375.9,0.098682,0.0983377,3.09136,27,0.00528394,10,0.000303997,-2.50985,0.297004,0.19865,24.0198,0.0983377,
2,1,0,1,0,52375.9,0.100178,0.0998466,3.13014,27,0.0054009,10,0.000312533,-2.50444,0.295222,0.19985,24.4215,0.0998466,
2,1,0,1,0,52375.9,0.101675,0.101335,3.16733,27,0.00551927,10,0.000320963,-2.49931,0.277823,0.212365,26.2693,0.101335,
2,1,0,1,0,52376,0.103175,0.102833,3.21584,27,0.00563947,10,0.000330696,-2.49271,0.237372,0.248555,31.1894,0.102833,
2,1,0,1,0,52376,0.104675,0.104374,3.26388,27,0.00576139,10,0.000340663,-2.48627,0.232322,0.253958,32.3305,0.104374,
2,1,0,1,0,52376.1,0.106171,0.105885,3.31201,27,0.00588492,10,0.000350693,-2.47991,0.22102,0.266944,34.505,0.105885,
2,1,0,1,0,52376.1,0.107667,0.107335,3.3598,27,0.00601035,10,0.000360626,-2.47369,0.221184,0.266747,35.0308,0.107335,
2,1,0,1,0,52376.1,0.10917,0.108832,3.41316,27,0.00613828,10,0.000371462,-2.46684,0.219788,0.268441,35.8364,0.108832,
2,1,0,1,0,52376.2,0.110666,0.110348,3.47065,27,0.0062676,10,0.000382978,-2.45959,0.219066,0.269325,36.4639,0.110348,
2,1,0,1,0,52376.2,0.112162,0.111819,3.52568,27,0.00639899,10,0.000394239,-2.45276,0.223568,0.263902,36.2627,0.111819,
2,1,0,1,0,52376.2,0.113662,0.113346,3.58196,27,0.00653277,10,0.000405999,-2.44588,0.234306,0.251807,35.1284,0.113346,
2,1,0,1,0,52376.3,0.115162,0.114865,3.63058,27,0.00666847,10,0.000417025,-2.44002,0.246685,0.239171,33.8355,0.114865,
2,1,0,1,0,52376.3,0.116658,0.116315,3.67789,27,0.00680568,10,0.000427793,-2.4344,0.253438,0.232799,33.4144,0.116315,
2,1,0,1,0,52376.4,0.118155,0.117792,3.73096,27,0.00694486,10,0.000439479,-2.42818,0.274719,0.214765,31.2217,0.117792,
2,1,0,1,0,52376.4,0.119655,0.119318,3.76961,27,0.00708615,10,0.000449782,-2.4237,0.3297,0.178951,26.3405,0.119318,
2,1,0,1,0,52376.4,0.121155,0.120812,3.80724,27,0.00722889,10,0.000459959,-2.41939,0.361981,0.162992,24.2501,0.120812,
2,1,0,1,0,52376.5,0.122651,0.122311,3.84637,27,0.00737267,10,0.000470452,-2.41495,0.377536,0.156277,23.4424,0.122311,
2,1,0,1,0,52376.5,0.124147,0.123808,3.88407,27,0.00751778,10,0.000480878,-2.41071,0.427506,0.13801,20.8672,0.123808,
2,1,0,1,0,52376.5,0.12565,0.125293,3.91297,27,0.0076648,10,0.000490269,-2.40749,0.498118,0.118446,18.034,0.125293,
2,1,0,1,0,52376.6,0.127146,0.126799,3.93321,27,0.00781205,10,0.000498725,-2.40525,0.580882,0.10157,15.5728,0.1267986,
2,1,0,1,0,52376.6,0.128642,0.128316,3.95302,27,0.00796013,10,0.000507237,-2.40307,0.63727,0.0925825,14.2887,0.128316,
2,1,0,1,0,52376.7,0.130142,0.129836,3.97462,27,0.00810942,10,0.000516049,-2.4007,0.683922,0.0862671,13.3913,0.129836,
2,1,0,1,0,52376.7,0.131642,0.131317,3.99462,27,0.00825951,10,0.000524562,-2.39852,0.833138,0.0708166,11.03,0.131317,
2,1,0,1,0,52376.7,0.133139,0.132833,4.01067,27,0.00840982,10,0.00053275,-2.39678,1.15801,0.0509493,7.97567,0.132833,
2,1,0,1,0,52376.8,0.134635,0.134274,4.02104,27,0.00856049,10,0.000539922,-2.39566,1.35484,0.0435476,6.83155,0.134274,
2,1,0,1,0,52376.8,0.136135,0.135812,4.03445,27,0.00871206,10,0.000547926,-2.39422,1.63671,0.036048,5.66157,0.135812,
2,1,0,1,0,52376.8,0.137635,0.137292,4.04354,27,0.00886397,10,0.000555144,-2.39324,6.00456,0.00982587,1.54539,0.137292,
2,1,0,1,0,52376.9,0.13913,0.138799,4.04232,27,0.00901564,10,0.000561071,-2.39337,-3.84777,-0.0153335,-2.41068,0.138799,
2,1,0,1,0,52376.9,0.140626,0.140268,4.03244,27,0.00916705,10,0.000565621,-2.39443,-1.02051,-0.0578144,-9.07072,0.140268,
2,1,0,1,0,52377,0.142129,0.141805,4.01068,27,0.00931882,10,0.000568736,-2.39678,-0.701765,-0.0840738,-13.1391,0.141805,
2,1,0,1,0,52377,0.143626,0.143298,3.98281,27,0.00946898,10,0.000570728,-2.39981,-0.405028,-0.145669,-22.5914,0.143298,
2,1,0,1,0,52377,0.145122,0.144794,3.94028,27,0.00961782,10,0.00057053,-2.40447,-0.270345,-0.218239,-33.4621,0.144794,
2,1,0,1,0,52377.1,0.146622,0.14632,3.88427,27,0.00976512,10,0.000568346,-2.41069,-0.200775,-0.293861,-44.3598,0.14632,
2,1,0,1,0,52377.1,0.148122,0.147825,3.81026,27,0.00990994,10,0.000563251,-2.41905,-0.164903,-0.357785,-52.9735,0.147825,
2,1,0,1,0,52377.1,0.149619,0.149281,3.72574,27,0.0100514,10,0.000556182,-2.42879,-0.139824,-0.42196,-61.0515,0.149281,
2,1,0,1,0,52377.2,0.151115,0.150779,3.62529,27,0.0101893,10,0.000546615,-2.44066,-0.11432,-0.516094,-72.6761,0.150779,
2,1,0,1,0,52377.2,0.152615,0.152294,3.50506,27,0.0103236,10,0.000533799,-2.4553,-0.102739,-0.574269,-78.4029,0.152294,
2,1,0,1,0,52377.3,0.154115,0.153799,3.38638,27,0.0104534,10,0.000520822,-2.47026,-0.0957053,-0.616476,-81.428,0.153799,
2,1,0,1,0,52377.3,0.155611,0.155292,3.26082,27,0.0105783,10,0.000506379,-2.48667,-0.0925241,-0.637672,-81.2044,0.155292,
2,1,0,1,0,52377.3,0.157106,0.156792,3.14159,27,0.0106986,10,0.000492575,-2.50285,-0.0867453,-0.680152,-83.2726,0.1567916,
2,1,0,1,0,52377.4,0.15861,0.158255,3.0141,27,0.0108148,10,0.000476997,-2.52084,-0.0872737,-0.676034,-79.6091,0.158255,
2,1,0,1,0,52377.4,0.160106,0.159816,2.89635,27,0.0109258,10,0.000462884,-2.53815,-0.0877613,-0.672278,-76.097,0.159816,
2,1,0,1,0,52377.4,0.161602,0.161276,2.78963,27,0.0110326,10,0.000449902,-2.55445,-0.0902405,-0.653808,-71.1164,0.161276,
2,1,0,1,0,52377.5,0.163102,0.162773,2.68511,27,0.0111357,10,0.000437065,-2.57104,-0.0937837,-0.629107,-66.0068,0.162773,
2,1,0,1,0,52377.5,0.164602,0.164264,2.58858,27,0.0112351,10,0.000425209,-2.58694,-0.101486,-0.581361,-58.8747,0.164264,
2,1,0,1,0,52377.6,0.166099,0.165731,2.50071,27,0.0113309,10,0.000414445,-2.60194,-0.105827,-0.557514,-54.6951,0.165731,
2,1,0,1,0,52377.6,0.167595,0.167269,2.42473,27,0.0114236,10,0.000405583,-2.61534,-0.117359,-0.502732,-47.7571,0.167269,
2,1,0,1,0,52377.6,0.169095,0.168747,2.35987,27,0.0115139,10,0.000398221,-2.62711,-0.12565,-0.469558,-43.3429,0.168747,
2,1,0,1,0,52377.7,0.170595,0.170274,2.29697,27,0.0116018,10,0.000391114,-2.63884,-0.131977,-0.447049,-40.1471,0.170274,
2,1,0,1,0,52377.7,0.172091,0.171767,2.24013,27,0.0116871,10,0.00038478,-2.64973,-0.145833,-0.404572,-35.4363,0.171767,
2,1,0,1,0,52377.7,0.173586,0.17327,2.19011,27,0.0117704,10,0.000379479,-2.65953,-0.161604,-0.365089,-31.1972,0.17327,
2,1,0,1,0,52377.8,0.17509,0.174748,2.145,27,0.0118524,10,0.000374834,-2.66857,-0.172249,-0.342527,-28.6519,0.174748,
2,1,0,1,0,52377.8,0.176586,0.176293,2.10251,27,0.0119324,10,0.000370658,-2.67726,-0.184915,-0.319066,-26.2232,0.176293,
2,1,0,1,0,52377.9,0.178083,0.177768,2.06234,27,0.0120109,10,0.000366617,-2.68564,-0.198828,-0.296739,-23.9945,0.177768,
2,1,0,1,0,52377.9,0.179582,0.179258,2.03311,27,0.0120882,10,0.000364451,-2.69184,-0.22202,-0.265742,-21.1455,0.179258,
2,1,0,1,0,52377.9,0.181082,0.180751,2.00473,27,0.0121644,10,0.000362357,-2.69794,-0.255987,-0.23048,-18.0628,0.180751,
2,1,0,1,0,52378,0.182579,0.182267,1.97968,27,0.0122395,10,0.00036083,-2.7034,-0.253875,-0.232397,-17.9592,0.182267,
2,1,0,1,0,52378,0.184075,0.183759,1.9577,27,0.0123137,10,0.000359745,-2.70825,-0.29024,-0.20328,-15.5177,0.183759,
2,1,0,1,0,52378,0.185579,0.185257,1.93613,27,0.0123873,10,0.000358681,-2.71307,-0.340804,-0.17312,-13.0592,0.185257,
2,1,0,1,0,52378.1,0.187074,0.186786,1.9144,27,0.0124598,10,0.000357582,-2.71797,-0.41032,-0.14379,-10.7531,0.186786,
2,1,0,1,0,52378.1,0.18857,0.188221,1.89666,27,0.0125316,10,0.00035699,-2.72201,-0.411886,-0.143244,-10.6196,0.188221,
2,1,0,1,0,52378.2,0.19007,0.189763,1.88125,27,0.0126031,10,0.00035699,-2.72555,-0.386709,-0.152569,-11.219,0.189763,
2,1,0,1,0,52378.2,0.19157,0.191216,1.86263,27,0.0126739,10,0.000356165,-2.72987,-0.429278,-0.13744,-10.0228,0.191216,
2,1,0,1,0,52378.2,0.193066,0.19273,1.85314,27,0.012744,10,0.000357154,-2.73209,-0.545061,-0.108245,-7.83581,0.19273,
2,1,0,1,0,52378.3,0.194563,0.194263,1.84015,27,0.0128136,10,0.000357474,-2.73515,-0.635192,-0.0928853,-6.6769,0.194263,
2,1,0,1,0,52378.3,0.196063,0.195714,1.8342,27,0.0128831,10,0.000358979,-2.73655,-0.473864,-0.124508,-8.88672,0.195714,
2,1,0,1,0,52378.3,0.197563,0.19722,1.82132,27,0.0129521,10,0.000359201,-2.73961,-0.582966,-0.101207,-7.18057,0.19722,
2,1,0,1,0,52378.4,0.199059,0.198721,1.81013,27,0.0130205,10,0.000359711,-2.74229,-0.703456,-0.0838716,-5.92848,0.198721,
2,1,0,1,0,52378.4,0.200555,0.200237,1.80324,27,0.0130886,10,0.000361075,-2.74395,-0.70441,-0.0837581,-5.8932,0.200237,
2,1,0,1,0,52378.5,0.202059,0.201748,1.79292,27,0.0131568,10,0.000361717,-2.74644,-0.626577,-0.0941625,-6.58913,0.201748,
2,1,0,1,0,52378.5,0.203554,0.20325,1.78437,27,0.0132243,10,0.000362673,-2.74852,-0.796878,-0.0740389,-5.17068,0.20325,
2,1,0,1,0,52378.5,0.20505,0.204755,1.77642,27,0.0132914,10,0.000363731,-2.75046,-1.91136,-0.0308681,-2.14794,0.204755,
2,1,0,1,0,52378.6,0.20655,0.206185,1.77126,27,0.0133585,10,0.000365208,-2.75172,-1.40771,-0.0419122,-2.90025,0.206185,
2,1,0,1,0,52378.6,0.20805,0.207679,1.76943,27,0.0134256,10,0.000367473,-2.75217,-1.01376,-0.0581991,-4.00648,0.207679,
2,1,0,1,0,52378.6,0.209546,0.209234,1.76262,27,0.0134922,10,0.000368799,-2.75384,-0.636969,-0.0926262,-6.36385,0.209234,
2,1,0,1,0,52378.7,0.211043,0.210731,1.75212,27,0.0135584,10,0.000369225,-2.75644,-0.859437,-0.0686496,-4.70104,0.210731,
2,1,0,1,0,52378.7,0.212543,0.212178,1.74844,27,0.0136246,10,0.000370981,-2.75735,-1.64496,-0.0358671,-2.44757,0.212178,
2,1,0,1,0,52378.8,0.214043,0.213695,1.74402,27,0.0136907,10,0.000372688,-2.75845,-1.12546,-0.052423,-3.57295,0.213695,
2,1,0,1,0,52378.8,0.215539,0.215222,1.73933,27,0.0137564,10,0.000374342,-2.75962,-1.0667,-0.0553109,-3.75571,0.215222,
2,1,0,1,0,52378.8,0.217035,0.216728,1.73284,27,0.0138219,10,0.000375556,-2.76124,-1.37857,-0.0427979,-2.89687,0.216728,
2,1,0,1,0,52378.9,0.218538,0.218201,1.72892,27,0.0138875,10,0.000377251,-2.76223,-3.26588,-0.0180656,-1.21838,0.218201,
2,1,0,1,0,52378.9,0.220034,0.219723,1.73171,27,0.0139527,10,0.000380496,-2.76152,-2.07149,-0.0284819,-1.91677,0.219723,
2,1,0,1,0,52378.9,0.22153,0.221225,1.72144,27,0.0140178,10,0.000380826,-2.76411,-1.09676,-0.053795,-3.61202,0.221225,
2,1,0,1,0,52379,0.22303,0.222684,1.71665,27,0.0140828,10,0.00038227,-2.76532,-1.27636,-0.0462253,-3.09735,0.222684,
2,1,0,1,0,52379,0.22453,0.22422,1.71455,27,0.0141477,10,0.000384435,-2.76585,-1.63964,-0.0359836,-2.40883,0.22422,
2,1,0,1,0,52379.1,0.226026,0.225708,1.70624,27,0.0142123,10,0.000385113,-2.76796,-1.39226,-0.042377,-2.8314,0.225708,
2,1,0,1,0,52379.1,0.227523,0.227193,1.70483,27,0.0142767,10,0.000387325,-2.76832,-1.49393,-0.0394932,-2.63141,0.2271926,
2,1,0,1,0,52379.1,0.229023,0.228719,1.70169,27,0.0143413,10,0.000389208,-2.76912,-1.70705,-0.0345625,-2.30035,0.228719,
2,1,0,1,0,52379.2,0.230523,0.230215,1.70031,27,0.0144056,10,0.000391437,-2.76947,-4.02387,-0.0146625,-0.973045,0.230215,
2,1,0,1,0,52379.2,0.232019,0.231686,1.70167,27,0.0144697,10,0.000394252,-2.76913,-1.77802,-0.033183,-2.19478,0.231686,
2,1,0,1,0,52379.2,0.233515,0.233221,1.69616,27,0.0145337,10,0.000395581,-2.77053,-1.82155,-0.03239,-2.14001,0.233221,
2,1,0,1,0,52379.3,0.235018,0.234679,1.69285,27,0.014598,10,0.000397278,-2.77138,-2.55581,-0.0230846,-1.52464,0.234679,
2,1,0,1,0,52379.3,0.236514,0.236203,1.68608,27,0.0146617,10,0.000398257,-2.77312,-2.41427,-0.024438,-1.61452,0.236203,
2,1,0,1,0,52379.4,0.23801,0.237733,1.6836,27,0.0147254,10,0.000400247,-2.77376,-3.53158,-0.0167064,-1.10052,0.237733,
2,1,0,1,0,52379.4,0.23951,0.239219,1.68263,27,0.0147891,10,0.000402516,-2.77401,-2.51915,-0.0234206,-1.54086,0.239219,
2,1,0,1,0,52379.4,0.24101,0.240747,1.68134,27,0.0148528,10,0.000404779,-2.77434,-2.14464,-0.0275105,-1.80439,0.240747,
2,1,0,1,0,52379.5,0.242506,0.242188,1.67619,27,0.0149162,10,0.000405954,-2.77568,-1.98702,-0.0296927,-1.94389,0.242188,
2,1,0,1,0,52379.5,0.244003,0.243693,1.68033,27,0.0149795,10,0.000409484,-2.77461,-2.06027,-0.028637,-1.86985,0.243693,
2,1,0,1,0,52379.5,0.245503,0.245188,1.67706,27,0.0150429,10,0.000411195,-2.77545,-5.6269,-0.0104853,-0.68499,0.245188,
2,1,0,1,0,52379.6,0.247003,0.246691,1.67382,27,0.0151062,10,0.000412916,-2.77629,-1.74171,-0.0338748,-2.2095,0.246691,
2,1,0,1,0,52379.6,0.248499,0.248183,1.66661,27,0.0151693,10,0.000413622,-2.77817,-2.1732,-0.0271489,-1.77109,0.248183,
2,1,0,1,0,52379.7,0.249995,0.249661,1.66561,27,0.0152322,10,0.000415838,-2.77843,-2.83099,-0.0208407,-1.35815,0.249661,
2,1,0,1,0,52379.7,0.251498,0.251205,1.66482,27,0.0152954,10,0.000418212,-2.77863,-3.26139,-0.0180904,-1.17569,0.251205,
2,1,0,1,0,52379.7,0.252994,0.252698,1.661,27,0.0153581,10,0.000419732,-2.77963,-2.53453,-0.0232785,-1.51097,0.252698,
2,1,0,1,0,52379.8,0.25449,0.254168,1.66071,27,0.0154208,10,0.000422099,-2.77971,-3.13093,-0.0188443,-1.21989,0.254168,
2,1,0,1,0,52379.8,0.25599,0.255651,1.65855,27,0.0154836,10,0.000424009,-2.78027,-3.81822,-0.0154522,-0.998899,0.255651,
2,1,0,1,0,52379.8,0.25749,0.257136,1.65663,27,0.0155462,10,0.000425978,-2.78078,-5.12549,-0.0115111,-0.744022,0.257136,
2,1,0,1,0,52379.9,0.258987,0.258665,1.65364,27,0.0156087,10,0.000427739,-2.78156,-6.31309,-0.00934567,-0.603244,0.258665,
2,1,0,1,0,52379.9,0.260483,0.260162,1.65238,27,0.0156711,10,0.000429886,-2.78189,-1.68793,-0.0349542,-2.25469,0.260162,
2,1,0,1,0,52380,0.261983,0.261664,1.64536,27,0.0157336,10,0.000430531,-2.78374,-2.71373,-0.0217413,-1.40201,0.261664,
2,1,0,1,0,52380,0.263483,0.263157,1.64855,27,0.0157959,10,0.000433826,-2.7829,26.605,0.00221763,0.142579,0.263157,
2,1,0,1,0,52380,0.264978,0.264674,1.64829,27,0.015858,10,0.000436261,-2.78297,-10.515,-0.00561103,-0.360622,0.264674,
2,1,0,1,0,52380.1,0.266474,0.266128,1.6455,27,0.0159201,10,0.000437913,-2.7837,-1.72253,-0.034252,-2.19283,0.266128,
2,1,0,1,0,52380.1,0.267977,0.267657,1.64091,27,0.0159824,10,0.000439201,-2.78491,-3.42467,-0.017228,-1.1023,0.267657,
2,1,0,1,0,52380.1,0.269474,0.269171,1.63826,27,0.0160443,10,0.000440971,-2.78562,-10.1352,-0.00582131,-0.372231,0.269171,
2,1,0,1,0,52380.2,0.27097,0.270672,1.64003,27,0.0161061,10,0.000443908,-2.78515,-2.31223,-0.0255165,-1.63096,0.270672,
2,1,0,1,0,52380.2,0.27247,0.272198,1.63253,27,0.016168,10,0.000444372,-2.78714,-2.19662,-0.0268594,-1.71364,0.272198,
2,1,0,1,0,52380.3,0.27397,0.273623,1.62795,27,0.0162298,10,0.000445444,-2.78836,-1.93189,-0.03054,-1.95007,0.273623,
2,1,0,1,0,52380.3,0.275467,0.275156,1.63004,27,0.0162913,10,0.000448515,-2.7878,-2.03563,-0.0289837,-1.84471,0.275156,
2,1,0,1,0,52380.3,0.276963,0.276607,1.6304,27,0.0163528,10,0.000450981,-2.78771,-2.063,-0.0285991,-1.81625,0.276607,
2,1,0,1,0,52380.4,0.278463,0.278147,1.62902,27,0.0164144,10,0.000453108,-2.78807,-2.12937,-0.0277078,-1.75374,0.278147,
2,1,0,1,0,52380.4,0.279963,0.279673,1.62501,27,0.0164758,10,0.00045447,-2.78914,-2.48795,-0.0237143,-1.49925,0.279673,
2,1,0,1,0,52380.4,0.281459,0.281149,1.62096,27,0.016537,10,0.000455731,-2.79023,-1.25477,-0.0470206,-2.97137,0.281149,
2,1,0,1,0,52380.5,0.282954,0.282607,1.61385,27,0.016598,10,0.000456086,-2.79214,-3.11806,-0.018922,-1.19557,0.282607,
2,1,0,1,0,52380.5,0.284458,0.284182,1.61435,27,0.0166594,10,0.000458769,-2.792,-2.65469,-0.0222248,-1.40079,0.284182,
2,1,0,1,0,52380.6,0.285954,0.285652,1.61085,27,0.0167203,10,0.000460143,-2.79294,-1.605,-0.03676,-2.31749,0.285652,
2,1,0,1,0,52380.6,0.28745,0.287138,1.60688,27,0.0167811,10,0.000461397,-2.79402,-1.21396,-0.0486014,-3.05298,0.287138,
2,1,0,1,0,52380.6,0.28895,0.288642,1.60591,27,0.0168419,10,0.000463531,-2.79428,-5.07018,-0.0116367,-0.727972,0.288642,
2,1,0,1,0,52380.7,0.29045,0.290139,1.60469,27,0.0169027,10,0.000465584,-2.79461,-2.56112,-0.0230368,-1.44076,0.290139,
2,1,0,1,0,52380.7,0.291947,0.291634,1.60087,27,0.0169632,10,0.000466869,-2.79564,-1.54007,-0.0383101,-2.39128,0.291634,
2,1,0,1,0,52380.7,0.293443,0.293153,1.59498,27,0.0170235,10,0.000467573,-2.79725,-2.00339,-0.02945,-1.83732,0.293153,
2,1,0,1,0,52380.8,0.294943,0.294655,1.5953,27,0.0170839,10,0.000470064,-2.79716,-3.41469,-0.0172783,-1.07585,0.294655,
2,1,0,1,0,52380.8,0.296443,0.296149,1.59411,27,0.0171443,10,0.000472095,-2.79748,-1.94969,-0.0302613,-1.88295,0.296149,
2,1,0,1,0,52380.9,0.297939,0.29763,1.58922,27,0.0172044,10,0.000473,-2.79882,-2.7587,-0.0213869,-1.32826,0.29763,
2,1,0,1,0,52380.9,0.299434,0.299104,1.5868,27,0.0172644,10,0.000474619,-2.79948,-0.019176,-3.07677,-167.835,0.299104,
2,1,0,0,0,52380.9,0.299962,0.299651,1.52821,27,0.017288,10,0.00045793,-2.81582,0.00112799,52.3052,1753.32,0.299651,
2,1,0,1,0,52380.9,0.298689,0.29838,0.58846,27,0.017318,10,0.000175584,-3.23028,0.00207853,28.3855,479.229,0.29838,
2,1,0,1,0,52381,0.297189,0.296859,0.131342,27,0.0173299,10,3.899e-05,-3.8816,0.00552305,10.6825,250.147,0.296859,
2,0,0,1,0,52381,0.295692,0.295402,-0.10615,27,0.0173294,10,-3.13569e-05,-3.97408,-0.082864,-0.71201,133.077,0.2954016,
2,0,0,1,0,52381.1,0.294196,0.293894,-0.248617,27,0.017322,10,-7.30671e-05,-3.60447,-0.00418559,-14.096,80.8641,0.293894,
2,0,0,1,0,52381.1,0.292696,0.292365,-0.336815,27,0.0173102,10,-9.8473e-05,-3.47261,-0.0122465,-4.81769,57.6082,0.2923651,
2,0,0,1,0,52381.1,0.291196,0.290885,-0.409706,27,0.0172954,10,-0.000119177,-3.38753,-0.0211,-2.7962,43.0679,0.290885,
2,0,0,1,0,52381.2,0.2897,0.289385,-0.467497,27,0.0172784,10,-0.000135286,-3.33022,-0.0308249,-1.91403,34.0292,0.289385,
2,0,0,1,0,52381.2,0.288205,0.287888,-0.51369,27,0.0172594,10,-0.000147885,-3.2893,-0.04029,-1.46438,28.7104,0.287888,
2,0,0,1,0,52381.2,0.286701,0.286377,-0.550131,27,0.0172388,10,-0.000157545,-3.25953,-0.0530726,-1.11168,23.5385,0.286377,
2,0,0,1,0,52381.3,0.285205,0.284889,-0.5876,27,0.017217,10,-0.000167401,-3.23092,-0.0628869,-0.938193,21.1985,0.284889,
2,0,0,1,0,52381.3,0.283708,0.283425,-0.613465,27,0.017194,10,-0.000173872,-3.21221,-0.0729808,-0.808432,19.2463,0.283425,
2,0,0,1,0,52381.4,0.282208,0.281875,-0.642286,27,0.0171698,10,-0.000181045,-3.19227,-0.0910578,-0.64794,16.0824,0.281875,
2,0,0,1,0,52381.4,0.280708,0.280399,-0.66313,27,0.0171447,10,-0.000185941,-3.1784,-0.0996248,-0.592222,15.3918,0.280399,
2,0,0,1,0,52381.4,0.279212,0.278911,-0.685725,27,0.0171188,10,-0.000191256,-3.16385,-0.110008,-0.536327,14.4048,0.278911,
2,0,0,1,0,52381.5,0.277716,0.27739,-0.709689,27,0.017092,10,-0.000196861,-3.14893,-0.109399,-0.539312,14.9347,0.27739,
2,0,0,1,0,52381.5,0.276216,0.275889,-0.732144,27,0.0170644,10,-0.00020199,-3.1354,-0.126408,-0.466742,13.2645,0.275889,
2,0,0,1,0,52381.5,0.274716,0.274379,-0.751242,27,0.017036,10,-0.000206126,-3.12422,-0.156753,-0.376388,10.9549,0.274379,
2,0,0,1,0,52381.6,0.27322,0.272873,-0.765741,27,0.0170071,10,-0.00020895,-3.11592,-0.15929,-0.370393,11.0181,0.272873,
2,0,0,1,0,52381.6,0.271725,0.271441,-0.783943,27,0.0169775,10,-0.000212794,-3.10572,-0.140852,-0.41888,12.7539,0.271441,
2,0,0,1,0,52381.7,0.270221,0.269896,-0.800648,27,0.0169471,10,-0.000216091,-3.09656,-0.160539,-0.367512,11.4501,0.269896,
2,0,0,1,0,52381.7,0.268725,0.268404,-0.814552,27,0.0169162,10,-0.000218629,-3.08908,-0.193633,-0.304701,9.72094,0.268404,
2,0,0,1,0,52381.7,0.267228,0.266917,-0.826901,27,0.0168848,10,-0.000220714,-3.08255,-0.18129,-0.325445,10.5875,0.266917,
2,0,0,1,0,52381.8,0.265728,0.265398,-0.842989,27,0.0168527,10,-0.000223728,-3.07418,-0.181614,-0.324865,10.7181,0.265398,
2,0,0,1,0,52381.8,0.264228,0.263896,-0.861578,27,0.0168201,10,-0.000227367,-3.06471,-0.212121,-0.278143,9.29279,0.263896,
2,0,0,1,0,52381.8,0.262732,0.262392,-0.873711,27,0.0167871,10,-0.000229255,-3.05863,-0.24084,-0.244976,8.30271,0.262392,
2,0,0,1,0,52381.9,0.261236,0.260897,-0.889777,27,0.0167536,10,-0.00023214,-3.05072,-0.256651,-0.229884,7.93789,0.260897,
2,0,0,1,0,52381.9,0.259736,0.259423,-0.899597,27,0.0167195,10,-0.000233377,-3.04595,-0.251623,-0.234478,8.22942,0.259423,
2,0,0,1,0,52382,0.258236,0.257887,-0.912039,27,0.016685,10,-0.000235203,-3.03999,-0.271392,-0.217398,7.7259,0.257887,
2,0,0,1,0,52382,0.256741,0.256419,-0.92007,27,0.0166501,10,-0.000235923,-3.03618,-0.268075,-0.220088,7.94364,0.256419,
2,0,0,1,0,52382,0.255241,0.254941,-0.933475,27,0.0166146,10,-0.000237981,-3.0299,-0.288342,-0.204618,7.47675,0.254941,
2,0,0,1,0,52382.1,0.253741,0.253423,-0.9417,27,0.0165788,10,-0.000238648,-3.02609,-0.325118,-0.181473,6.71437,0.253423,
2,0,0,1,0,52382.1,0.252245,0.251931,-0.959723,27,0.0165426,10,-0.000241784,-3.01785,-0.257735,-0.228917,8.52127,0.251931,
2,0,0,1,0,52382.1,0.250748,0.250448,-0.97203,27,0.0165059,10,-0.000243443,-3.01232,-0.288829,-0.204273,7.69209,0.250448,
2,0,0,1,0,52382.2,0.249248,0.248905,-0.982177,27,0.0164688,10,-0.000244469,-3.00781,-0.301897,-0.195431,7.45332,0.248905,
2,0,0,1,0,52382.2,0.247748,0.247414,-0.988764,27,0.0164313,10,-0.000244634,-3.00491,-0.371254,-0.158921,6.1441,0.247414,
2,0,0,1,0,52382.3,0.246252,0.245984,-0.995942,27,0.0163935,10,-0.000244986,-3.00177,-0.269138,-0.219219,8.56167,0.245984,
2,0,0,1,0,52382.3,0.244756,0.244444,-1.01413,27,0.0163552,10,-0.000247898,-2.99391,-0.32464,-0.18174,7.18337,0.244444,
2,0,0,1,0,52382.3,0.243252,0.242919,-1.02162,27,0.0163163,10,-0.000248171,-2.99071,-0.467081,-0.126317,5.04201,0.242919,
2,0,0,1,0,52382.4,0.241756,0.241432,-1.02798,27,0.0162773,10,-0.000248188,-2.98801,-0.393119,-0.150082,6.04043,0.241432,
2,0,0,1,0,52382.4,0.240261,0.239926,-1.03975,27,0.016238,10,-0.000249463,-2.98307,-0.360385,-0.163714,6.63724,0.239926,
2,0,0,1,0,52382.4,0.238761,0.238415,-1.05035,27,0.0161981,10,-0.000250421,-2.97866,-0.350139,-0.168504,6.89672,0.238415,
2,0,0,1,0,52382.5,0.237261,0.236949,-1.06297,27,0.0161579,10,-0.00025187,-2.97348,-0.492863,-0.119709,4.93442,0.236949,
2,0,0,1,0,52382.5,0.235765,0.235421,-1.06838,27,0.0161175,10,-0.000251519,-2.97127,-0.410897,-0.143588,5.99589,0.235421,
2,0,0,1,0,52382.6,0.234268,0.233939,-1.07625,27,0.0160767,10,-0.000251777,-2.96809,-0.450493,-0.130968,5.5283,0.233939,
2,0,0,1,0,52382.6,0.232768,0.232475,-1.0864,27,0.0160355,10,-0.00025256,-2.96401,-0.364575,-0.161832,6.89079,0.232475,
2,0,0,1,0,52382.6,0.231268,0.230959,-1.0973,27,0.0159938,10,-0.000253431,-2.95968,-0.463297,-0.127348,5.45593,0.230959,
2,0,0,1,0,52382.7,0.229772,0.229425,-1.10803,27,0.0159519,10,-0.000254209,-2.95545,-0.449915,-0.131136,5.6605,0.229425,
2,0,0,1,0,52382.7,0.228275,0.227933,-1.12079,27,0.0159098,10,-0.000255465,-2.95048,-0.388483,-0.151873,6.60928,0.227933,
2,0,0,1,0,52382.7,0.226772,0.226435,-1.12998,27,0.0158671,10,-0.000255867,-2.94693,-0.383733,-0.153753,6.72997,0.226435,
2,0,0,1,0,52382.8,0.225276,0.22495,-1.13772,27,0.0158242,10,-0.000255928,-2.94397,-0.486641,-0.121239,5.36132,0.22495,
2,0,0,1,0,52382.8,0.223781,0.223482,-1.14294,27,0.015781,10,-0.000255425,-2.94198,-0.480745,-0.122726,5.47354,0.223482,
2,0,0,1,0,52382.9,0.222281,0.221972,-1.14511,27,0.0157374,10,-0.000254182,-2.94115,-0.436264,-0.135239,6.08393,0.221972,
2,0,0,1,0,52382.9,0.220781,0.220442,-1.15379,27,0.0156935,10,-0.000254344,-2.93787,-0.362297,-0.16285,7.40298,0.220442,
2,0,0,1,0,52382.9,0.219284,0.219003,-1.16884,27,0.0156493,10,-0.00025598,-2.93224,-0.412154,-0.14315,6.52063,0.2190033,
2,0,0,1,0,52383,0.217788,0.217445,-1.17622,27,0.0156047,10,-0.000255764,-2.92951,-0.533984,-0.11049,5.0778,0.217445,
2,0,0,1,0,52383,0.216288,0.215944,-1.18553,27,0.0155598,10,-0.000256008,-2.92609,-0.551917,-0.1069,4.93702,0.215944,
2,0,0,1,0,52383,0.214788,0.214463,-1.19611,27,0.0155145,10,-0.000256522,-2.92223,-0.419212,-0.14074,6.54158,0.214463,
2,0,0,1,0,52383.1,0.213292,0.212991,-1.20429,27,0.0154691,10,-0.000256503,-2.91927,-0.436997,-0.135012,6.3322,0.212991,
2,0,0,1,0,52383.1,0.211796,0.21145,-1.21515,27,0.0154232,10,-0.000256942,-2.91537,-0.4828,-0.122204,5.76458,0.21145,
2,0,0,1,0,52383.2,0.210293,0.210025,-1.22192,27,0.0153768,10,-0.000256634,-2.91296,-0.445851,-0.132331,6.31244,0.210025,
2,0,0,1,0,52383.2,0.208797,0.208466,-1.22524,27,0.0153304,10,-0.00025542,-2.91178,-0.409984,-0.143908,6.94269,0.208466,
2,0,0,1,0,52383.2,0.207301,0.206985,-1.23648,27,0.0152837,10,-0.000255933,-2.90781,-0.404262,-0.145945,7.07336,0.206985,
2,0,0,1,0,52383.3,0.205801,0.205487,-1.25133,27,0.0152363,10,-0.000257131,-2.90263,-0.438052,-0.134687,6.5494,0.205487,
2,0,0,1,0,52383.3,0.204301,0.203968,-1.25757,27,0.0151886,10,-0.000256505,-2.90047,-0.730795,-0.080734,3.96062,0.203968,
2,0,0,1,0,52383.3,0.202804,0.202462,-1.27054,27,0.0151408,10,-0.000257237,-2.89601,-0.549738,-0.107324,5.28916,0.202462,
2,0,0,1,0,52383.4,0.201308,0.201006,-1.27797,27,0.0150927,10,-0.000256881,-2.89348,-0.439912,-0.134118,6.65747,0.201006,
2,0,0,1,0,52383.4,0.199808,0.199491,-1.28312,27,0.0150441,10,-0.000255971,-2.89173,-0.456854,-0.129144,6.45817,0.199491,
2,0,0,1,0,52383.4,0.198308,0.197966,-1.29038,27,0.0149952,10,-0.00025545,-2.88928,-0.568519,-0.103778,5.2418,0.197966,
2,0,0,1,0,52383.5,0.196812,0.196457,-1.30076,27,0.0149461,10,-0.000255543,-2.8858,-0.513775,-0.114836,5.84428,0.196457,
2,0,0,1,0,52383.5,0.195316,0.194982,-1.30867,27,0.0148966,10,-0.000255166,-2.88317,-0.405934,-0.145344,7.44659,0.194982,
2,0,0,1,0,52383.6,0.193813,0.193458,-1.32507,27,0.0148465,10,-0.000256346,-2.87776,-0.42732,-0.13807,7.11795,0.193458,
2,0,0,1,0,52383.6,0.192317,0.191958,-1.33344,27,0.0147962,10,-0.000255965,-2.87503,-0.488993,-0.120656,6.24949,0.191958,
2,0,0,1,0,52383.6,0.190821,0.190495,-1.34212,27,0.0147456,10,-0.000255668,-2.87221,-0.426083,-0.138471,7.24254,0.190495,
2,0,0,1,0,52383.7,0.189321,0.188984,-1.35404,27,0.0146945,10,-0.000255892,-2.86837,-0.47695,-0.123703,6.50649,0.188984,
2,0,0,1,0,52383.7,0.187821,0.187472,-1.35752,27,0.014643,10,-0.000254496,-2.86725,-0.426817,-0.138233,7.34552,0.187472,
2,0,0,1,0,52383.7,0.186324,0.185987,-1.3701,27,0.0145913,10,-0.000254821,-2.86325,-0.586977,-0.100515,5.37232,0.185987,
2,0,0,1,0,52383.8,0.184828,0.184469,-1.3812,27,0.0145392,10,-0.000254788,-2.85974,-0.50294,-0.11731,6.33642,0.184469,
2,0,0,1,0,52383.8,0.183328,0.18299,-1.39085,27,0.0144866,10,-0.000254512,-2.85672,-0.40343,-0.146246,7.95266,0.18299,
2,0,0,1,0,52383.9,0.181828,0.181485,-1.40448,27,0.0144336,10,-0.000254893,-2.85248,-0.406306,-0.145211,7.95658,0.181485,
2,0,0,1,0,52383.9,0.180332,0.180006,-1.41825,27,0.0143802,10,-0.000255294,-2.84825,-0.377627,-0.156239,8.61684,0.180006,
2,0,0,1,0,52383.9,0.178836,0.178527,-1.43012,27,0.0143264,10,-0.000255315,-2.84463,-0.404633,-0.145811,8.11145,0.178527,
2,0,0,1,0,52384,0.177333,0.177,-1.43891,27,0.0142719,10,-0.000254687,-2.84197,-0.38489,-0.153291,8.61596,0.177,
2,0,0,1,0,52384,0.175837,0.175526,-1.45087,27,0.0142172,10,-0.000254666,-2.83837,-0.321132,-0.183725,10.4031,0.175526,
2,0,0,1,0,52384,0.174341,0.174025,-1.46283,27,0.014162,10,-0.000254569,-2.83481,-0.338801,-0.174143,9.97219,0.1740247,
2,0,0,1,0,52384.1,0.172841,0.172513,-1.47682,27,0.0141061,10,-0.000254771,-2.83067,-0.392731,-0.15023,8.68715,0.172513,
2,0,0,1,0,52384.1,0.171341,0.171001,-1.4881,27,0.0140498,10,-0.000254466,-2.82737,-0.339713,-0.173676,10.1363,0.171001,
2,0,0,1,0,52384.2,0.169844,0.169448,-1.50987,27,0.013993,10,-0.000255844,-2.82106,-0.324411,-0.181868,10.7165,0.169448,
2,0,0,1,0,52384.2,0.168348,0.167982,-1.5328,27,0.0139356,10,-0.000257482,-2.81451,-0.292899,-0.201434,11.9809,0.167982,
2,0,0,1,0,52384.2,0.166848,0.1665,-1.54519,27,0.0138774,10,-0.000257274,-2.81102,-0.327006,-0.180425,10.832,0.1665,
2,0,0,1,0,52384.3,0.165348,0.164976,-1.56302,27,0.0138185,10,-0.000257861,-2.80604,-0.271822,-0.217054,13.2072,0.164976,
2,0,0,1,0,52384.3,0.163852,0.163538,-1.5774,27,0.0137592,10,-0.000257965,-2.80206,-0.266443,-0.221435,13.7005,0.163538,
2,0,0,1,0,52384.3,0.162357,0.162041,-1.59479,27,0.0136991,10,-0.000258423,-2.7973,-0.233556,-0.252616,15.8174,0.162041,
2,0,0,1,0,52384.4,0.160853,0.16054,-1.62042,27,0.0136379,10,-0.000260142,-2.79037,-0.251373,-0.234711,14.8764,0.16054,
2,0,0,1,0,52384.4,0.159357,0.158979,-1.6444,27,0.0135761,10,-0.000261426,-2.78399,-0.239628,-0.246215,15.8311,0.158979,
2,0,0,1,0,52384.5,0.15786,0.157531,-1.6722,27,0.0135135,10,-0.000263424,-2.77671,-0.219328,-0.269003,17.5678,0.157531,
2,0,0,1,0,52384.5,0.156361,0.156034,-1.70433,27,0.0134496,10,-0.000265935,-2.76845,-0.194988,-0.302583,20.0713,0.156034,
2,0,0,1,0,52384.5,0.154861,0.15451,-1.7371,27,0.0133846,10,-0.0002684,-2.76018,-0.179859,-0.328034,22.1873,0.15451,
2,0,0,1,0,52384.6,0.153364,0.153037,-1.76535,27,0.0133185,10,-0.000270163,-2.75317,-0.180455,-0.326951,22.5495,0.153037,
2,0,0,1,0,52384.6,0.151868,0.151549,-1.79771,27,0.0132512,10,-0.00027244,-2.74528,-0.153818,-0.38357,27.0186,0.151549,
2,0,0,1,0,52384.6,0.150368,0.150045,-1.84065,27,0.0131823,10,-0.000276181,-2.73503,-0.147982,-0.398697,28.745,0.150045,
2,0,0,1,0,52384.7,0.148868,0.148493,-1.88604,27,0.0131117,10,-0.000280064,-2.72445,-0.135587,-0.435145,32.1566,0.148493,
2,0,0,1,0,52384.7,0.147372,0.14701,-1.93691,27,0.0130396,10,-0.000284745,-2.71289,-0.125391,-0.470527,35.5996,0.14701,
2,0,0,1,0,52384.8,0.145877,0.145544,-1.98834,27,0.0129655,10,-0.000289392,-2.70151,-0.11739,-0.502599,39.1514,0.145544,
2,0,0,1,0,52384.8,0.144373,0.144076,-2.05272,27,0.0128889,10,-0.000295747,-2.68767,-0.109223,-0.540181,43.3699,0.144076,
2,0,0,1,0,52384.8,0.142877,0.142575,-2.12449,27,0.0128102,10,-0.000302899,-2.67275,-0.101055,-0.583839,48.3968,0.142575,
2,0,0,1,0,52384.9,0.14138,0.141051,-2.20103,27,0.0127287,10,-0.000310457,-2.65737,-0.0976247,-0.604355,51.8191,0.141051,
2,0,0,1,0,52384.9,0.13988,0.139538,-2.2762,27,0.0126441,10,-0.000317617,-2.64279,-0.0950092,-0.620992,55.2636,0.139538,
2,0,0,1,0,52384.9,0.13838,0.138026,-2.35798,27,0.0125566,10,-0.000325462,-2.62746,-0.0937984,-0.629009,58.1311,0.138026,
2,0,0,1,0,52385,0.136884,0.136571,-2.45007,27,0.0124659,10,-0.000334608,-2.61082,-0.0935793,-0.630481,60.4261,0.1365708,
2,0,0,1,0,52385,0.135388,0.134998,-2.55055,27,0.0123718,10,-0.000344318,-2.59337,-0.0918635,-0.642257,63.8743,0.134998,
2,0,0,1,0,52385.1,0.133888,0.13355,-2.64596,27,0.0122737,10,-0.00035337,-2.57742,-0.0933674,-0.631913,65.0857,0.13355,
2,0,0,1,0,52385.1,0.132389,0.132064,-2.74229,27,0.0121722,10,-0.000362157,-2.56189,-0.0936942,-0.629708,67.2877,0.132064,
2,0,0,1,0,52385.1,0.130893,0.130536,-2.84455,27,0.0120671,10,-0.000371316,-2.54599,-0.0949526,-0.621363,68.8382,0.130536,
2,0,0,1,0,52385.2,0.129393,0.129064,-2.94142,27,0.0119578,10,-0.000379632,-2.53144,-0.100756,-0.585573,67.1927,0.1290639,
2,0,0,1,0,52385.2,0.127893,0.127567,-3.03888,27,0.0118449,10,-0.000387662,-2.51729,-0.110929,-0.53187,63.0907,0.1275672,
2,0,0,1,0,52385.2,0.126397,0.126082,-3.1272,27,0.0117288,10,-0.000394283,-2.50484,-0.116459,-0.506615,62.022,0.126082,
2,0,0,1,0,52385.3,0.1249,0.124554,-3.22902,27,0.0116092,10,-0.000402188,-2.49093,-0.119553,-0.493505,62.1056,0.124554,
2,0,0,1,0,52385.3,0.1234,0.123069,-3.32063,27,0.0114858,10,-0.000408667,-2.47878,-0.128843,-0.457923,59.205,0.123069,
2,0,0,1,0,52385.4,0.1219,0.12156,-3.41193,27,0.011359,10,-0.000414756,-2.467,-0.14245,-0.414181,54.8968,0.12156,
2,0,0,1,0,52385.4,0.120404,0.120112,-3.48769,27,0.0112293,10,-0.000418913,-2.45746,-0.150098,-0.393077,53.3577,0.120112,
2,0,0,1,0,52385.4,0.118908,0.118585,-3.56883,27,0.0110969,10,-0.000423212,-2.44747,-0.160505,-0.36759,51.095,0.118585,
2,0,0,1,0,52385.5,0.117404,0.117058,-3.64003,27,0.0109608,10,-0.000426094,-2.4389,-0.171142,-0.344742,48.9027,0.117058,
2,0,0,1,0,52385.5,0.115909,0.115578,-3.70918,27,0.0108226,10,-0.000428701,-2.43072,-0.202559,-0.291272,42.0913,0.115578,
2,0,0,1,0,52385.5,0.114413,0.114072,-3.76328,27,0.010682,10,-0.000429284,-2.42443,-0.222161,-0.265573,39.0619,0.114072,
2,0,0,1,0,52385.6,0.112913,0.11259,-3.82215,27,0.010539,10,-0.000430338,-2.41769,-0.244717,-0.241095,35.9744,0.11259,
2,0,0,1,0,52385.6,0.111413,0.111104,-3.87538,27,0.0103939,10,-0.00043057,-2.41169,-0.273704,-0.215561,32.5492,0.111104,
2,0,0,1,0,52385.7,0.109917,0.109612,-3.92476,27,0.0102474,10,-0.000430201,-2.40619,-0.331003,-0.178246,27.2124,0.109612,
2,0,0,1,0,52385.7,0.10842,0.108088,-3.96372,27,0.0100994,10,-0.000428431,-2.4019,-0.410277,-0.143805,22.1494,0.108088,
2,0,0,1,0,52385.7,0.10692,0.106602,-3.98527,27,0.00994985,10,-0.000424838,-2.39954,-0.576277,-0.102381,15.9057,0.106602,
2,0,0,1,0,52385.8,0.10542,0.105093,-4.00918,27,0.00979925,10,-0.000421337,-2.39694,-0.620232,-0.0951257,14.8605,0.105093,
2,0,0,1,0,52385.8,0.103924,0.103585,-4.02719,27,0.00964827,10,-0.000417157,-2.395,-1.00098,-0.0589423,9.25402,0.103585,
2,0,0,1,0,52385.8,0.102427,0.102119,-4.0357,27,0.0094968,10,-0.000412123,-2.39408,-2.28072,-0.025869,4.07042,0.102119,
2,0,0,1,0,52385.9,0.100924,0.100598,-4.03516,27,0.00934439,10,-0.000405927,-2.39414,7.1765,0.00822128,-1.29387,0.100598,
2,0,0,1,0,52385.9,0.0994284,0.0991172,-4.03075,27,0.00919288,10,-0.000399516,-2.39461,2.12953,0.0277056,-4.35386,0.0991172,
2,0,0,1,0,52386,0.0979329,0.0975887,-4.02626,27,0.00904158,10,-0.000392918,-2.3951,1.16467,0.050658,-7.94402,0.0975887,
2,0,0,1,0,52386,0.0964329,0.0960978,-4.01021,27,0.0088903,10,-0.000385373,-2.39683,0.803793,0.073402,-11.4651,0.0960978,
2,0,0,1,0,52386,0.094933,0.0946133,-3.9871,27,0.00873967,10,-0.000377233,-2.39934,0.635085,0.092901,-14.451,0.0946133,
2,0,0,1,0,52386.1,0.0934365,0.0930595,-3.96725,27,0.00859027,10,-0.000369191,-2.40151,0.647872,0.0910674,-14.1014,0.0930595,
2,0,0,1,0,52386.1,0.0919401,0.0916082,-3.94451,27,0.00844167,10,-0.000361349,-2.40401,0.612403,0.0963418,-14.8418,0.0916082,
2,0,0,1,0,52386.1,0.0904402,0.0900866,-3.91848,27,0.00829346,10,-0.000353002,-2.40688,0.523671,0.112666,-17.2453,0.0900866,
2,0,0,1,0,52386.2,0.0889402,0.0885979,-3.89876,27,0.0081462,10,-0.000345421,-2.40907,0.509177,0.115873,-17.618,0.0885979,
2,0,0,1,0,52386.2,0.0874438,0.0871065,-3.87087,27,0.00800038,10,-0.000337178,-2.41219,0.506281,0.116536,-17.5889,0.0871065,
2,0,0,1,0,52386.3,0.0859483,0.0856073,-3.84674,27,0.00785551,10,-0.000329309,-2.41491,0.585922,0.100696,-15.1033,0.08560732,
2,0,0,1,0,52386.3,0.0844447,0.0840984,-3.82185,27,0.00771076,10,-0.000321411,-2.41773,0.610481,0.0966451,-14.4036,0.0840984,
2,0,0,1,0,52386.3,0.0829492,0.0825856,-3.80099,27,0.00756759,10,-0.000313907,-2.4201,0.583706,0.101078,-14.9795,0.0825856,
2,0,0,1,0,52386.4,0.0814528,0.0810654,-3.77563,27,0.00742528,10,-0.000306073,-2.42301,0.64576,0.0913653,-13.4776,0.0810654,
2,0,0,1,0,52386.4,0.0799528,0.0796507,-3.75242,27,0.0072834,10,-0.000298883,-2.42569,0.696614,0.0846955,-12.4294,0.0796507,
2,0,0,1,0,52386.4,0.0784529,0.0781285,-3.73699,27,0.00714221,10,-0.000291965,-2.42748,0.740109,0.079718,-11.6436,0.0781285,
2,0,0,1,0,52386.5,0.0769565,0.0766453,-3.71977,27,0.00700202,10,-0.000285103,-2.42948,0.645651,0.0913806,-13.269,0.0766453,
2,0,0,1,0,52386.5,0.0754601,0.0751521,-3.70056,27,0.00686257,10,-0.000278105,-2.43173,0.657678,0.0897095,-12.9614,0.0751521,
2,0,0,1,0,52386.6,0.0739601,0.0736426,-3.68812,27,0.00672346,10,-0.000271603,-2.43319,0.757357,0.0779025,-11.1997,0.0736426,
2,0,0,1,0,52386.6,0.0724601,0.0720981,-3.67105,27,0.00658492,10,-0.000264675,-2.43521,0.838972,0.0703241,-10.0684,0.0720981,
2,0,0,1,0,52386.6,0.0709637,0.07064,-3.65729,27,0.00644731,10,-0.000258351,-2.43684,0.656267,0.0899024,-12.8097,0.07063996,
2,0,0,1,0,52386.7,0.0694682,0.0691639,-3.63533,27,0.00631026,10,-0.000251433,-2.43946,0.797764,0.0739567,-10.5089,0.0691639,
2,0,0,1,0,52386.7,0.0679647,0.0676323,-3.61571,27,0.00617321,10,-0.000244539,-2.44181,0.826202,0.0714111,-10.1116,0.0676323,
2,0,0,1,0,52386.7,0.0664691,0.0661415,-3.6025,27,0.00603742,10,-0.000238275,-2.4434,0.77282,0.0763438,-10.7547,0.0661415,
2,0,0,1,0,52386.8,0.0649727,0.0646252,-3.59191,27,0.00590214,10,-0.000232128,-2.44467,0.737934,0.079953,-11.2,0.0646252,
2,0,0,1,0,52386.8,0.0634727,0.0631427,-3.57537,27,0.00576714,10,-0.000225759,-2.44668,0.67516,0.0873867,-12.1807,0.0631427,
2,0,0,1,0,52386.9,0.0619728,0.0615866,-3.55604,27,0.00563289,10,-0.000219004,-2.44903,0.656453,0.089877,-12.4611,0.0615866,
2,0,0,1,0,52386.9,0.0604764,0.0601897,-3.53839,27,0.00549966,10,-0.000212975,-2.45119,0.695061,0.0848847,-11.7073,0.0601897,
2,0,0,1,0,52386.9,0.05898,0.0586616,-3.52042,27,0.00536707,10,-0.000206513,-2.45341,0.643402,0.0917,-12.592,0.0586616,
2,0,0,1,0,52387,0.05748,0.0571675,-3.49694,27,0.00523479,10,-0.000199912,-2.45631,0.629218,0.0937671,-12.818,0.0571675,
2,0,0,1,0,52387,0.05598,0.0556324,-3.47675,27,0.0051033,10,-0.00019342,-2.45883,0.642935,0.0917667,-12.4804,0.0556324,
2,0,0,1,0,52387,0.0544836,0.0541567,-3.45852,27,0.00497291,10,-0.000187302,-2.46111,0.68817,0.0857346,-11.5864,0.0541567,
2,0,0,1,0,52387.1,0.0529881,0.0526292,-3.44442,27,0.00484311,10,-0.000181277,-2.46288,0.697277,0.0846149,-11.3704,0.0526292,
2,0,0,1,0,52387.1,0.0514846,0.0511443,-3.42323,27,0.00471335,10,-0.000175079,-2.46556,0.572118,0.103126,-13.773,0.0511443,
2,0,0,1,0,52387.2,0.049989,0.04965,-3.40302,27,0.00458501,10,-0.00016896,-2.46814,0.581702,0.101426,-13.4579,0.04965004,
2,0,0,1,0,52387.2,0.0484926,0.0481856,-3.38255,27,0.00445752,10,-0.00016299,-2.47076,0.54891,0.107486,-14.1875,0.0481856,
2,0,0,1,0,52387.2,0.0469927,0.0466643,-3.36399,27,0.00433042,10,-0.000156978,-2.47315,0.597844,0.098688,-12.9434,0.0466643,
2,0,0,1,0,52387.3,0.0454927,0.0451703,-3.34111,27,0.00420404,10,-0.000150919,-2.47611,0.537014,0.109867,-14.3269,0.0451703,
2,0,0,1,0,52387.3,0.0439963,0.0437064,-3.31919,27,0.00407879,10,-0.00014507,-2.47897,0.496259,0.118889,-15.4255,0.0437064,
2,0,0,1,0,52387.3,0.0424999,0.0421518,-3.29802,27,0.00395444,10,-0.000139017,-2.48175,0.516923,0.114137,-14.7095,0.0421518,
2,0,0,1,0,52387.4,0.0409999,0.0406612,-3.27692,27,0.00383054,10,-0.000133243,-2.48453,0.511349,0.115381,-14.7524,0.0406612,
2,0,0,1,0,52387.4,0.0394999,0.039143,-3.25804,27,0.00370741,10,-0.00012753,-2.48704,0.485807,0.121447,-15.4066,0.039143,
2,0,0,1,0,52387.5,0.0380044,0.0376591,-3.23189,27,0.00358549,10,-0.00012171,-2.49054,0.442763,0.133254,-16.7796,0.03765912,
2,0,0,1,0,52387.5,0.0365089,0.0361935,-3.20571,27,0.00346454,10,-0.000116026,-2.49408,0.461344,0.127887,-15.9839,0.03619349,
2,0,0,1,0,52387.5,0.0350054,0.0346483,-3.18272,27,0.00334386,10,-0.000110276,-2.4972,0.470215,0.125475,-15.5844,0.0346483,
2,0,0,1,0,52387.6,0.033509,0.0331797,-3.15641,27,0.00322468,10,-0.000104729,-2.50081,0.438122,0.134666,-16.606,0.0331797,
2,0,0,1,0,52387.6,0.0320125,0.0316814,-3.12937,27,0.0031064,10,-9.91428e-05,-2.50454,0.419489,0.140647,-17.2143,0.0316814,
2,0,0,1,0,52387.6,0.0305126,0.0302013,-3.10096,27,0.00298882,10,-9.36532e-05,-2.5085,0.433189,0.136199,-16.5273,0.0302013,
2,0,0,1,0,52387.7,0.0290126,0.0286542,-3.0822,27,0.0028722,10,-8.83177e-05,-2.51114,0.451864,0.13057,-15.7058,0.0286542,
2,0,0,1,0,52387.7,0.0275162,0.0271962,-3.06092,27,0.00275671,10,-8.32455e-05,-2.51415,0.445241,0.132513,-15.8096,0.0271962,
2,0,0,1,0,52387.8,0.0260198,0.0256661,-3.0378,27,0.00264211,10,-7.79686e-05,-2.51744,0.415802,0.141895,-16.7784,0.0256661,
2,0,0,1,0,52387.8,0.0245198,0.024162,-3.00888,27,0.00252812,10,-7.27007e-05,-2.5216,0.437843,0.134751,-15.8184,0.02416203,
2,0,0,1,0,52387.8,0.0230198,0.0227006,-2.98746,27,0.00241513,10,-6.78171e-05,-2.5247,0.433115,0.136222,-15.8923,0.0227006,
2,0,0,1,0,52387.9,0.0215243,0.0212229,-2.9629,27,0.00230322,10,-6.28814e-05,-2.52828,0.495289,0.119122,-13.7841,0.0212229,
2,0,0,1,0,52387.9,0.0200288,0.0197092,-2.93969,27,0.00219214,10,-5.79389e-05,-2.5317,0.447581,0.13182,-15.1503,0.0197092,
2,0,0,1,0,52387.9,0.0185253,0.0181667,-2.9201,27,0.00208125,10,-5.30486e-05,-2.5346,0.482552,0.122267,-13.9555,0.01816671,
2,0,0,1,0,52388,0.0170289,0.0167072,-2.89941,27,0.00197183,10,-4.8441e-05,-2.53769,0.531437,0.11102,-12.573,0.01670721,
2,0,0,1,0,52388,0.0155325,0.0151908,-2.88297,27,0.00186309,10,-4.37947e-05,-2.54016,0.58918,0.100139,-11.2535,0.01519079,
2,0,0,1,0,52388.1,0.0140325,0.0137189,-2.86879,27,0.00175466,10,-3.93567e-05,-2.5423,0.590675,0.0998858,-11.1528,0.0137189,
2,0,0,1,0,52388.1,0.0125325,0.0121644,-2.84862,27,0.00164693,10,-3.46519e-05,-2.54537,0.547735,0.107716,-11.9665,0.0121644,
2,0,0,1,0,52388.1,0.0110361,0.0106824,-2.83,27,0.00154023,10,-3.02313e-05,-2.54821,0.635548,0.0928333,-10.2665,0.0106824,
2,0,0,1,0,52388.2,0.0095397,0.00918953,-2.81462,27,0.00143403,10,-2.58651e-05,-2.55058,0.766603,0.0769629,-8.45848,0.00918953,
2,0,0,1,0,52388.2,0.00803616,0.00767022,-2.80033,27,0.00132779,10,-2.14791e-05,-2.55279,0.695026,0.0848889,-9.30144,0.00767022,
2,0,0,1,0,52388.2,0.00654064,0.00622333,-2.78745,27,0.00122258,10,-1.73472e-05,-2.55479,0.757198,0.0779189,-8.49295,0.00622333,
2,0,0,1,0,52388.3,0.00504513,0.0047081,-2.77544,27,0.00111786,10,-1.30671e-05,-2.55667,0.777799,0.0758551,-8.22342,0.0047081,
2,0,0,1,0,52388.3,0.00354515,0.00324267,-2.76593,27,0.00101329,10,-8.96897e-06,-2.55816,22.3234,0.00264297,-0.286654,0.00324267,
2,0,0,1,0,52388.4,0.00204518,0.00164612,-2.79368,27,0.000908782,10,-4.59874e-06,-2.55382,7.93163,0.00743857,-0.802897,0.00164612,
2,0,0,1,0,52388.4,0.000548773,0.000155438,-2.76521,27,0.000804319,10,-4.2982e-07,-2.55827, , , ,0.000155438,
2,0,0,1,0,52388.4,0.000177222,-0.00026119,-2.7641,27,0.000778435,10,7.21957e-07,-2.55845, , , ,-0.00026119,