File: Figure_codes/Fig_3-5/rawdata_trumpetplot_data/after 10th/20221101_1-115_003_TrumpetPlot_ParaChange_from10_every3_06_CV_C01_11.csv
mode,ox/red,error,control changes,counter inc.,time/s,control/V,Ewe/V,<I>/mA,cycle number,(Q-Qo)/C,I Range,P/W,log(|I|),Tafel slope mV/dec,alpha_eff,dI/d(E-IR),E-IR/V,
2,0,0,0,0,22821.5,2.44065e-05,-0.000268062,-1.41598,12,0.0000000E+000,10,3.7957e-07,-2.84894, , , ,-0.000268062,
2,0,0,1,0,22821.5,0.00129787,0.000907172,-0.107663,12,-1.9288e-05,10,-9.76692e-08,-3.96793, , , ,0.000907172,
2,1,0,1,0,22821.5,0.00279427,0.00247131,0.608582,12,-7.69187e-06,10,1.504e-06,-3.21568,0.0119232,4.94834,377.285,0.00247131,
2,1,0,1,0,22821.6,0.00429425,0.00394287,0.957762,12,2.3067e-05,10,3.77633e-06,-3.01874,0.00881069,6.69641,197.692,0.00394287,
2,1,0,1,0,22821.6,0.00579422,0.00549307,1.17187,12,6.40359e-05,10,6.43714e-06,-2.93112,0.0207077,2.84918,121.101,0.00549307,
2,1,0,1,0,22821.6,0.00729063,0.00698648,1.31694,12,0.000111357,10,9.20077e-06,-2.88043,0.0353405,1.66947,82.6913,0.00698648,
2,1,0,1,0,22821.7,0.00878703,0.0084349,1.42014,12,0.000163287,10,1.19788e-05,-2.84767,0.0522389,1.12943,61.3061,0.0084349,
2,1,0,1,0,22821.7,0.010287,0.00999254,1.49647,12,0.000218676,10,1.49536e-05,-2.82493,0.0725503,0.813228,46.9191,0.00999254,
2,1,0,1,0,22821.7,0.011787,0.0115114,1.55487,12,0.000276648,10,1.78987e-05,-2.80831,0.0911828,0.647052,39.2364,0.01151137,
2,1,0,1,0,22821.8,0.0132825,0.0129733,1.60916,12,0.000336571,10,2.0876e-05,-2.7934,0.100877,0.584868,36.8652,0.0129733,
2,1,0,1,0,22821.8,0.014778,0.0144881,1.66133,12,0.000398537,10,2.40696e-05,-2.77954,0.116251,0.507524,32.8885,0.0144881,
2,1,0,1,0,22821.9,0.0162816,0.0159694,1.71104,12,0.000462741,10,2.73244e-05,-2.76674,0.135199,0.436394,29.0286,0.01596945,
2,1,0,1,0,22821.9,0.017778,0.0174491,1.75298,12,0.000528236,10,3.05878e-05,-2.75622,0.159368,0.370213,25.202,0.0174491,
2,1,0,1,0,22821.9,0.0192744,0.0189423,1.79221,12,0.000595029,10,3.39487e-05,-2.74661,0.164762,0.358092,24.9738,0.0189423,
2,1,0,1,0,22822,0.0207743,0.0204675,1.82875,12,0.000663501,10,3.74298e-05,-2.73785,0.157969,0.373491,26.5825,0.0204675,
2,1,0,1,0,22822,0.0222743,0.0219678,1.86387,12,0.000733448,10,4.09451e-05,-2.72958,0.162918,0.362146,26.368,0.0219678,
2,1,0,1,0,22822,0.0237707,0.0235008,1.90254,12,0.000804649,10,4.47112e-05,-2.72067,0.18065,0.326599,24.2555,0.0235008,
2,1,0,1,0,22822.1,0.0252671,0.025011,1.93458,12,0.000877145,10,4.83859e-05,-2.71341,0.187183,0.315199,23.9085,0.025011,
2,1,0,1,0,22822.1,0.0267671,0.0264687,1.97435,12,0.000951143,10,5.22585e-05,-2.70458,0.174087,0.338911,26.1317,0.0264687,
2,1,0,1,0,22822.2,0.0282671,0.0279663,2.01616,12,0.0010266,10,5.63846e-05,-2.69548,0.187204,0.315165,24.7042,0.0279663,
2,1,0,1,0,22822.2,0.0297626,0.0294879,2.05352,12,0.00110322,10,6.0554e-05,-2.6875,0.203802,0.289497,23.0626,0.0294879,
2,1,0,1,0,22822.2,0.0312581,0.0309349,2.0842,12,0.00118112,10,6.44745e-05,-2.68106,0.201614,0.292638,23.7509,0.03093493,
2,1,0,1,0,22822.3,0.0327616,0.032449,2.11808,12,0.00126072,10,6.87296e-05,-2.67406,0.209797,0.281224,23.2412,0.032449,
2,1,0,1,0,22822.3,0.034258,0.0339412,2.15502,12,0.00134136,10,7.31438e-05,-2.66655,0.200387,0.294431,24.8033,0.0339412,
2,1,0,1,0,22822.3,0.0357545,0.0354547,2.19055,12,0.00142341,10,7.76654e-05,-2.65945,0.228181,0.258567,22.1143,0.0354547,
2,1,0,1,0,22822.4,0.0372544,0.0369145,2.22594,12,0.00150704,10,8.21694e-05,-2.65249,0.212554,0.277576,24.1918,0.0369145,
2,1,0,1,0,22822.4,0.0387544,0.0384657,2.26449,12,0.00159188,10,8.71051e-05,-2.64503,0.213717,0.276066,24.4255,0.0384657,
2,1,0,1,0,22822.5,0.0402508,0.0399651,2.30141,12,0.00167789,10,9.19763e-05,-2.63801,0.217469,0.271303,24.3516,0.0399651,
2,1,0,1,0,22822.5,0.0417472,0.0414117,2.34347,12,0.00176542,10,9.70469e-05,-2.63014,0.223184,0.264356,24.0269,0.0414117,
2,1,0,1,0,22822.5,0.0432472,0.0429599,2.37647,12,0.00185447,10,0.000102093,-2.62407,0.24787,0.238028,21.9896,0.04295985,
2,1,0,1,0,22822.6,0.0447472,0.0444196,2.40734,12,0.0019447,10,0.000106933,-2.61846,0.243389,0.24241,22.7764,0.0444196,
2,1,0,1,0,22822.6,0.0462427,0.0458977,2.43999,12,0.00203603,10,0.00011199,-2.61261,0.231244,0.255142,24.3267,0.0458977,
2,1,0,1,0,22822.6,0.0477382,0.0474349,2.47538,12,0.00212869,10,0.000117419,-2.60636,0.240339,0.245487,23.7624,0.0474349,
2,1,0,1,0,22822.7,0.0492417,0.0489312,2.51044,12,0.00222319,10,0.000122839,-2.60025,0.254782,0.23157,22.7219,0.0489312,
2,1,0,1,0,22822.7,0.0507381,0.050419,2.54078,12,0.00231841,10,0.000128103,-2.59503,0.273148,0.216,21.4588,0.050419,
2,1,0,1,0,22822.8,0.0522345,0.0519352,2.57925,12,0.00241486,10,0.000133954,-2.58851,0.255908,0.230552,23.1975,0.0519352,
2,1,0,1,0,22822.8,0.0537345,0.0534314,2.62091,12,0.0025129,10,0.000140039,-2.58155,0.261655,0.225487,22.9536,0.0534314,
2,1,0,1,0,22822.8,0.0552345,0.0549043,2.64977,12,0.00261229,10,0.000145484,-2.57679,0.301892,0.195434,20.1191,0.0549043,
2,1,0,1,0,22822.9,0.0567309,0.0564214,2.67303,12,0.0027125,10,0.000150816,-2.573,0.297884,0.198064,20.7103,0.05642144,
2,1,0,1,0,22822.9,0.0582273,0.0579152,2.70629,12,0.0028138,10,0.000156735,-2.56763,0.297127,0.198568,20.9952,0.0579152,
2,1,0,1,0,22822.9,0.0597309,0.0594052,2.73874,12,0.00291693,10,0.000162696,-2.56245,0.291126,0.202661,21.6875,0.0594052,
2,1,0,1,0,22823,0.0612264,0.0609627,2.76957,12,0.00302066,10,0.000168841,-2.55759,0.344802,0.171112,18.4828,0.0609627,
2,1,0,1,0,22823,0.0627219,0.0624222,2.79818,12,0.00312551,10,0.000174668,-2.55312,0.326358,0.180783,19.7521,0.0624222,
2,1,0,1,0,22823.1,0.0642218,0.0639869,2.82909,12,0.00323163,10,0.000181024,-2.54835,0.321093,0.183747,20.2876,0.0639869,
2,1,0,1,0,22823.1,0.0657218,0.0654003,2.8584,12,0.00333891,10,0.000186941,-2.54388,0.303411,0.194456,21.6492,0.0654003,
2,1,0,1,0,22823.1,0.0672182,0.0669263,2.89026,12,0.00344709,10,0.000193434,-2.53906,0.365129,0.161587,18.1711,0.0669263,
2,1,0,1,0,22823.2,0.0687146,0.068419,2.91355,12,0.00355627,10,0.000199342,-2.53558,0.441542,0.133622,15.1933,0.068419,
2,1,0,1,0,22823.2,0.0702146,0.0699111,2.93595,12,0.00366654,10,0.000205256,-2.53225,0.394279,0.14964,17.1711,0.0699111,
2,1,0,1,0,22823.2,0.0717146,0.0713886,2.95846,12,0.00377781,10,0.000211201,-2.52893,0.37979,0.155349,17.979,0.0713886,
2,1,0,1,0,22823.3,0.073211,0.0728977,2.98655,12,0.0038898,10,0.000217713,-2.52483,0.418262,0.14106,16.4736,0.0728977,
2,1,0,1,0,22823.3,0.0747074,0.0743746,3.01244,12,0.00400274,10,0.000224049,-2.52108,0.471977,0.125006,14.6857,0.0743746,
2,1,0,1,0,22823.4,0.0762109,0.0758854,3.03353,12,0.0041171,10,0.000230201,-2.51805,0.473847,0.124513,14.747,0.0758854,
2,1,0,1,0,22823.4,0.0777064,0.0773401,3.05726,12,0.00423164,10,0.000236449,-2.51467,0.443638,0.132991,15.8646,0.0773401,
2,1,0,1,0,22823.4,0.079202,0.0788705,3.08655,12,0.00434718,10,0.000243438,-2.51053,0.452937,0.130261,15.6349,0.0788705,
2,1,0,1,0,22823.5,0.0807019,0.0803884,3.10121,12,0.00446389,10,0.000249301,-2.50847,0.572358,0.103082,12.4649,0.0803884,
2,1,0,1,0,22823.5,0.0822019,0.0819092,3.11441,12,0.00458128,10,0.000255098,-2.50662,0.546061,0.108046,13.1747,0.08190915,
2,1,0,1,0,22823.5,0.0836983,0.0834096,3.13546,12,0.0046989,10,0.000261527,-2.5037,0.52733,0.111884,13.7494,0.0834096,
2,1,0,1,0,22823.6,0.0851947,0.0848948,3.16179,12,0.00481743,10,0.000268419,-2.50007,0.445153,0.132539,16.3902,0.0848948,
2,1,0,1,0,22823.6,0.0866947,0.0864026,3.19116,12,0.00493728,10,0.000275725,-2.49605,0.466026,0.126602,15.741,0.0864026,
2,1,0,1,0,22823.7,0.0881947,0.0878625,3.21906,12,0.00505807,10,0.000282835,-2.49227,0.461667,0.127798,16.0163,0.0878625,
2,1,0,1,0,22823.7,0.0896911,0.0893796,3.24364,12,0.00517927,10,0.000289915,-2.48897,0.45458,0.12979,16.3958,0.0893796,
2,1,0,1,0,22823.7,0.0911875,0.0908485,3.26774,12,0.00530148,10,0.000296869,-2.48575,0.388551,0.151846,19.3312,0.0908485,
2,1,0,1,0,22823.8,0.0926901,0.0923376,3.3013,12,0.00542552,10,0.000304834,-2.48132,0.328103,0.179822,23.1439,0.0923376,
2,1,0,1,0,22823.8,0.0941856,0.0939006,3.32307,12,0.00555005,10,0.000312038,-2.47846,0.360454,0.163683,21.2927,0.0939006,
2,1,0,1,0,22823.8,0.0956821,0.0953453,3.35765,12,0.00567581,10,0.000320136,-2.47396,0.310122,0.190247,25.0132,0.0953453,
2,1,0,1,0,22823.9,0.097182,0.0968727,3.39897,12,0.00580326,10,0.000329267,-2.46865,0.265834,0.221943,29.5336,0.09687265,
2,1,0,1,0,22823.9,0.098682,0.0983597,3.44618,12,0.00593238,10,0.000338966,-2.46266,0.252715,0.233465,31.404,0.0983597,
2,1,0,1,0,22824,0.100178,0.0998967,3.4988,12,0.00606289,10,0.000349519,-2.45608,0.256025,0.230446,31.4194,0.0998967,
2,1,0,1,0,22824,0.101675,0.101343,3.54475,12,0.00619516,10,0.000359236,-2.45041,0.235942,0.250062,34.6024,0.101343,
2,1,0,1,0,22824,0.103175,0.102889,3.60559,12,0.00632975,10,0.000370976,-2.44302,0.206041,0.286351,40.2842,0.102889,
2,1,0,1,0,22824.1,0.104675,0.104385,3.66509,12,0.00646659,10,0.000382583,-2.43591,0.206136,0.286219,40.9402,0.104385,
2,1,0,1,0,22824.1,0.106171,0.105828,3.72238,12,0.00660552,10,0.000393931,-2.42918,0.215883,0.273296,39.6874,0.105828,
2,1,0,1,0,22824.1,0.107667,0.107324,3.78317,12,0.00674668,10,0.000406025,-2.42214,0.209932,0.281043,41.5761,0.107324,
2,1,0,1,0,22824.2,0.10917,0.108879,3.84598,12,0.00689078,10,0.000418745,-2.41499,0.204614,0.288348,43.3358,0.108879,
2,1,0,1,0,22824.2,0.110666,0.110357,3.91191,12,0.00703658,10,0.000431706,-2.40761,0.214197,0.275447,42.0407,0.110357,
2,1,0,1,0,22824.3,0.112162,0.111826,3.97514,12,0.00718476,10,0.000444524,-2.40065,0.22969,0.256868,39.7735,0.111826,
2,1,0,1,0,22824.3,0.113662,0.113361,4.03705,12,0.00733565,10,0.000457644,-2.39394,0.247014,0.238853,37.5103,0.113361,
2,1,0,1,0,22824.3,0.115162,0.114853,4.08698,12,0.0074885,10,0.000469403,-2.3886,0.26418,0.223333,35.5952,0.114853,
2,1,0,1,0,22824.4,0.116658,0.116329,4.13749,12,0.00764304,10,0.000481309,-2.38326,0.271454,0.217348,35.0924,0.1163287,
2,1,0,1,0,22824.4,0.118155,0.117818,4.19176,12,0.00779958,10,0.000493866,-2.3776,0.31289,0.188565,30.8105,0.117818,
2,1,0,1,0,22824.4,0.119655,0.11936,4.23556,12,0.00795832,10,0.000505555,-2.37309,0.383594,0.153808,25.4043,0.11936,
2,1,0,1,0,22824.5,0.121155,0.120868,4.26576,12,0.00811844,10,0.000515592,-2.37,0.39235,0.150376,25.0868,0.120868,
2,1,0,1,0,22824.5,0.122651,0.122322,4.30947,12,0.00827951,10,0.000527144,-2.36558,0.410535,0.143715,24.1355,0.122322,
2,1,0,1,0,22824.6,0.124147,0.123867,4.34637,12,0.00844201,10,0.000538371,-2.36187,0.448504,0.131549,22.2766,0.123867,
2,1,0,1,0,22824.6,0.12565,0.125346,4.37858,12,0.00860657,10,0.000548838,-2.35867,0.51046,0.115582,19.6945,0.125346,
2,1,0,1,0,22824.6,0.127146,0.126839,4.39495,12,0.00877137,10,0.000557453,-2.35705,0.542551,0.108745,18.662,0.126839,
2,1,0,1,0,22824.7,0.128642,0.128358,4.4305,12,0.00893708,10,0.000568691,-2.35355,0.604157,0.0976567,16.8797,0.128358,
2,1,0,1,0,22824.7,0.130142,0.129843,4.45169,12,0.00910429,10,0.000578022,-2.35148,0.575384,0.10254,17.8245,0.129843,
2,1,0,1,0,22824.7,0.131642,0.131341,4.48169,12,0.00927256,10,0.000588632,-2.34856,0.665559,0.0886473,15.4906,0.131341,
2,1,0,1,0,22824.8,0.133139,0.13284,4.50391,12,0.00944129,10,0.000598299,-2.34641,0.786967,0.0749714,13.1818,0.13284,
2,1,0,1,0,22824.8,0.134635,0.134314,4.52567,12,0.00961064,10,0.00060786,-2.34432,0.998252,0.0591033,10.4263,0.1343139,
2,1,0,1,0,22824.9,0.136135,0.135824,4.5449,12,0.00978124,10,0.000617309,-2.34248,1.15907,0.0509029,9.00111,0.1358245,
2,1,0,1,0,22824.9,0.137635,0.137344,4.5559,12,0.00995236,10,0.000625725,-2.34143,3.00138,0.0196576,3.47968,0.137344,
2,1,0,1,0,22824.9,0.13913,0.138836,4.55418,12,0.0101233,10,0.000632284,-2.34159,-3.01541,-0.0195662,-3.46277,0.138836,
2,1,0,1,0,22825,0.140626,0.140307,4.53276,12,0.0102938,10,0.000635976,-2.34364,-0.74281,-0.0794282,-14.0215,0.140307,
2,1,0,1,0,22825,0.14213,0.14186,4.50386,12,0.0104645,10,0.000638919,-2.34641,-0.465537,-0.126735,-22.2373,0.14186,
2,1,0,1,0,22825,0.143626,0.143334,4.4674,12,0.0106331,10,0.000640332,-2.34994,-0.287365,-0.205314,-35.6719,0.143334,
2,1,0,1,0,22825.1,0.145122,0.144786,4.39499,12,0.0107996,10,0.000636334,-2.35704,-0.186669,-0.316068,-54.0455,0.144786,
2,1,0,1,0,22825.1,0.146622,0.146331,4.30676,12,0.0109636,10,0.000630211,-2.36585,-0.146048,-0.403977,-67.6276,0.146331,
2,1,0,1,0,22825.2,0.148122,0.147814,4.20412,12,0.0111238,10,0.000621429,-2.37633,-0.121044,-0.487425,-79.4555,0.147814,
2,1,0,1,0,22825.2,0.149619,0.149336,4.07659,12,0.0112792,10,0.000608781,-2.3897,-0.106986,-0.551475,-87.3133,0.149336,
2,1,0,1,0,22825.2,0.151115,0.150792,3.93235,12,0.0114295,10,0.000592965,-2.40535,-0.0906416,-0.650916,-99.4046,0.150792,
2,1,0,1,0,22825.3,0.152615,0.152287,3.77325,12,0.0115748,10,0.000574617,-2.42328,-0.083959,-0.702724,-103.357,0.152287,
2,1,0,1,0,22825.3,0.154115,0.153783,3.61227,12,0.011714,10,0.000555505,-2.44222,-0.0782144,-0.754336,-106.543,0.153783,
2,1,0,1,0,22825.3,0.155611,0.155279,3.45438,12,0.0118469,10,0.000536391,-2.46163,-0.0780798,-0.755637,-102.028,0.155279,
2,1,0,1,0,22825.4,0.157106,0.1568,3.30404,12,0.011974,10,0.000518074,-2.48096,-0.0747723,-0.789063,-101.722,0.1568,
2,1,0,1,0,22825.4,0.15861,0.158349,3.15833,12,0.0120961,10,0.000500118,-2.50054,-0.0753922,-0.782575,-96.5377,0.1583489,
2,1,0,1,0,22825.5,0.160106,0.159807,3.01618,12,0.012212,10,0.000482006,-2.52054,-0.0793616,-0.743432,-87.7317,0.159807,
2,1,0,1,0,22825.5,0.161602,0.161287,2.89528,12,0.0123231,10,0.000466971,-2.53831,-0.0861056,-0.685205,-77.424,0.161287,
2,1,0,1,0,22825.5,0.163102,0.16278,2.78203,12,0.0124301,10,0.00045286,-2.55564,-0.0908971,-0.649086,-70.5571,0.16278,
2,1,0,1,0,22825.6,0.164602,0.164304,2.67738,12,0.012533,10,0.000439906,-2.57229,-0.0940029,-0.62764,-65.7679,0.164304,
2,1,0,1,0,22825.6,0.166099,0.165786,2.58125,12,0.012632,10,0.000427935,-2.58817,-0.101555,-0.580968,-58.8986,0.165786,
2,1,0,1,0,22825.6,0.167595,0.16729,2.50315,12,0.0127277,10,0.000418753,-2.60151,-0.114993,-0.513075,-50.3241,0.16729,
2,1,0,1,0,22825.7,0.169095,0.168808,2.43578,12,0.012821,10,0.000411179,-2.61336,-0.125916,-0.468567,-44.6344,0.168808,
2,1,0,1,0,22825.7,0.170595,0.170286,2.37105,12,0.0129118,10,0.000403758,-2.62506,-0.132528,-0.445188,-41.2416,0.170286,
2,1,0,1,0,22825.8,0.172091,0.171758,2.31087,12,0.0129999,10,0.000396912,-2.63622,-0.141236,-0.41774,-37.7515,0.171758,
2,1,0,1,0,22825.8,0.173586,0.173292,2.26616,12,0.0130861,10,0.000392708,-2.64471,-0.157708,-0.374109,-33.0436,0.173292,
2,1,0,1,0,22825.8,0.17509,0.174769,2.21594,12,0.0131709,10,0.000387277,-2.65444,-0.175857,-0.3355,-29.0405,0.174769,
2,1,0,1,0,22825.9,0.176586,0.176312,2.17113,12,0.0132536,10,0.000382797,-2.66331,-0.182246,-0.323739,-27.4838,0.176312,
2,1,0,1,0,22825.9,0.178083,0.177766,2.13046,12,0.0133349,10,0.000378724,-2.67153,-0.208698,-0.282705,-23.6089,0.177766,
2,1,0,1,0,22825.9,0.179582,0.179278,2.1014,12,0.0134149,10,0.000376733,-2.67749,-0.224621,-0.262665,-21.6441,0.179278,
2,1,0,1,0,22826,0.181082,0.180792,2.07381,12,0.0134938,10,0.000374929,-2.68323,-0.268193,-0.219991,-17.8272,0.180792,
2,1,0,1,0,22826,0.182579,0.182271,2.05013,12,0.0135716,10,0.00037368,-2.68822,-0.266992,-0.220981,-17.6374,0.182271,
2,1,0,1,0,22826.1,0.184075,0.183791,2.02886,12,0.0136484,10,0.000372886,-2.69275,-0.288884,-0.204234,-16.1095,0.183791,
2,1,0,1,0,22826.1,0.185579,0.185292,2.00377,12,0.0137246,10,0.000371282,-2.69815,-0.323129,-0.182589,-14.2548,0.185292,
2,1,0,1,0,22826.1,0.187074,0.186772,1.98136,12,0.0137997,10,0.000370062,-2.70304,-0.415665,-0.141941,-10.9743,0.186772,
2,1,0,1,0,22826.2,0.18857,0.188231,1.96436,12,0.0138742,10,0.000369752,-2.70678,-0.398895,-0.147909,-11.3448,0.1882308,
2,1,0,1,0,22826.2,0.19007,0.189762,1.94482,12,0.0139482,10,0.000369051,-2.71112,-0.424369,-0.13903,-10.5822,0.189762,
2,1,0,1,0,22826.2,0.19157,0.191257,1.92768,12,0.0140215,10,0.000368683,-2.71496,-0.442934,-0.133203,-10.0648,0.191257,
2,1,0,1,0,22826.3,0.193066,0.192733,1.91657,12,0.0140941,10,0.000369387,-2.71747,-0.530878,-0.111137,-8.32631,0.192733,
2,1,0,1,0,22826.3,0.194563,0.194272,1.90999,12,0.0141663,10,0.000371057,-2.71897,-0.547542,-0.107754,-8.01348,0.194272,
2,1,0,1,0,22826.4,0.196063,0.195785,1.89853,12,0.0142383,10,0.000371704,-2.72158,-0.512259,-0.115176,-8.4999,0.195785,
2,1,0,1,0,22826.4,0.197563,0.197229,1.88466,12,0.0143098,10,0.00037171,-2.72477,-0.561634,-0.105051,-7.7144,0.197229,
2,1,0,1,0,22826.4,0.199059,0.198765,1.87557,12,0.0143806,10,0.000372799,-2.72687,-0.592717,-0.0995415,-7.28822,0.198765,
2,1,0,1,0,22826.5,0.200555,0.200262,1.86266,12,0.0144511,10,0.000373021,-2.72987,-0.792556,-0.0744427,-5.42293,0.200262,
2,1,0,1,0,22826.5,0.202059,0.201753,1.85766,12,0.0145217,10,0.000374789,-2.73103,-0.639837,-0.092211,-6.67519,0.201753,
2,1,0,1,0,22826.5,0.203554,0.203241,1.8406,12,0.0145916,10,0.000374086,-2.73504,-0.758561,-0.0777789,-5.61004,0.203241,
2,1,0,1,0,22826.6,0.20505,0.204721,1.8342,12,0.014661,10,0.000375499,-2.73655,-1.14686,-0.0514447,-3.70273,0.204721,
2,1,0,1,0,22826.6,0.20655,0.206264,1.8347,12,0.0147305,10,0.000378431,-2.73644,-1.16851,-0.0504918,-3.60373,0.206264,
2,1,0,1,0,22826.7,0.20805,0.207752,1.82887,12,0.0147999,10,0.000379951,-2.73782,-1.09953,-0.0536591,-3.81172,0.207752,
2,1,0,1,0,22826.7,0.209546,0.209291,1.81811,12,0.0148688,10,0.000380513,-2.74038,-0.719267,-0.082028,-5.81534,0.209291,
2,1,0,1,0,22826.7,0.211043,0.210736,1.81088,12,0.0149373,10,0.000381616,-2.74211,-1.00653,-0.0586172,-4.15085,0.210736,
2,1,0,1,0,22826.8,0.212543,0.212213,1.8029,12,0.0150058,10,0.000382598,-2.74403,-1.24195,-0.0475061,-3.35303,0.2122131,
2,1,0,1,0,22826.8,0.214043,0.21375,1.80084,12,0.0150741,10,0.000384928,-2.74453,-0.880502,-0.0670072,-4.71311,0.2137495,
2,1,0,1,0,22826.8,0.215539,0.215208,1.79304,12,0.0151421,10,0.000385878,-2.74641,-0.939053,-0.0628292,-4.4099,0.215208,
2,1,0,1,0,22826.9,0.217035,0.216725,1.78658,12,0.0152097,10,0.000387197,-2.74798,-1.08263,-0.0544969,-3.8125,0.216725,
2,1,0,1,0,22826.9,0.218538,0.218242,1.78867,12,0.0152775,10,0.000390364,-2.74747,-3.74099,-0.0157712,-1.09874,0.218242,
2,1,0,1,0,22827,0.220034,0.219713,1.78462,12,0.0153449,10,0.000392105,-2.74845,-1.83117,-0.0322199,-2.23651,0.219713,
2,1,0,1,0,22827,0.22153,0.221206,1.77974,12,0.0154122,10,0.000393689,-2.74964,-1.36725,-0.0431522,-2.98933,0.221206,
2,1,0,1,0,22827,0.22303,0.222691,1.76833,12,0.0154794,10,0.000393789,-2.75244,-1.1622,-0.0507659,-3.51109,0.222691,
2,1,0,1,0,22827.1,0.22453,0.224238,1.76868,12,0.0155464,10,0.000396604,-2.75235,-1.1308,-0.0521754,-3.60386,0.224238,
2,1,0,1,0,22827.1,0.226026,0.225746,1.76067,12,0.0156131,10,0.000397465,-2.75432,-1.56272,-0.0377548,-2.60373,0.225746,
2,1,0,1,0,22827.1,0.227523,0.227214,1.75858,12,0.0156797,10,0.000399575,-2.75484,-1.02602,-0.0575039,-3.95009,0.227214,
2,1,0,1,0,22827.2,0.229023,0.228731,1.75881,12,0.0157463,10,0.000402295,-2.75478,-1.608,-0.0366916,-2.51668,0.228731,
2,1,0,1,0,22827.2,0.230523,0.230237,1.75572,12,0.0158127,10,0.000404232,-2.75554,-3.05874,-0.019289,-1.3196,0.230237,
2,1,0,1,0,22827.3,0.232019,0.231684,1.75499,12,0.0158788,10,0.000406605,-2.75572,-2.23473,-0.0264013,-1.80029,0.231684,
2,1,0,1,0,22827.3,0.233515,0.233227,1.7489,12,0.0159449,10,0.00040789,-2.75724,-2.49966,-0.0236032,-1.60575,0.233227,
2,1,0,1,0,22827.3,0.235018,0.234751,1.74172,12,0.0160112,10,0.000408869,-2.75902,-2.80929,-0.0210018,-1.42907,0.234751,
2,1,0,1,0,22827.4,0.236514,0.236213,1.73618,12,0.0160769,10,0.000410107,-2.76041,-1.38625,-0.0425609,-2.89259,0.236213,
2,1,0,1,0,22827.4,0.23801,0.237729,1.73224,12,0.0161425,10,0.000411804,-2.76139,-2.2949,-0.0257091,-1.7418,0.2377288,
2,1,0,1,0,22827.4,0.23951,0.239225,1.73134,12,0.0162082,10,0.000414181,-2.76162,-2.40938,-0.0244876,-1.6567,0.239225,
2,1,0,1,0,22827.5,0.24101,0.240713,1.73048,12,0.0162738,10,0.00041655,-2.76183,-2.65273,-0.0222413,-1.50079,0.240713,
2,1,0,1,0,22827.5,0.242506,0.242189,1.72186,12,0.016339,10,0.000417014,-2.764,-2.08118,-0.0283493,-1.90673,0.2421886,
2,1,0,1,0,22827.6,0.244003,0.243703,1.72687,12,0.0164042,10,0.000420843,-2.76274,-2.87676,-0.0205092,-1.37731,0.243703,
2,1,0,1,0,22827.6,0.245503,0.2452,1.72659,12,0.0164694,10,0.000423359,-2.76281,-9.7227,-0.00606828,-0.407341,0.2452,
2,1,0,1,0,22827.6,0.247003,0.246688,1.72245,12,0.0165346,10,0.000424907,-2.76385,-1.34192,-0.0439669,-2.94736,0.246688,
2,1,0,1,0,22827.7,0.248499,0.248149,1.70571,12,0.0165995,10,0.00042327,-2.76809,-1.62055,-0.0364075,-2.44085,0.248149,
2,1,0,1,0,22827.7,0.249995,0.249654,1.7051,12,0.0166641,10,0.000425686,-2.76825,-1.9646,-0.0300316,-2.00958,0.249654,
2,1,0,1,0,22827.7,0.251498,0.251205,1.70741,12,0.016729,10,0.00042891,-2.76766,-3.43474,-0.0171774,-1.14577,0.2512053,
2,1,0,1,0,22827.8,0.252994,0.252678,1.70718,12,0.0167935,10,0.000431365,-2.76772,-1.34378,-0.0439059,-2.91776,0.252678,
2,1,0,1,0,22827.8,0.25449,0.254179,1.7052,12,0.016858,10,0.000433424,-2.76823,-1.62842,-0.0362314,-2.40216,0.254179,
2,1,0,1,0,22827.9,0.25599,0.255681,1.70137,12,0.0169223,10,0.000435009,-2.7692,-2.02303,-0.0291642,-1.93051,0.255681,
2,1,0,1,0,22827.9,0.25749,0.257195,1.69622,12,0.0169867,10,0.000436259,-2.77052,-1.6575,-0.0355958,-2.35501,0.257195,
2,1,0,1,0,22827.9,0.258987,0.25871,1.69354,12,0.0170507,10,0.000438137,-2.7712,-2.56161,-0.0230324,-1.52206,0.25871,
2,1,0,1,0,22828,0.260483,0.260162,1.68984,12,0.0171147,10,0.000439633,-2.77215,-1.63775,-0.0360251,-2.38238,0.260162,
2,1,0,1,0,22828,0.261983,0.261715,1.6861,12,0.0171787,10,0.000441277,-2.77312,-1.71617,-0.0343789,-2.27017,0.261715,
2,1,0,1,0,22828,0.263483,0.263206,1.68515,12,0.0172426,10,0.000443542,-2.77336,-10.2369,-0.00576349,-0.379004,0.263206,
2,1,0,1,0,22828.1,0.264978,0.26465,1.68336,12,0.0173062,10,0.000445501,-2.77382,-2.02818,-0.0290901,-1.90879,0.26465,
2,1,0,1,0,22828.1,0.266474,0.266161,1.68173,12,0.0173697,10,0.000447611,-2.77424,-1.48457,-0.0397421,-2.60059,0.266161,
2,1,0,1,0,22828.2,0.267977,0.267646,1.67753,12,0.0174334,10,0.000448984,-2.77533,-2.0483,-0.0288044,-1.88394,0.267646,
2,1,0,1,0,22828.2,0.269474,0.269208,1.67561,12,0.0174967,10,0.000451088,-2.77583,-5.1934,-0.0113606,-0.742802,0.269208,
2,1,0,1,0,22828.2,0.27097,0.270664,1.67369,12,0.0175599,10,0.000453008,-2.77633,-2.63352,-0.0224035,-1.46224,0.270664,
2,1,0,1,0,22828.3,0.27247,0.272143,1.66928,12,0.0176233,10,0.000454282,-2.77747,-1.4126,-0.041767,-2.72182,0.272143,
2,1,0,1,0,22828.3,0.27397,0.273648,1.65954,12,0.0176865,10,0.00045413,-2.78001,-0.987143,-0.0597685,-3.88771,0.273648,
2,1,0,1,0,22828.3,0.275467,0.275175,1.65812,12,0.0177493,10,0.000456273,-2.78038,-1.12801,-0.0523047,-3.39522,0.275175,
2,1,0,1,0,22828.4,0.276963,0.276642,1.6593,12,0.017812,10,0.000459033,-2.78007,-2.51992,-0.0234135,-1.51412,0.276642,
2,1,0,1,0,22828.4,0.278463,0.278158,1.6584,12,0.0178748,10,0.000461297,-2.78031,-1.87671,-0.031438,-2.0258,0.278158,
2,1,0,1,0,22828.5,0.279963,0.279699,1.65476,12,0.0179375,10,0.000462836,-2.78126,-2.473,-0.0238576,-1.53638,0.279699,
2,1,0,1,0,22828.5,0.281459,0.28115,1.65173,12,0.0179999,10,0.000464383,-2.78206,-1.3463,-0.0438239,-2.81998,0.28115,
2,1,0,1,0,22828.5,0.282954,0.282666,1.63994,12,0.0180621,10,0.000463556,-2.78517,-5.53676,-0.0106561,-0.684313,0.282666,
2,1,0,1,0,22828.6,0.284458,0.284137,1.64247,12,0.0181246,10,0.000466687,-2.7845,-1.85478,-0.0318096,-2.0426,0.284137,
2,1,0,1,0,22828.6,0.285954,0.285676,1.63678,12,0.0181867,10,0.00046759,-2.78601,-1.8816,-0.0313563,-2.0086,0.285676,
2,1,0,1,0,22828.6,0.28745,0.287147,1.63389,12,0.0182486,10,0.000469167,-2.78678,-1.09833,-0.0537179,-3.43077,0.287147,
2,1,0,1,0,22828.7,0.28895,0.288608,1.63565,12,0.0183106,10,0.000472061,-2.78631,-2.54827,-0.0231529,-1.47335,0.288608,
2,1,0,1,0,22828.7,0.29045,0.290151,1.63329,12,0.0183724,10,0.000473901,-2.78694,-1.89556,-0.0311254,-1.97513,0.290151,
2,1,0,1,0,22828.8,0.291947,0.291652,1.62811,12,0.018434,10,0.000474841,-2.78832,-1.61479,-0.0365373,-2.31335,0.291652,
2,1,0,1,0,22828.8,0.293443,0.293208,1.62026,12,0.0184954,10,0.000475073,-2.79042,-2.43229,-0.0242569,-1.53496,0.293208,
2,1,0,1,0,22828.8,0.294943,0.294627,1.61827,12,0.0185568,10,0.000476785,-2.79095,-1.98767,-0.029683,-1.88017,0.294627,
2,1,0,1,0,22828.9,0.296443,0.296128,1.61622,12,0.0186181,10,0.000478608,-2.7915,-2.48408,-0.0237512,-1.49704,0.296128,
2,1,0,1,0,22828.9,0.297939,0.297635,1.61611,12,0.0186793,10,0.00048101,-2.79153,-1.10504,-0.0533916,-3.36045,0.297635,
2,1,0,1,0,22828.9,0.299434,0.29918,1.61172,12,0.0187402,10,0.000482195,-2.79271,-0.0131099,-4.5004,-233.872,0.29918,
2,1,0,0,0,22829,0.299962,0.299632,1.53298,12,0.0187642,10,0.00045933,-2.81446,0.000596422,98.9232,2108.67,0.299632,
2,1,0,1,0,22829,0.298689,0.298437,0.29795,12,0.0187873,10,8.89193e-05,-3.52586,0.00364329,16.1941,553.889,0.298437,
2,0,0,1,0,22829,0.297189,0.296861,-0.13593,12,0.0187883,10,-4.03523e-05,-3.86668,0.0167207,3.52857,234.948,0.296861,
2,0,0,1,0,22829.1,0.295692,0.295426,-0.309565,12,0.018779,10,-9.14535e-05,-3.50925,-0.00351749,-16.7733,98.5761,0.295426,
2,0,0,1,0,22829.1,0.294196,0.293879,-0.400125,12,0.0187648,10,-0.000117588,-3.3978,-0.0150975,-3.90794,55.6156,0.293879,
2,0,0,1,0,22829.1,0.292696,0.292408,-0.464349,12,0.0187477,10,-0.000135779,-3.33316,-0.0262857,-2.24456,39.7298,0.292408,
2,0,0,1,0,22829.2,0.291196,0.290863,-0.517884,12,0.0187284,10,-0.000150633,-3.28577,-0.0365226,-1.61544,32.1872,0.2908628,
2,0,0,1,0,22829.2,0.2897,0.289385,-0.561899,12,0.0187074,10,-0.000162605,-3.25034,-0.0494133,-1.19401,25.9678,0.289385,
2,0,0,1,0,22829.2,0.288205,0.28791,-0.600365,12,0.0186849,10,-0.000172851,-3.22158,-0.0594927,-0.991719,22.845,0.28791,
2,0,0,1,0,22829.3,0.286701,0.286398,-0.627332,12,0.018661,10,-0.000179667,-3.2025,-0.0753134,-0.783393,19.1012,0.286398,
2,0,0,1,0,22829.3,0.285205,0.284929,-0.661378,12,0.0186363,10,-0.000188446,-3.17955,-0.0786698,-0.74997,19.1439,0.284929,
2,0,0,1,0,22829.4,0.283708,0.283427,-0.689227,12,0.0186104,10,-0.000195346,-3.16164,-0.098249,-0.600515,16.0127,0.283427,
2,0,0,1,0,22829.4,0.282208,0.281925,-0.706535,12,0.0185834,10,-0.00019919,-3.15087,-0.109889,-0.536903,14.794,0.281925,
2,0,0,1,0,22829.4,0.280709,0.280408,-0.727756,12,0.0185556,10,-0.000204068,-3.13801,-0.129955,-0.454002,13.0588,0.280408,
2,0,0,1,0,22829.5,0.279212,0.278932,-0.75063,12,0.0185272,10,-0.000209375,-3.12457,-0.124833,-0.472632,13.9736,0.278932,
2,0,0,1,0,22829.5,0.277716,0.277418,-0.772953,12,0.018498,10,-0.000214431,-3.11185,-0.132738,-0.444483,13.3525,0.277418,
2,0,0,1,0,22829.5,0.276216,0.275876,-0.795045,12,0.0184679,10,-0.000219333,-3.09961,-0.14753,-0.39992,12.3321,0.275876,
2,0,0,1,0,22829.6,0.274716,0.274429,-0.814237,12,0.0184371,10,-0.000223451,-3.08925,-0.162753,-0.362513,11.4219,0.274429,
2,0,0,1,0,22829.6,0.27322,0.272889,-0.827319,12,0.0184059,10,-0.000225767,-3.08233,-0.158127,-0.373117,11.9601,0.272889,
2,0,0,1,0,22829.7,0.271725,0.2714,-0.845473,12,0.0183739,10,-0.000229461,-3.0729,-0.146203,-0.40355,13.2071,0.2714,
2,0,0,1,0,22829.7,0.270221,0.269875,-0.857906,12,0.0183412,10,-0.000231527,-3.06656,-0.185078,-0.318784,10.7037,0.269875,
2,0,0,1,0,22829.7,0.268725,0.268462,-0.87271,12,0.018308,10,-0.000234289,-3.05913,-0.248584,-0.237344,8.12185,0.268462,
2,0,0,1,0,22829.8,0.267228,0.266901,-0.885055,12,0.0182743,10,-0.000236222,-3.05303,-0.243284,-0.242515,8.44252,0.266901,
2,0,0,1,0,22829.8,0.265728,0.265437,-0.900257,12,0.0182401,10,-0.000238961,-3.04563,-0.202618,-0.291189,10.2578,0.265437,
2,0,0,1,0,22829.8,0.264228,0.263921,-0.916451,12,0.0182053,10,-0.00024187,-3.03789,-0.233472,-0.252707,9.02491,0.263921,
2,0,0,1,0,22829.9,0.262732,0.262418,-0.933854,12,0.0181701,10,-0.00024506,-3.02972,-0.272201,-0.216752,7.82492,0.262418,
2,0,0,1,0,22829.9,0.261236,0.260926,-0.939094,12,0.0181343,10,-0.000245034,-3.02729,-0.285679,-0.206525,7.58613,0.260926,
2,0,0,1,0,22830,0.259736,0.259459,-0.953466,12,0.0180981,10,-0.000247385,-3.02069,-0.228851,-0.25781,9.61839,0.259459,
2,0,0,1,0,22830,0.258236,0.257928,-0.968456,12,0.0180614,10,-0.000249792,-3.01392,-0.261442,-0.225672,8.52811,0.257928,
2,0,0,1,0,22830,0.256741,0.256404,-0.974449,12,0.0180242,10,-0.000249853,-3.01124,-0.276477,-0.213399,8.15157,0.256404,
2,0,0,1,0,22830.1,0.255241,0.254926,-0.988569,12,0.0179866,10,-0.000252012,-3.00499,-0.286288,-0.206086,7.99466,0.254926,
2,0,0,1,0,22830.1,0.253741,0.25342,-1.00223,12,0.0179486,10,-0.000253985,-2.99903,-0.345328,-0.170852,6.67525,0.25342,
2,0,0,1,0,22830.1,0.252245,0.251946,-1.01361,12,0.0179102,10,-0.000255374,-2.99413,-0.296117,-0.199246,7.86382,0.251946,
2,0,0,1,0,22830.2,0.250748,0.250432,-1.03184,12,0.0178714,10,-0.000258405,-2.98639,-0.316701,-0.186295,7.42082,0.250432,
2,0,0,1,0,22830.2,0.249248,0.248928,-1.03742,12,0.017832,10,-0.000258243,-2.98404,-0.33781,-0.174655,7.0267,0.248928,
2,0,0,1,0,22830.3,0.247748,0.247437,-1.03919,12,0.0177923,10,-0.000257135,-2.9833,-0.348362,-0.169364,6.90752,0.247437,
2,0,0,1,0,22830.3,0.246252,0.24596,-1.05326,12,0.0177523,10,-0.00025906,-2.97746,-0.299829,-0.196779,8.10045,0.24596,
2,0,0,1,0,22830.3,0.244756,0.244473,-1.06221,12,0.0177119,10,-0.000259682,-2.97379,-0.31483,-0.187403,7.83204,0.244473,
2,0,0,1,0,22830.4,0.243252,0.242934,-1.07233,12,0.0176708,10,-0.000260506,-2.96967,-0.498077,-0.118456,4.98361,0.242934,
2,0,0,1,0,22830.4,0.241756,0.241416,-1.08433,12,0.0176297,10,-0.000261776,-2.96484,-0.501827,-0.11757,4.99613,0.241416,
2,0,0,1,0,22830.4,0.240261,0.23994,-1.09792,12,0.0175882,10,-0.000263436,-2.95943,-0.350072,-0.168537,7.19564,0.23994,
2,0,0,1,0,22830.5,0.238761,0.238444,-1.10847,12,0.0175462,10,-0.000264309,-2.95528,-0.349594,-0.168767,7.26599,0.238444,
2,0,0,1,0,22830.5,0.237261,0.236964,-1.11618,12,0.0175038,10,-0.000264494,-2.95227,-0.496674,-0.11879,5.15043,0.236964,
2,0,0,1,0,22830.6,0.235765,0.235476,-1.12197,12,0.0174612,10,-0.000264196,-2.95002,-0.507575,-0.116239,5.10182,0.235476,
2,0,0,1,0,22830.6,0.234268,0.233947,-1.12967,12,0.0174183,10,-0.000264283,-2.94705,-0.384957,-0.153264,6.8174,0.233947,
2,0,0,1,0,22830.6,0.232768,0.232475,-1.14165,12,0.0173749,10,-0.000265405,-2.94247,-0.399757,-0.14759,6.59766,0.232475,
2,0,0,1,0,22830.7,0.231268,0.230978,-1.15269,12,0.017331,10,-0.000266247,-2.93829,-0.509707,-0.115753,5.2027,0.230978,
2,0,0,1,0,22830.7,0.229772,0.229447,-1.16339,12,0.0172869,10,-0.000266935,-2.93428,-0.505221,-0.116781,5.2924,0.2294466,
2,0,0,1,0,22830.7,0.228275,0.227905,-1.17267,12,0.0172426,10,-0.000267257,-2.93083,-0.43949,-0.134246,6.12729,0.227905,
2,0,0,1,0,22830.8,0.226772,0.226434,-1.18362,12,0.0171977,10,-0.000268013,-2.92679,-0.311366,-0.189488,8.69025,0.226434,
2,0,0,1,0,22830.8,0.225276,0.224948,-1.19253,12,0.0171527,10,-0.000268257,-2.92353,-0.402565,-0.14656,6.79294,0.224948,
2,0,0,1,0,22830.9,0.223781,0.223465,-1.19825,12,0.0171072,10,-0.000267768,-2.92145,-0.469646,-0.125626,5.8759,0.223465,
2,0,0,1,0,22830.9,0.222281,0.222003,-1.20436,12,0.0170614,10,-0.000267372,-2.91924,-0.416366,-0.141702,6.69535,0.222003,
2,0,0,1,0,22830.9,0.220781,0.220472,-1.20848,12,0.0170153,10,-0.000266436,-2.91776,-0.339081,-0.174,8.28539,0.220472,
2,0,0,1,0,22831,0.219284,0.218936,-1.228,12,0.0169688,10,-0.000268852,-2.9108,-0.479273,-0.123103,5.89406,0.218936,
2,0,0,1,0,22831,0.217788,0.217464,-1.24022,12,0.016922,10,-0.000269702,-2.9065,-0.537204,-0.109828,5.29767,0.2174637,
2,0,0,1,0,22831,0.216288,0.215976,-1.24399,12,0.0168748,10,-0.000268673,-2.90518,-0.518722,-0.113741,5.51581,0.215976,
2,0,0,1,0,22831.1,0.214788,0.214478,-1.2573,12,0.0168273,10,-0.000269663,-2.90056,-0.531734,-0.110958,5.41386,0.2144779,
2,0,0,1,0,22831.1,0.213292,0.212947,-1.26639,12,0.0167795,10,-0.000269674,-2.89743,-0.428343,-0.13774,6.75947,0.212947,
2,0,0,1,0,22831.2,0.211796,0.211498,-1.27263,12,0.0167314,10,-0.000269159,-2.8953,-0.646535,-0.0912557,4.52847,0.211498,
2,0,0,1,0,22831.2,0.210293,0.209958,-1.27892,12,0.0166826,10,-0.00026852,-2.89316,-0.472255,-0.124933,6.26721,0.209958,
2,0,0,1,0,22831.2,0.208797,0.208472,-1.28754,12,0.0166339,10,-0.000268415,-2.89024,-0.367484,-0.160551,8.12913,0.208472,
2,0,0,1,0,22831.3,0.207301,0.206916,-1.2949,12,0.0165848,10,-0.000267936,-2.88776,-0.330101,-0.178733,9.0792,0.206916,
2,0,0,1,0,22831.3,0.205801,0.205481,-1.31191,12,0.016535,10,-0.000269572,-2.8821,-0.455357,-0.129569,6.60492,0.205481,
2,0,0,1,0,22831.3,0.204301,0.203948,-1.32569,12,0.0164849,10,-0.000270372,-2.87756,-0.631669,-0.0934033,4.80995,0.203948,
2,0,0,1,0,22831.4,0.202804,0.202484,-1.32903,12,0.0164347,10,-0.000269107,-2.87647,-0.521726,-0.113086,5.84592,0.202484,
2,0,0,1,0,22831.4,0.201308,0.201005,-1.33832,12,0.0163841,10,-0.000269008,-2.87344,-0.492782,-0.119729,6.24278,0.201005,
2,0,0,1,0,22831.5,0.199808,0.199484,-1.34646,12,0.016333,10,-0.000268596,-2.87081,-0.49701,-0.11871,6.2526,0.1994839,
2,0,0,1,0,22831.5,0.198308,0.197999,-1.35461,12,0.0162816,10,-0.000268212,-2.86818,-0.564114,-0.104589,5.55331,0.197999,
2,0,0,1,0,22831.5,0.196812,0.196504,-1.36391,12,0.01623,10,-0.000268013,-2.86521,-0.433715,-0.136034,7.27872,0.196504,
2,0,0,1,0,22831.6,0.195316,0.195004,-1.37825,12,0.0161779,10,-0.000268764,-2.86067,-0.373941,-0.157779,8.50358,0.195004,
2,0,0,1,0,22831.6,0.193813,0.193438,-1.39289,12,0.0161251,10,-0.000269439,-2.85608,-0.413583,-0.142656,7.71788,0.193438,
2,0,0,1,0,22831.6,0.192317,0.192002,-1.4044,12,0.0160722,10,-0.000269646,-2.85251,-0.500356,-0.117916,6.41733,0.192002,
2,0,0,1,0,22831.7,0.190821,0.190484,-1.41194,12,0.0160189,10,-0.000268953,-2.85018,-0.427697,-0.137948,7.563,0.190484,
2,0,0,1,0,22831.7,0.189321,0.189004,-1.41837,12,0.0159651,10,-0.000268079,-2.84821,-0.510954,-0.11547,6.40312,0.189004,
2,0,0,1,0,22831.8,0.187821,0.187529,-1.43031,12,0.0159109,10,-0.000268225,-2.84457,-0.377644,-0.156232,8.74841,0.187529,
2,0,0,1,0,22831.8,0.186324,0.186019,-1.44352,12,0.0158563,10,-0.000268521,-2.84058,-0.560277,-0.105305,5.9384,0.186019,
2,0,0,1,0,22831.8,0.184828,0.18451,-1.45391,12,0.0158012,10,-0.00026826,-2.83746,-0.416687,-0.141593,8.08311,0.18451,
2,0,0,1,0,22831.9,0.183328,0.183008,-1.46903,12,0.0157456,10,-0.000268845,-2.83297,-0.385752,-0.152948,8.79899,0.183008,
2,0,0,1,0,22831.9,0.181828,0.181463,-1.48851,12,0.0156895,10,-0.000270109,-2.82725,-0.336469,-0.17535,10.1565,0.181463,
2,0,0,1,0,22831.9,0.180332,0.180012,-1.50636,12,0.0156329,10,-0.000271164,-2.82207,-0.331503,-0.177978,10.395,0.180012,
2,0,0,1,0,22832,0.178836,0.178548,-1.52015,12,0.0155757,10,-0.000271419,-2.81811,-0.349143,-0.168985,9.96593,0.178548,
2,0,0,1,0,22832,0.177333,0.177046,-1.52774,12,0.0155178,10,-0.00027048,-2.81595,-0.34265,-0.172187,10.2723,0.177046,
2,0,0,1,0,22832.1,0.175837,0.175519,-1.54208,12,0.0154596,10,-0.000270664,-2.81189,-0.275798,-0.213925,12.9053,0.175519,
2,0,0,1,0,22832.1,0.174341,0.174049,-1.56447,12,0.0154006,10,-0.000272294,-2.80563,-0.287028,-0.205555,12.5733,0.174049,
2,0,0,1,0,22832.1,0.172841,0.172533,-1.58104,12,0.0153409,10,-0.000272781,-2.80106,-0.313803,-0.188016,11.6302,0.172533,
2,0,0,1,0,22832.2,0.171341,0.171038,-1.59345,12,0.0152805,10,-0.00027254,-2.79766,-0.292232,-0.201894,12.6225,0.171038,
2,0,0,1,0,22832.2,0.169844,0.169533,-1.62515,12,0.0152196,10,-0.000275517,-2.78911,-0.258746,-0.228023,14.443,0.169533,
2,0,0,1,0,22832.2,0.168348,0.167971,-1.65254,12,0.0151578,10,-0.000277579,-2.78185,-0.253778,-0.232487,14.8906,0.167971,
2,0,0,1,0,22832.3,0.166848,0.166541,-1.67119,12,0.0150948,10,-0.00027832,-2.77697,-0.24551,-0.240316,15.6219,0.166541,
2,0,0,1,0,22832.3,0.165348,0.165051,-1.69299,12,0.0150311,10,-0.00027943,-2.77135,-0.222662,-0.264976,17.5379,0.165051,
2,0,0,1,0,22832.4,0.163852,0.163529,-1.71743,12,0.0149666,10,-0.00028085,-2.76512,-0.210222,-0.280655,18.9194,0.1635289,
2,0,0,1,0,22832.4,0.162357,0.162047,-1.74589,12,0.014901,10,-0.000282918,-2.75798,-0.185741,-0.317646,21.742,0.162047,
2,0,0,1,0,22832.4,0.160853,0.160513,-1.77575,12,0.0148338,10,-0.000285032,-2.75062,-0.197545,-0.298666,20.8236,0.160513,
2,0,0,1,0,22832.5,0.159357,0.159045,-1.81788,12,0.0147657,10,-0.000289124,-2.74044,-0.175484,-0.336212,23.8788,0.159045,
2,0,0,1,0,22832.5,0.157861,0.157512,-1.85625,12,0.0146964,10,-0.000292382,-2.73136,-0.157525,-0.374545,27.1915,0.157512,
2,0,0,1,0,22832.5,0.156361,0.156042,-1.89833,12,0.0146254,10,-0.00029622,-2.72163,-0.140968,-0.418536,30.9542,0.156042,
2,0,0,1,0,22832.6,0.154861,0.154551,-1.94818,12,0.0145526,10,-0.000301092,-2.71037,-0.13919,-0.423882,32.1202,0.154551,
2,0,0,1,0,22832.6,0.153364,0.153063,-1.99508,12,0.0144782,10,-0.000305374,-2.70004,-0.139764,-0.42214,32.9534,0.153063,
2,0,0,1,0,22832.7,0.151868,0.151552,-2.04627,12,0.0144019,10,-0.000310116,-2.68904,-0.118517,-0.497819,39.9513,0.151552,
2,0,0,1,0,22832.7,0.150368,0.149998,-2.11005,12,0.0143232,10,-0.000316503,-2.67571,-0.107692,-0.547857,45.2691,0.149998,
2,0,0,1,0,22832.7,0.148868,0.148526,-2.17962,12,0.0142419,10,-0.00032373,-2.66162,-0.101114,-0.583497,49.8966,0.1485261,
2,0,0,1,0,22832.8,0.147372,0.147035,-2.25742,12,0.0141581,10,-0.000331919,-2.64639,-0.0985641,-0.598595,52.8441,0.147035,
2,0,0,1,0,22832.8,0.145877,0.145554,-2.33924,12,0.0140714,10,-0.000340485,-2.63093,-0.090732,-0.650267,59.5941,0.145554,
2,0,0,1,0,22832.8,0.144373,0.144017,-2.43583,12,0.0139808,10,-0.000350801,-2.61335,-0.084964,-0.694412,66.0762,0.144017,
2,0,0,1,0,22832.9,0.142877,0.142583,-2.54351,12,0.0138871,10,-0.000362662,-2.59457,-0.0830788,-0.710169,70.4072,0.142583,
2,0,0,1,0,22832.9,0.14138,0.141053,-2.6526,12,0.0137893,10,-0.000374159,-2.57633,-0.0821584,-0.718125,74.1292,0.141053,
2,0,0,1,0,22833,0.13988,0.139541,-2.76304,12,0.0136869,10,-0.000385556,-2.55861,-0.0797236,-0.740057,80.0479,0.139541,
2,0,0,1,0,22833,0.13838,0.138041,-2.88077,12,0.0135803,10,-0.000397666,-2.54049,-0.0794903,-0.742229,83.8899,0.138041,
2,0,0,1,0,22833,0.136884,0.136585,-3.01136,12,0.0134692,10,-0.000411306,-2.52124,-0.0792638,-0.74435,87.6453,0.136585,
2,0,0,1,0,22833.1,0.135388,0.135023,-3.14634,12,0.0133532,10,-0.000424829,-2.50219,-0.0821199,-0.718461,88.0923,0.135023,
2,0,0,1,0,22833.1,0.133888,0.133573,-3.28072,12,0.0132319,10,-0.000438217,-2.48403,-0.0868449,-0.679372,86.7303,0.1335732,
2,0,0,1,0,22833.1,0.132389,0.13208,-3.40793,12,0.0131059,10,-0.000450119,-2.46751,-0.0917206,-0.643258,85.3545,0.13208,
2,0,0,1,0,22833.2,0.130893,0.130599,-3.53682,12,0.0129754,10,-0.000461906,-2.45139,-0.0955517,-0.617467,84.9397,0.130599,
2,0,0,1,0,22833.2,0.129393,0.129032,-3.658,12,0.0128396,10,-0.000471998,-2.43676,-0.101463,-0.581494,82.8721,0.1290316,
2,0,0,1,0,22833.3,0.127893,0.127568,-3.76964,12,0.0126995,10,-0.000480884,-2.4237,-0.113487,-0.519883,76.5611,0.127568,
2,0,0,1,0,22833.3,0.126397,0.126101,-3.88249,12,0.0125553,10,-0.000489586,-2.41089,-0.122218,-0.482742,73.185,0.1261009,
2,0,0,1,0,22833.3,0.1249,0.124576,-3.991,12,0.0124071,10,-0.000497185,-2.39892,-0.131288,-0.449393,70.0143,0.124576,
2,0,0,1,0,22833.4,0.1234,0.123113,-4.09605,12,0.0122546,10,-0.000504275,-2.38764,-0.146954,-0.401486,64.0327,0.123113,
2,0,0,1,0,22833.4,0.1219,0.121593,-4.18984,12,0.0120985,10,-0.000509455,-2.3778,-0.170991,-0.345048,56.1895,0.121593,
2,0,0,1,0,22833.4,0.120404,0.120109,-4.27029,12,0.0119396,10,-0.000512901,-2.36954,-0.194223,-0.303775,50.4032,0.120109,
2,0,0,1,0,22833.5,0.118908,0.118595,-4.34032,12,0.011778,10,-0.00051474,-2.36248,-0.220081,-0.268083,45.3191,0.118595,
2,0,0,1,0,22833.5,0.117404,0.117073,-4.40742,12,0.0116128,10,-0.000515989,-2.35582,-0.252043,-0.234087,40.1473,0.117073,
2,0,0,1,0,22833.6,0.115909,0.115541,-4.45814,12,0.0114462,10,-0.000515098,-2.35085,-0.295106,-0.199928,34.7273,0.115541,
2,0,0,1,0,22833.6,0.114413,0.114062,-4.50474,12,0.0112777,10,-0.000513821,-2.34633,-0.368623,-0.160055,28.1263,0.114062,
2,0,0,1,0,22833.6,0.112913,0.112609,-4.54044,12,0.0111073,10,-0.000511295,-2.3429,-0.461968,-0.127715,22.6311,0.112609,
2,0,0,1,0,22833.7,0.111413,0.111138,-4.57094,12,0.0109356,10,-0.000508003,-2.33999,-0.568978,-0.103695,18.4661,0.111138,
2,0,0,1,0,22833.7,0.109917,0.1096,-4.59809,12,0.0107634,10,-0.000503951,-2.33742,-0.823362,-0.0716574,12.8225,0.1096,
2,0,0,1,0,22833.7,0.10842,0.108088,-4.61615,12,0.0105904,10,-0.000498948,-2.33572,-1.91448,-0.0308177,5.52675,0.108088,
2,0,0,1,0,22833.8,0.10692,0.106598,-4.61348,12,0.0104168,10,-0.000491786,-2.33597,-27.4743,-0.00214746,0.385978,0.106598,
2,0,0,1,0,22833.8,0.10542,0.105098,-4.60824,12,0.0102432,10,-0.000484315,-2.33646,3.47585,0.0169742,-3.04895,0.105098,
2,0,0,1,0,22833.9,0.103924,0.103623,-4.60088,12,0.0100701,10,-0.000476758,-2.33716,1.24673,0.0473237,-8.48909,0.103623,
2,0,0,1,0,22833.9,0.102427,0.1021,-4.57801,12,0.00989768,10,-0.000467417,-2.33932,0.648988,0.0909108,-16.2355,0.1021,
2,0,0,1,0,22833.9,0.100924,0.100628,-4.54947,12,0.00972526,10,-0.000457804,-2.34204,0.53421,0.110444,-19.6265,0.100628,
2,0,0,1,0,22834,0.0994284,0.0991007,-4.52074,12,0.00955491,10,-0.000448009,-2.34479,0.477867,0.123465,-21.7606,0.0991007,
2,0,0,1,0,22834,0.0979329,0.097623,-4.48654,12,0.00938574,10,-0.000437989,-2.34809,0.435724,0.135407,-23.6632,0.097623,
2,0,0,1,0,22834,0.0964329,0.0960732,-4.44901,12,0.00921747,10,-0.000427431,-2.35174,0.364123,0.162033,-28.0565,0.0960732,
2,0,0,1,0,22834.1,0.094933,0.0945942,-4.39723,12,0.00905079,10,-0.000415953,-2.35682,0.335003,0.176118,-30.2361,0.0945942,
2,0,0,1,0,22834.1,0.0934366,0.0930952,-4.35361,12,0.00888637,10,-0.0004053,-2.36115,0.337863,0.174627,-29.7339,0.0930952,
2,0,0,1,0,22834.2,0.0919401,0.0916467,-4.31117,12,0.00872353,10,-0.000395104,-2.36541,0.338096,0.174507,-29.3826,0.0916467,
2,0,0,1,0,22834.2,0.0904402,0.0901164,-4.27079,12,0.00856173,10,-0.000384868,-2.36949,0.325523,0.181247,-30.2082,0.0901164,
2,0,0,1,0,22834.2,0.0889402,0.08864,-4.22567,12,0.00840166,10,-0.000374564,-2.3741,0.318572,0.185201,-30.5707,0.08864,
2,0,0,1,0,22834.3,0.0874438,0.0870895,-4.18172,12,0.00824383,10,-0.000364184,-2.37865,0.341209,0.172915,-28.236,0.0870895,
2,0,0,1,0,22834.3,0.0859483,0.085616,-4.14431,12,0.00808748,10,-0.000354819,-2.38255,0.396099,0.148953,-24.079,0.085616,
2,0,0,1,0,22834.3,0.0844447,0.0841217,-4.10709,12,0.00793168,10,-0.000345495,-2.38647,0.410356,0.143777,-23.0287,0.0841217,
2,0,0,1,0,22834.4,0.0829492,0.0826089,-4.07485,12,0.00777804,10,-0.000336619,-2.38989,0.385063,0.153222,-24.3382,0.0826089,
2,0,0,1,0,22834.4,0.0814528,0.0811044,-4.03345,12,0.00762577,10,-0.000327131,-2.39432,0.418528,0.14097,-22.2274,0.0811044,
2,0,0,1,0,22834.5,0.0799528,0.0796547,-4.00274,12,0.00747428,10,-0.000318837,-2.39764,0.543311,0.108593,-17.0018,0.0796547,
2,0,0,1,0,22834.5,0.0784529,0.0781236,-3.97859,12,0.00732378,10,-0.000310822,-2.40027,0.513223,0.11496,-17.8807,0.0781236,
2,0,0,1,0,22834.5,0.0769565,0.0766385,-3.95624,12,0.00717462,10,-0.0003032,-2.40272,0.513806,0.114829,-17.738,0.0766385,
2,0,0,1,0,22834.6,0.0754601,0.0751679,-3.92709,12,0.00702649,10,-0.000295191,-2.40593,0.525589,0.112255,-17.2109,0.0751679,
2,0,0,1,0,22834.6,0.0739601,0.0736179,-3.90915,12,0.00687893,10,-0.000287783,-2.40792,0.640502,0.0921153,-14.0483,0.0736179,
2,0,0,1,0,22834.6,0.0724601,0.0721717,-3.88999,12,0.00673214,10,-0.000280747,-2.41005,0.649494,0.09084,-13.7585,0.0721717,
2,0,0,1,0,22834.7,0.0709637,0.0706901,-3.86888,12,0.00658648,10,-0.000273491,-2.41241,0.581902,0.101392,-15.2718,0.0706901,
2,0,0,1,0,22834.7,0.0694682,0.0691499,-3.83791,12,0.0064416,10,-0.000265392,-2.4159,0.630162,0.0936267,-14.0491,0.0691499,
2,0,0,1,0,22834.8,0.0679646,0.0676744,-3.81478,12,0.00629692,10,-0.000258163,-2.41853,0.679101,0.0868795,-12.9798,0.0676744,
2,0,0,1,0,22834.8,0.0664691,0.0661611,-3.79681,12,0.00615371,10,-0.000251201,-2.42058,0.634318,0.0930133,-13.8018,0.0661611,
2,0,0,1,0,22834.8,0.0649727,0.0646719,-3.78267,12,0.00601111,10,-0.000244633,-2.4222,0.646573,0.0912503,-13.453,0.0646719,
2,0,0,1,0,22834.9,0.0634727,0.0631189,-3.76261,12,0.00586895,10,-0.000237492,-2.42451,0.572895,0.102986,-15.0883,0.0631189,
2,0,0,1,0,22834.9,0.0619728,0.0616297,-3.73836,12,0.00572773,10,-0.000230394,-2.42732,0.545084,0.10824,-15.7707,0.0616297,
2,0,0,1,0,22834.9,0.0604764,0.0601387,-3.72094,12,0.00558772,10,-0.000223772,-2.42935,0.642575,0.0918181,-13.2948,0.0601387,
2,0,0,1,0,22835,0.05898,0.0586311,-3.69843,12,0.00544837,10,-0.000216843,-2.43198,0.658836,0.0895519,-12.9031,0.0586311,
2,0,0,1,0,22835,0.05748,0.0571799,-3.67196,12,0.00530949,10,-0.000209962,-2.4351,0.516189,0.114299,-16.3805,0.0571799,
2,0,0,1,0,22835.1,0.05598,0.0556591,-3.64498,12,0.00517151,10,-0.000202877,-2.4383,0.546291,0.108001,-15.3977,0.0556591,
2,0,0,1,0,22835.1,0.0544836,0.0541656,-3.62639,12,0.00503475,10,-0.000196425,-2.44053,0.605826,0.0973876,-13.7903,0.0541656,
2,0,0,1,0,22835.1,0.0529881,0.0526072,-3.61044,12,0.00489871,10,-0.000189935,-2.44244,0.619226,0.0952803,-13.4094,0.05260722,
2,0,0,1,0,22835.2,0.0514846,0.0511685,-3.58649,12,0.0047627,10,-0.000183515,-2.44533,0.502349,0.117448,-16.4168,0.0511685,
2,0,0,1,0,22835.2,0.049989,0.0496804,-3.55668,12,0.00462837,10,-0.000176697,-2.44895,0.472291,0.124923,-17.343,0.0496804,
2,0,0,1,0,22835.2,0.0484926,0.0481534,-3.54104,12,0.00449503,10,-0.000170513,-2.45087,0.489363,0.120565,-16.6263,0.0481534,
2,0,0,1,0,22835.3,0.0469927,0.0466519,-3.51544,12,0.00436218,10,-0.000164002,-2.45402,0.551086,0.107061,-14.6667,0.0466519,
2,0,0,1,0,22835.3,0.0454927,0.0451427,-3.48817,12,0.00423011,10,-0.000157465,-2.4574,0.450646,0.130923,-17.8135,0.0451427,
2,0,0,1,0,22835.4,0.0439963,0.0436798,-3.46151,12,0.00409936,10,-0.000151198,-2.46074,0.408484,0.144436,-19.5445,0.0436798,
2,0,0,1,0,22835.4,0.0424999,0.0421866,-3.43336,12,0.00396972,10,-0.000144842,-2.46428,0.477524,0.123554,-16.6083,0.0421866,
2,0,0,1,0,22835.4,0.0409999,0.0406471,-3.41308,12,0.00384065,10,-0.000138732,-2.46685,0.492727,0.119742,-15.9448,0.0406471,
2,0,0,1,0,22835.5,0.0394999,0.0391704,-3.38957,12,0.00371237,10,-0.000132771,-2.46986,0.468001,0.126068,-16.6371,0.0391704,
2,0,0,1,0,22835.5,0.0380044,0.0376712,-3.36603,12,0.00358544,10,-0.000126802,-2.47288,0.395354,0.149233,-19.5335,0.03767122,
2,0,0,1,0,22835.5,0.0365089,0.0362129,-3.33086,12,0.00345968,10,-0.00012062,-2.47744,0.420322,0.140368,-18.2335,0.0362129,
2,0,0,1,0,22835.6,0.0350054,0.0346858,-3.30488,12,0.00333425,10,-0.000114632,-2.48084,0.454068,0.129937,-16.7471,0.0346858,
2,0,0,1,0,22835.6,0.033509,0.0331814,-3.27567,12,0.00321047,10,-0.000108692,-2.4847,0.396015,0.148984,-19.053,0.0331814,
2,0,0,1,0,22835.7,0.0320125,0.031708,-3.24369,12,0.00308775,10,-0.000102851,-2.48896,0.358906,0.164388,-20.849,0.031708,
2,0,0,1,0,22835.7,0.0305126,0.0301861,-3.21017,12,0.0029659,10,-9.69025e-05,-2.49347,0.376272,0.156801,-19.7205,0.0301861,
2,0,0,1,0,22835.7,0.0290126,0.028662,-3.18655,12,0.00284518,10,-9.13328e-05,-2.49668,0.426107,0.138463,-17.2268,0.028662,
2,0,0,1,0,22835.8,0.0275162,0.0271858,-3.16389,12,0.00272574,10,-8.60129e-05,-2.49978,0.374736,0.157444,-19.3989,0.0271858,
2,0,0,1,0,22835.8,0.0260198,0.0256858,-3.13399,12,0.00260729,10,-8.0499e-05,-2.5039,0.381506,0.15465,-18.8915,0.02568575,
2,0,0,1,0,22835.8,0.0245198,0.0242153,-3.10307,12,0.00248971,10,-7.51417e-05,-2.50821,0.364161,0.162016,-19.6062,0.0242153,
2,0,0,1,0,22835.9,0.0230198,0.0226519,-3.07899,12,0.00237324,10,-6.97449e-05,-2.51159,0.4003,0.147389,-17.6867,0.0226519,
2,0,0,1,0,22835.9,0.0215243,0.0211789,-3.05002,12,0.00225803,10,-6.45961e-05,-2.5157,0.407956,0.144623,-17.2211,0.0211789,
2,0,0,1,0,22836,0.0200288,0.0197065,-3.01945,12,0.00214371,10,-5.95027e-05,-2.52007,0.405857,0.145372,-17.1558,0.0197065,
2,0,0,1,0,22836,0.0185253,0.0181998,-2.99629,12,0.0020297,10,-5.45317e-05,-2.52342,0.424971,0.138833,-16.2661,0.0181998,
2,0,0,1,0,22836,0.0170289,0.0166834,-2.97373,12,0.00191737,10,-4.96119e-05,-2.5267,0.453104,0.130213,-15.1348,0.0166834,
2,0,0,1,0,22836.1,0.0155325,0.0152015,-2.95806,12,0.00180581,10,-4.4967e-05,-2.52899,0.568378,0.103804,-11.964,0.0152015,
2,0,0,1,0,22836.1,0.0140325,0.0136677,-2.93817,12,0.00169463,10,-4.01581e-05,-2.53192,0.502252,0.117471,-13.4348,0.01366769,
2,0,0,1,0,22836.1,0.0125325,0.0121862,-2.91364,12,0.0015842,10,-3.55063e-05,-2.53556,0.465331,0.126792,-14.4114,0.0121862,
2,0,0,1,0,22836.2,0.0110361,0.0107158,-2.8935,12,0.00147494,10,-3.10062e-05,-2.53858,0.553667,0.106562,-12.0502,0.0107158,
2,0,0,1,0,22836.2,0.0095397,0.00921868,-2.87449,12,0.00136629,10,-2.6499e-05,-2.54144,0.703391,0.0838794,-9.42079,0.00921868,
2,0,0,1,0,22836.3,0.00803616,0.00769885,-2.86023,12,0.00125764,10,-2.20205e-05,-2.5436,0.793316,0.0743714,-8.32548,0.00769885,
2,0,0,1,0,22836.3,0.00654064,0.0062644,-2.8479,12,0.00115006,10,-1.78404e-05,-2.54548,0.763685,0.077257,-8.59432,0.0062644,
2,0,0,1,0,22836.3,0.00504513,0.00472157,-2.8318,12,0.00104303,10,-1.33706e-05,-2.54794,0.865233,0.0681897,-7.55732,0.00472157,
2,0,0,1,0,22836.4,0.00354515,0.00323798,-2.83051,12,0.000936167,10,-9.16514e-06,-2.54813,-3.72641,-0.0158329,1.7546,0.00323798,
2,0,0,1,0,22836.4,0.00204518,0.00165464,-2.86261,12,0.000829278,10,-4.73661e-06,-2.54324,2.34392,0.0251715,-2.77203,0.001654645,
2,0,0,1,0,22836.4,0.000548773,0.000172651,-2.8295,12,0.00072231,10,-4.88517e-07,-2.54829, , , ,0.000172651,
2,0,0,1,0,22836.4,0.000177222,-0.000203546,-2.81633,12,0.000695839,10,5.73254e-07,-2.55032, , , ,-0.000203546,