File: Figure_codes/Fig_3-5/rawdata_trumpetplot_data/after 10th/20221101_1-115_003_TrumpetPlot_ParaChange_from10_every3_03_CV_C01_23.csv
mode,ox/red,error,control changes,counter inc.,time/s,control/V,Ewe/V,<I>/mA,cycle number,(Q-Qo)/C,I Range,P/W,log(|I|),Tafel slope mV/dec,alpha_eff,dI/d(E-IR),E-IR/V,
2,0,0,1,0,46253,2.44065e-05,-0.000306236,-0.113387,24,0.0000000E+000,10,3.47231e-08,-3.94544, , , ,-0.000306236,
2,1,0,0,0,46253.3,0.00129787,0.000928077,0.12648,24,2.0755e-05,10,1.17383e-07,-3.89798, , , ,0.000928077,
2,1,0,0,0,46253.6,0.00279606,0.00249642,0.167599,24,7.07864e-05,10,4.18398e-07,-3.77573,0.014441,4.08558,21.5577,0.00249642,
2,1,0,1,0,46253.9,0.00429469,0.00399419,0.178359,24,0.000126998,10,7.12401e-07,-3.7487,0.0589001,1.0017,6.95548,0.00399419,
2,1,0,1,0,46254.2,0.00579255,0.00544549,0.18861,24,0.000186506,10,1.02707e-06,-3.72444,0.0662469,0.890607,6.50322,0.00544549,
2,1,0,1,0,46254.5,0.00729041,0.00696488,0.200157,24,0.000248959,10,1.39407e-06,-3.69863,0.0779234,0.757154,5.82243,0.00696488,
2,1,0,1,0,46254.8,0.00878882,0.00842091,0.20672,24,0.000314074,10,1.74077e-06,-3.68462,0.105344,0.56007,4.49099,0.00842091,
2,1,0,1,0,46255.1,0.010287,0.00993623,0.213719,24,0.000381258,10,2.12356e-06,-3.67016,0.118538,0.497732,4.11905,0.00993623,
2,1,0,1,0,46255.4,0.0117852,0.0114664,0.2186,24,0.000450322,10,2.50655e-06,-3.66035,0.120371,0.490151,4.18306,0.0114664,
2,1,0,1,0,46255.7,0.0132836,0.0129068,0.224811,24,0.000520974,10,2.90158e-06,-3.64818,0.13765,0.428624,3.78384,0.0129068,
2,1,0,1,0,46256,0.0147815,0.0144629,0.229655,24,0.000593471,10,3.32148e-06,-3.63892,0.136884,0.431021,3.87465,0.0144629,
2,1,0,1,0,46256.3,0.0162793,0.0159441,0.236004,24,0.000667854,10,3.76286e-06,-3.62708,0.164923,0.357744,3.2858,0.0159441,
2,1,0,0,0,46256.6,0.017778,0.0174694,0.240958,24,0.000743702,10,4.20938e-06,-3.61806,0.158473,0.372304,3.50049,0.0174694,
2,1,0,0,0,46256.9,0.0192761,0.0189359,0.244898,24,0.000820668,10,4.63736e-06,-3.61101,0.166322,0.354733,3.40143,0.0189359,
2,1,0,1,0,46257.2,0.0207747,0.0204506,0.251709,24,0.000899532,10,5.14759e-06,-3.5991,0.155034,0.380562,3.72242,0.0204506,
2,1,0,1,0,46257.5,0.0222725,0.0219167,0.25689,24,0.000980003,10,5.63018e-06,-3.59025,0.173142,0.340761,3.41425,0.0219167,
2,1,0,1,0,46257.8,0.0237704,0.0234518,0.260977,24,0.00106205,10,6.12038e-06,-3.5834,0.16985,0.347366,3.55385,0.0234518,
2,1,0,1,0,46258.1,0.0252689,0.0249304,0.26598,24,0.00114538,10,6.63097e-06,-3.57515,0.178045,0.331377,3.46012,0.0249304,
2,1,0,1,0,46258.4,0.0267671,0.0264669,0.271511,24,0.00123041,10,7.18606e-06,-3.56621,0.148207,0.398091,4.21923,0.0264669,
2,1,0,1,0,46258.7,0.0282657,0.0279083,0.278178,24,0.00131716,10,7.76348e-06,-3.55568,0.166569,0.354207,3.82279,0.0279083,
2,1,0,1,0,46259,0.0297635,0.0294519,0.282411,24,0.00140549,10,8.31755e-06,-3.54912,0.197542,0.298671,3.29696,0.0294519,
2,1,0,1,0,46259.3,0.0312613,0.0309012,0.286688,24,0.00149522,10,8.85902e-06,-3.54259,0.195253,0.302172,3.39161,0.03090121,
2,1,0,0,0,46259.6,0.0327599,0.0324168,0.293336,24,0.00158642,10,9.50904e-06,-3.53263,0.18065,0.326599,3.73032,0.0324168,
2,1,0,0,0,46259.9,0.034258,0.0338961,0.29842,24,0.00167929,10,1.01153e-05,-3.52517,0.187888,0.314017,3.65913,0.0338961,
2,1,0,1,0,46260.2,0.0357567,0.0354246,0.303922,24,0.00177383,10,1.07663e-05,-3.51724,0.20005,0.294926,3.4884,0.0354246,
2,1,0,1,0,46260.5,0.0372545,0.0369206,0.309144,24,0.00186992,10,1.14138e-05,-3.50984,0.201522,0.292772,3.53125,0.0369206,
2,1,0,1,0,46260.8,0.0387524,0.0383834,0.313634,24,0.00196732,10,1.20384e-05,-3.50358,0.191083,0.308767,3.79864,0.0383834,
2,1,0,1,0,46261.1,0.0402508,0.0399129,0.319315,24,0.00206644,10,1.27448e-05,-3.49578,0.211681,0.278721,3.47814,0.0399129,
2,1,0,1,0,46261.4,0.041749,0.041425,0.325129,24,0.00216748,10,1.34685e-05,-3.48794,0.225949,0.261121,3.30373,0.041425,
2,1,0,1,0,46261.7,0.0432472,0.0429477,0.330418,24,0.00226978,10,1.41907e-05,-3.48094,0.24373,0.242071,3.11298,0.0429477,
2,1,0,1,0,46262,0.0447456,0.044403,0.334621,24,0.00237327,10,1.48582e-05,-3.47545,0.230193,0.256307,3.34499,0.044403,
2,1,0,1,0,46262.3,0.0462435,0.0458924,0.339118,24,0.00247852,10,1.55629e-05,-3.46965,0.220412,0.267681,3.53733,0.0458924,
2,1,0,1,0,46262.6,0.0477413,0.047402,0.343919,24,0.00258529,10,1.63024e-05,-3.46354,0.26432,0.223215,3.00473,0.047402,
2,1,0,0,0,46262.9,0.0492399,0.0489051,0.348082,24,0.00269344,10,1.7023e-05,-3.45832,0.293619,0.200941,2.74402,0.0489051,
2,1,0,0,0,46263.2,0.0507381,0.0503939,0.351426,24,0.00280263,10,1.77097e-05,-3.45417,0.295263,0.199822,2.75721,0.0503939,
2,1,0,1,0,46263.5,0.0522367,0.0518798,0.357968,24,0.00291347,10,1.85713e-05,-3.44616,0.235802,0.25021,3.49111,0.0518798,
2,1,0,1,0,46263.8,0.0537345,0.0534383,0.36418,24,0.00302576,10,1.94612e-05,-3.43868,0.272409,0.216586,3.06358,0.0534383,
2,1,0,1,0,46264.1,0.0552323,0.054912,0.367417,24,0.00313958,10,2.01756e-05,-3.43484,0.341901,0.172564,2.46429,0.05491199,
2,1,0,1,0,46264.4,0.0567309,0.0564011,0.36985,24,0.00325445,10,2.086e-05,-3.43197,0.328958,0.179354,2.59583,0.0564011,
2,1,0,1,0,46264.7,0.0582291,0.057909,0.375324,24,0.00337049,10,2.17347e-05,-3.42559,0.320607,0.184026,2.69656,0.057909,
2,1,0,1,0,46265,0.0597277,0.0593854,0.380451,24,0.00348805,10,2.25933e-05,-3.4197,0.300188,0.196544,2.9143,0.0593854,
2,1,0,1,0,46265.3,0.0612255,0.0608761,0.383333,24,0.00360685,10,2.33358e-05,-3.41642,0.456517,0.12924,1.92995,0.0608761,
2,1,0,1,0,46265.6,0.0627233,0.0623603,0.386809,24,0.00372679,10,2.41215e-05,-3.4125,0.349466,0.168829,2.55454,0.0623603,
2,1,0,0,0,46265.9,0.0642218,0.0638897,0.390582,24,0.00384761,10,2.49541e-05,-3.40829,0.334641,0.176308,2.69758,0.0638897,
2,1,0,0,0,46266.2,0.06572,0.065387,0.394408,24,0.00396976,10,2.57892e-05,-3.40405,0.342071,0.172479,2.66093,0.065387,
2,1,0,1,0,46266.5,0.0672187,0.0668497,0.39861,24,0.00409326,10,2.6647e-05,-3.39945,0.375686,0.157046,2.43959,0.0668497,
2,1,0,1,0,46266.8,0.0687165,0.0683478,0.401656,24,0.00421773,10,2.74523e-05,-3.39615,0.427541,0.137999,2.16548,0.0683478,
2,1,0,1,0,46267.1,0.0702144,0.0698829,0.404662,24,0.00434279,10,2.8279e-05,-3.39291,0.389833,0.151347,2.39364,0.0698829,
2,1,0,1,0,46267.4,0.0717128,0.0713645,0.407997,24,0.00446904,10,2.91165e-05,-3.38934,0.358976,0.164357,2.61408,0.0713645,
2,1,0,1,0,46267.7,0.073211,0.0728809,0.410967,24,0.00459626,10,2.99516e-05,-3.38619,0.471424,0.125153,2.00807,0.0728809,
2,1,0,1,0,46268,0.0747092,0.0743856,0.413563,24,0.00472441,10,3.07631e-05,-3.38346,0.633462,0.0931389,1.50449,0.0743856,
2,1,0,1,0,46268.3,0.0762076,0.0758863,0.41541,24,0.00485324,10,3.15239e-05,-3.38152,0.560782,0.10521,1.71115,0.0758863,
2,1,0,1,0,46268.6,0.0777054,0.077363,0.419766,24,0.00498293,10,3.24744e-05,-3.37699,0.390888,0.150938,2.47351,0.077363,
2,1,0,1,0,46268.8,0.0792033,0.078855,0.425457,24,0.00511361,10,3.35494e-05,-3.37114,0.428846,0.137579,2.26865,0.078855,
2,1,0,0,0,46269.1,0.0807019,0.0803758,0.425466,24,0.00524539,10,3.41972e-05,-3.37113,0.488076,0.120883,2.00546,0.08037585,
2,1,0,0,0,46269.4,0.0822001,0.0818488,0.427854,24,0.00537789,10,3.50193e-05,-3.3687,0.426684,0.138276,2.3162,0.0818488,
2,1,0,1,0,46269.7,0.0836986,0.0833497,0.432883,24,0.00551129,10,3.60807e-05,-3.36363,0.410775,0.143631,2.42938,0.08334969,
2,1,0,1,0,46270,0.0851965,0.0849016,0.436738,24,0.00564587,10,3.70798e-05,-3.35978,0.321538,0.183493,3.13039,0.0849016,
2,1,0,1,0,46270.3,0.0866944,0.0863499,0.439338,24,0.00578171,10,3.79368e-05,-3.3572,0.426877,0.138213,2.37318,0.0863499,
2,1,0,1,0,46270.6,0.0881929,0.0878326,0.444272,24,0.00591887,10,3.90216e-05,-3.35235,0.328777,0.179453,3.12041,0.08783263,
2,1,0,1,0,46270.9,0.0896911,0.0893914,0.449185,24,0.00605689,10,4.01533e-05,-3.34757,0.321884,0.183296,3.21902,0.0893914,
2,1,0,1,0,46271.2,0.0911897,0.0908469,0.455221,24,0.00619672,10,4.13554e-05,-3.34178,0.272041,0.216879,3.84099,0.0908469,
2,1,0,1,0,46271.5,0.0926875,0.0923883,0.461201,24,0.00633848,10,4.26095e-05,-3.33611,0.261038,0.22602,4.05521,0.0923883,
2,1,0,1,0,46271.8,0.0941853,0.0938492,0.466902,24,0.00648179,10,4.38184e-05,-3.33077,0.284696,0.207239,3.77836,0.0938492,
2,1,0,0,0,46272.1,0.0956838,0.0953636,0.471851,24,0.00662661,10,4.49974e-05,-3.3262,0.230148,0.256357,4.74213,0.0953636,
2,1,0,0,0,46272.4,0.097182,0.0968694,0.480533,24,0.00677383,10,4.6549e-05,-3.31828,0.192351,0.306731,5.74046,0.0968694,
2,1,0,1,0,46272.7,0.0986807,0.0983789,0.487491,24,0.00692338,10,4.79588e-05,-3.31203,0.224013,0.263377,5.0112,0.0983789,
2,1,0,1,0,46273,0.100179,0.0998576,0.495082,24,0.00707522,10,4.94377e-05,-3.30532,0.220576,0.267482,5.16958,0.0998576,
2,1,0,1,0,46273.3,0.101676,0.101346,0.502205,24,0.00722923,10,5.08966e-05,-3.29912,0.210653,0.280082,5.50829,0.101346,
2,1,0,1,0,46273.6,0.103175,0.10285,0.510926,24,0.00738563,10,5.25487e-05,-3.29164,0.197352,0.298958,5.98039,0.10285,
2,1,0,1,0,46273.9,0.104673,0.104334,0.521215,24,0.00754464,10,5.43803e-05,-3.28298,0.217541,0.271213,5.50204,0.104334,
2,1,0,1,0,46274.2,0.106171,0.105855,0.528424,24,0.0077064,10,5.59365e-05,-3.27702,0.240211,0.245618,5.04803,0.105855,
2,1,0,1,0,46274.5,0.10767,0.107326,0.535655,24,0.00787031,10,5.74899e-05,-3.27112,0.251796,0.234317,4.90421,0.107326,
2,1,0,1,0,46274.8,0.109167,0.108812,0.542774,24,0.00803612,10,5.90601e-05,-3.26538,0.278413,0.211915,4.49742,0.108812,
2,1,0,1,0,46275.1,0.110665,0.110364,0.550679,24,0.00820437,10,6.07751e-05,-3.2591,0.273954,0.215365,4.62351,0.110364,
2,1,0,0,0,46275.4,0.112164,0.111889,0.557905,24,0.00837477,10,6.24234e-05,-3.25344,0.354429,0.166465,3.6125,0.111889,
2,1,0,0,0,46275.7,0.113662,0.113361,0.562731,24,0.0085469,10,6.37917e-05,-3.2497,0.362246,0.162873,3.57306,0.113361,
2,1,0,1,0,46276,0.115161,0.114819,0.567857,24,0.00872035,10,6.52007e-05,-3.24576,0.3489,0.169103,3.74443,0.114819,
2,1,0,1,0,46276.3,0.116658,0.116306,0.573509,24,0.00889572,10,6.67023e-05,-3.24146,0.393978,0.149755,3.33898,0.116306,
2,1,0,1,0,46276.6,0.118156,0.117811,0.578859,24,0.00907282,10,6.81959e-05,-3.23743,0.396938,0.148638,3.3464,0.117811,
2,1,0,1,0,46276.9,0.119655,0.119352,0.581739,24,0.00925107,10,6.94318e-05,-3.23527,0.574142,0.102762,2.33556,0.119352,
2,1,0,1,0,46277.2,0.121153,0.120797,0.583872,24,0.00943013,10,7.05303e-05,-3.23368,0.535643,0.110148,2.52063,0.120797,
2,1,0,1,0,46277.5,0.122652,0.12231,0.589378,24,0.00961066,10,7.20869e-05,-3.22961,0.387862,0.152116,3.49257,0.12231,
2,1,0,1,0,46277.8,0.124149,0.123846,0.59294,24,0.00979237,10,7.34333e-05,-3.22699,0.598463,0.0985859,2.28237,0.123846,
2,1,0,1,0,46278.1,0.125647,0.125346,0.596215,24,0.00997509,10,7.47332e-05,-3.2246,0.708697,0.0832513,1.93675,0.125346,
2,1,0,0,0,46278.4,0.127146,0.126812,0.596314,24,0.0101587,10,7.56199e-05,-3.22452,0.963897,0.0612099,1.42808,0.1268121,
2,1,0,0,0,46278.7,0.128644,0.128341,0.601438,24,0.0103427,10,7.71893e-05,-3.22081,0.964313,0.0611834,1.43354,0.128341,
2,1,0,1,0,46279,0.130143,0.129807,0.60342,24,0.0105276,10,7.83282e-05,-3.21938,3.8701,0.0152451,0.357033,0.1298071,
2,1,0,1,0,46279.3,0.131641,0.131329,0.601447,24,0.0107129,10,7.89872e-05,-3.2208,-0.889475,-0.0663313,-1.54952,0.131329,
2,1,0,1,0,46279.6,0.133138,0.132825,0.59818,24,0.0108973,10,7.94531e-05,-3.22317,-0.54667,-0.107926,-2.52069,0.132825,
2,1,0,1,0,46279.9,0.134637,0.134336,0.594197,24,0.0110804,10,7.98219e-05,-3.22607,-0.341411,-0.172812,-3.99799,0.134336,
2,1,0,1,0,46280.2,0.136135,0.135779,0.58693,24,0.0112621,10,7.96927e-05,-3.23141,-0.25232,-0.23383,-5.33604,0.1357789,
2,1,0,1,0,46280.5,0.137633,0.137304,0.577903,24,0.0114411,10,7.93482e-05,-3.23815,-0.170968,-0.345093,-7.74287,0.137304,
2,1,0,1,0,46280.8,0.139132,0.138838,0.565429,24,0.0116168,10,7.85032e-05,-3.24762,-0.142553,-0.413882,-9.0807,0.138838,
2,1,0,1,0,46281.1,0.140629,0.140311,0.549473,24,0.011788,10,7.7097e-05,-3.26005,-0.116952,-0.504481,-10.7717,0.140311,
2,1,0,1,0,46281.4,0.142127,0.141809,0.532368,24,0.0119543,10,7.54946e-05,-3.27379,-0.102073,-0.578019,-11.9452,0.141809,
2,1,0,0,0,46281.7,0.143626,0.14329,0.513199,24,0.0121154,10,7.35361e-05,-3.28971,-0.0868811,-0.679089,-13.5301,0.14329,
2,1,0,0,0,46282,0.145124,0.14481,0.49018,24,0.0122701,10,7.09831e-05,-3.30964,-0.0754676,-0.781793,-14.9771,0.14481,
2,1,0,1,0,46282.3,0.146623,0.146299,0.467599,24,0.012418,10,6.84094e-05,-3.33013,-0.0774947,-0.761342,-13.973,0.146299,
2,1,0,1,0,46282.6,0.14812,0.147821,0.448159,24,0.0125594,10,6.62473e-05,-3.34857,-0.0777489,-0.758853,-13.2565,0.1478209,
2,1,0,1,0,46282.9,0.149618,0.149316,0.427991,24,0.0126949,10,6.39058e-05,-3.36857,-0.0770548,-0.765689,-12.8047,0.149316,
2,1,0,1,0,46283.2,0.151117,0.150822,0.41059,24,0.0128245,10,6.1926e-05,-3.38659,-0.0800877,-0.736692,-11.7944,0.150822,
2,1,0,1,0,46283.5,0.152615,0.152275,0.391438,24,0.012949,10,5.96061e-05,-3.40734,-0.0899681,-0.655788,-10.0922,0.152275,
2,1,0,1,0,46283.8,0.154114,0.153779,0.379593,24,0.0130688,10,5.83733e-05,-3.42068,-0.100352,-0.587932,-8.75928,0.153779,
2,1,0,1,0,46284.1,0.155612,0.1553,0.368666,24,0.013185,10,5.72538e-05,-3.43337,-0.11894,-0.496046,-7.14083,0.1553,
2,1,0,1,0,46284.4,0.157109,0.156784,0.35773,24,0.0132981,10,5.60864e-05,-3.44644,-0.129273,-0.456397,-6.37646,0.1567843,
2,1,0,0,0,46284.7,0.158608,0.158309,0.349019,24,0.0134083,10,5.52529e-05,-3.45715,-0.145417,-0.40573,-5.56122,0.158309,
2,1,0,0,0,46285,0.160106,0.159749,0.342134,24,0.013516,10,5.46557e-05,-3.4658,-0.190014,-0.310504,-4.16646,0.159749,
2,1,0,1,0,46285.3,0.161605,0.161273,0.337385,24,0.0136219,10,5.44113e-05,-3.47187,-0.20534,-0.287328,-3.78204,0.161273,
2,1,0,1,0,46285.6,0.163102,0.162806,0.3315,24,0.0137263,10,5.397e-05,-3.47952,-0.229386,-0.257208,-3.33613,0.1628056,
2,1,0,1,0,46285.9,0.1646,0.164299,0.326154,24,0.0138291,10,5.35868e-05,-3.48658,-0.23874,-0.247131,-3.15921,0.164299,
2,1,0,1,0,46286.2,0.166099,0.165757,0.322531,24,0.0139304,10,5.34616e-05,-3.49143,-0.302906,-0.19478,-2.46018,0.1657566,
2,1,0,1,0,46286.5,0.167597,0.16727,0.319415,24,0.0140308,10,5.34285e-05,-3.49564,-0.459204,-0.128483,-1.60648,0.1672698,
2,1,0,1,0,46286.8,0.169095,0.168801,0.316453,24,0.0141304,10,5.34176e-05,-3.49969,-0.402733,-0.146499,-1.81493,0.168801,
2,1,0,1,0,46287.1,0.170594,0.170235,0.314108,24,0.0142291,10,5.34722e-05,-3.50292,-0.382281,-0.154337,-1.89684,0.170235,
2,1,0,1,0,46287.4,0.172091,0.171783,0.311569,24,0.0143269,10,5.35222e-05,-3.50645,-0.492323,-0.11984,-1.46213,0.171783,
2,1,0,1,0,46287.7,0.173589,0.173228,0.309903,24,0.014424,10,5.36839e-05,-3.50877,-0.70584,-0.0835884,-1.01007,0.173228,
2,1,0,0,0,46288,0.175088,0.174752,0.308581,24,0.0145206,10,5.39251e-05,-3.51063,-0.729652,-0.0808604,-0.973567,0.174752,
2,1,0,0,0,46288.3,0.176586,0.176306,0.306007,24,0.0146167,10,5.39507e-05,-3.51427,-0.655063,-0.0900677,-1.07489,0.176306,
2,1,0,1,0,46288.6,0.178085,0.177781,0.30363,24,0.0147124,10,5.39796e-05,-3.51765,-0.649149,-0.0908882,-1.08105,0.177781,
2,1,0,1,0,46288.9,0.179582,0.17926,0.303213,24,0.0148074,10,5.43538e-05,-3.51825,-0.806402,-0.0731645,-0.869443,0.17926,
2,1,0,1,0,46289.2,0.18108,0.180778,0.301744,24,0.0149022,10,5.45487e-05,-3.52036,-0.700891,-0.0841786,-0.994109,0.180778,
2,1,0,1,0,46289.5,0.182579,0.18228,0.300059,24,0.0149967,10,5.46947e-05,-3.52279,-0.651787,-0.0905204,-1.0612,0.18228,
2,1,0,1,0,46289.8,0.184077,0.18379,0.299557,24,0.0150906,10,5.50555e-05,-3.52352,-0.970818,-0.0607735,-0.71208,0.18379,
2,1,0,1,0,46290.1,0.185576,0.185275,0.299263,24,0.015184,10,5.54459e-05,-3.52395,-0.991019,-0.0595347,-0.693166,0.185275,
2,1,0,1,0,46290.4,0.187074,0.18674,0.299256,24,0.0152774,10,5.58831e-05,-3.52396,-1.10614,-0.0533384,-0.618221,0.18674,
2,1,0,1,0,46290.7,0.188571,0.188256,0.296787,24,0.0153706,10,5.5872e-05,-3.52755,-1.27887,-0.0461344,-0.534093,0.188256,
2,1,0,0,0,46291,0.19007,0.189771,0.296433,24,0.0154635,10,5.62542e-05,-3.52807,-1.15905,-0.0509039,-0.588442,0.189771,
2,1,0,0,0,46291.3,0.191568,0.191259,0.294809,24,0.0155559,10,5.63849e-05,-3.53046,-0.776861,-0.0759467,-0.875514,0.191259,
2,1,0,1,0,46291.6,0.193067,0.192756,0.293515,24,0.0156482,10,5.65769e-05,-3.53237,-60.5065,-0.000975101,-0.0111845,0.192756,
2,1,0,1,0,46291.9,0.194564,0.194201,0.294196,24,0.0157405,10,5.71332e-05,-3.53136,-1.5858,-0.0372053,-0.426679,0.194201,
2,1,0,1,0,46292.2,0.196062,0.195735,0.292133,24,0.0158325,10,5.71807e-05,-3.53442,-0.877299,-0.0672518,-0.770088,0.195735,
2,1,0,1,0,46292.5,0.197561,0.197199,0.290786,24,0.0159243,10,5.73427e-05,-3.53643,-1.13633,-0.0519213,-0.592993,0.197199,
2,1,0,1,0,46292.8,0.199059,0.198668,0.291442,24,0.0160158,10,5.79002e-05,-3.53545,-4.12522,-0.0143023,-0.16249,0.198668,
2,1,0,1,0,46293.1,0.200557,0.200188,0.290777,24,0.0161072,10,5.82101e-05,-3.53644,-0.934647,-0.0631254,-0.716821,0.200188,
2,1,0,1,0,46293.4,0.202056,0.201736,0.29156,24,0.0161984,10,5.88183e-05,-3.53527,-1.72644,-0.0341743,-0.387821,0.201736,
2,1,0,1,0,46293.7,0.203553,0.203222,0.290285,24,0.0162894,10,5.89921e-05,-3.53718,-1.76757,-0.0333792,-0.378462,0.203222,
2,1,0,1,0,46294,0.205051,0.204755,0.289513,24,0.0163801,10,5.92791e-05,-3.53833,4.12048,0.0143187,0.162837,0.204755,
2,1,0,0,0,46294.3,0.20655,0.206214,0.289623,24,0.0164709,10,5.97245e-05,-3.53817,-10.5667,-0.0055836,-0.0631605,0.206214,
2,1,0,0,0,46294.6,0.208048,0.207745,0.289107,24,0.0165618,10,6.00606e-05,-3.53894,-0.733865,-0.0803962,-0.903902,0.207745,
2,1,0,1,0,46294.9,0.209547,0.209192,0.28852,24,0.0166522,10,6.03562e-05,-3.53982,-0.953444,-0.0618809,-0.696426,0.209192,
2,1,0,1,0,46295.2,0.211044,0.210658,0.288515,24,0.0167422,10,6.07782e-05,-3.53983,-4.94315,-0.0119357,-0.134221,0.2106583,
2,1,0,1,0,46295.5,0.212542,0.212198,0.287133,24,0.0168324,10,6.0929e-05,-3.54192,-5.86663,-0.0100569,-0.11247,0.2121978,
2,1,0,1,0,46295.8,0.214041,0.213723,0.286916,24,0.0169224,10,6.13205e-05,-3.54225,-1.62819,-0.0362365,-0.40512,0.213723,
2,1,0,1,0,46296.1,0.215539,0.215236,0.286642,24,0.0170122,10,6.16957e-05,-3.54266,-1.71155,-0.0344716,-0.385036,0.215236,
2,1,0,1,0,46296.4,0.217038,0.216688,0.285609,24,0.0171018,10,6.1888e-05,-3.54423,-6.03619,-0.00977438,-0.10897,0.216688,
2,1,0,1,0,46296.7,0.218535,0.218235,0.286104,24,0.0171914,10,6.2438e-05,-3.54348,12.618,0.00467584,0.0520828,0.218235,
2,1,0,1,0,46297,0.220033,0.219731,0.285575,24,0.0172809,10,6.27497e-05,-3.54428,-1.56157,-0.0377825,-0.420563,0.219731,
2,1,0,0,0,46297.3,0.221532,0.221257,0.28494,24,0.0173703,10,6.3045e-05,-3.54525,-1.30918,-0.0450663,-0.501185,0.221257,
2,1,0,0,0,46297.6,0.22303,0.222756,0.283432,24,0.0174594,10,6.31361e-05,-3.54755,-1.68862,-0.0349398,-0.387567,0.222756,
2,1,0,1,0,46297.9,0.224529,0.224199,0.283798,24,0.0175484,10,6.36272e-05,-3.54699,-2.29651,-0.0256911,-0.284324,0.224199,
2,1,0,1,0,46298.2,0.226026,0.225701,0.284541,24,0.0176374,10,6.42213e-05,-3.54585,-2.78726,-0.0211677,-0.233983,0.225701,
2,1,0,1,0,46298.5,0.227524,0.227225,0.283295,24,0.0177264,10,6.43717e-05,-3.54776,-1.28807,-0.0458048,-0.50467,0.227225,
2,1,0,1,0,46298.8,0.229023,0.22873,0.282371,24,0.0178152,10,6.45866e-05,-3.54918,-1.63205,-0.0361509,-0.399753,0.22873,
2,1,0,1,0,46299.1,0.230521,0.2302,0.281088,24,0.0179037,10,6.47065e-05,-3.55116,-15.4293,-0.00382389,-0.0422356,0.2302,
2,1,0,1,0,46299.4,0.232019,0.231694,0.282397,24,0.0179923,10,6.54297e-05,-3.54914,6.28513,0.00938724,0.10329,0.231694,
2,1,0,1,0,46299.7,0.233518,0.233203,0.281823,24,0.0180809,10,6.57218e-05,-3.55002,-1.10474,-0.0534063,-0.586581,0.2332029,
2,1,0,1,0,46300,0.235015,0.2347,0.281487,24,0.0181693,10,6.6065e-05,-3.55054,-195.863,-0.000301232,-0.00330708,0.2347,
2,1,0,1,0,46300.3,0.236513,0.236174,0.280795,24,0.0182573,10,6.63167e-05,-3.55161,-26.1511,-0.00225612,-0.0247469,0.236174,
2,1,0,0,0,46300.6,0.238012,0.237694,0.281362,24,0.0183455,10,6.6878e-05,-3.55073,4.63709,0.0127235,0.139243,0.2376935,
2,1,0,0,0,46300.9,0.23951,0.239204,0.280962,24,0.0184337,10,6.72071e-05,-3.55135,-5.23583,-0.0112685,-0.123546,0.239204,
2,1,0,1,0,46301.2,0.241009,0.240671,0.281176,24,0.0185216,10,6.7671e-05,-3.55102,-1.04736,-0.0563319,-0.616611,0.240671,
2,1,0,1,0,46301.5,0.242506,0.242207,0.279542,24,0.0186093,10,6.7707e-05,-3.55355,2.60048,0.0226881,0.248267,0.242207,
2,1,0,1,0,46301.8,0.244004,0.2437,0.279571,24,0.0186971,10,6.81314e-05,-3.55351,1.61581,0.0365141,0.398326,0.2437,
2,1,0,1,0,46302.1,0.245503,0.24519,0.27951,24,0.0187849,10,6.8533e-05,-3.5536,-2.69256,-0.0219123,-0.239086,0.24519,
2,1,0,1,0,46302.4,0.247001,0.246698,0.278406,24,0.0188725,10,6.86823e-05,-3.55532,-2.09005,-0.0282289,-0.307488,0.246698,
2,1,0,1,0,46302.7,0.2485,0.248155,0.277641,24,0.0189599,10,6.88978e-05,-3.55652,-2.05445,-0.0287181,-0.312177,0.248155,
2,1,0,1,0,46303,0.249997,0.249633,0.278627,24,0.0190472,10,6.95544e-05,-3.55498,-2.35354,-0.0250686,-0.27237,0.249633,
2,1,0,1,0,46303.3,0.251495,0.251147,0.277963,24,0.0191345,10,6.98094e-05,-3.55601,-2.07586,-0.028422,-0.309236,0.251147,
2,1,0,0,0,46303.6,0.252994,0.252666,0.278111,24,0.0192217,10,7.02694e-05,-3.55578,-1.61116,-0.0366196,-0.396223,0.252666,
2,1,0,0,0,46303.9,0.254492,0.254168,0.277601,24,0.0193088,10,7.05572e-05,-3.55658,-1.03065,-0.0572455,-0.620245,0.254168,
2,1,0,1,0,46304.2,0.255991,0.255664,0.277644,24,0.0193956,10,7.09835e-05,-3.55651,-12.2159,-0.00482978,-0.052353,0.255664,
2,1,0,1,0,46304.5,0.257488,0.257163,0.277568,24,0.0194825,10,7.13801e-05,-3.55663,-2.00328,-0.0294517,-0.318227,0.257163,
2,1,0,1,0,46304.8,0.258986,0.258666,0.276982,24,0.0195694,10,7.16458e-05,-3.55755,-5.29585,-0.0111408,-0.120327,0.258666,
2,1,0,1,0,46305.1,0.260485,0.260172,0.277009,24,0.0196561,10,7.20699e-05,-3.55751,-5.79873,-0.0101746,-0.109925,0.260172,
2,1,0,1,0,46305.4,0.261983,0.261669,0.275238,24,0.0197425,10,7.20212e-05,-3.56029,-2.81184,-0.0209827,-0.225977,0.261669,
2,1,0,1,0,46305.7,0.263481,0.263141,0.275759,24,0.0198289,10,7.25635e-05,-3.55947,2.26962,0.0259956,0.278994,0.263141,
2,1,0,1,0,46306,0.26498,0.264705,0.27518,24,0.0199153,10,7.28415e-05,-3.56038,-2.8562,-0.0206568,-0.221971,0.264705,
2,1,0,1,0,46306.3,0.266477,0.266163,0.274155,24,0.0200016,10,7.29699e-05,-3.562,-6.091,-0.00968642,-0.104069,0.266163,
2,1,0,0,0,46306.6,0.267976,0.267655,0.274188,24,0.0200875,10,7.33878e-05,-3.56195,-2.35891,-0.0250116,-0.267886,0.267655,
2,1,0,0,0,46306.9,0.269474,0.269203,0.274253,24,0.0201735,10,7.38297e-05,-3.56185,6.33739,0.00930983,0.0994014,0.269203,
2,1,0,0,0,46307.2,0.270972,0.270685,0.274961,24,0.0202594,10,7.44277e-05,-3.56073,-1.33745,-0.0441137,-0.470966,0.270685,
2,1,0,1,0,46307.5,0.27247,0.272152,0.273306,24,0.0203452,10,7.43808e-05,-3.56335,-2.12233,-0.0277996,-0.296541,0.272152,
2,1,0,1,0,46307.8,0.273968,0.273677,0.271327,24,0.0204308,10,7.4256e-05,-3.56651,-1.22232,-0.0482688,-0.513693,0.273677,
2,1,0,1,0,46308.1,0.275466,0.275154,0.272976,24,0.0205163,10,7.51105e-05,-3.56388,-4.5638,-0.0129278,-0.137297,0.275154,
2,1,0,1,0,46308.4,0.276965,0.276644,0.271569,24,0.0206018,10,7.51279e-05,-3.56612,-1.6137,-0.036562,-0.388382,0.276644,
2,1,0,1,0,46308.7,0.278463,0.278181,0.271262,24,0.0206871,10,7.546e-05,-3.56661,-0.704635,-0.0837313,-0.887065,0.278181,
2,1,0,1,0,46309,0.279962,0.279643,0.27109,24,0.0207722,10,7.58082e-05,-3.56689,9.15219,0.00644654,0.0683728,0.279643,
2,1,0,1,0,46309.3,0.281459,0.281135,0.271108,24,0.0208571,10,7.6218e-05,-3.56686,-2.78364,-0.0211952,-0.22441,0.281135,
2,1,0,1,0,46309.6,0.282957,0.282601,0.270998,24,0.0209422,10,7.65845e-05,-3.56703,52.4403,0.00112509,0.011876,0.282601,
2,1,0,0,0,46309.9,0.284456,0.284148,0.270096,24,0.0210271,10,7.67473e-05,-3.56848,-2.80605,-0.021026,-0.221736,0.2841478,
2,1,0,0,0,46310.2,0.285954,0.285641,0.270026,24,0.0211119,10,7.71303e-05,-3.5686,-2.17885,-0.0270786,-0.284912,0.285641,
2,1,0,0,0,46310.5,0.287452,0.287146,0.269791,24,0.0211964,10,7.74694e-05,-3.56897,-4.88343,-0.0120817,-0.127008,0.287146,
2,1,0,1,0,46310.8,0.28895,0.288567,0.268982,24,0.021281,10,7.76193e-05,-3.57028,1.72107,0.034281,0.359738,0.288567,
2,1,0,1,0,46311.1,0.290448,0.290185,0.268574,24,0.0213654,10,7.79363e-05,-3.57094,-3.39812,-0.0173626,-0.182243,0.290185,
2,1,0,1,0,46311.4,0.291947,0.291633,0.268168,24,0.0214497,10,7.82066e-05,-3.57159,-1.01368,-0.0582038,-0.609928,0.291633,
2,1,0,1,0,46311.7,0.293445,0.293157,0.26714,24,0.0215338,10,7.83139e-05,-3.57326,-1.02876,-0.0573504,-0.600553,0.293157,
2,1,0,1,0,46312,0.294943,0.294657,0.266958,24,0.0216177,10,7.86611e-05,-3.57356,-2.12979,-0.0277023,-0.28947,0.294657,
2,1,0,1,0,46312.3,0.296442,0.296133,0.269199,24,0.0217017,10,7.97187e-05,-3.56993,-1.79898,-0.0327964,-0.342164,0.2961328,
2,1,0,1,0,46312.6,0.297939,0.297637,0.267895,24,0.0217856,10,7.97356e-05,-3.57203,-1.24215,-0.0474983,-0.493745,0.2976371,
2,1,0,1,0,46312.9,0.299437,0.299172,0.266103,24,0.0218693,10,7.96107e-05,-3.57495,-0.00266642,-22.1271,-118.549,0.299172,
2,1,0,1,0,46313.1,0.299737,0.299411,0.127463,24,0.0219087,10,3.81639e-05,-3.89462,0.00103455,57.0297,205.86,0.299411,
2,1,0,1,0,46313.4,0.29824,0.29795,0.027248,24,0.0219217,10,8.11854e-06,-4.56467,0.00145891,40.4411,67.9378,0.29795,
2,1,0,0,0,46313.7,0.296741,0.296465,0.00659655,24,0.0219226,10,1.95565e-06,-5.18068,0.00618619,9.53737,11.5903,0.296465,
2,1,0,0,0,46314,0.295243,0.294964,-0.00538352,24,0.0219188,10,-1.58794e-06,-5.26893,-0.0277702,-2.12458,7.38388,0.294964,
2,0,0,1,0,46314.3,0.293744,0.293384,-0.0145873,24,0.0219119,10,-4.27967e-06,-4.83603,-0.00324477,-18.1831,5.90813,0.293384,
2,0,0,1,0,46314.6,0.292246,0.291912,-0.0230509,24,0.0219026,10,-6.72883e-06,-4.63731,-0.00983608,-5.99832,4.82229,0.291912,
2,0,0,1,0,46314.9,0.290749,0.290421,-0.0292965,24,0.021891,10,-8.5083e-06,-4.53318,-0.0142889,-4.12909,4.48465,0.2904205,
2,0,0,1,0,46315.2,0.28925,0.28893,-0.0354596,24,0.0218775,10,-1.02453e-05,-4.45027,-0.0219255,-2.69093,3.65312,0.28893,
2,0,0,1,0,46315.5,0.287752,0.287436,-0.0405316,24,0.0218621,10,-1.16503e-05,-4.39221,-0.0286217,-2.06137,3.243,0.2874361,
2,0,0,1,0,46315.8,0.286253,0.285975,-0.0459935,24,0.0218455,10,-1.3153e-05,-4.3373,-0.0320801,-1.83915,3.26467,0.285975,
2,0,0,1,0,46316.1,0.284755,0.284399,-0.0499781,24,0.0218273,10,-1.42137e-05,-4.30122,-0.0328142,-1.798,3.50287,0.284399,
2,0,0,1,0,46316.4,0.283257,0.282926,-0.0555218,24,0.0218076,10,-1.57086e-05,-4.25554,-0.0428431,-1.37712,2.92329,0.282926,
2,0,0,0,0,46316.7,0.281759,0.281471,-0.0597112,24,0.0217867,10,-1.6807e-05,-4.22394,-0.049293,-1.19693,2.74848,0.281471,
2,0,0,0,0,46317,0.280261,0.279933,-0.0622318,24,0.0217645,10,-1.74207e-05,-4.20599,-0.0580256,-1.01679,2.49481,0.279933,
2,0,0,0,0,46317.3,0.278763,0.278442,-0.0670572,24,0.0217413,10,-1.86715e-05,-4.17355,-0.0623574,-0.946159,2.44903,0.278442,
2,0,0,1,0,46317.6,0.277264,0.276935,-0.0708263,24,0.0217168,10,-1.96143e-05,-4.14981,-0.0731733,-0.806305,2.19916,0.276935,
2,0,0,1,0,46317.9,0.275766,0.275458,-0.0733957,24,0.0216913,10,-2.02174e-05,-4.13433,-0.0870735,-0.677588,1.93901,0.275458,
2,0,0,1,0,46318.2,0.274269,0.273947,-0.0771857,24,0.0216648,10,-2.11448e-05,-4.11246,-0.0798493,-0.738892,2.23228,0.273947,
2,0,0,1,0,46318.5,0.27277,0.272453,-0.0808475,24,0.0216375,10,-2.20271e-05,-4.09233,-0.0809418,-0.728919,2.28653,0.272453,
2,0,0,1,0,46318.8,0.271272,0.270969,-0.0836464,24,0.0216092,10,-2.26656e-05,-4.07755,-0.0882424,-0.668613,2.17882,0.270969,
2,0,0,1,0,46319.1,0.269773,0.269439,-0.0871783,24,0.0215798,10,-2.34892e-05,-4.05959,-0.0890829,-0.662304,2.22675,0.269439,
2,0,0,1,0,46319.4,0.268275,0.267929,-0.0898184,24,0.0215496,10,-2.40649e-05,-4.04663,-0.116807,-0.505105,1.74554,0.267929,
2,0,0,1,0,46319.7,0.266778,0.266438,-0.0926611,24,0.0215187,10,-2.46885e-05,-4.0331,-0.120058,-0.491428,1.75999,0.266438,
2,0,0,0,0,46320,0.265279,0.264998,-0.0947431,24,0.0214869,10,-2.51067e-05,-4.02345,-0.10139,-0.581913,2.14582,0.2649979,
2,0,0,0,0,46320.3,0.263781,0.263449,-0.0980881,24,0.0214542,10,-2.58412e-05,-4.00838,-0.140787,-0.419074,1.59658,0.263449,
2,0,0,1,0,46320.6,0.262282,0.26196,-0.0994285,24,0.0214207,10,-2.60463e-05,-4.00249,-0.141562,-0.416778,1.62265,0.26196,
2,0,0,1,0,46320.9,0.260784,0.260449,-0.101635,24,0.0213866,10,-2.64708e-05,-3.99296,-0.162159,-0.363841,1.45642,0.2604486,
2,0,0,1,0,46321.2,0.259286,0.259008,-0.104826,24,0.0213517,10,-2.71506e-05,-3.97953,-0.121016,-0.487539,1.98828,0.259008,
2,0,0,1,0,46321.5,0.257788,0.257468,-0.108642,24,0.021316,10,-2.79717e-05,-3.964,-0.149106,-0.395692,1.65257,0.257468,
2,0,0,1,0,46321.8,0.25629,0.255991,-0.10898,24,0.0212796,10,-2.78979e-05,-3.96265,-0.234489,-0.251611,1.06934,0.2559908,
2,0,0,1,0,46322.1,0.254791,0.254443,-0.110491,24,0.0212425,10,-2.81136e-05,-3.95668,-0.205757,-0.286745,1.23925,0.2544432,
2,0,0,1,0,46322.4,0.253293,0.252942,-0.112574,24,0.021205,10,-2.84746e-05,-3.94856,-0.192326,-0.30677,1.35764,0.252942,
2,0,0,1,0,46322.7,0.251795,0.251467,-0.115165,24,0.0211668,10,-2.89603e-05,-3.93868,-0.196875,-0.299682,1.35506,0.251467,
2,0,0,0,0,46323,0.250297,0.25003,-0.11806,24,0.0211278,10,-2.95185e-05,-3.9279,-0.250402,-0.235621,1.08402,0.25003,
2,0,0,0,0,46323.3,0.248799,0.248456,-0.119017,24,0.0210882,10,-2.95704e-05,-3.92439,-0.218468,-0.270063,1.2656,0.248456,
2,0,0,0,0,46323.6,0.247301,0.246967,-0.122088,24,0.0210482,10,-3.01518e-05,-3.91333,-0.167659,-0.351904,1.67628,0.246967,
2,0,0,1,0,46323.9,0.245802,0.245479,-0.124347,24,0.0210074,10,-3.05246e-05,-3.90536,-0.188952,-0.312249,1.51203,0.245479,
2,0,0,1,0,46324.2,0.244304,0.243947,-0.125692,24,0.0209659,10,-3.06621e-05,-3.90069,-0.235602,-0.250423,1.22793,0.243947,
2,0,0,1,0,46324.5,0.242806,0.24248,-0.128465,24,0.0209239,10,-3.11501e-05,-3.89122,-0.234741,-0.25134,1.2528,0.24248,
2,0,0,1,0,46324.8,0.241308,0.241001,-0.129734,24,0.0208815,10,-3.12659e-05,-3.88695,-0.263558,-0.22386,1.13101,0.241001,
2,0,0,1,0,46325.1,0.23981,0.239488,-0.131776,24,0.0208385,10,-3.15587e-05,-3.88016,-0.188179,-0.313531,1.61187,0.239488,
2,0,0,1,0,46325.4,0.238311,0.237997,-0.133328,24,0.0207949,10,-3.17318e-05,-3.87508,-0.223838,-0.263583,1.37835,0.237997,
2,0,0,1,0,46325.7,0.236813,0.236474,-0.136337,24,0.0207506,10,-3.22402e-05,-3.86539,-0.257849,-0.228816,1.21091,0.236474,
2,0,0,1,0,46326,0.235316,0.235048,-0.136198,24,0.020706,10,-3.2013e-05,-3.86583,-0.235012,-0.251051,1.34694,0.235048,
2,0,0,0,0,46326.3,0.233817,0.233485,-0.140021,24,0.0206607,10,-3.26927e-05,-3.85381,-0.20414,-0.289017,1.56793,0.233485,
2,0,0,0,0,46326.6,0.232319,0.231942,-0.142201,24,0.0206148,10,-3.29824e-05,-3.8471,-0.315454,-0.187032,1.02739,0.231942,
2,0,0,1,0,46326.9,0.23082,0.230493,-0.143052,24,0.0205683,10,-3.29726e-05,-3.84451,-0.296896,-0.198723,1.10265,0.230493,
2,0,0,1,0,46327.2,0.229322,0.229005,-0.144177,24,0.0205214,10,-3.30172e-05,-3.8411,-0.266504,-0.221385,1.25023,0.229005,
2,0,0,1,0,46327.4,0.227825,0.227528,-0.145683,24,0.020474,10,-3.31468e-05,-3.83659,-0.286721,-0.205775,1.17475,0.2275279,
2,0,0,1,0,46327.7,0.226326,0.225999,-0.147201,24,0.0204259,10,-3.32673e-05,-3.83209,-0.371885,-0.158651,0.918355,0.225999,
2,0,0,1,0,46328,0.224828,0.224501,-0.149454,24,0.0203774,10,-3.35525e-05,-3.82549,-0.542668,-0.108722,0.631549,0.224501,
2,0,0,1,0,46328.3,0.223329,0.223048,-0.152032,24,0.0203284,10,-3.39104e-05,-3.81807,-0.294491,-0.200345,1.18411,0.223048,
2,0,0,1,0,46328.6,0.221831,0.221483,-0.153256,24,0.0202791,10,-3.39436e-05,-3.81458,-0.315978,-0.186722,1.11007,0.221483,
2,0,0,1,0,46328.9,0.220333,0.220027,-0.154988,24,0.0202289,10,-3.41017e-05,-3.8097,-0.248857,-0.237084,1.42588,0.220027,
2,0,0,0,0,46329.2,0.218835,0.218514,-0.157152,24,0.0201781,10,-3.43399e-05,-3.80368,-0.291084,-0.202691,1.23989,0.218514,
2,0,0,0,0,46329.5,0.217337,0.217019,-0.158105,24,0.020127,10,-3.43117e-05,-3.80106,-0.384517,-0.153439,0.950479,0.217019,
2,0,0,0,0,46329.8,0.215839,0.215524,-0.160021,24,0.0200754,10,-3.44882e-05,-3.79582,-0.333081,-0.177134,1.10236,0.215524,
2,0,0,1,0,46330.1,0.21434,0.214006,-0.161437,24,0.0200231,10,-3.45484e-05,-3.792,-0.245936,-0.239899,1.51755,0.214006,
2,0,0,1,0,46330.4,0.212842,0.212508,-0.162913,24,0.0199704,10,-3.46202e-05,-3.78805,-0.27406,-0.215281,1.37559,0.212508,
2,0,0,1,0,46330.7,0.211344,0.211071,-0.164967,24,0.019917,10,-3.48198e-05,-3.7826,-0.398071,-0.148215,0.957484,0.211071,
2,0,0,1,0,46331,0.209846,0.209559,-0.16548,24,0.0198633,10,-3.46777e-05,-3.78126,-0.277597,-0.212538,1.3827,0.2095588,
2,0,0,1,0,46331.3,0.208348,0.208036,-0.168075,24,0.0198091,10,-3.49657e-05,-3.7745,-0.296805,-0.198784,1.30837,0.208036,
2,0,0,1,0,46331.6,0.206849,0.206506,-0.172865,24,0.0197541,10,-3.56975e-05,-3.76229,-0.324939,-0.181573,1.20894,0.206506,
2,0,0,1,0,46331.9,0.205351,0.205049,-0.172142,24,0.0196985,10,-3.52976e-05,-3.76411,-0.603824,-0.0977107,0.655181,0.205049,
2,0,0,1,0,46332.2,0.203854,0.203515,-0.17318,24,0.0196426,10,-3.52448e-05,-3.7615,-0.307426,-0.191916,1.30638,0.203515,
2,0,0,0,0,46332.5,0.202355,0.202026,-0.175154,24,0.0195863,10,-3.53856e-05,-3.75658,-0.323247,-0.182523,1.25835,0.202026,
2,0,0,0,0,46332.8,0.200857,0.200518,-0.177624,24,0.0195292,10,-3.56169e-05,-3.7505,-0.323942,-0.182132,1.26399,0.200518,
2,0,0,1,0,46333.1,0.199358,0.199013,-0.179922,24,0.0194715,10,-3.58068e-05,-3.74492,-0.366824,-0.16084,1.12451,0.1990128,
2,0,0,1,0,46333.4,0.19786,0.197456,-0.1818,24,0.0194133,10,-3.58976e-05,-3.74041,-0.396637,-0.148751,1.0544,0.197456,
2,0,0,1,0,46333.7,0.196363,0.196025,-0.183866,24,0.0193546,10,-3.60424e-05,-3.7355,-0.352224,-0.167507,1.19854,0.196025,
2,0,0,1,0,46334,0.194864,0.19455,-0.185676,24,0.0192953,10,-3.61233e-05,-3.73124,-0.322435,-0.182982,1.31742,0.19455,
2,0,0,1,0,46334.3,0.193366,0.192975,-0.187032,24,0.0192351,10,-3.60926e-05,-3.72808,-0.328555,-0.179574,1.31189,0.192975,
2,0,0,1,0,46334.6,0.191867,0.191538,-0.188368,24,0.0191746,10,-3.60796e-05,-3.72499,-0.455981,-0.129391,0.958735,0.191538,
2,0,0,1,0,46334.9,0.190369,0.190047,-0.190534,24,0.0191136,10,-3.62105e-05,-3.72003,-0.306118,-0.192736,1.43954,0.190047,
2,0,0,1,0,46335.2,0.188871,0.188517,-0.192734,24,0.0190518,10,-3.63337e-05,-3.71504,-0.239763,-0.246076,1.85334,0.188517,
2,0,0,0,0,46335.5,0.187373,0.187057,-0.195854,24,0.0189893,10,-3.66359e-05,-3.70807,-0.320674,-0.183988,1.40413,0.187057,
2,0,0,0,0,46335.8,0.185875,0.185518,-0.196917,24,0.0189261,10,-3.65318e-05,-3.70572,-0.275282,-0.214326,1.6489,0.185518,
2,0,0,0,0,46336.1,0.184377,0.184058,-0.198563,24,0.0188624,10,-3.65471e-05,-3.7021,-0.281584,-0.209529,1.63416,0.184058,
2,0,0,1,0,46336.4,0.182878,0.182534,-0.202285,24,0.0187979,10,-3.69238e-05,-3.69404,-0.310352,-0.190107,1.50071,0.182534,
2,0,0,1,0,46336.7,0.181381,0.181049,-0.205635,24,0.0187326,10,-3.723e-05,-3.6869,-0.246978,-0.238888,1.91286,0.181049,
2,0,0,1,0,46337,0.179882,0.179523,-0.206858,24,0.0186665,10,-3.71358e-05,-3.68433,-0.433914,-0.135972,1.10051,0.179523,
2,0,0,1,0,46337.3,0.178384,0.178084,-0.209645,24,0.0185997,10,-3.73345e-05,-3.67851,-0.2827,-0.208702,1.71297,0.178084,
2,0,0,1,0,46337.6,0.176886,0.176582,-0.212219,24,0.0185323,10,-3.74741e-05,-3.67322,-0.246851,-0.23901,1.98619,0.176582,
2,0,0,1,0,46337.9,0.175387,0.17509,-0.215739,24,0.018464,10,-3.77738e-05,-3.66607,-0.258635,-0.22812,1.92019,0.17509,
2,0,0,1,0,46338.2,0.173889,0.173546,-0.219161,24,0.0183946,10,-3.80346e-05,-3.65924,-0.265881,-0.221904,1.89367,0.1735464,
2,0,0,1,0,46338.5,0.172392,0.172044,-0.221566,24,0.0183245,10,-3.81192e-05,-3.6545,-0.244908,-0.240907,2.0857,0.172044,
2,0,0,0,0,46338.8,0.170893,0.170611,-0.224151,24,0.0182536,10,-3.82426e-05,-3.64946,-0.233297,-0.252897,2.21439,0.170611,
2,0,0,0,0,46339.1,0.169395,0.169042,-0.229178,24,0.0181817,10,-3.87407e-05,-3.63983,-0.189477,-0.311384,2.76762,0.169042,
2,0,0,1,0,46339.4,0.167896,0.167609,-0.232549,24,0.0181085,10,-3.89772e-05,-3.63349,-0.222314,-0.26539,2.39276,0.167609,
2,0,0,1,0,46339.7,0.166398,0.166061,-0.235232,24,0.0180343,10,-3.90629e-05,-3.6285,-0.257491,-0.229134,2.10781,0.166061,
2,0,0,1,0,46340,0.164901,0.164576,-0.238245,24,0.0179592,10,-3.92093e-05,-3.62298,-0.207837,-0.283876,2.65776,0.164576,
2,0,0,1,0,46340.3,0.163402,0.163081,-0.24286,24,0.0178828,10,-3.9606e-05,-3.61464,-0.172258,-0.342509,3.24411,0.1630812,
2,0,0,1,0,46340.6,0.161904,0.161593,-0.248499,24,0.017805,10,-4.01559e-05,-3.60467,-0.189709,-0.311003,3.00548,0.161593,
2,0,0,1,0,46340.9,0.160405,0.160117,-0.253001,24,0.0177258,10,-4.05096e-05,-3.59688,-0.191041,-0.308834,3.03443,0.160117,
2,0,0,1,0,46341.2,0.158907,0.158577,-0.256159,24,0.0176452,10,-4.06208e-05,-3.59149,-0.168607,-0.349927,3.51454,0.1585765,
2,0,0,1,0,46341.5,0.157409,0.157076,-0.262377,24,0.0175633,10,-4.12132e-05,-3.58107,-0.152202,-0.387643,3.99295,0.157076,
2,0,0,0,0,46341.8,0.155911,0.155609,-0.26873,24,0.0174794,10,-4.18167e-05,-3.57068,-0.139421,-0.423179,4.44754,0.155609,
2,0,0,0,0,46342.1,0.154413,0.154077,-0.275434,24,0.0173935,10,-4.2438e-05,-3.55998,-0.148662,-0.396873,4.25673,0.154077,
2,0,0,0,0,46342.4,0.152915,0.152586,-0.282449,24,0.0173056,10,-4.30978e-05,-3.54906,-0.140844,-0.418903,4.62005,0.152586,
2,0,0,1,0,46342.7,0.151416,0.151102,-0.290204,24,0.0172158,10,-4.38504e-05,-3.5373,-0.120699,-0.488819,5.55187,0.151102,
2,0,0,1,0,46343,0.149919,0.149592,-0.298694,24,0.0171233,10,-4.46822e-05,-3.52477,-0.107079,-0.550997,6.43235,0.149592,
2,0,0,1,0,46343.3,0.14842,0.148109,-0.308598,24,0.0170279,10,-4.57063e-05,-3.51061,-0.105165,-0.561022,6.76943,0.148109,
2,0,0,1,0,46343.6,0.146922,0.14662,-0.319273,24,0.0169294,10,-4.68119e-05,-3.49584,-0.0990452,-0.595688,7.4345,0.1466205,
2,0,0,1,0,46343.9,0.145424,0.1451,-0.331231,24,0.0168276,10,-4.80615e-05,-3.47987,-0.0874885,-0.674374,8.75868,0.1451,
2,0,0,1,0,46344.2,0.143925,0.143612,-0.345127,24,0.0167219,10,-4.95642e-05,-3.46202,-0.0782102,-0.754378,10.1776,0.143612,
2,0,0,1,0,46344.5,0.142427,0.142079,-0.360148,24,0.0166117,10,-5.11695e-05,-3.44352,-0.07908,-0.74608,10.4874,0.142079,
2,0,0,1,0,46344.8,0.14093,0.140595,-0.37535,24,0.016497,10,-5.27722e-05,-3.42556,-0.0830758,-0.710195,10.4573,0.140595,
2,0,0,0,0,46345.1,0.139431,0.139088,-0.390689,24,0.0163776,10,-5.43404e-05,-3.40817,-0.0788191,-0.748549,11.4842,0.139088,
2,0,0,0,0,46345.4,0.137933,0.137618,-0.41048,24,0.0162531,10,-5.64893e-05,-3.38671,-0.0813175,-0.725551,11.6188,0.137618,
2,0,0,1,0,46345.7,0.136434,0.136103,-0.428271,24,0.0161232,10,-5.82889e-05,-3.36828,-0.0826306,-0.714021,11.9122,0.1361029,
2,0,0,1,0,46346,0.134936,0.134604,-0.44782,24,0.0159876,10,-6.02784e-05,-3.3489,-0.0841834,-0.700851,12.1695,0.134604,
2,0,0,1,0,46346.3,0.133439,0.133126,-0.46445,24,0.0158466,10,-6.18304e-05,-3.33306,-0.0852055,-0.692444,12.5655,0.133126,
2,0,0,1,0,46346.6,0.13194,0.131588,-0.483392,24,0.0157,10,-6.36087e-05,-3.3157,-0.0888655,-0.663925,12.5577,0.131588,
2,0,0,1,0,46346.9,0.130442,0.130096,-0.502416,24,0.0155477,10,-6.53624e-05,-3.29894,-0.0973992,-0.605755,11.8447,0.130096,
2,0,0,1,0,46347.2,0.128943,0.128638,-0.520036,24,0.0153899,10,-6.68963e-05,-3.28397,-0.122377,-0.482117,9.73268,0.128638,
2,0,0,1,0,46347.5,0.127445,0.127111,-0.535675,24,0.0152273,10,-6.80901e-05,-3.2711,-0.12339,-0.47816,9.95755,0.127111,
2,0,0,1,0,46347.8,0.125947,0.125609,-0.548493,24,0.0150606,10,-6.88955e-05,-3.26083,-0.137919,-0.427789,9.13832,0.125609,
2,0,0,0,0,46348.1,0.124449,0.124121,-0.561423,24,0.0148896,10,-6.96842e-05,-3.25071,-0.160659,-0.367238,8.01933,0.124121,
2,0,0,0,0,46348.4,0.122951,0.122645,-0.573534,24,0.0147148,10,-7.03409e-05,-3.24144,-0.17199,-0.343043,7.65664,0.122645,
2,0,0,0,0,46348.7,0.121453,0.121133,-0.582961,24,0.0145369,10,-7.06155e-05,-3.23436,-0.242353,-0.243447,5.50842,0.121133,
2,0,0,1,0,46349,0.119954,0.119627,-0.589066,24,0.0143565,10,-7.04679e-05,-3.22984,-0.290387,-0.203177,4.67079,0.119627,
2,0,0,1,0,46349.3,0.118456,0.118135,-0.594962,24,0.0141741,10,-7.02859e-05,-3.22551,-0.322759,-0.182799,4.24122,0.118135,
2,0,0,1,0,46349.6,0.116958,0.116607,-0.601254,24,0.0139899,10,-7.01103e-05,-3.22094,-0.616782,-0.0956578,2.2351,0.116607,
2,0,0,1,0,46349.9,0.11546,0.115106,-0.603201,24,0.0138047,10,-6.94322e-05,-3.21954,-1.38539,-0.0425872,1.00064,0.115106,
2,0,0,1,0,46350.2,0.113962,0.11362,-0.601531,24,0.0136193,10,-6.83457e-05,-3.22074,-2.32419,-0.0253852,0.598765,0.11362,
2,0,0,1,0,46350.5,0.112463,0.112108,-0.60587,24,0.0134336,10,-6.7923e-05,-3.21762,-6.19291,-0.00952702,0.224471,0.112108,
2,0,0,1,0,46350.8,0.110965,0.110654,-0.605086,24,0.0132475,10,-6.6955e-05,-3.21818,4.80453,0.0122801,-0.289424,0.110654,
2,0,0,1,0,46351.1,0.109468,0.109156,-0.605009,24,0.0130616,10,-6.60401e-05,-3.21824,0.974344,0.0605536,-1.42496,0.109156,
2,0,0,0,0,46351.4,0.107969,0.107607,-0.602079,24,0.012876,10,-6.47879e-05,-3.22035,1.56099,0.0377966,-0.890514,0.1076071,
2,0,0,0,0,46351.7,0.106471,0.106115,-0.601388,24,0.0126912,10,-6.38164e-05,-3.22085,1.18746,0.0496859,-1.168,0.1061151,
2,0,0,1,0,46352,0.104972,0.104655,-0.600471,24,0.0125065,10,-6.28421e-05,-3.22151,1.63495,0.0360868,-0.844952,0.104655,
2,0,0,1,0,46352.3,0.103474,0.103129,-0.59957,24,0.0123221,10,-6.18331e-05,-3.22216,0.828046,0.0712521,-1.66158,0.103129,
2,0,0,1,0,46352.6,0.101977,0.101628,-0.595996,24,0.0121384,10,-6.05698e-05,-3.22476,0.771432,0.0764811,-1.7776,0.1016278,
2,0,0,1,0,46352.9,0.100478,0.100144,-0.592493,24,0.011956,10,-5.93345e-05,-3.22732,0.817102,0.0722064,-1.67317,0.100144,
2,0,0,1,0,46353.2,0.0989798,0.0986583,-0.591603,24,0.0117739,10,-5.83666e-05,-3.22797,1.18272,0.049885,-1.14856,0.0986583,
2,0,0,1,0,46353.5,0.0974812,0.0971203,-0.588388,24,0.0115925,10,-5.71445e-05,-3.23034,0.752689,0.0783857,-1.80098,0.0971203,
2,0,0,1,0,46353.8,0.0959834,0.0956689,-0.586182,24,0.0114119,10,-5.60794e-05,-3.23197,0.519309,0.113612,-2.5975,0.0956689,
2,0,0,1,0,46354.1,0.0944855,0.0941804,-0.580919,24,0.0112325,10,-5.47112e-05,-3.23588,0.622172,0.0948291,-2.15603,0.09418045,
2,0,0,0,0,46354.4,0.0929871,0.0926861,-0.578557,24,0.0110539,10,-5.36242e-05,-3.23765,0.760478,0.0775828,-1.75383,0.0926861,
2,0,0,0,0,46354.7,0.0914889,0.0911676,-0.578158,24,0.010876,10,-5.27093e-05,-3.23795,0.53637,0.109999,-2.47584,0.0911676,
2,0,0,0,0,46355,0.0899907,0.0896714,-0.573529,24,0.0106991,10,-5.14292e-05,-3.24144,0.491618,0.120012,-2.67795,0.0896714,
2,0,0,1,0,46355.3,0.0884923,0.0881613,-0.567869,24,0.0105233,10,-5.0064e-05,-3.24575,0.544716,0.108313,-2.40521,0.0881613,
2,0,0,1,0,46355.6,0.0869946,0.0866781,-0.566246,24,0.0103489,10,-4.90812e-05,-3.24699,0.538302,0.109604,-2.42408,0.0866781,
2,0,0,1,0,46355.9,0.0854961,0.0851731,-0.562199,24,0.0101752,10,-4.78842e-05,-3.25011,0.510314,0.115615,-2.53673,0.08517313,
2,0,0,1,0,46356.2,0.083998,0.0836514,-0.557606,24,0.0100026,10,-4.66446e-05,-3.25367,0.363146,0.162469,-3.53546,0.0836514,
2,0,0,1,0,46356.5,0.0824998,0.0822188,-0.555198,24,0.0098312,10,-4.56477e-05,-3.25555,0.48842,0.120798,-2.6142,0.0822188,
2,0,0,1,0,46356.8,0.0810014,0.0806853,-0.550769,24,0.00966129,10,-4.44389e-05,-3.25903,0.521443,0.113148,-2.43596,0.0806853,
2,0,0,1,0,46357.1,0.0795035,0.0791894,-0.546971,24,0.00949223,10,-4.33143e-05,-3.26204,0.518395,0.113813,-2.43085,0.0791894,
2,0,0,1,0,46357.4,0.0780056,0.077685,-0.544108,24,0.00932423,10,-4.22691e-05,-3.26431,0.505886,0.116627,-2.47039,0.077685,
2,0,0,0,0,46357.7,0.076507,0.0761491,-0.540765,24,0.00915721,10,-4.11787e-05,-3.26699,0.503697,0.117134,-2.46525,0.0761491,
2,0,0,0,0,46358,0.0750088,0.0747154,-0.535323,24,0.00899173,10,-3.99969e-05,-3.27138,0.525198,0.112338,-2.34978,0.0747154,
2,0,0,1,0,46358.3,0.0735103,0.0732349,-0.531546,24,0.00882718,10,-3.89277e-05,-3.27446,0.705184,0.0836661,-1.73505,0.0732349,
2,0,0,1,0,46358.6,0.0720124,0.0716307,-0.529106,24,0.00866353,10,-3.79002e-05,-3.27646,0.542256,0.108805,-2.25072,0.0716307,
2,0,0,1,0,46358.9,0.0705146,0.070189,-0.525737,24,0.00850107,10,-3.6901e-05,-3.27923,0.443981,0.132889,-2.72918,0.070189,
2,0,0,1,0,46359.2,0.069016,0.0686838,-0.520995,24,0.00833964,10,-3.57839e-05,-3.28317,0.618406,0.0954065,-1.9469,0.0686838,
2,0,0,1,0,46359.5,0.0675179,0.0671918,-0.519085,24,0.00817936,10,-3.48783e-05,-3.28476,0.631638,0.0934079,-1.89609,0.0671918,
2,0,0,1,0,46359.8,0.0660192,0.065674,-0.519048,24,0.00801976,10,-3.40879e-05,-3.28479,0.657138,0.0897833,-1.8068,0.065674,
2,0,0,1,0,46360.1,0.0645214,0.0642044,-0.512475,24,0.00786107,10,-3.29032e-05,-3.29033,0.485282,0.121579,-2.43048,0.0642044,
2,0,0,1,0,46360.4,0.0630235,0.0627097,-0.507292,24,0.0077036,10,-3.18122e-05,-3.29474,0.594278,0.0992802,-1.97344,0.0627097,
2,0,0,0,0,46360.7,0.0615251,0.0612175,-0.50629,24,0.00754724,10,-3.09938e-05,-3.2956,0.522843,0.112845,-2.23099,0.0612175,
2,0,0,0,0,46361,0.0600269,0.0596926,-0.502329,24,0.00739178,10,-2.99853e-05,-3.29901,0.569526,0.103595,-2.03678,0.0596926,
2,0,0,0,0,46361.3,0.0585287,0.0582102,-0.499448,24,0.00723714,10,-2.90729e-05,-3.30151,0.487969,0.120909,-2.35446,0.0582102,
2,0,0,1,0,46361.6,0.0570303,0.0567032,-0.496114,24,0.00708353,10,-2.81312e-05,-3.30442,0.448971,0.131412,-2.54798,0.0567032,
2,0,0,1,0,46361.9,0.0555325,0.0552251,-0.492572,24,0.00693128,10,-2.72023e-05,-3.30753,0.611636,0.0964625,-1.85702,0.0552251,
2,0,0,1,0,46362.2,0.0540342,0.0536759,-0.490916,24,0.00677962,10,-2.63503e-05,-3.30899,0.573203,0.10293,-1.96475,0.0536759,
2,0,0,1,0,46362.5,0.052536,0.0522146,-0.487675,24,0.00662878,10,-2.54638e-05,-3.31187,0.446987,0.131995,-2.50513,0.0522146,
2,0,0,1,0,46362.8,0.0510378,0.0506919,-0.483276,24,0.00647916,10,-2.44982e-05,-3.3158,0.397328,0.148492,-2.7985,0.0506919,
2,0,0,1,0,46363.1,0.0495394,0.0492422,-0.477566,24,0.00633085,10,-2.35164e-05,-3.32097,0.508008,0.11614,-2.17258,0.0492422,
2,0,0,1,0,46363.4,0.0480415,0.0477134,-0.475021,24,0.00618353,10,-2.26649e-05,-3.32329,0.628775,0.0938332,-1.74114,0.0477134,
2,0,0,1,0,46363.7,0.0465436,0.0461845,-0.471974,24,0.00603716,10,-2.17979e-05,-3.32608,0.566306,0.104184,-1.92164,0.0461845,
2,0,0,0,0,46364,0.045045,0.044708,-0.468475,24,0.00589164,10,-2.09446e-05,-3.32931,0.409837,0.14396,-2.63001,0.044708,
2,0,0,0,0,46364.3,0.0435468,0.0432351,-0.462805,24,0.00574739,10,-2.00094e-05,-3.3346,0.531607,0.110984,-2.01533,0.0432351,
2,0,0,1,0,46364.6,0.0420483,0.0417427,-0.461409,24,0.00560429,10,-1.92605e-05,-3.33591,0.455328,0.129577,-2.3322,0.0417427,
2,0,0,1,0,46364.9,0.0405504,0.0402204,-0.459145,24,0.00546189,10,-1.8467e-05,-3.33805,0.504674,0.116907,-2.08623,0.0402204,
2,0,0,1,0,46365.2,0.0390526,0.0387277,-0.454282,24,0.00532062,10,-1.75933e-05,-3.34267,0.37229,0.158479,-2.81265,0.0387277,
2,0,0,1,0,46365.5,0.0375541,0.0372353,-0.450718,24,0.00518054,10,-1.67826e-05,-3.3461,0.459432,0.128419,-2.26352,0.0372353,
2,0,0,1,0,46365.8,0.0360559,0.0357083,-0.447181,24,0.00504161,10,-1.59681e-05,-3.34952,0.46302,0.127424,-2.23113,0.0357083,
2,0,0,1,0,46366.1,0.0345572,0.0342011,-0.445208,24,0.00490345,10,-1.52266e-05,-3.35144,0.497048,0.118701,-2.05826,0.0342011,
2,0,0,1,0,46366.4,0.0330594,0.0327667,-0.441244,24,0.00476633,10,-1.44581e-05,-3.35532,0.409458,0.144093,-2.47528,0.0327667,
2,0,0,1,0,46366.7,0.0315615,0.0312326,-0.438241,24,0.00463025,10,-1.36874e-05,-3.35829,0.595128,0.0991384,-1.6953,0.0312326,
2,0,0,0,0,46367,0.0300631,0.0297436,-0.435167,24,0.00449528,10,-1.29434e-05,-3.36134,0.510257,0.115628,-1.96155,0.0297436,
2,0,0,0,0,46367.3,0.0285649,0.028241,-0.432623,24,0.00436102,10,-1.22177e-05,-3.36389,0.621954,0.0948623,-1.59959,0.028241,
2,0,0,0,0,46367.6,0.0270667,0.0267235,-0.429927,24,0.00422751,10,-1.14892e-05,-3.36661,0.527274,0.111896,-1.87234,0.0267235,
2,0,0,1,0,46367.9,0.0255683,0.0252567,-0.426951,24,0.00409486,10,-1.07834e-05,-3.36962,0.450449,0.13098,-2.18292,0.0252567,
2,0,0,1,0,46368.2,0.0240706,0.0237027,-0.423907,24,0.00396337,10,-1.00477e-05,-3.37273,0.614145,0.0960685,-1.59119,0.0237027,
2,0,0,1,0,46368.5,0.0225722,0.0222539,-0.420742,24,0.00383247,10,-9.36315e-06,-3.37598,0.848605,0.0695259,-1.14292,0.0222539,
2,0,0,1,0,46368.8,0.021074,0.0207163,-0.419564,24,0.00370222,10,-8.69182e-06,-3.3772,0.634021,0.0930568,-1.52409,0.0207163,
2,0,0,1,0,46369.1,0.0195758,0.0192561,-0.417236,24,0.00357262,10,-8.03436e-06,-3.37962,0.676939,0.087157,-1.42171,0.0192561,
2,0,0,1,0,46369.4,0.0180774,0.0177576,-0.415138,24,0.00344359,10,-7.37184e-06,-3.38181,0.798274,0.0739094,-1.1977,0.01775755,
2,0,0,1,0,46369.7,0.0165795,0.0162563,-0.415149,24,0.00331516,10,-6.74877e-06,-3.3818,1.18797,0.0496647,-0.803242,0.0162563,
2,0,0,1,0,46370,0.0150817,0.0147191,-0.413632,24,0.00318696,10,-6.08829e-06,-3.38339,1.57155,0.0375426,-0.604759,0.0147191,
2,0,0,0,0,46370.3,0.013583,0.0132627,-0.411758,24,0.00305891,10,-5.46103e-06,-3.38536,0.640759,0.0920783,-1.4786,0.0132627,
2,0,0,0,0,46370.6,0.0120848,0.011758,-0.409903,24,0.0029314,10,-4.81964e-06,-3.38732,2.02162,0.0291845,-0.469051,0.011758,
2,0,0,1,0,46370.9,0.0105863,0.0102509,-0.409754,24,0.00280437,10,-4.20033e-06,-3.38748,3.45021,0.0171004,-0.274079,0.0102509,
2,0,0,1,0,46371.2,0.00908846,0.0087613,-0.410016,24,0.00267727,10,-3.59228e-06,-3.3872,3.31524,0.0177966,-0.284402,0.0087613,
2,0,0,1,0,46371.5,0.0075906,0.00729196,-0.409578,24,0.00255015,10,-2.98663e-06,-3.38766,-35.1489,-0.00167858,0.0268516,0.00729196,
2,0,0,1,0,46371.8,0.00609207,0.00577838,-0.409937,24,0.00242313,10,-2.36877e-06,-3.38728,-5.58917,-0.0105561,0.169002,0.005778376,
2,0,0,1,0,46372.1,0.00459389,0.00427154,-0.409969,24,0.00229622,10,-1.7512e-06,-3.38725,6.84382,0.00862091,-0.138123,0.00427154,
2,0,0,1,0,46372.4,0.00309525,0.00276731,-0.411111,24,0.00216891,10,-1.13767e-06,-3.38604,-0.905593,-0.0651506,1.04391,0.00276731,
2,0,0,1,0,46372.7,0.00159739,0.00125452,-0.416288,24,0.00203977,10,-5.22243e-07,-3.38061, , , ,0.001254524,
2,0,0,0,0,46373,0.000199195,-0.000126815,-0.413525,24,0.00192004,10,5.24413e-08,-3.3835, , , ,-0.000126815,