File: Figure_codes/Fig_3-5/rawdata_trumpetplot_data/after 10th/20221101_1-115_003_TrumpetPlot_ParaChange_from10_every3_09_CV_C01_28.csv
mode,ox/red,error,control changes,counter inc.,time/s,control/V,Ewe/V,<I>/mA,cycle number,(Q-Qo)/C,I Range,P/W,log(|I|),Tafel slope mV/dec,alpha_eff,dI/d(E-IR),E-IR/V,
2,0,0,0,0,56346.2,2.44065e-05,-0.000306236,-5.25252,29,0.0000000E+000,10,1.60851e-06,-2.27963, , , ,-0.000306236,
2,0,0,1,0,56346.2,0.00179726,0.00140249,-3.28785,29,-7.28835e-05,10,-4.61119e-06,-2.48309, , , ,0.00140249,
2,0,0,1,0,56346.2,0.00379485,0.00343903,-1.88793,29,-0.000123452,10,-6.49264e-06,-2.72401,-0.00708501,-8.32744,593.828,0.00343903,
2,0,0,1,0,56346.2,0.00579244,0.00545647,-0.880483,29,-0.00015052,10,-4.80433e-06,-3.05528,-0.00299236,-19.7169,455.018,0.00545647,
2,0,0,1,0,56346.2,0.00779002,0.00738969,-0.0903098,29,-0.000159806,10,-6.67361e-07,-4.04426,-0.0187867,-3.14053,357.647,0.00738969,
2,1,0,1,0,56346.3,0.00978761,0.0094309,0.54096,29,-0.000154947,10,5.10174e-06,-3.26683,0.00380037,15.5248,281.71,0.0094309,
2,1,0,1,0,56346.3,0.0117852,0.0114398,1.05066,29,-0.000138725,10,1.20194e-05,-2.97854,0.00913073,6.4617,234.869,0.0114398,
2,1,0,1,0,56346.3,0.0137828,0.0134097,1.47546,29,-0.000113266,10,1.97856e-05,-2.83107,0.0163571,3.60699,198.29,0.0134097,
2,1,0,1,0,56346.3,0.0157804,0.01542,1.83988,29,-7.99342e-05,10,2.83709e-05,-2.73521,0.0243671,2.4213,169.356,0.01542,
2,1,0,1,0,56346.3,0.017778,0.0174006,2.15134,29,-4.00101e-05,10,3.74345e-05,-2.66729,0.0336674,1.75244,144.618,0.0174006,
2,1,0,1,0,56346.4,0.0197755,0.0193985,2.41525,29,5.75353e-06,10,4.68522e-05,-2.61704,0.0453079,1.3022,121.354,0.0193985,
2,1,0,1,0,56346.4,0.0217731,0.0214367,2.64114,29,5.6477e-05,10,5.66173e-05,-2.57821,0.055596,1.06123,108.844,0.0214367,
2,1,0,1,0,56346.4,0.0237707,0.0234201,2.85298,29,0.000111636,10,6.68171e-05,-2.5447,0.0645846,0.91353,101.195,0.0234201,
2,1,0,1,0,56346.4,0.0257683,0.02543,3.04523,29,0.000170406,10,7.74402e-05,-2.51638,0.0775124,0.761169,89.9448,0.02543,
2,1,0,1,0,56346.4,0.0277659,0.027386,3.20968,29,0.00023306,10,8.79004e-05,-2.49354,0.0899831,0.655679,82.0201,0.027386,
2,1,0,1,0,56346.5,0.0297635,0.0293997,3.37083,29,0.000298981,10,9.91015e-05,-2.47226,0.102747,0.574226,75.2575,0.0293997,
2,1,0,1,0,56346.5,0.0317611,0.0313922,3.51118,29,0.00036789,10,0.000110223,-2.45455,0.115933,0.508915,69.7083,0.0313922,
2,1,0,1,0,56346.5,0.0337587,0.0334393,3.65243,29,0.000439253,10,0.000122135,-2.43742,0.124488,0.473943,67.3997,0.0334393,
2,1,0,1,0,56346.5,0.0357562,0.03538,3.77996,29,0.000513693,10,0.000133735,-2.42251,0.140163,0.420937,61.9955,0.03538,
2,1,0,1,0,56346.5,0.0377538,0.0373979,3.89784,29,0.000590618,10,0.000145771,-2.40918,0.150434,0.392199,59.6562,0.03739785,
2,1,0,1,0,56346.6,0.0397514,0.0393609,4.01745,29,0.00066986,10,0.00015813,-2.39605,0.152828,0.386055,60.5331,0.0393609,
2,1,0,1,0,56346.6,0.041749,0.0413991,4.14005,29,0.000751086,10,0.000171394,-2.38299,0.169036,0.349037,56.2727,0.0413991,
2,1,0,1,0,56346.6,0.0437466,0.0434367,4.2468,29,0.000835105,10,0.000184467,-2.37194,0.181373,0.325297,53.9154,0.0434367,
2,1,0,1,0,56346.6,0.0457442,0.0453953,4.3555,29,0.000921146,10,0.000197719,-2.36096,0.188822,0.312464,53.0542,0.0453953,
2,1,0,1,0,56346.6,0.0477418,0.0473839,4.45621,29,0.00100932,10,0.000211153,-2.35103,0.190859,0.309128,53.8358,0.04738386,
2,1,0,1,0,56346.7,0.0497484,0.0493989,4.57104,29,0.0010996,10,0.000225804,-2.33999,0.203154,0.29042,51.6643,0.0493989,
2,1,0,1,0,56346.7,0.0517369,0.0513648,4.66188,29,0.00119147,10,0.000239457,-2.33144,0.221473,0.266398,48.5233,0.0513648,
2,1,0,1,0,56346.7,0.0537345,0.0533897,4.76469,29,0.00128578,10,0.000254385,-2.32197,0.219891,0.268315,49.8594,0.0533897,
2,1,0,1,0,56346.7,0.0557321,0.0553864,4.8624,29,0.00138212,10,0.000269311,-2.31315,0.237197,0.248738,47.1635,0.0553864,
2,1,0,1,0,56346.7,0.0577206,0.057393,4.9535,29,0.00147984,10,0.000284296,-2.30509,0.245929,0.239906,46.3886,0.057393,
2,1,0,1,0,56346.8,0.0597273,0.0593854,5.04791,29,0.00157999,10,0.000299772,-2.29689,0.246871,0.238992,47.0643,0.0593854,
2,1,0,1,0,56346.8,0.0617249,0.0613471,5.13959,29,0.00168199,10,0.000315299,-2.28907,0.263808,0.223647,44.8327,0.0613471,
2,1,0,1,0,56346.8,0.0637224,0.0633608,5.22614,29,0.00178577,10,0.000331132,-2.28182,0.272063,0.216862,44.2531,0.0633608,
2,1,0,1,0,56346.8,0.06572,0.0653997,5.31893,29,0.00189127,10,0.000347856,-2.27418,0.264894,0.22273,46.2315,0.0653997,
2,1,0,1,0,56346.8,0.0677176,0.0673832,5.4121,29,0.00199818,10,0.000364685,-2.26663,0.288484,0.204517,43.1344,0.0673832,
2,1,0,1,0,56346.9,0.0697152,0.0693732,5.49033,29,0.00210729,10,0.000380882,-2.2604,0.309018,0.190927,40.9315,0.06937325,
2,1,0,1,0,56346.9,0.0717128,0.0713662,5.57513,29,0.00221801,10,0.000397876,-2.25375,0.309319,0.190742,41.4793,0.0713662,
2,1,0,1,0,56346.9,0.0737104,0.0733372,5.65475,29,0.00233035,10,0.000414704,-2.24759,0.321491,0.18352,40.5088,0.07333719,
2,1,0,1,0,56346.9,0.075708,0.0753732,5.73745,29,0.00244381,10,0.00043245,-2.24128,0.340269,0.173392,38.7842,0.07537324,
2,1,0,1,0,56346.9,0.0777056,0.077308,5.80876,29,0.00255932,10,0.000449063,-2.23592,0.353554,0.166877,37.853,0.077308,
2,1,0,1,0,56347,0.0797031,0.0793391,5.88757,29,0.00267635,10,0.000467114,-2.23006,0.376483,0.156713,35.9708,0.0793391,
2,1,0,1,0,56347,0.0817007,0.0813632,5.95462,29,0.00279485,10,0.000484487,-2.22515,0.397391,0.148468,34.5124,0.0813632,
2,1,0,1,0,56347,0.0836983,0.083339,6.02561,29,0.00291412,10,0.000502168,-2.22,0.39451,0.149553,35.1603,0.083339,
2,1,0,1,0,56347,0.0856959,0.0853323,6.09418,29,0.00303537,10,0.000520031,-2.21508,0.415129,0.142125,33.7935,0.0853323,
2,1,0,1,0,56347,0.0876935,0.0873157,6.16,29,0.00315793,10,0.000537865,-2.21042,0.457083,0.129079,31.0117,0.0873157,
2,1,0,1,0,56347.1,0.0896911,0.089339,6.21843,29,0.00328173,10,0.000555549,-2.20632,0.442257,0.133407,32.4091,0.08933901,
2,1,0,1,0,56347.1,0.0916887,0.0913285,6.29005,29,0.00340622,10,0.000574461,-2.20135,0.419554,0.140626,34.5108,0.0913285,
2,1,0,1,0,56347.1,0.0936862,0.0933977,6.3585,29,0.00353276,10,0.00059387,-2.19664,0.460508,0.128119,31.7669,0.0933977,
2,1,0,1,0,56347.1,0.0956838,0.0953204,6.41686,29,0.00366053,10,0.000611658,-2.19268,0.452842,0.130288,32.6549,0.0953204,
2,1,0,1,0,56347.1,0.0976814,0.0973076,6.48618,29,0.0037896,10,0.000631155,-2.18801,0.403869,0.146087,37.0082,0.0973076,
2,1,0,1,0,56347.2,0.099679,0.0993511,6.56603,29,0.00391951,10,0.000652343,-2.1827,0.389206,0.151591,38.8318,0.09935113,
2,1,0,1,0,56347.2,0.101677,0.101319,6.64194,29,0.00405166,10,0.000672953,-2.1777,0.383316,0.15392,39.9169,0.101319,
2,1,0,1,0,56347.2,0.103674,0.103325,6.72467,29,0.00418543,10,0.00069483,-2.17233,0.334558,0.176352,46.3505,0.103325,
2,1,0,1,0,56347.2,0.105672,0.105334,6.82806,29,0.00432107,10,0.000719228,-2.1657,0.306578,0.192447,51.2699,0.105334,
2,1,0,1,0,56347.2,0.107667,0.107311,6.929,29,0.00445802,10,0.000743555,-2.15933,0.303018,0.194708,52.6805,0.107311,
2,1,0,1,0,56347.3,0.109667,0.109327,7.03842,29,0.00459778,10,0.000769493,-2.15252,0.284603,0.207306,56.9683,0.109327,
2,1,0,1,0,56347.3,0.111665,0.111277,7.15495,29,0.00473981,10,0.000796181,-2.14539,0.270831,0.217848,60.8693,0.111277,
2,1,0,1,0,56347.3,0.113662,0.113327,7.28188,29,0.00488426,10,0.000825234,-2.13776,0.270855,0.217829,61.8718,0.113327,
2,1,0,1,0,56347.3,0.11566,0.115278,7.40249,29,0.00503118,10,0.000853344,-2.13062,0.260097,0.226838,65.6142,0.115278,
2,1,0,1,0,56347.3,0.117657,0.117308,7.54307,29,0.00518,10,0.00088486,-2.12245,0.261995,0.225195,66.2218,0.117308,
2,1,0,1,0,56347.4,0.119655,0.119301,7.66892,29,0.00533219,10,0.000914911,-2.11527,0.287116,0.205492,61.4664,0.119301,
2,1,0,1,0,56347.4,0.121652,0.121277,7.78705,29,0.00548681,10,0.00094439,-2.10863,0.300811,0.196136,59.6052,0.121277,
2,1,0,1,0,56347.4,0.12365,0.123279,7.90601,29,0.0056438,10,0.000974643,-2.10204,0.297973,0.198004,61.1243,0.123279,
2,1,0,1,0,56347.4,0.125648,0.12532,8.0342,29,0.00580252,10,0.00100685,-2.09506,0.324287,0.181938,56.9396,0.12532,
2,1,0,1,0,56347.4,0.127645,0.127271,8.13334,29,0.00596429,10,0.00103514,-2.08973,0.360527,0.163649,51.9686,0.127271,
2,1,0,1,0,56347.5,0.129643,0.129293,8.24063,29,0.00612818,10,0.00106545,-2.08404,0.375197,0.157251,50.5344,0.129293,
2,1,0,1,0,56347.5,0.13164,0.131287,8.33625,29,0.00629407,10,0.00109444,-2.07903,0.423968,0.139161,45.2416,0.1312865,
2,1,0,1,0,56347.5,0.133638,0.133266,8.4204,29,0.00646096,10,0.00112216,-2.07467,0.474477,0.124347,40.8486,0.133266,
2,1,0,1,0,56347.5,0.135636,0.135272,8.49906,29,0.00663025,10,0.00114969,-2.07063,0.512778,0.11506,38.1517,0.135272,
2,1,0,1,0,56347.5,0.137633,0.137254,8.57255,29,0.00680102,10,0.00117662,-2.06689,0.613468,0.0961746,32.1421,0.137254,
2,1,0,1,0,56347.6,0.139631,0.139291,8.62823,29,0.00697309,10,0.00120183,-2.06408,0.720942,0.0818374,27.5557,0.139291,
2,1,0,1,0,56347.6,0.141628,0.141267,8.68314,29,0.00714542,10,0.00122664,-2.06132,0.804953,0.0732962,24.8223,0.141267,
2,1,0,1,0,56347.6,0.143626,0.143272,8.72706,29,0.00731964,10,0.00125035,-2.05913,1.1341,0.0520235,17.7008,0.143272,
2,1,0,1,0,56347.6,0.145624,0.145244,8.75352,29,0.00749452,10,0.00127139,-2.05782,3.36914,0.0175119,5.97252,0.145244,
2,1,0,1,0,56347.6,0.147621,0.147265,8.7509,29,0.00766962,10,0.0012887,-2.05795,-7.11899,-0.00828769,-2.82942,0.147265,
2,1,0,1,0,56347.7,0.149619,0.149258,8.74216,29,0.00784373,10,0.00130484,-2.05838,-1.25114,-0.047157,-16.0457,0.149258,
2,1,0,1,0,56347.7,0.151616,0.151283,8.68642,29,0.00801813,10,0.00131411,-2.06116,-0.582102,-0.101357,-34.3059,0.151283,
2,1,0,1,0,56347.7,0.153614,0.153299,8.60353,29,0.00819114,10,0.00131891,-2.06532,-0.391443,-0.150724,-50.5037,0.153299,
2,1,0,1,0,56347.7,0.155611,0.155256,8.48577,29,0.00836211,10,0.00131747,-2.07131,-0.299548,-0.196963,-65.1315,0.155256,
2,1,0,1,0,56347.7,0.157609,0.157284,8.34401,29,0.00852963,10,0.00131238,-2.07863,-0.230068,-0.256446,-83.2358,0.157284,
2,1,0,1,0,56347.8,0.159607,0.159292,8.14989,29,0.00869466,10,0.00129821,-2.08885,-0.180072,-0.327647,-104.052,0.159292,
2,1,0,1,0,56347.8,0.161604,0.161223,7.93411,29,0.00885555,10,0.00127916,-2.1005,-0.155593,-0.379195,-117.182,0.161223,
2,1,0,1,0,56347.8,0.163602,0.163206,7.69122,29,0.00901181,10,0.00125525,-2.114,-0.14015,-0.420977,-126.153,0.163206,
2,1,0,1,0,56347.8,0.165606,0.165232,7.42839,29,0.009163,10,0.00122741,-2.12911,-0.132649,-0.444783,-128.906,0.165232,
2,1,0,1,0,56347.8,0.167597,0.167271,7.16719,29,0.00930826,10,0.00119886,-2.14465,-0.125989,-0.468295,-130.883,0.167271,
2,1,0,1,0,56347.9,0.169595,0.169262,6.90097,29,0.00944892,10,0.00116807,-2.16109,-0.120042,-0.491493,-132.331,0.169262,
2,1,0,1,0,56347.9,0.171592,0.171275,6.63737,29,0.00958432,10,0.00113681,-2.178,-0.119216,-0.4949,-128.304,0.171275,
2,1,0,1,0,56347.9,0.173581,0.173233,6.39138,29,0.00971393,10,0.0011072,-2.19441,-0.123382,-0.47819,-119.41,0.173233,
2,1,0,1,0,56347.9,0.175587,0.175227,6.16539,29,0.00983952,10,0.00108034,-2.21004,-0.127565,-0.462508,-111.31,0.175227,
2,1,0,1,0,56347.9,0.177585,0.177223,5.94733,29,0.00996063,10,0.001054,-2.22568,-0.131568,-0.448438,-104.22,0.177223,
2,1,0,1,0,56348,0.179582,0.179217,5.74958,29,0.0100775,10,0.00103042,-2.24036,-0.141377,-0.417323,-93.7556,0.179217,
2,1,0,1,0,56348,0.18158,0.181249,5.56986,29,0.0101907,10,0.00100953,-2.25416,-0.153476,-0.384425,-83.7303,0.181249,
2,1,0,1,0,56348,0.183578,0.183205,5.41562,29,0.0103,10,0.000992172,-2.26635,-0.159897,-0.368987,-77.958,0.183205,
2,1,0,1,0,56348,0.185575,0.18522,5.26028,29,0.0104068,10,0.000974309,-2.27899,-0.165294,-0.35694,-73.3826,0.18522,
2,1,0,1,0,56348,0.187573,0.187196,5.12282,29,0.0105106,10,0.000958969,-2.29049,-0.182921,-0.322544,-64.5676,0.187196,
2,1,0,1,0,56348.1,0.18957,0.189242,5.00061,29,0.0106119,10,0.000946324,-2.30098,-0.200943,-0.293615,-57.3713,0.1892416,
2,1,0,1,0,56348.1,0.191568,0.191212,4.89236,29,0.0107105,10,0.000935481,-2.31048,-0.220692,-0.26734,-51.1139,0.191212,
2,1,0,1,0,56348.1,0.193566,0.193189,4.79885,29,0.0108074,10,0.000927085,-2.31886,-0.235137,-0.250918,-46.9836,0.193189,
2,1,0,1,0,56348.1,0.195563,0.195207,4.70467,29,0.0109025,10,0.000918386,-2.32747,-0.238312,-0.247574,-45.4752,0.195207,
2,1,0,1,0,56348.1,0.197561,0.197221,4.61549,29,0.0109957,10,0.000910271,-2.33578,-0.264036,-0.223454,-40.3242,0.197221,
2,1,0,1,0,56348.2,0.199558,0.199188,4.54416,29,0.011087,10,0.000905142,-2.34255,-0.304921,-0.193493,-34.3321,0.199188,
2,1,0,1,0,56348.2,0.201556,0.201223,4.47811,29,0.0111773,10,0.000901096,-2.34891,-0.301523,-0.195673,-34.1756,0.201223,
2,1,0,1,0,56348.2,0.203553,0.203198,4.40712,29,0.0112662,10,0.000895517,-2.35585,-0.328813,-0.179434,-30.9298,0.203198,
2,1,0,1,0,56348.2,0.205551,0.205167,4.35611,29,0.0113539,10,0.000893729,-2.3609,-0.417625,-0.141275,-24.0318,0.205167,
2,1,0,1,0,56348.2,0.207549,0.207213,4.31062,29,0.0114402,10,0.000893218,-2.36546,-0.415581,-0.14197,-23.8669,0.207213,
2,1,0,1,0,56348.3,0.209546,0.209216,4.25948,29,0.0115259,10,0.000891149,-2.37064,-0.400461,-0.14733,-24.5027,0.209216,
2,1,0,1,0,56348.3,0.211544,0.211211,4.21267,29,0.0116107,10,0.000889761,-2.37544,-0.429273,-0.137442,-22.6063,0.211211,
2,1,0,1,0,56348.3,0.213541,0.21318,4.16985,29,0.0116945,10,0.00088893,-2.37988,-0.500475,-0.117888,-19.2069,0.2131802,
2,1,0,1,0,56348.3,0.215539,0.215153,4.13695,29,0.0117772,10,0.000890078,-2.38332,-0.504546,-0.116937,-18.8571,0.215153,
2,1,0,1,0,56348.3,0.217537,0.217184,4.09435,29,0.0118595,10,0.000889228,-2.38781,-0.521867,-0.113056,-18.0917,0.217184,
2,1,0,1,0,56348.4,0.219534,0.219183,4.06404,29,0.0119411,10,0.000890769,-2.39104,-0.637223,-0.0925893,-14.6873,0.219183,
2,1,0,1,0,56348.4,0.221532,0.221226,4.03499,29,0.0120222,10,0.000892644,-2.39416,-0.649453,-0.0908456,-14.3063,0.221226,
2,1,0,1,0,56348.4,0.223525,0.223211,4.00641,29,0.0121022,10,0.000894276,-2.39724,-0.675575,-0.087333,-13.6598,0.223211,
2,1,0,1,0,56348.4,0.225527,0.225201,3.98069,29,0.0121822,10,0.000896456,-2.40004,-0.686079,-0.0859959,-13.3574,0.225201,
2,1,0,1,0,56348.4,0.227525,0.22716,3.95366,29,0.0122616,10,0.000898115,-2.403,-0.691999,-0.0852602,-13.1582,0.22716,
2,1,0,1,0,56348.5,0.229522,0.229181,3.92831,29,0.0123405,10,0.000900297,-2.40579,-0.748603,-0.0788134,-12.0859,0.229181,
2,1,0,1,0,56348.5,0.23152,0.231186,3.90501,29,0.0124189,10,0.000902783,-2.40838,-1.01068,-0.0583767,-8.90932,0.231186,
2,1,0,1,0,56348.5,0.233517,0.233157,3.8929,29,0.0124967,10,0.000907656,-2.40973,-1.0408,-0.0566869,-8.60131,0.233157,
2,1,0,1,0,56348.5,0.235515,0.235152,3.8709,29,0.0125744,10,0.000910249,-2.41219,-0.820839,-0.0718777,-10.8598,0.235152,
2,1,0,1,0,56348.5,0.237512,0.237113,3.84993,29,0.0126517,10,0.00091287,-2.41455,-1.00288,-0.0588303,-8.84662,0.237113,
2,1,0,1,0,56348.6,0.23951,0.239164,3.8354,29,0.0127286,10,0.000917291,-2.41619,-1.31988,-0.044701,-6.6929,0.239164,
2,1,0,1,0,56348.6,0.241508,0.241127,3.82307,29,0.0128049,10,0.000921845,-2.41759,-1.0545,-0.0559509,-8.33862,0.241127,
2,1,0,1,0,56348.6,0.243505,0.243148,3.80218,29,0.0128813,10,0.000924493,-2.41997,-1.14035,-0.0517386,-7.68821,0.243148,
2,1,0,1,0,56348.6,0.245503,0.245154,3.7921,29,0.0129573,10,0.000929651,-2.42112,-1.4314,-0.0412185,-6.09669,0.245154,
2,1,0,1,0,56348.6,0.2475,0.247142,3.77783,29,0.0130331,10,0.000933661,-2.42276,-1.23221,-0.0478815,-7.0598,0.247142,
2,1,0,1,0,56348.7,0.249498,0.249148,3.76391,29,0.0131082,10,0.000937769,-2.42436,-1.41794,-0.0416097,-6.11467,0.249148,
2,1,0,1,0,56348.7,0.251496,0.251195,3.75305,29,0.0131835,10,0.000942747,-2.42562,-1.54836,-0.0381049,-5.58077,0.251195,
2,1,0,1,0,56348.7,0.253493,0.253144,3.74161,29,0.0132585,10,0.000947165,-2.42694,-1.13944,-0.0517799,-7.55392,0.253144,
2,1,0,1,0,56348.7,0.255491,0.255156,3.72313,29,0.0133333,10,0.000949979,-2.42909,-1.65231,-0.0357076,-5.1997,0.255156,
2,1,0,1,0,56348.7,0.257488,0.257126,3.7209,29,0.0134075,10,0.000956741,-2.42935,-2.54088,-0.0232203,-3.36783,0.257126,
2,1,0,1,0,56348.8,0.259486,0.259169,3.70961,29,0.0134819,10,0.000961418,-2.43067,-1.35153,-0.0436541,-6.3175,0.259169,
2,1,0,1,0,56348.8,0.261484,0.26116,3.69542,29,0.013556,10,0.000965096,-2.43234,-1.29425,-0.0455862,-6.5766,0.26116,
2,1,0,1,0,56348.8,0.263481,0.263117,3.68365,29,0.0136299,10,0.000969231,-2.43372,-2.33484,-0.0252694,-3.63714,0.263117,
2,1,0,1,0,56348.8,0.265479,0.265181,3.68079,29,0.0137033,10,0.000976077,-2.43406,-2.15867,-0.0273316,-3.92081,0.265181,
2,1,0,1,0,56348.8,0.267476,0.267138,3.66788,29,0.0137768,10,0.000979832,-2.43558,-1.28825,-0.0457985,-6.55575,0.267138,
2,1,0,1,0,56348.9,0.269474,0.269135,3.65487,29,0.0138501,10,0.000983654,-2.43713,-1.81602,-0.0324886,-4.6389,0.269135,
2,1,0,1,0,56348.9,0.271471,0.271116,3.64943,29,0.0139233,10,0.000989419,-2.43777,-3.52022,-0.0167603,-2.3876,0.271116,
2,1,0,1,0,56348.9,0.273469,0.273056,3.64551,29,0.0139959,10,0.00099543,-2.43824,-1.96895,-0.0299651,-4.25777,0.273056,
2,1,0,1,0,56348.9,0.275467,0.275147,3.63227,29,0.0140688,10,0.000999407,-2.43982,-1.58006,-0.0373404,-5.2967,0.275147,
2,1,0,1,0,56348.9,0.277464,0.277154,3.62381,29,0.0141414,10,0.00100435,-2.44083,-2.03562,-0.0289838,-4.09936,0.277154,
2,1,0,1,0,56349,0.279462,0.279146,3.61588,29,0.0142138,10,0.00100936,-2.44179,-1.67324,-0.035261,-4.97322,0.279146,
2,1,0,1,0,56349,0.281464,0.281122,3.60408,29,0.0142861,10,0.00101318,-2.44321,-1.93782,-0.0304466,-4.2863,0.281122,
2,1,0,1,0,56349,0.283457,0.283156,3.59869,29,0.0143578,10,0.00101899,-2.44386,-2.10379,-0.0280446,-3.93598,0.283156,
2,1,0,1,0,56349,0.285455,0.285139,3.58826,29,0.0144298,10,0.00102315,-2.44512,-1.46118,-0.0403783,-5.65331,0.285139,
2,1,0,1,0,56349,0.287452,0.287112,3.57632,29,0.0145016,10,0.0010268,-2.44656,-1.6374,-0.0360327,-5.03211,0.287112,
2,1,0,1,0,56349.1,0.28945,0.289053,3.56857,29,0.0145731,10,0.0010315,-2.44751,-2.10501,-0.0280284,-3.90345,0.2890529,
2,1,0,1,0,56349.1,0.291447,0.291112,3.56071,29,0.0146442,10,0.00103657,-2.44846,-1.94179,-0.0303844,-4.22149,0.291112,
2,1,0,1,0,56349.1,0.293445,0.293104,3.55147,29,0.0147154,10,0.00104095,-2.44959,-1.59685,-0.0369477,-5.11969,0.293104,
2,1,0,1,0,56349.1,0.295442,0.295087,3.54036,29,0.0147864,10,0.00104471,-2.45095,-2.38901,-0.0246964,-3.41633,0.2950874,
2,1,0,1,0,56349.1,0.29744,0.297147,3.53765,29,0.0148573,10,0.0010512,-2.45128,-2.48292,-0.0237624,-3.27708,0.297147,
2,1,0,1,0,56349.2,0.299438,0.299126,3.52712,29,0.0149277,10,0.00105505,-2.45258,-0.0417257,-1.414,-183.409,0.299126,
2,1,0,1,0,56349.2,0.299737,0.299433,3.11836,29,0.0149567,10,0.000933739,-2.50607,0.00494314,11.9357,1127.89,0.299433,
2,1,0,1,0,56349.2,0.29774,0.297395,1.57504,29,0.0150013,10,0.000468408,-2.80271,0.00617956,9.5476,601.872,0.297395,
2,1,0,1,0,56349.2,0.295742,0.295409,0.696067,29,0.0150232,10,0.000205624,-3.15735,0.00350635,16.8266,364.528,0.295409,
2,1,0,1,0,56349.2,0.293745,0.293385,0.113117,29,0.0150309,10,3.31867e-05,-3.94647,0.0110598,5.33462,245.525,0.293385,
2,0,0,1,0,56349.3,0.291747,0.291355,-0.299295,29,0.0150287,10,-8.72009e-05,-3.5239,-0.00542234,-10.8809,182.668,0.291355,
2,0,0,1,0,56349.3,0.289754,0.289395,-0.615787,29,0.0150195,10,-0.000178205,-3.21057,-0.00872509,-6.76211,139.585,0.289395,
2,0,0,1,0,56349.3,0.287752,0.287383,-0.853663,29,0.0150046,10,-0.000245328,-3.06871,-0.017578,-3.35646,105.948,0.287383,
2,0,0,1,0,56349.3,0.285754,0.285405,-1.03849,29,0.0149856,10,-0.00029639,-2.9836,-0.0271353,-2.17429,86.1424,0.285405,
2,0,0,1,0,56349.3,0.283757,0.283411,-1.19585,29,0.0149631,10,-0.000338916,-2.92232,-0.0376175,-1.56842,72.083,0.2834107,
2,0,0,1,0,56349.4,0.281759,0.281379,-1.32867,29,0.0149377,10,-0.00037386,-2.87658,-0.0496686,-1.18787,60.8984,0.281379,
2,0,0,1,0,56349.4,0.279761,0.27942,-1.4389,29,0.0149101,10,-0.000402056,-2.84197,-0.0633227,-0.931736,52.0112,0.27942,
2,0,0,1,0,56349.4,0.277764,0.277372,-1.53708,29,0.0148802,10,-0.000426342,-2.8133,-0.0769341,-0.76689,45.7636,0.277372,
2,0,0,1,0,56349.4,0.275766,0.275399,-1.6229,29,0.0148486,10,-0.000446946,-2.78971,-0.0939665,-0.627884,39.5605,0.275399,
2,0,0,1,0,56349.4,0.273769,0.273397,-1.69433,29,0.0148153,10,-0.000463226,-2.771,-0.108322,-0.544673,35.9973,0.273397,
2,0,0,1,0,56349.5,0.271771,0.271424,-1.76599,29,0.0147808,10,-0.000479333,-2.75301,-0.113359,-0.52047,35.8438,0.271424,
2,0,0,1,0,56349.5,0.269774,0.269421,-1.83685,29,0.0147447,10,-0.000494887,-2.73593,-0.134146,-0.43982,31.3825,0.269421,
2,0,0,1,0,56349.5,0.267776,0.267406,-1.89207,29,0.0147073,10,-0.000505952,-2.72306,-0.167064,-0.353158,26.0309,0.267406,
2,0,0,1,0,56349.5,0.265778,0.265402,-1.94147,29,0.014669,10,-0.000515269,-2.71187,-0.175582,-0.336025,25.4767,0.265402,
2,0,0,1,0,56349.5,0.263781,0.263396,-1.99424,29,0.0146297,10,-0.000525274,-2.70022,-0.175023,-0.337098,26.2254,0.263396,
2,0,0,1,0,56349.6,0.261783,0.261404,-2.04633,29,0.0145892,10,-0.000534918,-2.68902,-0.201857,-0.292287,23.2678,0.261404,
2,0,0,1,0,56349.6,0.259786,0.259452,-2.08601,29,0.0145478,10,-0.000541219,-2.68068,-0.218469,-0.270061,22.0258,0.259452,
2,0,0,1,0,56349.6,0.257788,0.257428,-2.13389,29,0.0145056,10,-0.000549324,-2.67083,-0.219858,-0.268355,22.3129,0.257428,
2,0,0,1,0,56349.6,0.25579,0.255436,-2.17563,29,0.0144627,10,-0.000555733,-2.66242,-0.25909,-0.22772,19.307,0.255436,
2,0,0,1,0,56349.6,0.253793,0.25341,-2.21147,29,0.0144188,10,-0.000560409,-2.65532,-0.281788,-0.209377,18.0741,0.25341,
2,0,0,1,0,56349.7,0.251795,0.2514,-2.24856,29,0.0143741,10,-0.000565289,-2.6481,-0.303774,-0.194223,17.0169,0.2514,
2,0,0,1,0,56349.7,0.249798,0.24945,-2.27887,29,0.0143288,10,-0.000568462,-2.64228,-0.294192,-0.20055,17.8742,0.24945,
2,0,0,1,0,56349.7,0.2478,0.247447,-2.31922,29,0.0142829,10,-0.000573885,-2.63466,-0.290805,-0.202885,18.332,0.247447,
2,0,0,1,0,56349.7,0.245802,0.245459,-2.35202,29,0.0142361,10,-0.000577324,-2.62856,-0.344015,-0.171504,15.7328,0.245459,
2,0,0,1,0,56349.7,0.243805,0.243448,-2.38215,29,0.0141887,10,-0.000579928,-2.62303,-0.371653,-0.15875,14.753,0.2434475,
2,0,0,1,0,56349.8,0.241807,0.241481,-2.41071,29,0.0141406,10,-0.00058214,-2.61786,-0.334878,-0.176184,16.6075,0.241481,
2,0,0,1,0,56349.8,0.23981,0.239434,-2.44879,29,0.0140923,10,-0.000586326,-2.61105,-0.352388,-0.167429,15.9608,0.239434,
2,0,0,1,0,56349.8,0.237812,0.237462,-2.47485,29,0.014043,10,-0.000587684,-2.60645,-0.449065,-0.131384,12.6859,0.237462,
2,0,0,1,0,56349.8,0.235815,0.235433,-2.49956,29,0.0139931,10,-0.000588478,-2.60214,-0.420871,-0.140185,13.6889,0.235433,
2,0,0,1,0,56349.8,0.233817,0.23347,-2.52951,29,0.0139428,10,-0.000590563,-2.59696,-0.377607,-0.156247,15.4268,0.23347,
2,0,0,1,0,56349.9,0.231815,0.231486,-2.56045,29,0.0138919,10,-0.000592707,-2.59168,-0.395232,-0.149279,14.9094,0.231486,
2,0,0,1,0,56349.9,0.229822,0.229478,-2.58902,29,0.0138406,10,-0.000594123,-2.58687,-0.512786,-0.115058,11.6028,0.229478,
2,0,0,1,0,56349.9,0.227824,0.227424,-2.60758,29,0.0137885,10,-0.000593025,-2.58376,-0.494578,-0.119294,12.1667,0.227424,
2,0,0,1,0,56349.9,0.225827,0.225471,-2.63777,29,0.013736,10,-0.000594741,-2.57876,-0.454601,-0.129784,13.3404,0.225471,
2,0,0,1,0,56349.9,0.223829,0.223478,-2.66021,29,0.013683,10,-0.0005945,-2.57508,-0.469205,-0.125745,13.0725,0.223478,
2,0,0,1,0,56350,0.221831,0.221471,-2.69005,29,0.0136297,10,-0.00059577,-2.57024,-0.496098,-0.118928,12.4622,0.221471,
2,0,0,1,0,56350,0.219834,0.219486,-2.70997,29,0.0135756,10,-0.000594799,-2.56704,-0.517126,-0.114092,12.0847,0.219486,
2,0,0,1,0,56350,0.217836,0.21749,-2.73817,29,0.013521,10,-0.000595524,-2.56254,-0.525051,-0.11237,11.9908,0.21749,
2,0,0,1,0,56350,0.215839,0.215428,-2.75862,29,0.013466,10,-0.000594285,-2.55931,-0.504093,-0.117042,12.6229,0.215428,
2,0,0,1,0,56350,0.213841,0.213468,-2.78894,29,0.0134107,10,-0.000595349,-2.55456,-0.493243,-0.119616,12.9974,0.213468,
2,0,0,1,0,56350.1,0.211844,0.211477,-2.80998,29,0.0133546,10,-0.000594246,-2.5513,-0.585282,-0.100806,11.0579,0.211477,
2,0,0,1,0,56350.1,0.209846,0.209514,-2.83267,29,0.0132981,10,-0.000593482,-2.5478,-0.544898,-0.108277,11.9749,0.209514,
2,0,0,1,0,56350.1,0.207848,0.207485,-2.85778,29,0.0132411,10,-0.000592947,-2.54397,-0.453215,-0.130181,14.541,0.207485,
2,0,0,1,0,56350.1,0.205851,0.205453,-2.89171,29,0.0131838,10,-0.000594111,-2.53885,-0.495028,-0.119185,13.4182,0.205453,
2,0,0,1,0,56350.1,0.203853,0.203451,-2.91191,29,0.0131257,10,-0.000592431,-2.53582,-0.631416,-0.0934408,10.6228,0.203451,
2,0,0,1,0,56350.2,0.201856,0.201436,-2.93438,29,0.0130672,10,-0.00059109,-2.53248,-0.655688,-0.0899818,10.2973,0.201436,
2,0,0,1,0,56350.2,0.199858,0.199484,-2.95276,29,0.0130083,10,-0.000589028,-2.52977,-0.523462,-0.112711,13.0198,0.199484,
2,0,0,1,0,56350.2,0.19786,0.197507,-2.98553,29,0.0129491,10,-0.000589665,-2.52498,-0.545266,-0.108204,12.5751,0.197507,
2,0,0,1,0,56350.2,0.195863,0.195482,-3.00308,29,0.0128891,10,-0.000587049,-2.52243,-0.568724,-0.103741,12.1864,0.195482,
2,0,0,1,0,56350.2,0.193865,0.193486,-3.03454,29,0.0128287,10,-0.00058714,-2.51791,-0.483615,-0.121998,14.4349,0.193486,
2,0,0,1,0,56350.3,0.191868,0.191492,-3.06068,29,0.0127677,10,-0.000586096,-2.51418,-0.526662,-0.112026,13.3846,0.191492,
2,0,0,1,0,56350.3,0.18987,0.189458,-3.08846,29,0.0127065,10,-0.000585132,-2.51026,-0.596056,-0.0989841,11.915,0.189458,
2,0,0,1,0,56350.3,0.187872,0.187507,-3.10816,29,0.0126444,10,-0.000582802,-2.5075,-0.557269,-0.105873,12.8655,0.187507,
2,0,0,1,0,56350.3,0.185875,0.185524,-3.13907,29,0.0125819,10,-0.000582371,-2.5032,-0.557273,-0.105873,12.9492,0.185524,
2,0,0,1,0,56350.3,0.183877,0.18351,-3.15992,29,0.0125188,10,-0.000579877,-2.50032,-0.472757,-0.1248,15.4396,0.18351,
2,0,0,1,0,56350.4,0.18188,0.181504,-3.20113,29,0.0124555,10,-0.000581018,-2.4947,-0.441122,-0.13375,16.6676,0.181504,
2,0,0,1,0,56350.4,0.179882,0.179512,-3.22656,29,0.0123912,10,-0.000579205,-2.49126,-0.629697,-0.0936959,11.7911,0.179512,
2,0,0,1,0,56350.4,0.177885,0.17752,-3.24811,29,0.0123263,10,-0.000576603,-2.48837,-0.55687,-0.105949,13.4525,0.17752,
2,0,0,1,0,56350.4,0.175887,0.175506,-3.28045,29,0.0122609,10,-0.000575739,-2.48407,-0.413356,-0.142734,18.297,0.1755062,
2,0,0,1,0,56350.4,0.173896,0.173512,-3.32144,29,0.0121952,10,-0.000576309,-2.47867,-0.418449,-0.140997,18.2514,0.173512,
2,0,0,1,0,56350.5,0.171892,0.171504,-3.35349,29,0.0121283,10,-0.000575137,-2.4745,-0.45098,-0.130826,17.1328,0.171504,
2,0,0,1,0,56350.5,0.169894,0.169511,-3.38998,29,0.0120609,10,-0.00057464,-2.4698,-0.435129,-0.135592,17.9328,0.169511,
2,0,0,1,0,56350.5,0.167897,0.167549,-3.42442,29,0.0119926,10,-0.000573757,-2.46541,-0.39812,-0.148197,19.8359,0.167549,
2,0,0,1,0,56350.5,0.165899,0.165496,-3.46963,29,0.0119236,10,-0.000574209,-2.45972,-0.364511,-0.161861,21.9077,0.165496,
2,0,0,1,0,56350.5,0.163901,0.163545,-3.51214,29,0.011854,10,-0.000574392,-2.45443,-0.34654,-0.170255,23.3585,0.163545,
2,0,0,1,0,56350.6,0.161904,0.161555,-3.56168,29,0.0117832,10,-0.000575408,-2.44834,-0.344893,-0.171067,23.7677,0.161555,
2,0,0,1,0,56350.6,0.159906,0.159495,-3.6084,29,0.0117114,10,-0.000575521,-2.44269,-0.33068,-0.17842,25.1519,0.159495,
2,0,0,1,0,56350.6,0.157909,0.157525,-3.66305,29,0.0116386,10,-0.000577021,-2.43616,-0.28039,-0.210421,30.1184,0.157525,
2,0,0,1,0,56350.6,0.155911,0.155544,-3.72739,29,0.011565,10,-0.000579773,-2.42859,-0.264408,-0.22314,32.459,0.155544,
2,0,0,1,0,56350.6,0.153913,0.153543,-3.79229,29,0.0114897,10,-0.00058228,-2.4211,-0.264252,-0.223272,33.0573,0.153543,
2,0,0,1,0,56350.7,0.151916,0.151505,-3.86092,29,0.011413,10,-0.000584947,-2.41331,-0.232803,-0.253433,38.2588,0.151505,
2,0,0,1,0,56350.7,0.149918,0.14955,-3.94505,29,0.0113349,10,-0.000589983,-2.40395,-0.197045,-0.299424,46.1806,0.14955,
2,0,0,1,0,56350.7,0.147921,0.147532,-4.04438,29,0.0112553,10,-0.000596675,-2.39315,-0.185532,-0.318004,50.1869,0.147532,
2,0,0,1,0,56350.7,0.145923,0.145581,-4.14426,29,0.0111733,10,-0.000603325,-2.38255,-0.174955,-0.337229,54.6501,0.145581,
2,0,0,1,0,56350.7,0.143926,0.143543,-4.26239,29,0.0110892,10,-0.000611835,-2.37035,-0.153574,-0.38418,64.0009,0.143543,
2,0,0,1,0,56350.8,0.141928,0.141656,-4.39546,29,0.0110025,10,-0.000622643,-2.357,-0.143841,-0.410175,70.4531,0.1416561,
2,0,0,1,0,56350.8,0.13993,0.139561,-4.5429,29,0.0109135,10,-0.000634013,-2.34267,-0.13826,-0.426732,75.7479,0.139561,
2,0,0,1,0,56350.8,0.137933,0.137574,-4.7047,29,0.010821,10,-0.000647242,-2.32747,-0.124344,-0.474489,87.2878,0.1375736,
2,0,0,1,0,56350.8,0.135935,0.135599,-4.88876,29,0.0107249,10,-0.000662911,-2.3108,-0.116648,-0.505794,96.631,0.135599,
2,0,0,1,0,56350.8,0.133938,0.133576,-5.09098,29,0.010625,10,-0.000680033,-2.2932,-0.112068,-0.526468,104.683,0.133576,
2,0,0,1,0,56350.9,0.13194,0.131605,-5.30682,29,0.0105216,10,-0.000698406,-2.27517,-0.110591,-0.533497,110.515,0.131605,
2,0,0,1,0,56350.9,0.129942,0.129595,-5.53095,29,0.0104131,10,-0.000716784,-2.2572,-0.113872,-0.518125,111.827,0.129595,
2,0,0,1,0,56350.9,0.127945,0.127553,-5.75998,29,0.0103001,10,-0.000734703,-2.23958,-0.116364,-0.50703,113.889,0.127553,
2,0,0,1,0,56350.9,0.125947,0.125599,-5.98609,29,0.0101826,10,-0.000751845,-2.22286,-0.117139,-0.503676,117.722,0.125599,
2,0,0,1,0,56350.9,0.12395,0.123614,-6.22372,29,0.0100611,10,-0.000769337,-2.20595,-0.122481,-0.481707,116.867,0.123614,
2,0,0,1,0,56351,0.121952,0.121605,-6.45278,29,0.00993415,10,-0.000784693,-2.19025,-0.132009,-0.446938,112.466,0.121605,
2,0,0,1,0,56351,0.119955,0.119582,-6.67715,29,0.00980276,10,-0.000798467,-2.17541,-0.138481,-0.426052,110.933,0.119582,
2,0,0,1,0,56351,0.117957,0.117615,-6.89542,29,0.00966696,10,-0.000811006,-2.16144,-0.145213,-0.406299,109.3,0.117615,
2,0,0,1,0,56351,0.115955,0.115589,-7.1136,29,0.0095268,10,-0.000822254,-2.14791,-0.158494,-0.372254,103.152,0.115589,
2,0,0,1,0,56351,0.113962,0.113605,-7.3091,29,0.00938311,10,-0.000830349,-2.13614,-0.175191,-0.336776,96.01,0.113605,
2,0,0,1,0,56351.1,0.111964,0.11157,-7.49951,29,0.00923487,10,-0.000836716,-2.12497,-0.182265,-0.323704,94.6984,0.11157,
2,0,0,1,0,56351.1,0.109967,0.109623,-7.68613,29,0.00908288,10,-0.00084258,-2.11429,-0.196411,-0.300391,89.993,0.109623,
2,0,0,1,0,56351.1,0.107969,0.107607,-7.85609,29,0.00892735,10,-0.000845372,-2.10479,-0.219151,-0.26922,82.4687,0.107607,
2,0,0,1,0,56351.1,0.105971,0.105644,-8.01427,29,0.00876926,10,-0.000846663,-2.09614,-0.232494,-0.25377,79.3534,0.105644,
2,0,0,1,0,56351.1,0.103974,0.103642,-8.17074,29,0.00860726,10,-0.000846832,-2.08774,-0.262561,-0.22471,71.5298,0.103642,
2,0,0,1,0,56351.2,0.101976,0.101646,-8.3003,29,0.00844243,10,-0.00084369,-2.08091,-0.320989,-0.183807,59.4647,0.101646,
2,0,0,1,0,56351.2,0.0999786,0.0996254,-8.40959,29,0.0082752,10,-0.000837808,-2.07523,-0.352453,-0.167398,54.9443,0.0996254,
2,0,0,1,0,56351.2,0.0979811,0.0976262,-8.52115,29,0.00810657,10,-0.000831887,-2.0695,-0.420127,-0.140434,46.607,0.0976262,
2,0,0,1,0,56351.2,0.0959835,0.0955652,-8.59882,29,0.00793523,10,-0.000821748,-2.06556,-0.555527,-0.106205,35.6119,0.0955652,
2,0,0,1,0,56351.2,0.0939859,0.0936465,-8.66287,29,0.00776252,10,-0.000811248,-2.06234,-0.729491,-0.0808783,27.3106,0.0936465,
2,0,0,1,0,56351.3,0.0919883,0.0916357,-8.70614,29,0.00758869,10,-0.000797793,-2.06017,-0.950414,-0.0620782,21.09,0.0916357,
2,0,0,1,0,56351.3,0.0899907,0.0896349,-8.74748,29,0.00741484,10,-0.00078408,-2.05812,-1.87128,-0.0315293,10.7393,0.08963494,
2,0,0,1,0,56351.3,0.0879931,0.087616,-8.74931,29,0.00723974,10,-0.000766579,-2.05803,-55.8688,-0.00105605,0.36055,0.087616,
2,0,0,1,0,56351.3,0.0859955,0.0855841,-8.74894,29,0.00706462,10,-0.00074877,-2.05804,5.02709,0.0117364,-4.00385,0.0855841,
2,0,0,1,0,56351.3,0.083998,0.0836519,-8.73343,29,0.00688968,10,-0.000730569,-2.05881,1.86024,0.0317163,-10.8031,0.08365193,
2,0,0,1,0,56351.4,0.0820004,0.0816676,-8.70663,29,0.00671603,10,-0.000711049,-2.06015,1.2445,0.0474084,-16.0984,0.0816676,
2,0,0,1,0,56351.4,0.0800028,0.0796124,-8.6684,29,0.00654218,10,-0.000690112,-2.06206,1.04682,0.0563611,-19.0668,0.0796124,
2,0,0,1,0,56351.4,0.0780052,0.0776563,-8.63014,29,0.00636912,10,-0.000670185,-2.06398,0.885076,0.066661,-22.4346,0.0776563,
2,0,0,1,0,56351.4,0.0760076,0.0756165,-8.57876,29,0.00619695,10,-0.000648695,-2.06658,0.837746,0.0704271,-23.5893,0.0756165,
2,0,0,1,0,56351.4,0.07401,0.073622,-8.53498,29,0.00602666,10,-0.000628362,-2.0688,0.831239,0.0709784,-23.6335,0.073622,
2,0,0,1,0,56351.4,0.0720124,0.0716447,-8.48489,29,0.00585636,10,-0.000607898,-2.07135,0.836491,0.0705327,-23.3662,0.0716447,
2,0,0,1,0,56351.5,0.0700148,0.0696553,-8.44229,29,0.00568703,10,-0.00058805,-2.07354,0.795845,0.074135,-24.4076,0.0696553,
2,0,0,1,0,56351.5,0.0680173,0.0676494,-8.38737,29,0.00551871,10,-0.000567401,-2.07637,0.973137,0.0606287,-19.8807,0.0676494,
2,0,0,1,0,56351.5,0.0660106,0.0656231,-8.36213,29,0.00535125,10,-0.000548749,-2.07768,1.05328,0.0560152,-18.2562,0.0656231,
2,0,0,1,0,56351.5,0.0640221,0.0636728,-8.31478,29,0.00518524,10,-0.000529425,-2.08015,0.841855,0.0700834,-22.7483,0.0636728,
2,0,0,1,0,56351.5,0.0620245,0.0616695,-8.27219,29,0.0050193,10,-0.000510141,-2.08238,0.929285,0.0634897,-20.5019,0.06166945,
2,0,0,1,0,56351.6,0.0600269,0.0597217,-8.23377,29,0.00485413,10,-0.000491735,-2.0844,1.11855,0.0527469,-16.958,0.0597217,
2,0,0,1,0,56351.6,0.0580361,0.0576246,-8.2036,29,0.0046905,10,-0.000472729,-2.086,1.10761,0.0532679,-17.0449,0.0576246,
2,0,0,1,0,56351.6,0.0560317,0.0556604,-8.16455,29,0.00452668,10,-0.000454442,-2.08807,0.99998,0.0590012,-18.8038,0.0556604,
2,0,0,1,0,56351.6,0.0540342,0.0536545,-8.12894,29,0.0043637,10,-0.000436154,-2.08997,0.999742,0.0590152,-18.7186,0.0536545,
2,0,0,1,0,56351.6,0.0520366,0.0516837,-8.09011,29,0.0042014,10,-0.000418127,-2.09205,0.928321,0.0635556,-20.0643,0.0516837,
2,0,0,1,0,56351.7,0.050039,0.0497021,-8.04964,29,0.00403987,10,-0.000400084,-2.09422,0.998954,0.0590618,-18.5616,0.0497021,
2,0,0,1,0,56351.7,0.0480414,0.0476672,-8.01556,29,0.00387991,10,-0.00038208,-2.09607,0.990847,0.059545,-18.619,0.0476672,
2,0,0,1,0,56351.7,0.0460438,0.0456797,-7.97475,29,0.00371993,10,-0.000364284,-2.09828,0.850092,0.0694042,-21.5943,0.0456797,
2,0,0,1,0,56351.7,0.0440462,0.0436788,-7.92943,29,0.00356082,10,-0.000346348,-2.10076,0.781603,0.0754859,-23.3561,0.0436788,
2,0,0,1,0,56351.7,0.0420486,0.0416958,-7.8817,29,0.00340266,10,-0.000328634,-2.10338,0.807768,0.0730408,-22.4765,0.0416958,
2,0,0,1,0,56351.8,0.040051,0.0397307,-7.84069,29,0.00324605,10,-0.000311516,-2.10565,0.849859,0.0694233,-21.2389,0.0397307,
2,0,0,1,0,56351.8,0.0380535,0.0376853,-7.79652,29,0.00308958,10,-0.000293815,-2.1081,0.754581,0.0781891,-23.7784,0.0376853,
2,0,0,1,0,56351.8,0.0360559,0.0356799,-7.74437,29,0.00293414,10,-0.000276318,-2.11101,0.69235,0.085217,-25.757,0.0356799,
2,0,0,1,0,56351.8,0.0340583,0.0336718,-7.69315,29,0.00277968,10,-0.000259042,-2.1139,0.703674,0.0838456,-25.1776,0.0336718,
2,0,0,1,0,56351.8,0.0320607,0.031714,-7.64452,29,0.00262697,10,-0.000242438,-2.11665,0.614711,0.0959801,-28.6034,0.031714,
2,0,0,1,0,56351.9,0.0300631,0.0296949,-7.57939,29,0.00247468,10,-0.000225069,-2.12037,0.57781,0.10211,-30.2211,0.0296949,
2,0,0,1,0,56351.9,0.0280655,0.027699,-7.52318,29,0.00232356,10,-0.000208385,-2.1236,0.586861,0.100535,-29.5066,0.027699,
2,0,0,1,0,56351.9,0.0260679,0.0257052,-7.46167,29,0.00217363,10,-0.000191804,-2.12716,0.549938,0.107285,-31.2391,0.0257052,
2,0,0,1,0,56351.9,0.0240704,0.0237286,-7.39915,29,0.00202565,10,-0.000175571,-2.13082,0.536546,0.109963,-31.7492,0.0237286,
2,0,0,1,0,56351.9,0.0220728,0.0217153,-7.33499,29,0.00187823,10,-0.000159282,-2.1346,0.503611,0.117154,-33.5231,0.0217153,
2,0,0,1,0,56352,0.0200752,0.0197354,-7.26528,29,0.00173215,10,-0.000143384,-2.13875,0.477984,0.123435,-34.9963,0.0197354,
2,0,0,1,0,56352,0.0180776,0.0177131,-7.19493,29,0.00158742,10,-0.000127444,-2.14297,0.50034,0.11792,-33.1293,0.0177131,
2,0,0,1,0,56352,0.01608,0.0157354,-7.13277,29,0.00144479,10,-0.000112237,-2.14674,0.502316,0.117456,-32.6827,0.0157354,
2,0,0,1,0,56352,0.0140824,0.0137416,-7.06513,29,0.00130268,10,-9.70863e-05,-2.15088,0.47872,0.123245,-33.979,0.0137416,
2,0,0,1,0,56352,0.0120848,0.0117254,-6.99651,29,0.00116195,10,-8.2037e-05,-2.15512,0.490472,0.120292,-32.8581,0.0117254,
2,0,0,1,0,56352.1,0.0100872,0.00973411,-6.93345,29,0.0010226,10,-6.7491e-05,-2.15905,0.537411,0.109786,-29.72,0.00973411,
2,0,0,1,0,56352.1,0.00809193,0.00769742,-6.8768,29,0.000885164,10,-5.29336e-05,-2.16261,0.553142,0.106663,-28.6241,0.00769742,
2,0,0,1,0,56352.1,0.00609208,0.00574922,-6.81939,29,0.000748156,10,-3.92061e-05,-2.16625,0.526121,0.112141,-29.8338,0.00574922,
2,0,0,1,0,56352.1,0.00409449,0.00368431,-6.75707,29,0.00061236,10,-2.48952e-05,-2.17024,0.858728,0.0687063,-18.187,0.00368431,
2,0,0,1,0,56352.1,0.0020969,0.00171832,-6.74608,29,0.000477568,10,-1.15919e-05,-2.17095,0.808715,0.0729552,-19.1295,0.001718321,
2,0,0,1,0,56352.2,9.14991e-05,-0.000324022,-6.68039,29,0.000343346,10,2.1646e-06,-2.1752,0.538802,0.109502,-28.5831,-0.0003240222,
2,0,0,1,0,56352.2,-0.00189827,-0.00230543,-6.63107,29,0.000210859,10,1.52874e-05,-2.17842,0.66729,0.0884173,-22.8941,-0.00230543,
2,0,0,1,0,56352.2,-0.00389586,-0.00430462,-6.58926,29,7.86196e-05,10,2.83642e-05,-2.18116,0.78245,0.0754042,-19.3996,-0.00430462,
2,0,0,1,0,56352.2,-0.00589345,-0.00629924,-6.55359,29,-5.28492e-05,10,4.12826e-05,-2.18352,0.802923,0.0734816,-18.7891,-0.00629924,
2,0,0,1,0,56352.2,-0.00789103,-0.008281,-6.51455,29,-0.000183555,10,5.3947e-05,-2.18612,1.02505,0.0575579,-14.6559,-0.008281,
2,0,0,1,0,56352.3,-0.00988862,-0.0102729,-6.49535,29,-0.000313138,10,6.67258e-05,-2.1874,1.51554,0.0389299,-9.8678,-0.0102729,
2,0,0,1,0,56352.3,-0.0118862,-0.0122575,-6.47531,29,-0.000442941,10,7.93712e-05,-2.18874,1.30532,0.0451996,-11.4176,-0.0122575,
2,0,0,1,0,56352.3,-0.0138838,-0.0142565,-6.44987,29,-0.000572325,10,9.19524e-05,-2.19045,1.76176,0.0334892,-8.44058,-0.0142565,
2,0,0,1,0,56352.3,-0.0158814,-0.0163344,-6.4409,29,-0.000701347,10,0.000105208,-2.19105,5.40767,0.0109104,-2.74399,-0.0163344,
2,0,0,1,0,56352.3,-0.017879,-0.0182931,-6.43879,29,-0.000829628,10,0.000117786,-2.1912,6.57694,0.00897074,-2.25339,-0.0182931,
2,0,0,1,0,56352.4,-0.0198766,-0.0203098,-6.43194,29,-0.000958437,10,0.000130631,-2.19166,5.57196,0.0105887,-2.65863,-0.0203098,
2,0,0,1,0,56352.4,-0.0218741,-0.0222484,-6.42828,29,-0.0010871,10,0.000143019,-2.19191,-14.1833,-0.00415981,1.04452,-0.0222484,
2,0,0,1,0,56352.4,-0.0238717,-0.0242413,-6.43605,29,-0.00121586,10,0.000156018,-2.19138,-2.43044,-0.0242754,6.1017,-0.0242413,
2,0,0,1,0,56352.4,-0.0258693,-0.026262,-6.45277,29,-0.00134419,10,0.000169462,-2.19025,-2.81466,-0.0209616,5.27383,-0.026262,
2,0,0,1,0,56352.4,-0.0278669,-0.0282804,-6.45735,29,-0.00147333,10,0.000182617,-2.18995,-2.86162,-0.0206177,5.20052,-0.0282804,
2,0,0,1,0,56352.5,-0.0298645,-0.0302521,-6.47352,29,-0.0016027,10,0.000195837,-2.18886,-1.73063,-0.0340917,8.61394,-0.03025208,
2,0,0,1,0,56352.5,-0.0318621,-0.0322072,-6.49117,29,-0.00173244,10,0.000209063,-2.18768,-1.38079,-0.042729,10.8314,-0.0322072,
2,0,0,1,0,56352.5,-0.0338597,-0.0342746,-6.51709,29,-0.00186192,10,0.000223371,-2.18595,-1.31997,-0.0446979,11.3637,-0.0342746,
2,0,0,1,0,56352.5,-0.0358573,-0.0362858,-6.53752,29,-0.00199252,10,0.00023722,-2.18459,-1.26533,-0.0466283,11.9028,-0.0362858,
2,0,0,1,0,56352.5,-0.0378549,-0.0382776,-6.56473,29,-0.00212364,10,0.000251282,-2.18278,-1.14645,-0.0514634,13.1827,-0.0382776,
2,0,0,1,0,56352.6,-0.0398524,-0.0402469,-6.58974,29,-0.00225531,10,0.000265216,-2.18113,-0.885902,-0.0665988,17.1515,-0.0402469,
2,0,0,1,0,56352.6,-0.04185,-0.0422697,-6.63321,29,-0.0023869,10,0.000280384,-2.17828,-0.858646,-0.0687128,17.7672,-0.0422697,
2,0,0,1,0,56352.6,-0.0438476,-0.0442769,-6.66134,29,-0.00251994,10,0.000294944,-2.17644,-1.00023,-0.0589862,15.3398,-0.0442769,
2,0,0,1,0,56352.6,-0.0458452,-0.0462299,-6.69395,29,-0.00265362,10,0.000309461,-2.17432,-0.837087,-0.0704825,18.4236,-0.04622991,
2,0,0,1,0,56352.6,-0.0478428,-0.0482384,-6.73433,29,-0.00278797,10,0.000324853,-2.17171,-0.692298,-0.0852234,22.4142,-0.0482384,
2,0,0,1,0,56352.7,-0.0498495,-0.0502664,-6.78443,29,-0.00292316,10,0.000341029,-2.16849,-0.683054,-0.0863768,22.855,-0.0502664,
2,0,0,1,0,56352.7,-0.051838,-0.0522312,-6.82558,29,-0.00305863,10,0.000356509,-2.16586,-0.772485,-0.0763768,20.3432,-0.0522312,
2,0,0,1,0,56352.7,-0.0538356,-0.0542499,-6.86547,29,-0.00319557,10,0.000372451,-2.16333,-0.699776,-0.0843128,22.6092,-0.05424992,
2,0,0,1,0,56352.7,-0.0558331,-0.056269,-6.91687,29,-0.00333342,10,0.000389206,-2.16009,-0.633735,-0.0930988,25.1253,-0.056269,
2,0,0,1,0,56352.7,-0.0578216,-0.0582176,-6.96516,29,-0.00347156,10,0.000405495,-2.15707,-0.648075,-0.0910388,24.7481,-0.0582176,
2,0,0,1,0,56352.8,-0.0598283,-0.0602062,-7.01431,29,-0.00361147,10,0.000422305,-2.15401,-0.593671,-0.0993817,27.2266,-0.0602062,
2,0,0,1,0,56352.8,-0.0618259,-0.0622407,-7.07469,29,-0.0037524,10,0.000440334,-2.15029,-0.584363,-0.100965,27.8589,-0.0622407,
2,0,0,1,0,56352.8,-0.0638235,-0.064228,-7.12635,29,-0.00389451,10,0.000457711,-2.14713,-0.600494,-0.0982525,27.3348,-0.064228,
2,0,0,1,0,56352.8,-0.0658211,-0.0662013,-7.18295,29,-0.00403771,10,0.000475521,-2.1437,-0.535916,-0.110092,30.8826,-0.0662013,
2,0,0,1,0,56352.8,-0.0678187,-0.0682177,-7.24957,29,-0.00418145,10,0.000494549,-2.13969,-0.514862,-0.114594,32.4131,-0.0682177,
2,0,0,1,0,56352.9,-0.0698162,-0.0702036,-7.31268,29,-0.00432717,10,0.000513376,-2.13592,-0.546808,-0.107899,30.7857,-0.0702036,
2,0,0,1,0,56352.9,-0.0718138,-0.0722107,-7.37249,29,-0.00447413,10,0.000532373,-2.13239,-0.518029,-0.113893,32.7947,-0.0722107,
2,0,0,1,0,56352.9,-0.0738114,-0.074202,-7.44381,29,-0.00462241,10,0.000552345,-2.1282,-0.458734,-0.128615,37.3793,-0.074202,
2,0,0,1,0,56352.9,-0.075809,-0.0762066,-7.52186,29,-0.0047715,10,0.000573215,-2.12367,-0.477728,-0.123501,36.2278,-0.0762066,
2,0,0,1,0,56352.9,-0.0778066,-0.0782198,-7.58936,29,-0.00492278,10,0.000593639,-2.11979,-0.474652,-0.124302,36.8485,-0.0782198,
2,0,0,1,0,56353,-0.0798042,-0.0802383,-7.67042,29,-0.00507551,10,0.000615462,-2.11518,-0.434368,-0.135829,40.6594,-0.0802383,
2,0,0,1,0,56353,-0.0818018,-0.0822074,-7.75149,29,-0.00522984,10,0.00063723,-2.11061,-0.421173,-0.140085,42.3896,-0.0822074,
2,0,0,1,0,56353,-0.0837994,-0.0841768,-7.83737,29,-0.00538508,10,0.000659725,-2.10583,-0.433435,-0.136122,41.6204,-0.0841768,
2,0,0,1,0,56353,-0.0857969,-0.0862133,-7.91822,29,-0.00554267,10,0.000682656,-2.10137,-0.433376,-0.13614,42.0881,-0.0862133,
2,0,0,1,0,56353,-0.0877945,-0.0881897,-8.00627,29,-0.00570201,10,0.00070607,-2.09657,-0.418355,-0.141029,44.067,-0.0881897,
2,0,0,1,0,56353.1,-0.0897921,-0.0902341,-8.09541,29,-0.00586315,10,0.000730482,-2.09176,-0.411367,-0.143424,45.3158,-0.0902341,
2,0,0,1,0,56353.1,-0.0917897,-0.0921592,-8.18615,29,-0.00602524,10,0.000754429,-2.08692,-0.40587,-0.145367,46.4444,-0.0921592,
2,0,0,1,0,56353.1,-0.0937873,-0.0941768,-8.27853,29,-0.00618995,10,0.000779645,-2.08205,-0.430775,-0.136962,44.2309,-0.0941768,
2,0,0,1,0,56353.1,-0.0957849,-0.0961849,-8.36421,29,-0.00635648,10,0.000804511,-2.07758,-0.445386,-0.132469,43.2485,-0.0961849,
2,0,0,1,0,56353.1,-0.0977825,-0.0982129,-8.45308,29,-0.00652476,10,0.000830202,-2.07298,-0.4121,-0.143169,47.2594,-0.0982129,
2,0,0,1,0,56353.2,-0.0997501,-0.100175,-8.5528,29,-0.00669146,10,0.00085678,-2.06789,0.0103874,5.67998,-1697.12,-0.100175,
2,0,0,1,1,56353.2,-0.0987313,-0.0991218,-6.91071,29,-0.00680922,10,0.000685002,-2.16048,-0.0147739,-3.99353,1061.26,-0.0991218,
2,0,0,1,1,56353.2,-0.0967337,-0.0971297,-5.32054,29,-0.0069303,10,0.000516782,-2.27404,-0.0178011,-3.31439,697.593,-0.0971297,
2,0,0,1,1,56353.2,-0.0947362,-0.0951152,-4.11573,29,-0.00702404,10,0.000391469,-2.38555,-0.0172293,-3.42439,550.824,-0.0951152,
2,0,0,1,1,56353.2,-0.0927386,-0.0931309,-3.11791,29,-0.00709588,10,0.000290374,-2.50614,-0.0153332,-3.84786,465.3,-0.0931309,
2,0,0,1,1,56353.3,-0.090741,-0.0911366,-2.26451,29,-0.00714905,10,0.00020638,-2.64503,-0.0129695,-4.54913,396.795,-0.0911366,
2,0,0,1,1,56353.3,-0.0887434,-0.0891465,-1.53692,29,-0.00718678,10,0.000137011,-2.81335,-0.00991975,-5.94773,341.569,-0.0891465,
2,0,0,1,1,56353.3,-0.0867458,-0.0871112,-0.889574,29,-0.00721072,10,7.74919e-05,-3.05082,-0.00586242,-10.0641,304.414,-0.0871112,
2,0,0,1,1,56353.3,-0.0847482,-0.0851473,-0.319503,29,-0.00722252,10,2.72048e-05,-3.49553,-0.00598357,-9.86034,271.654,-0.0851473,
2,1,0,1,1,56353.3,-0.0827529,-0.0831292,0.192169,29,-0.00722361,10,-1.59748e-05,-3.71632,0.0129923,4.54117,242.7,-0.0831292,
2,1,0,1,1,56353.4,-0.080753,-0.0811641,0.647235,29,-0.00721498,10,-5.25322e-05,-3.18894,0.00541644,10.8928,216.071,-0.0811641,
2,1,0,1,1,56353.4,-0.0787555,-0.0791117,1.06022,29,-0.00719767,10,-8.3876e-05,-2.9746,0.0116965,5.04424,194.468,-0.0791117,
2,1,0,1,1,56353.4,-0.0767579,-0.0771336,1.43104,29,-0.00717259,10,-0.000110381,-2.84435,0.0178127,3.31225,178.991,-0.0771336,
2,1,0,1,1,56353.4,-0.0747603,-0.0751498,1.76937,29,-0.00714042,10,-0.000132968,-2.75218,0.0244755,2.41057,163.276,-0.0751498,
2,1,0,1,1,56353.4,-0.0727627,-0.0731559,2.08049,29,-0.0071018,10,-0.0001522,-2.68183,0.0319576,1.8462,147.759,-0.0731559,
2,1,0,1,1,56353.5,-0.0707651,-0.0711493,2.36049,29,-0.00705716,10,-0.000167947,-2.627,0.0396242,1.48899,135.998,-0.07114926,
2,1,0,1,1,56353.5,-0.0687675,-0.069182,2.62093,29,-0.00700718,10,-0.000181322,-2.58154,0.0483229,1.22095,123.926,-0.069182,
2,1,0,1,1,56353.5,-0.0667699,-0.0671442,2.85681,29,-0.00695227,10,-0.000191819,-2.54412,0.0581044,1.01541,112.588,-0.0671442,
2,1,0,1,1,56353.5,-0.0647723,-0.0651645,3.07326,29,-0.0068931,10,-0.000200267,-2.5124,0.0685683,0.860456,102.669,-0.0651645,
2,1,0,1,1,56353.5,-0.0627748,-0.0631482,3.26708,29,-0.00682958,10,-0.00020631,-2.48584,0.0785102,0.751495,95.6334,-0.06314823,
2,1,0,1,1,56353.6,-0.0607772,-0.0611649,3.45576,29,-0.00676226,10,-0.000211371,-2.46146,0.0913726,0.645708,86.6373,-0.0611649,
2,1,0,1,1,56353.6,-0.0587796,-0.0591351,3.61476,29,-0.00669143,10,-0.00021376,-2.44192,0.105802,0.557646,78.5644,-0.0591351,
2,1,0,1,1,56353.6,-0.056782,-0.0571815,3.76871,29,-0.00661783,10,-0.0002155,-2.42381,0.117892,0.500459,73.4186,-0.0571815,
2,1,0,1,1,56353.6,-0.0547844,-0.0551541,3.90705,29,-0.00654099,10,-0.00021549,-2.40815,0.140308,0.420505,63.9461,-0.0551541,
2,1,0,1,1,56353.6,-0.0527868,-0.0531387,4.02723,29,-0.00646152,10,-0.000214002,-2.39499,0.158636,0.371921,58.3898,-0.0531387,
2,1,0,1,1,56353.7,-0.0507892,-0.0511524,4.14071,29,-0.00637976,10,-0.000211807,-2.38293,0.167129,0.353021,57.0316,-0.0511524,
2,1,0,1,1,56353.7,-0.0487916,-0.0491642,4.2539,29,-0.00629612,10,-0.00020914,-2.37121,0.190661,0.30945,51.2343,-0.0491642,
2,1,0,1,1,56353.7,-0.0467941,-0.0471526,4.34563,29,-0.00621002,10,-0.000204908,-2.36195,0.227474,0.25937,43.9372,-0.0471526,
2,1,0,1,1,56353.7,-0.0447965,-0.0451918,4.42844,29,-0.00612217,10,-0.000200129,-2.35375,0.255016,0.231358,39.9488,-0.0451918,
2,1,0,1,1,56353.7,-0.0427989,-0.0431846,4.50415,29,-0.00603271,10,-0.00019451,-2.34639,0.266678,0.221241,38.904,-0.0431846,
2,1,0,1,1,56353.8,-0.0408013,-0.041195,4.58393,29,-0.00594218,10,-0.000188835,-2.33876,0.318338,0.185338,33.0556,-0.04119502,
2,1,0,1,1,56353.8,-0.0388037,-0.0391796,4.63653,29,-0.00584983,10,-0.000181658,-2.33381,0.371036,0.159014,28.8025,-0.0391796,
2,1,0,1,1,56353.8,-0.0368061,-0.0372012,4.69896,29,-0.00575638,10,-0.000174807,-2.328,0.382406,0.154286,28.2541,-0.0372012,
2,1,0,1,1,56353.8,-0.0348085,-0.0352128,4.74861,29,-0.0056618,10,-0.000167212,-2.32343,0.451658,0.13063,24.2011,-0.0352128,
2,1,0,1,1,56353.8,-0.0328109,-0.033208,4.7956,29,-0.00556673,10,-0.000159252,-2.31916,0.513468,0.114905,21.4881,-0.033208,
2,1,0,1,1,56353.9,-0.0308134,-0.0311839,4.83519,29,-0.00547033,10,-0.00015078,-2.31559,0.596037,0.0989872,18.6682,-0.0311839,
2,1,0,1,1,56353.9,-0.0288158,-0.0292578,4.86934,29,-0.00537318,10,-0.000142466,-2.31253,0.698641,0.0844496,16.0406,-0.0292578,
2,1,0,1,1,56353.9,-0.0268182,-0.0272124,4.89889,29,-0.00527541,10,-0.000133311,-2.3099,0.76951,0.0766722,14.6592,-0.0272124,
2,1,0,1,1,56353.9,-0.0248138,-0.0251996,4.92884,29,-0.00517714,10,-0.000124205,-2.30726,0.891313,0.0661945,12.721,-0.0251996,
2,1,0,1,1,56353.9,-0.022823,-0.0232268,4.94959,29,-0.00507877,10,-0.000114963,-2.30543,1.0968,0.0537929,10.3905,-0.0232268,
2,1,0,1,1,56354,-0.0208254,-0.021245,4.96992,29,-0.00497952,10,-0.000105586,-2.30365,1.60828,0.0366851,7.10682,-0.021245,
2,1,0,1,1,56354,-0.0188278,-0.0192014,4.9782,29,-0.00488001,10,-9.55886e-05,-2.30293,1.92327,0.0306769,5.96439,-0.0192014,
2,1,0,1,1,56354,-0.0168393,-0.0172449,4.99378,29,-0.00478073,10,-8.61175e-05,-2.30157,1.73054,0.0340934,6.64119,-0.0172449,
2,1,0,1,1,56354,-0.0148327,-0.0152586,5.00439,29,-0.0046806,10,-7.63597e-05,-2.30065,3.16872,0.0186195,3.63411,-0.0152586,
2,1,0,1,1,56354,-0.0128351,-0.0132097,5.00845,29,-0.00458033,10,-6.61601e-05,-2.3003,3.73144,0.0158116,3.09193,-0.0132097,
2,1,0,1,1,56354.1,-0.0108375,-0.0112285,5.01685,29,-0.00447995,10,-5.63318e-05,-2.29957,2.75015,0.0214534,4.20035,-0.0112285,
2,1,0,1,1,56354.1,-0.00883989,-0.00923477,5.02514,29,-0.00437938,10,-4.6406e-05,-2.29885,4.59907,0.0128287,2.51428,-0.00923477,
2,1,0,1,1,56354.1,-0.0068423,-0.00720879,5.02695,29,-0.00427916,10,-3.62383e-05,-2.2987,5.69782,0.0103548,2.03237,-0.00720879,
2,1,0,1,1,56354.1,-0.00484471,-0.00526936,5.0332,29,-0.00417845,10,-2.65217e-05,-2.29816,8.01162,0.00736431,1.4456,-0.00526936,
2,1,0,1,1,56354.1,-0.00284713,-0.00323448,5.0327,29,-0.0040777,10,-1.62782e-05,-2.2982,-18.9977,-0.00310564,-0.609892,-0.003234481,
2,1,0,1,1,56354.2,-0.000849538,-0.00123405,5.03074,29,-0.00397689,10,-6.20817e-06,-2.29837, , , ,-0.00123405,
2,1,0,1,1,56354.2,-2.55332e-05,-0.00042076,5.04865,29,-0.00393606,10,-2.12427e-06,-2.29682, , , ,-0.00042076,