File: Figure_codes/Fig_3-5/rawdata_trumpetplot_data/after 10th/20221101_1-115_003_TrumpetPlot_ParaChange_from10_every3_07_CV_C01_13.csv
mode,ox/red,error,control changes,counter inc.,time/s,control/V,Ewe/V,<I>/mA,cycle number,(Q-Qo)/C,I Range,P/W,log(|I|),Tafel slope mV/dec,alpha_eff,dI/d(E-IR),E-IR/V,
2,0,0,0,0,26776.7,2.44065e-05,-0.000325324,-2.71985,14,0.0000000E+000,10,8.8483e-07,-2.56546, , , ,-0.000325324,
2,0,0,1,0,26776.7,0.0013005,0.000926403,-1.11794,14,-3.75085e-05,10,-1.03567e-06,-2.95158, , , ,0.000926403,
2,0,0,1,0,26776.8,0.00279471,0.0025125,-0.0474414,14,-5.06151e-05,10,-1.19196e-07,-4.32384,-0.0126332,-4.67024,585.372,0.0025125,
2,1,0,1,0,26776.8,0.00429425,0.0039897,0.601461,14,-4.26773e-05,10,2.39965e-06,-3.22079,0.00754086,7.82404,376.205,0.0039897,
2,1,0,1,0,26776.8,0.00579379,0.00552597,1.04855,14,-2.13127e-05,10,5.79427e-06,-2.97941,0.0072814,8.10284,261.453,0.00552597,
2,1,0,1,0,26776.8,0.007288,0.00696679,1.36261,14,9.25762e-06,10,9.49303e-06,-2.86563,0.0150142,3.9296,192.421,0.00696679,
2,1,0,1,0,26776.9,0.00878882,0.00847117,1.59809,14,4.6909e-05,10,1.35377e-05,-2.7964,0.0247419,2.38462,143.054,0.00847117,
2,1,0,1,0,26776.9,0.0102896,0.0100147,1.79171,14,8.98501e-05,10,1.79435e-05,-2.74673,0.0369911,1.59498,108.635,0.0100147,
2,1,0,1,0,26776.9,0.0117838,0.0114655,1.94102,14,0.000136726,10,2.22547e-05,-2.71197,0.0489268,1.20588,89.4545,0.0114655,
2,1,0,1,0,26776.9,0.0132834,0.0129682,2.0537,14,0.000187007,10,2.66328e-05,-2.68746,0.0603952,0.976899,77.6687,0.0129682,
2,1,0,1,0,26777,0.0147816,0.0144637,2.15355,14,0.000240063,10,3.11483e-05,-2.66685,0.0752827,0.783712,65.612,0.0144637,
2,1,0,1,0,26777,0.0162811,0.0159247,2.24791,14,0.000295629,10,3.57973e-05,-2.64822,0.0942098,0.626262,54.6377,0.01592469,
2,1,0,1,0,26777,0.0177753,0.0174372,2.3262,14,0.000353058,10,4.05623e-05,-2.63335,0.106762,0.552633,49.9661,0.0174372,
2,1,0,1,0,26777,0.0192761,0.0189584,2.40115,14,0.000412468,10,4.5522e-05,-2.61958,0.119632,0.493178,46.0204,0.01895839,
2,1,0,1,0,26777.1,0.020777,0.0204655,2.45848,14,0.000473642,10,5.03141e-05,-2.60933,0.131961,0.447101,42.8466,0.0204655,
2,1,0,1,0,26777.1,0.0222712,0.0219336,2.52743,14,0.000536174,10,5.54355e-05,-2.59732,0.147674,0.39953,39.3332,0.0219336,
2,1,0,1,0,26777.1,0.0237707,0.0234376,2.59032,14,0.000600506,10,6.0711e-05,-2.58665,0.162382,0.363341,36.5701,0.02343761,
2,1,0,1,0,26777.1,0.0252703,0.0249579,2.63746,14,0.000666251,10,6.58253e-05,-2.57881,0.160278,0.368111,37.9938,0.02495789,
2,1,0,1,0,26777.2,0.0267645,0.0264401,2.69104,14,0.000733083,10,7.11514e-05,-2.57008,0.156779,0.376326,39.6102,0.0264401,
2,1,0,1,0,26777.2,0.0282653,0.027955,2.7519,14,0.000801642,10,7.69296e-05,-2.56037,0.172506,0.342018,36.7677,0.027955,
2,1,0,1,0,26777.2,0.0297648,0.0294481,2.81288,14,0.000871586,10,8.2834e-05,-2.55085,0.183358,0.321775,35.1935,0.0294481,
2,1,0,1,0,26777.2,0.031259,0.0309204,2.86022,14,0.000942608,10,8.84391e-05,-2.5436,0.181591,0.324906,36.2375,0.0309204,
2,1,0,1,0,26777.3,0.0327585,0.0324476,2.90806,14,0.00101518,10,9.43596e-05,-2.5364,0.187754,0.314242,35.7542,0.0324476,
2,1,0,1,0,26777.3,0.034258,0.0339558,2.96143,14,0.00108908,10,0.000100558,-2.5285,0.206504,0.285709,33.0867,0.0339558,
2,1,0,1,0,26777.3,0.0357576,0.0354451,3.02222,14,0.00116435,10,0.000107123,-2.51967,0.217843,0.270838,31.8859,0.0354451,
2,1,0,1,0,26777.3,0.0372518,0.0369183,3.07069,14,0.00124061,10,0.000113365,-2.51276,0.204532,0.288463,34.5677,0.0369183,
2,1,0,1,0,26777.4,0.0387526,0.0384151,3.11845,14,0.00131837,10,0.000119796,-2.50606,0.198548,0.297157,36.2725,0.0384151,
2,1,0,1,0,26777.4,0.0402534,0.0399316,3.17476,14,0.00139752,10,0.000126773,-2.49829,0.212066,0.278216,34.4748,0.0399316,
2,1,0,1,0,26777.4,0.0417476,0.0414501,3.23857,14,0.00147776,10,0.000134239,-2.48965,0.217343,0.27146,34.1673,0.0414501,
2,1,0,1,0,26777.4,0.0432472,0.0429701,3.28603,14,0.00155959,10,0.000141201,-2.48333,0.208951,0.282362,36.1328,0.0429701,
2,1,0,1,0,26777.5,0.0447467,0.0444213,3.32406,14,0.00164263,10,0.000147659,-2.47833,0.221952,0.265824,34.5743,0.0444213,
2,1,0,1,0,26777.5,0.0462463,0.0459385,3.37953,14,0.00172698,10,0.00015525,-2.47114,0.229931,0.256599,33.8906,0.0459385,
2,1,0,1,0,26777.5,0.0477391,0.0474663,3.43494,14,0.00181229,10,0.000163044,-2.46408,0.237351,0.248577,33.3136,0.0474663,
2,1,0,1,0,26777.5,0.0492399,0.0489029,3.48752,14,0.00189922,10,0.00017055,-2.45748,0.244526,0.241283,32.772,0.0489029,
2,1,0,1,0,26777.6,0.0507408,0.050409,3.5244,14,0.00198732,10,0.000177661,-2.45292,0.244258,0.241548,33.3103,0.050409,
2,1,0,1,0,26777.6,0.052235,0.0518888,3.57941,14,0.00207625,10,0.000185731,-2.44619,0.251444,0.234645,32.797,0.0518888,
2,1,0,1,0,26777.6,0.0537345,0.0534251,3.63596,14,0.00216685,10,0.000194252,-2.43938,0.267867,0.220259,31.1913,0.0534251,
2,1,0,1,0,26777.6,0.0552341,0.0549564,3.68414,14,0.00225872,10,0.000202467,-2.43366,0.268917,0.219399,31.4799,0.0549564,
2,1,0,1,0,26777.7,0.0567283,0.0564173,3.72194,14,0.00235139,10,0.000209982,-2.42923,0.275921,0.213829,31.1186,0.0564173,
2,1,0,1,0,26777.7,0.0582291,0.0578684,3.77298,14,0.00244545,10,0.000218336,-2.42332,0.314908,0.187356,27.6149,0.0578684,
2,1,0,1,0,26777.7,0.0597299,0.0594099,3.82433,14,0.00254074,10,0.000227203,-2.41744,0.276707,0.213222,31.7581,0.0594099,
2,1,0,1,0,26777.7,0.0612228,0.0608591,3.86919,14,0.00263686,10,0.000235475,-2.41238,0.303352,0.194494,29.3078,0.0608591,
2,1,0,1,0,26777.8,0.0627223,0.0624222,3.90829,14,0.00273448,10,0.000243964,-2.40801,0.305271,0.193271,29.4763,0.0624222,
2,1,0,1,0,26777.8,0.0642218,0.0639262,3.94392,14,0.00283308,10,0.00025212,-2.40407,0.32255,0.182917,28.2171,0.06392619,
2,1,0,1,0,26777.8,0.0657214,0.0654403,3.99929,14,0.00293285,10,0.000261715,-2.39802,0.311748,0.189255,29.5094,0.0654403,
2,1,0,1,0,26777.8,0.0672156,0.0669273,4.04521,14,0.00303334,10,0.000270735,-2.39306,0.32574,0.181126,28.5193,0.0669273,
2,1,0,1,0,26777.9,0.0687164,0.0684413,4.08,14,0.0031353,10,0.000279241,-2.38934,0.353963,0.166684,26.5211,0.0684413,
2,1,0,1,0,26777.9,0.0702172,0.0698705,4.11365,14,0.00323816,10,0.000287423,-2.38577,0.39254,0.150303,24.1695,0.0698705,
2,1,0,1,0,26777.9,0.0717114,0.0713976,4.15974,14,0.00334158,10,0.000296996,-2.38093,0.370361,0.159304,25.8236,0.0713976,
2,1,0,1,0,26777.9,0.073211,0.0729153,4.20081,14,0.00344644,10,0.000306303,-2.37667,0.360014,0.163883,26.8362,0.0729153,
2,1,0,1,0,26778,0.0747105,0.0743953,4.2312,14,0.00355223,10,0.000314782,-2.37354,0.382476,0.154258,25.4895,0.0743953,
2,1,0,1,0,26778,0.0762101,0.0759151,4.26096,14,0.00365888,10,0.000323471,-2.37049,0.463285,0.127351,21.21,0.0759151,
2,1,0,1,0,26778,0.0777042,0.0773809,4.3068,14,0.00376598,10,0.000333264,-2.36585,0.448461,0.131561,22.0816,0.0773809,
2,1,0,1,0,26778,0.0792037,0.0788838,4.3426,14,0.00387437,10,0.000342561,-2.36225,0.428451,0.137705,23.282,0.0788838,
2,1,0,1,0,26778.1,0.0807046,0.0803856,4.37029,14,0.00398367,10,0.000351308,-2.35949,0.47355,0.124591,21.2255,0.0803856,
2,1,0,1,0,26778.1,0.0821988,0.0818835,4.39618,14,0.00409328,10,0.000359975,-2.35692,0.569901,0.103527,17.7902,0.08188349,
2,1,0,1,0,26778.1,0.0836983,0.0833589,4.43248,14,0.00420401,10,0.000369486,-2.35335,0.550514,0.107173,18.5243,0.0833589,
2,1,0,1,0,26778.1,0.0851979,0.0848637,4.46223,14,0.00431557,10,0.000378681,-2.35045,0.466622,0.126441,21.9976,0.0848637,
2,1,0,1,0,26778.2,0.0866921,0.0863838,4.49303,14,0.00442744,10,0.000388125,-2.34746,0.513154,0.114975,20.154,0.0863838,
2,1,0,1,0,26778.2,0.0881929,0.0878857,4.52283,14,0.00454057,10,0.000397492,-2.34459,0.501843,0.117567,20.7707,0.0878857,
2,1,0,1,0,26778.2,0.0896937,0.0894265,4.55851,14,0.00465441,10,0.000407652,-2.34118,0.474116,0.124442,22.1295,0.0894265,
2,1,0,1,0,26778.2,0.0911879,0.0908808,4.59621,14,0.00476872,10,0.000417707,-2.3376,0.369557,0.159651,28.5898,0.0908808,
2,1,0,1,0,26778.3,0.0926861,0.0924068,4.63612,14,0.00488448,10,0.000428409,-2.33385,0.378535,0.155864,28.2014,0.0924068,
2,1,0,1,0,26778.3,0.0941856,0.0939129,4.67159,14,0.00500125,10,0.000438723,-2.33054,0.434717,0.13572,24.7706,0.0939129,
2,1,0,1,0,26778.3,0.0956852,0.0953179,4.71648,14,0.00511899,10,0.000449565,-2.32638,0.405704,0.145426,26.7767,0.0953179,
2,1,0,1,0,26778.3,0.0971794,0.0968713,4.76004,14,0.00523735,10,0.000461111,-2.32239,0.311384,0.189477,35.2102,0.0968713,
2,1,0,1,0,26778.4,0.0986802,0.0983373,4.80763,14,0.00535743,10,0.000472769,-2.31807,0.284298,0.207529,39.0165,0.09833727,
2,1,0,1,0,26778.4,0.100181,0.099872,4.8736,14,0.00547891,10,0.000486737,-2.31215,0.289844,0.203558,38.7284,0.099872,
2,1,0,1,0,26778.4,0.101675,0.101381,4.93879,14,0.00560142,10,0.000500698,-2.30638,0.279806,0.210861,40.636,0.101381,
2,1,0,1,0,26778.4,0.103175,0.102867,5.00625,14,0.00572603,10,0.000514978,-2.30049,0.243355,0.242445,47.3843,0.1028669,
2,1,0,1,0,26778.5,0.104674,0.104406,5.08008,14,0.00585246,10,0.000530391,-2.29413,0.223113,0.26444,52.4327,0.104406,
2,1,0,1,0,26778.5,0.106169,0.105891,5.15181,14,0.00598033,10,0.000545532,-2.28804,0.23744,0.248484,50.0181,0.105891,
2,1,0,1,0,26778.5,0.107668,0.107364,5.23963,14,0.00611067,10,0.00056255,-2.2807,0.235244,0.250804,51.2627,0.1073643,
2,1,0,1,0,26778.5,0.109169,0.10883,5.32064,14,0.00624291,10,0.000579043,-2.27404,0.213681,0.276113,57.3339,0.10883,
2,1,0,1,0,26778.6,0.110663,0.110311,5.3995,14,0.00637678,10,0.000595624,-2.26765,0.207279,0.284641,60.0107,0.110311,
2,1,0,1,0,26778.6,0.112163,0.111873,5.48288,14,0.00651336,10,0.000613388,-2.26099,0.229932,0.256598,54.9556,0.111873,
2,1,0,1,0,26778.6,0.113662,0.11337,5.57453,14,0.00665205,10,0.000631984,-2.25379,0.241915,0.243887,52.9904,0.11337,
2,1,0,1,0,26778.6,0.115162,0.11485,5.65474,14,0.00679278,10,0.000649447,-2.24759,0.237662,0.248252,54.7437,0.11485,
2,1,0,1,0,26778.7,0.116656,0.116311,5.73147,14,0.00693494,10,0.000666631,-2.24173,0.233894,0.252251,56.4309,0.116311,
2,1,0,1,0,26778.7,0.118157,0.117841,5.8113,14,0.00707973,10,0.000684812,-2.23573,0.271191,0.217559,49.3297,0.117841,
2,1,0,1,0,26778.7,0.119657,0.119393,5.89253,14,0.00722645,10,0.000703529,-2.2297,0.312916,0.188549,43.2581,0.119393,
2,1,0,1,0,26778.7,0.121152,0.120848,5.95103,14,0.00737419,10,0.000719168,-2.22541,0.336661,0.175251,40.6572,0.120848,
2,1,0,1,0,26778.8,0.122651,0.122326,6.00744,14,0.00752408,10,0.000734867,-2.22131,0.323595,0.182327,42.7351,0.122326,
2,1,0,1,0,26778.8,0.124151,0.123822,6.06578,14,0.00767548,10,0.00075108,-2.21711,0.368942,0.159917,37.8779,0.123822,
2,1,0,1,0,26778.8,0.125649,0.125319,6.12145,14,0.00782833,10,0.000767136,-2.21315,0.441451,0.13365,31.8954,0.125319,
2,1,0,1,0,26778.8,0.127143,0.126844,6.16641,14,0.00798179,10,0.00078217,-2.20997,0.457308,0.129016,31.0318,0.126844,
2,1,0,1,0,26778.9,0.128644,0.128336,6.21269,14,0.00813694,10,0.000797309,-2.20672,0.458875,0.128575,31.1784,0.128336,
2,1,0,1,0,26778.9,0.130145,0.129835,6.25378,14,0.00829318,10,0.000811958,-2.20386,0.566365,0.104173,25.4202,0.129835,
2,1,0,1,0,26778.9,0.131639,0.131312,6.29943,14,0.00844989,10,0.000827189,-2.2007,0.678507,0.0869557,21.332,0.131312,
2,1,0,1,0,26778.9,0.133139,0.132861,6.33378,14,0.00860816,10,0.000841512,-2.19834,0.678234,0.0869906,21.476,0.132861,
2,1,0,1,0,26779,0.134638,0.134326,6.35898,14,0.00876714,10,0.000854177,-2.19661,0.6573,0.0897611,22.298,0.134326,
2,1,0,1,0,26779,0.136132,0.135838,6.38875,14,0.00892631,10,0.000867834,-2.19458,0.800777,0.0736785,18.374,0.135838,
2,1,0,1,0,26779,0.137633,0.137304,6.42274,14,0.00908688,10,0.000881866,-2.19228,1.13644,0.0519164,12.9861,0.137304,
2,1,0,1,0,26779,0.139133,0.138798,6.44296,14,0.00924803,10,0.000894269,-2.19091,1.81421,0.0325211,8.1556,0.138798,
2,1,0,1,0,26779.1,0.140627,0.140339,6.44258,14,0.00940877,10,0.000904147,-2.19094,5.33917,0.0110504,2.7749,0.140339,
2,1,0,1,0,26779.1,0.142126,0.141869,6.44022,14,0.00957023,10,0.000913667,-2.1911,-2.25987,-0.0261077,-6.55034,0.141869,
2,1,0,1,0,26779.1,0.143626,0.14332,6.42334,14,0.00973151,10,0.000920591,-2.19224,-0.753719,-0.0782785,-19.5776,0.14332,
2,1,0,1,0,26779.1,0.145125,0.144813,6.39522,14,0.0098922,10,0.000926111,-2.19414,-0.425595,-0.138629,-34.4532,0.144813,
2,1,0,1,0,26779.2,0.14662,0.146298,6.32235,14,0.0100509,10,0.000924949,-2.19912,-0.296676,-0.19887,-48.9456,0.146298,
2,1,0,1,0,26779.2,0.14812,0.147804,6.23687,14,0.0102085,10,0.000921836,-2.20503,-0.214221,-0.275416,-66.8496,0.1478043,
2,1,0,1,0,26779.2,0.149621,0.1493,6.12987,14,0.0103635,10,0.000915189,-2.21255,-0.16853,-0.350087,-83.4236,0.1492999,
2,1,0,1,0,26779.2,0.151116,0.150772,5.99722,14,0.0105149,10,0.000904215,-2.22205,-0.137303,-0.429707,-99.9968,0.1507722,
2,1,0,1,0,26779.3,0.152615,0.152303,5.82975,14,0.0106632,10,0.00088789,-2.23435,-0.117948,-0.500221,-113.403,0.152303,
2,1,0,1,0,26779.3,0.154115,0.153841,5.64163,14,0.010807,10,0.000867915,-2.2486,-0.102407,-0.576135,-126.683,0.153841,
2,1,0,1,0,26779.3,0.155614,0.155282,5.45132,14,0.010946,10,0.000846494,-2.2635,-0.0918188,-0.64257,-136.212,0.1552822,
2,1,0,1,0,26779.3,0.157107,0.156786,5.23991,14,0.0110795,10,0.000821547,-2.28068,-0.0851584,-0.692826,-141.196,0.1567864,
2,1,0,1,0,26779.4,0.158608,0.158301,5.02238,14,0.0112082,10,0.000795047,-2.29909,-0.0798458,-0.738924,-144.546,0.158301,
2,1,0,1,0,26779.4,0.160109,0.159772,4.79727,14,0.0113312,10,0.00076647,-2.31901,-0.0779489,-0.756906,-141.955,0.159772,
2,1,0,1,0,26779.4,0.161603,0.161297,4.59288,14,0.0114486,10,0.000740816,-2.33792,-0.077825,-0.758111,-136.046,0.1612968,
2,1,0,1,0,26779.4,0.163102,0.162782,4.40242,14,0.0115614,10,0.000716635,-2.35631,-0.0804782,-0.733118,-126.021,0.162782,
2,1,0,1,0,26779.5,0.164602,0.164286,4.21548,14,0.0116694,10,0.000692543,-2.37515,-0.0828513,-0.712119,-117.542,0.1642855,
2,1,0,1,0,26779.5,0.166096,0.165765,4.0427,14,0.0117726,10,0.000670137,-2.39333,-0.087289,-0.675915,-107.104,0.165765,
2,1,0,1,0,26779.5,0.167597,0.167257,3.89424,14,0.0118722,10,0.000651337,-2.40958,-0.0933784,-0.631838,-96.2882,0.167257,
2,1,0,1,0,26779.5,0.169098,0.168799,3.76702,14,0.0119683,10,0.000635867,-2.424,-0.103451,-0.570318,-83.7725,0.1687986,
2,1,0,1,0,26779.6,0.170592,0.170294,3.64076,14,0.0120608,10,0.000619999,-2.43881,-0.106773,-0.552572,-78.6158,0.170294,
2,1,0,1,0,26779.6,0.17209,0.171803,3.52031,14,0.0121507,10,0.000604802,-2.45342,-0.113156,-0.521406,-71.9866,0.171803,
2,1,0,1,0,26779.6,0.17359,0.173282,3.42864,14,0.012238,10,0.000594122,-2.46488,-0.126329,-0.467035,-62.64,0.173282,
2,1,0,1,0,26779.6,0.175089,0.174784,3.34366,14,0.012323,10,0.000584416,-2.47578,-0.136899,-0.430974,-56.2741,0.174784,
2,1,0,1,0,26779.7,0.176583,0.176272,3.26264,14,0.0124056,10,0.000575113,-2.48643,-0.154418,-0.38208,-48.701,0.176272,
2,1,0,1,0,26779.7,0.178084,0.177769,3.18274,14,0.0124867,10,0.000565791,-2.4972,-0.160497,-0.367608,-45.9109,0.177769,
2,1,0,1,0,26779.7,0.179585,0.179279,3.12653,14,0.012566,10,0.00056052,-2.50494,-0.170649,-0.34574,-42.292,0.179279,
2,1,0,1,0,26779.7,0.181079,0.180759,3.07416,14,0.0126436,10,0.000555682,-2.51227,-0.205592,-0.286977,-34.4403,0.180759,
2,1,0,1,0,26779.8,0.182579,0.182255,3.01852,14,0.0127202,10,0.000550139,-2.52021,-0.214772,-0.274709,-32.4472,0.182255,
2,1,0,1,0,26779.8,0.184078,0.183814,2.97253,14,0.0127956,10,0.000546392,-2.52687,-0.217166,-0.271681,-31.645,0.183814,
2,1,0,1,0,26779.8,0.185578,0.185242,2.93376,14,0.0128698,10,0.000543454,-2.53258,-0.239223,-0.246632,-28.2826,0.185242,
2,1,0,1,0,26779.8,0.187072,0.186786,2.90298,14,0.0129428,10,0.000542237,-2.53716,-0.308,-0.191558,-21.6482,0.186786,
2,1,0,1,0,26779.9,0.188573,0.188274,2.86733,14,0.0130153,10,0.000539843,-2.54252,-0.319408,-0.184717,-20.6446,0.188274,
2,1,0,1,0,26779.9,0.190072,0.189776,2.83058,14,0.0130869,10,0.000537177,-2.54812,-0.314417,-0.187649,-20.7657,0.189776,
2,1,0,1,0,26779.9,0.191567,0.191282,2.80374,14,0.0131574,10,0.000536304,-2.55226,-0.338551,-0.174272,-19.0816,0.191282,
2,1,0,1,0,26779.9,0.193066,0.192722,2.78092,14,0.0132275,10,0.000535945,-2.55581,-0.433617,-0.136065,-14.7609,0.192722,
2,1,0,1,0,26780,0.194566,0.194229,2.75795,14,0.0132971,10,0.000535673,-2.55941,-0.542431,-0.108769,-11.7039,0.194229,
2,1,0,1,0,26780,0.19606,0.195749,2.73077,14,0.0133659,10,0.000534545,-2.56372,-0.399337,-0.147745,-15.7761,0.195749,
2,1,0,1,0,26780,0.197561,0.197232,2.71307,14,0.0134344,10,0.000535105,-2.56654,-0.394109,-0.149705,-15.8684,0.197232,
2,1,0,1,0,26780,0.199062,0.198783,2.70022,14,0.0135024,10,0.000536757,-2.5686,-0.527417,-0.111866,-11.7566,0.198783,
2,1,0,1,0,26780.1,0.200556,0.200235,2.67734,14,0.0135696,10,0.000536098,-2.5723,-0.826746,-0.0713641,-7.45807,0.200235,
2,1,0,1,0,26780.1,0.202055,0.201727,2.65942,14,0.0136368,10,0.000536478,-2.57521,-0.580212,-0.101687,-10.5614,0.201727,
2,1,0,1,0,26780.1,0.203553,0.203221,2.6455,14,0.0137036,10,0.000537621,-2.57749,-0.605425,-0.0974522,-10.072,0.203221,
2,1,0,1,0,26780.1,0.205053,0.204751,2.63362,14,0.01377,10,0.000539235,-2.57945,-0.949744,-0.062122,-6.40235,0.204751,
2,1,0,1,0,26780.2,0.206547,0.20623,2.62245,14,0.0138358,10,0.000540827,-2.58129,-1.2562,-0.0469671,-4.80933,0.20623,
2,1,0,1,0,26780.2,0.208048,0.207783,2.61091,14,0.0139017,10,0.000542502,-2.58321,-0.822654,-0.0717191,-7.30677,0.207783,
2,1,0,1,0,26780.2,0.209549,0.209248,2.60608,14,0.0139674,10,0.000545317,-2.58401,-0.572681,-0.103024,-10.4608,0.209248,
2,1,0,1,0,26780.2,0.211043,0.21071,2.59268,14,0.0140323,10,0.000546303,-2.58625,-0.882939,-0.0668222,-6.75257,0.21071,
2,1,0,1,0,26780.3,0.212543,0.212205,2.57747,14,0.0140974,10,0.000546951,-2.58881,-1.66239,-0.0354912,-3.57094,0.212205,
2,1,0,1,0,26780.3,0.214042,0.213744,2.56734,14,0.0141622,10,0.000548755,-2.59052,-0.965696,-0.0610958,-6.13487,0.213744,
2,1,0,1,0,26780.3,0.215536,0.215194,2.56203,14,0.0142265,10,0.000551333,-2.59142,-0.737309,-0.0800207,-8.00487,0.215194,
2,1,0,1,0,26780.3,0.217036,0.21674,2.55368,14,0.0142908,10,0.000553485,-2.59283,-0.960455,-0.0614292,-6.1207,0.21674,
2,1,0,1,0,26780.4,0.218537,0.218254,2.54461,14,0.0143549,10,0.000555372,-2.59438,-3.96667,-0.0148739,-1.47709,0.218254,
2,1,0,1,0,26780.4,0.220031,0.219745,2.54075,14,0.0144186,10,0.000558317,-2.59504,-1.40822,-0.0418969,-4.1558,0.219745,
2,1,0,1,0,26780.4,0.22153,0.221242,2.53115,14,0.0144824,10,0.000559996,-2.59668,-1.16183,-0.0507821,-5.02107,0.221242,
2,1,0,1,0,26780.4,0.22303,0.222723,2.52648,14,0.0145461,10,0.000562707,-2.59748,-1.19296,-0.049457,-4.8728,0.222723,
2,1,0,1,0,26780.5,0.224529,0.224229,2.51892,14,0.0146095,10,0.000564815,-2.59879,-2.4678,-0.0239079,-2.35292,0.224229,
2,1,0,1,0,26780.5,0.226024,0.225716,2.50807,14,0.0146725,10,0.000566112,-2.60066,-1.45469,-0.0405584,-3.97936,0.225716,
2,1,0,1,0,26780.5,0.227525,0.227218,2.50565,14,0.0147357,10,0.000569328,-2.60108,-1.02932,-0.0573193,-5.60543,0.227218,
2,1,0,1,0,26780.5,0.229025,0.228713,2.50264,14,0.0147987,10,0.000572386,-2.6016,-1.19668,-0.0493032,-4.80993,0.228713,
2,1,0,1,0,26780.6,0.23052,0.23022,2.49628,14,0.0148612,10,0.000574695,-2.60271,-2.21089,-0.0266861,-2.59937,0.2302203,
2,1,0,1,0,26780.6,0.232019,0.23174,2.48747,14,0.0149239,10,0.000576448,-2.60424,-2.9694,-0.0198693,-1.93103,0.23174,
2,1,0,1,0,26780.6,0.233519,0.233198,2.48549,14,0.0149865,10,0.00057961,-2.60459,-1.0933,-0.0539653,-5.231,0.233198,
2,1,0,1,0,26780.6,0.235018,0.234738,2.48617,14,0.0150491,10,0.000583599,-2.60447,-1.64176,-0.0359371,-3.4771,0.234738,
2,1,0,1,0,26780.7,0.236511,0.236202,2.47048,14,0.0151111,10,0.000583534,-2.60722,-2.60193,-0.0226755,-2.19191,0.2362022,
2,1,0,1,0,26780.7,0.238012,0.237733,2.46919,14,0.0151733,10,0.000587008,-2.60745,-5.1246,-0.0115131,-1.10993,0.237733,
2,1,0,1,0,26780.7,0.239513,0.23922,2.46689,14,0.0152355,10,0.000590128,-2.60785,-1.72085,-0.0342853,-3.30045,0.23922,
2,1,0,1,0,26780.7,0.241007,0.240722,2.46657,14,0.0152972,10,0.000593757,-2.60791,-1.30724,-0.0451331,-4.33462,0.240722,
2,1,0,1,0,26780.8,0.242506,0.2422,2.45277,14,0.0153591,10,0.000594062,-2.61034,-3.19697,-0.018455,-1.77021,0.2422,
2,1,0,1,0,26780.8,0.244006,0.2437,2.44851,14,0.0154208,10,0.000596701,-2.6111,-3.42561,-0.0172232,-1.65035,0.2437,
2,1,0,1,0,26780.8,0.2455,0.245159,2.45044,14,0.0154823,10,0.000600748,-2.61076,-1.99898,-0.0295151,-2.82301,0.245159,
2,1,0,1,0,26780.8,0.247001,0.246689,2.44996,14,0.0155439,10,0.000604377,-2.61084,-1.20861,-0.0488163,-4.64826,0.246689,
2,1,0,1,0,26780.9,0.248502,0.248204,2.44399,14,0.0156054,10,0.000606607,-2.6119,-4.85125,-0.0121618,-1.15785,0.248204,
2,1,0,1,0,26780.9,0.249995,0.249722,2.43446,14,0.0156665,10,0.000607937,-2.6136,-2.2804,-0.0258727,-2.46186,0.249722,
2,1,0,1,0,26780.9,0.251494,0.25122,2.43276,14,0.0157278,10,0.000611159,-2.6139,-1.46693,-0.0402201,-3.82357,0.25122,
2,1,0,1,0,26780.9,0.252994,0.252705,2.43252,14,0.0157889,10,0.000614711,-2.61394,-1.67061,-0.0353164,-3.34352,0.252705,
2,1,0,1,0,26781,0.254493,0.25423,2.42484,14,0.0158501,10,0.000616468,-2.61532,-2.18349,-0.027021,-2.55668,0.25423,
2,1,0,1,0,26781,0.255988,0.255677,2.41758,14,0.0159107,10,0.000618119,-2.61662,-3.20454,-0.0184114,-1.74355,0.255677,
2,1,0,1,0,26781,0.257488,0.257174,2.41684,14,0.0159716,10,0.000621549,-2.61675,-3.27078,-0.0180385,-1.70129,0.257174,
2,1,0,1,0,26781,0.258989,0.258691,2.42064,14,0.0160324,10,0.000626197,-2.61607,-2.52165,-0.0233973,-2.20036,0.258691,
2,1,0,1,0,26781.1,0.260483,0.260175,2.41414,14,0.0160929,10,0.0006281,-2.61724,-2.10732,-0.0279977,-2.63285,0.260175,
2,1,0,1,0,26781.1,0.261983,0.261693,2.40124,14,0.0161535,10,0.000628389,-2.61956,-1.94179,-0.0303843,-2.85404,0.261693,
2,1,0,1,0,26781.1,0.263482,0.263206,2.40303,14,0.016214,10,0.000632493,-2.61924,-2.27041,-0.0259865,-2.43648,0.2632063,
2,1,0,1,0,26781.1,0.264982,0.264672,2.40292,14,0.0162744,10,0.000635986,-2.61926,-2.37737,-0.0248173,-2.32388,0.264672,
2,1,0,1,0,26781.2,0.266476,0.266167,2.39837,14,0.0163345,10,0.000638365,-2.62008,-2.37596,-0.0248321,-2.32043,0.266167,
2,1,0,1,0,26781.2,0.267976,0.267628,2.38297,14,0.0163947,10,0.000637749,-2.62288,-2.8148,-0.0209606,-1.95564,0.267628,
2,1,0,1,0,26781.2,0.269477,0.269169,2.3885,14,0.0164548,10,0.000642909,-2.62187,-2.89861,-0.0203546,-1.89488,0.269169,
2,1,0,1,0,26781.2,0.270971,0.270677,2.38988,14,0.0165146,10,0.000646883,-2.62162,-1.5366,-0.0383966,-3.56288,0.270677,
2,1,0,1,0,26781.3,0.27247,0.272173,2.38241,14,0.0165746,10,0.000648426,-2.62298,-2.33354,-0.0252835,-2.34418,0.272173,
2,1,0,1,0,26781.3,0.27397,0.27364,2.36902,14,0.0166344,10,0.000648258,-2.62543,-1.63983,-0.0359792,-3.34017,0.27364,
2,1,0,1,0,26781.3,0.275464,0.275131,2.36778,14,0.0166938,10,0.000651448,-2.62566,-1.13297,-0.0520754,-4.82789,0.275131,
2,1,0,1,0,26781.3,0.276965,0.276682,2.37082,14,0.0167535,10,0.000655965,-2.6251,-2.78868,-0.021157,-1.95219,0.276682,
2,1,0,1,0,26781.4,0.278466,0.278169,2.36612,14,0.016813,10,0.000658179,-2.62596,-1.9204,-0.0307228,-2.8318,0.278169,
2,1,0,1,0,26781.4,0.27996,0.279679,2.36064,14,0.0168723,10,0.000660222,-2.62697,-4.95301,-0.0119119,-1.0968,0.279679,
2,1,0,1,0,26781.4,0.281458,0.281105,2.34977,14,0.0169315,10,0.000660532,-2.62897,-1.54367,-0.0382205,-3.51517,0.281105,
2,1,0,1,0,26781.4,0.282958,0.282622,2.3491,14,0.0169908,10,0.000663907,-2.6291,-2.80017,-0.0210702,-1.92928,0.282622,
2,1,0,1,0,26781.5,0.284457,0.284166,2.34715,14,0.0170499,10,0.000666981,-2.62946,-36.1083,-0.00163397,-0.149659,0.284166,
2,1,0,1,0,26781.5,0.285951,0.285655,2.34201,14,0.0171087,10,0.000669008,-2.63041,-1.85093,-0.0318759,-2.91519,0.285655,
2,1,0,1,0,26781.5,0.287452,0.287165,2.33251,14,0.0171676,10,0.000669814,-2.63218,-1.56337,-0.0377389,-3.44427,0.287165,
2,1,0,1,0,26781.5,0.288953,0.288623,2.33717,14,0.0172264,10,0.000674562,-2.63131,-2.28627,-0.0258062,-2.34325,0.288623,
2,1,0,1,0,26781.6,0.290447,0.290178,2.33193,14,0.0172848,10,0.000676673,-2.63228,-2.81775,-0.0209387,-1.901,0.2901777,
2,1,0,1,0,26781.6,0.291947,0.291673,2.32398,14,0.0173434,10,0.000677843,-2.63377,-2.35281,-0.0250764,-2.27413,0.291673,
2,1,0,1,0,26781.6,0.293446,0.293133,2.31411,14,0.0174019,10,0.000678344,-2.63562,-1.37065,-0.0430452,-3.89984,0.293133,
2,1,0,1,0,26781.6,0.29494,0.294626,2.31654,14,0.0174599,10,0.000682514,-2.63516,-1.1614,-0.0508008,-4.59299,0.294626,
2,1,0,1,0,26781.7,0.29644,0.29613,2.31755,14,0.0175182,10,0.000686297,-2.63497,-6.81407,-0.00865855,-0.780844,0.29613,
2,1,0,1,0,26781.7,0.297941,0.297664,2.30625,14,0.0175764,10,0.000686487,-2.63709,-3.22516,-0.0182937,-1.64762,0.297664,
2,1,0,1,0,26781.7,0.29944,0.299183,2.30338,14,0.0176345,10,0.000689131,-2.63763,-0.00640282,-9.21469,-615.465,0.299183,
2,1,0,1,0,26781.7,0.299736,0.299477,1.81414,14,0.0176642,10,0.000543294,-2.74133,0.00135088,43.6754,1629.56,0.299477,
2,1,0,1,0,26781.7,0.298238,0.297925,0.504832,14,0.0176901,10,0.000150402,-3.29685,0.00344411,17.1307,656.826,0.297925,
2,0,0,1,0,26781.8,0.296744,0.296442,-0.0579181,14,0.0176945,10,-1.71693e-05,-4.23719,0.0145467,4.0559,311.262,0.296442,
2,0,0,1,0,26781.8,0.295243,0.294907,-0.359368,14,0.0176884,10,-0.00010598,-3.44446,-0.00483881,-12.1931,169.395,0.294907,
2,0,0,1,0,26781.8,0.293742,0.293424,-0.542415,14,0.0176766,10,-0.000159158,-3.26567,-0.0100433,-5.87454,103.839,0.293424,
2,0,0,1,0,26781.8,0.292248,0.291922,-0.661092,14,0.0176611,10,-0.000192987,-3.17974,-0.0194696,-3.03037,73.011,0.291922,
2,0,0,1,0,26781.9,0.290748,0.2904,-0.748331,14,0.017643,10,-0.000217315,-3.12591,-0.0294158,-2.00572,56.9922,0.2904,
2,0,0,1,0,26781.9,0.289249,0.288946,-0.820216,14,0.0176228,10,-0.000236998,-3.08607,-0.0433658,-1.36052,43.0902,0.288946,
2,0,0,1,0,26781.9,0.287754,0.287405,-0.884898,14,0.0176011,10,-0.000254324,-3.05311,-0.0596406,-0.98926,33.7277,0.287405,
2,0,0,1,0,26781.9,0.286254,0.285885,-0.930324,14,0.017578,10,-0.000265965,-3.03137,-0.0642059,-0.918918,33.0802,0.285885,
2,0,0,1,0,26782,0.284754,0.284478,-0.972398,14,0.0175538,10,-0.000276625,-3.01216,-0.0713546,-0.826856,31.252,0.284478,
2,0,0,1,0,26782,0.28326,0.282972,-1.01499,14,0.0175286,10,-0.000287213,-2.99354,-0.0936278,-0.630155,24.8617,0.282972,
2,0,0,1,0,26782,0.28176,0.281401,-1.05496,14,0.0175023,10,-0.000296866,-2.97676,-0.11373,-0.518771,21.0962,0.281401,
2,0,0,1,0,26782,0.280261,0.279916,-1.08152,14,0.0174751,10,-0.000302734,-2.96597,-0.112407,-0.52488,22.1171,0.279916,
2,0,0,1,0,26782.1,0.278761,0.278477,-1.11264,14,0.0174473,10,-0.000309845,-2.95365,-0.120619,-0.489142,21.2057,0.278477,
2,0,0,1,0,26782.1,0.277267,0.276966,-1.14029,14,0.0174187,10,-0.000315822,-2.94298,-0.146613,-0.402419,17.9463,0.276966,
2,0,0,1,0,26782.1,0.275766,0.275468,-1.17428,14,0.0173894,10,-0.000323478,-2.93023,-0.17567,-0.335857,15.283,0.275468,
2,0,0,1,0,26782.1,0.274265,0.273952,-1.20127,14,0.0173593,10,-0.000329091,-2.92036,-0.153157,-0.385225,17.9211,0.273952,
2,0,0,1,0,26782.2,0.272771,0.27245,-1.21957,14,0.0173288,10,-0.000332271,-2.91379,-0.17429,-0.338516,16.1288,0.27245,
2,0,0,1,0,26782.2,0.271272,0.27093,-1.24115,14,0.0172975,10,-0.000336264,-2.90618,-0.169839,-0.347387,16.9046,0.27093,
2,0,0,1,0,26782.2,0.269772,0.269471,-1.27354,14,0.0172656,10,-0.000343182,-2.89499,-0.204758,-0.288145,14.269,0.269471,
2,0,0,1,0,26782.2,0.268273,0.267945,-1.29624,14,0.0172331,10,-0.000347321,-2.88731,-0.221854,-0.265941,13.3838,0.2679446,
2,0,0,1,0,26782.3,0.26678,0.266474,-1.30272,14,0.0172003,10,-0.000347142,-2.88515,-0.18592,-0.31734,16.2143,0.266474,
2,0,0,1,0,26782.3,0.265279,0.264956,-1.32707,14,0.0171669,10,-0.000351615,-2.87711,-0.21407,-0.275611,14.3082,0.264956,
2,0,0,1,0,26782.3,0.263778,0.263491,-1.34936,14,0.017133,10,-0.000355545,-2.86987,-0.278291,-0.212008,11.1558,0.2634913,
2,0,0,1,0,26782.3,0.262284,0.261958,-1.37089,14,0.0170987,10,-0.000359116,-2.863,-0.255424,-0.230989,12.2884,0.261958,
2,0,0,1,0,26782.4,0.260784,0.26047,-1.38005,14,0.0170639,10,-0.000359463,-2.8601,-0.21767,-0.271052,14.6647,0.26047,
2,0,0,1,0,26782.4,0.259285,0.259015,-1.39689,14,0.0170286,10,-0.000361816,-2.85484,-0.262265,-0.224964,12.3561,0.259015,
2,0,0,1,0,26782.4,0.257791,0.257479,-1.4242,14,0.016993,10,-0.000366702,-2.84643,-0.309774,-0.190461,10.5363,0.257479,
2,0,0,1,0,26782.4,0.25629,0.255977,-1.44202,14,0.0169568,10,-0.000369126,-2.84103,-0.282748,-0.208667,11.6652,0.255977,
2,0,0,1,0,26782.5,0.254789,0.254516,-1.45449,14,0.0169201,10,-0.000370189,-2.83729,-0.278938,-0.211517,12.0073,0.254516,
2,0,0,1,0,26782.5,0.253296,0.253008,-1.46129,14,0.0168833,10,-0.000369718,-2.83526,-0.373319,-0.158042,9.10017,0.253008,
2,0,0,1,0,26782.5,0.251797,0.251472,-1.4862,14,0.0168459,10,-0.000373738,-2.82792,-0.334274,-0.176502,10.2398,0.251472,
2,0,0,1,0,26782.5,0.250297,0.249951,-1.5066,14,0.0168081,10,-0.000376577,-2.822,-0.358322,-0.164657,9.63528,0.249951,
2,0,0,1,0,26782.6,0.248797,0.248465,-1.51687,14,0.0167699,10,-0.000376889,-2.81905,-0.334829,-0.176209,10.4281,0.248465,
2,0,0,1,0,26782.6,0.247303,0.246973,-1.52566,14,0.0167316,10,-0.000376796,-2.81654,-0.39842,-0.148085,8.8748,0.246973,
2,0,0,1,0,26782.6,0.245802,0.245502,-1.54776,14,0.0166927,10,-0.000379977,-2.8103,-0.367314,-0.160626,9.68052,0.245502,
2,0,0,1,0,26782.6,0.244302,0.244017,-1.56898,14,0.0166533,10,-0.000382858,-2.80438,-0.340594,-0.173227,10.5206,0.244017,
2,0,0,1,0,26782.7,0.242807,0.242483,-1.57561,14,0.0166138,10,-0.000382057,-2.80255,-0.40173,-0.146865,9.03365,0.242483,
2,0,0,1,0,26782.7,0.241308,0.24101,-1.58418,14,0.0165738,10,-0.000381804,-2.80019,-0.41223,-0.143124,8.8932,0.24101,
2,0,0,1,0,26782.7,0.239808,0.239495,-1.60376,14,0.0165335,10,-0.000384093,-2.79486,-0.383045,-0.154029,9.6204,0.239495,
2,0,0,1,0,26782.7,0.238309,0.237985,-1.62161,14,0.0164928,10,-0.000385918,-2.79005,-0.348341,-0.169374,10.684,0.237985,
2,0,0,1,0,26782.8,0.236815,0.236536,-1.62854,14,0.016452,10,-0.000385209,-2.7882,-0.413829,-0.142571,9.06936,0.236536,
2,0,0,1,0,26782.8,0.235315,0.235036,-1.63527,14,0.0164106,10,-0.000384348,-2.78641,-0.435697,-0.135415,8.67938,0.2350361,
2,0,0,1,0,26782.8,0.233814,0.233494,-1.65334,14,0.016369,10,-0.000386045,-2.78164,-0.52468,-0.11245,7.2618,0.233494,
2,0,0,1,0,26782.8,0.23232,0.231995,-1.67148,14,0.0163271,10,-0.000387777,-2.7769,-0.445305,-0.132493,8.63033,0.231995,
2,0,0,1,0,26782.9,0.230821,0.230484,-1.68286,14,0.0162847,10,-0.000387871,-2.77395,-0.478876,-0.123205,8.09214,0.230484,
2,0,0,1,0,26782.9,0.229321,0.229042,-1.69106,14,0.016242,10,-0.000387323,-2.77184,-0.52137,-0.113163,7.50039,0.229042,
2,0,0,1,0,26782.9,0.227827,0.227506,-1.70622,14,0.0161993,10,-0.000388175,-2.76797,-0.630621,-0.0935585,6.24227,0.227506,
2,0,0,1,0,26782.9,0.226326,0.226051,-1.72366,14,0.016156,10,-0.000389636,-2.76355,-0.484831,-0.121692,8.17893,0.226051,
2,0,0,1,0,26783,0.224825,0.224509,-1.73662,14,0.0161124,10,-0.000389888,-2.76029,-0.465563,-0.126728,8.56068,0.224509,
2,0,0,1,0,26783,0.223331,0.223012,-1.74747,14,0.0160686,10,-0.000389706,-2.75759,-0.485597,-0.1215,8.2797,0.223012,
2,0,0,1,0,26783,0.221831,0.221516,-1.75601,14,0.0160244,10,-0.000388984,-2.75547,-0.452132,-0.130493,8.94255,0.2215157,
2,0,0,1,0,26783,0.220333,0.220026,-1.7748,14,0.0159799,10,-0.000390501,-2.75085,-0.392084,-0.150478,10.3816,0.220026,
2,0,0,1,0,26783.1,0.218834,0.21851,-1.7842,14,0.0159349,10,-0.000389865,-2.74856,-0.365435,-0.161451,11.2514,0.21851,
2,0,0,1,0,26783.1,0.217339,0.21704,-1.79384,14,0.0158899,10,-0.000389335,-2.74622,-0.58289,-0.10122,7.11589,0.21704,
2,0,0,1,0,26783.1,0.215839,0.215546,-1.80469,14,0.0158444,10,-0.000388993,-2.7436,-0.71902,-0.0820561,5.79218,0.215546,
2,0,0,1,0,26783.1,0.214338,0.214054,-1.82587,14,0.0157986,10,-0.000390835,-2.73853,-0.369939,-0.159486,11.3073,0.214054,
2,0,0,1,0,26783.2,0.212844,0.212516,-1.83866,14,0.0157527,10,-0.000390743,-2.7355,-0.430173,-0.137154,9.80137,0.212516,
2,0,0,1,0,26783.2,0.211344,0.21106,-1.84418,14,0.0157062,10,-0.000389233,-2.7342,-0.514612,-0.11465,8.25698,0.21106,
2,0,0,1,0,26783.2,0.209845,0.209564,-1.85497,14,0.0156594,10,-0.000388736,-2.73166,-0.813185,-0.0725542,5.26509,0.209564,
2,0,0,1,0,26783.2,0.20835,0.208029,-1.8728,14,0.0156126,10,-0.000389596,-2.72751,-0.42772,-0.137941,10.0975,0.208029,
2,0,0,1,0,26783.3,0.206851,0.206509,-1.88806,14,0.0155652,10,-0.0003899,-2.72398,-0.399182,-0.147802,10.8724,0.206509,
2,0,0,1,0,26783.3,0.20535,0.204997,-1.89548,14,0.0155173,10,-0.000388568,-2.72228,-0.562148,-0.104955,7.77381,0.204997,
2,0,0,1,0,26783.3,0.203856,0.203536,-1.91028,14,0.0154694,10,-0.000388811,-2.7189,-0.812644,-0.0726025,5.42566,0.203536,
2,0,0,1,0,26783.3,0.202356,0.202086,-1.92491,14,0.0154211,10,-0.000388997,-2.71559,-0.589474,-0.100089,7.50415,0.202086,
2,0,0,1,0,26783.4,0.200857,0.200555,-1.94163,14,0.0153724,10,-0.000389404,-2.71183,-0.373996,-0.157756,11.9305,0.200555,
2,0,0,1,0,26783.4,0.199357,0.199038,-1.94426,14,0.0153233,10,-0.000386981,-2.71125,-0.488552,-0.120765,9.20064,0.199038,
2,0,0,1,0,26783.4,0.197863,0.197493,-1.96313,14,0.0152741,10,-0.000387704,-2.70705,-0.646157,-0.091309,7.0025,0.197493,
2,0,0,1,0,26783.4,0.196362,0.196054,-1.98041,14,0.0152244,10,-0.000388267,-2.70324,-0.515712,-0.114405,8.83341,0.196054,
2,0,0,1,0,26783.5,0.194861,0.194571,-1.99097,14,0.0151744,10,-0.000387385,-2.70093,-0.391553,-0.150682,11.7033,0.194571,
2,0,0,1,0,26783.5,0.193367,0.193027,-2.00694,14,0.0151241,10,-0.000387394,-2.69746,-0.40904,-0.14424,11.2966,0.193027,
2,0,0,1,0,26783.5,0.191868,0.191557,-2.02223,14,0.0150733,10,-0.000387372,-2.69417,-0.588592,-0.100239,7.91623,0.191557,
2,0,0,1,0,26783.5,0.190368,0.190054,-2.03604,14,0.0150221,10,-0.000386959,-2.69121,-0.465979,-0.126615,10.0634,0.190054,
2,0,0,1,0,26783.6,0.18887,0.188542,-2.0515,14,0.0149706,10,-0.000386796,-2.68793,-0.357414,-0.165074,13.2212,0.188542,
2,0,0,1,0,26783.6,0.187376,0.187039,-2.06823,14,0.0149188,10,-0.000386839,-2.6844,-0.439813,-0.134148,10.8328,0.187039,
2,0,0,1,0,26783.6,0.185875,0.185575,-2.0882,14,0.0148664,10,-0.000387518,-2.68023,-0.5499,-0.107292,8.72423,0.185575,
2,0,0,1,0,26783.6,0.184374,0.184076,-2.10251,14,0.0148137,10,-0.000387022,-2.67726,-0.485574,-0.121506,9.95702,0.184076,
2,0,0,1,0,26783.7,0.18288,0.182575,-2.12074,14,0.0147607,10,-0.000387194,-2.67351,-0.33446,-0.176404,14.5982,0.182575,
2,0,0,1,0,26783.7,0.18138,0.181052,-2.13219,14,0.014707,10,-0.000386039,-2.67117,-0.389477,-0.151485,12.6547,0.1810524,
2,0,0,1,0,26783.7,0.179881,0.179566,-2.15452,14,0.0146528,10,-0.00038688,-2.66665,-0.524347,-0.112521,9.47257,0.179566,
2,0,0,1,0,26783.7,0.178387,0.178047,-2.18104,14,0.0145984,10,-0.000388327,-2.66134,-0.404597,-0.145824,12.3831,0.178047,
2,0,0,1,0,26783.8,0.176886,0.176575,-2.20099,14,0.0145433,10,-0.000388641,-2.65738,-0.336425,-0.175374,15.0547,0.176575,
2,0,0,1,0,26783.8,0.175385,0.175021,-2.21618,14,0.0144877,10,-0.000387877,-2.6544,-0.304788,-0.193577,16.7827,0.175021,
2,0,0,1,0,26783.8,0.173892,0.17356,-2.24055,14,0.0144317,10,-0.00038887,-2.64964,-0.370211,-0.159368,13.9483,0.17356,
2,0,0,1,0,26783.8,0.172392,0.172018,-2.27392,14,0.0143749,10,-0.000391155,-2.64323,-0.313982,-0.187909,16.6002,0.172018,
2,0,0,1,0,26783.9,0.170893,0.170561,-2.29204,14,0.0143175,10,-0.000390932,-2.63978,-0.278662,-0.211726,18.9506,0.170561,
2,0,0,1,0,26783.9,0.169393,0.16911,-2.30606,14,0.0142594,10,-0.000389979,-2.63713,-0.255453,-0.230962,20.931,0.16911,
2,0,0,1,0,26783.9,0.167899,0.167558,-2.34872,14,0.0142009,10,-0.000393547,-2.62917,-0.286683,-0.205802,18.8758,0.167558,
2,0,0,1,0,26783.9,0.166398,0.166073,-2.38228,14,0.0141413,10,-0.000395631,-2.62301,-0.28386,-0.207849,19.3066,0.166073,
2,0,0,1,0,26784,0.164898,0.164557,-2.4053,14,0.014081,10,-0.000395809,-2.61883,-0.239449,-0.246399,23.188,0.1645567,
2,0,0,1,0,26784,0.163403,0.163091,-2.44038,14,0.0140202,10,-0.000398003,-2.61254,-0.221232,-0.266688,25.4719,0.163091,
2,0,0,1,0,26784,0.161904,0.161557,-2.48356,14,0.0139582,10,-0.000401235,-2.60493,-0.23225,-0.254037,24.6356,0.161557,
2,0,0,1,0,26784,0.160404,0.160061,-2.52877,14,0.0138952,10,-0.000404757,-2.59709,-0.210044,-0.280893,27.6372,0.160061,
2,0,0,1,0,26784.1,0.158905,0.158594,-2.5655,14,0.0138311,10,-0.000406871,-2.59083,-0.187265,-0.315061,31.5635,0.158594,
2,0,0,1,0,26784.1,0.157411,0.157046,-2.61482,14,0.0137662,10,-0.000410648,-2.58256,-0.175111,-0.336929,34.5054,0.157046,
2,0,0,1,0,26784.1,0.155911,0.155572,-2.664,14,0.0136998,10,-0.000414444,-2.57447,-0.170513,-0.346014,36.0639,0.155572,
2,0,0,1,0,26784.1,0.15441,0.154084,-2.73121,14,0.0136318,10,-0.000420836,-2.56364,-0.162734,-0.362554,38.5413,0.154084,
2,0,0,1,0,26784.2,0.152916,0.152584,-2.79146,14,0.0135626,10,-0.000425933,-2.55417,-0.143597,-0.410873,44.8292,0.152584,
2,0,0,1,0,26784.2,0.151417,0.151079,-2.85351,14,0.0134917,10,-0.000431106,-2.54462,-0.135053,-0.436866,48.909,0.151079,
2,0,0,1,0,26784.2,0.149917,0.149578,-2.93534,14,0.0134188,10,-0.000439063,-2.53234,-0.126031,-0.46814,53.7956,0.1495782,
2,0,0,1,0,26784.2,0.148423,0.148112,-3.02645,14,0.0133442,10,-0.000448255,-2.51907,-0.118248,-0.498953,58.891,0.148112,
2,0,0,1,0,26784.3,0.146922,0.146592,-3.11865,14,0.013267,10,-0.000457168,-2.50603,-0.106793,-0.552468,67.2312,0.1465915,
2,0,0,1,0,26784.3,0.145421,0.145082,-3.21403,14,0.0131874,10,-0.000466297,-2.49295,-0.10209,-0.577923,72.7525,0.145082,
2,0,0,1,0,26784.3,0.143927,0.143601,-3.33275,14,0.0131055,10,-0.000478586,-2.4772,-0.0958969,-0.615244,80.1458,0.143601,
2,0,0,1,0,26784.3,0.142429,0.142099,-3.45541,14,0.0130201,10,-0.000491011,-2.4615,-0.0923158,-0.63911,86.3605,0.142099,
2,0,0,1,0,26784.4,0.140929,0.140584,-3.58915,14,0.0129316,10,-0.000504578,-2.44501,-0.088809,-0.664347,93.1887,0.140584,
2,0,0,1,0,26784.4,0.13943,0.139115,-3.72673,14,0.0128395,10,-0.000518443,-2.42867,-0.085767,-0.68791,100.474,0.139115,
2,0,0,1,0,26784.4,0.137935,0.137621,-3.88184,14,0.0127443,10,-0.000534222,-2.41096,-0.0878429,-0.671654,101.959,0.137621,
2,0,0,1,0,26784.4,0.136435,0.136071,-4.05361,14,0.0126446,10,-0.000551581,-2.39216,-0.0862499,-0.684059,107.931,0.136071,
2,0,0,1,0,26784.5,0.134934,0.134637,-4.21335,14,0.0125409,10,-0.000567272,-2.37537,-0.090462,-0.652207,107.075,0.134637,
2,0,0,1,0,26784.5,0.13344,0.133067,-4.36257,14,0.0124336,10,-0.000580512,-2.36026,-0.089297,-0.660717,112.862,0.133067,
2,0,0,1,0,26784.5,0.13194,0.131654,-4.54397,14,0.0123217,10,-0.000598233,-2.34256,-0.0922233,-0.639752,113.526,0.131654,
2,0,0,1,0,26784.5,0.13044,0.130118,-4.71777,14,0.0122055,10,-0.000613868,-2.32626,-0.0954299,-0.618255,113.668,0.130118,
2,0,0,1,0,26784.6,0.128941,0.128631,-4.89073,14,0.0120849,10,-0.000629102,-2.31063,-0.101168,-0.583187,110.929,0.128631,
2,0,0,1,0,26784.6,0.127447,0.127114,-5.04657,14,0.0119607,10,-0.000641488,-2.297,-0.109164,-0.540472,106.303,0.127114,
2,0,0,1,0,26784.6,0.125946,0.125653,-5.20078,14,0.0118322,10,-0.000653494,-2.28393,-0.119088,-0.49543,100.456,0.125653,
2,0,0,1,0,26784.6,0.124446,0.124141,-5.35842,14,0.0116998,10,-0.000665199,-2.27096,-0.125817,-0.468934,97.7856,0.124141,
2,0,0,1,0,26784.7,0.122952,0.122631,-5.49738,14,0.0115642,10,-0.000674151,-2.25984,-0.132715,-0.444562,95.1498,0.122631,
2,0,0,1,0,26784.7,0.121453,0.121152,-5.6252,14,0.0114246,10,-0.000681504,-2.24986,-0.14662,-0.402402,88.3316,0.121152,
2,0,0,1,0,26784.7,0.119953,0.119665,-5.75032,14,0.0112818,10,-0.00068811,-2.24031,-0.164221,-0.359273,80.625,0.119665,
2,0,0,1,0,26784.7,0.118459,0.118155,-5.87954,14,0.0111365,10,-0.000694697,-2.23066,-0.177139,-0.333072,76.2391,0.118155,
2,0,0,1,0,26784.8,0.116958,0.116632,-5.989,14,0.0109878,10,-0.000698511,-2.22265,-0.193949,-0.304204,70.902,0.116632,
2,0,0,1,0,26784.8,0.115457,0.115112,-6.08308,14,0.0108364,10,-0.000700233,-2.21588,-0.233305,-0.252888,59.9431,0.1151115,
2,0,0,1,0,26784.8,0.113963,0.113663,-6.16907,14,0.0106833,10,-0.000701194,-2.20978,-0.257625,-0.229015,55.136,0.113663,
2,0,0,1,0,26784.8,0.112464,0.112159,-6.2553,14,0.0105276,10,-0.00070159,-2.20375,-0.283358,-0.208217,50.7292,0.112159,
2,0,0,1,0,26784.9,0.110965,0.110641,-6.32229,14,0.01037,10,-0.000699503,-2.19913,-0.318673,-0.185143,45.6019,0.110641,
2,0,0,1,0,26784.9,0.109466,0.109145,-6.37783,14,0.0102106,10,-0.000696109,-2.19533,-0.391203,-0.150817,37.5077,0.109145,
2,0,0,1,0,26784.9,0.107972,0.107674,-6.43066,14,0.0100506,10,-0.000692414,-2.19174,-0.528416,-0.111655,28.002,0.107674,
2,0,0,1,0,26784.9,0.106471,0.106121,-6.47227,14,0.00988884,10,-0.000686843,-2.18894,-0.716753,-0.0823157,20.7634,0.106121,
2,0,0,1,0,26785,0.10497,0.104665,-6.50754,14,0.00972621,10,-0.00068111,-2.18658,-0.897155,-0.0657635,16.6461,0.104665,
2,0,0,1,0,26785,0.103476,0.103139,-6.51963,14,0.00956358,10,-0.000672425,-2.18578,-1.6197,-0.0364265,9.2549,0.103139,
2,0,0,1,0,26785,0.101976,0.101686,-6.52432,14,0.00940007,10,-0.000663434,-2.18546,6.11636,0.00964626,-2.45419,0.101686,
2,0,0,1,0,26785,0.100477,0.100186,-6.51872,14,0.00923659,10,-0.000653087,-2.18584,1.91612,0.0307913,-7.82298,0.100186,
2,0,0,1,0,26785.1,0.0989825,0.0986884,-6.51124,14,0.009074,10,-0.000642584,-2.18634,1.56488,0.0377025,-9.55634,0.0986884,
2,0,0,1,0,26785.1,0.0974817,0.0971423,-6.48086,14,0.00891121,10,-0.000629565,-2.18837,0.943795,0.0625136,-15.7939,0.0971423,
2,0,0,1,0,26785.1,0.0959822,0.0956887,-6.44855,14,0.00874909,10,-0.000617053,-2.19054,0.555031,0.1063,-26.7258,0.0956887,
2,0,0,1,0,26785.1,0.094488,0.0942165,-6.41045,14,0.00858857,10,-0.00060397,-2.19311,0.503549,0.117168,-29.2689,0.0942165,
2,0,0,1,0,26785.2,0.0929884,0.0926609,-6.36099,14,0.00842857,10,-0.000589415,-2.19648,0.493026,0.119669,-29.6912,0.0926609,
2,0,0,1,0,26785.2,0.0914889,0.0911826,-6.3081,14,0.0082697,10,-0.000575189,-2.2001,0.448735,0.131481,-32.3779,0.0911826,
2,0,0,1,0,26785.2,0.0899894,0.0896786,-6.25347,14,0.00811219,10,-0.000560802,-2.20388,0.356587,0.165458,-40.3485,0.0896786,
2,0,0,1,0,26785.2,0.0884951,0.0881873,-6.18933,14,0.0079567,10,-0.000545821,-2.20836,0.347457,0.169805,-41.0522,0.0881873,
2,0,0,1,0,26785.3,0.0869943,0.0866862,-6.13689,14,0.0078022,10,-0.000531984,-2.21205,0.35682,0.165349,-39.5908,0.0866862,
2,0,0,1,0,26785.3,0.0854935,0.085159,-6.07421,14,0.00764912,10,-0.000517274,-2.21651,0.370725,0.159148,-37.7503,0.085159,
2,0,0,1,0,26785.3,0.0839993,0.0836774,-6.0117,14,0.00749812,10,-0.000503043,-2.221,0.341539,0.172747,-40.5804,0.0836774,
2,0,0,1,0,26785.3,0.0824997,0.0821688,-5.96962,14,0.00734793,10,-0.000490517,-2.22405,0.352404,0.167422,-38.9506,0.0821688,
2,0,0,1,0,26785.4,0.0810002,0.0807086,-5.90715,14,0.00719918,10,-0.000476758,-2.22862,0.415331,0.142055,-32.7852,0.0807086,
2,0,0,1,0,26785.4,0.0795007,0.0791945,-5.85179,14,0.00705174,10,-0.00046343,-2.23271,0.474052,0.124459,-28.4712,0.0791945,
2,0,0,1,0,26785.4,0.0780078,0.0776898,-5.80701,14,0.00690601,10,-0.000451146,-2.23605,0.473011,0.124733,-28.33,0.0776898,
2,0,0,1,0,26785.4,0.076507,0.0761997,-5.77584,14,0.00676074,10,-0.000440118,-2.23838,0.452297,0.130445,-29.3853,0.0761997,
2,0,0,1,0,26785.5,0.0750062,0.0746979,-5.73329,14,0.00661651,10,-0.000428264,-2.2416,0.537434,0.109781,-24.5508,0.0746979,
2,0,0,1,0,26785.5,0.073512,0.073182,-5.69073,14,0.00647384,10,-0.000416459,-2.24483,0.650324,0.090724,-20.1716,0.073182,
2,0,0,1,0,26785.5,0.0720124,0.0717087,-5.65446,14,0.00633147,10,-0.000405474,-2.24761,0.581082,0.101535,-22.4483,0.0717087,
2,0,0,1,0,26785.5,0.0705129,0.0702376,-5.62958,14,0.00618993,10,-0.000395409,-2.24952,0.534284,0.110428,-24.2447,0.0702376,
2,0,0,1,0,26785.6,0.0690187,0.0687095,-5.59763,14,0.00604973,10,-0.00038461,-2.252,0.68554,0.0860635,-18.7872,0.0687095,
2,0,0,1,0,26785.6,0.0675179,0.0671777,-5.5673,14,0.00590981,10,-0.000373998,-2.25436,0.783766,0.0752775,-16.3636,0.06717772,
2,0,0,1,0,26785.6,0.066017,0.0657065,-5.54017,14,0.00577056,10,-0.000364025,-2.25648,0.683482,0.0863227,-18.6599,0.0657065,
2,0,0,1,0,26785.6,0.0645242,0.0641663,-5.51403,14,0.00563252,10,-0.000353815,-2.25853,0.608144,0.0970165,-20.8469,0.0641663,
2,0,0,1,0,26785.7,0.0630246,0.0626976,-5.48501,14,0.00549465,10,-0.000343897,-2.26082,0.683857,0.0862754,-18.4602,0.0626976,
2,0,0,1,0,26785.7,0.0615251,0.0612261,-5.44639,14,0.00535759,10,-0.000333461,-2.26389,0.708143,0.0833165,-17.7446,0.0612261,
2,0,0,1,0,26785.7,0.0600256,0.059671,-5.4188,14,0.00522119,10,-0.000323345,-2.2661,0.640498,0.0921159,-19.5086,0.059671,
2,0,0,1,0,26785.7,0.0585314,0.0581949,-5.39351,14,0.00508601,10,-0.000313875,-2.26813,0.562774,0.104838,-22.0657,0.0581949,
2,0,0,1,0,26785.8,0.0570305,0.0567204,-5.3705,14,0.004951,10,-0.000304617,-2.26998,0.66594,0.0885966,-18.5509,0.0567204,
2,0,0,1,0,26785.8,0.0555297,0.0552142,-5.33512,14,0.00481681,10,-0.000294575,-2.27286,0.667802,0.0883495,-18.4142,0.0552142,
2,0,0,1,0,26785.8,0.0540355,0.0537042,-5.30691,14,0.00468392,10,-0.000285003,-2.27516,0.628113,0.0939321,-19.4698,0.0537042,
2,0,0,1,0,26785.8,0.052536,0.0521968,-5.28566,14,0.00455107,10,-0.000275894,-2.2769,0.62185,0.0948781,-19.5364,0.0521968,
2,0,0,1,0,26785.9,0.0510364,0.0507366,-5.25439,14,0.00441897,10,-0.00026659,-2.27948,0.530772,0.111159,-22.7594,0.0507366,
2,0,0,1,0,26785.9,0.0495369,0.0492279,-5.21591,14,0.00428772,10,-0.000256768,-2.28267,0.593247,0.0994527,-20.2604,0.0492279,
2,0,0,1,0,26785.9,0.0480427,0.0477265,-5.18124,14,0.00415782,10,-0.000247282,-2.28557,0.620289,0.0951169,-19.2497,0.04772649,
2,0,0,1,0,26785.9,0.0465432,0.0462191,-5.15594,14,0.00402817,10,-0.000238303,-2.28769,0.544907,0.108275,-21.7715,0.0462191,
2,0,0,1,0,26786,0.0450424,0.0446939,-5.12874,14,0.00389925,10,-0.000229223,-2.28999,0.534498,0.110384,-22.0295,0.0446939,
2,0,0,1,0,26786,0.0435482,0.0432319,-5.07667,14,0.00377169,10,-0.000219474,-2.29442,0.55297,0.106697,-21.1827,0.0432319,
2,0,0,1,0,26786,0.0420486,0.041756,-5.04893,14,0.00364457,10,-0.000210823,-2.2968,0.491882,0.119948,-23.6769,0.041756,
2,0,0,1,0,26786,0.0405491,0.0402252,-5.02222,14,0.00351821,10,-0.000202019,-2.2991,0.502301,0.117459,-22.9931,0.0402252,
2,0,0,1,0,26786.1,0.0390549,0.0387188,-4.98809,14,0.00339315,10,-0.000193133,-2.30207,0.463201,0.127374,-24.7605,0.0387188,
2,0,0,1,0,26786.1,0.0375541,0.0372018,-4.94298,14,0.0032685,10,-0.000183888,-2.30601,0.468855,0.125838,-24.3025,0.0372018,
2,0,0,1,0,26786.1,0.0360532,0.0357424,-4.90551,14,0.00314491,10,-0.000175335,-2.30932,0.409526,0.144069,-27.6163,0.0357424,
2,0,0,1,0,26786.1,0.034559,0.0342155,-4.87567,14,0.00302271,10,-0.000166823,-2.31197,0.43835,0.134596,-25.5799,0.0342155,
2,0,0,1,0,26786.2,0.0330595,0.0327455,-4.83587,14,0.00290094,10,-0.000158353,-2.31553,0.431557,0.136714,-25.7609,0.0327455,
2,0,0,1,0,26786.2,0.0315613,0.0311943,-4.79066,14,0.00278014,10,-0.000149441,-2.3196,0.403361,0.146271,-27.3382,0.0311943,
2,0,0,1,0,26786.2,0.0300618,0.0297516,-4.74524,14,0.00266044,10,-0.000141179,-2.32374,0.370989,0.159034,-29.5023,0.0297516,
2,0,0,1,0,26786.2,0.0285676,0.0282388,-4.70586,14,0.00254228,10,-0.000132888,-2.32736,0.391411,0.150737,-27.6919,0.0282388,
2,0,0,1,0,26786.3,0.0270667,0.0267586,-4.67352,14,0.00242464,10,-0.000125057,-2.33036,0.412749,0.142944,-26.0159,0.0267586,
2,0,0,1,0,26786.3,0.0255659,0.0252668,-4.62633,14,0.00230798,10,-0.000116892,-2.33476,0.370433,0.159273,-28.732,0.02526675,
2,0,0,1,0,26786.3,0.0240717,0.023734,-4.57535,14,0.00219292,10,-0.000108591,-2.33958,0.368929,0.159922,-28.6343,0.023734,
2,0,0,1,0,26786.3,0.0225722,0.0223068,-4.54323,14,0.00207849,10,-0.000101345,-2.34264,0.364629,0.161808,-28.67,0.0223068,
2,0,0,1,0,26786.4,0.0210726,0.0207476,-4.50499,14,0.00196498,10,-9.34678e-05,-2.34631,0.406398,0.145178,-25.4994,0.0207476,
2,0,0,1,0,26786.4,0.0195784,0.0192716,-4.46174,14,0.00185291,10,-8.59848e-05,-2.3505,0.423668,0.13926,-24.2512,0.0192716,
2,0,0,1,0,26786.4,0.0180789,0.0177516,-4.41786,14,0.00174139,10,-7.84242e-05,-2.35479,0.396189,0.148919,-25.7061,0.0177516,
2,0,0,1,0,26786.4,0.0165781,0.0162505,-4.38816,14,0.00163088,10,-7.13098e-05,-2.35772,0.403702,0.146148,-25.0403,0.0162505,
2,0,0,1,0,26786.5,0.0150839,0.0147524,-4.35565,14,0.00152164,10,-6.42561e-05,-2.36095,0.465142,0.126843,-21.5531,0.0147524,
2,0,0,1,0,26786.5,0.0135844,0.0132656,-4.31969,14,0.00141272,10,-5.73034e-05,-2.36455,0.471166,0.125221,-21.1058,0.01326562,
2,0,0,1,0,26786.5,0.0120848,0.0117621,-4.27931,14,0.00130463,10,-5.03336e-05,-2.36863,0.428224,0.137778,-23.0937,0.0117621,
2,0,0,1,0,26786.5,0.0105853,0.0102821,-4.25336,14,0.00119747,10,-4.37333e-05,-2.37127,0.427793,0.137917,-22.9299,0.0102821,
2,0,0,1,0,26786.6,0.00909108,0.00874869,-4.23092,14,0.0010914,10,-3.7015e-05,-2.37357,0.579015,0.101897,-16.8229,0.00874869,
2,0,0,1,0,26786.6,0.00759027,0.00726515,-4.20506,14,0.000985557,10,-3.05504e-05,-2.37623,0.685199,0.0861063,-14.1256,0.00726515,
2,0,0,1,0,26786.6,0.00608945,0.00577157,-4.18258,14,0.000880324,10,-2.414e-05,-2.37856,0.589168,0.100141,-16.3441,0.00577157,
2,0,0,1,0,26786.6,0.00459523,0.00424841,-4.16112,14,0.000776159,10,-1.76781e-05,-2.38079,0.616207,0.0957471,-15.53,0.00424841,
2,0,0,1,0,26786.7,0.0030957,0.00278178,-4.14186,14,0.000672021,10,-1.15217e-05,-2.3828,3.05661,0.0193024,-3.12603,0.00278178,
2,0,0,1,0,26786.7,0.00159616,0.00125273,-4.15477,14,0.000567838,10,-5.20481e-06,-2.38145, , , ,0.00125273,
2,0,0,1,0,26786.7,0.000199195,-0.000157355,-4.12455,14,0.000470985,10,6.4902e-07,-2.38462, , , ,-0.000157355,