File: Figure_codes/Fig_3-5/rawdata_trumpetplot_data/after 10th/20221101_1-115_003_TrumpetPlot_ParaChange_from10_every3_03_CV_C01_15.csv
mode,ox/red,error,control changes,counter inc.,time/s,control/V,Ewe/V,<I>/mA,cycle number,(Q-Qo)/C,I Range,P/W,log(|I|),Tafel slope mV/dec,alpha_eff,dI/d(E-IR),E-IR/V,
2,0,0,1,0,30492,2.44065e-05,-0.000382585,-0.105754,16,0.0000000E+000,10,4.04601e-08,-3.9757, , , ,-0.000382585,
2,1,0,0,0,30492.2,0.00129787,0.000933379,0.131407,16,2.22891e-05,10,1.22653e-07,-3.88138, , , ,0.000933379,
2,1,0,0,0,30492.5,0.00279606,0.00250172,0.173159,16,7.39129e-05,10,4.33195e-07,-3.76156,0.0157437,3.74753,20.7123,0.00250172,
2,1,0,1,0,30492.8,0.00429469,0.00399619,0.183041,16,0.000131584,10,7.31468e-07,-3.73745,0.0631819,0.933812,6.67766,0.00399619,
2,1,0,1,0,30493.1,0.00579255,0.00547201,0.192763,16,0.00019252,10,1.0548e-06,-3.71498,0.0668139,0.88305,6.66179,0.00547201,
2,1,0,1,0,30493.4,0.00729041,0.00697332,0.20421,16,0.000256327,10,1.42402e-06,-3.68992,0.081721,0.721969,5.67954,0.00697332,
2,1,0,1,0,30493.7,0.00878882,0.0085015,0.211259,16,0.000322839,10,1.79602e-06,-3.67518,0.0997066,0.591736,4.85336,0.0085015,
2,1,0,1,0,30494,0.010287,0.00995638,0.218298,16,0.000391612,10,2.17346e-06,-3.66095,0.121204,0.486783,4.12001,0.00995638,
2,1,0,1,0,30494.3,0.0117852,0.0114685,0.223553,16,0.000462274,10,2.56383e-06,-3.65062,0.131234,0.449579,3.94033,0.0114685,
2,1,0,1,0,30494.6,0.0132836,0.0129735,0.230354,16,0.000534557,10,2.9885e-06,-3.6376,0.139314,0.423504,3.83723,0.0129735,
2,1,0,1,0,30494.9,0.0147815,0.0144779,0.236014,16,0.000608847,10,3.41699e-06,-3.62706,0.135677,0.434857,4.00352,0.01447791,
2,1,0,1,0,30495.2,0.0162793,0.0159652,0.241358,16,0.000684982,10,3.85333e-06,-3.61734,0.159144,0.370733,3.48249,0.0159652,
2,1,0,0,0,30495.5,0.017778,0.0174386,0.24731,16,0.000762719,10,4.31273e-06,-3.60676,0.16657,0.354205,3.41821,0.0174386,
2,1,0,0,0,30495.8,0.0192761,0.0189147,0.253773,16,0.000841845,10,4.80004e-06,-3.59555,0.166889,0.353529,3.47828,0.0189147,
2,1,0,1,0,30496.1,0.0207747,0.0204824,0.258283,16,0.000922772,10,5.29026e-06,-3.5879,0.153183,0.385161,3.86764,0.0204824,
2,1,0,1,0,30496.4,0.0222725,0.0219243,0.263801,16,0.00100536,10,5.78365e-06,-3.57872,0.164502,0.358658,3.67691,0.0219243,
2,1,0,1,0,30496.7,0.0237704,0.0235218,0.26856,16,0.00108953,10,6.31702e-06,-3.57096,0.167532,0.352172,3.70593,0.0235218,
2,1,0,1,0,30497,0.0252689,0.0249993,0.272345,16,0.00117504,10,6.80842e-06,-3.56488,0.178469,0.330589,3.54034,0.0249993,
2,1,0,1,0,30497.3,0.0267671,0.0264627,0.279634,16,0.00126235,10,7.39986e-06,-3.55341,0.152128,0.387832,4.224,0.0264627,
2,1,0,1,0,30497.6,0.0282657,0.0279636,0.285838,16,0.0013515,10,7.99306e-06,-3.54388,0.162619,0.36281,4.03829,0.0279636,
2,1,0,1,0,30497.9,0.0297635,0.029436,0.2907,16,0.00144219,10,8.55704e-06,-3.53656,0.215681,0.273552,3.10387,0.029436,
2,1,0,1,0,30498.2,0.0312613,0.0309446,0.294172,16,0.00153442,10,9.10303e-06,-3.5314,0.177553,0.332296,3.8392,0.0309446,
2,1,0,0,0,30498.5,0.0327599,0.0324296,0.302828,16,0.00162817,10,9.8206e-06,-3.5188,0.19195,0.307371,3.61375,0.0324296,
2,1,0,0,0,30498.8,0.034258,0.0339947,0.306895,16,0.00172373,10,1.04328e-05,-3.51301,0.181497,0.325073,3.89296,0.0339947,
2,1,0,1,0,30499.1,0.0357567,0.0354374,0.313257,16,0.00182104,10,1.1101e-05,-3.5041,0.216777,0.272169,3.31255,0.0354374,
2,1,0,1,0,30499.4,0.0372545,0.0369352,0.317905,16,0.00191993,10,1.17419e-05,-3.4977,0.201885,0.292245,3.64162,0.0369352,
2,1,0,1,0,30499.7,0.0387524,0.0384365,0.32866,16,0.00202056,10,1.26326e-05,-3.48325,0.20811,0.283503,3.59129,0.0384365,
2,1,0,1,0,30500,0.0402508,0.0399012,0.32833,16,0.00212302,10,1.31008e-05,-3.48369,0.255559,0.230866,2.97045,0.0399012,
2,1,0,1,0,30500.3,0.041749,0.0414133,0.333237,16,0.00222665,10,1.38005e-05,-3.47725,0.283173,0.208353,2.71345,0.0414133,
2,1,0,1,0,30500.6,0.0432472,0.0429255,0.339048,16,0.00233167,10,1.45538e-05,-3.46974,0.235865,0.250143,3.30289,0.0429255,
2,1,0,1,0,30500.9,0.0447456,0.044459,0.34351,16,0.002438,10,1.52721e-05,-3.46406,0.223651,0.263804,3.53703,0.044459,
2,1,0,1,0,30501.2,0.0462435,0.0459348,0.349494,16,0.00254604,10,1.60539e-05,-3.45656,0.209906,0.281078,3.82122,0.0459348,
2,1,0,1,0,30501.5,0.0477413,0.0474211,0.354206,16,0.0026558,10,1.67968e-05,-3.45074,0.237929,0.247973,3.42634,0.0474211,
2,1,0,0,0,30501.8,0.0492399,0.0488977,0.35868,16,0.00276698,10,1.75386e-05,-3.44529,0.278416,0.211913,2.97096,0.0488977,
2,1,0,0,0,30502.1,0.0507381,0.0503663,0.362121,16,0.0028793,10,1.82387e-05,-3.44115,0.270478,0.218132,3.10396,0.05036635,
2,1,0,1,0,30502.4,0.0522367,0.0518938,0.367191,16,0.00299317,10,1.90549e-05,-3.43511,0.220735,0.267289,3.83556,0.0518938,
2,1,0,1,0,30502.7,0.0537345,0.0533946,0.37438,16,0.00310873,10,1.99899e-05,-3.42669,0.264627,0.222955,3.24127,0.0533946,
2,1,0,1,0,30503,0.0552323,0.0549149,0.378224,16,0.0032257,10,2.07701e-05,-3.42225,0.358612,0.164523,2.41683,0.0549149,
2,1,0,1,0,30503.3,0.0567309,0.0563672,0.379529,16,0.00334383,10,2.1393e-05,-3.42075,0.362929,0.162566,2.41957,0.0563672,
2,1,0,1,0,30503.6,0.0582291,0.0579228,0.385697,16,0.00346288,10,2.23406e-05,-3.41375,0.325346,0.181345,2.72864,0.0579228,
2,1,0,1,0,30503.9,0.0597277,0.0593814,0.39004,16,0.00358361,10,2.31611e-05,-3.40889,0.27011,0.218429,3.32917,0.0593814,
2,1,0,1,0,30504.2,0.0612255,0.0609268,0.393924,16,0.00370561,10,2.40005e-05,-3.40459,0.514652,0.114641,1.75828,0.0609268,
2,1,0,1,0,30504.5,0.0627233,0.0624112,0.397862,16,0.00382884,10,2.4831e-05,-3.40027,0.335344,0.175939,2.74078,0.0624112,
2,1,0,0,0,30504.8,0.0642218,0.0639385,0.40163,16,0.00395276,10,2.56796e-05,-3.39617,0.342755,0.172135,2.7042,0.0639385,
2,1,0,0,0,30505.1,0.06572,0.0653934,0.404969,16,0.0040783,10,2.64823e-05,-3.39258,0.314853,0.187389,2.96419,0.0653934,
2,1,0,1,0,30505.4,0.0672187,0.0668774,0.410754,16,0.00420517,10,2.74702e-05,-3.38642,0.38583,0.152917,2.44342,0.06687744,
2,1,0,1,0,30505.7,0.0687165,0.0684158,0.413911,16,0.00433301,10,2.8318e-05,-3.38309,0.472583,0.124846,2.01315,0.0684158,
2,1,0,1,0,30506,0.0702144,0.0698531,0.41581,16,0.00446149,10,2.90457e-05,-3.3811,0.418407,0.141011,2.29467,0.0698531,
2,1,0,1,0,30506.3,0.0717128,0.0714038,0.419574,16,0.00459116,10,2.99592e-05,-3.37719,0.411938,0.143226,2.34017,0.0714038,
2,1,0,1,0,30506.6,0.073211,0.0728703,0.423159,16,0.00472203,10,3.08357e-05,-3.3735,0.419798,0.140544,2.31716,0.0728703,
2,1,0,1,0,30506.9,0.0747092,0.0743877,0.425061,16,0.00485365,10,3.16193e-05,-3.37155,0.524266,0.112538,1.87224,0.0743877,
2,1,0,1,0,30507.2,0.0762076,0.0758725,0.427087,16,0.00498594,10,3.24041e-05,-3.36948,0.520228,0.113412,1.9013,0.0758725,
2,1,0,1,0,30507.5,0.0777054,0.0773865,0.431522,16,0.0051193,10,3.33939e-05,-3.365,0.419907,0.140507,2.36994,0.0773865,
2,1,0,1,0,30507.8,0.0792033,0.078908,0.435832,16,0.0052537,10,3.43906e-05,-3.36068,0.587043,0.100504,1.70439,0.078908,
2,1,0,0,0,30508.1,0.0807019,0.0804109,0.438489,16,0.00538915,10,3.52593e-05,-3.35804,0.569795,0.103546,1.76485,0.0804109,
2,1,0,0,0,30508.4,0.0822001,0.0818933,0.439076,16,0.00552528,10,3.59574e-05,-3.35746,0.4494,0.131286,2.26217,0.0818933,
2,1,0,1,0,30508.7,0.0836986,0.0833483,0.446138,16,0.00566252,10,3.71849e-05,-3.35053,0.414958,0.142183,2.4711,0.0833483,
2,1,0,1,0,30509,0.0851965,0.0848953,0.44881,16,0.00580112,10,3.81018e-05,-3.34794,0.463064,0.127412,2.23928,0.0848953,
2,1,0,1,0,30509.3,0.0866944,0.0863561,0.452107,16,0.00594077,10,3.90422e-05,-3.34476,0.462644,0.127528,2.25165,0.0863561,
2,1,0,1,0,30509.6,0.0881929,0.0878549,0.457447,16,0.00608166,10,4.0189e-05,-3.33966,0.351553,0.167827,2.99877,0.0878549,
2,1,0,1,0,30509.9,0.0896911,0.0893798,0.461505,16,0.00622353,10,4.12492e-05,-3.33582,0.284911,0.207082,3.74242,0.0893798,
2,1,0,1,0,30510.2,0.0911897,0.0908415,0.468032,16,0.0063673,10,4.25167e-05,-3.32972,0.254021,0.232264,4.2298,0.0908415,
2,1,0,1,0,30510.5,0.0926875,0.0923809,0.473396,16,0.00651306,10,4.37327e-05,-3.32478,0.258165,0.228536,4.2199,0.0923809,
2,1,0,1,0,30510.8,0.0941853,0.0938917,0.479644,16,0.00666037,10,4.50346e-05,-3.31908,0.256836,0.229718,4.30807,0.09389168,
2,1,0,0,0,30511.1,0.0956838,0.0953265,0.486182,16,0.00680956,10,4.63461e-05,-3.3132,0.214108,0.275562,5.23881,0.0953265,
2,1,0,0,0,30511.4,0.097182,0.0968471,0.493417,16,0.00696105,10,4.7786e-05,-3.30679,0.188798,0.312504,6.03033,0.0968471,
2,1,0,1,0,30511.7,0.0986807,0.0983481,0.502848,16,0.00711505,10,4.94542e-05,-3.29856,0.206466,0.285762,5.60394,0.0983481,
2,1,0,1,0,30512,0.100179,0.0998673,0.510573,16,0.00727159,10,5.09895e-05,-3.29194,0.223218,0.264316,5.27044,0.0998673,
2,1,0,1,0,30512.3,0.101676,0.101362,0.516403,16,0.00743031,10,5.23437e-05,-3.28701,0.215207,0.274154,5.5626,0.101362,
2,1,0,1,0,30512.6,0.103175,0.102844,0.528989,16,0.00759149,10,5.44032e-05,-3.27655,0.20513,0.287622,5.93217,0.102844,
2,1,0,1,0,30512.9,0.104673,0.104327,0.538842,16,0.00775555,10,5.62159e-05,-3.26854,0.214028,0.275665,5.77114,0.104327,
2,1,0,1,0,30513.2,0.106171,0.105875,0.544885,16,0.00792248,10,5.769e-05,-3.26369,0.237209,0.248726,5.2748,0.105875,
2,1,0,1,0,30513.5,0.10767,0.107365,0.551496,16,0.00809171,10,5.92111e-05,-3.25846,0.238595,0.247281,5.3403,0.107365,
2,1,0,1,0,30513.8,0.109167,0.108844,0.560698,16,0.00826289,10,6.10284e-05,-3.25127,0.256962,0.229606,5.03466,0.108844,
2,1,0,1,0,30514.1,0.110665,0.110336,0.567324,16,0.00843669,10,6.25962e-05,-3.24617,0.266229,0.221613,4.91553,0.110336,
2,1,0,0,0,30514.4,0.112164,0.111847,0.574716,16,0.00861273,10,6.428e-05,-3.24055,0.362855,0.162599,3.64822,0.1118466,
2,1,0,0,0,30514.7,0.113662,0.113369,0.582749,16,0.00879063,10,6.60658e-05,-3.23452,0.337005,0.175072,3.97015,0.113369,
2,1,0,1,0,30515,0.115161,0.114849,0.586412,16,0.00896978,10,6.73489e-05,-3.2318,0.386996,0.152456,3.4861,0.114849,
2,1,0,1,0,30515.3,0.116658,0.116341,0.593403,16,0.00915093,10,6.90368e-05,-3.22665,0.313502,0.188197,4.34141,0.116341,
2,1,0,1,0,30515.6,0.118156,0.117821,0.598884,16,0.00933406,10,7.05615e-05,-3.22266,0.37824,0.155986,3.63873,0.117821,
2,1,0,1,0,30515.9,0.119655,0.11933,0.602404,16,0.00951853,10,7.18848e-05,-3.22011,0.566018,0.104237,2.45469,0.1193299,
2,1,0,1,0,30516.2,0.121153,0.12088,0.604674,16,0.00970387,10,7.30931e-05,-3.21848,0.447992,0.131699,3.12555,0.12088,
2,1,0,1,0,30516.5,0.122652,0.122328,0.610887,16,0.00989094,10,7.47286e-05,-3.21404,0.354817,0.166283,3.9625,0.122328,
2,1,0,1,0,30516.8,0.124149,0.123822,0.616328,16,0.0100796,10,7.63148e-05,-3.21019,0.451277,0.13074,3.14704,0.123822,
2,1,0,1,0,30517.1,0.125647,0.125266,0.620891,16,0.0102697,10,7.77764e-05,-3.20698,0.514915,0.114582,2.77202,0.125266,
2,1,0,0,0,30517.4,0.127146,0.126837,0.622022,16,0.0104609,10,7.88951e-05,-3.20619,0.545095,0.108238,2.63584,0.126837,
2,1,0,0,0,30517.7,0.128644,0.128317,0.629045,16,0.010653,10,8.07171e-05,-3.20132,0.738799,0.0798593,1.95663,0.128317,
2,1,0,1,0,30518,0.130143,0.129819,0.631411,16,0.0108464,10,8.19691e-05,-3.19969,1.24897,0.0472389,1.15849,0.129819,
2,1,0,1,0,30518.3,0.131641,0.131324,0.631971,16,0.0110405,10,8.29932e-05,-3.1993,-1.75954,-0.0335316,-0.823133,0.131324,
2,1,0,1,0,30518.6,0.133138,0.132811,0.629007,16,0.0112342,10,8.3539e-05,-3.20134,-0.838172,-0.0703913,-1.73003,0.132811,
2,1,0,1,0,30518.9,0.134637,0.134287,0.626016,16,0.0114269,10,8.40658e-05,-3.20341,-0.407822,-0.144671,-3.52834,0.134287,
2,1,0,1,0,30519.2,0.136135,0.135827,0.62117,16,0.0116184,10,8.43714e-05,-3.20679,-0.272095,-0.216836,-5.21838,0.135827,
2,1,0,1,0,30519.5,0.137633,0.137355,0.61014,16,0.0118075,10,8.38056e-05,-3.21457,-0.177813,-0.331809,-7.85872,0.137355,
2,1,0,1,0,30519.8,0.139132,0.138824,0.598779,16,0.0119932,10,8.31247e-05,-3.22273,-0.139551,-0.422785,-9.81243,0.138824,
2,1,0,1,0,30520.1,0.140629,0.14031,0.582303,16,0.0121742,10,8.17029e-05,-3.23485,-0.118662,-0.497209,-11.234,0.14031,
2,1,0,1,0,30520.4,0.142127,0.141804,0.56421,16,0.0123501,10,8.00072e-05,-3.24856,-0.103472,-0.570205,-12.4829,0.141804,
2,1,0,0,0,30520.7,0.143626,0.143356,0.543728,16,0.0125205,10,7.79465e-05,-3.26462,-0.0872288,-0.676382,-14.28,0.143356,
2,1,0,0,0,30521,0.145124,0.144813,0.521641,16,0.0126844,10,7.55401e-05,-3.28263,-0.0753902,-0.782595,-15.8753,0.144813,
2,1,0,1,0,30521.3,0.146623,0.146313,0.495042,16,0.0128411,10,7.24309e-05,-3.30536,-0.0725649,-0.813065,-15.7751,0.146313,
2,1,0,1,0,30521.6,0.14812,0.147742,0.474315,16,0.0129909,10,7.00765e-05,-3.32393,-0.0758471,-0.77788,-14.3938,0.147742,
2,1,0,1,0,30521.9,0.149618,0.149305,0.452814,16,0.013134,10,6.76074e-05,-3.34408,-0.0765184,-0.771056,-13.6415,0.149305,
2,1,0,1,0,30522.2,0.151117,0.150832,0.432854,16,0.013271,10,6.52885e-05,-3.36366,-0.079266,-0.74433,-12.5803,0.150832,
2,1,0,1,0,30522.5,0.152615,0.152276,0.412578,16,0.0134022,10,6.28256e-05,-3.38449,-0.0835755,-0.705948,-11.4528,0.152276,
2,1,0,1,0,30522.8,0.154114,0.15376,0.399193,16,0.0135284,10,6.13801e-05,-3.39882,-0.0930131,-0.634319,-9.93169,0.1537604,
2,1,0,1,0,30523.1,0.155612,0.155278,0.386134,16,0.0136503,10,5.9958e-05,-3.41326,-0.104713,-0.563447,-8.52758,0.155278,
2,1,0,1,0,30523.4,0.157109,0.156822,0.374339,16,0.0137686,10,5.87047e-05,-3.42673,-0.116419,-0.506791,-7.41788,0.156822,
2,1,0,0,0,30523.7,0.158608,0.158288,0.36407,16,0.0138837,10,5.7628e-05,-3.43882,-0.140018,-0.421376,-6.0203,0.158288,
2,1,0,0,0,30524,0.160106,0.159778,0.356318,16,0.0139959,10,5.69319e-05,-3.44816,-0.152401,-0.387137,-5.40756,0.159778,
2,1,0,1,0,30524.3,0.161605,0.161288,0.349787,16,0.014106,10,5.64163e-05,-3.4562,-0.185289,-0.318422,-4.34362,0.161288,
2,1,0,1,0,30524.6,0.163102,0.162812,0.34303,16,0.014214,10,5.58494e-05,-3.46467,-0.185444,-0.318155,-4.25704,0.162812,
2,1,0,1,0,30524.9,0.1646,0.164286,0.33889,16,0.0143203,10,5.56748e-05,-3.46994,-0.25112,-0.234947,-3.10165,0.1642856,
2,1,0,1,0,30525.2,0.166099,0.16577,0.332732,16,0.014425,10,5.51571e-05,-3.47791,-0.303825,-0.194191,-2.53352,0.1657704,
2,1,0,1,0,30525.5,0.167597,0.16728,0.329418,16,0.0145285,10,5.51052e-05,-3.48225,-0.305139,-0.193354,-2.48041,0.16728,
2,1,0,1,0,30525.8,0.169095,0.168785,0.326276,16,0.014631,10,5.50706e-05,-3.48641,-0.332378,-0.177509,-2.2591,0.168785,
2,1,0,1,0,30526.1,0.170594,0.170278,0.321585,16,0.0147323,10,5.47589e-05,-3.4927,-0.357807,-0.164893,-2.07869,0.170278,
2,1,0,1,0,30526.4,0.172091,0.171753,0.318744,16,0.0148326,10,5.47453e-05,-3.49656,-0.485596,-0.1215,-1.51913,0.171753,
2,1,0,1,0,30526.7,0.173589,0.173285,0.317621,16,0.0149321,10,5.50389e-05,-3.49809,-0.458933,-0.128559,-1.58998,0.173285,
2,1,0,0,0,30527,0.175088,0.174752,0.315799,16,0.0150309,10,5.51866e-05,-3.50059,-0.659292,-0.0894899,-1.09958,0.174752,
2,1,0,0,0,30527.3,0.176586,0.176275,0.313021,16,0.0151291,10,5.51777e-05,-3.50443,-0.557962,-0.105742,-1.28736,0.176275,
2,1,0,1,0,30527.6,0.178085,0.177728,0.30929,16,0.0152268,10,5.49694e-05,-3.50963,-0.503978,-0.117069,-1.41847,0.177728,
2,1,0,1,0,30527.9,0.179582,0.179236,0.309134,16,0.0153236,10,5.5408e-05,-3.50985,-0.858742,-0.0687051,-0.830001,0.179236,
2,1,0,1,0,30528.2,0.18108,0.180716,0.307558,16,0.0154202,10,5.55808e-05,-3.51207,-0.670232,-0.0880292,-1.05822,0.180716,
2,1,0,1,0,30528.5,0.182579,0.182263,0.306256,16,0.0155165,10,5.58191e-05,-3.51392,-0.523738,-0.112652,-1.34799,0.1822629,
2,1,0,1,0,30528.8,0.184077,0.183743,0.305343,16,0.0156123,10,5.61047e-05,-3.51521,-0.786607,-0.0750057,-0.895062,0.183743,
2,1,0,1,0,30529.1,0.185576,0.185291,0.304704,16,0.0157077,10,5.6459e-05,-3.51612,-1.26096,-0.0467898,-0.555805,0.185291,
2,1,0,1,0,30529.4,0.187074,0.186737,0.303987,16,0.0158028,10,5.67656e-05,-3.51714,-0.766445,-0.0769788,-0.910265,0.186737,
2,1,0,1,0,30529.7,0.188571,0.18825,0.302408,16,0.0158976,10,5.69282e-05,-3.51941,-1.20705,-0.0488795,-0.575139,0.18825,
2,1,0,0,0,30530,0.19007,0.189747,0.30043,16,0.015992,10,5.70058e-05,-3.52226,-1.01816,-0.0579479,-0.680117,0.189747,
2,1,0,0,0,30530.3,0.191568,0.191227,0.299893,16,0.0160859,10,5.73474e-05,-3.52303,-0.924218,-0.0638378,-0.746868,0.191227,
2,1,0,1,0,30530.6,0.193067,0.192732,0.299091,16,0.0161796,10,5.76442e-05,-3.5242,-2.00941,-0.0293618,-0.342101,0.1927316,
2,1,0,1,0,30530.9,0.194564,0.194253,0.297961,16,0.0162732,10,5.78797e-05,-3.52584,-1.97965,-0.0298033,-0.346079,0.194253,
2,1,0,1,0,30531.2,0.196062,0.195768,0.296397,16,0.0163665,10,5.80251e-05,-3.52813,-0.983185,-0.060009,-0.69718,0.195768,
2,1,0,1,0,30531.5,0.197561,0.19721,0.294416,16,0.0164594,10,5.80618e-05,-3.53104,-0.990527,-0.0595642,-0.688106,0.19721,
2,1,0,1,0,30531.8,0.199059,0.198731,0.295212,16,0.016552,10,5.86678e-05,-3.52987,-0.933814,-0.0631817,-0.72805,0.198731,
2,1,0,1,0,30532.1,0.200557,0.200251,0.295273,16,0.0166444,10,5.91286e-05,-3.52978,-0.953268,-0.0618924,-0.709272,0.200251,
2,1,0,1,0,30532.4,0.202056,0.201723,0.293097,16,0.0167367,10,5.91243e-05,-3.53299,-0.891716,-0.0661646,-0.75699,0.201723,
2,1,0,1,0,30532.7,0.203553,0.203228,0.292066,16,0.0168286,10,5.93561e-05,-3.53452,-1.42406,-0.0414307,-0.473161,0.203228,
2,1,0,1,0,30533,0.205051,0.204702,0.291797,16,0.0169202,10,5.97314e-05,-3.53492,2.19234,0.0269118,0.30879,0.204702,
2,1,0,0,0,30533.3,0.20655,0.20621,0.290555,16,0.0170117,10,5.99154e-05,-3.53677,-1.28969,-0.0457474,-0.520557,0.20621,
2,1,0,0,0,30533.6,0.208048,0.207683,0.290162,16,0.0171034,10,6.02617e-05,-3.53736,-0.83031,-0.0710578,-0.804722,0.207683,
2,1,0,1,0,30533.9,0.209547,0.209239,0.289975,16,0.0171946,10,6.0674e-05,-3.53764,-1.33675,-0.0441368,-0.500447,0.209239,
2,1,0,1,0,30534.2,0.211044,0.210705,0.289148,16,0.0172853,10,6.09249e-05,-3.53888,-1.40678,-0.0419397,-0.473128,0.210705,
2,1,0,1,0,30534.5,0.212542,0.212214,0.288653,16,0.0173759,10,6.12561e-05,-3.53962,-2.20397,-0.0267699,-0.301161,0.212214,
2,1,0,1,0,30534.8,0.214041,0.21369,0.288309,16,0.0174665,10,6.16087e-05,-3.54014,-1.27578,-0.0462463,-0.518514,0.21369,
2,1,0,1,0,30535.1,0.215539,0.215244,0.287699,16,0.0175569,10,6.19254e-05,-3.54106,-2.73027,-0.0216096,-0.242296,0.215244,
2,1,0,1,0,30535.4,0.217038,0.216692,0.286403,16,0.0176469,10,6.20614e-05,-3.54302,-35.5555,-0.00165938,-0.0185529,0.216692,
2,1,0,1,0,30535.7,0.218535,0.218232,0.285193,16,0.0177368,10,6.22381e-05,-3.54486,1.77074,0.0333194,0.371968,0.218232,
2,1,0,1,0,30536,0.220033,0.219734,0.284875,16,0.0178267,10,6.25968e-05,-3.54535,-2.71767,-0.0217097,-0.241996,0.219734,
2,1,0,0,0,30536.3,0.221532,0.221218,0.284407,16,0.0179164,10,6.2916e-05,-3.54606,-0.891771,-0.0661605,-0.735611,0.221218,
2,1,0,0,0,30536.6,0.22303,0.222725,0.283391,16,0.0180059,10,6.31182e-05,-3.54761,-1.96873,-0.0299685,-0.332547,0.222725,
2,1,0,1,0,30536.9,0.224529,0.22423,0.284461,16,0.0180951,10,6.37846e-05,-3.54598,-1.72958,-0.0341123,-0.378569,0.22423,
2,1,0,1,0,30537.2,0.226026,0.225771,0.28415,16,0.0181843,10,6.41529e-05,-3.54645,-4.15842,-0.0141881,-0.156872,0.2257714,
2,1,0,1,0,30537.5,0.227524,0.227215,0.283123,16,0.0182735,10,6.43299e-05,-3.54802,-1.62649,-0.0362743,-0.398783,0.227215,
2,1,0,1,0,30537.8,0.229023,0.228698,0.282889,16,0.0183625,10,6.46962e-05,-3.54838,-1.15817,-0.0509424,-0.562081,0.2286981,
2,1,0,1,0,30538.1,0.230521,0.230203,0.28181,16,0.0184511,10,6.48734e-05,-3.55004,-88.9297,-0.000663445,-0.00732877,0.230203,
2,1,0,1,0,30538.4,0.232019,0.231694,0.2816,16,0.0185397,10,6.5245e-05,-3.55037,-1.2422,-0.0474965,-0.521733,0.231694,
2,1,0,1,0,30538.7,0.233518,0.233194,0.281879,16,0.0186284,10,6.57325e-05,-3.54994,-2.19832,-0.0268387,-0.294385,0.233194,
2,1,0,1,0,30539,0.235015,0.234692,0.281558,16,0.0187168,10,6.60795e-05,-3.55043,-6.61044,-0.00892527,-0.0978884,0.234692,
2,1,0,1,0,30539.3,0.236513,0.236226,0.280723,16,0.0188049,10,6.63141e-05,-3.55172,-1.40843,-0.0418907,-0.459233,0.236226,
2,1,0,0,0,30539.6,0.238012,0.237704,0.280427,16,0.0188932,10,6.66588e-05,-3.55218,47.8642,0.00123266,0.0134652,0.237704,
2,1,0,0,0,30539.9,0.23951,0.239183,0.279936,16,0.0189813,10,6.6956e-05,-3.55294,-17.9796,-0.0032815,-0.0359179,0.239183,
2,1,0,1,0,30540.2,0.241009,0.240722,0.279539,16,0.0190693,10,6.72913e-05,-3.55356,-2.87905,-0.0204929,-0.22361,0.2407224,
2,1,0,1,0,30540.5,0.242506,0.242229,0.278392,16,0.019157,10,6.74346e-05,-3.55534,-1.33913,-0.0440585,-0.479805,0.2422287,
2,1,0,1,0,30540.8,0.244004,0.243652,0.278072,16,0.0192446,10,6.77528e-05,-3.55584,33.3578,0.0017687,0.0192036,0.243652,
2,1,0,1,0,30541.1,0.245503,0.245188,0.279073,16,0.0193323,10,6.84255e-05,-3.55428,-4.62182,-0.0127655,-0.138742,0.245188,
2,1,0,1,0,30541.4,0.247001,0.246711,0.27863,16,0.0194198,10,6.87411e-05,-3.55497,-1.26304,-0.0467125,-0.50589,0.246711,
2,1,0,1,0,30541.7,0.2485,0.248179,0.277386,16,0.0195071,10,6.88413e-05,-3.55692,-2.01233,-0.0293193,-0.31751,0.248179,
2,1,0,1,0,30542,0.249997,0.249671,0.277855,16,0.0195943,10,6.93724e-05,-3.55618,-3.49512,-0.0168807,-0.182317,0.249671,
2,1,0,1,0,30542.3,0.251495,0.251152,0.27723,16,0.0196815,10,6.96268e-05,-3.55716,-8.60526,-0.00685627,-0.074181,0.251152,
2,1,0,0,0,30542.6,0.252994,0.252699,0.276471,16,0.0197685,10,6.98641e-05,-3.55835,-1.37817,-0.0428104,-0.46213,0.252699,
2,1,0,0,0,30542.9,0.254492,0.254211,0.275391,16,0.0198554,10,7.00075e-05,-3.56005,-2.10604,-0.0280147,-0.302772,0.254211,
2,1,0,1,0,30543.2,0.255991,0.255632,0.275546,16,0.019942,10,7.04382e-05,-3.55981,16.1507,0.0036531,0.0394528,0.255632,
2,1,0,1,0,30543.5,0.257488,0.257156,0.275822,16,0.0200287,10,7.09293e-05,-3.55937,-18.6903,-0.00315672,-0.0339216,0.257156,
2,1,0,1,0,30543.8,0.258986,0.258691,0.275942,16,0.0201155,10,7.13839e-05,-3.55918,3.10782,0.0189844,0.204105,0.258691,
2,1,0,1,0,30544.1,0.260485,0.260183,0.275232,16,0.0202021,10,7.16105e-05,-3.5603,-48.1056,-0.00122647,-0.0131659,0.260183,
2,1,0,1,0,30544.4,0.261983,0.26169,0.275782,16,0.0202885,10,7.21696e-05,-3.55943,-3.60354,-0.0163728,-0.176001,0.2616905,
2,1,0,1,0,30544.7,0.263481,0.26314,0.275138,16,0.0203749,10,7.23997e-05,-3.56045,9.94549,0.00593234,0.0635389,0.26314,
2,1,0,1,0,30545,0.26498,0.264665,0.273879,16,0.0204612,10,7.24862e-05,-3.56244,-2.84172,-0.0207621,-0.222443,0.264665,
2,1,0,1,0,30545.3,0.266477,0.26616,0.273616,16,0.0205473,10,7.28257e-05,-3.56286,-2.03454,-0.0289992,-0.310448,0.26616,
2,1,0,0,0,30545.6,0.267976,0.267652,0.272427,16,0.0206332,10,7.29156e-05,-3.56475,-3.28621,-0.0179538,-0.191556,0.267652,
2,1,0,0,0,30545.9,0.269474,0.26914,0.272543,16,0.020719,10,7.33523e-05,-3.56456,4.28071,0.0137827,0.146624,0.26914,
2,1,0,0,0,30546.2,0.270972,0.270694,0.273431,16,0.0208048,10,7.40163e-05,-3.56315,41.9937,0.00140497,0.0149548,0.270694,
2,1,0,1,0,30546.5,0.27247,0.272155,0.272986,16,0.0208906,10,7.42943e-05,-3.56386,-12.5336,-0.00470735,-0.0499986,0.272155,
2,1,0,1,0,30546.8,0.273968,0.273639,0.269642,16,0.0209761,10,7.37845e-05,-3.56921,-2.18761,-0.0269701,-0.286852,0.273639,
2,1,0,1,0,30547.1,0.275466,0.275162,0.270647,16,0.0210614,10,7.44718e-05,-3.5676,-4.58421,-0.0128703,-0.136544,0.275162,
2,1,0,1,0,30547.4,0.276965,0.276621,0.271279,16,0.0211469,10,7.50414e-05,-3.56658,-2.87256,-0.0205392,-0.217794,0.276621,
2,1,0,1,0,30547.7,0.278463,0.278146,0.270797,16,0.0212321,10,7.53211e-05,-3.56736,-0.905325,-0.06517,-0.687861,0.278146,
2,1,0,1,0,30548,0.279962,0.27967,0.270111,16,0.0213173,10,7.55418e-05,-3.56846,-4.72194,-0.0124949,-0.131899,0.27967,
2,1,0,1,0,30548.3,0.281459,0.281147,0.269181,16,0.021402,10,7.56795e-05,-3.56995,-1.86986,-0.0315532,-0.332457,0.281147,
2,1,0,1,0,30548.6,0.282957,0.282632,0.270066,16,0.0214869,10,7.63292e-05,-3.56853,-7.61835,-0.00774446,-0.0816021,0.282632,
2,1,0,0,0,30548.9,0.284456,0.284184,0.269226,16,0.0215717,10,7.65097e-05,-3.56988,5.11328,0.0115386,0.121379,0.284184,
2,1,0,0,0,30549.2,0.285954,0.285637,0.269026,16,0.0216564,10,7.68437e-05,-3.57021,-1.11981,-0.0526873,-0.551601,0.285637,
2,1,0,0,0,30549.5,0.287452,0.287134,0.26898,16,0.0217408,10,7.72332e-05,-3.57028,4.82515,0.0122276,0.128313,0.287134,
2,1,0,1,0,30549.8,0.28895,0.288623,0.26807,16,0.0218252,10,7.73711e-05,-3.57175,5.71911,0.0103163,0.10774,0.288623,
2,1,0,1,0,30550.1,0.290448,0.290147,0.267742,16,0.0219095,10,7.76846e-05,-3.57228,-1.32926,-0.0443856,-0.463195,0.290147,
2,1,0,1,0,30550.4,0.291947,0.29165,0.26723,16,0.0219937,10,7.79376e-05,-3.57312,-1.60192,-0.0368307,-0.384656,0.29165,
2,1,0,1,0,30550.7,0.293445,0.293143,0.266083,16,0.0220777,10,7.80004e-05,-3.57498,-1.39972,-0.0421512,-0.439332,0.293143,
2,1,0,1,0,30551,0.294943,0.294644,0.267056,16,0.0221615,10,7.86864e-05,-3.5734,-14.2328,-0.00414536,-0.0431023,0.2946437,
2,1,0,1,0,30551.3,0.296442,0.296135,0.267398,16,0.0222454,10,7.91858e-05,-3.57284,-8.61099,-0.00685171,-0.0711112,0.296135,
2,1,0,1,0,30551.6,0.297939,0.297629,0.265891,16,0.0223292,10,7.91367e-05,-3.5753,-1.70423,-0.0346198,-0.359186,0.297629,
2,1,0,1,0,30551.9,0.299437,0.299132,0.265079,16,0.0224128,10,7.92936e-05,-3.57662,-0.00252683,-23.3494,-119.862,0.2991319,
2,1,0,1,0,30552,0.299737,0.299431,0.117343,16,0.0224515,10,3.51361e-05,-3.93054,0.000963348,61.2448,205.756,0.299431,
2,1,0,1,0,30552.3,0.29824,0.297917,0.0231237,16,0.0224626,10,6.88893e-06,-4.63594,0.00182481,32.3322,69.7625,0.297917,
2,1,0,0,0,30552.6,0.296741,0.296423,0.00367993,16,0.0224623,10,1.09082e-06,-5.43416,0.00903597,6.52946,11.3586,0.296423,
2,1,0,0,0,30552.9,0.295243,0.294911,-0.00876685,16,0.0224575,10,-2.58544e-06,-5.05716,-0.00924967,-6.37861,6.91748,0.294911,
2,0,0,1,0,30553.2,0.293744,0.293392,-0.0185991,16,0.0224496,10,-5.45684e-06,-4.73051,-0.00540045,-10.925,5.60492,0.293392,
2,0,0,1,0,30553.5,0.292246,0.291915,-0.0259574,16,0.0224394,10,-7.57735e-06,-4.58574,-0.0108638,-5.43089,4.92246,0.291915,
2,0,0,1,0,30553.8,0.290749,0.290432,-0.0327946,16,0.0224268,10,-9.5246e-06,-4.4842,-0.0161475,-3.65382,4.31844,0.2904321,
2,0,0,1,0,30554.1,0.28925,0.288946,-0.0375429,16,0.0224124,10,-1.08479e-05,-4.42547,-0.0226331,-2.6068,3.83762,0.288946,
2,0,0,1,0,30554.4,0.287752,0.287476,-0.0433585,16,0.0223963,10,-1.24645e-05,-4.36293,-0.0286696,-2.05793,3.45918,0.287476,
2,0,0,1,0,30554.7,0.286253,0.285949,-0.0471961,16,0.0223788,10,-1.34957e-05,-4.32609,-0.0370317,-1.59323,2.97275,0.2859489,
2,0,0,1,0,30555,0.284755,0.28447,-0.0527439,16,0.0223597,10,-1.5004e-05,-4.27783,-0.0347791,-1.69642,3.41451,0.28447,
2,0,0,1,0,30555.3,0.283257,0.282926,-0.0572773,16,0.0223393,10,-1.62053e-05,-4.24202,-0.0449424,-1.31279,2.89525,0.282926,
2,0,0,0,0,30555.6,0.281759,0.281453,-0.0605372,16,0.0223176,10,-1.70384e-05,-4.21798,-0.0553525,-1.0659,2.49848,0.281453,
2,0,0,0,0,30555.9,0.280261,0.279967,-0.0635481,16,0.0222948,10,-1.77913e-05,-4.1969,-0.0593594,-0.993946,2.47473,0.279967,
2,0,0,0,0,30556.2,0.278763,0.278469,-0.0677938,16,0.0222709,10,-1.88785e-05,-4.16881,-0.0658933,-0.895387,2.35096,0.278469,
2,0,0,1,0,30556.5,0.277264,0.276924,-0.0721042,16,0.0222458,10,-1.99674e-05,-4.14204,-0.0821044,-0.718597,2.00712,0.2769241,
2,0,0,1,0,30556.8,0.275766,0.275466,-0.0742424,16,0.0222197,10,-2.04513e-05,-4.12935,-0.0825876,-0.714393,2.07124,0.275466,
2,0,0,1,0,30557.1,0.274269,0.273931,-0.0778741,16,0.0221926,10,-2.13321e-05,-4.10861,-0.0858494,-0.68725,2.10678,0.273931,
2,0,0,1,0,30557.4,0.27277,0.272421,-0.0808652,16,0.0221646,10,-2.20294e-05,-4.09224,-0.0835837,-0.70588,2.25424,0.272421,
2,0,0,1,0,30557.7,0.271272,0.270976,-0.083028,16,0.0221356,10,-2.24986e-05,-4.08078,-0.106848,-0.552188,1.81492,0.270976,
2,0,0,1,0,30558,0.269773,0.269433,-0.0876436,16,0.0221056,10,-2.36141e-05,-4.05728,-0.112549,-0.524216,1.76737,0.269433,
2,0,0,1,0,30558.3,0.268275,0.267966,-0.0893488,16,0.0220748,10,-2.39425e-05,-4.04891,-0.111828,-0.527597,1.85002,0.267966,
2,0,0,1,0,30558.6,0.266778,0.266438,-0.0921545,16,0.0220434,10,-2.45535e-05,-4.03548,-0.109412,-0.539246,1.94814,0.266438,
2,0,0,0,0,30558.9,0.265279,0.264979,-0.0953629,16,0.022011,10,-2.52692e-05,-4.02062,-0.100669,-0.586081,2.16791,0.264979,
2,0,0,0,0,30559.2,0.263781,0.263493,-0.0977245,16,0.0219777,10,-2.57497e-05,-4.01,-0.156811,-0.37625,1.44039,0.263493,
2,0,0,1,0,30559.5,0.262282,0.261941,-0.100776,16,0.0219438,10,-2.63975e-05,-3.99664,-0.158779,-0.371585,1.46064,0.261941,
2,0,0,1,0,30559.8,0.260784,0.260417,-0.102896,16,0.0219092,10,-2.67959e-05,-3.9876,-0.147911,-0.398888,1.61137,0.260417,
2,0,0,1,0,30560.1,0.259286,0.258967,-0.106092,16,0.0218738,10,-2.74743e-05,-3.97432,-0.162808,-0.362389,1.49689,0.258967,
2,0,0,1,0,30560.4,0.257788,0.25744,-0.109049,16,0.0218376,10,-2.80737e-05,-3.96238,-0.1942,-0.30381,1.28161,0.25744,
2,0,0,1,0,30560.7,0.25629,0.256,-0.11081,16,0.0218007,10,-2.83675e-05,-3.95542,-0.180647,-0.326605,1.40247,0.256,
2,0,0,1,0,30561,0.254791,0.254489,-0.11179,16,0.0217631,10,-2.84492e-05,-3.9516,-0.156448,-0.377123,1.6507,0.254489,
2,0,0,1,0,30561.3,0.253293,0.252978,-0.114821,16,0.021725,10,-2.90471e-05,-3.93998,-0.172736,-0.341562,1.52938,0.252978,
2,0,0,1,0,30561.6,0.251795,0.251462,-0.116801,16,0.0216861,10,-2.93709e-05,-3.93255,-0.184049,-0.320567,1.46587,0.2514621,
2,0,0,0,0,30561.9,0.250297,0.249958,-0.119591,16,0.0216466,10,-2.98928e-05,-3.9223,-0.24174,-0.244064,1.13077,0.249958,
2,0,0,0,0,30562.2,0.248799,0.248449,-0.121333,16,0.0216064,10,-3.0145e-05,-3.91602,-0.22989,-0.256645,1.20488,0.248449,
2,0,0,0,0,30562.5,0.247301,0.246991,-0.124057,16,0.0215657,10,-3.0641e-05,-3.90638,-0.260906,-0.226135,1.09332,0.246991,
2,0,0,1,0,30562.8,0.245802,0.245476,-0.12636,16,0.0215244,10,-3.10184e-05,-3.89839,-0.243477,-0.242323,1.1843,0.245476,
2,0,0,1,0,30563.1,0.244304,0.244003,-0.127011,16,0.0214825,10,-3.09911e-05,-3.89616,-0.180819,-0.326294,1.61796,0.2440033,
2,0,0,1,0,30563.4,0.242806,0.242509,-0.129252,16,0.02144,10,-3.13448e-05,-3.88856,-0.266235,-0.221609,1.11777,0.242509,
2,0,0,1,0,30563.7,0.241308,0.24101,-0.131509,16,0.0213971,10,-3.16951e-05,-3.88104,-0.284658,-0.207266,1.0578,0.2410105,
2,0,0,1,0,30564,0.23981,0.239474,-0.132441,16,0.0213535,10,-3.17162e-05,-3.87798,-0.197624,-0.298546,1.54218,0.239474,
2,0,0,1,0,30564.3,0.238311,0.238067,-0.134414,16,0.0213094,10,-3.19995e-05,-3.87156,-0.213752,-0.276021,1.45751,0.2380674,
2,0,0,1,0,30564.6,0.236813,0.236495,-0.136534,16,0.0212647,10,-3.22896e-05,-3.86476,-0.312463,-0.188822,1.00846,0.236495,
2,0,0,1,0,30564.9,0.235316,0.235035,-0.137419,16,0.0212196,10,-3.22981e-05,-3.86195,-0.320557,-0.184055,0.99387,0.235035,
2,0,0,0,0,30565.2,0.233817,0.2335,-0.140749,16,0.0211739,10,-3.28649e-05,-3.85155,-0.279252,-0.211279,1.15419,0.2334996,
2,0,0,0,0,30565.5,0.232319,0.231968,-0.14279,16,0.0211275,10,-3.31228e-05,-3.8453,-0.248284,-0.237631,1.31308,0.2319684,
2,0,0,1,0,30565.8,0.23082,0.230469,-0.143322,16,0.0210807,10,-3.30312e-05,-3.84369,-0.30828,-0.191384,1.0747,0.230469,
2,0,0,1,0,30566.1,0.229322,0.228981,-0.144501,16,0.0210334,10,-3.30881e-05,-3.84013,-0.286681,-0.205804,1.16485,0.228981,
2,0,0,1,0,30566.4,0.227825,0.2275,-0.146504,16,0.0209856,10,-3.33298e-05,-3.83415,-0.255092,-0.231289,1.33281,0.2275,
2,0,0,1,0,30566.7,0.226326,0.226044,-0.148579,16,0.0209372,10,-3.35854e-05,-3.82804,-0.24873,-0.237205,1.38089,0.226044,
2,0,0,1,0,30567,0.224828,0.224469,-0.150377,16,0.0208881,10,-3.37549e-05,-3.82282,-0.502046,-0.117519,0.689442,0.224469,
2,0,0,1,0,30567.3,0.223329,0.223004,-0.152412,16,0.0208386,10,-3.39885e-05,-3.81698,-0.348603,-0.169247,0.999913,0.2230043,
2,0,0,1,0,30567.6,0.221831,0.221551,-0.154773,16,0.0207888,10,-3.42902e-05,-3.8103,-0.367309,-0.160628,0.964575,0.221551,
2,0,0,1,0,30567.9,0.220333,0.220015,-0.156298,16,0.0207383,10,-3.43879e-05,-3.80605,-0.269326,-0.219065,1.32482,0.220015,
2,0,0,0,0,30568.2,0.218835,0.218569,-0.156681,16,0.0206871,10,-3.42456e-05,-3.80498,-0.327428,-0.180192,1.10966,0.2185691,
2,0,0,0,0,30568.5,0.217337,0.217034,-0.15969,16,0.0206355,10,-3.46582e-05,-3.79672,-0.367549,-0.160523,0.99935,0.217034,
2,0,0,0,0,30568.8,0.215839,0.215512,-0.160149,16,0.0205835,10,-3.4514e-05,-3.79548,-0.310032,-0.190303,1.19514,0.215512,
2,0,0,1,0,30569.1,0.21434,0.214043,-0.162066,16,0.0205309,10,-3.46892e-05,-3.79031,-0.254142,-0.232154,1.4695,0.2140432,
2,0,0,1,0,30569.4,0.212842,0.212526,-0.163824,16,0.0204776,10,-3.48169e-05,-3.78562,-0.313198,-0.188379,1.20629,0.212526,
2,0,0,1,0,30569.7,0.211344,0.211054,-0.166255,16,0.0204239,10,-3.50889e-05,-3.77922,-0.37933,-0.155537,1.00866,0.211054,
2,0,0,1,0,30570,0.209846,0.209521,-0.166728,16,0.0203697,10,-3.4933e-05,-3.77799,-0.295359,-0.199757,1.30477,0.209521,
2,0,0,1,0,30570.3,0.208348,0.208032,-0.169106,16,0.020315,10,-3.51794e-05,-3.77184,-0.294924,-0.200051,1.32467,0.208032,
2,0,0,1,0,30570.6,0.206849,0.20652,-0.173161,16,0.0202595,10,-3.57613e-05,-3.76155,-0.389758,-0.151376,1.00837,0.20652,
2,0,0,1,0,30570.9,0.205351,0.204997,-0.172966,16,0.0202035,10,-3.54575e-05,-3.76204,-0.381813,-0.154526,1.03873,0.204997,
2,0,0,1,0,30571.2,0.203854,0.203516,-0.174873,16,0.0201471,10,-3.55895e-05,-3.75728,-0.365867,-0.161261,1.10159,0.203516,
2,0,0,0,0,30571.5,0.202355,0.202049,-0.177014,16,0.0200903,10,-3.57654e-05,-3.75199,-0.257438,-0.229181,1.58416,0.202049,
2,0,0,0,0,30571.8,0.200857,0.200541,-0.178233,16,0.0200328,10,-3.5743e-05,-3.74901,-0.295378,-0.199744,1.38928,0.200541,
2,0,0,1,0,30572.1,0.199358,0.199074,-0.180604,16,0.0199747,10,-3.59536e-05,-3.74327,-0.365423,-0.161457,1.13262,0.199074,
2,0,0,1,0,30572.4,0.19786,0.197538,-0.18247,16,0.019916,10,-3.60447e-05,-3.73881,-0.330771,-0.178371,1.26832,0.197538,
2,0,0,1,0,30572.7,0.196363,0.196053,-0.183526,16,0.0198569,10,-3.59808e-05,-3.7363,-0.275107,-0.214462,1.54022,0.196053,
2,0,0,1,0,30573,0.194864,0.194568,-0.186987,16,0.019797,10,-3.63816e-05,-3.72819,-0.235207,-0.250843,1.82874,0.194568,
2,0,0,1,0,30573.3,0.193366,0.193019,-0.188134,16,0.0197363,10,-3.63133e-05,-3.72553,-0.281483,-0.209604,1.54027,0.193019,
2,0,0,1,0,30573.6,0.191867,0.191518,-0.190823,16,0.0196752,10,-3.6546e-05,-3.71937,-0.376558,-0.156682,1.17046,0.191518,
2,0,0,1,0,30573.9,0.190369,0.189999,-0.191735,16,0.0196135,10,-3.64295e-05,-3.7173,-0.346478,-0.170285,1.27896,0.189999,
2,0,0,1,0,30574.2,0.188871,0.188541,-0.195288,16,0.0195511,10,-3.68198e-05,-3.70932,-0.225655,-0.261461,1.9913,0.188541,
2,0,0,0,0,30574.5,0.187373,0.18706,-0.197983,16,0.0194878,10,-3.70348e-05,-3.70337,-0.251788,-0.234324,1.80848,0.18706,
2,0,0,0,0,30574.8,0.185875,0.185562,-0.199571,16,0.0194239,10,-3.70327e-05,-3.6999,-0.279035,-0.211443,1.64983,0.185562,
2,0,0,0,0,30575.1,0.184377,0.184067,-0.201047,16,0.0193593,10,-3.70061e-05,-3.6967,-0.293713,-0.200876,1.58503,0.184067,
2,0,0,1,0,30575.4,0.182878,0.18255,-0.205544,16,0.019294,10,-3.75221e-05,-3.68709,-0.256644,-0.229891,1.83952,0.18255,
2,0,0,1,0,30575.7,0.181381,0.18103,-0.208528,16,0.0192278,10,-3.77498e-05,-3.68084,-0.245122,-0.240696,1.95249,0.18103,
2,0,0,1,0,30576,0.179882,0.179576,-0.209749,16,0.0191608,10,-3.76658e-05,-3.6783,-0.338315,-0.174394,1.42455,0.179576,
2,0,0,1,0,30576.3,0.178384,0.178048,-0.21214,16,0.0190929,10,-3.7771e-05,-3.67338,-0.297099,-0.198587,1.64786,0.178048,
2,0,0,1,0,30576.6,0.176886,0.176547,-0.214847,16,0.0190245,10,-3.79307e-05,-3.66787,-0.235155,-0.250898,2.12405,0.1765473,
2,0,0,1,0,30576.9,0.175387,0.175033,-0.219593,16,0.0189551,10,-3.8436e-05,-3.65838,-0.22659,-0.260382,2.22823,0.175033,
2,0,0,1,0,30577.2,0.173889,0.173548,-0.222447,16,0.0188846,10,-3.86051e-05,-3.65277,-0.29177,-0.202214,1.75481,0.173548,
2,0,0,1,0,30577.5,0.172392,0.172053,-0.225935,16,0.0188131,10,-3.88726e-05,-3.64602,-0.215427,-0.273874,2.41332,0.1720527,
2,0,0,0,0,30577.8,0.170893,0.170614,-0.229402,16,0.0187409,10,-3.91393e-05,-3.6394,-0.233002,-0.253216,2.26349,0.170614,
2,0,0,0,0,30578.1,0.169395,0.169047,-0.232559,16,0.0186675,10,-3.93134e-05,-3.63347,-0.168527,-0.350092,3.16615,0.169047,
2,0,0,1,0,30578.4,0.167896,0.16758,-0.236462,16,0.0185927,10,-3.96263e-05,-3.62624,-0.181053,-0.325872,3.01416,0.16758,
2,0,0,1,0,30578.7,0.166398,0.166034,-0.240987,16,0.0185168,10,-4.00121e-05,-3.61801,-0.199926,-0.295109,2.7864,0.166034,
2,0,0,1,0,30579,0.164901,0.164628,-0.24402,16,0.0184398,10,-4.01724e-05,-3.61258,-0.194634,-0.303133,2.90686,0.1646276,
2,0,0,1,0,30579.3,0.163402,0.163049,-0.250234,16,0.0183613,10,-4.08005e-05,-3.60165,-0.172992,-0.341057,3.32173,0.163049,
2,0,0,1,0,30579.6,0.161904,0.161567,-0.256155,16,0.0182814,10,-4.13862e-05,-3.5915,-0.161983,-0.364236,3.62644,0.161567,
2,0,0,1,0,30579.9,0.160405,0.160085,-0.26068,16,0.0181998,10,-4.1731e-05,-3.58389,-0.1584,-0.372474,3.76534,0.160085,
2,0,0,1,0,30580.2,0.158907,0.158583,-0.264851,16,0.0181167,10,-4.20009e-05,-3.577,-0.163321,-0.361252,3.75951,0.158583,
2,0,0,1,0,30580.5,0.157409,0.157106,-0.27218,16,0.0180318,10,-4.27611e-05,-3.56514,-0.134858,-0.437498,4.67293,0.157106,
2,0,0,0,0,30580.8,0.155911,0.155581,-0.280433,16,0.0179446,10,-4.36301e-05,-3.55217,-0.125327,-0.470769,5.15036,0.155581,
2,0,0,0,0,30581.1,0.154413,0.154131,-0.287639,16,0.0178551,10,-4.43342e-05,-3.54115,-0.134463,-0.438783,4.92185,0.154131,
2,0,0,0,0,30581.4,0.152915,0.152631,-0.295513,16,0.0177633,10,-4.51044e-05,-3.52942,-0.113698,-0.518918,6.01521,0.1526309,
2,0,0,1,0,30581.7,0.151416,0.151076,-0.305501,16,0.017669,10,-4.61538e-05,-3.51499,-0.105481,-0.559341,6.66998,0.151076,
2,0,0,1,0,30582,0.149919,0.149566,-0.316197,16,0.0175715,10,-4.72925e-05,-3.50004,-0.0932334,-0.63282,7.79934,0.1495665,
2,0,0,1,0,30582.3,0.14842,0.14815,-0.327853,16,0.0174705,10,-4.85713e-05,-3.48432,-0.086457,-0.68242,8.74157,0.14815,
2,0,0,1,0,30582.6,0.146922,0.146581,-0.34161,16,0.0173658,10,-5.00737e-05,-3.46647,-0.083566,-0.706029,9.40309,0.146581,
2,0,0,1,0,30582.9,0.145424,0.145124,-0.35439,16,0.0172573,10,-5.14306e-05,-3.45052,-0.0792869,-0.744133,10.3621,0.145124,
2,0,0,1,0,30583.2,0.143925,0.143579,-0.369964,16,0.0171441,10,-5.3119e-05,-3.43184,-0.0724073,-0.814835,11.7869,0.143579,
2,0,0,1,0,30583.5,0.142427,0.142116,-0.389192,16,0.0170256,10,-5.53103e-05,-3.40984,-0.0740853,-0.79638,12.0904,0.142116,
2,0,0,1,0,30583.8,0.14093,0.140612,-0.406099,16,0.016902,10,-5.71022e-05,-3.39137,-0.0803456,-0.734328,11.6832,0.140612,
2,0,0,0,0,30584.1,0.139431,0.139127,-0.423474,16,0.0167729,10,-5.89166e-05,-3.37317,-0.0741807,-0.795355,13.2009,0.139127,
2,0,0,0,0,30584.4,0.137933,0.137635,-0.445752,16,0.0166379,10,-6.13509e-05,-3.35091,-0.0744728,-0.792235,13.7471,0.137635,
2,0,0,1,0,30584.7,0.136434,0.136079,-0.467326,16,0.0164966,10,-6.35931e-05,-3.33038,-0.0770077,-0.766157,13.9004,0.1360786,
2,0,0,1,0,30585,0.134936,0.134607,-0.486764,16,0.016349,10,-6.55219e-05,-3.31268,-0.0840957,-0.701582,13.2721,0.134607,
2,0,0,1,0,30585.3,0.133439,0.133152,-0.506152,16,0.0161953,10,-6.7395e-05,-3.29572,-0.0857881,-0.687741,13.5965,0.133152,
2,0,0,1,0,30585.6,0.13194,0.131612,-0.526459,16,0.0160359,10,-6.9288e-05,-3.27864,-0.0919525,-0.641636,13.1904,0.131612,
2,0,0,1,0,30585.9,0.130442,0.130122,-0.544004,16,0.0158705,10,-7.07867e-05,-3.2644,-0.105434,-0.55959,11.875,0.130122,
2,0,0,1,0,30586.2,0.128943,0.128625,-0.563867,16,0.0156994,10,-7.25274e-05,-3.24882,-0.123449,-0.47793,10.4415,0.128625,
2,0,0,1,0,30586.5,0.127445,0.127112,-0.578573,16,0.0155235,10,-7.35435e-05,-3.23764,-0.13929,-0.423578,9.54422,0.127112,
2,0,0,1,0,30586.8,0.125947,0.12558,-0.593223,16,0.0153436,10,-7.4497e-05,-3.22678,-0.159515,-0.36987,8.52321,0.12558,
2,0,0,0,0,30587.1,0.124449,0.124105,-0.60491,16,0.0151593,10,-7.50723e-05,-3.21831,-0.171452,-0.34412,8.08754,0.1241049,
2,0,0,0,0,30587.4,0.122951,0.122614,-0.615038,16,0.0149719,10,-7.54122e-05,-3.2111,-0.220784,-0.26723,6.38788,0.122614,
2,0,0,0,0,30587.7,0.121453,0.121134,-0.623228,16,0.0147817,10,-7.54939e-05,-3.20535,-0.30198,-0.195377,4.73419,0.121134,
2,0,0,1,0,30588,0.119954,0.119606,-0.626598,16,0.0145898,10,-7.49451e-05,-3.20301,-0.385227,-0.153156,3.75104,0.119606,
2,0,0,1,0,30588.3,0.118456,0.118156,-0.632315,16,0.0143963,10,-7.47118e-05,-3.19907,-0.456586,-0.12922,3.1795,0.118156,
2,0,0,1,0,30588.6,0.116958,0.116631,-0.635612,16,0.0142016,10,-7.41321e-05,-3.19681,-1.31951,-0.0447135,1.10572,0.116631,
2,0,0,1,0,30588.9,0.11546,0.115144,-0.637053,16,0.0140063,10,-7.33531e-05,-3.19582,-13.074,-0.00451278,0.111842,0.115144,
2,0,0,1,0,30589.2,0.113962,0.11365,-0.633306,16,0.0138112,10,-7.19755e-05,-3.19839,6.6719,0.00884306,-0.219276,0.11365,
2,0,0,1,0,30589.5,0.112463,0.112119,-0.63432,16,0.0136164,10,-7.11193e-05,-3.19769,1.63947,0.0359873,-0.891435,0.112119,
2,0,0,1,0,30589.8,0.110965,0.110653,-0.634065,16,0.0134218,10,-7.01609e-05,-3.19787,1.4705,0.0401224,-0.990838,0.110653,
2,0,0,1,0,30590.1,0.109468,0.109132,-0.631741,16,0.0132277,10,-6.89434e-05,-3.19946,0.832869,0.0708394,-1.74119,0.109132,
2,0,0,0,0,30590.4,0.107969,0.10767,-0.628141,16,0.0130342,10,-6.76318e-05,-3.20194,0.922208,0.0639769,-1.57134,0.10767,
2,0,0,0,0,30590.7,0.106471,0.106151,-0.625307,16,0.012842,10,-6.63771e-05,-3.20391,0.803556,0.0734236,-1.79712,0.106151,
2,0,0,1,0,30591,0.104972,0.104676,-0.62251,16,0.0126501,10,-6.51617e-05,-3.20585,0.748093,0.0788672,-1.91768,0.104676,
2,0,0,1,0,30591.3,0.103474,0.103153,-0.620022,16,0.0124591,10,-6.39574e-05,-3.20759,0.549558,0.107359,-2.59505,0.103153,
2,0,0,1,0,30591.6,0.101977,0.101697,-0.617447,16,0.0122693,10,-6.27923e-05,-3.2094,0.592352,0.0996029,-2.39493,0.101697,
2,0,0,1,0,30591.9,0.100478,0.100185,-0.612768,16,0.0120808,10,-6.13903e-05,-3.2127,0.567349,0.103992,-2.48768,0.100185,
2,0,0,1,0,30592.2,0.0989799,0.0986445,-0.610316,16,0.0118931,10,-6.02044e-05,-3.21445,0.749658,0.0787025,-1.86609,0.09864454,
2,0,0,1,0,30592.5,0.0974812,0.0971563,-0.605965,16,0.0117064,10,-5.88734e-05,-3.21755,0.567444,0.103975,-2.4563,0.0971563,
2,0,0,1,0,30592.8,0.0959834,0.0956476,-0.600776,16,0.0115211,10,-5.74628e-05,-3.22129,0.474417,0.124363,-2.91668,0.0956476,
2,0,0,1,0,30593.1,0.0944855,0.0941826,-0.59479,16,0.0113372,10,-5.60188e-05,-3.22564,0.511719,0.115298,-2.68715,0.0941826,
2,0,0,0,0,30593.4,0.0929871,0.0926734,-0.59289,16,0.0111545,10,-5.49451e-05,-3.22703,0.681695,0.086549,-2.0021,0.0926734,
2,0,0,0,0,30593.7,0.0914889,0.0911443,-0.589744,16,0.0109726,10,-5.37518e-05,-3.22934,0.489239,0.120595,-2.76826,0.0911443,
2,0,0,0,0,30594,0.0899907,0.0896385,-0.585375,16,0.0107921,10,-5.24722e-05,-3.23257,0.382303,0.154328,-3.5114,0.0896385,
2,0,0,1,0,30594.3,0.0884923,0.088161,-0.577227,16,0.0106131,10,-5.08889e-05,-3.23865,0.387768,0.152153,-3.43984,0.088161,
2,0,0,1,0,30594.6,0.0869946,0.0866484,-0.575633,16,0.0104358,10,-4.98777e-05,-3.23985,0.475128,0.124177,-2.78745,0.0866484,
2,0,0,1,0,30594.9,0.0854962,0.0851498,-0.57105,16,0.0102594,10,-4.86248e-05,-3.24333,0.504612,0.116921,-2.60402,0.0851498,
2,0,0,1,0,30595.2,0.083998,0.0836864,-0.565815,16,0.0100843,10,-4.7351e-05,-3.24733,0.36676,0.160868,-3.5471,0.0836864,
2,0,0,1,0,30595.5,0.0824998,0.0821743,-0.561393,16,0.00991065,10,-4.61321e-05,-3.25073,0.415155,0.142116,-3.12222,0.0821743,
2,0,0,1,0,30595.8,0.0810014,0.0806841,-0.556811,16,0.00973854,10,-4.49258e-05,-3.25429,0.504315,0.11699,-2.54961,0.0806841,
2,0,0,1,0,30596.1,0.0795035,0.0791448,-0.553884,16,0.00956736,10,-4.38371e-05,-3.25658,0.545572,0.108143,-2.33955,0.0791448,
2,0,0,1,0,30596.4,0.0780056,0.07767,-0.549943,16,0.00939737,10,-4.27141e-05,-3.25968,0.473155,0.124695,-2.67671,0.07767,
2,0,0,0,0,30596.7,0.076507,0.0761894,-0.545813,16,0.00922845,10,-4.15852e-05,-3.26296,0.454003,0.129955,-2.7691,0.0761894,
2,0,0,0,0,30597,0.0750088,0.0746603,-0.54175,16,0.00906108,10,-4.04472e-05,-3.2662,0.466929,0.126358,-2.67539,0.0746603,
2,0,0,1,0,30597.3,0.0735103,0.0731892,-0.539225,16,0.00889459,10,-3.94654e-05,-3.26823,0.646312,0.0912872,-1.91942,0.0731892,
2,0,0,1,0,30597.6,0.0720124,0.0716361,-0.534446,16,0.00872915,10,-3.82857e-05,-3.2721,0.555371,0.106235,-2.2201,0.0716361,
2,0,0,1,0,30597.9,0.0705146,0.0701932,-0.530655,16,0.00856482,10,-3.72484e-05,-3.27519,0.429254,0.137448,-2.85315,0.0701932,
2,0,0,1,0,30598.2,0.0690161,0.0686658,-0.525914,16,0.00840177,10,-3.61123e-05,-3.27909,0.603838,0.0977083,-2.01562,0.0686658,
2,0,0,1,0,30598.5,0.0675179,0.067195,-0.524948,16,0.00823971,10,-3.52739e-05,-3.27988,0.824526,0.0715562,-1.46426,0.067195,
2,0,0,1,0,30598.8,0.0660192,0.0656833,-0.523475,16,0.00807834,10,-3.43836e-05,-3.2811,0.560264,0.105307,-2.14127,0.0656833,
2,0,0,1,0,30599.1,0.0645214,0.0641907,-0.51948,16,0.00791786,10,-3.33457e-05,-3.28443,0.47239,0.124897,-2.52197,0.0641907,
2,0,0,1,0,30599.4,0.0630235,0.0627214,-0.512657,16,0.00775864,10,-3.21546e-05,-3.29017,0.53184,0.110936,-2.22869,0.0627214,
2,0,0,0,0,30599.7,0.0615251,0.0612143,-0.511581,16,0.00760062,10,-3.13161e-05,-3.29109,0.515715,0.114404,-2.28674,0.0612143,
2,0,0,0,0,30600,0.0600269,0.0597011,-0.508273,16,0.00744332,10,-3.03445e-05,-3.2939,0.505231,0.116778,-2.31727,0.0597011,
2,0,0,0,0,30600.3,0.0585287,0.0582112,-0.504641,16,0.007287,10,-2.93758e-05,-3.29702,0.383821,0.153718,-3.02455,0.0582112,
2,0,0,1,0,30600.6,0.0570303,0.0567096,-0.502506,16,0.00713165,10,-2.84969e-05,-3.29886,0.498987,0.11824,-2.31417,0.0567096,
2,0,0,1,0,30600.9,0.0555325,0.0552209,-0.498446,16,0.00697773,10,-2.75246e-05,-3.30238,0.563142,0.104769,-2.04035,0.0552209,
2,0,0,1,0,30601.2,0.0540342,0.0537565,-0.49451,16,0.0068245,10,-2.65831e-05,-3.30583,0.584056,0.101018,-1.94897,0.0537565,
2,0,0,1,0,30601.5,0.052536,0.052203,-0.492103,16,0.00667212,10,-2.56892e-05,-3.30794,0.551721,0.106938,-2.05197,0.05220297,
2,0,0,1,0,30601.8,0.0510378,0.0507333,-0.488091,16,0.00652079,10,-2.47624e-05,-3.3115,0.472238,0.124937,-2.38043,0.0507333,
2,0,0,1,0,30602.1,0.0495394,0.049223,-0.484654,16,0.00637074,10,-2.38561e-05,-3.31457,0.438075,0.13468,-2.54864,0.049223,
2,0,0,1,0,30602.4,0.0480415,0.0476973,-0.48101,16,0.00622168,10,-2.29428e-05,-3.31785,0.654988,0.0900779,-1.69051,0.0476973,
2,0,0,1,0,30602.7,0.0465436,0.046282,-0.477071,16,0.0060736,10,-2.20798e-05,-3.32142,0.49372,0.119501,-2.23125,0.046282,
2,0,0,0,0,30603,0.045045,0.0447504,-0.474108,16,0.00592641,10,-2.12165e-05,-3.32412,0.391417,0.150734,-2.79072,0.0447504,
2,0,0,0,0,30603.3,0.0435468,0.0432478,-0.468404,16,0.00578056,10,-2.02575e-05,-3.32938,0.44809,0.13167,-2.41783,0.0432478,
2,0,0,1,0,30603.6,0.0420483,0.0417058,-0.468251,16,0.0056357,10,-1.95287e-05,-3.32952,0.649789,0.0907987,-1.65584,0.0417058,
2,0,0,1,0,30603.9,0.0405504,0.0402152,-0.465101,16,0.0054916,10,-1.87041e-05,-3.33245,0.535747,0.110127,-1.99188,0.0402152,
2,0,0,1,0,30604.2,0.0390526,0.0387276,-0.460745,16,0.00534836,10,-1.78435e-05,-3.33654,0.384918,0.153279,-2.74882,0.0387276,
2,0,0,1,0,30604.5,0.0375541,0.0372152,-0.45641,16,0.00520641,10,-1.69854e-05,-3.34065,0.394952,0.149385,-2.66545,0.0372152,
2,0,0,1,0,30604.8,0.0360559,0.0357486,-0.45297,16,0.00506586,10,-1.61931e-05,-3.34393,0.451358,0.130717,-2.31582,0.0357486,
2,0,0,1,0,30605.1,0.0345572,0.0342444,-0.450043,16,0.00492605,10,-1.54115e-05,-3.34675,0.554618,0.10638,-1.86854,0.0342444,
2,0,0,1,0,30605.4,0.0330594,0.0327676,-0.447948,16,0.00478718,10,-1.46782e-05,-3.34877,0.420496,0.140311,-2.44644,0.0327676,
2,0,0,1,0,30605.7,0.0315615,0.0312698,-0.443189,16,0.00464934,10,-1.38584e-05,-3.35341,0.474609,0.124313,-2.1503,0.0312698,
2,0,0,0,0,30606,0.0300631,0.0297542,-0.440347,16,0.0045128,10,-1.31022e-05,-3.35621,0.536176,0.110038,-1.89197,0.0297542,
2,0,0,0,0,30606.3,0.0285649,0.028241,-0.436893,16,0.00437701,10,-1.23383e-05,-3.35963,0.524492,0.11249,-1.91724,0.028241,
2,0,0,0,0,30606.6,0.0270667,0.0267394,-0.435755,16,0.00424184,10,-1.16518e-05,-3.36076,0.637874,0.0924947,-1.5665,0.0267394,
2,0,0,1,0,30606.9,0.0255683,0.0252631,-0.43148,16,0.00410776,10,-1.09005e-05,-3.36504,0.512931,0.115025,-1.94034,0.0252631,
2,0,0,1,0,30607.2,0.0240706,0.0237323,-0.428535,16,0.00397463,10,-1.01701e-05,-3.36801,0.750907,0.0785717,-1.31668,0.0237323,
2,0,0,1,0,30607.5,0.0225722,0.0222274,-0.425536,16,0.00384209,10,-9.45855e-06,-3.37106,0.857633,0.068794,-1.14462,0.0222274,
2,0,0,1,0,30607.8,0.021074,0.0207895,-0.423635,16,0.00371035,10,-8.80715e-06,-3.37301,0.602706,0.0978918,-1.62148,0.0207895,
2,0,0,1,0,30608.1,0.0195758,0.0192222,-0.422176,16,0.00357927,10,-8.11515e-06,-3.37451,0.74938,0.0787317,-1.29506,0.0192222,
2,0,0,1,0,30608.4,0.0180774,0.017767,-0.418557,16,0.00344896,10,-7.43651e-06,-3.37825,0.779631,0.0756768,-1.23852,0.017767,
2,0,0,1,0,30608.7,0.0165795,0.0162756,-0.417592,16,0.00331936,10,-6.79657e-06,-3.37925,1.19106,0.0495357,-0.808999,0.0162756,
2,0,0,1,0,30609,0.0150817,0.0147563,-0.418424,16,0.00318999,10,-6.1744e-06,-3.37838,1.23242,0.0478733,-0.778735,0.0147563,
2,0,0,0,0,30609.3,0.013583,0.0132627,-0.415634,16,0.00306077,10,-5.51245e-06,-3.38129,0.727644,0.0810836,-1.31226,0.0132627,
2,0,0,0,0,30609.6,0.0120848,0.0117888,-0.414359,16,0.00293222,10,-4.88478e-06,-3.38262,0.876466,0.0673158,-1.09146,0.01178876,
2,0,0,1,0,30609.9,0.0105863,0.0102753,-0.412929,16,0.00280422,10,-4.24296e-06,-3.38412,2.24256,0.0263092,-0.424852,0.0102753,
2,0,0,1,0,30610.2,0.00908846,0.00879104,-0.41201,16,0.00267619,10,-3.622e-06,-3.38509,-9.16449,-0.00643789,0.103709,0.00879104,
2,0,0,1,0,30610.5,0.0075906,0.00726771,-0.412553,16,0.0025483,10,-2.99832e-06,-3.38452,3.6979,0.015955,-0.257153,0.00726771,
2,0,0,1,0,30610.8,0.00609208,0.00577732,-0.412394,16,0.00242035,10,-2.38253e-06,-3.38469,-4.57359,-0.0129002,0.207455,0.00577732,
2,0,0,1,0,30611.1,0.00459389,0.00430123,-0.413402,16,0.0022926,10,-1.77814e-06,-3.38363,-4.27272,-0.0138085,0.22213,0.00430123,
2,0,0,1,0,30611.4,0.00309525,0.00279509,-0.413341,16,0.00216447,10,-1.15533e-06,-3.38369,-0.892018,-0.0661422,1.06689,0.00279509,
2,0,0,1,0,30611.7,0.00159739,0.001228,-0.418418,16,0.00203443,10,-5.13816e-07,-3.37839, , , ,0.001228,
2,0,0,0,0,30611.9,0.000199195,-0.000140177,-0.415764,16,0.00191401,10,5.82804e-08,-3.38115, , , ,-0.000140177,