File: Figure_codes/Fig_3-5/rawdata_trumpetplot_data/after 10th/20221101_1-115_003_TrumpetPlot_ParaChange_from10_every3_13_CV_C01_27.csv
mode,ox/red,error,control changes,counter inc.,time/s,control/V,Ewe/V,<I>/mA,cycle number,(Q-Qo)/C,I Range,P/W,log(|I|),Tafel slope mV/dec,alpha_eff,dI/d(E-IR),E-IR/V,
2,1,0,1,0,54391.4,2.44065e-05,-0.000248974,16.8311,28,0.0000000E+000,10,-4.19052e-06,-1.77389, , , ,-0.000248974,
2,1,0,1,0,54391.4,0.00266289,0.00225783,18.1207,28,5.47067e-05,10,4.09133e-05,-1.74183, , , ,0.002257827,
2,1,0,1,0,54391.4,0.00586735,0.00550055,19.1833,28,0.000129492,10,0.000105519,-1.71708, , , ,0.00550055,
2,1,0,1,0,54391.4,0.00906349,0.00867541,20.0759,28,0.000208128,10,0.000174167,-1.69732,0.165655,0.356162,275.712,0.00867541,
2,1,0,1,0,54391.4,0.0122624,0.0118577,20.8897,28,0.000290169,10,0.000247703,-1.68007,0.192075,0.307172,248.484,0.0118577,
2,1,0,1,0,54391.4,0.0154641,0.0150781,21.6554,28,0.000375338,10,0.000326523,-1.66443,0.213572,0.276254,232.085,0.0150781,
2,1,0,1,0,54391.4,0.0186602,0.0182572,22.3531,28,0.000463439,10,0.000408106,-1.65066,0.236222,0.249765,216.946,0.01825724,
2,1,0,1,0,54391.4,0.0218675,0.0214703,23.0454,28,0.000554323,10,0.000494791,-1.63742,0.255351,0.231054,206.942,0.0214703,
2,1,0,1,0,54391.4,0.0250636,0.0247268,23.6816,28,0.000647871,10,0.000585568,-1.62559,0.273895,0.215411,198.395,0.0247268,
2,1,0,1,0,54391.4,0.0282597,0.0278285,24.2939,28,0.0007439,10,0.000676063,-1.6145,0.295803,0.199457,188.627,0.0278285,
2,1,0,1,0,54391.4,0.031467,0.0310489,24.8909,28,0.000842362,10,0.000772837,-1.60396,0.31058,0.189967,184.133,0.03104892,
2,1,0,1,0,54391.4,0.0346631,0.0342651,25.4589,28,0.000943134,10,0.000872352,-1.59416,0.331531,0.177962,176.495,0.0342651,
2,1,0,1,0,54391.4,0.0378704,0.0374718,26.0283,28,0.00104618,10,0.000975329,-1.58455,0.351334,0.167931,170.199,0.0374718,
2,1,0,1,0,54391.4,0.0410665,0.0406912,26.5642,28,0.00115141,10,0.00108093,-1.5757,0.365122,0.16159,167.223,0.0406912,
2,1,0,1,0,54391.4,0.0442626,0.0439021,27.0785,28,0.00125876,10,0.0011888,-1.56737,0.386739,0.152557,161.052,0.0439021,
2,1,0,1,0,54391.4,0.0474671,0.0470886,27.6033,28,0.00136817,10,0.0012998,-1.55904,0.397958,0.148257,159.53,0.04708863,
2,1,0,1,0,54391.4,0.0506632,0.0503239,28.0982,28,0.00147962,10,0.00141401,-1.55132,0.408768,0.144336,158.155,0.05032393,
2,1,0,1,0,54391.4,0.0538621,0.0534808,28.6045,28,0.00159307,10,0.00152979,-1.54357,0.426601,0.138302,154.249,0.0534808,
2,1,0,1,0,54391.4,0.0570638,0.0566768,29.0989,28,0.00170855,10,0.00164923,-1.53612,0.43557,0.135455,153.673,0.0566768,
2,1,0,1,0,54391.5,0.06026,0.0598708,29.5749,28,0.00182596,10,0.00177067,-1.52908,0.449803,0.131169,151.326,0.0598708,
2,1,0,1,0,54391.5,0.0634672,0.0631103,30.0631,28,0.0019453,10,0.00189729,-1.52197,0.460984,0.127987,150.09,0.0631103,
2,1,0,1,0,54391.5,0.0666633,0.0662618,30.5386,28,0.00206655,10,0.00202354,-1.51515,0.466977,0.126345,150.547,0.0662618,
2,1,0,1,0,54391.5,0.0698595,0.0694643,31.0182,28,0.00218973,10,0.00215466,-1.50838,0.475353,0.124118,150.202,0.0694643,
2,1,0,1,0,54391.5,0.0730667,0.0727187,31.5091,28,0.00231484,10,0.0022913,-1.50156,0.481902,0.122431,150.475,0.0727187,
2,1,0,1,0,54391.5,0.0762629,0.0758235,31.9727,28,0.00244186,10,0.00242428,-1.49522,0.494109,0.119407,148.968,0.0758235,
2,1,0,1,0,54391.5,0.0794701,0.0790726,32.4663,28,0.00257076,10,0.00256719,-1.48857,0.499566,0.118103,149.584,0.07907261,
2,1,0,1,0,54391.5,0.0826662,0.0823302,32.9348,28,0.0027016,10,0.00271153,-1.48235,0.503753,0.117121,150.524,0.0823302,
2,1,0,1,0,54391.5,0.0858624,0.0854711,33.4167,28,0.00283435,10,0.00285616,-1.47604,0.51308,0.114992,149.969,0.0854711,
2,1,0,1,0,54391.5,0.0890668,0.0886863,33.9088,28,0.00296907,10,0.00300725,-1.46969,0.512673,0.115083,152.234,0.0886863,
2,1,0,1,0,54391.5,0.092263,0.0918781,34.3867,28,0.0031057,10,0.00315939,-1.46361,0.521197,0.113201,151.877,0.0918781,
2,1,0,1,0,54391.5,0.0954674,0.0950657,34.8736,28,0.00324427,10,0.00331528,-1.4575,0.53016,0.111287,151.441,0.0950657,
2,1,0,1,0,54391.5,0.0986636,0.098249,35.3573,28,0.00338478,10,0.00347382,-1.45152,0.530653,0.111184,153.434,0.098249,
2,1,0,1,0,54391.5,0.10186,0.101481,35.8465,28,0.00352724,10,0.00363774,-1.44555,0.539856,0.109288,152.882,0.101481,
2,1,0,1,0,54391.5,0.105067,0.104688,36.3522,28,0.00367169,10,0.00380563,-1.43947,0.543459,0.108564,153.951,0.104688,
2,1,0,1,0,54391.5,0.108263,0.107881,36.8327,28,0.00381812,10,0.00397354,-1.43377,0.548598,0.107547,154.563,0.107881,
2,1,0,1,0,54391.5,0.111465,0.111077,37.3322,28,0.00396648,10,0.00414674,-1.42792,0.551217,0.107036,155.964,0.111077,
2,1,0,1,0,54391.5,0.114666,0.11426,37.8216,28,0.00411684,10,0.0043215,-1.42226,0.550484,0.107178,158.254,0.11426,
2,1,0,1,0,54391.5,0.117863,0.117422,38.3383,28,0.0042692,10,0.00450176,-1.41637,0.552441,0.106799,159.829,0.117422,
2,1,0,1,0,54391.5,0.12107,0.120649,38.8534,28,0.00442363,10,0.00468762,-1.41057,0.547614,0.10774,163.373,0.120649,
2,1,0,1,0,54391.5,0.124266,0.123883,39.379,28,0.00458013,10,0.0048784,-1.40473,0.548576,0.107551,165.325,0.123883,
2,1,0,1,0,54391.5,0.127462,0.127015,39.9054,28,0.00473876,10,0.00506857,-1.39897,0.549127,0.107443,167.379,0.127015,
2,1,0,1,0,54391.5,0.130667,0.130232,40.456,28,0.00489953,10,0.00526867,-1.39302,0.542785,0.108699,171.666,0.130232,
2,1,0,1,0,54391.5,0.133863,0.133475,41.0001,28,0.00506251,10,0.00547248,-1.38721,0.550076,0.107258,171.601,0.133475,
2,1,0,1,0,54391.5,0.137067,0.136669,41.5738,28,0.00522769,10,0.00568184,-1.38118,0.557243,0.105878,171.655,0.136669,
2,1,0,1,0,54391.6,0.140263,0.139824,42.1035,28,0.00539512,10,0.0058871,-1.37568,0.540952,0.109067,179.342,0.139824,
2,1,0,1,0,54391.6,0.143459,0.142996,42.6471,28,0.00556465,10,0.00609836,-1.37011,0.5373,0.109808,183.113,0.142996,
2,1,0,1,0,54391.6,0.146667,0.146226,43.287,28,0.00573664,10,0.00632968,-1.36364,0.533944,0.110498,186.701,0.146226,
2,1,0,1,0,54391.6,0.149863,0.149399,43.9049,28,0.00591109,10,0.00655934,-1.35749,0.535748,0.110126,188.472,0.149399,
2,1,0,1,0,54391.6,0.153064,0.152696,44.5066,28,0.00608798,10,0.00679596,-1.35158,0.561762,0.105027,182.18,0.152696,
2,1,0,1,0,54391.6,0.156266,0.155904,45.0799,28,0.00626722,10,0.00702816,-1.34602,0.587643,0.100401,176.445,0.155904,
2,1,0,1,0,54391.6,0.159462,0.159068,45.6265,28,0.00644869,10,0.00725769,-1.34078,0.615381,0.0958756,170.585,0.159068,
2,1,0,1,0,54391.6,0.16267,0.162266,46.1752,28,0.00663234,10,0.00749265,-1.33559,0.635702,0.0928107,167.115,0.162266,
2,1,0,1,0,54391.6,0.165866,0.1655,46.6909,28,0.00681815,10,0.00772734,-1.33077,0.669847,0.0880798,160.341,0.1655,
2,1,0,1,0,54391.6,0.169062,0.168659,47.2114,28,0.007006,10,0.00796263,-1.32595,0.708355,0.0832915,153.261,0.168659,
2,1,0,1,0,54391.6,0.172266,0.171867,47.6787,28,0.00719586,10,0.00819438,-1.32168,0.751197,0.0785413,145.96,0.171867,
2,1,0,1,0,54391.6,0.175462,0.175055,48.1353,28,0.00738754,10,0.00842635,-1.31754,0.811888,0.0726701,136.366,0.175055,
2,1,0,1,0,54391.6,0.178667,0.178288,48.5575,28,0.00758098,10,0.00865724,-1.31374,0.881742,0.066913,126.612,0.178288,
2,1,0,1,0,54391.6,0.181863,0.18151,48.9639,28,0.00777607,10,0.00888743,-1.31012,0.985174,0.0598879,114.208,0.18151,
2,1,0,1,0,54391.6,0.185059,0.184663,49.2988,28,0.00797265,10,0.00910364,-1.30716,1.13414,0.0520218,99.8754,0.184663,
2,1,0,1,0,54391.6,0.188266,0.187888,49.601,28,0.00817051,10,0.00931945,-1.30451,1.36683,0.0431656,83.3793,0.187888,
2,1,0,1,0,54391.6,0.191463,0.191085,49.8356,28,0.00836944,10,0.00952285,-1.30246,1.69855,0.0347355,67.4127,0.191085,
2,1,0,1,0,54391.6,0.194664,0.194283,50.0288,28,0.00856919,10,0.00971973,-1.30078,2.335,0.0252677,49.223,0.194283,
2,1,0,1,0,54391.6,0.197866,0.197444,50.1604,28,0.00876962,10,0.00990385,-1.29964,3.61673,0.0163131,31.8575,0.197444,
2,1,0,1,0,54391.6,0.201062,0.200709,50.232,28,0.00897042,10,0.010082,-1.29902,8.42033,0.00700685,13.7047,0.200709,
2,1,0,1,0,54391.6,0.204269,0.203891,50.2435,28,0.00917139,10,0.0102442,-1.29892,-18.4538,-0.00319716,-6.25377,0.203891,
2,1,0,1,0,54391.6,0.207465,0.20713,50.2049,28,0.00937227,10,0.010399,-1.29925,-4.81945,-0.0122421,-23.9261,0.20713,
2,1,0,1,0,54391.6,0.210662,0.210292,50.0801,28,0.00957285,10,0.0105314,-1.30034,-2.70961,-0.0217744,-42.465,0.210292,
2,1,0,1,0,54391.6,0.213866,0.213506,49.9259,28,0.00977288,10,0.0106595,-1.30167,-1.89978,-0.0310562,-60.3814,0.213506,
2,1,0,1,0,54391.6,0.217062,0.216684,49.7003,28,0.00997213,10,0.0107692,-1.30364,-1.47278,-0.0400602,-77.5175,0.216684,
2,1,0,1,0,54391.7,0.220267,0.219892,49.4343,28,0.0101704,10,0.0108702,-1.30597,-1.18616,-0.0497405,-95.7241,0.219892,
2,1,0,1,0,54391.7,0.223463,0.223102,49.087,28,0.0103674,10,0.0109514,-1.30903,-1.00994,-0.0584193,-111.675,0.223102,
2,1,0,1,0,54391.7,0.226659,0.22629,48.7021,28,0.010563,10,0.0110208,-1.31245,-0.876145,-0.0673405,-127.75,0.22629,
2,1,0,1,0,54391.7,0.229866,0.229489,48.2702,28,0.0107569,10,0.0110775,-1.31632,-0.779371,-0.075702,-142.316,0.229489,
2,1,0,1,0,54391.7,0.233062,0.232734,47.7938,28,0.010949,10,0.0111232,-1.32063,-0.703885,-0.0838205,-156.022,0.232734,
2,1,0,1,0,54391.7,0.236264,0.235898,47.2659,28,0.0111391,10,0.01115,-1.32545,-0.640347,-0.0921375,-169.633,0.235898,
2,1,0,1,0,54391.7,0.239466,0.23911,46.7018,28,0.011327,10,0.0111669,-1.33067,-0.593312,-0.0994417,-180.959,0.2391102,
2,1,0,1,0,54391.7,0.242662,0.242304,46.0964,28,0.0115125,10,0.0111693,-1.33633,-0.556481,-0.106023,-190.478,0.242304,
2,1,0,1,0,54391.7,0.245869,0.245511,45.4817,28,0.0116956,10,0.0111663,-1.34216,-0.523725,-0.112655,-199.654,0.245511,
2,1,0,1,0,54391.7,0.249065,0.24872,44.8237,28,0.0118762,10,0.0111485,-1.34849,-0.500914,-0.117785,-205.778,0.24872,
2,1,0,1,0,54391.7,0.252261,0.251916,44.1452,28,0.012054,10,0.0111209,-1.35512,-0.478895,-0.1232,-212.079,0.251916,
2,1,0,1,0,54391.7,0.255466,0.255112,43.4609,28,0.0122292,10,0.0110874,-1.3619,-0.466024,-0.126603,-214.611,0.255112,
2,1,0,1,0,54391.7,0.258662,0.258329,42.7632,28,0.0124016,10,0.011047,-1.36893,-0.455133,-0.129633,-216.257,0.258329,
2,1,0,1,0,54391.7,0.261866,0.261522,42.0762,28,0.0125712,10,0.0110039,-1.37596,-0.444199,-0.132823,-217.981,0.261522,
2,1,0,1,0,54391.7,0.265063,0.26472,41.3761,28,0.012738,10,0.0109531,-1.38325,-0.440585,-0.133913,-216.184,0.26472,
2,1,0,1,0,54391.7,0.268259,0.267902,40.6728,28,0.0129021,10,0.0108963,-1.3907,-0.435765,-0.135394,-214.962,0.267902,
2,1,0,1,0,54391.7,0.271466,0.271119,39.9983,28,0.0130634,10,0.0108443,-1.39796,-0.436673,-0.135113,-210.975,0.271119,
2,1,0,1,0,54391.7,0.274662,0.274353,39.3181,28,0.0132219,10,0.010787,-1.40541,-0.438148,-0.134658,-206.712,0.274353,
2,1,0,1,0,54391.7,0.277869,0.277524,38.6747,28,0.0133779,10,0.0107332,-1.41257,-0.437873,-0.134742,-203.418,0.277524,
2,1,0,1,0,54391.7,0.281065,0.280709,38.0255,28,0.0135312,10,0.0106741,-1.41993,-0.443872,-0.132921,-197.338,0.280709,
2,1,0,1,0,54391.7,0.284262,0.283906,37.3972,28,0.013682,10,0.0106173,-1.42716,-0.445266,-0.132505,-193.532,0.283906,
2,1,0,1,0,54391.7,0.287469,0.287153,36.7921,28,0.0138303,10,0.010565,-1.43425,-0.452542,-0.130375,-187.325,0.287153,
2,1,0,1,0,54391.7,0.290665,0.290303,36.2016,28,0.0139762,10,0.0105094,-1.44127,-0.465964,-0.126619,-179.069,0.290303,
2,1,0,1,0,54391.7,0.293861,0.293483,35.6327,28,0.0141198,10,0.0104576,-1.44815,-0.468278,-0.125994,-175.632,0.293483,
2,1,0,1,0,54391.7,0.297066,0.296724,35.1018,28,0.0142612,10,0.0104156,-1.45467,-0.472414,-0.12489,-172.474,0.2967242,
2,1,0,1,0,54391.8,0.299638,0.29926,34.6658,28,0.0143729,10,0.0103741,-1.4601,-0.128457,-0.459296,-609.488,0.29926,
2,1,0,1,0,54391.8,0.300012,0.299689,34.5828,28,0.0143902,10,0.0103641,-1.46114,0.0109094,5.40817,6573.55,0.2996892,
2,1,0,1,0,54391.8,0.298983,0.29875,32.4225,28,0.0144329,10,0.0096862,-1.48915,0.0426766,1.38249,1557.28,0.2987496,
2,1,0,1,0,54391.8,0.295787,0.295567,27.4971,28,0.0145517,10,0.00812724,-1.56071,0.0468839,1.25843,1324.29,0.295567,
2,1,0,1,0,54391.8,0.292579,0.292248,23.747,28,0.0146536,10,0.00694002,-1.62439,0.0490995,1.20164,1141.93,0.292248,
2,1,0,1,0,54391.8,0.289383,0.289098,20.5567,28,0.0147418,10,0.0059429,-1.68705,0.0499788,1.1805,955.556,0.289098,
2,1,0,1,0,54391.8,0.286187,0.285895,17.7438,28,0.014818,10,0.00507287,-1.75095,0.0481498,1.22534,850.051,0.285895,
2,1,0,1,0,54391.8,0.282983,0.282692,15.1939,28,0.0148836,10,0.00429519,-1.81833,0.0457471,1.2897,762.999,0.2826919,
2,1,0,1,0,54391.8,0.279786,0.279488,12.9005,28,0.0149394,10,0.00360553,-1.88939,0.0427346,1.38061,690.234,0.279488,
2,1,0,1,0,54391.8,0.276582,0.276311,10.8007,28,0.0149866,10,0.00298435,-1.96655,0.0387976,1.52071,631.701,0.2763114,
2,1,0,1,0,54391.8,0.273386,0.273067,8.88894,28,0.0150258,10,0.00242727,-2.05115,0.0343028,1.71998,580.828,0.273067,
2,1,0,1,0,54391.8,0.27019,0.269892,7.10798,28,0.0150575,10,0.00191838,-2.14825,0.0292541,2.01681,535.231,0.269892,
2,1,0,1,0,54391.8,0.266982,0.266677,5.45899,28,0.0150824,10,0.00145579,-2.26289,0.0233882,2.52264,497.309,0.266677,
2,1,0,1,0,54391.8,0.263786,0.263485,3.93545,28,0.015101,10,0.00103693,-2.40501,0.0165341,3.56837,461.24,0.263485,
2,1,0,1,0,54391.8,0.260585,0.260257,2.51855,28,0.0151138,10,0.000655469,-2.59885,0.00591362,9.97696,428.481,0.260257,
2,1,0,1,0,54391.8,0.257383,0.257063,1.19083,28,0.015121,10,0.000306119,-2.92415,0.0249918,2.36077,402.8,0.257063,
2,1,0,1,0,54391.8,0.254187,0.25385,-0.0369922,28,0.0151232,10,-9.39048e-06,-4.43189,0.316767,0.186257,374.901,0.25385,
2,0,0,1,0,54391.8,0.25098,0.250705,-1.21234,28,0.0151206,10,-0.00030394,-2.91637,-0.0288802,-2.04292,350.839,0.250705,
2,0,0,1,0,54391.8,0.247783,0.24742,-2.29416,28,0.0151134,10,-0.000567621,-2.63938,-0.00618858,-9.53368,332.109,0.24742,
2,0,0,1,0,54391.8,0.244587,0.244214,-3.31708,28,0.0151021,10,-0.000810077,-2.47924,-0.0203196,-2.9036,309.696,0.244214,
2,0,0,1,0,54391.8,0.241383,0.241083,-4.27713,28,0.0150868,10,-0.00103114,-2.36885,-0.0303097,-1.94657,293.995,0.241083,
2,0,0,1,0,54391.8,0.238187,0.237884,-5.18274,28,0.0150677,10,-0.00123289,-2.28544,-0.0404898,-1.45716,277.288,0.2378844,
2,0,0,1,0,54391.8,0.234982,0.234675,-6.04113,28,0.0150452,10,-0.0014177,-2.21888,-0.0511915,-1.15253,260.345,0.234675,
2,0,0,1,0,54391.8,0.231786,0.231436,-6.86024,28,0.0150193,10,-0.00158771,-2.16366,-0.0617795,-0.955009,247.598,0.231436,
2,0,0,1,0,54391.8,0.22859,0.228247,-7.6187,28,0.0149902,10,-0.00173895,-2.11812,-0.0732099,-0.805902,234.016,0.228247,
2,0,0,1,0,54391.8,0.225383,0.225071,-8.35519,28,0.0149582,10,-0.00188052,-2.07804,-0.0843741,-0.699266,224.129,0.225071,
2,0,0,1,0,54391.8,0.222187,0.221856,-9.0408,28,0.0149233,10,-0.00200576,-2.04379,-0.0959311,-0.615025,214.023,0.221856,
2,0,0,1,0,54391.9,0.218979,0.218621,-9.73245,28,0.0148857,10,-0.00212772,-2.01178,-0.108815,-0.542205,203.061,0.218621,
2,0,0,1,0,54391.9,0.215783,0.215465,-10.3544,28,0.0148454,10,-0.00223101,-1.98488,-0.120899,-0.488009,194.944,0.215465,
2,0,0,1,0,54391.9,0.212587,0.212271,-10.9544,28,0.0148027,10,-0.00232531,-1.96041,-0.135408,-0.435721,184.89,0.212271,
2,0,0,1,0,54391.9,0.20938,0.209079,-11.5316,28,0.0147577,10,-0.00241102,-1.93811,-0.148501,-0.397304,177.633,0.209079,
2,0,0,1,0,54391.9,0.206184,0.205822,-12.0989,28,0.0147104,10,-0.00249021,-1.91725,-0.161461,-0.365414,171.425,0.205822,
2,0,0,1,0,54391.9,0.202988,0.202635,-12.6334,28,0.0146609,10,-0.00255997,-1.89848,-0.176072,-0.335091,164.249,0.202635,
2,0,0,1,0,54391.9,0.199783,0.199441,-13.1538,28,0.0146092,10,-0.00262341,-1.88095,-0.189449,-0.31143,159.075,0.199441,
2,0,0,1,0,54391.9,0.196587,0.1962,-13.647,28,0.0145556,10,-0.00267755,-1.86496,-0.205787,-0.286705,152.019,0.1961998,
2,0,0,1,0,54391.9,0.193382,0.193055,-14.1298,28,0.0145,10,-0.00272783,-1.84986,-0.218659,-0.269827,148.273,0.193055,
2,0,0,1,0,54391.9,0.190186,0.189792,-14.5859,28,0.0144425,10,-0.00276828,-1.83607,-0.230662,-0.255786,145.274,0.189792,
2,0,0,1,0,54391.9,0.18699,0.186657,-15.0493,28,0.0143831,10,-0.00280906,-1.82248,-0.244771,-0.241041,141.241,0.186657,
2,0,0,1,0,54391.9,0.183783,0.18346,-15.4978,28,0.014322,10,-0.00284323,-1.80973,-0.25565,-0.230785,139.213,0.18346,
2,0,0,1,0,54391.9,0.180587,0.180275,-15.9349,28,0.0142591,10,-0.00287266,-1.79765,-0.271932,-0.216966,134.597,0.180275,
2,0,0,1,0,54391.9,0.17738,0.17704,-16.361,28,0.0141944,10,-0.00289656,-1.78619,-0.284285,-0.207538,132.288,0.17704,
2,0,0,1,0,54391.9,0.174183,0.17385,-16.7732,28,0.0141281,10,-0.00291601,-1.77538,-0.29199,-0.202062,132.25,0.17385,
2,0,0,1,0,54391.9,0.170987,0.170615,-17.197,28,0.0140601,10,-0.00293407,-1.76455,-0.301559,-0.19565,131.244,0.170615,
2,0,0,1,0,54391.9,0.16778,0.167419,-17.635,28,0.0139904,10,-0.00295244,-1.75362,-0.306664,-0.192393,132.19,0.167419,
2,0,0,1,0,54391.9,0.164584,0.164223,-18.0432,28,0.013919,10,-0.00296311,-1.74369,-0.312942,-0.188533,132.678,0.164223,
2,0,0,1,0,54391.9,0.161382,0.161054,-18.4647,28,0.013846,10,-0.0029738,-1.73366,-0.316475,-0.186429,134.457,0.1610537,
2,0,0,1,0,54391.9,0.158183,0.157825,-18.894,28,0.0137712,10,-0.00298195,-1.72368,-0.315385,-0.187073,138.082,0.157825,
2,0,0,1,0,54391.9,0.154987,0.15465,-19.3519,28,0.0136947,10,-0.00299278,-1.71328,-0.31379,-0.188024,142.07,0.1546499,
2,0,0,1,0,54391.9,0.151783,0.151425,-19.8104,28,0.0136163,10,-0.00299979,-1.70311,-0.309241,-0.19079,147.588,0.151425,
2,0,0,1,0,54391.9,0.148587,0.148237,-20.2856,28,0.0135361,10,-0.00300707,-1.69281,-0.304272,-0.193906,153.784,0.148237,
2,0,0,1,0,54391.9,0.145385,0.145056,-20.7785,28,0.0134539,10,-0.00301405,-1.68239,-0.295714,-0.199517,162.191,0.145056,
2,0,0,1,0,54391.9,0.142183,0.141832,-21.3232,28,0.0133697,10,-0.0030243,-1.67115,-0.282582,-0.208789,174.196,0.1418317,
2,0,0,1,0,54392,0.138987,0.138644,-21.8833,28,0.0132832,10,-0.003034,-1.65989,-0.272723,-0.216337,185.245,0.138644,
2,0,0,1,0,54392,0.13578,0.135472,-22.5091,28,0.0131944,10,-0.00304936,-1.64764,-0.262358,-0.224883,198.029,0.135472,
2,0,0,1,0,54392,0.132584,0.132277,-23.1457,28,0.013103,10,-0.00306166,-1.63553,-0.251617,-0.234483,212.459,0.132277,
2,0,0,1,0,54392,0.129388,0.129065,-23.8513,28,0.013009,10,-0.00307837,-1.62249,-0.242298,-0.243502,227.438,0.129065,
2,0,0,1,0,54392,0.12618,0.125843,-24.6031,28,0.012912,10,-0.00309612,-1.60901,-0.232471,-0.253795,244.436,0.125843,
2,0,0,1,0,54392,0.122984,0.122692,-25.4157,28,0.0128119,10,-0.00311832,-1.5949,-0.226679,-0.260279,258.79,0.122692,
2,0,0,1,0,54392,0.119783,0.119466,-26.2774,28,0.0127084,10,-0.00313925,-1.58042,-0.220378,-0.267722,275.001,0.119466,
2,0,0,1,0,54392,0.116584,0.116224,-27.1745,28,0.0126014,10,-0.00315833,-1.56584,-0.218256,-0.270324,287.117,0.116224,
2,0,0,1,0,54392,0.113387,0.113072,-28.115,28,0.0124908,10,-0.00317903,-1.55106,-0.217669,-0.271054,297.651,0.113072,
2,0,0,1,0,54392,0.110183,0.109869,-29.0976,28,0.0123762,10,-0.00319692,-1.53614,-0.217605,-0.271133,307.825,0.109869,
2,0,0,1,0,54392,0.106987,0.106678,-30.0836,28,0.0122578,10,-0.00320926,-1.52167,-0.222933,-0.264654,310.432,0.106678,
2,0,0,1,0,54392,0.103785,0.103486,-31.0955,28,0.0121353,10,-0.00321796,-1.5073,-0.23095,-0.255466,309.459,0.103486,
2,0,0,1,0,54392,0.100583,0.100289,-32.0833,28,0.0120088,10,-0.00321761,-1.49372,-0.238276,-0.247612,309.48,0.100289,
2,0,0,1,0,54392,0.0973873,0.0970497,-33.0646,28,0.0118784,10,-0.00320891,-1.48064,-0.248298,-0.237618,306.245,0.0970497,
2,0,0,1,0,54392,0.0941801,0.0938642,-34.0493,28,0.0117441,10,-0.00319601,-1.46789,-0.259912,-0.227,301.01,0.0938642,
2,0,0,1,0,54392,0.0909839,0.0906385,-35.0301,28,0.0116059,10,-0.00317507,-1.45556,-0.272629,-0.216411,294.802,0.0906385,
2,0,0,1,0,54392,0.0877878,0.0874604,-35.9449,28,0.0114638,10,-0.00314375,-1.44436,-0.288134,-0.204766,286.407,0.0874604,
2,0,0,1,0,54392,0.0845806,0.0843365,-36.8125,28,0.0113182,10,-0.00310464,-1.434,-0.303098,-0.194656,279.418,0.08433646,
2,0,0,1,0,54392,0.0813844,0.0811468,-37.6916,28,0.0111691,10,-0.00305855,-1.42376,-0.321969,-0.183248,269.174,0.0811468,
2,0,0,1,0,54392,0.0781828,0.0779019,-38.5889,28,0.0110164,10,-0.00300615,-1.41354,-0.338189,-0.174459,261.908,0.0779019,
2,0,0,1,0,54392,0.0749838,0.0746825,-39.3844,28,0.0108604,10,-0.00294132,-1.40468,-0.362012,-0.162978,249.801,0.0746825,
2,0,0,1,0,54392,0.0717877,0.071513,-40.1711,28,0.0107012,10,-0.00287275,-1.39609,-0.394851,-0.149424,233.645,0.071513,
2,0,0,1,0,54392,0.0685832,0.0683052,-40.8995,28,0.0105389,10,-0.00279365,-1.38828,-0.424676,-0.138929,221.124,0.0683052,
2,0,0,1,0,54392,0.0653871,0.0651007,-41.5798,28,0.0103739,10,-0.00270688,-1.38112,-0.460815,-0.128034,207.279,0.0651007,
2,0,0,1,0,54392,0.0621854,0.0618845,-42.2143,28,0.0102062,10,-0.00261241,-1.37454,-0.504013,-0.117061,192.416,0.0618845,
2,0,0,1,0,54392.1,0.0589837,0.0587224,-42.8223,28,0.010036,10,-0.00251463,-1.36833,-0.543672,-0.108521,180.964,0.0587224,
2,0,0,1,0,54392.1,0.0557876,0.0555157,-43.3604,28,0.0098636,10,-0.00240718,-1.36291,-0.591607,-0.0997284,168.452,0.05551568,
2,0,0,1,0,54392.1,0.0525804,0.0522942,-43.8974,28,0.00968901,10,-0.00229558,-1.35756,-0.650394,-0.0907143,155.095,0.0522942,
2,0,0,1,0,54392.1,0.0493842,0.0491193,-44.3646,28,0.00951243,10,-0.00217916,-1.35296,-0.690563,-0.0854376,147.716,0.0491193,
2,0,0,1,0,54392.1,0.0461881,0.0459095,-44.8095,28,0.00933402,10,-0.00205718,-1.34863,-0.758068,-0.0778295,135.976,0.0459095,
2,0,0,1,0,54392.1,0.0429808,0.0426848,-45.2557,28,0.00915381,10,-0.00193173,-1.34433,-0.817891,-0.0721368,127.182,0.04268476,
2,0,0,1,0,54392.1,0.0397847,0.039423,-45.6475,28,0.00897195,10,-0.00179956,-1.34058,-0.895264,-0.0659024,117.177,0.039423,
2,0,0,1,0,54392.1,0.036583,0.0362852,-45.9969,28,0.0087886,10,-0.00166901,-1.33727,-1.01335,-0.0582226,104.349,0.03628521,
2,0,0,1,0,54392.1,0.0333841,0.0330382,-46.3177,28,0.00860395,10,-0.00153026,-1.33425,-1.09976,-0.053648,96.8595,0.0330382,
2,0,0,1,0,54392.1,0.030188,0.0298242,-46.5977,28,0.00841808,10,-0.00138974,-1.33164,-1.23646,-0.0477169,86.6859,0.0298242,
2,0,0,1,0,54392.1,0.0269835,0.0266769,-46.8821,28,0.00823107,10,-0.00125067,-1.32899,-1.37097,-0.0430351,78.6327,0.0266769,
2,0,0,1,0,54392.1,0.0237874,0.0234903,-47.106,28,0.00804306,10,-0.00110654,-1.32692,-1.53947,-0.0383248,70.3672,0.0234903,
2,0,0,1,0,54392.1,0.0205857,0.0202582,-47.3226,28,0.00785416,10,-0.000958673,-1.32493,-1.78503,-0.0330527,60.9781,0.0202582,
2,0,0,1,0,54392.1,0.017384,0.0170303,-47.498,28,0.00766447,10,-0.000808907,-1.32332,-1.99207,-0.0296174,54.8554,0.0170303,
2,0,0,1,0,54392.1,0.0141879,0.0138555,-47.6639,28,0.00747413,10,-0.000660407,-1.32181,-2.36035,-0.0249963,46.4544,0.0138555,
2,0,0,1,0,54392.1,0.0109806,0.0106319,-47.8114,28,0.00728315,10,-0.000508324,-1.32047,-2.80595,-0.0210268,39.1828,0.0106319,
2,0,0,1,0,54392.1,0.00778448,0.00743685,-47.9183,28,0.00709167,10,-0.000356361,-1.3195,-3.12291,-0.0188927,35.3108,0.007436852,
2,0,0,1,0,54392.1,0.00458834,0.00422382,-47.9998,28,0.00689981,10,-0.000202742,-1.31876,-4.42756,-0.0133256,24.948,0.00422382,
2,0,0,1,0,54392.1,0.0013811,0.000991701,-48.1182,28,0.00670759,10,-4.77189e-05,-1.31769,-5.71619,-0.0103216,19.3522,0.000991701,
2,0,0,1,0,54392.1,-0.00181504,-0.002233,-48.1324,28,0.0065151,10,0.000107479,-1.31756,-9.94576,-0.00593218,11.1291,-0.002232996,
2,0,0,1,0,54392.1,-0.0050195,-0.0053718,-48.1661,28,0.00632251,10,0.000258739,-1.31726,366.75,0.000160872,-0.302091,-0.0053718,
2,0,0,1,0,54392.1,-0.00821564,-0.00857423,-48.1422,28,0.00612989,10,0.000412782,-1.31747,18.9787,0.00310875,-5.83512,-0.00857423,
2,0,0,1,0,54392.1,-0.0114118,-0.0117629,-48.1143,28,0.00593737,10,0.000565963,-1.31773,7.52496,0.00784057,-14.7096,-0.0117629,
2,0,0,1,0,54392.1,-0.0146162,-0.0150173,-48.0578,28,0.00574501,10,0.000721696,-1.31824,5.83367,0.0101137,-18.9539,-0.0150173,
2,0,0,1,0,54392.1,-0.0178124,-0.0182091,-47.9773,28,0.00555293,10,0.000873623,-1.31896,4.27699,0.0137947,-25.8135,-0.0182091,
2,0,0,1,0,54392.2,-0.0210196,-0.0214338,-47.8985,28,0.00536118,10,0.00102665,-1.31968,3.40566,0.0173241,-32.3517,-0.0214338,
2,0,0,1,0,54392.2,-0.0242158,-0.0246383,-47.782,28,0.00516983,10,0.00117727,-1.32074,3.0162,0.0195611,-36.4476,-0.0246383,
2,0,0,1,0,54392.2,-0.0274119,-0.0278344,-47.6431,28,0.00497896,10,0.00132612,-1.322,2.50994,0.0235066,-43.6849,-0.0278344,
2,0,0,1,0,54392.2,-0.0306191,-0.0310294,-47.51,28,0.00478866,10,0.00147421,-1.32321,2.4163,0.0244175,-45.257,-0.0310294,
2,0,0,1,0,54392.2,-0.0338153,-0.0342106,-47.3403,28,0.00459895,10,0.00161954,-1.32477,2.2718,0.0259706,-47.9768,-0.03421063,
2,0,0,1,0,54392.2,-0.037017,-0.0374226,-47.2034,28,0.00440986,10,0.00176647,-1.32603,2.11693,0.0278706,-51.3193,-0.0374226,
2,0,0,1,0,54392.2,-0.0402187,-0.0406378,-47.0288,28,0.00422142,10,0.00191115,-1.32764,2.08732,0.0282659,-51.8556,-0.0406378,
2,0,0,1,0,54392.2,-0.0434148,-0.0438052,-46.8544,28,0.00403367,10,0.00205246,-1.32925,1.9586,0.0301236,-55.0789,-0.0438052,
2,0,0,1,0,54392.2,-0.0466193,-0.0470055,-46.6768,28,0.00384664,10,0.00219407,-1.3309,1.92905,0.030585,-55.7112,-0.0470055,
2,0,0,1,0,54392.2,-0.0498154,-0.0502026,-46.4995,28,0.00366031,10,0.0023344,-1.33255,1.96758,0.029986,-54.4231,-0.0502026,
2,0,0,1,0,54392.2,-0.0530115,-0.0533616,-46.32,28,0.00347468,10,0.00247171,-1.33423,1.95133,0.0302358,-54.6647,-0.0533616,
2,0,0,1,0,54392.2,-0.056216,-0.0566075,-46.1576,28,0.00328972,10,0.00261287,-1.33576,2.03489,0.0289942,-52.2368,-0.0566075,
2,0,0,1,0,54392.2,-0.0594121,-0.0598216,-45.9762,28,0.00310546,10,0.00275037,-1.33747,2.04416,0.0288627,-51.8005,-0.05982158,
2,0,0,1,0,54392.2,-0.0626194,-0.0630219,-45.8298,28,0.00292188,10,0.00288828,-1.33885,2.11858,0.0278488,-49.8199,-0.0630219,
2,0,0,1,0,54392.2,-0.0658155,-0.0661946,-45.6552,28,0.00273892,10,0.00302213,-1.34051,2.30894,0.0255528,-45.5585,-0.0661946,
2,0,0,1,0,54392.2,-0.0690117,-0.069379,-45.5214,28,0.00255657,10,0.00315823,-1.34178,2.38896,0.024697,-43.9012,-0.069379,
2,0,0,1,0,54392.2,-0.0722189,-0.0726143,-45.3934,28,0.00237475,10,0.00329621,-1.34301,2.60196,0.0226752,-40.1744,-0.0726143,
2,0,0,1,0,54392.2,-0.075415,-0.0758348,-45.2673,28,0.00219344,10,0.00343284,-1.34422,2.83442,0.0208155,-36.7881,-0.0758348,
2,0,0,1,0,54392.2,-0.0786167,-0.0789884,-45.1412,28,0.00201264,10,0.00356564,-1.34543,3.05128,0.0193361,-34.0904,-0.0789884,
2,0,0,1,0,54392.2,-0.0818184,-0.0821951,-45.0499,28,0.00183228,10,0.00370288,-1.34631,3.6498,0.0161653,-28.4432,-0.0821951,
2,0,0,1,0,54392.2,-0.0850146,-0.0854039,-44.9574,28,0.00165228,10,0.00383954,-1.3472,4.1917,0.0140754,-24.71,-0.0854039,
2,0,0,1,0,54392.2,-0.088219,-0.0886392,-44.9031,28,0.00147259,10,0.00398018,-1.34772,4.7346,0.0124614,-21.8411,-0.0886392,
2,0,0,1,0,54392.2,-0.0914152,-0.0917854,-44.825,28,0.00129314,10,0.00411428,-1.34848,5.81806,0.0101408,-17.7476,-0.0917854,
2,0,0,1,0,54392.2,-0.0946141,-0.0949889,-44.7705,28,0.00111396,10,0.0042527,-1.34901,7.28052,0.00810381,-14.1728,-0.0949889,
2,0,0,1,0,54392.2,-0.0978158,-0.0981998,-44.7303,28,0.000934929,10,0.00439251,-1.3494,12.9081,0.00457079,-7.98688,-0.0981998,
2,0,0,1,0,54392.3,-0.101012,-0.101359,-44.7229,28,0.000756024,10,0.00453306,-1.34947,27.7562,0.00212565,-3.71207,-0.101359,
2,0,0,1,0,54392.3,-0.104219,-0.104638,-44.7224,28,0.000577134,10,0.00467964,-1.34948,2337.53,2.52403e-05,-0.0440613,-0.104638,
2,0,0,1,0,54392.3,-0.107415,-0.1078,-44.7229,28,0.000398236,10,0.00482111,-1.34947,-23.0886,-0.00255538,4.463,-0.1078,
2,0,0,1,0,54392.3,-0.110611,-0.11102,-44.7298,28,0.00021933,10,0.0049659,-1.3494,-12.6018,-0.00468186,8.18113,-0.11102,
2,0,0,1,0,54392.3,-0.113819,-0.114216,-44.7802,28,4.02878e-05,10,0.00511463,-1.34891,-8.005,-0.00737039,12.888,-0.114216,
2,0,0,1,0,54392.3,-0.117015,-0.117401,-44.8268,28,-0.000138922,10,0.00526269,-1.34846,-5.77168,-0.0102223,17.8904,-0.117401,
2,0,0,1,0,54392.3,-0.120216,-0.120634,-44.8883,28,-0.000318351,10,0.00541505,-1.34787,-5.07909,-0.0116163,20.3601,-0.1206338,
2,0,0,1,0,54392.3,-0.123418,-0.123838,-44.9591,28,-0.000498049,10,0.00556766,-1.34718,-4.27377,-0.0138051,24.2349,-0.123838,
2,0,0,1,0,54392.3,-0.126614,-0.127045,-45.0414,28,-0.000678048,10,0.00572229,-1.34639,-3.6545,-0.0161445,28.3967,-0.127045,
2,0,0,1,0,54392.3,-0.129819,-0.130217,-45.1374,28,-0.000858415,10,0.00587764,-1.34546,-3.24867,-0.0181613,32.0103,-0.130217,
2,0,0,1,0,54392.3,-0.133015,-0.133397,-45.2507,28,-0.0010392,10,0.00603631,-1.34437,-2.87206,-0.0205427,36.2961,-0.133397,
2,0,0,1,0,54392.3,-0.136214,-0.136577,-45.3668,28,-0.00122047,10,0.00619607,-1.34326,-2.76446,-0.0213424,37.7969,-0.136577,
2,0,0,1,0,54392.3,-0.139416,-0.139818,-45.505,28,-0.00140225,10,0.00636241,-1.34194,-2.55618,-0.0230813,40.9973,-0.139818,
2,0,0,1,0,54392.3,-0.142612,-0.143001,-45.6206,28,-0.00158451,10,0.00652379,-1.34084,-2.43048,-0.024275,43.2413,-0.143001,
2,0,0,1,0,54392.3,-0.145819,-0.146196,-45.7755,28,-0.00176731,10,0.00669219,-1.33937,-2.34217,-0.0251903,45.018,-0.146196,
2,0,0,1,0,54392.3,-0.149015,-0.149384,-45.9206,28,-0.00195073,10,0.00685978,-1.33799,-2.2121,-0.0266715,47.8049,-0.149384,
2,0,0,1,0,54392.3,-0.152211,-0.152591,-46.0801,28,-0.00213475,10,0.00703142,-1.33649,-2.25089,-0.0262118,47.1346,-0.152591,
2,0,0,1,0,54392.3,-0.155418,-0.155817,-46.2333,28,-0.00231942,10,0.00720393,-1.33505,-2.2537,-0.0261792,47.2253,-0.155817,
2,0,0,1,0,54392.3,-0.158615,-0.158992,-46.3786,28,-0.00250465,10,0.00737382,-1.33368,-2.2325,-0.0264277,47.8416,-0.1589919,
2,0,0,1,0,54392.3,-0.161816,-0.162203,-46.526,28,-0.00269047,10,0.00754665,-1.3323,-2.273,-0.0259568,47.1375,-0.162203,
2,0,0,1,0,54392.3,-0.165018,-0.165385,-46.6922,28,-0.00287692,10,0.00772219,-1.33076,-2.29596,-0.0256974,46.8124,-0.1653851,
2,0,0,1,0,54392.3,-0.168214,-0.168519,-46.832,28,-0.00306399,10,0.00789206,-1.32946,-2.40566,-0.0245255,44.8062,-0.1685186,
2,0,0,1,0,54392.3,-0.171419,-0.171795,-46.9779,28,-0.00325162,10,0.00807059,-1.32811,-2.5613,-0.0230351,42.2178,-0.171795,
2,0,0,1,0,54392.3,-0.174615,-0.174993,-47.0991,28,-0.00343979,10,0.00824204,-1.32699,-2.62311,-0.0224924,41.342,-0.174993,
2,0,0,1,0,54392.3,-0.177814,-0.178167,-47.2318,28,-0.00362847,10,0.00841516,-1.32577,-2.75329,-0.0214289,39.4984,-0.178167,
2,0,0,1,0,54392.4,-0.181015,-0.181362,-47.363,28,-0.00381769,10,0.00858985,-1.32456,-2.83021,-0.0208465,38.5185,-0.181362,
2,0,0,1,0,54392.4,-0.184211,-0.184565,-47.4823,28,-0.0040074,10,0.00876356,-1.32347,-3.02413,-0.0195098,36.1385,-0.184565,
2,0,0,1,0,54392.4,-0.187419,-0.187771,-47.5913,28,-0.00419758,10,0.00893628,-1.32247,-3.38597,-0.0174248,32.3494,-0.187771,
2,0,0,1,0,54392.4,-0.190615,-0.190977,-47.6947,28,-0.00438816,10,0.00910859,-1.32153,-3.40958,-0.0173042,32.2049,-0.190977,
2,0,0,1,0,54392.4,-0.193811,-0.194187,-47.7778,28,-0.00457913,10,0.00927782,-1.32077,-3.83347,-0.0153908,28.6909,-0.194187,
2,0,0,1,0,54392.4,-0.197018,-0.19734,-47.8938,28,-0.00477051,10,0.00945138,-1.31972,-6.1948,-0.00952412,17.7596,-0.19734,
2,0,0,1,0,54392.4,-0.199647,-0.199974,-47.9414,28,-0.00492867,10,0.00958703,-1.31929,0.225511,0.261628,-474.964,-0.199974,
2,0,0,1,0,54392.4,-0.200134,-0.200551,-47.8648,28,-0.00495743,10,0.00959934,-1.31998,-0.0146223,-4.03493,6897,-0.200551,
2,0,0,1,1,54392.4,-0.198935,-0.199449,-45.2787,28,-0.00502649,10,0.00903077,-1.34411,-0.0560874,-1.05193,1709.51,-0.199449,
2,0,0,1,1,54392.4,-0.195739,-0.196188,-39.9439,28,-0.00519585,10,0.00783651,-1.39855,-0.0644654,-0.91522,1418.42,-0.196188,
2,0,0,1,1,54392.4,-0.192535,-0.192941,-35.9182,28,-0.00534693,10,0.0069301,-1.44468,-0.0696005,-0.847695,1219.87,-0.192941,
2,0,0,1,1,54392.4,-0.189339,-0.189748,-32.541,28,-0.00548338,10,0.0061746,-1.48757,-0.0748302,-0.788452,1015.56,-0.189748,
2,0,0,1,1,54392.4,-0.186137,-0.186578,-29.5787,28,-0.00560722,10,0.00551875,-1.52902,-0.0767257,-0.768973,895.398,-0.186578,
2,0,0,1,1,54392.4,-0.182935,-0.183362,-26.9187,28,-0.00571986,10,0.00493588,-1.56995,-0.0773681,-0.762589,805.209,-0.183362,
2,0,0,1,1,54392.4,-0.179739,-0.180169,-24.4826,28,-0.00582235,10,0.00441101,-1.61114,-0.0767592,-0.768638,736.527,-0.180169,
2,0,0,1,1,54392.4,-0.176532,-0.176935,-22.224,28,-0.00591548,10,0.0039322,-1.65318,-0.0749582,-0.787105,683.748,-0.176935,
2,0,0,1,1,54392.4,-0.173336,-0.173752,-20.1315,28,-0.00599994,10,0.00349788,-1.69612,-0.0727251,-0.811275,637.084,-0.173752,
2,0,0,1,1,54392.4,-0.17014,-0.170567,-18.1703,28,-0.00607633,10,0.00309925,-1.74064,-0.0691048,-0.853776,603.315,-0.1705673,
2,0,0,1,1,54392.4,-0.166932,-0.167345,-16.3123,28,-0.00614507,10,0.00272977,-1.78749,-0.0655234,-0.900441,569.786,-0.167345,
2,0,0,1,1,54392.4,-0.163736,-0.164186,-14.5322,28,-0.00620657,10,0.00238597,-1.83767,-0.0613246,-0.962094,541.709,-0.164186,
2,0,0,1,1,54392.4,-0.160532,-0.160957,-12.8412,28,-0.00626114,10,0.00206687,-1.8914,-0.0566788,-1.04095,516.924,-0.160957,
2,0,0,1,1,54392.4,-0.157336,-0.157769,-11.2374,28,-0.00630912,10,0.00177292,-1.94933,-0.051684,-1.14155,493.189,-0.157769,
2,0,0,1,1,54392.4,-0.154139,-0.154564,-9.70542,28,-0.00635083,10,0.0015001,-2.01299,-0.0460495,-1.28123,474.355,-0.154564,
2,0,0,1,1,54392.4,-0.150935,-0.151361,-8.20721,28,-0.00638647,10,0.00124225,-2.0858,-0.0398799,-1.47944,458.801,-0.1513612,
2,0,0,1,1,54392.4,-0.147739,-0.148167,-6.77437,28,-0.00641626,10,0.00100374,-2.16913,-0.03352,-1.76014,443.998,-0.148167,
2,0,0,1,1,54392.4,-0.144532,-0.144982,-5.37054,28,-0.0064404,10,0.000778631,-2.26998,-0.0269124,-2.1923,426.683,-0.1449818,
2,0,0,1,1,54392.5,-0.141335,-0.141802,-4.03912,28,-0.00645907,10,0.000572753,-2.39371,-0.0193503,-3.04906,414.486,-0.141802,
2,0,0,1,1,54392.5,-0.138139,-0.138559,-2.74469,28,-0.0064725,10,0.000380301,-2.56151,-0.0096382,-6.12147,398.985,-0.138559,
2,0,0,1,1,54392.5,-0.134932,-0.135401,-1.48294,28,-0.00648081,10,0.000200792,-2.82888,-0.0200936,-2.93627,390.025,-0.135401,
2,0,0,1,1,54392.5,-0.131736,-0.132149,-0.250346,28,-0.00648414,10,3.30829e-05,-3.60146,-0.111924,-0.527142,380.755,-0.132149,
2,1,0,1,1,54392.5,-0.12854,-0.129045,0.936313,28,-0.00648264,10,-0.000120826,-3.02858,0.0377598,1.56251,368.652,-0.129045,
2,1,0,1,1,54392.5,-0.125333,-0.125805,2.11128,28,-0.0064764,10,-0.00026561,-2.67546,0.0102706,5.74453,361.407,-0.125805,
2,1,0,1,1,54392.5,-0.122136,-0.122596,3.23783,28,-0.00646559,10,-0.000396944,-2.48975,0.0167418,3.52412,352.062,-0.122596,
2,1,0,1,1,54392.5,-0.118932,-0.11941,4.3535,28,-0.0064503,10,-0.000519852,-2.36116,0.0261585,2.25548,343.745,-0.11941,
2,1,0,1,1,54392.5,-0.115736,-0.11625,5.4409,28,-0.00643059,10,-0.000632505,-2.26433,0.0347809,1.69633,337.009,-0.11625,
2,1,0,1,1,54392.5,-0.11254,-0.113019,6.50654,28,-0.0064066,10,-0.000735362,-2.18665,0.0435125,1.35593,329.497,-0.113019,
2,1,0,1,1,54392.5,-0.109335,-0.109821,7.54302,28,-0.00637836,10,-0.000828381,-2.12245,0.0521727,1.13086,322.838,-0.109821,
2,1,0,1,1,54392.5,-0.106139,-0.106606,8.57251,28,-0.00634602,10,-0.000913878,-2.06689,0.060909,0.968657,316.543,-0.106606,
2,1,0,1,1,54392.5,-0.102932,-0.103439,9.5767,28,-0.00630962,10,-0.000990607,-2.01878,0.0695289,0.848568,311.118,-0.103439,
2,1,0,1,1,54392.5,-0.0997357,-0.100191,10.5671,28,-0.00626922,10,-0.00105873,-1.97605,0.0785333,0.751274,305.103,-0.100191,
2,1,0,1,1,54392.5,-0.0965395,-0.0970164,11.5267,28,-0.00622491,10,-0.00111828,-1.93829,0.0880779,0.669862,297.566,-0.0970164,
2,1,0,1,1,54392.5,-0.0933323,-0.0937853,12.484,28,-0.00617677,10,-0.00117082,-1.90365,0.0972421,0.606733,292.426,-0.0937853,
2,1,0,1,1,54392.5,-0.0901362,-0.090584,13.402,28,-0.00612491,10,-0.00121401,-1.87283,0.106481,0.554089,287.353,-0.090584,
2,1,0,1,1,54392.5,-0.0869345,-0.0873497,14.3223,28,-0.00606937,10,-0.00125105,-1.84399,0.116063,0.508344,281.987,-0.0873497,
2,1,0,1,1,54392.5,-0.0837328,-0.08416,15.221,28,-0.00601018,10,-0.001281,-1.81756,0.125764,0.469132,276.589,-0.08416,
2,1,0,1,1,54392.5,-0.0805366,-0.0809756,16.0962,28,-0.00594746,10,-0.0013034,-1.79328,0.13611,0.433473,270.535,-0.0809756,
2,1,0,1,1,54392.5,-0.0773322,-0.0777541,16.9506,28,-0.00588128,10,-0.00131798,-1.77081,0.146904,0.401623,264.211,-0.0777541,
2,1,0,1,1,54392.5,-0.074136,-0.0745453,17.7863,28,-0.00581172,10,-0.00132589,-1.74991,0.15709,0.37558,259.527,-0.0745453,
2,1,0,1,1,54392.5,-0.0709371,-0.0713514,18.6052,28,-0.00573885,10,-0.00132751,-1.73037,0.168067,0.351051,253.875,-0.0713514,
2,1,0,1,1,54392.5,-0.0677354,-0.0681712,19.4193,28,-0.00566271,10,-0.00132384,-1.71177,0.177256,0.332853,251.31,-0.0681712,
2,1,0,1,1,54392.5,-0.0645393,-0.0649327,20.2056,28,-0.00558336,10,-0.00131201,-1.69453,0.189583,0.311209,244.473,-0.0649327,
2,1,0,1,1,54392.6,-0.0613321,-0.0617791,20.9946,28,-0.00550089,10,-0.00129703,-1.67789,0.201803,0.292364,238.589,-0.0617791,
2,1,0,1,1,54392.6,-0.0581359,-0.0585565,21.7332,28,-0.00541533,10,-0.00127262,-1.66288,0.211928,0.278396,235.511,-0.0585565,
2,1,0,1,1,54392.6,-0.0549398,-0.0553594,22.4761,28,-0.00532682,10,-0.00124426,-1.64828,0.225233,0.261951,229.319,-0.0553594,
2,1,0,1,1,54392.6,-0.0517325,-0.0521485,23.2165,28,-0.00523532,10,-0.0012107,-1.6342,0.236794,0.249161,225.081,-0.0521485,
2,1,0,1,1,54392.6,-0.0485364,-0.0489683,23.9324,28,-0.00514096,10,-0.00117193,-1.62101,0.249124,0.23683,220.559,-0.0489683,
2,1,0,1,1,54392.6,-0.0453347,-0.0457277,24.6207,28,-0.00504377,10,-0.00112585,-1.6087,0.263941,0.223535,214.266,-0.0457277,
2,1,0,1,1,54392.6,-0.042133,-0.0425295,25.3058,28,-0.00494385,10,-0.00107624,-1.59678,0.276592,0.21331,210.23,-0.0425295,
2,1,0,1,1,54392.6,-0.0389369,-0.039361,25.9564,28,-0.00484126,10,-0.00102167,-1.58576,0.29081,0.202882,205.159,-0.039361,
2,1,0,1,1,54392.6,-0.0357324,-0.0361745,26.622,28,-0.00473605,10,-0.000963038,-1.57476,0.306944,0.192217,199.243,-0.0361745,
2,1,0,1,1,54392.6,-0.0325363,-0.0329339,27.2455,28,-0.00462825,10,-0.0008973,-1.56471,0.321109,0.183738,194.913,-0.0329339,
2,1,0,1,1,54392.6,-0.0293374,-0.0297368,27.8547,28,-0.00451798,10,-0.000828308,-1.5551,0.340772,0.173136,187.893,-0.02973677,
2,1,0,1,1,54392.6,-0.0261357,-0.0265927,28.4451,28,-0.0044053,10,-0.000756431,-1.54599,0.354259,0.166545,184.651,-0.0265927,
2,1,0,1,1,54392.6,-0.0229395,-0.0233733,29.0273,28,-0.00429028,10,-0.000678462,-1.53719,0.37263,0.158334,179.119,-0.0233733,
2,1,0,1,1,54392.6,-0.0197323,-0.0201549,29.6051,28,-0.00417296,10,-0.000596689,-1.52863,0.392968,0.15014,173.109,-0.0201549,
2,1,0,1,1,54392.6,-0.0165361,-0.0169249,30.1495,28,-0.00405339,10,-0.000510278,-1.52072,0.409949,0.14392,169.047,-0.0169249,
2,1,0,1,1,54392.6,-0.01334,-0.0137427,30.6696,28,-0.00393168,10,-0.000421481,-1.51329,0.433059,0.13624,162.879,-0.0137427,
2,1,0,1,1,54392.6,-0.0101328,-0.0105646,31.1925,28,-0.0038079,10,-0.000329537,-1.50595,0.45064,0.130925,159.187,-0.0105646,
2,1,0,1,1,54392.6,-0.00693663,-0.00738445,31.6852,28,-0.00368207,10,-0.000233978,-1.49914,0.469891,0.125561,154.991,-0.00738445,
2,1,0,1,1,54392.6,-0.00373494,-0.00415976,32.1815,28,-0.0035543,10,-0.000133867,-1.49239, , , ,-0.00415976,
2,1,0,1,1,54392.6,-0.000774628,-0.00123038,32.6089,28,-0.00343441,10,-4.01213e-05,-1.48666, , , ,-0.00123038,
2,1,0,0,1,54392.6,-0.000125413,-0.000573459,32.7243,28,-0.00340829,10,-1.8766e-05,-1.48513, , , ,-0.000573459,