File: Figure_codes/Fig_3-5/rawdata_trumpetplot_data/after 10th/20221101_1-115_003_TrumpetPlot_ParaChange_from10_every3_03_CV_C01_7.csv
mode,ox/red,error,control changes,counter inc.,time/s,control/V,Ewe/V,<I>/mA,cycle number,(Q-Qo)/C,I Range,P/W,log(|I|),Tafel slope mV/dec,alpha_eff,dI/d(E-IR),E-IR/V,
2,0,0,1,0,14730.9,2.44065e-05,-0.000287149,-0.108298,8,0.0000000E+000,10,3.10978e-08,-3.96538, , , ,-0.0002871489,
2,1,0,0,0,14731.2,0.00129787,0.000931258,0.145621,8,2.89621e-05,10,1.35611e-07,-3.83678, , , ,0.000931258,
2,1,0,0,0,14731.5,0.00279606,0.0024593,0.179393,8,8.4744e-05,10,4.41181e-07,-3.7462,0.0212295,2.77915,16.97,0.0024593,
2,1,0,1,0,14731.8,0.00429469,0.00401653,0.188001,8,0.000145166,10,7.55111e-07,-3.72584,0.0854503,0.69046,5.15685,0.00401653,
2,1,0,1,0,14732.1,0.00579255,0.00548474,0.197103,8,0.000208608,10,1.08106e-06,-3.70531,0.0674454,0.874781,6.73934,0.00548474,
2,1,0,1,0,14732.4,0.00729041,0.0069225,0.208817,8,0.000274943,10,1.44554e-06,-3.68023,0.0840738,0.701764,5.65229,0.0069225,
2,1,0,1,0,14732.7,0.00878882,0.00847923,0.216899,8,0.000344012,10,1.83914e-06,-3.66374,0.0987796,0.597289,5.00559,0.008479231,
2,1,0,1,0,14733,0.010287,0.00998183,0.223582,8,0.000415146,10,2.23176e-06,-3.65056,0.11925,0.494759,4.27628,0.00998183,
2,1,0,1,0,14733.3,0.0117852,0.0114749,0.228293,8,0.000488138,10,2.61963e-06,-3.64151,0.128406,0.459481,4.10355,0.0114749,
2,1,0,1,0,14733.6,0.0132836,0.0129521,0.236083,8,0.000562956,10,3.05779e-06,-3.62693,0.120286,0.490496,4.51285,0.0129521,
2,1,0,1,0,14733.9,0.0147815,0.0144768,0.240495,8,0.00063979,10,3.4816e-06,-3.61889,0.139008,0.424436,3.99752,0.0144768,
2,1,0,1,0,14734.2,0.0162793,0.0159619,0.247429,8,0.000718539,10,3.94944e-06,-3.60655,0.19279,0.306032,2.94473,0.0159619,
2,1,0,0,0,14734.5,0.017778,0.0174556,0.252304,8,0.000798845,10,4.4041e-06,-3.59808,0.18026,0.327305,3.22953,0.0174556,
2,1,0,0,0,14734.8,0.0192761,0.0189433,0.257655,8,0.000880474,10,4.88085e-06,-3.58896,0.160377,0.367882,3.69631,0.0189433,
2,1,0,1,0,14735.1,0.0207747,0.0204728,0.263568,8,0.000963968,10,5.39599e-06,-3.57911,0.169513,0.348056,3.57186,0.0204728,
2,1,0,1,0,14735.4,0.0222725,0.0219358,0.269041,8,0.00104925,10,5.90163e-06,-3.57018,0.153903,0.383358,4.01342,0.0219358,
2,1,0,1,0,14735.7,0.0237704,0.0234751,0.274476,8,0.00113613,10,6.44336e-06,-3.5615,0.181432,0.325191,3.49098,0.0234751,
2,1,0,1,0,14736,0.0252689,0.0249548,0.278622,8,0.00122443,10,6.95296e-06,-3.55498,0.175102,0.336946,3.68226,0.0249548,
2,1,0,1,0,14736.3,0.0267671,0.0264595,0.284999,8,0.00131453,10,7.54092e-06,-3.54516,0.144485,0.408347,4.54643,0.0264595,
2,1,0,1,0,14736.6,0.0282657,0.0279549,0.291885,8,0.00140654,10,8.15962e-06,-3.53479,0.176413,0.334443,3.80367,0.0279549,
2,1,0,1,0,14736.9,0.0297635,0.0294489,0.296746,8,0.00150021,10,8.73884e-06,-3.52761,0.1975,0.298734,3.45671,0.0294489,
2,1,0,1,0,14737.2,0.0312613,0.0309404,0.299269,8,0.00159527,10,9.25949e-06,-3.52394,0.195581,0.301665,3.56098,0.0309404,
2,1,0,0,0,14737.5,0.0327599,0.0324232,0.30739,8,0.00169195,10,9.96656e-06,-3.51231,0.181098,0.32579,3.90758,0.0324232,
2,1,0,0,0,14737.8,0.034258,0.0339353,0.313239,8,0.00179041,10,1.06299e-05,-3.50412,0.182947,0.322498,3.94392,0.0339353,
2,1,0,1,0,14738.1,0.0357567,0.0354469,0.318449,8,0.00189055,10,1.1288e-05,-3.49696,0.244764,0.241049,2.9923,0.0354469,
2,1,0,1,0,14738.4,0.0372545,0.0369236,0.323948,8,0.00199225,10,1.19613e-05,-3.48952,0.209721,0.281326,3.56353,0.0369236,
2,1,0,1,0,14738.7,0.0387524,0.0384196,0.329323,8,0.00209529,10,1.26525e-05,-3.48238,0.200901,0.293678,3.79744,0.0384196,
2,1,0,1,0,14739,0.0402508,0.0399351,0.334961,8,0.00220035,10,1.33767e-05,-3.47501,0.19806,0.297889,3.9058,0.0399351,
2,1,0,1,0,14739.3,0.041749,0.0414589,0.34097,8,0.00230718,10,1.41362e-05,-3.46728,0.264286,0.223243,2.96473,0.0414589,
2,1,0,1,0,14739.6,0.0432472,0.0429552,0.346129,8,0.00241553,10,1.4868e-05,-3.46076,0.248119,0.237789,3.21127,0.0429552,
2,1,0,1,0,14739.9,0.0447456,0.0444282,0.351899,8,0.00252507,10,1.56343e-05,-3.45358,0.250313,0.235705,3.2296,0.0444282,
2,1,0,1,0,14740.2,0.0462435,0.0459136,0.356558,8,0.00263647,10,1.63709e-05,-3.44787,0.211084,0.27951,3.88201,0.0459136,
2,1,0,1,0,14740.5,0.0477413,0.0474317,0.360932,8,0.00274947,10,1.71196e-05,-3.44257,0.267798,0.220315,3.11215,0.0474317,
2,1,0,0,0,14740.8,0.0492399,0.0489433,0.366053,8,0.00286392,10,1.79158e-05,-3.43646,0.309003,0.190936,2.73416,0.0489433,
2,1,0,0,0,14741.1,0.0507381,0.0503823,0.368921,8,0.00297959,10,1.85871e-05,-3.43307,0.248463,0.23746,3.43806,0.05038226,
2,1,0,1,0,14741.4,0.0522367,0.0518945,0.375076,8,0.00309679,10,1.94644e-05,-3.42588,0.219583,0.268692,3.93171,0.0518945,
2,1,0,1,0,14741.7,0.0537345,0.053431,0.38285,8,0.00321568,10,2.0456e-05,-3.41697,0.255037,0.231339,3.43268,0.053431,
2,1,0,1,0,14742,0.0552323,0.0549119,0.385096,8,0.00333604,10,2.11463e-05,-3.41443,0.291784,0.202204,3.03217,0.0549119,
2,1,0,1,0,14742.3,0.0567309,0.0564181,0.386774,8,0.0034575,10,2.18211e-05,-3.41254,0.287965,0.204886,3.11613,0.0564181,
2,1,0,1,0,14742.6,0.0582291,0.0578836,0.39374,8,0.0035802,10,2.27911e-05,-3.40479,0.318182,0.185428,2.84874,0.0578836,
2,1,0,1,0,14742.9,0.0597277,0.0594204,0.399308,8,0.00370465,10,2.3727e-05,-3.39869,0.338089,0.17451,2.71242,0.0594204,
2,1,0,1,0,14743.2,0.0612255,0.0609226,0.402756,8,0.00383022,10,2.45369e-05,-3.39496,0.515189,0.114521,1.79505,0.0609226,
2,1,0,1,0,14743.5,0.0627233,0.0624315,0.407328,8,0.00395725,10,2.54301e-05,-3.39006,0.276473,0.213403,3.39326,0.0624315,
2,1,0,0,0,14743.8,0.0642218,0.0639385,0.411139,8,0.0040851,10,2.62876e-05,-3.38601,0.33137,0.178049,2.85784,0.0639385,
2,1,0,0,0,14744.1,0.06572,0.0654082,0.414936,8,0.00421453,10,2.71402e-05,-3.38202,0.335712,0.175746,2.84408,0.0654082,
2,1,0,1,0,14744.4,0.0672187,0.0668933,0.42033,8,0.0043454,10,2.81173e-05,-3.37641,0.342641,0.172192,2.80995,0.0668933,
2,1,0,1,0,14744.7,0.0687165,0.0684091,0.423891,8,0.00447735,10,2.8998e-05,-3.37275,0.532425,0.110814,1.82823,0.0684091,
2,1,0,1,0,14745,0.0702144,0.0699137,0.426536,8,0.00460992,10,2.98207e-05,-3.37004,0.392897,0.150166,2.50331,0.0699137,
2,1,0,1,0,14745.3,0.0717128,0.0713794,0.429951,8,0.00474383,10,3.06896e-05,-3.36658,0.338591,0.174252,2.92232,0.0713794,
2,1,0,1,0,14745.6,0.073211,0.0729085,0.433873,8,0.004879,10,3.1633e-05,-3.36264,0.439885,0.134126,2.27461,0.0729085,
2,1,0,1,0,14745.9,0.0747092,0.0743644,0.437537,8,0.00501517,10,3.25372e-05,-3.35899,0.647958,0.0910553,1.5587,0.0743644,
2,1,0,1,0,14746.2,0.0762076,0.075897,0.438863,8,0.00515196,10,3.33084e-05,-3.35767,0.408737,0.144347,2.48798,0.075897,
2,1,0,1,0,14746.5,0.0777054,0.0773864,0.444943,8,0.00528992,10,3.44325e-05,-3.3517,0.396972,0.148625,2.56958,0.0773864,
2,1,0,1,0,14746.8,0.0792033,0.0789057,0.449608,8,0.00542919,10,3.54766e-05,-3.34717,0.454212,0.129895,2.26908,0.0789057,
2,1,0,0,0,14747.1,0.0807019,0.0803759,0.452752,8,0.00556949,10,3.63904e-05,-3.34414,0.428398,0.137722,2.4187,0.0803759,
2,1,0,0,0,14747.4,0.0822001,0.0818806,0.453427,8,0.00571067,10,3.71268e-05,-3.34349,0.459318,0.128451,2.27827,0.0818806,
2,1,0,1,0,14747.7,0.0836986,0.0833762,0.458421,8,0.00585286,10,3.82214e-05,-3.33874,0.443866,0.132923,2.38413,0.0833762,
2,1,0,1,0,14748,0.0851965,0.0848497,0.461597,8,0.00599636,10,3.91664e-05,-3.33574,0.381616,0.154606,2.79479,0.0848497,
2,1,0,1,0,14748.3,0.0866944,0.0863817,0.466078,8,0.00614127,10,4.02606e-05,-3.33154,0.444169,0.132832,2.41977,0.0863817,
2,1,0,1,0,14748.6,0.0881929,0.0879005,0.47303,8,0.00628753,10,4.15796e-05,-3.32511,0.359021,0.164336,3.02899,0.08790049,
2,1,0,1,0,14748.9,0.0896911,0.0893458,0.478456,8,0.00643493,10,4.2748e-05,-3.32016,0.278777,0.211639,3.95303,0.0893458,
2,1,0,1,0,14749.2,0.0911897,0.0908712,0.484096,8,0.00658438,10,4.39903e-05,-3.31507,0.238054,0.247843,4.66556,0.0908712,
2,1,0,1,0,14749.5,0.0926875,0.0924051,0.491926,8,0.00673612,10,4.54565e-05,-3.3081,0.219317,0.269017,5.13905,0.0924051,
2,1,0,1,0,14749.8,0.0941853,0.093903,0.497759,8,0.00688971,10,4.67411e-05,-3.30298,0.24617,0.239672,4.66118,0.093903,
2,1,0,0,0,14750.1,0.0956838,0.0953329,0.502575,8,0.00704496,10,4.79119e-05,-3.2988,0.232048,0.254258,5.01991,0.0953329,
2,1,0,0,0,14750.4,0.097182,0.0968312,0.513225,8,0.00720301,10,4.96962e-05,-3.28969,0.167039,0.353211,7.05916,0.0968312,
2,1,0,1,0,14750.7,0.0986807,0.098348,0.522298,8,0.00736373,10,5.1367e-05,-3.28208,0.203865,0.289408,5.90166,0.098348,
2,1,0,1,0,14751,0.100179,0.0998554,0.530009,8,0.00752702,10,5.29243e-05,-3.27572,0.209105,0.282154,5.84756,0.09985543,
2,1,0,1,0,14751.3,0.101676,0.101401,0.537156,8,0.00769285,10,5.44684e-05,-3.2699,0.187701,0.31433,6.62753,0.101401,
2,1,0,1,0,14751.6,0.103175,0.102851,0.548693,8,0.00786144,10,5.64337e-05,-3.26067,0.201123,0.293352,6.30089,0.102851,
2,1,0,1,0,14751.9,0.104673,0.104338,0.561911,8,0.00803324,10,5.86286e-05,-3.25033,0.206654,0.285501,6.2243,0.104338,
2,1,0,1,0,14752.2,0.106171,0.10585,0.568402,8,0.00820795,10,6.01654e-05,-3.24534,0.243158,0.242641,5.3662,0.10585,
2,1,0,1,0,14752.5,0.10767,0.107373,0.574531,8,0.00838508,10,6.16891e-05,-3.24069,0.254105,0.232188,5.22651,0.107373,
2,1,0,1,0,14752.8,0.109167,0.108884,0.583435,8,0.00856436,10,6.35266e-05,-3.23401,0.274274,0.215114,4.91981,0.108884,
2,1,0,1,0,14753.1,0.110665,0.110314,0.594437,8,0.0087465,10,6.55747e-05,-3.22589,0.275236,0.214362,4.96232,0.110314,
2,1,0,0,0,14753.4,0.112164,0.111814,0.599489,8,0.00893097,10,6.70311e-05,-3.22222,0.363787,0.162183,3.78643,0.111814,
2,1,0,0,0,14753.7,0.113662,0.113369,0.607282,8,0.00911748,10,6.88471e-05,-3.21661,0.336551,0.175308,4.14586,0.113369,
2,1,0,1,0,14754,0.115161,0.114821,0.613311,8,0.00930539,10,7.04213e-05,-3.21232,0.360414,0.163701,3.91388,0.1148214,
2,1,0,1,0,14754.3,0.116658,0.116328,0.619929,8,0.00949558,10,7.2115e-05,-3.20766,0.296857,0.198749,4.78882,0.116328,
2,1,0,1,0,14754.6,0.118156,0.117824,0.625979,8,0.00968788,10,7.37551e-05,-3.20344,0.336488,0.17534,4.26695,0.117824,
2,1,0,1,0,14754.9,0.119655,0.119325,0.630079,8,0.00988181,10,7.51839e-05,-3.20061,0.500224,0.117947,2.90635,0.119325,
2,1,0,1,0,14755.2,0.121153,0.120872,0.635064,8,0.010077,10,7.67612e-05,-3.19718,0.36842,0.160143,3.98727,0.120872,
2,1,0,1,0,14755.5,0.122652,0.122319,0.642269,8,0.0102741,10,7.85615e-05,-3.19228,0.29716,0.198546,4.97303,0.122319,
2,1,0,1,0,14755.8,0.124149,0.123822,0.648455,8,0.0104734,10,8.02929e-05,-3.18812,0.308358,0.191336,4.84355,0.123822,
2,1,0,1,0,14756.1,0.125647,0.12533,0.654565,8,0.0106745,10,8.20369e-05,-3.18405,0.447978,0.131703,3.35848,0.12533,
2,1,0,0,0,14756.4,0.127146,0.126806,0.656751,8,0.0108772,10,8.32798e-05,-3.1826,0.497801,0.118521,3.04737,0.126806,
2,1,0,0,0,14756.7,0.128644,0.128343,0.666017,8,0.0110811,10,8.54789e-05,-3.17651,0.490826,0.120206,3.1153,0.128343,
2,1,0,1,0,14757,0.130143,0.129845,0.671031,8,0.0112868,10,8.71302e-05,-3.17326,0.628525,0.0938705,2.44307,0.129845,
2,1,0,1,0,14757.3,0.131641,0.131344,0.67124,8,0.0114935,10,8.81635e-05,-3.17312,-10.6271,-0.00555186,-0.144664,0.131344,
2,1,0,1,0,14757.6,0.133138,0.132825,0.670138,8,0.0117002,10,8.90113e-05,-3.17384,-2.00695,-0.0293979,-0.768271,0.132825,
2,1,0,1,0,14757.9,0.134637,0.134363,0.666181,8,0.0119062,10,8.95102e-05,-3.17641,-0.4984,-0.118379,-3.07898,0.134363,
2,1,0,1,0,14758.1,0.136135,0.135844,0.661173,8,0.0121112,10,8.98162e-05,-3.17968,-0.293832,-0.200795,-5.16687,0.1358436,
2,1,0,1,0,14758.4,0.137633,0.137318,0.653448,8,0.0123139,10,8.97299e-05,-3.18479,-0.180081,-0.327631,-8.28664,0.137318,
2,1,0,1,0,14758.7,0.139132,0.138826,0.638917,8,0.0125132,10,8.86982e-05,-3.19456,-0.1472,-0.400814,-9.92805,0.138826,
2,1,0,1,0,14759,0.140629,0.140341,0.623062,8,0.0127074,10,8.74409e-05,-3.20547,-0.118015,-0.499936,-12.0822,0.1403407,
2,1,0,1,0,14759.3,0.142127,0.141844,0.601883,8,0.0128963,10,8.53735e-05,-3.22049,-0.103882,-0.567951,-13.2745,0.141844,
2,1,0,0,0,14759.6,0.143626,0.143264,0.581432,8,0.0130793,10,8.32985e-05,-3.2355,-0.0881487,-0.669324,-15.0977,0.143264,
2,1,0,0,0,14759.9,0.145124,0.144832,0.556249,8,0.0132551,10,8.05624e-05,-3.25473,-0.0759907,-0.776411,-16.8556,0.144832,
2,1,0,1,0,14760.2,0.146623,0.146338,0.530657,8,0.0134232,10,7.76551e-05,-3.27519,-0.074846,-0.788286,-16.3599,0.146338,
2,1,0,1,0,14760.5,0.14812,0.147779,0.508094,8,0.0135842,10,7.50853e-05,-3.29406,-0.0740669,-0.796577,-15.737,0.147779,
2,1,0,1,0,14760.8,0.149618,0.149304,0.484491,8,0.0137382,10,7.23364e-05,-3.31471,-0.0711224,-0.829556,-15.702,0.149304,
2,1,0,1,0,14761.1,0.151117,0.150829,0.461829,8,0.0138853,10,6.96573e-05,-3.33552,-0.0741644,-0.79553,-14.361,0.150829,
2,1,0,1,0,14761.4,0.152615,0.152351,0.440659,8,0.014026,10,6.71348e-05,-3.3559,-0.0843039,-0.699849,-12.1052,0.152351,
2,1,0,1,0,14761.7,0.154114,0.153798,0.424647,8,0.0141611,10,6.53099e-05,-3.37197,-0.0914283,-0.645314,-10.7339,0.153798,
2,1,0,1,0,14762,0.155612,0.155276,0.410243,8,0.0142916,10,6.37007e-05,-3.38696,-0.0978856,-0.602744,-9.67372,0.1552756,
2,1,0,1,0,14762.3,0.157109,0.156764,0.394811,8,0.0144179,10,6.1892e-05,-3.40361,-0.100156,-0.58908,-9.10934,0.156764,
2,1,0,0,0,14762.6,0.158608,0.15832,0.384168,8,0.0145402,10,6.08215e-05,-3.41548,-0.117529,-0.502003,-7.55548,0.15832,
2,1,0,0,0,14762.9,0.160106,0.159788,0.374734,8,0.0146591,10,5.98778e-05,-3.42628,-0.13801,-0.427507,-6.27294,0.159788,
2,1,0,1,0,14763.2,0.161605,0.161266,0.365593,8,0.0147754,10,5.89577e-05,-3.437,-0.160089,-0.368545,-5.26573,0.161266,
2,1,0,1,0,14763.5,0.163102,0.162818,0.358828,8,0.0148892,10,5.84237e-05,-3.44511,-0.175618,-0.335956,-4.69797,0.162818,
2,1,0,1,0,14763.8,0.1646,0.164243,0.351657,8,0.015001,10,5.77573e-05,-3.45388,-0.214483,-0.27508,-3.78104,0.164243,
2,1,0,1,0,14764.1,0.166099,0.165764,0.345928,8,0.0151107,10,5.73425e-05,-3.46101,-0.230168,-0.256335,-3.46435,0.165764,
2,1,0,1,0,14764.4,0.167597,0.167257,0.340933,8,0.0152189,10,5.70234e-05,-3.46733,-0.292367,-0.201801,-2.6828,0.167257,
2,1,0,1,0,14764.7,0.169095,0.168793,0.335454,8,0.0153257,10,5.66221e-05,-3.47437,-0.240488,-0.245335,-3.23455,0.168793,
2,1,0,1,0,14765,0.170594,0.170299,0.331579,8,0.0154311,10,5.64675e-05,-3.47941,-0.251728,-0.23438,-3.05197,0.170299,
2,1,0,1,0,14765.3,0.172091,0.1718,0.327848,8,0.0155352,10,5.63243e-05,-3.48433,-0.362356,-0.162823,-2.09238,0.1718,
2,1,0,1,0,14765.6,0.173589,0.173252,0.325291,8,0.0156383,10,5.63574e-05,-3.48773,-0.427876,-0.13789,-1.75101,0.173252,
2,1,0,0,0,14765.9,0.175088,0.174797,0.322859,8,0.0157407,10,5.64346e-05,-3.49099,-0.339648,-0.173709,-2.19073,0.174797,
2,1,0,0,0,14766.2,0.176586,0.176285,0.319482,8,0.015842,10,5.63199e-05,-3.49555,-0.355848,-0.165801,-2.06861,0.1762854,
2,1,0,1,0,14766.5,0.178085,0.177756,0.316288,8,0.0159426,10,5.62219e-05,-3.49992,-0.394941,-0.14939,-1.84726,0.177756,
2,1,0,1,0,14766.8,0.179582,0.179267,0.315205,8,0.0160423,10,5.65059e-05,-3.50141,-0.759982,-0.0776334,-0.954423,0.179267,
2,1,0,1,0,14767.1,0.18108,0.180755,0.312603,8,0.0161415,10,5.65044e-05,-3.50501,-0.671624,-0.0878468,-1.07434,0.180755,
2,1,0,1,0,14767.4,0.182579,0.182271,0.309863,8,0.0162404,10,5.64792e-05,-3.50883,-0.502736,-0.117358,-1.42248,0.182271,
2,1,0,1,0,14767.7,0.184077,0.183759,0.308831,8,0.0163385,10,5.67505e-05,-3.51028,-0.587287,-0.100462,-1.21213,0.183759,
2,1,0,1,0,14768,0.185576,0.185249,0.307086,8,0.016436,10,5.68874e-05,-3.51274,-0.769312,-0.0766919,-0.920445,0.185249,
2,1,0,1,0,14768.3,0.187074,0.186786,0.306547,8,0.0165331,10,5.72586e-05,-3.5135,-0.891749,-0.0661621,-0.789965,0.1867857,
2,1,0,1,0,14768.6,0.188571,0.188257,0.304827,8,0.0166298,10,5.73859e-05,-3.51595,-0.661503,-0.0891908,-1.05817,0.1882571,
2,1,0,0,0,14768.9,0.19007,0.189788,0.30362,8,0.0167262,10,5.76234e-05,-3.51767,-1.02225,-0.0577156,-0.682922,0.189788,
2,1,0,0,0,14769.2,0.191568,0.191223,0.301419,8,0.0168219,10,5.76384e-05,-3.52083,-1.00243,-0.0588568,-0.694463,0.191223,
2,1,0,1,0,14769.5,0.193067,0.19276,0.299299,8,0.0169175,10,5.76929e-05,-3.5239,-2.07843,-0.0283868,-0.331903,0.1927603,
2,1,0,1,0,14769.8,0.194564,0.194243,0.299081,8,0.0170129,10,5.80942e-05,-3.52421,-1.31871,-0.0447408,-0.523502,0.194243,
2,1,0,1,0,14770.1,0.196062,0.195746,0.298509,8,0.0171078,10,5.84319e-05,-3.52504,-0.579926,-0.101737,-1.18805,0.195746,
2,1,0,1,0,14770.4,0.197561,0.197229,0.297549,8,0.0172023,10,5.86854e-05,-3.52644,-1.02073,-0.057802,-0.671368,0.197229,
2,1,0,1,0,14770.7,0.199059,0.19873,0.296135,8,0.0172965,10,5.8851e-05,-3.52851,-1.31324,-0.0449269,-0.520057,0.19873,
2,1,0,1,0,14771,0.200557,0.200219,0.295898,8,0.0173905,10,5.92442e-05,-3.52886,-1.52814,-0.0386091,-0.4455,0.200219,
2,1,0,1,0,14771.3,0.202056,0.201756,0.295129,8,0.0174843,10,5.95439e-05,-3.52999,-1.64232,-0.0359248,-0.412499,0.201756,
2,1,0,1,0,14771.6,0.203553,0.203245,0.292868,8,0.0175776,10,5.95239e-05,-3.53333,-1.68554,-0.0350035,-0.401329,0.203245,
2,1,0,1,0,14771.9,0.205051,0.204695,0.292538,8,0.0176706,10,5.98812e-05,-3.53382,4.04745,0.0145771,0.16751,0.204695,
2,1,0,0,0,14772.2,0.20655,0.206242,0.292394,8,0.0177634,10,6.03039e-05,-3.53403,-1.40281,-0.0420585,-0.480534,0.206242,
2,1,0,0,0,14772.5,0.208048,0.207771,0.291506,8,0.0178563,10,6.05666e-05,-3.53535,-0.643865,-0.0916341,-1.03976,0.207771,
2,1,0,1,0,14772.8,0.209547,0.209279,0.290406,8,0.0179486,10,6.07759e-05,-3.53699,-1.19477,-0.049382,-0.559275,0.209279,
2,1,0,1,0,14773.1,0.211044,0.210728,0.290687,8,0.0180405,10,6.1256e-05,-3.53657,-1.89782,-0.0310883,-0.351173,0.210728,
2,1,0,1,0,14773.4,0.212542,0.212231,0.288377,8,0.0181325,10,6.12025e-05,-3.54004,-4.99823,-0.0118042,-0.132909,0.212231,
2,1,0,1,0,14773.7,0.214041,0.213744,0.288715,8,0.0182242,10,6.17112e-05,-3.53953,-2.89334,-0.0203917,-0.229142,0.213744,
2,1,0,1,0,14774,0.215539,0.215233,0.287562,8,0.0183157,10,6.18929e-05,-3.54127,-0.95143,-0.0620119,-0.694005,0.215233,
2,1,0,1,0,14774.3,0.217038,0.216756,0.285241,8,0.0184067,10,6.18277e-05,-3.54479,-1.476,-0.0399729,-0.446376,0.216756,
2,1,0,1,0,14774.6,0.218535,0.218242,0.285394,8,0.0184977,10,6.22851e-05,-3.54456,4.20405,0.0140341,0.156521,0.218242,
2,1,0,1,0,14774.9,0.220033,0.219769,0.285752,8,0.0185885,10,6.27995e-05,-3.54401,-1.43192,-0.0412035,-0.459315,0.219769,
2,1,0,0,0,14775.2,0.221532,0.221238,0.285349,8,0.0186793,10,6.31301e-05,-3.54462,-3.02433,-0.0195085,-0.216807,0.221238,
2,1,0,0,0,14775.5,0.22303,0.222704,0.281942,8,0.0187696,10,6.27896e-05,-3.54984,-1.49478,-0.0394707,-0.437918,0.222704,
2,1,0,1,0,14775.8,0.224529,0.224206,0.282507,8,0.0188599,10,6.33397e-05,-3.54897,-2.08724,-0.028267,-0.312359,0.224206,
2,1,0,1,0,14776.1,0.226026,0.225727,0.281611,8,0.01895,10,6.35673e-05,-3.55035,-1.58239,-0.0372853,-0.411563,0.225727,
2,1,0,1,0,14776.4,0.227524,0.227229,0.280575,8,0.0190399,10,6.37548e-05,-3.55195,-1.60183,-0.0368329,-0.405266,0.227229,
2,1,0,1,0,14776.7,0.229023,0.228694,0.279946,8,0.0191296,10,6.40219e-05,-3.55293,-1.44201,-0.040915,-0.451246,0.228694,
2,1,0,1,0,14777,0.230521,0.230242,0.281533,8,0.019219,10,6.48208e-05,-3.55047,-2.53827,-0.0232442,-0.255505,0.230242,
2,1,0,1,0,14777.3,0.232019,0.231699,0.281127,8,0.0193083,10,6.51368e-05,-3.5511,-1.26688,-0.0465711,-0.511452,0.231699,
2,1,0,1,0,14777.6,0.233518,0.233226,0.280761,8,0.0193976,10,6.54807e-05,-3.55166,-0.786495,-0.0750164,-0.819498,0.233226,
2,1,0,1,0,14777.9,0.235015,0.234689,0.279868,8,0.0194867,10,6.56821e-05,-3.55305,-5.5381,-0.0106535,-0.116375,0.2346893,
2,1,0,1,0,14778.2,0.236513,0.236193,0.278681,8,0.0195754,10,6.58225e-05,-3.55489,-1.87631,-0.0314446,-0.342185,0.236193,
2,1,0,0,0,14778.5,0.238012,0.237696,0.279872,8,0.0196642,10,6.65244e-05,-3.55304,-8.53481,-0.00691287,-0.0751122,0.237696,
2,1,0,0,0,14778.8,0.23951,0.239232,0.278472,8,0.0197529,10,6.66195e-05,-3.55522,-1.18406,-0.0498284,-0.541269,0.239232,
2,1,0,1,0,14779.1,0.241009,0.240663,0.276666,8,0.0198414,10,6.65833e-05,-3.55804,-0.824945,-0.07152,-0.775472,0.240663,
2,1,0,1,0,14779.4,0.242506,0.242166,0.27757,8,0.0199296,10,6.72181e-05,-3.55663,-2.47687,-0.0238204,-0.258038,0.242166,
2,1,0,1,0,14779.7,0.244004,0.243728,0.275752,8,0.0200178,10,6.72085e-05,-3.55948,7.45324,0.00791602,0.0853303,0.2437278,
2,1,0,1,0,14780,0.245503,0.24523,0.27705,8,0.020106,10,6.79409e-05,-3.55744,-29.5527,-0.00199644,-0.0215772,0.24523,
2,1,0,1,0,14780.3,0.247001,0.246689,0.276305,8,0.0201939,10,6.81614e-05,-3.55861,-1.24114,-0.0475371,-0.511406,0.246689,
2,1,0,1,0,14780.6,0.2485,0.248207,0.273141,8,0.0202817,10,6.77955e-05,-3.56361,-2.84901,-0.020709,-0.222168,0.248207,
2,1,0,1,0,14780.9,0.249997,0.249685,0.276251,8,0.0203693,10,6.89756e-05,-3.5587,-4.67611,-0.0126173,-0.135514,0.249685,
2,1,0,1,0,14781.2,0.251495,0.251162,0.274508,8,0.0204568,10,6.89461e-05,-3.56145,-3.89191,-0.0151597,-0.162301,0.251162,
2,1,0,0,0,14781.5,0.252994,0.252708,0.273499,8,0.0205443,10,6.91153e-05,-3.56304,-0.795811,-0.0741382,-0.793085,0.252708,
2,1,0,0,0,14781.8,0.254492,0.254193,0.273597,8,0.0206317,10,6.95467e-05,-3.56289,-1.19236,-0.0494819,-0.528303,0.254193,
2,1,0,1,0,14782.1,0.255991,0.255681,0.272176,8,0.0207187,10,6.95902e-05,-3.56515,52.5203,0.00112338,0.0120308,0.255681,
2,1,0,1,0,14782.4,0.257488,0.257194,0.273557,8,0.0208057,10,7.03572e-05,-3.56295,-4.36453,-0.0135181,-0.143843,0.257194,
2,1,0,1,0,14782.7,0.258986,0.258671,0.273609,8,0.0208928,10,7.07748e-05,-3.56287,3.20183,0.018427,0.195743,0.258671,
2,1,0,1,0,14783,0.260485,0.260194,0.273413,8,0.0209797,10,7.11406e-05,-3.56318,-2.16941,-0.0271963,-0.288277,0.2601943,
2,1,0,1,0,14783.3,0.261983,0.261702,0.27354,8,0.0210663,10,7.1586e-05,-3.56298,-3.81015,-0.015485,-0.164458,0.261702,
2,1,0,1,0,14783.6,0.263481,0.263153,0.271096,8,0.0211528,10,7.13396e-05,-3.56688,-7.30988,-0.00807127,-0.085466,0.263153,
2,1,0,1,0,14783.9,0.26498,0.264673,0.2717,8,0.0212393,10,7.19116e-05,-3.56591,-4.5108,-0.0130797,-0.138225,0.264673,
2,1,0,1,0,14784.2,0.266477,0.266154,0.270931,8,0.0213257,10,7.21094e-05,-3.56714,-0.987242,-0.0597625,-0.633101,0.266154,
2,1,0,0,0,14784.5,0.267976,0.267702,0.268913,8,0.0214117,10,7.19884e-05,-3.57039,-1.14942,-0.05133,-0.541209,0.267702,
2,1,0,0,0,14784.8,0.269474,0.269149,0.269652,8,0.0214977,10,7.25766e-05,-3.5692,-2.43653,-0.0242148,-0.254513,0.269149,
2,1,0,0,0,14785.1,0.270972,0.27065,0.270857,8,0.0215836,10,7.33076e-05,-3.56726,-1.37247,-0.0429883,-0.451262,0.27065,
2,1,0,1,0,14785.4,0.27247,0.27217,0.268237,8,0.0216694,10,7.30059e-05,-3.57148,-1.76041,-0.0335149,-0.351736,0.27217,
2,1,0,1,0,14785.7,0.273968,0.273644,0.267233,8,0.021755,10,7.3127e-05,-3.57311,-2.45887,-0.0239948,-0.251505,0.273644,
2,1,0,1,0,14786,0.275466,0.27515,0.26727,8,0.0218404,10,7.35392e-05,-3.57305,-2.23713,-0.0263731,-0.276001,0.27515,
2,1,0,1,0,14786.3,0.276965,0.276637,0.266912,8,0.0219258,10,7.38376e-05,-3.57363,-6.17553,-0.00955383,-0.0996567,0.276637,
2,1,0,1,0,14786.6,0.278463,0.278135,0.267517,8,0.0220111,10,7.44059e-05,-3.57265,-1.82387,-0.0323488,-0.336177,0.2781353,
2,1,0,1,0,14786.9,0.279962,0.279673,0.266451,8,0.0220964,10,7.45191e-05,-3.57438,-1.79566,-0.0328569,-0.341927,0.279673,
2,1,0,1,0,14787.2,0.281459,0.281159,0.267073,8,0.0221812,10,7.509e-05,-3.57337,-3.05162,-0.019334,-0.201088,0.2811594,
2,1,0,1,0,14787.5,0.282957,0.282621,0.267073,8,0.0222661,10,7.54803e-05,-3.57337,-16.8058,-0.0035107,-0.0363325,0.282621,
2,1,0,0,0,14787.8,0.284456,0.284188,0.265454,8,0.022351,10,7.54389e-05,-3.57601,-60.2215,-0.000979717,-0.0101486,0.284188,
2,1,0,0,0,14788.1,0.285954,0.285639,0.265662,8,0.0224357,10,7.58833e-05,-3.57567,-4.15099,-0.0142135,-0.146984,0.285639,
2,1,0,0,0,14788.4,0.287452,0.287171,0.265546,8,0.0225202,10,7.6257e-05,-3.57586,-2.52994,-0.0233207,-0.241286,0.287171,
2,1,0,1,0,14788.7,0.28895,0.288658,0.264925,8,0.0226047,10,7.64728e-05,-3.57688,97.0882,0.000607695,0.00627919,0.2886577,
2,1,0,1,0,14789,0.290448,0.290175,0.264282,8,0.022689,10,7.66879e-05,-3.57793,-2.1337,-0.0276515,-0.284709,0.2901749,
2,1,0,1,0,14789.3,0.291947,0.291606,0.264222,8,0.0227733,10,7.70486e-05,-3.57803,-2.86101,-0.0206221,-0.212777,0.291606,
2,1,0,1,0,14789.6,0.293445,0.293142,0.262052,8,0.0228572,10,7.68184e-05,-3.58161,-12.1477,-0.00485688,-0.050017,0.293142,
2,1,0,1,0,14789.9,0.294943,0.294621,0.262928,8,0.0229411,10,7.74643e-05,-3.58016,9.57993,0.00615871,0.0629789,0.294621,
2,1,0,1,0,14790.2,0.296442,0.296144,0.263939,8,0.023025,10,7.81638e-05,-3.5785,-3.53486,-0.0166909,-0.170853,0.2961435,
2,1,0,1,0,14790.5,0.297939,0.297637,0.262563,8,0.0231087,10,7.81486e-05,-3.58077,-0.855842,-0.068938,-0.704074,0.297637,
2,1,0,1,0,14790.8,0.299437,0.299148,0.261132,8,0.0231923,10,7.81171e-05,-3.58314,-0.0022877,-25.7901,-122.942,0.299148,
2,1,0,1,0,14791,0.299737,0.299434,0.0939446,8,0.0232296,10,2.81302e-05,-4.02713,0.000977208,60.3761,198.882,0.299434,
2,1,0,1,0,14791.3,0.29824,0.297976,0.0212067,8,0.0232373,10,6.31909e-06,-4.67353,0.00180589,32.6708,68.6977,0.297976,
2,1,0,0,0,14791.6,0.296741,0.296418,0.00369319,8,0.0232357,10,1.09473e-06,-5.4326,0.00999453,5.90323,10.2605,0.296418,
2,1,0,0,0,14791.9,0.295243,0.294951,-0.00801451,8,0.0232298,10,-2.36389e-06,-5.09612,-0.0105383,-5.5986,6.22283,0.294951,
2,0,0,1,0,14792.2,0.293744,0.293404,-0.0168492,8,0.0232211,10,-4.94363e-06,-4.77342,-0.00516973,-11.4126,5.5321,0.293404,
2,0,0,1,0,14792.5,0.292246,0.29194,-0.0237416,8,0.0232101,10,-6.93112e-06,-4.62449,-0.0101697,-5.80152,4.72667,0.2919398,
2,0,0,1,0,14792.8,0.290749,0.29043,-0.0307862,8,0.023197,10,-8.94123e-06,-4.51164,-0.0164036,-3.59677,4.12009,0.29043,
2,0,0,1,0,14793.1,0.28925,0.288927,-0.0364858,8,0.023182,10,-1.05417e-05,-4.43788,-0.0224026,-2.63363,3.64466,0.288927,
2,0,0,1,0,14793.4,0.287752,0.287422,-0.0412634,8,0.0231652,10,-1.186e-05,-4.38444,-0.0266387,-2.21483,3.56004,0.287422,
2,0,0,1,0,14793.7,0.286253,0.285935,-0.0453298,8,0.0231472,10,-1.29614e-05,-4.34362,-0.0337965,-1.74575,3.12332,0.285935,
2,0,0,1,0,14794,0.284755,0.284428,-0.0510087,8,0.0231276,10,-1.45083e-05,-4.29236,-0.0391887,-1.50554,2.90313,0.284428,
2,0,0,1,0,14794.3,0.283257,0.282932,-0.0542444,8,0.0231066,10,-1.53475e-05,-4.26565,-0.0479088,-1.23151,2.60873,0.282932,
2,0,0,0,0,14794.6,0.281759,0.281443,-0.0590561,8,0.0230845,10,-1.66209e-05,-4.22874,-0.0484414,-1.21797,2.76513,0.281443,
2,0,0,0,0,14794.9,0.280261,0.279973,-0.0609421,8,0.0230613,10,-1.70621e-05,-4.21508,-0.058024,-1.01682,2.43828,0.279973,
2,0,0,0,0,14795.2,0.278763,0.278483,-0.0656092,8,0.0230371,10,-1.82711e-05,-4.18304,-0.0664475,-0.887919,2.23628,0.278483,
2,0,0,1,0,14795.5,0.277264,0.276968,-0.0698286,8,0.0230116,10,-1.93403e-05,-4.15597,-0.0726912,-0.811653,2.17147,0.276968,
2,0,0,1,0,14795.8,0.275766,0.275434,-0.07191,8,0.0229852,10,-1.98064e-05,-4.14321,-0.103831,-0.568233,1.58603,0.275434,
2,0,0,1,0,14796.1,0.274269,0.273934,-0.0738341,8,0.0229578,10,-2.02257e-05,-4.13174,-0.0869316,-0.678695,2.01913,0.273934,
2,0,0,1,0,14796.4,0.27277,0.272494,-0.0775643,8,0.0229298,10,-2.11358e-05,-4.11034,-0.0837986,-0.704069,2.17834,0.272494,
2,0,0,1,0,14796.7,0.271272,0.270981,-0.081089,8,0.0229005,10,-2.19736e-05,-4.09104,-0.0963834,-0.612139,1.93284,0.270981,
2,0,0,1,0,14797,0.269773,0.269475,-0.0847792,8,0.0228703,10,-2.28458e-05,-4.07171,-0.129172,-0.456754,1.48293,0.269475,
2,0,0,1,0,14797.3,0.268275,0.267946,-0.0880593,8,0.0228393,10,-2.35951e-05,-4.05522,-0.111056,-0.531266,1.79673,0.267946,
2,0,0,1,0,14797.6,0.266778,0.266476,-0.0902375,8,0.0228078,10,-2.40461e-05,-4.04461,-0.150014,-0.393296,1.37397,0.266476,
2,0,0,0,0,14797.9,0.265279,0.264987,-0.0921091,8,0.0227752,10,-2.44078e-05,-4.0357,-0.110656,-0.533183,1.92002,0.264987,
2,0,0,0,0,14798.2,0.263781,0.263494,-0.0948005,8,0.0227419,10,-2.49794e-05,-4.02319,-0.138602,-0.425681,1.59692,0.263494,
2,0,0,1,0,14798.5,0.262282,0.261962,-0.0975046,8,0.0227078,10,-2.55425e-05,-4.01097,-0.135911,-0.434106,1.6499,0.261962,
2,0,0,1,0,14798.8,0.260784,0.260516,-0.0998497,8,0.0226731,10,-2.60124e-05,-4.00065,-0.162113,-0.363944,1.41521,0.260516,
2,0,0,1,0,14799.1,0.259286,0.258959,-0.102191,8,0.0226375,10,-2.64633e-05,-3.99059,-0.129769,-0.454655,1.81148,0.258959,
2,0,0,1,0,14799.4,0.257788,0.257482,-0.105859,8,0.0226012,10,-2.72567e-05,-3.97527,-0.181263,-0.325494,1.32219,0.257482,
2,0,0,1,0,14799.7,0.25629,0.256008,-0.106373,8,0.0225642,10,-2.72323e-05,-3.97317,-0.204216,-0.28891,1.19817,0.256008,
2,0,0,1,0,14800,0.254791,0.254458,-0.107275,8,0.0225267,10,-2.72969e-05,-3.9695,-0.170098,-0.346858,1.46697,0.254458,
2,0,0,1,0,14800.3,0.253293,0.253006,-0.110829,8,0.0224886,10,-2.80402e-05,-3.95535,-0.181872,-0.324404,1.40427,0.253006,
2,0,0,1,0,14800.6,0.251795,0.251505,-0.113196,8,0.0224497,10,-2.84694e-05,-3.94617,-0.170257,-0.346536,1.53785,0.251505,
2,0,0,0,0,14800.9,0.250297,0.249996,-0.115255,8,0.0224103,10,-2.88134e-05,-3.93834,-0.209479,-0.281651,1.26331,0.249996,
2,0,0,0,0,14801.2,0.248799,0.248495,-0.117511,8,0.0223701,10,-2.92008e-05,-3.92992,-0.20339,-0.290083,1.33125,0.2484948,
2,0,0,0,0,14801.5,0.247301,0.246963,-0.119193,8,0.0223296,10,-2.94363e-05,-3.92375,-0.176991,-0.33335,1.55902,0.246963,
2,0,0,1,0,14801.8,0.245802,0.24551,-0.121874,8,0.0222883,10,-2.99212e-05,-3.91409,-0.19017,-0.310249,1.46238,0.24551,
2,0,0,1,0,14802.1,0.244304,0.243986,-0.124686,8,0.0222463,10,-3.04216e-05,-3.90418,-0.207828,-0.283889,1.37224,0.243986,
2,0,0,1,0,14802.4,0.242806,0.242462,-0.125922,8,0.0222038,10,-3.05313e-05,-3.8999,-0.226234,-0.260792,1.27484,0.242462,
2,0,0,1,0,14802.7,0.241308,0.241007,-0.128488,8,0.022161,10,-3.09666e-05,-3.89114,-0.248099,-0.237809,1.18742,0.241007,
2,0,0,1,0,14803,0.23981,0.239444,-0.129843,8,0.0221172,10,-3.10901e-05,-3.88658,-0.183859,-0.320898,1.61516,0.239444,
2,0,0,1,0,14803.3,0.238311,0.237984,-0.131467,8,0.0220729,10,-3.1287e-05,-3.88118,-0.24413,-0.241674,1.23817,0.237984,
2,0,0,1,0,14803.6,0.236813,0.236484,-0.132695,8,0.0220282,10,-3.13802e-05,-3.87715,-0.299471,-0.197014,1.02662,0.236484,
2,0,0,1,0,14803.9,0.235316,0.235016,-0.13434,8,0.021983,10,-3.15722e-05,-3.87179,-0.196519,-0.300225,1.57882,0.235016,
2,0,0,0,0,14804.2,0.233817,0.233489,-0.136288,8,0.0219373,10,-3.18218e-05,-3.86554,-0.233909,-0.252234,1.34402,0.233489,
2,0,0,0,0,14804.5,0.232319,0.232003,-0.138263,8,0.0218908,10,-3.20774e-05,-3.8593,-0.303619,-0.194322,1.0446,0.232003,
2,0,0,1,0,14804.8,0.23082,0.230497,-0.139867,8,0.0218438,10,-3.2239e-05,-3.85428,-0.280858,-0.21007,1.1443,0.230497,
2,0,0,1,0,14805.1,0.229322,0.229025,-0.140182,8,0.0217965,10,-3.21052e-05,-3.85331,-0.296489,-0.198996,1.09525,0.229025,
2,0,0,1,0,14805.4,0.227825,0.227495,-0.143986,8,0.0217486,10,-3.2756e-05,-3.84168,-0.237032,-0.248911,1.39939,0.227495,
2,0,0,1,0,14805.7,0.226326,0.226024,-0.145031,8,0.0217,10,-3.27804e-05,-3.83854,-0.237333,-0.248596,1.41316,0.226024,
2,0,0,1,0,14806,0.224828,0.224532,-0.147101,8,0.0216509,10,-3.30288e-05,-3.83238,-0.489801,-0.120457,0.692104,0.224532,
2,0,0,1,0,14806.3,0.223329,0.223046,-0.149651,8,0.0216012,10,-3.33791e-05,-3.82492,-0.299126,-0.197241,1.15319,0.223046,
2,0,0,1,0,14806.6,0.221831,0.221528,-0.151064,8,0.0215512,10,-3.34648e-05,-3.82084,-0.240426,-0.245398,1.44069,0.221528,
2,0,0,1,0,14806.9,0.220333,0.220025,-0.153119,8,0.0215005,10,-3.36901e-05,-3.81497,-0.324975,-0.181553,1.07975,0.220025,
2,0,0,0,0,14807.2,0.218835,0.21853,-0.153688,8,0.0214491,10,-3.35854e-05,-3.81336,-0.37998,-0.155271,0.940079,0.21853,
2,0,0,0,0,14807.5,0.217337,0.217038,-0.15666,8,0.0213972,10,-3.40013e-05,-3.80504,-0.329514,-0.179052,1.09438,0.217038,
2,0,0,0,0,14807.8,0.215839,0.21551,-0.157224,8,0.021345,10,-3.38834e-05,-3.80348,-0.328855,-0.17941,1.1064,0.21551,
2,0,0,1,0,14808.1,0.21434,0.214039,-0.160268,8,0.0212921,10,-3.43037e-05,-3.79515,-0.240668,-0.245151,1.52471,0.214039,
2,0,0,1,0,14808.4,0.212842,0.212539,-0.16118,8,0.0212386,10,-3.4257e-05,-3.79269,-0.256888,-0.229672,1.45012,0.212539,
2,0,0,1,0,14808.7,0.211344,0.211029,-0.162469,8,0.0211846,10,-3.42855e-05,-3.78923,-0.29531,-0.19979,1.27791,0.211029,
2,0,0,1,0,14809,0.209846,0.209512,-0.164084,8,0.02113,10,-3.43775e-05,-3.78493,-0.328482,-0.179614,1.15637,0.209512,
2,0,0,1,0,14809.3,0.208348,0.208038,-0.168733,8,0.0210749,10,-3.5103e-05,-3.7728,-0.295836,-0.199435,1.2999,0.2080382,
2,0,0,1,0,14809.6,0.206849,0.206559,-0.171809,8,0.021019,10,-3.54887e-05,-3.76495,-0.290007,-0.203443,1.33749,0.206559,
2,0,0,1,0,14809.9,0.205351,0.205039,-0.171519,8,0.0209625,10,-3.51683e-05,-3.76569,-0.563114,-0.104774,0.697163,0.205039,
2,0,0,1,0,14810.2,0.203854,0.203523,-0.172372,8,0.0209056,10,-3.50817e-05,-3.76353,-0.2938,-0.200817,1.35814,0.203523,
2,0,0,0,0,14810.5,0.202355,0.20208,-0.17472,8,0.0208484,10,-3.53073e-05,-3.75766,-0.30159,-0.19563,1.34,0.20208,
2,0,0,0,0,14810.8,0.200857,0.200532,-0.176014,8,0.0207904,10,-3.52963e-05,-3.75445,-0.265152,-0.222514,1.53338,0.200532,
2,0,0,1,0,14811.1,0.199358,0.199048,-0.17966,8,0.0207317,10,-3.5761e-05,-3.74555,-0.321422,-0.183559,1.27844,0.199048,
2,0,0,1,0,14811.4,0.19786,0.19754,-0.18163,8,0.0206724,10,-3.58792e-05,-3.74081,-0.265161,-0.222506,1.56857,0.19754,
2,0,0,1,0,14811.7,0.196363,0.196072,-0.182526,8,0.0206127,10,-3.57882e-05,-3.73868,-0.296597,-0.198923,1.41852,0.196072,
2,0,0,1,0,14812,0.194864,0.19453,-0.185272,8,0.0205521,10,-3.60408e-05,-3.73219,-0.261815,-0.22535,1.62322,0.19453,
2,0,0,1,0,14812.3,0.193366,0.193053,-0.187215,8,0.0204907,10,-3.61423e-05,-3.72766,-0.362374,-0.162815,1.19505,0.193053,
2,0,0,1,0,14812.6,0.191867,0.191521,-0.189562,8,0.0204288,10,-3.6305e-05,-3.72225,-0.334793,-0.176228,1.31386,0.191521,
2,0,0,1,0,14812.9,0.190369,0.190042,-0.191639,8,0.0203663,10,-3.64194e-05,-3.71752,-0.213177,-0.276765,2.08042,0.190042,
2,0,0,1,0,14813.2,0.188871,0.18855,-0.193987,8,0.0203028,10,-3.65763e-05,-3.71223,-0.183704,-0.32117,2.43472,0.18855,
2,0,0,0,0,14813.5,0.187373,0.187062,-0.197677,8,0.0202385,10,-3.69779e-05,-3.70404,-0.264893,-0.222731,1.71814,0.187062,
2,0,0,0,0,14813.8,0.185875,0.185516,-0.199942,8,0.0201735,10,-3.70924e-05,-3.6991,-0.217575,-0.271171,2.11283,0.185516,
2,0,0,0,0,14814.1,0.184377,0.184075,-0.201151,8,0.0201077,10,-3.70269e-05,-3.69648,-0.255975,-0.230491,1.81805,0.184075,
2,0,0,1,0,14814.4,0.182878,0.18251,-0.206884,8,0.0200412,10,-3.77584e-05,-3.68427,-0.225285,-0.26189,2.10082,0.18251,
2,0,0,1,0,14814.7,0.181381,0.181102,-0.209502,8,0.0199736,10,-3.79412e-05,-3.67881,-0.214747,-0.274742,2.23595,0.181102,
2,0,0,1,0,14815,0.179882,0.179584,-0.212176,8,0.0199051,10,-3.81035e-05,-3.6733,-0.328715,-0.179487,1.48294,0.179584,
2,0,0,1,0,14815.3,0.178384,0.178069,-0.214718,8,0.0198358,10,-3.82345e-05,-3.66813,-0.216158,-0.272948,2.30299,0.178069,
2,0,0,1,0,14815.6,0.176886,0.176559,-0.217402,8,0.0197657,10,-3.83842e-05,-3.66274,-0.194638,-0.303127,2.57871,0.176559,
2,0,0,1,0,14815.9,0.175387,0.175018,-0.221259,8,0.0196943,10,-3.87243e-05,-3.6551,-0.203003,-0.290636,2.51429,0.175018,
2,0,0,1,0,14816.2,0.173889,0.173504,-0.22518,8,0.0196218,10,-3.90697e-05,-3.64747,-0.194177,-0.303847,2.66628,0.173504,
2,0,0,1,0,14816.5,0.172392,0.172069,-0.22881,8,0.0195483,10,-3.9371e-05,-3.64052,-0.199708,-0.295432,2.6374,0.172069,
2,0,0,0,0,14816.7,0.170893,0.170612,-0.232306,8,0.0194737,10,-3.96342e-05,-3.63394,-0.185614,-0.317864,2.89466,0.1706122,
2,0,0,0,0,14817,0.169395,0.169097,-0.239349,8,0.0193977,10,-4.04732e-05,-3.62097,-0.152426,-0.387072,3.59318,0.169097,
2,0,0,1,0,14817.3,0.167896,0.167601,-0.242967,8,0.01932,10,-4.07216e-05,-3.61445,-0.164531,-0.358596,3.40512,0.167601,
2,0,0,1,0,14817.6,0.166398,0.166049,-0.246846,8,0.0192411,10,-4.09885e-05,-3.60757,-0.171533,-0.343957,3.34352,0.166049,
2,0,0,1,0,14817.9,0.164901,0.164573,-0.25255,8,0.0191609,10,-4.1563e-05,-3.59765,-0.156951,-0.375913,3.72018,0.164573,
2,0,0,1,0,14818.2,0.163402,0.16308,-0.25938,8,0.0190788,10,-4.22997e-05,-3.58606,-0.14048,-0.41999,4.24783,0.16308,
2,0,0,1,0,14818.5,0.161904,0.161563,-0.26579,8,0.0189949,10,-4.29418e-05,-3.57546,-0.140207,-0.420807,4.3617,0.1615627,
2,0,0,1,0,14818.8,0.160405,0.160074,-0.271704,8,0.0189089,10,-4.34929e-05,-3.5659,-0.143704,-0.410565,4.3527,0.160074,
2,0,0,1,0,14819.1,0.158907,0.158595,-0.27663,8,0.0188209,10,-4.38721e-05,-3.5581,-0.124539,-0.473749,5.17862,0.158595,
2,0,0,1,0,14819.4,0.157409,0.157063,-0.28652,8,0.0187307,10,-4.50018e-05,-3.54285,-0.109349,-0.539559,6.08735,0.157063,
2,0,0,0,0,14819.7,0.155911,0.155586,-0.296973,8,0.0186377,10,-4.6205e-05,-3.52728,-0.102777,-0.57406,6.67282,0.155586,
2,0,0,0,0,14820,0.154413,0.154071,-0.30523,8,0.0185416,10,-4.70271e-05,-3.51537,-0.10374,-0.568729,6.79356,0.154071,
2,0,0,0,0,14820.3,0.152915,0.152598,-0.317183,8,0.0184425,10,-4.84015e-05,-3.49869,-0.0900575,-0.655137,8.14975,0.152598,
2,0,0,1,0,14820.6,0.151416,0.151092,-0.330152,8,0.0183399,10,-4.98834e-05,-3.48129,-0.0842022,-0.700694,9.03685,0.1510921,
2,0,0,1,0,14820.9,0.149919,0.149613,-0.34472,8,0.0182331,10,-5.15745e-05,-3.46253,-0.0772229,-0.764022,10.2725,0.149613,
2,0,0,1,0,14821.2,0.14842,0.148127,-0.359228,8,0.0181222,10,-5.32115e-05,-3.44463,-0.0784167,-0.752391,10.5992,0.148127,
2,0,0,1,0,14821.5,0.146922,0.146609,-0.376386,8,0.0180065,10,-5.51815e-05,-3.42437,-0.0753966,-0.782529,11.5224,0.146609,
2,0,0,1,0,14821.8,0.145424,0.145112,-0.394832,8,0.0178858,10,-5.72947e-05,-3.40359,-0.0721532,-0.817704,12.6165,0.145112,
2,0,0,1,0,14822.1,0.143925,0.143586,-0.412511,8,0.0177593,10,-5.92309e-05,-3.38456,-0.0674849,-0.87427,14.1122,0.143586,
2,0,0,1,0,14822.4,0.142427,0.142072,-0.434761,8,0.0176265,10,-6.17674e-05,-3.36175,-0.0689009,-0.856302,14.5477,0.142072,
2,0,0,1,0,14822.7,0.14093,0.140628,-0.456643,8,0.017487,10,-6.42166e-05,-3.34042,-0.071558,-0.824506,14.7451,0.140628,
2,0,0,0,0,14823,0.139431,0.139121,-0.47955,8,0.0173408,10,-6.67156e-05,-3.31917,-0.0696307,-0.847327,15.9131,0.139121,
2,0,0,0,0,14823.3,0.137933,0.137569,-0.505636,8,0.0171875,10,-6.95598e-05,-3.29616,-0.0722456,-0.816659,16.054,0.137569,
2,0,0,1,0,14823.6,0.136434,0.136123,-0.530462,8,0.0170267,10,-7.22082e-05,-3.27535,-0.0756366,-0.780046,16.0556,0.136123,
2,0,0,1,0,14823.9,0.134936,0.134599,-0.552611,8,0.0168589,10,-7.43806e-05,-3.25758,-0.0871107,-0.677299,14.5348,0.134599,
2,0,0,1,0,14824.2,0.133439,0.133071,-0.573075,8,0.0166844,10,-7.62597e-05,-3.24179,-0.0901245,-0.65465,14.6374,0.133071,
2,0,0,1,0,14824.5,0.13194,0.131547,-0.594064,8,0.0165035,10,-7.81472e-05,-3.22617,-0.0967029,-0.610116,14.1453,0.131547,
2,0,0,1,0,14824.8,0.130442,0.130106,-0.614578,8,0.0163165,10,-7.99602e-05,-3.21142,-0.117887,-0.500479,11.9526,0.130106,
2,0,0,1,0,14825.1,0.128943,0.128609,-0.631741,8,0.0161238,10,-8.12476e-05,-3.19946,-0.156046,-0.378093,9.25917,0.128609,
2,0,0,1,0,14825.4,0.127445,0.127111,-0.645261,8,0.015927,10,-8.20198e-05,-3.19026,-0.186058,-0.317106,7.94759,0.127111,
2,0,0,1,0,14825.7,0.125947,0.125608,-0.655497,8,0.015727,10,-8.23354e-05,-3.18343,-0.218875,-0.269561,6.87113,0.125608,
2,0,0,0,0,14826,0.124449,0.124142,-0.664349,8,0.0155235,10,-8.24737e-05,-3.1776,-0.264172,-0.22334,5.76428,0.124142,
2,0,0,0,0,14826.3,0.122951,0.122648,-0.672132,8,0.0153174,10,-8.24356e-05,-3.17255,-0.390933,-0.150921,3.93989,0.1226479,
2,0,0,0,0,14826.6,0.121453,0.121137,-0.677198,8,0.0151096,10,-8.20336e-05,-3.16928,-0.639897,-0.0922023,2.42583,0.121137,
2,0,0,1,0,14826.9,0.119954,0.11964,-0.674956,8,0.0149012,10,-8.0752e-05,-3.17072,-1.40713,-0.0419293,1.10661,0.1196404,
2,0,0,1,0,14827.2,0.118456,0.118128,-0.677628,8,0.0146921,10,-8.00466e-05,-3.16901,-1.68682,-0.034977,0.922937,0.118128,
2,0,0,1,0,14827.5,0.116958,0.11665,-0.679685,8,0.0144826,10,-7.92854e-05,-3.16769,2.87897,0.0204935,-0.542293,0.11665,
2,0,0,1,0,14827.8,0.11546,0.115136,-0.676562,8,0.0142736,10,-7.78967e-05,-3.16969,0.674245,0.0875053,-2.31116,0.115136,
2,0,0,1,0,14828.1,0.113962,0.113641,-0.66985,8,0.0140655,10,-7.61223e-05,-3.17402,0.932369,0.0632796,-1.66364,0.1136408,
2,0,0,1,0,14828.4,0.112463,0.112138,-0.67142,8,0.0138585,10,-7.52917e-05,-3.17301,0.604765,0.0975586,-2.55383,0.112138,
2,0,0,1,0,14828.7,0.110965,0.110662,-0.667726,8,0.0136522,10,-7.38921e-05,-3.1754,0.593064,0.0994834,-2.5901,0.1106623,
2,0,0,1,0,14829,0.109468,0.10918,-0.662514,8,0.0134471,10,-7.23333e-05,-3.17881,0.370935,0.159058,-4.10705,0.10918,
2,0,0,0,0,14829.3,0.107969,0.107691,-0.658035,8,0.0132434,10,-7.08643e-05,-3.18175,0.417644,0.141269,-3.63188,0.107691,
2,0,0,0,0,14829.6,0.106471,0.106141,-0.653016,8,0.0130415,10,-6.93114e-05,-3.18508,0.580195,0.10169,-2.60076,0.106141,
2,0,0,1,0,14829.9,0.104972,0.104657,-0.648539,8,0.0128408,10,-6.78739e-05,-3.18806,0.425057,0.138805,-3.50888,0.104657,
2,0,0,1,0,14830.2,0.103474,0.103194,-0.643736,8,0.012641,10,-6.64294e-05,-3.19129,0.469001,0.125799,-3.15538,0.103194,
2,0,0,1,0,14830.5,0.101977,0.101643,-0.638134,8,0.0124432,10,-6.48617e-05,-3.19509,0.389287,0.151559,-3.77625,0.101643,
2,0,0,1,0,14830.8,0.100478,0.100149,-0.631015,8,0.0122474,10,-6.31957e-05,-3.19996,0.353096,0.167093,-4.13228,0.100149,
2,0,0,1,0,14831.1,0.0989799,0.0986541,-0.62863,8,0.012053,10,-6.20169e-05,-3.2016,0.454827,0.12972,-3.17063,0.0986541,
2,0,0,1,0,14831.4,0.0974812,0.0971585,-0.622572,8,0.0118599,10,-6.04882e-05,-3.20581,0.397583,0.148397,-3.60616,0.0971585,
2,0,0,1,0,14831.7,0.0959834,0.0956351,-0.615763,8,0.0116687,10,-5.88886e-05,-3.21059,0.34074,0.173153,-4.17115,0.0956351,
2,0,0,1,0,14832,0.0944855,0.0941475,-0.607893,8,0.0114795,10,-5.72316e-05,-3.21617,0.338273,0.174415,-4.16234,0.0941475,
2,0,0,0,0,14832.3,0.0929871,0.0926596,-0.605162,8,0.0112917,10,-5.6074e-05,-3.21813,0.422454,0.13966,-3.29409,0.0926596,
2,0,0,0,0,14832.6,0.0914889,0.0911665,-0.600883,8,0.0111055,10,-5.47804e-05,-3.22121,0.407711,0.14471,-3.38613,0.0911665,
2,0,0,0,0,14832.9,0.0899907,0.0896576,-0.593574,8,0.0109211,10,-5.32184e-05,-3.22653,0.316534,0.186394,-4.30803,0.0896576,
2,0,0,1,0,14833.2,0.0884923,0.0881198,-0.584742,8,0.0107385,10,-5.15274e-05,-3.23304,0.356718,0.165397,-3.78819,0.08811976,
2,0,0,1,0,14833.5,0.0869946,0.0866823,-0.580934,8,0.0105578,10,-5.03567e-05,-3.23587,0.417059,0.141467,-3.21724,0.0866823,
2,0,0,1,0,14833.8,0.0854962,0.0851869,-0.57721,8,0.0103784,10,-4.91708e-05,-3.23867,0.393608,0.149895,-3.37691,0.0851869,
2,0,0,1,0,14834.1,0.083998,0.083644,-0.571879,8,0.0102004,10,-4.78343e-05,-3.2427,0.300976,0.196029,-4.36636,0.08364404,
2,0,0,1,0,14834.4,0.0824998,0.082187,-0.567201,8,0.010024,10,-4.66166e-05,-3.24626,0.428748,0.13761,-3.04696,0.082187,
2,0,0,1,0,14834.7,0.0810014,0.0806971,-0.562908,8,0.00984947,10,-4.5425e-05,-3.24956,0.448122,0.13166,-2.89329,0.0806971,
2,0,0,1,0,14835,0.0795035,0.0792032,-0.556725,8,0.00967596,10,-4.40944e-05,-3.25436,0.468684,0.125884,-2.74142,0.0792032,
2,0,0,1,0,14835.3,0.0780056,0.0776384,-0.555202,8,0.00950359,10,-4.3105e-05,-3.25555,0.461799,0.127761,-2.75604,0.0776384,
2,0,0,0,0,14835.6,0.076507,0.0762169,-0.551455,8,0.00933239,10,-4.20302e-05,-3.25849,0.408371,0.144476,-3.09305,0.0762169,
2,0,0,0,0,14835.9,0.0750088,0.074691,-0.546737,8,0.00916302,10,-4.08363e-05,-3.26222,0.51385,0.11482,-2.4436,0.07469102,
2,0,0,1,0,14836.2,0.0735103,0.07317,-0.541336,8,0.00899448,10,-3.96096e-05,-3.26653,0.664608,0.0887741,-1.87184,0.07317,
2,0,0,1,0,14836.5,0.0720124,0.0716774,-0.537663,8,0.00882696,10,-3.85383e-05,-3.26949,0.437248,0.134935,-2.83089,0.0716774,
2,0,0,1,0,14836.8,0.0705146,0.0701666,-0.534297,8,0.0086605,10,-3.74898e-05,-3.27222,0.486127,0.121367,-2.53423,0.0701666,
2,0,0,1,0,14837.1,0.0690161,0.0686912,-0.529331,8,0.00849559,10,-3.63604e-05,-3.27627,0.602422,0.0979379,-2.03414,0.0686912,
2,0,0,1,0,14837.4,0.0675179,0.0672098,-0.528052,8,0.00833156,10,-3.54903e-05,-3.27732,0.691679,0.0852996,-1.7573,0.0672098,
2,0,0,1,0,14837.7,0.0660192,0.065728,-0.527259,8,0.00816811,10,-3.46557e-05,-3.27798,0.64479,0.0915027,-1.86983,0.065728,
2,0,0,1,0,14838,0.0645214,0.0642121,-0.522088,8,0.00800567,10,-3.35244e-05,-3.28226,0.494898,0.119217,-2.41942,0.0642121,
2,0,0,1,0,14838.3,0.0630235,0.0627554,-0.516203,8,0.00784446,10,-3.23946e-05,-3.28718,0.621569,0.0949211,-1.91792,0.0627554,
2,0,0,0,0,14838.6,0.0615251,0.0612175,-0.51389,8,0.00768439,10,-3.1459e-05,-3.28913,0.537748,0.109717,-2.20882,0.0612175,
2,0,0,0,0,14838.9,0.0600269,0.0597467,-0.510861,8,0.00752519,10,-3.05223e-05,-3.2917,0.531273,0.111054,-2.22213,0.0597467,
2,0,0,0,0,14839.2,0.0585287,0.0582441,-0.508424,8,0.00736696,10,-2.96127e-05,-3.29377,0.381363,0.154708,-3.06147,0.0582441,
2,0,0,1,0,14839.5,0.0570303,0.0567169,-0.50514,8,0.00720972,10,-2.865e-05,-3.29659,0.473754,0.124537,-2.45421,0.0567169,
2,0,0,1,0,14839.8,0.0555325,0.0552168,-0.501601,8,0.0070539,10,-2.76968e-05,-3.29964,0.572839,0.102996,-2.01571,0.0552168,
2,0,0,1,0,14840.1,0.0540342,0.0537194,-0.498182,8,0.00689878,10,-2.6762e-05,-3.30261,0.598499,0.0985799,-1.91404,0.0537194,
2,0,0,1,0,14840.4,0.052536,0.0522295,-0.495848,8,0.00674431,10,-2.58979e-05,-3.30465,0.559983,0.10536,-2.03159,0.0522295,
2,0,0,1,0,14840.7,0.0510378,0.050729,-0.490225,8,0.00659108,10,-2.48686e-05,-3.3096,0.400188,0.147431,-2.82774,0.050729,
2,0,0,1,0,14841,0.0495394,0.0492475,-0.487163,8,0.00643925,10,-2.39916e-05,-3.31233,0.549653,0.10734,-2.04617,0.0492475,
2,0,0,1,0,14841.3,0.0480415,0.0477324,-0.484081,8,0.00628823,10,-2.31063e-05,-3.31508,0.714325,0.0825954,-1.558,0.0477324,
2,0,0,1,0,14841.6,0.0465436,0.0461887,-0.48122,8,0.00613816,10,-2.22269e-05,-3.31766,0.501747,0.117589,-2.20612,0.04618866,
2,0,0,0,0,14841.9,0.045045,0.0447632,-0.475754,8,0.0059892,10,-2.12963e-05,-3.32262,0.501193,0.117719,-2.19104,0.0447632,
2,0,0,0,0,14842.2,0.0435468,0.0432553,-0.471883,8,0.00584161,10,-2.04114e-05,-3.32617,0.448442,0.131567,-2.42746,0.0432553,
2,0,0,1,0,14842.5,0.0420483,0.0417546,-0.470007,8,0.00569493,10,-1.96249e-05,-3.3279,0.519816,0.113502,-2.08186,0.0417546,
2,0,0,1,0,14842.8,0.0405504,0.0402128,-0.467995,8,0.00554914,10,-1.88194e-05,-3.32976,0.409707,0.144006,-2.61774,0.0402128,
2,0,0,1,0,14843.1,0.0390526,0.038698,-0.463655,8,0.00540416,10,-1.79425e-05,-3.33381,0.397963,0.148255,-2.67475,0.038698,
2,0,0,1,0,14843.4,0.0375541,0.0372152,-0.457667,8,0.00526056,10,-1.70322e-05,-3.33945,0.374215,0.157663,-2.82692,0.0372152,
2,0,0,1,0,14843.7,0.0360559,0.0357285,-0.455716,8,0.00511832,10,-1.62821e-05,-3.34131,0.444264,0.132804,-2.36928,0.0357285,
2,0,0,1,0,14844,0.0345572,0.0342434,-0.451832,8,0.00497685,10,-1.54722e-05,-3.34502,0.477377,0.123592,-2.18098,0.0342434,
2,0,0,1,0,14844.3,0.0330594,0.0327232,-0.448749,8,0.00483638,10,-1.46845e-05,-3.348,0.367566,0.160515,-2.80364,0.0327232,
2,0,0,1,0,14844.6,0.0315615,0.0311784,-0.444979,8,0.00469685,10,-1.38737e-05,-3.35166,0.514167,0.114749,-1.99706,0.0311784,
2,0,0,0,0,14844.9,0.0300631,0.0297404,-0.441578,8,0.00455865,10,-1.31327e-05,-3.35499,0.444456,0.132747,-2.29024,0.0297404,
2,0,0,0,0,14845.2,0.0285649,0.0282569,-0.440052,8,0.00442114,10,-1.24345e-05,-3.3565,0.459223,0.128478,-2.20101,0.0282569,
2,0,0,0,0,14845.5,0.0270667,0.0267447,-0.435879,8,0.00428446,10,-1.16575e-05,-3.36063,0.460081,0.128238,-2.18235,0.0267447,
2,0,0,1,0,14845.8,0.0255683,0.0252864,-0.433615,8,0.00414876,10,-1.09646e-05,-3.3629,0.439376,0.134281,-2.27203,0.0252864,
2,0,0,1,0,14846.1,0.0240706,0.0238033,-0.429083,8,0.00401431,10,-1.02136e-05,-3.36746,0.502503,0.117412,-1.97536,0.0238033,
2,0,0,1,0,14846.4,0.0225722,0.0222316,-0.427257,8,0.0038804,10,-9.49862e-06,-3.36931,1.07184,0.0550457,-0.919531,0.0222316,
2,0,0,1,0,14846.7,0.021074,0.0207386,-0.425321,8,0.00374721,10,-8.82055e-06,-3.37128,0.638257,0.0924393,-1.53534,0.0207386,
2,0,0,1,0,14847,0.0195758,0.0192445,-0.42367,8,0.00361478,10,-8.15331e-06,-3.37297,0.614412,0.0960268,-1.58584,0.0192445,
2,0,0,1,0,14847.3,0.0180774,0.0177352,-0.418676,8,0.00348314,10,-7.4253e-06,-3.37812,0.742259,0.0794871,-1.30339,0.0177352,
2,0,0,1,0,14847.6,0.0165795,0.016267,-0.418969,8,0.00335217,10,-6.81535e-06,-3.37782,0.959023,0.0615209,-1.0067,0.016267,
2,0,0,1,0,14847.9,0.0150817,0.0147637,-0.418865,8,0.00322156,10,-6.18399e-06,-3.37793,1.12197,0.0525861,-0.857271,0.01476369,
2,0,0,0,0,14848.2,0.013583,0.0132458,-0.415689,8,0.00309115,10,-5.50612e-06,-3.38123,0.699378,0.0843606,-1.36564,0.01324576,
2,0,0,0,0,14848.5,0.0120848,0.0117559,-0.413423,8,0.00296136,10,-4.86016e-06,-3.38361,0.925643,0.0637395,-1.03445,0.0117559,
2,0,0,1,0,14848.8,0.0105863,0.0102953,-0.413386,8,0.00283217,10,-4.25592e-06,-3.38364,3.40322,0.0173365,-0.280447,0.0102953,
2,0,0,1,0,14849.1,0.00908846,0.00876234,-0.413986,8,0.00270293,10,-3.62749e-06,-3.38301,-237.3,-0.00024863,0.00401422,0.00876234,
2,0,0,1,0,14849.4,0.0075906,0.00728138,-0.413542,8,0.00257382,10,-3.01116e-06,-3.38348,1.23907,0.0476162,-0.766932,0.00728138,
2,0,0,1,0,14849.7,0.00609208,0.00576141,-0.412874,8,0.00244485,10,-2.37874e-06,-3.38418,-4.28246,-0.0137771,0.222027,0.00576141,
2,0,0,1,0,14850,0.00459389,0.00429593,-0.412107,8,0.00231623,10,-1.77038e-06,-3.38499,-1.5244,-0.0387037,0.6227,0.00429593,
2,0,0,1,0,14850.3,0.00309525,0.00279822,-0.414459,8,0.00218712,10,-1.15975e-06,-3.38252,-0.773611,-0.0762657,1.231,0.002798216,
2,0,0,1,0,14850.6,0.00159739,0.0012195,-0.416763,8,0.00205587,10,-5.0824e-07,-3.38011, , , ,0.0012195,
2,0,0,0,0,14850.9,0.000199195,-0.000174534,-0.414858,8,0.00193465,10,7.24067e-08,-3.3821, , , ,-0.000174534,