File: Figure_codes/Fig_3-5/rawdata_trumpetplot_data/after 10th/20221101_1-115_003_TrumpetPlot_ParaChange_from10_every3_04_CV_C01_15.csv
mode,ox/red,error,control changes,counter inc.,time/s,control/V,Ewe/V,<I>/mA,cycle number,(Q-Qo)/C,I Range,P/W,log(|I|),Tafel slope mV/dec,alpha_eff,dI/d(E-IR),E-IR/V,
2,0,0,1,0,30612,2.44065e-05,-0.000229887,-0.388152,16,0.0000000E+000,10,8.92312e-08,-3.411, , , ,-0.000229887,
2,1,0,1,0,30612.1,0.00129787,0.000919594,0.133314,16,-2.28621e-06,10,1.22595e-07,-3.87512, , , ,0.000919594,
2,1,0,1,0,30612.2,0.00279606,0.00251657,0.269534,16,3.22967e-05,10,6.783e-07,-3.56939,0.004217,13.991,69.5357,0.00251657,
2,1,0,1,0,30612.4,0.00429425,0.00399901,0.308582,16,7.81574e-05,10,1.23402e-06,-3.51063,0.0269052,2.19289,24.9188,0.00399901,
2,1,0,1,0,30612.5,0.00579244,0.00544647,0.335469,16,0.000128953,10,1.82712e-06,-3.47435,0.0427662,1.37959,17.7596,0.00544647,
2,1,0,1,0,30612.7,0.00729063,0.00700739,0.359836,16,0.000183502,10,2.52151e-06,-3.4439,0.0614487,0.96015,13.3581,0.00700739,
2,1,0,1,0,30612.8,0.00878882,0.00844848,0.379417,16,0.000241276,10,3.2055e-06,-3.42088,0.0749077,0.787636,11.5417,0.00844848,
2,1,0,1,0,30613,0.010287,0.0099532,0.395062,16,0.000301638,10,3.93213e-06,-3.40333,0.097329,0.606191,9.28944,0.009953198,
2,1,0,1,0,30613.1,0.0117852,0.0114664,0.408787,16,0.000364284,10,4.68731e-06,-3.3885,0.101271,0.582592,9.27072,0.0114664,
2,1,0,1,0,30613.3,0.0132838,0.0129315,0.423128,16,0.000428768,10,5.47166e-06,-3.37353,0.10672,0.552848,9.14275,0.0129315,
2,1,0,1,0,30613.4,0.0147814,0.0144512,0.4339,16,0.000495399,10,6.27038e-06,-3.36261,0.116964,0.504429,8.55897,0.0144512,
2,1,0,1,0,30613.6,0.0162789,0.0159943,0.446393,16,0.000563941,10,7.13976e-06,-3.35028,0.142987,0.412626,7.18328,0.0159943,
2,1,0,1,0,30613.7,0.017778,0.017463,0.459245,16,0.000634208,10,8.0198e-06,-3.33796,0.14862,0.396986,7.10378,0.017463,
2,1,0,1,0,30613.9,0.0192761,0.0189688,0.468226,16,0.000705791,10,8.88168e-06,-3.32954,0.155378,0.379719,6.94145,0.0189688,
2,1,0,1,0,30614,0.0207743,0.0204777,0.480272,16,0.000779207,10,9.83489e-06,-3.31851,0.143657,0.410702,7.6805,0.0204777,
2,1,0,1,0,30614.2,0.0222725,0.0220037,0.491644,16,0.000854248,10,1.0818e-05,-3.30835,0.16616,0.35508,6.78229,0.0220037,
2,1,0,1,0,30614.3,0.0237707,0.0234331,0.502548,16,0.000931027,10,1.17763e-05,-3.29882,0.174861,0.337411,6.6212,0.0234331,
2,1,0,1,0,30614.5,0.0252689,0.0249357,0.510669,16,0.0010091,10,1.27339e-05,-3.29186,0.173887,0.3393,6.79823,0.0249357,
2,1,0,1,0,30614.6,0.0267671,0.0264446,0.525013,16,0.00108894,10,1.38838e-05,-3.27983,0.147963,0.398748,8.14237,0.0264446,
2,1,0,1,0,30614.8,0.0282662,0.0279333,0.535007,16,0.00117051,10,1.49445e-05,-3.27164,0.165788,0.355877,7.40824,0.0279333,
2,1,0,1,0,30614.9,0.0297635,0.02944,0.544023,16,0.00125359,10,1.6016e-05,-3.26438,0.186281,0.316726,6.73545,0.02944,
2,1,0,1,0,30615.1,0.031261,0.0309473,0.551163,16,0.00133805,10,1.7057e-05,-3.25872,0.18144,0.325176,7.03538,0.0309473,
2,1,0,1,0,30615.2,0.0327599,0.0324105,0.564688,16,0.00142404,10,1.83018e-05,-3.24819,0.192755,0.306088,6.74806,0.0324105,
2,1,0,1,0,30615.4,0.034258,0.0339407,0.574508,16,0.00151168,10,1.94992e-05,-3.2407,0.188097,0.313668,7.02555,0.0339407,
2,1,0,1,0,30615.5,0.0357562,0.0354613,0.586864,16,0.00160098,10,2.08109e-05,-3.23146,0.222764,0.264854,6.04813,0.03546128,
2,1,0,1,0,30615.7,0.0372544,0.0369427,0.594484,16,0.00169172,10,2.19618e-05,-3.22586,0.209022,0.282267,6.56333,0.0369427,
2,1,0,1,0,30615.8,0.0387526,0.0384081,0.605541,16,0.00178382,10,2.32577e-05,-3.21786,0.195803,0.301324,7.15065,0.0384081,
2,1,0,1,0,30616,0.0402508,0.0399107,0.616569,16,0.00187768,10,2.46077e-05,-3.21002,0.197189,0.299206,7.20089,0.0399107,
2,1,0,1,0,30616.1,0.041749,0.0414494,0.628792,16,0.00197343,10,2.6063e-05,-3.20149,0.21982,0.268402,6.55064,0.04144939,
2,1,0,1,0,30616.3,0.0432472,0.0429393,0.638693,16,0.00207063,10,2.7425e-05,-3.19471,0.248412,0.237508,5.89675,0.0429393,
2,1,0,1,0,30616.4,0.0447458,0.0444279,0.647664,16,0.00216911,10,2.87744e-05,-3.18865,0.242587,0.243212,6.14669,0.04442792,
2,1,0,1,0,30616.6,0.0462433,0.0458973,0.658465,16,0.0022691,10,3.02218e-05,-3.18147,0.203529,0.289885,7.41496,0.0458973,
2,1,0,1,0,30616.7,0.0477409,0.0473613,0.66661,16,0.00237064,10,3.15715e-05,-3.17613,0.24503,0.240787,6.26549,0.0473613,
2,1,0,1,0,30616.9,0.0492399,0.0489231,0.675858,16,0.00247364,10,3.30651e-05,-3.17014,0.258173,0.228529,6.03309,0.0489231,
2,1,0,1,0,30617,0.0507381,0.0504522,0.684015,16,0.00257785,10,3.45101e-05,-3.16493,0.244314,0.241492,6.4536,0.0504522,
2,1,0,1,0,30617.2,0.0522363,0.05187,0.693426,16,0.00268339,10,3.5968e-05,-3.159,0.244425,0.241383,6.53556,0.05187,
2,1,0,1,0,30617.3,0.0537345,0.0534564,0.705013,16,0.00279047,10,3.76874e-05,-3.1518,0.267649,0.220438,6.04693,0.0534564,
2,1,0,1,0,30617.5,0.0552327,0.0548932,0.711414,16,0.00289888,10,3.90518e-05,-3.14788,0.33476,0.176246,4.88413,0.0548932,
2,1,0,1,0,30617.6,0.0567309,0.0563577,0.717377,16,0.0030084,10,4.04297e-05,-3.14425,0.326843,0.180515,5.06997,0.0563577,
2,1,0,1,0,30617.8,0.0582291,0.0579334,0.728796,16,0.00311902,10,4.22216e-05,-3.13739,0.297322,0.198438,5.64101,0.0579334,
2,1,0,1,0,30617.9,0.0597282,0.0593859,0.737685,16,0.00323123,10,4.38081e-05,-3.13213,0.30556,0.193088,5.56024,0.0593859,
2,1,0,1,0,30618.1,0.0612255,0.0608813,0.74354,16,0.00334461,10,4.52677e-05,-3.1287,0.369224,0.159795,4.63496,0.0608813,
2,1,0,1,0,30618.2,0.062723,0.062413,0.751786,16,0.00345923,10,4.69213e-05,-3.12391,0.316404,0.18647,5.48873,0.062413,
2,1,0,1,0,30618.4,0.0642218,0.0638908,0.759929,16,0.00357471,10,4.85525e-05,-3.11923,0.288166,0.204743,6.08646,0.0638908,
2,1,0,1,0,30618.5,0.06572,0.0654443,0.768763,16,0.00369163,10,5.03111e-05,-3.11421,0.304143,0.193988,5.81579,0.0654443,
2,1,0,1,0,30618.7,0.0672182,0.0669055,0.776881,16,0.00380994,10,5.19776e-05,-3.10965,0.362497,0.16276,4.91409,0.0669055,
2,1,0,1,0,30618.8,0.0687164,0.0684261,0.784302,16,0.00392923,10,5.36667e-05,-3.10552,0.433964,0.135956,4.15932,0.0684261,
2,1,0,1,0,30619,0.0702146,0.0698948,0.787938,16,0.00404916,10,5.50728e-05,-3.10351,0.407092,0.14493,4.4708,0.0698948,
2,1,0,1,0,30619.1,0.0717128,0.0714112,0.796318,16,0.00417016,10,5.6866e-05,-3.09891,0.387748,0.152161,4.72241,0.0714112,
2,1,0,1,0,30619.3,0.073211,0.0728756,0.801363,16,0.00429221,10,5.83998e-05,-3.09617,0.464266,0.127082,3.98131,0.0728756,
2,1,0,1,0,30619.4,0.0747092,0.0744036,0.807823,16,0.00441513,10,6.0105e-05,-3.09268,0.505949,0.116613,3.67973,0.0744036,
2,1,0,1,0,30619.6,0.0762078,0.0758823,0.810837,16,0.00453884,10,6.15282e-05,-3.09107,0.531769,0.11095,3.5204,0.0758823,
2,1,0,1,0,30619.7,0.0777053,0.0773863,0.818794,16,0.0046633,10,6.33635e-05,-3.08683,0.431541,0.136719,4.3671,0.0773863,
2,1,0,1,0,30619.9,0.0792029,0.0788937,0.826305,16,0.00478871,10,6.51903e-05,-3.08286,0.407875,0.144652,4.655,0.0788937,
2,1,0,1,0,30620,0.0807019,0.0803801,0.831963,16,0.00491518,10,6.68733e-05,-3.0799,0.527054,0.111943,3.6239,0.0803801,
2,1,0,1,0,30620.2,0.0822001,0.0818986,0.834059,16,0.00504235,10,6.83083e-05,-3.0788,0.56316,0.104766,3.41547,0.0818986,
2,1,0,1,0,30620.3,0.0836983,0.0833736,0.840941,16,0.00517016,10,7.01123e-05,-3.07523,0.495171,0.119151,3.91847,0.0833736,
2,1,0,1,0,30620.5,0.0851965,0.0848783,0.847546,16,0.00529906,10,7.19383e-05,-3.07184,0.40546,0.145514,4.82352,0.0848783,
2,1,0,1,0,30620.6,0.0866947,0.0863523,0.856211,16,0.00542904,10,7.39358e-05,-3.06742,0.500123,0.117971,3.9379,0.0863523,
2,1,0,1,0,30620.8,0.0881929,0.0879037,0.863476,16,0.00556023,10,7.59027e-05,-3.06375,0.381258,0.154751,5.21868,0.0879037,
2,1,0,1,0,30620.9,0.0896911,0.0893522,0.871691,16,0.00569229,10,7.78875e-05,-3.05964,0.326573,0.180664,6.15108,0.0893522,
2,1,0,1,0,30621.1,0.0911902,0.0908431,0.880795,16,0.00582594,10,8.00141e-05,-3.05513,0.267268,0.220753,7.59167,0.0908431,
2,1,0,1,0,30621.2,0.0926875,0.0923287,0.892918,16,0.00596123,10,8.2442e-05,-3.04919,0.270175,0.218377,7.60284,0.0923287,
2,1,0,1,0,30621.4,0.094185,0.093874,0.904853,16,0.0060982,10,8.49422e-05,-3.04342,0.285839,0.20641,7.28935,0.093874,
2,1,0,1,0,30621.5,0.0956838,0.0953795,0.912966,16,0.00623675,10,8.70782e-05,-3.03955,0.238778,0.247091,8.83926,0.0953795,
2,1,0,1,0,30621.7,0.097182,0.0968514,0.928351,16,0.00637719,10,8.99121e-05,-3.03229,0.213007,0.276986,10.045,0.0968514,
2,1,0,1,0,30621.8,0.0986802,0.098389,0.944508,16,0.00651993,10,9.29292e-05,-3.02479,0.224633,0.262651,9.67927,0.098389,
2,1,0,1,0,30622,0.100178,0.0998651,0.959048,16,0.00666489,10,9.57754e-05,-3.01816,0.218708,0.269767,10.0962,0.0998651,
2,1,0,1,0,30622.1,0.101677,0.101352,0.97272,16,0.00681201,10,9.85869e-05,-3.01201,0.20791,0.283777,10.8135,0.101352,
2,1,0,1,0,30622.3,0.103175,0.102863,0.993147,16,0.00696165,10,0.000102158,-3.00299,0.192262,0.306873,11.9032,0.102863,
2,1,0,1,0,30622.4,0.104673,0.104358,1.01462,16,0.00711418,10,0.000105883,-2.9937,0.192293,0.306823,12.1018,0.104358,
2,1,0,1,0,30622.6,0.106171,0.105876,1.03139,16,0.00726956,10,0.0001092,-2.98658,0.218778,0.26968,10.8095,0.1058765,
2,1,0,1,0,30622.7,0.10767,0.107285,1.04327,16,0.00742736,10,0.000111927,-2.9816,0.233925,0.252218,10.282,0.107285,
2,1,0,1,0,30622.9,0.109167,0.108866,1.05994,16,0.00758721,10,0.000115391,-2.97472,0.229854,0.256685,10.6364,0.1088656,
2,1,0,1,0,30623,0.110665,0.110314,1.07502,16,0.00774949,10,0.00011859,-2.96858,0.250581,0.235453,9.877,0.110314,
2,1,0,1,0,30623.2,0.112164,0.111856,1.09137,16,0.00791429,10,0.000122076,-2.96203,0.312302,0.18892,8.01853,0.111856,
2,1,0,1,0,30623.3,0.113662,0.113303,1.10372,16,0.00808097,10,0.000125054,-2.95714,0.321032,0.183783,7.89832,0.113303,
2,1,0,1,0,30623.5,0.11516,0.114815,1.11345,16,0.00824915,10,0.000127841,-2.95333,0.35731,0.165123,7.17836,0.114815,
2,1,0,1,0,30623.6,0.116658,0.116332,1.12579,16,0.00841927,10,0.000130966,-2.94854,0.324687,0.181713,7.97117,0.116332,
2,1,0,1,0,30623.8,0.118157,0.117851,1.13948,16,0.00859127,10,0.000134288,-2.94329,0.401742,0.146861,6.51536,0.117851,
2,1,0,1,0,30623.9,0.119655,0.119328,1.14613,16,0.00876464,10,0.000136765,-2.94077,0.509319,0.115841,5.17615,0.119328,
2,1,0,1,0,30624.1,0.121153,0.120841,1.15264,16,0.00893907,10,0.000139287,-2.93831,0.450991,0.130823,5.89252,0.120841,
2,1,0,1,0,30624.2,0.122652,0.122321,1.16107,16,0.00911477,10,0.000142024,-2.93514,0.39117,0.15083,6.83138,0.122321,
2,1,0,1,0,30624.4,0.124149,0.123824,1.17099,16,0.00929176,10,0.000144997,-2.93145,0.452338,0.130433,5.95234,0.123824,
2,1,0,1,0,30624.5,0.125647,0.125305,1.17693,16,0.00947006,10,0.000147475,-2.92925,0.570222,0.103468,4.74721,0.125305,
2,1,0,1,0,30624.7,0.127146,0.126834,1.18065,16,0.00964941,10,0.000149747,-2.92788,0.640344,0.092138,4.26021,0.126834,
2,1,0,1,0,30624.8,0.128644,0.128341,1.19038,16,0.00982951,10,0.000152775,-2.92431,0.616283,0.0957352,4.4483,0.128341,
2,1,0,1,0,30625,0.130142,0.129773,1.198,16,0.0100107,10,0.000155467,-2.92154,0.80209,0.0735578,3.43285,0.129773,
2,1,0,1,0,30625.1,0.13164,0.131306,1.19977,16,0.010193,10,0.000157537,-2.9209,2.65197,0.0222476,1.0387,0.131306,
2,1,0,1,0,30625.3,0.133139,0.13283,1.20163,16,0.0103754,10,0.000159612,-2.92023,-2.25702,-0.0261407,-1.22496,0.13283,
2,1,0,1,0,30625.4,0.134637,0.134302,1.19909,16,0.0105575,10,0.00016104,-2.92115,-0.939389,-0.0628068,-2.93345,0.134302,
2,1,0,1,0,30625.6,0.136135,0.135778,1.19447,16,0.0107392,10,0.000162183,-2.92282,-0.471174,-0.125219,-5.81214,0.135778,
2,1,0,1,0,30625.7,0.137633,0.137313,1.18327,16,0.0109196,10,0.000162479,-2.92692,-0.273925,-0.215387,-9.88295,0.137313,
2,1,0,1,0,30625.9,0.139132,0.138813,1.16648,16,0.0110978,10,0.000161924,-2.93312,-0.187302,-0.315,-14.2461,0.138813,
2,1,0,1,0,30626,0.140629,0.140286,1.13817,16,0.0112726,10,0.00015967,-2.94379,-0.149019,-0.395922,-17.5284,0.140286,
2,1,0,1,0,30626.2,0.142127,0.141831,1.11051,16,0.0114436,10,0.000157505,-2.95448,-0.124545,-0.473725,-20.4252,0.141831,
2,1,0,1,0,30626.3,0.143626,0.143345,1.07627,16,0.01161,10,0.000154277,-2.96808,-0.102125,-0.577721,-24.1571,0.143345,
2,1,0,1,0,30626.5,0.145124,0.144764,1.03778,16,0.0117706,10,0.000150233,-2.98389,-0.0846907,-0.696653,-28.1195,0.144764,
2,1,0,1,0,30626.6,0.146622,0.146285,0.990776,16,0.0119248,10,0.000144936,-3.00402,-0.0771693,-0.764553,-29.5675,0.146285,
2,1,0,1,0,30626.8,0.14812,0.147804,0.948943,16,0.0120725,10,0.000140257,-3.02276,-0.0743349,-0.793705,-29.36,0.147804,
2,1,0,1,0,30626.9,0.149619,0.149331,0.905937,16,0.0122136,10,0.000135284,-3.0429,-0.0711713,-0.828986,-29.2881,0.149331,
2,1,0,1,0,30627.1,0.151117,0.150799,0.862554,16,0.0123483,10,0.000130072,-3.06421,-0.0718763,-0.820855,-27.6531,0.150799,
2,1,0,1,0,30627.2,0.152615,0.152283,0.820037,16,0.0124766,10,0.000124878,-3.08617,-0.0758225,-0.778133,-25.0615,0.152283,
2,1,0,1,0,30627.4,0.154114,0.153759,0.786448,16,0.0125992,10,0.000120923,-3.10433,-0.0793918,-0.74315,-22.8965,0.153759,
2,1,0,1,0,30627.5,0.155612,0.155304,0.754609,16,0.0127169,10,0.000117194,-3.12228,-0.0890183,-0.662785,-19.5903,0.155304,
2,1,0,1,0,30627.7,0.157109,0.156795,0.726148,16,0.0128301,10,0.000113856,-3.13898,-0.0936409,-0.630066,-17.9117,0.156795,
2,1,0,1,0,30627.8,0.158608,0.158292,0.702468,16,0.0129394,10,0.000111195,-3.15337,-0.111567,-0.528831,-14.5548,0.158292,
2,1,0,1,0,30628,0.160106,0.159784,0.682392,16,0.0130452,10,0.000109036,-3.16597,-0.128763,-0.458206,-12.2443,0.159784,
2,1,0,1,0,30628.1,0.161604,0.161272,0.665069,16,0.0131483,10,0.000107257,-3.17713,-0.139689,-0.422366,-10.9677,0.161272,
2,1,0,1,0,30628.3,0.163102,0.16278,0.650016,16,0.013249,10,0.00010581,-3.18708,-0.151725,-0.388861,-9.85697,0.16278,
2,1,0,1,0,30628.4,0.164601,0.164264,0.637207,16,0.0133476,10,0.00010467,-3.19572,-0.167027,-0.353237,-8.78523,0.164264,
2,1,0,1,0,30628.6,0.166099,0.165804,0.623574,16,0.0134441,10,0.000103391,-3.20511,-0.190548,-0.309634,-7.56136,0.165804,
2,1,0,1,0,30628.7,0.167597,0.167281,0.614322,16,0.0135391,10,0.000102765,-3.2116,-0.250036,-0.235966,-5.6588,0.167281,
2,1,0,1,0,30628.9,0.169095,0.168761,0.604997,16,0.0136328,10,0.0001021,-3.21825,-0.264377,-0.223166,-5.29061,0.168761,
2,1,0,1,0,30629,0.170594,0.170262,0.598283,16,0.0137253,10,0.000101865,-3.22309,-0.252788,-0.233397,-5.45664,0.170262,
2,1,0,1,0,30629.2,0.172091,0.171798,0.587929,16,0.0138165,10,0.000101005,-3.23067,-0.317491,-0.185832,-4.29495,0.171798,
2,1,0,1,0,30629.3,0.173589,0.173229,0.584156,16,0.0139067,10,0.000101193,-3.23347,-0.423191,-0.139417,-3.18176,0.173229,
2,1,0,1,0,30629.5,0.175088,0.174775,0.579408,16,0.0139961,10,0.000101266,-3.23702,-0.423568,-0.139293,-3.15462,0.174775,
2,1,0,1,0,30629.6,0.176586,0.176269,0.574234,16,0.0140847,10,0.00010122,-3.24091,-0.405679,-0.145435,-3.25713,0.176269,
2,1,0,1,0,30629.8,0.178084,0.177761,0.568557,16,0.0141726,10,0.000101068,-3.24523,-0.476493,-0.123821,-2.75197,0.177761,
2,1,0,1,0,30629.9,0.179582,0.179286,0.565727,16,0.0142597,10,0.000101427,-3.24739,-0.539863,-0.109287,-2.41932,0.179286,
2,1,0,1,0,30630.1,0.181081,0.180758,0.562621,16,0.0143464,10,0.000101698,-3.24978,-0.625208,-0.0943685,-2.0733,0.180758,
2,1,0,1,0,30630.2,0.182579,0.182258,0.559397,16,0.0144327,10,0.000101954,-3.25228,-0.541686,-0.108919,-2.38074,0.182258,
2,1,0,1,0,30630.4,0.184077,0.183798,0.55581,16,0.0145184,10,0.000102157,-3.25507,-0.522932,-0.112825,-2.44884,0.183798,
2,1,0,1,0,30630.5,0.185576,0.185288,0.553617,16,0.0146037,10,0.000102578,-3.25679,-0.976559,-0.0604162,-1.30609,0.185288,
2,1,0,1,0,30630.7,0.187074,0.186771,0.552508,16,0.0146885,10,0.000103192,-3.25766,-0.946238,-0.0623522,-1.33738,0.186771,
2,1,0,1,0,30630.8,0.188571,0.188269,0.549726,16,0.0147731,10,0.000103497,-3.25985,-0.882201,-0.0668782,-1.43306,0.188269,
2,1,0,1,0,30631,0.19007,0.189737,0.546417,16,0.0148574,10,0.000103675,-3.26248,-0.961131,-0.061386,-1.3077,0.189737,
2,1,0,1,0,30631.1,0.191568,0.191257,0.543932,16,0.0149412,10,0.000104031,-3.26446,-1.14324,-0.0516079,-1.09767,0.191257,
2,1,0,1,0,30631.3,0.193066,0.192757,0.541535,16,0.0150247,10,0.000104384,-3.26637,-1.44281,-0.0408923,-0.863513,0.192757,
2,1,0,1,0,30631.4,0.194564,0.19423,0.541573,16,0.0151081,10,0.000105189,-3.26634,-1.03083,-0.0572353,-1.20852,0.1942296,
2,1,0,1,0,30631.6,0.196063,0.195785,0.539041,16,0.0151912,10,0.000105536,-3.26838,-0.72483,-0.0813984,-1.71049,0.195785,
2,1,0,1,0,30631.7,0.197561,0.197246,0.537077,16,0.0152739,10,0.000105936,-3.26996,-1.17017,-0.0504202,-1.05964,0.197246,
2,1,0,1,0,30631.9,0.199059,0.198724,0.537453,16,0.0153564,10,0.000106805,-3.26966,-1.40469,-0.0420023,-0.875089,0.198724,
2,1,0,1,0,30632,0.200557,0.200276,0.535629,16,0.0154387,10,0.000107274,-3.27114,-0.954004,-0.0618446,-1.2898,0.200276,
2,1,0,1,0,30632.2,0.202056,0.201745,0.533065,16,0.0155209,10,0.000107543,-3.27322,-0.872059,-0.067656,-1.40409,0.201745,
2,1,0,1,0,30632.3,0.203553,0.203258,0.531622,16,0.0156028,10,0.000108057,-3.2744,-1.53417,-0.0384572,-0.799429,0.203258,
2,1,0,1,0,30632.5,0.205051,0.204697,0.528546,16,0.0156843,10,0.000108192,-3.27692,1.66659,0.0354016,0.735394,0.2046971,
2,1,0,1,0,30632.6,0.20655,0.206237,0.529132,16,0.0157658,10,0.000109126,-3.27644,-1.86521,-0.0316319,-0.654025,0.206237,
2,1,0,1,0,30632.8,0.208048,0.207716,0.527804,16,0.0158474,10,0.000109633,-3.27753,-1.09403,-0.0539291,-1.10784,0.207716,
2,1,0,1,0,30632.9,0.209546,0.209247,0.52662,16,0.0159286,10,0.000110194,-3.2785,-0.777514,-0.0758828,-1.5624,0.209247,
2,1,0,1,0,30633.1,0.211044,0.210726,0.525242,16,0.0160094,10,0.000110682,-3.27964,-1.08197,-0.0545299,-1.11548,0.210726,
2,1,0,1,0,30633.2,0.212543,0.212225,0.52478,16,0.0160903,10,0.000111371,-3.28002,-2.28665,-0.0258019,-0.52733,0.212225,
2,1,0,1,0,30633.4,0.214041,0.213717,0.524597,16,0.0161709,10,0.000112115,-3.28017,-1.33264,-0.0442729,-0.904542,0.213717,
2,1,0,1,0,30633.5,0.215539,0.215237,0.522259,16,0.0162514,10,0.00011241,-3.28211,-1.43311,-0.0411693,-0.839169,0.2152373,
2,1,0,1,0,30633.7,0.217038,0.216721,0.521112,16,0.0163317,10,0.000112936,-3.28307,-1.98277,-0.0297563,-0.606298,0.216721,
2,1,0,1,0,30633.8,0.218535,0.218218,0.520851,16,0.0164119,10,0.000113659,-3.28329,-4.07863,-0.0144656,-0.293303,0.218218,
2,1,0,1,0,30634,0.220033,0.2197,0.519131,16,0.016492,10,0.000114053,-3.28472,-6.0067,-0.00982236,-0.19968,0.2197005,
2,1,0,1,0,30634.1,0.221532,0.221233,0.518372,16,0.016572,10,0.000114681,-3.28536,-1.39501,-0.0422936,-0.856185,0.221233,
2,1,0,1,0,30634.3,0.22303,0.222689,0.515917,16,0.0166518,10,0.000114889,-3.28742,-2.23556,-0.0263916,-0.532294,0.222689,
2,1,0,1,0,30634.4,0.224528,0.224203,0.517566,16,0.0167314,10,0.00011604,-3.28603,-2.07513,-0.0284319,-0.572502,0.224203,
2,1,0,1,0,30634.6,0.226026,0.225728,0.516517,16,0.016811,10,0.000116592,-3.28692,-1.75399,-0.0336375,-0.677865,0.225728,
2,1,0,1,0,30634.7,0.227525,0.227189,0.513658,16,0.0168903,10,0.000116698,-3.28933,-0.703908,-0.0838177,-1.68103,0.227189,
2,1,0,1,0,30634.9,0.229023,0.228709,0.513378,16,0.0169696,10,0.000117414,-3.28956,-1.48818,-0.0396457,-0.795539,0.2287087,
2,1,0,1,0,30635,0.230521,0.230171,0.512433,16,0.0170486,10,0.000117947,-3.29036,-1.40536,-0.0419822,-0.841553,0.230171,
2,1,0,1,0,30635.2,0.232019,0.231702,0.513126,16,0.0171275,10,0.000118892,-3.28978,-2.48931,-0.0237013,-0.473305,0.231702,
2,1,0,1,0,30635.3,0.233518,0.233234,0.512522,16,0.0172065,10,0.000119537,-3.29029,-1.14897,-0.0513503,-1.02341,0.233234,
2,1,0,1,0,30635.5,0.235015,0.23471,0.511655,16,0.0172852,10,0.000120091,-3.29102,-1.20879,-0.0488091,-0.973087,0.23471,
2,1,0,1,0,30635.6,0.236513,0.236193,0.510911,16,0.0173637,10,0.000120674,-3.29165,-2.7194,-0.021696,-0.431797,0.236193,
2,1,0,1,0,30635.8,0.238012,0.237729,0.509156,16,0.0174423,10,0.000121041,-3.29315,-2.52535,-0.0233631,-0.463696,0.237729,
2,1,0,1,0,30635.9,0.23951,0.239249,0.508735,16,0.0175207,10,0.000121714,-3.29351,-1.47496,-0.0400011,-0.793813,0.239249,
2,1,0,1,0,30636.1,0.241008,0.240703,0.505829,16,0.0175989,10,0.000121754,-3.296,-2.1173,-0.0278657,-0.552841,0.240703,
2,1,0,1,0,30636.2,0.242506,0.24222,0.504539,16,0.0176768,10,0.00012221,-3.29711,-7.23906,-0.00815023,-0.160929,0.2422204,
2,1,0,1,0,30636.4,0.244005,0.243708,0.505773,16,0.0177548,10,0.000123261,-3.29604,13.6505,0.00432219,0.0853304,0.243708,
2,1,0,1,0,30636.5,0.245503,0.245217,0.507015,16,0.0178328,10,0.000124329,-3.29498,-3.56187,-0.0165643,-0.326546,0.245217,
2,1,0,1,0,30636.7,0.247001,0.246697,0.505687,16,0.0179106,10,0.000124752,-3.29612,-1.95449,-0.0301869,-0.593171,0.246697,
2,1,0,1,0,30636.8,0.2485,0.248186,0.501248,16,0.0179883,10,0.000124403,-3.29995,-1.32921,-0.0443872,-0.870623,0.248186,
2,1,0,1,0,30637,0.249997,0.249685,0.502902,16,0.0180657,10,0.000125567,-3.29852,-1.39408,-0.0423217,-0.830724,0.249685,
2,1,0,1,0,30637.1,0.251495,0.251175,0.500407,16,0.0181431,10,0.00012569,-3.30068,14.1955,0.00415624,0.0812449,0.251175,
2,1,0,1,0,30637.3,0.252994,0.25267,0.499969,16,0.0182205,10,0.000126327,-3.30106,-1.21985,-0.0483667,-0.946342,0.25267,
2,1,0,1,0,30637.4,0.254492,0.254156,0.500125,16,0.0182977,10,0.00012711,-3.30092,-2.52651,-0.0233524,-0.456088,0.254156,
2,1,0,1,0,30637.6,0.25599,0.255632,0.499866,16,0.0183747,10,0.000127782,-3.30115,-2.77583,-0.0212549,-0.414764,0.255632,
2,1,0,1,0,30637.7,0.257488,0.257229,0.498868,16,0.0184517,10,0.000128323,-3.30201,18.7978,0.00313867,0.0609063,0.257229,
2,1,0,1,0,30637.9,0.258987,0.258687,0.499745,16,0.0185287,10,0.000129278,-3.30125,-3.37603,-0.0174761,-0.33992,0.258687,
2,1,0,1,0,30638,0.260485,0.260209,0.496733,16,0.0186054,10,0.000129254,-3.30388,-1.41596,-0.0416679,-0.808231,0.260209,
2,1,0,1,0,30638.2,0.261983,0.261661,0.496597,16,0.018682,10,0.00012994,-3.304,-1.42899,-0.0412878,-0.802064,0.261661,
2,1,0,1,0,30638.3,0.263481,0.263201,0.496933,16,0.0187585,10,0.000130793,-3.3037,3.65959,0.016122,0.31104,0.263201,
2,1,0,1,0,30638.5,0.26498,0.264659,0.496367,16,0.018835,10,0.000131368,-3.3042,-2.59253,-0.0227577,-0.440904,0.264659,
2,1,0,1,0,30638.6,0.266477,0.26617,0.492891,16,0.0189114,10,0.000131193,-3.30725,-1.47149,-0.0400955,-0.773412,0.26617,
2,1,0,1,0,30638.8,0.267976,0.267634,0.492163,16,0.0189875,10,0.00013172,-3.30789,-3.00288,-0.0196478,-0.379576,0.267634,
2,1,0,1,0,30638.9,0.269474,0.269175,0.491824,16,0.0190635,10,0.000132387,-3.30819,-3.39206,-0.0173936,-0.333876,0.269175,
2,1,0,1,0,30639.1,0.270972,0.27067,0.494557,16,0.0191395,10,0.000133862,-3.30578,-5.09838,-0.0115723,-0.222428,0.27067,
2,1,0,1,0,30639.2,0.27247,0.272156,0.491748,16,0.0192154,10,0.000133832,-3.30826,-1.75706,-0.0335788,-0.642505,0.272156,
2,1,0,1,0,30639.4,0.273968,0.273667,0.488547,16,0.0192911,10,0.000133699,-3.31109,-1.17337,-0.0502824,-0.96278,0.273667,
2,1,0,1,0,30639.5,0.275467,0.275173,0.488824,16,0.0193666,10,0.000134511,-3.31085,-1.70045,-0.0346968,-0.662769,0.275173,
2,1,0,1,0,30639.7,0.276965,0.276684,0.487973,16,0.0194419,10,0.000135014,-3.3116,-1.25912,-0.0468581,-0.895076,0.276684,
2,1,0,1,0,30639.8,0.278463,0.278165,0.487369,16,0.0195172,10,0.000135569,-3.31214,-1.60063,-0.0368606,-0.700169,0.278165,
2,1,0,1,0,30640,0.279962,0.279701,0.486262,16,0.0195924,10,0.000136008,-3.31313,-2.3188,-0.0254442,-0.483294,0.279701,
2,1,0,1,0,30640.1,0.281459,0.281114,0.484753,16,0.0196672,10,0.000136271,-3.31448,-1.98668,-0.0296977,-0.562924,0.281114,
2,1,0,1,0,30640.3,0.282957,0.282662,0.48685,16,0.019742,10,0.000137614,-3.3126,-3.23522,-0.0182368,-0.344197,0.282662,
2,1,0,1,0,30640.4,0.284456,0.284153,0.484357,16,0.0198169,10,0.000137631,-3.31483,-4.0263,-0.0146537,-0.27673,0.284153,
2,1,0,1,0,30640.6,0.285954,0.285626,0.483297,16,0.0198915,10,0.000138042,-3.31579,-2.6331,-0.0224071,-0.422298,0.285626,
2,1,0,1,0,30640.7,0.287452,0.2871,0.481112,16,0.0199659,10,0.000138127,-3.31775,-1.3581,-0.0434432,-0.818603,0.2871,
2,1,0,1,0,30640.9,0.28895,0.288651,0.480891,16,0.0200401,10,0.00013881,-3.31795,46.4725,0.00126957,0.0237822,0.288651,
2,1,0,1,0,30641,0.290449,0.290139,0.480667,16,0.0201144,10,0.00013946,-3.31816,-3.99754,-0.0147591,-0.276865,0.290139,
2,1,0,1,0,30641.2,0.291947,0.291675,0.479486,16,0.0201884,10,0.000139854,-3.31922,-1.45436,-0.0405677,-0.760643,0.291675,
2,1,0,1,0,30641.3,0.293445,0.293139,0.477307,16,0.0202623,10,0.000139917,-3.3212,-3.17919,-0.0185582,-0.347029,0.293139,
2,1,0,1,0,30641.5,0.294943,0.294645,0.478766,16,0.020336,10,0.000141066,-3.31988,-2.43877,-0.0241925,-0.451469,0.2946448,
2,1,0,1,0,30641.6,0.296442,0.296154,0.478674,16,0.0204098,10,0.000141761,-3.31996,-3.04733,-0.0193612,-0.360388,0.296154,
2,1,0,1,0,30641.8,0.297939,0.297639,0.477165,16,0.0204835,10,0.000142023,-3.32133,-2.44304,-0.0241502,-0.447989,0.297639,
2,1,0,1,0,30641.9,0.299437,0.299114,0.473222,16,0.0205569,10,0.000141547,-3.32494,-0.00254321,-23.1991,-213.462,0.299114,
2,1,0,1,0,30642,0.299738,0.299431,0.245675,16,0.0205923,10,7.35626e-05,-3.60964,0.000715656,82.4418,405.99,0.299431,
2,1,0,1,0,30642.1,0.29824,0.29795,0.0085407,16,0.0206025,10,2.5447e-06,-5.06851,0.00381338,15.4718,132.64,0.29795,
2,0,0,1,0,30642.3,0.296741,0.29645,-0.03504,16,0.020598,10,-1.03876e-05,-4.45544,-0.0155203,-3.80148,25.0817,0.2964496,
2,0,0,1,0,30642.4,0.295243,0.294918,-0.057572,16,0.0205888,10,-1.6979e-05,-4.23979,-0.00745111,-7.91828,14.1272,0.294918,
2,0,0,1,0,30642.6,0.293745,0.29345,-0.075693,16,0.0205765,10,-2.22121e-05,-4.12094,-0.0158222,-3.72894,10.4476,0.29345,
2,0,0,1,0,30642.7,0.292246,0.291935,-0.0907163,16,0.0205619,10,-2.64833e-05,-4.04231,-0.0222834,-2.64771,8.95103,0.291935,
2,0,0,1,0,30642.9,0.290748,0.290413,-0.104014,16,0.0205452,10,-3.0207e-05,-3.98291,-0.028889,-2.0423,7.99051,0.290413,
2,0,0,1,0,30643,0.28925,0.288936,-0.113837,16,0.0205267,10,-3.28916e-05,-3.94372,-0.0379696,-1.55387,6.796,0.288936,
2,0,0,1,0,30643.2,0.287752,0.287434,-0.123987,16,0.0205068,10,-3.56382e-05,-3.90662,-0.0488143,-1.20866,5.80884,0.287434,
2,0,0,1,0,30643.3,0.286253,0.285926,-0.131743,16,0.0204856,10,-3.76688e-05,-3.88027,-0.0517472,-1.14016,5.84377,0.285926,
2,0,0,1,0,30643.5,0.284755,0.284496,-0.140505,16,0.0204631,10,-3.99732e-05,-3.85231,-0.052739,-1.11872,6.05541,0.284496,
2,0,0,1,0,30643.6,0.283258,0.28295,-0.148328,16,0.0204392,10,-4.19695e-05,-3.82878,-0.0673014,-0.876653,5.01534,0.28295,
2,0,0,1,0,30643.8,0.281759,0.281384,-0.155362,16,0.0204144,10,-4.37164e-05,-3.80866,-0.0837003,-0.704896,4.24322,0.281384,
2,0,0,1,0,30643.9,0.280261,0.279951,-0.159093,16,0.0203885,10,-4.45381e-05,-3.79835,-0.0845074,-0.698164,4.39736,0.279951,
2,0,0,1,0,30644.1,0.278763,0.278461,-0.16702,16,0.0203618,10,-4.65084e-05,-3.77723,-0.0978615,-0.602893,3.93578,0.278461,
2,0,0,1,0,30644.2,0.277264,0.276979,-0.17295,16,0.0203341,10,-4.79036e-05,-3.76208,-0.102929,-0.573213,3.85637,0.276979,
2,0,0,1,0,30644.4,0.275766,0.275464,-0.179078,16,0.0203054,10,-4.93295e-05,-3.74696,-0.132152,-0.446456,3.09259,0.275464,
2,0,0,1,0,30644.5,0.274268,0.273917,-0.184228,16,0.0202759,10,-5.04631e-05,-3.73464,-0.119208,-0.494934,3.55613,0.273917,
2,0,0,1,0,30644.7,0.27277,0.272432,-0.189646,16,0.0202457,10,-5.16657e-05,-3.72206,-0.137155,-0.43017,3.19623,0.272432,
2,0,0,1,0,30644.8,0.271272,0.270936,-0.196086,16,0.0202146,10,-5.31267e-05,-3.70755,-0.122729,-0.480735,3.67361,0.270936,
2,0,0,1,0,30645,0.269773,0.269468,-0.201421,16,0.0201827,10,-5.42765e-05,-3.6959,-0.138184,-0.426968,3.32135,0.269468,
2,0,0,1,0,30645.1,0.268275,0.267983,-0.205506,16,0.02015,10,-5.50721e-05,-3.68718,-0.149595,-0.394399,3.15653,0.267983,
2,0,0,1,0,30645.3,0.266778,0.266473,-0.2099,16,0.0201168,10,-5.59326e-05,-3.67799,-0.127254,-0.46364,3.78085,0.2664727,
2,0,0,1,0,30645.4,0.265279,0.264974,-0.214884,16,0.0200827,10,-5.69385e-05,-3.6678,-0.132921,-0.443872,3.70625,0.264974,
2,0,0,1,0,30645.6,0.263781,0.263447,-0.218238,16,0.020048,10,-5.7494e-05,-3.66107,-0.153765,-0.383702,3.28704,0.263447,
2,0,0,1,0,30645.7,0.262283,0.261959,-0.222593,16,0.0200126,10,-5.83102e-05,-3.65249,-0.195196,-0.30226,2.6384,0.261959,
2,0,0,1,0,30645.9,0.260784,0.260476,-0.224887,16,0.0199767,10,-5.85777e-05,-3.64804,-0.212475,-0.27768,2.46024,0.260476,
2,0,0,1,0,30646,0.259286,0.259,-0.230732,16,0.0199401,10,-5.97596e-05,-3.63689,-0.191336,-0.308357,2.79743,0.259,
2,0,0,1,0,30646.2,0.257788,0.257489,-0.237148,16,0.0199029,10,-6.1063e-05,-3.62498,-0.193767,-0.30449,2.80072,0.257489,
2,0,0,1,0,30646.3,0.25629,0.25597,-0.24001,16,0.019865,10,-6.14353e-05,-3.61977,-0.250368,-0.235653,2.19822,0.25597,
2,0,0,1,0,30646.5,0.254791,0.254442,-0.241221,16,0.0198267,10,-6.13766e-05,-3.61759,-0.229214,-0.257401,2.43562,0.254442,
2,0,0,1,0,30646.6,0.253293,0.253033,-0.248054,16,0.0197879,10,-6.27659e-05,-3.60545,-0.202532,-0.291311,2.80642,0.253033,
2,0,0,1,0,30646.8,0.251796,0.251507,-0.251161,16,0.0197484,10,-6.31686e-05,-3.60005,-0.222169,-0.265563,2.59723,0.251507,
2,0,0,1,0,30646.9,0.250297,0.250012,-0.252925,16,0.0197084,10,-6.32344e-05,-3.59701,-0.365334,-0.161496,1.59966,0.250012,
2,0,0,1,0,30647.1,0.248799,0.248466,-0.256944,16,0.0196679,10,-6.3842e-05,-3.59016,-0.257052,-0.229526,2.30411,0.248466,
2,0,0,1,0,30647.2,0.247301,0.246969,-0.260186,16,0.019627,10,-6.4258e-05,-3.58472,-0.216163,-0.272943,2.79168,0.2469689,
2,0,0,1,0,30647.4,0.245802,0.24546,-0.26405,16,0.0195855,10,-6.48136e-05,-3.57831,-0.253048,-0.233158,2.39072,0.24546,
2,0,0,1,0,30647.5,0.244304,0.243999,-0.269138,16,0.0195433,10,-6.56693e-05,-3.57002,-0.301007,-0.196009,2.04247,0.243999,
2,0,0,1,0,30647.7,0.242806,0.242525,-0.271977,16,0.0195008,10,-6.59611e-05,-3.56547,-0.387078,-0.152424,1.61075,0.242525,
2,0,0,1,0,30647.8,0.241308,0.241,-0.273022,16,0.019458,10,-6.57983e-05,-3.5638,-0.314718,-0.18747,2.00503,0.241,
2,0,0,1,0,30648,0.23981,0.239486,-0.277012,16,0.0194146,10,-6.63404e-05,-3.5575,-0.236192,-0.249797,2.69045,0.239486,
2,0,0,1,0,30648.1,0.238311,0.237991,-0.27994,16,0.0193706,10,-6.66232e-05,-3.55293,-0.298622,-0.197574,2.15775,0.237991,
2,0,0,1,0,30648.3,0.236814,0.23647,-0.283212,16,0.0193262,10,-6.69713e-05,-3.54789,-0.414625,-0.142297,1.57339,0.23647,
2,0,0,1,0,30648.4,0.235316,0.234994,-0.283642,16,0.0192815,10,-6.66541e-05,-3.54723,-0.297207,-0.198515,2.21578,0.234994,
2,0,0,1,0,30648.6,0.233817,0.233481,-0.289035,16,0.0192363,10,-6.7484e-05,-3.53905,-0.259877,-0.227031,2.55634,0.233481,
2,0,0,1,0,30648.7,0.232319,0.231994,-0.2921,16,0.0191906,10,-6.77654e-05,-3.53447,-0.340363,-0.173344,1.97279,0.231994,
2,0,0,1,0,30648.9,0.230821,0.230504,-0.294691,16,0.0191443,10,-6.79275e-05,-3.53063,-0.634801,-0.0929425,1.06749,0.230504,
2,0,0,1,0,30649,0.229322,0.229024,-0.296393,16,0.0190976,10,-6.7881e-05,-3.52813,-0.429984,-0.137214,1.59324,0.229024,
2,0,0,1,0,30649.2,0.227824,0.227481,-0.300112,16,0.0190507,10,-6.82698e-05,-3.52272,-0.483895,-0.121927,1.4374,0.227481,
2,0,0,1,0,30649.3,0.226326,0.226028,-0.30371,16,0.0190032,10,-6.86471e-05,-3.51754,-0.337607,-0.174759,2.07052,0.226028,
2,0,0,1,0,30649.5,0.224828,0.224525,-0.307842,16,0.0189552,10,-6.91183e-05,-3.51167,-0.458699,-0.128625,1.5344,0.224525,
2,0,0,1,0,30649.6,0.223329,0.223021,-0.310311,16,0.0189067,10,-6.92058e-05,-3.5082,-0.379437,-0.155493,1.87905,0.223021,
2,0,0,1,0,30649.8,0.221831,0.221566,-0.313179,16,0.0188579,10,-6.93898e-05,-3.50421,-0.300933,-0.196057,2.39554,0.2215663,
2,0,0,1,0,30649.9,0.220334,0.219998,-0.315812,16,0.0188086,10,-6.94779e-05,-3.50057,-0.270597,-0.218036,2.6824,0.219998,
2,0,0,1,0,30650.1,0.218835,0.218551,-0.319764,16,0.0187586,10,-6.98849e-05,-3.49517,-0.298834,-0.197434,2.45584,0.218551,
2,0,0,1,0,30650.2,0.217337,0.217025,-0.322044,16,0.0187082,10,-6.98915e-05,-3.49209,-0.579649,-0.101786,1.28003,0.217025,
2,0,0,1,0,30650.4,0.215839,0.215492,-0.324237,16,0.0186576,10,-6.98705e-05,-3.48914,-0.383884,-0.153692,1.94933,0.2154918,
2,0,0,1,0,30650.5,0.21434,0.214026,-0.327211,16,0.0186065,10,-7.00318e-05,-3.48517,-0.262598,-0.224678,2.86771,0.214026,
2,0,0,1,0,30650.7,0.212842,0.212533,-0.329835,16,0.0185547,10,-7.01009e-05,-3.4817,-0.300886,-0.196087,2.53277,0.212533,
2,0,0,1,0,30650.8,0.211344,0.211037,-0.334087,16,0.0185027,10,-7.05047e-05,-3.47614,-0.432516,-0.136411,1.77947,0.211037,
2,0,0,1,0,30651,0.209846,0.20956,-0.333631,16,0.0184501,10,-6.99156e-05,-3.47673,-0.332493,-0.177447,2.33708,0.20956,
2,0,0,1,0,30651.1,0.208348,0.208009,-0.340568,16,0.0183972,10,-7.0841e-05,-3.4678,-0.333036,-0.177158,2.3593,0.2080085,
2,0,0,1,0,30651.3,0.206849,0.206536,-0.34661,16,0.0183436,10,-7.15876e-05,-3.46016,-0.369541,-0.159657,2.13804,0.206536,
2,0,0,1,0,30651.4,0.205352,0.205073,-0.346487,16,0.0182894,10,-7.10551e-05,-3.46031,-0.408189,-0.144541,1.9513,0.205073,
2,0,0,1,0,30651.6,0.203854,0.203511,-0.34984,16,0.018235,10,-7.11963e-05,-3.45613,-0.444269,-0.132802,1.81647,0.203511,
2,0,0,1,0,30651.7,0.202355,0.202006,-0.351631,16,0.0181802,10,-7.10314e-05,-3.45391,-0.352119,-0.167557,2.30653,0.202006,
2,0,0,1,0,30651.9,0.200857,0.200516,-0.355918,16,0.0181248,10,-7.13672e-05,-3.44865,-0.328993,-0.179335,2.491,0.200516,
2,0,0,1,0,30652,0.199359,0.198992,-0.359678,16,0.0180689,10,-7.15731e-05,-3.44409,-0.527582,-0.111831,1.56471,0.198992,
2,0,0,1,0,30652.2,0.19786,0.197533,-0.363386,16,0.0180126,10,-7.17805e-05,-3.43963,-0.434476,-0.135796,1.92191,0.197533,
2,0,0,1,0,30652.3,0.196362,0.196023,-0.36578,16,0.0179559,10,-7.17011e-05,-3.43678,-0.407042,-0.144948,2.06338,0.196023,
2,0,0,1,0,30652.5,0.194864,0.194564,-0.370394,16,0.0178986,10,-7.20651e-05,-3.43134,-0.370762,-0.159132,2.29184,0.194564,
2,0,0,1,0,30652.6,0.193366,0.193057,-0.372961,16,0.0178407,10,-7.20027e-05,-3.42834,-0.30394,-0.194117,2.82043,0.193057,
2,0,0,1,0,30652.8,0.191867,0.191519,-0.377613,16,0.0177823,10,-7.23202e-05,-3.42295,-0.420057,-0.140457,2.06641,0.1915191,
2,0,0,1,0,30652.9,0.190369,0.190052,-0.377525,16,0.0177236,10,-7.17494e-05,-3.42305,-0.319123,-0.184881,2.73907,0.1900523,
2,0,0,1,0,30653.1,0.188872,0.188548,-0.383168,16,0.0176644,10,-7.22457e-05,-3.41661,-0.3062,-0.192685,2.87743,0.188548,
2,0,0,1,0,30653.2,0.187373,0.187087,-0.387054,16,0.0176044,10,-7.24127e-05,-3.41223,-0.279978,-0.210731,3.1684,0.187087,
2,0,0,1,0,30653.4,0.185875,0.185573,-0.391398,16,0.0175438,10,-7.2633e-05,-3.40738,-0.397529,-0.148417,2.26128,0.185573,
2,0,0,1,0,30653.5,0.184377,0.184053,-0.393526,16,0.0174828,10,-7.24297e-05,-3.40503,-0.408292,-0.144504,2.2264,0.184053,
2,0,0,1,0,30653.7,0.182878,0.182576,-0.39842,16,0.0174212,10,-7.27419e-05,-3.39966,-0.271662,-0.217181,3.39034,0.182576,
2,0,0,1,0,30653.8,0.18138,0.181074,-0.403462,16,0.0173589,10,-7.30565e-05,-3.3942,-0.338822,-0.174133,2.74291,0.181074,
2,0,0,1,0,30654,0.179882,0.179561,-0.408847,16,0.0172958,10,-7.3413e-05,-3.38844,-0.428469,-0.1377,2.18432,0.179561,
2,0,0,1,0,30654.1,0.178384,0.178042,-0.41211,16,0.0172321,10,-7.3373e-05,-3.38499,-0.376697,-0.156625,2.52513,0.178042,
2,0,0,1,0,30654.3,0.176886,0.176542,-0.415564,16,0.0171681,10,-7.33645e-05,-3.38136,-0.338915,-0.174085,2.83246,0.176542,
2,0,0,1,0,30654.4,0.175387,0.175055,-0.421757,16,0.0171031,10,-7.38307e-05,-3.37494,-0.248741,-0.237194,3.89327,0.175055,
2,0,0,1,0,30654.6,0.17389,0.173577,-0.428586,16,0.0170373,10,-7.43929e-05,-3.36796,-0.278491,-0.211856,3.52826,0.1735774,
2,0,0,1,0,30654.7,0.172392,0.172076,-0.432639,16,0.0169707,10,-7.44468e-05,-3.36387,-0.253942,-0.232336,3.91084,0.172076,
2,0,0,1,0,30654.9,0.170893,0.170614,-0.437059,16,0.0169034,10,-7.45686e-05,-3.35946,-0.244866,-0.240949,4.11698,0.170614,
2,0,0,1,0,30655,0.169395,0.169079,-0.443911,16,0.016835,10,-7.5056e-05,-3.3527,-0.205718,-0.286801,4.97188,0.169079,
2,0,0,1,0,30655.2,0.167897,0.167606,-0.451143,16,0.0167656,10,-7.56143e-05,-3.34569,-0.233428,-0.252755,4.45394,0.167606,
2,0,0,1,0,30655.3,0.166398,0.166069,-0.455822,16,0.0166952,10,-7.56981e-05,-3.3412,-0.240038,-0.245795,4.40215,0.166069,
2,0,0,1,0,30655.5,0.1649,0.164555,-0.462521,16,0.0166239,10,-7.61102e-05,-3.33487,-0.215052,-0.274352,4.99144,0.164555,
2,0,0,1,0,30655.6,0.163402,0.163066,-0.473958,16,0.0165513,10,-7.72866e-05,-3.32426,-0.180257,-0.327311,6.05954,0.163066,
2,0,0,1,0,30655.8,0.161904,0.161537,-0.483731,16,0.0164774,10,-7.81406e-05,-3.3154,-0.173425,-0.340205,6.41003,0.161537,
2,0,0,1,0,30655.9,0.160405,0.16011,-0.492927,16,0.016402,10,-7.89225e-05,-3.30722,-0.176227,-0.334795,6.42563,0.16011,
2,0,0,1,0,30656.1,0.158907,0.158585,-0.500674,16,0.0163253,10,-7.93993e-05,-3.30045,-0.158589,-0.372031,7.29868,0.158585,
2,0,0,1,0,30656.2,0.15741,0.15709,-0.514286,16,0.016247,10,-8.07891e-05,-3.2888,-0.142206,-0.414891,8.36132,0.15709,
2,0,0,1,0,30656.4,0.155911,0.155562,-0.525326,16,0.0161667,10,-8.17208e-05,-3.27957,-0.131659,-0.448127,9.23251,0.155562,
2,0,0,1,0,30656.5,0.154413,0.15407,-0.540197,16,0.0160844,10,-8.3228e-05,-3.26745,-0.136649,-0.431763,9.0947,0.15407,
2,0,0,1,0,30656.7,0.152915,0.1526,-0.553871,16,0.0159999,10,-8.45208e-05,-3.25659,-0.121111,-0.487157,10.5752,0.1526,
2,0,0,1,0,30656.8,0.151417,0.151096,-0.571409,16,0.0159133,10,-8.63379e-05,-3.24305,-0.112736,-0.523344,11.7061,0.151096,
2,0,0,1,0,30657,0.149918,0.149581,-0.591621,16,0.0158238,10,-8.84954e-05,-3.22796,-0.0999513,-0.590287,13.6128,0.149581,
2,0,0,1,0,30657.1,0.14842,0.148105,-0.613591,16,0.0157312,10,-9.08759e-05,-3.21212,-0.09539,-0.618513,14.8216,0.148105,
2,0,0,1,0,30657.3,0.146922,0.146609,-0.637221,16,0.0156354,10,-9.34222e-05,-3.19571,-0.0888503,-0.664038,16.51,0.146609,
2,0,0,1,0,30657.4,0.145424,0.145151,-0.660539,16,0.015536,10,-9.58778e-05,-3.1801,-0.0840103,-0.702295,18.2284,0.145151,
2,0,0,1,0,30657.6,0.143925,0.143604,-0.690831,16,0.0154324,10,-9.92059e-05,-3.16063,-0.0754683,-0.781785,21.111,0.143604,
2,0,0,1,0,30657.7,0.142428,0.142067,-0.723614,16,0.0153239,10,-0.000102802,-3.14049,-0.0748622,-0.788114,22.2581,0.1420671,
2,0,0,1,0,30657.9,0.14093,0.140614,-0.754744,16,0.0152108,10,-0.000106128,-3.1222,-0.0793557,-0.743488,21.9481,0.1406142,
2,0,0,1,0,30658,0.139431,0.139105,-0.786903,16,0.0150926,10,-0.000109463,-3.10408,-0.0759398,-0.776931,24.002,0.139105,
2,0,0,1,0,30658.2,0.137933,0.137573,-0.826888,16,0.0149692,10,-0.000113758,-3.08255,-0.0776103,-0.760209,24.5186,0.137573,
2,0,0,1,0,30658.3,0.136435,0.136104,-0.865294,16,0.01484,10,-0.00011777,-3.06284,-0.0822335,-0.71747,24.1927,0.136104,
2,0,0,1,0,30658.5,0.134936,0.134619,-0.902081,16,0.0147052,10,-0.000121437,-3.04475,-0.0864418,-0.68254,23.9671,0.134619,
2,0,0,1,0,30658.6,0.133438,0.133082,-0.939033,16,0.0145648,10,-0.000124969,-3.02732,-0.0895079,-0.65916,24.1739,0.1330823,
2,0,0,1,0,30658.8,0.13194,0.131638,-0.975602,16,0.0144192,10,-0.000128426,-3.01073,-0.0963981,-0.612045,23.2866,0.131638,
2,0,0,1,0,30658.9,0.130442,0.13011,-1.01315,16,0.0142679,10,-0.000131821,-2.99432,-0.101048,-0.58388,23.001,0.13011,
2,0,0,1,0,30659.1,0.128943,0.128603,-1.04527,16,0.0141112,10,-0.000134424,-2.98077,-0.11644,-0.5067,20.5767,0.128603,
2,0,0,1,0,30659.2,0.127445,0.127138,-1.07598,16,0.0139498,10,-0.000136798,-2.9682,-0.125018,-0.471931,19.7702,0.127138,
2,0,0,1,0,30659.4,0.125948,0.125636,-1.1027,16,0.0137845,10,-0.000138539,-2.95754,-0.139423,-0.423171,18.1699,0.125636,
2,0,0,1,0,30659.5,0.124449,0.12414,-1.13052,16,0.0136147,10,-0.000140343,-2.94672,-0.157751,-0.374006,16.4172,0.12414,
2,0,0,1,0,30659.7,0.122951,0.122645,-1.15076,16,0.0134413,10,-0.000141135,-2.93901,-0.194489,-0.303359,13.582,0.122645,
2,0,0,1,0,30659.8,0.121453,0.121146,-1.17017,16,0.013265,10,-0.000141762,-2.93175,-0.247178,-0.238694,10.8785,0.121146,
2,0,0,1,0,30660,0.119955,0.119652,-1.18196,16,0.0130862,10,-0.000141424,-2.9274,-0.280437,-0.210386,9.71003,0.119652,
2,0,0,1,0,30660.1,0.118456,0.118127,-1.19879,16,0.0129053,10,-0.00014161,-2.92126,-0.340248,-0.173403,8.0868,0.118127,
2,0,0,1,0,30660.3,0.116958,0.116624,-1.20935,16,0.0127225,10,-0.000141038,-2.91745,-0.552703,-0.106748,5.02009,0.116624,
2,0,0,1,0,30660.4,0.11546,0.115155,-1.21512,16,0.0125385,10,-0.000139928,-2.91538,-1.07212,-0.0550313,2.60108,0.115155,
2,0,0,1,0,30660.6,0.113962,0.113656,-1.21363,16,0.0123539,10,-0.000137936,-2.91591,-2.01355,-0.0293015,1.39011,0.113656,
2,0,0,1,0,30660.7,0.112463,0.112182,-1.21855,16,0.0121692,10,-0.0001367,-2.91416,14.7089,0.00401117,-0.190419,0.112182,
2,0,0,1,0,30660.9,0.110966,0.110609,-1.21698,16,0.0119843,10,-0.000134609,-2.91472,2.37639,0.0248276,-1.17813,0.110609,
2,0,0,1,0,30661,0.109468,0.109174,-1.21343,16,0.0117996,10,-0.000132475,-2.91599,0.780785,0.075565,-3.57433,0.1091741,
2,0,0,1,0,30661.2,0.107969,0.107633,-1.2092,16,0.0116155,10,-0.000130149,-2.9175,0.698077,0.0845179,-3.98913,0.107633,
2,0,0,1,0,30661.3,0.106471,0.106138,-1.20298,16,0.0114325,10,-0.000127682,-2.91974,0.669805,0.0880853,-4.14499,0.106138,
2,0,0,1,0,30661.5,0.104973,0.104642,-1.19896,16,0.0112502,10,-0.000125462,-2.92119,0.715738,0.0824323,-3.85285,0.1046422,
2,0,0,1,0,30661.6,0.103474,0.103147,-1.19257,16,0.0110687,10,-0.00012301,-2.92351,0.526522,0.112056,-5.20168,0.103147,
2,0,0,1,0,30661.8,0.101976,0.101651,-1.18519,16,0.0108882,10,-0.000120475,-2.92621,0.439871,0.13413,-6.19036,0.1016508,
2,0,0,1,0,30661.9,0.100478,0.100148,-1.17315,16,0.0107094,10,-0.000117488,-2.93065,0.483953,0.121913,-5.59559,0.100148,
2,0,0,1,0,30662.1,0.0989799,0.0986848,-1.16843,16,0.0105317,10,-0.000115306,-2.9324,0.575968,0.102436,-4.66099,0.0986848,
2,0,0,1,0,30662.2,0.0974808,0.0971811,-1.16152,16,0.0103547,10,-0.000112878,-2.93497,0.603494,0.097764,-4.42355,0.0971811,
2,0,0,1,0,30662.4,0.0959833,0.0956329,-1.15142,16,0.0101792,10,-0.000110114,-2.93877,0.49183,0.11996,-5.39788,0.0956329,
2,0,0,1,0,30662.5,0.0944857,0.0941682,-1.14105,16,0.0100051,10,-0.000107451,-2.94269,0.526409,0.11208,-5.00572,0.0941682,
2,0,0,1,0,30662.7,0.0929871,0.0926935,-1.13459,16,0.00983195,10,-0.000105169,-2.94516,0.655017,0.090074,-3.99076,0.0926935,
2,0,0,1,0,30662.8,0.0914889,0.0911676,-1.13003,16,0.00965998,10,-0.000103022,-2.94691,0.526435,0.112075,-4.93301,0.0911676,
2,0,0,1,0,30663,0.0899907,0.0896258,-1.12215,16,0.00948905,10,-0.000100573,-2.94995,0.506861,0.116403,-5.08044,0.0896258,
2,0,0,1,0,30663.1,0.0884925,0.0881508,-1.11042,16,0.00931934,10,-9.78841e-05,-2.95451,0.484505,0.121774,-5.28862,0.0881508,
2,0,0,1,0,30663.3,0.0869943,0.086628,-1.10628,16,0.00915102,10,-9.58351e-05,-2.95613,0.493643,0.11952,-5.15724,0.086628,
2,0,0,1,0,30663.4,0.0854962,0.085135,-1.09785,16,0.00898363,10,-9.34651e-05,-2.95946,0.475403,0.124105,-5.31329,0.085135,
2,0,0,1,0,30663.6,0.083998,0.0837002,-1.09227,16,0.00881727,10,-9.14235e-05,-2.96167,0.421303,0.140042,-5.95156,0.0837002,
2,0,0,1,0,30663.7,0.0824998,0.0821966,-1.08315,16,0.00865206,10,-8.90312e-05,-2.96531,0.534956,0.110289,-4.66528,0.0821966,
2,0,0,1,0,30663.9,0.0810011,0.0806989,-1.07605,16,0.00848817,10,-8.68361e-05,-2.96817,0.534033,0.11048,-4.64261,0.0806989,
2,0,0,1,0,30664,0.0795036,0.0791822,-1.0684,16,0.00832511,10,-8.45982e-05,-2.97127,0.64105,0.0920365,-3.83742,0.0791822,
2,0,0,1,0,30664.2,0.0780061,0.0777069,-1.06381,16,0.00816305,10,-8.26651e-05,-2.97314,0.5081,0.116119,-4.81626,0.0777069,
2,0,0,1,0,30664.3,0.076507,0.0761385,-1.05523,16,0.00800193,10,-8.03433e-05,-2.97665,0.505634,0.116685,-4.80373,0.0761385,
2,0,0,1,0,30664.5,0.0750088,0.0746751,-1.04691,16,0.00784229,10,-7.8178e-05,-2.98009,0.489194,0.120606,-4.93316,0.0746751,
2,0,0,1,0,30664.6,0.0735106,0.073163,-1.03985,16,0.00768349,10,-7.60783e-05,-2.98303,0.651388,0.0905758,-3.67633,0.073163,
2,0,0,1,0,30664.8,0.0720124,0.071636,-1.03434,16,0.00752564,10,-7.40962e-05,-2.98534,0.599386,0.0984341,-3.97766,0.071636,
2,0,0,1,0,30664.9,0.0705142,0.070161,-1.02729,16,0.00736878,10,-7.20753e-05,-2.98831,0.49909,0.118215,-4.74431,0.070161,
2,0,0,1,0,30665.1,0.0690161,0.0686796,-1.02115,16,0.00721294,10,-7.01321e-05,-2.99091,0.545674,0.108123,-4.31835,0.0686796,
2,0,0,1,0,30665.2,0.0675179,0.0672109,-1.01624,16,0.00705808,10,-6.83026e-05,-2.993,0.650515,0.0906973,-3.59233,0.0672109,
2,0,0,1,0,30665.4,0.0660188,0.0656946,-1.01255,16,0.00690394,10,-6.6519e-05,-2.99458,0.567845,0.103902,-4.09474,0.0656946,
2,0,0,1,0,30665.5,0.0645213,0.0641694,-1.00457,16,0.00675065,10,-6.44628e-05,-2.99802,0.475336,0.124123,-4.84509,0.0641694,
2,0,0,1,0,30665.7,0.0630237,0.0627133,-0.994633,16,0.00659858,10,-6.23768e-05,-3.00234,0.520347,0.113386,-4.41642,0.0627133,
2,0,0,1,0,30665.8,0.0615251,0.0611973,-0.988864,16,0.00644757,10,-6.05159e-05,-3.00486,0.561547,0.105067,-4.06132,0.06119734,
2,0,0,1,0,30666,0.0600269,0.0596916,-0.983113,16,0.00629737,10,-5.86836e-05,-3.0074,0.571987,0.103149,-3.96182,0.0596916,
2,0,0,1,0,30666.1,0.0585287,0.0581678,-0.978034,16,0.00614803,10,-5.689e-05,-3.00965,0.436176,0.135266,-5.15795,0.0581678,
2,0,0,1,0,30666.3,0.0570305,0.0567065,-0.971058,16,0.00599966,10,-5.50653e-05,-3.01275,0.460264,0.128187,-4.86232,0.0567065,
2,0,0,1,0,30666.4,0.0555323,0.0552453,-0.963591,16,0.00585258,10,-5.32338e-05,-3.01611,0.521224,0.113195,-4.26292,0.0552453,
2,0,0,1,0,30666.6,0.0540342,0.0536939,-0.960478,16,0.00570628,10,-5.15718e-05,-3.01751,0.575863,0.102455,-3.82974,0.0536939,
2,0,0,1,0,30666.7,0.052536,0.0522136,-0.953673,16,0.00556067,10,-4.97947e-05,-3.0206,0.538594,0.109545,-4.06412,0.0522136,
2,0,0,1,0,30666.9,0.0510378,0.0507258,-0.947042,16,0.00541622,10,-4.80395e-05,-3.02363,0.38813,0.152011,-5.6094,0.0507258,
2,0,0,1,0,30667,0.0495391,0.0492207,-0.936073,16,0.00527289,10,-4.60742e-05,-3.02869,0.513957,0.114796,-4.20132,0.0492207,
2,0,0,1,0,30667.2,0.0480416,0.047744,-0.930724,16,0.00513067,10,-4.44365e-05,-3.03118,0.588595,0.100239,-3.63929,0.047744,
2,0,0,1,0,30667.3,0.0465441,0.0462136,-0.924304,16,0.00498927,10,-4.27155e-05,-3.03419,0.505224,0.11678,-4.2115,0.0462136,
2,0,0,1,0,30667.5,0.045045,0.0447356,-0.916398,16,0.00484882,10,-4.09956e-05,-3.03792,0.439121,0.134359,-4.80996,0.0447356,
2,0,0,1,0,30667.6,0.0435468,0.043233,-0.907446,16,0.0047097,10,-3.92316e-05,-3.04218,0.449755,0.131182,-4.6661,0.043233,
2,0,0,1,0,30667.8,0.0420486,0.0417293,-0.903188,16,0.00457171,10,-3.76894e-05,-3.04422,0.508979,0.115918,-4.09057,0.0417293,
2,0,0,1,0,30667.9,0.0405504,0.0402055,-0.89951,16,0.0044345,10,-3.61653e-05,-3.04599,0.435135,0.13559,-4.74522,0.0402055,
2,0,0,1,0,30668.1,0.0390523,0.038704,-0.89174,16,0.00429825,10,-3.45139e-05,-3.04976,0.355392,0.166014,-5.75634,0.038704,
2,0,0,1,0,30668.2,0.0375541,0.0372417,-0.88242,16,0.00416317,10,-3.28628e-05,-3.05432,0.410193,0.143835,-4.95905,0.0372417,
2,0,0,1,0,30668.4,0.0360559,0.0357349,-0.87502,16,0.00402942,10,-3.12687e-05,-3.05798,0.425643,0.138614,-4.74298,0.0357349,
2,0,0,1,0,30668.5,0.0345568,0.034247,-0.869546,16,0.00389639,10,-2.97794e-05,-3.06071,0.430898,0.136923,-4.64312,0.034247,
2,0,0,1,0,30668.7,0.0330593,0.0327187,-0.863849,16,0.0037644,10,-2.8264e-05,-3.06356,0.400545,0.147299,-4.95099,0.0327187,
2,0,0,1,0,30668.8,0.0315618,0.0312193,-0.856602,16,0.00363342,10,-2.67425e-05,-3.06722,0.433734,0.136028,-4.54503,0.0312193,
2,0,0,1,0,30669,0.0300631,0.0297404,-0.847097,16,0.00350371,10,-2.5193e-05,-3.07207,0.493642,0.11952,-3.95382,0.0297404,
2,0,0,1,0,30669.1,0.0285649,0.0282537,-0.841629,16,0.00337485,10,-2.37791e-05,-3.07488,0.538059,0.109653,-3.59724,0.0282537,
2,0,0,1,0,30669.3,0.0270667,0.026715,-0.83531,16,0.00324683,10,-2.23153e-05,-3.07815,0.491155,0.120125,-3.9103,0.026715,
2,0,0,1,0,30669.4,0.0255685,0.0252803,-0.828979,16,0.00311975,10,-2.09568e-05,-3.08146,0.424701,0.138921,-4.49216,0.0252803,
2,0,0,1,0,30669.6,0.0240704,0.0237417,-0.820472,16,0.00299396,10,-1.94794e-05,-3.08594,0.423924,0.139176,-4.47287,0.0237417,
2,0,0,1,0,30669.7,0.0225722,0.0222179,-0.815272,16,0.00286887,10,-1.81136e-05,-3.0887,0.584722,0.100903,-3.21227,0.0222179,
2,0,0,1,0,30669.9,0.021074,0.0207503,-0.810663,16,0.00274462,10,-1.68215e-05,-3.09116,0.52094,0.113257,-3.58693,0.0207503,
2,0,0,1,0,30670,0.0195758,0.0192158,-0.806588,16,0.00262107,10,-1.54993e-05,-3.09335,0.508127,0.116113,-3.65208,0.0192158,
2,0,0,1,0,30670.2,0.0180772,0.0177539,-0.798405,16,0.0024984,10,-1.41748e-05,-3.09778,0.591117,0.0998111,-3.11957,0.0177539,
2,0,0,1,0,30670.3,0.0165796,0.0162449,-0.79558,16,0.00237661,10,-1.29241e-05,-3.09932,0.694486,0.0849549,-2.64201,0.0162449,
2,0,0,1,0,30670.5,0.0150821,0.0147575,-0.792729,16,0.00225527,10,-1.16987e-05,-3.10088,0.836914,0.0704971,-2.18039,0.0147575,
2,0,0,1,0,30670.6,0.013583,0.0132532,-0.788735,16,0.0021343,10,-1.04532e-05,-3.10307,0.674853,0.0874264,-2.69009,0.0132532,
2,0,0,1,0,30670.8,0.0120848,0.01181,-0.784138,16,0.00201408,10,-9.26065e-06,-3.10561,0.708273,0.0833012,-2.5555,0.01181,
2,0,0,1,0,30670.9,0.0105866,0.0103169,-0.782357,16,0.00189448,10,-8.07151e-06,-3.1066,1.11689,0.0528251,-1.61606,0.0103169,
2,0,0,1,0,30671.1,0.00908846,0.00875388,-0.780416,16,0.00177509,10,-6.83167e-06,-3.10767,1.67688,0.0351843,-1.07059,0.00875388,
2,0,0,1,0,30671.2,0.00759027,0.0072025,-0.779839,16,0.00165603,10,-5.61679e-06,-3.10799,1.10125,0.0535753,-1.62966,0.0072025,
2,0,0,1,0,30671.4,0.00609208,0.00575717,-0.77802,16,0.0015372,10,-4.47919e-06,-3.10901,1.79759,0.0328218,-0.99537,0.00575717,
2,0,0,1,0,30671.5,0.00459389,0.0042885,-0.777313,16,0.00141872,10,-3.33351e-06,-3.1094,2.73004,0.0216114,-0.655525,0.0042885,
2,0,0,1,0,30671.7,0.0030948,0.00276499,-0.776415,16,0.00130018,10,-2.14678e-06,-3.10991,-1.01474,-0.0581428,1.76322,0.00276499,
2,0,0,1,0,30671.8,0.00159728,0.00122769,-0.785286,16,0.0011802,10,-9.64091e-07,-3.10497, , , ,0.001227694,
2,0,0,1,0,30672,0.000199195,-0.000185986,-0.778819,16,0.00106876,10,1.4485e-07,-3.10856, , , ,-0.000185986,