File: Figure_codes/Fig_3-5/rawdata_trumpetplot_data/after 10th/20221101_1-115_003_TrumpetPlot_ParaChange_from10_every3_06_CV_C01_29.csv
mode,ox/red,error,control changes,counter inc.,time/s,control/V,Ewe/V,<I>/mA,cycle number,(Q-Qo)/C,I Range,P/W,log(|I|),Tafel slope mV/dec,alpha_eff,dI/d(E-IR),E-IR/V,
2,0,0,0,0,58283.8,2.44065e-05,-0.000382585,-1.41153,30,0.0000000E+000,10,5.4003e-07,-2.85031, , , ,-0.000382585,
2,0,0,1,0,58283.8,0.00129787,0.000880416,-0.456881,30,-2.62311e-05,10,-4.02245e-07,-3.3402, , , ,0.000880416,
2,1,0,1,0,58283.9,0.00279427,0.00241422,0.166074,30,-3.0003e-05,10,4.00938e-07,-3.7797,-0.0591208,-0.997958,335.901,0.00241422,
2,1,0,1,0,58283.9,0.00429425,0.00396999,0.533177,30,-1.57611e-05,10,2.11671e-06,-3.27313,0.00159838,36.9124,212.948,0.00396999,
2,1,0,1,0,58283.9,0.00579422,0.00542286,0.784761,30,9.79958e-06,10,4.25565e-06,-3.10526,0.0104647,5.638,149.37,0.00542286,
2,1,0,1,0,58284,0.00729063,0.00693297,0.970586,30,4.3292e-05,10,6.72904e-06,-3.01297,0.0191108,3.08727,109.526,0.00693297,
2,1,0,1,0,58284,0.00878703,0.00842349,1.10594,30,8.27266e-05,10,9.31583e-06,-2.95627,0.0302622,1.94962,81.1561,0.00842349,
2,1,0,1,0,58284.1,0.010287,0.00997094,1.21304,30,0.000126847,10,1.20951e-05,-2.91613,0.0421206,1.40074,64.8034,0.00997094,
2,1,0,1,0,58284.1,0.011787,0.0113912,1.29639,30,0.000174511,10,1.47674e-05,-2.88727,0.0559446,1.05462,52.7753,0.0113912,
2,1,0,1,0,58284.1,0.0132825,0.0128921,1.36368,30,0.000224893,10,1.75808e-05,-2.86529,0.0673317,0.876259,46.5803,0.0128921,
2,1,0,1,0,58284.2,0.014778,0.0143774,1.4289,30,0.000277813,10,2.05438e-05,-2.845,0.0828686,0.71197,39.5426,0.0143774,
2,1,0,1,0,58284.2,0.0162816,0.0159393,1.48574,30,0.000333302,10,2.36816e-05,-2.82806,0.103417,0.570507,32.9034,0.0159393,
2,1,0,1,0,58284.2,0.017778,0.0174025,1.53521,30,0.000390369,10,2.67166e-05,-2.81383,0.117086,0.503903,30.074,0.0174025,
2,1,0,1,0,58284.3,0.0192744,0.0189096,1.57606,30,0.00044902,10,2.98027e-05,-2.80243,0.133638,0.441492,27.0794,0.0189096,
2,1,0,1,0,58284.3,0.0207743,0.0203776,1.61955,30,0.000509449,10,3.30025e-05,-2.79061,0.135994,0.433841,27.301,0.0203776,
2,1,0,1,0,58284.4,0.0222743,0.0219208,1.65516,30,0.000571394,10,3.62824e-05,-2.78116,0.147348,0.400411,25.8525,0.0219208,
2,1,0,1,0,58284.4,0.0237707,0.0234115,1.68989,30,0.000634621,10,3.95627e-05,-2.77214,0.159417,0.370098,24.4474,0.02341146,
2,1,0,1,0,58284.4,0.0252671,0.0249229,1.72509,30,0.00069913,10,4.29943e-05,-2.76319,0.165939,0.355552,23.9906,0.0249229,
2,1,0,1,0,58284.5,0.0267671,0.0264115,1.76227,30,0.000765151,10,4.65442e-05,-2.75393,0.164968,0.357646,24.6204,0.0264115,
2,1,0,1,0,58284.5,0.0282671,0.0279236,1.79706,30,0.000832483,10,5.01802e-05,-2.74544,0.176482,0.334312,23.4383,0.0279236,
2,1,0,1,0,58284.5,0.0297626,0.0294374,1.83332,30,0.000900951,10,5.39683e-05,-2.73676,0.193371,0.305113,21.7666,0.0294374,
2,1,0,1,0,58284.6,0.0312581,0.0308874,1.86522,30,0.000970641,10,5.76116e-05,-2.72927,0.197989,0.297997,21.6377,0.03088738,
2,1,0,1,0,58284.6,0.0327616,0.0324193,1.89647,30,0.00104189,10,6.14824e-05,-2.72205,0.198802,0.296778,21.9495,0.0324193,
2,1,0,1,0,58284.7,0.034258,0.0339177,1.92821,30,0.001114,10,6.54004e-05,-2.71485,0.198945,0.296564,22.344,0.0339177,
2,1,0,1,0,58284.7,0.0357545,0.0354162,1.9601,30,0.00118738,10,6.94192e-05,-2.70772,0.21917,0.269197,20.6103,0.03541619,
2,1,0,1,0,58284.7,0.0372544,0.036916,1.99476,30,0.00126218,10,7.36386e-05,-2.70011,0.22447,0.262842,20.4903,0.03691604,
2,1,0,1,0,58284.8,0.0387544,0.0384008,2.02368,30,0.00133809,10,7.77111e-05,-2.69386,0.218781,0.269677,21.3516,0.0384008,
2,1,0,1,0,58284.8,0.0402508,0.0399216,2.0605,30,0.00141502,10,8.22586e-05,-2.68603,0.211996,0.278308,22.3762,0.0399216,
2,1,0,1,0,58284.8,0.0417472,0.0413842,2.09505,30,0.00149323,10,8.67019e-05,-2.67881,0.221094,0.266855,21.7439,0.0413842,
2,1,0,1,0,58284.9,0.0432472,0.0428602,2.12975,30,0.00157295,10,9.12814e-05,-2.67167,0.23399,0.252147,20.8558,0.0428602,
2,1,0,1,0,58284.9,0.0447472,0.0444036,2.15425,30,0.00165371,10,9.56566e-05,-2.6667,0.243441,0.242358,20.378,0.0444036,
2,1,0,1,0,58285,0.0462427,0.0459084,2.18534,30,0.00173544,10,0.000100325,-2.66048,0.230421,0.256053,21.8544,0.0459084,
2,1,0,1,0,58285,0.0477382,0.0474023,2.2167,30,0.00181839,10,0.000105077,-2.65429,0.231322,0.255056,22.1204,0.0474023,
2,1,0,1,0,58285,0.0492417,0.0489223,2.24877,30,0.001903,10,0.000110015,-2.64805,0.243427,0.242372,21.281,0.0489223,
2,1,0,1,0,58285.1,0.0507381,0.0503866,2.27493,30,0.00198828,10,0.000114626,-2.64303,0.272993,0.216123,19.2424,0.0503866,
2,1,0,1,0,58285.1,0.0522345,0.0519025,2.31053,30,0.00207468,10,0.000119922,-2.63629,0.25776,0.228895,20.6401,0.0519025,
2,1,0,1,0,58285.1,0.0537345,0.0533819,2.34706,30,0.00216246,10,0.00012529,-2.62948,0.273154,0.215995,19.7028,0.0533819,
2,1,0,1,0,58285.2,0.0552345,0.054912,2.37834,30,0.00225148,10,0.0001306,-2.62373,0.286362,0.206033,19.0198,0.054912,
2,1,0,1,0,58285.2,0.0567309,0.0563841,2.3975,30,0.00234131,10,0.000135181,-2.62024,0.312993,0.188502,17.6486,0.05638412,
2,1,0,1,0,58285.3,0.0582273,0.0578849,2.42689,30,0.00243211,10,0.00014048,-2.61495,0.299816,0.196787,18.6692,0.0578849,
2,1,0,1,0,58285.3,0.0597308,0.0593957,2.45445,30,0.00252454,10,0.000145783,-2.61005,0.297059,0.198614,19.0691,0.0593957,
2,1,0,1,0,58285.3,0.0612264,0.0608572,2.48253,30,0.00261759,10,0.00015108,-2.60511,0.318962,0.184975,17.942,0.0608572,
2,1,0,1,0,58285.4,0.0627219,0.0623699,2.51052,30,0.00271163,10,0.000156581,-2.60024,0.331259,0.178108,17.4572,0.0623699,
2,1,0,1,0,58285.4,0.0642218,0.063873,2.53911,30,0.00280682,10,0.000162181,-2.59532,0.332272,0.177565,17.58,0.063873,
2,1,0,1,0,58285.4,0.0657218,0.0653581,2.56588,30,0.00290304,10,0.000167701,-2.59076,0.323147,0.18258,18.2507,0.0653581,
2,1,0,1,0,58285.5,0.0672182,0.0668903,2.59531,30,0.00300005,10,0.000173601,-2.58581,0.348059,0.169512,17.1172,0.0668903,
2,1,0,1,0,58285.5,0.0687146,0.0683836,2.61739,30,0.00309802,10,0.000178987,-2.58213,0.390873,0.150944,15.3955,0.0683836,
2,1,0,1,0,58285.6,0.0702146,0.0698286,2.63763,30,0.00319711,10,0.000184182,-2.57879,0.395761,0.14908,15.3654,0.0698286,
2,1,0,1,0,58285.6,0.0717146,0.0713375,2.66126,30,0.00329707,10,0.000189848,-2.57491,0.385942,0.152873,15.903,0.0713375,
2,1,0,1,0,58285.6,0.073211,0.0728684,2.68363,30,0.00339765,10,0.000195552,-2.57128,0.406195,0.14525,15.2386,0.0728684,
2,1,0,1,0,58285.7,0.0747074,0.0743581,2.70594,30,0.00349911,10,0.000201208,-2.56768,0.427282,0.138082,14.5913,0.0743581,
2,1,0,1,0,58285.7,0.0762109,0.0758602,2.72641,30,0.00360189,10,0.000206826,-2.56441,0.483505,0.122026,12.9837,0.0758602,
2,1,0,1,0,58285.7,0.0777064,0.0773572,2.74884,30,0.00370483,10,0.000212643,-2.56085,0.450749,0.130893,14.0431,0.0773572,
2,1,0,1,0,58285.8,0.079202,0.0788514,2.77343,30,0.00380858,10,0.000218689,-2.55698,0.485341,0.121564,13.1181,0.0788514,
2,1,0,1,0,58285.8,0.0807019,0.08037,2.78822,30,0.00391344,10,0.000224089,-2.55467,0.534934,0.110294,11.994,0.08037,
2,1,0,1,0,58285.9,0.0822019,0.0818534,2.80175,30,0.00401893,10,0.000229332,-2.55257,0.609991,0.0967227,10.5987,0.08185342,
2,1,0,1,0,58285.9,0.0836983,0.0833284,2.82082,30,0.0041247,10,0.000235054,-2.54962,0.521603,0.113113,12.4867,0.0833284,
2,1,0,1,0,58285.9,0.0851947,0.0848416,2.8415,30,0.00423123,10,0.000241077,-2.54645,0.491626,0.12001,13.3291,0.0848416,
2,1,0,1,0,58286,0.0866947,0.0863694,2.86251,30,0.00433881,10,0.000247233,-2.54325,0.607564,0.097109,10.84,0.0863694,
2,1,0,1,0,58286,0.0881947,0.0878128,2.88327,30,0.00444709,10,0.000253188,-2.54011,0.553283,0.106636,11.9908,0.0878128,
2,1,0,1,0,58286,0.0896911,0.0893333,2.90334,30,0.00455569,10,0.000259365,-2.5371,0.47009,0.125508,14.2113,0.0893333,
2,1,0,1,0,58286.1,0.0911875,0.0908265,2.92271,30,0.0046651,10,0.00026546,-2.53421,0.446285,0.132202,15.0792,0.0908265,
2,1,0,1,0,58286.1,0.0926901,0.0923366,2.94865,30,0.00477605,10,0.000272268,-2.53038,0.414948,0.142186,16.3538,0.0923366,
2,1,0,1,0,58286.2,0.0941856,0.0938592,2.96926,30,0.00488727,10,0.000278692,-2.52735,0.391705,0.150624,17.4981,0.0938592,
2,1,0,1,0,58286.2,0.095682,0.0952752,2.99202,30,0.00499942,10,0.000285065,-2.52404,0.395186,0.149297,17.4875,0.0952752,
2,1,0,1,0,58286.2,0.097182,0.0968189,3.02388,30,0.00511288,10,0.000292768,-2.51944,0.319754,0.184517,21.8208,0.0968189,
2,1,0,1,0,58286.3,0.098682,0.0983271,3.05883,30,0.00522752,10,0.000300766,-2.51444,0.296036,0.1993,23.8226,0.09832713,
2,1,0,1,0,58286.3,0.100178,0.0998419,3.1011,30,0.00534328,10,0.00030962,-2.50848,0.286841,0.205689,24.8738,0.0998419,
2,1,0,1,0,58286.3,0.101675,0.10132,3.13899,30,0.00546047,10,0.000318042,-2.50321,0.270609,0.218027,26.6935,0.10132,
2,1,0,1,0,58286.4,0.103175,0.102811,3.18027,30,0.00557949,10,0.000326966,-2.49754,0.241887,0.243916,30.3439,0.102811,
2,1,0,1,0,58286.4,0.104675,0.104294,3.2361,30,0.00570026,10,0.000337506,-2.48998,0.230258,0.256234,32.3074,0.104294,
2,1,0,1,0,58286.5,0.106171,0.105842,3.27764,30,0.00582263,10,0.000346912,-2.48444,0.221917,0.265865,34.0136,0.1058419,
2,1,0,1,0,58286.5,0.107667,0.107323,3.32869,30,0.00594681,10,0.000357244,-2.47773,0.222918,0.264671,34.4355,0.107323,
2,1,0,1,0,58286.5,0.10917,0.108831,3.38138,30,0.00607351,10,0.000368001,-2.47091,0.227117,0.259779,34.3066,0.108831,
2,1,0,1,0,58286.6,0.110666,0.110274,3.43435,30,0.00620154,10,0.000378719,-2.46416,0.22369,0.263758,35.3485,0.110274,
2,1,0,1,0,58286.6,0.112162,0.111842,3.493,30,0.00633158,10,0.000390666,-2.4568,0.238327,0.247559,33.6478,0.111842,
2,1,0,1,0,58286.6,0.113662,0.113324,3.54178,30,0.00646393,10,0.000401367,-2.45078,0.247178,0.238694,32.921,0.113324,
2,1,0,1,0,58286.7,0.115162,0.11473,3.589,30,0.00659807,10,0.000411768,-2.44503,0.252381,0.233774,32.7066,0.11473,
2,1,0,1,0,58286.7,0.116658,0.116298,3.63424,30,0.00673369,10,0.000422656,-2.43959,0.252335,0.233816,33.166,0.116298,
2,1,0,1,0,58286.8,0.118155,0.117794,3.68014,30,0.00687114,10,0.000433499,-2.43414,0.294454,0.200371,28.7854,0.117794,
2,1,0,1,0,58286.8,0.119655,0.11933,3.72252,30,0.00701064,10,0.000444207,-2.42916,0.348911,0.169097,24.5569,0.11933,
2,1,0,1,0,58286.8,0.121155,0.120781,3.75963,30,0.0071515,10,0.000454094,-2.42485,0.388714,0.151783,22.2635,0.120781,
2,1,0,1,0,58286.9,0.122651,0.122246,3.79357,30,0.00729329,10,0.00046375,-2.42095,0.388911,0.151706,22.4386,0.122246,
2,1,0,1,0,58286.9,0.124147,0.123781,3.83163,30,0.00743632,10,0.000474282,-2.41662,0.456648,0.129202,19.2472,0.123781,
2,1,0,1,0,58286.9,0.12565,0.125231,3.85243,30,0.00758121,10,0.000482442,-2.41427,0.595719,0.0990399,14.8514,0.1252307,
2,1,0,1,0,58287,0.127146,0.126795,3.87047,30,0.00772617,10,0.000490758,-2.41224,0.631893,0.0933703,14.1078,0.126795,
2,1,0,1,0,58287,0.128642,0.128277,3.88845,30,0.00787181,10,0.000498798,-2.41022,0.732229,0.0805759,12.2384,0.128277,
2,1,0,1,0,58287.1,0.130142,0.129752,3.90809,30,0.00801865,10,0.000507084,-2.40804,0.830012,0.0710833,10.8468,0.129752,
2,1,0,1,0,58287.1,0.131642,0.13128,3.92592,30,0.00816618,10,0.000515395,-2.40606,0.974607,0.0605372,9.26749,0.13128,
2,1,0,1,0,58287.1,0.133139,0.132811,3.94028,30,0.00831388,10,0.000523311,-2.40447,1.25888,0.0468672,7.20276,0.132811,
2,1,0,1,0,58287.2,0.134635,0.134268,3.94906,30,0.00846192,10,0.000530231,-2.40351,1.6109,0.0366254,5.64414,0.1342677,
2,1,0,1,0,58287.2,0.136135,0.135759,3.96378,30,0.00861075,10,0.00053812,-2.40189,1.89926,0.0310648,4.79167,0.135759,
2,1,0,1,0,58287.2,0.137635,0.137276,3.9656,30,0.00875984,10,0.000544381,-2.40169,52.8569,0.00111622,0.172163,0.137276,
2,1,0,1,0,58287.3,0.13913,0.138773,3.96057,30,0.00890854,10,0.000549621,-2.40224,-1.60497,-0.0367608,-5.66675,0.138773,
2,1,0,1,0,58287.3,0.140626,0.14027,3.94477,30,0.00905687,10,0.000553332,-2.40398,-0.829411,-0.0711348,-10.9353,0.1402698,
2,1,0,1,0,58287.4,0.14213,0.141768,3.92309,30,0.00920541,10,0.000556171,-2.40637,-0.554811,-0.106342,-16.2597,0.1417685,
2,1,0,1,0,58287.4,0.143626,0.143254,3.8946,30,0.00935226,10,0.000557917,-2.40954,-0.36344,-0.162338,-24.6148,0.143254,
2,1,0,1,0,58287.4,0.145122,0.144763,3.85135,30,0.00949767,10,0.000557532,-2.41439,-0.243052,-0.242747,-36.3399,0.144763,
2,1,0,1,0,58287.5,0.146622,0.146279,3.78657,30,0.00964148,10,0.000553894,-2.42175,-0.19405,-0.304045,-44.7836,0.146279,
2,1,0,1,0,58287.5,0.148122,0.147758,3.71744,30,0.00978273,10,0.00054928,-2.42976,-0.163404,-0.361068,-52.1494,0.147758,
2,1,0,1,0,58287.5,0.149619,0.149288,3.63146,30,0.00992065,10,0.000542134,-2.43992,-0.137697,-0.428476,-60.4779,0.149288,
2,1,0,1,0,58287.6,0.151115,0.150763,3.53506,30,0.0100552,10,0.000532954,-2.4516,-0.118621,-0.497383,-68.372,0.150763,
2,1,0,1,0,58287.6,0.152615,0.152291,3.42645,30,0.0101862,10,0.000521818,-2.46516,-0.109362,-0.539492,-72.028,0.152291,
2,1,0,1,0,58287.7,0.154115,0.153755,3.31052,30,0.0103131,10,0.00050901,-2.4801,-0.102235,-0.5771,-74.6158,0.153755,
2,1,0,1,0,58287.7,0.155611,0.155216,3.19791,30,0.0104354,10,0.000496366,-2.49513,-0.0977,-0.60389,-75.3766,0.155216,
2,1,0,1,0,58287.7,0.157106,0.156776,3.08635,30,0.0105534,10,0.000483865,-2.51055,-0.0945557,-0.623971,-75.0941,0.156776,
2,1,0,1,0,58287.8,0.15861,0.158243,2.97299,30,0.0106678,10,0.000470456,-2.52681,-0.0921792,-0.640058,-74.2914,0.158243,
2,1,0,1,0,58287.8,0.160106,0.159747,2.86762,30,0.0107774,10,0.000458094,-2.54248,-0.0971361,-0.607395,-67.9028,0.159747,
2,1,0,1,0,58287.8,0.161602,0.16124,2.76692,30,0.0108832,10,0.000446138,-2.558,-0.0993404,-0.593917,-64.1562,0.16124,
2,1,0,1,0,58287.9,0.163102,0.162754,2.67123,30,0.0109857,10,0.000434753,-2.57329,-0.102222,-0.577177,-60.2968,0.162754,
2,1,0,1,0,58287.9,0.164602,0.164259,2.58553,30,0.0110848,10,0.000424697,-2.58745,-0.105062,-0.561574,-56.8031,0.164259,
2,1,0,1,0,58288,0.166099,0.165788,2.50183,30,0.0111805,10,0.000414774,-2.60174,-0.111383,-0.529705,-51.9775,0.165788,
2,1,0,1,0,58288,0.167595,0.167243,2.43427,30,0.0112733,10,0.000407115,-2.61363,-0.122885,-0.480124,-45.6975,0.167243,
2,1,0,1,0,58288,0.169095,0.168746,2.37293,30,0.0113639,10,0.000400422,-2.62471,-0.131511,-0.448631,-41.5556,0.168746,
2,1,0,1,0,58288.1,0.170595,0.170244,2.31041,30,0.0114522,10,0.000393334,-2.63631,-0.136833,-0.431184,-38.891,0.170244,
2,1,0,1,0,58288.1,0.172091,0.171745,2.25497,30,0.011538,10,0.000387279,-2.64686,-0.142448,-0.414187,-36.4282,0.171745,
2,1,0,1,0,58288.1,0.173586,0.173252,2.20109,30,0.0116218,10,0.000381345,-2.65736,-0.159555,-0.369778,-31.8467,0.173252,
2,1,0,1,0,58288.2,0.17509,0.17468,2.15775,30,0.0117043,10,0.000376916,-2.666,-0.173832,-0.339408,-28.6155,0.17468,
2,1,0,1,0,58288.2,0.176586,0.176259,2.1156,30,0.0117847,10,0.000372894,-2.67457,-0.183154,-0.322134,-26.6197,0.176259,
2,1,0,1,0,58288.3,0.178083,0.177691,2.07382,30,0.0118637,10,0.000368501,-2.68323,-0.198009,-0.297966,-24.2214,0.177691,
2,1,0,1,0,58288.3,0.179582,0.179185,2.0429,30,0.0119414,10,0.000366056,-2.68975,-0.2247,-0.262573,-20.9823,0.179185,
2,1,0,1,0,58288.3,0.181082,0.180744,2.01516,30,0.0120181,10,0.000364228,-2.69569,-0.253169,-0.233046,-18.3322,0.180744,
2,1,0,1,0,58288.4,0.182579,0.182247,1.9913,30,0.0120934,10,0.000362909,-2.70086,-0.245772,-0.24006,-18.5967,0.1822474,
2,1,0,1,0,58288.4,0.184075,0.183698,1.96593,30,0.0121679,10,0.000361137,-2.70643,-0.278528,-0.211828,-16.2191,0.183698,
2,1,0,1,0,58288.4,0.185579,0.185187,1.93957,30,0.0122417,10,0.000359183,-2.71229,-0.311236,-0.189567,-14.346,0.185187,
2,1,0,1,0,58288.5,0.187074,0.186696,1.91898,30,0.0123143,10,0.000358266,-2.71693,-0.356537,-0.165481,-12.3971,0.1866958,
2,1,0,1,0,58288.5,0.18857,0.188183,1.89759,30,0.0123862,10,0.000357095,-2.7218,-0.35158,-0.167814,-12.4594,0.188183,
2,1,0,1,0,58288.6,0.19007,0.189671,1.88098,30,0.0124577,10,0.000356767,-2.72561,-0.36538,-0.161476,-11.8953,0.189671,
2,1,0,1,0,58288.6,0.19157,0.191188,1.86557,30,0.0125285,10,0.000356676,-2.72919,-0.425891,-0.138533,-10.1045,0.191188,
2,1,0,1,0,58288.6,0.193066,0.192703,1.85083,30,0.0125985,10,0.000356661,-2.73263,-0.472985,-0.12474,-9.00965,0.192703,
2,1,0,1,0,58288.7,0.194563,0.194208,1.84445,30,0.0126681,10,0.000358208,-2.73413,-0.507383,-0.116283,-8.34408,0.194208,
2,1,0,1,0,58288.7,0.196063,0.195705,1.83005,30,0.0127375,10,0.00035815,-2.73754,-0.471282,-0.12519,-8.92348,0.195705,
2,1,0,1,0,58288.7,0.197563,0.197212,1.81286,30,0.0128063,10,0.000357518,-2.74164,-0.63399,-0.0930614,-6.5984,0.1972117,
2,1,0,1,0,58288.8,0.199059,0.19871,1.80585,30,0.0128745,10,0.00035884,-2.74332,-0.605624,-0.0974202,-6.87811,0.19871,
2,1,0,1,0,58288.8,0.200555,0.200189,1.79336,30,0.0129424,10,0.000359011,-2.74633,-0.825812,-0.0714449,-5.01478,0.200189,
2,1,0,1,0,58288.9,0.202059,0.201697,1.78649,30,0.0130103,10,0.00036033,-2.748,-0.822606,-0.0717233,-5.00296,0.201697,
2,1,0,1,0,58288.9,0.203554,0.203195,1.77699,30,0.0130776,10,0.000361075,-2.75032,-0.797592,-0.0739727,-5.14192,0.203195,
2,1,0,1,0,58288.9,0.20505,0.204677,1.77162,30,0.0131445,10,0.000362611,-2.75163,-1.14598,-0.0514842,-3.56833,0.2046774,
2,1,0,1,0,58289,0.20655,0.206163,1.76706,30,0.0132114,10,0.000364301,-2.75275,-1.10582,-0.0533541,-3.67942,0.2061628,
2,1,0,1,0,58289,0.20805,0.207684,1.7651,30,0.0132782,10,0.000366583,-2.75323,-0.945108,-0.0624267,-4.27741,0.207684,
2,1,0,1,0,58289,0.209546,0.209183,1.75272,30,0.0133445,10,0.00036664,-2.75629,-0.763412,-0.0772846,-5.29574,0.209183,
2,1,0,1,0,58289.1,0.211043,0.210697,1.74658,30,0.0134104,10,0.000367999,-2.75781,-0.952177,-0.0619632,-4.23109,0.210697,
2,1,0,1,0,58289.1,0.212543,0.212171,1.73843,30,0.0134764,10,0.000368843,-2.75984,-1.15673,-0.0510058,-3.46963,0.212171,
2,1,0,1,0,58289.1,0.214043,0.213705,1.73254,30,0.0135421,10,0.000370253,-2.76132,-0.916782,-0.0643556,-4.36895,0.213705,
2,1,0,1,0,58289.2,0.215539,0.215186,1.73111,30,0.0136075,10,0.000372511,-2.76167,-1.26205,-0.0467495,-3.16011,0.215186,
2,1,0,1,0,58289.2,0.217035,0.216673,1.72731,30,0.0136726,10,0.00037426,-2.76263,-1.15332,-0.0511564,-3.44551,0.2166726,
2,1,0,1,0,58289.3,0.218538,0.218158,1.72463,30,0.013738,10,0.000376241,-2.7633,-3.20622,-0.0184017,-1.23545,0.218158,
2,1,0,1,0,58289.3,0.220034,0.219696,1.72113,30,0.0138029,10,0.000378126,-2.76419,-2.04364,-0.0288701,-1.93592,0.219696,
2,1,0,1,0,58289.3,0.22153,0.221171,1.71515,30,0.0138677,10,0.000379341,-2.7657,-1.06751,-0.055269,-3.69522,0.221171,
2,1,0,1,0,58289.4,0.22303,0.222676,1.70213,30,0.0139324,10,0.000379024,-2.76901,-1.39493,-0.042296,-2.82418,0.222676,
2,1,0,1,0,58289.4,0.22453,0.224193,1.70006,30,0.0139969,10,0.000381142,-2.76953,-1.20439,-0.0489876,-3.26456,0.224193,
2,1,0,1,0,58289.4,0.226026,0.225689,1.70341,30,0.0140612,10,0.00038444,-2.76868,-1.54785,-0.0381174,-2.53373,0.225689,
2,1,0,1,0,58289.5,0.227523,0.227161,1.69909,30,0.0141253,10,0.000385968,-2.76978,-1.07393,-0.0549385,-3.63614,0.227161,
2,1,0,1,0,58289.5,0.229023,0.228669,1.69472,30,0.0141895,10,0.00038753,-2.7709,-1.95068,-0.0302458,-1.99833,0.2286687,
2,1,0,1,0,58289.6,0.230523,0.23016,1.69292,30,0.0142535,10,0.000389641,-2.77136,-2.01275,-0.0293131,-1.93545,0.23016,
2,1,0,1,0,58289.6,0.232019,0.23168,1.69029,30,0.0143173,10,0.000391605,-2.77204,-2.50898,-0.0235155,-1.55051,0.23168,
2,1,0,1,0,58289.6,0.233515,0.23315,1.68467,30,0.014381,10,0.00039278,-2.77349,-1.76682,-0.0333933,-2.19747,0.23315,
2,1,0,1,0,58289.7,0.235018,0.234678,1.68598,30,0.0144449,10,0.000395662,-2.77315,-1.36508,-0.0432209,-2.8411,0.234678,
2,1,0,1,0,58289.7,0.236514,0.236187,1.67714,30,0.0145083,10,0.000396118,-2.77543,-3.47218,-0.0169922,-1.11669,0.236187,
2,1,0,1,0,58289.7,0.23801,0.237667,1.67591,30,0.0145716,10,0.000398309,-2.77575,-2.71512,-0.0217301,-1.42386,0.237667,
2,1,0,1,0,58289.8,0.23951,0.23914,1.67569,30,0.014635,10,0.000400724,-2.77581,-2.37216,-0.0248718,-1.62675,0.23914,
2,1,0,1,0,58289.8,0.24101,0.240612,1.67247,30,0.0146984,10,0.000402417,-2.77664,-2.22981,-0.0264596,-1.72531,0.240612,
2,1,0,1,0,58289.9,0.242506,0.242102,1.67082,30,0.0147614,10,0.000404508,-2.77707,-2.14325,-0.0275282,-1.79358,0.242102,
2,1,0,1,0,58289.9,0.244003,0.24362,1.66711,30,0.0148243,10,0.000406141,-2.77804,-2.77391,-0.0212696,-1.38415,0.24362,
2,1,0,1,0,58289.9,0.245503,0.245155,1.66596,30,0.0148874,10,0.000408419,-2.77833,-3.24691,-0.0181711,-1.18226,0.245155,
2,1,0,1,0,58290,0.247003,0.246685,1.66304,30,0.0149504,10,0.000410248,-2.7791,-1.1579,-0.0509543,-3.31156,0.246685,
2,1,0,1,0,58290,0.248499,0.24817,1.65979,30,0.0150132,10,0.00041191,-2.77995,-2.88266,-0.0204672,-1.32928,0.24817,
2,1,0,1,0,58290,0.249995,0.249622,1.65915,30,0.0150757,10,0.00041416,-2.78012,-1.82796,-0.0322765,-2.09403,0.249622,
2,1,0,1,0,58290.1,0.251498,0.251135,1.6603,30,0.0151386,10,0.000416958,-2.77981,-24.225,-0.0024355,-0.157237,0.251135,
2,1,0,1,0,58290.1,0.252994,0.252652,1.65479,30,0.0152011,10,0.000418087,-2.78126,-2.72322,-0.0216656,-1.39794,0.2526522,
2,1,0,1,0,58290.2,0.25449,0.254127,1.6523,30,0.0152635,10,0.000419895,-2.78191,-2.16424,-0.0272613,-1.75699,0.254127,
2,1,0,1,0,58290.2,0.25599,0.255636,1.65208,30,0.0153259,10,0.000422333,-2.78197,-3.08399,-0.0191311,-1.23308,0.255636,
2,1,0,1,0,58290.2,0.25749,0.257113,1.64659,30,0.0153883,10,0.00042336,-2.78341,-13.1203,-0.00449684,-0.289709,0.257113,
2,1,0,1,0,58290.3,0.258987,0.258664,1.64598,30,0.0154505,10,0.000425756,-2.78357,-2.4099,-0.0244824,-1.57516,0.258664,
2,1,0,1,0,58290.3,0.260483,0.260142,1.64422,30,0.0155126,10,0.000427729,-2.78404,-1.59669,-0.0369515,-2.37521,0.260142,
2,1,0,1,0,58290.3,0.261983,0.261638,1.64298,30,0.0155747,10,0.000429865,-2.78437,-2.07676,-0.0284097,-1.82155,0.261638,
2,1,0,1,0,58290.4,0.263483,0.263111,1.64061,30,0.0156368,10,0.000431662,-2.785,-14.921,-0.00395416,-0.252961,0.263111,
2,1,0,1,0,58290.4,0.264978,0.264627,1.64131,30,0.0156986,10,0.000434335,-2.78481,-13.4925,-0.00437279,-0.279259,0.264627,
2,1,0,1,0,58290.5,0.266474,0.266102,1.6394,30,0.0157604,10,0.000436246,-2.78532,-1.66344,-0.0354688,-2.26164,0.266102,
2,1,0,1,0,58290.5,0.267977,0.267652,1.63044,30,0.0158224,10,0.00043639,-2.7877,-1.87711,-0.0314314,-2.00488,0.267652,
2,1,0,1,0,58290.5,0.269474,0.269083,1.62961,30,0.015884,10,0.0004385,-2.78792,-3.78775,-0.0155765,-0.993756,0.269083,
2,1,0,1,0,58290.6,0.27097,0.270621,1.63157,30,0.0159455,10,0.000441537,-2.7874,-2.59538,-0.0227327,-1.44619,0.270621,
2,1,0,1,0,58290.6,0.27247,0.27211,1.62475,30,0.0160071,10,0.00044211,-2.78921,-1.67873,-0.0351456,-2.2331,0.27211,
2,1,0,1,0,58290.6,0.27397,0.273602,1.62416,30,0.0160687,10,0.000444373,-2.78937,-2.40373,-0.0245452,-1.55746,0.273602,
2,1,0,1,0,58290.7,0.275467,0.275106,1.62341,30,0.0161299,10,0.00044661,-2.78957,-2.15872,-0.027331,-1.73023,0.275106,
2,1,0,1,0,58290.7,0.276963,0.276622,1.62067,30,0.016191,10,0.000448314,-2.7903,-4.01207,-0.0147056,-0.928577,0.276622,
2,1,0,1,0,58290.8,0.278463,0.278121,1.62034,30,0.0162523,10,0.00045065,-2.79039,-2.21893,-0.0265894,-1.67643,0.278121,
2,1,0,1,0,58290.8,0.279963,0.279618,1.61649,30,0.0163134,10,0.000451999,-2.79143,-1.85592,-0.0317901,-2.00358,0.279618,
2,1,0,1,0,58290.8,0.281459,0.281055,1.60947,30,0.0163743,10,0.00045235,-2.79332,-2.21581,-0.0266268,-1.67733,0.2810553,
2,1,0,1,0,58290.9,0.282954,0.282596,1.6095,30,0.0164351,10,0.000454838,-2.79331,-3.10093,-0.0190266,-1.19691,0.282596,
2,1,0,1,0,58290.9,0.284458,0.284101,1.608,30,0.0164961,10,0.000456835,-2.79371,-2.87642,-0.0205116,-1.28787,0.284101,
2,1,0,1,0,58290.9,0.285954,0.285569,1.60529,30,0.0165568,10,0.000458421,-2.79445,-1.97117,-0.0299314,-1.87506,0.285569,
2,1,0,1,0,58291,0.28745,0.287078,1.60021,30,0.0166173,10,0.000459385,-2.79582,-1.71025,-0.0344979,-2.15561,0.287078,
2,1,0,1,0,58291,0.28895,0.288568,1.5988,30,0.0166778,10,0.000461361,-2.79621,-6.23358,-0.00946487,-0.589673,0.288568,
2,1,0,1,0,58291.1,0.29045,0.290096,1.59606,30,0.0167383,10,0.000463011,-2.79695,-2.88435,-0.0204552,-1.27561,0.290096,
2,1,0,1,0,58291.1,0.291947,0.29162,1.59468,30,0.0167986,10,0.000465042,-2.79733,-1.33511,-0.044191,-2.75128,0.29162,
2,1,0,1,0,58291.1,0.293443,0.293043,1.58735,30,0.0168587,10,0.000465162,-2.79933,-2.97568,-0.0198274,-1.23427,0.293043,
2,1,0,1,0,58291.2,0.294943,0.29459,1.58699,30,0.0169188,10,0.000467512,-2.79943,-2.22109,-0.0265635,-1.65191,0.29459,
2,1,0,1,0,58291.2,0.296443,0.296101,1.58827,30,0.0169789,10,0.000470289,-2.79907,-3.5531,-0.0166052,-1.02785,0.296101,
2,1,0,1,0,58291.2,0.297939,0.297638,1.58327,30,0.0170388,10,0.000471241,-2.80044,-1.21692,-0.0484831,-2.99,0.297638,
2,1,0,1,0,58291.3,0.299434,0.299116,1.58281,30,0.0170985,10,0.000473444,-2.80057,-0.0204793,-2.88096,-157.099,0.299116,
2,1,0,0,0,58291.3,0.299962,0.299613,1.52217,30,0.017122,10,0.000456062,-2.81754,0.0013895,42.4614,1467.25,0.299613,
2,1,0,1,0,58291.3,0.298689,0.298358,0.616074,30,0.0171526,10,0.00018381,-3.21037,0.00249169,23.6787,454.739,0.298358,
2,1,0,1,0,58291.4,0.297189,0.296854,0.166009,30,0.0171656,10,4.92805e-05,-3.77987,0.00494581,11.9293,250.374,0.296854,
2,0,0,1,0,58291.4,0.295692,0.295307,-0.0757795,30,0.0171662,10,-2.23782e-05,-4.12045,0.161665,0.364953,137.762,0.295307,
2,0,0,1,0,58291.4,0.294196,0.293816,-0.225153,30,0.0171597,10,-6.61537e-05,-3.64752,-0.00291936,-20.2099,85.3038,0.293816,
2,0,0,1,0,58291.5,0.292696,0.292357,-0.318385,30,0.0171488,10,-9.30821e-05,-3.49705,-0.0110285,-5.34978,59.6396,0.292357,
2,0,0,1,0,58291.5,0.291196,0.290809,-0.398738,30,0.0171345,10,-0.000115956,-3.39931,-0.0192399,-3.06655,45.0186,0.290809,
2,0,0,1,0,58291.6,0.2897,0.289318,-0.458084,30,0.0171179,10,-0.000132532,-3.33906,-0.0285966,-2.06318,35.7314,0.289318,
2,0,0,1,0,58291.6,0.288205,0.287841,-0.50714,30,0.0170993,10,-0.000145976,-3.29487,-0.0390644,-1.51033,28.9147,0.2878412,
2,0,0,1,0,58291.6,0.286701,0.286358,-0.542352,30,0.017079,10,-0.000155307,-3.26572,-0.0480158,-1.22876,25.6731,0.286358,
2,0,0,1,0,58291.7,0.285205,0.284859,-0.576315,30,0.0170574,10,-0.000164168,-3.23934,-0.059541,-0.990914,22.3402,0.284859,
2,0,0,1,0,58291.7,0.283708,0.283366,-0.609041,30,0.0170346,10,-0.000172582,-3.21535,-0.0664613,-0.887734,21.0617,0.283366,
2,0,0,1,0,58291.7,0.282208,0.281889,-0.638261,30,0.0170105,10,-0.000179919,-3.195,-0.0864376,-0.682573,16.9759,0.281889,
2,0,0,1,0,58291.8,0.280708,0.28038,-0.663766,30,0.0169854,10,-0.000186107,-3.17798,-0.098581,-0.598493,15.4781,0.2803804,
2,0,0,1,0,58291.8,0.279212,0.278887,-0.685902,30,0.0169596,10,-0.000191289,-3.16374,-0.105315,-0.560226,15.0137,0.278887,
2,0,0,1,0,58291.9,0.277716,0.277363,-0.710285,30,0.0169329,10,-0.000197006,-3.14857,-0.10281,-0.573876,15.8301,0.277363,
2,0,0,1,0,58291.9,0.276216,0.27587,-0.73469,30,0.0169052,10,-0.000202679,-3.1339,-0.123435,-0.477983,13.5465,0.27587,
2,0,0,1,0,58291.9,0.274716,0.274342,-0.751433,30,0.0168769,10,-0.000206149,-3.12411,-0.143896,-0.410017,11.9954,0.274342,
2,0,0,1,0,58292,0.27322,0.272887,-0.766992,30,0.0168479,10,-0.000209302,-3.11521,-0.150032,-0.39325,11.7562,0.272887,
2,0,0,1,0,58292,0.271725,0.271355,-0.78115,30,0.0168183,10,-0.000211969,-3.10727,-0.145958,-0.404227,12.4002,0.271355,
2,0,0,1,0,58292,0.270221,0.269863,-0.797895,30,0.0167878,10,-0.000215323,-3.09805,-0.184118,-0.320446,10.0433,0.269863,
2,0,0,1,0,58292.1,0.268725,0.26833,-0.819887,30,0.0167569,10,-0.00022,-3.08625,-0.198542,-0.297166,9.48032,0.26833,
2,0,0,1,0,58292.1,0.267228,0.266861,-0.830449,30,0.0167254,10,-0.000221615,-3.08069,-0.181402,-0.325245,10.5666,0.266861,
2,0,0,1,0,58292.2,0.265728,0.265397,-0.846851,30,0.0166934,10,-0.000224752,-3.07219,-0.198765,-0.296833,9.80926,0.265397,
2,0,0,1,0,58292.2,0.264228,0.263915,-0.863365,30,0.0166608,10,-0.000227855,-3.06381,-0.232876,-0.253353,8.483,0.263915,
2,0,0,1,0,58292.2,0.262732,0.262388,-0.876409,30,0.0166277,10,-0.00022996,-3.05729,-0.244678,-0.241133,8.22097,0.262388,
2,0,0,1,0,58292.3,0.261236,0.260888,-0.885719,30,0.0165941,10,-0.000231073,-3.0527,-0.301232,-0.195862,6.78419,0.260888,
2,0,0,1,0,58292.3,0.259736,0.259389,-0.901219,30,0.01656,10,-0.000233766,-3.04517,-0.23888,-0.246986,8.72287,0.259389,
2,0,0,1,0,58292.3,0.258236,0.257906,-0.908587,30,0.0165255,10,-0.00023433,-3.04163,-0.242241,-0.243559,8.69284,0.2579065,
2,0,0,1,0,58292.4,0.256741,0.256361,-0.922709,30,0.0164905,10,-0.000236547,-3.03494,-0.275136,-0.214439,7.72733,0.256361,
2,0,0,1,0,58292.4,0.255241,0.254909,-0.936508,30,0.0164549,10,-0.000238724,-3.02849,-0.327342,-0.18024,6.58387,0.254909,
2,0,0,1,0,58292.5,0.253741,0.253386,-0.946775,30,0.0164191,10,-0.0002399,-3.02375,-0.279314,-0.211232,7.79024,0.253386,
2,0,0,1,0,58292.5,0.252245,0.251922,-0.960829,30,0.0163828,10,-0.000242054,-3.01735,-0.263416,-0.223981,8.36236,0.251922,
2,0,0,1,0,58292.5,0.250748,0.250385,-0.970859,30,0.0163461,10,-0.000243088,-3.01284,-0.315963,-0.186731,7.06914,0.2503849,
2,0,0,1,0,58292.6,0.249248,0.248885,-0.982886,30,0.0163089,10,-0.000244625,-3.0075,-0.334468,-0.176399,6.75883,0.248885,
2,0,0,1,0,58292.6,0.247748,0.247374,-0.98808,30,0.0162714,10,-0.000244425,-3.00521,-0.354334,-0.16651,6.44084,0.247374,
2,0,0,1,0,58292.6,0.246252,0.245903,-1.00133,30,0.0162336,10,-0.00024623,-2.99942,-0.305333,-0.193232,7.55353,0.245903,
2,0,0,1,0,58292.7,0.244756,0.244356,-1.0133,30,0.0161953,10,-0.000247606,-2.99426,-0.322487,-0.182953,7.22459,0.244356,
2,0,0,1,0,58292.7,0.243252,0.242904,-1.02387,30,0.0161564,10,-0.000248702,-2.98975,-0.399144,-0.147816,5.87709,0.242904,
2,0,0,1,0,58292.8,0.241756,0.241413,-1.03282,30,0.0161174,10,-0.000249337,-2.98597,-0.35997,-0.163903,6.59011,0.241413,
2,0,0,1,0,58292.8,0.240261,0.239914,-1.04198,30,0.0160781,10,-0.000249986,-2.98214,-0.383585,-0.153812,6.23929,0.2399136,
2,0,0,1,0,58292.8,0.238761,0.238374,-1.05074,30,0.0160382,10,-0.00025047,-2.9785,-0.382373,-0.1543,6.32587,0.238374,
2,0,0,1,0,58292.9,0.237261,0.23688,-1.06038,30,0.015998,10,-0.000251183,-2.97454,-0.431995,-0.136576,5.65049,0.23688,
2,0,0,1,0,58292.9,0.235765,0.235423,-1.06707,30,0.0159576,10,-0.000251213,-2.97181,-0.430011,-0.137206,5.74309,0.235423,
2,0,0,1,0,58292.9,0.234268,0.233894,-1.07465,30,0.0159168,10,-0.000251353,-2.96873,-0.396268,-0.148889,6.28453,0.233894,
2,0,0,1,0,58293,0.232768,0.232412,-1.08552,30,0.0158756,10,-0.000252288,-2.96436,-0.331051,-0.17822,7.57333,0.232412,
2,0,0,1,0,58293,0.231268,0.23088,-1.09909,30,0.0158339,10,-0.000253759,-2.95897,-0.391872,-0.150559,6.442,0.23088,
2,0,0,1,0,58293.1,0.229772,0.229366,-1.11002,30,0.0157921,10,-0.0002546,-2.95467,-0.518981,-0.113684,4.90032,0.229366,
2,0,0,1,0,58293.1,0.228275,0.227924,-1.11728,30,0.0157499,10,-0.000254654,-2.95184,-0.522213,-0.112981,4.90851,0.227924,
2,0,0,1,0,58293.1,0.226772,0.226428,-1.12369,30,0.0157072,10,-0.000254435,-2.94935,-0.35522,-0.166094,7.29264,0.226428,
2,0,0,1,0,58293.2,0.225276,0.224905,-1.13555,30,0.0156644,10,-0.00025539,-2.94479,-0.426338,-0.138388,6.12215,0.224905,
2,0,0,1,0,58293.2,0.223781,0.223414,-1.13838,30,0.0156213,10,-0.00025433,-2.94371,-0.417519,-0.141311,6.30347,0.2234138,
2,0,0,1,0,58293.2,0.222281,0.221969,-1.14494,30,0.0155777,10,-0.000254141,-2.94122,-0.450046,-0.131098,5.89038,0.2219689,
2,0,0,1,0,58293.3,0.220781,0.220408,-1.15663,30,0.0155339,10,-0.000254931,-2.9368,-0.393746,-0.149843,6.77556,0.220408,
2,0,0,1,0,58293.3,0.219284,0.218924,-1.17308,30,0.0154897,10,-0.000256815,-2.93067,-0.400178,-0.147434,6.70567,0.218924,
2,0,0,1,0,58293.4,0.217788,0.217428,-1.17618,30,0.0154452,10,-0.000255736,-2.92952,-0.536573,-0.109957,5.03409,0.217428,
2,0,0,1,0,58293.4,0.216288,0.21595,-1.18266,30,0.0154003,10,-0.000255396,-2.92714,-0.488705,-0.120727,5.57865,0.21595,
2,0,0,1,0,58293.4,0.214788,0.214393,-1.19317,30,0.0153551,10,-0.000255808,-2.9233,-0.57712,-0.102232,4.77583,0.214393,
2,0,0,1,0,58293.5,0.213292,0.21295,-1.20068,30,0.0153097,10,-0.000255685,-2.92057,-0.505018,-0.116828,5.49399,0.21295,
2,0,0,1,0,58293.5,0.211796,0.21144,-1.20933,30,0.0152639,10,-0.000255701,-2.91746,-0.529085,-0.111513,5.27762,0.21144,
2,0,0,1,0,58293.5,0.210293,0.209945,-1.21841,30,0.0152176,10,-0.000255799,-2.91421,-0.51496,-0.114572,5.45392,0.209945,
2,0,0,1,0,58293.6,0.208797,0.208454,-1.22846,30,0.0151712,10,-0.000256077,-2.91064,-0.425361,-0.138706,6.66492,0.208454,
2,0,0,1,0,58293.6,0.207301,0.206932,-1.23829,30,0.0151246,10,-0.000256242,-2.90718,-0.425543,-0.138646,6.69273,0.206932,
2,0,0,1,0,58293.7,0.205801,0.205463,-1.24991,30,0.0150772,10,-0.000256811,-2.90312,-0.47033,-0.125444,6.08691,0.205463,
2,0,0,1,0,58293.7,0.204301,0.203911,-1.259,30,0.0150296,10,-0.000256724,-2.89997,-0.863843,-0.0682994,3.34652,0.203911,
2,0,0,1,0,58293.7,0.202804,0.202416,-1.26058,30,0.014982,10,-0.000255161,-2.89943,-0.55752,-0.105826,5.22183,0.202416,
2,0,0,1,0,58293.8,0.201308,0.200954,-1.2695,30,0.014934,10,-0.000255112,-2.89637,-0.444509,-0.132731,6.59867,0.200954,
2,0,0,1,0,58293.8,0.199808,0.199446,-1.27811,30,0.0148855,10,-0.000254914,-2.89343,-0.555906,-0.106133,5.31551,0.199446,
2,0,0,1,0,58293.8,0.198308,0.197906,-1.29146,30,0.0148367,10,-0.000255587,-2.88892,-0.531516,-0.111003,5.58685,0.197906,
2,0,0,1,0,58293.9,0.196812,0.196434,-1.29679,30,0.0147877,10,-0.000254734,-2.88713,-0.458298,-0.128737,6.5247,0.196434,
2,0,0,1,0,58293.9,0.195316,0.194935,-1.31062,30,0.0147384,10,-0.000255485,-2.88252,-0.369168,-0.159819,8.14915,0.194935,
2,0,0,1,0,58294,0.193813,0.193476,-1.32339,30,0.0146884,10,-0.000256045,-2.87831,-0.470795,-0.12532,6.42836,0.193476,
2,0,0,1,0,58294,0.192317,0.19193,-1.32974,30,0.0146383,10,-0.000255216,-2.87623,-0.4598,-0.128317,6.63019,0.19193,
2,0,0,1,0,58294,0.190821,0.19045,-1.33524,30,0.0145878,10,-0.000254296,-2.87444,-0.515762,-0.114394,5.97274,0.19045,
2,0,0,1,0,58294.1,0.189321,0.18892,-1.34561,30,0.014537,10,-0.000254213,-2.87108,-0.479665,-0.123003,6.46652,0.18892,
2,0,0,1,0,58294.1,0.187821,0.18741,-1.35466,30,0.0144857,10,-0.000253876,-2.86817,-0.450265,-0.131034,6.94717,0.1874097,
2,0,0,1,0,58294.1,0.186324,0.185965,-1.36727,30,0.0144342,10,-0.000254264,-2.86415,-0.535613,-0.110154,5.86062,0.185965,
2,0,0,1,0,58294.2,0.184828,0.184411,-1.37782,30,0.0143823,10,-0.000254084,-2.86081,-0.454319,-0.129865,6.95582,0.184411,
2,0,0,1,0,58294.2,0.183328,0.182932,-1.38652,30,0.0143299,10,-0.000253638,-2.85808,-0.421528,-0.139967,7.56661,0.182932,
2,0,0,1,0,58294.3,0.181828,0.181458,-1.39914,30,0.0142771,10,-0.000253884,-2.85414,-0.428433,-0.137711,7.50015,0.181458,
2,0,0,1,0,58294.3,0.180332,0.179986,-1.41185,30,0.014224,10,-0.000254113,-2.85021,-0.388014,-0.152056,8.35721,0.1799859,
2,0,0,1,0,58294.3,0.178836,0.178464,-1.41869,30,0.0141704,10,-0.000253184,-2.84811,-0.422289,-0.139715,7.76002,0.178464,
2,0,0,1,0,58294.4,0.177333,0.176959,-1.4316,30,0.0141162,10,-0.000253334,-2.84418,-0.475073,-0.124192,6.95289,0.176959,
2,0,0,1,0,58294.4,0.175837,0.175491,-1.44216,30,0.0140619,10,-0.000253086,-2.84099,-0.362091,-0.162942,9.18651,0.175491,
2,0,0,1,0,58294.4,0.174341,0.173957,-1.45686,30,0.014007,10,-0.00025343,-2.83658,-0.375746,-0.157021,8.92943,0.173957,
2,0,0,1,0,58294.5,0.172841,0.172461,-1.47194,30,0.0139515,10,-0.000253852,-2.83211,-0.421836,-0.139865,8.02075,0.172461,
2,0,0,1,0,58294.5,0.171341,0.170978,-1.48076,30,0.0138954,10,-0.000253178,-2.82952,-0.381925,-0.15448,8.94083,0.170978,
2,0,0,1,0,58294.6,0.169844,0.169497,-1.49972,30,0.0138391,10,-0.000254198,-2.82399,-0.342432,-0.172297,10.0842,0.169497,
2,0,0,1,0,58294.6,0.168348,0.16799,-1.51613,30,0.0137822,10,-0.000254694,-2.81926,-0.32435,-0.181902,10.7426,0.1679897,
2,0,0,1,0,58294.6,0.166848,0.166455,-1.53033,30,0.0137244,10,-0.000254732,-2.81521,-0.351956,-0.167635,9.99998,0.166455,
2,0,0,1,0,58294.7,0.165348,0.164979,-1.54537,30,0.0136661,10,-0.000254953,-2.81097,-0.315131,-0.187224,11.3351,0.164979,
2,0,0,1,0,58294.7,0.163852,0.16349,-1.5613,30,0.0136073,10,-0.000255256,-2.80651,-0.280355,-0.210448,12.8797,0.16349,
2,0,0,1,0,58294.7,0.162357,0.162023,-1.58117,30,0.0135478,10,-0.000256187,-2.80102,-0.250888,-0.235164,14.5433,0.162023,
2,0,0,1,0,58294.8,0.160853,0.160507,-1.60684,30,0.0134873,10,-0.000257909,-2.79403,-0.277628,-0.212515,13.2944,0.1605068,
2,0,0,1,0,58294.8,0.159357,0.159005,-1.62982,30,0.0134262,10,-0.000259149,-2.78786,-0.25237,-0.233784,14.8231,0.159005,
2,0,0,1,0,58294.9,0.157861,0.157493,-1.64764,30,0.0133644,10,-0.000259492,-2.78314,-0.224108,-0.263266,16.9643,0.157493,
2,0,0,1,0,58294.9,0.156361,0.156026,-1.67212,30,0.0133015,10,-0.000260894,-2.77673,-0.207498,-0.284339,18.6021,0.156026,
2,0,0,1,0,58294.9,0.154861,0.154489,-1.70593,30,0.0132374,10,-0.000263548,-2.76804,-0.192515,-0.30647,20.4237,0.154489,
2,0,0,1,0,58295,0.153364,0.152978,-1.73301,30,0.0131724,10,-0.000265112,-2.7612,-0.193174,-0.305424,20.7608,0.152978,
2,0,0,1,0,58295,0.151868,0.151492,-1.76442,30,0.0131063,10,-0.000267295,-2.7534,-0.179033,-0.329549,22.7966,0.151492,
2,0,0,1,0,58295,0.150368,0.149999,-1.80393,30,0.0130388,10,-0.000270588,-2.74378,-0.149015,-0.395933,27.8881,0.149999,
2,0,0,1,0,58295.1,0.148868,0.148511,-1.84773,30,0.0129697,10,-0.00027441,-2.73336,-0.142898,-0.412883,29.7238,0.148511,
2,0,0,1,0,58295.1,0.147372,0.147042,-1.8919,30,0.0128992,10,-0.000278189,-2.7231,-0.136268,-0.432972,31.9669,0.147042,
2,0,0,1,0,58295.2,0.145877,0.145485,-1.93775,30,0.012827,10,-0.000281913,-2.7127,-0.13029,-0.452835,34.3135,0.145485,
2,0,0,1,0,58295.2,0.144373,0.143997,-1.99471,30,0.0127525,10,-0.000287232,-2.70012,-0.115366,-0.511417,39.9378,0.143997,
2,0,0,1,0,58295.2,0.142877,0.142513,-2.05523,30,0.0126762,10,-0.000292897,-2.68714,-0.110575,-0.533576,42.9248,0.142513,
2,0,0,1,0,58295.3,0.14138,0.141021,-2.12126,30,0.0125973,10,-0.000299141,-2.67341,-0.107328,-0.549718,45.5953,0.141021,
2,0,0,1,0,58295.3,0.13988,0.139489,-2.19597,30,0.0125157,10,-0.000306312,-2.65837,-0.0978053,-0.60324,51.8289,0.139489,
2,0,0,1,0,58295.3,0.13838,0.13798,-2.27295,30,0.0124313,10,-0.000313622,-2.64341,-0.0984805,-0.599103,53.2704,0.13798,
2,0,0,1,0,58295.4,0.136884,0.136494,-2.36263,30,0.012344,10,-0.000322484,-2.6266,-0.0953084,-0.619043,56.9937,0.136494,
2,0,0,1,0,58295.4,0.135388,0.135018,-2.45117,30,0.0122535,10,-0.000330951,-2.61063,-0.0943151,-0.625562,59.702,0.135018,
2,0,0,1,0,58295.5,0.133888,0.133565,-2.53873,30,0.0121594,10,-0.000339086,-2.59538,-0.0944754,-0.624501,61.8518,0.133565,
2,0,0,1,0,58295.5,0.132389,0.132017,-2.63165,30,0.0120618,10,-0.000347422,-2.57977,-0.0947117,-0.622943,63.9783,0.1320166,
2,0,0,1,0,58295.5,0.130893,0.130508,-2.72964,30,0.0119609,10,-0.000356239,-2.5639,-0.0964367,-0.6118,65.1651,0.130508,
2,0,0,1,0,58295.6,0.129393,0.129036,-2.82313,30,0.0118561,10,-0.000364286,-2.54927,-0.102073,-0.578019,63.7356,0.129036,
2,0,0,1,0,58295.6,0.127893,0.127529,-2.92033,30,0.0117476,10,-0.000372426,-2.53457,-0.107664,-0.548002,62.4129,0.127529,
2,0,0,1,0,58295.6,0.126397,0.126028,-3.01152,30,0.011636,10,-0.000379535,-2.52121,-0.11422,-0.516547,60.6701,0.126028,
2,0,0,1,0,58295.7,0.1249,0.124522,-3.10571,30,0.011521,10,-0.000386731,-2.50784,-0.115845,-0.509302,61.5515,0.124522,
2,0,0,1,0,58295.7,0.1234,0.123034,-3.19689,30,0.0114022,10,-0.000393326,-2.49527,-0.123515,-0.477675,59.4352,0.123034,
2,0,0,1,0,58295.8,0.1219,0.121549,-3.28228,30,0.0112801,10,-0.000398957,-2.48382,-0.140431,-0.420134,53.685,0.121549,
2,0,0,1,0,58295.8,0.120404,0.120075,-3.35548,30,0.0111552,10,-0.000402909,-2.47425,-0.146733,-0.40209,52.7026,0.120075,
2,0,0,1,0,58295.8,0.118908,0.11855,-3.44011,30,0.0110274,10,-0.000407825,-2.46343,-0.152771,-0.3862,51.9001,0.11855,
2,0,0,1,0,58295.9,0.117404,0.117055,-3.51696,30,0.0108959,10,-0.000411679,-2.45383,-0.161856,-0.364522,49.9572,0.117055,
2,0,0,1,0,58295.9,0.115909,0.115579,-3.58654,30,0.0107623,10,-0.000414527,-2.44532,-0.183305,-0.321868,44.9707,0.115579,
2,0,0,1,0,58295.9,0.114413,0.114023,-3.65725,30,0.0106262,10,-0.000417012,-2.43685,-0.207337,-0.284561,40.4969,0.114023,
2,0,0,1,0,58296,0.112913,0.112539,-3.71457,30,0.0104875,10,-0.000418034,-2.43009,-0.220572,-0.267487,38.6931,0.112539,
2,0,0,1,0,58296,0.111413,0.111054,-3.76969,30,0.0103465,10,-0.00041864,-2.42369,-0.23982,-0.246018,36.1169,0.111054,
2,0,0,1,0,58296.1,0.109917,0.109536,-3.82006,30,0.0102039,10,-0.000418433,-2.41793,-0.274349,-0.215055,32.0108,0.109536,
2,0,0,1,0,58296.1,0.10842,0.108093,-3.86166,30,0.0100596,10,-0.000417419,-2.41323,-0.355195,-0.166106,25.0103,0.108093,
2,0,0,1,0,58296.1,0.10692,0.106548,-3.8946,30,0.00991349,10,-0.000414962,-2.40954,-0.425186,-0.138763,21.0975,0.106548,
2,0,0,1,0,58296.2,0.10542,0.105059,-3.92482,30,0.00976617,10,-0.000412337,-2.40618,-0.489149,-0.120618,18.4593,0.105059,
2,0,0,1,0,58296.2,0.103924,0.103527,-3.95483,30,0.0096182,10,-0.000409433,-2.40287,-0.749986,-0.0786681,12.1044,0.103527,
2,0,0,1,0,58296.2,0.102427,0.102058,-3.96703,30,0.00946951,10,-0.000404865,-2.40153,-1.2482,-0.047268,7.29809,0.102058,
2,0,0,1,0,58296.3,0.100924,0.100571,-3.97332,30,0.00931966,10,-0.000399601,-2.40085,-3.84375,-0.0153496,2.37509,0.1005711,
2,0,0,1,0,58296.3,0.0994284,0.0990874,-3.97245,30,0.00917045,10,-0.00039362,-2.40094,18.1098,0.00325791,-0.504411,0.0990874,
2,0,0,1,0,58296.4,0.0979329,0.0975434,-3.97174,30,0.00902126,10,-0.000387417,-2.40102,2.25336,0.0261831,-4.05177,0.0975434,
2,0,0,1,0,58296.4,0.0964329,0.0960608,-3.96104,30,0.00887187,10,-0.0003805,-2.40219,1.20645,0.0489038,-7.5513,0.0960608,
2,0,0,1,0,58296.4,0.094933,0.0945536,-3.94346,30,0.00872292,10,-0.000372869,-2.40412,0.833408,0.0707937,-10.9081,0.0945536,
2,0,0,1,0,58296.5,0.0934366,0.0930531,-3.93051,30,0.00857501,10,-0.000365746,-2.40555,0.768004,0.0768225,-11.79,0.0930531,
2,0,0,1,0,58296.5,0.0919401,0.0915944,-3.91332,30,0.0084277,10,-0.000358438,-2.40746,0.700722,0.0841988,-12.8516,0.0915944,
2,0,0,1,0,58296.5,0.0904402,0.0900597,-3.89676,30,0.00828066,10,-0.000350941,-2.4093,0.550462,0.107183,-16.2567,0.0900597,
2,0,0,1,0,58296.6,0.0889402,0.0885711,-3.86971,30,0.00813445,10,-0.000342745,-2.41232,0.55029,0.107216,-16.1719,0.0885711,
2,0,0,1,0,58296.6,0.0874438,0.0871004,-3.84415,30,0.00798966,10,-0.000334827,-2.4152,0.559379,0.105474,-15.8294,0.0871004,
2,0,0,1,0,58296.6,0.0859483,0.0855959,-3.82381,30,0.0078457,10,-0.000327303,-2.4175,0.602385,0.0979441,-14.6002,0.0855959,
2,0,0,1,0,58296.7,0.0844447,0.0840853,-3.79697,30,0.00770178,10,-0.000319269,-2.42056,0.67486,0.0874256,-12.9802,0.0840853,
2,0,0,1,0,58296.7,0.0829492,0.0826048,-3.77665,30,0.00755948,10,-0.00031197,-2.42289,0.557048,0.105916,-15.6192,0.0826048,
2,0,0,1,0,58296.8,0.0814528,0.0810603,-3.7542,30,0.007418,10,-0.000304316,-2.42548,0.628785,0.0938318,-13.7653,0.0810603,
2,0,0,1,0,58296.8,0.0799528,0.0796127,-3.73445,30,0.00727694,10,-0.00029731,-2.42777,0.68328,0.0863483,-12.5921,0.0796127,
2,0,0,1,0,58296.8,0.0784529,0.0780722,-3.72239,30,0.00713654,10,-0.000290616,-2.42918,0.79596,0.0741243,-10.7538,0.07807225,
2,0,0,1,0,58296.9,0.0769565,0.0765783,-3.70438,30,0.00699715,10,-0.000283675,-2.43128,0.74558,0.079133,-11.4251,0.0765783,
2,0,0,1,0,58296.9,0.0754601,0.0750304,-3.68193,30,0.00685841,10,-0.000276257,-2.43392,0.83912,0.0703117,-10.1119,0.0750304,
2,0,0,1,0,58296.9,0.0739601,0.0735665,-3.66684,30,0.00671996,10,-0.000269756,-2.43571,0.842015,0.07007,-10.035,0.0735665,
2,0,0,1,0,58297,0.0724601,0.0720751,-3.65217,30,0.00658202,10,-0.000263231,-2.43745,0.821685,0.0718036,-10.2453,0.0720751,
2,0,0,1,0,58297,0.0709637,0.070572,-3.64132,30,0.00644503,10,-0.000256975,-2.43874,0.731966,0.0806049,-11.4483,0.070572,
2,0,0,1,0,58297.1,0.0694682,0.0691246,-3.6219,30,0.0063086,10,-0.000250363,-2.44106,0.85772,0.068787,-9.72331,0.0691246,
2,0,0,1,0,58297.1,0.0679646,0.0675836,-3.60559,30,0.00617211,10,-0.000243679,-2.44302,0.821441,0.071825,-10.1224,0.0675836,
2,0,0,1,0,58297.1,0.0664691,0.0660876,-3.59737,30,0.00603685,10,-0.000237742,-2.44401,0.938141,0.0628903,-8.81653,0.0660876,
2,0,0,1,0,58297.2,0.0649727,0.0645983,-3.58102,30,0.00590205,10,-0.000231328,-2.44599,0.750298,0.0786354,-10.9713,0.0645983,
2,0,0,1,0,58297.2,0.0634727,0.0631393,-3.56269,30,0.00576747,10,-0.000224946,-2.44822,0.665586,0.0886436,-12.3251,0.0631393,
2,0,0,1,0,58297.2,0.0619728,0.0615612,-3.54394,30,0.00563362,10,-0.000218169,-2.45051,0.688621,0.0856785,-11.8627,0.0615612,
2,0,0,1,0,58297.3,0.0604764,0.0601179,-3.525,30,0.0055007,10,-0.000211915,-2.45284,0.750014,0.0786652,-10.8367,0.0601179,
2,0,0,1,0,58297.3,0.05898,0.0585751,-3.50961,30,0.0053684,10,-0.000205576,-2.45474,0.675876,0.0872941,-11.9658,0.0585751,
2,0,0,1,0,58297.4,0.05748,0.0571228,-3.49235,30,0.00523641,10,-0.000199493,-2.45688,0.607728,0.0970829,-13.2343,0.0571228,
2,0,0,1,0,58297.4,0.05598,0.0556266,-3.47514,30,0.0051052,10,-0.00019331,-2.45903,0.602661,0.0978991,-13.2729,0.0556266,
2,0,0,1,0,58297.4,0.0544836,0.0541305,-3.45978,30,0.004975,10,-0.000187279,-2.46095,0.834566,0.0706955,-9.53074,0.0541305,
2,0,0,1,0,58297.5,0.0529881,0.05262,-3.44349,30,0.00484538,10,-0.000181196,-2.463,0.704158,0.083788,-11.2403,0.05262,
2,0,0,1,0,58297.5,0.0514846,0.0511397,-3.42222,30,0.0047157,10,-0.000175011,-2.46569,0.601197,0.0981376,-13.1007,0.0511397,
2,0,0,1,0,58297.5,0.049989,0.049624,-3.39575,30,0.00458752,10,-0.000168511,-2.46906,0.573631,0.102854,-13.6609,0.049624,
2,0,0,1,0,58297.6,0.0484926,0.0481236,-3.37836,30,0.00446011,10,-0.000162578,-2.47129,0.602368,0.0979468,-12.9367,0.0481236,
2,0,0,1,0,58297.6,0.0469927,0.0466422,-3.35979,30,0.00433305,10,-0.000156708,-2.47369,0.657794,0.0896938,-11.7648,0.0466422,
2,0,0,1,0,58297.7,0.0454927,0.0451216,-3.34479,30,0.00420671,10,-0.000150922,-2.47563,0.53069,0.111176,-14.4882,0.0451216,
2,0,0,1,0,58297.7,0.0439963,0.0436403,-3.32119,30,0.00408146,10,-0.000144937,-2.47871,0.518203,0.113855,-14.7483,0.0436403,
2,0,0,1,0,58297.7,0.0424999,0.0421274,-3.30213,30,0.00395711,10,-0.00013911,-2.48121,0.549086,0.107451,-13.8396,0.04212743,
2,0,0,1,0,58297.8,0.0409999,0.0406545,-3.2815,30,0.00383312,10,-0.000133408,-2.48393,0.532582,0.110781,-14.1789,0.0406545,
2,0,0,1,0,58297.8,0.0394999,0.0391478,-3.25809,30,0.00370987,10,-0.000127547,-2.48704,0.508708,0.11598,-14.7413,0.0391478,
2,0,0,1,0,58297.8,0.0380044,0.0376387,-3.23515,30,0.00358779,10,-0.000121767,-2.49011,0.498194,0.118428,-14.9457,0.0376387,
2,0,0,1,0,58297.9,0.0365089,0.0361117,-3.20849,30,0.00346668,10,-0.000115864,-2.4937,0.503353,0.117214,-14.7016,0.0361117,
2,0,0,1,0,58297.9,0.0350054,0.0346307,-3.18797,30,0.0033458,10,-0.000110402,-2.49649,0.494033,0.119425,-14.8642,0.0346307,
2,0,0,1,0,58298,0.0335089,0.0331266,-3.1629,30,0.00322638,10,-0.000104776,-2.49991,0.439574,0.134221,-16.5678,0.0331266,
2,0,0,1,0,58298,0.0320125,0.0316035,-3.14329,30,0.00310782,10,-9.9339e-05,-2.50262,0.456489,0.129247,-15.8316,0.0316035,
2,0,0,1,0,58298,0.0305126,0.0301739,-3.11318,30,0.00298992,10,-9.39365e-05,-2.5068,0.428309,0.137751,-16.7336,0.0301739,
2,0,0,1,0,58298.1,0.0290126,0.0286426,-3.09117,30,0.00287297,10,-8.85392e-05,-2.50988,0.471754,0.125065,-15.0842,0.0286426,
2,0,0,1,0,58298.1,0.0275162,0.0271579,-3.07089,30,0.00275719,10,-8.33989e-05,-2.51274,0.461491,0.127846,-15.3119,0.0271579,
2,0,0,1,0,58298.1,0.0260198,0.025645,-3.04329,30,0.00264223,10,-7.80451e-05,-2.51666,0.407542,0.14477,-17.202,0.025645,
2,0,0,1,0,58298.2,0.0245198,0.0241105,-3.01555,30,0.00252788,10,-7.27064e-05,-2.52063,0.430656,0.137,-16.1682,0.0241105,
2,0,0,1,0,58298.2,0.0230198,0.0226326,-2.99601,30,0.00241455,10,-6.78076e-05,-2.52346,0.44264,0.133291,-15.5938,0.0226326,
2,0,0,1,0,58298.3,0.0215243,0.0211339,-2.97624,30,0.00230232,10,-6.28998e-05,-2.52633,0.494741,0.119254,-13.8333,0.0211339,
2,0,0,1,0,58298.3,0.0200288,0.019604,-2.95655,30,0.00219085,10,-5.79604e-05,-2.52921,0.449008,0.131401,-15.1176,0.019604,
2,0,0,1,0,58298.3,0.0185253,0.0181328,-2.93068,30,0.00207961,10,-5.31415e-05,-2.53303,0.45007,0.131091,-14.978,0.0181328,
2,0,0,1,0,58298.4,0.0170289,0.0166378,-2.90838,30,0.00196988,10,-4.83893e-05,-2.53635,0.502366,0.117444,-13.3536,0.0166378,
2,0,0,1,0,58298.4,0.0155325,0.0151714,-2.89107,30,0.00186087,10,-4.38615e-05,-2.53894,0.561495,0.105077,-11.8547,0.0151714,
2,0,0,1,0,58298.4,0.0140325,0.0136225,-2.87178,30,0.00175211,10,-3.91208e-05,-2.54185,0.590099,0.0999833,-11.215,0.0136225,
2,0,0,1,0,58298.5,0.0125325,0.0121082,-2.85317,30,0.00164411,10,-3.45467e-05,-2.54467,0.494518,0.119308,-13.3074,0.0121082,
2,0,0,1,0,58298.5,0.0110361,0.0107007,-2.83436,30,0.00153713,10,-3.03295e-05,-2.54755,0.599076,0.0984849,-10.9141,0.0107007,
2,0,0,1,0,58298.6,0.0095397,0.00919226,-2.82424,30,0.0014307,10,-2.59611e-05,-2.5491,0.814961,0.0723961,-7.97116,0.00919226,
2,0,0,1,0,58298.6,0.00803616,0.00765011,-2.81299,30,0.00132419,10,-2.15197e-05,-2.55083,0.850448,0.0693752,-7.60775,0.00765011,
2,0,0,1,0,58298.6,0.00654064,0.00615993,-2.79731,30,0.00121872,10,-1.72312e-05,-2.55326,0.68625,0.0859745,-9.37671,0.00615993,
2,0,0,1,0,58298.7,0.00504513,0.00468101,-2.78173,30,0.00111377,10,-1.30213e-05,-2.55568,0.849057,0.0694889,-7.55014,0.00468101,
2,0,0,1,0,58298.7,0.00354515,0.00318858,-2.76711,30,0.00100905,10,-8.82315e-06,-2.55797,11.8203,0.00499143,-0.542337,0.00318858,
2,0,0,1,0,58298.7,0.00204518,0.00165925,-2.79129,30,0.000904387,10,-4.63143e-06,-2.5542,2.69111,0.021924,-2.37128,0.00165925,
2,0,0,1,0,58298.8,0.000548773,0.000122547,-2.76577,30,0.000799827,10,-3.38936e-07,-2.55818, , , ,0.000122547,
2,0,0,1,0,58298.8,0.000177222,-0.000234086,-2.76674,30,0.000773933,10,6.47655e-07,-2.55803, , , ,-0.000234086,