File: Figure_codes/Fig_3-5/rawdata_trumpetplot_data/after 10th/20221101_1-115_003_TrumpetPlot_ParaChange_from10_every3_12_CV_C01_34.csv
mode,ox/red,error,control changes,counter inc.,time/s,control/V,Ewe/V,<I>/mA,cycle number,(Q-Qo)/C,I Range,P/W,log(|I|),Tafel slope mV/dec,alpha_eff,dI/d(E-IR),E-IR/V,
2,1,0,1,0,68181,2.44065e-05,-0.000287149,14.5433,35,0.0000000E+000,10,-4.1761e-06,-1.83734, , , ,-0.0002871489,
2,1,0,1,0,68181,0.00200257,0.00162158,15.4592,35,4.69242e-05,10,2.50683e-05,-1.81081, , , ,0.00162158,
2,1,0,1,0,68181,0.004408,0.0040022,16.2278,35,0.000110448,10,6.49466e-05,-1.78974, , , ,0.0040022,
2,1,0,1,0,68181,0.0068051,0.00649203,16.8403,35,0.000176665,10,0.000109328,-1.77365,0.151919,0.388366,252.249,0.00649203,
2,1,0,1,0,68181,0.00920221,0.00884295,17.3856,35,0.000245191,10,0.00015374,-1.75981,0.179399,0.328875,221.74,0.00884295,
2,1,0,1,0,68181,0.0115993,0.0112395,17.8853,35,0.000315797,10,0.000201021,-1.7475,0.197492,0.298747,207.73,0.01123947,
2,1,0,1,0,68181,0.0140075,0.0136583,18.3689,35,0.000388365,10,0.000250887,-1.73592,0.21817,0.270431,193.115,0.0136583,
2,1,0,1,0,68181,0.0164046,0.0160728,18.8305,35,0.000462806,10,0.00030266,-1.72514,0.23518,0.250871,183.639,0.0160728,
2,1,0,1,0,68181,0.0188017,0.0184513,19.2411,35,0.000538989,10,0.000355024,-1.71577,0.255549,0.230876,172.883,0.0184513,
2,1,0,1,0,68181,0.0212099,0.0208786,19.6554,35,0.000616819,10,0.000410377,-1.70652,0.276193,0.213618,163.429,0.0208786,
2,1,0,1,0,68181,0.023607,0.0232634,20.0295,35,0.000696228,10,0.000465954,-1.69833,0.292557,0.20167,157.34,0.0232634,
2,1,0,1,0,68181,0.0260041,0.0256557,20.3967,35,0.000777113,10,0.000523291,-1.69044,0.308969,0.190958,151.834,0.0256557,
2,1,0,1,0,68181,0.0284012,0.0281052,20.7601,35,0.000859457,10,0.000583467,-1.68277,0.325941,0.181014,146.407,0.0281052,
2,1,0,1,0,68181,0.0308067,0.030453,21.1091,35,0.000943248,10,0.000642836,-1.67553,0.3438,0.171611,141.095,0.03045298,
2,1,0,1,0,68181,0.0332038,0.0328665,21.4354,35,0.00102838,10,0.000704506,-1.66887,0.358716,0.164475,137.421,0.0328665,
2,1,0,1,0,68181,0.0356009,0.0352609,21.7519,35,0.00111479,10,0.000766991,-1.6625,0.379245,0.155572,131.993,0.03526086,
2,1,0,1,0,68181,0.0380091,0.0376404,22.0704,35,0.00120246,10,0.000830739,-1.65619,0.388649,0.151808,130.661,0.0376404,
2,1,0,1,0,68181,0.0404062,0.0401016,22.3827,35,0.0012914,10,0.000897581,-1.65009,0.406193,0.145251,126.721,0.0401016,
2,1,0,1,0,68181,0.0428033,0.042425,22.6843,35,0.00138156,10,0.000962382,-1.64427,0.422263,0.139723,123.565,0.042425,
2,1,0,1,0,68181,0.0452032,0.0448586,22.9681,35,0.00147289,10,0.00103032,-1.63887,0.438974,0.134404,120.4,0.0448586,
2,1,0,1,0,68181,0.0476058,0.04727,23.2603,35,0.00156539,10,0.00109951,-1.63338,0.454518,0.129808,117.767,0.04727,
2,1,0,1,0,68181,0.0500029,0.0496644,23.534,35,0.00165902,10,0.0011688,-1.6283,0.452794,0.130302,119.704,0.04966436,
2,1,0,1,0,68181,0.0524,0.0520524,23.8181,35,0.00175375,10,0.00123979,-1.62309,0.469945,0.125547,116.68,0.0520524,
2,1,0,1,0,68181,0.0548082,0.0544797,24.1198,35,0.00184965,10,0.00131404,-1.61763,0.479145,0.123136,115.742,0.05447967,
2,1,0,1,0,68181,0.0572053,0.0568306,24.3758,35,0.00194668,10,0.00138529,-1.61304,0.488243,0.120841,114.913,0.0568306,
2,1,0,1,0,68181.1,0.0596024,0.0592536,24.6439,35,0.00204475,10,0.00146024,-1.60829,0.505564,0.116701,112.289,0.0592536,
2,1,0,1,0,68181.1,0.0620051,0.0616671,24.923,35,0.00214391,10,0.00153693,-1.6034,0.501074,0.117747,114.525,0.0616671,
2,1,0,1,0,68181.1,0.0644077,0.0640721,25.1969,35,0.00224418,10,0.00161442,-1.59865,0.505279,0.116767,114.797,0.0640721,
2,1,0,1,0,68181.1,0.0668048,0.0664442,25.4768,35,0.00234555,10,0.00169279,-1.59385,0.513592,0.114877,114.17,0.0664442,
2,1,0,1,0,68181.1,0.0692019,0.0688577,25.7464,35,0.00244803,10,0.00177284,-1.58928,0.52537,0.112302,112.792,0.0688577,
2,1,0,1,0,68181.1,0.0716074,0.0712405,26.016,35,0.00255157,10,0.00185339,-1.58476,0.534371,0.11041,112.084,0.0712405,
2,1,0,1,0,68181.1,0.0740045,0.0736847,26.2812,35,0.0026562,10,0.00193652,-1.58036,0.53279,0.110738,113.613,0.0736847,
2,1,0,1,0,68181.1,0.0764016,0.0760558,26.5541,35,0.00276191,10,0.00201959,-1.57587,0.537695,0.109728,113.745,0.0760558,
2,1,0,1,0,68181.1,0.0788042,0.0784671,26.8382,35,0.00286872,10,0.00210591,-1.57125,0.539025,0.109457,114.592,0.0784671,
2,1,0,1,0,68181.1,0.0812069,0.0809008,27.1148,35,0.00297666,10,0.00219361,-1.56679,0.54477,0.108303,114.54,0.0809008,
2,1,0,1,0,68181.1,0.083604,0.0832517,27.3775,35,0.00308566,10,0.00227922,-1.56261,0.543848,0.108486,115.966,0.0832517,
2,1,0,1,0,68181.1,0.0860011,0.0856355,27.6514,35,0.00319575,10,0.00236794,-1.55828,0.548973,0.107473,116.03,0.0856355,
2,1,0,1,0,68181.1,0.0884065,0.0880479,27.9492,35,0.003307,10,0.00246087,-1.55363,0.550075,0.107258,116.929,0.0880479,
2,1,0,1,0,68181.1,0.0908036,0.0904211,28.2194,35,0.00341936,10,0.00255163,-1.54945,0.555496,0.106211,116.934,0.0904211,
2,1,0,1,0,68181.1,0.0932007,0.0928282,28.4972,35,0.00353283,10,0.00264535,-1.5452,0.569139,0.103665,115.302,0.0928282,
2,1,0,1,0,68181.1,0.0956034,0.0952586,28.7767,35,0.00364741,10,0.00274123,-1.54096,0.567761,0.103917,116.712,0.0952586,
2,1,0,1,0,68181.1,0.098006,0.0976584,29.0573,35,0.0037631,10,0.00283769,-1.53674,0.573604,0.102858,116.63,0.0976584,
2,1,0,1,0,68181.1,0.100403,0.10006,29.3444,35,0.00387993,10,0.00293621,-1.53247,0.572056,0.103137,118.1,0.10006,
2,1,0,1,0,68181.1,0.1028,0.102437,29.6179,35,0.00399787,10,0.00303395,-1.52845,0.577028,0.102248,118.198,0.102437,
2,1,0,1,0,68181.1,0.105208,0.104873,29.9122,35,0.00411698,10,0.00313699,-1.52415,0.585199,0.10082,117.662,0.104873,
2,1,0,1,0,68181.1,0.107606,0.107247,30.1906,35,0.0042372,10,0.00323784,-1.52013,0.571638,0.103212,121.641,0.107247,
2,1,0,1,0,68181.1,0.110003,0.109627,30.4701,35,0.00435854,10,0.00334035,-1.51613,0.576864,0.102277,121.703,0.109627,
2,1,0,1,0,68181.1,0.112408,0.112044,30.7865,35,0.00448109,10,0.00344944,-1.51164,0.576358,0.102367,122.955,0.112044,
2,1,0,1,0,68181.1,0.114805,0.114431,31.0753,35,0.00460486,10,0.00355597,-1.50758,0.572759,0.10301,124.892,0.114431,
2,1,0,1,0,68181.1,0.117202,0.116841,31.3703,35,0.00472979,10,0.00366534,-1.50348,0.588545,0.100247,122.746,0.116841,
2,1,0,1,0,68181.2,0.119599,0.119239,31.6705,35,0.00485589,10,0.00377635,-1.49935,0.574637,0.102674,126.957,0.1192387,
2,1,0,1,0,68181.2,0.122008,0.12168,31.9693,35,0.00498322,10,0.00389001,-1.49527,0.572506,0.103056,128.629,0.12168,
2,1,0,1,0,68181.2,0.124405,0.124074,32.2996,35,0.00511178,10,0.00400755,-1.4908,0.575856,0.102456,129.084,0.124074,
2,1,0,1,0,68181.2,0.126802,0.126411,32.6013,35,0.0052416,10,0.00412118,-1.48676,0.561142,0.105143,133.776,0.126411,
2,1,0,1,0,68181.2,0.129207,0.128784,32.9027,35,0.00537265,10,0.00423736,-1.48277,0.561331,0.105107,135.124,0.128784,
2,1,0,1,0,68181.2,0.131604,0.131191,33.2416,35,0.00550494,10,0.00436098,-1.47832,0.541867,0.108883,141.399,0.131191,
2,1,0,1,0,68181.2,0.134001,0.133627,33.5905,35,0.00563868,10,0.00448861,-1.47378,0.523241,0.112759,147.92,0.133627,
2,1,0,1,0,68181.2,0.136399,0.13601,33.9586,35,0.00577381,10,0.00461871,-1.46905,0.523789,0.112641,149.272,0.13601,
2,1,0,1,0,68181.2,0.138807,0.138464,34.3345,35,0.00591045,10,0.00475409,-1.46427,0.528186,0.111703,149.56,0.138464,
2,1,0,1,0,68181.2,0.141204,0.140834,34.6811,35,0.00604851,10,0.00488427,-1.45991,0.537444,0.109779,148.531,0.140834,
2,1,0,1,0,68181.2,0.143601,0.143282,35.0345,35,0.00618797,10,0.00501982,-1.4555,0.549167,0.107436,146.897,0.143282,
2,1,0,1,0,68181.2,0.146009,0.145635,35.3882,35,0.00632885,10,0.00515378,-1.45114,0.559144,0.105518,145.692,0.145635,
2,1,0,1,0,68181.2,0.148406,0.148064,35.7447,35,0.00647116,10,0.00529249,-1.44679,0.565047,0.104416,145.579,0.148064,
2,1,0,1,0,68181.2,0.150803,0.150477,36.086,35,0.00661485,10,0.00543012,-1.44266,0.580866,0.101572,142.987,0.1504772,
2,1,0,1,0,68181.2,0.153206,0.152825,36.4237,35,0.00675991,10,0.00556645,-1.43862,0.597524,0.0987409,140.317,0.152825,
2,1,0,1,0,68181.2,0.155606,0.155244,36.7621,35,0.00690633,10,0.00570709,-1.4346,0.610972,0.0965675,138.479,0.155244,
2,1,0,1,0,68181.2,0.158003,0.157641,37.0886,35,0.00705408,10,0.00584669,-1.43076,0.626794,0.0941298,136.198,0.157641,
2,1,0,1,0,68181.2,0.1604,0.160042,37.4105,35,0.00720311,10,0.00598726,-1.42701,0.654181,0.0901891,131.606,0.160042,
2,1,0,1,0,68181.2,0.162808,0.162445,37.7339,35,0.00735344,10,0.00612968,-1.42327,0.689774,0.0855353,125.812,0.162445,
2,1,0,1,0,68181.2,0.165205,0.164844,38.0255,35,0.00750499,10,0.00626826,-1.41992,0.715746,0.0824315,122.228,0.164844,
2,1,0,1,0,68181.2,0.167602,0.167235,38.2956,35,0.00765768,10,0.00640435,-1.41685,0.769112,0.0767118,114.61,0.167235,
2,1,0,1,0,68181.2,0.170008,0.169639,38.5835,35,0.00781148,10,0.00654526,-1.4136,0.810314,0.0728112,109.533,0.169639,
2,1,0,1,0,68181.2,0.172405,0.172061,38.836,35,0.00796637,10,0.00668214,-1.41077,0.875921,0.0673577,101.953,0.172061,
2,1,0,1,0,68181.2,0.174802,0.174399,39.0721,35,0.00812221,10,0.00681414,-1.40813,0.986786,0.0597901,91.0537,0.1743989,
2,1,0,1,0,68181.2,0.177199,0.176855,39.2763,35,0.00827896,10,0.00694621,-1.40587,1.11317,0.0530018,81.1355,0.176855,
2,1,0,1,0,68181.3,0.179607,0.179297,39.4629,35,0.00843647,10,0.00707558,-1.40381,1.30015,0.0453795,69.7907,0.179297,
2,1,0,1,0,68181.3,0.182005,0.181668,39.6155,35,0.00859464,10,0.00719686,-1.40214,1.54627,0.0381562,58.9067,0.181668,
2,1,0,1,0,68181.3,0.184402,0.184024,39.7439,35,0.00875338,10,0.00731384,-1.40073,2.00335,0.0294507,45.6073,0.184024,
2,1,0,1,0,68181.3,0.18681,0.186444,39.8412,35,0.00891255,10,0.00742816,-1.39967,2.97343,0.0198424,30.792,0.186444,
2,1,0,1,0,68181.3,0.189207,0.188849,39.8986,35,0.00907204,10,0.00753481,-1.39904,5.41932,0.010887,16.9212,0.188849,
2,1,0,1,0,68181.3,0.191604,0.191264,39.9109,35,0.00923168,10,0.00763351,-1.39891,21.3547,0.00276286,4.29814,0.191264,
2,1,0,1,0,68181.3,0.194001,0.193668,39.9071,35,0.00939132,10,0.00772871,-1.39895,-8.95411,-0.00658916,-10.2474,0.193668,
2,1,0,1,0,68181.3,0.196407,0.196086,39.8827,35,0.00955092,10,0.00782045,-1.39922,-3.93328,-0.0150002,-23.2989,0.196086,
2,1,0,1,0,68181.3,0.198804,0.198483,39.7999,35,0.00971028,10,0.00789959,-1.40012,-2.46927,-0.0238937,-37.0473,0.198483,
2,1,0,1,0,68181.3,0.201201,0.200845,39.6877,35,0.00986926,10,0.00797109,-1.40134,-1.67733,-0.0351749,-54.3922,0.200845,
2,1,0,1,0,68181.3,0.203609,0.203257,39.5518,35,0.0100277,10,0.00803918,-1.40283,-1.38463,-0.0426107,-65.662,0.203257,
2,1,0,1,0,68181.3,0.206006,0.205635,39.3633,35,0.0101855,10,0.00809448,-1.40491,-1.15422,-0.051117,-78.4159,0.205635,
2,1,0,1,0,68181.3,0.208403,0.208049,39.1718,35,0.0103426,10,0.00814964,-1.40703,-0.976236,-0.0604362,-92.2357,0.208049,
2,1,0,1,0,68181.3,0.210803,0.210511,38.9297,35,0.0104988,10,0.00819514,-1.40972,-0.859281,-0.068662,-104.131,0.210511,
2,1,0,1,0,68181.3,0.213206,0.212897,38.6627,35,0.010654,10,0.00823116,-1.41271,-0.744152,-0.0792849,-119.42,0.212897,
2,1,0,1,0,68181.3,0.215603,0.215266,38.3604,35,0.010808,10,0.00825769,-1.41612,-0.688436,-0.0857015,-128.135,0.215266,
2,1,0,1,0,68181.3,0.218,0.217674,38.0223,35,0.0109608,10,0.00827647,-1.41996,-0.619219,-0.0952814,-141.233,0.217674,
2,1,0,1,0,68181.3,0.220408,0.22013,37.6972,35,0.0111122,10,0.00829829,-1.42369,-0.575059,-0.102598,-150.673,0.22013,
2,1,0,1,0,68181.3,0.222805,0.222497,37.3068,35,0.0112621,10,0.00830065,-1.42821,-0.539972,-0.109265,-158.852,0.222497,
2,1,0,1,0,68181.3,0.225202,0.224903,36.9084,35,0.0114105,10,0.00830081,-1.43287,-0.490785,-0.120216,-172.972,0.224903,
2,1,0,1,0,68181.3,0.227605,0.227307,36.4921,35,0.0115573,10,0.00829491,-1.4378,-0.475497,-0.124081,-176.531,0.227307,
2,1,0,1,0,68181.3,0.230008,0.229646,36.0512,35,0.0117023,10,0.00827902,-1.44308,-0.454299,-0.12987,-182.589,0.2296461,
2,1,0,1,0,68181.3,0.232405,0.232079,35.6153,35,0.0118456,10,0.00826556,-1.44836,-0.43485,-0.135679,-188.414,0.2320787,
2,1,0,1,0,68181.3,0.234802,0.234505,35.1552,35,0.0119871,10,0.00824406,-1.45401,-0.424778,-0.138896,-190.412,0.234505,
2,1,0,1,0,68181.3,0.237207,0.23688,34.6884,35,0.0121268,10,0.00821699,-1.45982,-0.40799,-0.144612,-195.65,0.23688,
2,1,0,1,0,68181.4,0.239604,0.239269,34.2188,35,0.0122646,10,0.00818752,-1.46573,-0.399394,-0.147724,-197.196,0.239269,
2,1,0,1,0,68181.4,0.242002,0.241689,33.7351,35,0.0124004,10,0.0081534,-1.47192,-0.395381,-0.149223,-196.486,0.241689,
2,1,0,1,0,68181.4,0.244404,0.244058,33.2713,35,0.0125344,10,0.00812014,-1.47793,-0.389278,-0.151563,-196.758,0.244058,
2,1,0,1,0,68181.4,0.246807,0.246455,32.8071,35,0.0126665,10,0.00808547,-1.48403,-0.387163,-0.152391,-195.015,0.2464546,
2,1,0,1,0,68181.4,0.249204,0.248883,32.3273,35,0.0127967,10,0.00804571,-1.49043,-0.385087,-0.153212,-193.314,0.248883,
2,1,0,1,0,68181.4,0.251601,0.251286,31.8636,35,0.0129251,10,0.00800686,-1.49671,-0.382513,-0.154243,-191.87,0.251286,
2,1,0,1,0,68181.4,0.254006,0.253704,31.4067,35,0.0130516,10,0.007968,-1.50298,-0.385539,-0.153033,-187.643,0.253704,
2,1,0,1,0,68181.4,0.256404,0.256087,30.9589,35,0.0131763,10,0.00792818,-1.50921,-0.389242,-0.151577,-183.215,0.256087,
2,1,0,1,0,68181.4,0.258801,0.258478,30.5269,35,0.0132992,10,0.00789052,-1.51532,-0.389402,-0.151515,-180.533,0.258478,
2,1,0,1,0,68181.4,0.261203,0.26093,30.0966,35,0.0134204,10,0.0078531,-1.52148,-0.3921,-0.150472,-176.771,0.26093,
2,1,0,1,0,68181.4,0.263606,0.263316,29.6713,35,0.0135399,10,0.00781294,-1.52766,-0.392993,-0.15013,-173.941,0.263316,
2,1,0,1,0,68181.4,0.266003,0.265694,29.2608,35,0.0136577,10,0.0077744,-1.53371,-0.400372,-0.147363,-168.433,0.265694,
2,1,0,1,0,68181.4,0.2684,0.268042,28.8632,35,0.0137739,10,0.00773656,-1.53966,-0.407711,-0.14471,-163.136,0.268042,
2,1,0,1,0,68181.4,0.270808,0.270457,28.492,35,0.0138886,10,0.00770585,-1.54528,-0.414375,-0.142383,-158.345,0.270457,
2,1,0,1,0,68181.4,0.273205,0.272859,28.1146,35,0.0140018,10,0.00767131,-1.55107,-0.428024,-0.137843,-151.308,0.272859,
2,1,0,1,0,68181.4,0.275603,0.275269,27.7446,35,0.0141135,10,0.00763722,-1.55682,-0.427947,-0.137868,-149.41,0.275269,
2,1,0,1,0,68181.4,0.278008,0.277698,27.4022,35,0.0142237,10,0.00760954,-1.56222,-0.439825,-0.134144,-143.54,0.2776984,
2,1,0,1,0,68181.4,0.280405,0.280057,27.0576,35,0.0143326,10,0.00757768,-1.56771,-0.451351,-0.130719,-138.124,0.280057,
2,1,0,1,0,68181.4,0.282802,0.282483,26.7331,35,0.0144402,10,0.00755165,-1.57295,-0.458067,-0.128802,-134.465,0.282483,
2,1,0,1,0,68181.4,0.285199,0.284887,26.4161,35,0.0145464,10,0.0075256,-1.57813,-0.468828,-0.125846,-129.796,0.2848869,
2,1,0,1,0,68181.4,0.287608,0.287324,26.1079,35,0.0146515,10,0.00750142,-1.58323,-0.478774,-0.123231,-125.65,0.287324,
2,1,0,1,0,68181.4,0.290005,0.289687,25.8076,35,0.0147553,10,0.00747614,-1.58825,-0.489787,-0.120461,-121.433,0.289687,
2,1,0,1,0,68181.4,0.292402,0.292068,25.5288,35,0.0148579,10,0.00745614,-1.59297,-0.50048,-0.117887,-117.526,0.292068,
2,1,0,1,0,68181.4,0.294807,0.294463,25.2532,35,0.0149595,10,0.00743614,-1.59768,-0.516674,-0.114192,-112.622,0.294463,
2,1,0,1,0,68181.4,0.297204,0.296836,24.99,35,0.0150599,10,0.00741793,-1.60223,-0.511696,-0.115303,-112.92,0.296836,
2,1,0,1,0,68181.5,0.299421,0.29915,24.7419,35,0.0151519,10,0.00740155,-1.60657,-0.121998,-0.483614,-456.838,0.29915,
2,1,0,0,0,68181.5,0.300012,0.299727,24.6639,35,0.0151766,10,0.00739244,-1.60794,0.00253935,23.2343,20254.3,0.299727,
2,1,0,1,0,68181.5,0.299243,0.298989,23.1856,35,0.0152071,10,0.00693225,-1.63478,0.0320746,1.83946,1495.39,0.298989,
2,1,0,1,0,68181.5,0.296846,0.296583,19.8786,35,0.0152926,10,0.00589567,-1.70161,0.0378724,1.55786,1188.53,0.296583,
2,1,0,1,0,68181.5,0.294449,0.29421,17.3548,35,0.0153666,10,0.00510597,-1.76058,0.0396424,1.4883,1032.35,0.29421,
2,1,0,1,0,68181.5,0.292041,0.29176,15.1949,35,0.0154314,10,0.00443329,-1.8183,0.0408544,1.44415,864.721,0.29176,
2,1,0,1,0,68181.5,0.289644,0.289391,13.2773,35,0.0154881,10,0.00384234,-1.87689,0.0402595,1.46549,762.756,0.289391,
2,1,0,1,0,68181.5,0.287247,0.286958,11.5554,35,0.0155376,10,0.00331592,-1.93721,0.0385466,1.53061,690.424,0.286958,
2,1,0,1,0,68181.5,0.284841,0.284557,9.99199,35,0.0155805,10,0.00284329,-2.00035,0.0363718,1.62214,630.087,0.284557,
2,1,0,1,0,68181.5,0.282444,0.282142,8.55378,35,0.0156174,10,0.00241338,-2.06784,0.0337912,1.74602,577.771,0.282142,
2,1,0,1,0,68181.5,0.280047,0.279803,7.23593,35,0.0156488,10,0.00202464,-2.14051,0.0306584,1.92443,534.247,0.279803,
2,1,0,1,0,68181.5,0.27765,0.27735,6.004,35,0.0156751,10,0.00166521,-2.22156,0.0272282,2.16687,495.372,0.27735,
2,1,0,1,0,68181.5,0.275242,0.274931,4.84915,35,0.0156967,10,0.00133318,-2.31433,0.0234344,2.51767,459.28,0.274931,
2,1,0,1,0,68181.5,0.272845,0.272542,3.79828,35,0.0157139,10,0.00103519,-2.42041,0.0188734,3.12609,431.976,0.272542,
2,1,0,1,0,68181.5,0.270448,0.270151,2.80303,35,0.015727,10,0.000757243,-2.55237,0.0139383,4.23293,401.64,0.270151,
2,1,0,1,0,68181.5,0.26804,0.26777,1.8658,35,0.0157362,10,0.000499606,-2.72913,0.00712825,8.27693,377.214,0.26777,
2,1,0,1,0,68181.5,0.265642,0.265329,0.992602,35,0.0157418,10,0.000263366,-3.00322,0.0143305,4.1171,354.081,0.265329,
2,1,0,1,0,68181.5,0.263245,0.262923,0.169895,35,0.015744,10,4.46692e-05,-3.76982,0.0654606,0.901306,331.137,0.262923,
2,0,0,1,0,68181.5,0.260843,0.260544,-0.598714,35,0.0157431,10,-0.000155992,-3.22278,-0.0310533,-1.89996,314.693,0.260544,
2,0,0,1,0,68181.5,0.258443,0.258122,-1.32888,35,0.0157391,10,-0.000343013,-2.87651,-0.00802038,-7.35626,296.006,0.258122,
2,0,0,1,0,68181.5,0.256046,0.255764,-2.01738,35,0.0157324,10,-0.000515974,-2.69521,-0.0129695,-4.54914,281.051,0.255764,
2,0,0,1,0,68181.5,0.253649,0.253327,-2.67048,35,0.0157229,10,-0.000676506,-2.57341,-0.0206415,-2.85831,265.677,0.253327,
2,0,0,1,0,68181.5,0.25124,0.250927,-3.30153,35,0.0157109,10,-0.000828445,-2.48128,-0.0282402,-2.08922,250.111,0.250927,
2,0,0,1,0,68181.5,0.248843,0.248512,-3.88216,35,0.0156965,10,-0.000964762,-2.41093,-0.0355475,-1.65975,239.81,0.248512,
2,0,0,1,0,68181.5,0.246446,0.246114,-4.43088,35,0.0156798,10,-0.0010905,-2.35351,-0.0437524,-1.3485,226.187,0.246114,
2,0,0,1,0,68181.5,0.244041,0.243736,-4.97059,35,0.0156609,10,-0.00121151,-2.30359,-0.0515116,-1.14537,216.59,0.243736,
2,0,0,1,0,68181.6,0.241644,0.24131,-5.47697,35,0.01564,10,-0.00132165,-2.26146,-0.0596069,-0.989819,207.048,0.24131,
2,0,0,1,0,68181.6,0.239247,0.238936,-5.95612,35,0.015617,10,-0.00142313,-2.22504,-0.0688068,-0.857473,196.251,0.238936,
2,0,0,1,0,68181.6,0.236849,0.236554,-6.41039,35,0.0155922,10,-0.0015164,-2.19312,-0.0773618,-0.762651,188.588,0.236554,
2,0,0,1,0,68181.6,0.234441,0.23411,-6.85956,35,0.0155656,10,-0.0016059,-2.1637,-0.086591,-0.681364,180.431,0.2341104,
2,0,0,1,0,68181.6,0.232044,0.231745,-7.2808,35,0.0155373,10,-0.00168729,-2.13782,-0.0952981,-0.61911,174.352,0.231745,
2,0,0,1,0,68181.6,0.229647,0.229338,-7.68803,35,0.0155073,10,-0.00176315,-2.11418,-0.105657,-0.55841,166.216,0.229338,
2,0,0,1,0,68181.6,0.227239,0.226941,-8.08636,35,0.0154758,10,-0.00183513,-2.09225,-0.117182,-0.503491,157.496,0.226941,
2,0,0,1,0,68181.6,0.224842,0.224543,-8.44975,35,0.0154427,10,-0.00189734,-2.07316,-0.127297,-0.463484,151.847,0.224543,
2,0,0,1,0,68181.6,0.222445,0.222115,-8.79741,35,0.0154081,10,-0.00195404,-2.05565,-0.138031,-0.427442,146.288,0.2221151,
2,0,0,1,0,68181.6,0.220047,0.219753,-9.14348,35,0.0153722,10,-0.0020093,-2.03889,-0.148412,-0.397543,141.372,0.219753,
2,0,0,1,0,68181.6,0.217642,0.217348,-9.48977,35,0.0153349,10,-0.00206258,-2.02274,-0.158948,-0.371191,136.73,0.217348,
2,0,0,1,0,68181.6,0.215245,0.214935,-9.8081,35,0.0152962,10,-0.00210811,-2.00841,-0.169265,-0.348565,132.896,0.214935,
2,0,0,1,0,68181.6,0.212848,0.212515,-10.11,35,0.0152564,10,-0.00214853,-1.99525,-0.183445,-0.321623,126.595,0.212515,
2,0,0,1,0,68181.6,0.21044,0.210124,-10.4231,35,0.0152153,10,-0.00219014,-1.982,-0.192666,-0.306229,124.232,0.210124,
2,0,0,1,0,68181.6,0.208043,0.207739,-10.7061,35,0.015173,10,-0.00222409,-1.97037,-0.203017,-0.290615,121.14,0.207739,
2,0,0,1,0,68181.6,0.205645,0.205302,-11.0048,35,0.0151295,10,-0.00225931,-1.95842,-0.217579,-0.271166,116.104,0.205302,
2,0,0,1,0,68181.6,0.203246,0.202917,-11.2727,35,0.0150849,10,-0.00228742,-1.94797,-0.228655,-0.258031,113.21,0.202917,
2,0,0,1,0,68181.6,0.200843,0.200522,-11.5379,35,0.0150393,10,-0.0023136,-1.93787,-0.243451,-0.242348,108.923,0.200522,
2,0,0,1,0,68181.6,0.198446,0.198115,-11.7957,35,0.0149926,10,-0.0023369,-1.92828,-0.250224,-0.235789,108.456,0.1981149,
2,0,0,1,0,68181.6,0.196049,0.195766,-12.0435,35,0.0149449,10,-0.00235771,-1.91925,-0.263282,-0.224095,105.264,0.195766,
2,0,0,1,0,68181.6,0.19364,0.19331,-12.3146,35,0.0148961,10,-0.00238054,-1.90958,-0.275318,-0.214298,102.716,0.19331,
2,0,0,1,0,68181.6,0.191243,0.190923,-12.5483,35,0.0148464,10,-0.00239576,-1.90141,-0.285547,-0.206621,100.995,0.190923,
2,0,0,1,0,68181.6,0.188846,0.188526,-12.7807,35,0.0147957,10,-0.00240948,-1.89345,-0.302203,-0.195233,97.3442,0.188526,
2,0,0,1,0,68181.6,0.186444,0.186115,-13.0182,35,0.0147441,10,-0.00242288,-1.88545,-0.309528,-0.190613,96.7612,0.186115,
2,0,0,1,0,68181.6,0.184041,0.183716,-13.2486,35,0.0146915,10,-0.00243398,-1.87783,-0.316445,-0.186447,96.323,0.183716,
2,0,0,1,0,68181.7,0.181644,0.181322,-13.4773,35,0.014638,10,-0.00244374,-1.8704,-0.328073,-0.179838,94.5075,0.181322,
2,0,0,1,0,68181.7,0.179247,0.178925,-13.7055,35,0.0145836,10,-0.00245225,-1.86311,-0.33815,-0.174479,93.2296,0.178925,
2,0,0,1,0,68181.7,0.176841,0.176543,-13.9228,35,0.0145283,10,-0.00245798,-1.85627,-0.346331,-0.170357,92.5235,0.176543,
2,0,0,1,0,68181.7,0.174444,0.174113,-14.1439,35,0.0144722,10,-0.00246263,-1.84943,-0.349603,-0.168763,93.1769,0.174113,
2,0,0,1,0,68181.7,0.172047,0.171728,-14.365,35,0.0144151,10,-0.00246687,-1.84269,-0.352637,-0.167311,93.8286,0.171728,
2,0,0,1,0,68181.7,0.169644,0.169344,-14.5982,35,0.0143572,10,-0.00247211,-1.8357,-0.358544,-0.164554,93.685,0.169344,
2,0,0,1,0,68181.7,0.167242,0.166918,-14.826,35,0.0142983,10,-0.00247472,-1.82898,-0.36081,-0.163521,94.5301,0.166918,
2,0,0,1,0,68181.7,0.164845,0.164533,-15.0414,35,0.0142386,10,-0.0024748,-1.82271,-0.367889,-0.160375,94.1771,0.1645329,
2,0,0,1,0,68181.7,0.162448,0.16216,-15.2695,35,0.0141779,10,-0.0024761,-1.81618,-0.365108,-0.161596,96.3757,0.16216,
2,0,0,1,0,68181.7,0.160042,0.159719,-15.5047,35,0.0141163,10,-0.00247638,-1.80954,-0.357298,-0.165128,99.9883,0.159719,
2,0,0,1,0,68181.7,0.157645,0.157363,-15.7468,35,0.0140538,10,-0.00247797,-1.80281,-0.357953,-0.164826,101.342,0.157363,
2,0,0,1,0,68181.7,0.155248,0.154952,-15.9993,35,0.0139903,10,-0.00247913,-1.7959,-0.352534,-0.16736,104.506,0.154952,
2,0,0,1,0,68181.7,0.152845,0.152493,-16.2491,35,0.0139258,10,-0.00247788,-1.78917,-0.349417,-0.168853,107.125,0.152493,
2,0,0,1,0,68181.7,0.150443,0.150135,-16.5062,35,0.0138603,10,-0.00247816,-1.78235,-0.342125,-0.172451,111.234,0.1501347,
2,0,0,1,0,68181.7,0.148046,0.147752,-16.7764,35,0.0137937,10,-0.00247875,-1.7753,-0.32509,-0.181488,119.08,0.147752,
2,0,0,1,0,68181.7,0.145648,0.145352,-17.0672,35,0.013726,10,-0.00248075,-1.76784,-0.315346,-0.187096,124.854,0.145352,
2,0,0,1,0,68181.7,0.14324,0.142926,-17.3884,35,0.013657,10,-0.00248525,-1.75974,-0.303052,-0.194686,132.233,0.142926,
2,0,0,1,0,68181.7,0.140843,0.140524,-17.7061,35,0.0135868,10,-0.00248814,-1.75188,-0.290093,-0.203383,140.784,0.140524,
2,0,0,1,0,68181.7,0.138446,0.138148,-18.0464,35,0.0135153,10,-0.00249307,-1.74361,-0.27711,-0.212911,150.381,0.138148,
2,0,0,1,0,68181.7,0.136041,0.135716,-18.4238,35,0.0134423,10,-0.00250041,-1.73462,-0.264744,-0.222857,160.597,0.135716,
2,0,0,1,0,68181.7,0.133644,0.133362,-18.8266,35,0.0133678,10,-0.00251075,-1.72523,-0.252987,-0.233213,171.648,0.133362,
2,0,0,1,0,68181.7,0.131246,0.130941,-19.2451,35,0.0132916,10,-0.00251998,-1.71568,-0.241712,-0.244092,183.784,0.130941,
2,0,0,1,0,68181.7,0.128849,0.128537,-19.696,35,0.0132137,10,-0.00253167,-1.70562,-0.232424,-0.253847,195.706,0.1285374,
2,0,0,1,0,68181.7,0.126441,0.126115,-20.1883,35,0.0131339,10,-0.00254605,-1.6949,-0.221439,-0.266438,210.443,0.126115,
2,0,0,1,0,68181.7,0.124044,0.123725,-20.7126,35,0.013052,10,-0.00256267,-1.68377,-0.21411,-0.27556,223.151,0.123725,
2,0,0,1,0,68181.8,0.121647,0.121343,-21.2651,35,0.012968,10,-0.00258036,-1.67233,-0.210273,-0.280587,233.123,0.121343,
2,0,0,1,0,68181.8,0.119241,0.118925,-21.8411,35,0.0128817,10,-0.00259744,-1.66073,-0.207737,-0.284013,242.219,0.118925,
2,0,0,1,0,68181.8,0.116844,0.116504,-22.4289,35,0.0127931,10,-0.00261306,-1.64919,-0.20811,-0.283503,248.252,0.116504,
2,0,0,1,0,68181.8,0.114447,0.114141,-23.034,35,0.0127022,10,-0.00262913,-1.63763,-0.207889,-0.283806,255.298,0.114141,
2,0,0,1,0,68181.8,0.11205,0.111729,-23.6517,35,0.0126087,10,-0.00264258,-1.62614,-0.208446,-0.283047,261.284,0.111729,
2,0,0,1,0,68181.8,0.109642,0.109286,-24.3019,35,0.0125127,10,-0.00265585,-1.61436,-0.212152,-0.278102,263.49,0.109286,
2,0,0,1,0,68181.8,0.107245,0.106964,-24.9214,35,0.0124142,10,-0.00266571,-1.60343,-0.21562,-0.273629,266.005,0.106964,
2,0,0,1,0,68181.8,0.104848,0.104539,-25.564,35,0.0123132,10,-0.00267245,-1.59237,-0.22202,-0.265741,264.891,0.104539,
2,0,0,1,0,68181.8,0.10244,0.102108,-26.211,35,0.0122096,10,-0.00267635,-1.58152,-0.230132,-0.256375,261.719,0.102108,
2,0,0,1,0,68181.8,0.100042,0.0997707,-26.8223,35,0.0121035,10,-0.00267608,-1.5715,-0.238106,-0.247789,258.968,0.0997707,
2,0,0,1,0,68181.8,0.0976454,0.0973646,-27.4339,35,0.0119949,10,-0.00267109,-1.56171,-0.247871,-0.238027,254.604,0.0973646,
2,0,0,1,0,68181.8,0.0952427,0.0950073,-28.0325,35,0.0118839,10,-0.00266329,-1.55234,-0.254316,-0.231995,253.74,0.0950073,
2,0,0,1,0,68181.8,0.0928428,0.0925642,-28.6408,35,0.0117705,10,-0.00265111,-1.54301,-0.263847,-0.223614,249.715,0.0925642,
2,0,0,1,0,68181.8,0.0904457,0.0901507,-29.2633,35,0.0116546,10,-0.00263811,-1.53368,-0.272267,-0.216699,246.963,0.0901507,
2,0,0,1,0,68181.8,0.0880486,0.0877775,-29.8279,35,0.0115364,10,-0.00261822,-1.52538,-0.285045,-0.206985,240.585,0.0877775,
2,0,0,1,0,68181.8,0.0856404,0.0854075,-30.4033,35,0.0114159,10,-0.00259667,-1.51708,-0.304342,-0.193861,229.63,0.0854075,
2,0,0,1,0,68181.8,0.0832433,0.0829463,-30.9547,35,0.0112931,10,-0.00256758,-1.50927,-0.318666,-0.185147,223.197,0.0829463,
2,0,0,1,0,68181.8,0.0808462,0.0805604,-31.4656,35,0.0111682,10,-0.00253488,-1.50216,-0.342235,-0.172396,211.34,0.0805604,
2,0,0,1,0,68181.8,0.0784408,0.0781554,-31.9756,35,0.0110413,10,-0.00249906,-1.49518,-0.361915,-0.163022,203.058,0.0781554,
2,0,0,1,0,68181.8,0.0760437,0.075761,-32.442,35,0.0109124,10,-0.00245784,-1.48889,-0.384636,-0.153392,193.887,0.075761,
2,0,0,1,0,68181.8,0.0736466,0.0733793,-32.8974,35,0.0107817,10,-0.00241399,-1.48284,-0.412635,-0.142983,183.302,0.0733793,
2,0,0,1,0,68181.8,0.0712495,0.0709531,-33.3283,35,0.0106492,10,-0.00236474,-1.47719,-0.438874,-0.134435,174.565,0.0709531,
2,0,0,1,0,68181.8,0.0688413,0.0685438,-33.7374,35,0.010515,10,-0.00231249,-1.47189,-0.470123,-0.125499,164.972,0.0685438,
2,0,0,1,0,68181.8,0.0664442,0.0661696,-34.1163,35,0.0103792,10,-0.00225746,-1.46704,-0.495944,-0.118965,158.217,0.06616959,
2,0,0,1,0,68181.8,0.0640471,0.0637847,-34.4802,35,0.010242,10,-0.00219931,-1.46243,-0.532125,-0.110876,149.045,0.0637847,
2,0,0,1,0,68181.9,0.0616389,0.0614105,-34.8381,35,0.0101033,10,-0.00213942,-1.45795,-0.574305,-0.102733,139.456,0.0614105,
2,0,0,1,0,68181.9,0.0592417,0.0589949,-35.1606,35,0.00996332,10,-0.0020743,-1.45394,-0.62196,-0.0948615,129.955,0.0589949,
2,0,0,1,0,68181.9,0.0568446,0.0565496,-35.4579,35,0.00982204,10,-0.00200513,-1.45029,-0.673949,-0.0875437,121.009,0.0565496,
2,0,0,1,0,68181.9,0.0544475,0.0541509,-35.7322,35,0.00967964,10,-0.00193493,-1.44694,-0.732277,-0.0805706,112.247,0.0541509,
2,0,0,1,0,68181.9,0.0520421,0.051765,-36.0053,35,0.00953611,10,-0.00186381,-1.44363,-0.788364,-0.0748385,105.028,0.051765,
2,0,0,1,0,68181.9,0.049645,0.0493844,-36.2394,35,0.00939159,10,-0.00178966,-1.44082,-0.848816,-0.0695086,98.2054,0.0493844,
2,0,0,1,0,68181.9,0.0472479,0.0469497,-36.4661,35,0.00924615,10,-0.00171208,-1.43811,-0.954153,-0.0618349,87.9056,0.0469497,
2,0,0,1,0,68181.9,0.0448397,0.0445405,-36.676,35,0.00909986,10,-0.00163357,-1.43562,-1.04524,-0.0564462,80.6882,0.0445405,
2,0,0,1,0,68181.9,0.0424426,0.0421408,-36.8513,35,0.00895281,10,-0.00155294,-1.43355,-1.14814,-0.0513875,73.842,0.0421408,
2,0,0,1,0,68181.9,0.0400455,0.0397199,-37.0192,35,0.00880506,10,-0.0014704,-1.43157,-1.26946,-0.0464765,67.1082,0.0397199,
2,0,0,1,0,68181.9,0.0376456,0.0373371,-37.176,35,0.00865665,10,-0.00138804,-1.42974,-1.38748,-0.0425231,61.6441,0.0373371,
2,0,0,1,0,68181.9,0.035243,0.0349152,-37.3219,35,0.00850763,10,-0.0013031,-1.42804,-1.59087,-0.0370866,53.9535,0.0349152,
2,0,0,1,0,68181.9,0.0328459,0.0325801,-37.4406,35,0.00835809,10,-0.00121982,-1.42666,-1.72691,-0.034165,49.8871,0.0325801,
2,0,0,1,0,68181.9,0.0304488,0.0301476,-37.5356,35,0.00820811,10,-0.00113161,-1.42556,-1.99088,-0.0296351,43.4052,0.0301476,
2,0,0,1,0,68181.9,0.0280406,0.0277426,-37.6546,35,0.00805774,10,-0.00104464,-1.42418,-2.25005,-0.0262217,38.5038,0.0277426,
2,0,0,1,0,68181.9,0.0256435,0.0253344,-37.7378,35,0.00790694,10,-0.000956064,-1.42322,-2.52508,-0.0233656,34.3794,0.0253344,
2,0,0,1,0,68181.9,0.0232464,0.0229718,-37.8106,35,0.00775585,10,-0.000868578,-1.42239,-3.22888,-0.0182726,26.9446,0.0229718,
2,0,0,1,0,68181.9,0.0208437,0.0204883,-37.8677,35,0.00760449,10,-0.000775846,-1.42173,-3.95993,-0.0148992,22.0047,0.0204883,
2,0,0,1,0,68181.9,0.018441,0.0181194,-37.9139,35,0.00745292,10,-0.000686977,-1.4212,-4.86632,-0.0121242,17.9315,0.0181194,
2,0,0,1,0,68181.9,0.0160439,0.0157462,-37.9488,35,0.0073012,10,-0.000597549,-1.4208,-6.62863,-0.00890079,13.1759,0.0157462,
2,0,0,1,0,68181.9,0.0136468,0.0133613,-37.9829,35,0.00714933,10,-0.000507503,-1.42041,-11.0136,-0.00535701,7.93449,0.0133613,
2,0,0,1,0,68181.9,0.0112414,0.0109786,-37.993,35,0.00699737,10,-0.00041711,-1.4203,-24.3692,-0.00242109,3.58732,0.01097861,
2,0,0,1,0,68181.9,0.00884431,0.00854498,-37.9899,35,0.00684539,10,-0.000324623,-1.42033,30.9081,0.00190889,-2.82863,0.00854498,
2,0,0,1,0,68181.9,0.0064472,0.00616224,-37.9831,35,0.00669344,10,-0.000234061,-1.42041,186.769,0.000315899,-0.46837,0.00616224,
2,0,0,1,0,68181.9,0.00404455,0.0037424,-37.9557,35,0.00654158,10,-0.000142045,-1.42072,13.4013,0.00440257,-6.52195,0.0037424,
2,0,0,1,0,68182,0.0016419,0.00131406,-37.9885,35,0.00638972,10,-4.99193e-05,-1.42035,6.68579,0.00882469,-13.0596,0.00131406,
2,0,0,1,0,68182,-0.000755207,-0.00111533,-37.9269,35,0.0062379,10,4.23008e-05,-1.42105,5.20752,0.0113298,-16.747,-0.00111533,
2,0,0,1,0,68182,-0.00315231,-0.00352139,-37.8567,35,0.00608633,10,0.000133308,-1.42186,2.95657,0.0199555,-29.4749,-0.00352139,
2,0,0,1,0,68182,-0.00555774,-0.00591049,-37.7941,35,0.00593501,10,0.000223381,-1.42258,2.77381,0.0212704,-31.3591,-0.00591049,
2,0,0,1,0,68182,-0.00795485,-0.00831125,-37.7048,35,0.00578401,10,0.000313374,-1.4236,2.65919,0.0221872,-32.6442,-0.00831125,
2,0,0,1,0,68182,-0.010352,-0.0106738,-37.6271,35,0.00563334,10,0.000401626,-1.4245,2.2992,0.0256611,-37.6683,-0.0106738,
2,0,0,1,0,68182,-0.0127546,-0.0131117,-37.5436,35,0.005483,10,0.000492261,-1.42546,2.11751,0.0278629,-40.7877,-0.0131117,
2,0,0,1,0,68182,-0.0151573,-0.0155135,-37.4323,35,0.00533305,10,0.000580708,-1.42675,1.93505,0.0304902,-44.5179,-0.0155135,
2,0,0,1,0,68182,-0.0175544,-0.0178814,-37.3144,35,0.00518356,10,0.000667235,-1.42812,1.76626,0.0334038,-48.6392,-0.0178814,
2,0,0,1,0,68182,-0.0199515,-0.0203193,-37.1977,35,0.00503455,10,0.000755831,-1.42948,1.69658,0.0347758,-50.4743,-0.0203193,
2,0,0,1,0,68182,-0.0223597,-0.0226946,-37.0775,35,0.00488602,10,0.00084146,-1.43089,1.62151,0.0363858,-52.6272,-0.02269461,
2,0,0,1,0,68182,-0.0247568,-0.0250869,-36.9491,35,0.00473797,10,0.000926939,-1.4324,1.55508,0.0379401,-54.6899,-0.0250869,
2,0,0,1,0,68182,-0.0271539,-0.0274983,-36.8083,35,0.00459046,10,0.00101216,-1.43405,1.5016,0.0392913,-56.4397,-0.0274983,
2,0,0,1,0,68182,-0.0295593,-0.0298842,-36.6746,35,0.00444351,10,0.00109599,-1.43563,1.46275,0.040335,-57.7259,-0.0298842,
2,0,0,1,0,68182,-0.0319564,-0.0322754,-36.5368,35,0.00429711,10,0.00117924,-1.43727,1.47104,0.0401076,-57.184,-0.0322754,
2,0,0,1,0,68182,-0.0343535,-0.034691,-36.3947,35,0.00415127,10,0.00126257,-1.43896,1.46702,0.0402176,-57.1299,-0.034691,
2,0,0,1,0,68182,-0.0367506,-0.0371087,-36.2588,35,0.00400599,10,0.00134552,-1.44059,1.43788,0.0410327,-58.0595,-0.0371087,
2,0,0,1,0,68182,-0.0391588,-0.0395254,-36.1238,35,0.00386121,10,0.00142781,-1.44221,1.45317,0.0406008,-57.2321,-0.0395254,
2,0,0,1,0,68182,-0.0415559,-0.041923,-35.9766,35,0.00371704,10,0.00150825,-1.44398,1.48039,0.0398545,-55.9766,-0.041923,
2,0,0,1,0,68182,-0.043953,-0.0442834,-35.8457,35,0.00357342,10,0.00158737,-1.44556,1.49918,0.0393549,-55.0776,-0.0442834,
2,0,0,1,0,68182,-0.0463585,-0.046734,-35.72,35,0.0034303,10,0.00166934,-1.44709,1.57133,0.0375478,-52.352,-0.046734,
2,0,0,1,0,68182,-0.0487556,-0.0490754,-35.5978,35,0.00328767,10,0.00174698,-1.44858,1.56953,0.0375908,-52.2184,-0.0490754,
2,0,0,1,0,68182,-0.0511527,-0.0514762,-35.4765,35,0.00314553,10,0.0018262,-1.45006,1.66757,0.0353807,-48.9967,-0.0514762,
2,0,0,1,0,68182,-0.0535498,-0.0538971,-35.3437,35,0.0030039,10,0.00190492,-1.45169,1.74606,0.0337903,-46.6475,-0.0538971,
2,0,0,1,0,68182,-0.055958,-0.0563328,-35.2497,35,0.0028627,10,0.00198571,-1.45285,1.84135,0.0320417,-44.097,-0.0563328,
2,0,0,1,0,68182.1,-0.0583551,-0.0586933,-35.1492,35,0.00272191,10,0.00206302,-1.45408,2.11856,0.0278491,-38.2139,-0.0586933,
2,0,0,1,0,68182.1,-0.0607522,-0.0610983,-35.0522,35,0.00258153,10,0.00214163,-1.45528,2.04488,0.0288526,-39.4787,-0.0610983,
2,0,0,1,0,68182.1,-0.0631604,-0.0635033,-34.9766,35,0.00244148,10,0.00222113,-1.45622,2.26557,0.026042,-35.5492,-0.06350331,
2,0,0,1,0,68182.1,-0.0655575,-0.0659115,-34.8715,35,0.00230179,10,0.00229843,-1.45753,2.57542,0.0229089,-31.2046,-0.0659115,
2,0,0,1,0,68182.1,-0.0679546,-0.0683239,-34.8068,35,0.00216244,10,0.00237814,-1.45834,2.7127,0.0217496,-29.5673,-0.0683239,
2,0,0,1,0,68182.1,-0.0703573,-0.070712,-34.7522,35,0.00202333,10,0.0024574,-1.45902,3.27362,0.0180228,-24.4455,-0.070712,
2,0,0,1,0,68182.1,-0.0727571,-0.0731668,-34.6909,35,0.00188446,10,0.00253822,-1.45978,3.50788,0.0168193,-22.7756,-0.0731668,
2,0,0,1,0,68182.1,-0.0751543,-0.0754689,-34.6379,35,0.00174581,10,0.00261408,-1.46045,4.07755,0.0144695,-19.5713,-0.0754689,
2,0,0,1,0,68182.1,-0.0775514,-0.0778994,-34.5887,35,0.00160737,10,0.00269444,-1.46107,5.19144,0.0113649,-15.3541,-0.0778994,
2,0,0,1,0,68182.1,-0.0799596,-0.0803352,-34.5639,35,0.00146908,10,0.00277669,-1.46138,6.06997,0.00971998,-13.1155,-0.0803352,
2,0,0,1,0,68182.1,-0.0823567,-0.0826988,-34.5446,35,0.00133088,10,0.00285679,-1.46162,9.55325,0.00617591,-8.32712,-0.0826988,
2,0,0,1,0,68182.1,-0.0847538,-0.0851165,-34.5113,35,0.00119279,10,0.00293749,-1.46204,11.8105,0.00499557,-6.73234,-0.0851165,
2,0,0,1,0,68182.1,-0.0871592,-0.0875406,-34.5084,35,0.00105476,10,0.00302089,-1.46207,14.7336,0.00400445,-5.39462,-0.0875406,
2,0,0,1,0,68182.1,-0.0895563,-0.0899032,-34.4995,35,0.000916739,10,0.00310161,-1.46219,7160.17,8.24003e-06,-0.0110982,-0.0899032,
2,0,0,1,0,68182.1,-0.0919534,-0.0922944,-34.4928,35,0.000778766,10,0.00318349,-1.46227,-24.9112,-0.00236841,3.19108,-0.0922944,
2,0,0,1,0,68182.1,-0.0943505,-0.094709,-34.5112,35,0.000640744,10,0.00326852,-1.46204,-13.4234,-0.00439531,5.92275,-0.094709,
2,0,0,1,0,68182.1,-0.0967587,-0.0970853,-34.5389,35,0.000502635,10,0.00335322,-1.46169,-8.76584,-0.00673067,9.07007,-0.0970853,
2,0,0,1,0,68182.1,-0.0991558,-0.0995147,-34.5564,35,0.000364448,10,0.00343887,-1.46147,3.11058,0.0189675,-25.4917,-0.0995147,
2,0,0,1,0,68182.1,-0.0999548,-0.100362,-34.566,35,0.000319523,10,0.00346911,-1.46135,0.0231183,2.5521,-3227.67,-0.100362,
2,0,0,1,1,68182.1,-0.0999548,-0.100534,-34.3627,35,0.000298879,10,0.00345462,-1.46391,-0.0327687,-1.8005,2149.16,-0.100534,
2,0,0,1,1,68182.1,-0.0979573,-0.098379,-30.3633,35,0.000200264,10,0.00298711,-1.51765,-0.0432333,-1.36469,1545.05,-0.098379,
2,0,0,1,1,68182.1,-0.0955546,-0.0959666,-26.9309,35,8.62309e-05,10,0.00258446,-1.56975,-0.0464802,-1.26936,1361.4,-0.0959666,
2,0,0,1,1,68182.1,-0.093152,-0.0935775,-24.0836,35,-1.53863e-05,10,0.00225369,-1.61828,-0.0488169,-1.2086,1152.38,-0.0935775,
2,0,0,1,1,68182.1,-0.0907548,-0.0911492,-21.5865,35,-0.000106392,10,0.00196759,-1.66582,-0.0495784,-1.19003,1009.5,-0.0911492,
2,0,0,1,1,68182.1,-0.0883578,-0.0888025,-19.3276,35,-0.000187957,10,0.00171634,-1.71382,-0.0489174,-1.20612,912.832,-0.0888025,
2,0,0,1,1,68182.1,-0.0859523,-0.0863837,-17.2569,35,-0.000260874,10,0.00149071,-1.76304,-0.0478412,-1.23325,831.098,-0.0863837,
2,0,0,1,1,68182.1,-0.0835552,-0.0840148,-15.3544,35,-0.000325846,10,0.00129,-1.81377,-0.0454522,-1.29807,775.401,-0.0840148,
2,0,0,1,1,68182.2,-0.0811581,-0.0815005,-13.5676,35,-0.000383495,10,0.00110577,-1.8675,-0.04302,-1.37146,721.503,-0.0815005,
2,0,0,1,1,68182.2,-0.0787555,-0.0792048,-11.8855,35,-0.000434214,10,0.000941385,-1.92498,-0.039787,-1.4829,681.184,-0.07920476,
2,0,0,1,1,68182.2,-0.0763528,-0.0767404,-10.2992,35,-0.000478393,10,0.000790364,-1.9872,-0.036059,-1.63621,648.918,-0.0767404,
2,0,0,1,1,68182.2,-0.0739557,-0.074382,-8.79278,35,-0.000516415,10,0.000654025,-2.05587,-0.0325717,-1.81139,609.672,-0.074382,
2,0,0,1,1,68182.2,-0.0715586,-0.0719664,-7.38072,35,-0.000548599,10,0.000531164,-2.1319,-0.0282285,-2.09008,583.866,-0.0719664,
2,0,0,1,1,68182.2,-0.0691532,-0.0695879,-6.02234,35,-0.000575256,10,0.000419082,-2.22024,-0.023999,-2.45844,551.181,-0.0695879,
2,0,0,1,1,68182.2,-0.0667561,-0.0672041,-4.7313,35,-0.000596607,10,0.000317963,-2.32502,-0.0189666,-3.11073,529.954,-0.0672041,
2,0,0,1,1,68182.2,-0.0643589,-0.0647769,-3.4986,35,-0.000612915,10,0.000226628,-2.45611,-0.0135782,-4.3452,503.867,-0.06477686,
2,0,0,1,1,68182.2,-0.0619563,-0.0623984,-2.3101,35,-0.00062441,10,0.000144146,-2.63637,-0.00588854,-10.0195,480.966,-0.0623984,
2,0,0,1,1,68182.2,-0.0595536,-0.0599785,-1.18047,35,-0.000631255,10,7.08029e-05,-2.92794,-0.0165758,-3.5594,462.643,-0.0599785,
2,0,0,1,1,68182.2,-0.0571565,-0.0575968,-0.110525,35,-0.000633731,10,6.36587e-06,-3.95654,-0.127317,-0.463409,441.03,-0.0575968,
2,1,0,1,1,68182.2,-0.0547594,-0.055212,0.926525,35,-0.000631981,10,-5.11553e-05,-3.03314,0.0247099,2.38771,423.642,-0.055212,
2,1,0,1,1,68182.2,-0.0523512,-0.0527603,1.94057,35,-0.000626134,10,-0.000102385,-2.71207,0.00625894,9.42652,407.227,-0.0527603,
2,1,0,1,1,68182.2,-0.0499541,-0.0503702,2.89003,35,-0.000616372,10,-0.000145571,-2.5391,0.0135978,4.33895,392.986,-0.0503702,
2,1,0,1,1,68182.2,-0.047557,-0.0479758,3.80743,35,-0.000602873,10,-0.000182665,-2.41937,0.0208981,2.82322,378.386,-0.0479758,
2,1,0,1,1,68182.2,-0.0451544,-0.0456344,4.69039,35,-0.000585773,10,-0.000214043,-2.32879,0.0278315,2.1199,364.547,-0.0456344,
2,1,0,1,1,68182.2,-0.0427545,-0.0432262,5.54815,35,-0.000565189,10,-0.000239825,-2.25585,0.0348948,1.6908,350.587,-0.0432262,
2,1,0,1,1,68182.2,-0.0403574,-0.0408021,6.37803,35,-0.000541244,10,-0.000260237,-2.19531,0.0422413,1.39674,336.924,-0.0408021,
2,1,0,1,1,68182.2,-0.0379603,-0.0383812,7.17116,35,-0.000514061,10,-0.000275238,-2.14441,0.0495044,1.19181,325.591,-0.0383812,
2,1,0,1,1,68182.2,-0.0355521,-0.0359359,7.95803,35,-0.000483714,10,-0.000285979,-2.09919,0.0570898,1.03346,314.066,-0.0359359,
2,1,0,1,1,68182.2,-0.033155,-0.0335903,8.68551,35,-0.000450365,10,-0.000291749,-2.0612,0.0647129,0.91172,304.138,-0.0335903,
2,1,0,1,1,68182.2,-0.0307579,-0.0312139,9.38935,35,-0.00041415,10,-0.000293078,-2.02736,0.0734416,0.803359,290.984,-0.0312139,
2,1,0,1,1,68182.2,-0.0283524,-0.0287845,10.0899,35,-0.00037512,10,-0.000290432,-1.99611,0.0819606,0.719858,280.156,-0.0287845,
2,1,0,1,1,68182.2,-0.0259553,-0.0263647,10.7431,35,-0.000333374,10,-0.000283239,-1.96887,0.0913214,0.64607,268.216,-0.0263647,
2,1,0,1,1,68182.2,-0.0235582,-0.0239724,11.38,35,-0.000289049,10,-0.000272807,-1.94386,0.0998547,0.590858,260.455,-0.0239724,
2,1,0,1,1,68182.3,-0.0211611,-0.0215112,11.9918,35,-0.000242232,10,-0.000257958,-1.92112,0.107987,0.546364,254.071,-0.0215112,
2,1,0,1,1,68182.3,-0.0187529,-0.0191762,12.5924,35,-0.000192986,10,-0.000241474,-1.89989,0.118797,0.496647,242.465,-0.0191762,
2,1,0,1,1,68182.3,-0.0163558,-0.0168125,13.17,35,-0.000141401,10,-0.000221422,-1.88041,0.12829,0.459894,234.872,-0.0168125,
2,1,0,1,1,68182.3,-0.0139587,-0.0143577,13.7113,35,-8.75766e-05,10,-0.000196862,-1.86292,0.140028,0.421345,224.345,-0.0143577,
2,1,0,1,1,68182.3,-0.0115505,-0.0119177,14.245,35,-3.15978e-05,10,-0.000169768,-1.84634,0.152891,0.385897,213.468,-0.0119177,
2,1,0,1,1,68182.3,-0.0091534,-0.00955511,14.7509,35,2.64467e-05,10,-0.000140946,-1.83118,0.161296,0.365788,209.69,-0.009555107,
2,1,0,1,1,68182.3,-0.00675629,-0.00717131,15.2281,35,8.64769e-05,10,-0.000109206,-1.81735,0.173044,0.340954,202.139,-0.00717131,
2,1,0,1,1,68182.3,-0.00435919,-0.00481827,15.7116,35,0.000148416,10,-7.57026e-05,-1.80378,0.193816,0.304413,185.213,-0.00481827,
2,1,0,1,1,68182.3,-0.00195376,-0.00235388,16.1783,35,0.000212252,10,-3.80817e-05,-1.79107, , , ,-0.00235388,
2,1,0,0,1,68182.3,-7.54729e-05,-0.000325324,16.4603,35,0.0002629,10,-5.35493e-06,-1.78356, , , ,-0.000325324,