File: Figure_codes/Fig_3-5/rawdata_trumpetplot_data/after 10th/20221101_1-115_003_TrumpetPlot_ParaChange_from10_every3_04_CV_C01_12.csv
mode,ox/red,error,control changes,counter inc.,time/s,control/V,Ewe/V,<I>/mA,cycle number,(Q-Qo)/C,I Range,P/W,log(|I|),Tafel slope mV/dec,alpha_eff,dI/d(E-IR),E-IR/V,
2,0,0,1,0,24701.6,2.44065e-05,-0.000268062,-0.398329,13,0.0000000E+000,10,1.06777e-07,-3.39976, , , ,-0.000268062,
2,1,0,1,0,24701.7,0.00129787,0.000948225,0.16051,13,1.67232e-06,10,1.522e-07,-3.7945, , , ,0.0009482248,
2,1,0,1,0,24701.9,0.00279606,0.00247627,0.287022,13,3.98027e-05,10,7.10744e-07,-3.54209,0.00582277,10.1326,65.255,0.00247627,
2,1,0,1,0,24702,0.00429425,0.00397462,0.318246,13,8.7828e-05,10,1.26491e-06,-3.49724,0.032391,1.82149,21.7478,0.00397462,
2,1,0,1,0,24702.2,0.00579244,0.00545707,0.3442,13,0.000140268,10,1.87832e-06,-3.46319,0.046537,1.26781,16.8681,0.005457073,
2,1,0,1,0,24702.3,0.00729063,0.006983,0.369114,13,0.000196297,10,2.57752e-06,-3.43284,0.0645809,0.913583,12.9687,0.006982998,
2,1,0,1,0,24702.5,0.00878882,0.00850574,0.3872,13,0.000255482,10,3.29342e-06,-3.41206,0.0751739,0.784846,11.7171,0.00850574,
2,1,0,1,0,24702.6,0.010287,0.00995744,0.402026,13,0.000317194,10,4.00315e-06,-3.39575,0.0938031,0.628977,9.79075,0.00995744,
2,1,0,1,0,24702.8,0.0117852,0.0114876,0.414768,13,0.000381019,10,4.76469e-06,-3.38219,0.108937,0.541598,8.76857,0.0114876,
2,1,0,1,0,24702.9,0.0132838,0.0130157,0.428897,13,0.000446832,10,5.58239e-06,-3.36765,0.100975,0.584301,9.79641,0.0130157,
2,1,0,1,0,24703.1,0.0147814,0.0144946,0.440921,13,0.000514635,10,6.39098e-06,-3.35564,0.119456,0.493907,8.50726,0.0144946,
2,1,0,1,0,24703.2,0.0162789,0.0159467,0.454638,13,0.000584556,10,7.24998e-06,-3.34233,0.14499,0.406926,7.18284,0.0159467,
2,1,0,1,0,24703.4,0.017778,0.0174768,0.4658,13,0.000656141,10,8.14068e-06,-3.3318,0.154246,0.382505,6.93269,0.0174768,
2,1,0,1,0,24703.5,0.0192761,0.01899,0.476232,13,0.000729046,10,9.04365e-06,-3.32218,0.140907,0.418716,7.76248,0.01899,
2,1,0,1,0,24703.7,0.0207743,0.0204841,0.488703,13,0.000803828,10,1.00106e-05,-3.31096,0.147563,0.399828,7.58337,0.0204841,
2,1,0,1,0,24703.8,0.0222725,0.0219687,0.49685,13,0.000880302,10,1.09151e-05,-3.30377,0.165432,0.356641,6.91161,0.0219687,
2,1,0,1,0,24704,0.0237707,0.0234341,0.510351,13,0.000958428,10,1.19596e-05,-3.29213,0.160228,0.368226,7.32079,0.0234341,
2,1,0,1,0,24704.1,0.0252689,0.0249399,0.516193,13,0.00103791,10,1.28738e-05,-3.28719,0.173403,0.340249,6.90813,0.0249399,
2,1,0,1,0,24704.3,0.0267671,0.0264192,0.530713,13,0.00111911,10,1.4021e-05,-3.27514,0.147759,0.399299,8.2601,0.0264192,
2,1,0,1,0,24704.4,0.0282662,0.0279559,0.541931,13,0.00120202,10,1.51501e-05,-3.26606,0.176342,0.334576,7.05534,0.0279559,
2,1,0,1,0,24704.6,0.0297635,0.0294413,0.552905,13,0.00128651,10,1.62782e-05,-3.25735,0.185973,0.317251,6.82344,0.0294413,
2,1,0,1,0,24704.7,0.031261,0.0309179,0.559271,13,0.00137242,10,1.72915e-05,-3.25238,0.195265,0.302154,6.61536,0.0309179,
2,1,0,1,0,24704.9,0.0327599,0.0324529,0.57303,13,0.00145989,10,1.85965e-05,-3.24182,0.178479,0.330571,7.40061,0.0324529,
2,1,0,1,0,24705,0.034258,0.0339396,0.583775,13,0.00154909,10,1.98131e-05,-3.23375,0.189382,0.311539,7.08322,0.0339396,
2,1,0,1,0,24705.2,0.0357562,0.0354581,0.593574,13,0.00163991,10,2.1047e-05,-3.22652,0.237331,0.248598,5.74627,0.0354581,
2,1,0,1,0,24705.3,0.0372544,0.0369172,0.603875,13,0.00173233,10,2.22934e-05,-3.21905,0.203414,0.290049,6.8425,0.0369172,
2,1,0,1,0,24705.5,0.0387526,0.0384113,0.614787,13,0.00182601,10,2.36148e-05,-3.21128,0.201778,0.2924,7.03593,0.0384113,
2,1,0,1,0,24705.6,0.0402508,0.0399457,0.625152,13,0.00192156,10,2.49722e-05,-3.20401,0.188515,0.312972,7.6455,0.0399457,
2,1,0,1,0,24705.8,0.041749,0.0414452,0.63744,13,0.00201897,10,2.64188e-05,-3.19556,0.230284,0.256206,6.35922,0.0414452,
2,1,0,1,0,24705.9,0.0432472,0.0429488,0.647985,13,0.00211789,10,2.78302e-05,-3.18843,0.250477,0.235551,5.93882,0.0429488,
2,1,0,1,0,24706.1,0.0447458,0.0444392,0.657232,13,0.00221796,10,2.92068e-05,-3.18228,0.23042,0.256054,6.56831,0.0444392,
2,1,0,1,0,24706.2,0.0462433,0.0459188,0.667608,13,0.00231966,10,3.06557e-05,-3.17548,0.197083,0.299367,7.7653,0.0459188,
2,1,0,1,0,24706.4,0.0477409,0.047423,0.67673,13,0.00242301,10,3.20925e-05,-3.16958,0.235623,0.2504,6.60298,0.047423,
2,1,0,1,0,24706.5,0.0492399,0.0489518,0.683758,13,0.00252781,10,3.34712e-05,-3.1651,0.280989,0.209973,5.62136,0.0489518,
2,1,0,1,0,24706.7,0.0507381,0.050395,0.69102,13,0.00263356,10,3.48239e-05,-3.16051,0.275583,0.214092,5.80558,0.050395,
2,1,0,1,0,24706.8,0.0522363,0.0519071,0.701232,13,0.00274081,10,3.63989e-05,-3.15414,0.233339,0.252851,6.93438,0.0519071,
2,1,0,1,0,24707,0.0537345,0.0534437,0.713985,13,0.00284957,10,3.81579e-05,-3.14631,0.2737,0.215564,5.99288,0.0534437,
2,1,0,1,0,24707.1,0.0552327,0.0548964,0.722265,13,0.00295979,10,3.96498e-05,-3.1413,0.340164,0.173446,4.86876,0.0548964,
2,1,0,1,0,24707.3,0.0567309,0.0563905,0.727118,13,0.00307112,10,4.10025e-05,-3.1384,0.31761,0.185762,5.2838,0.05639052,
2,1,0,1,0,24707.4,0.0582291,0.0579111,0.739211,13,0.00318358,10,4.28086e-05,-3.13123,0.310151,0.19023,5.47914,0.0579111,
2,1,0,1,0,24707.6,0.0597282,0.0594189,0.747918,13,0.00329757,10,4.44405e-05,-3.12615,0.28869,0.204371,5.95185,0.0594189,
2,1,0,1,0,24707.7,0.0612255,0.0609246,0.755612,13,0.00341286,10,4.60353e-05,-3.1217,0.361509,0.163205,4.80489,0.0609246,
2,1,0,1,0,24707.9,0.062723,0.0624034,0.761929,13,0.00352924,10,4.75469e-05,-3.11809,0.322829,0.182759,5.45133,0.0624034,
2,1,0,1,0,24708,0.0642218,0.0639014,0.769096,13,0.00364665,10,4.91463e-05,-3.11402,0.280579,0.210279,6.33417,0.0639014,
2,1,0,1,0,24708.2,0.06572,0.0654411,0.779366,13,0.00376538,10,5.10026e-05,-3.10826,0.339903,0.173579,5.27173,0.0654411,
2,1,0,1,0,24708.3,0.0672182,0.066896,0.789154,13,0.0038856,10,5.27912e-05,-3.10284,0.397005,0.148613,4.5623,0.066896,
2,1,0,1,0,24708.4,0.0687164,0.0684113,0.796433,13,0.0040067,10,5.4485e-05,-3.09885,0.461495,0.127846,3.95759,0.0684113,
2,1,0,1,0,24708.6,0.0702146,0.0698874,0.798371,13,0.00412859,10,5.5796e-05,-3.0978,0.403451,0.146238,4.56175,0.06988737,
2,1,0,1,0,24708.7,0.0717128,0.0713762,0.804295,13,0.00425141,10,5.74075e-05,-3.09458,0.352496,0.167378,5.26286,0.0713762,
2,1,0,1,0,24708.9,0.073211,0.0728756,0.814289,13,0.00437535,10,5.93418e-05,-3.08922,0.387834,0.152127,4.83511,0.0728756,
2,1,0,1,0,24709,0.0747092,0.0743591,0.818148,13,0.0045003,10,6.08367e-05,-3.08717,0.486193,0.121351,3.88035,0.0743591,
2,1,0,1,0,24709.2,0.0762078,0.075892,0.824219,13,0.00462609,10,6.25516e-05,-3.08396,0.473185,0.124687,4.01177,0.075892,
2,1,0,1,0,24709.3,0.0777053,0.0774035,0.829907,13,0.00475257,10,6.42377e-05,-3.08097,0.419238,0.140732,4.56135,0.0774035,
2,1,0,1,0,24709.5,0.0792029,0.0788637,0.837872,13,0.00488012,10,6.60777e-05,-3.07682,0.527048,0.111944,3.6532,0.0788637,
2,1,0,1,0,24709.6,0.0807019,0.0803769,0.842201,13,0.00500872,10,6.76935e-05,-3.07458,0.726615,0.0811984,2.66332,0.0803769,
2,1,0,1,0,24709.8,0.0822001,0.0818636,0.84504,13,0.00513795,10,6.9178e-05,-3.07312,0.521984,0.11303,3.7453,0.0818636,
2,1,0,1,0,24709.9,0.0836983,0.0833598,0.853485,13,0.00526787,10,7.11464e-05,-3.0688,0.469712,0.125609,4.19047,0.0833598,
2,1,0,1,0,24710.1,0.0851965,0.0848974,0.861114,13,0.00539904,10,7.31064e-05,-3.06494,0.426341,0.138387,4.65252,0.0848974,
2,1,0,1,0,24710.2,0.0866947,0.0864032,0.868558,13,0.00553133,10,7.50462e-05,-3.0612,0.524851,0.112413,3.80228,0.0864032,
2,1,0,1,0,24710.4,0.0881929,0.0878782,0.87842,13,0.00566474,10,7.7194e-05,-3.0563,0.36651,0.160978,5.51024,0.08787822,
2,1,0,1,0,24710.5,0.0896911,0.0893766,0.884318,13,0.00579906,10,7.90373e-05,-3.05339,0.296237,0.199165,6.89143,0.0893766,
2,1,0,1,0,24710.7,0.0911902,0.0908649,0.894929,13,0.00593515,10,8.13176e-05,-3.04821,0.255098,0.231284,8.07879,0.0908649,
2,1,0,1,0,24710.8,0.0926875,0.0923776,0.90952,13,0.00607309,10,8.40193e-05,-3.04119,0.251544,0.234551,8.30703,0.0923776,
2,1,0,1,0,24711,0.094185,0.0938859,0.920314,13,0.00621269,10,8.64045e-05,-3.03606,0.270913,0.217782,7.81957,0.0938859,
2,1,0,1,0,24711.1,0.0956838,0.0953795,0.929703,13,0.00635391,10,8.86746e-05,-3.03166,0.242292,0.243508,8.87133,0.0953795,
2,1,0,1,0,24711.3,0.097182,0.0968631,0.945321,13,0.00649712,10,9.15667e-05,-3.02442,0.190937,0.309002,11.3972,0.0968631,
2,1,0,1,0,24711.4,0.0986802,0.098389,0.961024,13,0.00664275,10,9.45542e-05,-3.01727,0.21226,0.277961,10.4344,0.098389,
2,1,0,1,0,24711.6,0.100178,0.0998396,0.979605,13,0.00679078,10,9.78034e-05,-3.00895,0.212335,0.277862,10.6031,0.09983962,
2,1,0,1,0,24711.7,0.101677,0.101375,0.991533,13,0.00694125,10,0.000100517,-3.00369,0.199647,0.295522,11.4819,0.101375,
2,1,0,1,0,24711.9,0.103175,0.102794,1.01287,13,0.00709416,10,0.000104117,-2.99445,0.192748,0.306099,12.1213,0.102794,
2,1,0,1,0,24712,0.104673,0.104372,1.03466,13,0.00725006,10,0.000107989,-2.9852,0.194348,0.303579,12.2096,0.1043718,
2,1,0,1,0,24712.2,0.106171,0.105881,1.05094,13,0.00740883,10,0.000111275,-2.97842,0.225037,0.26218,10.7082,0.105881,
2,1,0,1,0,24712.3,0.10767,0.107367,1.0658,13,0.00757011,10,0.000114432,-2.97232,0.228107,0.25865,10.758,0.107367,
2,1,0,1,0,24712.5,0.109167,0.108855,1.08026,13,0.00773337,10,0.000117592,-2.96647,0.228139,0.258615,10.9314,0.108855,
2,1,0,1,0,24712.6,0.110665,0.110332,1.09583,13,0.00789934,10,0.000120905,-2.96025,0.238489,0.247391,10.586,0.110332,
2,1,0,1,0,24712.8,0.112164,0.111844,1.11241,13,0.00806773,10,0.000124416,-2.95374,0.308446,0.191282,8.28018,0.111844,
2,1,0,1,0,24712.9,0.113662,0.11336,1.12446,13,0.00823814,10,0.000127468,-2.94906,0.315597,0.186947,8.20353,0.1133598,
2,1,0,1,0,24713.1,0.11516,0.114822,1.13575,13,0.00840988,10,0.000130409,-2.94472,0.359711,0.16402,7.26498,0.1148221,
2,1,0,1,0,24713.2,0.116658,0.116318,1.14811,13,0.00858376,10,0.000133546,-2.94002,0.352808,0.16723,7.47357,0.116318,
2,1,0,1,0,24713.4,0.118157,0.117838,1.15993,13,0.00875932,10,0.000136684,-2.93557,0.458559,0.128664,5.80814,0.117838,
2,1,0,1,0,24713.5,0.119655,0.119328,1.16662,13,0.00893629,10,0.000139211,-2.93307,0.590857,0.099855,4.55033,0.119328,
2,1,0,1,0,24713.7,0.121153,0.120836,1.17279,13,0.00911413,10,0.000141715,-2.93078,0.475232,0.12415,5.70204,0.120836,
2,1,0,1,0,24713.8,0.122652,0.122357,1.18567,13,0.00929352,10,0.000145075,-2.92604,0.397757,0.148332,6.84794,0.122357,
2,1,0,1,0,24714,0.124149,0.123853,1.19305,13,0.00947433,10,0.000147763,-2.92334,0.430913,0.136919,6.37489,0.123853,
2,1,0,1,0,24714.1,0.125647,0.125315,1.20108,13,0.00965643,10,0.000150513,-2.92043,0.538989,0.109464,5.12401,0.1253152,
2,1,0,1,0,24714.3,0.127146,0.126816,1.20306,13,0.00983974,10,0.000152567,-2.91971,0.538794,0.109504,5.16685,0.126816,
2,1,0,1,0,24714.4,0.128644,0.128369,1.21791,13,0.0100239,10,0.000156342,-2.91438,0.645403,0.0914157,4.33842,0.128369,
2,1,0,1,0,24714.6,0.130142,0.1298,1.223,13,0.0102093,10,0.000158746,-2.91257,0.808335,0.0729896,3.47367,0.1298,
2,1,0,1,0,24714.7,0.13164,0.131308,1.22846,13,0.0103958,10,0.000161307,-2.91064,2.44298,0.0241509,1.15273,0.131308,
2,1,0,1,0,24714.9,0.133139,0.132827,1.22728,13,0.0105826,10,0.000163015,-2.91106,-3.02784,-0.0194858,-0.932323,0.132827,
2,1,0,1,0,24715,0.134637,0.134299,1.22497,13,0.010769,10,0.000164512,-2.91187,-0.76178,-0.0774502,-3.69733,0.134299,
2,1,0,1,0,24715.2,0.136135,0.135844,1.2183,13,0.0109549,10,0.000165498,-2.91425,-0.45163,-0.130638,-6.19178,0.1358436,
2,1,0,1,0,24715.3,0.137633,0.137325,1.20806,13,0.0111393,10,0.000165897,-2.91791,-0.248414,-0.237507,-11.1291,0.137325,
2,1,0,1,0,24715.5,0.139132,0.138786,1.18771,13,0.0113215,10,0.000164837,-2.92529,-0.183231,-0.321998,-14.8104,0.138786,
2,1,0,1,0,24715.6,0.140629,0.1403,1.1614,13,0.0114999,10,0.000162945,-2.93502,-0.140702,-0.419327,-18.9244,0.1403,
2,1,0,1,0,24715.8,0.142127,0.141852,1.12898,13,0.0116742,10,0.000160148,-2.94731,-0.120519,-0.48955,-21.4593,0.141852,
2,1,0,1,0,24715.9,0.143626,0.143328,1.09574,13,0.0118438,10,0.00015705,-2.96029,-0.0979522,-0.602334,-25.6227,0.143328,
2,1,0,1,0,24716.1,0.145124,0.144834,1.0503,13,0.0120073,10,0.000152118,-2.97869,-0.0820904,-0.71872,-29.4126,0.144834,
2,1,0,1,0,24716.2,0.146622,0.146321,1.00525,13,0.0121641,10,0.00014709,-2.99773,-0.0771615,-0.76463,-30.0509,0.146321,
2,1,0,1,0,24716.4,0.14812,0.147837,0.959405,13,0.0123142,10,0.000141835,-3.018,-0.0726906,-0.811659,-30.4086,0.1478368,
2,1,0,1,0,24716.5,0.149619,0.149319,0.918472,13,0.0124575,10,0.000137146,-3.03693,-0.0719748,-0.819731,-29.3794,0.149319,
2,1,0,1,0,24716.7,0.151117,0.150789,0.873187,13,0.0125942,10,0.000131667,-3.05889,-0.0701271,-0.84133,-28.666,0.150789,
2,1,0,1,0,24716.8,0.152615,0.152301,0.831085,13,0.0127245,10,0.000126575,-3.08035,-0.0749668,-0.787015,-25.6717,0.152301,
2,1,0,1,0,24717,0.154114,0.153806,0.798048,13,0.012849,10,0.000122745,-3.09797,-0.0823666,-0.71631,-22.3573,0.153806,
2,1,0,1,0,24717.1,0.155612,0.155325,0.765508,13,0.0129686,10,0.000118902,-3.11605,-0.0884288,-0.667203,-19.9824,0.155325,
2,1,0,1,0,24717.3,0.157109,0.156758,0.735945,13,0.0130836,10,0.000115365,-3.13315,-0.0935787,-0.630485,-18.1455,0.156758,
2,1,0,1,0,24717.4,0.158608,0.158331,0.712536,13,0.0131946,10,0.000112816,-3.14719,-0.10967,-0.537975,-15.0069,0.158331,
2,1,0,1,0,24717.6,0.160106,0.159761,0.690301,13,0.0133019,10,0.000110283,-3.16096,-0.12139,-0.486037,-13.1416,0.159761,
2,1,0,1,0,24717.7,0.161604,0.161284,0.673514,13,0.0134066,10,0.000108627,-3.17165,-0.142175,-0.414982,-10.917,0.161284,
2,1,0,1,0,24717.9,0.163102,0.162795,0.658423,13,0.0135089,10,0.000107188,-3.18149,-0.149307,-0.39516,-10.1471,0.1627949,
2,1,0,1,0,24718,0.164601,0.164277,0.644725,13,0.0136089,10,0.000105914,-3.19063,-0.164524,-0.358611,-9.02899,0.164277,
2,1,0,1,0,24718.2,0.166099,0.165776,0.630988,13,0.0137069,10,0.000104603,-3.19998,-0.187407,-0.314822,-7.77082,0.165776,
2,1,0,1,0,24718.3,0.167597,0.167293,0.620974,13,0.0138033,10,0.000103885,-3.20693,-0.24369,-0.242111,-5.86169,0.167293,
2,1,0,1,0,24718.5,0.169095,0.168788,0.612379,13,0.0138983,10,0.000103362,-3.21298,-0.23532,-0.250722,-6.0049,0.168788,
2,1,0,1,0,24718.6,0.170594,0.170316,0.603595,13,0.0139921,10,0.000102802,-3.21925,-0.240609,-0.245211,-5.79504,0.170316,
2,1,0,1,0,24718.8,0.172091,0.171766,0.594623,13,0.0140844,10,0.000102136,-3.22576,-0.291402,-0.202469,-4.72126,0.171766,
2,1,0,1,0,24718.9,0.173589,0.173254,0.589143,13,0.0141757,10,0.000102071,-3.22978,-0.453637,-0.13006,-2.9939,0.173254,
2,1,0,1,0,24719.1,0.175088,0.174718,0.585268,13,0.0142663,10,0.000102257,-3.23265,-0.368433,-0.160137,-3.64856,0.1747181,
2,1,0,1,0,24719.2,0.176586,0.17626,0.578919,13,0.014356,10,0.00010204,-3.23738,-0.351433,-0.167884,-3.78443,0.17626,
2,1,0,1,0,24719.4,0.178084,0.177788,0.57356,13,0.0144449,10,0.000101972,-3.24142,-0.425391,-0.138696,-3.11209,0.177788,
2,1,0,1,0,24719.5,0.179582,0.179303,0.569941,13,0.0145331,10,0.000102192,-3.24417,-0.423491,-0.139318,-3.10734,0.179303,
2,1,0,1,0,24719.7,0.181081,0.180775,0.565936,13,0.0146209,10,0.000102307,-3.24723,-0.670614,-0.0879791,-1.94629,0.180775,
2,1,0,1,0,24719.8,0.182579,0.182283,0.56328,13,0.0147081,10,0.000102676,-3.24928,-0.450923,-0.130843,-2.87235,0.182283,
2,1,0,1,0,24720,0.184077,0.183774,0.561087,13,0.0147948,10,0.000103113,-3.25097,-0.587336,-0.100454,-2.2023,0.183774,
2,1,0,1,0,24720.1,0.185576,0.185263,0.558202,13,0.0148809,10,0.000103414,-3.25321,-0.568592,-0.103765,-2.25872,0.185263,
2,1,0,1,0,24720.3,0.187074,0.186776,0.554177,13,0.0149667,10,0.000103507,-3.25635,-0.896971,-0.0657769,-1.42173,0.186776,
2,1,0,1,0,24720.4,0.188571,0.1882,0.552575,13,0.0150521,10,0.000103995,-3.25761,-1.31991,-0.0447001,-0.964522,0.1882005,
2,1,0,1,0,24720.6,0.19007,0.189781,0.549782,13,0.0151372,10,0.000104338,-3.25981,-1.10053,-0.0536106,-1.15216,0.189781,
2,1,0,1,0,24720.7,0.191568,0.19123,0.546991,13,0.0152218,10,0.000104601,-3.26202,-0.793273,-0.0743754,-1.59009,0.19123,
2,1,0,1,0,24720.9,0.193066,0.192766,0.544906,13,0.0153062,10,0.00010504,-3.26368,-3.61596,-0.0163165,-0.347385,0.192766,
2,1,0,1,0,24721,0.194564,0.194224,0.543251,13,0.0153903,10,0.000105513,-3.265,-1.12371,-0.0525045,-1.11416,0.194224,
2,1,0,1,0,24721.2,0.196063,0.195775,0.541649,13,0.0154741,10,0.000106041,-3.26628,-0.732373,-0.0805601,-1.70866,0.195775,
2,1,0,1,0,24721.3,0.197561,0.197238,0.536738,13,0.0155575,10,0.000105865,-3.27024,-1.16693,-0.0505602,-1.06415,0.197238,
2,1,0,1,0,24721.5,0.199059,0.198718,0.539297,13,0.0156407,10,0.000107168,-3.26817,-1.21263,-0.0486544,-1.02247,0.198718,
2,1,0,1,0,24721.6,0.200557,0.200226,0.536847,13,0.0157237,10,0.000107491,-3.27015,-0.897229,-0.0657581,-1.3734,0.200226,
2,1,0,1,0,24721.8,0.202056,0.201759,0.535852,13,0.0158065,10,0.000108113,-3.27096,-0.999869,-0.0590077,-1.2312,0.201759,
2,1,0,1,0,24721.9,0.203553,0.203278,0.53249,13,0.015889,10,0.000108243,-3.27369,-1.45007,-0.0406876,-0.845132,0.203278,
2,1,0,1,0,24722.1,0.205051,0.204715,0.531613,13,0.0159712,10,0.000108829,-3.2744,7.82666,0.00753834,0.157587,0.204715,
2,1,0,1,0,24722.2,0.20655,0.206228,0.529706,13,0.0160533,10,0.00010924,-3.27596,-1.06698,-0.0552962,-1.14501,0.206228,
2,1,0,1,0,24722.4,0.208048,0.207748,0.530454,13,0.0161355,10,0.000110201,-3.27535,-0.760282,-0.0776028,-1.59799,0.207748,
2,1,0,1,0,24722.5,0.209546,0.209275,0.527033,13,0.0162172,10,0.000110295,-3.27816,-0.692305,-0.0852226,-1.75665,0.209275,
2,1,0,1,0,24722.7,0.211044,0.210731,0.5267,13,0.0162986,10,0.000110992,-3.27844,-1.16806,-0.0505112,-1.0402,0.210731,
2,1,0,1,0,24722.8,0.212543,0.212255,0.524824,13,0.0163799,10,0.000111397,-3.27999,-2.52856,-0.0233334,-0.477894,0.212255,
2,1,0,1,0,24723,0.214041,0.213729,0.525098,13,0.016461,10,0.000112229,-3.27976,-1.28368,-0.0459617,-0.940097,0.213729,
2,1,0,1,0,24723.1,0.215539,0.215213,0.522775,13,0.016542,10,0.000112508,-3.28169,-1.0797,-0.0546448,-1.11477,0.215213,
2,1,0,1,0,24723.3,0.217038,0.21672,0.522487,13,0.0166227,10,0.000113234,-3.28192,-11.3104,-0.00521642,-0.10657,0.21672,
2,1,0,1,0,24723.4,0.218535,0.218239,0.521917,13,0.0167033,10,0.000113903,-3.2824,40.8131,0.00144561,0.0293556,0.218239,
2,1,0,1,0,24723.6,0.220033,0.21975,0.521608,13,0.0167838,10,0.000114623,-3.28266,-6.71022,-0.00879256,-0.178657,0.21975,
2,1,0,1,0,24723.7,0.221532,0.221238,0.51814,13,0.0168642,10,0.000114632,-3.28555,-1.06726,-0.0552817,-1.11933,0.221238,
2,1,0,1,0,24723.9,0.22303,0.222711,0.515069,13,0.0169443,10,0.000114711,-3.28813,-1.9424,-0.0303747,-0.613617,0.222711,
2,1,0,1,0,24724,0.224528,0.224218,0.516358,13,0.0170242,10,0.000115777,-3.28705,-2.16157,-0.027295,-0.550338,0.224218,
2,1,0,1,0,24724.2,0.226026,0.225727,0.516827,13,0.017104,10,0.000116662,-3.28666,-1.07691,-0.0547864,-1.10413,0.225727,
2,1,0,1,0,24724.3,0.227525,0.227228,0.513358,13,0.0171838,10,0.000116649,-3.28958,-0.777796,-0.0758554,-1.52072,0.227228,
2,1,0,1,0,24724.5,0.229023,0.22873,0.513308,13,0.0172633,10,0.000117409,-3.28962,-1.1424,-0.0516457,-1.03777,0.22873,
2,1,0,1,0,24724.6,0.230521,0.230225,0.512236,13,0.0173426,10,0.00011793,-3.29053,-1.38784,-0.0425121,-0.852217,0.2302251,
2,1,0,1,0,24724.8,0.232019,0.231718,0.51305,13,0.0174218,10,0.000118883,-3.28984,-2.16295,-0.0272775,-0.544859,0.231718,
2,1,0,1,0,24724.9,0.233518,0.233217,0.510062,13,0.0175011,10,0.000118955,-3.29238,-1.06654,-0.0553189,-1.10143,0.233217,
2,1,0,1,0,24725.1,0.235015,0.234733,0.512443,13,0.0175801,10,0.000120287,-3.29035,-1.70091,-0.0346874,-0.690142,0.234733,
2,1,0,1,0,24725.2,0.236513,0.236216,0.508833,13,0.0176589,10,0.000120194,-3.29342,-2.80096,-0.0210642,-0.418288,0.236216,
2,1,0,1,0,24725.4,0.238012,0.237681,0.507151,13,0.0177377,10,0.00012054,-3.29486,-5.42581,-0.0108739,-0.215684,0.237681,
2,1,0,1,0,24725.5,0.23951,0.239217,0.507533,13,0.0178163,10,0.000121411,-3.29454,-2.35912,-0.0250093,-0.49504,0.239217,
2,1,0,1,0,24725.7,0.241008,0.240761,0.50476,13,0.0178947,10,0.000121527,-3.29692,-1.12143,-0.0526116,-1.03919,0.240761,
2,1,0,1,0,24725.8,0.242506,0.24222,0.50471,13,0.017973,10,0.000122251,-3.29696,-2.88303,-0.0204646,-0.404322,0.2422204,
2,1,0,1,0,24726,0.244005,0.243708,0.503149,13,0.0180511,10,0.000122622,-3.2983,-2.10006,-0.0280944,-0.552743,0.243708,
2,1,0,1,0,24726.1,0.245503,0.245219,0.505717,13,0.0181294,10,0.000124011,-3.29609,-1.06151,-0.0555812,-1.09468,0.245219,
2,1,0,1,0,24726.3,0.247001,0.246705,0.502722,13,0.0182073,10,0.000124024,-3.29867,-1.28147,-0.0460408,-0.903023,0.246705,
2,1,0,1,0,24726.4,0.2485,0.248173,0.500267,13,0.0182852,10,0.000124153,-3.3008,-2.83029,-0.0208459,-0.408485,0.248173,
2,1,0,1,0,24726.6,0.249997,0.249686,0.501397,13,0.0183627,10,0.000125192,-3.29982,-9.88894,-0.00596626,-0.116439,0.249686,
2,1,0,1,0,24726.7,0.251495,0.251177,0.500647,13,0.0184403,10,0.000125751,-3.30047,-3.23301,-0.0182493,-0.357103,0.251177,
2,1,0,1,0,24726.9,0.252994,0.252676,0.499401,13,0.0185178,10,0.000126187,-3.30155,-1.00065,-0.0589618,-1.14832,0.252676,
2,1,0,1,0,24727,0.254492,0.254191,0.499035,13,0.0185951,10,0.00012685,-3.30187,-2.13123,-0.0276835,-0.540112,0.254191,
2,1,0,1,0,24727.2,0.25599,0.255708,0.499021,13,0.0186721,10,0.000127603,-3.30188,-3.13898,-0.0187959,-0.365626,0.255708,
2,1,0,1,0,24727.3,0.257488,0.257183,0.49804,13,0.0187492,10,0.000128087,-3.30274,-3.44418,-0.0171303,-0.332245,0.257183,
2,1,0,1,0,24727.5,0.258987,0.258727,0.497796,13,0.0188262,10,0.000128793,-3.30295,-6.9175,-0.00852909,-0.16486,0.258727,
2,1,0,1,0,24727.6,0.260485,0.260162,0.496521,13,0.018903,10,0.000129176,-3.30406,-1.35611,-0.0435067,-0.842156,0.260162,
2,1,0,1,0,24727.8,0.261983,0.261681,0.495175,13,0.0189796,10,0.000129578,-3.30524,-1.78513,-0.0330509,-0.638718,0.261681,
2,1,0,1,0,24727.9,0.263481,0.263203,0.494498,13,0.0190562,10,0.000130153,-3.30584,6.445,0.00915438,0.176223,0.2632027,
2,1,0,1,0,24728.1,0.26498,0.264702,0.495057,13,0.0191327,10,0.000131043,-3.30534,-5.31206,-0.0111068,-0.213884,0.264702,
2,1,0,1,0,24728.2,0.266477,0.26621,0.493669,13,0.0192091,10,0.00013142,-3.30656,41.0384,0.00143768,0.0276012,0.26621,
2,1,0,1,0,24728.4,0.267976,0.267655,0.490093,13,0.0192853,10,0.000131176,-3.30972,-1.68679,-0.0349776,-0.670543,0.267655,
2,1,0,1,0,24728.5,0.269474,0.269192,0.491771,13,0.0193613,10,0.000132381,-3.30824,-9.36568,-0.0062996,-0.120602,0.269192,
2,1,0,1,0,24728.7,0.270972,0.270628,0.490897,13,0.0194373,10,0.00013285,-3.30901,7.20289,0.00819115,0.156014,0.270628,
2,1,0,1,0,24728.8,0.27247,0.272133,0.489518,13,0.0195133,10,0.000133214,-3.31023,-1.93886,-0.0304302,-0.580104,0.272133,
2,1,0,1,0,24729,0.273968,0.273631,0.48698,13,0.019589,10,0.000133253,-3.31249,-1.12034,-0.0526628,-1.00155,0.273631,
2,1,0,1,0,24729.1,0.275467,0.275164,0.487814,13,0.0196645,10,0.000134229,-3.31175,-0.983641,-0.0599812,-1.14107,0.275164,
2,1,0,1,0,24729.3,0.276965,0.27666,0.485255,13,0.0197399,10,0.000134251,-3.31403,-0.985594,-0.0598624,-1.13616,0.27666,
2,1,0,1,0,24729.4,0.278463,0.27814,0.486497,13,0.0198153,10,0.000135314,-3.31292,-0.821559,-0.0718147,-1.35835,0.27814,
2,1,0,1,0,24729.6,0.279962,0.279689,0.484613,13,0.0198906,10,0.000135541,-3.3146,-3.25897,-0.0181039,-0.341879,0.279689,
2,1,0,1,0,24729.7,0.281459,0.281124,0.484093,13,0.0199654,10,0.00013609,-3.31507,-2.47229,-0.0238645,-0.451059,0.281124,
2,1,0,1,0,24729.9,0.282957,0.282635,0.483611,13,0.0200403,10,0.000136685,-3.3155,-12.2493,-0.00481658,-0.0906428,0.282635,
2,1,0,1,0,24730,0.284456,0.284175,0.483179,13,0.0201151,10,0.000137308,-3.31589,-7.04526,-0.00837442,-0.157847,0.2841754,
2,1,0,1,0,24730.2,0.285954,0.285691,0.481969,13,0.0201898,10,0.000137694,-3.31698,-2.50287,-0.0235729,-0.442529,0.2856907,
2,1,0,1,0,24730.3,0.287452,0.287126,0.479916,13,0.0202642,10,0.000137797,-3.31883,-1.72695,-0.0341642,-0.64189,0.287126,
2,1,0,1,0,24730.5,0.28895,0.288633,0.478144,13,0.0203386,10,0.000138008,-3.32044,3.8184,0.0154515,0.288263,0.288633,
2,1,0,1,0,24730.6,0.290449,0.29015,0.479578,13,0.0204128,10,0.000139149,-3.31914,-1.27221,-0.046376,-0.867075,0.29015,
2,1,0,1,0,24730.8,0.291947,0.291616,0.477019,13,0.0204869,10,0.000139106,-3.32146,-1.18669,-0.0497179,-0.926786,0.291616,
2,1,0,1,0,24730.9,0.293445,0.293123,0.476212,13,0.0205609,10,0.000139589,-3.3222,-1.43689,-0.0410608,-0.76527,0.2931231,
2,1,0,1,0,24731.1,0.294943,0.29465,0.477409,13,0.0206347,10,0.000140669,-3.32111,-1.71116,-0.0344795,-0.641001,0.29465,
2,1,0,1,0,24731.2,0.296442,0.296197,0.478265,13,0.0207084,10,0.00014166,-3.32033,-6.12006,-0.00964043,-0.178724,0.296197,
2,1,0,1,0,24731.4,0.297939,0.297629,0.473671,13,0.0207822,10,0.000140978,-3.32452,-2.00978,-0.0293565,-0.543024,0.297629,
2,1,0,1,0,24731.5,0.299437,0.299115,0.471347,13,0.0208556,10,0.000140987,-3.32666,-0.0022262,-26.5025,-223.467,0.299115,
2,1,0,1,0,24731.6,0.299738,0.299439,0.223314,13,0.0208904,10,6.68691e-05,-3.65108,0.000856876,68.8548,393.693,0.299439,
2,1,0,1,0,24731.8,0.29824,0.297981,0.00145125,13,0.0208979,10,4.32446e-07,-5.83826,0.00388393,15.1908,135.082,0.297981,
2,0,0,1,0,24731.9,0.296741,0.296506,-0.0369039,13,0.0208922,10,-1.09422e-05,-4.43293,-0.00969506,-6.08557,22.8522,0.296506,
2,0,0,1,0,24732.1,0.295243,0.294931,-0.061821,13,0.0208821,10,-1.8233e-05,-4.20886,-0.00867017,-6.80494,13.31,0.294931,
2,0,0,1,0,24732.2,0.293745,0.293401,-0.077451,13,0.0208692,10,-2.27242e-05,-4.11097,-0.0154988,-3.80676,10.5484,0.293401,
2,0,0,1,0,24732.4,0.292246,0.291956,-0.0931986,13,0.0208542,10,-2.72099e-05,-4.03059,-0.0237635,-2.4828,8.61507,0.291956,
2,0,0,1,0,24732.5,0.290748,0.290416,-0.104026,13,0.020837,10,-3.02108e-05,-3.98286,-0.0271403,-2.17389,8.46534,0.290416,
2,0,0,1,0,24732.7,0.28925,0.288932,-0.113772,13,0.0208181,10,-3.28726e-05,-3.94396,-0.0388538,-1.51851,6.71195,0.288932,
2,0,0,1,0,24732.8,0.287752,0.287419,-0.123242,13,0.0207977,10,-3.54222e-05,-3.90924,-0.0446804,-1.32049,6.35563,0.287419,
2,0,0,1,0,24733,0.286253,0.285942,-0.133642,13,0.020776,10,-3.82139e-05,-3.87406,-0.0577861,-1.02101,5.2692,0.285942,
2,0,0,1,0,24733.1,0.284755,0.284438,-0.141088,13,0.0207531,10,-4.01308e-05,-3.85051,-0.0518002,-1.13899,6.18025,0.284438,
2,0,0,1,0,24733.3,0.283258,0.282941,-0.150336,13,0.0207289,10,-4.25362e-05,-3.82294,-0.0653969,-0.902183,5.21829,0.282941,
2,0,0,1,0,24733.4,0.281759,0.281412,-0.156021,13,0.0207036,10,-4.39063e-05,-3.80682,-0.072762,-0.810863,4.85362,0.281412,
2,0,0,1,0,24733.6,0.280261,0.279922,-0.159358,13,0.0206774,10,-4.46078e-05,-3.79763,-0.0962163,-0.613202,3.88373,0.279922,
2,0,0,1,0,24733.7,0.278763,0.278428,-0.167968,13,0.0206503,10,-4.67669e-05,-3.77477,-0.0941014,-0.626983,4.08767,0.278428,
2,0,0,1,0,24733.9,0.277264,0.276932,-0.173945,13,0.0206221,10,-4.8171e-05,-3.75959,-0.111845,-0.527516,3.57757,0.276932,
2,0,0,1,0,24734,0.275766,0.275493,-0.178692,13,0.0205931,10,-4.92283e-05,-3.7479,-0.150391,-0.39231,2.71941,0.275493,
2,0,0,1,0,24734.2,0.274268,0.273973,-0.184955,13,0.0205633,10,-5.06727e-05,-3.73293,-0.12297,-0.47979,3.46308,0.2739732,
2,0,0,1,0,24734.3,0.27277,0.272476,-0.190653,13,0.0205328,10,-5.19483e-05,-3.71976,-0.112014,-0.526721,3.92106,0.2724759,
2,0,0,1,0,24734.5,0.271272,0.270926,-0.19565,13,0.0205014,10,-5.30065e-05,-3.70852,-0.152571,-0.386706,2.94967,0.270926,
2,0,0,1,0,24734.6,0.269773,0.269491,-0.202103,13,0.020469,10,-5.4465e-05,-3.69443,-0.137658,-0.428598,3.31313,0.2694909,
2,0,0,1,0,24734.8,0.268275,0.267978,-0.206295,13,0.0204361,10,-5.52826e-05,-3.68551,-0.137956,-0.427674,3.43547,0.267978,
2,0,0,1,0,24734.9,0.266778,0.266485,-0.208158,13,0.0204026,10,-5.54709e-05,-3.68161,-0.164021,-0.35971,2.93874,0.266485,
2,0,0,1,0,24735.1,0.265279,0.264946,-0.214507,13,0.0203683,10,-5.68328e-05,-3.66856,-0.135046,-0.436887,3.64544,0.264946,
2,0,0,1,0,24735.2,0.263781,0.263449,-0.218338,13,0.0203333,10,-5.75208e-05,-3.66087,-0.137639,-0.428658,3.66485,0.263449,
2,0,0,1,0,24735.4,0.262283,0.261958,-0.221854,13,0.0202976,10,-5.81163e-05,-3.65393,-0.173354,-0.340344,2.96734,0.261958,
2,0,0,1,0,24735.5,0.260784,0.260464,-0.224457,13,0.0202614,10,-5.84628e-05,-3.64887,-0.203293,-0.290221,2.57597,0.2604636,
2,0,0,1,0,24735.7,0.259286,0.258977,-0.231759,13,0.0202246,10,-6.00203e-05,-3.63496,-0.177103,-0.33314,3.00814,0.258977,
2,0,0,1,0,24735.8,0.257788,0.257492,-0.237534,13,0.0201871,10,-6.11631e-05,-3.62427,-0.20735,-0.284543,2.61124,0.257492,
2,0,0,1,0,24736,0.25629,0.255987,-0.239477,13,0.0201489,10,-6.13029e-05,-3.62074,-0.249623,-0.236357,2.19916,0.2559866,
2,0,0,1,0,24736.1,0.254791,0.254488,-0.241667,13,0.0201103,10,-6.15015e-05,-3.61678,-0.207246,-0.284686,2.70024,0.254488,
2,0,0,1,0,24736.3,0.253293,0.252979,-0.247181,13,0.0200713,10,-6.25315e-05,-3.60699,-0.21056,-0.280205,2.68848,0.252979,
2,0,0,1,0,24736.4,0.251796,0.251481,-0.249567,13,0.0200315,10,-6.27614e-05,-3.60281,-0.23552,-0.250509,2.46071,0.251481,
2,0,0,1,0,24736.6,0.250297,0.249974,-0.253826,13,0.0199913,10,-6.345e-05,-3.59546,-0.320818,-0.183905,1.81355,0.249974,
2,0,0,1,0,24736.7,0.248799,0.24847,-0.256977,13,0.0199505,10,-6.38512e-05,-3.59011,-0.322856,-0.182744,1.83241,0.24847,
2,0,0,1,0,24736.9,0.247301,0.24701,-0.260033,13,0.0199094,10,-6.42309e-05,-3.58497,-0.268812,-0.219484,2.23741,0.24701,
2,0,0,1,0,24737,0.245802,0.24553,-0.264156,13,0.0198676,10,-6.48581e-05,-3.57814,-0.276324,-0.213518,2.18847,0.24553,
2,0,0,1,0,24737.2,0.244304,0.244011,-0.268375,13,0.0198252,10,-6.54867e-05,-3.57126,-0.326457,-0.180728,1.87603,0.2440114,
2,0,0,1,0,24737.3,0.242806,0.242464,-0.270937,13,0.0197824,10,-6.56926e-05,-3.56713,-0.344684,-0.171171,1.80582,0.242464,
2,0,0,1,0,24737.5,0.241308,0.241067,-0.273031,13,0.0197394,10,-6.58186e-05,-3.56379,-0.314253,-0.187747,1.99986,0.241067,
2,0,0,1,0,24737.6,0.23981,0.239492,-0.276005,13,0.0196956,10,-6.61009e-05,-3.55908,-0.223414,-0.264084,2.83726,0.239492,
2,0,0,1,0,24737.8,0.238311,0.238006,-0.279686,13,0.0196514,10,-6.65669e-05,-3.55333,-0.27672,-0.213212,2.32723,0.238006,
2,0,0,1,0,24737.9,0.236814,0.23645,-0.283367,13,0.0196067,10,-6.70021e-05,-3.54765,-0.312412,-0.188853,2.07987,0.23645,
2,0,0,1,0,24738,0.235316,0.235019,-0.283862,13,0.0195617,10,-6.67131e-05,-3.54689,-0.316344,-0.186506,2.07566,0.235019,
2,0,0,1,0,24738.2,0.233817,0.233561,-0.288048,13,0.0195161,10,-6.72769e-05,-3.54053,-0.283341,-0.20823,2.34773,0.233561,
2,0,0,1,0,24738.3,0.232319,0.231999,-0.291814,13,0.0194701,10,-6.77007e-05,-3.53489,-0.313356,-0.188285,2.14034,0.231999,
2,0,0,1,0,24738.5,0.230821,0.230536,-0.294229,13,0.0194235,10,-6.78303e-05,-3.53131,-0.502615,-0.117386,1.35298,0.230536,
2,0,0,1,0,24738.6,0.229322,0.228997,-0.295572,13,0.0193766,10,-6.76851e-05,-3.52934,-0.319957,-0.1844,2.13482,0.228997,
2,0,0,1,0,24738.8,0.227824,0.227499,-0.300592,13,0.0193292,10,-6.83844e-05,-3.52202,-0.358189,-0.164718,1.9389,0.227499,
2,0,0,1,0,24738.9,0.226326,0.22601,-0.303122,13,0.0192814,10,-6.85085e-05,-3.51838,-0.394231,-0.149658,1.77495,0.22601,
2,0,0,1,0,24739.1,0.224828,0.224574,-0.307088,13,0.0192331,10,-6.8964e-05,-3.51274,-0.502673,-0.117373,1.39988,0.224574,
2,0,0,1,0,24739.2,0.223329,0.22305,-0.310285,13,0.0191843,10,-6.92088e-05,-3.50824,-0.421113,-0.140105,1.69426,0.22305,
2,0,0,1,0,24739.4,0.221831,0.221541,-0.313746,13,0.0191353,10,-6.95077e-05,-3.50342,-0.264728,-0.22287,2.71647,0.221541,
2,0,0,1,0,24739.5,0.220334,0.220074,-0.315259,13,0.0190857,10,-6.93801e-05,-3.50133,-0.312546,-0.188772,2.31021,0.220074,
2,0,0,1,0,24739.7,0.218835,0.218536,-0.321216,13,0.0190355,10,-7.01973e-05,-3.4932,-0.309931,-0.190365,2.37189,0.218536,
2,0,0,1,0,24739.8,0.217337,0.21698,-0.321746,13,0.0189849,10,-6.98123e-05,-3.49249,-0.402649,-0.14653,1.83158,0.21698,
2,0,0,1,0,24740,0.215839,0.215548,-0.322627,13,0.018934,10,-6.95415e-05,-3.4913,-0.405009,-0.145676,1.84903,0.215548,
2,0,0,1,0,24740.1,0.21434,0.213984,-0.325209,13,0.0188827,10,-6.95895e-05,-3.48784,-0.328893,-0.17939,2.27637,0.213984,
2,0,0,1,0,24740.3,0.212842,0.212515,-0.33144,13,0.0188307,10,-7.0436e-05,-3.4796,-0.315861,-0.186791,2.40724,0.212515,
2,0,0,1,0,24740.4,0.211344,0.21102,-0.333825,13,0.0187784,10,-7.04437e-05,-3.47648,-0.504224,-0.117011,1.5195,0.21102,
2,0,0,1,0,24740.6,0.209846,0.209528,-0.335285,13,0.0187256,10,-7.02517e-05,-3.47459,-0.36372,-0.162213,2.13109,0.209528,
2,0,0,1,0,24740.7,0.208348,0.208009,-0.339764,13,0.0186725,10,-7.06738e-05,-3.46882,-0.321702,-0.183399,2.42967,0.2080085,
2,0,0,1,0,24740.9,0.206849,0.206532,-0.347038,13,0.0186186,10,-7.16746e-05,-3.45962,-0.432874,-0.136298,1.82481,0.206532,
2,0,0,1,0,24741,0.205352,0.20506,-0.345398,13,0.0185642,10,-7.08273e-05,-3.46168,-0.476141,-0.123913,1.66873,0.20506,
2,0,0,1,0,24741.2,0.203854,0.203568,-0.348083,13,0.0185096,10,-7.08586e-05,-3.45832,-0.507462,-0.116265,1.58336,0.203568,
2,0,0,1,0,24741.3,0.202355,0.202039,-0.351157,13,0.0184545,10,-7.09475e-05,-3.4545,-0.358636,-0.164512,2.26086,0.202039,
2,0,0,1,0,24741.5,0.200857,0.200538,-0.355585,13,0.0183989,10,-7.13084e-05,-3.44906,-0.32346,-0.182403,2.53464,0.200538,
2,0,0,1,0,24741.6,0.199359,0.199054,-0.358147,13,0.0183429,10,-7.12908e-05,-3.44594,-0.424651,-0.138938,1.94098,0.199054,
2,0,0,1,0,24741.8,0.19786,0.19755,-0.363957,13,0.0182863,10,-7.18996e-05,-3.43895,-0.436735,-0.135093,1.90451,0.1975497,
2,0,0,1,0,24741.9,0.196362,0.196017,-0.364443,13,0.0182293,10,-7.14371e-05,-3.43837,-0.390729,-0.151,2.15129,0.196017,
2,0,0,1,0,24742.1,0.194864,0.194543,-0.36941,13,0.0181718,10,-7.18664e-05,-3.43249,-0.349279,-0.168919,2.42542,0.194543,
2,0,0,1,0,24742.2,0.193366,0.193054,-0.372661,13,0.0181135,10,-7.19436e-05,-3.42869,-0.36917,-0.159818,2.32441,0.193054,
2,0,0,1,0,24742.4,0.191867,0.191556,-0.376432,13,0.0180549,10,-7.21079e-05,-3.42431,-0.465181,-0.126832,1.87038,0.191556,
2,0,0,1,0,24742.5,0.190369,0.190033,-0.379225,13,0.0179959,10,-7.20654e-05,-3.4211,-0.326797,-0.18054,2.67341,0.190033,
2,0,0,1,0,24742.7,0.188872,0.188562,-0.382676,13,0.0179362,10,-7.21582e-05,-3.41717,-0.286584,-0.205873,3.0804,0.188562,
2,0,0,1,0,24742.8,0.187373,0.187022,-0.388977,13,0.0178758,10,-7.27473e-05,-3.41008,-0.280063,-0.210667,3.18901,0.187022,
2,0,0,1,0,24743,0.185875,0.185591,-0.39085,13,0.0178149,10,-7.25384e-05,-3.40799,-0.423589,-0.139286,2.12469,0.1855915,
2,0,0,1,0,24743.1,0.184377,0.184075,-0.393359,13,0.0177535,10,-7.24075e-05,-3.40521,-0.301101,-0.195947,3.02429,0.184075,
2,0,0,1,0,24743.3,0.182878,0.182579,-0.398836,13,0.0176915,10,-7.2819e-05,-3.39921,-0.27387,-0.215431,3.36223,0.182579,
2,0,0,1,0,24743.4,0.18138,0.181071,-0.405823,13,0.0176286,10,-7.34828e-05,-3.39166,-0.332043,-0.177688,2.80642,0.181071,
2,0,0,1,0,24743.6,0.179882,0.179616,-0.40787,13,0.0175651,10,-7.32599e-05,-3.38948,-0.489857,-0.120443,1.91874,0.179616,
2,0,0,1,0,24743.7,0.178384,0.17803,-0.413291,13,0.017501,10,-7.3578e-05,-3.38374,-0.284142,-0.207642,3.35778,0.17803,
2,0,0,1,0,24743.9,0.176886,0.176556,-0.41819,13,0.0174363,10,-7.38339e-05,-3.37863,-0.264511,-0.223053,3.64375,0.176556,
2,0,0,1,0,24744,0.175387,0.175042,-0.423768,13,0.0173706,10,-7.41773e-05,-3.37287,-0.261834,-0.225333,3.72241,0.175042,
2,0,0,1,0,24744.2,0.17389,0.173536,-0.430313,13,0.0173041,10,-7.46747e-05,-3.36622,-0.289972,-0.203468,3.40134,0.173536,
2,0,0,1,0,24744.3,0.172392,0.172093,-0.434232,13,0.0172367,10,-7.47283e-05,-3.36228,-0.253171,-0.233044,3.9634,0.172093,
2,0,0,1,0,24744.5,0.170893,0.170586,-0.440554,13,0.0171687,10,-7.51523e-05,-3.356,-0.259117,-0.227696,3.92248,0.170586,
2,0,0,1,0,24744.6,0.169395,0.169056,-0.448101,13,0.0170995,10,-7.5754e-05,-3.34862,-0.201312,-0.293077,5.12248,0.169056,
2,0,0,1,0,24744.8,0.167897,0.167559,-0.453402,13,0.0170292,10,-7.59717e-05,-3.34352,-0.204074,-0.28911,5.13236,0.1675593,
2,0,0,1,0,24744.9,0.166398,0.166087,-0.462551,13,0.0169578,10,-7.68239e-05,-3.33484,-0.237141,-0.248797,4.4966,0.166087,
2,0,0,1,0,24745.1,0.1649,0.164587,-0.468846,13,0.0168854,10,-7.7166e-05,-3.32897,-0.197511,-0.298717,5.48837,0.164587,
2,0,0,1,0,24745.2,0.163402,0.163085,-0.478802,13,0.0168117,10,-7.80856e-05,-3.31984,-0.183735,-0.321115,6.00623,0.163085,
2,0,0,1,0,24745.4,0.161904,0.16155,-0.489918,13,0.0167365,10,-7.91462e-05,-3.30988,-0.165186,-0.357172,6.80807,0.16155,
2,0,0,1,0,24745.5,0.160405,0.160091,-0.499778,13,0.0166598,10,-8.00099e-05,-3.30122,-0.172694,-0.341644,6.64815,0.1600908,
2,0,0,1,0,24745.7,0.158907,0.158559,-0.508691,13,0.0165817,10,-8.06577e-05,-3.29355,-0.154261,-0.382468,7.63817,0.158559,
2,0,0,1,0,24745.8,0.15741,0.157043,-0.52247,13,0.0165019,10,-8.205e-05,-3.28194,-0.127479,-0.462821,9.47291,0.157043,
2,0,0,1,0,24746,0.155911,0.155595,-0.534799,13,0.0164198,10,-8.32119e-05,-3.27181,-0.125824,-0.46891,9.82136,0.155595,
2,0,0,1,0,24746.1,0.154413,0.154092,-0.550264,13,0.0163355,10,-8.47914e-05,-3.25943,-0.124778,-0.472839,10.1903,0.154092,
2,0,0,1,0,24746.3,0.152915,0.152562,-0.56721,13,0.0162489,10,-8.65347e-05,-3.24626,-0.115345,-0.511507,11.3797,0.152562,
2,0,0,1,0,24746.4,0.151417,0.151083,-0.587631,13,0.0161599,10,-8.87809e-05,-3.2309,-0.108734,-0.542609,12.4637,0.151083,
2,0,0,1,0,24746.6,0.149918,0.149559,-0.609041,13,0.0160678,10,-9.10875e-05,-3.21535,-0.0929746,-0.634582,15.0509,0.1495589,
2,0,0,1,0,24746.7,0.14842,0.148156,-0.632365,13,0.0159723,10,-9.36887e-05,-3.19903,-0.0876924,-0.672806,16.6183,0.148156,
2,0,0,1,0,24746.9,0.146922,0.146563,-0.656643,13,0.0158732,10,-9.62398e-05,-3.18267,-0.0874379,-0.674765,17.3394,0.146563,
2,0,0,1,0,24747,0.145424,0.145092,-0.683024,13,0.0157702,10,-9.91017e-05,-3.16556,-0.0798885,-0.738529,19.8086,0.145092,
2,0,0,1,0,24747.2,0.143925,0.143619,-0.715805,13,0.0156626,10,-0.000102803,-3.14521,-0.0709039,-0.832112,23.2657,0.143619,
2,0,0,1,0,24747.3,0.142428,0.142139,-0.751774,13,0.0155499,10,-0.000106857,-3.12391,-0.0717844,-0.821906,24.0991,0.142139,
2,0,0,1,0,24747.5,0.14093,0.14062,-0.786614,13,0.0154321,10,-0.000110614,-3.10424,-0.075231,-0.784251,24.1222,0.14062,
2,0,0,1,0,24747.6,0.139431,0.139097,-0.820831,13,0.0153087,10,-0.000114175,-3.08575,-0.0745837,-0.791057,25.4507,0.139097,
2,0,0,1,0,24747.8,0.137933,0.137591,-0.862253,13,0.0151797,10,-0.000118638,-3.06437,-0.0745432,-0.791487,26.6287,0.137591,
2,0,0,1,0,24747.9,0.136435,0.136091,-0.903895,13,0.0150447,10,-0.000123012,-3.04388,-0.0784469,-0.752101,26.4818,0.136091,
2,0,0,1,0,24748.1,0.134936,0.134601,-0.943002,13,0.0149035,10,-0.000126929,-3.02549,-0.0850291,-0.69388,25.444,0.1346008,
2,0,0,1,0,24748.2,0.133438,0.133106,-0.980946,13,0.0147566,10,-0.000130569,-3.00835,-0.0879598,-0.670761,25.695,0.133106,
2,0,0,1,0,24748.4,0.13194,0.131601,-1.02102,13,0.014604,10,-0.000134367,-2.99097,-0.0942607,-0.625924,24.9293,0.131601,
2,0,0,1,0,24748.5,0.130442,0.130168,-1.05837,13,0.0144455,10,-0.000137766,-2.97536,-0.101117,-0.583483,24.0234,0.130168,
2,0,0,1,0,24748.7,0.128943,0.128621,-1.09181,13,0.0142815,10,-0.000140429,-2.96185,-0.11887,-0.496339,21.0415,0.128621,
2,0,0,1,0,24748.8,0.127445,0.127115,-1.12504,13,0.0141128,10,-0.000143009,-2.94883,-0.13748,-0.429154,18.7393,0.127115,
2,0,0,1,0,24749,0.125948,0.125605,-1.14766,13,0.0139402,10,-0.000144152,-2.94018,-0.149998,-0.393339,17.5729,0.125605,
2,0,0,1,0,24749.1,0.124449,0.124073,-1.17214,13,0.0137634,10,-0.000145432,-2.93102,-0.165091,-0.357378,16.2957,0.1240731,
2,0,0,1,0,24749.3,0.122951,0.122636,-1.19504,13,0.0135831,10,-0.000146555,-2.92262,-0.216404,-0.272638,12.6664,0.122636,
2,0,0,1,0,24749.4,0.121453,0.121146,-1.21282,13,0.0133999,10,-0.000146929,-2.9162,-0.28714,-0.205474,9.69097,0.121146,
2,0,0,1,0,24749.6,0.119955,0.119672,-1.22183,13,0.0132148,10,-0.00014622,-2.91299,-0.353336,-0.16698,7.9735,0.1196724,
2,0,0,1,0,24749.7,0.118456,0.118128,-1.23675,13,0.0130277,10,-0.000146095,-2.90772,-0.377776,-0.156177,7.51372,0.118128,
2,0,0,1,0,24749.9,0.116958,0.116666,-1.24547,13,0.012839,10,-0.000145305,-2.90467,-0.728076,-0.0810355,3.92811,0.116666,
2,0,0,1,0,24750,0.11546,0.115119,-1.24885,13,0.0126495,10,-0.000143767,-2.90349,-3.1625,-0.0186561,0.906722,0.115119,
2,0,0,1,0,24750.2,0.113962,0.113668,-1.24578,13,0.0124597,10,-0.000141605,-2.90456,4.87849,0.0120939,-0.587714,0.113668,
2,0,0,1,0,24750.3,0.112463,0.112129,-1.24766,13,0.01227,10,-0.000139899,-2.9039,2.35783,0.025023,-1.21711,0.112129,
2,0,0,1,0,24750.5,0.110966,0.110655,-1.24431,13,0.0120806,10,-0.000137689,-2.90507,1.61494,0.036534,-1.77274,0.110655,
2,0,0,1,0,24750.6,0.109468,0.109147,-1.23964,13,0.0118916,10,-0.000135302,-2.9067,0.62145,0.0949393,-4.58976,0.109147,
2,0,0,1,0,24750.8,0.107969,0.107666,-1.23437,13,0.0117032,10,-0.000132901,-2.90855,0.653333,0.0903061,-4.35235,0.107666,
2,0,0,1,0,24750.9,0.106471,0.106144,-1.22534,13,0.0115164,10,-0.000130063,-2.91174,0.614175,0.0960639,-4.60771,0.106144,
2,0,0,1,0,24751.1,0.104973,0.104667,-1.21984,13,0.0113303,10,-0.000127676,-2.9137,0.567376,0.103987,-4.94792,0.1046666,
2,0,0,1,0,24751.2,0.103474,0.103135,-1.2138,13,0.0111452,10,-0.000125186,-2.91585,0.441741,0.133562,-6.30425,0.103135,
2,0,0,1,0,24751.4,0.101976,0.10167,-1.20485,13,0.0109615,10,-0.000122497,-2.91907,0.400448,0.147335,-6.91087,0.10167,
2,0,0,1,0,24751.5,0.100478,0.10019,-1.19372,13,0.0107795,10,-0.000119598,-2.9231,0.430558,0.137032,-6.3876,0.10019,
2,0,0,1,0,24751.7,0.0989799,0.0986774,-1.18468,13,0.0105988,10,-0.000116901,-2.9264,0.534955,0.11029,-5.09458,0.0986774,
2,0,0,1,0,24751.8,0.0974808,0.0971794,-1.17786,13,0.0104191,10,-0.000114463,-2.92891,0.464249,0.127087,-5.83179,0.09717939,
2,0,0,1,0,24752,0.0959833,0.0956997,-1.16516,13,0.0102409,10,-0.000111506,-2.93361,0.42077,0.140219,-6.39057,0.0956997,
2,0,0,1,0,24752.1,0.0944857,0.0941578,-1.15336,13,0.0100645,10,-0.000108598,-2.93803,0.44073,0.133869,-6.04496,0.0941578,
2,0,0,1,0,24752.3,0.0929871,0.0926522,-1.14673,13,0.00988913,10,-0.000106247,-2.94054,0.530785,0.111156,-4.98116,0.0926522,
2,0,0,1,0,24752.4,0.0914889,0.0911729,-1.1411,13,0.00971516,10,-0.000104038,-2.94268,0.497444,0.118606,-5.27754,0.0911729,
2,0,0,1,0,24752.6,0.0899907,0.0896544,-1.13118,13,0.0095423,10,-0.000101415,-2.94647,0.426383,0.138373,-6.09664,0.0896544,
2,0,0,1,0,24752.7,0.0884925,0.0881698,-1.11861,13,0.00937088,10,-9.86281e-05,-2.95132,0.452487,0.13039,-5.70835,0.0881698,
2,0,0,1,0,24752.9,0.0869943,0.0866641,-1.11455,13,0.00920085,10,-9.65915e-05,-2.9529,0.469139,0.125762,-5.4694,0.0866641,
2,0,0,1,0,24753,0.0854962,0.0851922,-1.10776,13,0.00903192,10,-9.43726e-05,-2.95555,0.446179,0.132234,-5.71011,0.0851922,
2,0,0,1,0,24753.2,0.083998,0.083661,-1.09744,13,0.00886404,10,-9.18129e-05,-2.95962,0.39306,0.150104,-6.42518,0.083661,
2,0,0,1,0,24753.3,0.0824998,0.0821976,-1.08885,13,0.00869749,10,-8.9501e-05,-2.96303,0.484814,0.121696,-5.17966,0.0821976,
2,0,0,1,0,24753.5,0.0810011,0.0806279,-1.08241,13,0.00853228,10,-8.72722e-05,-2.96561,0.487418,0.121046,-5.11861,0.0806279,
2,0,0,1,0,24753.6,0.0795036,0.0791301,-1.07539,13,0.00836804,10,-8.50957e-05,-2.96843,0.640259,0.0921501,-3.86147,0.0791301,
2,0,0,1,0,24753.8,0.0780061,0.0776358,-1.07047,13,0.00820465,10,-8.3107e-05,-2.97042,0.554293,0.106442,-4.43389,0.07763581,
2,0,0,1,0,24753.9,0.076507,0.0761438,-1.06035,13,0.00804231,10,-8.07388e-05,-2.97455,0.452953,0.130256,-5.38456,0.0761438,
2,0,0,1,0,24754.1,0.0750088,0.0746974,-1.05254,13,0.00788149,10,-7.86223e-05,-2.97776,0.554229,0.106454,-4.37752,0.0746974,
2,0,0,1,0,24754.2,0.0735106,0.073233,-1.04683,13,0.00772155,10,-7.66628e-05,-2.98012,0.720677,0.0818674,-3.34026,0.073233,
2,0,0,1,0,24754.4,0.0720124,0.0716795,-1.04043,13,0.00756243,10,-7.45772e-05,-2.98279,0.572228,0.103106,-4.19073,0.0716795,
2,0,0,1,0,24754.5,0.0705142,0.0701737,-1.035,13,0.00740437,10,-7.26298e-05,-2.98506,0.452056,0.130515,-5.26556,0.0701737,
2,0,0,1,0,24754.7,0.0690161,0.0687209,-1.02431,13,0.0072475,10,-7.03912e-05,-2.98957,0.512731,0.11507,-4.61249,0.0687209,
2,0,0,1,0,24754.8,0.0675179,0.0672067,-1.02071,13,0.00709161,10,-6.85987e-05,-2.9911,0.744314,0.0792676,-3.15468,0.0672067,
2,0,0,1,0,24755,0.0660188,0.0657205,-1.01814,13,0.00693635,10,-6.69129e-05,-2.99219,0.599523,0.0984116,-3.89565,0.0657205,
2,0,0,1,0,24755.1,0.0645213,0.0641825,-1.00922,13,0.00678203,10,-6.47745e-05,-2.99601,0.494988,0.119195,-4.68209,0.0641825,
2,0,0,1,0,24755.3,0.0630237,0.062681,-0.999015,13,0.00662888,10,-6.26193e-05,-3.00043,0.547282,0.107806,-4.21923,0.062681,
2,0,0,1,0,24755.4,0.0615251,0.0612345,-0.993334,13,0.00647681,10,-6.08263e-05,-3.0029,0.56894,0.103702,-4.03003,0.0612345,
2,0,0,1,0,24755.6,0.0600269,0.0596725,-0.988405,13,0.00632555,10,-5.89806e-05,-3.00507,0.611863,0.0964268,-3.72744,0.0596725,
2,0,0,1,0,24755.7,0.0585287,0.0581826,-0.982842,13,0.00617512,10,-5.71843e-05,-3.00752,0.434189,0.135885,-5.20557,0.0581826,
2,0,0,1,0,24755.9,0.0570305,0.0567182,-0.977633,13,0.00602562,10,-5.54496e-05,-3.00982,0.426273,0.138409,-5.2729,0.0567182,
2,0,0,1,0,24756,0.0555323,0.0551965,-0.969792,13,0.00587748,10,-5.35291e-05,-3.01332,0.450856,0.130862,-4.95575,0.0551965,
2,0,0,1,0,24756.2,0.0540342,0.0537427,-0.963767,13,0.00573005,10,-5.17954e-05,-3.01603,0.604569,0.0975902,-3.66626,0.0537427,
2,0,0,1,0,24756.3,0.052536,0.0522358,-0.958396,13,0.00558349,10,-5.00626e-05,-3.01845,0.457318,0.129013,-4.81996,0.0522358,
2,0,0,1,0,24756.5,0.0510378,0.0506771,-0.95193,13,0.00543799,10,-4.8241e-05,-3.02139,0.38764,0.152203,-5.64045,0.0506771,
2,0,0,1,0,24756.6,0.0495391,0.049229,-0.941207,13,0.0052937,10,-4.63347e-05,-3.02631,0.484773,0.121707,-4.47515,0.049229,
2,0,0,1,0,24756.8,0.0480416,0.0477059,-0.935059,13,0.00515048,10,-4.46078e-05,-3.02916,0.809217,0.07291,-2.65928,0.0477059,
2,0,0,1,0,24756.9,0.0465441,0.0461964,-0.928628,13,0.00500824,10,-4.28993e-05,-3.03216,0.513564,0.114883,-4.16526,0.0461964,
2,0,0,1,0,24757.1,0.045045,0.0447441,-0.92125,13,0.00486692,10,-4.12205e-05,-3.03562,0.423921,0.139177,-4.99834,0.0447441,
2,0,0,1,0,24757.2,0.0435468,0.043268,-0.911262,13,0.00472685,10,-3.94285e-05,-3.04036,0.421943,0.139829,-4.98194,0.043268,
2,0,0,1,0,24757.4,0.0420486,0.0417145,-0.905635,13,0.00458802,10,-3.77781e-05,-3.04305,0.45066,0.130919,-4.64052,0.0417145,
2,0,0,1,0,24757.5,0.0405504,0.0402522,-0.903653,13,0.00444998,10,-3.6374e-05,-3.044,0.419495,0.140645,-4.93212,0.0402522,
2,0,0,1,0,24757.7,0.0390523,0.038722,-0.893495,13,0.00431283,10,-3.45979e-05,-3.04891,0.331827,0.177804,-6.19112,0.038722,
2,0,0,1,0,24757.8,0.0375541,0.0371919,-0.885889,13,0.004177,10,-3.29479e-05,-3.05262,0.393426,0.149965,-5.19025,0.0371919,
2,0,0,1,0,24758,0.0360559,0.0357677,-0.878586,13,0.00404247,10,-3.1425e-05,-3.05622,0.454733,0.129747,-4.45409,0.0357677,
2,0,0,1,0,24758.1,0.0345568,0.0342315,-0.871439,13,0.00390865,10,-2.98307e-05,-3.05976,0.486898,0.121175,-4.12221,0.03423154,
2,0,0,1,0,24758.3,0.0330593,0.0326805,-0.865782,13,0.00377592,10,-2.82942e-05,-3.06259,0.448754,0.131475,-4.43153,0.0326805,
2,0,0,1,0,24758.4,0.0315618,0.0312529,-0.857566,13,0.00364417,10,-2.68014e-05,-3.06673,0.427756,0.137929,-4.6188,0.0312529,
2,0,0,1,0,24758.6,0.0300631,0.0297499,-0.850851,13,0.00351367,10,-2.53128e-05,-3.07015,0.425201,0.138758,-4.60805,0.0297499,
2,0,0,1,0,24758.7,0.0285649,0.0282145,-0.844205,13,0.00338406,10,-2.38188e-05,-3.07355,0.536709,0.109929,-3.62038,0.0282145,
2,0,0,1,0,24758.9,0.0270667,0.0267914,-0.838537,13,0.00325529,10,-2.24656e-05,-3.07648,0.493468,0.119562,-3.90964,0.02679139,
2,0,0,1,0,24759,0.0255685,0.0252443,-0.82995,13,0.00312751,10,-2.09515e-05,-3.08095,0.414758,0.142252,-4.62193,0.0252443,
2,0,0,1,0,24759.2,0.0240704,0.0237533,-0.822819,13,0.0030009,10,-1.95447e-05,-3.0847,0.439565,0.134223,-4.32282,0.0237533,
2,0,0,1,0,24759.3,0.0225722,0.0222306,-0.818994,13,0.00287513,10,-1.82067e-05,-3.08672,0.541491,0.108958,-3.47601,0.0222306,
2,0,0,1,0,24759.5,0.021074,0.0207354,-0.81475,13,0.00275019,10,-1.68942e-05,-3.08898,0.522342,0.112953,-3.5863,0.0207354,
2,0,0,1,0,24759.6,0.0195758,0.0192434,-0.807854,13,0.00262603,10,-1.55459e-05,-3.09267,0.482774,0.12221,-3.85209,0.0192434,
2,0,0,1,0,24759.8,0.0180772,0.0177385,-0.800713,13,0.0025027,10,-1.42035e-05,-3.09652,0.633529,0.0931291,-2.9194,0.0177385,
2,0,0,1,0,24759.9,0.0165796,0.0162478,-0.79927,13,0.00238025,10,-1.29864e-05,-3.09731,0.864102,0.068279,-2.13119,0.0162478,
2,0,0,1,0,24760.1,0.0150821,0.0147514,-0.795467,13,0.00225826,10,-1.17342e-05,-3.09938,0.786594,0.0750069,-2.32504,0.0147514,
2,0,0,1,0,24760.2,0.013583,0.0132224,-0.790148,13,0.00213657,10,-1.04477e-05,-3.10229,0.667857,0.0883422,-2.72663,0.0132224,
2,0,0,1,0,24760.4,0.0120848,0.0117474,-0.7861,13,0.00201579,10,-9.23463e-06,-3.10452,0.756835,0.0779562,-2.39975,0.0117474,
2,0,0,1,0,24760.5,0.0105866,0.0102968,-0.784495,13,0.00189554,10,-8.07776e-06,-3.10541,0.906356,0.0650958,-1.99306,0.0102968,
2,0,0,1,0,24760.7,0.00908846,0.00881326,-0.781547,13,0.00177554,10,-6.88798e-06,-3.10704,1.50293,0.0392567,-1.19986,0.00881326,
2,0,0,1,0,24760.8,0.00759027,0.00726082,-0.782922,13,0.00165576,10,-5.68466e-06,-3.10628,1.03796,0.0568421,-1.73037,0.00726082,
2,0,0,1,0,24761,0.00609208,0.00579004,-0.779777,13,0.00153624,10,-4.51494e-06,-3.10803,1.43262,0.0411832,-1.25227,0.00579004,
2,0,0,1,0,24761.1,0.00459389,0.00427048,-0.776574,13,0.00141722,10,-3.31634e-06,-3.10982,2.47867,0.023803,-0.722591,0.00427048,
2,0,0,1,0,24761.3,0.0030948,0.00278723,-0.778551,13,0.00129818,10,-2.17e-06,-3.10871,-1.39221,-0.0423786,1.28757,0.00278723,
2,0,0,1,0,24761.4,0.00159728,0.00122599,-0.785296,13,0.00117776,10,-9.62764e-07,-3.10497, , , ,0.00122599,
2,0,0,1,0,24761.6,0.000199195,-0.000193621,-0.777234,13,0.00106604,10,1.50489e-07,-3.10945, , , ,-0.000193621,