File: Figure_codes/Fig_3-5/rawdata_trumpetplot_data/after 10th/20221101_1-115_003_TrumpetPlot_ParaChange_from10_every3_04_CV_C01_23.csv
mode,ox/red,error,control changes,counter inc.,time/s,control/V,Ewe/V,<I>/mA,cycle number,(Q-Qo)/C,I Range,P/W,log(|I|),Tafel slope mV/dec,alpha_eff,dI/d(E-IR),E-IR/V,
2,0,0,1,0,46373,2.44065e-05,-0.000287149,-0.385608,24,0.0000000E+000,10,1.10727e-07,-3.41385, , , ,-0.0002871489,
2,1,0,1,0,46373.1,0.00129787,0.00091005,0.113456,24,-4.53776e-06,10,1.0325e-07,-3.94517, , , ,0.00091005,
2,1,0,1,0,46373.3,0.00279606,0.002489,0.253504,24,2.72932e-05,10,6.30969e-07,-3.59602,0.00284301,20.7527,72.9654,0.002489,
2,1,0,1,0,46373.4,0.00429425,0.00397569,0.296044,24,7.09329e-05,10,1.17698e-06,-3.52864,0.0245293,2.40529,25.9389,0.00397569,
2,1,0,1,0,46373.6,0.00579244,0.00548995,0.323706,24,0.000119802,10,1.77713e-06,-3.48985,0.0409013,1.4425,17.8384,0.00548995,
2,1,0,1,0,46373.7,0.00729063,0.00696709,0.346776,24,0.000172388,10,2.41602e-06,-3.45995,0.056694,1.04067,13.8991,0.00696709,
2,1,0,1,0,46373.9,0.00878882,0.00845378,0.366629,24,0.000228092,10,3.0994e-06,-3.43577,0.0735217,0.802484,11.3711,0.00845378,
2,1,0,1,0,46374,0.010287,0.00992775,0.379556,24,0.000286376,10,3.76813e-06,-3.42072,0.090779,0.64993,9.59289,0.00992775,
2,1,0,1,0,46374.2,0.0117852,0.0114611,0.393492,24,0.000346906,10,4.50985e-06,-3.40506,0.101202,0.582992,8.96877,0.0114611,
2,1,0,1,0,46374.3,0.0132838,0.0129916,0.408167,24,0.000409289,10,5.30273e-06,-3.38916,0.112057,0.526519,8.3915,0.0129916,
2,1,0,1,0,46374.5,0.0147814,0.0144958,0.421917,24,0.000473677,10,6.11602e-06,-3.37477,0.112676,0.523623,8.57934,0.0144958,
2,1,0,1,0,46374.6,0.0162789,0.0159593,0.433541,24,0.000540036,10,6.919e-06,-3.36297,0.144572,0.408102,6.84133,0.0159593,
2,1,0,1,0,46374.8,0.017778,0.0174513,0.44272,24,0.000607968,10,7.72605e-06,-3.35387,0.149047,0.395849,6.84269,0.0174513,
2,1,0,1,0,46374.9,0.0192761,0.0189412,0.452905,24,0.000677186,10,8.57857e-06,-3.34399,0.148592,0.397059,7.01544,0.0189412,
2,1,0,1,0,46375.1,0.0207743,0.0204353,0.464799,24,0.00074809,10,9.49831e-06,-3.33274,0.149079,0.395762,7.14361,0.0204353,
2,1,0,1,0,46375.2,0.0222725,0.0219814,0.473032,24,0.000820663,10,1.03979e-05,-3.32511,0.171707,0.343608,6.34564,0.0219814,
2,1,0,1,0,46375.4,0.0237707,0.0234575,0.485493,24,0.000894756,10,1.13884e-05,-3.31382,0.187378,0.314871,5.95092,0.0234575,
2,1,0,1,0,46375.5,0.0252689,0.0249346,0.492254,24,0.000970243,10,1.22742e-05,-3.30781,0.167084,0.353116,6.81677,0.0249346,
2,1,0,1,0,46375.7,0.0267671,0.0264139,0.504939,24,0.00104725,10,1.33374e-05,-3.29676,0.153207,0.385101,7.57294,0.0264139,
2,1,0,1,0,46375.8,0.0282662,0.0279171,0.51523,24,0.00112604,10,1.43837e-05,-3.288,0.163847,0.360092,7.23834,0.0279171,
2,1,0,1,0,46376,0.0297635,0.029436,0.526472,24,0.0012063,10,1.54972e-05,-3.27862,0.182594,0.32312,6.61989,0.029436,
2,1,0,1,0,46376.1,0.031261,0.0309518,0.532961,24,0.00128798,10,1.64961e-05,-3.2733,0.180358,0.327128,6.84246,0.0309518,
2,1,0,1,0,46376.3,0.0327599,0.0323882,0.545383,24,0.00137114,10,1.7664e-05,-3.2633,0.1886,0.312831,6.6599,0.0323882,
2,1,0,1,0,46376.4,0.034258,0.0339407,0.555021,24,0.00145591,10,1.88378e-05,-3.25569,0.188375,0.313205,6.79608,0.0339407,
2,1,0,1,0,46376.6,0.0357562,0.0354199,0.566337,24,0.00154221,10,2.00596e-05,-3.24693,0.238085,0.24781,5.45406,0.0354199,
2,1,0,1,0,46376.7,0.0372544,0.0369384,0.575318,24,0.00163007,10,2.12513e-05,-3.24009,0.19961,0.295576,6.65355,0.0369384,
2,1,0,1,0,46376.9,0.0387526,0.0384368,0.584817,24,0.00171912,10,2.24785e-05,-3.23298,0.194549,0.303266,6.95526,0.0384368,
2,1,0,1,0,46377,0.0402508,0.0399404,0.596866,24,0.00180995,10,2.38391e-05,-3.22412,0.19654,0.300193,6.97826,0.0399404,
2,1,0,1,0,46377.2,0.041749,0.0414642,0.606059,24,0.0019025,10,2.51298e-05,-3.21748,0.212228,0.278003,6.56005,0.0414642,
2,1,0,1,0,46377.3,0.0432472,0.0429265,0.616608,24,0.00199644,10,2.64688e-05,-3.20999,0.231772,0.25456,6.12541,0.0429265,
2,1,0,1,0,46377.5,0.0447458,0.0444193,0.625911,24,0.00209164,10,2.78025e-05,-3.20349,0.22551,0.261629,6.39534,0.0444193,
2,1,0,1,0,46377.6,0.0462433,0.0458645,0.635716,24,0.00218849,10,2.91568e-05,-3.19674,0.194774,0.302915,7.50456,0.0458645,
2,1,0,1,0,46377.8,0.0477409,0.0474101,0.64495,24,0.00228683,10,3.05771e-05,-3.19047,0.228142,0.258611,6.50979,0.0474101,
2,1,0,1,0,46377.9,0.0492399,0.0489146,0.654351,24,0.00238666,10,3.20073e-05,-3.18419,0.243492,0.242307,6.18524,0.0489146,
2,1,0,1,0,46378.1,0.0507381,0.0504077,0.660902,24,0.00248756,10,3.33146e-05,-3.17986,0.258927,0.227864,5.90558,0.0504077,
2,1,0,1,0,46378.2,0.0522363,0.0519029,0.672342,24,0.0025898,10,3.48965e-05,-3.17241,0.249092,0.23686,6.21349,0.0519029,
2,1,0,1,0,46378.4,0.0537345,0.0533991,0.68425,24,0.00269363,10,3.65383e-05,-3.16479,0.23733,0.248599,6.60511,0.0533991,
2,1,0,1,0,46378.5,0.0552327,0.0549197,0.690893,24,0.00279886,10,3.79437e-05,-3.16059,0.30269,0.194919,5.24359,0.0549197,
2,1,0,1,0,46378.7,0.0567309,0.0563767,0.695572,24,0.00290511,10,3.92141e-05,-3.15766,0.359021,0.164336,4.48227,0.0563767,
2,1,0,1,0,46378.8,0.0582291,0.057908,0.707816,24,0.00301251,10,4.09882e-05,-3.15008,0.291549,0.202367,5.58462,0.057908,
2,1,0,1,0,46379,0.0597282,0.0594103,0.715228,24,0.00312132,10,4.24919e-05,-3.14556,0.315885,0.186777,5.20801,0.05941027,
2,1,0,1,0,46379.1,0.0612255,0.0609099,0.722078,24,0.00323133,10,4.39817e-05,-3.14142,0.389952,0.151301,4.26008,0.06090986,
2,1,0,1,0,46379.3,0.062723,0.0623749,0.729236,24,0.00334234,10,4.5486e-05,-3.13713,0.353596,0.166857,4.75153,0.0623749,
2,1,0,1,0,46379.4,0.0642218,0.0639024,0.736101,24,0.00345437,10,4.70387e-05,-3.13306,0.315278,0.187136,5.3922,0.06390243,
2,1,0,1,0,46379.6,0.06572,0.0654347,0.744838,24,0.00356761,10,4.87383e-05,-3.12794,0.322224,0.183103,5.31179,0.0654347,
2,1,0,1,0,46379.7,0.0672182,0.0669013,0.753183,24,0.00368229,10,5.03889e-05,-3.1231,0.36299,0.162539,4.76336,0.0669013,
2,1,0,1,0,46379.9,0.0687164,0.0683837,0.758486,24,0.00379771,10,5.18681e-05,-3.12005,0.493884,0.119461,3.53242,0.0683837,
2,1,0,1,0,46380,0.0702146,0.0698471,0.763943,24,0.00391396,10,5.33592e-05,-3.11694,0.398163,0.14818,4.42178,0.06984707,
2,1,0,1,0,46380.2,0.0717128,0.0714027,0.772335,24,0.00403127,10,5.51468e-05,-3.11219,0.377681,0.156216,4.69388,0.0714027,
2,1,0,1,0,46380.3,0.073211,0.0728639,0.77679,24,0.00414956,10,5.66e-05,-3.1097,0.438917,0.134422,4.07819,0.0728639,
2,1,0,1,0,46380.5,0.0747092,0.0743941,0.783034,24,0.00426877,10,5.82531e-05,-3.10622,0.453823,0.130007,3.96819,0.0743941,
2,1,0,1,0,46380.6,0.0762078,0.0758457,0.7862,24,0.00438876,10,5.96299e-05,-3.10447,0.461087,0.127959,3.94116,0.0758457,
2,1,0,1,0,46380.8,0.0777053,0.0773418,0.792488,24,0.00450946,10,6.12924e-05,-3.10101,0.507263,0.116311,3.59514,0.0773418,
2,1,0,1,0,46380.9,0.0792029,0.0788626,0.800716,24,0.0046311,10,6.31466e-05,-3.09652,0.47937,0.123078,3.83951,0.0788626,
2,1,0,1,0,46381.1,0.0807019,0.0803971,0.803465,24,0.00475367,10,6.45962e-05,-3.09503,0.511609,0.115322,3.6133,0.0803971,
2,1,0,1,0,46381.2,0.0822001,0.0818869,0.807958,24,0.00487698,10,6.61612e-05,-3.09261,0.467086,0.126315,3.99683,0.0818869,
2,1,0,1,0,46381.4,0.0836983,0.0833842,0.815058,24,0.00500101,10,6.7963e-05,-3.08881,0.489413,0.120553,3.83823,0.0833842,
2,1,0,1,0,46381.5,0.0851965,0.0848561,0.82259,24,0.00512602,10,6.98018e-05,-3.08482,0.484,0.121901,3.92112,0.0848561,
2,1,0,1,0,46381.7,0.0866947,0.0863523,0.827319,24,0.00525201,10,7.14409e-05,-3.08233,0.509656,0.115764,3.7391,0.0863523,
2,1,0,1,0,46381.8,0.0881929,0.0878793,0.83756,24,0.00537912,10,7.36042e-05,-3.07698,0.420494,0.140311,4.58117,0.0878793,
2,1,0,1,0,46382,0.0896911,0.0893479,0.841892,24,0.00550702,10,7.52213e-05,-3.07474,0.345182,0.170924,5.63355,0.0893479,
2,1,0,1,0,46382.1,0.0911902,0.0908942,0.854047,24,0.00563643,10,7.76279e-05,-3.06852,0.279567,0.211041,7.01714,0.0908942,
2,1,0,1,0,46382.3,0.0926875,0.0923287,0.863492,24,0.00576741,10,7.97251e-05,-3.06374,0.2664,0.221471,7.45683,0.0923287,
2,1,0,1,0,46382.4,0.094185,0.0939249,0.874111,24,0.00589982,10,8.21008e-05,-3.05843,0.29478,0.200149,6.83207,0.0939249,
2,1,0,1,0,46382.6,0.0956838,0.0953711,0.881732,24,0.00603384,10,8.40917e-05,-3.05466,0.235602,0.250422,8.64913,0.0953711,
2,1,0,1,0,46382.7,0.097182,0.0968376,0.897495,24,0.00616964,10,8.69112e-05,-3.04697,0.210123,0.280788,9.85219,0.0968376,
2,1,0,1,0,46382.9,0.0986802,0.0983434,0.912547,24,0.00630762,10,8.9743e-05,-3.03974,0.22045,0.267635,9.52632,0.0983434,
2,1,0,1,0,46383,0.100178,0.0998799,0.927606,24,0.00644778,10,9.26492e-05,-3.03264,0.227195,0.259689,9.39721,0.0998799,
2,1,0,1,0,46383.2,0.101677,0.101363,0.9399,24,0.00659007,10,9.52714e-05,-3.02692,0.217005,0.271883,9.99087,0.101363,
2,1,0,1,0,46383.3,0.103175,0.102861,0.958386,24,0.00673455,10,9.85802e-05,-3.01846,0.204262,0.288844,10.8221,0.1028607,
2,1,0,1,0,46383.5,0.104673,0.104335,0.97759,24,0.00688163,10,0.000101997,-3.00984,0.201096,0.293392,11.1574,0.104335,
2,1,0,1,0,46383.6,0.106171,0.105907,0.992879,24,0.00703141,10,0.000105153,-3.0031,0.225674,0.261439,10.083,0.105907,
2,1,0,1,0,46383.8,0.10767,0.107353,1.00647,24,0.00718364,10,0.000108047,-2.9972,0.219974,0.268214,10.5296,0.107353,
2,1,0,1,0,46383.9,0.109167,0.108841,1.02203,24,0.00733784,10,0.000111239,-2.99053,0.227602,0.259224,10.3524,0.1088405,
2,1,0,1,0,46384.1,0.110665,0.110342,1.0376,24,0.00749462,10,0.00011449,-2.98397,0.234558,0.251537,10.1972,0.110342,
2,1,0,1,0,46384.2,0.112164,0.111828,1.0532,24,0.00765371,10,0.000117776,-2.97749,0.294858,0.200096,8.2004,0.111828,
2,1,0,1,0,46384.4,0.113662,0.113333,1.06511,24,0.00781481,10,0.000120712,-2.97261,0.319335,0.184759,7.66969,0.113333,
2,1,0,1,0,46384.5,0.11516,0.114843,1.07472,24,0.00797718,10,0.000123424,-2.96871,0.344936,0.171046,7.1714,0.1148433,
2,1,0,1,0,46384.7,0.116658,0.116319,1.08723,24,0.00814152,10,0.000126466,-2.96368,0.335149,0.176041,7.44862,0.116319,
2,1,0,1,0,46384.8,0.118157,0.117867,1.0971,24,0.00830755,10,0.000129311,-2.95976,0.383312,0.153922,6.57971,0.117867,
2,1,0,1,0,46385,0.119655,0.119338,1.10483,24,0.00847491,10,0.000131848,-2.95671,0.580279,0.101675,4.3874,0.119338,
2,1,0,1,0,46385.1,0.121153,0.120838,1.10991,24,0.00864321,10,0.000134119,-2.95471,0.553472,0.1066,4.62323,0.120838,
2,1,0,1,0,46385.3,0.122652,0.12231,1.11944,24,0.00881276,10,0.000136919,-2.951,0.469402,0.125692,5.47831,0.12231,
2,1,0,1,0,46385.4,0.124149,0.123836,1.12646,24,0.00898318,10,0.000139496,-2.94828,0.531178,0.111074,4.87655,0.123836,
2,1,0,1,0,46385.6,0.125647,0.125295,1.13066,24,0.00915465,10,0.000141666,-2.94667,0.738339,0.0799091,3.52112,0.125295,
2,1,0,1,0,46385.7,0.127146,0.1268,1.13237,24,0.00932696,10,0.000143585,-2.94601,0.840429,0.0702022,3.10909,0.1268,
2,1,0,1,0,46385.9,0.128644,0.128301,1.13993,24,0.00949971,10,0.000146254,-2.94312,0.803751,0.0734058,3.27087,0.128301,
2,1,0,1,0,46386,0.130142,0.129775,1.14557,24,0.0096732,10,0.000148666,-2.94098,1.37767,0.0428259,1.91028,0.1297749,
2,1,0,1,0,46386.2,0.13164,0.131363,1.14748,24,0.00984743,10,0.000150737,-2.94025,-2.66871,-0.0221081,-0.98594,0.131363,
2,1,0,1,0,46386.3,0.133139,0.132788,1.14496,24,0.0100216,10,0.000152036,-2.94121,-0.977461,-0.0603604,-2.69389,0.1327875,
2,1,0,1,0,46386.5,0.134637,0.134335,1.14179,24,0.010195,10,0.000153382,-2.94241,-0.577791,-0.102113,-4.54105,0.134335,
2,1,0,1,0,46386.6,0.136135,0.135777,1.1334,24,0.0103677,10,0.00015389,-2.94562,-0.385706,-0.152966,-6.74089,0.135777,
2,1,0,1,0,46386.8,0.137633,0.137275,1.12206,24,0.0105391,10,0.000154031,-2.94998,-0.249146,-0.236809,-10.3062,0.137275,
2,1,0,1,0,46386.9,0.139132,0.138796,1.10321,24,0.0107081,10,0.000153121,-2.95734,-0.182049,-0.324088,-13.8776,0.138796,
2,1,0,1,0,46387.1,0.140629,0.140279,1.07871,24,0.0108736,10,0.00015132,-2.9671,-0.142469,-0.414125,-17.3691,0.140279,
2,1,0,1,0,46387.2,0.142127,0.141834,1.05064,24,0.0110354,10,0.000149016,-2.97855,-0.125748,-0.469193,-19.1317,0.141834,
2,1,0,1,0,46387.4,0.143626,0.143297,1.01758,24,0.0111928,10,0.000145816,-2.99243,-0.100439,-0.58742,-23.2203,0.1432972,
2,1,0,1,0,46387.5,0.145124,0.144769,0.977773,24,0.0113448,10,0.000141551,-3.00976,-0.0817545,-0.721673,-27.5084,0.144769,
2,1,0,1,0,46387.7,0.146622,0.146297,0.935032,24,0.0114906,10,0.000136792,-3.02917,-0.079283,-0.744169,-27.2228,0.146297,
2,1,0,1,0,46387.8,0.14812,0.147815,0.896093,24,0.0116302,10,0.000132456,-3.04765,-0.0755207,-0.781243,-27.2614,0.147815,
2,1,0,1,0,46388,0.149619,0.149249,0.856041,24,0.0117638,10,0.000127763,-3.06751,-0.0736269,-0.801338,-26.7974,0.149249,
2,1,0,1,0,46388.1,0.151117,0.150789,0.816648,24,0.0118913,10,0.000123141,-3.08797,-0.0729054,-0.809268,-25.7872,0.150789,
2,1,0,1,0,46388.3,0.152615,0.152259,0.778418,24,0.0120131,10,0.000118521,-3.10879,-0.0785399,-0.75121,-22.933,0.152259,
2,1,0,1,0,46388.4,0.154114,0.153721,0.745958,24,0.0121295,10,0.000114669,-3.12729,-0.0851903,-0.692567,-20.2717,0.1537205,
2,1,0,1,0,46388.6,0.155612,0.155321,0.718996,24,0.0122414,10,0.000111675,-3.14327,-0.0940043,-0.627631,-17.6511,0.155321,
2,1,0,1,0,46388.7,0.157109,0.1568,0.691737,24,0.0123494,10,0.000108464,-3.16006,-0.0997987,-0.59119,-16.0263,0.1568,
2,1,0,1,0,46388.9,0.158608,0.15827,0.67137,24,0.0124539,10,0.000106258,-3.17304,-0.120162,-0.491005,-12.9551,0.15827,
2,1,0,1,0,46389,0.160106,0.159799,0.652684,24,0.0125552,10,0.000104298,-3.1853,-0.128485,-0.459196,-11.7295,0.159799,
2,1,0,1,0,46389.2,0.161604,0.161292,0.638521,24,0.0126542,10,0.000102988,-3.19483,-0.145202,-0.40633,-10.1352,0.161292,
2,1,0,1,0,46389.3,0.163102,0.162792,0.625485,24,0.0127509,10,0.000101824,-3.20378,-0.169499,-0.348084,-8.49373,0.1627917,
2,1,0,1,0,46389.5,0.164601,0.164303,0.612158,24,0.0128457,10,0.000100579,-3.21314,-0.195169,-0.302302,-7.24928,0.164303,
2,1,0,1,0,46389.6,0.166099,0.165749,0.602284,24,0.0129388,10,9.98282e-05,-3.2202,-0.223845,-0.263575,-6.20927,0.165749,
2,1,0,1,0,46389.8,0.167597,0.167273,0.594679,24,0.0130306,10,9.94737e-05,-3.22572,-0.297053,-0.198618,-4.60265,0.167273,
2,1,0,1,0,46389.9,0.169095,0.168754,0.587433,24,0.0131214,10,9.91319e-05,-3.23104,-0.354223,-0.166562,-3.82163,0.168754,
2,1,0,1,0,46390.1,0.170594,0.170298,0.579933,24,0.0132111,10,9.87615e-05,-3.23662,-0.281763,-0.209396,-4.74975,0.170298,
2,1,0,1,0,46390.2,0.172091,0.17178,0.571896,24,0.0132997,10,9.824e-05,-3.24268,-0.351051,-0.168067,-3.77378,0.17178,
2,1,0,1,0,46390.4,0.173589,0.173264,0.568913,24,0.0133874,10,9.85719e-05,-3.24495,-0.453257,-0.130169,-2.889,0.173264,
2,1,0,1,0,46390.5,0.175088,0.174747,0.563572,24,0.0134746,10,9.84823e-05,-3.24905,-0.512234,-0.115182,-2.53699,0.174747,
2,1,0,1,0,46390.7,0.176586,0.176265,0.560689,24,0.013561,10,9.883e-05,-3.25128,-0.39177,-0.150598,-3.29035,0.176265,
2,1,0,1,0,46390.8,0.178084,0.177753,0.554388,24,0.0136468,10,9.85441e-05,-3.25619,-0.520025,-0.113456,-2.46709,0.177753,
2,1,0,1,0,46391,0.179582,0.179253,0.552006,24,0.013732,10,9.89489e-05,-3.25806,-0.695191,-0.0848688,-1.83631,0.179253,
2,1,0,1,0,46391.1,0.181081,0.180755,0.550713,24,0.0138169,10,9.95441e-05,-3.25907,-0.607034,-0.0971939,-2.09175,0.180755,
2,1,0,1,0,46391.3,0.182579,0.182262,0.547583,24,0.0139014,10,9.98034e-05,-3.26155,-0.552041,-0.106876,-2.28498,0.182262,
2,1,0,1,0,46391.4,0.184077,0.183765,0.545545,24,0.0139855,10,0.000100252,-3.26317,-0.644935,-0.091482,-1.94894,0.183765,
2,1,0,1,0,46391.6,0.185576,0.185276,0.544139,24,0.0140691,10,0.000100816,-3.26429,-0.904265,-0.0652464,-1.3841,0.185276,
2,1,0,1,0,46391.7,0.187074,0.186806,0.542673,24,0.0141525,10,0.000101375,-3.26546,-1.11609,-0.052863,-1.11353,0.186806,
2,1,0,1,0,46391.9,0.188571,0.188238,0.540339,24,0.0142356,10,0.000101712,-3.26733,-1.07732,-0.0547654,-1.15439,0.188238,
2,1,0,1,0,46392,0.19007,0.189732,0.538693,24,0.0143185,10,0.000102208,-3.26866,-1.19896,-0.0492095,-1.03346,0.189732,
2,1,0,1,0,46392.2,0.191568,0.191283,0.536084,24,0.0144009,10,0.000102544,-3.27077,-2.37641,-0.0248274,-0.52009,0.191283,
2,1,0,1,0,46392.3,0.193066,0.192746,0.534338,24,0.0144833,10,0.000102992,-3.27218,44.8274,0.00131616,0.0274164,0.192746,
2,1,0,1,0,46392.5,0.194564,0.194252,0.533472,24,0.0145654,10,0.000103628,-3.27289,-1.07552,-0.0548573,-1.14112,0.194252,
2,1,0,1,0,46392.6,0.196063,0.195756,0.532024,24,0.0146473,10,0.000104147,-3.27407,-1.29028,-0.0457265,-0.949772,0.195756,
2,1,0,1,0,46392.8,0.197561,0.197225,0.528007,24,0.0147289,10,0.000104136,-3.27736,-1.0802,-0.0546193,-1.13085,0.197225,
2,1,0,1,0,46392.9,0.199059,0.198746,0.529014,24,0.0148103,10,0.000105139,-3.27653,-1.20199,-0.0490852,-1.01355,0.198746,
2,1,0,1,0,46393.1,0.200557,0.200234,0.529362,24,0.0148915,10,0.000105996,-3.27625,-1.12606,-0.0523951,-1.07639,0.200234,
2,1,0,1,0,46393.2,0.202056,0.20174,0.527704,24,0.0149727,10,0.000106459,-3.27761,-0.923113,-0.0639142,-1.3125,0.20174,
2,1,0,1,0,46393.4,0.203553,0.203213,0.523633,24,0.0150535,10,0.000106409,-3.28097,-2.22827,-0.026478,-0.542913,0.203213,
2,1,0,1,0,46393.5,0.205051,0.204703,0.523967,24,0.0151341,10,0.000107258,-3.2807,3.12272,0.0188938,0.388606,0.204703,
2,1,0,1,0,46393.7,0.20655,0.206256,0.521388,24,0.0152147,10,0.000107539,-3.28284,24.5502,0.00240324,0.0490254,0.206256,
2,1,0,1,0,46393.8,0.208048,0.20774,0.521464,24,0.0152954,10,0.000108329,-3.28278,-0.974577,-0.0605391,-1.23317,0.2077402,
2,1,0,1,0,46394,0.209546,0.209219,0.521715,24,0.0153758,10,0.000109153,-3.28257,-1.15225,-0.0512042,-1.04014,0.209219,
2,1,0,1,0,46394.1,0.211044,0.21074,0.520566,24,0.0154558,10,0.000109704,-3.28352,-2.8749,-0.0205224,-0.4169,0.21074,
2,1,0,1,0,46394.3,0.212543,0.2122,0.518308,24,0.0155357,10,0.000109985,-3.28541,-2.53267,-0.0232955,-0.470658,0.2122,
2,1,0,1,0,46394.4,0.214041,0.213702,0.517981,24,0.0156155,10,0.000110693,-3.28569,-1.65238,-0.035706,-0.722654,0.213702,
2,1,0,1,0,46394.6,0.215539,0.215204,0.51786,24,0.0156954,10,0.000111446,-3.28579,-15.0501,-0.00392024,-0.0790859,0.215204,
2,1,0,1,0,46394.7,0.217038,0.216724,0.515348,24,0.0157749,10,0.000111688,-3.2879,-3.18755,-0.0185095,-0.374714,0.216724,
2,1,0,1,0,46394.9,0.218535,0.21821,0.514997,24,0.0158543,10,0.000112378,-3.2882,5.97847,0.00986875,0.198495,0.21821,
2,1,0,1,0,46395,0.220033,0.21972,0.517371,24,0.0159338,10,0.000113677,-3.2862,84.5081,0.000698158,0.0140653,0.21972,
2,1,0,1,0,46395.2,0.221532,0.221206,0.514886,24,0.0160132,10,0.000113896,-3.28829,-1.64305,-0.0359088,-0.722892,0.221206,
2,1,0,1,0,46395.3,0.22303,0.222679,0.51142,24,0.0160924,10,0.000113883,-3.29122,-1.99514,-0.0295718,-0.592906,0.222679,
2,1,0,1,0,46395.5,0.224528,0.224241,0.513137,24,0.0161714,10,0.000115066,-3.28977,-1.76104,-0.0335029,-0.670704,0.224241,
2,1,0,1,0,46395.6,0.226026,0.225745,0.513926,24,0.0162504,10,0.000116016,-3.2891,-1.77981,-0.0331496,-0.663162,0.225745,
2,1,0,1,0,46395.8,0.227524,0.227214,0.512274,24,0.0163294,10,0.000116396,-3.2905,-0.820208,-0.071933,-1.43514,0.227214,
2,1,0,1,0,46395.9,0.229023,0.228709,0.510284,24,0.0164081,10,0.000116706,-3.29219,-1.41714,-0.0416331,-0.831976,0.2287087,
2,1,0,1,0,46396.1,0.230521,0.230194,0.51003,24,0.0164867,10,0.000117406,-3.2924,-6.94205,-0.00849893,-0.169788,0.230194,
2,1,0,1,0,46396.2,0.232019,0.231693,0.509982,24,0.0165652,10,0.000118159,-3.29245,-2.64582,-0.0222993,-0.443753,0.231693,
2,1,0,1,0,46396.4,0.233518,0.233205,0.509523,24,0.0166438,10,0.000118824,-3.29284,-2.59046,-0.0227759,-0.451397,0.233205,
2,1,0,1,0,46396.5,0.235015,0.23473,0.509195,24,0.0167222,10,0.000119523,-3.29312,-1.82401,-0.0323463,-0.641338,0.23473,
2,1,0,1,0,46396.7,0.236513,0.236205,0.507279,24,0.0168003,10,0.000119822,-3.29475,-19.8079,-0.00297861,-0.0591044,0.236205,
2,1,0,1,0,46396.8,0.238012,0.237698,0.506815,24,0.0168784,10,0.000120469,-3.29515,-22.7823,-0.00258973,-0.0511207,0.237698,
2,1,0,1,0,46397,0.23951,0.239214,0.505587,24,0.0169565,10,0.000120944,-3.2962,-1.20627,-0.048911,-0.966224,0.239214,
2,1,0,1,0,46397.1,0.241008,0.240746,0.505949,24,0.0170344,10,0.000121805,-3.29589,-2.32788,-0.0253449,-0.500989,0.240746,
2,1,0,1,0,46397.3,0.242506,0.242182,0.502183,24,0.0171121,10,0.00012162,-3.29914,-2.62545,-0.0224723,-0.444033,0.242182,
2,1,0,1,0,46397.4,0.244005,0.243684,0.503591,24,0.0171898,10,0.000122717,-3.29792,2.59118,0.0227696,0.447701,0.243684,
2,1,0,1,0,46397.6,0.245503,0.2452,0.505251,24,0.0172676,10,0.000123888,-3.29649,-1.47464,-0.0400098,-0.789134,0.2452,
2,1,0,1,0,46397.7,0.247001,0.246732,0.504297,24,0.0173452,10,0.000124426,-3.29731,-3.03459,-0.0194425,-0.381598,0.246732,
2,1,0,1,0,46397.9,0.2485,0.24821,0.502625,24,0.0174229,10,0.000124757,-3.29876,-7.77773,-0.00758576,-0.148974,0.2482104,
2,1,0,1,0,46398,0.249997,0.249672,0.503276,24,0.0175003,10,0.000125654,-3.29819,-2.43674,-0.0242126,-0.475372,0.249672,
2,1,0,1,0,46398.2,0.251495,0.251179,0.502349,24,0.0175778,10,0.000126179,-3.29899,-1.44653,-0.0407873,-0.79896,0.251179,
2,1,0,1,0,46398.3,0.252994,0.25264,0.499657,24,0.017655,10,0.000126233,-3.30133,-0.833724,-0.0707668,-1.38243,0.25264,
2,1,0,1,0,46398.5,0.254492,0.254161,0.499671,24,0.0177321,10,0.000126997,-3.30132,-3.3355,-0.0176885,-0.34483,0.254161,
2,1,0,1,0,46398.6,0.25599,0.255688,0.498176,24,0.0178089,10,0.000127377,-3.30262,-2.90934,-0.0202795,-0.395869,0.255688,
2,1,0,1,0,46398.8,0.257488,0.25721,0.499024,24,0.0178858,10,0.000128354,-3.30188,-2.20093,-0.0268069,-0.520657,0.25721,
2,1,0,1,0,46398.9,0.258987,0.258718,0.49905,24,0.0179627,10,0.000129113,-3.30186,-1.67639,-0.0351946,-0.683343,0.258718,
2,1,0,1,0,46399.1,0.260485,0.260219,0.499156,24,0.0180394,10,0.00012989,-3.30176,-0.98545,-0.0598711,-1.16331,0.260219,
2,1,0,1,0,46399.2,0.261983,0.261659,0.496441,24,0.0181158,10,0.000129898,-3.30413,-1.37757,-0.0428292,-0.828869,0.2616587,
2,1,0,1,0,46399.4,0.263481,0.263185,0.496439,24,0.0181922,10,0.000130655,-3.30413,-11.8793,-0.00496663,-0.0959792,0.263185,
2,1,0,1,0,46399.5,0.26498,0.264686,0.493684,24,0.0182686,10,0.000130671,-3.30655,-5.32926,-0.0110709,-0.213887,0.264686,
2,1,0,1,0,46399.7,0.266477,0.266175,0.493007,24,0.0183448,10,0.000131226,-3.30715,-3.05087,-0.0193387,-0.373372,0.266175,
2,1,0,1,0,46399.8,0.267976,0.267643,0.492445,24,0.0184208,10,0.000131799,-3.30764,-2.52443,-0.0233716,-0.450713,0.267643,
2,1,0,1,0,46400,0.269474,0.269175,0.492601,24,0.0184968,10,0.000132596,-3.3075,7.93072,0.00743942,0.143241,0.269175,
2,1,0,1,0,46400.1,0.270972,0.270631,0.493517,24,0.0185727,10,0.000133561,-3.3067,-2.01397,-0.0292954,-0.560841,0.270631,
2,1,0,1,0,46400.3,0.27247,0.27216,0.492787,24,0.0186486,10,0.000134117,-3.30734,-2.69506,-0.0218919,-0.418806,0.2721599,
2,1,0,1,0,46400.4,0.273968,0.273682,0.487637,24,0.0187243,10,0.000133457,-3.3119,-2.02093,-0.0291944,-0.558024,0.273682,
2,1,0,1,0,46400.6,0.275467,0.275194,0.490952,24,0.0187998,10,0.000135107,-3.30896,-4.07336,-0.0144844,-0.277838,0.275194,
2,1,0,1,0,46400.7,0.276965,0.276628,0.489427,24,0.0188752,10,0.000135389,-3.31031,-2.0368,-0.028967,-0.553128,0.276628,
2,1,0,1,0,46400.9,0.278463,0.278176,0.48956,24,0.0189506,10,0.000136184,-3.31019,-1.22198,-0.0482822,-0.919667,0.278176,
2,1,0,1,0,46401,0.279962,0.279635,0.488085,24,0.0190259,10,0.000136486,-3.3115,-1.42867,-0.041297,-0.785637,0.279635,
2,1,0,1,0,46401.2,0.281459,0.281158,0.486615,24,0.0191009,10,0.000136816,-3.31281,-25.7833,-0.00228831,-0.0435832,0.281158,
2,1,0,1,0,46401.3,0.282957,0.282663,0.487191,24,0.0191759,10,0.000137711,-3.3123,-5.36199,-0.0110034,-0.208688,0.282663,
2,1,0,1,0,46401.5,0.284456,0.284161,0.486904,24,0.0192509,10,0.000138359,-3.31256,-1.17905,-0.0500402,-0.946216,0.284161,
2,1,0,1,0,46401.6,0.285954,0.285668,0.483191,24,0.0193258,10,0.000138032,-3.31588,-2.57459,-0.0229163,-0.433399,0.2856684,
2,1,0,1,0,46401.8,0.287452,0.287123,0.482711,24,0.0194001,10,0.000138597,-3.31631,-0.901866,-0.0654199,-1.23598,0.287123,
2,1,0,1,0,46401.9,0.28895,0.288626,0.482101,24,0.0194746,10,0.000139147,-3.31686,2.132,0.0276735,0.520474,0.2886259,
2,1,0,1,0,46402.1,0.290449,0.290153,0.481318,24,0.0195489,10,0.000139656,-3.31757,-1.58098,-0.0373187,-0.702849,0.290153,
2,1,0,1,0,46402.2,0.291947,0.291643,0.481047,24,0.0196231,10,0.000140294,-3.31781,-1.75638,-0.0335918,-0.630763,0.291643,
2,1,0,1,0,46402.4,0.293445,0.293118,0.478912,24,0.0196971,10,0.000140378,-3.31974,-2.30214,-0.0256284,-0.480103,0.293118,
2,1,0,1,0,46402.5,0.294943,0.294642,0.479998,24,0.0197709,10,0.000141427,-3.31876,6.36402,0.00927087,0.173466,0.294642,
2,1,0,1,0,46402.7,0.296442,0.296147,0.48011,24,0.0198448,10,0.000142183,-3.31866,-1.45225,-0.0406267,-0.757911,0.296147,
2,1,0,1,0,46402.8,0.297939,0.297636,0.477337,24,0.0199186,10,0.000142073,-3.32118,-1.42659,-0.0413574,-0.770228,0.297636,
2,1,0,1,0,46403,0.299437,0.299134,0.474926,24,0.0199922,10,0.000142067,-3.32337,-0.00290049,-20.3414,-200.783,0.299134,
2,1,0,1,0,46403,0.299738,0.299443,0.266122,24,0.0200281,10,7.96882e-05,-3.57492,0.000421081,140.116,377.846,0.299443,
2,1,0,1,0,46403.2,0.29824,0.297974,0.0201837,24,0.0200409,10,6.01423e-06,-4.695,0.00340408,17.3321,136.87,0.2979745,
2,0,0,1,0,46403.3,0.296741,0.296433,-0.0256526,24,0.0200378,10,-7.60427e-06,-4.59087,-0.0861711,-0.684684,26.8528,0.296433,
2,0,0,1,0,46403.5,0.295243,0.294922,-0.0528165,24,0.0200297,10,-1.55767e-05,-4.27723,-0.00585282,-10.0806,14.5017,0.294922,
2,0,0,1,0,46403.6,0.293745,0.293426,-0.0688439,24,0.0200185,10,-2.02006e-05,-4.16213,-0.0137367,-4.29507,10.6051,0.293426,
2,0,0,1,0,46403.8,0.292246,0.291909,-0.0834255,24,0.020005,10,-2.43527e-05,-4.0787,-0.0199465,-2.95791,9.35756,0.291909,
2,0,0,1,0,46403.9,0.290748,0.290464,-0.0957958,24,0.0199893,10,-2.78252e-05,-4.01865,-0.0268877,-2.19431,7.96332,0.290464,
2,0,0,1,0,46404.1,0.28925,0.288916,-0.108449,24,0.0199719,10,-3.13326e-05,-3.96478,-0.0364546,-1.61845,6.79685,0.288916,
2,0,0,1,0,46404.2,0.287752,0.287432,-0.117297,24,0.0199529,10,-3.37149e-05,-3.93071,-0.0438122,-1.34666,6.08899,0.287432,
2,0,0,1,0,46404.4,0.286253,0.28593,-0.123297,24,0.0199326,10,-3.52543e-05,-3.90905,-0.0496064,-1.18936,5.82428,0.28593,
2,0,0,1,0,46404.5,0.284755,0.28445,-0.134775,24,0.0199111,10,-3.83366e-05,-3.87039,-0.0520577,-1.13336,5.84946,0.28445,
2,0,0,1,0,46404.7,0.283258,0.282945,-0.143009,24,0.0198882,10,-4.04637e-05,-3.84464,-0.0621586,-0.949185,5.22924,0.282945,
2,0,0,1,0,46404.8,0.281759,0.281405,-0.149007,24,0.0198643,10,-4.19314e-05,-3.82679,-0.077612,-0.760192,4.41323,0.281405,
2,0,0,1,0,46405,0.280261,0.279961,-0.154169,24,0.0198394,10,-4.31614e-05,-3.812,-0.0755924,-0.780501,4.7141,0.279961,
2,0,0,1,0,46405.1,0.278763,0.278404,-0.161917,24,0.0198135,10,-4.50781e-05,-3.79071,-0.0866157,-0.68117,4.30667,0.278404,
2,0,0,1,0,46405.3,0.277264,0.276939,-0.167635,24,0.0197867,10,-4.64247e-05,-3.77564,-0.0905102,-0.65186,4.30355,0.276939,
2,0,0,1,0,46405.4,0.275766,0.275479,-0.174134,24,0.0197589,10,-4.79702e-05,-3.75912,-0.145818,-0.404613,2.75131,0.275479,
2,0,0,1,0,46405.6,0.274268,0.273962,-0.180049,24,0.0197302,10,-4.93266e-05,-3.74461,-0.103101,-0.572254,4.00586,0.273962,
2,0,0,1,0,46405.7,0.27277,0.272447,-0.184396,24,0.0197009,10,-5.02381e-05,-3.73425,-0.115066,-0.512748,3.73294,0.272447,
2,0,0,1,0,46405.9,0.271272,0.270921,-0.191224,24,0.0196706,10,-5.18067e-05,-3.71846,-0.116094,-0.508207,3.78146,0.270921,
2,0,0,1,0,46406,0.269773,0.269495,-0.197124,24,0.0196394,10,-5.31238e-05,-3.70526,-0.126585,-0.466091,3.54947,0.269495,
2,0,0,1,0,46406.2,0.268275,0.267932,-0.20098,24,0.0196075,10,-5.3849e-05,-3.69685,-0.139533,-0.42284,3.31026,0.267932,
2,0,0,1,0,46406.3,0.266778,0.266465,-0.204114,24,0.019575,10,-5.43892e-05,-3.69013,-0.142009,-0.415467,3.34081,0.266465,
2,0,0,1,0,46406.5,0.265279,0.264935,-0.210117,24,0.0195418,10,-5.56673e-05,-3.67754,-0.141634,-0.416567,3.3792,0.264935,
2,0,0,1,0,46406.6,0.263781,0.263448,-0.213226,24,0.0195077,10,-5.61739e-05,-3.67116,-0.148838,-0.396403,3.32658,0.263448,
2,0,0,1,0,46406.8,0.262283,0.261963,-0.218297,24,0.0194732,10,-5.71857e-05,-3.66095,-0.181925,-0.324309,2.77537,0.261963,
2,0,0,1,0,46406.9,0.260784,0.260475,-0.221821,24,0.0194379,10,-5.7779e-05,-3.654,-0.167576,-0.352079,3.07388,0.260475,
2,0,0,1,0,46407.1,0.259286,0.258974,-0.227928,24,0.019402,10,-5.90275e-05,-3.6422,-0.180276,-0.327276,2.89255,0.258974,
2,0,0,1,0,46407.2,0.257788,0.257479,-0.234866,24,0.0193654,10,-6.04729e-05,-3.62918,-0.199337,-0.295981,2.67601,0.257479,
2,0,0,1,0,46407.4,0.25629,0.255995,-0.236977,24,0.0193282,10,-6.0665e-05,-3.62529,-0.221493,-0.266374,2.44404,0.255995,
2,0,0,1,0,46407.5,0.254791,0.254489,-0.237929,24,0.0192905,10,-6.05504e-05,-3.62355,-0.183803,-0.320996,2.99657,0.2544893,
2,0,0,1,0,46407.7,0.253293,0.25295,-0.242167,24,0.0192522,10,-6.12562e-05,-3.61588,-0.19208,-0.307164,2.91343,0.2529501,
2,0,0,1,0,46407.8,0.251796,0.251504,-0.247542,24,0.0192133,10,-6.22578e-05,-3.60635,-0.213638,-0.276168,2.65867,0.251504,
2,0,0,1,0,46408,0.250297,0.249962,-0.249774,24,0.0191739,10,-6.24342e-05,-3.60245,-0.289603,-0.203728,1.98721,0.2499624,
2,0,0,1,0,46408.1,0.248799,0.248508,-0.254147,24,0.0191341,10,-6.31575e-05,-3.59491,-0.225546,-0.261588,2.59367,0.248508,
2,0,0,1,0,46408.3,0.247301,0.246999,-0.25705,24,0.0190938,10,-6.34911e-05,-3.58998,-0.26988,-0.218616,2.18976,0.246999,
2,0,0,1,0,46408.4,0.245802,0.245475,-0.261906,24,0.0190528,10,-6.42913e-05,-3.58185,-0.250655,-0.235383,2.38903,0.245475,
2,0,0,1,0,46408.6,0.244304,0.243967,-0.264621,24,0.0190113,10,-6.45588e-05,-3.57738,-0.338715,-0.174188,1.79208,0.243967,
2,0,0,1,0,46408.7,0.242806,0.242473,-0.268823,24,0.0189693,10,-6.51822e-05,-3.57053,-0.328562,-0.17957,1.87195,0.242473,
2,0,0,1,0,46408.9,0.241308,0.240986,-0.269176,24,0.018927,10,-6.48677e-05,-3.56996,-0.368648,-0.160044,1.687,0.240986,
2,0,0,1,0,46409,0.23981,0.23946,-0.273266,24,0.0188841,10,-6.54364e-05,-3.56341,-0.221761,-0.266053,2.83814,0.23946,
2,0,0,1,0,46409.2,0.238311,0.238003,-0.276132,24,0.0188408,10,-6.57201e-05,-3.55888,-0.29095,-0.202784,2.19235,0.2380027,
2,0,0,1,0,46409.3,0.236814,0.236479,-0.281337,24,0.0187969,10,-6.65303e-05,-3.55077,-0.246574,-0.239279,2.60928,0.236479,
2,0,0,1,0,46409.5,0.235316,0.235023,-0.281181,24,0.0187526,10,-6.6084e-05,-3.55101,-0.279176,-0.211336,2.32007,0.2350235,
2,0,0,1,0,46409.6,0.233817,0.233465,-0.283967,24,0.0187079,10,-6.62962e-05,-3.54673,-0.322345,-0.183033,2.0469,0.233465,
2,0,0,1,0,46409.8,0.232319,0.232003,-0.290283,24,0.0186627,10,-6.73467e-05,-3.53718,-0.250587,-0.235447,2.65111,0.232003,
2,0,0,1,0,46409.9,0.230821,0.230479,-0.290698,24,0.018617,10,-6.69997e-05,-3.53656,-0.403314,-0.146288,1.66449,0.230479,
2,0,0,1,0,46410.1,0.229322,0.229033,-0.292518,24,0.0185708,10,-6.69963e-05,-3.53385,-0.38161,-0.154608,1.77771,0.229033,
2,0,0,1,0,46410.2,0.227824,0.227521,-0.295984,24,0.0185244,10,-6.73426e-05,-3.52873,-0.306146,-0.192719,2.2429,0.227521,
2,0,0,1,0,46410.4,0.226326,0.226036,-0.299629,24,0.0184774,10,-6.77271e-05,-3.52342,-0.348529,-0.169283,1.98598,0.226036,
2,0,0,1,0,46410.5,0.224828,0.224526,-0.303422,24,0.01843,10,-6.81262e-05,-3.51795,-0.91983,-0.0641423,0.757364,0.224526,
2,0,0,1,0,46410.7,0.223329,0.223006,-0.308123,24,0.018382,10,-6.87135e-05,-3.51128,-0.416195,-0.14176,1.69319,0.223006,
2,0,0,1,0,46410.8,0.221831,0.221506,-0.309877,24,0.0183338,10,-6.86396e-05,-3.50881,-0.326172,-0.180886,2.1809,0.221506,
2,0,0,1,0,46411,0.220334,0.220053,-0.312715,24,0.0182849,10,-6.88139e-05,-3.50485,-0.287992,-0.204867,2.48847,0.220053,
2,0,0,1,0,46411.1,0.218835,0.218499,-0.316605,24,0.0182356,10,-6.91779e-05,-3.49948,-0.46484,-0.126925,1.5589,0.218499,
2,0,0,1,0,46411.3,0.217337,0.21703,-0.318195,24,0.0181858,10,-6.9058e-05,-3.49731,-0.400565,-0.147292,1.83386,0.21703,
2,0,0,1,0,46411.4,0.215839,0.215551,-0.321749,24,0.0181358,10,-6.93534e-05,-3.49248,-0.393878,-0.149793,1.88238,0.215551,
2,0,0,1,0,46411.6,0.21434,0.214055,-0.324352,24,0.0180852,10,-6.94292e-05,-3.48898,-0.36561,-0.161374,2.03823,0.214055,
2,0,0,1,0,46411.7,0.212842,0.212507,-0.327544,24,0.0180341,10,-6.96053e-05,-3.48473,-0.344547,-0.171239,2.18402,0.212507,
2,0,0,1,0,46411.9,0.211344,0.211034,-0.330995,24,0.0179826,10,-6.98512e-05,-3.48018,-0.528441,-0.111649,1.43865,0.211034,
2,0,0,1,0,46412,0.209846,0.20956,-0.330327,24,0.0179307,10,-6.92232e-05,-3.48106,-0.460257,-0.128189,1.66469,0.20956,
2,0,0,1,0,46412.2,0.208348,0.208027,-0.336263,24,0.0178784,10,-6.99516e-05,-3.47332,-0.303474,-0.194415,2.55072,0.208027,
2,0,0,1,0,46412.3,0.206849,0.206514,-0.341956,24,0.0178255,10,-7.06185e-05,-3.46603,-0.36516,-0.161573,2.14398,0.206514,
2,0,0,1,0,46412.5,0.205352,0.204994,-0.343136,24,0.0177719,10,-7.03408e-05,-3.46453,-0.546515,-0.107957,1.44075,0.204994,
2,0,0,1,0,46412.6,0.203854,0.203501,-0.344052,24,0.0177181,10,-7.00148e-05,-3.46338,-0.467304,-0.126256,1.70935,0.2035007,
2,0,0,1,0,46412.8,0.202355,0.20206,-0.347176,24,0.017664,10,-7.01502e-05,-3.45945,-0.341879,-0.172576,2.35306,0.20206,
2,0,0,1,0,46412.9,0.200857,0.200495,-0.352582,24,0.0176094,10,-7.06911e-05,-3.45274,-0.407837,-0.144666,1.97928,0.2004955,
2,0,0,1,0,46413.1,0.199359,0.199014,-0.354737,24,0.0175541,10,-7.05977e-05,-3.45009,-0.431015,-0.136886,1.88693,0.199014,
2,0,0,1,0,46413.2,0.19786,0.197573,-0.356819,24,0.0174986,10,-7.04978e-05,-3.44755,-0.398079,-0.148212,2.06657,0.197573,
2,0,0,1,0,46413.4,0.196362,0.196061,-0.361422,24,0.0174426,10,-7.08606e-05,-3.44199,-0.463165,-0.127384,1.79494,0.1960609,
2,0,0,1,0,46413.5,0.194864,0.194529,-0.365426,24,0.0173862,10,-7.10858e-05,-3.4372,-0.372964,-0.158192,2.23916,0.194529,
2,0,0,1,0,46413.7,0.193366,0.193009,-0.368197,24,0.017329,10,-7.10654e-05,-3.43392,-0.307238,-0.192034,2.75338,0.193009,
2,0,0,1,0,46413.8,0.191867,0.191536,-0.370383,24,0.0172714,10,-7.09419e-05,-3.43135,-0.463451,-0.127306,1.84706,0.191536,
2,0,0,1,0,46414,0.190369,0.190065,-0.372866,24,0.0172135,10,-7.08689e-05,-3.42845,-0.357964,-0.164821,2.41676,0.190065,
2,0,0,1,0,46414.1,0.188872,0.188519,-0.37591,24,0.017155,10,-7.0866e-05,-3.42492,-0.283348,-0.208225,3.06627,0.188519,
2,0,0,1,0,46414.3,0.187373,0.187058,-0.382458,24,0.0170959,10,-7.15418e-05,-3.41742,-0.38363,-0.153794,2.29078,0.187058,
2,0,0,1,0,46414.4,0.185875,0.18556,-0.384905,24,0.0170363,10,-7.14228e-05,-3.41465,-0.399814,-0.147569,2.21011,0.18556,
2,0,0,1,0,46414.6,0.184377,0.184086,-0.387213,24,0.0169762,10,-7.12804e-05,-3.41205,-0.391511,-0.150698,2.28642,0.184086,
2,0,0,1,0,46414.7,0.182878,0.182563,-0.391925,24,0.0169156,10,-7.15509e-05,-3.4068,-0.4403,-0.133999,2.05149,0.182563,
2,0,0,1,0,46414.9,0.18138,0.18106,-0.397092,24,0.0168543,10,-7.18977e-05,-3.40111,-0.386775,-0.152543,2.36419,0.18106,
2,0,0,1,0,46415,0.179882,0.179603,-0.399628,24,0.0167923,10,-7.17745e-05,-3.39834,-0.510818,-0.115501,1.79742,0.179603,
2,0,0,1,0,46415.2,0.178384,0.178068,-0.404825,24,0.0167298,10,-7.20863e-05,-3.39273,-0.396038,-0.148975,2.35659,0.178068,
2,0,0,1,0,46415.3,0.176886,0.176528,-0.408264,24,0.0166669,10,-7.20701e-05,-3.38906,-0.335399,-0.17591,2.80654,0.1765282,
2,0,0,1,0,46415.5,0.175387,0.175079,-0.413617,24,0.0166032,10,-7.24157e-05,-3.3834,-0.28697,-0.205597,3.3139,0.175079,
2,0,0,1,0,46415.6,0.17389,0.173566,-0.417363,24,0.0165388,10,-7.244e-05,-3.37949,-0.268973,-0.219353,3.56251,0.173566,
2,0,0,1,0,46415.8,0.172392,0.172065,-0.422425,24,0.0164736,10,-7.26845e-05,-3.37425,-0.287048,-0.205541,3.39442,0.172065,
2,0,0,1,0,46415.9,0.170893,0.170577,-0.426488,24,0.0164078,10,-7.27492e-05,-3.37009,-0.271967,-0.216938,3.61808,0.1705772,
2,0,0,1,0,46416.1,0.169395,0.169051,-0.43274,24,0.0163411,10,-7.31552e-05,-3.36377,-0.235334,-0.250708,4.23144,0.169051,
2,0,0,1,0,46416.2,0.167897,0.167538,-0.437987,24,0.0162734,10,-7.33795e-05,-3.35854,-0.239742,-0.246097,4.21608,0.167538,
2,0,0,1,0,46416.4,0.166398,0.166072,-0.444812,24,0.0162049,10,-7.38707e-05,-3.35182,-0.268292,-0.21991,3.83641,0.166072,
2,0,0,1,0,46416.5,0.1649,0.164568,-0.450083,24,0.0161354,10,-7.40692e-05,-3.34671,-0.23751,-0.248411,4.38451,0.164568,
2,0,0,1,0,46416.7,0.163402,0.163103,-0.458646,24,0.016065,10,-7.48068e-05,-3.33852,-0.212129,-0.278133,4.99358,0.163103,
2,0,0,1,0,46416.8,0.161904,0.161568,-0.466735,24,0.0159933,10,-7.54094e-05,-3.33093,-0.211505,-0.278953,5.08463,0.161568,
2,0,0,1,0,46417,0.160405,0.160058,-0.477184,24,0.0159204,10,-7.6377e-05,-3.32131,-0.211888,-0.278449,5.1481,0.160058,
2,0,0,1,0,46417.1,0.158907,0.158599,-0.481814,24,0.0158463,10,-7.64152e-05,-3.31712,-0.174553,-0.338005,6.39175,0.158599,
2,0,0,1,0,46417.3,0.15741,0.157085,-0.492464,24,0.0157711,10,-7.73589e-05,-3.30763,-0.151872,-0.388484,7.51649,0.157085,
2,0,0,1,0,46417.4,0.155911,0.15558,-0.504261,24,0.015694,10,-7.84528e-05,-3.29734,-0.143818,-0.410241,8.07977,0.15558,
2,0,0,1,0,46417.6,0.154413,0.154071,-0.515486,24,0.0156152,10,-7.94213e-05,-3.28778,-0.16203,-0.364129,7.3344,0.1540709,
2,0,0,1,0,46417.7,0.152915,0.152592,-0.527829,24,0.0155347,10,-8.05423e-05,-3.27751,-0.132477,-0.445361,9.21127,0.152592,
2,0,0,1,0,46417.9,0.151417,0.151099,-0.541263,24,0.0154524,10,-8.1784e-05,-3.26659,-0.127117,-0.464138,9.83498,0.151099,
2,0,0,1,0,46418,0.149918,0.149583,-0.557764,24,0.0153676,10,-8.34322e-05,-3.25355,-0.111588,-0.528729,11.5477,0.149583,
2,0,0,1,0,46418.2,0.14842,0.148092,-0.576627,24,0.0152802,10,-8.53941e-05,-3.2391,-0.104122,-0.566641,12.7413,0.148092,
2,0,0,1,0,46418.3,0.146922,0.146614,-0.596933,24,0.01519,10,-8.75188e-05,-3.22407,-0.102269,-0.576909,13.4483,0.146614,
2,0,0,1,0,46418.5,0.145424,0.14511,-0.617928,24,0.0150969,10,-8.96678e-05,-3.20906,-0.0905214,-0.65178,15.7422,0.14511,
2,0,0,1,0,46418.6,0.143925,0.14365,-0.641454,24,0.0150002,10,-9.2145e-05,-3.19283,-0.082678,-0.713612,17.9028,0.14365,
2,0,0,1,0,46418.8,0.142428,0.142093,-0.668564,24,0.0148997,10,-9.4998e-05,-3.17486,-0.0825762,-0.714491,18.6833,0.142093,
2,0,0,1,0,46418.9,0.14093,0.140608,-0.695928,24,0.014795,10,-9.78529e-05,-3.15744,-0.0821877,-0.717869,19.5547,0.140608,
2,0,0,1,0,46419.1,0.139431,0.139115,-0.723424,24,0.0146859,10,-0.000100639,-3.14061,-0.0812098,-0.726513,20.6352,0.139115,
2,0,0,1,0,46419.2,0.137933,0.137628,-0.758718,24,0.0145725,10,-0.000104421,-3.11992,-0.0804795,-0.733106,21.7383,0.137628,
2,0,0,1,0,46419.4,0.136435,0.136111,-0.792628,24,0.0144539,10,-0.000107885,-3.10093,-0.0811569,-0.726987,22.4377,0.136111,
2,0,0,1,0,46419.5,0.134936,0.134607,-0.82599,24,0.0143302,10,-0.000111184,-3.08303,-0.0881626,-0.669218,21.5191,0.134607,
2,0,0,1,0,46419.7,0.133438,0.133135,-0.857582,24,0.0142015,10,-0.000114174,-3.06672,-0.0880931,-0.669746,22.4275,0.133135,
2,0,0,1,0,46419.8,0.13194,0.131652,-0.892417,24,0.0140681,10,-0.000117488,-3.04943,-0.0938962,-0.628354,21.9315,0.1316518,
2,0,0,1,0,46420,0.130442,0.130138,-0.925217,24,0.0139295,10,-0.000120405,-3.03376,-0.0984465,-0.59931,21.6103,0.130138,
2,0,0,1,0,46420.1,0.128943,0.128626,-0.960308,24,0.0137857,10,-0.000123521,-3.01759,-0.108786,-0.542348,20.2029,0.128626,
2,0,0,1,0,46420.3,0.127445,0.127167,-0.989188,24,0.0136375,10,-0.000125792,-3.00472,-0.118895,-0.496235,19.1072,0.127167,
2,0,0,1,0,46420.4,0.125948,0.125584,-1.01724,24,0.0134852,10,-0.000127749,-2.99258,-0.130414,-0.452407,17.9101,0.125584,
2,0,0,1,0,46420.6,0.124449,0.124109,-1.041,24,0.0133284,10,-0.000129198,-2.98255,-0.135412,-0.435708,17.6584,0.124109,
2,0,0,1,0,46420.7,0.122951,0.122656,-1.06741,24,0.0131678,10,-0.000130924,-2.97167,-0.159371,-0.370206,15.3728,0.122656,
2,0,0,1,0,46420.9,0.121453,0.121106,-1.08911,24,0.0130038,10,-0.000131898,-2.96293,-0.199931,-0.295102,12.4861,0.121106,
2,0,0,1,0,46421,0.119955,0.11969,-1.10377,24,0.0128372,10,-0.000132111,-2.95712,-0.231328,-0.255049,10.9919,0.11969,
2,0,0,1,0,46421.2,0.118456,0.11815,-1.12152,24,0.012668,10,-0.000132507,-2.95019,-0.242718,-0.243081,10.6132,0.11815,
2,0,0,1,0,46421.3,0.116958,0.116623,-1.13681,24,0.0124964,10,-0.000132578,-2.94431,-0.357789,-0.164902,7.28695,0.116623,
2,0,0,1,0,46421.5,0.11546,0.115126,-1.14501,24,0.0123231,10,-0.000131821,-2.94119,-0.509852,-0.11572,5.14697,0.115126,
2,0,0,1,0,46421.6,0.113962,0.113638,-1.14865,24,0.0121488,10,-0.000130529,-2.93981,-0.860455,-0.0685684,3.07074,0.113638,
2,0,0,1,0,46421.8,0.112463,0.112166,-1.15314,24,0.011974,10,-0.000129343,-2.93812,-1.44,-0.0409722,1.84164,0.112166,
2,0,0,1,0,46421.9,0.110966,0.110634,-1.15674,24,0.0117985,10,-0.000127974,-2.93676,-2.04989,-0.028782,1.29603,0.110634,
2,0,0,1,0,46422.1,0.109468,0.109165,-1.15496,24,0.011623,10,-0.000126081,-2.93743,1.46307,0.0403261,-1.81386,0.109165,
2,0,0,1,0,46422.2,0.107969,0.107673,-1.15323,24,0.0114474,10,-0.000124171,-2.93809,1.42679,0.0413517,-1.85981,0.107673,
2,0,0,1,0,46422.4,0.106471,0.106167,-1.14933,24,0.0112727,10,-0.000122021,-2.93956,1.49149,0.0395577,-1.77523,0.106167,
2,0,0,1,0,46422.5,0.104973,0.104669,-1.14678,24,0.0110982,10,-0.000120032,-2.94052,1.1609,0.0508227,-2.27425,0.1046687,
2,0,0,1,0,46422.7,0.103474,0.103153,-1.14387,24,0.0109241,10,-0.000117994,-2.94162,0.617847,0.0954929,-4.24895,0.103153,
2,0,0,1,0,46422.8,0.101976,0.101649,-1.13899,24,0.0107508,10,-0.000115777,-2.94348,0.656729,0.0898392,-3.99172,0.101649,
2,0,0,1,0,46423,0.100478,0.100148,-1.13069,24,0.0105787,10,-0.000113237,-2.94666,0.572517,0.103054,-4.54927,0.100148,
2,0,0,1,0,46423.1,0.0989798,0.0986191,-1.12815,24,0.0104072,10,-0.000111257,-2.94763,0.914687,0.0645029,-2.83452,0.0986191,
2,0,0,1,0,46423.3,0.0974808,0.0971539,-1.12014,24,0.0102364,10,-0.000108826,-2.95073,0.715023,0.0825148,-3.61073,0.0971539,
2,0,0,1,0,46423.4,0.0959833,0.0956381,-1.11499,24,0.0100666,10,-0.000106635,-2.95273,0.598374,0.0986006,-4.29292,0.0956381,
2,0,0,1,0,46423.6,0.0944857,0.0941646,-1.10645,24,0.00989778,10,-0.000104189,-2.95607,0.733258,0.0804628,-3.48543,0.0941646,
2,0,0,1,0,46423.7,0.0929871,0.0926829,-1.10289,24,0.00972973,10,-0.000102219,-2.95747,0.877959,0.0672013,-2.89503,0.0926829,
2,0,0,1,0,46423.9,0.0914889,0.0911888,-1.09967,24,0.00956228,10,-0.000100278,-2.95874,0.744694,0.0792272,-3.39401,0.0911888,
2,0,0,1,0,46424,0.0899907,0.08963,-1.0931,24,0.00939566,10,-9.79745e-05,-2.96134,0.516523,0.114225,-4.86188,0.08963,
2,0,0,1,0,46424.2,0.0884925,0.0881454,-1.08259,24,0.00923006,10,-9.54254e-05,-2.96554,0.548544,0.107558,-4.55751,0.0881454,
2,0,0,1,0,46424.3,0.0869943,0.0866619,-1.0776,24,0.00906578,10,-9.33871e-05,-2.96754,0.578749,0.101944,-4.29498,0.0866619,
2,0,0,1,0,46424.5,0.0854961,0.0851795,-1.07542,24,0.00890214,10,-9.16035e-05,-2.96842,0.573025,0.102962,-4.31244,0.0851795,
2,0,0,1,0,46424.6,0.083998,0.0836833,-1.06762,24,0.00873926,10,-8.93422e-05,-2.97158,0.457426,0.128983,-5.36134,0.0836833,
2,0,0,1,0,46424.8,0.0824998,0.0821764,-1.06012,24,0.00857749,10,-8.71169e-05,-2.97464,0.522071,0.113011,-4.68266,0.0821764,
2,0,0,1,0,46424.9,0.0810011,0.0807201,-1.05224,24,0.00841698,10,-8.49372e-05,-2.97788,0.63799,0.092478,-3.80689,0.0807201,
2,0,0,1,0,46425.1,0.0795036,0.0791811,-1.04896,24,0.00825715,10,-8.30581e-05,-2.97924,0.749872,0.0786801,-3.21682,0.0791811,
2,0,0,1,0,46425.2,0.0780061,0.07768,-1.04308,24,0.00809819,10,-8.10264e-05,-2.98168,0.627687,0.0939959,-3.81993,0.07768,
2,0,0,1,0,46425.4,0.076507,0.0761618,-1.0367,24,0.00793992,10,-7.89566e-05,-2.98435,0.568791,0.103729,-4.18893,0.0761618,
2,0,0,1,0,46425.5,0.0750088,0.0747037,-1.02715,24,0.00778309,10,-7.67317e-05,-2.98837,0.514712,0.114627,-4.60666,0.0747037,
2,0,0,1,0,46425.7,0.0735106,0.0731789,-1.02248,24,0.00762697,10,-7.48239e-05,-2.99035,0.865936,0.0681343,-2.71926,0.0731789,
2,0,0,1,0,46425.8,0.0720124,0.0716954,-1.01596,24,0.00747172,10,-7.28394e-05,-2.99312,0.585241,0.100813,-4.00228,0.0716954,
2,0,0,1,0,46426,0.0705142,0.0702055,-1.01156,24,0.0073173,10,-7.10173e-05,-2.99501,0.525218,0.112334,-4.43776,0.0702055,
2,0,0,1,0,46426.1,0.069016,0.0687018,-1.00332,24,0.00716403,10,-6.89297e-05,-2.99856,0.528365,0.111665,-4.38327,0.0687018,
2,0,0,1,0,46426.3,0.0675179,0.0672257,-1.00041,24,0.00701167,10,-6.72531e-05,-2.99982,0.762775,0.0773491,-3.01926,0.0672257,
2,0,0,1,0,46426.4,0.0660188,0.0657095,-0.997653,24,0.00685997,10,-6.55553e-05,-3.00102,0.631972,0.0933585,-3.61951,0.0657095,
2,0,0,1,0,46426.6,0.0645213,0.0642084,-0.988752,24,0.00670898,10,-6.34862e-05,-3.00491,0.57842,0.102002,-3.92945,0.0642084,
2,0,0,1,0,46426.7,0.0630237,0.0626993,-0.979988,24,0.00655917,10,-6.14445e-05,-3.00878,0.505108,0.116807,-4.47762,0.0626993,
2,0,0,1,0,46426.9,0.0615251,0.0612048,-0.974394,24,0.00641036,10,-5.96376e-05,-3.01127,0.618907,0.0953293,-3.63123,0.0612048,
2,0,0,1,0,46427,0.0600269,0.0597478,-0.968773,24,0.00626243,10,-5.7882e-05,-3.01378,0.538875,0.109487,-4.14333,0.0597478,
2,0,0,1,0,46427.2,0.0585287,0.0582049,-0.962813,24,0.00611537,10,-5.60404e-05,-3.01646,0.463246,0.127362,-4.77805,0.0582049,
2,0,0,1,0,46427.3,0.0570305,0.0566758,-0.95418,24,0.00596929,10,-5.40789e-05,-3.02037,0.461482,0.127849,-4.76833,0.0566758,
2,0,0,1,0,46427.5,0.0555323,0.0552188,-0.950134,24,0.00582443,10,-5.24652e-05,-3.02222,0.459768,0.128326,-4.7628,0.0552188,
2,0,0,1,0,46427.6,0.0540342,0.0536939,-0.942254,24,0.00568034,10,-5.05933e-05,-3.02583,0.613716,0.0961356,-3.53465,0.0536939,
2,0,0,1,0,46427.8,0.052536,0.0522348,-0.939395,24,0.00553699,10,-4.90691e-05,-3.02715,0.434545,0.135774,-4.97236,0.0522348,
2,0,0,1,0,46427.9,0.0510378,0.0507099,-0.930337,24,0.00539461,10,-4.71773e-05,-3.03136,0.41643,0.141681,-5.14584,0.0507099,
2,0,0,1,0,46428.1,0.0495391,0.0492089,-0.923179,24,0.00525345,10,-4.54286e-05,-3.03471,0.429117,0.137492,-4.96359,0.0492089,
2,0,0,1,0,46428.2,0.0480416,0.0476987,-0.916289,24,0.00511333,10,-4.37058e-05,-3.03797,0.621215,0.0949752,-3.3987,0.04769871,
2,0,0,1,0,46428.4,0.0465441,0.0462337,-0.9121,24,0.00497411,10,-4.21698e-05,-3.03996,0.527385,0.111873,-3.98122,0.0462337,
2,0,0,1,0,46428.5,0.045045,0.0447356,-0.903868,24,0.00483574,10,-4.04351e-05,-3.04389,0.432771,0.136331,-4.80812,0.0447356,
2,0,0,1,0,46428.7,0.0435468,0.0432171,-0.895088,24,0.00469855,10,-3.86831e-05,-3.04813,0.437962,0.134715,-4.71702,0.0432171,
2,0,0,1,0,46428.8,0.0420486,0.0417558,-0.890155,24,0.00456251,10,-3.71692e-05,-3.05053,0.464777,0.126943,-4.4166,0.0417558,
2,0,0,1,0,46429,0.0405504,0.0402331,-0.886327,24,0.00442731,10,-3.56597e-05,-3.05241,0.501803,0.117576,-4.05713,0.0402331,
2,0,0,1,0,46429.1,0.0390523,0.038722,-0.875677,24,0.00429296,10,-3.3908e-05,-3.05766,0.388337,0.15193,-5.19112,0.038722,
2,0,0,1,0,46429.3,0.0375541,0.0372003,-0.869661,24,0.00415974,10,-3.23517e-05,-3.06065,0.384756,0.153344,-5.21088,0.0372003,
2,0,0,1,0,46429.4,0.0360559,0.0357285,-0.862694,24,0.00402779,10,-3.08228e-05,-3.06414,0.388345,0.151927,-5.12,0.0357285,
2,0,0,1,0,46429.6,0.0345568,0.0342348,-0.856155,24,0.0038966,10,-2.93103e-05,-3.06745,0.489725,0.120476,-4.0326,0.0342348,
2,0,0,1,0,46429.7,0.0330593,0.0327833,-0.849848,24,0.00376646,10,-2.78608e-05,-3.07066,0.40768,0.144721,-4.79282,0.0327833,
2,0,0,1,0,46429.9,0.0315618,0.0312255,-0.844739,24,0.00363727,10,-2.63774e-05,-3.07328,0.405943,0.145341,-4.78467,0.0312255,
2,0,0,1,0,46430,0.0300631,0.0297351,-0.835371,24,0.0035092,10,-2.48398e-05,-3.07812,0.454879,0.129705,-4.23078,0.0297351,
2,0,0,1,0,46430.2,0.0285649,0.0282548,-0.830681,24,0.00338209,10,-2.34707e-05,-3.08057,0.474471,0.124349,-4.02192,0.0282548,
2,0,0,1,0,46430.3,0.0270667,0.0267384,-0.824871,24,0.00325578,10,-2.20557e-05,-3.08361,0.442659,0.133286,-4.28166,0.0267384,
2,0,0,1,0,46430.5,0.0255685,0.0252814,-0.818299,24,0.00313046,10,-2.06877e-05,-3.08709,0.424523,0.13898,-4.43388,0.02528137,
2,0,0,1,0,46430.6,0.0240704,0.0237671,-0.810693,24,0.00300622,10,-1.92678e-05,-3.09114,0.529045,0.111522,-3.53585,0.02376711,
2,0,0,1,0,46430.8,0.0225722,0.02229,-0.806726,24,0.0028827,10,-1.79819e-05,-3.09327,0.615668,0.0958309,-3.01195,0.02229,
2,0,0,1,0,46430.9,0.021074,0.0207821,-0.800858,24,0.00275995,10,-1.66435e-05,-3.09644,0.529558,0.111414,-3.48813,0.0207821,
2,0,0,1,0,46431.1,0.0195758,0.0192699,-0.796553,24,0.00263793,10,-1.53495e-05,-3.09879,0.622629,0.0947595,-2.93988,0.0192699,
2,0,0,1,0,46431.2,0.0180771,0.0177573,-0.788172,24,0.00251655,10,-1.39958e-05,-3.10338,0.6192,0.0952842,-2.94688,0.01775731,
2,0,0,1,0,46431.4,0.0165796,0.0162587,-0.78697,24,0.00239611,10,-1.27951e-05,-3.10404,0.877514,0.0672354,-2.06957,0.0162587,
2,0,0,1,0,46431.5,0.0150821,0.0147579,-0.785573,24,0.00227602,10,-1.15934e-05,-3.10481,0.858561,0.0687197,-2.10193,0.0147579,
2,0,0,1,0,46431.7,0.013583,0.01325,-0.782115,24,0.00215624,10,-1.0363e-05,-3.10673,0.648292,0.0910084,-2.76902,0.01325,
2,0,0,1,0,46431.8,0.0120848,0.0117485,-0.778019,24,0.00203714,10,-9.14053e-06,-3.10901,0.97502,0.0605116,-1.83958,0.0117485,
2,0,0,1,0,46432,0.0105866,0.0102628,-0.775519,24,0.00191871,10,-7.95903e-06,-3.11041,1.20155,0.0491032,-1.48723,0.0102628,
2,0,0,1,0,46432.1,0.00908846,0.00880053,-0.77418,24,0.0018004,10,-6.81319e-06,-3.11116,1.56679,0.0376567,-1.13589,0.00880053,
2,0,0,1,0,46432.3,0.00759027,0.00727991,-0.771833,24,0.00168232,10,-5.61888e-06,-3.11248,1.83211,0.0322034,-0.969561,0.00727991,
2,0,0,1,0,46432.4,0.00609207,0.0057752,-0.772501,24,0.00156442,10,-4.46135e-06,-3.1121,4.14639,0.0142293,-0.428566,0.0057752,
2,0,0,1,0,46432.6,0.00459389,0.00427154,-0.769147,24,0.00144692,10,-3.28544e-06,-3.11399,2.208,0.026721,-0.803069,0.00427154,
2,0,0,1,0,46432.7,0.0030948,0.00277607,-0.770968,24,0.00132913,10,-2.14026e-06,-3.11296,-1.00039,-0.0589772,1.77762,0.00277607,
2,0,0,1,0,46432.9,0.00159728,0.00122505,-0.779506,24,0.00121015,10,-9.54936e-07,-3.10818, , , ,0.00122505,
2,0,0,1,0,46433,0.000199195,-0.000199347,-0.773938,24,0.00109951,10,1.54282e-07,-3.11129, , , ,-0.000199347,