File: Figure_codes/Fig_3-5/rawdata_trumpetplot_data/after 10th/20221101_1-115_003_TrumpetPlot_ParaChange_from10_every3_03_CV_C01_13.csv
mode,ox/red,error,control changes,counter inc.,time/s,control/V,Ewe/V,<I>/mA,cycle number,(Q-Qo)/C,I Range,P/W,log(|I|),Tafel slope mV/dec,alpha_eff,dI/d(E-IR),E-IR/V,
2,0,0,1,0,26551.7,2.44065e-05,-0.000306236,-0.099394,14,0.0000000E+000,10,3.04381e-08,-4.00264, , , ,-0.000306236,
2,1,0,0,0,26552,0.00129787,0.000929138,0.140964,14,2.57653e-05,10,1.30975e-07,-3.85089, , , ,0.000929138,
2,1,0,0,0,26552.3,0.00279606,0.00244446,0.177998,14,8.01942e-05,10,4.35109e-07,-3.74958,0.0179827,3.28093,19.2689,0.00244446,
2,1,0,1,0,26552.6,0.00429469,0.00397168,0.187537,14,0.000139761,10,7.44838e-07,-3.72691,0.0713336,0.8271,6.08859,0.00397168,
2,1,0,1,0,26552.9,0.00579255,0.00550064,0.19611,14,0.000202485,10,1.07873e-06,-3.7075,0.0692019,0.852577,6.52045,0.00550064,
2,1,0,1,0,26553.2,0.00729041,0.00696046,0.206995,14,0.000267953,10,1.44078e-06,-3.68404,0.0889483,0.663307,5.33336,0.00696046,
2,1,0,1,0,26553.5,0.00878882,0.00843576,0.216057,14,0.000336048,10,1.82261e-06,-3.66543,0.101573,0.58086,4.8155,0.008435756,
2,1,0,1,0,26553.8,0.010287,0.00997122,0.221761,14,0.000406475,10,2.21123e-06,-3.65412,0.116142,0.507999,4.35175,0.00997122,
2,1,0,1,0,26554.1,0.0117852,0.0114696,0.227217,14,0.000478631,10,2.60609e-06,-3.64356,0.140803,0.419025,3.7295,0.0114696,
2,1,0,1,0,26554.4,0.0132836,0.0129406,0.232981,14,0.000552434,10,3.01491e-06,-3.63268,0.136506,0.432215,3.95439,0.0129406,
2,1,0,1,0,26554.7,0.0147815,0.0144683,0.239263,14,0.000628335,10,3.46174e-06,-3.62112,0.1347,0.438011,4.09584,0.0144683,
2,1,0,1,0,26555,0.0162793,0.0159609,0.245811,14,0.000706209,10,3.92338e-06,-3.6094,0.175323,0.336522,3.22132,0.0159609,
2,1,0,0,0,26555.3,0.017778,0.0174588,0.250176,14,0.000785554,10,4.36776e-06,-3.60175,0.189578,0.311217,3.04525,0.0174588,
2,1,0,0,0,26555.6,0.0192761,0.0189147,0.256458,14,0.000866156,10,4.85083e-06,-3.59098,0.156023,0.378149,3.76789,0.0189147,
2,1,0,1,0,26555.9,0.0207747,0.0204494,0.262777,14,0.000948693,10,5.37362e-06,-3.58041,0.153832,0.383534,3.90205,0.02044937,
2,1,0,1,0,26556.2,0.0222725,0.0219592,0.267629,14,0.00103288,10,5.87692e-06,-3.57247,0.191893,0.307463,3.20562,0.0219592,
2,1,0,1,0,26556.5,0.0237704,0.0234752,0.272922,14,0.00111871,10,6.40691e-06,-3.56396,0.173333,0.340386,3.62124,0.0234752,
2,1,0,1,0,26556.8,0.0252689,0.024924,0.276795,14,0.00120588,10,6.89885e-06,-3.55784,0.168979,0.349155,3.79116,0.024924,
2,1,0,1,0,26557.1,0.0267671,0.0264107,0.283867,14,0.00129483,10,7.49712e-06,-3.54689,0.152831,0.386048,4.26235,0.0264107,
2,1,0,1,0,26557.4,0.0282657,0.0279583,0.289721,14,0.00138567,10,8.1001e-06,-3.53802,0.172361,0.342305,3.86372,0.0279583,
2,1,0,1,0,26557.7,0.0297635,0.0294476,0.293911,14,0.00147801,10,8.65498e-06,-3.53178,0.176111,0.335016,3.85253,0.0294476,
2,1,0,1,0,26558,0.0312613,0.0309192,0.297773,14,0.00157186,10,9.20689e-06,-3.52611,0.174969,0.337203,3.93926,0.03091919,
2,1,0,0,0,26558.3,0.0327599,0.0324296,0.304683,14,0.00166719,10,9.88076e-06,-3.51615,0.174749,0.337628,4.02095,0.0324296,
2,1,0,0,0,26558.6,0.034258,0.0339534,0.310658,14,0.00176435,10,1.05479e-05,-3.50772,0.196609,0.300088,3.63519,0.03395338,
2,1,0,1,0,26558.9,0.0357567,0.0353695,0.316336,14,0.00186329,10,1.11886e-05,-3.49985,0.256656,0.22988,2.82668,0.0353695,
2,1,0,1,0,26559.2,0.0372545,0.0369288,0.320452,14,0.00196367,10,1.18339e-05,-3.49424,0.208111,0.283503,3.56079,0.0369288,
2,1,0,1,0,26559.5,0.0387524,0.038413,0.326363,14,0.00206545,10,1.25366e-05,-3.4863,0.203987,0.289235,3.69964,0.038413,
2,1,0,1,0,26559.8,0.0402508,0.0399266,0.332299,14,0.00216918,10,1.32676e-05,-3.47847,0.21586,0.273326,3.54678,0.0399266,
2,1,0,1,0,26560.1,0.041749,0.041442,0.337405,14,0.00227451,10,1.39827e-05,-3.47185,0.247359,0.238519,3.13473,0.04144197,
2,1,0,1,0,26560.4,0.0432472,0.0429488,0.343315,14,0.00238126,10,1.4745e-05,-3.46431,0.263106,0.224244,2.9924,0.0429488,
2,1,0,1,0,26560.7,0.0447456,0.0443913,0.347992,14,0.00248921,10,1.54478e-05,-3.45843,0.22085,0.26715,3.62312,0.0443913,
2,1,0,1,0,26561,0.0462435,0.0459138,0.353102,14,0.00259892,10,1.62123e-05,-3.4521,0.215727,0.273494,3.74806,0.0459138,
2,1,0,1,0,26561.3,0.0477413,0.0474169,0.358417,14,0.00271035,10,1.6995e-05,-3.44561,0.234586,0.251507,3.5135,0.0474169,
2,1,0,0,0,26561.6,0.0492399,0.04892,0.361764,14,0.00282322,10,1.76975e-05,-3.44157,0.272721,0.216339,3.0689,0.04892,
2,1,0,0,0,26561.9,0.0507381,0.0503971,0.36569,14,0.00293736,10,1.84297e-05,-3.43689,0.266197,0.221641,3.18324,0.0503971,
2,1,0,1,0,26562.2,0.0522367,0.0519116,0.371279,14,0.00305294,10,1.92737e-05,-3.4303,0.239447,0.246401,3.5697,0.0519116,
2,1,0,1,0,26562.5,0.0537345,0.0534255,0.378323,14,0.00317012,10,2.02121e-05,-3.42214,0.263781,0.22367,3.28743,0.0534255,
2,1,0,1,0,26562.8,0.0552323,0.054895,0.380795,14,0.00328878,10,2.09038e-05,-3.41931,0.325408,0.181311,2.68986,0.054895,
2,1,0,1,0,26563.1,0.0567309,0.0564181,0.38346,14,0.0034086,10,2.16341e-05,-3.41628,0.337756,0.174682,2.6262,0.0564181,
2,1,0,1,0,26563.4,0.0582291,0.0578963,0.389891,14,0.00352952,10,2.25733e-05,-3.40906,0.322319,0.183049,2.78472,0.0578963,
2,1,0,1,0,26563.7,0.0597277,0.0593814,0.39277,14,0.00365189,10,2.33232e-05,-3.40586,0.330485,0.178526,2.74302,0.0593814,
2,1,0,1,0,26564,0.0612255,0.0608961,0.397833,14,0.00377568,10,2.42265e-05,-3.4003,0.411016,0.143547,2.22272,0.06089614,
2,1,0,1,0,26564.2,0.0627233,0.0624186,0.402067,14,0.00390063,10,2.50964e-05,-3.3957,0.326716,0.180585,2.84371,0.0624186,
2,1,0,0,0,26564.5,0.0642218,0.0638749,0.405877,14,0.00402655,10,2.59254e-05,-3.39161,0.292047,0.202022,3.20835,0.0638749,
2,1,0,0,0,26564.8,0.06572,0.0653997,0.411575,14,0.00415401,10,2.69169e-05,-3.38555,0.332076,0.17767,2.8452,0.0653997,
2,1,0,1,0,26565.1,0.0672187,0.0668668,0.415989,14,0.00428291,10,2.78159e-05,-3.38092,0.44862,0.131515,2.1194,0.0668668,
2,1,0,1,0,26565.4,0.0687165,0.0683405,0.418443,14,0.00441267,10,2.85966e-05,-3.37836,0.443527,0.133025,2.16823,0.0683405,
2,1,0,1,0,26565.7,0.0702144,0.0698489,0.419753,14,0.00454299,10,2.93193e-05,-3.37701,0.479648,0.123007,2.01657,0.0698489,
2,1,0,1,0,26566,0.0717128,0.0713963,0.424097,14,0.00467475,10,3.0279e-05,-3.37253,0.32863,0.179533,2.96803,0.0713963,
2,1,0,1,0,26566.3,0.073211,0.0729,0.427268,14,0.00480742,10,3.11479e-05,-3.3693,0.424208,0.139083,2.32433,0.07289999,
2,1,0,1,0,26566.6,0.0747092,0.0743549,0.429956,14,0.00494103,10,3.19693e-05,-3.36658,0.628021,0.0939458,1.57822,0.0743549,
2,1,0,1,0,26566.9,0.0762076,0.0758874,0.431108,14,0.00507545,10,3.27157e-05,-3.36541,0.459581,0.128378,2.17529,0.0758874,
2,1,0,1,0,26567.2,0.0777054,0.0774076,0.435979,14,0.00521074,10,3.37481e-05,-3.36053,0.431172,0.136836,2.33289,0.0774076,
2,1,0,1,0,26567.5,0.0792033,0.078841,0.440879,14,0.00534718,10,3.47594e-05,-3.35568,0.482578,0.12226,2.10025,0.078841,
2,1,0,0,0,26567.8,0.0807019,0.0803992,0.443652,14,0.00548469,10,3.56693e-05,-3.35296,0.501538,0.117638,2.03025,0.0803992,
2,1,0,0,0,26568.1,0.0822001,0.0818445,0.446037,14,0.00562305,10,3.65057e-05,-3.35063,0.428068,0.137829,2.40325,0.0818445,
2,1,0,1,0,26568.4,0.0836986,0.0833918,0.449014,14,0.00576229,10,3.74441e-05,-3.34774,0.424441,0.139006,2.44556,0.0833918,
2,1,0,1,0,26568.7,0.0851965,0.0848647,0.454444,14,0.00590282,10,3.85663e-05,-3.34252,0.371366,0.158873,2.82023,0.0848647,
2,1,0,1,0,26569,0.0866944,0.0863764,0.458294,14,0.00604465,10,3.95858e-05,-3.33886,0.4273,0.138076,2.46979,0.0863764,
2,1,0,1,0,26569.3,0.0881929,0.0878899,0.462709,14,0.00618779,10,4.06675e-05,-3.33469,0.384338,0.153511,2.77891,0.0878899,
2,1,0,1,0,26569.6,0.0896911,0.0893851,0.467852,14,0.00633199,10,4.1819e-05,-3.32989,0.312638,0.188716,3.45421,0.0893851,
2,1,0,1,0,26569.9,0.0911897,0.0908595,0.474384,14,0.00647816,10,4.31023e-05,-3.32387,0.267357,0.220678,4.07315,0.0908595,
2,1,0,1,0,26570.2,0.0926875,0.0923659,0.481854,14,0.00662644,10,4.45069e-05,-3.31708,0.245687,0.240143,4.49972,0.0923659,
2,1,0,1,0,26570.5,0.0941853,0.093847,0.486283,14,0.00677637,10,4.56362e-05,-3.31311,0.277784,0.212395,4.04301,0.093847,
2,1,0,0,0,26570.8,0.0956838,0.0953817,0.492931,14,0.00692807,10,4.70166e-05,-3.30721,0.220004,0.268177,5.18172,0.09538167,
2,1,0,0,0,26571.1,0.097182,0.0968196,0.502435,14,0.00708228,10,4.86455e-05,-3.29892,0.184246,0.320224,6.26343,0.09681958,
2,1,0,1,0,26571.4,0.0986807,0.0983416,0.510527,14,0.00723923,10,5.02061e-05,-3.29198,0.190622,0.309514,6.16067,0.0983416,
2,1,0,1,0,26571.7,0.100179,0.0998663,0.518688,14,0.00739853,10,5.17995e-05,-3.28509,0.212606,0.277508,5.62931,0.0998663,
2,1,0,1,0,26572,0.101676,0.101362,0.524854,14,0.00756015,10,5.32003e-05,-3.27996,0.196921,0.299613,6.17841,0.101362,
2,1,0,1,0,26572.3,0.103175,0.102874,0.536489,14,0.00772453,10,5.5191e-05,-3.27044,0.198449,0.297306,6.23208,0.1028745,
2,1,0,1,0,26572.6,0.104673,0.10436,0.548724,14,0.00789194,10,5.72649e-05,-3.26065,0.212456,0.277704,5.9028,0.10436,
2,1,0,1,0,26572.9,0.106171,0.105838,0.555948,14,0.00806207,10,5.88406e-05,-3.25497,0.259573,0.227297,4.89797,0.105838,
2,1,0,1,0,26573.2,0.10767,0.107318,0.560273,14,0.0082345,10,6.01273e-05,-3.2516,0.247648,0.238241,5.22526,0.107318,
2,1,0,1,0,26573.5,0.109167,0.108844,0.57025,14,0.00840877,10,6.20686e-05,-3.24393,0.260699,0.226314,5.04009,0.108844,
2,1,0,1,0,26573.8,0.110665,0.110348,0.577427,14,0.00858585,10,6.37178e-05,-3.2385,0.267131,0.220866,4.96625,0.110348,
2,1,0,0,0,26574.1,0.112164,0.111814,0.58387,14,0.00876524,10,6.52847e-05,-3.23368,0.365519,0.161414,3.675,0.111814,
2,1,0,0,0,26574.4,0.113662,0.113287,0.591958,14,0.00894639,10,6.70609e-05,-3.22771,0.32417,0.182003,4.19318,0.113287,
2,1,0,1,0,26574.7,0.115161,0.114787,0.596808,14,0.00912894,10,6.8506e-05,-3.22417,0.358178,0.164722,3.82974,0.114787,
2,1,0,1,0,26575,0.116658,0.116363,0.602497,14,0.00931369,10,7.01083e-05,-3.22005,0.313352,0.188287,4.41137,0.116363,
2,1,0,1,0,26575.3,0.118156,0.117827,0.609088,14,0.00950037,10,7.17669e-05,-3.21532,0.392443,0.15034,3.56801,0.117827,
2,1,0,1,0,26575.6,0.119655,0.119391,0.611507,14,0.00968853,10,7.30087e-05,-3.2136,0.468335,0.125978,3.01376,0.1193914,
2,1,0,1,0,26575.9,0.121153,0.120822,0.615936,14,0.00987778,10,7.44185e-05,-3.21046,0.418616,0.140941,3.39899,0.120822,
2,1,0,1,0,26576.2,0.122652,0.122343,0.621587,14,0.0100686,10,7.60467e-05,-3.2065,0.339799,0.173632,4.21671,0.122343,
2,1,0,1,0,26576.5,0.124149,0.123777,0.627134,14,0.0102611,10,7.76249e-05,-3.20264,0.436138,0.135278,3.31136,0.1237773,
2,1,0,1,0,26576.8,0.125647,0.125314,0.632258,14,0.0104551,10,7.9231e-05,-3.19911,0.563694,0.104667,2.57757,0.125314,
2,1,0,0,0,26577.1,0.127146,0.126821,0.632699,14,0.0106502,10,8.02393e-05,-3.1988,0.523659,0.112669,2.79307,0.126821,
2,1,0,0,0,26577.4,0.128644,0.128315,0.639492,14,0.0108461,10,8.20563e-05,-3.19416,0.680929,0.0866463,2.16087,0.128315,
2,1,0,1,0,26577.7,0.130143,0.129802,0.644943,14,0.0110436,10,8.37148e-05,-3.19048,1.40053,0.0421268,1.05297,0.129802,
2,1,0,1,0,26578,0.131641,0.13133,0.643143,14,0.0112417,10,8.44637e-05,-3.19169,-1.49979,-0.0393388,-0.983542,0.13133,
2,1,0,1,0,26578.3,0.133138,0.132829,0.641751,14,0.0114396,10,8.5243e-05,-3.19263,-0.710477,-0.0830427,-2.07688,0.132829,
2,1,0,1,0,26578.6,0.134637,0.134361,0.637222,14,0.0116363,10,8.56179e-05,-3.19571,-0.38665,-0.152593,-3.78923,0.134361,
2,1,0,1,0,26578.9,0.136135,0.135796,0.630242,14,0.0118316,10,8.55843e-05,-3.20049,-0.256237,-0.230256,-5.64462,0.135796,
2,1,0,1,0,26579.2,0.137633,0.137309,0.620727,14,0.0120244,10,8.52314e-05,-3.2071,-0.17157,-0.343883,-8.28418,0.137309,
2,1,0,1,0,26579.5,0.139132,0.138818,0.607959,14,0.0122136,10,8.43959e-05,-3.21613,-0.140209,-0.420799,-9.91703,0.138818,
2,1,0,1,0,26579.8,0.140629,0.140319,0.590741,14,0.0123977,10,8.28924e-05,-3.2286,-0.110677,-0.533081,-12.21,0.140319,
2,1,0,1,0,26580.1,0.142127,0.1418,0.571846,14,0.0125768,10,8.10881e-05,-3.24272,-0.100203,-0.588804,-13.0283,0.1418,
2,1,0,0,0,26580.4,0.143626,0.143352,0.549347,14,0.0127499,10,7.87501e-05,-3.26015,-0.0856924,-0.688509,-14.7099,0.143352,
2,1,0,0,0,26580.7,0.145124,0.144856,0.526037,14,0.012916,10,7.61996e-05,-3.27898,-0.0747576,-0.789217,-16.1967,0.144856,
2,1,0,1,0,26581,0.146623,0.146305,0.500694,14,0.0130748,10,7.3254e-05,-3.30043,-0.0720903,-0.818418,-16.0274,0.146305,
2,1,0,1,0,26581.3,0.14812,0.147785,0.478023,14,0.0132265,10,7.06446e-05,-3.32055,-0.0754229,-0.782256,-14.6051,0.147785,
2,1,0,1,0,26581.6,0.149618,0.149325,0.45644,14,0.0133713,10,6.81579e-05,-3.34062,-0.0727637,-0.810844,-14.4829,0.149325,
2,1,0,1,0,26581.9,0.151117,0.150802,0.435173,14,0.0135099,10,6.56248e-05,-3.36134,-0.0797421,-0.739885,-12.5974,0.1508017,
2,1,0,1,0,26582.2,0.152615,0.15223,0.414995,14,0.0136425,10,6.31748e-05,-3.38196,-0.0824125,-0.715911,-11.6849,0.15223,
2,1,0,1,0,26582.5,0.154114,0.153778,0.400991,14,0.0137699,10,6.16634e-05,-3.39687,-0.0948995,-0.621711,-9.79683,0.153778,
2,1,0,1,0,26582.8,0.155612,0.155268,0.388737,14,0.0138932,10,6.03584e-05,-3.41034,-0.101737,-0.579926,-8.80329,0.155268,
2,1,0,1,0,26583.1,0.157109,0.156793,0.376558,14,0.0140129,10,5.90415e-05,-3.42417,-0.108827,-0.542147,-7.97435,0.156793,
2,1,0,0,0,26583.4,0.158608,0.158293,0.36497,14,0.0141291,10,5.77723e-05,-3.43774,-0.129448,-0.455781,-6.53497,0.158293,
2,1,0,0,0,26583.7,0.160106,0.159798,0.357995,14,0.0142422,10,5.7207e-05,-3.44612,-0.157258,-0.37518,-5.26054,0.159798,
2,1,0,1,0,26584,0.161605,0.161286,0.350479,14,0.0143532,10,5.65275e-05,-3.45534,-0.173121,-0.340801,-4.67492,0.161286,
2,1,0,1,0,26584.3,0.163102,0.16279,0.345477,14,0.0144621,10,5.62401e-05,-3.46158,-0.20306,-0.290555,-3.9015,0.16279,
2,1,0,1,0,26584.6,0.1646,0.16429,0.338726,14,0.0145694,10,5.56494e-05,-3.47015,-0.234581,-0.251512,-3.33475,0.16429,
2,1,0,1,0,26584.9,0.166099,0.165767,0.334528,14,0.0146749,10,5.54538e-05,-3.47557,-0.260931,-0.226113,-2.95902,0.165767,
2,1,0,1,0,26585.2,0.167597,0.167269,0.330008,14,0.0147792,10,5.52001e-05,-3.48147,-0.313781,-0.188029,-2.42174,0.167269,
2,1,0,1,0,26585.5,0.169095,0.168767,0.326843,14,0.0148825,10,5.51603e-05,-3.48566,-0.337582,-0.174772,-2.23022,0.168767,
2,1,0,1,0,26585.8,0.170594,0.170289,0.323388,14,0.0149847,10,5.50695e-05,-3.49028,-0.285209,-0.206866,-2.61688,0.170289,
2,1,0,1,0,26586.1,0.172091,0.171781,0.319728,14,0.0150857,10,5.49231e-05,-3.49522,-0.362245,-0.162873,-2.03931,0.171781,
2,1,0,1,0,26586.4,0.173589,0.173283,0.318117,14,0.0151859,10,5.51243e-05,-3.49741,-0.560974,-0.105174,-1.30633,0.173283,
2,1,0,0,0,26586.7,0.175088,0.174739,0.31562,14,0.0152855,10,5.51512e-05,-3.50084,-0.422686,-0.139583,-1.71848,0.174739,
2,1,0,0,0,26587,0.176586,0.176254,0.313611,14,0.0153844,10,5.52751e-05,-3.50361,-0.508121,-0.116114,-1.41805,0.176254,
2,1,0,1,0,26587.3,0.178085,0.177794,0.310313,14,0.0154827,10,5.51719e-05,-3.5082,-0.606775,-0.0972354,-1.18246,0.177794,
2,1,0,1,0,26587.6,0.179582,0.179254,0.310273,14,0.0155803,10,5.56179e-05,-3.50826,-0.914179,-0.0645388,-0.783675,0.179254,
2,1,0,1,0,26587.9,0.18108,0.180758,0.30824,14,0.0156776,10,5.57169e-05,-3.51111,-0.787358,-0.0749342,-0.901722,0.180758,
2,1,0,1,0,26588.2,0.182579,0.182242,0.306811,14,0.0157745,10,5.59137e-05,-3.51313,-0.46371,-0.127235,-1.52062,0.182242,
2,1,0,1,0,26588.5,0.184077,0.183752,0.304416,14,0.0158708,10,5.59369e-05,-3.51653,-0.504108,-0.117038,-1.3981,0.1837517,
2,1,0,1,0,26588.8,0.185576,0.185214,0.303394,14,0.0159665,10,5.61927e-05,-3.51799,-0.690902,-0.0853957,-1.01142,0.185214,
2,1,0,1,0,26589.1,0.187074,0.186731,0.302362,14,0.0160619,10,5.64602e-05,-3.51947,-1.11475,-0.0529264,-0.624566,0.186731,
2,1,0,1,0,26589.4,0.188571,0.188242,0.300625,14,0.0161569,10,5.65903e-05,-3.52197,-1.03086,-0.0572336,-0.672269,0.188242,
2,1,0,0,0,26589.7,0.19007,0.189756,0.3008,14,0.0162516,10,5.70784e-05,-3.52172,-0.565857,-0.104267,-1.21882,0.189756,
2,1,0,0,0,26590,0.191568,0.191247,0.298868,14,0.0163458,10,5.71575e-05,-3.52452,-1.40811,-0.0419003,-0.489597,0.191247,
2,1,0,1,0,26590.3,0.193067,0.192722,0.296694,14,0.0164398,10,5.71795e-05,-3.52769,-2.51243,-0.0234833,-0.272049,0.192722,
2,1,0,1,0,26590.6,0.194564,0.194257,0.297686,14,0.0165337,10,5.78276e-05,-3.52624,-1.03761,-0.0568617,-0.658972,0.194257,
2,1,0,1,0,26590.9,0.196062,0.195716,0.295999,14,0.0166272,10,5.79316e-05,-3.52871,-1.42797,-0.0413175,-0.478781,0.195716,
2,1,0,1,0,26591.2,0.197561,0.197255,0.292911,14,0.0167204,10,5.77781e-05,-3.53326,-1.40458,-0.0420054,-0.484056,0.197255,
2,1,0,1,0,26591.5,0.199059,0.198747,0.294757,14,0.0168133,10,5.85821e-05,-3.53054,-1.66682,-0.0353968,-0.40608,0.198747,
2,1,0,1,0,26591.8,0.200557,0.200229,0.293701,14,0.0169061,10,5.88077e-05,-3.53209,-1.35528,-0.0435335,-0.498274,0.200229,
2,1,0,1,0,26592.1,0.202056,0.201752,0.29304,14,0.0169986,10,5.91215e-05,-3.53307,-0.931056,-0.0633689,-0.72294,0.201752,
2,1,0,1,0,26592.4,0.203553,0.203186,0.289771,14,0.0170908,10,5.88774e-05,-3.53794,-2.88898,-0.0204225,-0.232319,0.203186,
2,1,0,1,0,26592.7,0.205051,0.204674,0.289741,14,0.0171827,10,5.93025e-05,-3.53799,1.68655,0.0349827,0.399506,0.204674,
2,1,0,0,0,26593,0.20655,0.206216,0.289435,14,0.0172745,10,5.96862e-05,-3.53845,-1.14501,-0.0515278,-0.583449,0.206216,
2,1,0,0,0,26593.3,0.208048,0.207753,0.28894,14,0.0173663,10,6.00282e-05,-3.53919,-1.00486,-0.0587148,-0.662366,0.207753,
2,1,0,1,0,26593.6,0.209547,0.209218,0.288981,14,0.0174577,10,6.04599e-05,-3.53913,-1.33041,-0.0443473,-0.499624,0.209218,
2,1,0,1,0,26593.9,0.211044,0.210732,0.289671,14,0.0175487,10,6.10428e-05,-3.5381,-2.10327,-0.0280516,-0.315256,0.210732,
2,1,0,1,0,26594.2,0.212542,0.212227,0.288039,14,0.0176397,10,6.11298e-05,-3.54055,-4.69453,-0.0125678,-0.140868,0.212227,
2,1,0,1,0,26594.5,0.214041,0.213726,0.287628,14,0.0177307,10,6.14737e-05,-3.54117,-2.2425,-0.02631,-0.294805,0.213726,
2,1,0,1,0,26594.8,0.215539,0.21523,0.286119,14,0.0178213,10,6.15814e-05,-3.54345,-1.22783,-0.0480522,-0.536701,0.21523,
2,1,0,1,0,26595.1,0.217038,0.216709,0.28514,14,0.0179116,10,6.17923e-05,-3.54494,-1.01963,-0.0578641,-0.646205,0.216709,
2,1,0,1,0,26595.4,0.218535,0.218251,0.285104,14,0.0180019,10,6.22243e-05,-3.545,8.06828,0.00731258,0.0815863,0.218251,
2,1,0,1,0,26595.7,0.220033,0.219778,0.284925,14,0.0180921,10,6.262e-05,-3.54527,-8.70139,-0.00678052,-0.0755584,0.219778,
2,1,0,0,0,26596,0.221532,0.221205,0.283979,14,0.0181822,10,6.28176e-05,-3.54671,-0.919398,-0.0641725,-0.712972,0.221205,
2,1,0,0,0,26596.3,0.22303,0.222733,0.282481,14,0.018272,10,6.2918e-05,-3.54901,-1.06881,-0.0552017,-0.610315,0.2227333,
2,1,0,1,0,26596.6,0.224529,0.224196,0.284046,14,0.0183615,10,6.3682e-05,-3.54661,-1.19174,-0.0495076,-0.547475,0.224196,
2,1,0,1,0,26596.9,0.226026,0.225733,0.283485,14,0.0184509,10,6.3992e-05,-3.54747,-3.43825,-0.0171599,-0.189633,0.225733,
2,1,0,1,0,26597.2,0.227524,0.227177,0.281113,14,0.0185402,10,6.38624e-05,-3.55112,-0.991727,-0.0594922,-0.65221,0.2271772,
2,1,0,1,0,26597.5,0.229023,0.228702,0.281942,14,0.0186294,10,6.44809e-05,-3.54984,-4.29049,-0.0137513,-0.151536,0.228702,
2,1,0,1,0,26597.8,0.230521,0.230244,0.281155,14,0.0187183,10,6.47342e-05,-3.55105,-2.59389,-0.0227458,-0.250211,0.230244,
2,1,0,1,0,26598.1,0.232019,0.231709,0.281727,14,0.0188072,10,6.52785e-05,-3.55017,-1.82173,-0.0323868,-0.355313,0.231709,
2,1,0,1,0,26598.4,0.233518,0.233225,0.280696,14,0.0188961,10,6.54653e-05,-3.55176,-1.46844,-0.0401788,-0.439712,0.233225,
2,1,0,1,0,26598.7,0.235015,0.234693,0.28125,14,0.0189848,10,6.60072e-05,-3.55091,-1.85702,-0.0317714,-0.347744,0.234693,
2,1,0,1,0,26599,0.236513,0.23622,0.280568,14,0.0190732,10,6.62758e-05,-3.55196,-2.31482,-0.025488,-0.278736,0.23622,
2,1,0,0,0,26599.3,0.238012,0.237738,0.28066,14,0.0191617,10,6.67236e-05,-3.55182,-4.88418,-0.0120798,-0.131645,0.237738,
2,1,0,0,0,26599.6,0.23951,0.239241,0.279173,14,0.0192501,10,6.67895e-05,-3.55413,-1.81473,-0.0325117,-0.354825,0.239241,
2,1,0,1,0,26599.9,0.241009,0.240701,0.27856,14,0.0193383,10,6.70496e-05,-3.55508,-1.51672,-0.0388997,-0.423033,0.240701,
2,1,0,1,0,26600.2,0.242506,0.242213,0.278416,14,0.0194263,10,6.74359e-05,-3.55531,-4.42218,-0.0133418,-0.145223,0.242213,
2,1,0,1,0,26600.5,0.244004,0.243729,0.277437,14,0.0195142,10,6.76195e-05,-3.55684,-4.42664,-0.0133284,-0.144753,0.243729,
2,1,0,1,0,26600.8,0.245503,0.245188,0.278033,14,0.0196022,10,6.81706e-05,-3.5559,-19.2246,-0.00306898,-0.0332429,0.245188,
2,1,0,1,0,26601.1,0.247001,0.246686,0.27834,14,0.01969,10,6.86624e-05,-3.55542,-1.39422,-0.0423176,-0.458323,0.246686,
2,1,0,1,0,26601.4,0.2485,0.248179,0.27568,14,0.0197776,10,6.84179e-05,-3.5596,-5.63375,-0.0104726,-0.113015,0.248179,
2,1,0,1,0,26601.7,0.249997,0.24968,0.276514,14,0.019865,10,6.90402e-05,-3.55828,-4.92168,-0.0119878,-0.129515,0.24968,
2,1,0,1,0,26602,0.251495,0.251178,0.275755,14,0.0199525,10,6.92635e-05,-3.55948,-4.23579,-0.0139289,-0.150357,0.251178,
2,1,0,0,0,26602.3,0.252994,0.252717,0.276164,14,0.0200399,10,6.97913e-05,-3.55883,-0.9545,-0.0618125,-0.665198,0.252717,
2,1,0,0,0,26602.6,0.254492,0.254184,0.275336,14,0.0201272,10,6.9986e-05,-3.56014,-2.1109,-0.0279502,-0.300959,0.254184,
2,1,0,1,0,26602.9,0.255991,0.25571,0.27501,14,0.0202142,10,7.03229e-05,-3.56065,-29.672,-0.00198841,-0.0214098,0.2557103,
2,1,0,1,0,26603.2,0.257488,0.257225,0.275768,14,0.0203013,10,7.09345e-05,-3.55946,-2.2458,-0.0262713,-0.282273,0.2572253,
2,1,0,1,0,26603.5,0.258986,0.258705,0.275424,14,0.0203884,10,7.12536e-05,-3.56,-1.43899,-0.0410009,-0.438422,0.258705,
2,1,0,1,0,26603.8,0.260485,0.260136,0.274619,14,0.0204753,10,7.14383e-05,-3.56127,-1.10551,-0.053369,-0.570504,0.260136,
2,1,0,1,0,26604.1,0.261983,0.261677,0.273924,14,0.0205619,10,7.16796e-05,-3.56237,-1.85852,-0.0317456,-0.339336,0.261677,
2,1,0,1,0,26604.4,0.263481,0.26316,0.273993,14,0.0206484,10,7.21042e-05,-3.56226,1.68533,0.035008,0.373537,0.26316,
2,1,0,1,0,26604.7,0.26498,0.264697,0.273379,14,0.020735,10,7.23625e-05,-3.56324,-8.05934,-0.0073207,-0.0779333,0.264697,
2,1,0,1,0,26605,0.266477,0.266183,0.271982,14,0.0208215,10,7.23971e-05,-3.56546,-2.48489,-0.0237435,-0.253168,0.266183,
2,1,0,0,0,26605.3,0.267976,0.2677,0.271728,14,0.0209077,10,7.27414e-05,-3.56587,-4.98184,-0.011843,-0.12611,0.2677,
2,1,0,0,0,26605.6,0.269474,0.269168,0.272241,14,0.0209939,10,7.32788e-05,-3.56505,1.87156,0.0315245,0.33466,0.2691685,
2,1,0,0,0,26605.9,0.270972,0.270685,0.273483,14,0.0210801,10,7.40276e-05,-3.56307,-3.35513,-0.017585,-0.186193,0.2706849,
2,1,0,1,0,26606.2,0.27247,0.272177,0.272823,14,0.0211663,10,7.42561e-05,-3.56412,-2.15679,-0.0273555,-0.289607,0.272177,
2,1,0,1,0,26606.5,0.273968,0.273667,0.270482,14,0.0212522,10,7.40219e-05,-3.56786,-1.28803,-0.0458063,-0.484022,0.273667,
2,1,0,1,0,26606.8,0.275466,0.275104,0.270512,14,0.0213379,10,7.4419e-05,-3.56781,-3.25361,-0.0181337,-0.191867,0.275104,
2,1,0,1,0,26607.1,0.276965,0.276642,0.270161,14,0.0214236,10,7.4738e-05,-3.56838,-2.96111,-0.019925,-0.210815,0.276642,
2,1,0,1,0,26607.4,0.278463,0.278136,0.270691,14,0.0215092,10,7.5289e-05,-3.56753,-0.934422,-0.0631406,-0.664581,0.278136,
2,1,0,1,0,26607.7,0.279962,0.279635,0.270051,14,0.0215947,10,7.55156e-05,-3.56855,-1.81616,-0.0324861,-0.341267,0.2796351,
2,1,0,1,0,26608,0.281459,0.281141,0.269287,14,0.0216798,10,7.57075e-05,-3.56978,-3.47484,-0.0169792,-0.17869,0.281141,
2,1,0,1,0,26608.3,0.282957,0.282634,0.269215,14,0.0217649,10,7.60893e-05,-3.5699,-2.01847,-0.02923,-0.30695,0.282634,
2,1,0,0,0,26608.6,0.284456,0.284168,0.26853,14,0.02185,10,7.63076e-05,-3.57101,-8.62892,-0.00683747,-0.0716897,0.284168,
2,1,0,0,0,26608.9,0.285954,0.28564,0.268578,14,0.021935,10,7.67167e-05,-3.57093,-4.06253,-0.014523,-0.1521,0.28564,
2,1,0,0,0,26609.2,0.287452,0.287089,0.268368,14,0.0220197,10,7.70455e-05,-3.57127,-1.88136,-0.0313603,-0.328377,0.287089,
2,1,0,1,0,26609.5,0.28895,0.288654,0.267747,14,0.0221044,10,7.72861e-05,-3.57228,3.56654,0.0165426,0.172135,0.2886537,
2,1,0,1,0,26609.8,0.290448,0.29013,0.266506,14,0.022189,10,7.73216e-05,-3.57429,-2.12482,-0.0277671,-0.289184,0.29013,
2,1,0,1,0,26610.1,0.291947,0.291637,0.265956,14,0.0222733,10,7.75628e-05,-3.57519,-1.56287,-0.0377511,-0.394337,0.291637,
2,1,0,1,0,26610.4,0.293445,0.293151,0.265441,14,0.0223574,10,7.78142e-05,-3.57603,-0.977832,-0.0603376,-0.626734,0.293151,
2,1,0,1,0,26610.7,0.294943,0.294595,0.265383,14,0.0224414,10,7.81806e-05,-3.57613,-3.0587,-0.0192892,-0.199844,0.294595,
2,1,0,1,0,26611,0.296442,0.296118,0.266151,14,0.0225254,10,7.88119e-05,-3.57487,12.7889,0.00461338,0.0476894,0.296118,
2,1,0,1,0,26611.3,0.297939,0.29765,0.26504,14,0.0226094,10,7.88891e-05,-3.57669,-1.80073,-0.0327645,-0.337984,0.29765,
2,1,0,1,0,26611.6,0.299437,0.299142,0.263525,14,0.022693,10,7.88313e-05,-3.57918,-0.00233733,-25.2425,-124.845,0.299142,
2,1,0,1,0,26611.8,0.299737,0.299425,0.107268,14,0.0227311,10,3.21188e-05,-3.96953,0.000894989,65.9226,210.649,0.299425,
2,1,0,1,0,26612.1,0.29824,0.297979,0.020063,14,0.0227403,10,5.97835e-06,-4.6976,0.00199269,29.6082,69.7333,0.297979,
2,1,0,0,0,26612.4,0.296741,0.296422,0.00198827,14,0.0227389,10,5.89366e-07,-5.70153,0.0107084,5.50969,10.6132,0.296422,
2,1,0,0,0,26612.7,0.295243,0.294948,-0.0103172,14,0.0227332,10,-3.04303e-06,-4.98644,-0.00886176,-6.65782,6.67666,0.294948,
2,0,0,1,0,26613,0.293744,0.29339,-0.0191881,14,0.0227246,10,-5.6296e-06,-4.71697,-0.00549555,-10.736,5.75907,0.29339,
2,0,0,1,0,26613.3,0.292246,0.291929,-0.0259435,14,0.0227137,10,-7.57368e-06,-4.58597,-0.0112728,-5.23383,4.82579,0.291929,
2,0,0,1,0,26613.6,0.290749,0.290433,-0.032939,14,0.0227005,10,-9.56659e-06,-4.48229,-0.01586,-3.72005,4.38765,0.290433,
2,0,0,1,0,26613.9,0.28925,0.288936,-0.0381082,14,0.0226854,10,-1.10108e-05,-4.41898,-0.0221421,-2.66461,3.81221,0.288936,
2,0,0,1,0,26614.2,0.287752,0.287473,-0.0436073,14,0.0226687,10,-1.25359e-05,-4.36044,-0.0304748,-1.93602,3.22717,0.287473,
2,0,0,1,0,26614.5,0.286253,0.285904,-0.0490192,14,0.0226506,10,-1.40148e-05,-4.30963,-0.036847,-1.60121,2.99923,0.285904,
2,0,0,1,0,26614.8,0.284755,0.284501,-0.053505,14,0.022631,10,-1.52222e-05,-4.27161,-0.0370991,-1.59033,3.1951,0.284501,
2,0,0,1,0,26615.1,0.283257,0.282932,-0.0577454,14,0.0226099,10,-1.6338e-05,-4.23848,-0.0460803,-1.28037,2.82036,0.282932,
2,0,0,0,0,26615.4,0.281759,0.281411,-0.0607934,14,0.0225877,10,-1.71079e-05,-4.21614,-0.0518843,-1.13715,2.67038,0.2814109,
2,0,0,0,0,26615.7,0.280261,0.279952,-0.0636025,14,0.0225644,10,-1.78056e-05,-4.19653,-0.0696422,-0.847188,2.12348,0.279952,
2,0,0,0,0,26616,0.278763,0.278432,-0.0676334,14,0.02254,10,-1.88313e-05,-4.16984,-0.0662344,-0.890776,2.33417,0.278432,
2,0,0,1,0,26616.3,0.277264,0.276984,-0.071466,14,0.0225144,10,-1.9795e-05,-4.1459,-0.0685951,-0.860119,2.4142,0.276984,
2,0,0,1,0,26616.6,0.275766,0.27547,-0.0747248,14,0.0224879,10,-2.05844e-05,-4.12654,-0.102301,-0.576727,1.68109,0.27547,
2,0,0,1,0,26616.9,0.274269,0.273951,-0.0776481,14,0.0224604,10,-2.12718e-05,-4.10987,-0.0907104,-0.650422,2.00563,0.273951,
2,0,0,1,0,26617.2,0.27277,0.272459,-0.0811111,14,0.0224321,10,-2.20994e-05,-4.09092,-0.0855021,-0.690042,2.19238,0.272459,
2,0,0,1,0,26617.5,0.271272,0.270967,-0.0838613,14,0.0224028,10,-2.27236e-05,-4.07644,-0.10353,-0.569882,1.85584,0.270967,
2,0,0,1,0,26617.8,0.269773,0.269482,-0.0871436,14,0.0223724,10,-2.34836e-05,-4.05976,-0.103633,-0.569316,1.92857,0.269482,
2,0,0,1,0,26618.1,0.268275,0.267974,-0.0904087,14,0.0223413,10,-2.42271e-05,-4.04379,-0.109172,-0.540431,1.90093,0.267974,
2,0,0,1,0,26618.4,0.266778,0.266447,-0.0931311,14,0.0223094,10,-2.48145e-05,-4.03091,-0.128949,-0.457545,1.65106,0.266447,
2,0,0,0,0,26618.7,0.265279,0.264969,-0.0950758,14,0.0222766,10,-2.51922e-05,-4.02193,-0.119688,-0.49295,1.81645,0.264969,
2,0,0,0,0,26619,0.263781,0.263471,-0.0973314,14,0.0222431,10,-2.5644e-05,-4.01175,-0.127499,-0.46275,1.76514,0.263471,
2,0,0,1,0,26619.3,0.262282,0.261939,-0.10035,14,0.0222088,10,-2.62856e-05,-3.99848,-0.140519,-0.419872,1.63388,0.261939,
2,0,0,1,0,26619.6,0.260784,0.260473,-0.102472,14,0.0221738,10,-2.66913e-05,-3.98939,-0.144486,-0.408345,1.64097,0.260473,
2,0,0,1,0,26619.9,0.259286,0.258978,-0.104471,14,0.0221381,10,-2.70558e-05,-3.981,-0.116956,-0.504462,2.06777,0.258978,
2,0,0,1,0,26620.2,0.257788,0.257485,-0.108728,14,0.0221016,10,-2.79959e-05,-3.96366,-0.143192,-0.412034,1.72393,0.257485,
2,0,0,1,0,26620.5,0.25629,0.255958,-0.110743,14,0.0220642,10,-2.83454e-05,-3.95569,-0.246983,-0.238883,1.01963,0.255958,
2,0,0,1,0,26620.8,0.254791,0.254474,-0.111061,14,0.0220264,10,-2.82621e-05,-3.95444,-0.223266,-0.264258,1.15128,0.254474,
2,0,0,1,0,26621.1,0.253293,0.252965,-0.113316,14,0.021988,10,-2.86651e-05,-3.94571,-0.167644,-0.351936,1.57012,0.252965,
2,0,0,1,0,26621.4,0.251795,0.251488,-0.115192,14,0.0219489,10,-2.89692e-05,-3.93858,-0.209505,-0.281616,1.27505,0.251488,
2,0,0,0,0,26621.7,0.250297,0.249993,-0.116956,14,0.0219092,10,-2.92381e-05,-3.93198,-0.242584,-0.243214,1.1133,0.249993,
2,0,0,0,0,26622,0.248799,0.248482,-0.119906,14,0.0218688,10,-2.97945e-05,-3.92116,-0.191667,-0.307825,1.44439,0.248482,
2,0,0,0,0,26622.3,0.247301,0.246992,-0.122028,14,0.021828,10,-3.01399e-05,-3.91354,-0.197548,-0.298662,1.42082,0.246992,
2,0,0,1,0,26622.6,0.245802,0.245475,-0.125012,14,0.0217864,10,-3.06872e-05,-3.90305,-0.262718,-0.224576,1.08257,0.245475,
2,0,0,1,0,26622.8,0.244304,0.24398,-0.12622,14,0.0217441,10,-3.07952e-05,-3.89887,-0.210824,-0.279854,1.37603,0.24398,
2,0,0,1,0,26623.1,0.242806,0.242483,-0.128869,14,0.0217013,10,-3.12487e-05,-3.88985,-0.245214,-0.240606,1.20782,0.242483,
2,0,0,1,0,26623.4,0.241308,0.240995,-0.129818,14,0.0216582,10,-3.12853e-05,-3.88667,-0.273777,-0.215504,1.0932,0.240995,
2,0,0,1,0,26623.7,0.23981,0.239464,-0.132416,14,0.0216142,10,-3.1709e-05,-3.87806,-0.172249,-0.342528,1.74791,0.2394644,
2,0,0,1,0,26624,0.238311,0.23798,-0.132784,14,0.0215698,10,-3.15999e-05,-3.87686,-0.265178,-0.222492,1.16391,0.23798,
2,0,0,1,0,26624.3,0.236813,0.236494,-0.135161,14,0.0215249,10,-3.19648e-05,-3.86915,-0.282583,-0.208788,1.10623,0.236494,
2,0,0,1,0,26624.6,0.235316,0.235001,-0.13567,14,0.0214796,10,-3.18825e-05,-3.86752,-0.239592,-0.246252,1.32496,0.235001,
2,0,0,0,0,26624.9,0.233817,0.233517,-0.139608,14,0.0214336,10,-3.26009e-05,-3.85509,-0.244827,-0.240987,1.30462,0.233517,
2,0,0,0,0,26625.2,0.232319,0.231943,-0.142326,14,0.0213869,10,-3.30116e-05,-3.84672,-0.302907,-0.194779,1.07319,0.231943,
2,0,0,1,0,26625.5,0.23082,0.230465,-0.142874,14,0.0213398,10,-3.29275e-05,-3.84505,-0.261186,-0.225892,1.25094,0.2304655,
2,0,0,1,0,26625.8,0.229322,0.228998,-0.14374,14,0.0212921,10,-3.29161e-05,-3.84242,-0.285249,-0.206836,1.16872,0.228998,
2,0,0,1,0,26626.1,0.227825,0.227519,-0.14646,14,0.0212441,10,-3.33225e-05,-3.83428,-0.254731,-0.231617,1.33159,0.2275192,
2,0,0,1,0,26626.4,0.226326,0.226012,-0.147634,14,0.0211954,10,-3.3367e-05,-3.83081,-0.40721,-0.144888,0.839404,0.226012,
2,0,0,1,0,26626.7,0.224828,0.224553,-0.149948,14,0.021146,10,-3.36713e-05,-3.82406,-0.402776,-0.146483,0.855933,0.224553,
2,0,0,1,0,26627,0.223329,0.222986,-0.152341,14,0.0210963,10,-3.39699e-05,-3.81718,-0.384227,-0.153555,0.907552,0.222986,
2,0,0,1,0,26627.3,0.221831,0.221535,-0.154131,14,0.0210461,10,-3.41453e-05,-3.81211,-0.265602,-0.222137,1.3253,0.221535,
2,0,0,1,0,26627.6,0.220333,0.220037,-0.155444,14,0.0209953,10,-3.42035e-05,-3.80843,-0.265833,-0.221944,1.34055,0.220037,
2,0,0,0,0,26627.9,0.218835,0.218537,-0.157193,14,0.0209438,10,-3.43526e-05,-3.80357,-0.2532,-0.233018,1.42167,0.218537,
2,0,0,0,0,26628.2,0.217337,0.21705,-0.1581,14,0.0208919,10,-3.43156e-05,-3.80107,-0.577466,-0.10217,0.633998,0.21705,
2,0,0,0,0,26628.5,0.215839,0.215573,-0.159553,14,0.0208397,10,-3.43953e-05,-3.7971,-0.324233,-0.181968,1.13957,0.215573,
2,0,0,1,0,26628.8,0.21434,0.214005,-0.161702,14,0.0207868,10,-3.4605e-05,-3.79128,-0.242044,-0.243757,1.53341,0.214005,
2,0,0,1,0,26629.1,0.212842,0.212529,-0.163598,14,0.0207333,10,-3.47693e-05,-3.78622,-0.307812,-0.191675,1.22167,0.212529,
2,0,0,1,0,26629.4,0.211344,0.211036,-0.165251,14,0.0206793,10,-3.4874e-05,-3.78186,-0.354364,-0.166496,1.07585,0.211036,
2,0,0,1,0,26629.7,0.209846,0.209543,-0.16588,14,0.0206249,10,-3.4759e-05,-3.78021,-0.39068,-0.151019,0.983117,0.2095429,
2,0,0,1,0,26630,0.208348,0.208051,-0.168826,14,0.0205699,10,-3.51244e-05,-3.77256,-0.262409,-0.22484,1.47685,0.208051,
2,0,0,1,0,26630.3,0.206849,0.206576,-0.173114,14,0.020514,10,-3.57612e-05,-3.76167,-0.340898,-0.173072,1.14988,0.206576,
2,0,0,1,0,26630.6,0.205351,0.205062,-0.172651,14,0.0204576,10,-3.54042e-05,-3.76283,-0.42658,-0.138309,0.927728,0.205062,
2,0,0,1,0,26630.9,0.203854,0.203515,-0.173415,14,0.0204009,10,-3.52927e-05,-3.76091,-0.332627,-0.177376,1.20418,0.203515,
2,0,0,0,0,26631.2,0.202355,0.202043,-0.176495,14,0.0203437,10,-3.56596e-05,-3.75327,-0.264851,-0.222767,1.53433,0.202043,
2,0,0,0,0,26631.5,0.200857,0.200511,-0.177928,14,0.0202858,10,-3.56766e-05,-3.74976,-0.318675,-0.185142,1.28704,0.200511,
2,0,0,1,0,26631.8,0.199358,0.199064,-0.180408,14,0.0202273,10,-3.59126e-05,-3.74374,-0.316354,-0.1865,1.30483,0.199064,
2,0,0,1,0,26632.1,0.19786,0.19753,-0.18233,14,0.0201682,10,-3.60156e-05,-3.73914,-0.303165,-0.194613,1.38022,0.19753,
2,0,0,1,0,26632.4,0.196363,0.196027,-0.183866,14,0.0201087,10,-3.60427e-05,-3.7355,-0.328527,-0.17959,1.2842,0.196027,
2,0,0,1,0,26632.7,0.194864,0.194552,-0.186128,14,0.0200484,10,-3.62117e-05,-3.73019,-0.272124,-0.216813,1.57463,0.194552,
2,0,0,1,0,26633,0.193366,0.193062,-0.187641,14,0.0199874,10,-3.62263e-05,-3.72667,-0.318551,-0.185214,1.36038,0.193062,
2,0,0,1,0,26633.3,0.191867,0.191536,-0.191242,14,0.0199257,10,-3.66297e-05,-3.71842,-0.361925,-0.163017,1.21744,0.191536,
2,0,0,1,0,26633.6,0.190369,0.190037,-0.191753,14,0.0198636,10,-3.64402e-05,-3.71726,-0.34126,-0.172889,1.29752,0.190037,
2,0,0,1,0,26633.9,0.188871,0.188542,-0.19534,14,0.0198007,10,-3.68297e-05,-3.70921,-0.224349,-0.262983,2.00198,0.188542,
2,0,0,0,0,26634.2,0.187373,0.187091,-0.198153,14,0.019737,10,-3.70726e-05,-3.703,-0.279462,-0.21112,1.62908,0.187091,
2,0,0,0,0,26634.5,0.185875,0.18552,-0.200371,14,0.0196726,10,-3.7173e-05,-3.69816,-0.300898,-0.19608,1.52279,0.18552,
2,0,0,0,0,26634.8,0.184377,0.184049,-0.200961,14,0.0196075,10,-3.69866e-05,-3.69689,-0.302628,-0.194959,1.53743,0.184049,
2,0,0,1,0,26635.1,0.182878,0.182593,-0.205833,14,0.0195417,10,-3.75838e-05,-3.68648,-0.265955,-0.221842,1.77769,0.182593,
2,0,0,1,0,26635.4,0.181381,0.181054,-0.207813,14,0.0194751,10,-3.76255e-05,-3.68233,-0.225119,-0.262083,2.12156,0.181054,
2,0,0,1,0,26635.7,0.179882,0.1796,-0.210295,14,0.0194075,10,-3.7769e-05,-3.67717,-0.387643,-0.152202,1.24552,0.1796,
2,0,0,1,0,26636,0.178384,0.178063,-0.213101,14,0.0193392,10,-3.79453e-05,-3.67141,-0.255891,-0.230567,1.91945,0.178063,
2,0,0,1,0,26636.3,0.176886,0.176567,-0.216144,14,0.0192703,10,-3.8164e-05,-3.66526,-0.24466,-0.241151,2.03699,0.176567,
2,0,0,1,0,26636.6,0.175387,0.175095,-0.219853,14,0.0192002,10,-3.84952e-05,-3.65787,-0.218025,-0.270611,2.31209,0.175095,
2,0,0,1,0,26636.9,0.173889,0.173538,-0.223148,14,0.0191292,10,-3.87246e-05,-3.65141,-0.23618,-0.249809,2.1667,0.173538,
2,0,0,1,0,26637.2,0.172392,0.172072,-0.225532,14,0.0190571,10,-3.88077e-05,-3.64679,-0.202618,-0.291188,2.56797,0.172072,
2,0,0,0,0,26637.5,0.170893,0.170553,-0.229878,14,0.0189842,10,-3.92063e-05,-3.6385,-0.217931,-0.270727,2.42384,0.170553,
2,0,0,0,0,26637.8,0.169395,0.169092,-0.233282,14,0.0189099,10,-3.9446e-05,-3.63212,-0.163591,-0.360656,3.27502,0.1690916,
2,0,0,1,0,26638.1,0.167896,0.167557,-0.237924,14,0.0188344,10,-3.98657e-05,-3.62356,-0.178948,-0.329705,3.05769,0.167557,
2,0,0,1,0,26638.4,0.166398,0.16609,-0.241392,14,0.0187578,10,-4.00927e-05,-3.61728,-0.190361,-0.309938,2.92722,0.16609,
2,0,0,1,0,26638.7,0.164901,0.164604,-0.244642,14,0.0186799,10,-4.02692e-05,-3.61147,-0.165526,-0.356439,3.44145,0.164604,
2,0,0,1,0,26639,0.163402,0.163086,-0.250859,14,0.0186004,10,-4.09118e-05,-3.60057,-0.157212,-0.37529,3.67529,0.1630865,
2,0,0,1,0,26639.3,0.161904,0.161618,-0.257607,14,0.0185194,10,-4.16339e-05,-3.58904,-0.147769,-0.399272,4.01344,0.161618,
2,0,0,1,0,26639.6,0.160405,0.160104,-0.262811,14,0.0184367,10,-4.20771e-05,-3.58036,-0.149766,-0.393947,4.02193,0.160104,
2,0,0,1,0,26639.9,0.158907,0.158568,-0.267403,14,0.0183522,10,-4.24015e-05,-3.57283,-0.147417,-0.400225,4.19009,0.158568,
2,0,0,1,0,26640.2,0.157409,0.157127,-0.276391,14,0.0182658,10,-4.34286e-05,-3.55848,-0.120862,-0.488161,5.27361,0.157127,
2,0,0,0,0,26640.5,0.155911,0.155575,-0.283321,14,0.0181771,10,-4.40775e-05,-3.54772,-0.123617,-0.47728,5.30122,0.155575,
2,0,0,0,0,26640.8,0.154413,0.154025,-0.291068,14,0.0180858,10,-4.48318e-05,-3.53601,-0.126795,-0.465319,5.29148,0.154025,
2,0,0,0,0,26641.1,0.152915,0.15261,-0.300274,14,0.017992,10,-4.58247e-05,-3.52248,-0.108773,-0.542412,6.38714,0.15261,
2,0,0,1,0,26641.4,0.151416,0.151093,-0.310131,14,0.0178955,10,-4.68587e-05,-3.50845,-0.100793,-0.585356,7.13251,0.151093,
2,0,0,1,0,26641.7,0.149919,0.149569,-0.323105,14,0.0177955,10,-4.83264e-05,-3.49066,-0.0934582,-0.631298,7.94774,0.149569,
2,0,0,1,0,26642,0.14842,0.148113,-0.336952,14,0.0176918,10,-4.99068e-05,-3.47243,-0.0866532,-0.680875,8.9314,0.148113,
2,0,0,1,0,26642.3,0.146922,0.146612,-0.35003,14,0.0175841,10,-5.13187e-05,-3.45589,-0.0800607,-0.736941,10.0792,0.146612,
2,0,0,1,0,26642.6,0.145424,0.145094,-0.364491,14,0.0174722,10,-5.28853e-05,-3.43831,-0.0767162,-0.769069,10.9976,0.145094,
2,0,0,1,0,26642.9,0.143925,0.143684,-0.382928,14,0.0173553,10,-5.50206e-05,-3.41688,-0.072284,-0.816225,12.1684,0.143684,
2,0,0,1,0,26643.2,0.142427,0.142094,-0.401393,14,0.0172329,10,-5.70354e-05,-3.39643,-0.0745877,-0.791015,12.3862,0.142094,
2,0,0,1,0,26643.5,0.14093,0.140598,-0.419049,14,0.017105,10,-5.89174e-05,-3.37774,-0.0748199,-0.788561,12.9112,0.140598,
2,0,0,0,0,26643.8,0.139431,0.139087,-0.43796,14,0.0169713,10,-6.09148e-05,-3.35857,-0.0732615,-0.805334,13.8495,0.139087,
2,0,0,0,0,26644.1,0.137933,0.137605,-0.461256,14,0.0168314,10,-6.34712e-05,-3.33606,-0.0751664,-0.784926,14.1137,0.137605,
2,0,0,1,0,26644.4,0.136434,0.136121,-0.484234,14,0.0166847,10,-6.59145e-05,-3.31494,-0.0759841,-0.776479,14.6153,0.136121,
2,0,0,1,0,26644.7,0.134936,0.134585,-0.504541,14,0.0165315,10,-6.79036e-05,-3.2971,-0.0831219,-0.709801,13.9179,0.134585,
2,0,0,1,0,26645,0.133439,0.133128,-0.524623,14,0.016372,10,-6.9842e-05,-3.28015,-0.0880869,-0.669793,13.7193,0.133128,
2,0,0,1,0,26645.3,0.13194,0.131643,-0.545607,14,0.0162065,10,-7.18256e-05,-3.26312,-0.0960264,-0.614414,13.109,0.131643,
2,0,0,1,0,26645.6,0.130442,0.130113,-0.564777,14,0.0160348,10,-7.34849e-05,-3.24812,-0.104147,-0.566505,12.4545,0.130113,
2,0,0,1,0,26645.9,0.128943,0.128632,-0.583809,14,0.0158573,10,-7.50968e-05,-3.23373,-0.127802,-0.46165,10.4359,0.128632,
2,0,0,1,0,26646.2,0.127445,0.127141,-0.598705,14,0.015675,10,-7.61197e-05,-3.22279,-0.14345,-0.411292,9.55962,0.127141,
2,0,0,1,0,26646.5,0.125947,0.125629,-0.611307,14,0.015489,10,-7.67978e-05,-3.21374,-0.166331,-0.354715,8.44247,0.125629,
2,0,0,0,0,26646.8,0.124449,0.124131,-0.623302,14,0.0152988,10,-7.73713e-05,-3.2053,-0.205317,-0.28736,6.94395,0.124131,
2,0,0,0,0,26647.1,0.122951,0.122636,-0.632122,14,0.0151054,10,-7.75211e-05,-3.1992,-0.279284,-0.211254,5.1856,0.122636,
2,0,0,0,0,26647.4,0.121453,0.121121,-0.638777,14,0.0149099,10,-7.73692e-05,-3.19465,-0.409919,-0.143931,3.57581,0.121121,
2,0,0,1,0,26647.7,0.119954,0.11964,-0.642501,14,0.0147129,10,-7.6869e-05,-3.19213,-0.572455,-0.103065,2.5806,0.11964,
2,0,0,1,0,26648,0.118456,0.118154,-0.645872,14,0.0145145,10,-7.63123e-05,-3.18985,-0.686501,-0.0859431,2.16115,0.118154,
2,0,0,1,0,26648.3,0.116958,0.116616,-0.64918,14,0.014315,10,-7.5705e-05,-3.18763,-1.55796,-0.0378701,0.956753,0.116616,
2,0,0,1,0,26648.6,0.11546,0.115102,-0.650049,14,0.0141153,10,-7.4822e-05,-3.18705,3.56394,0.0165547,-0.418058,0.115102,
2,0,0,1,0,26648.9,0.113962,0.11363,-0.644809,14,0.013916,10,-7.32698e-05,-3.19057,1.11712,0.0528144,-1.33336,0.11363,
2,0,0,1,0,26649.2,0.112463,0.112154,-0.645964,14,0.0137172,10,-7.24474e-05,-3.18979,1.09801,0.0537337,-1.35288,0.112154,
2,0,0,1,0,26649.5,0.110965,0.110652,-0.643472,14,0.0135188,10,-7.12012e-05,-3.19147,1.03784,0.0568487,-1.42625,0.110652,
2,0,0,1,0,26649.8,0.109468,0.109154,-0.640901,14,0.0133211,10,-6.99568e-05,-3.19321,0.518208,0.113854,-2.83924,0.109154,
2,0,0,0,0,26650.1,0.107969,0.107671,-0.636865,14,0.0131242,10,-6.85717e-05,-3.19595,0.634783,0.0929452,-2.31431,0.107671,
2,0,0,0,0,26650.4,0.106471,0.106138,-0.634385,14,0.0129289,10,-6.73327e-05,-3.19765,0.640424,0.0921265,-2.28651,0.106138,
2,0,0,1,0,26650.7,0.104972,0.104649,-0.630952,14,0.0127341,10,-6.60286e-05,-3.2,0.625348,0.0943474,-2.3223,0.1046492,
2,0,0,1,0,26651,0.103474,0.103146,-0.629517,14,0.0125401,10,-6.49322e-05,-3.20099,0.500337,0.117921,-2.87966,0.103146,
2,0,0,1,0,26651.3,0.101977,0.101661,-0.623907,14,0.0123477,10,-6.34268e-05,-3.20488,0.456981,0.129108,-3.14019,0.101661,
2,0,0,1,0,26651.6,0.100478,0.100161,-0.618951,14,0.0121568,10,-6.19947e-05,-3.20834,0.55359,0.106577,-2.57542,0.100161,
2,0,0,1,0,26651.9,0.0989799,0.0986742,-0.615815,14,0.0119668,10,-6.07651e-05,-3.21055,0.607488,0.0971213,-2.3261,0.09867423,
2,0,0,1,0,26652.2,0.0974812,0.0971701,-0.611145,14,0.0117779,10,-5.9385e-05,-3.21386,0.51184,0.11527,-2.74266,0.09717007,
2,0,0,1,0,26652.5,0.0959834,0.0956752,-0.605867,14,0.0115904,10,-5.79664e-05,-3.21762,0.386421,0.152683,-3.61171,0.0956752,
2,0,0,1,0,26652.8,0.0944855,0.0941422,-0.600175,14,0.0114046,10,-5.65017e-05,-3.22172,0.466121,0.126577,-2.97533,0.0941422,
2,0,0,0,0,26653.1,0.0929871,0.0926607,-0.596862,14,0.0112201,10,-5.53057e-05,-3.22413,0.560986,0.105172,-2.44624,0.0926607,
2,0,0,0,0,26653.4,0.0914889,0.0912047,-0.594405,14,0.0110366,10,-5.42125e-05,-3.22592,0.447339,0.131891,-3.04703,0.0912047,
2,0,0,0,0,26653.7,0.0899907,0.0896385,-0.587635,14,0.0108545,10,-5.26747e-05,-3.23089,0.384054,0.153624,-3.51232,0.0896385,
2,0,0,1,0,26654,0.0884923,0.0882068,-0.580014,14,0.0106741,10,-5.11612e-05,-3.23656,0.453423,0.130121,-2.95667,0.0882068,
2,0,0,1,0,26654.3,0.0869946,0.0866483,-0.576635,14,0.0104953,10,-4.99644e-05,-3.2391,0.401881,0.14681,-3.30894,0.0866483,
2,0,0,1,0,26654.6,0.0854962,0.0851615,-0.572543,14,0.0103176,10,-4.87586e-05,-3.24219,0.4388,0.134458,-3.0091,0.08516147,
2,0,0,1,0,26654.9,0.083998,0.0836748,-0.568301,14,0.0101414,10,-4.75525e-05,-3.24542,0.346414,0.170316,-3.77582,0.0836748,
2,0,0,1,0,26655.2,0.0824998,0.0821552,-0.564085,14,0.00996646,10,-4.63425e-05,-3.24866,0.44918,0.13135,-2.89753,0.08215522,
2,0,0,1,0,26655.5,0.0810014,0.0806725,-0.55971,14,0.0097932,10,-4.51532e-05,-3.25204,0.49177,0.119975,-2.62104,0.0806725,
2,0,0,1,0,26655.8,0.0795035,0.0791682,-0.555759,14,0.00962087,10,-4.39985e-05,-3.25511,0.504159,0.117027,-2.5341,0.0791682,
2,0,0,1,0,26656.1,0.0780056,0.0776808,-0.552178,14,0.00944971,10,-4.28936e-05,-3.25792,0.442391,0.133366,-2.86511,0.0776808,
2,0,0,0,0,26656.4,0.076507,0.0761766,-0.547947,14,0.00927987,10,-4.17407e-05,-3.26126,0.429662,0.137317,-2.93401,0.0761766,
2,0,0,0,0,26656.7,0.0750088,0.0746953,-0.543854,14,0.00911161,10,-4.06233e-05,-3.26452,0.598131,0.0986406,-2.09296,0.0746953,
2,0,0,1,0,26657,0.0735103,0.0731998,-0.539259,14,0.00894413,10,-3.94737e-05,-3.2682,0.623183,0.0946753,-1.9911,0.0731998,
2,0,0,1,0,26657.3,0.0720124,0.0716901,-0.535911,14,0.0087777,10,-3.84195e-05,-3.27091,0.659268,0.0894931,-1.87765,0.0716901,
2,0,0,1,0,26657.6,0.0705146,0.0702067,-0.530921,14,0.00861247,10,-3.72742e-05,-3.27497,0.497733,0.118537,-2.46862,0.0702067,
2,0,0,1,0,26657.9,0.0690161,0.0686965,-0.526914,14,0.0084485,10,-3.61971e-05,-3.27826,0.530964,0.111119,-2.29707,0.0686965,
2,0,0,1,0,26658.2,0.0675179,0.0672098,-0.525338,14,0.00828548,10,-3.53079e-05,-3.27956,0.607036,0.0971936,-1.99368,0.0672098,
2,0,0,1,0,26658.5,0.0660192,0.0657112,-0.524822,14,0.00812325,10,-3.44867e-05,-3.27999,0.46869,0.125883,-2.56382,0.0657112,
2,0,0,1,0,26658.8,0.0645214,0.0642097,-0.520364,14,0.00796199,10,-3.34124e-05,-3.28369,0.471179,0.125218,-2.53242,0.0642097,
2,0,0,1,0,26659.1,0.0630235,0.0627265,-0.51359,14,0.00780196,10,-3.22157e-05,-3.28938,0.550644,0.107147,-2.15566,0.0627265,
2,0,0,0,0,26659.4,0.0615251,0.0612355,-0.511856,14,0.00764312,10,-3.13438e-05,-3.29085,0.554922,0.106321,-2.12897,0.0612355,
2,0,0,0,0,26659.7,0.0600269,0.059716,-0.508676,14,0.00748515,10,-3.03761e-05,-3.29356,0.533181,0.110657,-2.20324,0.059716,
2,0,0,0,0,26660,0.0585287,0.0581932,-0.505885,14,0.00732811,10,-2.94391e-05,-3.29595,0.392895,0.150167,-2.95896,0.0581932,
2,0,0,1,0,26660.3,0.0570303,0.0566882,-0.50221,14,0.00717193,10,-2.84694e-05,-3.29911,0.506233,0.116547,-2.28526,0.0566882,
2,0,0,1,0,26660.6,0.0555325,0.0552136,-0.499747,14,0.00701729,10,-2.75929e-05,-3.30125,0.513907,0.114807,-2.23866,0.0552136,
2,0,0,1,0,26660.9,0.0540342,0.053696,-0.497217,14,0.00686334,10,-2.66986e-05,-3.30345,0.572097,0.103129,-1.99193,0.053696,
2,0,0,1,0,26661.2,0.052536,0.052256,-0.492996,14,0.00671006,10,-2.5762e-05,-3.30716,0.455264,0.129595,-2.48906,0.052256,
2,0,0,1,0,26661.5,0.0510378,0.0506855,-0.489217,14,0.0065581,10,-2.47962e-05,-3.3105,0.38663,0.1526,-2.91485,0.0506855,
2,0,0,1,0,26661.8,0.0495394,0.0492082,-0.484763,14,0.00640751,10,-2.38543e-05,-3.31447,0.47858,0.123281,-2.33952,0.0492082,
2,0,0,1,0,26662.1,0.0480415,0.0477461,-0.482045,14,0.00625776,10,-2.30158e-05,-3.31691,0.825517,0.0714703,-1.34058,0.0477461,
2,0,0,1,0,26662.4,0.0465436,0.0461908,-0.478107,14,0.00610891,10,-2.20842e-05,-3.32047,0.475936,0.123966,-2.31711,0.0461908,
2,0,0,0,0,26662.7,0.045045,0.0447239,-0.474763,14,0.00596122,10,-2.12333e-05,-3.32352,0.413867,0.142558,-2.63969,0.0447239,
2,0,0,0,0,26663,0.0435468,0.0432245,-0.467947,14,0.00581472,10,-2.02268e-05,-3.3298,0.41473,0.142261,-2.61985,0.0432245,
2,0,0,1,0,26663.3,0.0420483,0.0417503,-0.467724,14,0.00566926,10,-1.95276e-05,-3.33001,0.551357,0.107009,-1.95604,0.0417503,
2,0,0,1,0,26663.6,0.0405504,0.0402468,-0.465897,14,0.00552462,10,-1.87509e-05,-3.33171,0.450205,0.131051,-2.37127,0.0402468,
2,0,0,1,0,26663.9,0.0390526,0.038696,-0.460721,14,0.00538078,10,-1.78281e-05,-3.33656,0.395303,0.149253,-2.67325,0.038696,
2,0,0,1,0,26664.2,0.0375541,0.0372184,-0.455305,14,0.00523836,10,-1.69457e-05,-3.3417,0.39195,0.150529,-2.687,0.03721837,
2,0,0,1,0,26664.5,0.0360559,0.0357508,-0.452034,14,0.0050973,10,-1.61606e-05,-3.34483,0.398819,0.147937,-2.62373,0.0357508,
2,0,0,1,0,26664.8,0.0345572,0.0342317,-0.449501,14,0.0049569,10,-1.53872e-05,-3.34727,0.545827,0.108093,-1.89767,0.03423167,
2,0,0,1,0,26665.1,0.0330594,0.0327361,-0.446503,14,0.00481759,10,-1.46168e-05,-3.35018,0.377865,0.15614,-2.71248,0.0327361,
2,0,0,1,0,26665.4,0.0315615,0.0312304,-0.44405,14,0.00467918,10,-1.38679e-05,-3.35257,0.468876,0.125833,-2.17459,0.0312304,
2,0,0,0,0,26665.7,0.0300631,0.0297499,-0.44058,14,0.00454204,10,-1.31072e-05,-3.35598,0.445841,0.132334,-2.27227,0.0297499,
2,0,0,0,0,26666,0.0285649,0.0282155,-0.436763,14,0.00440567,10,-1.23235e-05,-3.35975,0.509564,0.115785,-1.97111,0.0282155,
2,0,0,0,0,26666.3,0.0270667,0.0267299,-0.435024,14,0.0042701,10,-1.16281e-05,-3.36149,0.468257,0.125999,-2.13189,0.0267299,
2,0,0,1,0,26666.6,0.0255683,0.0252441,-0.431691,14,0.00413546,10,-1.08976e-05,-3.36483,0.624058,0.0945424,-1.59154,0.02524407,
2,0,0,1,0,26666.9,0.0240706,0.0237715,-0.426394,14,0.00400207,10,-1.0136e-05,-3.37019,0.862552,0.0684017,-1.1457,0.0237715,
2,0,0,1,0,26667.2,0.0225722,0.0222126,-0.424792,14,0.00386922,10,-9.43572e-06,-3.37182,1.15653,0.0510147,-0.846415,0.0222126,
2,0,0,1,0,26667.5,0.021074,0.0207577,-0.423533,14,0.00373697,10,-8.79157e-06,-3.37311,0.878478,0.0671616,-1.11179,0.0207577,
2,0,0,1,0,26667.8,0.0195758,0.0192572,-0.421571,14,0.0036054,10,-8.11827e-06,-3.37513,0.623283,0.0946601,-1.55707,0.0192572,
2,0,0,1,0,26668.1,0.0180774,0.0177267,-0.418139,14,0.00347453,10,-7.41224e-06,-3.37868,0.696654,0.0846905,-1.38583,0.0177267,
2,0,0,1,0,26668.4,0.0165795,0.0162511,-0.417982,14,0.00334438,10,-6.79268e-06,-3.37884,1.12321,0.052528,-0.856866,0.0162511,
2,0,0,1,0,26668.7,0.0150817,0.0147456,-0.417276,14,0.00321454,10,-6.15297e-06,-3.37958,1.49468,0.0394733,-0.642079,0.01474558,
2,0,0,0,0,26669,0.013583,0.0132924,-0.414398,14,0.00308502,10,-5.50835e-06,-3.38258,0.621973,0.0948595,-1.53482,0.0132924,
2,0,0,0,0,26669.3,0.0120848,0.01174,-0.413497,14,0.00295601,10,-4.85444e-06,-3.38353,1.3938,0.0423304,-0.685166,0.01174,
2,0,0,1,0,26669.6,0.0105863,0.010253,-0.413189,14,0.00282756,10,-4.23643e-06,-3.38385,1.68928,0.034926,-0.562821,0.010253,
2,0,0,1,0,26669.9,0.00908846,0.00875809,-0.413471,14,0.00269912,10,-3.62122e-06,-3.38356,-13.3474,-0.00442034,0.0712036,0.00875809,
2,0,0,1,0,26670.2,0.0075906,0.00729392,-0.412149,14,0.00257074,10,-3.00618e-06,-3.38495,3.76293,0.0156793,-0.252141,0.00729392,
2,0,0,1,0,26670.5,0.00609208,0.00576035,-0.413394,14,0.00244232,10,-2.38129e-06,-3.38364,-13.5957,-0.00433962,0.0697769,0.00576035,
2,0,0,1,0,26670.8,0.00459389,0.00425457,-0.413196,14,0.00231418,10,-1.75797e-06,-3.38384,-11.119,-0.00530624,0.0855482,0.00425457,
2,0,0,1,0,26671.1,0.00309525,0.00280058,-0.413492,14,0.00218563,10,-1.15801e-06,-3.38353,-0.965251,-0.061124,0.98448,0.00280058,
2,0,0,1,0,26671.4,0.00159739,0.00119412,-0.418204,14,0.00205502,10,-4.99385e-07,-3.37861, , , ,0.00119412,
2,0,0,0,0,26671.7,0.000199195,-0.000226069,-0.416949,14,0.00193427,10,9.42594e-08,-3.37992, , , ,-0.000226069,