File: Figure_codes/Fig_3-5/rawdata_trumpetplot_data/after 10th/20221101_1-115_003_TrumpetPlot_ParaChange_from10_every3_10_CV_C01_13.csv
mode,ox/red,error,control changes,counter inc.,time/s,control/V,Ewe/V,<I>/mA,cycle number,(Q-Qo)/C,I Range,P/W,log(|I|),Tafel slope mV/dec,alpha_eff,dI/d(E-IR),E-IR/V,
2,1,0,0,0,26802.2,-2.44065e-05,-0.000287149,5.2897,14,0.0000000E+000,10,-1.51893e-06,-2.27657, , , ,-0.0002871489,
2,1,0,1,0,26802.2,0.00179726,0.00142196,6.17075,14,5.10343e-05,10,8.77457e-06,-2.20966, , , ,0.00142196,
2,1,0,1,0,26802.2,0.00379485,0.00348101,6.84712,14,0.000116493,10,2.38349e-05,-2.16449,0.0539615,1.09337,287.512,0.00348101,
2,1,0,1,0,26802.2,0.00579244,0.00548438,7.33875,14,0.000187572,10,4.02485e-05,-2.13438,0.0736847,0.800709,227.702,0.00548438,
2,1,0,1,0,26802.3,0.00779002,0.00742254,7.74461,14,0.000263097,10,5.74847e-05,-2.111,0.0927112,0.636385,191.546,0.00742254,
2,1,0,1,0,26802.3,0.00977853,0.00945085,8.09851,14,0.000341654,10,7.65378e-05,-2.09159,0.116175,0.507854,159.801,0.00945085,
2,1,0,1,0,26802.3,0.0117761,0.0114568,8.38929,14,0.000424199,10,9.6114e-05,-2.07627,0.13694,0.430846,140.82,0.0114568,
2,1,0,1,0,26802.3,0.0137737,0.0134201,8.65746,14,0.000509453,10,0.000116184,-2.06261,0.159879,0.369028,124.371,0.0134201,
2,1,0,1,0,26802.3,0.0157713,0.0154573,8.88684,14,0.000597218,10,0.000137366,-2.05125,0.183674,0.321221,111.314,0.0154573,
2,1,0,1,0,26802.3,0.017778,0.0174406,9.105,14,0.00068725,10,0.000158797,-2.04072,0.211615,0.278809,98.8151,0.0174406,
2,1,0,1,0,26802.3,0.0197755,0.019424,9.27881,14,0.000779214,10,0.000180231,-2.03251,0.242866,0.242933,87.968,0.019424,
2,1,0,1,0,26802.3,0.0217731,0.0214091,9.45409,14,0.000872919,10,0.000202403,-2.02438,0.264625,0.222957,82.1787,0.0214091,
2,1,0,1,0,26802.3,0.0237707,0.0234774,9.61192,14,0.000968288,10,0.000225663,-2.01719,0.280468,0.210363,78.9281,0.0234774,
2,1,0,1,0,26802.3,0.0257774,0.0254807,9.77546,14,0.00106523,10,0.000249086,-2.00986,0.299029,0.197305,75.1584,0.0254807,
2,1,0,1,0,26802.4,0.027775,0.0274537,9.91076,14,0.00116368,10,0.000272087,-2.00389,0.320876,0.183872,71.164,0.0274537,
2,1,0,1,0,26802.4,0.0297726,0.0294787,10.06,14,0.00126355,10,0.000296554,-1.9974,0.342817,0.172103,67.4653,0.0294787,
2,1,0,1,0,26802.4,0.0317701,0.0314351,10.1794,14,0.00136478,10,0.00031999,-1.99228,0.343771,0.171626,68.2842,0.0314351,
2,1,0,1,0,26802.4,0.0337586,0.0334417,10.3306,14,0.00146634,10,0.000345473,-1.98588,0.341194,0.172922,69.6303,0.03344173,
2,1,0,1,0,26802.4,0.0357562,0.0354268,10.4573,14,0.00157032,10,0.000370469,-1.98058,0.372558,0.158365,64.6461,0.0354268,
2,1,0,1,0,26802.4,0.0377538,0.0374532,10.5899,14,0.00167559,10,0.000396627,-1.97511,0.371978,0.158611,65.5353,0.0374532,
2,1,0,1,0,26802.4,0.0397514,0.0394041,10.718,14,0.00178214,10,0.000422332,-1.96989,0.349025,0.169042,70.7896,0.0394041,
2,1,0,1,0,26802.4,0.0417399,0.041436,10.8719,14,0.00188901,10,0.000450486,-1.9637,0.364243,0.16198,68.6264,0.041436,
2,1,0,1,0,26802.4,0.0437375,0.0434419,10.9951,14,0.00199834,10,0.000477647,-1.9588,0.390751,0.150991,64.8225,0.0434419,
2,1,0,1,0,26802.4,0.0457351,0.0454192,11.1301,14,0.00210894,10,0.000505518,-1.9535,0.379422,0.1555,67.5309,0.0454192,
2,1,0,1,0,26802.5,0.0477327,0.0473886,11.2616,14,0.00222092,10,0.000533672,-1.9484,0.362652,0.162691,71.5726,0.0473886,
2,1,0,1,0,26802.5,0.0497393,0.0494171,11.4162,14,0.00233426,10,0.000564155,-1.94248,0.379231,0.155578,69.2134,0.0494171,
2,1,0,1,0,26802.5,0.0517369,0.0513839,11.5381,14,0.00244901,10,0.000592874,-1.93786,0.382991,0.154051,69.4665,0.05138395,
2,1,0,1,0,26802.5,0.0537345,0.0534124,11.6937,14,0.00256517,10,0.000624591,-1.93205,0.37395,0.157775,71.9268,0.0534124,
2,1,0,1,0,26802.5,0.0557321,0.0553793,11.8255,14,0.00268277,10,0.000654887,-1.92718,0.387465,0.152272,70.3198,0.0553793,
2,1,0,1,0,26802.5,0.0577297,0.0573887,11.9733,14,0.00280178,10,0.000687134,-1.92178,0.380384,0.155106,72.4654,0.0573887,
2,1,0,1,0,26802.5,0.0597364,0.0594171,12.1181,14,0.0029223,10,0.000720022,-1.91657,0.371817,0.15868,75.0793,0.05941711,
2,1,0,1,0,26802.5,0.0617339,0.0614091,12.2752,14,0.00304429,10,0.000753809,-1.91097,0.394862,0.149419,71.4944,0.0614091,
2,1,0,1,0,26802.5,0.0637315,0.0634107,12.4036,14,0.00316772,10,0.000786522,-1.90645,0.398451,0.148073,71.7569,0.0634107,
2,1,0,1,0,26802.5,0.0657291,0.0653819,12.5603,14,0.00329258,10,0.000821214,-1.901,0.377946,0.156107,76.4929,0.0653819,
2,1,0,1,0,26802.6,0.0677176,0.0673989,12.7087,14,0.00341774,10,0.000856551,-1.8959,0.399697,0.147612,73.19,0.0673989,
2,1,0,1,0,26802.6,0.0697152,0.0693458,12.8504,14,0.00354559,10,0.00089112,-1.89108,0.421569,0.139953,70.174,0.0693458,
2,1,0,1,0,26802.6,0.0717128,0.0713786,12.988,14,0.0036748,10,0.000927062,-1.88646,0.416228,0.141749,71.8798,0.0713786,
2,1,0,1,0,26802.6,0.0737104,0.0733398,13.1375,14,0.00380541,10,0.0009635,-1.88149,0.406151,0.145266,74.4725,0.07333979,
2,1,0,1,0,26802.6,0.0756989,0.0753732,13.2854,14,0.0039362,10,0.00100137,-1.87662,0.419683,0.140582,72.8771,0.07537324,
2,1,0,1,0,26802.6,0.0776965,0.0773488,13.4296,14,0.00406976,10,0.00103877,-1.87194,0.428269,0.137764,72.1956,0.0773488,
2,1,0,1,0,26802.6,0.0796941,0.0793365,13.5716,14,0.00420479,10,0.00107672,-1.86737,0.435078,0.135608,71.8452,0.0793365,
2,1,0,1,0,26802.6,0.0816916,0.0814179,13.722,14,0.00434127,10,0.00111721,-1.86258,0.460659,0.128077,68.5245,0.0814179,
2,1,0,1,0,26802.6,0.0836983,0.0833648,13.8476,14,0.0044791,10,0.0011544,-1.85863,0.469567,0.125648,67.9485,0.08336477,
2,1,0,1,0,26802.6,0.0856959,0.0853975,13.9924,14,0.00461833,10,0.00119492,-1.85411,0.488673,0.120735,65.867,0.0853975,
2,1,0,1,0,26802.7,0.0876935,0.0873609,14.1108,14,0.00475888,10,0.00123274,-1.85045,0.51273,0.11507,63.3966,0.0873609,
2,1,0,1,0,26802.7,0.0896911,0.0893365,14.2421,14,0.00490065,10,0.00127234,-1.84643,0.510099,0.115664,64.2764,0.0893365,
2,1,0,1,0,26802.7,0.0916978,0.0913719,14.3686,14,0.00504371,10,0.00131289,-1.84258,0.515359,0.114483,64.2067,0.0913719,
2,1,0,1,0,26802.7,0.0936953,0.0933509,14.4999,14,0.0051881,10,0.00135358,-1.83864,0.551715,0.106939,60.4621,0.0933509,
2,1,0,1,0,26802.7,0.0956929,0.0953021,14.6063,14,0.00533368,10,0.00139201,-1.83546,0.559699,0.105414,60.1487,0.0953021,
2,1,0,1,0,26802.7,0.0976905,0.0973766,14.742,14,0.00548047,10,0.00143553,-1.83144,0.515148,0.11453,65.8866,0.0973766,
2,1,0,1,0,26802.7,0.099679,0.0993908,14.8757,14,0.00562703,10,0.0014785,-1.82752,0.53824,0.109617,63.6086,0.09939079,
2,1,0,1,0,26802.7,0.101677,0.101375,14.9963,14,0.00577641,10,0.00152026,-1.82401,0.553417,0.10661,62.4023,0.101375,
2,1,0,1,0,26802.7,0.103674,0.103327,15.1213,14,0.00592702,10,0.00156243,-1.82041,0.495365,0.119104,70.3579,0.103327,
2,1,0,1,0,26802.7,0.105672,0.105368,15.2773,14,0.00607904,10,0.00160974,-1.81595,0.469162,0.125756,74.95,0.105368,
2,1,0,1,0,26802.8,0.107656,0.107346,15.4225,14,0.00623099,10,0.00165555,-1.81184,0.459371,0.128437,77.3493,0.107346,
2,1,0,1,0,26802.8,0.109658,0.109365,15.5865,14,0.00638604,10,0.00170461,-1.80725,0.439498,0.134244,81.6604,0.109365,
2,1,0,1,0,26802.8,0.111655,0.11138,15.7519,14,0.00654273,10,0.00175444,-1.80267,0.414077,0.142486,87.6429,0.11138,
2,1,0,1,0,26802.8,0.113653,0.113361,15.9367,14,0.00670117,10,0.0018066,-1.7976,0.394233,0.149658,93.063,0.113361,
2,1,0,1,0,26802.8,0.115651,0.1153,16.1167,14,0.00686142,10,0.00185825,-1.79272,0.362773,0.162636,102.437,0.1153,
2,1,0,1,0,26802.8,0.117657,0.117329,16.3431,14,0.00702377,10,0.00191752,-1.78667,0.3589,0.164391,104.745,0.117329,
2,1,0,1,0,26802.8,0.119655,0.119323,16.5381,14,0.00718825,10,0.00197337,-1.78151,0.364199,0.162,104.64,0.119323,
2,1,0,1,0,26802.8,0.121652,0.121316,16.7603,14,0.00735481,10,0.00203328,-1.77572,0.355266,0.166073,108.605,0.121316,
2,1,0,1,0,26802.8,0.12365,0.123366,16.9772,14,0.00752355,10,0.0020944,-1.77013,0.335033,0.176102,116.8,0.123366,
2,1,0,1,0,26802.8,0.125657,0.125349,17.2314,14,0.00769468,10,0.00215994,-1.76368,0.340307,0.173373,116.415,0.125349,
2,1,0,1,0,26802.9,0.127654,0.127302,17.4354,14,0.00786806,10,0.00221957,-1.75857,0.356057,0.165704,112.876,0.127302,
2,1,0,1,0,26802.9,0.129652,0.129317,17.6793,14,0.00804371,10,0.00228625,-1.75253,0.351454,0.167874,115.738,0.129317,
2,1,0,1,0,26802.9,0.131649,0.131296,17.8976,14,0.00822165,10,0.00234988,-1.7472,0.369527,0.159663,111.55,0.131296,
2,1,0,1,0,26802.9,0.133638,0.133326,18.1264,14,0.00840002,10,0.00241672,-1.74169,0.391867,0.150561,106.415,0.133326,
2,1,0,1,0,26802.9,0.135636,0.135309,18.3248,14,0.00858227,10,0.00247951,-1.73696,0.410058,0.143882,102.935,0.135309,
2,1,0,1,0,26802.9,0.137633,0.13732,18.5376,14,0.00876659,10,0.0025456,-1.73195,0.447472,0.131852,95.285,0.13732,
2,1,0,1,0,26802.9,0.139631,0.139362,18.7109,14,0.00895287,10,0.00260759,-1.7279,0.460115,0.128229,93.704,0.139362,
2,1,0,1,0,26802.9,0.141619,0.141321,18.9125,14,0.0091391,10,0.00267273,-1.72325,0.474725,0.124283,91.6213,0.141321,
2,1,0,1,0,26802.9,0.143617,0.143275,19.0694,14,0.00932901,10,0.00273216,-1.71966,0.5368,0.109911,81.8187,0.143275,
2,1,0,1,0,26802.9,0.145614,0.145288,19.2371,14,0.00952056,10,0.00279493,-1.71586,0.604284,0.0976361,73.2171,0.145288,
2,1,0,1,0,26803,0.147612,0.14726,19.3612,14,0.00971354,10,0.00285112,-1.71307,0.651163,0.0906072,68.5082,0.14726,
2,1,0,1,0,26803,0.149619,0.14929,19.5112,14,0.00990788,10,0.00291283,-1.70972,0.766646,0.0769586,58.5061,0.14929,
2,1,0,1,0,26803,0.151616,0.151316,19.5985,14,0.0101034,10,0.00296558,-1.70778,1.01948,0.0578727,44.2666,0.151316,
2,1,0,1,0,26803,0.153614,0.153272,19.6875,14,0.0102999,10,0.00301755,-1.70581,1.47136,0.0400989,30.7652,0.153272,
2,1,0,1,0,26803,0.155611,0.155256,19.7197,14,0.010497,10,0.00306161,-1.7051,2.42941,0.0242857,18.6954,0.155256,
2,1,0,1,0,26803,0.157618,0.1573,19.7628,14,0.0106944,10,0.0031087,-1.70415,-12.1301,-0.00486392,-3.74183,0.1573,
2,1,0,1,0,26803,0.159616,0.159301,19.7046,14,0.0108918,10,0.00313896,-1.70543,-1.34567,-0.0438445,-33.7023,0.159301,
2,1,0,1,0,26803,0.161613,0.161253,19.6296,14,0.0110885,10,0.00316534,-1.70709,-0.761004,-0.0775291,-59.2641,0.161253,
2,1,0,1,0,26803,0.163611,0.163269,19.4694,14,0.011284,10,0.00317876,-1.71065,-0.505005,-0.116831,-88.6863,0.163269,
2,1,0,1,0,26803,0.165618,0.165275,19.273,14,0.0114778,10,0.00318533,-1.71505,-0.366001,-0.161202,-120.971,0.165275,
2,1,0,1,0,26803.1,0.167597,0.167234,18.9898,14,0.0116672,10,0.00317574,-1.72148,-0.282485,-0.20886,-154.58,0.167234,
2,1,0,1,0,26803.1,0.169595,0.169249,18.6586,14,0.0118554,10,0.00315795,-1.72912,-0.227028,-0.25988,-188.724,0.169249,
2,1,0,1,0,26803.1,0.171592,0.171257,18.2306,14,0.0120398,10,0.00312212,-1.7392,-0.188484,-0.313023,-222.508,0.171257,
2,1,0,1,0,26803.1,0.173572,0.173213,17.7765,14,0.012218,10,0.00307913,-1.75015,-0.167908,-0.351383,-243.267,0.173213,
2,1,0,1,0,26803.1,0.175578,0.175259,17.2571,14,0.0123932,10,0.00302445,-1.76303,-0.149485,-0.394688,-265.53,0.175259,
2,1,0,1,0,26803.1,0.177576,0.177226,16.7111,14,0.0125629,10,0.00296163,-1.777,-0.134942,-0.437226,-284.637,0.177226,
2,1,0,1,0,26803.1,0.179573,0.179261,16.1179,14,0.012727,10,0.00288931,-1.79269,-0.129387,-0.455996,-286.892,0.179261,
2,1,0,1,0,26803.1,0.181571,0.18129,15.5452,14,0.0128852,10,0.00281818,-1.8084,-0.125587,-0.469796,-284.862,0.18129,
2,1,0,1,0,26803.1,0.183578,0.183291,14.9699,14,0.0130377,10,0.00274385,-1.82478,-0.118775,-0.496738,-290.128,0.183291,
2,1,0,1,0,26803.1,0.185575,0.185234,14.4009,14,0.0131845,10,0.00266753,-1.84161,-0.117598,-0.501709,-282.099,0.185234,
2,1,0,1,0,26803.2,0.187573,0.187228,13.8592,14,0.0133258,10,0.00259483,-1.85826,-0.123993,-0.475834,-257.697,0.1872284,
2,1,0,1,0,26803.2,0.18957,0.189251,13.3657,14,0.0134618,10,0.00252947,-1.87401,-0.127242,-0.463683,-241.913,0.1892508,
2,1,0,1,0,26803.2,0.191577,0.191238,12.8891,14,0.013593,10,0.00246489,-1.88978,-0.129859,-0.454338,-228.834,0.191238,
2,1,0,1,0,26803.2,0.193575,0.193225,12.4562,14,0.0137197,10,0.00240685,-1.90461,-0.137666,-0.428573,-208.542,0.193225,
2,1,0,1,0,26803.2,0.195572,0.19523,12.0566,14,0.0138422,10,0.00235382,-1.91877,-0.14518,-0.406391,-191.431,0.19523,
2,1,0,1,0,26803.2,0.19757,0.197219,11.6917,14,0.0139608,10,0.00230582,-1.93212,-0.157113,-0.375526,-171.606,0.197219,
2,1,0,1,0,26803.2,0.199558,0.19924,11.3686,14,0.0140749,10,0.00226508,-1.94429,-0.170731,-0.345573,-153.491,0.19924,
2,1,0,1,0,26803.2,0.201556,0.201231,11.0758,14,0.0141871,10,0.00222881,-1.95562,-0.176675,-0.333947,-144.371,0.201231,
2,1,0,1,0,26803.2,0.203554,0.203239,10.7913,14,0.0142963,10,0.0021932,-1.96693,-0.191801,-0.307611,-129.779,0.203239,
2,1,0,1,0,26803.2,0.205551,0.20529,10.5491,14,0.0144029,10,0.00216563,-1.97678,-0.213782,-0.275982,-113.767,0.2052896,
2,1,0,1,0,26803.3,0.20754,0.207229,10.3373,14,0.0145062,10,0.00214218,-1.98559,-0.221617,-0.266225,-107.414,0.207229,
2,1,0,1,0,26803.3,0.209537,0.209189,10.1303,14,0.0146085,10,0.00211914,-1.99438,-0.229562,-0.257011,-101.645,0.209189,
2,1,0,1,0,26803.3,0.211535,0.211206,9.93301,14,0.0147088,10,0.00209792,-2.00292,-0.25816,-0.22854,-88.7473,0.211206,
2,1,0,1,0,26803.3,0.213532,0.213224,9.77215,14,0.0148072,10,0.00208366,-2.01001,-0.283064,-0.208434,-79.4954,0.213224,
2,1,0,1,0,26803.3,0.215539,0.21522,9.61395,14,0.0149041,10,0.00206911,-2.0171,-0.289815,-0.203578,-76.4124,0.21522,
2,1,0,1,0,26803.3,0.217537,0.217247,9.46481,14,0.0149994,10,0.0020562,-2.02389,-0.306156,-0.192712,-71.2192,0.217247,
2,1,0,1,0,26803.3,0.219534,0.219258,9.32638,14,0.0150933,10,0.00204488,-2.03029,-0.349681,-0.168725,-61.5029,0.219258,
2,1,0,1,0,26803.3,0.221532,0.221284,9.21652,14,0.0151861,10,0.00203947,-2.03543,-0.368959,-0.159909,-57.4906,0.221284,
2,1,0,1,0,26803.3,0.223534,0.223217,9.09878,14,0.0152776,10,0.002031,-2.04102,-0.383482,-0.153853,-54.6915,0.223217,
2,1,0,1,0,26803.3,0.225536,0.225216,9.00143,14,0.0153681,10,0.00202727,-2.04569,-0.40437,-0.145906,-51.2241,0.225216,
2,1,0,1,0,26803.4,0.227534,0.227224,8.8935,14,0.0154575,10,0.00202082,-2.05093,-0.411521,-0.14337,-49.8034,0.227224,
2,1,0,1,0,26803.4,0.229531,0.229237,8.80119,14,0.015546,10,0.00201756,-2.05546,-0.463885,-0.127187,-43.7093,0.229237,
2,1,0,1,0,26803.4,0.231529,0.231224,8.71868,14,0.0156336,10,0.00201597,-2.05955,-0.554662,-0.106371,-36.2356,0.231224,
2,1,0,1,0,26803.4,0.233517,0.233229,8.65655,14,0.0157196,10,0.00201896,-2.06266,-0.543067,-0.108642,-36.6552,0.233229,
2,1,0,1,0,26803.4,0.235515,0.235223,8.57208,14,0.0158057,10,0.00201635,-2.06691,-0.518773,-0.11373,-38.0835,0.235223,
2,1,0,1,0,26803.4,0.237512,0.237225,8.50435,14,0.015891,10,0.00201745,-2.07036,-0.566346,-0.104177,-34.5719,0.237225,
2,1,0,1,0,26803.4,0.23951,0.239189,8.43496,14,0.0159757,10,0.00201755,-2.07392,-0.647494,-0.0911205,-30.031,0.239189,
2,1,0,1,0,26803.4,0.241499,0.241181,8.38555,14,0.016059,10,0.00202244,-2.07647,-0.635456,-0.0928467,-30.3428,0.2411813,
2,1,0,1,0,26803.4,0.243496,0.243207,8.31305,14,0.0161424,10,0.00202179,-2.08024,-0.694907,-0.0849034,-27.6022,0.243207,
2,1,0,1,0,26803.4,0.245494,0.245184,8.27505,14,0.0162253,10,0.00202891,-2.08223,-0.773209,-0.0763054,-24.6085,0.245184,
2,1,0,1,0,26803.5,0.247491,0.247223,8.21422,14,0.0163078,10,0.00203075,-2.08543,-0.753787,-0.0782714,-25.1234,0.247223,
2,1,0,1,0,26803.5,0.249498,0.249197,8.17424,14,0.0163897,10,0.002037,-2.08755,-0.755996,-0.0780427,-24.869,0.249197,
2,1,0,1,0,26803.5,0.251496,0.251165,8.1162,14,0.0164711,10,0.0020385,-2.09065,-0.760317,-0.0775993,-24.6073,0.251165,
2,1,0,1,0,26803.5,0.253493,0.253163,8.07665,14,0.0165521,10,0.00204471,-2.09277,-0.791764,-0.0745172,-23.4677,0.253163,
2,1,0,1,0,26803.5,0.255491,0.25513,8.02315,14,0.0166326,10,0.00204695,-2.09566,-0.97263,-0.0606603,-19.0296,0.25513,
2,1,0,1,0,26803.5,0.257497,0.25719,8.00001,14,0.0167127,10,0.00205753,-2.09691,-1.11735,-0.0528034,-16.4648,0.25719,
2,1,0,1,0,26803.5,0.259495,0.259184,7.9564,14,0.0167925,10,0.00206217,-2.09928,-0.895172,-0.0659091,-20.4728,0.259184,
2,1,0,1,0,26803.5,0.261493,0.261173,7.91848,14,0.0168718,10,0.00206809,-2.10136,-0.932462,-0.0632733,-19.5496,0.261173,
2,1,0,1,0,26803.5,0.26349,0.263223,7.87744,14,0.0169508,10,0.00207352,-2.10361,-1.31937,-0.0447182,-13.7711,0.263223,
2,1,0,1,0,26803.5,0.265479,0.265191,7.86314,14,0.0170287,10,0.00208524,-2.1044,-1.20949,-0.0487809,-14.9403,0.265191,
2,1,0,1,0,26803.6,0.267476,0.267194,7.81812,14,0.0171071,10,0.00208895,-2.1069,-0.955406,-0.0617538,-18.8603,0.267194,
2,1,0,1,0,26803.6,0.269474,0.269161,7.78826,14,0.0171851,10,0.0020963,-2.10856,-1.10768,-0.0532646,-16.1853,0.269161,
2,1,0,1,0,26803.6,0.271471,0.27115,7.75409,14,0.0172628,10,0.00210252,-2.11047,-1.60373,-0.0367892,-11.1502,0.27115,
2,1,0,1,0,26803.6,0.27346,0.273147,7.74382,14,0.0173394,10,0.0021152,-2.11104,-1.22938,-0.0479918,-14.4685,0.273147,
2,1,0,1,0,26803.6,0.275458,0.275178,7.6958,14,0.0174165,10,0.00211772,-2.11375,-0.976823,-0.0603999,-18.1679,0.2751784,
2,1,0,1,0,26803.6,0.277455,0.277157,7.67096,14,0.0174933,10,0.00212606,-2.11515,-1.16329,-0.0507183,-15.1736,0.2771574,
2,1,0,1,0,26803.6,0.279453,0.279123,7.63594,14,0.0175699,10,0.00213137,-2.11714,-1.26221,-0.0467434,-13.9437,0.2791234,
2,1,0,1,0,26803.6,0.281455,0.281089,7.61615,14,0.0176461,10,0.00214081,-2.11826,-1.35532,-0.0435323,-12.9289,0.281089,
2,1,0,1,0,26803.6,0.283457,0.283128,7.58416,14,0.0177221,10,0.00214729,-2.12009,-1.31684,-0.0448041,-13.2696,0.283128,
2,1,0,1,0,26803.6,0.285455,0.285198,7.56162,14,0.0177979,10,0.00215656,-2.12138,-1.11054,-0.0531274,-15.6602,0.285198,
2,1,0,1,0,26803.7,0.287452,0.287114,7.52174,14,0.0178733,10,0.0021596,-2.12368,-1.28988,-0.0457409,-13.4507,0.287114,
2,1,0,1,0,26803.7,0.28945,0.289164,7.50827,14,0.0179485,10,0.00217112,-2.12446,-1.81196,-0.0325614,-9.53413,0.289164,
2,1,0,1,0,26803.7,0.291456,0.29112,7.48355,14,0.0180235,10,0.00217861,-2.12589,-1.26474,-0.0466499,-13.6206,0.29112,
2,1,0,1,0,26803.7,0.293454,0.29311,7.45453,14,0.0180982,10,0.002185,-2.12758,-1.13944,-0.0517799,-15.0609,0.29311,
2,1,0,1,0,26803.7,0.295452,0.295185,7.42232,14,0.0181725,10,0.00219096,-2.12946,-1.58872,-0.0371369,-10.7726,0.295185,
2,1,0,1,0,26803.7,0.297449,0.297141,7.4111,14,0.0182467,10,0.00220214,-2.13012,-1.67866,-0.0351471,-10.1533,0.297141,
2,1,0,1,0,26803.7,0.299438,0.29917,7.38186,14,0.01832,10,0.00220843,-2.13183,-0.0575865,-1.02455,-283.007,0.29917,
2,1,0,1,0,26803.7,0.299746,0.29946,6.75477,14,0.0183509,10,0.00202279,-2.17039,0.00633482,9.3136,1987.4,0.29946,
2,1,0,1,0,26803.7,0.29774,0.297426,3.91702,14,0.0184025,10,0.00116502,-2.40704,0.00826471,7.13879,1128.96,0.297426,
2,1,0,1,0,26803.7,0.295742,0.295416,2.18932,14,0.0184323,10,0.000646761,-2.65969,0.00660831,8.92815,734.665,0.295416,
2,1,0,1,0,26803.7,0.293745,0.29341,0.966552,14,0.0184476,10,0.000283596,-3.01477,0.00247622,23.8266,535.366,0.2934103,
2,1,0,1,0,26803.8,0.291747,0.291427,0.053615,14,0.0184523,10,1.56249e-05,-4.27071,0.02337,2.5246,406.854,0.291427,
2,0,0,1,0,26803.8,0.289745,0.28943,-0.652973,14,0.0184492,10,-0.00018899,-3.1851,-0.00295385,-19.974,314.822,0.28943,
2,0,0,1,0,26803.8,0.287743,0.287437,-1.20256,14,0.0184397,10,-0.000345661,-2.91989,-0.00996941,-5.9181,247.298,0.287437,
2,0,0,1,0,26803.8,0.285745,0.28545,-1.63715,14,0.0184254,10,-0.000467323,-2.78591,-0.0182398,-3.23469,198.044,0.28545,
2,0,0,1,0,26803.8,0.283748,0.283396,-2.00275,14,0.018407,10,-0.000567572,-2.69837,-0.0270244,-2.18321,166.512,0.283396,
2,0,0,1,0,26803.8,0.28175,0.28141,-2.30992,14,0.0183854,10,-0.000650034,-2.6364,-0.03698,-1.59546,141.384,0.28141,
2,0,0,1,0,26803.8,0.279761,0.279445,-2.56146,14,0.0183611,10,-0.000715786,-2.59151,-0.048993,-1.20425,119.339,0.279445,
2,0,0,1,0,26803.8,0.277764,0.277444,-2.78321,14,0.0183344,10,-0.000772184,-2.55545,-0.0610525,-0.966382,104.352,0.277444,
2,0,0,1,0,26803.8,0.275766,0.275405,-2.98298,14,0.0183055,10,-0.000821528,-2.52535,-0.0751828,-0.784754,90.6591,0.275405,
2,0,0,1,0,26803.8,0.273769,0.273459,-3.14444,14,0.0182748,10,-0.000859875,-2.50246,-0.0885708,-0.666134,81.6607,0.2734592,
2,0,0,1,0,26803.9,0.27178,0.271464,-3.30481,14,0.0182428,10,-0.000897137,-2.48085,-0.100263,-0.58845,75.6217,0.2714642,
2,0,0,1,0,26803.9,0.269783,0.269473,-3.44588,14,0.0182091,10,-0.000928571,-2.4627,-0.118352,-0.498515,66.8844,0.269473,
2,0,0,1,0,26803.9,0.267785,0.267434,-3.57435,14,0.0181739,10,-0.000955904,-2.4468,-0.140522,-0.419863,58.3813,0.267434,
2,0,0,1,0,26803.9,0.265787,0.26542,-3.68252,14,0.0181377,10,-0.000977414,-2.43385,-0.149538,-0.394549,56.7432,0.26542,
2,0,0,1,0,26803.9,0.263781,0.263491,-3.79811,14,0.0181002,10,-0.00100077,-2.42043,-0.164209,-0.359298,53.1037,0.263491,
2,0,0,1,0,26803.9,0.261783,0.261444,-3.89363,14,0.0180618,10,-0.00101797,-2.40965,-0.192867,-0.30591,46.4579,0.261444,
2,0,0,1,0,26803.9,0.259786,0.259443,-3.98614,14,0.0180223,10,-0.00103418,-2.39945,-0.197957,-0.298044,46.3556,0.259443,
2,0,0,1,0,26803.9,0.257788,0.257459,-4.07835,14,0.017982,10,-0.00105001,-2.38952,-0.205622,-0.286935,45.6459,0.257459,
2,0,0,1,0,26803.9,0.255781,0.255468,-4.1676,14,0.0179407,10,-0.00106469,-2.38011,-0.235166,-0.250887,40.7289,0.255468,
2,0,0,1,0,26803.9,0.253784,0.253439,-4.2421,14,0.0178987,10,-0.00107511,-2.37242,-0.254163,-0.232134,38.4537,0.253439,
2,0,0,1,0,26804,0.251786,0.25144,-4.3225,14,0.0178558,10,-0.00108685,-2.36426,-0.270374,-0.218216,36.7447,0.25144,
2,0,0,1,0,26804,0.249789,0.249469,-4.38798,14,0.0178123,10,-0.00109466,-2.35774,-0.283964,-0.207773,35.626,0.249469,
2,0,0,1,0,26804,0.2478,0.24743,-4.46534,14,0.0177684,10,-0.00110486,-2.35015,-0.283129,-0.208386,36.2698,0.24743,
2,0,0,1,0,26804,0.245802,0.245488,-4.53235,14,0.0177235,10,-0.00111264,-2.34368,-0.297832,-0.198098,35.0577,0.245488,
2,0,0,1,0,26804,0.243805,0.243459,-4.60458,14,0.0176777,10,-0.00112103,-2.33681,-0.344609,-0.171209,30.6918,0.243459,
2,0,0,1,0,26804,0.241807,0.241493,-4.65496,14,0.0176315,10,-0.00112414,-2.33208,-0.335338,-0.175942,32.0559,0.241493,
2,0,0,1,0,26804,0.239819,0.239454,-4.73296,14,0.017585,10,-0.00113333,-2.32487,-0.341745,-0.172643,31.7928,0.239454,
2,0,0,1,0,26804,0.237821,0.237471,-4.78286,14,0.0175374,10,-0.00113579,-2.32031,-0.398576,-0.148027,27.6542,0.237471,
2,0,0,1,0,26804,0.235824,0.235537,-4.84129,14,0.0174893,10,-0.0011403,-2.31504,-0.403262,-0.146307,27.6195,0.235537,
2,0,0,1,0,26804,0.233826,0.233526,-4.89179,14,0.0174406,10,-0.00114236,-2.31053,-0.3796,-0.155427,29.7303,0.233526,
2,0,0,1,0,26804.1,0.231824,0.231484,-4.96177,14,0.0173914,10,-0.00114857,-2.30436,-0.386015,-0.152844,29.5316,0.231484,
2,0,0,1,0,26804.1,0.229822,0.229515,-5.01027,14,0.0173415,10,-0.00114993,-2.30014,-0.447347,-0.131889,25.8033,0.229515,
2,0,0,1,0,26804.1,0.227824,0.227495,-5.06471,14,0.0172911,10,-0.00115219,-2.29545,-0.468122,-0.126036,24.8892,0.227495,
2,0,0,1,0,26804.1,0.225827,0.225502,-5.11014,14,0.0172403,10,-0.00115235,-2.29157,-0.431895,-0.136607,27.2899,0.225502,
2,0,0,1,0,26804.1,0.223829,0.223519,-5.17319,14,0.0171888,10,-0.00115631,-2.28624,-0.457852,-0.128862,25.9605,0.223519,
2,0,0,1,0,26804.1,0.221822,0.221488,-5.21433,14,0.0171368,10,-0.00115491,-2.2828,-0.454189,-0.129902,26.4915,0.221488,
2,0,0,1,0,26804.1,0.219825,0.219558,-5.27814,14,0.0170843,10,-0.00115886,-2.27752,-0.46503,-0.126873,26.0732,0.219558,
2,0,0,1,0,26804.1,0.217827,0.217532,-5.31749,14,0.0170313,10,-0.00115672,-2.27429,-0.498141,-0.11844,24.6269,0.217532,
2,0,0,1,0,26804.1,0.21583,0.215513,-5.37775,14,0.0169778,10,-0.00115898,-2.2694,-0.452421,-0.13041,27.3401,0.215513,
2,0,0,1,0,26804.1,0.213841,0.213539,-5.42665,14,0.0169244,10,-0.0011588,-2.26547,-0.466898,-0.126366,26.7839,0.2135393,
2,0,0,1,0,26804.2,0.211844,0.211524,-5.4846,14,0.0168698,10,-0.00116012,-2.26086,-0.554996,-0.106307,22.702,0.211524,
2,0,0,1,0,26804.2,0.209846,0.209541,-5.51743,14,0.0168148,10,-0.00115613,-2.25826,-0.557334,-0.105861,22.8452,0.209541,
2,0,0,1,0,26804.2,0.207848,0.207573,-5.57486,14,0.0167593,10,-0.00115719,-2.25377,-0.440199,-0.13403,29.1666,0.207573,
2,0,0,1,0,26804.2,0.20586,0.205513,-5.6349,14,0.0167038,10,-0.00115805,-2.24911,-0.459521,-0.128394,28.22,0.205513,
2,0,0,1,0,26804.2,0.203862,0.203525,-5.6891,14,0.0166472,10,-0.00115787,-2.24496,-0.549261,-0.107417,23.819,0.2035246,
2,0,0,1,0,26804.2,0.201865,0.201563,-5.72899,14,0.0165901,10,-0.00115475,-2.24192,-0.530349,-0.111248,24.913,0.201563,
2,0,0,1,0,26804.2,0.199867,0.199576,-5.78747,14,0.0165326,10,-0.00115504,-2.23751,-0.501491,-0.117649,26.549,0.199576,
2,0,0,1,0,26804.2,0.19786,0.19754,-5.83579,14,0.0164745,10,-0.0011528,-2.2339,-0.535759,-0.110124,25.089,0.19754,
2,0,0,1,0,26804.2,0.195863,0.195566,-5.88808,14,0.0164158,10,-0.00115151,-2.23003,-0.540866,-0.109084,25.0582,0.195566,
2,0,0,1,0,26804.2,0.193865,0.193517,-5.93661,14,0.0163567,10,-0.00114883,-2.22646,-0.495056,-0.119178,27.6438,0.193517,
2,0,0,1,0,26804.3,0.191868,0.191549,-5.99913,14,0.016297,10,-0.00114913,-2.22191,-0.466955,-0.12635,29.5611,0.191549,
2,0,0,1,0,26804.3,0.189861,0.189562,-6.05351,14,0.0162368,10,-0.00114752,-2.21799,-0.503399,-0.117203,27.6927,0.189562,
2,0,0,1,0,26804.3,0.187863,0.187554,-6.10977,14,0.0161759,10,-0.00114591,-2.21398,-0.510464,-0.115581,27.5552,0.187554,
2,0,0,1,0,26804.3,0.185866,0.185539,-6.16436,14,0.0161145,10,-0.00114373,-2.21011,-0.49267,-0.119756,28.8256,0.185539,
2,0,0,1,0,26804.3,0.183868,0.183525,-6.22588,14,0.0160525,10,-0.00114261,-2.2058,-0.418772,-0.140888,34.265,0.183525,
2,0,0,1,0,26804.3,0.18188,0.18159,-6.2997,14,0.0159906,10,-0.00114396,-2.20068,-0.417442,-0.141337,34.7199,0.18159,
2,0,0,1,0,26804.3,0.179882,0.179561,-6.36354,14,0.0159273,10,-0.00114264,-2.1963,-0.490572,-0.120268,29.8522,0.179561,
2,0,0,1,0,26804.3,0.177885,0.17753,-6.42088,14,0.0158634,10,-0.0011399,-2.19241,-0.443374,-0.13307,33.3948,0.17753,
2,0,0,1,0,26804.3,0.175887,0.175546,-6.49761,14,0.0157987,10,-0.00114063,-2.18725,-0.415549,-0.141981,35.9707,0.175546,
2,0,0,1,0,26804.3,0.173908,0.17358,-6.56297,14,0.0157341,10,-0.0011392,-2.1829,-0.379039,-0.155657,39.9467,0.17358,
2,0,0,1,0,26804.4,0.171901,0.171615,-6.65464,14,0.0156679,10,-0.00114204,-2.17688,-0.37535,-0.157186,40.7586,0.171615,
2,0,0,1,0,26804.4,0.169903,0.16958,-6.72602,14,0.0156011,10,-0.0011406,-2.17224,-0.368844,-0.159959,42.0673,0.16958,
2,0,0,1,0,26804.4,0.167906,0.167605,-6.82334,14,0.0155333,10,-0.00114362,-2.166,-0.328105,-0.179821,47.8684,0.167605,
2,0,0,1,0,26804.4,0.165908,0.165595,-6.91677,14,0.0154646,10,-0.00114538,-2.1601,-0.321834,-0.183324,49.527,0.165595,
2,0,0,1,0,26804.4,0.163901,0.163584,-7.02246,14,0.0153948,10,-0.00114876,-2.15351,-0.320548,-0.18406,50.4085,0.163584,
2,0,0,1,0,26804.4,0.161904,0.16158,-7.11913,14,0.0153241,10,-0.00115031,-2.14757,-0.292044,-0.202024,56.25,0.16158,
2,0,0,1,0,26804.4,0.159906,0.159585,-7.24744,14,0.0152522,10,-0.00115658,-2.13982,-0.264356,-0.223184,63.0864,0.159585,
2,0,0,1,0,26804.4,0.157909,0.157635,-7.36801,14,0.0151792,10,-0.00116146,-2.13265,-0.244359,-0.241448,69.5816,0.157635,
2,0,0,1,0,26804.4,0.155902,0.155628,-7.52278,14,0.0151046,10,-0.00117075,-2.12362,-0.22985,-0.25669,75.3412,0.155628,
2,0,0,1,0,26804.4,0.153904,0.153553,-7.67556,14,0.0150286,10,-0.00117861,-2.11489,-0.226458,-0.260534,78.0713,0.153553,
2,0,0,1,0,26804.5,0.151907,0.151618,-7.83585,14,0.014951,10,-0.00118805,-2.10591,-0.205344,-0.287323,88.0272,0.151618,
2,0,0,1,0,26804.5,0.149909,0.149554,-8.02756,14,0.0148717,10,-0.00120056,-2.09542,-0.178926,-0.329745,103.484,0.149554,
2,0,0,1,0,26804.5,0.147921,0.147611,-8.25047,14,0.0147911,10,-0.00121786,-2.08352,-0.17353,-0.339998,109.385,0.147611,
2,0,0,1,0,26804.5,0.145923,0.145569,-8.46355,14,0.0147075,10,-0.00123203,-2.07245,-0.161882,-0.364463,120.766,0.145569,
2,0,0,1,0,26804.5,0.143926,0.143599,-8.73493,14,0.0146215,10,-0.00125433,-2.05874,-0.144024,-0.409653,139.703,0.143599,
2,0,0,1,0,26804.5,0.141928,0.141594,-9.01885,14,0.0145328,10,-0.00127701,-2.04485,-0.139433,-0.423142,149.137,0.141594,
2,0,0,1,0,26804.5,0.139939,0.139585,-9.33367,14,0.0144419,10,-0.00130284,-2.02995,-0.132498,-0.445289,162.277,0.139585,
2,0,0,1,0,26804.5,0.137942,0.137615,-9.66446,14,0.0143469,10,-0.00132998,-2.01482,-0.124026,-0.475708,179.804,0.137615,
2,0,0,1,0,26804.5,0.135944,0.135629,-10.0449,14,0.0142483,10,-0.00136238,-1.99806,-0.120334,-0.490303,192.214,0.135629,
2,0,0,1,0,26804.5,0.133947,0.133603,-10.4358,14,0.014146,10,-0.00139424,-1.98148,-0.117772,-0.50097,204.285,0.133603,
2,0,0,1,0,26804.6,0.13194,0.131624,-10.8632,14,0.0140395,10,-0.00142985,-1.96404,-0.11614,-0.508007,215.233,0.131624,
2,0,0,1,0,26804.6,0.129942,0.129645,-11.2876,14,0.0139287,10,-0.00146338,-1.9474,-0.117716,-0.501208,221.054,0.129645,
2,0,0,1,0,26804.6,0.127945,0.12761,-11.7504,14,0.0138134,10,-0.00149947,-1.92995,-0.118796,-0.496649,227.475,0.12761,
2,0,0,1,0,26804.6,0.125947,0.125651,-12.1961,14,0.0136936,10,-0.00153245,-1.91378,-0.120522,-0.489539,233.252,0.125651,
2,0,0,1,0,26804.6,0.123941,0.123629,-12.6791,14,0.0135692,10,-0.00156749,-1.89691,-0.129409,-0.45592,224.945,0.123629,
2,0,0,1,0,26804.6,0.121943,0.121637,-13.0991,14,0.0134404,10,-0.00159333,-1.88276,-0.134209,-0.439613,225.065,0.121637,
2,0,0,1,0,26804.6,0.119945,0.119682,-13.5673,14,0.0133069,10,-0.00162376,-1.86751,-0.135237,-0.43627,230.767,0.119682,
2,0,0,1,0,26804.6,0.117948,0.117653,-14.0185,14,0.0131689,10,-0.00164931,-1.8533,-0.146504,-0.402718,220.246,0.117653,
2,0,0,1,0,26804.6,0.115946,0.115588,-14.4691,14,0.0130264,10,-0.00167245,-1.83956,-0.155683,-0.378975,213.598,0.115588,
2,0,0,1,0,26804.6,0.113962,0.113649,-14.8736,14,0.0128811,10,-0.00169037,-1.82758,-0.167353,-0.352548,204.6,0.113649,
2,0,0,1,0,26804.7,0.111964,0.111628,-15.2792,14,0.0127302,10,-0.00170559,-1.8159,-0.178,-0.331461,197.452,0.111628,
2,0,0,1,0,26804.7,0.109967,0.109662,-15.6608,14,0.0125755,10,-0.0017174,-1.80518,-0.188551,-0.312913,191.134,0.109662,
2,0,0,1,0,26804.7,0.107969,0.107703,-16.0295,14,0.012417,10,-0.00172642,-1.79508,-0.210988,-0.279636,174.718,0.107703,
2,0,0,1,0,26804.7,0.10598,0.105641,-16.3635,14,0.0122566,10,-0.00172865,-1.78612,-0.231211,-0.255179,162.871,0.105641,
2,0,0,1,0,26804.7,0.103983,0.103685,-16.6839,14,0.0120913,10,-0.00172986,-1.7777,-0.245298,-0.240523,156.492,0.103685,
2,0,0,1,0,26804.7,0.101985,0.101681,-16.9832,14,0.011923,10,-0.00172686,-1.76998,-0.272812,-0.216266,143.212,0.101681,
2,0,0,1,0,26804.7,0.0999877,0.0996966,-17.255,14,0.0117518,10,-0.00172027,-1.76308,-0.299417,-0.19705,132.629,0.0996966,
2,0,0,1,0,26804.7,0.0979811,0.0976898,-17.5125,14,0.0115779,10,-0.00171079,-1.75665,-0.331118,-0.178184,121.679,0.0976898,
2,0,0,1,0,26804.7,0.0959835,0.0956874,-17.7429,14,0.0114016,10,-0.00169777,-1.75098,-0.385493,-0.153051,105.863,0.0956874,
2,0,0,1,0,26804.7,0.0939859,0.093691,-17.9358,14,0.0112231,10,-0.00168042,-1.74628,-0.444637,-0.132693,92.8413,0.093691,
2,0,0,1,0,26804.8,0.0919883,0.0916868,-18.1143,14,0.0110427,10,-0.00166084,-1.74198,-0.505421,-0.116734,82.4729,0.0916868,
2,0,0,1,0,26804.8,0.0899816,0.0896254,-18.2711,14,0.0108607,10,-0.00163756,-1.73823,-0.62915,-0.0937772,66.7819,0.0896254,
2,0,0,1,0,26804.8,0.087984,0.087695,-18.3809,14,0.0106774,10,-0.00161191,-1.73563,-0.898602,-0.0656575,47.0567,0.087695,
2,0,0,1,0,26804.8,0.0859865,0.0856596,-18.4577,14,0.0104932,10,-0.00158108,-1.73382,-1.28442,-0.0459351,33.0706,0.0856596,
2,0,0,1,0,26804.8,0.0839889,0.083671,-18.5139,14,0.0103082,10,-0.00154908,-1.7325,-2.1579,-0.0273413,19.7374,0.083671,
2,0,0,1,0,26804.8,0.0820004,0.0816587,-18.5367,14,0.0101248,10,-0.00151368,-1.73197,-7.37447,-0.00800058,5.78432,0.0816587,
2,0,0,1,0,26804.8,0.0800028,0.0797126,-18.5368,14,0.00993941,10,-0.00147762,-1.73196,4.66595,0.0126448,-9.13869,0.07971257,
2,0,0,1,0,26804.8,0.0780052,0.0776989,-18.5005,14,0.00975426,10,-0.00143747,-1.73282,1.89598,0.0311184,-22.457,0.0776989,
2,0,0,1,0,26804.8,0.0760076,0.0756708,-18.4461,14,0.00956949,10,-0.00139583,-1.7341,1.28746,0.0458265,-32.9694,0.0756708,
2,0,0,1,0,26804.8,0.0740191,0.0736988,-18.3686,14,0.00938734,10,-0.00135375,-1.73592,1.02257,0.0576976,-41.352,0.0736988,
2,0,0,1,0,26804.9,0.0720215,0.0717215,-18.2828,14,0.00920406,10,-0.00131127,-1.73796,0.845338,0.0697946,-49.7607,0.0717215,
2,0,0,1,0,26804.9,0.0700239,0.0696783,-18.1686,14,0.00902185,10,-0.00126595,-1.74068,0.731911,0.0806108,-57.158,0.0696783,
2,0,0,1,0,26804.9,0.0680263,0.0677322,-18.0547,14,0.00884073,10,-0.00122289,-1.74341,0.748553,0.0788187,-55.5492,0.0677322,
2,0,0,1,0,26804.9,0.0660197,0.0657281,-17.9491,14,0.00866082,10,-0.00117976,-1.74596,0.753922,0.0782574,-54.8021,0.0657281,
2,0,0,1,0,26804.9,0.0640221,0.0636823,-17.8328,14,0.0084819,10,-0.00113563,-1.74878,0.668641,0.0882387,-61.3795,0.0636823,
2,0,0,1,0,26804.9,0.0620245,0.0616538,-17.6991,14,0.00830431,10,-0.00109121,-1.75205,0.660545,0.0893202,-61.7374,0.0616538,
2,0,0,1,0,26804.9,0.0600269,0.0597347,-17.5891,14,0.00812783,10,-0.00105068,-1.75476,0.732219,0.080577,-55.3122,0.0597347,
2,0,0,1,0,26804.9,0.0580248,0.0576906,-17.4798,14,0.00795255,10,-0.00100842,-1.75746,0.75317,0.0783356,-53.4421,0.0576906,
2,0,0,1,0,26804.9,0.0560227,0.055689,-17.3729,14,0.00777822,10,-0.000967478,-1.76013,0.738268,0.0799168,-54.1793,0.055689,
2,0,0,1,0,26804.9,0.0540251,0.0536909,-17.2631,14,0.00760509,10,-0.000926874,-1.76288,0.763186,0.0773075,-52.1032,0.0536909,
2,0,0,1,0,26805,0.0520275,0.0517275,-17.1665,14,0.00743287,10,-0.000887979,-1.76532,0.744528,0.0792448,-53.0628,0.0517275,
2,0,0,1,0,26805,0.0500299,0.0497199,-17.0524,14,0.00726174,10,-0.000847845,-1.76821,0.8676,0.0680037,-45.3162,0.0497199,
2,0,0,1,0,26805,0.0480414,0.0476912,-16.9836,14,0.00709321,10,-0.000809967,-1.76997,0.902027,0.0654083,-43.3087,0.0476912,
2,0,0,1,0,26805,0.0460438,0.045734,-16.8798,14,0.00692396,10,-0.00077198,-1.77263,0.765122,0.0771119,-50.8103,0.045734,
2,0,0,1,0,26805,0.0440462,0.0437664,-16.7841,14,0.00675565,10,-0.000734581,-1.7751,0.759178,0.0777156,-50.8854,0.0437664,
2,0,0,1,0,26805,0.0420486,0.0417113,-16.6751,14,0.0065884,10,-0.000695541,-1.77793,0.844684,0.0698486,-45.5029,0.0417113,
2,0,0,1,0,26805,0.0400601,0.039739,-16.6009,14,0.00642364,10,-0.000659702,-1.77987,0.889591,0.0663226,-42.941,0.039739,
2,0,0,1,0,26805,0.0380625,0.0377547,-16.5052,14,0.00625814,10,-0.00062315,-1.78238,0.791739,0.0745195,-47.9991,0.0377547,
2,0,0,1,0,26805,0.036065,0.0357254,-16.4082,14,0.00609362,10,-0.000586191,-1.78494,0.710972,0.082985,-53.112,0.0357254,
2,0,0,1,0,26805,0.0340674,0.0337811,-16.2942,14,0.00593017,10,-0.000550435,-1.78797,0.725935,0.0812745,-51.7194,0.0337811,
2,0,0,1,0,26805.1,0.0320607,0.0317622,-16.2033,14,0.00576765,10,-0.000514651,-1.7904,0.735297,0.0802396,-50.6992,0.0317622,
2,0,0,1,0,26805.1,0.0300631,0.0296825,-16.0864,14,0.00560623,10,-0.000477484,-1.79354,0.677103,0.087136,-54.7275,0.0296825,
2,0,0,1,0,26805.1,0.0280655,0.0277521,-15.9838,14,0.00544585,10,-0.000443584,-1.79632,0.633342,0.0931566,-58.0689,0.02775212,
2,0,0,1,0,26805.1,0.0260679,0.0257618,-15.8587,14,0.00528664,10,-0.000408549,-1.79973,0.632834,0.0932314,-57.7346,0.0257618,
2,0,0,1,0,26805.1,0.0240613,0.0237351,-15.7519,14,0.00512854,10,-0.000373873,-1.80267,0.589215,0.100133,-61.4905,0.0237351,
2,0,0,1,0,26805.1,0.0220637,0.0217483,-15.6119,14,0.00497174,10,-0.000339532,-1.80654,0.561397,0.105095,-64.0795,0.0217483,
2,0,0,1,0,26805.1,0.0200661,0.0197337,-15.4955,14,0.00481615,10,-0.000305783,-1.8098,0.529116,0.111507,-67.3456,0.01973371,
2,0,0,1,0,26805.1,0.0180685,0.0177087,-15.3399,14,0.00466198,10,-0.000271649,-1.81418,0.526148,0.112136,-67.2249,0.0177087,
2,0,0,1,0,26805.1,0.01608,0.0157478,-15.2275,14,0.0045107,10,-0.0002398,-1.81737,0.505872,0.11663,-69.1963,0.0157478,
2,0,0,1,0,26805.1,0.0140824,0.0137428,-15.0654,14,0.00435929,10,-0.000207042,-1.82202,0.450132,0.131073,-77.1002,0.0137428,
2,0,0,1,0,26805.2,0.0120848,0.0117355,-14.9182,14,0.00420937,10,-0.000175072,-1.82628,0.427649,0.137964,-80.2476,0.0117355,
2,0,0,1,0,26805.2,0.0100872,0.00973449,-14.7438,14,0.00406114,10,-0.000143523,-1.83139,0.43044,0.137069,-78.9613,0.00973449,
2,0,0,1,0,26805.2,0.00810328,0.00776423,-14.6046,14,0.00391589,10,-0.000113393,-1.83551,0.425449,0.138677,-78.9517,0.00776423,
2,0,0,1,0,26805.2,0.00610116,0.00579997,-14.4331,14,0.00377071,10,-8.37118e-05,-1.84064,0.41154,0.143364,-80.8074,0.00579997,
2,0,0,1,0,26805.2,0.00410357,0.00377151,-14.282,14,0.00362718,10,-5.38645e-05,-1.84521,0.502454,0.117424,-65.5243,0.00377151,
2,0,0,1,0,26805.2,0.00210598,0.0016962,-14.1642,14,0.00348522,10,-2.40253e-05,-1.84881,0.465896,0.126638,-69.889,0.0016962,
2,0,0,1,0,26805.2,0.00010174,-0.000247239,-14.0011,14,0.0033444,10,3.46162e-06,-1.85384,0.387319,0.152329,-83.2217,-0.000247239,
2,0,0,1,0,26805.2,-0.00189827,-0.00226529,-13.8346,14,0.00320522,10,3.13393e-05,-1.85903,0.430734,0.136975,-74.0491,-0.00226529,
2,0,0,1,0,26805.2,-0.00389586,-0.00425905,-13.704,14,0.00306751,10,5.83661e-05,-1.86315,0.439797,0.134153,-71.6816,-0.004259048,
2,0,0,1,0,26805.2,-0.00589345,-0.00624847,-13.549,14,0.00293129,10,8.46607e-05,-1.86809,0.441517,0.13363,-70.7372,-0.00624847,
2,0,0,1,0,26805.3,-0.00789103,-0.00821099,-13.4245,14,0.00279636,10,0.000110228,-1.8721,0.510897,0.115483,-60.5186,-0.00821099,
2,0,0,1,0,26805.3,-0.0098977,-0.0102412,-13.3074,14,0.00266267,10,0.000136284,-1.87591,0.609062,0.0968703,-50.3606,-0.01024119,
2,0,0,1,0,26805.3,-0.0118953,-0.0123096,-13.2181,14,0.00253002,10,0.000162708,-1.87883,0.592396,0.0995955,-51.3232,-0.0123096,
2,0,0,1,0,26805.3,-0.0138929,-0.0142547,-13.1014,14,0.00239846,10,0.000186757,-1.88268,0.599535,0.0984095,-50.3821,-0.0142547,
2,0,0,1,0,26805.3,-0.0158905,-0.0162624,-13.0189,14,0.00226787,10,0.000211718,-1.88543,0.777501,0.0758842,-38.57,-0.0162624,
2,0,0,1,0,26805.3,-0.017879,-0.0182762,-12.9463,14,0.00213935,10,0.000236609,-1.88785,0.867388,0.0680203,-34.3788,-0.0182762,
2,0,0,1,0,26805.3,-0.0198766,-0.0202326,-12.8824,14,0.00201019,10,0.000260645,-1.89,0.860557,0.0685602,-34.4569,-0.0202326,
2,0,0,1,0,26805.3,-0.0218741,-0.0222479,-12.8095,14,0.00188182,10,0.000284984,-1.89247,1.06937,0.0551725,-27.619,-0.0222479,
2,0,0,1,0,26805.3,-0.0238717,-0.0242473,-12.7715,14,0.00175391,10,0.000309675,-1.89376,1.49511,0.039462,-19.6663,-0.0242473,
2,0,0,1,0,26805.3,-0.0258602,-0.0262902,-12.73,14,0.00162768,10,0.000334673,-1.89517,1.65744,0.035597,-17.6938,-0.0262902,
2,0,0,1,0,26805.4,-0.0278578,-0.0282275,-12.7011,14,0.00150053,10,0.000358521,-1.89616,1.98773,0.0296821,-14.7128,-0.0282275,
2,0,0,1,0,26805.4,-0.0298554,-0.03023,-12.672,14,0.00137371,10,0.000383074,-1.89715,2.76342,0.0213504,-10.5655,-0.03022996,
2,0,0,1,0,26805.4,-0.031853,-0.0322211,-12.6589,14,0.00124701,10,0.000407884,-1.8976,4.92061,0.0119904,-5.92429,-0.0322211,
2,0,0,1,0,26805.4,-0.0338597,-0.0342218,-12.6483,14,0.00112049,10,0.000432849,-1.89797,56.3171,0.00104764,-0.517531,-0.0342218,
2,0,0,1,0,26805.4,-0.0358573,-0.0362459,-12.6568,14,0.00099395,10,0.000458759,-1.89767,-21.6304,-0.00272764,1.34672,-0.0362459,
2,0,0,1,0,26805.4,-0.0378549,-0.0382362,-12.6538,14,0.0008674,10,0.000483832,-1.89778,-16.9767,-0.00347535,1.71714,-0.0382362,
2,0,0,1,0,26805.4,-0.0398524,-0.0402361,-12.6637,14,0.000740772,10,0.000509537,-1.89744,-3.20433,-0.0184126,9.10589,-0.0402361,
2,0,0,1,0,26805.4,-0.0418591,-0.042235,-12.6902,14,0.00061404,10,0.000535969,-1.89653,-2.09903,-0.0281082,13.922,-0.042235,
2,0,0,1,0,26805.4,-0.0438567,-0.0442045,-12.7189,14,0.000487003,10,0.000562234,-1.89555,-3.03907,-0.0194138,9.62934,-0.0442045,
2,0,0,1,0,26805.4,-0.0458543,-0.0462087,-12.7284,14,0.00035977,10,0.000588164,-1.89523,-2.52751,-0.0233432,11.6082,-0.0462087,
2,0,0,1,0,26805.5,-0.0478519,-0.0482067,-12.7654,14,0.000232284,10,0.000615378,-1.89397,-1.39768,-0.0422129,21.039,-0.0482067,
2,0,0,1,0,26805.5,-0.0498585,-0.0502369,-12.8132,14,0.000104425,10,0.000643695,-1.89234,-1.21561,-0.0485353,24.2715,-0.0502369,
2,0,0,1,0,26805.5,-0.051838,-0.0521951,-12.8622,14,-2.26846e-05,10,0.000671344,-1.89068,-1.47351,-0.0400405,20.0851,-0.0521951,
2,0,0,1,0,26805.5,-0.0538356,-0.0542224,-12.8932,14,-0.000151386,10,0.000699101,-1.88964,-1.28922,-0.0457642,23.0552,-0.0542224,
2,0,0,1,0,26805.5,-0.0558331,-0.0562257,-12.9551,14,-0.000280605,10,0.000728411,-1.88756,-1.17649,-0.050149,25.3325,-0.0562257,
2,0,0,1,0,26805.5,-0.0578126,-0.0581981,-12.9939,14,-0.00040902,10,0.000756223,-1.88626,-1.10096,-0.0535895,27.2076,-0.0581981,
2,0,0,1,0,26805.5,-0.0598192,-0.0601997,-13.0632,14,-0.000539335,10,0.000786403,-1.88395,-0.942807,-0.0625791,31.8909,-0.0601997,
2,0,0,1,0,26805.5,-0.0618168,-0.0622177,-13.1221,14,-0.000670213,10,0.000816429,-1.882,-0.92282,-0.0639345,32.7551,-0.0622177,
2,0,0,1,0,26805.5,-0.0638144,-0.0641273,-13.1919,14,-0.000801779,10,0.000845961,-1.87969,-0.977228,-0.0603749,31.0639,-0.0641273,
2,0,0,1,0,26805.5,-0.065812,-0.0661861,-13.2454,14,-0.000933929,10,0.000876663,-1.87793,-0.855799,-0.0689414,35.6892,-0.0661861,
2,0,0,1,0,26805.6,-0.0678187,-0.0682068,-13.3375,14,-0.00106694,10,0.000909707,-1.87493,-0.793006,-0.0744004,38.6866,-0.0682068,
2,0,0,1,0,26805.6,-0.0698163,-0.0702361,-13.4021,14,-0.00120062,10,0.000941311,-1.87283,-0.818267,-0.0721036,37.7405,-0.0702361,
2,0,0,1,0,26805.6,-0.0718138,-0.0721527,-13.4864,14,-0.00133513,10,0.00097308,-1.8701,-0.771178,-0.0765063,40.2529,-0.0721527,
2,0,0,1,0,26805.6,-0.0738114,-0.0741863,-13.5611,14,-0.00147039,10,0.00100605,-1.86771,-0.685387,-0.0860828,45.6164,-0.0741863,
2,0,0,1,0,26805.6,-0.0758181,-0.0761844,-13.6703,14,-0.00160663,10,0.00104147,-1.86422,-0.687329,-0.0858395,45.7348,-0.0761844,
2,0,0,1,0,26805.6,-0.0778157,-0.0781704,-13.7433,14,-0.00174374,10,0.00107432,-1.86191,-0.699368,-0.0843618,45.3082,-0.0781704,
2,0,0,1,0,26805.6,-0.0798133,-0.0802197,-13.8532,14,-0.00188177,10,0.0011113,-1.85845,-0.62899,-0.0938012,50.6798,-0.0802197,
2,0,0,1,0,26805.6,-0.0818109,-0.0821553,-13.9453,14,-0.00202076,10,0.00114568,-1.85557,-0.587002,-0.100511,54.7635,-0.0821553,
2,0,0,1,0,26805.6,-0.0837994,-0.0841672,-14.0693,14,-0.0021595,10,0.00118418,-1.85173,-0.589753,-0.100042,54.873,-0.0841672,
2,0,0,1,0,26805.6,-0.085797,-0.0861451,-14.1642,14,-0.00230062,10,0.00122018,-1.84881,-0.587632,-0.100403,55.5627,-0.0861451,
2,0,0,1,0,26805.7,-0.0877945,-0.0881573,-14.291,14,-0.0024429,10,0.00125986,-1.84494,-0.562935,-0.104808,58.417,-0.0881573,
2,0,0,1,0,26805.7,-0.0897921,-0.0901813,-14.4,14,-0.00258631,10,0.00129861,-1.84164,-0.561924,-0.104996,59.0416,-0.0901813,
2,0,0,1,0,26805.7,-0.0917806,-0.0921492,-14.5267,14,-0.00272945,10,0.00133863,-1.83783,-0.55548,-0.106214,60.1857,-0.0921492,
2,0,0,1,0,26805.7,-0.0937782,-0.0941577,-14.6393,14,-0.00287527,10,0.0013784,-1.83448,-0.544054,-0.108445,62.0021,-0.0941577,
2,0,0,1,0,26805.7,-0.0957758,-0.0961315,-14.7736,14,-0.00302236,10,0.00142021,-1.83051,-0.549626,-0.107346,61.8427,-0.0961315,
2,0,0,1,0,26805.7,-0.0977734,-0.0981314,-14.885,14,-0.00317065,10,0.00146069,-1.82725,-0.501677,-0.117606,68.4309,-0.0981314,
2,0,0,1,0,26805.7,-0.0997412,-0.100112,-15.046,14,-0.00331728,10,0.00150628,-1.82258,0.100564,0.58669,-333.327,-0.100112,
2,0,0,1,1,26805.7,-0.0996711,-0.10008,-14.2355,14,-0.00336138,10,0.00142469,-1.84663,-0.0142926,-4.12802,2069.52,-0.10008,
2,0,0,1,1,26805.7,-0.0976826,-0.0980946,-10.8715,14,-0.00348372,10,0.00106643,-1.96371,-0.0178958,-3.29686,1429.93,-0.0980946,
2,0,0,1,1,26805.7,-0.095685,-0.0960586,-8.48516,14,-0.00357976,10,0.000815072,-2.07134,-0.0181434,-3.25187,1081.92,-0.0960586,
2,0,0,1,1,26805.7,-0.0936874,-0.0940942,-6.54335,14,-0.00365436,10,0.000615691,-2.1842,-0.0167266,-3.52732,898.263,-0.0940942,
2,0,0,1,1,26805.8,-0.0916898,-0.0920598,-4.89318,14,-0.00371118,10,0.000450465,-2.31041,-0.0145789,-4.04696,765.462,-0.0920598,
2,0,0,1,1,26805.8,-0.0897013,-0.0900817,-3.47197,14,-0.0037522,10,0.000312761,-2.45942,-0.0114333,-5.16039,678.048,-0.0900817,
2,0,0,1,1,26805.8,-0.0877037,-0.0880828,-2.19656,14,-0.00378032,10,0.00019348,-2.65826,-0.00776465,-7.59854,604.515,-0.0880828,
2,0,0,1,1,26805.8,-0.0857062,-0.0861038,-1.06723,14,-0.00379636,10,9.18927e-05,-2.97174,-0.00262953,-22.4375,534.916,-0.0861038,
2,0,0,1,1,26805.8,-0.0837086,-0.0841022,-0.0672889,14,-0.00380182,10,5.65914e-06,-4.17206,-0.041681,-1.41551,482.487,-0.0841022,
2,1,0,1,1,26805.8,-0.0817019,-0.0821171,0.856273,14,-0.00379762,10,-7.03147e-05,-3.06739,0.00286433,20.5982,438.076,-0.0821171,
2,1,0,1,1,26805.8,-0.0797043,-0.080093,1.68904,14,-0.00378473,10,-0.00013528,-2.77236,0.00892315,6.61202,390.1,-0.080093,
2,1,0,1,1,26805.8,-0.0777067,-0.0780619,2.4382,14,-0.00376391,10,-0.000190331,-2.61293,0.0150221,3.92755,357.482,-0.0780619,
2,1,0,1,1,26805.8,-0.0757091,-0.0760873,3.12102,14,-0.00373607,10,-0.00023747,-2.5057,0.0213375,2.76509,329.259,-0.0760873,
2,1,0,1,1,26805.8,-0.0737025,-0.0740501,3.75912,14,-0.00370152,10,-0.000278364,-2.42491,0.0278782,2.11635,305.461,-0.0740501,
2,1,0,1,1,26805.9,-0.0717049,-0.0720876,4.34277,14,-0.00366092,10,-0.00031306,-2.36223,0.0348387,1.69352,283.578,-0.0720876,
2,1,0,1,1,26805.9,-0.0697073,-0.0701329,4.86997,14,-0.00361476,10,-0.000341545,-2.31247,0.043831,1.34608,254.136,-0.0701329,
2,1,0,1,1,26805.9,-0.0677097,-0.0680506,5.3687,14,-0.00356355,10,-0.000365344,-2.27013,0.0525506,1.12273,233.524,-0.0680506,
2,1,0,1,1,26805.9,-0.0657212,-0.0660764,5.81725,14,-0.00350812,10,-0.000384383,-2.23528,0.0612523,0.963229,217.559,-0.0660764,
2,1,0,1,1,26805.9,-0.0637236,-0.064104,6.22732,14,-0.00344787,10,-0.000399196,-2.2057,0.0725039,0.813749,197.004,-0.064104,
2,1,0,1,1,26805.9,-0.061726,-0.0620728,6.60597,14,-0.00338362,10,-0.000410051,-2.18006,0.0825366,0.714834,183.814,-0.0620728,
2,1,0,1,1,26805.9,-0.0597284,-0.0600957,6.96411,14,-0.00331572,10,-0.000418513,-2.15713,0.0927539,0.636092,172.273,-0.0600957,
2,1,0,1,1,26805.9,-0.0577399,-0.0581356,7.28424,14,-0.00324513,10,-0.000423474,-2.13762,0.10698,0.551504,156.463,-0.0581356,
2,1,0,1,1,26805.9,-0.0557423,-0.0561367,7.58355,14,-0.00317078,10,-0.000425715,-2.12013,0.124365,0.474409,140.053,-0.0561367,
2,1,0,1,1,26805.9,-0.0537448,-0.0540839,7.8517,14,-0.00309351,10,-0.000424651,-2.10504,0.143096,0.41231,126.096,-0.05408391,
2,1,0,1,1,26806,-0.0517472,-0.0520832,8.09468,14,-0.00301373,10,-0.000421597,-2.0918,0.153708,0.383845,121.158,-0.0520832,
2,1,0,1,1,26806,-0.049745,-0.0501467,8.32872,14,-0.00293154,10,-0.000417658,-2.07942,0.168276,0.350615,113.838,-0.0501467,
2,1,0,1,1,26806,-0.0477429,-0.0480992,8.54821,14,-0.00284712,10,-0.000411162,-2.06812,0.193408,0.305055,101.554,-0.0480992,
2,1,0,1,1,26806,-0.0457453,-0.0461488,8.73473,14,-0.00276063,10,-0.000403097,-2.05875,0.223893,0.263519,89.7343,-0.0461488,
2,1,0,1,1,26806,-0.0437477,-0.0441238,8.90494,14,-0.00267242,10,-0.00039292,-2.05037,0.245403,0.240421,83.5152,-0.0441238,
2,1,0,1,1,26806,-0.0417501,-0.0421465,9.06898,14,-0.00258246,10,-0.000382226,-2.04244,0.263304,0.224076,79.2556,-0.0421465,
2,1,0,1,1,26806,-0.0397435,-0.040112,9.2229,14,-0.00249091,10,-0.000369949,-2.03513,0.307765,0.191705,68.887,-0.040112,
2,1,0,1,1,26806,-0.0377459,-0.0381052,9.34737,14,-0.00239803,10,-0.000356184,-2.02931,0.334258,0.17651,64.4134,-0.03810522,
2,1,0,1,1,26806,-0.0357483,-0.0361271,9.47958,14,-0.00230393,10,-0.000342469,-2.02321,0.377039,0.156482,57.7891,-0.0361271,
2,1,0,1,1,26806,-0.0337507,-0.034096,9.57906,14,-0.00220859,10,-0.000326608,-2.01868,0.434437,0.135808,50.7761,-0.03409601,
2,1,0,1,1,26806.1,-0.0317622,-0.0321526,9.68138,14,-0.00211325,10,-0.000311282,-2.01406,0.456068,0.129367,48.8478,-0.0321526,
2,1,0,1,1,26806.1,-0.0297646,-0.0301477,9.77193,14,-0.00201594,10,-0.000294601,-2.01002,0.549281,0.107413,40.929,-0.0301477,
2,1,0,1,1,26806.1,-0.027767,-0.0281236,9.84629,14,-0.00191791,10,-0.000276913,-2.00673,0.684506,0.0861936,33.0947,-0.0281236,
2,1,0,1,1,26806.1,-0.0257694,-0.0261274,9.90498,14,-0.0018191,10,-0.000258791,-2.00415,0.710135,0.0830828,32.1329,-0.0261274,
2,1,0,1,1,26806.1,-0.0237809,-0.024148,9.97403,14,-0.00172069,10,-0.000240853,-2.00113,0.729261,0.0809038,31.4706,-0.024148,
2,1,0,1,1,26806.1,-0.0217833,-0.0221664,10.0296,14,-0.0016206,10,-0.000222321,-1.99872,0.979765,0.0602185,23.5498,-0.0221664,
2,1,0,1,1,26806.1,-0.0197858,-0.0201883,10.0673,14,-0.00152009,10,-0.000203241,-1.99709,1.14916,0.051342,20.1783,-0.0201883,
2,1,0,1,1,26806.1,-0.0177882,-0.0181182,10.1113,14,-0.00141915,10,-0.000183199,-1.99519,1.03612,0.0569433,22.4731,-0.0181182,
2,1,0,1,1,26806.1,-0.0157815,-0.0161617,10.1578,14,-0.00131783,10,-0.000164167,-1.9932,1.3078,0.045114,17.8648,-0.0161617,
2,1,0,1,1,26806.1,-0.0137839,-0.014155,10.1821,14,-0.00121609,10,-0.000144127,-1.99216,2.13738,0.0276039,10.9665,-0.014155,
2,1,0,1,1,26806.2,-0.0117863,-0.0121612,10.2016,14,-0.0011142,10,-0.000124064,-1.99133,2.12766,0.02773,11.0429,-0.0121612,
2,1,0,1,1,26806.2,-0.00978874,-0.0101874,10.2259,14,-0.00101201,10,-0.000104176,-1.9903,1.8639,0.0316541,12.6339,-0.0101874,
2,1,0,1,1,26806.2,-0.00778207,-0.00815547,10.2523,14,-0.000909631,10,-8.36119e-05,-1.98918,2.68447,0.0219783,8.78658,-0.00815547,
2,1,0,1,1,26806.2,-0.00578449,-0.00611399,10.2617,14,-0.000807056,10,-6.27401e-05,-1.98878,4.5265,0.0130344,5.22054,-0.00611399,
2,1,0,1,1,26806.2,-0.0037869,-0.00414886,10.2732,14,-0.00070441,10,-4.2622e-05,-1.9883,5.10436,0.0115587,4.63318,-0.00414886,
2,1,0,1,1,26806.2,-0.00178931,-0.00218287,10.2799,14,-0.000601593,10,-2.24397e-05,-1.98801,-13.5248,-0.00436235,-1.74844,-0.00218287,
2,1,0,1,1,26806.2,-2.55332e-05,-0.00042076,10.2667,14,-0.00051215,10,-4.3198e-06,-1.98857, , , ,-0.00042076,